subject	time_elapsed_ms	blocknum	block_type	block_response	trialnum	target	level	field	target_present	response	correct	rt
5b59862535af16000164960a	183467	1	practice	slash	1	square	global	LVF	yes	absent	0	2000
5b59862535af16000164960a	187108	1	practice	slash	2	rectangle	global	LVF	yes	present	1	500
5b59862535af16000164960a	190810	1	practice	slash	3	square	local	LVF	yes	present	1	990
5b59862535af16000164960a	194146	1	practice	slash	4	rectangle	global	LVF	yes	present	1	830
5b59862535af16000164960a	197575	1	practice	slash	5	square	global	RVF	yes	present	1	948
5b59862535af16000164960a	200424	1	practice	slash	6	rectangle	local	RVF	yes	present	1	737
5b59862535af16000164960a	203225	1	practice	slash	7	square	local	LVF	yes	present	1	824
5b59862535af16000164960a	207212	1	practice	slash	8	absent	absent	absent	no	absent	1	2000
5b59862535af16000164960a	211223	1	practice	slash	9	absent	absent	absent	no	absent	1	2000
5b59862535af16000164960a	214073	1	practice	slash	10	rectangle	global	RVF	yes	present	1	690
5b59862535af16000164960a	217344	1	practice	slash	11	rectangle	local	RVF	yes	present	1	1016
5b59862535af16000164960a	220289	1	practice	slash	12	rectangle	local	RVF	yes	present	1	983
5b59862535af16000164960a	224435	1	practice	slash	13	absent	absent	absent	no	absent	1	2000
5b59862535af16000164960a	228479	1	practice	slash	14	absent	absent	absent	no	absent	1	2000
5b59862535af16000164960a	231446	1	practice	slash	15	square	global	LVF	yes	present	1	1024
5b59862535af16000164960a	234732	1	practice	slash	16	rectangle	global	RVF	yes	present	1	1000
5b59862535af16000164960a	241061	2	main	slash	1	rectangle	global	RVF	yes	present	1	892
5b59862535af16000164960a	243547	2	main	slash	2	square	local	LVF	yes	present	1	981
5b59862535af16000164960a	246092	2	main	slash	3	square	global	LVF	yes	present	1	930
5b59862535af16000164960a	248323	2	main	slash	4	rectangle	local	LVF	yes	present	1	915
5b59862535af16000164960a	250454	2	main	slash	5	rectangle	global	LVF	yes	present	1	933
5b59862535af16000164960a	253585	2	main	slash	6	absent	absent	absent	no	absent	1	2000
5b59862535af16000164960a	256630	2	main	slash	7	absent	absent	absent	no	absent	1	2000
5b59862535af16000164960a	258334	2	main	slash	8	rectangle	global	LVF	yes	present	1	709
5b59862535af16000164960a	260681	2	main	slash	9	rectangle	local	RVF	yes	present	1	993
5b59862535af16000164960a	263768	2	main	slash	10	absent	absent	absent	no	absent	1	2000
5b59862535af16000164960a	265489	2	main	slash	11	square	local	LVF	yes	present	1	726
5b59862535af16000164960a	267647	2	main	slash	12	rectangle	local	LVF	yes	present	1	837
5b59862535af16000164960a	269785	2	main	slash	13	rectangle	global	LVF	yes	present	1	861
5b59862535af16000164960a	271673	2	main	slash	14	square	local	RVF	yes	present	1	786
5b59862535af16000164960a	274750	2	main	slash	15	absent	absent	absent	no	absent	1	2000
5b59862535af16000164960a	276392	2	main	slash	16	rectangle	global	RVF	yes	present	1	629
5b59862535af16000164960a	279576	2	main	slash	17	rectangle	global	RVF	yes	absent	0	2000
5b59862535af16000164960a	281771	2	main	slash	18	rectangle	local	LVF	yes	present	1	850
5b59862535af16000164960a	283696	2	main	slash	19	square	local	LVF	yes	present	1	878
5b59862535af16000164960a	286698	2	main	slash	20	absent	absent	absent	no	absent	1	2000
5b59862535af16000164960a	289810	2	main	slash	21	absent	absent	absent	no	absent	1	2000
5b59862535af16000164960a	292062	2	main	slash	22	square	global	RVF	yes	present	1	908
5b59862535af16000164960a	294385	2	main	slash	23	square	global	RVF	yes	present	1	1018
5b59862535af16000164960a	296560	2	main	slash	24	absent	absent	absent	no	present	0	1129
5b59862535af16000164960a	298531	2	main	slash	25	square	local	RVF	yes	present	1	970
5b59862535af16000164960a	300482	2	main	slash	26	square	global	LVF	yes	present	1	958
5b59862535af16000164960a	303504	2	main	slash	27	absent	absent	absent	no	absent	1	2000
5b59862535af16000164960a	305344	2	main	slash	28	square	global	LVF	yes	present	1	711
5b59862535af16000164960a	307352	2	main	slash	29	rectangle	local	RVF	yes	present	1	1005
5b59862535af16000164960a	309164	2	main	slash	30	rectangle	global	LVF	yes	present	1	770
5b59862535af16000164960a	311125	2	main	slash	31	square	local	RVF	yes	present	1	935
5b59862535af16000164960a	313019	2	main	slash	32	square	local	RVF	yes	present	1	931
5b59862535af16000164960a	314839	2	main	slash	33	square	global	RVF	yes	present	1	822
5b59862535af16000164960a	316683	2	main	slash	34	rectangle	local	LVF	yes	present	1	852
5b59862535af16000164960a	318511	2	main	slash	35	square	global	LVF	yes	present	1	833
5b59862535af16000164960a	320303	2	main	slash	36	square	local	LVF	yes	present	1	844
5b59862535af16000164960a	322128	2	main	slash	37	rectangle	global	RVF	yes	present	1	920
5b59862535af16000164960a	324048	2	main	slash	38	rectangle	local	RVF	yes	present	1	978
5b59862535af16000164960a	326117	2	main	slash	39	rectangle	local	RVF	yes	present	1	1150
5b59862535af16000164960a	327988	2	main	slash	40	square	global	RVF	yes	present	1	958
5b59862535af16000164960a	329773	2	main	slash	41	square	local	RVF	yes	present	1	845
5b59862535af16000164960a	331609	2	main	slash	42	square	local	LVF	yes	present	1	902
5b59862535af16000164960a	333499	2	main	slash	43	rectangle	local	RVF	yes	present	1	961
5b59862535af16000164960a	335386	2	main	slash	44	rectangle	local	LVF	yes	present	1	984
5b59862535af16000164960a	337068	2	main	slash	45	square	global	RVF	yes	present	1	769
5b59862535af16000164960a	338835	2	main	slash	46	rectangle	local	RVF	yes	present	1	822
5b59862535af16000164960a	341876	2	main	slash	47	absent	absent	absent	no	absent	1	2000
5b59862535af16000164960a	343820	2	main	slash	48	absent	absent	absent	no	present	0	833
5b59862535af16000164960a	345655	2	main	slash	49	square	global	RVF	yes	present	1	870
5b59862535af16000164960a	347419	2	main	slash	50	rectangle	global	RVF	yes	present	1	786
5b59862535af16000164960a	349167	2	main	slash	51	square	local	RVF	yes	present	1	788
5b59862535af16000164960a	352126	2	main	slash	52	absent	absent	absent	no	absent	1	2000
5b59862535af16000164960a	355654	2	main	slash	53	absent	absent	absent	no	absent	1	2000
5b59862535af16000164960a	358196	2	main	slash	54	square	global	LVF	yes	present	1	1163
5b59862535af16000164960a	360191	2	main	slash	55	rectangle	global	LVF	yes	present	1	1012
5b59862535af16000164960a	362134	2	main	slash	56	square	global	RVF	yes	present	1	992
5b59862535af16000164960a	363748	2	main	slash	57	rectangle	local	RVF	yes	present	1	726
5b59862535af16000164960a	365797	2	main	slash	58	absent	absent	absent	no	present	0	1094
5b59862535af16000164960a	367799	2	main	slash	59	square	local	LVF	yes	present	1	999
5b59862535af16000164960a	369469	2	main	slash	60	rectangle	global	RVF	yes	present	1	805
5b59862535af16000164960a	371365	2	main	slash	61	rectangle	global	LVF	yes	present	1	922
5b59862535af16000164960a	374275	2	main	slash	62	absent	absent	absent	no	absent	1	2000
5b59862535af16000164960a	377553	2	main	slash	63	absent	absent	absent	no	absent	1	2000
5b59862535af16000164960a	379436	2	main	slash	64	rectangle	local	LVF	yes	present	1	721
5b59862535af16000164960a	381170	2	main	slash	65	square	local	LVF	yes	present	1	791
5b59862535af16000164960a	383097	2	main	slash	66	rectangle	global	LVF	yes	present	1	988
5b59862535af16000164960a	385014	2	main	slash	67	square	global	LVF	yes	present	1	992
5b59862535af16000164960a	386930	2	main	slash	68	rectangle	local	RVF	yes	present	1	1011
5b59862535af16000164960a	388724	2	main	slash	69	square	global	RVF	yes	present	1	874
5b59862535af16000164960a	390546	2	main	slash	70	square	local	LVF	yes	present	1	915
5b59862535af16000164960a	392224	2	main	slash	71	square	local	RVF	yes	present	1	795
5b59862535af16000164960a	394052	2	main	slash	72	square	global	LVF	yes	present	1	910
5b59862535af16000164960a	396971	2	main	slash	73	absent	absent	absent	no	absent	1	2000
5b59862535af16000164960a	398982	2	main	slash	74	square	local	RVF	yes	present	1	750
5b59862535af16000164960a	400701	2	main	slash	75	rectangle	global	RVF	yes	present	1	805
5b59862535af16000164960a	402607	2	main	slash	76	rectangle	local	LVF	yes	present	1	964
5b59862535af16000164960a	404379	2	main	slash	77	rectangle	local	LVF	yes	present	1	854
5b59862535af16000164960a	406205	2	main	slash	78	square	global	LVF	yes	present	1	866
5b59862535af16000164960a	407936	2	main	slash	79	rectangle	global	RVF	yes	present	1	817
5b59862535af16000164960a	409654	2	main	slash	80	rectangle	global	LVF	yes	present	1	787
5b59862535af16000164960a	432662	3	practice	z	1	rectangle	global	RVF	yes	present	1	507
5b59862535af16000164960a	435312	3	practice	z	2	rectangle	local	RVF	yes	present	1	550
5b59862535af16000164960a	439423	3	practice	z	3	absent	absent	absent	no	absent	1	2000
5b59862535af16000164960a	442092	3	practice	z	4	square	global	LVF	yes	present	1	708
5b59862535af16000164960a	446113	3	practice	z	5	absent	absent	absent	no	absent	1	2000
5b59862535af16000164960a	448690	3	practice	z	6	square	local	LVF	yes	present	1	667
5b59862535af16000164960a	451474	3	practice	z	7	rectangle	global	LVF	yes	present	1	538
5b59862535af16000164960a	454002	3	practice	z	8	rectangle	local	RVF	yes	present	1	404
5b59862535af16000164960a	456576	3	practice	z	9	square	global	RVF	yes	present	1	498
5b59862535af16000164960a	459097	3	practice	z	10	rectangle	local	RVF	yes	present	1	525
5b59862535af16000164960a	461489	3	practice	z	11	square	global	LVF	yes	present	1	419
5b59862535af16000164960a	463915	3	practice	z	12	square	local	LVF	yes	present	1	450
5b59862535af16000164960a	467828	3	practice	z	13	absent	absent	absent	no	absent	1	2000
5b59862535af16000164960a	471806	3	practice	z	14	absent	absent	absent	no	absent	1	2000
5b59862535af16000164960a	474260	3	practice	z	15	rectangle	global	LVF	yes	present	1	428
5b59862535af16000164960a	476796	3	practice	z	16	rectangle	global	RVF	yes	present	1	535
5b59862535af16000164960a	481775	4	main	z	1	square	local	LVF	yes	present	1	475
5b59862535af16000164960a	483650	4	main	z	2	rectangle	global	RVF	yes	present	1	437
5b59862535af16000164960a	485539	4	main	z	3	absent	absent	absent	no	present	0	396
5b59862535af16000164960a	487422	4	main	z	4	square	global	RVF	yes	present	1	531
5b59862535af16000164960a	489093	4	main	z	5	rectangle	local	RVF	yes	present	1	538
5b59862535af16000164960a	490923	4	main	z	6	rectangle	global	LVF	yes	present	1	820
5b59862535af16000164960a	492804	4	main	z	7	square	local	RVF	yes	present	1	537
5b59862535af16000164960a	494605	4	main	z	8	rectangle	local	LVF	yes	present	1	675
5b59862535af16000164960a	496313	4	main	z	9	square	local	LVF	yes	present	1	687
5b59862535af16000164960a	499324	4	main	z	10	absent	absent	absent	no	absent	1	2000
5b59862535af16000164960a	501199	4	main	z	11	square	global	LVF	yes	present	1	930
5b59862535af16000164960a	503015	4	main	z	12	rectangle	local	LVF	yes	present	1	748
5b59862535af16000164960a	505124	4	main	z	13	rectangle	global	LVF	yes	present	1	1094
5b59862535af16000164960a	508360	4	main	z	14	absent	absent	absent	no	absent	1	2000
5b59862535af16000164960a	510281	4	main	z	15	rectangle	local	RVF	yes	present	1	910
5b59862535af16000164960a	511946	4	main	z	16	square	local	RVF	yes	present	1	744
5b59862535af16000164960a	513701	4	main	z	17	square	global	LVF	yes	present	1	768
5b59862535af16000164960a	515781	4	main	z	18	rectangle	global	LVF	yes	present	1	1118
5b59862535af16000164960a	517644	4	main	z	19	rectangle	global	RVF	yes	present	1	918
5b59862535af16000164960a	519340	4	main	z	20	square	local	RVF	yes	present	1	767
5b59862535af16000164960a	521136	4	main	z	21	rectangle	local	LVF	yes	present	1	814
5b59862535af16000164960a	522818	4	main	z	22	square	global	RVF	yes	present	1	717
5b59862535af16000164960a	525798	4	main	z	23	absent	absent	absent	no	absent	1	2000
5b59862535af16000164960a	527583	4	main	z	24	square	local	RVF	yes	present	1	491
5b59862535af16000164960a	529070	4	main	z	25	rectangle	local	RVF	yes	present	1	546
5b59862535af16000164960a	530655	4	main	z	26	square	local	LVF	yes	present	1	666
5b59862535af16000164960a	533602	4	main	z	27	absent	absent	absent	no	absent	1	2000
5b59862535af16000164960a	535195	4	main	z	28	square	global	RVF	yes	present	1	510
5b59862535af16000164960a	536659	4	main	z	29	square	global	LVF	yes	present	1	500
5b59862535af16000164960a	539543	4	main	z	30	absent	absent	absent	no	absent	1	2000
5b59862535af16000164960a	541147	4	main	z	31	rectangle	local	RVF	yes	present	1	525
5b59862535af16000164960a	542864	4	main	z	32	rectangle	global	RVF	yes	present	1	810
5b59862535af16000164960a	545716	4	main	z	33	absent	absent	absent	no	absent	1	2000
5b59862535af16000164960a	547255	4	main	z	34	rectangle	local	LVF	yes	present	1	477
5b59862535af16000164960a	548674	4	main	z	35	square	local	LVF	yes	present	1	501
5b59862535af16000164960a	549993	4	main	z	36	rectangle	global	RVF	yes	present	1	437
5b59862535af16000164960a	552905	4	main	z	37	absent	absent	absent	no	absent	1	2000
5b59862535af16000164960a	554692	4	main	z	38	square	global	LVF	yes	present	1	627
5b59862535af16000164960a	556151	4	main	z	39	square	global	RVF	yes	present	1	554
5b59862535af16000164960a	558041	4	main	z	40	rectangle	global	LVF	yes	present	1	463
5b59862535af16000164960a	561158	4	main	z	41	absent	absent	absent	no	absent	1	2000
5b59862535af16000164960a	562591	4	main	z	42	square	global	RVF	yes	present	1	437
5b59862535af16000164960a	564232	4	main	z	43	square	local	RVF	yes	present	1	480
5b59862535af16000164960a	565981	4	main	z	44	rectangle	global	RVF	yes	present	1	782
5b59862535af16000164960a	567411	4	main	z	45	rectangle	global	RVF	yes	present	1	505
5b59862535af16000164960a	568947	4	main	z	46	square	global	LVF	yes	present	1	636
5b59862535af16000164960a	571841	4	main	z	47	absent	absent	absent	no	absent	1	2000
5b59862535af16000164960a	573750	4	main	z	48	square	global	LVF	yes	present	1	505
5b59862535af16000164960a	575289	4	main	z	49	rectangle	local	RVF	yes	present	1	655
5b59862535af16000164960a	578181	4	main	z	50	absent	absent	absent	no	absent	1	2000
5b59862535af16000164960a	579701	4	main	z	51	square	local	LVF	yes	present	1	392
5b59862535af16000164960a	581085	4	main	z	52	rectangle	local	LVF	yes	present	1	477
5b59862535af16000164960a	582490	4	main	z	53	rectangle	local	RVF	yes	present	1	452
5b59862535af16000164960a	585437	4	main	z	54	absent	absent	absent	no	absent	1	2000
5b59862535af16000164960a	586828	4	main	z	55	square	local	RVF	yes	present	1	480
5b59862535af16000164960a	588231	4	main	z	56	rectangle	local	LVF	yes	present	1	485
5b59862535af16000164960a	589680	4	main	z	57	rectangle	global	RVF	yes	present	1	453
5b59862535af16000164960a	591063	4	main	z	58	rectangle	local	LVF	yes	present	1	423
5b59862535af16000164960a	592899	4	main	z	59	rectangle	global	LVF	yes	present	1	876
5b59862535af16000164960a	594410	4	main	z	60	rectangle	local	LVF	yes	present	1	591
5b59862535af16000164960a	595754	4	main	z	61	rectangle	global	LVF	yes	present	1	421
5b59862535af16000164960a	597134	4	main	z	62	square	global	RVF	yes	present	1	452
5b59862535af16000164960a	598472	4	main	z	63	rectangle	local	RVF	yes	present	1	426
5b59862535af16000164960a	599810	4	main	z	64	square	local	LVF	yes	present	1	417
5b59862535af16000164960a	601258	4	main	z	65	rectangle	local	RVF	yes	present	1	499
5b59862535af16000164960a	602623	4	main	z	66	square	local	LVF	yes	present	1	434
5b59862535af16000164960a	604179	4	main	z	67	rectangle	global	LVF	yes	present	1	625
5b59862535af16000164960a	605582	4	main	z	68	square	local	RVF	yes	present	1	515
5b59862535af16000164960a	608482	4	main	z	69	absent	absent	absent	no	absent	1	2000
5b59862535af16000164960a	610191	4	main	z	70	square	global	LVF	yes	present	1	381
5b59862535af16000164960a	611688	4	main	z	71	absent	absent	absent	no	present	0	629
5b59862535af16000164960a	613398	4	main	z	72	rectangle	global	LVF	yes	present	1	658
5b59862535af16000164960a	614803	4	main	z	73	square	local	LVF	yes	present	1	517
5b59862535af16000164960a	616181	4	main	z	74	square	local	RVF	yes	present	1	496
5b59862535af16000164960a	617632	4	main	z	75	rectangle	global	RVF	yes	present	1	549
5b59862535af16000164960a	619171	4	main	z	76	square	global	LVF	yes	present	1	609
5b59862535af16000164960a	620546	4	main	z	77	square	global	RVF	yes	present	1	452
5b59862535af16000164960a	622026	4	main	z	78	square	global	RVF	yes	present	1	517
5b59862535af16000164960a	624907	4	main	z	79	absent	absent	absent	no	absent	1	2000
5b59862535af16000164960a	628367	4	main	z	80	absent	absent	absent	no	absent	1	2000
