subject	time_elapsed_ms	blocknum	block_type	block_response	trialnum	target	level	field	target_present	response	correct	rt
5efca9b3026506070acda120	908478	9.5	practice	slash	1	rectangle	global	LVF	yes	absent	0	2000
5efca9b3026506070acda120	913643	9.5	practice	slash	2	rectangle	local	RVF	yes	absent	0	2000
5efca9b3026506070acda120	918483	9.5	practice	slash	3	rectangle	local	RVF	yes	present	1	1987
5efca9b3026506070acda120	921976	9.5	practice	slash	4	absent	absent	absent	no	present	0	1212
5efca9b3026506070acda120	925913	9.5	practice	slash	5	square	local	LVF	yes	present	1	1464
5efca9b3026506070acda120	930725	9.5	practice	slash	6	square	global	LVF	yes	present	1	1129
5efca9b3026506070acda120	934027	9.5	practice	slash	7	square	global	LVF	yes	present	1	831
5efca9b3026506070acda120	938496	9.5	practice	slash	8	rectangle	local	RVF	yes	absent	0	2000
5efca9b3026506070acda120	942491	9.5	practice	slash	9	rectangle	global	RVF	yes	present	1	1426
5efca9b3026506070acda120	946946	9.5	practice	slash	10	absent	absent	absent	no	absent	1	2000
5efca9b3026506070acda120	950433	9.5	practice	slash	11	rectangle	global	LVF	yes	present	1	1102
5efca9b3026506070acda120	954025	9.5	practice	slash	12	square	local	LVF	yes	present	1	1243
5efca9b3026506070acda120	957285	9.5	practice	slash	13	rectangle	global	RVF	yes	present	1	852
5efca9b3026506070acda120	960237	9.5	practice	slash	14	square	global	RVF	yes	present	1	672
5efca9b3026506070acda120	964565	9.5	practice	slash	15	absent	absent	absent	no	absent	1	2000
5efca9b3026506070acda120	968948	9.5	practice	slash	16	absent	absent	absent	no	absent	1	2000
5efca9b3026506070acda120	980046	10.5	main	slash	1	square	global	RVF	yes	present	1	747
5efca9b3026506070acda120	982584	10.5	main	slash	2	rectangle	global	RVF	yes	present	1	801
5efca9b3026506070acda120	988731	10.5	main	slash	3	absent	absent	absent	no	absent	1	2000
5efca9b3026506070acda120	991463	10.5	main	slash	4	rectangle	local	LVF	yes	present	1	1277
5efca9b3026506070acda120	994485	10.5	main	slash	5	square	local	RVF	yes	present	1	1268
5efca9b3026506070acda120	996794	10.5	main	slash	6	rectangle	global	RVF	yes	present	1	878
5efca9b3026506070acda120	1000616	10.5	main	slash	7	square	global	RVF	yes	absent	0	2000
5efca9b3026506070acda120	1002481	10.5	main	slash	8	square	global	RVF	yes	present	1	829
5efca9b3026506070acda120	1005322	10.5	main	slash	9	square	local	LVF	yes	present	1	1153
5efca9b3026506070acda120	1008296	10.5	main	slash	10	square	local	LVF	yes	present	1	1528
5efca9b3026506070acda120	1011346	10.5	main	slash	11	square	local	LVF	yes	present	1	1595
5efca9b3026506070acda120	1014800	10.5	main	slash	12	rectangle	local	LVF	yes	absent	0	2000
5efca9b3026506070acda120	1017784	10.5	main	slash	13	absent	absent	absent	no	present	0	1366
5efca9b3026506070acda120	1020534	10.5	main	slash	14	square	local	RVF	yes	present	1	1349
5efca9b3026506070acda120	1024000	10.5	main	slash	15	rectangle	global	LVF	yes	absent	0	2000
5efca9b3026506070acda120	1028163	10.5	main	slash	16	rectangle	local	RVF	yes	present	1	1776
5efca9b3026506070acda120	1030487	10.5	main	slash	17	rectangle	local	RVF	yes	present	1	1033
5efca9b3026506070acda120	1033582	10.5	main	slash	18	rectangle	local	RVF	yes	present	1	1179
5efca9b3026506070acda120	1037102	10.5	main	slash	19	absent	absent	absent	no	absent	1	2000
5efca9b3026506070acda120	1040467	10.5	main	slash	20	square	local	RVF	yes	absent	0	2000
5efca9b3026506070acda120	1043936	10.5	main	slash	21	rectangle	global	RVF	yes	absent	0	2000
5efca9b3026506070acda120	1048201	10.5	main	slash	22	absent	absent	absent	no	absent	1	2000
5efca9b3026506070acda120	1050275	10.5	main	slash	23	rectangle	global	RVF	yes	present	1	922
5efca9b3026506070acda120	1052766	10.5	main	slash	24	rectangle	global	LVF	yes	present	1	962
5efca9b3026506070acda120	1056154	10.5	main	slash	25	rectangle	local	LVF	yes	absent	0	2000
5efca9b3026506070acda120	1059536	10.5	main	slash	26	absent	absent	absent	no	absent	1	2000
5efca9b3026506070acda120	1063004	10.5	main	slash	27	absent	absent	absent	no	absent	1	2000
5efca9b3026506070acda120	1065421	10.5	main	slash	28	square	global	LVF	yes	present	1	1015
5efca9b3026506070acda120	1067569	10.5	main	slash	29	square	global	LVF	yes	present	1	730
5efca9b3026506070acda120	1070158	10.5	main	slash	30	square	local	LVF	yes	present	1	1418
5efca9b3026506070acda120	1072407	10.5	main	slash	31	rectangle	local	LVF	yes	present	1	1034
5efca9b3026506070acda120	1074531	10.5	main	slash	32	rectangle	global	LVF	yes	present	1	1025
5efca9b3026506070acda120	1077771	10.5	main	slash	33	absent	absent	absent	no	absent	1	2000
5efca9b3026506070acda120	1079942	10.5	main	slash	34	square	global	RVF	yes	present	1	1036
5efca9b3026506070acda120	1083171	10.5	main	slash	35	absent	absent	absent	no	absent	1	2000
5efca9b3026506070acda120	1085342	10.5	main	slash	36	rectangle	global	LVF	yes	present	1	736
5efca9b3026506070acda120	1087338	10.5	main	slash	37	square	global	LVF	yes	present	1	898
5efca9b3026506070acda120	1089116	10.5	main	slash	38	square	global	LVF	yes	present	1	678
5efca9b3026506070acda120	1092155	10.5	main	slash	39	square	local	RVF	yes	absent	0	2000
5efca9b3026506070acda120	1095473	10.5	main	slash	40	rectangle	local	RVF	yes	absent	0	2000
5efca9b3026506070acda120	1097390	10.5	main	slash	41	square	local	LVF	yes	present	1	833
5efca9b3026506070acda120	1099634	10.5	main	slash	42	square	global	LVF	yes	present	1	1193
5efca9b3026506070acda120	1102740	10.5	main	slash	43	absent	absent	absent	no	absent	1	2000
5efca9b3026506070acda120	1105152	10.5	main	slash	44	rectangle	global	LVF	yes	present	1	1044
5efca9b3026506070acda120	1107055	10.5	main	slash	45	square	global	LVF	yes	present	1	780
5efca9b3026506070acda120	1109087	10.5	main	slash	46	rectangle	global	RVF	yes	present	1	995
5efca9b3026506070acda120	1110858	10.5	main	slash	47	rectangle	global	LVF	yes	present	1	666
5efca9b3026506070acda120	1113873	10.5	main	slash	48	rectangle	local	LVF	yes	absent	0	2000
5efca9b3026506070acda120	1117241	10.5	main	slash	49	rectangle	local	LVF	yes	absent	0	2000
5efca9b3026506070acda120	1119817	10.5	main	slash	50	square	local	RVF	yes	present	1	1424
5efca9b3026506070acda120	1122380	10.5	main	slash	51	rectangle	global	RVF	yes	present	1	704
5efca9b3026506070acda120	1124236	10.5	main	slash	52	rectangle	global	LVF	yes	present	1	777
5efca9b3026506070acda120	1126204	10.5	main	slash	53	square	global	LVF	yes	present	1	962
5efca9b3026506070acda120	1129241	10.5	main	slash	54	absent	absent	absent	no	absent	1	2000
5efca9b3026506070acda120	1130848	10.5	main	slash	55	rectangle	global	LVF	yes	present	1	638
5efca9b3026506070acda120	1133890	10.5	main	slash	56	absent	absent	absent	no	absent	1	2000
5efca9b3026506070acda120	1136028	10.5	main	slash	57	square	local	RVF	yes	present	1	1051
5efca9b3026506070acda120	1139058	10.5	main	slash	58	square	local	LVF	yes	absent	0	2000
5efca9b3026506070acda120	1141007	10.5	main	slash	59	square	local	RVF	yes	present	1	930
5efca9b3026506070acda120	1142976	10.5	main	slash	60	rectangle	local	LVF	yes	present	1	917
5efca9b3026506070acda120	1145909	10.5	main	slash	61	absent	absent	absent	no	absent	1	2000
5efca9b3026506070acda120	1149059	10.5	main	slash	62	rectangle	local	RVF	yes	absent	0	2000
5efca9b3026506070acda120	1151724	10.5	main	slash	63	rectangle	local	RVF	yes	present	1	1246
5efca9b3026506070acda120	1154431	10.5	main	slash	64	square	local	LVF	yes	present	1	1669
5efca9b3026506070acda120	1157660	10.5	main	slash	65	square	global	RVF	yes	absent	0	2000
5efca9b3026506070acda120	1162893	10.5	main	slash	66	absent	absent	absent	no	absent	1	2000
5efca9b3026506070acda120	1165993	10.5	main	slash	67	square	global	RVF	yes	absent	0	2000
5efca9b3026506070acda120	1168005	10.5	main	slash	68	square	local	LVF	yes	present	1	709
5efca9b3026506070acda120	1170319	10.5	main	slash	69	rectangle	global	RVF	yes	present	1	1340
5efca9b3026506070acda120	1172615	10.5	main	slash	70	square	global	LVF	yes	present	1	1118
5efca9b3026506070acda120	1174624	10.5	main	slash	71	square	global	RVF	yes	present	1	1045
5efca9b3026506070acda120	1177594	10.5	main	slash	72	rectangle	local	LVF	yes	absent	0	2000
5efca9b3026506070acda120	1180662	10.5	main	slash	73	absent	absent	absent	no	absent	1	2000
5efca9b3026506070acda120	1183296	10.5	main	slash	74	rectangle	local	RVF	yes	present	1	1284
5efca9b3026506070acda120	1185805	10.5	main	slash	75	rectangle	local	RVF	yes	present	1	1326
5efca9b3026506070acda120	1188779	10.5	main	slash	76	absent	absent	absent	no	absent	1	2000
5efca9b3026506070acda120	1190930	10.5	main	slash	77	rectangle	global	RVF	yes	present	1	817
5efca9b3026506070acda120	1192916	10.5	main	slash	78	square	global	RVF	yes	present	1	1003
5efca9b3026506070acda120	1195929	10.5	main	slash	79	square	local	RVF	yes	absent	0	2000
5efca9b3026506070acda120	1201137	10.5	main	slash	80	absent	absent	absent	no	present	0	705
5efca9b3026506070acda120	1235617	11.5	practice	z	1	absent	absent	absent	no	absent	1	2000
5efca9b3026506070acda120	1238600	11.5	practice	z	2	rectangle	global	LVF	yes	present	1	647
5efca9b3026506070acda120	1241624	11.5	practice	z	3	square	global	LVF	yes	present	1	856
5efca9b3026506070acda120	1245769	11.5	practice	z	4	absent	absent	absent	no	absent	1	2000
5efca9b3026506070acda120	1250068	11.5	practice	z	5	square	local	LVF	yes	absent	0	2000
5efca9b3026506070acda120	1254109	11.5	practice	z	6	absent	absent	absent	no	present	0	1622
5efca9b3026506070acda120	1256932	11.5	practice	z	7	rectangle	global	RVF	yes	present	1	728
5efca9b3026506070acda120	1259844	11.5	practice	z	8	square	global	RVF	yes	present	1	742
5efca9b3026506070acda120	1264052	11.5	practice	z	9	rectangle	local	RVF	yes	absent	0	2000
5efca9b3026506070acda120	1266829	11.5	practice	z	10	rectangle	global	LVF	yes	present	1	576
5efca9b3026506070acda120	1270968	11.5	practice	z	11	rectangle	local	RVF	yes	absent	0	2000
5efca9b3026506070acda120	1274384	11.5	practice	z	12	rectangle	local	RVF	yes	present	1	1247
5efca9b3026506070acda120	1278503	11.5	practice	z	13	absent	absent	absent	no	absent	1	2000
5efca9b3026506070acda120	1282803	11.5	practice	z	14	square	local	LVF	yes	absent	0	2000
5efca9b3026506070acda120	1285535	11.5	practice	z	15	rectangle	global	RVF	yes	present	1	581
5efca9b3026506070acda120	1288178	11.5	practice	z	16	square	global	LVF	yes	present	1	556
5efca9b3026506070acda120	1294009	12.5	main	z	1	rectangle	local	RVF	yes	present	1	886
5efca9b3026506070acda120	1296291	12.5	main	z	2	square	local	LVF	yes	present	1	771
5efca9b3026506070acda120	1298085	12.5	main	z	3	square	global	RVF	yes	present	1	630
5efca9b3026506070acda120	1301202	12.5	main	z	4	rectangle	local	RVF	yes	absent	0	2000
5efca9b3026506070acda120	1302908	12.5	main	z	5	rectangle	global	RVF	yes	present	1	553
5efca9b3026506070acda120	1304822	12.5	main	z	6	rectangle	global	LVF	yes	present	1	650
5efca9b3026506070acda120	1306621	12.5	main	z	7	square	local	RVF	yes	present	1	866
5efca9b3026506070acda120	1308030	12.5	main	z	8	square	global	LVF	yes	present	1	508
5efca9b3026506070acda120	1309762	12.5	main	z	9	absent	absent	absent	no	present	0	774
5efca9b3026506070acda120	1312670	12.5	main	z	10	square	global	RVF	yes	absent	0	2000
5efca9b3026506070acda120	1315854	12.5	main	z	11	square	local	RVF	yes	absent	0	2000
5efca9b3026506070acda120	1317925	12.5	main	z	12	square	local	LVF	yes	present	1	669
5efca9b3026506070acda120	1319395	12.5	main	z	13	square	global	LVF	yes	present	1	556
5efca9b3026506070acda120	1320957	12.5	main	z	14	rectangle	global	RVF	yes	present	1	701
5efca9b3026506070acda120	1322647	12.5	main	z	15	rectangle	local	LVF	yes	present	1	824
5efca9b3026506070acda120	1325538	12.5	main	z	16	absent	absent	absent	no	absent	1	2000
5efca9b3026506070acda120	1327031	12.5	main	z	17	square	global	LVF	yes	present	1	524
5efca9b3026506070acda120	1329369	12.5	main	z	18	absent	absent	absent	no	present	0	1463
5efca9b3026506070acda120	1331426	12.5	main	z	19	absent	absent	absent	no	present	0	953
5efca9b3026506070acda120	1333202	12.5	main	z	20	rectangle	local	LVF	yes	present	1	846
5efca9b3026506070acda120	1336172	12.5	main	z	21	absent	absent	absent	no	absent	1	2000
5efca9b3026506070acda120	1337728	12.5	main	z	22	rectangle	global	LVF	yes	present	1	472
5efca9b3026506070acda120	1339920	12.5	main	z	23	square	global	LVF	yes	present	1	1295
5efca9b3026506070acda120	1342856	12.5	main	z	24	absent	absent	absent	no	absent	1	2000
5efca9b3026506070acda120	1346139	12.5	main	z	25	rectangle	local	RVF	yes	absent	0	2000
5efca9b3026506070acda120	1347963	12.5	main	z	26	square	local	LVF	yes	present	1	622
5efca9b3026506070acda120	1349454	12.5	main	z	27	square	local	LVF	yes	present	1	580
5efca9b3026506070acda120	1352340	12.5	main	z	28	square	global	RVF	yes	absent	0	2000
5efca9b3026506070acda120	1354433	12.5	main	z	29	square	local	RVF	yes	present	1	923
5efca9b3026506070acda120	1356194	12.5	main	z	30	rectangle	local	RVF	yes	present	1	903
5efca9b3026506070acda120	1359107	12.5	main	z	31	rectangle	local	LVF	yes	absent	0	2000
5efca9b3026506070acda120	1362257	12.5	main	z	32	rectangle	global	RVF	yes	absent	0	2000
5efca9b3026506070acda120	1364122	12.5	main	z	33	rectangle	global	RVF	yes	present	1	680
5efca9b3026506070acda120	1366321	12.5	main	z	34	rectangle	global	LVF	yes	present	1	1244
5efca9b3026506070acda120	1368155	12.5	main	z	35	absent	absent	absent	no	present	0	945
5efca9b3026506070acda120	1369537	12.5	main	z	36	rectangle	global	LVF	yes	present	1	494
5efca9b3026506070acda120	1371899	12.5	main	z	37	square	local	RVF	yes	present	1	1455
5efca9b3026506070acda120	1374775	12.5	main	z	38	absent	absent	absent	no	absent	1	2000
5efca9b3026506070acda120	1376360	12.5	main	z	39	rectangle	local	LVF	yes	present	1	600
5efca9b3026506070acda120	1379257	12.5	main	z	40	square	global	RVF	yes	absent	0	2000
5efca9b3026506070acda120	1380830	12.5	main	z	41	square	local	LVF	yes	present	1	568
5efca9b3026506070acda120	1383190	12.5	main	z	42	square	global	RVF	yes	present	1	1494
5efca9b3026506070acda120	1384871	12.5	main	z	43	rectangle	global	LVF	yes	present	1	694
5efca9b3026506070acda120	1387776	12.5	main	z	44	absent	absent	absent	no	absent	1	2000
5efca9b3026506070acda120	1389329	12.5	main	z	45	rectangle	local	LVF	yes	present	1	552
5efca9b3026506070acda120	1390784	12.5	main	z	46	square	local	LVF	yes	present	1	573
5efca9b3026506070acda120	1392413	12.5	main	z	47	square	local	RVF	yes	present	1	735
5efca9b3026506070acda120	1395262	12.5	main	z	48	rectangle	local	RVF	yes	absent	0	2000
5efca9b3026506070acda120	1397595	12.5	main	z	49	rectangle	global	LVF	yes	present	1	850
5efca9b3026506070acda120	1399234	12.5	main	z	50	square	local	RVF	yes	present	1	755
5efca9b3026506070acda120	1401141	12.5	main	z	51	square	global	LVF	yes	present	1	1013
5efca9b3026506070acda120	1402570	12.5	main	z	52	rectangle	global	LVF	yes	present	1	526
5efca9b3026506070acda120	1405393	12.5	main	z	53	absent	absent	absent	no	absent	1	2000
5efca9b3026506070acda120	1406895	12.5	main	z	54	rectangle	global	LVF	yes	present	1	498
5efca9b3026506070acda120	1408384	12.5	main	z	55	square	global	RVF	yes	present	1	671
5efca9b3026506070acda120	1409812	12.5	main	z	56	rectangle	global	RVF	yes	present	1	566
5efca9b3026506070acda120	1411196	12.5	main	z	57	square	global	LVF	yes	present	1	516
5efca9b3026506070acda120	1412714	12.5	main	z	58	rectangle	local	LVF	yes	present	1	684
5efca9b3026506070acda120	1414285	12.5	main	z	59	rectangle	global	RVF	yes	present	1	722
5efca9b3026506070acda120	1415921	12.5	main	z	60	square	global	LVF	yes	present	1	790
5efca9b3026506070acda120	1418778	12.5	main	z	61	absent	absent	absent	no	absent	1	2000
5efca9b3026506070acda120	1420732	12.5	main	z	62	square	local	LVF	yes	present	1	734
5efca9b3026506070acda120	1422274	12.5	main	z	63	rectangle	local	RVF	yes	present	1	709
5efca9b3026506070acda120	1425078	12.5	main	z	64	absent	absent	absent	no	absent	1	2000
5efca9b3026506070acda120	1427290	12.5	main	z	65	rectangle	local	RVF	yes	present	1	1293
5efca9b3026506070acda120	1428806	12.5	main	z	66	absent	absent	absent	no	present	0	690
5efca9b3026506070acda120	1431811	12.5	main	z	67	rectangle	local	LVF	yes	absent	0	2000
5efca9b3026506070acda120	1433182	12.5	main	z	68	square	local	RVF	yes	present	1	436
5efca9b3026506070acda120	1434752	12.5	main	z	69	rectangle	global	RVF	yes	present	1	703
5efca9b3026506070acda120	1436377	12.5	main	z	70	rectangle	global	RVF	yes	present	1	680
5efca9b3026506070acda120	1439262	12.5	main	z	71	absent	absent	absent	no	absent	1	2000
5efca9b3026506070acda120	1442530	12.5	main	z	72	absent	absent	absent	no	absent	1	2000
5efca9b3026506070acda120	1444465	12.5	main	z	73	square	global	RVF	yes	present	1	767
5efca9b3026506070acda120	1446553	12.5	main	z	74	square	local	LVF	yes	present	1	1154
5efca9b3026506070acda120	1448580	12.5	main	z	75	square	local	RVF	yes	present	1	916
5efca9b3026506070acda120	1451513	12.5	main	z	76	absent	absent	absent	no	absent	1	2000
5efca9b3026506070acda120	1453250	12.5	main	z	77	square	global	LVF	yes	present	1	501
5efca9b3026506070acda120	1454875	12.5	main	z	78	square	global	RVF	yes	present	1	725
5efca9b3026506070acda120	1457780	12.5	main	z	79	rectangle	local	RVF	yes	absent	0	2000
5efca9b3026506070acda120	1460799	12.5	main	z	80	rectangle	local	LVF	yes	absent	0	2000
