subject	time_elapsed_ms	blocknum	block_type	block_response	trialnum	target	level	field	target_present	response	correct	rt
60f4e3ab507bbb123f866e88	266146	1	practice	z	1	square	local	LVF	yes	present	1	719
60f4e3ab507bbb123f866e88	272405	1	practice	z	2	rectangle	local	RVF	yes	absent	0	2000
60f4e3ab507bbb123f866e88	277255	1	practice	z	3	absent	absent	absent	no	absent	1	2000
60f4e3ab507bbb123f866e88	280532	1	practice	z	4	rectangle	global	LVF	yes	present	1	957
60f4e3ab507bbb123f866e88	283681	1	practice	z	5	rectangle	global	RVF	yes	present	1	788
60f4e3ab507bbb123f866e88	286707	1	practice	z	6	rectangle	global	LVF	yes	present	1	666
60f4e3ab507bbb123f866e88	290034	1	practice	z	7	square	global	RVF	yes	present	1	942
60f4e3ab507bbb123f866e88	293161	1	practice	z	8	absent	absent	absent	no	present	0	834
60f4e3ab507bbb123f866e88	296579	1	practice	z	9	absent	absent	absent	no	present	0	953
60f4e3ab507bbb123f866e88	299667	1	practice	z	10	rectangle	global	RVF	yes	present	1	741
60f4e3ab507bbb123f866e88	302788	1	practice	z	11	square	global	LVF	yes	present	1	894
60f4e3ab507bbb123f866e88	305734	1	practice	z	12	rectangle	local	RVF	yes	present	1	756
60f4e3ab507bbb123f866e88	308918	1	practice	z	13	square	global	LVF	yes	present	1	1041
60f4e3ab507bbb123f866e88	311877	1	practice	z	14	absent	absent	absent	no	present	0	750
60f4e3ab507bbb123f866e88	314673	1	practice	z	15	rectangle	local	RVF	yes	present	1	494
60f4e3ab507bbb123f866e88	317393	1	practice	z	16	square	local	LVF	yes	present	1	549
60f4e3ab507bbb123f866e88	458339	2	main	z	1	rectangle	local	LVF	yes	present	1	352
60f4e3ab507bbb123f866e88	461048	2	main	z	2	absent	absent	absent	no	present	0	1060
60f4e3ab507bbb123f866e88	463632	2	main	z	3	square	local	LVF	yes	present	1	1196
60f4e3ab507bbb123f866e88	467703	2	main	z	4	rectangle	local	LVF	yes	present	1	1067
60f4e3ab507bbb123f866e88	470985	2	main	z	5	rectangle	global	LVF	yes	absent	0	2000
60f4e3ab507bbb123f866e88	474052	2	main	z	6	rectangle	global	LVF	yes	absent	0	2000
60f4e3ab507bbb123f866e88	475929	2	main	z	7	rectangle	global	RVF	yes	present	1	741
60f4e3ab507bbb123f866e88	478393	2	main	z	8	square	global	LVF	yes	present	1	1173
60f4e3ab507bbb123f866e88	482185	2	main	z	9	square	global	LVF	yes	absent	0	2000
60f4e3ab507bbb123f866e88	484742	2	main	z	10	absent	absent	absent	no	present	0	1486
60f4e3ab507bbb123f866e88	486953	2	main	z	11	square	local	RVF	yes	present	1	1014
60f4e3ab507bbb123f866e88	489255	2	main	z	12	square	local	LVF	yes	present	1	899
60f4e3ab507bbb123f866e88	492570	2	main	z	13	rectangle	local	RVF	yes	absent	0	2000
60f4e3ab507bbb123f866e88	494691	2	main	z	14	square	global	LVF	yes	present	1	885
60f4e3ab507bbb123f866e88	498070	2	main	z	15	rectangle	global	LVF	yes	absent	0	2000
60f4e3ab507bbb123f866e88	500278	2	main	z	16	rectangle	local	RVF	yes	present	1	905
60f4e3ab507bbb123f866e88	502823	2	main	z	17	square	global	RVF	yes	present	1	1117
60f4e3ab507bbb123f866e88	505681	2	main	z	18	rectangle	local	LVF	yes	present	1	875
60f4e3ab507bbb123f866e88	509337	2	main	z	19	rectangle	global	LVF	yes	absent	0	2000
60f4e3ab507bbb123f866e88	512491	2	main	z	20	square	global	RVF	yes	present	1	851
60f4e3ab507bbb123f866e88	514797	2	main	z	21	square	local	LVF	yes	present	1	857
60f4e3ab507bbb123f866e88	516964	2	main	z	22	square	global	RVF	yes	present	1	790
60f4e3ab507bbb123f866e88	520355	2	main	z	23	absent	absent	absent	no	absent	1	2000
60f4e3ab507bbb123f866e88	522557	2	main	z	24	rectangle	local	LVF	yes	present	1	999
60f4e3ab507bbb123f866e88	524891	2	main	z	25	square	local	LVF	yes	present	1	982
60f4e3ab507bbb123f866e88	527381	2	main	z	26	rectangle	local	RVF	yes	present	1	989
60f4e3ab507bbb123f866e88	530006	2	main	z	27	rectangle	local	RVF	yes	present	1	1114
60f4e3ab507bbb123f866e88	532632	2	main	z	28	square	local	RVF	yes	present	1	1091
60f4e3ab507bbb123f866e88	536188	2	main	z	29	rectangle	global	RVF	yes	absent	0	2000
60f4e3ab507bbb123f866e88	538820	2	main	z	30	absent	absent	absent	no	present	0	928
60f4e3ab507bbb123f866e88	542123	2	main	z	31	absent	absent	absent	no	absent	1	2000
60f4e3ab507bbb123f866e88	544163	2	main	z	32	square	local	RVF	yes	present	1	803
60f4e3ab507bbb123f866e88	547523	2	main	z	33	square	global	RVF	yes	absent	0	2000
60f4e3ab507bbb123f866e88	549785	2	main	z	34	rectangle	global	RVF	yes	present	1	575
60f4e3ab507bbb123f866e88	552454	2	main	z	35	absent	absent	absent	no	present	0	1228
60f4e3ab507bbb123f866e88	555432	2	main	z	36	square	local	RVF	yes	present	1	1189
60f4e3ab507bbb123f866e88	558958	2	main	z	37	square	global	LVF	yes	absent	0	2000
60f4e3ab507bbb123f866e88	563140	2	main	z	38	absent	absent	absent	no	absent	1	2000
60f4e3ab507bbb123f866e88	566525	2	main	z	39	absent	absent	absent	no	absent	1	2000
60f4e3ab507bbb123f866e88	570255	2	main	z	40	rectangle	global	RVF	yes	present	1	1242
60f4e3ab507bbb123f866e88	573425	2	main	z	41	absent	absent	absent	no	absent	1	2000
60f4e3ab507bbb123f866e88	577785	2	main	z	42	rectangle	local	RVF	yes	present	1	1073
60f4e3ab507bbb123f866e88	581376	2	main	z	43	rectangle	global	RVF	yes	absent	0	2000
60f4e3ab507bbb123f866e88	583981	2	main	z	44	absent	absent	absent	no	present	0	1002
60f4e3ab507bbb123f866e88	587293	2	main	z	45	rectangle	global	RVF	yes	absent	0	2000
60f4e3ab507bbb123f866e88	589138	2	main	z	46	rectangle	local	RVF	yes	present	1	659
60f4e3ab507bbb123f866e88	591688	2	main	z	47	square	local	RVF	yes	present	1	908
60f4e3ab507bbb123f866e88	595410	2	main	z	48	absent	absent	absent	no	absent	1	2000
60f4e3ab507bbb123f866e88	597355	2	main	z	49	rectangle	local	RVF	yes	present	1	676
60f4e3ab507bbb123f866e88	601443	2	main	z	50	square	global	LVF	yes	absent	0	2000
60f4e3ab507bbb123f866e88	604760	2	main	z	51	absent	absent	absent	no	absent	1	2000
60f4e3ab507bbb123f866e88	608220	2	main	z	52	rectangle	local	LVF	yes	present	1	722
60f4e3ab507bbb123f866e88	612361	2	main	z	53	square	global	RVF	yes	absent	0	2000
60f4e3ab507bbb123f866e88	616195	2	main	z	54	absent	absent	absent	no	absent	1	2000
60f4e3ab507bbb123f866e88	619494	2	main	z	55	absent	absent	absent	no	absent	1	2000
60f4e3ab507bbb123f866e88	622827	2	main	z	56	rectangle	global	RVF	yes	absent	0	2000
60f4e3ab507bbb123f866e88	624774	2	main	z	57	rectangle	global	LVF	yes	present	1	710
60f4e3ab507bbb123f866e88	628045	2	main	z	58	square	global	LVF	yes	absent	0	2000
60f4e3ab507bbb123f866e88	631245	2	main	z	59	absent	absent	absent	no	absent	1	2000
60f4e3ab507bbb123f866e88	633186	2	main	z	60	square	local	RVF	yes	present	1	636
60f4e3ab507bbb123f866e88	636446	2	main	z	61	rectangle	global	RVF	yes	absent	0	2000
60f4e3ab507bbb123f866e88	640500	2	main	z	62	rectangle	local	LVF	yes	present	1	734
60f4e3ab507bbb123f866e88	642953	2	main	z	63	square	local	LVF	yes	present	1	1171
60f4e3ab507bbb123f866e88	647029	2	main	z	64	square	local	RVF	yes	absent	0	2000
60f4e3ab507bbb123f866e88	649233	2	main	z	65	square	local	LVF	yes	present	1	983
60f4e3ab507bbb123f866e88	652647	2	main	z	66	square	global	LVF	yes	absent	0	2000
60f4e3ab507bbb123f866e88	658415	2	main	z	67	rectangle	global	LVF	yes	absent	0	2000
60f4e3ab507bbb123f866e88	660445	2	main	z	68	rectangle	local	LVF	yes	present	1	862
60f4e3ab507bbb123f866e88	667698	2	main	z	69	rectangle	local	LVF	yes	absent	0	2000
60f4e3ab507bbb123f866e88	674983	2	main	z	70	square	global	LVF	yes	absent	0	2000
60f4e3ab507bbb123f866e88	678382	2	main	z	71	square	local	RVF	yes	absent	0	2000
60f4e3ab507bbb123f866e88	680248	2	main	z	72	square	local	LVF	yes	present	1	679
60f4e3ab507bbb123f866e88	683466	2	main	z	73	absent	absent	absent	no	absent	1	2000
60f4e3ab507bbb123f866e88	687602	2	main	z	74	rectangle	global	LVF	yes	present	1	1965
60f4e3ab507bbb123f866e88	690733	2	main	z	75	rectangle	local	RVF	yes	absent	0	2000
60f4e3ab507bbb123f866e88	692786	2	main	z	76	square	local	LVF	yes	present	1	884
60f4e3ab507bbb123f866e88	696001	2	main	z	77	square	global	RVF	yes	absent	0	2000
60f4e3ab507bbb123f866e88	699167	2	main	z	78	square	global	RVF	yes	absent	0	2000
60f4e3ab507bbb123f866e88	702317	2	main	z	79	square	global	RVF	yes	absent	0	2000
60f4e3ab507bbb123f866e88	705384	2	main	z	80	rectangle	global	LVF	yes	absent	0	2000
60f4e3ab507bbb123f866e88	792597	3	practice	slash	1	absent	absent	absent	no	present	0	835
60f4e3ab507bbb123f866e88	795501	3	practice	slash	2	square	global	LVF	yes	present	1	741
60f4e3ab507bbb123f866e88	798630	3	practice	slash	3	square	local	LVF	yes	present	1	868
60f4e3ab507bbb123f866e88	801643	3	practice	slash	4	rectangle	local	RVF	yes	present	1	832
60f4e3ab507bbb123f866e88	804615	3	practice	slash	5	square	global	LVF	yes	present	1	854
60f4e3ab507bbb123f866e88	807471	3	practice	slash	6	rectangle	local	RVF	yes	present	1	875
60f4e3ab507bbb123f866e88	811525	3	practice	slash	7	rectangle	global	RVF	yes	absent	0	2000
60f4e3ab507bbb123f866e88	814945	3	practice	slash	8	absent	absent	absent	no	present	0	783
60f4e3ab507bbb123f866e88	818082	3	practice	slash	9	rectangle	global	RVF	yes	present	1	950
60f4e3ab507bbb123f866e88	821029	3	practice	slash	10	rectangle	local	RVF	yes	present	1	883
60f4e3ab507bbb123f866e88	825093	3	practice	slash	11	square	global	RVF	yes	absent	0	2000
60f4e3ab507bbb123f866e88	828528	3	practice	slash	12	rectangle	global	LVF	yes	present	1	982
60f4e3ab507bbb123f866e88	831494	3	practice	slash	13	absent	absent	absent	no	present	0	881
60f4e3ab507bbb123f866e88	835612	3	practice	slash	14	rectangle	global	LVF	yes	absent	0	2000
60f4e3ab507bbb123f866e88	838583	3	practice	slash	15	square	local	LVF	yes	present	1	803
60f4e3ab507bbb123f866e88	841405	3	practice	slash	16	absent	absent	absent	no	present	0	757
60f4e3ab507bbb123f866e88	844706	4	main	slash	1	rectangle	local	RVF	yes	present	1	626
60f4e3ab507bbb123f866e88	846800	4	main	slash	2	square	global	LVF	yes	present	1	636
60f4e3ab507bbb123f866e88	850126	4	main	slash	3	absent	absent	absent	no	absent	1	2000
60f4e3ab507bbb123f866e88	852387	4	main	slash	4	rectangle	local	RVF	yes	present	1	657
60f4e3ab507bbb123f866e88	854561	4	main	slash	5	square	local	RVF	yes	present	1	848
60f4e3ab507bbb123f866e88	856986	4	main	slash	6	square	local	LVF	yes	present	1	988
60f4e3ab507bbb123f866e88	860327	4	main	slash	7	rectangle	global	RVF	yes	absent	0	2000
60f4e3ab507bbb123f866e88	861924	4	main	slash	8	square	local	RVF	yes	present	1	643
60f4e3ab507bbb123f866e88	865312	4	main	slash	9	absent	absent	absent	no	absent	1	2000
60f4e3ab507bbb123f866e88	866729	4	main	slash	10	rectangle	local	LVF	yes	present	1	348
60f4e3ab507bbb123f866e88	868880	4	main	slash	11	rectangle	global	RVF	yes	present	1	682
60f4e3ab507bbb123f866e88	872329	4	main	slash	12	rectangle	global	LVF	yes	absent	0	2000
60f4e3ab507bbb123f866e88	874288	4	main	slash	13	absent	absent	absent	no	present	0	605
60f4e3ab507bbb123f866e88	876563	4	main	slash	14	square	global	RVF	yes	present	1	897
60f4e3ab507bbb123f866e88	879450	4	main	slash	15	absent	absent	absent	no	present	0	1034
60f4e3ab507bbb123f866e88	881720	4	main	slash	16	square	local	RVF	yes	present	1	970
60f4e3ab507bbb123f866e88	884245	4	main	slash	17	square	local	RVF	yes	present	1	1179
60f4e3ab507bbb123f866e88	887647	4	main	slash	18	rectangle	local	RVF	yes	absent	0	2000
60f4e3ab507bbb123f866e88	888999	4	main	slash	19	square	global	LVF	yes	present	1	365
60f4e3ab507bbb123f866e88	892280	4	main	slash	20	square	global	RVF	yes	absent	0	2000
60f4e3ab507bbb123f866e88	894084	4	main	slash	21	rectangle	local	LVF	yes	present	1	667
60f4e3ab507bbb123f866e88	896285	4	main	slash	22	rectangle	local	RVF	yes	present	1	951
60f4e3ab507bbb123f866e88	899814	4	main	slash	23	square	global	LVF	yes	absent	0	2000
60f4e3ab507bbb123f866e88	903876	4	main	slash	24	absent	absent	absent	no	present	0	507
60f4e3ab507bbb123f866e88	908824	4	main	slash	25	rectangle	global	RVF	yes	present	1	1489
60f4e3ab507bbb123f866e88	915816	4	main	slash	26	absent	absent	absent	no	present	0	380
60f4e3ab507bbb123f866e88	919582	4	main	slash	27	absent	absent	absent	no	absent	1	2000
60f4e3ab507bbb123f866e88	922428	4	main	slash	28	rectangle	global	LVF	yes	present	1	909
60f4e3ab507bbb123f866e88	924434	4	main	slash	29	square	local	LVF	yes	present	1	765
60f4e3ab507bbb123f866e88	928766	4	main	slash	30	rectangle	global	RVF	yes	absent	0	2000
60f4e3ab507bbb123f866e88	930569	4	main	slash	31	rectangle	local	LVF	yes	present	1	667
60f4e3ab507bbb123f866e88	934017	4	main	slash	32	square	global	RVF	yes	absent	0	2000
60f4e3ab507bbb123f866e88	935739	4	main	slash	33	square	local	LVF	yes	present	1	619
60f4e3ab507bbb123f866e88	939550	4	main	slash	34	rectangle	global	LVF	yes	absent	0	2000
60f4e3ab507bbb123f866e88	941294	4	main	slash	35	rectangle	local	LVF	yes	present	1	573
60f4e3ab507bbb123f866e88	944601	4	main	slash	36	square	global	RVF	yes	absent	0	2000
60f4e3ab507bbb123f866e88	946425	4	main	slash	37	square	local	LVF	yes	present	1	672
60f4e3ab507bbb123f866e88	948773	4	main	slash	38	absent	absent	absent	no	present	0	1136
60f4e3ab507bbb123f866e88	951984	4	main	slash	39	rectangle	global	LVF	yes	absent	0	2000
60f4e3ab507bbb123f866e88	955118	4	main	slash	40	square	global	LVF	yes	absent	0	2000
60f4e3ab507bbb123f866e88	956853	4	main	slash	41	absent	absent	absent	no	present	0	399
60f4e3ab507bbb123f866e88	958968	4	main	slash	42	rectangle	global	LVF	yes	present	1	832
60f4e3ab507bbb123f866e88	960984	4	main	slash	43	square	local	RVF	yes	present	1	696
60f4e3ab507bbb123f866e88	962743	4	main	slash	44	square	global	RVF	yes	present	1	588
60f4e3ab507bbb123f866e88	964437	4	main	slash	45	rectangle	global	LVF	yes	present	1	566
60f4e3ab507bbb123f866e88	967553	4	main	slash	46	absent	absent	absent	no	absent	1	2000
60f4e3ab507bbb123f866e88	969528	4	main	slash	47	rectangle	local	RVF	yes	present	1	672
60f4e3ab507bbb123f866e88	971226	4	main	slash	48	rectangle	local	RVF	yes	present	1	553
60f4e3ab507bbb123f866e88	972851	4	main	slash	49	square	global	LVF	yes	present	1	464
60f4e3ab507bbb123f866e88	974451	4	main	slash	50	square	local	LVF	yes	present	1	479
60f4e3ab507bbb123f866e88	976304	4	main	slash	51	absent	absent	absent	no	present	0	698
60f4e3ab507bbb123f866e88	978232	4	main	slash	52	absent	absent	absent	no	present	0	743
60f4e3ab507bbb123f866e88	980996	4	main	slash	53	rectangle	local	LVF	yes	present	1	1607
60f4e3ab507bbb123f866e88	984054	4	main	slash	54	rectangle	global	LVF	yes	absent	0	2000
60f4e3ab507bbb123f866e88	985452	4	main	slash	55	square	global	RVF	yes	present	1	446
60f4e3ab507bbb123f866e88	987212	4	main	slash	56	square	global	LVF	yes	present	1	539
60f4e3ab507bbb123f866e88	988844	4	main	slash	57	absent	absent	absent	no	present	0	553
60f4e3ab507bbb123f866e88	991319	4	main	slash	58	square	global	RVF	yes	present	1	1362
60f4e3ab507bbb123f866e88	993393	4	main	slash	59	rectangle	local	RVF	yes	present	1	953
60f4e3ab507bbb123f866e88	996503	4	main	slash	60	square	global	RVF	yes	absent	0	2000
60f4e3ab507bbb123f866e88	998916	4	main	slash	61	rectangle	global	RVF	yes	present	1	775
60f4e3ab507bbb123f866e88	1001287	4	main	slash	62	absent	absent	absent	no	present	0	1112
60f4e3ab507bbb123f866e88	1003544	4	main	slash	63	rectangle	local	LVF	yes	present	1	1053
60f4e3ab507bbb123f866e88	1006269	4	main	slash	64	square	local	LVF	yes	present	1	1128
60f4e3ab507bbb123f866e88	1008813	4	main	slash	65	absent	absent	absent	no	present	0	1006
60f4e3ab507bbb123f866e88	1011107	4	main	slash	66	rectangle	local	LVF	yes	present	1	916
60f4e3ab507bbb123f866e88	1013829	4	main	slash	67	rectangle	local	RVF	yes	present	1	754
60f4e3ab507bbb123f866e88	1015659	4	main	slash	68	rectangle	local	LVF	yes	present	1	583
60f4e3ab507bbb123f866e88	1017476	4	main	slash	69	rectangle	global	LVF	yes	present	1	634
60f4e3ab507bbb123f866e88	1019228	4	main	slash	70	rectangle	global	RVF	yes	present	1	619
60f4e3ab507bbb123f866e88	1021153	4	main	slash	71	square	local	LVF	yes	present	1	612
60f4e3ab507bbb123f866e88	1023350	4	main	slash	72	square	local	RVF	yes	present	1	658
60f4e3ab507bbb123f866e88	1026154	4	main	slash	73	square	local	RVF	yes	present	1	680
60f4e3ab507bbb123f866e88	1029840	4	main	slash	74	absent	absent	absent	no	absent	1	2000
60f4e3ab507bbb123f866e88	1032063	4	main	slash	75	square	global	LVF	yes	present	1	585
60f4e3ab507bbb123f866e88	1034222	4	main	slash	76	square	local	LVF	yes	present	1	828
60f4e3ab507bbb123f866e88	1036390	4	main	slash	77	rectangle	global	RVF	yes	present	1	996
60f4e3ab507bbb123f866e88	1038335	4	main	slash	78	square	local	RVF	yes	present	1	724
60f4e3ab507bbb123f866e88	1042273	4	main	slash	79	square	global	LVF	yes	absent	0	2000
60f4e3ab507bbb123f866e88	1045045	4	main	slash	80	rectangle	global	RVF	yes	present	1	550
