subject	time_elapsed_ms	blocknum	block_type	block_response	trialnum	target	level	field	target_present	response	correct	rt
61210b5c3f465c51a7f4166a	732148	1	practice	slash	1	square	global	LVF	yes	present	1	581
61210b5c3f465c51a7f4166a	776957	1	practice	slash	2	rectangle	local	RVF	yes	present	1	1029
61210b5c3f465c51a7f4166a	781242	1	practice	slash	3	absent	absent	absent	no	present	0	916
61210b5c3f465c51a7f4166a	785052	1	practice	slash	4	rectangle	global	RVF	yes	present	1	576
61210b5c3f465c51a7f4166a	789593	1	practice	slash	5	rectangle	local	RVF	yes	absent	0	2000
61210b5c3f465c51a7f4166a	792657	1	practice	slash	6	absent	absent	absent	no	present	0	698
61210b5c3f465c51a7f4166a	795277	1	practice	slash	7	rectangle	global	LVF	yes	present	1	436
61210b5c3f465c51a7f4166a	798345	1	practice	slash	8	rectangle	global	RVF	yes	present	1	854
61210b5c3f465c51a7f4166a	801689	1	practice	slash	9	absent	absent	absent	no	present	0	1249
61210b5c3f465c51a7f4166a	804687	1	practice	slash	10	rectangle	global	LVF	yes	present	1	729
61210b5c3f465c51a7f4166a	807221	1	practice	slash	11	rectangle	local	RVF	yes	present	1	581
61210b5c3f465c51a7f4166a	810259	1	practice	slash	12	square	local	LVF	yes	present	1	869
61210b5c3f465c51a7f4166a	813151	1	practice	slash	13	square	global	RVF	yes	present	1	811
61210b5c3f465c51a7f4166a	815733	1	practice	slash	14	square	local	LVF	yes	present	1	361
61210b5c3f465c51a7f4166a	818218	1	practice	slash	15	square	global	LVF	yes	present	1	429
61210b5c3f465c51a7f4166a	822322	1	practice	slash	16	absent	absent	absent	no	absent	1	2000
61210b5c3f465c51a7f4166a	861346	2	main	slash	1	rectangle	global	LVF	yes	present	1	380
61210b5c3f465c51a7f4166a	864141	2	main	slash	2	rectangle	local	LVF	yes	present	1	344
61210b5c3f465c51a7f4166a	867054	2	main	slash	3	rectangle	local	LVF	yes	present	1	1273
61210b5c3f465c51a7f4166a	871647	2	main	slash	4	square	global	RVF	yes	absent	0	2000
61210b5c3f465c51a7f4166a	875877	2	main	slash	5	square	local	RVF	yes	present	1	1231
61210b5c3f465c51a7f4166a	878773	2	main	slash	6	rectangle	global	LVF	yes	present	1	1128
61210b5c3f465c51a7f4166a	882895	2	main	slash	7	absent	absent	absent	no	absent	1	2000
61210b5c3f465c51a7f4166a	885660	2	main	slash	8	rectangle	local	RVF	yes	present	1	766
61210b5c3f465c51a7f4166a	889611	2	main	slash	9	square	global	LVF	yes	absent	0	2000
61210b5c3f465c51a7f4166a	893427	2	main	slash	10	square	global	LVF	yes	absent	0	2000
61210b5c3f465c51a7f4166a	896894	2	main	slash	11	square	local	LVF	yes	absent	0	2000
61210b5c3f465c51a7f4166a	899601	2	main	slash	12	absent	absent	absent	no	present	0	691
61210b5c3f465c51a7f4166a	902157	2	main	slash	13	square	global	RVF	yes	present	1	714
61210b5c3f465c51a7f4166a	905742	2	main	slash	14	square	global	LVF	yes	absent	0	2000
61210b5c3f465c51a7f4166a	908197	2	main	slash	15	square	local	RVF	yes	present	1	921
61210b5c3f465c51a7f4166a	910283	2	main	slash	16	rectangle	global	RVF	yes	present	1	408
61210b5c3f465c51a7f4166a	912873	2	main	slash	17	square	local	LVF	yes	present	1	932
61210b5c3f465c51a7f4166a	914955	2	main	slash	18	rectangle	local	LVF	yes	present	1	830
61210b5c3f465c51a7f4166a	918082	2	main	slash	19	absent	absent	absent	no	present	0	858
61210b5c3f465c51a7f4166a	921657	2	main	slash	20	absent	absent	absent	no	absent	1	2000
61210b5c3f465c51a7f4166a	925420	2	main	slash	21	rectangle	local	LVF	yes	present	1	1747
61210b5c3f465c51a7f4166a	928071	2	main	slash	22	square	global	RVF	yes	present	1	511
61210b5c3f465c51a7f4166a	930798	2	main	slash	23	rectangle	global	LVF	yes	present	1	860
61210b5c3f465c51a7f4166a	933189	2	main	slash	24	square	local	LVF	yes	present	1	933
61210b5c3f465c51a7f4166a	935791	2	main	slash	25	rectangle	global	LVF	yes	present	1	1035
61210b5c3f465c51a7f4166a	938337	2	main	slash	26	square	global	RVF	yes	present	1	1182
61210b5c3f465c51a7f4166a	941269	2	main	slash	27	square	local	RVF	yes	present	1	1714
61210b5c3f465c51a7f4166a	943866	2	main	slash	28	absent	absent	absent	no	present	0	1062
61210b5c3f465c51a7f4166a	945921	2	main	slash	29	rectangle	local	RVF	yes	present	1	834
61210b5c3f465c51a7f4166a	948974	2	main	slash	30	square	local	LVF	yes	present	1	604
61210b5c3f465c51a7f4166a	953269	2	main	slash	31	rectangle	local	RVF	yes	absent	0	2000
61210b5c3f465c51a7f4166a	957354	2	main	slash	32	rectangle	global	RVF	yes	present	1	685
61210b5c3f465c51a7f4166a	959850	2	main	slash	33	rectangle	global	RVF	yes	present	1	964
61210b5c3f465c51a7f4166a	963452	2	main	slash	34	rectangle	local	RVF	yes	absent	0	2000
61210b5c3f465c51a7f4166a	966787	2	main	slash	35	absent	absent	absent	no	present	0	1737
61210b5c3f465c51a7f4166a	969158	2	main	slash	36	absent	absent	absent	no	present	0	941
61210b5c3f465c51a7f4166a	972384	2	main	slash	37	square	local	RVF	yes	absent	0	2000
61210b5c3f465c51a7f4166a	975917	2	main	slash	38	square	global	LVF	yes	absent	0	2000
61210b5c3f465c51a7f4166a	978599	2	main	slash	39	absent	absent	absent	no	absent	1	2000
61210b5c3f465c51a7f4166a	981119	2	main	slash	40	rectangle	global	RVF	yes	present	1	953
61210b5c3f465c51a7f4166a	984782	2	main	slash	41	absent	absent	absent	no	absent	1	2000
61210b5c3f465c51a7f4166a	988265	2	main	slash	42	square	local	RVF	yes	absent	0	2000
61210b5c3f465c51a7f4166a	991065	2	main	slash	43	square	local	LVF	yes	absent	0	2000
61210b5c3f465c51a7f4166a	993213	2	main	slash	44	square	global	RVF	yes	present	1	865
61210b5c3f465c51a7f4166a	998030	2	main	slash	45	rectangle	local	RVF	yes	absent	0	2000
61210b5c3f465c51a7f4166a	999704	2	main	slash	46	rectangle	global	LVF	yes	present	1	541
61210b5c3f465c51a7f4166a	1003763	2	main	slash	47	absent	absent	absent	no	absent	1	2000
61210b5c3f465c51a7f4166a	1005584	2	main	slash	48	square	global	LVF	yes	present	1	722
61210b5c3f465c51a7f4166a	1009912	2	main	slash	49	square	local	RVF	yes	absent	0	2000
61210b5c3f465c51a7f4166a	1011599	2	main	slash	50	rectangle	global	LVF	yes	present	1	538
61210b5c3f465c51a7f4166a	1015095	2	main	slash	51	square	local	LVF	yes	absent	0	2000
61210b5c3f465c51a7f4166a	1018244	2	main	slash	52	rectangle	local	RVF	yes	absent	0	2000
61210b5c3f465c51a7f4166a	1020100	2	main	slash	53	square	global	RVF	yes	present	1	490
61210b5c3f465c51a7f4166a	1024077	2	main	slash	54	square	local	RVF	yes	absent	0	2000
61210b5c3f465c51a7f4166a	1027360	2	main	slash	55	rectangle	local	RVF	yes	absent	0	2000
61210b5c3f465c51a7f4166a	1028812	2	main	slash	56	square	global	LVF	yes	present	1	486
61210b5c3f465c51a7f4166a	1033892	2	main	slash	57	square	local	LVF	yes	absent	0	2000
61210b5c3f465c51a7f4166a	1037225	2	main	slash	58	rectangle	local	LVF	yes	absent	0	2000
61210b5c3f465c51a7f4166a	1040475	2	main	slash	59	rectangle	local	LVF	yes	absent	0	2000
61210b5c3f465c51a7f4166a	1042236	2	main	slash	60	rectangle	global	RVF	yes	present	1	446
61210b5c3f465c51a7f4166a	1049324	2	main	slash	61	absent	absent	absent	no	absent	1	2000
61210b5c3f465c51a7f4166a	1050973	2	main	slash	62	square	global	RVF	yes	present	1	483
61210b5c3f465c51a7f4166a	1055473	2	main	slash	63	square	local	LVF	yes	absent	0	2000
61210b5c3f465c51a7f4166a	1057153	2	main	slash	64	rectangle	global	LVF	yes	present	1	446
61210b5c3f465c51a7f4166a	1063204	2	main	slash	65	square	global	RVF	yes	present	1	381
61210b5c3f465c51a7f4166a	1067071	2	main	slash	66	square	local	RVF	yes	absent	0	2000
61210b5c3f465c51a7f4166a	1068466	2	main	slash	67	square	global	LVF	yes	present	1	361
61210b5c3f465c51a7f4166a	1070571	2	main	slash	68	rectangle	global	RVF	yes	present	1	333
61210b5c3f465c51a7f4166a	1072331	2	main	slash	69	rectangle	global	RVF	yes	present	1	311
61210b5c3f465c51a7f4166a	1074240	2	main	slash	70	absent	absent	absent	no	present	0	320
61210b5c3f465c51a7f4166a	1076751	2	main	slash	71	rectangle	global	LVF	yes	present	1	365
61210b5c3f465c51a7f4166a	1080087	2	main	slash	72	rectangle	local	LVF	yes	absent	0	2000
61210b5c3f465c51a7f4166a	1081949	2	main	slash	73	absent	absent	absent	no	present	0	497
61210b5c3f465c51a7f4166a	1085569	2	main	slash	74	absent	absent	absent	no	absent	1	2000
61210b5c3f465c51a7f4166a	1088619	2	main	slash	75	absent	absent	absent	no	absent	1	2000
61210b5c3f465c51a7f4166a	1092102	2	main	slash	76	absent	absent	absent	no	absent	1	2000
61210b5c3f465c51a7f4166a	1093899	2	main	slash	77	rectangle	global	RVF	yes	present	1	531
61210b5c3f465c51a7f4166a	1098517	2	main	slash	78	rectangle	local	RVF	yes	absent	0	2000
61210b5c3f465c51a7f4166a	1101534	2	main	slash	79	rectangle	local	LVF	yes	absent	0	2000
61210b5c3f465c51a7f4166a	1103077	2	main	slash	80	square	global	LVF	yes	present	1	493
61210b5c3f465c51a7f4166a	1178253	3	practice	z	1	rectangle	local	RVF	yes	present	1	345
61210b5c3f465c51a7f4166a	1183292	3	practice	z	2	square	local	LVF	yes	absent	0	2000
61210b5c3f465c51a7f4166a	1186920	3	practice	z	3	square	global	RVF	yes	present	1	412
61210b5c3f465c51a7f4166a	1189813	3	practice	z	4	rectangle	local	RVF	yes	present	1	405
61210b5c3f465c51a7f4166a	1192394	3	practice	z	5	rectangle	global	RVF	yes	present	1	386
61210b5c3f465c51a7f4166a	1194749	3	practice	z	6	rectangle	local	RVF	yes	present	1	276
61210b5c3f465c51a7f4166a	1197205	3	practice	z	7	absent	absent	absent	no	present	0	282
61210b5c3f465c51a7f4166a	1199541	3	practice	z	8	rectangle	global	LVF	yes	present	1	319
61210b5c3f465c51a7f4166a	1202033	3	practice	z	9	absent	absent	absent	no	present	0	311
61210b5c3f465c51a7f4166a	1204443	3	practice	z	10	rectangle	global	RVF	yes	present	1	272
61210b5c3f465c51a7f4166a	1207020	3	practice	z	11	rectangle	global	LVF	yes	present	1	299
61210b5c3f465c51a7f4166a	1209562	3	practice	z	12	absent	absent	absent	no	present	0	357
61210b5c3f465c51a7f4166a	1211970	3	practice	z	13	absent	absent	absent	no	present	0	370
61210b5c3f465c51a7f4166a	1214569	3	practice	z	14	square	global	LVF	yes	present	1	599
61210b5c3f465c51a7f4166a	1218537	3	practice	z	15	square	local	LVF	yes	absent	0	2000
61210b5c3f465c51a7f4166a	1221567	3	practice	z	16	square	global	LVF	yes	present	1	463
61210b5c3f465c51a7f4166a	1232885	4	main	z	1	absent	absent	absent	no	present	0	336
61210b5c3f465c51a7f4166a	1235401	4	main	z	2	rectangle	global	RVF	yes	present	1	469
61210b5c3f465c51a7f4166a	1237286	4	main	z	3	rectangle	global	RVF	yes	present	1	404
61210b5c3f465c51a7f4166a	1239517	4	main	z	4	rectangle	local	RVF	yes	present	1	334
61210b5c3f465c51a7f4166a	1241764	4	main	z	5	square	global	RVF	yes	present	1	372
61210b5c3f465c51a7f4166a	1243380	4	main	z	6	rectangle	global	LVF	yes	present	1	369
61210b5c3f465c51a7f4166a	1246515	4	main	z	7	absent	absent	absent	no	absent	1	2000
61210b5c3f465c51a7f4166a	1248379	4	main	z	8	square	global	LVF	yes	present	1	532
61210b5c3f465c51a7f4166a	1251714	4	main	z	9	absent	absent	absent	no	absent	1	2000
61210b5c3f465c51a7f4166a	1253191	4	main	z	10	rectangle	global	LVF	yes	present	1	345
61210b5c3f465c51a7f4166a	1255392	4	main	z	11	rectangle	local	LVF	yes	present	1	362
61210b5c3f465c51a7f4166a	1258630	4	main	z	12	rectangle	local	RVF	yes	absent	0	2000
61210b5c3f465c51a7f4166a	1261779	4	main	z	13	absent	absent	absent	no	absent	1	2000
61210b5c3f465c51a7f4166a	1265013	4	main	z	14	square	local	RVF	yes	absent	0	2000
61210b5c3f465c51a7f4166a	1266349	4	main	z	15	rectangle	global	RVF	yes	present	1	420
61210b5c3f465c51a7f4166a	1268384	4	main	z	16	square	global	LVF	yes	present	1	406
61210b5c3f465c51a7f4166a	1272345	4	main	z	17	rectangle	local	LVF	yes	absent	0	2000
61210b5c3f465c51a7f4166a	1275928	4	main	z	18	absent	absent	absent	no	absent	1	2000
61210b5c3f465c51a7f4166a	1277361	4	main	z	19	square	local	LVF	yes	present	1	334
61210b5c3f465c51a7f4166a	1279626	4	main	z	20	square	global	RVF	yes	present	1	370
61210b5c3f465c51a7f4166a	1281247	4	main	z	21	square	global	LVF	yes	present	1	353
61210b5c3f465c51a7f4166a	1282755	4	main	z	22	rectangle	local	RVF	yes	present	1	361
61210b5c3f465c51a7f4166a	1284658	4	main	z	23	absent	absent	absent	no	present	0	378
61210b5c3f465c51a7f4166a	1286484	4	main	z	24	square	local	LVF	yes	present	1	592
61210b5c3f465c51a7f4166a	1288124	4	main	z	25	rectangle	global	RVF	yes	present	1	376
61210b5c3f465c51a7f4166a	1289874	4	main	z	26	square	global	RVF	yes	present	1	415
61210b5c3f465c51a7f4166a	1293092	4	main	z	27	square	local	RVF	yes	absent	0	2000
61210b5c3f465c51a7f4166a	1294499	4	main	z	28	rectangle	global	LVF	yes	present	1	341
61210b5c3f465c51a7f4166a	1297625	4	main	z	29	square	local	RVF	yes	absent	0	2000
61210b5c3f465c51a7f4166a	1300758	4	main	z	30	rectangle	local	LVF	yes	absent	0	2000
61210b5c3f465c51a7f4166a	1302139	4	main	z	31	square	local	RVF	yes	present	1	364
61210b5c3f465c51a7f4166a	1304981	4	main	z	32	absent	absent	absent	no	present	0	1340
61210b5c3f465c51a7f4166a	1308207	4	main	z	33	rectangle	local	RVF	yes	absent	0	2000
61210b5c3f465c51a7f4166a	1309768	4	main	z	34	square	global	RVF	yes	present	1	494
61210b5c3f465c51a7f4166a	1312630	4	main	z	35	rectangle	global	LVF	yes	present	1	608
61210b5c3f465c51a7f4166a	1315838	4	main	z	36	square	local	LVF	yes	present	1	983
61210b5c3f465c51a7f4166a	1317504	4	main	z	37	square	global	LVF	yes	present	1	509
61210b5c3f465c51a7f4166a	1320488	4	main	z	38	rectangle	local	LVF	yes	absent	0	2000
61210b5c3f465c51a7f4166a	1324005	4	main	z	39	absent	absent	absent	no	absent	1	2000
61210b5c3f465c51a7f4166a	1327205	4	main	z	40	square	local	LVF	yes	absent	0	2000
61210b5c3f465c51a7f4166a	1330287	4	main	z	41	rectangle	local	RVF	yes	absent	0	2000
61210b5c3f465c51a7f4166a	1331898	4	main	z	42	square	local	RVF	yes	present	1	428
61210b5c3f465c51a7f4166a	1334114	4	main	z	43	absent	absent	absent	no	present	0	960
61210b5c3f465c51a7f4166a	1335648	4	main	z	44	rectangle	global	LVF	yes	present	1	394
61210b5c3f465c51a7f4166a	1337708	4	main	z	45	rectangle	local	RVF	yes	present	1	1005
61210b5c3f465c51a7f4166a	1339207	4	main	z	46	square	global	LVF	yes	present	1	421
61210b5c3f465c51a7f4166a	1342452	4	main	z	47	rectangle	local	LVF	yes	absent	0	2000
61210b5c3f465c51a7f4166a	1345535	4	main	z	48	rectangle	local	LVF	yes	absent	0	2000
61210b5c3f465c51a7f4166a	1347171	4	main	z	49	rectangle	global	LVF	yes	present	1	320
61210b5c3f465c51a7f4166a	1348881	4	main	z	50	rectangle	local	LVF	yes	present	1	679
61210b5c3f465c51a7f4166a	1350424	4	main	z	51	square	global	LVF	yes	present	1	423
61210b5c3f465c51a7f4166a	1351813	4	main	z	52	rectangle	global	RVF	yes	present	1	345
61210b5c3f465c51a7f4166a	1353166	4	main	z	53	rectangle	global	RVF	yes	present	1	365
61210b5c3f465c51a7f4166a	1356267	4	main	z	54	rectangle	local	RVF	yes	absent	0	2000
61210b5c3f465c51a7f4166a	1357693	4	main	z	55	square	local	LVF	yes	present	1	459
61210b5c3f465c51a7f4166a	1361050	4	main	z	56	absent	absent	absent	no	absent	1	2000
61210b5c3f465c51a7f4166a	1364383	4	main	z	57	square	local	LVF	yes	absent	0	2000
61210b5c3f465c51a7f4166a	1365828	4	main	z	58	square	global	LVF	yes	present	1	478
61210b5c3f465c51a7f4166a	1367402	4	main	z	59	square	global	RVF	yes	present	1	453
61210b5c3f465c51a7f4166a	1368896	4	main	z	60	square	global	RVF	yes	present	1	480
61210b5c3f465c51a7f4166a	1370179	4	main	z	61	absent	absent	absent	no	present	0	298
61210b5c3f465c51a7f4166a	1371843	4	main	z	62	rectangle	global	RVF	yes	present	1	462
61210b5c3f465c51a7f4166a	1373407	4	main	z	63	square	global	RVF	yes	present	1	526
61210b5c3f465c51a7f4166a	1374775	4	main	z	64	rectangle	global	LVF	yes	present	1	394
61210b5c3f465c51a7f4166a	1377176	4	main	z	65	square	local	LVF	yes	present	1	1362
61210b5c3f465c51a7f4166a	1382830	4	main	z	66	absent	absent	absent	no	absent	1	2000
61210b5c3f465c51a7f4166a	1384239	4	main	z	67	square	global	LVF	yes	present	1	408
61210b5c3f465c51a7f4166a	1385668	4	main	z	68	rectangle	global	LVF	yes	present	1	404
61210b5c3f465c51a7f4166a	1388830	4	main	z	69	absent	absent	absent	no	absent	1	2000
61210b5c3f465c51a7f4166a	1390495	4	main	z	70	rectangle	global	RVF	yes	present	1	377
61210b5c3f465c51a7f4166a	1393529	4	main	z	71	square	local	LVF	yes	absent	0	2000
61210b5c3f465c51a7f4166a	1396690	4	main	z	72	square	local	RVF	yes	present	1	595
61210b5c3f465c51a7f4166a	1398409	4	main	z	73	square	global	RVF	yes	present	1	465
61210b5c3f465c51a7f4166a	1401462	4	main	z	74	square	local	RVF	yes	absent	0	2000
61210b5c3f465c51a7f4166a	1404644	4	main	z	75	absent	absent	absent	no	absent	1	2000
61210b5c3f465c51a7f4166a	1406495	4	main	z	76	rectangle	local	RVF	yes	present	1	734
61210b5c3f465c51a7f4166a	1409661	4	main	z	77	absent	absent	absent	no	absent	1	2000
61210b5c3f465c51a7f4166a	1412741	4	main	z	78	absent	absent	absent	no	present	0	1947
61210b5c3f465c51a7f4166a	1414650	4	main	z	79	square	local	RVF	yes	present	1	658
61210b5c3f465c51a7f4166a	1416545	4	main	z	80	rectangle	local	LVF	yes	present	1	720
