subject	block	trialnum	DL_leftSound	DL_rightSound	DL_dualSound	DL_choice	response	correct	rt
58ed2be2a083320001a13783	headphonecheck_testphase	3	NA	NA	0	NA	second	1	570
58ed2be2a083320001a13783	headphonecheck_testphase	6	NA	NA	0	NA	first	1	649
58ed2be2a083320001a13783	headphonecheck_testphase	9	NA	NA	0	NA	third	1	564
58ed2be2a083320001a13783	headphonecheck_testphase	12	NA	NA	0	NA	second	1	491
58ed2be2a083320001a13783	headphonecheck_testphase	15	NA	NA	0	NA	first	1	517
58ed2be2a083320001a13783	headphonecheck_testphase	18	NA	NA	0	NA	third	1	595
58ed2be2a083320001a13783	stereocheck_testphase	3	NA	NA	0	NA	stereocheck_left	1	3967
58ed2be2a083320001a13783	stereocheck_testphase	6	NA	NA	0	NA	stereocheck_left	1	722
58ed2be2a083320001a13783	stereocheck_testphase	9	NA	NA	0	NA	stereocheck_right	1	696
58ed2be2a083320001a13783	stereocheck_testphase	12	NA	NA	0	NA	stereocheck_right	1	560
58ed2be2a083320001a13783	stereocheck_testphase	15	NA	NA	0	NA	stereocheck_left	1	948
58ed2be2a083320001a13783	stereocheck_testphase	18	NA	NA	0	NA	stereocheck_right	1	818
58ed2be2a083320001a13783	DL_practice	2	da	da	0	left	da	1	1232
58ed2be2a083320001a13783	DL_practice	3	da	ba	1	left	da	1	1197
58ed2be2a083320001a13783	DL_practice	4	ka	ka	0	left	ka	1	1442
58ed2be2a083320001a13783	DL_practice	5	ka	pa	1	right	pa	1	1449
58ed2be2a083320001a13783	DL_practice	6	ga	ta	1	other	da	0	1619
58ed2be2a083320001a13783	DL_practice	7	ta	ta	0	left	ta	1	1578
58ed2be2a083320001a13783	DL_practice	8	ba	ba	0	left	ba	1	1560
58ed2be2a083320001a13783	DL_practice	9	ga	ga	0	left	ga	1	1861
58ed2be2a083320001a13783	DL_practice	10	pa	pa	0	left	pa	1	1926
58ed2be2a083320001a13783	DL_test	1	ga	da	1	right	da	1	1396
58ed2be2a083320001a13783	DL_test	2	da	ta	1	right	ta	1	2184
58ed2be2a083320001a13783	DL_test	3	ka	ga	1	right	ga	1	1381
58ed2be2a083320001a13783	DL_test	4	ka	ta	1	right	ta	1	2418
58ed2be2a083320001a13783	DL_test	5	ka	da	1	left	ka	1	1752
58ed2be2a083320001a13783	DL_test	6	ga	ga	0	left	ga	1	1285
58ed2be2a083320001a13783	DL_test	7	pa	da	1	left	pa	1	1802
58ed2be2a083320001a13783	DL_test	8	ba	ka	1	left	ba	1	2518
58ed2be2a083320001a13783	DL_test	9	ta	ba	1	left	ta	1	1600
58ed2be2a083320001a13783	DL_test	10	da	da	0	left	da	1	1395
58ed2be2a083320001a13783	DL_test	11	ta	ta	0	left	ta	1	1477
58ed2be2a083320001a13783	DL_test	12	ta	ka	1	right	ka	1	1405
58ed2be2a083320001a13783	DL_test	13	pa	ta	1	left	pa	1	1683
58ed2be2a083320001a13783	DL_test	14	ba	da	1	right	da	1	1404
58ed2be2a083320001a13783	DL_test	15	ta	ga	1	left	ta	1	1560
58ed2be2a083320001a13783	DL_test	16	da	ba	1	left	da	1	1569
58ed2be2a083320001a13783	DL_test	17	ba	ta	1	left	ba	1	2024
58ed2be2a083320001a13783	DL_test	18	ga	ta	1	left	ga	1	1409
58ed2be2a083320001a13783	DL_test	19	ba	pa	1	right	pa	1	1552
58ed2be2a083320001a13783	DL_test	20	ka	ba	1	left	ka	1	1555
58ed2be2a083320001a13783	DL_test	21	ba	ga	1	left	ba	1	2157
58ed2be2a083320001a13783	DL_test	22	da	pa	1	right	pa	1	1844
58ed2be2a083320001a13783	DL_test	23	ba	ba	0	left	ba	1	1431
58ed2be2a083320001a13783	DL_test	24	ta	pa	1	left	ta	1	1809
58ed2be2a083320001a13783	DL_test	25	pa	ba	1	left	pa	1	1542
58ed2be2a083320001a13783	DL_test	26	ga	ba	1	left	ga	1	1568
58ed2be2a083320001a13783	DL_test	27	ta	da	1	left	ta	1	1740
58ed2be2a083320001a13783	DL_test	28	pa	ga	1	left	pa	1	1310
58ed2be2a083320001a13783	DL_test	29	ga	ka	1	right	ka	1	1346
58ed2be2a083320001a13783	DL_test	30	da	ka	1	other	ta	0	1754
58ed2be2a083320001a13783	DL_test	31	ka	pa	1	left	ka	1	1451
58ed2be2a083320001a13783	DL_test	32	pa	ka	1	left	pa	1	1368
58ed2be2a083320001a13783	DL_test	33	ka	ka	0	left	ka	1	1240
58ed2be2a083320001a13783	DL_test	34	pa	pa	0	left	pa	1	1360
58ed2be2a083320001a13783	DL_test	35	da	ga	1	left	da	1	1949
58ed2be2a083320001a13783	DL_test	36	ga	pa	1	other	ta	0	2705
58ed2be2a083320001a13783	DL_test	1	da	ba	1	left	da	1	1583
58ed2be2a083320001a13783	DL_test	2	ta	ga	1	other	ka	0	1632
58ed2be2a083320001a13783	DL_test	3	pa	ta	1	left	pa	1	1375
58ed2be2a083320001a13783	DL_test	4	ka	pa	1	left	ka	1	1217
58ed2be2a083320001a13783	DL_test	5	pa	ga	1	left	pa	1	1813
58ed2be2a083320001a13783	DL_test	6	pa	ka	1	other	ta	0	1373
58ed2be2a083320001a13783	DL_test	7	pa	ba	1	right	ba	1	2066
58ed2be2a083320001a13783	DL_test	8	ba	da	1	right	da	1	1239
58ed2be2a083320001a13783	DL_test	9	ga	ba	1	left	ga	1	1332
58ed2be2a083320001a13783	DL_test	10	ga	pa	1	right	pa	1	1352
58ed2be2a083320001a13783	DL_test	11	ga	ga	0	left	ga	1	1309
58ed2be2a083320001a13783	DL_test	12	ta	ba	1	left	ta	1	1393
58ed2be2a083320001a13783	DL_test	13	ta	ka	1	right	ka	1	1343
58ed2be2a083320001a13783	DL_test	14	ta	ta	0	left	ta	1	1417
58ed2be2a083320001a13783	DL_test	15	ka	da	1	other	ta	0	1780
58ed2be2a083320001a13783	DL_test	16	ka	ka	0	left	ka	1	1739
58ed2be2a083320001a13783	DL_test	17	ba	ka	1	right	ka	1	1567
58ed2be2a083320001a13783	DL_test	18	pa	da	1	left	pa	1	1390
58ed2be2a083320001a13783	DL_test	19	pa	pa	0	left	pa	1	1074
58ed2be2a083320001a13783	DL_test	20	da	ka	1	other	ta	0	1860
58ed2be2a083320001a13783	DL_test	21	da	ta	1	left	da	1	1466
58ed2be2a083320001a13783	DL_test	22	da	ga	1	right	ga	1	2348
58ed2be2a083320001a13783	DL_test	23	ta	pa	1	left	ta	1	1588
58ed2be2a083320001a13783	DL_test	24	ta	da	1	left	ta	1	1106
58ed2be2a083320001a13783	DL_test	25	ga	ta	1	left	ga	1	1501
58ed2be2a083320001a13783	DL_test	26	ga	ka	1	left	ga	1	1023
58ed2be2a083320001a13783	DL_test	27	ka	ba	1	left	ka	1	1600
58ed2be2a083320001a13783	DL_test	28	ga	da	1	left	ga	1	1371
58ed2be2a083320001a13783	DL_test	29	ba	ba	0	left	ba	1	1834
58ed2be2a083320001a13783	DL_test	30	ba	ta	1	right	ta	1	2089
58ed2be2a083320001a13783	DL_test	31	ba	pa	1	right	pa	1	1257
58ed2be2a083320001a13783	DL_test	32	da	da	0	left	da	1	1413
58ed2be2a083320001a13783	DL_test	33	ka	ta	1	left	ka	1	1555
58ed2be2a083320001a13783	DL_test	34	ka	ga	1	right	ga	1	1378
58ed2be2a083320001a13783	DL_test	35	ba	ga	1	left	ba	1	2537
58ed2be2a083320001a13783	DL_test	36	da	pa	1	right	pa	1	1942
58ed2be2a083320001a13783	DL_test	1	ba	ka	1	right	ka	1	1596
58ed2be2a083320001a13783	DL_test	2	da	da	0	left	da	1	1582
58ed2be2a083320001a13783	DL_test	3	ta	ta	0	left	ta	1	1466
58ed2be2a083320001a13783	DL_test	4	ta	pa	1	right	pa	1	1174
58ed2be2a083320001a13783	DL_test	5	pa	ta	1	right	ta	1	1249
58ed2be2a083320001a13783	DL_test	6	ta	ka	1	right	ka	1	1746
58ed2be2a083320001a13783	DL_test	7	ta	ba	1	other	da	0	1974
58ed2be2a083320001a13783	DL_test	8	ta	ga	1	right	ga	1	1222
58ed2be2a083320001a13783	DL_test	9	ba	ta	1	other	pa	0	1447
58ed2be2a083320001a13783	DL_test	10	da	pa	1	right	pa	1	1121
58ed2be2a083320001a13783	DL_test	11	ga	ta	1	left	ga	1	1310
58ed2be2a083320001a13783	DL_test	12	pa	da	1	other	ta	0	1427
58ed2be2a083320001a13783	DL_test	13	ka	ta	1	right	ta	1	1129
58ed2be2a083320001a13783	DL_test	14	ka	ga	1	right	ga	1	1378
58ed2be2a083320001a13783	DL_test	15	da	ta	1	left	da	1	1547
58ed2be2a083320001a13783	DL_test	16	ba	da	1	right	da	1	1147
58ed2be2a083320001a13783	DL_test	17	ba	pa	1	left	ba	1	610
58ed2be2a083320001a13783	DL_test	18	ka	ka	0	left	ka	1	1733
58ed2be2a083320001a13783	DL_test	19	ba	ba	0	left	ba	1	1759
58ed2be2a083320001a13783	DL_test	20	pa	ba	1	right	ba	1	1191
58ed2be2a083320001a13783	DL_test	21	ga	ka	1	left	ga	1	1355
58ed2be2a083320001a13783	DL_test	22	ga	da	1	left	ga	1	1326
58ed2be2a083320001a13783	DL_test	23	ka	da	1	left	ka	1	1248
58ed2be2a083320001a13783	DL_test	24	ga	ga	0	left	ga	1	1218
58ed2be2a083320001a13783	DL_test	25	ta	da	1	left	ta	1	2007
58ed2be2a083320001a13783	DL_test	26	da	ga	1	left	da	1	1397
58ed2be2a083320001a13783	DL_test	27	ga	ba	1	right	ba	1	1910
58ed2be2a083320001a13783	DL_test	28	ka	ba	1	left	ka	1	1905
58ed2be2a083320001a13783	DL_test	29	da	ba	1	left	da	1	1451
58ed2be2a083320001a13783	DL_test	30	ba	ga	1	left	ba	1	1834
58ed2be2a083320001a13783	DL_test	31	pa	pa	0	left	pa	1	1550
58ed2be2a083320001a13783	DL_test	32	pa	ka	1	left	pa	1	1526
58ed2be2a083320001a13783	DL_test	33	ka	pa	1	left	ka	1	1301
58ed2be2a083320001a13783	DL_test	34	pa	ga	1	other	ba	0	1901
58ed2be2a083320001a13783	DL_test	35	ga	pa	1	other	ba	0	1537
58ed2be2a083320001a13783	DL_test	36	da	ka	1	other	pa	0	1841
58ed2be2a083320001a13783	DL_test	1	da	ga	1	right	ga	1	1279
58ed2be2a083320001a13783	DL_test	2	ta	ta	0	left	ta	1	1653
58ed2be2a083320001a13783	DL_test	3	ka	da	1	other	ga	0	1409
58ed2be2a083320001a13783	DL_test	4	pa	pa	0	left	pa	1	1302
58ed2be2a083320001a13783	DL_test	5	da	da	0	left	da	1	1469
58ed2be2a083320001a13783	DL_test	6	ta	ba	1	left	ta	1	1586
58ed2be2a083320001a13783	DL_test	7	ba	pa	1	right	pa	1	1123
58ed2be2a083320001a13783	DL_test	8	ka	ta	1	left	ka	1	1388
58ed2be2a083320001a13783	DL_test	9	da	ta	1	left	da	1	1394
58ed2be2a083320001a13783	DL_test	10	ba	da	1	left	ba	1	2145
58ed2be2a083320001a13783	DL_test	11	ta	ka	1	right	ka	1	1493
58ed2be2a083320001a13783	DL_test	12	ga	ba	1	left	ga	1	2165
58ed2be2a083320001a13783	DL_test	13	ba	ba	0	left	ba	1	1700
58ed2be2a083320001a13783	DL_test	14	ta	da	1	left	ta	1	2021
58ed2be2a083320001a13783	DL_test	15	pa	ka	1	other	ta	0	1623
58ed2be2a083320001a13783	DL_test	16	ba	ta	1	other	pa	0	1967
58ed2be2a083320001a13783	DL_test	17	ba	ka	1	other	ga	0	1405
58ed2be2a083320001a13783	DL_test	18	pa	ta	1	left	pa	1	1383
58ed2be2a083320001a13783	DL_test	19	ba	ga	1	left	ba	1	1617
58ed2be2a083320001a13783	DL_test	20	ka	pa	1	left	ka	1	1430
58ed2be2a083320001a13783	DL_test	21	ga	da	1	left	ga	1	2319
58ed2be2a083320001a13783	DL_test	22	pa	ga	1	right	ga	1	1671
58ed2be2a083320001a13783	DL_test	23	ga	pa	1	right	pa	1	1508
58ed2be2a083320001a13783	DL_test	24	ka	ga	1	left	ka	1	1238
58ed2be2a083320001a13783	DL_test	25	ka	ka	0	left	ka	1	1420
58ed2be2a083320001a13783	DL_test	26	pa	da	1	other	ba	0	1768
58ed2be2a083320001a13783	DL_test	27	pa	ba	1	left	pa	1	1723
58ed2be2a083320001a13783	DL_test	28	ga	ga	0	left	ga	1	1293
58ed2be2a083320001a13783	DL_test	29	ga	ka	1	left	ga	1	1097
58ed2be2a083320001a13783	DL_test	30	ta	ga	1	right	ga	1	982
58ed2be2a083320001a13783	DL_test	31	da	ba	1	left	da	1	1788
58ed2be2a083320001a13783	DL_test	32	ga	ta	1	left	ga	1	1509
58ed2be2a083320001a13783	DL_test	33	ta	pa	1	left	ta	1	1480
58ed2be2a083320001a13783	DL_test	34	da	pa	1	other	ta	0	1343
58ed2be2a083320001a13783	DL_test	35	da	ka	1	other	ta	0	1032
58ed2be2a083320001a13783	DL_test	36	ka	ba	1	left	ka	1	1366
