subject	block	trialnum	DL_leftSound	DL_rightSound	DL_dualSound	DL_choice	response	correct	rt
59175c2896ffb800017c4caf	headphonecheck_testphase	3	NA	NA	0	NA	third	0	514
59175c2896ffb800017c4caf	headphonecheck_testphase	6	NA	NA	0	NA	third	0	378
59175c2896ffb800017c4caf	headphonecheck_testphase	9	NA	NA	0	NA	first	0	326
59175c2896ffb800017c4caf	headphonecheck_testphase	12	NA	NA	0	NA	second	0	117
59175c2896ffb800017c4caf	headphonecheck_testphase	15	NA	NA	0	NA	second	0	201
59175c2896ffb800017c4caf	headphonecheck_testphase	18	NA	NA	0	NA	first	0	1979
59175c2896ffb800017c4caf	stereocheck_testphase	3	NA	NA	0	NA	stereocheck_right	1	542
59175c2896ffb800017c4caf	stereocheck_testphase	6	NA	NA	0	NA	stereocheck_left	1	311
59175c2896ffb800017c4caf	stereocheck_testphase	9	NA	NA	0	NA	stereocheck_left	1	433
59175c2896ffb800017c4caf	stereocheck_testphase	12	NA	NA	0	NA	stereocheck_right	1	351
59175c2896ffb800017c4caf	stereocheck_testphase	15	NA	NA	0	NA	stereocheck_left	1	425
59175c2896ffb800017c4caf	stereocheck_testphase	18	NA	NA	0	NA	stereocheck_right	1	308
59175c2896ffb800017c4caf	DL_practice	2	pa	pa	0	left	pa	1	1495
59175c2896ffb800017c4caf	DL_practice	3	ga	ta	1	left	ga	1	1514
59175c2896ffb800017c4caf	DL_practice	4	ba	ba	0	left	ba	1	1427
59175c2896ffb800017c4caf	DL_practice	5	da	ba	1	left	da	1	1077
59175c2896ffb800017c4caf	DL_practice	6	ka	ka	0	left	ka	1	1097
59175c2896ffb800017c4caf	DL_practice	7	da	da	0	left	da	1	1231
59175c2896ffb800017c4caf	DL_practice	8	ka	pa	1	left	ka	1	1998
59175c2896ffb800017c4caf	DL_practice	9	ga	ga	0	left	ga	1	1166
59175c2896ffb800017c4caf	DL_practice	10	ta	ta	0	left	ta	1	1295
59175c2896ffb800017c4caf	DL_test	1	ga	pa	1	other	ka	0	2108
59175c2896ffb800017c4caf	DL_test	2	da	ba	1	left	da	1	1108
59175c2896ffb800017c4caf	DL_test	3	da	ta	1	other	ka	0	3062
59175c2896ffb800017c4caf	DL_test	4	ta	ka	1	right	ka	1	1088
59175c2896ffb800017c4caf	DL_test	5	ka	ta	1	left	ka	1	1119
59175c2896ffb800017c4caf	DL_test	6	ba	ga	1	other	da	0	1196
59175c2896ffb800017c4caf	DL_test	7	pa	ka	1	left	pa	1	1455
59175c2896ffb800017c4caf	DL_test	8	ta	ba	1	left	ta	1	1091
59175c2896ffb800017c4caf	DL_test	9	ta	da	1	left	ta	1	2621
59175c2896ffb800017c4caf	DL_test	10	ba	da	1	right	da	1	1215
59175c2896ffb800017c4caf	DL_test	11	pa	ta	1	left	pa	1	1238
59175c2896ffb800017c4caf	DL_test	12	ga	ka	1	left	ga	1	1111
59175c2896ffb800017c4caf	DL_test	13	ta	pa	1	left	ta	1	1722
59175c2896ffb800017c4caf	DL_test	14	da	da	0	left	da	1	1230
59175c2896ffb800017c4caf	DL_test	15	ta	ta	0	left	ta	1	1610
59175c2896ffb800017c4caf	DL_test	16	ka	ba	1	left	ka	1	1071
59175c2896ffb800017c4caf	DL_test	17	ga	da	1	right	da	1	1571
59175c2896ffb800017c4caf	DL_test	18	da	ka	1	other	ta	0	2395
59175c2896ffb800017c4caf	DL_test	19	ga	ta	1	left	ga	1	1276
59175c2896ffb800017c4caf	DL_test	20	ka	ga	1	left	ka	1	1926
59175c2896ffb800017c4caf	DL_test	21	ka	da	1	left	ka	1	1345
59175c2896ffb800017c4caf	DL_test	22	pa	da	1	left	pa	1	1273
59175c2896ffb800017c4caf	DL_test	23	ta	ga	1	other	ka	0	3810
59175c2896ffb800017c4caf	DL_test	24	pa	ba	1	left	pa	1	1191
59175c2896ffb800017c4caf	DL_test	25	da	pa	1	other	ta	0	2201
59175c2896ffb800017c4caf	DL_test	26	da	ga	1	left	da	1	1327
59175c2896ffb800017c4caf	DL_test	27	ka	pa	1	right	pa	1	1226
59175c2896ffb800017c4caf	DL_test	28	pa	ga	1	left	pa	1	2223
59175c2896ffb800017c4caf	DL_test	29	pa	pa	0	left	pa	1	1145
59175c2896ffb800017c4caf	DL_test	30	ba	ta	1	right	ta	1	1581
59175c2896ffb800017c4caf	DL_test	31	ba	ba	0	left	ba	1	1582
59175c2896ffb800017c4caf	DL_test	32	ga	ga	0	left	ga	1	1286
59175c2896ffb800017c4caf	DL_test	33	ga	ba	1	left	ga	1	1435
59175c2896ffb800017c4caf	DL_test	34	ba	ka	1	other	pa	0	1406
59175c2896ffb800017c4caf	DL_test	35	ba	pa	1	right	pa	1	1017
59175c2896ffb800017c4caf	DL_test	36	ka	ka	0	left	ka	1	1675
59175c2896ffb800017c4caf	DL_test	1	ta	ba	1	other	ka	0	1346
59175c2896ffb800017c4caf	DL_test	2	da	ba	1	left	da	1	1145
59175c2896ffb800017c4caf	DL_test	3	ba	ba	0	other	pa	0	1213
59175c2896ffb800017c4caf	DL_test	4	ka	ka	0	left	ka	1	1064
59175c2896ffb800017c4caf	DL_test	5	ka	ba	1	left	ka	1	1397
59175c2896ffb800017c4caf	DL_test	6	da	da	0	left	da	1	1080
59175c2896ffb800017c4caf	DL_test	7	ta	ka	1	right	ka	1	1085
59175c2896ffb800017c4caf	DL_test	8	pa	ka	1	left	pa	1	919
59175c2896ffb800017c4caf	DL_test	9	ta	ga	1	other	ka	0	1181
59175c2896ffb800017c4caf	DL_test	10	da	ta	1	right	ta	1	1937
59175c2896ffb800017c4caf	DL_test	11	da	ka	1	other	pa	0	1282
59175c2896ffb800017c4caf	DL_test	12	ba	ka	1	other	pa	0	1166
59175c2896ffb800017c4caf	DL_test	13	ta	ta	0	left	ta	1	1750
59175c2896ffb800017c4caf	DL_test	14	pa	ba	1	left	pa	1	1278
59175c2896ffb800017c4caf	DL_test	15	ba	pa	1	right	pa	1	1056
59175c2896ffb800017c4caf	DL_test	16	ka	da	1	left	ka	1	1714
59175c2896ffb800017c4caf	DL_test	17	da	pa	1	right	pa	1	1358
59175c2896ffb800017c4caf	DL_test	18	ba	ga	1	other	da	0	1120
59175c2896ffb800017c4caf	DL_test	19	ga	ga	0	left	ga	1	1100
59175c2896ffb800017c4caf	DL_test	20	ba	ta	1	other	pa	0	1246
59175c2896ffb800017c4caf	DL_test	21	ka	ta	1	left	ka	1	883
59175c2896ffb800017c4caf	DL_test	22	ga	ta	1	other	ka	0	2425
59175c2896ffb800017c4caf	DL_test	23	ka	ga	1	left	ka	1	1131
59175c2896ffb800017c4caf	DL_test	24	ka	pa	1	left	ka	1	1615
59175c2896ffb800017c4caf	DL_test	25	ga	ka	1	left	ga	1	1034
59175c2896ffb800017c4caf	DL_test	26	pa	da	1	left	pa	1	1317
59175c2896ffb800017c4caf	DL_test	27	pa	pa	0	left	pa	1	1646
59175c2896ffb800017c4caf	DL_test	28	ta	pa	1	left	ta	1	1313
59175c2896ffb800017c4caf	DL_test	29	pa	ta	1	left	pa	1	1113
59175c2896ffb800017c4caf	DL_test	30	da	ga	1	right	ga	1	1390
59175c2896ffb800017c4caf	DL_test	31	ba	da	1	right	da	1	1528
59175c2896ffb800017c4caf	DL_test	32	ta	da	1	left	ta	1	1542
59175c2896ffb800017c4caf	DL_test	33	ga	da	1	left	ga	1	1228
59175c2896ffb800017c4caf	DL_test	34	ga	ba	1	other	da	0	1833
59175c2896ffb800017c4caf	DL_test	35	pa	ga	1	left	pa	1	1379
59175c2896ffb800017c4caf	DL_test	36	ga	pa	1	other	ka	0	1350
59175c2896ffb800017c4caf	DL_test	1	ga	ba	1	left	ga	1	1298
59175c2896ffb800017c4caf	DL_test	2	ta	ta	0	left	ta	1	1056
59175c2896ffb800017c4caf	DL_test	3	ba	ka	1	other	pa	0	1017
59175c2896ffb800017c4caf	DL_test	4	ka	ta	1	left	ka	1	893
59175c2896ffb800017c4caf	DL_test	5	ta	ga	1	right	ga	1	1003
59175c2896ffb800017c4caf	DL_test	6	pa	ta	1	left	pa	1	1144
59175c2896ffb800017c4caf	DL_test	7	da	ta	1	right	ta	1	1898
59175c2896ffb800017c4caf	DL_test	8	ta	ba	1	other	ka	0	2409
59175c2896ffb800017c4caf	DL_test	9	ba	da	1	right	da	1	1700
59175c2896ffb800017c4caf	DL_test	10	pa	ba	1	left	pa	1	1383
59175c2896ffb800017c4caf	DL_test	11	da	ba	1	left	da	1	1757
59175c2896ffb800017c4caf	DL_test	12	ga	pa	1	other	ka	0	1452
59175c2896ffb800017c4caf	DL_test	13	ka	da	1	left	ka	1	1772
59175c2896ffb800017c4caf	DL_test	14	ba	ba	0	left	ba	1	2575
59175c2896ffb800017c4caf	DL_test	15	ta	ka	1	right	ka	1	1270
59175c2896ffb800017c4caf	DL_test	16	ba	ga	1	other	da	0	1420
59175c2896ffb800017c4caf	DL_test	17	ka	ga	1	left	ka	1	1066
59175c2896ffb800017c4caf	DL_test	18	pa	pa	0	left	pa	1	1296
59175c2896ffb800017c4caf	DL_test	19	ta	pa	1	other	ka	0	1565
59175c2896ffb800017c4caf	DL_test	20	ga	ta	1	left	ga	1	1337
59175c2896ffb800017c4caf	DL_test	21	ba	ta	1	other	pa	0	1179
59175c2896ffb800017c4caf	DL_test	22	ba	pa	1	right	pa	1	1615
59175c2896ffb800017c4caf	DL_test	23	ka	pa	1	left	ka	1	961
59175c2896ffb800017c4caf	DL_test	24	da	ka	1	left	da	1	1188
59175c2896ffb800017c4caf	DL_test	25	pa	ga	1	left	pa	1	1438
59175c2896ffb800017c4caf	DL_test	26	ta	da	1	left	ta	1	1190
59175c2896ffb800017c4caf	DL_test	27	pa	da	1	left	pa	1	1979
59175c2896ffb800017c4caf	DL_test	28	da	da	0	left	da	1	1329
59175c2896ffb800017c4caf	DL_test	29	da	pa	1	right	pa	1	1455
59175c2896ffb800017c4caf	DL_test	30	da	ga	1	left	da	1	1224
59175c2896ffb800017c4caf	DL_test	31	ga	da	1	left	ga	1	1204
59175c2896ffb800017c4caf	DL_test	32	ga	ga	0	left	ga	1	1242
59175c2896ffb800017c4caf	DL_test	33	pa	ka	1	left	pa	1	1377
59175c2896ffb800017c4caf	DL_test	34	ka	ba	1	left	ka	1	1136
59175c2896ffb800017c4caf	DL_test	35	ka	ka	0	left	ka	1	1127
59175c2896ffb800017c4caf	DL_test	36	ga	ka	1	left	ga	1	1218
59175c2896ffb800017c4caf	DL_test	1	ba	da	1	right	da	1	1061
59175c2896ffb800017c4caf	DL_test	2	ba	ba	0	left	ba	1	2340
59175c2896ffb800017c4caf	DL_test	3	ka	ga	1	left	ka	1	1018
59175c2896ffb800017c4caf	DL_test	4	ba	ga	1	right	ga	1	2331
59175c2896ffb800017c4caf	DL_test	5	pa	ka	1	left	pa	1	1046
59175c2896ffb800017c4caf	DL_test	6	ba	ka	1	right	ka	1	1249
59175c2896ffb800017c4caf	DL_test	7	ga	da	1	left	ga	1	1202
59175c2896ffb800017c4caf	DL_test	8	ka	ba	1	left	ka	1	1082
59175c2896ffb800017c4caf	DL_test	9	ka	pa	1	right	pa	1	1035
59175c2896ffb800017c4caf	DL_test	10	ga	pa	1	other	ka	0	1544
59175c2896ffb800017c4caf	DL_test	11	pa	ta	1	left	pa	1	1443
59175c2896ffb800017c4caf	DL_test	12	pa	da	1	other	ta	0	1296
59175c2896ffb800017c4caf	DL_test	13	ta	ba	1	other	ka	0	1906
59175c2896ffb800017c4caf	DL_test	14	ta	ga	1	right	ga	1	1324
59175c2896ffb800017c4caf	DL_test	15	pa	ba	1	left	pa	1	1161
59175c2896ffb800017c4caf	DL_test	16	pa	ga	1	other	ka	0	1137
59175c2896ffb800017c4caf	DL_test	17	da	pa	1	right	pa	1	2373
59175c2896ffb800017c4caf	DL_test	18	ga	ba	1	left	ga	1	1247
59175c2896ffb800017c4caf	DL_test	19	ga	ta	1	left	ga	1	1070
59175c2896ffb800017c4caf	DL_test	20	ka	ka	0	left	ka	1	1586
59175c2896ffb800017c4caf	DL_test	21	ga	ka	1	right	ka	1	1201
59175c2896ffb800017c4caf	DL_test	22	da	ta	1	other	ka	0	1265
59175c2896ffb800017c4caf	DL_test	23	ba	ta	1	other	pa	0	1279
59175c2896ffb800017c4caf	DL_test	24	da	ka	1	other	ta	0	1109
59175c2896ffb800017c4caf	DL_test	25	ka	da	1	left	ka	1	1676
59175c2896ffb800017c4caf	DL_test	26	da	da	0	left	da	1	1373
59175c2896ffb800017c4caf	DL_test	27	ta	ka	1	right	ka	1	2366
59175c2896ffb800017c4caf	DL_test	28	ta	da	1	left	ta	1	2113
59175c2896ffb800017c4caf	DL_test	29	ga	ga	0	left	ga	1	1664
59175c2896ffb800017c4caf	DL_test	30	ta	ta	0	left	ta	1	1532
59175c2896ffb800017c4caf	DL_test	31	da	ga	1	left	da	1	1399
59175c2896ffb800017c4caf	DL_test	32	ka	ta	1	left	ka	1	1680
59175c2896ffb800017c4caf	DL_test	33	pa	pa	0	left	pa	1	1149
59175c2896ffb800017c4caf	DL_test	34	da	ba	1	left	da	1	2767
59175c2896ffb800017c4caf	DL_test	35	ta	pa	1	other	ka	0	2168
59175c2896ffb800017c4caf	DL_test	36	ba	pa	1	right	pa	1	2707
