subject	block	trialnum	DL_leftSound	DL_rightSound	DL_dualSound	DL_choice	response	correct	rt
5a8f3dd5eea3d300016ece86	headphonecheck_testphase	3	NA	NA	0	NA	third	1	1232
5a8f3dd5eea3d300016ece86	headphonecheck_testphase	6	NA	NA	0	NA	second	1	2159
5a8f3dd5eea3d300016ece86	headphonecheck_testphase	9	NA	NA	0	NA	second	1	855
5a8f3dd5eea3d300016ece86	headphonecheck_testphase	12	NA	NA	0	NA	first	1	1125
5a8f3dd5eea3d300016ece86	headphonecheck_testphase	15	NA	NA	0	NA	third	1	410
5a8f3dd5eea3d300016ece86	headphonecheck_testphase	18	NA	NA	0	NA	first	1	231
5a8f3dd5eea3d300016ece86	stereocheck_testphase	3	NA	NA	0	NA	stereocheck_left	1	1710
5a8f3dd5eea3d300016ece86	stereocheck_testphase	6	NA	NA	0	NA	stereocheck_right	1	900
5a8f3dd5eea3d300016ece86	stereocheck_testphase	9	NA	NA	0	NA	stereocheck_right	1	631
5a8f3dd5eea3d300016ece86	stereocheck_testphase	12	NA	NA	0	NA	stereocheck_left	1	644
5a8f3dd5eea3d300016ece86	stereocheck_testphase	15	NA	NA	0	NA	stereocheck_left	1	514
5a8f3dd5eea3d300016ece86	stereocheck_testphase	18	NA	NA	0	NA	stereocheck_right	1	546
5a8f3dd5eea3d300016ece86	DL_practice	2	ta	ta	0	left	ta	1	1649
5a8f3dd5eea3d300016ece86	DL_practice	3	da	da	0	left	da	1	1997
5a8f3dd5eea3d300016ece86	DL_practice	4	ka	pa	1	left	ka	1	3463
5a8f3dd5eea3d300016ece86	DL_practice	5	ga	ga	0	left	ga	1	1097
5a8f3dd5eea3d300016ece86	DL_practice	6	ka	ka	0	left	ka	1	1513
5a8f3dd5eea3d300016ece86	DL_practice	7	ba	ba	0	left	ba	1	1929
5a8f3dd5eea3d300016ece86	DL_practice	8	ga	ta	1	left	ga	1	4448
5a8f3dd5eea3d300016ece86	DL_practice	9	da	ba	1	right	ba	1	1904
5a8f3dd5eea3d300016ece86	DL_practice	10	pa	pa	0	left	pa	1	1580
5a8f3dd5eea3d300016ece86	DL_test	1	pa	ba	1	right	ba	1	2930
5a8f3dd5eea3d300016ece86	DL_test	2	ka	da	1	other	ga	0	1480
5a8f3dd5eea3d300016ece86	DL_test	3	ta	ga	1	other	ka	0	2964
5a8f3dd5eea3d300016ece86	DL_test	4	ga	ba	1	right	ba	1	2448
5a8f3dd5eea3d300016ece86	DL_test	5	ka	ta	1	right	ta	1	3913
5a8f3dd5eea3d300016ece86	DL_test	6	da	pa	1	right	pa	1	2347
5a8f3dd5eea3d300016ece86	DL_test	7	pa	ga	1	right	ga	1	1497
5a8f3dd5eea3d300016ece86	DL_test	8	ta	da	1	right	da	1	2082
5a8f3dd5eea3d300016ece86	DL_test	9	ga	da	1	left	ga	1	1548
5a8f3dd5eea3d300016ece86	DL_test	10	da	ba	1	right	ba	1	1961
5a8f3dd5eea3d300016ece86	DL_test	11	ta	ba	1	other	ga	0	2732
5a8f3dd5eea3d300016ece86	DL_test	12	ta	pa	1	right	pa	1	2613
5a8f3dd5eea3d300016ece86	DL_test	13	pa	pa	0	left	pa	1	1397
5a8f3dd5eea3d300016ece86	DL_test	14	pa	da	1	right	da	1	2047
5a8f3dd5eea3d300016ece86	DL_test	15	ba	ba	0	left	ba	1	2445
5a8f3dd5eea3d300016ece86	DL_test	16	ba	pa	1	other	ka	0	3028
5a8f3dd5eea3d300016ece86	DL_test	17	ga	ta	1	right	ta	1	3528
5a8f3dd5eea3d300016ece86	DL_test	18	ka	ba	1	right	ba	1	2232
5a8f3dd5eea3d300016ece86	DL_test	19	ba	ta	1	right	ta	1	1597
5a8f3dd5eea3d300016ece86	DL_test	20	da	ta	1	right	ta	1	2532
5a8f3dd5eea3d300016ece86	DL_test	21	ga	ga	0	left	ga	1	1430
5a8f3dd5eea3d300016ece86	DL_test	22	pa	ka	1	right	ka	1	2490
5a8f3dd5eea3d300016ece86	DL_test	23	da	ka	1	other	pa	0	1482
5a8f3dd5eea3d300016ece86	DL_test	24	ta	ta	0	left	ta	1	1697
5a8f3dd5eea3d300016ece86	DL_test	25	ba	ka	1	right	ka	1	1514
5a8f3dd5eea3d300016ece86	DL_test	26	ba	da	1	right	da	1	2665
5a8f3dd5eea3d300016ece86	DL_test	27	da	ga	1	right	ga	1	1197
5a8f3dd5eea3d300016ece86	DL_test	28	ba	ga	1	right	ga	1	1247
5a8f3dd5eea3d300016ece86	DL_test	29	ta	ka	1	right	ka	1	1166
5a8f3dd5eea3d300016ece86	DL_test	30	da	da	0	left	da	1	1465
5a8f3dd5eea3d300016ece86	DL_test	31	ga	pa	1	right	pa	1	1378
5a8f3dd5eea3d300016ece86	DL_test	32	pa	ta	1	right	ta	1	1667
5a8f3dd5eea3d300016ece86	DL_test	33	ka	ga	1	right	ga	1	1699
5a8f3dd5eea3d300016ece86	DL_test	34	ga	ka	1	left	ga	1	2779
5a8f3dd5eea3d300016ece86	DL_test	35	ka	ka	0	left	ka	1	1265
5a8f3dd5eea3d300016ece86	DL_test	36	ka	pa	1	right	pa	1	1198
5a8f3dd5eea3d300016ece86	DL_test	1	pa	ta	1	right	ta	1	1530
5a8f3dd5eea3d300016ece86	DL_test	2	ba	da	1	right	da	1	2070
5a8f3dd5eea3d300016ece86	DL_test	3	ka	ga	1	right	ga	1	2598
5a8f3dd5eea3d300016ece86	DL_test	4	da	ba	1	right	ba	1	1698
5a8f3dd5eea3d300016ece86	DL_test	5	ta	pa	1	left	ta	1	2702
5a8f3dd5eea3d300016ece86	DL_test	6	ga	ka	1	right	ka	1	1549
5a8f3dd5eea3d300016ece86	DL_test	7	da	ta	1	right	ta	1	2880
5a8f3dd5eea3d300016ece86	DL_test	8	ta	ba	1	right	ba	1	1807
5a8f3dd5eea3d300016ece86	DL_test	9	ba	ga	1	right	ga	1	1331
5a8f3dd5eea3d300016ece86	DL_test	10	da	da	0	left	da	1	1614
5a8f3dd5eea3d300016ece86	DL_test	11	ta	ta	0	left	ta	1	1282
5a8f3dd5eea3d300016ece86	DL_test	12	ta	da	1	right	da	1	1482
5a8f3dd5eea3d300016ece86	DL_test	13	ba	ba	0	left	ba	1	1548
5a8f3dd5eea3d300016ece86	DL_test	14	pa	ga	1	other	ba	0	2782
5a8f3dd5eea3d300016ece86	DL_test	15	ka	da	1	other	ga	0	2365
5a8f3dd5eea3d300016ece86	DL_test	16	da	ka	1	other	pa	0	1382
5a8f3dd5eea3d300016ece86	DL_test	17	pa	da	1	right	da	1	1671
5a8f3dd5eea3d300016ece86	DL_test	18	ga	da	1	left	ga	1	1265
5a8f3dd5eea3d300016ece86	DL_test	19	ka	pa	1	right	pa	1	1432
5a8f3dd5eea3d300016ece86	DL_test	20	ga	ta	1	right	ta	1	2094
5a8f3dd5eea3d300016ece86	DL_test	21	ka	ba	1	right	ba	1	2920
5a8f3dd5eea3d300016ece86	DL_test	22	da	ga	1	right	ga	1	1248
5a8f3dd5eea3d300016ece86	DL_test	23	ta	ga	1	right	ga	1	1182
5a8f3dd5eea3d300016ece86	DL_test	24	ga	pa	1	right	pa	1	1718
5a8f3dd5eea3d300016ece86	DL_test	25	ba	pa	1	left	ba	1	1914
5a8f3dd5eea3d300016ece86	DL_test	26	ka	ta	1	left	ka	1	1650
5a8f3dd5eea3d300016ece86	DL_test	27	ta	ka	1	right	ka	1	1248
5a8f3dd5eea3d300016ece86	DL_test	28	ga	ba	1	right	ba	1	1532
5a8f3dd5eea3d300016ece86	DL_test	29	da	pa	1	right	pa	1	1605
5a8f3dd5eea3d300016ece86	DL_test	30	ba	ta	1	right	ta	1	1598
5a8f3dd5eea3d300016ece86	DL_test	31	pa	ka	1	right	ka	1	1448
5a8f3dd5eea3d300016ece86	DL_test	32	ka	ka	0	left	ka	1	1366
5a8f3dd5eea3d300016ece86	DL_test	33	pa	pa	0	left	pa	1	1400
5a8f3dd5eea3d300016ece86	DL_test	34	ba	ka	1	right	ka	1	2415
5a8f3dd5eea3d300016ece86	DL_test	35	pa	ba	1	right	ba	1	1615
5a8f3dd5eea3d300016ece86	DL_test	36	ga	ga	0	left	ga	1	1115
5a8f3dd5eea3d300016ece86	DL_test	1	ta	pa	1	right	pa	1	2232
5a8f3dd5eea3d300016ece86	DL_test	2	ta	ka	1	left	ta	1	1265
5a8f3dd5eea3d300016ece86	DL_test	3	ka	ba	1	right	ba	1	1733
5a8f3dd5eea3d300016ece86	DL_test	4	pa	ba	1	right	ba	1	2366
5a8f3dd5eea3d300016ece86	DL_test	5	ba	ga	1	right	ga	1	1115
5a8f3dd5eea3d300016ece86	DL_test	6	pa	ga	1	right	ga	1	2165
5a8f3dd5eea3d300016ece86	DL_test	7	ta	da	1	right	da	1	1315
5a8f3dd5eea3d300016ece86	DL_test	8	ta	ta	0	left	ta	1	1498
5a8f3dd5eea3d300016ece86	DL_test	9	ka	pa	1	right	pa	1	1313
5a8f3dd5eea3d300016ece86	DL_test	10	da	da	0	left	da	1	1749
5a8f3dd5eea3d300016ece86	DL_test	11	ba	ta	1	right	ta	1	1765
5a8f3dd5eea3d300016ece86	DL_test	12	ka	ta	1	left	ka	1	1265
5a8f3dd5eea3d300016ece86	DL_test	13	da	ba	1	right	ba	1	1514
5a8f3dd5eea3d300016ece86	DL_test	14	ga	pa	1	right	pa	1	1382
5a8f3dd5eea3d300016ece86	DL_test	15	da	pa	1	left	da	1	2983
5a8f3dd5eea3d300016ece86	DL_test	16	ta	ba	1	other	da	0	2816
5a8f3dd5eea3d300016ece86	DL_test	17	ba	ka	1	right	ka	1	1931
5a8f3dd5eea3d300016ece86	DL_test	18	da	ta	1	left	da	1	1699
5a8f3dd5eea3d300016ece86	DL_test	19	ga	ga	0	left	ga	1	1132
5a8f3dd5eea3d300016ece86	DL_test	20	ga	ka	1	left	ga	1	2349
5a8f3dd5eea3d300016ece86	DL_test	21	pa	da	1	right	da	1	2915
5a8f3dd5eea3d300016ece86	DL_test	22	ka	da	1	left	ka	1	2183
5a8f3dd5eea3d300016ece86	DL_test	23	da	ka	1	other	pa	0	2649
5a8f3dd5eea3d300016ece86	DL_test	24	pa	ta	1	right	ta	1	1232
5a8f3dd5eea3d300016ece86	DL_test	25	pa	ka	1	right	ka	1	1399
5a8f3dd5eea3d300016ece86	DL_test	26	ga	da	1	left	ga	1	1066
5a8f3dd5eea3d300016ece86	DL_test	27	ba	pa	1	other	ga	0	2815
5a8f3dd5eea3d300016ece86	DL_test	28	ba	ba	0	left	ba	1	2266
5a8f3dd5eea3d300016ece86	DL_test	29	da	ga	1	right	ga	1	1196
5a8f3dd5eea3d300016ece86	DL_test	30	ba	da	1	other	ga	0	2132
5a8f3dd5eea3d300016ece86	DL_test	31	ga	ta	1	right	ta	1	1698
5a8f3dd5eea3d300016ece86	DL_test	32	ka	ga	1	right	ga	1	1998
5a8f3dd5eea3d300016ece86	DL_test	33	ta	ga	1	right	ga	1	1483
5a8f3dd5eea3d300016ece86	DL_test	34	ga	ba	1	right	ba	1	1732
5a8f3dd5eea3d300016ece86	DL_test	35	pa	pa	0	left	pa	1	1794
5a8f3dd5eea3d300016ece86	DL_test	36	ka	ka	0	left	ka	1	1065
5a8f3dd5eea3d300016ece86	DL_test	1	ka	ga	1	right	ga	1	1883
5a8f3dd5eea3d300016ece86	DL_test	2	pa	da	1	right	da	1	1315
5a8f3dd5eea3d300016ece86	DL_test	3	ga	ta	1	left	ga	1	2365
5a8f3dd5eea3d300016ece86	DL_test	4	ba	ga	1	left	ba	1	2883
5a8f3dd5eea3d300016ece86	DL_test	5	ba	ka	1	right	ka	1	1779
5a8f3dd5eea3d300016ece86	DL_test	6	ga	ga	0	left	ga	1	1036
5a8f3dd5eea3d300016ece86	DL_test	7	ga	pa	1	right	pa	1	2549
5a8f3dd5eea3d300016ece86	DL_test	8	da	da	0	left	da	1	1250
5a8f3dd5eea3d300016ece86	DL_test	9	ga	ba	1	right	ba	1	3032
5a8f3dd5eea3d300016ece86	DL_test	10	ta	ga	1	right	ga	1	2116
5a8f3dd5eea3d300016ece86	DL_test	11	ka	ka	0	left	ka	1	1165
5a8f3dd5eea3d300016ece86	DL_test	12	pa	ta	1	right	ta	1	1949
5a8f3dd5eea3d300016ece86	DL_test	13	da	ka	1	other	pa	0	2882
5a8f3dd5eea3d300016ece86	DL_test	14	ka	pa	1	right	pa	1	2399
5a8f3dd5eea3d300016ece86	DL_test	15	ta	da	1	other	ga	0	1750
5a8f3dd5eea3d300016ece86	DL_test	16	ba	da	1	right	da	1	1199
5a8f3dd5eea3d300016ece86	DL_test	17	ba	ta	1	right	ta	1	1732
5a8f3dd5eea3d300016ece86	DL_test	18	ga	ka	1	left	ga	1	1665
5a8f3dd5eea3d300016ece86	DL_test	19	ka	ba	1	right	ba	1	3632
5a8f3dd5eea3d300016ece86	DL_test	20	ta	pa	1	right	pa	1	3181
5a8f3dd5eea3d300016ece86	DL_test	21	ka	ta	1	left	ka	1	2132
5a8f3dd5eea3d300016ece86	DL_test	22	pa	ka	1	right	ka	1	2015
5a8f3dd5eea3d300016ece86	DL_test	23	ta	ba	1	other	ka	0	1849
5a8f3dd5eea3d300016ece86	DL_test	24	da	ga	1	right	ga	1	1083
5a8f3dd5eea3d300016ece86	DL_test	25	ba	ba	0	left	ba	1	1796
5a8f3dd5eea3d300016ece86	DL_test	26	ta	ta	0	left	ta	1	1667
5a8f3dd5eea3d300016ece86	DL_test	27	pa	pa	0	left	pa	1	1316
5a8f3dd5eea3d300016ece86	DL_test	28	ta	ka	1	right	ka	1	1932
5a8f3dd5eea3d300016ece86	DL_test	29	ka	da	1	right	da	1	2933
5a8f3dd5eea3d300016ece86	DL_test	30	ga	da	1	left	ga	1	1166
5a8f3dd5eea3d300016ece86	DL_test	31	pa	ba	1	right	ba	1	3631
5a8f3dd5eea3d300016ece86	DL_test	32	pa	ga	1	right	ga	1	2866
5a8f3dd5eea3d300016ece86	DL_test	33	da	ta	1	left	da	1	2845
5a8f3dd5eea3d300016ece86	DL_test	34	ba	pa	1	left	ba	1	2832
5a8f3dd5eea3d300016ece86	DL_test	35	da	ba	1	right	ba	1	2967
5a8f3dd5eea3d300016ece86	DL_test	36	da	pa	1	other	ba	0	5231
