subject	block	trialnum	DL_leftSound	DL_rightSound	DL_dualSound	DL_choice	response	correct	rt
5c37aa8b832a8400010983b3	headphonecheck_testphase	3	NA	NA	0	NA	third	1	986
5c37aa8b832a8400010983b3	headphonecheck_testphase	6	NA	NA	0	NA	second	1	371
5c37aa8b832a8400010983b3	headphonecheck_testphase	9	NA	NA	0	NA	first	1	1304
5c37aa8b832a8400010983b3	headphonecheck_testphase	12	NA	NA	0	NA	second	1	484
5c37aa8b832a8400010983b3	headphonecheck_testphase	15	NA	NA	0	NA	third	1	421
5c37aa8b832a8400010983b3	headphonecheck_testphase	18	NA	NA	0	NA	first	1	476
5c37aa8b832a8400010983b3	stereocheck_testphase	3	NA	NA	0	NA	stereocheck_left	1	505
5c37aa8b832a8400010983b3	stereocheck_testphase	6	NA	NA	0	NA	stereocheck_left	1	1427
5c37aa8b832a8400010983b3	stereocheck_testphase	9	NA	NA	0	NA	stereocheck_right	1	549
5c37aa8b832a8400010983b3	stereocheck_testphase	12	NA	NA	0	NA	stereocheck_right	1	399
5c37aa8b832a8400010983b3	stereocheck_testphase	15	NA	NA	0	NA	stereocheck_right	1	397
5c37aa8b832a8400010983b3	stereocheck_testphase	18	NA	NA	0	NA	stereocheck_left	1	414
5c37aa8b832a8400010983b3	DL_practice	2	ga	ga	0	left	ga	1	1296
5c37aa8b832a8400010983b3	DL_practice	3	pa	pa	0	left	pa	1	1303
5c37aa8b832a8400010983b3	DL_practice	4	ka	ka	0	left	ka	1	1044
5c37aa8b832a8400010983b3	DL_practice	5	da	ba	1	left	da	1	1719
5c37aa8b832a8400010983b3	DL_practice	6	da	da	0	left	da	1	1379
5c37aa8b832a8400010983b3	DL_practice	7	ta	ta	0	left	ta	1	1357
5c37aa8b832a8400010983b3	DL_practice	8	ba	ba	0	left	ba	1	1932
5c37aa8b832a8400010983b3	DL_practice	9	ka	pa	1	right	pa	1	1843
5c37aa8b832a8400010983b3	DL_practice	10	ga	ta	1	other	ka	0	1062
5c37aa8b832a8400010983b3	DL_test	1	ga	ta	1	other	ka	0	1101
5c37aa8b832a8400010983b3	DL_test	2	ka	da	1	right	da	1	1338
5c37aa8b832a8400010983b3	DL_test	3	ta	da	1	right	da	1	1310
5c37aa8b832a8400010983b3	DL_test	4	ta	ba	1	other	pa	0	1337
5c37aa8b832a8400010983b3	DL_test	5	ba	ba	0	left	ba	1	1516
5c37aa8b832a8400010983b3	DL_test	6	ga	ka	1	right	ka	1	1608
5c37aa8b832a8400010983b3	DL_test	7	ga	ba	1	other	da	0	1353
5c37aa8b832a8400010983b3	DL_test	8	ta	ga	1	right	ga	1	858
5c37aa8b832a8400010983b3	DL_test	9	pa	pa	0	left	pa	1	2151
5c37aa8b832a8400010983b3	DL_test	10	da	ta	1	right	ta	1	923
5c37aa8b832a8400010983b3	DL_test	11	ta	pa	1	right	pa	1	1590
5c37aa8b832a8400010983b3	DL_test	12	da	da	0	left	da	1	1639
5c37aa8b832a8400010983b3	DL_test	13	pa	da	1	right	da	1	3359
5c37aa8b832a8400010983b3	DL_test	14	ka	ga	1	right	ga	1	1031
5c37aa8b832a8400010983b3	DL_test	15	pa	ga	1	right	ga	1	1675
5c37aa8b832a8400010983b3	DL_test	16	ba	ga	1	other	da	0	1571
5c37aa8b832a8400010983b3	DL_test	17	ga	ga	0	left	ga	1	1657
5c37aa8b832a8400010983b3	DL_test	18	ta	ka	1	right	ka	1	1083
5c37aa8b832a8400010983b3	DL_test	19	da	ga	1	left	da	1	1416
5c37aa8b832a8400010983b3	DL_test	20	ka	ka	0	left	ka	1	1440
5c37aa8b832a8400010983b3	DL_test	21	da	pa	1	right	pa	1	1294
5c37aa8b832a8400010983b3	DL_test	22	da	ba	1	left	da	1	1416
5c37aa8b832a8400010983b3	DL_test	23	ba	ka	1	right	ka	1	1530
5c37aa8b832a8400010983b3	DL_test	24	ka	pa	1	right	pa	1	1605
5c37aa8b832a8400010983b3	DL_test	25	ka	ta	1	left	ka	1	1793
5c37aa8b832a8400010983b3	DL_test	26	ga	da	1	right	da	1	1820
5c37aa8b832a8400010983b3	DL_test	27	da	ka	1	other	pa	0	1615
5c37aa8b832a8400010983b3	DL_test	28	ka	ba	1	other	pa	0	3456
5c37aa8b832a8400010983b3	DL_test	29	pa	ta	1	right	ta	1	1784
5c37aa8b832a8400010983b3	DL_test	30	ba	pa	1	right	pa	1	1358
5c37aa8b832a8400010983b3	DL_test	31	pa	ka	1	right	ka	1	971
5c37aa8b832a8400010983b3	DL_test	32	ba	ta	1	other	pa	0	1577
5c37aa8b832a8400010983b3	DL_test	33	ga	pa	1	right	pa	1	1279
5c37aa8b832a8400010983b3	DL_test	34	pa	ba	1	left	pa	1	4251
5c37aa8b832a8400010983b3	DL_test	35	ba	da	1	right	da	1	1329
5c37aa8b832a8400010983b3	DL_test	36	ta	ta	0	left	ta	1	1565
5c37aa8b832a8400010983b3	DL_test	1	ga	da	1	right	da	1	1949
5c37aa8b832a8400010983b3	DL_test	2	ba	ka	1	right	ka	1	1178
5c37aa8b832a8400010983b3	DL_test	3	ba	pa	1	right	pa	1	1635
5c37aa8b832a8400010983b3	DL_test	4	ga	ba	1	other	da	0	1696
5c37aa8b832a8400010983b3	DL_test	5	ka	ta	1	left	ka	1	1206
5c37aa8b832a8400010983b3	DL_test	6	ga	ta	1	other	ka	0	1629
5c37aa8b832a8400010983b3	DL_test	7	da	da	0	left	da	1	2048
5c37aa8b832a8400010983b3	DL_test	8	da	pa	1	right	pa	1	1501
5c37aa8b832a8400010983b3	DL_test	9	ta	ta	0	left	ta	1	994
5c37aa8b832a8400010983b3	DL_test	10	ba	ba	0	left	ba	1	1693
5c37aa8b832a8400010983b3	DL_test	11	pa	ba	1	left	pa	1	1405
5c37aa8b832a8400010983b3	DL_test	12	da	ga	1	left	da	1	1844
5c37aa8b832a8400010983b3	DL_test	13	da	ta	1	right	ta	1	1437
5c37aa8b832a8400010983b3	DL_test	14	ta	ga	1	other	pa	0	3652
5c37aa8b832a8400010983b3	DL_test	15	ta	da	1	right	da	1	1594
5c37aa8b832a8400010983b3	DL_test	16	ka	ka	0	left	ka	1	1752
5c37aa8b832a8400010983b3	DL_test	17	ga	pa	1	right	pa	1	1221
5c37aa8b832a8400010983b3	DL_test	18	ta	ka	1	right	ka	1	978
5c37aa8b832a8400010983b3	DL_test	19	ba	ga	1	left	ba	1	2068
5c37aa8b832a8400010983b3	DL_test	20	pa	ka	1	right	ka	1	1275
5c37aa8b832a8400010983b3	DL_test	21	ba	ta	1	right	ta	1	1759
5c37aa8b832a8400010983b3	DL_test	22	ka	pa	1	right	pa	1	1097
5c37aa8b832a8400010983b3	DL_test	23	da	ka	1	other	pa	0	1273
5c37aa8b832a8400010983b3	DL_test	24	ka	ga	1	right	ga	1	1433
5c37aa8b832a8400010983b3	DL_test	25	ga	ka	1	right	ka	1	1289
5c37aa8b832a8400010983b3	DL_test	26	da	ba	1	left	da	1	1589
5c37aa8b832a8400010983b3	DL_test	27	pa	ga	1	left	pa	1	2601
5c37aa8b832a8400010983b3	DL_test	28	ta	ba	1	left	ta	1	2550
5c37aa8b832a8400010983b3	DL_test	29	ga	ga	0	left	ga	1	1374
5c37aa8b832a8400010983b3	DL_test	30	ba	da	1	right	da	1	1818
5c37aa8b832a8400010983b3	DL_test	31	ta	pa	1	right	pa	1	2185
5c37aa8b832a8400010983b3	DL_test	32	pa	da	1	left	pa	1	3766
5c37aa8b832a8400010983b3	DL_test	33	ka	da	1	left	ka	1	1545
5c37aa8b832a8400010983b3	DL_test	34	pa	ta	1	right	ta	1	1537
5c37aa8b832a8400010983b3	DL_test	35	pa	pa	0	left	pa	1	1005
5c37aa8b832a8400010983b3	DL_test	36	ka	ba	1	left	ka	1	1146
5c37aa8b832a8400010983b3	DL_test	1	pa	da	1	other	ta	0	1818
5c37aa8b832a8400010983b3	DL_test	2	ga	ta	1	other	ka	0	1051
5c37aa8b832a8400010983b3	DL_test	3	ka	ka	0	left	ka	1	833
5c37aa8b832a8400010983b3	DL_test	4	ka	ga	1	left	ka	1	910
5c37aa8b832a8400010983b3	DL_test	5	ta	da	1	right	da	1	1907
5c37aa8b832a8400010983b3	DL_test	6	pa	ta	1	right	ta	1	1608
5c37aa8b832a8400010983b3	DL_test	7	pa	ba	1	left	pa	1	1227
5c37aa8b832a8400010983b3	DL_test	8	pa	ga	1	left	pa	1	2122
5c37aa8b832a8400010983b3	DL_test	9	ka	ta	1	left	ka	1	1008
5c37aa8b832a8400010983b3	DL_test	10	ta	ka	1	right	ka	1	794
5c37aa8b832a8400010983b3	DL_test	11	da	ka	1	other	pa	0	1681
5c37aa8b832a8400010983b3	DL_test	12	da	ga	1	right	ga	1	1842
5c37aa8b832a8400010983b3	DL_test	13	ga	ga	0	left	ga	1	754
5c37aa8b832a8400010983b3	DL_test	14	da	da	0	left	da	1	1626
5c37aa8b832a8400010983b3	DL_test	15	da	ta	1	right	ta	1	2850
5c37aa8b832a8400010983b3	DL_test	16	ga	ba	1	left	ga	1	1461
5c37aa8b832a8400010983b3	DL_test	17	ta	ta	0	left	ta	1	1649
5c37aa8b832a8400010983b3	DL_test	18	pa	ka	1	right	ka	1	1223
5c37aa8b832a8400010983b3	DL_test	19	ga	pa	1	right	pa	1	1541
5c37aa8b832a8400010983b3	DL_test	20	ba	pa	1	right	pa	1	1363
5c37aa8b832a8400010983b3	DL_test	21	ba	ga	1	right	ga	1	1094
5c37aa8b832a8400010983b3	DL_test	22	ga	da	1	right	da	1	1161
5c37aa8b832a8400010983b3	DL_test	23	ta	ga	1	other	da	0	3275
5c37aa8b832a8400010983b3	DL_test	24	ka	pa	1	right	pa	1	1576
5c37aa8b832a8400010983b3	DL_test	25	da	ba	1	left	da	1	1461
5c37aa8b832a8400010983b3	DL_test	26	ka	ba	1	left	ka	1	1200
5c37aa8b832a8400010983b3	DL_test	27	ga	ka	1	right	ka	1	806
5c37aa8b832a8400010983b3	DL_test	28	da	pa	1	right	pa	1	1281
5c37aa8b832a8400010983b3	DL_test	29	ba	ta	1	right	ta	1	2392
5c37aa8b832a8400010983b3	DL_test	30	ta	pa	1	right	pa	1	1463
5c37aa8b832a8400010983b3	DL_test	31	ta	ba	1	other	pa	0	256
5c37aa8b832a8400010983b3	DL_test	32	pa	pa	0	left	pa	1	783
5c37aa8b832a8400010983b3	DL_test	33	ba	ba	0	left	ba	1	2387
5c37aa8b832a8400010983b3	DL_test	34	ba	da	1	right	da	1	1881
5c37aa8b832a8400010983b3	DL_test	35	ka	da	1	right	da	1	1597
5c37aa8b832a8400010983b3	DL_test	36	ba	ka	1	right	ka	1	1369
5c37aa8b832a8400010983b3	DL_test	1	da	ka	1	other	pa	0	1649
5c37aa8b832a8400010983b3	DL_test	2	da	da	0	left	da	1	1411
5c37aa8b832a8400010983b3	DL_test	3	ta	pa	1	right	pa	1	2862
5c37aa8b832a8400010983b3	DL_test	4	da	ta	1	right	ta	1	1584
5c37aa8b832a8400010983b3	DL_test	5	pa	ta	1	right	ta	1	892
5c37aa8b832a8400010983b3	DL_test	6	ka	ta	1	right	ta	1	864
5c37aa8b832a8400010983b3	DL_test	7	ga	da	1	right	da	1	1627
5c37aa8b832a8400010983b3	DL_test	8	pa	da	1	right	da	1	1454
5c37aa8b832a8400010983b3	DL_test	9	ka	ka	0	left	ka	1	1224
5c37aa8b832a8400010983b3	DL_test	10	ka	pa	1	right	pa	1	1374
5c37aa8b832a8400010983b3	DL_test	11	ka	ga	1	right	ga	1	1334
5c37aa8b832a8400010983b3	DL_test	12	ga	ta	1	other	ka	0	3000
5c37aa8b832a8400010983b3	DL_test	13	ba	da	1	right	da	1	1964
5c37aa8b832a8400010983b3	DL_test	14	pa	ba	1	left	pa	1	1882
5c37aa8b832a8400010983b3	DL_test	15	ta	ka	1	right	ka	1	1066
5c37aa8b832a8400010983b3	DL_test	16	ga	pa	1	right	pa	1	1539
5c37aa8b832a8400010983b3	DL_test	17	ga	ga	0	left	ga	1	1108
5c37aa8b832a8400010983b3	DL_test	18	pa	pa	0	left	pa	1	1954
5c37aa8b832a8400010983b3	DL_test	19	ga	ka	1	right	ka	1	1214
5c37aa8b832a8400010983b3	DL_test	20	ta	ba	1	other	pa	0	1341
5c37aa8b832a8400010983b3	DL_test	21	da	ba	1	left	da	1	1504
5c37aa8b832a8400010983b3	DL_test	22	da	pa	1	right	pa	1	1400
5c37aa8b832a8400010983b3	DL_test	23	pa	ga	1	right	ga	1	1144
5c37aa8b832a8400010983b3	DL_test	24	ba	ga	1	right	ga	1	974
5c37aa8b832a8400010983b3	DL_test	25	ta	ga	1	right	ga	1	980
5c37aa8b832a8400010983b3	DL_test	26	pa	ka	1	right	ka	1	1134
5c37aa8b832a8400010983b3	DL_test	27	ba	ta	1	right	ta	1	1753
5c37aa8b832a8400010983b3	DL_test	28	ta	da	1	right	da	1	1803
5c37aa8b832a8400010983b3	DL_test	29	ga	ba	1	right	ba	1	1615
5c37aa8b832a8400010983b3	DL_test	30	ta	ta	0	left	ta	1	1766
5c37aa8b832a8400010983b3	DL_test	31	da	ga	1	left	da	1	1984
5c37aa8b832a8400010983b3	DL_test	32	ba	ka	1	right	ka	1	1142
5c37aa8b832a8400010983b3	DL_test	33	ba	pa	1	right	pa	1	1239
5c37aa8b832a8400010983b3	DL_test	34	ba	ba	0	left	ba	1	1729
5c37aa8b832a8400010983b3	DL_test	35	ka	ba	1	left	ka	1	1661
5c37aa8b832a8400010983b3	DL_test	36	ka	da	1	left	ka	1	1004
