subject	block	trialnum	DL_leftSound	DL_rightSound	DL_dualSound	DL_choice	response	correct	rt
5c6838ea5f8d580001e8a8ab	headphonecheck_testphase	3	NA	NA	0	NA	second	1	1059
5c6838ea5f8d580001e8a8ab	headphonecheck_testphase	6	NA	NA	0	NA	second	1	1185
5c6838ea5f8d580001e8a8ab	headphonecheck_testphase	9	NA	NA	0	NA	third	1	616
5c6838ea5f8d580001e8a8ab	headphonecheck_testphase	12	NA	NA	0	NA	third	1	348
5c6838ea5f8d580001e8a8ab	headphonecheck_testphase	15	NA	NA	0	NA	first	1	549
5c6838ea5f8d580001e8a8ab	headphonecheck_testphase	18	NA	NA	0	NA	first	1	304
5c6838ea5f8d580001e8a8ab	stereocheck_testphase	3	NA	NA	0	NA	stereocheck_right	1	157
5c6838ea5f8d580001e8a8ab	stereocheck_testphase	6	NA	NA	0	NA	stereocheck_left	1	94
5c6838ea5f8d580001e8a8ab	stereocheck_testphase	9	NA	NA	0	NA	stereocheck_right	1	93
5c6838ea5f8d580001e8a8ab	stereocheck_testphase	12	NA	NA	0	NA	stereocheck_left	1	234
5c6838ea5f8d580001e8a8ab	stereocheck_testphase	15	NA	NA	0	NA	stereocheck_left	1	268
5c6838ea5f8d580001e8a8ab	stereocheck_testphase	18	NA	NA	0	NA	stereocheck_right	1	173
5c6838ea5f8d580001e8a8ab	DL_practice	2	ba	ba	0	left	ba	1	1767
5c6838ea5f8d580001e8a8ab	DL_practice	3	ka	pa	1	right	pa	1	1402
5c6838ea5f8d580001e8a8ab	DL_practice	4	da	ba	1	left	da	1	1178
5c6838ea5f8d580001e8a8ab	DL_practice	5	ga	ga	0	left	ga	1	872
5c6838ea5f8d580001e8a8ab	DL_practice	6	pa	pa	0	left	pa	1	1117
5c6838ea5f8d580001e8a8ab	DL_practice	7	ga	ta	1	other	ka	0	861
5c6838ea5f8d580001e8a8ab	DL_practice	8	da	da	0	left	da	1	694
5c6838ea5f8d580001e8a8ab	DL_practice	9	ka	ka	0	left	ka	1	756
5c6838ea5f8d580001e8a8ab	DL_practice	10	ta	ta	0	other	ka	0	960
5c6838ea5f8d580001e8a8ab	DL_test	1	ga	ga	0	left	ga	1	1101
5c6838ea5f8d580001e8a8ab	DL_test	2	pa	ba	1	left	pa	1	807
5c6838ea5f8d580001e8a8ab	DL_test	3	pa	pa	0	left	pa	1	447
5c6838ea5f8d580001e8a8ab	DL_test	4	ga	da	1	right	da	1	1035
5c6838ea5f8d580001e8a8ab	DL_test	5	ka	pa	1	left	ka	1	1090
5c6838ea5f8d580001e8a8ab	DL_test	6	ba	ga	1	other	da	0	747
5c6838ea5f8d580001e8a8ab	DL_test	7	ka	ta	1	left	ka	1	1492
5c6838ea5f8d580001e8a8ab	DL_test	8	da	ta	1	other	ka	0	776
5c6838ea5f8d580001e8a8ab	DL_test	9	da	ka	1	other	pa	0	819
5c6838ea5f8d580001e8a8ab	DL_test	10	ta	pa	1	right	pa	1	719
5c6838ea5f8d580001e8a8ab	DL_test	11	pa	ta	1	right	ta	1	878
5c6838ea5f8d580001e8a8ab	DL_test	12	ba	ka	1	right	ka	1	1183
5c6838ea5f8d580001e8a8ab	DL_test	13	da	da	0	left	da	1	833
5c6838ea5f8d580001e8a8ab	DL_test	14	ga	ba	1	left	ga	1	1286
5c6838ea5f8d580001e8a8ab	DL_test	15	ba	ba	0	left	ba	1	840
5c6838ea5f8d580001e8a8ab	DL_test	16	ka	ba	1	left	ka	1	893
5c6838ea5f8d580001e8a8ab	DL_test	17	ta	ta	0	left	ta	1	879
5c6838ea5f8d580001e8a8ab	DL_test	18	ka	ka	0	left	ka	1	1108
5c6838ea5f8d580001e8a8ab	DL_test	19	ba	pa	1	right	pa	1	806
5c6838ea5f8d580001e8a8ab	DL_test	20	da	pa	1	right	pa	1	388
5c6838ea5f8d580001e8a8ab	DL_test	21	ka	da	1	left	ka	1	2121
5c6838ea5f8d580001e8a8ab	DL_test	22	ka	ga	1	left	ka	1	1119
5c6838ea5f8d580001e8a8ab	DL_test	23	pa	ga	1	right	ga	1	1378
5c6838ea5f8d580001e8a8ab	DL_test	24	da	ba	1	left	da	1	660
5c6838ea5f8d580001e8a8ab	DL_test	25	ta	ga	1	other	da	0	756
5c6838ea5f8d580001e8a8ab	DL_test	26	ba	ta	1	other	ka	0	1046
5c6838ea5f8d580001e8a8ab	DL_test	27	ga	ta	1	other	ka	0	532
5c6838ea5f8d580001e8a8ab	DL_test	28	ga	ka	1	right	ka	1	459
5c6838ea5f8d580001e8a8ab	DL_test	29	ta	ba	1	other	pa	0	1499
5c6838ea5f8d580001e8a8ab	DL_test	30	ta	ka	1	right	ka	1	1003
5c6838ea5f8d580001e8a8ab	DL_test	31	ba	da	1	right	da	1	635
5c6838ea5f8d580001e8a8ab	DL_test	32	pa	ka	1	right	ka	1	852
5c6838ea5f8d580001e8a8ab	DL_test	33	da	ga	1	right	ga	1	927
5c6838ea5f8d580001e8a8ab	DL_test	34	ga	pa	1	right	pa	1	1131
5c6838ea5f8d580001e8a8ab	DL_test	35	pa	da	1	left	pa	1	1423
5c6838ea5f8d580001e8a8ab	DL_test	36	ta	da	1	other	ga	0	1514
5c6838ea5f8d580001e8a8ab	DL_test	1	ga	ga	0	left	ga	1	828
5c6838ea5f8d580001e8a8ab	DL_test	2	pa	ta	1	other	ka	0	1646
5c6838ea5f8d580001e8a8ab	DL_test	3	ga	ta	1	other	ka	0	546
5c6838ea5f8d580001e8a8ab	DL_test	4	pa	ka	1	right	ka	1	816
5c6838ea5f8d580001e8a8ab	DL_test	5	ga	ka	1	right	ka	1	609
5c6838ea5f8d580001e8a8ab	DL_test	6	ba	da	1	right	da	1	802
5c6838ea5f8d580001e8a8ab	DL_test	7	ba	ba	0	left	ba	1	531
5c6838ea5f8d580001e8a8ab	DL_test	8	ta	ga	1	right	ga	1	726
5c6838ea5f8d580001e8a8ab	DL_test	9	ba	pa	1	right	pa	1	746
5c6838ea5f8d580001e8a8ab	DL_test	10	ta	ta	0	left	ta	1	507
5c6838ea5f8d580001e8a8ab	DL_test	11	ka	ka	0	left	ka	1	919
5c6838ea5f8d580001e8a8ab	DL_test	12	da	ka	1	other	pa	0	704
5c6838ea5f8d580001e8a8ab	DL_test	13	ta	da	1	other	ga	0	1901
5c6838ea5f8d580001e8a8ab	DL_test	14	ka	da	1	left	ka	1	1078
5c6838ea5f8d580001e8a8ab	DL_test	15	da	da	0	left	da	1	820
5c6838ea5f8d580001e8a8ab	DL_test	16	ka	ga	1	left	ka	1	848
5c6838ea5f8d580001e8a8ab	DL_test	17	ta	ba	1	other	ka	0	657
5c6838ea5f8d580001e8a8ab	DL_test	18	ta	ka	1	right	ka	1	355
5c6838ea5f8d580001e8a8ab	DL_test	19	ga	pa	1	right	pa	1	710
5c6838ea5f8d580001e8a8ab	DL_test	20	pa	ga	1	right	ga	1	1038
5c6838ea5f8d580001e8a8ab	DL_test	21	ka	pa	1	other	ga	0	634
5c6838ea5f8d580001e8a8ab	DL_test	22	pa	ba	1	right	ba	1	1159
5c6838ea5f8d580001e8a8ab	DL_test	23	da	ba	1	left	da	1	617
5c6838ea5f8d580001e8a8ab	DL_test	24	ba	ka	1	right	ka	1	881
5c6838ea5f8d580001e8a8ab	DL_test	25	ta	pa	1	right	pa	1	911
5c6838ea5f8d580001e8a8ab	DL_test	26	da	ga	1	left	da	1	876
5c6838ea5f8d580001e8a8ab	DL_test	27	ba	ta	1	other	ka	0	1119
5c6838ea5f8d580001e8a8ab	DL_test	28	ba	ga	1	other	da	0	759
5c6838ea5f8d580001e8a8ab	DL_test	29	ga	ba	1	left	ga	1	478
5c6838ea5f8d580001e8a8ab	DL_test	30	pa	pa	0	left	pa	1	927
5c6838ea5f8d580001e8a8ab	DL_test	31	ga	da	1	right	da	1	872
5c6838ea5f8d580001e8a8ab	DL_test	32	ka	ta	1	left	ka	1	959
5c6838ea5f8d580001e8a8ab	DL_test	33	da	ta	1	other	ka	0	693
5c6838ea5f8d580001e8a8ab	DL_test	34	ka	ba	1	left	ka	1	886
5c6838ea5f8d580001e8a8ab	DL_test	35	pa	da	1	other	ka	0	2208
5c6838ea5f8d580001e8a8ab	DL_test	36	da	pa	1	right	pa	1	545
5c6838ea5f8d580001e8a8ab	DL_test	1	ga	ka	1	right	ka	1	1058
5c6838ea5f8d580001e8a8ab	DL_test	2	ba	pa	1	right	pa	1	860
5c6838ea5f8d580001e8a8ab	DL_test	3	ta	ba	1	other	ga	0	1332
5c6838ea5f8d580001e8a8ab	DL_test	4	ta	ga	1	right	ga	1	772
5c6838ea5f8d580001e8a8ab	DL_test	5	ba	ba	0	left	ba	1	978
5c6838ea5f8d580001e8a8ab	DL_test	6	ka	ka	0	left	ka	1	1453
5c6838ea5f8d580001e8a8ab	DL_test	7	ba	ga	1	right	ga	1	536
5c6838ea5f8d580001e8a8ab	DL_test	8	ga	ta	1	other	ka	0	991
5c6838ea5f8d580001e8a8ab	DL_test	9	ka	ba	1	left	ka	1	1780
5c6838ea5f8d580001e8a8ab	DL_test	10	da	ka	1	other	pa	0	692
5c6838ea5f8d580001e8a8ab	DL_test	11	ga	da	1	left	ga	1	1379
5c6838ea5f8d580001e8a8ab	DL_test	12	pa	ta	1	left	pa	1	939
5c6838ea5f8d580001e8a8ab	DL_test	13	ga	ga	0	left	ga	1	527
5c6838ea5f8d580001e8a8ab	DL_test	14	da	da	0	left	da	1	450
5c6838ea5f8d580001e8a8ab	DL_test	15	pa	pa	0	left	pa	1	1510
5c6838ea5f8d580001e8a8ab	DL_test	16	ga	pa	1	right	pa	1	886
5c6838ea5f8d580001e8a8ab	DL_test	17	ta	ta	0	left	ta	1	769
5c6838ea5f8d580001e8a8ab	DL_test	18	da	ta	1	other	ka	0	1032
5c6838ea5f8d580001e8a8ab	DL_test	19	ba	da	1	right	da	1	1039
5c6838ea5f8d580001e8a8ab	DL_test	20	da	pa	1	right	pa	1	929
5c6838ea5f8d580001e8a8ab	DL_test	21	ka	ga	1	left	ka	1	754
5c6838ea5f8d580001e8a8ab	DL_test	22	ba	ta	1	other	ka	0	685
5c6838ea5f8d580001e8a8ab	DL_test	23	da	ga	1	left	da	1	886
5c6838ea5f8d580001e8a8ab	DL_test	24	pa	ga	1	other	ka	0	1359
5c6838ea5f8d580001e8a8ab	DL_test	25	ta	pa	1	right	pa	1	740
5c6838ea5f8d580001e8a8ab	DL_test	26	ga	ba	1	left	ga	1	1002
5c6838ea5f8d580001e8a8ab	DL_test	27	pa	da	1	left	pa	1	1328
5c6838ea5f8d580001e8a8ab	DL_test	28	ta	da	1	other	ka	0	1071
5c6838ea5f8d580001e8a8ab	DL_test	29	pa	ba	1	left	pa	1	917
5c6838ea5f8d580001e8a8ab	DL_test	30	da	ba	1	left	da	1	995
5c6838ea5f8d580001e8a8ab	DL_test	31	ka	da	1	left	ka	1	1147
5c6838ea5f8d580001e8a8ab	DL_test	32	ka	pa	1	left	ka	1	1369
5c6838ea5f8d580001e8a8ab	DL_test	33	ka	ta	1	other	ga	0	1048
5c6838ea5f8d580001e8a8ab	DL_test	34	ta	ka	1	right	ka	1	581
5c6838ea5f8d580001e8a8ab	DL_test	35	pa	ka	1	left	pa	1	678
5c6838ea5f8d580001e8a8ab	DL_test	36	ba	ka	1	right	ka	1	1182
5c6838ea5f8d580001e8a8ab	DL_test	1	ka	da	1	left	ka	1	1433
5c6838ea5f8d580001e8a8ab	DL_test	2	ka	ta	1	left	ka	1	605
5c6838ea5f8d580001e8a8ab	DL_test	3	ba	ba	0	left	ba	1	1137
5c6838ea5f8d580001e8a8ab	DL_test	4	da	pa	1	right	pa	1	1244
5c6838ea5f8d580001e8a8ab	DL_test	5	ka	ba	1	left	ka	1	1211
5c6838ea5f8d580001e8a8ab	DL_test	6	pa	ka	1	right	ka	1	516
5c6838ea5f8d580001e8a8ab	DL_test	7	da	ba	1	left	da	1	941
5c6838ea5f8d580001e8a8ab	DL_test	8	ga	ka	1	right	ka	1	713
5c6838ea5f8d580001e8a8ab	DL_test	9	ba	da	1	right	da	1	734
5c6838ea5f8d580001e8a8ab	DL_test	10	ta	ba	1	other	ka	0	1302
5c6838ea5f8d580001e8a8ab	DL_test	11	ka	pa	1	right	pa	1	818
5c6838ea5f8d580001e8a8ab	DL_test	12	ba	ka	1	other	ga	0	976
5c6838ea5f8d580001e8a8ab	DL_test	13	da	da	0	left	da	1	676
5c6838ea5f8d580001e8a8ab	DL_test	14	da	ka	1	other	pa	0	986
5c6838ea5f8d580001e8a8ab	DL_test	15	ta	pa	1	right	pa	1	2480
5c6838ea5f8d580001e8a8ab	DL_test	16	ba	pa	1	right	pa	1	723
5c6838ea5f8d580001e8a8ab	DL_test	17	pa	ga	1	left	pa	1	1292
5c6838ea5f8d580001e8a8ab	DL_test	18	ga	pa	1	right	pa	1	571
5c6838ea5f8d580001e8a8ab	DL_test	19	ta	ka	1	right	ka	1	906
5c6838ea5f8d580001e8a8ab	DL_test	20	ka	ka	0	left	ka	1	574
5c6838ea5f8d580001e8a8ab	DL_test	21	da	ga	1	left	da	1	1374
5c6838ea5f8d580001e8a8ab	DL_test	22	pa	pa	0	left	pa	1	768
5c6838ea5f8d580001e8a8ab	DL_test	23	pa	ba	1	left	pa	1	1210
5c6838ea5f8d580001e8a8ab	DL_test	24	da	ta	1	other	ka	0	1619
5c6838ea5f8d580001e8a8ab	DL_test	25	ba	ta	1	other	ka	0	1367
5c6838ea5f8d580001e8a8ab	DL_test	26	pa	ta	1	right	ta	1	789
5c6838ea5f8d580001e8a8ab	DL_test	27	ga	ba	1	left	ga	1	838
5c6838ea5f8d580001e8a8ab	DL_test	28	pa	da	1	right	da	1	956
5c6838ea5f8d580001e8a8ab	DL_test	29	ta	da	1	other	ka	0	914
5c6838ea5f8d580001e8a8ab	DL_test	30	ga	ta	1	other	ka	0	355
5c6838ea5f8d580001e8a8ab	DL_test	31	ba	ga	1	right	ga	1	1103
5c6838ea5f8d580001e8a8ab	DL_test	32	ta	ta	0	other	ka	0	1494
5c6838ea5f8d580001e8a8ab	DL_test	33	ka	ga	1	right	ga	1	955
5c6838ea5f8d580001e8a8ab	DL_test	34	ta	ga	1	right	ga	1	779
5c6838ea5f8d580001e8a8ab	DL_test	35	ga	ga	0	left	ga	1	428
5c6838ea5f8d580001e8a8ab	DL_test	36	ga	da	1	right	da	1	627
