subject	block	trialnum	DL_leftSound	DL_rightSound	DL_dualSound	DL_choice	response	correct	rt
5cc4969c3b1b1c0018f9da36	headphonecheck_testphase	3	NA	NA	0	NA	second	1	1480
5cc4969c3b1b1c0018f9da36	headphonecheck_testphase	6	NA	NA	0	NA	third	1	292
5cc4969c3b1b1c0018f9da36	headphonecheck_testphase	9	NA	NA	0	NA	first	1	390
5cc4969c3b1b1c0018f9da36	headphonecheck_testphase	12	NA	NA	0	NA	first	1	292
5cc4969c3b1b1c0018f9da36	headphonecheck_testphase	15	NA	NA	0	NA	second	1	291
5cc4969c3b1b1c0018f9da36	headphonecheck_testphase	18	NA	NA	0	NA	third	1	306
5cc4969c3b1b1c0018f9da36	stereocheck_testphase	3	NA	NA	0	NA	stereocheck_left	1	203
5cc4969c3b1b1c0018f9da36	stereocheck_testphase	6	NA	NA	0	NA	stereocheck_right	1	673
5cc4969c3b1b1c0018f9da36	stereocheck_testphase	9	NA	NA	0	NA	stereocheck_left	1	1010
5cc4969c3b1b1c0018f9da36	stereocheck_testphase	12	NA	NA	0	NA	stereocheck_right	1	251
5cc4969c3b1b1c0018f9da36	stereocheck_testphase	15	NA	NA	0	NA	stereocheck_right	1	272
5cc4969c3b1b1c0018f9da36	stereocheck_testphase	18	NA	NA	0	NA	stereocheck_left	1	338
5cc4969c3b1b1c0018f9da36	DL_practice	2	ta	ta	0	left	ta	1	2156
5cc4969c3b1b1c0018f9da36	DL_practice	3	ka	ka	0	left	ka	1	1252
5cc4969c3b1b1c0018f9da36	DL_practice	4	ga	ga	0	left	ga	1	1055
5cc4969c3b1b1c0018f9da36	DL_practice	5	ba	ba	0	left	ba	1	819
5cc4969c3b1b1c0018f9da36	DL_practice	6	ka	pa	1	right	pa	1	1310
5cc4969c3b1b1c0018f9da36	DL_practice	7	da	ba	1	left	da	1	1319
5cc4969c3b1b1c0018f9da36	DL_practice	8	pa	pa	0	left	pa	1	1457
5cc4969c3b1b1c0018f9da36	DL_practice	9	ga	ta	1	other	ka	0	859
5cc4969c3b1b1c0018f9da36	DL_practice	10	da	da	0	left	da	1	823
5cc4969c3b1b1c0018f9da36	DL_test	1	ka	ba	1	left	ka	1	966
5cc4969c3b1b1c0018f9da36	DL_test	2	ta	ga	1	other	ka	0	1012
5cc4969c3b1b1c0018f9da36	DL_test	3	ta	ta	0	left	ta	1	1482
5cc4969c3b1b1c0018f9da36	DL_test	4	ta	pa	1	right	pa	1	2429
5cc4969c3b1b1c0018f9da36	DL_test	5	ka	ka	0	left	ka	1	1779
5cc4969c3b1b1c0018f9da36	DL_test	6	ba	da	1	right	da	1	1169
5cc4969c3b1b1c0018f9da36	DL_test	7	pa	ka	1	left	pa	1	1488
5cc4969c3b1b1c0018f9da36	DL_test	8	ga	ga	0	left	ga	1	1123
5cc4969c3b1b1c0018f9da36	DL_test	9	ta	ba	1	left	ta	1	2163
5cc4969c3b1b1c0018f9da36	DL_test	10	pa	pa	0	left	pa	1	1179
5cc4969c3b1b1c0018f9da36	DL_test	11	da	ga	1	left	da	1	1138
5cc4969c3b1b1c0018f9da36	DL_test	12	pa	ba	1	left	pa	1	1803
5cc4969c3b1b1c0018f9da36	DL_test	13	da	ba	1	left	da	1	1425
5cc4969c3b1b1c0018f9da36	DL_test	14	ba	ka	1	right	ka	1	1117
5cc4969c3b1b1c0018f9da36	DL_test	15	ka	da	1	other	ta	0	1743
5cc4969c3b1b1c0018f9da36	DL_test	16	ba	pa	1	right	pa	1	1415
5cc4969c3b1b1c0018f9da36	DL_test	17	ta	ka	1	right	ka	1	1749
5cc4969c3b1b1c0018f9da36	DL_test	18	ga	ka	1	right	ka	1	1244
5cc4969c3b1b1c0018f9da36	DL_test	19	ka	ta	1	left	ka	1	1392
5cc4969c3b1b1c0018f9da36	DL_test	20	pa	ta	1	right	ta	1	1902
5cc4969c3b1b1c0018f9da36	DL_test	21	ka	ga	1	left	ka	1	2463
5cc4969c3b1b1c0018f9da36	DL_test	22	ka	pa	1	other	ba	0	2508
5cc4969c3b1b1c0018f9da36	DL_test	23	ta	da	1	left	ta	1	1189
5cc4969c3b1b1c0018f9da36	DL_test	24	ba	ta	1	right	ta	1	1235
5cc4969c3b1b1c0018f9da36	DL_test	25	da	pa	1	right	pa	1	1631
5cc4969c3b1b1c0018f9da36	DL_test	26	ba	ba	0	left	ba	1	1772
5cc4969c3b1b1c0018f9da36	DL_test	27	ga	ta	1	other	ka	0	1483
5cc4969c3b1b1c0018f9da36	DL_test	28	da	ka	1	other	pa	0	1269
5cc4969c3b1b1c0018f9da36	DL_test	29	ga	ba	1	left	ga	1	1448
5cc4969c3b1b1c0018f9da36	DL_test	30	pa	da	1	left	pa	1	1460
5cc4969c3b1b1c0018f9da36	DL_test	31	da	da	0	left	da	1	1086
5cc4969c3b1b1c0018f9da36	DL_test	32	ga	pa	1	right	pa	1	1184
5cc4969c3b1b1c0018f9da36	DL_test	33	pa	ga	1	left	pa	1	1670
5cc4969c3b1b1c0018f9da36	DL_test	34	ga	da	1	right	da	1	1265
5cc4969c3b1b1c0018f9da36	DL_test	35	da	ta	1	right	ta	1	1364
5cc4969c3b1b1c0018f9da36	DL_test	36	ba	ga	1	left	ba	1	1091
5cc4969c3b1b1c0018f9da36	DL_test	1	ba	da	1	other	ka	0	1355
5cc4969c3b1b1c0018f9da36	DL_test	2	pa	ta	1	right	ta	1	1227
5cc4969c3b1b1c0018f9da36	DL_test	3	pa	pa	0	left	pa	1	1216
5cc4969c3b1b1c0018f9da36	DL_test	4	ba	ga	1	right	ga	1	870
5cc4969c3b1b1c0018f9da36	DL_test	5	da	ba	1	left	da	1	834
5cc4969c3b1b1c0018f9da36	DL_test	6	pa	ba	1	left	pa	1	951
5cc4969c3b1b1c0018f9da36	DL_test	7	ta	da	1	left	ta	1	1328
5cc4969c3b1b1c0018f9da36	DL_test	8	ta	ta	0	left	ta	1	985
5cc4969c3b1b1c0018f9da36	DL_test	9	ka	da	1	left	ka	1	799
5cc4969c3b1b1c0018f9da36	DL_test	10	ta	ba	1	left	ta	1	1230
5cc4969c3b1b1c0018f9da36	DL_test	11	ga	ta	1	other	ka	0	1102
5cc4969c3b1b1c0018f9da36	DL_test	12	da	da	0	left	da	1	790
5cc4969c3b1b1c0018f9da36	DL_test	13	ba	ka	1	right	ka	1	908
5cc4969c3b1b1c0018f9da36	DL_test	14	ga	ka	1	right	ka	1	1022
5cc4969c3b1b1c0018f9da36	DL_test	15	pa	da	1	left	pa	1	755
5cc4969c3b1b1c0018f9da36	DL_test	16	ta	ka	1	left	ta	1	1044
5cc4969c3b1b1c0018f9da36	DL_test	17	ka	ba	1	left	ka	1	1080
5cc4969c3b1b1c0018f9da36	DL_test	18	pa	ga	1	left	pa	1	1140
5cc4969c3b1b1c0018f9da36	DL_test	19	ga	ba	1	other	ka	0	1325
5cc4969c3b1b1c0018f9da36	DL_test	20	ta	pa	1	left	ta	1	1030
5cc4969c3b1b1c0018f9da36	DL_test	21	pa	ka	1	left	pa	1	1244
5cc4969c3b1b1c0018f9da36	DL_test	22	ka	pa	1	right	pa	1	1137
5cc4969c3b1b1c0018f9da36	DL_test	23	ga	pa	1	other	ta	0	1706
5cc4969c3b1b1c0018f9da36	DL_test	24	ka	ka	0	left	ka	1	1275
5cc4969c3b1b1c0018f9da36	DL_test	25	da	pa	1	right	pa	1	1199
5cc4969c3b1b1c0018f9da36	DL_test	26	ka	ta	1	left	ka	1	933
5cc4969c3b1b1c0018f9da36	DL_test	27	ba	ta	1	right	ta	1	958
5cc4969c3b1b1c0018f9da36	DL_test	28	ka	ga	1	left	ka	1	1190
5cc4969c3b1b1c0018f9da36	DL_test	29	ba	pa	1	right	pa	1	1461
5cc4969c3b1b1c0018f9da36	DL_test	30	ba	ba	0	left	ba	1	1097
5cc4969c3b1b1c0018f9da36	DL_test	31	da	ka	1	left	da	1	1883
5cc4969c3b1b1c0018f9da36	DL_test	32	da	ta	1	right	ta	1	1038
5cc4969c3b1b1c0018f9da36	DL_test	33	ga	da	1	right	da	1	2843
5cc4969c3b1b1c0018f9da36	DL_test	34	da	ga	1	right	ga	1	1984
5cc4969c3b1b1c0018f9da36	DL_test	35	ga	ga	0	left	ga	1	2006
5cc4969c3b1b1c0018f9da36	DL_test	36	ta	ga	1	other	ka	0	1524
5cc4969c3b1b1c0018f9da36	DL_test	1	da	ta	1	right	ta	1	770
5cc4969c3b1b1c0018f9da36	DL_test	2	ba	ta	1	other	ka	0	610
5cc4969c3b1b1c0018f9da36	DL_test	3	ba	ba	0	left	ba	1	672
5cc4969c3b1b1c0018f9da36	DL_test	4	ka	ta	1	left	ka	1	627
5cc4969c3b1b1c0018f9da36	DL_test	5	da	pa	1	right	pa	1	584
5cc4969c3b1b1c0018f9da36	DL_test	6	pa	pa	0	left	pa	1	1271
5cc4969c3b1b1c0018f9da36	DL_test	7	pa	da	1	other	ta	0	1291
5cc4969c3b1b1c0018f9da36	DL_test	8	ga	ga	0	left	ga	1	1070
5cc4969c3b1b1c0018f9da36	DL_test	9	ka	da	1	left	ka	1	1002
5cc4969c3b1b1c0018f9da36	DL_test	10	da	ka	1	other	pa	0	784
5cc4969c3b1b1c0018f9da36	DL_test	11	ka	ka	0	left	ka	1	1112
5cc4969c3b1b1c0018f9da36	DL_test	12	ta	ka	1	left	ta	1	2453
5cc4969c3b1b1c0018f9da36	DL_test	13	da	da	0	left	da	1	1002
5cc4969c3b1b1c0018f9da36	DL_test	14	pa	ba	1	left	pa	1	992
5cc4969c3b1b1c0018f9da36	DL_test	15	da	ba	1	right	ba	1	966
5cc4969c3b1b1c0018f9da36	DL_test	16	ba	da	1	other	pa	0	1366
5cc4969c3b1b1c0018f9da36	DL_test	17	pa	ka	1	right	ka	1	1478
5cc4969c3b1b1c0018f9da36	DL_test	18	ta	pa	1	left	ta	1	1297
5cc4969c3b1b1c0018f9da36	DL_test	19	ta	ta	0	left	ta	1	1218
5cc4969c3b1b1c0018f9da36	DL_test	20	ga	pa	1	right	pa	1	1751
5cc4969c3b1b1c0018f9da36	DL_test	21	ba	pa	1	right	pa	1	944
5cc4969c3b1b1c0018f9da36	DL_test	22	ga	ta	1	other	ka	0	1152
5cc4969c3b1b1c0018f9da36	DL_test	23	ga	ka	1	right	ka	1	1536
5cc4969c3b1b1c0018f9da36	DL_test	24	ka	pa	1	left	ka	1	1712
5cc4969c3b1b1c0018f9da36	DL_test	25	ba	ka	1	right	ka	1	1155
5cc4969c3b1b1c0018f9da36	DL_test	26	ka	ga	1	left	ka	1	1650
5cc4969c3b1b1c0018f9da36	DL_test	27	ta	ba	1	left	ta	1	2563
5cc4969c3b1b1c0018f9da36	DL_test	28	ta	ga	1	other	da	0	2749
5cc4969c3b1b1c0018f9da36	DL_test	29	ba	ga	1	left	ba	1	2181
5cc4969c3b1b1c0018f9da36	DL_test	30	ga	da	1	right	da	1	1724
5cc4969c3b1b1c0018f9da36	DL_test	31	ta	da	1	left	ta	1	1350
5cc4969c3b1b1c0018f9da36	DL_test	32	da	ga	1	other	ta	0	2374
5cc4969c3b1b1c0018f9da36	DL_test	33	pa	ga	1	left	pa	1	1566
5cc4969c3b1b1c0018f9da36	DL_test	34	ka	ba	1	other	pa	0	1628
5cc4969c3b1b1c0018f9da36	DL_test	35	pa	ta	1	right	ta	1	1465
5cc4969c3b1b1c0018f9da36	DL_test	36	ga	ba	1	right	ba	1	1653
5cc4969c3b1b1c0018f9da36	DL_test	1	pa	pa	0	left	pa	1	1100
5cc4969c3b1b1c0018f9da36	DL_test	2	pa	ta	1	other	ka	0	822
5cc4969c3b1b1c0018f9da36	DL_test	3	pa	da	1	left	pa	1	1359
5cc4969c3b1b1c0018f9da36	DL_test	4	ga	ba	1	left	ga	1	1404
5cc4969c3b1b1c0018f9da36	DL_test	5	ta	ga	1	other	ka	0	1136
5cc4969c3b1b1c0018f9da36	DL_test	6	ga	pa	1	other	ka	0	1268
5cc4969c3b1b1c0018f9da36	DL_test	7	ka	ba	1	left	ka	1	961
5cc4969c3b1b1c0018f9da36	DL_test	8	ba	ta	1	right	ta	1	921
5cc4969c3b1b1c0018f9da36	DL_test	9	ta	pa	1	left	ta	1	1298
5cc4969c3b1b1c0018f9da36	DL_test	10	ka	da	1	left	ka	1	1013
5cc4969c3b1b1c0018f9da36	DL_test	11	da	pa	1	right	pa	1	1019
5cc4969c3b1b1c0018f9da36	DL_test	12	ka	ga	1	left	ka	1	1198
5cc4969c3b1b1c0018f9da36	DL_test	13	ta	ka	1	left	ta	1	1101
5cc4969c3b1b1c0018f9da36	DL_test	14	da	ga	1	left	da	1	833
5cc4969c3b1b1c0018f9da36	DL_test	15	ga	ta	1	other	ka	0	1012
5cc4969c3b1b1c0018f9da36	DL_test	16	da	ba	1	left	da	1	776
5cc4969c3b1b1c0018f9da36	DL_test	17	pa	ga	1	left	pa	1	1535
5cc4969c3b1b1c0018f9da36	DL_test	18	ta	da	1	other	ka	0	1223
5cc4969c3b1b1c0018f9da36	DL_test	19	ga	ka	1	right	ka	1	882
5cc4969c3b1b1c0018f9da36	DL_test	20	da	ka	1	other	pa	0	1187
5cc4969c3b1b1c0018f9da36	DL_test	21	pa	ba	1	left	pa	1	1012
5cc4969c3b1b1c0018f9da36	DL_test	22	da	ta	1	right	ta	1	1346
5cc4969c3b1b1c0018f9da36	DL_test	23	ba	pa	1	right	pa	1	784
5cc4969c3b1b1c0018f9da36	DL_test	24	pa	ka	1	left	pa	1	1052
5cc4969c3b1b1c0018f9da36	DL_test	25	da	da	0	left	da	1	753
5cc4969c3b1b1c0018f9da36	DL_test	26	ka	ka	0	left	ka	1	993
5cc4969c3b1b1c0018f9da36	DL_test	27	ka	pa	1	right	pa	1	912
5cc4969c3b1b1c0018f9da36	DL_test	28	ga	da	1	right	da	1	1130
5cc4969c3b1b1c0018f9da36	DL_test	29	ta	ba	1	left	ta	1	1091
5cc4969c3b1b1c0018f9da36	DL_test	30	ga	ga	0	other	da	0	1132
5cc4969c3b1b1c0018f9da36	DL_test	31	ka	ta	1	left	ka	1	1205
5cc4969c3b1b1c0018f9da36	DL_test	32	ba	ga	1	other	da	0	980
5cc4969c3b1b1c0018f9da36	DL_test	33	ba	da	1	left	ba	1	1050
5cc4969c3b1b1c0018f9da36	DL_test	34	ba	ba	0	left	ba	1	1247
5cc4969c3b1b1c0018f9da36	DL_test	35	ba	ka	1	right	ka	1	2068
5cc4969c3b1b1c0018f9da36	DL_test	36	ta	ta	0	left	ta	1	1140
