subject	block	trialnum	DL_leftSound	DL_rightSound	DL_dualSound	DL_choice	response	correct	rt
5d278e6a6f7c660019b56196	headphonecheck_testphase	3	NA	NA	0	NA	first	0	5635
5d278e6a6f7c660019b56196	headphonecheck_testphase	6	NA	NA	0	NA	second	1	1439
5d278e6a6f7c660019b56196	headphonecheck_testphase	9	NA	NA	0	NA	first	1	316
5d278e6a6f7c660019b56196	headphonecheck_testphase	12	NA	NA	0	NA	first	0	1754
5d278e6a6f7c660019b56196	headphonecheck_testphase	15	NA	NA	0	NA	first	0	2086
5d278e6a6f7c660019b56196	headphonecheck_testphase	18	NA	NA	0	NA	third	0	772
5d278e6a6f7c660019b56196	stereocheck_testphase	3	NA	NA	0	NA	stereocheck_right	1	802
5d278e6a6f7c660019b56196	stereocheck_testphase	6	NA	NA	0	NA	stereocheck_left	1	588
5d278e6a6f7c660019b56196	stereocheck_testphase	9	NA	NA	0	NA	stereocheck_left	1	321
5d278e6a6f7c660019b56196	stereocheck_testphase	12	NA	NA	0	NA	stereocheck_left	1	374
5d278e6a6f7c660019b56196	stereocheck_testphase	15	NA	NA	0	NA	stereocheck_right	1	493
5d278e6a6f7c660019b56196	stereocheck_testphase	18	NA	NA	0	NA	stereocheck_right	1	544
5d278e6a6f7c660019b56196	DL_practice	2	ga	ta	1	other	ka	0	1778
5d278e6a6f7c660019b56196	DL_practice	3	ga	ga	0	left	ga	1	1358
5d278e6a6f7c660019b56196	DL_practice	4	ta	ta	0	left	ta	1	1636
5d278e6a6f7c660019b56196	DL_practice	5	ka	pa	1	left	ka	1	1498
5d278e6a6f7c660019b56196	DL_practice	6	ba	ba	0	left	ba	1	1664
5d278e6a6f7c660019b56196	DL_practice	7	pa	pa	0	left	pa	1	1300
5d278e6a6f7c660019b56196	DL_practice	8	da	ba	1	right	ba	1	1323
5d278e6a6f7c660019b56196	DL_practice	9	da	da	0	left	da	1	1161
5d278e6a6f7c660019b56196	DL_practice	10	ka	ka	0	left	ka	1	1143
5d278e6a6f7c660019b56196	DL_test	1	pa	ta	1	left	pa	1	1802
5d278e6a6f7c660019b56196	DL_test	2	da	pa	1	other	ta	0	1525
5d278e6a6f7c660019b56196	DL_test	3	ta	ba	1	right	ba	1	2371
5d278e6a6f7c660019b56196	DL_test	4	ka	pa	1	left	ka	1	1159
5d278e6a6f7c660019b56196	DL_test	5	pa	pa	0	left	pa	1	1562
5d278e6a6f7c660019b56196	DL_test	6	ga	ka	1	right	ka	1	790
5d278e6a6f7c660019b56196	DL_test	7	ka	ga	1	right	ga	1	1038
5d278e6a6f7c660019b56196	DL_test	8	ba	ba	0	left	ba	1	2242
5d278e6a6f7c660019b56196	DL_test	9	ba	ka	1	right	ka	1	3195
5d278e6a6f7c660019b56196	DL_test	10	ga	ba	1	right	ba	1	1422
5d278e6a6f7c660019b56196	DL_test	11	pa	ba	1	right	ba	1	726
5d278e6a6f7c660019b56196	DL_test	12	ba	da	1	right	da	1	1044
5d278e6a6f7c660019b56196	DL_test	13	ta	ka	1	right	ka	1	1075
5d278e6a6f7c660019b56196	DL_test	14	ga	ga	0	left	ga	1	943
5d278e6a6f7c660019b56196	DL_test	15	ta	ta	0	left	ta	1	1371
5d278e6a6f7c660019b56196	DL_test	16	ka	da	1	right	da	1	1026
5d278e6a6f7c660019b56196	DL_test	17	da	ka	1	other	ta	0	1123
5d278e6a6f7c660019b56196	DL_test	18	pa	da	1	right	da	1	1131
5d278e6a6f7c660019b56196	DL_test	19	ga	ta	1	other	ka	0	951
5d278e6a6f7c660019b56196	DL_test	20	pa	ga	1	right	ga	1	1032
5d278e6a6f7c660019b56196	DL_test	21	pa	ka	1	right	ka	1	1019
5d278e6a6f7c660019b56196	DL_test	22	ba	ta	1	right	ta	1	1240
5d278e6a6f7c660019b56196	DL_test	23	ta	da	1	right	da	1	1020
5d278e6a6f7c660019b56196	DL_test	24	ka	ta	1	left	ka	1	1879
5d278e6a6f7c660019b56196	DL_test	25	da	ta	1	right	ta	1	1881
5d278e6a6f7c660019b56196	DL_test	26	da	da	0	left	da	1	1198
5d278e6a6f7c660019b56196	DL_test	27	ka	ka	0	left	ka	1	1036
5d278e6a6f7c660019b56196	DL_test	28	ga	pa	1	left	ga	1	1542
5d278e6a6f7c660019b56196	DL_test	29	ta	ga	1	right	ga	1	758
5d278e6a6f7c660019b56196	DL_test	30	ta	pa	1	right	pa	1	1673
5d278e6a6f7c660019b56196	DL_test	31	ba	pa	1	right	pa	1	799
5d278e6a6f7c660019b56196	DL_test	32	ka	ba	1	right	ba	1	1207
5d278e6a6f7c660019b56196	DL_test	33	ba	ga	1	right	ga	1	836
5d278e6a6f7c660019b56196	DL_test	34	ga	da	1	right	da	1	1174
5d278e6a6f7c660019b56196	DL_test	35	da	ga	1	right	ga	1	986
5d278e6a6f7c660019b56196	DL_test	36	da	ba	1	left	da	1	1047
5d278e6a6f7c660019b56196	DL_test	1	pa	da	1	right	da	1	994
5d278e6a6f7c660019b56196	DL_test	2	ba	da	1	right	da	1	722
5d278e6a6f7c660019b56196	DL_test	3	ga	ba	1	left	ga	1	1688
5d278e6a6f7c660019b56196	DL_test	4	da	pa	1	other	ta	0	1152
5d278e6a6f7c660019b56196	DL_test	5	pa	ba	1	right	ba	1	1024
5d278e6a6f7c660019b56196	DL_test	6	pa	ta	1	right	ta	1	1234
5d278e6a6f7c660019b56196	DL_test	7	ka	pa	1	left	ka	1	997
5d278e6a6f7c660019b56196	DL_test	8	ta	pa	1	left	ta	1	1130
5d278e6a6f7c660019b56196	DL_test	9	ka	ga	1	right	ga	1	748
5d278e6a6f7c660019b56196	DL_test	10	ba	ta	1	right	ta	1	1255
5d278e6a6f7c660019b56196	DL_test	11	pa	ga	1	right	ga	1	951
5d278e6a6f7c660019b56196	DL_test	12	ta	ba	1	right	ba	1	1630
5d278e6a6f7c660019b56196	DL_test	13	pa	pa	0	left	pa	1	1322
5d278e6a6f7c660019b56196	DL_test	14	ta	da	1	right	da	1	952
5d278e6a6f7c660019b56196	DL_test	15	ga	ga	0	left	ga	1	934
5d278e6a6f7c660019b56196	DL_test	16	da	ga	1	right	ga	1	747
5d278e6a6f7c660019b56196	DL_test	17	ta	ga	1	right	ga	1	606
5d278e6a6f7c660019b56196	DL_test	18	ka	ta	1	right	ta	1	1149
5d278e6a6f7c660019b56196	DL_test	19	ga	ta	1	other	ka	0	1139
5d278e6a6f7c660019b56196	DL_test	20	ta	ta	0	left	ta	1	1368
5d278e6a6f7c660019b56196	DL_test	21	ba	pa	1	right	pa	1	1547
5d278e6a6f7c660019b56196	DL_test	22	ka	ka	0	left	ka	1	1076
5d278e6a6f7c660019b56196	DL_test	23	ba	ga	1	right	ga	1	1555
5d278e6a6f7c660019b56196	DL_test	24	pa	ka	1	right	ka	1	1010
5d278e6a6f7c660019b56196	DL_test	25	ga	da	1	right	da	1	989
5d278e6a6f7c660019b56196	DL_test	26	da	da	0	left	da	1	732
5d278e6a6f7c660019b56196	DL_test	27	ka	ba	1	other	ta	0	1381
5d278e6a6f7c660019b56196	DL_test	28	da	ka	1	other	ta	0	1186
5d278e6a6f7c660019b56196	DL_test	29	ga	ka	1	right	ka	1	834
5d278e6a6f7c660019b56196	DL_test	30	ga	pa	1	other	ka	0	1168
5d278e6a6f7c660019b56196	DL_test	31	ba	ka	1	right	ka	1	944
5d278e6a6f7c660019b56196	DL_test	32	da	ta	1	right	ta	1	1242
5d278e6a6f7c660019b56196	DL_test	33	ka	da	1	right	da	1	1109
5d278e6a6f7c660019b56196	DL_test	34	ta	ka	1	right	ka	1	1448
5d278e6a6f7c660019b56196	DL_test	35	da	ba	1	left	da	1	1670
5d278e6a6f7c660019b56196	DL_test	36	ba	ba	0	other	pa	0	1031
5d278e6a6f7c660019b56196	DL_test	1	da	ta	1	right	ta	1	1169
5d278e6a6f7c660019b56196	DL_test	2	ka	pa	1	left	ka	1	838
5d278e6a6f7c660019b56196	DL_test	3	ba	ba	0	left	ba	1	1194
5d278e6a6f7c660019b56196	DL_test	4	ka	da	1	other	ga	0	1157
5d278e6a6f7c660019b56196	DL_test	5	pa	ka	1	right	ka	1	1076
5d278e6a6f7c660019b56196	DL_test	6	ta	da	1	right	da	1	888
5d278e6a6f7c660019b56196	DL_test	7	ta	ba	1	other	pa	0	1065
5d278e6a6f7c660019b56196	DL_test	8	ba	ta	1	right	ta	1	1202
5d278e6a6f7c660019b56196	DL_test	9	da	da	0	left	da	1	976
5d278e6a6f7c660019b56196	DL_test	10	ta	ga	1	right	ga	1	751
5d278e6a6f7c660019b56196	DL_test	11	pa	da	1	right	da	1	1113
5d278e6a6f7c660019b56196	DL_test	12	ga	da	1	right	da	1	677
5d278e6a6f7c660019b56196	DL_test	13	ka	ba	1	other	pa	0	1361
5d278e6a6f7c660019b56196	DL_test	14	ba	pa	1	other	da	0	1220
5d278e6a6f7c660019b56196	DL_test	15	ka	ta	1	left	ka	1	993
5d278e6a6f7c660019b56196	DL_test	16	ka	ka	0	left	ka	1	1058
5d278e6a6f7c660019b56196	DL_test	17	ga	ba	1	right	ba	1	1154
5d278e6a6f7c660019b56196	DL_test	18	ta	ka	1	right	ka	1	941
5d278e6a6f7c660019b56196	DL_test	19	ga	ka	1	left	ga	1	911
5d278e6a6f7c660019b56196	DL_test	20	ga	ta	1	left	ga	1	1374
5d278e6a6f7c660019b56196	DL_test	21	ba	ka	1	other	ga	0	773
5d278e6a6f7c660019b56196	DL_test	22	da	pa	1	other	ga	0	1184
5d278e6a6f7c660019b56196	DL_test	23	pa	ga	1	right	ga	1	895
5d278e6a6f7c660019b56196	DL_test	24	pa	pa	0	left	pa	1	1101
5d278e6a6f7c660019b56196	DL_test	25	ga	pa	1	right	pa	1	864
5d278e6a6f7c660019b56196	DL_test	26	ka	ga	1	right	ga	1	931
5d278e6a6f7c660019b56196	DL_test	27	pa	ba	1	left	pa	1	1235
5d278e6a6f7c660019b56196	DL_test	28	ga	ga	0	left	ga	1	1233
5d278e6a6f7c660019b56196	DL_test	29	ba	ga	1	right	ga	1	638
5d278e6a6f7c660019b56196	DL_test	30	da	ga	1	right	ga	1	591
5d278e6a6f7c660019b56196	DL_test	31	ta	ta	0	left	ta	1	1508
5d278e6a6f7c660019b56196	DL_test	32	ba	da	1	right	da	1	1043
5d278e6a6f7c660019b56196	DL_test	33	da	ka	1	other	ta	0	2112
5d278e6a6f7c660019b56196	DL_test	34	ta	pa	1	right	pa	1	751
5d278e6a6f7c660019b56196	DL_test	35	da	ba	1	right	ba	1	1482
5d278e6a6f7c660019b56196	DL_test	36	pa	ta	1	other	ba	0	1066
5d278e6a6f7c660019b56196	DL_test	1	ba	da	1	right	da	1	926
5d278e6a6f7c660019b56196	DL_test	2	ka	ba	1	other	pa	0	1385
5d278e6a6f7c660019b56196	DL_test	3	ga	ba	1	other	pa	0	762
5d278e6a6f7c660019b56196	DL_test	4	da	pa	1	other	ta	0	1325
5d278e6a6f7c660019b56196	DL_test	5	ga	ta	1	left	ga	1	1640
5d278e6a6f7c660019b56196	DL_test	6	ka	ka	0	left	ka	1	1108
5d278e6a6f7c660019b56196	DL_test	7	ba	ka	1	right	ka	1	725
5d278e6a6f7c660019b56196	DL_test	8	ba	ba	0	left	ba	1	1158
5d278e6a6f7c660019b56196	DL_test	9	ta	ka	1	right	ka	1	1124
5d278e6a6f7c660019b56196	DL_test	10	ta	pa	1	left	ta	1	1216
5d278e6a6f7c660019b56196	DL_test	11	ta	ba	1	right	ba	1	1140
5d278e6a6f7c660019b56196	DL_test	12	ta	da	1	right	da	1	866
5d278e6a6f7c660019b56196	DL_test	13	ta	ga	1	right	ga	1	733
5d278e6a6f7c660019b56196	DL_test	14	ba	ta	1	right	ta	1	1411
5d278e6a6f7c660019b56196	DL_test	15	pa	ka	1	right	ka	1	1042
5d278e6a6f7c660019b56196	DL_test	16	da	ka	1	other	ta	0	1666
5d278e6a6f7c660019b56196	DL_test	17	da	ta	1	right	ta	1	910
5d278e6a6f7c660019b56196	DL_test	18	pa	pa	0	left	pa	1	1365
5d278e6a6f7c660019b56196	DL_test	19	da	ga	1	right	ga	1	952
5d278e6a6f7c660019b56196	DL_test	20	ga	ka	1	right	ka	1	1335
5d278e6a6f7c660019b56196	DL_test	21	da	da	0	left	da	1	1220
5d278e6a6f7c660019b56196	DL_test	22	ka	pa	1	other	ta	0	1261
5d278e6a6f7c660019b56196	DL_test	23	ba	ga	1	right	ga	1	871
5d278e6a6f7c660019b56196	DL_test	24	ga	da	1	left	ga	1	3128
5d278e6a6f7c660019b56196	DL_test	25	pa	ba	1	other	da	0	1151
5d278e6a6f7c660019b56196	DL_test	26	ka	da	1	other	ga	0	991
5d278e6a6f7c660019b56196	DL_test	27	ba	pa	1	right	pa	1	1536
5d278e6a6f7c660019b56196	DL_test	28	ga	ga	0	left	ga	1	848
5d278e6a6f7c660019b56196	DL_test	29	ka	ta	1	left	ka	1	1304
5d278e6a6f7c660019b56196	DL_test	30	ta	ta	0	left	ta	1	1399
5d278e6a6f7c660019b56196	DL_test	31	pa	ta	1	right	ta	1	803
5d278e6a6f7c660019b56196	DL_test	32	pa	ga	1	right	ga	1	997
5d278e6a6f7c660019b56196	DL_test	33	pa	da	1	right	da	1	1038
5d278e6a6f7c660019b56196	DL_test	34	ka	ga	1	right	ga	1	847
5d278e6a6f7c660019b56196	DL_test	35	ga	pa	1	other	ka	0	1657
5d278e6a6f7c660019b56196	DL_test	36	da	ba	1	right	ba	1	1542
