subject	block	trialnum	DL_leftSound	DL_rightSound	DL_dualSound	DL_choice	response	correct	rt
5eb1d84a32ae1d128f1fc7ba	headphonecheck_testphase	3	NA	NA	0	NA	second	1	7188
5eb1d84a32ae1d128f1fc7ba	headphonecheck_testphase	6	NA	NA	0	NA	second	1	9245
5eb1d84a32ae1d128f1fc7ba	headphonecheck_testphase	9	NA	NA	0	NA	first	1	910
5eb1d84a32ae1d128f1fc7ba	headphonecheck_testphase	12	NA	NA	0	NA	third	1	505
5eb1d84a32ae1d128f1fc7ba	headphonecheck_testphase	15	NA	NA	0	NA	third	1	496
5eb1d84a32ae1d128f1fc7ba	headphonecheck_testphase	18	NA	NA	0	NA	first	1	529
5eb1d84a32ae1d128f1fc7ba	stereocheck_testphase	3	NA	NA	0	NA	stereocheck_left	1	481
5eb1d84a32ae1d128f1fc7ba	stereocheck_testphase	6	NA	NA	0	NA	stereocheck_right	1	408
5eb1d84a32ae1d128f1fc7ba	stereocheck_testphase	9	NA	NA	0	NA	stereocheck_left	1	460
5eb1d84a32ae1d128f1fc7ba	stereocheck_testphase	12	NA	NA	0	NA	stereocheck_right	1	903
5eb1d84a32ae1d128f1fc7ba	stereocheck_testphase	15	NA	NA	0	NA	stereocheck_left	1	413
5eb1d84a32ae1d128f1fc7ba	stereocheck_testphase	18	NA	NA	0	NA	stereocheck_right	1	469
5eb1d84a32ae1d128f1fc7ba	DL_practice	2	pa	pa	0	left	pa	1	2343
5eb1d84a32ae1d128f1fc7ba	DL_practice	3	ba	ba	0	left	ba	1	1665
5eb1d84a32ae1d128f1fc7ba	DL_practice	4	da	ba	1	right	ba	1	3141
5eb1d84a32ae1d128f1fc7ba	DL_practice	5	ka	ka	0	left	ka	1	1659
5eb1d84a32ae1d128f1fc7ba	DL_practice	6	da	da	0	left	da	1	1109
5eb1d84a32ae1d128f1fc7ba	DL_practice	7	ga	ta	1	other	ka	0	1888
5eb1d84a32ae1d128f1fc7ba	DL_practice	8	ga	ga	0	other	ka	0	3997
5eb1d84a32ae1d128f1fc7ba	DL_practice	9	ka	pa	1	right	pa	1	3108
5eb1d84a32ae1d128f1fc7ba	DL_practice	10	ta	ta	0	left	ta	1	1604
5eb1d84a32ae1d128f1fc7ba	DL_test	1	pa	da	1	left	pa	1	2752
5eb1d84a32ae1d128f1fc7ba	DL_test	2	pa	ta	1	left	pa	1	3987
5eb1d84a32ae1d128f1fc7ba	DL_test	3	ga	ka	1	right	ka	1	3154
5eb1d84a32ae1d128f1fc7ba	DL_test	4	ga	ba	1	right	ba	1	2009
5eb1d84a32ae1d128f1fc7ba	DL_test	5	ba	ta	1	other	ka	0	6151
5eb1d84a32ae1d128f1fc7ba	DL_test	6	ga	da	1	left	ga	1	895
5eb1d84a32ae1d128f1fc7ba	DL_test	7	da	pa	1	right	pa	1	3350
5eb1d84a32ae1d128f1fc7ba	DL_test	8	ka	ga	1	left	ka	1	3292
5eb1d84a32ae1d128f1fc7ba	DL_test	9	ta	ka	1	right	ka	1	2991
5eb1d84a32ae1d128f1fc7ba	DL_test	10	ba	da	1	left	ba	1	5439
5eb1d84a32ae1d128f1fc7ba	DL_test	11	ka	ba	1	left	ka	1	3810
5eb1d84a32ae1d128f1fc7ba	DL_test	12	da	ka	1	other	pa	0	2630
5eb1d84a32ae1d128f1fc7ba	DL_test	13	da	ga	1	right	ga	1	1071
5eb1d84a32ae1d128f1fc7ba	DL_test	14	ga	ta	1	other	ka	0	2123
5eb1d84a32ae1d128f1fc7ba	DL_test	15	da	ba	1	right	ba	1	1558
5eb1d84a32ae1d128f1fc7ba	DL_test	16	da	da	0	left	da	1	2217
5eb1d84a32ae1d128f1fc7ba	DL_test	17	ta	ga	1	other	ka	0	4730
5eb1d84a32ae1d128f1fc7ba	DL_test	18	da	ta	1	right	ta	1	1274
5eb1d84a32ae1d128f1fc7ba	DL_test	19	ka	da	1	left	ka	1	3164
5eb1d84a32ae1d128f1fc7ba	DL_test	20	pa	ga	1	left	pa	1	2205
5eb1d84a32ae1d128f1fc7ba	DL_test	21	ta	ba	1	other	pa	0	3485
5eb1d84a32ae1d128f1fc7ba	DL_test	22	ta	ta	0	left	ta	1	1583
5eb1d84a32ae1d128f1fc7ba	DL_test	23	ka	ka	0	left	ka	1	2264
5eb1d84a32ae1d128f1fc7ba	DL_test	24	ba	pa	1	right	pa	1	2769
5eb1d84a32ae1d128f1fc7ba	DL_test	25	ga	pa	1	right	pa	1	3325
5eb1d84a32ae1d128f1fc7ba	DL_test	26	ba	ga	1	right	ga	1	3329
5eb1d84a32ae1d128f1fc7ba	DL_test	27	ta	da	1	other	pa	0	3619
5eb1d84a32ae1d128f1fc7ba	DL_test	28	ka	ta	1	left	ka	1	1667
5eb1d84a32ae1d128f1fc7ba	DL_test	29	ba	ba	0	left	ba	1	2232
5eb1d84a32ae1d128f1fc7ba	DL_test	30	pa	pa	0	other	ba	0	2149
5eb1d84a32ae1d128f1fc7ba	DL_test	31	ka	pa	1	other	ga	0	3142
5eb1d84a32ae1d128f1fc7ba	DL_test	32	ba	ka	1	right	ka	1	1093
5eb1d84a32ae1d128f1fc7ba	DL_test	33	ga	ga	0	left	ga	1	1130
5eb1d84a32ae1d128f1fc7ba	DL_test	34	pa	ka	1	right	ka	1	2295
5eb1d84a32ae1d128f1fc7ba	DL_test	35	pa	ba	1	left	pa	1	1380
5eb1d84a32ae1d128f1fc7ba	DL_test	36	ta	pa	1	right	pa	1	2262
5eb1d84a32ae1d128f1fc7ba	DL_test	1	da	ga	1	right	ga	1	1344
5eb1d84a32ae1d128f1fc7ba	DL_test	2	ba	da	1	right	da	1	1061
5eb1d84a32ae1d128f1fc7ba	DL_test	3	ta	da	1	other	ka	0	2484
5eb1d84a32ae1d128f1fc7ba	DL_test	4	ga	pa	1	right	pa	1	1118
5eb1d84a32ae1d128f1fc7ba	DL_test	5	ba	pa	1	right	pa	1	1189
5eb1d84a32ae1d128f1fc7ba	DL_test	6	ta	ba	1	other	ka	0	1169
5eb1d84a32ae1d128f1fc7ba	DL_test	7	ba	ba	0	left	ba	1	1170
5eb1d84a32ae1d128f1fc7ba	DL_test	8	ta	pa	1	left	ta	1	1628
5eb1d84a32ae1d128f1fc7ba	DL_test	9	ba	ga	1	other	pa	0	2036
5eb1d84a32ae1d128f1fc7ba	DL_test	10	ka	ba	1	left	ka	1	1055
5eb1d84a32ae1d128f1fc7ba	DL_test	11	ga	ga	0	left	ga	1	872
5eb1d84a32ae1d128f1fc7ba	DL_test	12	ka	ta	1	left	ka	1	989
5eb1d84a32ae1d128f1fc7ba	DL_test	13	pa	ga	1	left	pa	1	1094
5eb1d84a32ae1d128f1fc7ba	DL_test	14	da	ka	1	other	pa	0	1924
5eb1d84a32ae1d128f1fc7ba	DL_test	15	ga	ka	1	right	ka	1	1653
5eb1d84a32ae1d128f1fc7ba	DL_test	16	pa	ka	1	right	ka	1	924
5eb1d84a32ae1d128f1fc7ba	DL_test	17	ka	ga	1	left	ka	1	1678
5eb1d84a32ae1d128f1fc7ba	DL_test	18	ga	ba	1	other	pa	0	1381
5eb1d84a32ae1d128f1fc7ba	DL_test	19	ta	ka	1	other	ga	0	4847
5eb1d84a32ae1d128f1fc7ba	DL_test	20	ba	ka	1	right	ka	1	974
5eb1d84a32ae1d128f1fc7ba	DL_test	21	ga	da	1	right	da	1	1252
5eb1d84a32ae1d128f1fc7ba	DL_test	22	da	pa	1	right	pa	1	1980
5eb1d84a32ae1d128f1fc7ba	DL_test	23	pa	ta	1	right	ta	1	2433
5eb1d84a32ae1d128f1fc7ba	DL_test	24	ta	ta	0	other	ka	0	9116
5eb1d84a32ae1d128f1fc7ba	DL_test	25	pa	pa	0	left	pa	1	1163
5eb1d84a32ae1d128f1fc7ba	DL_test	26	da	ba	1	right	ba	1	1542
5eb1d84a32ae1d128f1fc7ba	DL_test	27	da	da	0	left	da	1	2169
5eb1d84a32ae1d128f1fc7ba	DL_test	28	pa	da	1	left	pa	1	1859
5eb1d84a32ae1d128f1fc7ba	DL_test	29	ka	pa	1	right	pa	1	1439
5eb1d84a32ae1d128f1fc7ba	DL_test	30	ta	ga	1	other	ka	0	1163
5eb1d84a32ae1d128f1fc7ba	DL_test	31	ka	ka	0	left	ka	1	2092
5eb1d84a32ae1d128f1fc7ba	DL_test	32	pa	ba	1	left	pa	1	1170
5eb1d84a32ae1d128f1fc7ba	DL_test	33	da	ta	1	right	ta	1	1556
5eb1d84a32ae1d128f1fc7ba	DL_test	34	ba	ta	1	other	ka	0	1358
5eb1d84a32ae1d128f1fc7ba	DL_test	35	ga	ta	1	left	ga	1	1542
5eb1d84a32ae1d128f1fc7ba	DL_test	36	ka	da	1	left	ka	1	952
5eb1d84a32ae1d128f1fc7ba	DL_test	1	pa	ga	1	left	pa	1	1252
5eb1d84a32ae1d128f1fc7ba	DL_test	2	pa	ta	1	right	ta	1	1571
5eb1d84a32ae1d128f1fc7ba	DL_test	3	ga	ga	0	left	ga	1	1108
5eb1d84a32ae1d128f1fc7ba	DL_test	4	ga	ba	1	right	ba	1	2766
5eb1d84a32ae1d128f1fc7ba	DL_test	5	ta	ta	0	left	ta	1	1666
5eb1d84a32ae1d128f1fc7ba	DL_test	6	ga	pa	1	other	ka	0	3734
5eb1d84a32ae1d128f1fc7ba	DL_test	7	ka	ka	0	left	ka	1	3485
5eb1d84a32ae1d128f1fc7ba	DL_test	8	da	da	0	left	da	1	1798
5eb1d84a32ae1d128f1fc7ba	DL_test	9	ta	da	1	right	da	1	1573
5eb1d84a32ae1d128f1fc7ba	DL_test	10	pa	pa	0	left	pa	1	15804
5eb1d84a32ae1d128f1fc7ba	DL_test	11	da	ta	1	right	ta	1	1342
5eb1d84a32ae1d128f1fc7ba	DL_test	12	ga	da	1	other	ka	0	6475
5eb1d84a32ae1d128f1fc7ba	DL_test	13	ta	ga	1	other	ka	0	1065
5eb1d84a32ae1d128f1fc7ba	DL_test	14	ka	da	1	left	ka	1	803
5eb1d84a32ae1d128f1fc7ba	DL_test	15	ta	ka	1	right	ka	1	909
5eb1d84a32ae1d128f1fc7ba	DL_test	16	ga	ta	1	right	ta	1	1281
5eb1d84a32ae1d128f1fc7ba	DL_test	17	ka	ta	1	right	ta	1	1252
5eb1d84a32ae1d128f1fc7ba	DL_test	18	ba	ta	1	other	ka	0	1650
5eb1d84a32ae1d128f1fc7ba	DL_test	19	ga	ka	1	right	ka	1	1164
5eb1d84a32ae1d128f1fc7ba	DL_test	20	ba	ka	1	right	ka	1	1141
5eb1d84a32ae1d128f1fc7ba	DL_test	21	ba	ba	0	other	pa	0	1075
5eb1d84a32ae1d128f1fc7ba	DL_test	22	da	ba	1	other	ga	0	3529
5eb1d84a32ae1d128f1fc7ba	DL_test	23	da	ga	1	left	da	1	1248
5eb1d84a32ae1d128f1fc7ba	DL_test	24	da	pa	1	right	pa	1	3351
5eb1d84a32ae1d128f1fc7ba	DL_test	25	da	ka	1	other	pa	0	2739
5eb1d84a32ae1d128f1fc7ba	DL_test	26	ka	pa	1	left	ka	1	3335
5eb1d84a32ae1d128f1fc7ba	DL_test	27	pa	da	1	left	pa	1	4605
5eb1d84a32ae1d128f1fc7ba	DL_test	28	pa	ba	1	left	pa	1	1268
5eb1d84a32ae1d128f1fc7ba	DL_test	29	ba	ga	1	right	ga	1	8118
5eb1d84a32ae1d128f1fc7ba	DL_test	30	ka	ba	1	left	ka	1	1431
5eb1d84a32ae1d128f1fc7ba	DL_test	31	ta	ba	1	other	ka	0	2367
5eb1d84a32ae1d128f1fc7ba	DL_test	32	ta	pa	1	left	ta	1	1336
5eb1d84a32ae1d128f1fc7ba	DL_test	33	pa	ka	1	right	ka	1	1342
5eb1d84a32ae1d128f1fc7ba	DL_test	34	ka	ga	1	right	ga	1	1457
5eb1d84a32ae1d128f1fc7ba	DL_test	35	ba	da	1	right	da	1	978
5eb1d84a32ae1d128f1fc7ba	DL_test	36	ba	pa	1	right	pa	1	1254
5eb1d84a32ae1d128f1fc7ba	DL_test	1	ga	ta	1	right	ta	1	1792
5eb1d84a32ae1d128f1fc7ba	DL_test	2	pa	ba	1	left	pa	1	3356
5eb1d84a32ae1d128f1fc7ba	DL_test	3	pa	pa	0	left	pa	1	2915
5eb1d84a32ae1d128f1fc7ba	DL_test	4	ka	ba	1	left	ka	1	1967
5eb1d84a32ae1d128f1fc7ba	DL_test	5	ta	ta	0	left	ta	1	1427
5eb1d84a32ae1d128f1fc7ba	DL_test	6	ta	ba	1	left	ta	1	1454
5eb1d84a32ae1d128f1fc7ba	DL_test	7	pa	ka	1	right	ka	1	959
5eb1d84a32ae1d128f1fc7ba	DL_test	8	ga	pa	1	other	ka	0	3393
5eb1d84a32ae1d128f1fc7ba	DL_test	9	da	ka	1	other	pa	0	1566
5eb1d84a32ae1d128f1fc7ba	DL_test	10	da	ta	1	other	ga	0	3375
5eb1d84a32ae1d128f1fc7ba	DL_test	11	ka	da	1	other	ga	0	1346
5eb1d84a32ae1d128f1fc7ba	DL_test	12	ka	ga	1	left	ka	1	1944
5eb1d84a32ae1d128f1fc7ba	DL_test	13	da	pa	1	right	pa	1	1029
5eb1d84a32ae1d128f1fc7ba	DL_test	14	ta	ka	1	right	ka	1	1225
5eb1d84a32ae1d128f1fc7ba	DL_test	15	ka	ka	0	left	ka	1	2252
5eb1d84a32ae1d128f1fc7ba	DL_test	16	pa	da	1	right	da	1	1976
5eb1d84a32ae1d128f1fc7ba	DL_test	17	da	ba	1	right	ba	1	1202
5eb1d84a32ae1d128f1fc7ba	DL_test	18	ba	da	1	right	da	1	1312
5eb1d84a32ae1d128f1fc7ba	DL_test	19	da	da	0	left	da	1	937
5eb1d84a32ae1d128f1fc7ba	DL_test	20	da	ga	1	right	ga	1	1095
5eb1d84a32ae1d128f1fc7ba	DL_test	21	ba	ba	0	left	ba	1	1887
5eb1d84a32ae1d128f1fc7ba	DL_test	22	ta	da	1	left	ta	1	1447
5eb1d84a32ae1d128f1fc7ba	DL_test	23	pa	ta	1	right	ta	1	1933
5eb1d84a32ae1d128f1fc7ba	DL_test	24	ga	da	1	right	da	1	1140
5eb1d84a32ae1d128f1fc7ba	DL_test	25	ka	ta	1	left	ka	1	1249
5eb1d84a32ae1d128f1fc7ba	DL_test	26	ta	pa	1	left	ta	1	1400
5eb1d84a32ae1d128f1fc7ba	DL_test	27	ga	ka	1	right	ka	1	1437
5eb1d84a32ae1d128f1fc7ba	DL_test	28	ba	ta	1	right	ta	1	1271
5eb1d84a32ae1d128f1fc7ba	DL_test	29	ba	ga	1	left	ba	1	1192
5eb1d84a32ae1d128f1fc7ba	DL_test	30	pa	ga	1	left	pa	1	1367
5eb1d84a32ae1d128f1fc7ba	DL_test	31	ba	pa	1	right	pa	1	1479
5eb1d84a32ae1d128f1fc7ba	DL_test	32	ka	pa	1	other	ta	0	3079
5eb1d84a32ae1d128f1fc7ba	DL_test	33	ba	ka	1	right	ka	1	1543
5eb1d84a32ae1d128f1fc7ba	DL_test	34	ga	ga	0	left	ga	1	1319
5eb1d84a32ae1d128f1fc7ba	DL_test	35	ta	ga	1	right	ga	1	1943
5eb1d84a32ae1d128f1fc7ba	DL_test	36	ga	ba	1	right	ba	1	4165
