subject	block	trialnum	DL_leftSound	DL_rightSound	DL_dualSound	DL_choice	response	correct	rt
5f0a7dec44c42c19a6c9f6d9	headphonecheck_testphase	3	NA	NA	0	NA	third	1	475
5f0a7dec44c42c19a6c9f6d9	headphonecheck_testphase	6	NA	NA	0	NA	first	1	375
5f0a7dec44c42c19a6c9f6d9	headphonecheck_testphase	9	NA	NA	0	NA	first	1	327
5f0a7dec44c42c19a6c9f6d9	headphonecheck_testphase	12	NA	NA	0	NA	second	1	312
5f0a7dec44c42c19a6c9f6d9	headphonecheck_testphase	15	NA	NA	0	NA	second	1	305
5f0a7dec44c42c19a6c9f6d9	headphonecheck_testphase	18	NA	NA	0	NA	third	1	339
5f0a7dec44c42c19a6c9f6d9	stereocheck_testphase	3	NA	NA	0	NA	stereocheck_right	1	213
5f0a7dec44c42c19a6c9f6d9	stereocheck_testphase	6	NA	NA	0	NA	stereocheck_left	1	331
5f0a7dec44c42c19a6c9f6d9	stereocheck_testphase	9	NA	NA	0	NA	stereocheck_left	1	416
5f0a7dec44c42c19a6c9f6d9	stereocheck_testphase	12	NA	NA	0	NA	stereocheck_right	1	345
5f0a7dec44c42c19a6c9f6d9	stereocheck_testphase	15	NA	NA	0	NA	stereocheck_right	1	1096
5f0a7dec44c42c19a6c9f6d9	stereocheck_testphase	18	NA	NA	0	NA	stereocheck_left	1	403
5f0a7dec44c42c19a6c9f6d9	DL_practice	2	ga	ga	0	left	ga	1	1777
5f0a7dec44c42c19a6c9f6d9	DL_practice	3	ta	ta	0	left	ta	1	1909
5f0a7dec44c42c19a6c9f6d9	DL_practice	4	ka	ka	0	left	ka	1	1048
5f0a7dec44c42c19a6c9f6d9	DL_practice	5	da	ba	1	left	da	1	1890
5f0a7dec44c42c19a6c9f6d9	DL_practice	6	da	da	0	left	da	1	1022
5f0a7dec44c42c19a6c9f6d9	DL_practice	7	ba	ba	0	left	ba	1	2579
5f0a7dec44c42c19a6c9f6d9	DL_practice	8	ga	ta	1	left	ga	1	1361
5f0a7dec44c42c19a6c9f6d9	DL_practice	9	pa	pa	0	left	pa	1	2132
5f0a7dec44c42c19a6c9f6d9	DL_practice	10	ka	pa	1	left	ka	1	1318
5f0a7dec44c42c19a6c9f6d9	DL_test	1	da	da	0	left	da	1	1374
5f0a7dec44c42c19a6c9f6d9	DL_test	2	ta	ta	0	left	ta	1	1945
5f0a7dec44c42c19a6c9f6d9	DL_test	3	ga	ka	1	left	ga	1	1070
5f0a7dec44c42c19a6c9f6d9	DL_test	4	pa	pa	0	left	pa	1	1544
5f0a7dec44c42c19a6c9f6d9	DL_test	5	da	ta	1	left	da	1	1232
5f0a7dec44c42c19a6c9f6d9	DL_test	6	ta	da	1	right	da	1	771
5f0a7dec44c42c19a6c9f6d9	DL_test	7	ga	ta	1	left	ga	1	1068
5f0a7dec44c42c19a6c9f6d9	DL_test	8	ga	da	1	left	ga	1	827
5f0a7dec44c42c19a6c9f6d9	DL_test	9	da	pa	1	left	da	1	1252
5f0a7dec44c42c19a6c9f6d9	DL_test	10	pa	ba	1	right	ba	1	1993
5f0a7dec44c42c19a6c9f6d9	DL_test	11	ga	ga	0	left	ga	1	1175
5f0a7dec44c42c19a6c9f6d9	DL_test	12	pa	ga	1	right	ga	1	849
5f0a7dec44c42c19a6c9f6d9	DL_test	13	ka	ta	1	left	ka	1	1444
5f0a7dec44c42c19a6c9f6d9	DL_test	14	ba	ka	1	right	ka	1	1099
5f0a7dec44c42c19a6c9f6d9	DL_test	15	pa	ka	1	right	ka	1	706
5f0a7dec44c42c19a6c9f6d9	DL_test	16	ba	da	1	right	da	1	1235
5f0a7dec44c42c19a6c9f6d9	DL_test	17	da	ka	1	left	da	1	923
5f0a7dec44c42c19a6c9f6d9	DL_test	18	ga	pa	1	left	ga	1	2187
5f0a7dec44c42c19a6c9f6d9	DL_test	19	ta	ga	1	right	ga	1	831
5f0a7dec44c42c19a6c9f6d9	DL_test	20	ka	ka	0	left	ka	1	1418
5f0a7dec44c42c19a6c9f6d9	DL_test	21	da	ga	1	right	ga	1	1002
5f0a7dec44c42c19a6c9f6d9	DL_test	22	ka	da	1	right	da	1	1159
5f0a7dec44c42c19a6c9f6d9	DL_test	23	ka	ba	1	other	ga	0	2139
5f0a7dec44c42c19a6c9f6d9	DL_test	24	da	ba	1	right	ba	1	1797
5f0a7dec44c42c19a6c9f6d9	DL_test	25	ta	pa	1	right	pa	1	1533
5f0a7dec44c42c19a6c9f6d9	DL_test	26	ba	pa	1	right	pa	1	874
5f0a7dec44c42c19a6c9f6d9	DL_test	27	ga	ba	1	right	ba	1	1937
5f0a7dec44c42c19a6c9f6d9	DL_test	28	ka	pa	1	left	ka	1	1512
5f0a7dec44c42c19a6c9f6d9	DL_test	29	ta	ba	1	other	ka	0	1677
5f0a7dec44c42c19a6c9f6d9	DL_test	30	ba	ta	1	right	ta	1	1171
5f0a7dec44c42c19a6c9f6d9	DL_test	31	pa	ta	1	left	pa	1	1090
5f0a7dec44c42c19a6c9f6d9	DL_test	32	ba	ba	0	left	ba	1	1410
5f0a7dec44c42c19a6c9f6d9	DL_test	33	ka	ga	1	right	ga	1	1032
5f0a7dec44c42c19a6c9f6d9	DL_test	34	ba	ga	1	right	ga	1	1115
5f0a7dec44c42c19a6c9f6d9	DL_test	35	pa	da	1	right	da	1	1405
5f0a7dec44c42c19a6c9f6d9	DL_test	36	ta	ka	1	right	ka	1	1199
5f0a7dec44c42c19a6c9f6d9	DL_test	1	ga	da	1	right	da	1	1532
5f0a7dec44c42c19a6c9f6d9	DL_test	2	ga	ga	0	left	ga	1	1209
5f0a7dec44c42c19a6c9f6d9	DL_test	3	pa	ba	1	left	pa	1	1449
5f0a7dec44c42c19a6c9f6d9	DL_test	4	ta	ka	1	right	ka	1	2267
5f0a7dec44c42c19a6c9f6d9	DL_test	5	ga	ka	1	right	ka	1	1178
5f0a7dec44c42c19a6c9f6d9	DL_test	6	pa	ka	1	right	ka	1	897
5f0a7dec44c42c19a6c9f6d9	DL_test	7	ga	ba	1	right	ba	1	2233
5f0a7dec44c42c19a6c9f6d9	DL_test	8	ga	ta	1	left	ga	1	1502
5f0a7dec44c42c19a6c9f6d9	DL_test	9	da	ka	1	other	pa	0	2976
5f0a7dec44c42c19a6c9f6d9	DL_test	10	da	ta	1	left	da	1	1576
5f0a7dec44c42c19a6c9f6d9	DL_test	11	pa	ta	1	right	ta	1	1692
5f0a7dec44c42c19a6c9f6d9	DL_test	12	ba	ta	1	right	ta	1	895
5f0a7dec44c42c19a6c9f6d9	DL_test	13	pa	pa	0	left	pa	1	1546
5f0a7dec44c42c19a6c9f6d9	DL_test	14	ba	da	1	right	da	1	1239
5f0a7dec44c42c19a6c9f6d9	DL_test	15	ba	ka	1	right	ka	1	1318
5f0a7dec44c42c19a6c9f6d9	DL_test	16	pa	da	1	right	da	1	1308
5f0a7dec44c42c19a6c9f6d9	DL_test	17	ta	ba	1	other	pa	0	2051
5f0a7dec44c42c19a6c9f6d9	DL_test	18	da	pa	1	right	pa	1	1375
5f0a7dec44c42c19a6c9f6d9	DL_test	19	da	ga	1	right	ga	1	1201
5f0a7dec44c42c19a6c9f6d9	DL_test	20	ta	da	1	right	da	1	1059
5f0a7dec44c42c19a6c9f6d9	DL_test	21	ba	ba	0	left	ba	1	2656
5f0a7dec44c42c19a6c9f6d9	DL_test	22	ta	pa	1	right	pa	1	1755
5f0a7dec44c42c19a6c9f6d9	DL_test	23	ba	pa	1	right	pa	1	1343
5f0a7dec44c42c19a6c9f6d9	DL_test	24	ka	da	1	right	da	1	1058
5f0a7dec44c42c19a6c9f6d9	DL_test	25	da	ba	1	right	ba	1	2028
5f0a7dec44c42c19a6c9f6d9	DL_test	26	ka	pa	1	left	ka	1	1234
5f0a7dec44c42c19a6c9f6d9	DL_test	27	ba	ga	1	right	ga	1	1071
5f0a7dec44c42c19a6c9f6d9	DL_test	28	ka	ba	1	other	ga	0	1005
5f0a7dec44c42c19a6c9f6d9	DL_test	29	ka	ga	1	right	ga	1	824
5f0a7dec44c42c19a6c9f6d9	DL_test	30	ka	ka	0	left	ka	1	1022
5f0a7dec44c42c19a6c9f6d9	DL_test	31	ta	ta	0	left	ta	1	1962
5f0a7dec44c42c19a6c9f6d9	DL_test	32	pa	ga	1	right	ga	1	1685
5f0a7dec44c42c19a6c9f6d9	DL_test	33	ga	pa	1	right	pa	1	1534
5f0a7dec44c42c19a6c9f6d9	DL_test	34	da	da	0	left	da	1	1548
5f0a7dec44c42c19a6c9f6d9	DL_test	35	ka	ta	1	left	ka	1	1594
5f0a7dec44c42c19a6c9f6d9	DL_test	36	ta	ga	1	right	ga	1	1277
5f0a7dec44c42c19a6c9f6d9	DL_test	1	ta	ba	1	other	pa	0	1777
5f0a7dec44c42c19a6c9f6d9	DL_test	2	ta	ta	0	left	ta	1	1456
5f0a7dec44c42c19a6c9f6d9	DL_test	3	ga	ka	1	right	ka	1	1335
5f0a7dec44c42c19a6c9f6d9	DL_test	4	ba	da	1	right	da	1	1237
5f0a7dec44c42c19a6c9f6d9	DL_test	5	ba	ka	1	right	ka	1	1231
5f0a7dec44c42c19a6c9f6d9	DL_test	6	ga	ga	0	left	ga	1	897
5f0a7dec44c42c19a6c9f6d9	DL_test	7	da	da	0	left	da	1	848
5f0a7dec44c42c19a6c9f6d9	DL_test	8	ka	pa	1	left	ka	1	1743
5f0a7dec44c42c19a6c9f6d9	DL_test	9	ka	ga	1	right	ga	1	914
5f0a7dec44c42c19a6c9f6d9	DL_test	10	ga	da	1	right	da	1	967
5f0a7dec44c42c19a6c9f6d9	DL_test	11	ba	ta	1	other	ka	0	1244
5f0a7dec44c42c19a6c9f6d9	DL_test	12	ba	ga	1	right	ga	1	855
5f0a7dec44c42c19a6c9f6d9	DL_test	13	ba	ba	0	left	ba	1	2625
5f0a7dec44c42c19a6c9f6d9	DL_test	14	ta	ka	1	right	ka	1	1273
5f0a7dec44c42c19a6c9f6d9	DL_test	15	da	pa	1	right	pa	1	1391
5f0a7dec44c42c19a6c9f6d9	DL_test	16	pa	ka	1	right	ka	1	1262
5f0a7dec44c42c19a6c9f6d9	DL_test	17	ka	ta	1	right	ta	1	2157
5f0a7dec44c42c19a6c9f6d9	DL_test	18	pa	ga	1	right	ga	1	1656
5f0a7dec44c42c19a6c9f6d9	DL_test	19	ka	ka	0	left	ka	1	1254
5f0a7dec44c42c19a6c9f6d9	DL_test	20	ga	ba	1	right	ba	1	2257
5f0a7dec44c42c19a6c9f6d9	DL_test	21	ba	pa	1	right	pa	1	1641
5f0a7dec44c42c19a6c9f6d9	DL_test	22	ta	da	1	right	da	1	1231
5f0a7dec44c42c19a6c9f6d9	DL_test	23	ta	pa	1	right	pa	1	1361
5f0a7dec44c42c19a6c9f6d9	DL_test	24	ga	ta	1	left	ga	1	1037
5f0a7dec44c42c19a6c9f6d9	DL_test	25	ka	da	1	right	da	1	988
5f0a7dec44c42c19a6c9f6d9	DL_test	26	da	ka	1	other	pa	0	1585
5f0a7dec44c42c19a6c9f6d9	DL_test	27	pa	ba	1	right	ba	1	1657
5f0a7dec44c42c19a6c9f6d9	DL_test	28	ga	pa	1	right	pa	1	3717
5f0a7dec44c42c19a6c9f6d9	DL_test	29	da	ta	1	other	ka	0	2079
5f0a7dec44c42c19a6c9f6d9	DL_test	30	pa	da	1	right	da	1	1355
5f0a7dec44c42c19a6c9f6d9	DL_test	31	da	ga	1	right	ga	1	1192
5f0a7dec44c42c19a6c9f6d9	DL_test	32	pa	pa	0	left	pa	1	1509
5f0a7dec44c42c19a6c9f6d9	DL_test	33	ta	ga	1	right	ga	1	1180
5f0a7dec44c42c19a6c9f6d9	DL_test	34	ka	ba	1	left	ka	1	1240
5f0a7dec44c42c19a6c9f6d9	DL_test	35	pa	ta	1	right	ta	1	1673
5f0a7dec44c42c19a6c9f6d9	DL_test	36	da	ba	1	right	ba	1	1758
5f0a7dec44c42c19a6c9f6d9	DL_test	1	ta	da	1	other	pa	0	2082
5f0a7dec44c42c19a6c9f6d9	DL_test	2	ga	ka	1	right	ka	1	1173
5f0a7dec44c42c19a6c9f6d9	DL_test	3	ba	ta	1	other	ka	0	980
5f0a7dec44c42c19a6c9f6d9	DL_test	4	ga	da	1	left	ga	1	1194
5f0a7dec44c42c19a6c9f6d9	DL_test	5	ba	ba	0	left	ba	1	1918
5f0a7dec44c42c19a6c9f6d9	DL_test	6	ga	ba	1	right	ba	1	1103
5f0a7dec44c42c19a6c9f6d9	DL_test	7	ka	ba	1	right	ba	1	1009
5f0a7dec44c42c19a6c9f6d9	DL_test	8	pa	ga	1	right	ga	1	1174
5f0a7dec44c42c19a6c9f6d9	DL_test	9	pa	ka	1	right	ka	1	1906
5f0a7dec44c42c19a6c9f6d9	DL_test	10	ta	ka	1	right	ka	1	818
5f0a7dec44c42c19a6c9f6d9	DL_test	11	da	da	0	left	da	1	1347
5f0a7dec44c42c19a6c9f6d9	DL_test	12	pa	pa	0	left	pa	1	1321
5f0a7dec44c42c19a6c9f6d9	DL_test	13	pa	ta	1	right	ta	1	1854
5f0a7dec44c42c19a6c9f6d9	DL_test	14	ka	pa	1	other	ta	0	1765
5f0a7dec44c42c19a6c9f6d9	DL_test	15	da	ka	1	other	pa	0	1090
5f0a7dec44c42c19a6c9f6d9	DL_test	16	ka	ka	0	left	ka	1	1014
5f0a7dec44c42c19a6c9f6d9	DL_test	17	ta	ba	1	other	ka	0	1179
5f0a7dec44c42c19a6c9f6d9	DL_test	18	pa	da	1	right	da	1	1137
5f0a7dec44c42c19a6c9f6d9	DL_test	19	ba	ga	1	right	ga	1	1324
5f0a7dec44c42c19a6c9f6d9	DL_test	20	ka	ga	1	right	ga	1	694
5f0a7dec44c42c19a6c9f6d9	DL_test	21	da	ba	1	right	ba	1	3940
5f0a7dec44c42c19a6c9f6d9	DL_test	22	ba	da	1	right	da	1	1310
5f0a7dec44c42c19a6c9f6d9	DL_test	23	da	pa	1	right	pa	1	2309
5f0a7dec44c42c19a6c9f6d9	DL_test	24	pa	ba	1	left	pa	1	1745
5f0a7dec44c42c19a6c9f6d9	DL_test	25	da	ta	1	right	ta	1	1317
5f0a7dec44c42c19a6c9f6d9	DL_test	26	ga	ta	1	other	ka	0	1141
5f0a7dec44c42c19a6c9f6d9	DL_test	27	ka	da	1	right	da	1	1434
5f0a7dec44c42c19a6c9f6d9	DL_test	28	ta	ga	1	right	ga	1	1227
5f0a7dec44c42c19a6c9f6d9	DL_test	29	ka	ta	1	left	ka	1	1230
5f0a7dec44c42c19a6c9f6d9	DL_test	30	ba	pa	1	right	pa	1	1342
5f0a7dec44c42c19a6c9f6d9	DL_test	31	ga	pa	1	right	pa	1	1299
5f0a7dec44c42c19a6c9f6d9	DL_test	32	ba	ka	1	right	ka	1	2039
5f0a7dec44c42c19a6c9f6d9	DL_test	33	da	ga	1	right	ga	1	1318
5f0a7dec44c42c19a6c9f6d9	DL_test	34	ga	ga	0	left	ga	1	803
5f0a7dec44c42c19a6c9f6d9	DL_test	35	ta	pa	1	right	pa	1	1427
5f0a7dec44c42c19a6c9f6d9	DL_test	36	ta	ta	0	left	ta	1	2899
