subject	block	trialnum	DL_leftSound	DL_rightSound	DL_dualSound	DL_choice	response	correct	rt
5ff633cda2b5841a81ec5b9a	headphonecheck_testphase	3	NA	NA	0	NA	first	0	31858
5ff633cda2b5841a81ec5b9a	headphonecheck_testphase	6	NA	NA	0	NA	third	0	15159
5ff633cda2b5841a81ec5b9a	headphonecheck_testphase	9	NA	NA	0	NA	third	0	6223
5ff633cda2b5841a81ec5b9a	headphonecheck_testphase	12	NA	NA	0	NA	second	0	5100
5ff633cda2b5841a81ec5b9a	headphonecheck_testphase	15	NA	NA	0	NA	first	0	1541
5ff633cda2b5841a81ec5b9a	headphonecheck_testphase	18	NA	NA	0	NA	second	0	852
5ff633cda2b5841a81ec5b9a	stereocheck_testphase	3	NA	NA	0	NA	stereocheck_left	1	430
5ff633cda2b5841a81ec5b9a	stereocheck_testphase	6	NA	NA	0	NA	stereocheck_left	1	642
5ff633cda2b5841a81ec5b9a	stereocheck_testphase	9	NA	NA	0	NA	stereocheck_left	1	405
5ff633cda2b5841a81ec5b9a	stereocheck_testphase	12	NA	NA	0	NA	stereocheck_right	1	369
5ff633cda2b5841a81ec5b9a	stereocheck_testphase	15	NA	NA	0	NA	stereocheck_right	1	446
5ff633cda2b5841a81ec5b9a	stereocheck_testphase	18	NA	NA	0	NA	stereocheck_right	1	320
5ff633cda2b5841a81ec5b9a	DL_practice	2	da	ba	1	right	ba	1	2476
5ff633cda2b5841a81ec5b9a	DL_practice	3	ga	ga	0	left	ga	1	1406
5ff633cda2b5841a81ec5b9a	DL_practice	4	da	da	0	left	da	1	1537
5ff633cda2b5841a81ec5b9a	DL_practice	5	pa	pa	0	left	pa	1	1238
5ff633cda2b5841a81ec5b9a	DL_practice	6	ga	ta	1	left	ga	1	1814
5ff633cda2b5841a81ec5b9a	DL_practice	7	ba	ba	0	left	ba	1	1519
5ff633cda2b5841a81ec5b9a	DL_practice	8	ka	ka	0	left	ka	1	1387
5ff633cda2b5841a81ec5b9a	DL_practice	9	ta	ta	0	left	ta	1	1168
5ff633cda2b5841a81ec5b9a	DL_practice	10	ka	pa	1	left	ka	1	1764
5ff633cda2b5841a81ec5b9a	DL_test	1	ga	ba	1	right	ba	1	1068
5ff633cda2b5841a81ec5b9a	DL_test	2	da	ga	1	right	ga	1	1368
5ff633cda2b5841a81ec5b9a	DL_test	3	ka	ta	1	left	ka	1	1214
5ff633cda2b5841a81ec5b9a	DL_test	4	da	pa	1	right	pa	1	1288
5ff633cda2b5841a81ec5b9a	DL_test	5	da	ba	1	right	ba	1	1555
5ff633cda2b5841a81ec5b9a	DL_test	6	pa	ka	1	right	ka	1	1174
5ff633cda2b5841a81ec5b9a	DL_test	7	ga	da	1	right	da	1	1148
5ff633cda2b5841a81ec5b9a	DL_test	8	ba	ba	0	left	ba	1	1189
5ff633cda2b5841a81ec5b9a	DL_test	9	ka	pa	1	left	ka	1	1115
5ff633cda2b5841a81ec5b9a	DL_test	10	da	ka	1	right	ka	1	1668
5ff633cda2b5841a81ec5b9a	DL_test	11	ka	da	1	left	ka	1	1108
5ff633cda2b5841a81ec5b9a	DL_test	12	pa	da	1	right	da	1	1143
5ff633cda2b5841a81ec5b9a	DL_test	13	ga	pa	1	left	ga	1	1809
5ff633cda2b5841a81ec5b9a	DL_test	14	ta	ta	0	left	ta	1	1318
5ff633cda2b5841a81ec5b9a	DL_test	15	ga	ka	1	right	ka	1	1135
5ff633cda2b5841a81ec5b9a	DL_test	16	ba	ga	1	left	ba	1	1166
5ff633cda2b5841a81ec5b9a	DL_test	17	da	ta	1	right	ta	1	1220
5ff633cda2b5841a81ec5b9a	DL_test	18	ta	ba	1	left	ta	1	2177
5ff633cda2b5841a81ec5b9a	DL_test	19	pa	ba	1	left	pa	1	1126
5ff633cda2b5841a81ec5b9a	DL_test	20	ba	ka	1	right	ka	1	1087
5ff633cda2b5841a81ec5b9a	DL_test	21	ga	ga	0	left	ga	1	961
5ff633cda2b5841a81ec5b9a	DL_test	22	ka	ka	0	left	ka	1	1108
5ff633cda2b5841a81ec5b9a	DL_test	23	ta	da	1	left	ta	1	1445
5ff633cda2b5841a81ec5b9a	DL_test	24	ta	ga	1	other	ka	0	1678
5ff633cda2b5841a81ec5b9a	DL_test	25	pa	ta	1	right	ta	1	1222
5ff633cda2b5841a81ec5b9a	DL_test	26	ka	ba	1	other	ta	0	1021
5ff633cda2b5841a81ec5b9a	DL_test	27	ga	ta	1	left	ga	1	1263
5ff633cda2b5841a81ec5b9a	DL_test	28	ba	da	1	left	ba	1	1681
5ff633cda2b5841a81ec5b9a	DL_test	29	ba	pa	1	right	pa	1	1692
5ff633cda2b5841a81ec5b9a	DL_test	30	ta	ka	1	right	ka	1	1016
5ff633cda2b5841a81ec5b9a	DL_test	31	pa	pa	0	left	pa	1	1149
5ff633cda2b5841a81ec5b9a	DL_test	32	da	da	0	left	da	1	1151
5ff633cda2b5841a81ec5b9a	DL_test	33	ta	pa	1	left	ta	1	973
5ff633cda2b5841a81ec5b9a	DL_test	34	pa	ga	1	other	ka	0	1141
5ff633cda2b5841a81ec5b9a	DL_test	35	ka	ga	1	left	ka	1	1010
5ff633cda2b5841a81ec5b9a	DL_test	36	ba	ta	1	other	ka	0	1021
5ff633cda2b5841a81ec5b9a	DL_test	1	ka	ga	1	left	ka	1	1167
5ff633cda2b5841a81ec5b9a	DL_test	2	ta	ga	1	right	ga	1	1420
5ff633cda2b5841a81ec5b9a	DL_test	3	ba	ta	1	right	ta	1	1214
5ff633cda2b5841a81ec5b9a	DL_test	4	ga	ga	0	left	ga	1	1219
5ff633cda2b5841a81ec5b9a	DL_test	5	pa	ba	1	left	pa	1	947
5ff633cda2b5841a81ec5b9a	DL_test	6	pa	ga	1	other	ka	0	962
5ff633cda2b5841a81ec5b9a	DL_test	7	ta	ba	1	left	ta	1	1500
5ff633cda2b5841a81ec5b9a	DL_test	8	da	ka	1	other	pa	0	988
5ff633cda2b5841a81ec5b9a	DL_test	9	ka	pa	1	left	ka	1	1594
5ff633cda2b5841a81ec5b9a	DL_test	10	ba	ga	1	left	ba	1	1507
5ff633cda2b5841a81ec5b9a	DL_test	11	pa	ta	1	right	ta	1	1020
5ff633cda2b5841a81ec5b9a	DL_test	12	da	ta	1	right	ta	1	2139
5ff633cda2b5841a81ec5b9a	DL_test	13	ga	pa	1	other	ka	0	1035
5ff633cda2b5841a81ec5b9a	DL_test	14	ka	da	1	right	da	1	1233
5ff633cda2b5841a81ec5b9a	DL_test	15	da	ga	1	right	ga	1	771
5ff633cda2b5841a81ec5b9a	DL_test	16	ta	ta	0	left	ta	1	1172
5ff633cda2b5841a81ec5b9a	DL_test	17	ka	ta	1	right	ta	1	1083
5ff633cda2b5841a81ec5b9a	DL_test	18	da	ba	1	right	ba	1	1719
5ff633cda2b5841a81ec5b9a	DL_test	19	ba	ka	1	right	ka	1	921
5ff633cda2b5841a81ec5b9a	DL_test	20	ba	pa	1	right	pa	1	1201
5ff633cda2b5841a81ec5b9a	DL_test	21	ga	ka	1	right	ka	1	1041
5ff633cda2b5841a81ec5b9a	DL_test	22	ba	da	1	left	ba	1	1657
5ff633cda2b5841a81ec5b9a	DL_test	23	ka	ba	1	left	ka	1	1171
5ff633cda2b5841a81ec5b9a	DL_test	24	pa	pa	0	left	pa	1	1143
5ff633cda2b5841a81ec5b9a	DL_test	25	ta	pa	1	left	ta	1	1085
5ff633cda2b5841a81ec5b9a	DL_test	26	ba	ba	0	left	ba	1	1464
5ff633cda2b5841a81ec5b9a	DL_test	27	ga	ta	1	other	ka	0	1385
5ff633cda2b5841a81ec5b9a	DL_test	28	ga	da	1	right	da	1	982
5ff633cda2b5841a81ec5b9a	DL_test	29	pa	da	1	right	da	1	1264
5ff633cda2b5841a81ec5b9a	DL_test	30	da	da	0	left	da	1	881
5ff633cda2b5841a81ec5b9a	DL_test	31	ga	ba	1	right	ba	1	1180
5ff633cda2b5841a81ec5b9a	DL_test	32	da	pa	1	right	pa	1	1077
5ff633cda2b5841a81ec5b9a	DL_test	33	ka	ka	0	left	ka	1	1121
5ff633cda2b5841a81ec5b9a	DL_test	34	pa	ka	1	right	ka	1	1124
5ff633cda2b5841a81ec5b9a	DL_test	35	ta	da	1	left	ta	1	1360
5ff633cda2b5841a81ec5b9a	DL_test	36	ta	ka	1	right	ka	1	979
5ff633cda2b5841a81ec5b9a	DL_test	1	pa	da	1	other	ta	0	1577
5ff633cda2b5841a81ec5b9a	DL_test	2	ga	ba	1	right	ba	1	1573
5ff633cda2b5841a81ec5b9a	DL_test	3	ba	da	1	left	ba	1	972
5ff633cda2b5841a81ec5b9a	DL_test	4	ka	ba	1	left	ka	1	1386
5ff633cda2b5841a81ec5b9a	DL_test	5	da	ba	1	right	ba	1	1389
5ff633cda2b5841a81ec5b9a	DL_test	6	ba	pa	1	right	pa	1	1196
5ff633cda2b5841a81ec5b9a	DL_test	7	pa	ka	1	right	ka	1	1033
5ff633cda2b5841a81ec5b9a	DL_test	8	ga	pa	1	left	ga	1	2398
5ff633cda2b5841a81ec5b9a	DL_test	9	pa	ga	1	other	ka	0	1180
5ff633cda2b5841a81ec5b9a	DL_test	10	ba	ka	1	right	ka	1	1005
5ff633cda2b5841a81ec5b9a	DL_test	11	pa	ta	1	right	ta	1	1326
5ff633cda2b5841a81ec5b9a	DL_test	12	ba	ba	0	left	ba	1	1340
5ff633cda2b5841a81ec5b9a	DL_test	13	da	ka	1	other	ta	0	1937
5ff633cda2b5841a81ec5b9a	DL_test	14	ga	da	1	right	da	1	1246
5ff633cda2b5841a81ec5b9a	DL_test	15	ka	da	1	left	ka	1	898
5ff633cda2b5841a81ec5b9a	DL_test	16	ta	da	1	left	ta	1	1406
5ff633cda2b5841a81ec5b9a	DL_test	17	ka	ga	1	right	ga	1	910
5ff633cda2b5841a81ec5b9a	DL_test	18	ta	pa	1	left	ta	1	1253
5ff633cda2b5841a81ec5b9a	DL_test	19	ba	ga	1	right	ga	1	1098
5ff633cda2b5841a81ec5b9a	DL_test	20	ta	ga	1	right	ga	1	1351
5ff633cda2b5841a81ec5b9a	DL_test	21	pa	pa	0	left	pa	1	1024
5ff633cda2b5841a81ec5b9a	DL_test	22	pa	ba	1	left	pa	1	744
5ff633cda2b5841a81ec5b9a	DL_test	23	da	pa	1	other	ta	0	1744
5ff633cda2b5841a81ec5b9a	DL_test	24	ga	ga	0	left	ga	1	963
5ff633cda2b5841a81ec5b9a	DL_test	25	ga	ka	1	right	ka	1	1025
5ff633cda2b5841a81ec5b9a	DL_test	26	ta	ba	1	left	ta	1	1261
5ff633cda2b5841a81ec5b9a	DL_test	27	ta	ta	0	left	ta	1	943
5ff633cda2b5841a81ec5b9a	DL_test	28	ka	ta	1	left	ka	1	1182
5ff633cda2b5841a81ec5b9a	DL_test	29	ta	ka	1	right	ka	1	765
5ff633cda2b5841a81ec5b9a	DL_test	30	da	da	0	left	da	1	1475
5ff633cda2b5841a81ec5b9a	DL_test	31	da	ta	1	right	ta	1	1191
5ff633cda2b5841a81ec5b9a	DL_test	32	ga	ta	1	other	ka	0	1309
5ff633cda2b5841a81ec5b9a	DL_test	33	ba	ta	1	left	ba	1	2037
5ff633cda2b5841a81ec5b9a	DL_test	34	ka	ka	0	left	ka	1	1157
5ff633cda2b5841a81ec5b9a	DL_test	35	ka	pa	1	left	ka	1	855
5ff633cda2b5841a81ec5b9a	DL_test	36	da	ga	1	right	ga	1	1160
5ff633cda2b5841a81ec5b9a	DL_test	1	da	ga	1	right	ga	1	926
5ff633cda2b5841a81ec5b9a	DL_test	2	ga	da	1	left	ga	1	873
5ff633cda2b5841a81ec5b9a	DL_test	3	da	da	0	left	da	1	720
5ff633cda2b5841a81ec5b9a	DL_test	4	ka	da	1	left	ka	1	1116
5ff633cda2b5841a81ec5b9a	DL_test	5	ga	ta	1	left	ga	1	1982
5ff633cda2b5841a81ec5b9a	DL_test	6	ta	ta	0	left	ta	1	1421
5ff633cda2b5841a81ec5b9a	DL_test	7	ba	ta	1	right	ta	1	2713
5ff633cda2b5841a81ec5b9a	DL_test	8	ta	ba	1	other	pa	0	1158
5ff633cda2b5841a81ec5b9a	DL_test	9	ta	da	1	left	ta	1	1370
5ff633cda2b5841a81ec5b9a	DL_test	10	ta	ka	1	right	ka	1	1536
5ff633cda2b5841a81ec5b9a	DL_test	11	pa	da	1	other	ga	0	1638
5ff633cda2b5841a81ec5b9a	DL_test	12	ga	ga	0	left	ga	1	991
5ff633cda2b5841a81ec5b9a	DL_test	13	ba	ga	1	other	pa	0	1751
5ff633cda2b5841a81ec5b9a	DL_test	14	ka	ta	1	left	ka	1	1139
5ff633cda2b5841a81ec5b9a	DL_test	15	ka	ka	0	left	ka	1	883
5ff633cda2b5841a81ec5b9a	DL_test	16	ka	ga	1	left	ka	1	1044
5ff633cda2b5841a81ec5b9a	DL_test	17	pa	pa	0	left	pa	1	907
5ff633cda2b5841a81ec5b9a	DL_test	18	da	ka	1	other	ta	0	1255
5ff633cda2b5841a81ec5b9a	DL_test	19	ba	ba	0	left	ba	1	1588
5ff633cda2b5841a81ec5b9a	DL_test	20	ta	pa	1	left	ta	1	1855
5ff633cda2b5841a81ec5b9a	DL_test	21	ka	pa	1	left	ka	1	1516
5ff633cda2b5841a81ec5b9a	DL_test	22	pa	ka	1	right	ka	1	1355
5ff633cda2b5841a81ec5b9a	DL_test	23	da	ba	1	right	ba	1	1460
5ff633cda2b5841a81ec5b9a	DL_test	24	pa	ga	1	left	pa	1	1362
5ff633cda2b5841a81ec5b9a	DL_test	25	ga	ba	1	right	ba	1	1366
5ff633cda2b5841a81ec5b9a	DL_test	26	pa	ba	1	left	pa	1	1221
5ff633cda2b5841a81ec5b9a	DL_test	27	ka	ba	1	other	pa	0	866
5ff633cda2b5841a81ec5b9a	DL_test	28	da	pa	1	other	ta	0	1798
5ff633cda2b5841a81ec5b9a	DL_test	29	ga	ka	1	right	ka	1	1021
5ff633cda2b5841a81ec5b9a	DL_test	30	ba	pa	1	right	pa	1	1185
5ff633cda2b5841a81ec5b9a	DL_test	31	da	ta	1	right	ta	1	1216
5ff633cda2b5841a81ec5b9a	DL_test	32	ba	ka	1	right	ka	1	1505
5ff633cda2b5841a81ec5b9a	DL_test	33	ga	pa	1	other	da	0	1205
5ff633cda2b5841a81ec5b9a	DL_test	34	pa	ta	1	right	ta	1	1491
5ff633cda2b5841a81ec5b9a	DL_test	35	ta	ga	1	other	ka	0	1453
5ff633cda2b5841a81ec5b9a	DL_test	36	ba	da	1	left	ba	1	1513
