subject	block	trialnum	DL_leftSound	DL_rightSound	DL_dualSound	DL_choice	response	correct	rt
6080c437c4d7109234489144	headphonecheck_testphase	3	NA	NA	0	NA	first	1	9340
6080c437c4d7109234489144	headphonecheck_testphase	6	NA	NA	0	NA	third	1	2782
6080c437c4d7109234489144	headphonecheck_testphase	9	NA	NA	0	NA	second	1	791
6080c437c4d7109234489144	headphonecheck_testphase	12	NA	NA	0	NA	third	0	752
6080c437c4d7109234489144	headphonecheck_testphase	15	NA	NA	0	NA	third	1	720
6080c437c4d7109234489144	headphonecheck_testphase	18	NA	NA	0	NA	second	1	923
6080c437c4d7109234489144	stereocheck_testphase	3	NA	NA	0	NA	stereocheck_right	1	327
6080c437c4d7109234489144	stereocheck_testphase	6	NA	NA	0	NA	stereocheck_left	1	361
6080c437c4d7109234489144	stereocheck_testphase	9	NA	NA	0	NA	stereocheck_right	1	352
6080c437c4d7109234489144	stereocheck_testphase	12	NA	NA	0	NA	stereocheck_left	1	669
6080c437c4d7109234489144	stereocheck_testphase	15	NA	NA	0	NA	stereocheck_right	1	491
6080c437c4d7109234489144	stereocheck_testphase	18	NA	NA	0	NA	stereocheck_left	1	322
6080c437c4d7109234489144	DL_practice	2	pa	pa	0	left	pa	1	1428
6080c437c4d7109234489144	DL_practice	3	ga	ta	1	left	ga	1	1129
6080c437c4d7109234489144	DL_practice	4	ka	ka	0	left	ka	1	1600
6080c437c4d7109234489144	DL_practice	5	ka	pa	1	left	ka	1	969
6080c437c4d7109234489144	DL_practice	6	ga	ga	0	left	ga	1	1365
6080c437c4d7109234489144	DL_practice	7	da	ba	1	right	ba	1	2132
6080c437c4d7109234489144	DL_practice	8	da	da	0	left	da	1	1507
6080c437c4d7109234489144	DL_practice	9	ta	ta	0	left	ta	1	1348
6080c437c4d7109234489144	DL_practice	10	ba	ba	0	left	ba	1	1996
6080c437c4d7109234489144	DL_test	1	da	ka	1	other	ga	0	1252
6080c437c4d7109234489144	DL_test	2	ta	ka	1	right	ka	1	1266
6080c437c4d7109234489144	DL_test	3	ba	ta	1	left	ba	1	1348
6080c437c4d7109234489144	DL_test	4	ga	ta	1	left	ga	1	971
6080c437c4d7109234489144	DL_test	5	ba	da	1	left	ba	1	1253
6080c437c4d7109234489144	DL_test	6	pa	pa	0	left	pa	1	2217
6080c437c4d7109234489144	DL_test	7	pa	da	1	other	ga	0	1226
6080c437c4d7109234489144	DL_test	8	ka	da	1	other	ga	0	1155
6080c437c4d7109234489144	DL_test	9	ka	pa	1	left	ka	1	1535
6080c437c4d7109234489144	DL_test	10	ba	ga	1	left	ba	1	1664
6080c437c4d7109234489144	DL_test	11	ga	ba	1	right	ba	1	757
6080c437c4d7109234489144	DL_test	12	ka	ga	1	right	ga	1	1146
6080c437c4d7109234489144	DL_test	13	ta	da	1	other	ga	0	781
6080c437c4d7109234489144	DL_test	14	ta	ta	0	left	ta	1	1489
6080c437c4d7109234489144	DL_test	15	ka	ka	0	left	ka	1	1353
6080c437c4d7109234489144	DL_test	16	pa	ka	1	right	ka	1	1406
6080c437c4d7109234489144	DL_test	17	ba	ka	1	other	pa	0	1052
6080c437c4d7109234489144	DL_test	18	ta	ga	1	right	ga	1	1213
6080c437c4d7109234489144	DL_test	19	ta	pa	1	left	ta	1	1342
6080c437c4d7109234489144	DL_test	20	da	pa	1	other	ga	0	1413
6080c437c4d7109234489144	DL_test	21	ka	ta	1	left	ka	1	1517
6080c437c4d7109234489144	DL_test	22	da	ba	1	right	ba	1	1970
6080c437c4d7109234489144	DL_test	23	ga	da	1	left	ga	1	1474
6080c437c4d7109234489144	DL_test	24	pa	ta	1	right	ta	1	1629
6080c437c4d7109234489144	DL_test	25	da	da	0	left	da	1	2275
6080c437c4d7109234489144	DL_test	26	ka	ba	1	right	ba	1	1781
6080c437c4d7109234489144	DL_test	27	ta	ba	1	left	ta	1	2199
6080c437c4d7109234489144	DL_test	28	ga	pa	1	left	ga	1	1525
6080c437c4d7109234489144	DL_test	29	ga	ga	0	left	ga	1	855
6080c437c4d7109234489144	DL_test	30	da	ga	1	other	ba	0	2348
6080c437c4d7109234489144	DL_test	31	pa	ga	1	right	ga	1	1375
6080c437c4d7109234489144	DL_test	32	pa	ba	1	left	pa	1	1356
6080c437c4d7109234489144	DL_test	33	ba	ba	0	left	ba	1	1389
6080c437c4d7109234489144	DL_test	34	da	ta	1	right	ta	1	1433
6080c437c4d7109234489144	DL_test	35	ga	ka	1	left	ga	1	1498
6080c437c4d7109234489144	DL_test	36	ba	pa	1	right	pa	1	2179
6080c437c4d7109234489144	DL_test	1	ka	da	1	other	ga	0	1119
6080c437c4d7109234489144	DL_test	2	ta	da	1	left	ta	1	1141
6080c437c4d7109234489144	DL_test	3	pa	ta	1	right	ta	1	1561
6080c437c4d7109234489144	DL_test	4	ta	ba	1	other	pa	0	1075
6080c437c4d7109234489144	DL_test	5	pa	pa	0	left	pa	1	1120
6080c437c4d7109234489144	DL_test	6	ga	ba	1	right	ba	1	1665
6080c437c4d7109234489144	DL_test	7	ta	ga	1	right	ga	1	1449
6080c437c4d7109234489144	DL_test	8	ba	da	1	left	ba	1	1193
6080c437c4d7109234489144	DL_test	9	ka	ga	1	right	ga	1	1128
6080c437c4d7109234489144	DL_test	10	ba	ka	1	other	pa	0	1235
6080c437c4d7109234489144	DL_test	11	pa	ba	1	left	pa	1	728
6080c437c4d7109234489144	DL_test	12	ka	ka	0	left	ka	1	1091
6080c437c4d7109234489144	DL_test	13	ba	ta	1	right	ta	1	1621
6080c437c4d7109234489144	DL_test	14	ta	ta	0	left	ta	1	764
6080c437c4d7109234489144	DL_test	15	da	ba	1	other	pa	0	1209
6080c437c4d7109234489144	DL_test	16	ga	ga	0	left	ga	1	1521
6080c437c4d7109234489144	DL_test	17	ta	ka	1	right	ka	1	1551
6080c437c4d7109234489144	DL_test	18	ga	ta	1	left	ga	1	1616
6080c437c4d7109234489144	DL_test	19	pa	ka	1	right	ka	1	1253
6080c437c4d7109234489144	DL_test	20	da	ka	1	left	da	1	1372
6080c437c4d7109234489144	DL_test	21	da	ga	1	right	ga	1	1228
6080c437c4d7109234489144	DL_test	22	ga	pa	1	left	ga	1	781
6080c437c4d7109234489144	DL_test	23	da	ta	1	left	da	1	1091
6080c437c4d7109234489144	DL_test	24	ka	ta	1	left	ka	1	1771
6080c437c4d7109234489144	DL_test	25	ga	ka	1	right	ka	1	897
6080c437c4d7109234489144	DL_test	26	pa	ga	1	other	ka	0	503
6080c437c4d7109234489144	DL_test	27	ba	ga	1	left	ba	1	2056
6080c437c4d7109234489144	DL_test	28	da	pa	1	left	da	1	1106
6080c437c4d7109234489144	DL_test	29	ka	ba	1	other	da	0	808
6080c437c4d7109234489144	DL_test	30	ga	da	1	left	ga	1	1235
6080c437c4d7109234489144	DL_test	31	ba	pa	1	right	pa	1	1039
6080c437c4d7109234489144	DL_test	32	ka	pa	1	left	ka	1	1284
6080c437c4d7109234489144	DL_test	33	pa	da	1	other	ta	0	1600
6080c437c4d7109234489144	DL_test	34	ta	pa	1	left	ta	1	645
6080c437c4d7109234489144	DL_test	35	da	da	0	left	da	1	1444
6080c437c4d7109234489144	DL_test	36	ba	ba	0	left	ba	1	2512
6080c437c4d7109234489144	DL_test	1	ba	ta	1	other	pa	0	1787
6080c437c4d7109234489144	DL_test	2	ta	ba	1	other	pa	0	821
6080c437c4d7109234489144	DL_test	3	ta	ga	1	other	ka	0	1378
6080c437c4d7109234489144	DL_test	4	ta	da	1	left	ta	1	1706
6080c437c4d7109234489144	DL_test	5	pa	ta	1	right	ta	1	791
6080c437c4d7109234489144	DL_test	6	ka	ka	0	left	ka	1	1393
6080c437c4d7109234489144	DL_test	7	pa	ba	1	left	pa	1	1125
6080c437c4d7109234489144	DL_test	8	da	da	0	left	da	1	1283
6080c437c4d7109234489144	DL_test	9	ga	ka	1	right	ka	1	1208
6080c437c4d7109234489144	DL_test	10	ta	ta	0	left	ta	1	1281
6080c437c4d7109234489144	DL_test	11	ga	da	1	left	ga	1	1189
6080c437c4d7109234489144	DL_test	12	ba	ga	1	left	ba	1	1405
6080c437c4d7109234489144	DL_test	13	ga	ga	0	left	ga	1	1094
6080c437c4d7109234489144	DL_test	14	ka	ta	1	left	ka	1	1190
6080c437c4d7109234489144	DL_test	15	da	pa	1	other	ga	0	1691
6080c437c4d7109234489144	DL_test	16	pa	ga	1	right	ga	1	1042
6080c437c4d7109234489144	DL_test	17	ba	da	1	left	ba	1	2094
6080c437c4d7109234489144	DL_test	18	ba	pa	1	right	pa	1	1698
6080c437c4d7109234489144	DL_test	19	pa	pa	0	left	pa	1	965
6080c437c4d7109234489144	DL_test	20	ka	ga	1	right	ga	1	2089
6080c437c4d7109234489144	DL_test	21	ka	da	1	left	ka	1	1116
6080c437c4d7109234489144	DL_test	22	ga	ta	1	left	ga	1	875
6080c437c4d7109234489144	DL_test	23	ga	ba	1	right	ba	1	1688
6080c437c4d7109234489144	DL_test	24	ga	pa	1	left	ga	1	1276
6080c437c4d7109234489144	DL_test	25	da	ga	1	right	ga	1	748
6080c437c4d7109234489144	DL_test	26	ta	pa	1	left	ta	1	2050
6080c437c4d7109234489144	DL_test	27	ba	ba	0	left	ba	1	2529
6080c437c4d7109234489144	DL_test	28	ka	pa	1	right	pa	1	1260
6080c437c4d7109234489144	DL_test	29	ta	ka	1	right	ka	1	803
6080c437c4d7109234489144	DL_test	30	pa	da	1	other	ka	0	857
6080c437c4d7109234489144	DL_test	31	ka	ba	1	other	pa	0	2363
6080c437c4d7109234489144	DL_test	32	da	ta	1	left	da	1	1415
6080c437c4d7109234489144	DL_test	33	pa	ka	1	right	ka	1	1400
6080c437c4d7109234489144	DL_test	34	ba	ka	1	right	ka	1	870
6080c437c4d7109234489144	DL_test	35	da	ka	1	left	da	1	2025
6080c437c4d7109234489144	DL_test	36	da	ba	1	left	da	1	1465
6080c437c4d7109234489144	DL_test	1	ga	pa	1	left	ga	1	1183
6080c437c4d7109234489144	DL_test	2	pa	pa	0	left	pa	1	1514
6080c437c4d7109234489144	DL_test	3	da	pa	1	left	da	1	1592
6080c437c4d7109234489144	DL_test	4	ka	ta	1	left	ka	1	1566
6080c437c4d7109234489144	DL_test	5	ga	ba	1	right	ba	1	2102
6080c437c4d7109234489144	DL_test	6	ba	ga	1	left	ba	1	791
6080c437c4d7109234489144	DL_test	7	ka	ga	1	left	ka	1	1534
6080c437c4d7109234489144	DL_test	8	da	da	0	left	da	1	1720
6080c437c4d7109234489144	DL_test	9	ga	da	1	left	ga	1	1229
6080c437c4d7109234489144	DL_test	10	ka	ka	0	left	ka	1	1436
6080c437c4d7109234489144	DL_test	11	pa	ga	1	other	ka	0	3026
6080c437c4d7109234489144	DL_test	12	ta	ta	0	left	ta	1	1566
6080c437c4d7109234489144	DL_test	13	ga	ka	1	left	ga	1	1745
6080c437c4d7109234489144	DL_test	14	da	ka	1	left	da	1	2059
6080c437c4d7109234489144	DL_test	15	ta	ga	1	right	ga	1	1228
6080c437c4d7109234489144	DL_test	16	ta	ba	1	left	ta	1	1812
6080c437c4d7109234489144	DL_test	17	ba	pa	1	right	pa	1	1225
6080c437c4d7109234489144	DL_test	18	ka	da	1	left	ka	1	1237
6080c437c4d7109234489144	DL_test	19	ga	ta	1	left	ga	1	1906
6080c437c4d7109234489144	DL_test	20	ka	pa	1	left	ka	1	1249
6080c437c4d7109234489144	DL_test	21	da	ta	1	left	da	1	1516
6080c437c4d7109234489144	DL_test	22	ba	ta	1	right	ta	1	2119
6080c437c4d7109234489144	DL_test	23	ga	ga	0	left	ga	1	2578
6080c437c4d7109234489144	DL_test	24	ba	ba	0	other	pa	0	1287
6080c437c4d7109234489144	DL_test	25	ta	pa	1	left	ta	1	1488
6080c437c4d7109234489144	DL_test	26	pa	ta	1	right	ta	1	922
6080c437c4d7109234489144	DL_test	27	da	ba	1	right	ba	1	2439
6080c437c4d7109234489144	DL_test	28	da	ga	1	right	ga	1	1787
6080c437c4d7109234489144	DL_test	29	pa	ka	1	right	ka	1	1619
6080c437c4d7109234489144	DL_test	30	ba	ka	1	right	ka	1	1062
6080c437c4d7109234489144	DL_test	31	pa	ba	1	left	pa	1	1654
6080c437c4d7109234489144	DL_test	32	ta	ka	1	right	ka	1	1223
6080c437c4d7109234489144	DL_test	33	ka	ba	1	left	ka	1	857
6080c437c4d7109234489144	DL_test	34	ta	da	1	left	ta	1	2496
6080c437c4d7109234489144	DL_test	35	pa	da	1	other	ka	0	1757
6080c437c4d7109234489144	DL_test	36	ba	da	1	left	ba	1	1767
