subject	block	trialnum	DL_leftSound	DL_rightSound	DL_dualSound	DL_choice	response	correct	rt
6105758d070f9b350cea24ba	headphonecheck_testphase	3	NA	NA	0	NA	third	0	2558
6105758d070f9b350cea24ba	headphonecheck_testphase	6	NA	NA	0	NA	third	0	404
6105758d070f9b350cea24ba	headphonecheck_testphase	9	NA	NA	0	NA	first	0	892
6105758d070f9b350cea24ba	headphonecheck_testphase	12	NA	NA	0	NA	second	0	410
6105758d070f9b350cea24ba	headphonecheck_testphase	15	NA	NA	0	NA	second	0	213
6105758d070f9b350cea24ba	headphonecheck_testphase	18	NA	NA	0	NA	second	0	353
6105758d070f9b350cea24ba	stereocheck_testphase	3	NA	NA	0	NA	stereocheck_right	0	128
6105758d070f9b350cea24ba	stereocheck_testphase	6	NA	NA	0	NA	stereocheck_left	0	208
6105758d070f9b350cea24ba	stereocheck_testphase	9	NA	NA	0	NA	stereocheck_left	0	170
6105758d070f9b350cea24ba	stereocheck_testphase	12	NA	NA	0	NA	stereocheck_right	0	366
6105758d070f9b350cea24ba	stereocheck_testphase	15	NA	NA	0	NA	stereocheck_right	0	196
6105758d070f9b350cea24ba	stereocheck_testphase	18	NA	NA	0	NA	stereocheck_left	0	287
6105758d070f9b350cea24ba	DL_practice	2	pa	pa	0	left	pa	1	1599
6105758d070f9b350cea24ba	DL_practice	3	ka	ka	0	left	ka	1	924
6105758d070f9b350cea24ba	DL_practice	4	da	da	0	left	da	1	1382
6105758d070f9b350cea24ba	DL_practice	5	da	ba	1	left	da	1	1032
6105758d070f9b350cea24ba	DL_practice	6	ta	ta	0	left	ta	1	1657
6105758d070f9b350cea24ba	DL_practice	7	ba	ba	0	left	ba	1	1537
6105758d070f9b350cea24ba	DL_practice	8	ka	pa	1	left	ka	1	1054
6105758d070f9b350cea24ba	DL_practice	9	ga	ta	1	left	ga	1	974
6105758d070f9b350cea24ba	DL_practice	10	ga	ga	0	left	ga	1	707
6105758d070f9b350cea24ba	DL_test	1	pa	da	1	left	pa	1	2315
6105758d070f9b350cea24ba	DL_test	2	ga	ta	1	left	ga	1	1161
6105758d070f9b350cea24ba	DL_test	3	pa	ba	1	left	pa	1	1723
6105758d070f9b350cea24ba	DL_test	4	ka	ka	0	left	ka	1	671
6105758d070f9b350cea24ba	DL_test	5	ta	ba	1	left	ta	1	2062
6105758d070f9b350cea24ba	DL_test	6	da	ta	1	left	da	1	1812
6105758d070f9b350cea24ba	DL_test	7	ga	pa	1	left	ga	1	944
6105758d070f9b350cea24ba	DL_test	8	pa	ka	1	right	ka	1	1516
6105758d070f9b350cea24ba	DL_test	9	ka	ta	1	left	ka	1	728
6105758d070f9b350cea24ba	DL_test	10	ka	ba	1	other	ga	0	1027
6105758d070f9b350cea24ba	DL_test	11	pa	ga	1	other	ba	0	1869
6105758d070f9b350cea24ba	DL_test	12	ta	pa	1	left	ta	1	1302
6105758d070f9b350cea24ba	DL_test	13	ga	ga	0	left	ga	1	1027
6105758d070f9b350cea24ba	DL_test	14	ba	ta	1	other	ka	0	1769
6105758d070f9b350cea24ba	DL_test	15	pa	ta	1	right	ta	1	2133
6105758d070f9b350cea24ba	DL_test	16	ta	ka	1	right	ka	1	923
6105758d070f9b350cea24ba	DL_test	17	da	da	0	left	da	1	1120
6105758d070f9b350cea24ba	DL_test	18	ba	pa	1	right	pa	1	1306
6105758d070f9b350cea24ba	DL_test	19	ba	ga	1	other	da	0	1883
6105758d070f9b350cea24ba	DL_test	20	da	pa	1	other	ba	0	2337
6105758d070f9b350cea24ba	DL_test	21	ga	ba	1	other	ka	0	1190
6105758d070f9b350cea24ba	DL_test	22	ta	ga	1	right	ga	1	1049
6105758d070f9b350cea24ba	DL_test	23	ba	ka	1	right	ka	1	1102
6105758d070f9b350cea24ba	DL_test	24	ga	ka	1	left	ga	1	957
6105758d070f9b350cea24ba	DL_test	25	da	ga	1	right	ga	1	778
6105758d070f9b350cea24ba	DL_test	26	ka	pa	1	right	pa	1	2018
6105758d070f9b350cea24ba	DL_test	27	ba	ba	0	left	ba	1	1549
6105758d070f9b350cea24ba	DL_test	28	ta	da	1	right	da	1	2210
6105758d070f9b350cea24ba	DL_test	29	ka	ga	1	right	ga	1	1507
6105758d070f9b350cea24ba	DL_test	30	da	ba	1	left	da	1	1194
6105758d070f9b350cea24ba	DL_test	31	ka	da	1	left	ka	1	858
6105758d070f9b350cea24ba	DL_test	32	pa	pa	0	left	pa	1	1064
6105758d070f9b350cea24ba	DL_test	33	ba	da	1	right	da	1	1815
6105758d070f9b350cea24ba	DL_test	34	ta	ta	0	left	ta	1	1202
6105758d070f9b350cea24ba	DL_test	35	da	ka	1	other	pa	0	1228
6105758d070f9b350cea24ba	DL_test	36	ga	da	1	left	ga	1	1573
6105758d070f9b350cea24ba	DL_test	1	ba	ta	1	right	ta	1	2457
6105758d070f9b350cea24ba	DL_test	2	da	da	0	left	da	1	1186
6105758d070f9b350cea24ba	DL_test	3	ga	ka	1	right	ka	1	1052
6105758d070f9b350cea24ba	DL_test	4	da	pa	1	right	pa	1	794
6105758d070f9b350cea24ba	DL_test	5	ga	da	1	left	ga	1	806
6105758d070f9b350cea24ba	DL_test	6	pa	pa	0	left	pa	1	1512
6105758d070f9b350cea24ba	DL_test	7	ba	pa	1	right	pa	1	1931
6105758d070f9b350cea24ba	DL_test	8	pa	ba	1	left	pa	1	699
6105758d070f9b350cea24ba	DL_test	9	ka	ka	0	left	ka	1	928
6105758d070f9b350cea24ba	DL_test	10	ga	ba	1	left	ga	1	1877
6105758d070f9b350cea24ba	DL_test	11	ka	ta	1	left	ka	1	1027
6105758d070f9b350cea24ba	DL_test	12	ta	ka	1	right	ka	1	702
6105758d070f9b350cea24ba	DL_test	13	ka	da	1	left	ka	1	1185
6105758d070f9b350cea24ba	DL_test	14	pa	ga	1	other	da	0	2824
6105758d070f9b350cea24ba	DL_test	15	ta	da	1	left	ta	1	1822
6105758d070f9b350cea24ba	DL_test	16	da	ka	1	other	pa	0	1227
6105758d070f9b350cea24ba	DL_test	17	pa	ka	1	right	ka	1	1281
6105758d070f9b350cea24ba	DL_test	18	ba	ba	0	other	da	0	1623
6105758d070f9b350cea24ba	DL_test	19	ga	ga	0	left	ga	1	1427
6105758d070f9b350cea24ba	DL_test	20	da	ga	1	right	ga	1	1085
6105758d070f9b350cea24ba	DL_test	21	ka	ba	1	left	ka	1	960
6105758d070f9b350cea24ba	DL_test	22	ba	da	1	right	da	1	1859
6105758d070f9b350cea24ba	DL_test	23	ka	pa	1	left	ka	1	939
6105758d070f9b350cea24ba	DL_test	24	ba	ga	1	left	ba	1	1951
6105758d070f9b350cea24ba	DL_test	25	pa	ta	1	right	ta	1	1693
6105758d070f9b350cea24ba	DL_test	26	ga	ta	1	other	ka	0	868
6105758d070f9b350cea24ba	DL_test	27	ta	ba	1	right	ba	1	2201
6105758d070f9b350cea24ba	DL_test	28	ba	ka	1	right	ka	1	1515
6105758d070f9b350cea24ba	DL_test	29	ta	ga	1	left	ta	1	2097
6105758d070f9b350cea24ba	DL_test	30	da	ba	1	left	da	1	1284
6105758d070f9b350cea24ba	DL_test	31	ta	pa	1	right	pa	1	1739
6105758d070f9b350cea24ba	DL_test	32	ka	ga	1	left	ka	1	960
6105758d070f9b350cea24ba	DL_test	33	pa	da	1	other	ba	0	1930
6105758d070f9b350cea24ba	DL_test	34	ta	ta	0	left	ta	1	1551
6105758d070f9b350cea24ba	DL_test	35	ga	pa	1	right	pa	1	1330
6105758d070f9b350cea24ba	DL_test	36	da	ta	1	right	ta	1	1752
6105758d070f9b350cea24ba	DL_test	1	ga	da	1	left	ga	1	1255
6105758d070f9b350cea24ba	DL_test	2	ga	ta	1	other	ka	0	1577
6105758d070f9b350cea24ba	DL_test	3	pa	ga	1	left	pa	1	1331
6105758d070f9b350cea24ba	DL_test	4	da	ba	1	other	ta	0	2082
6105758d070f9b350cea24ba	DL_test	5	da	ta	1	right	ta	1	1160
6105758d070f9b350cea24ba	DL_test	6	ta	ga	1	right	ga	1	2010
6105758d070f9b350cea24ba	DL_test	7	pa	ta	1	left	pa	1	1105
6105758d070f9b350cea24ba	DL_test	8	ba	da	1	right	da	1	1532
6105758d070f9b350cea24ba	DL_test	9	pa	ka	1	left	pa	1	1860
6105758d070f9b350cea24ba	DL_test	10	ba	ga	1	left	ba	1	1684
6105758d070f9b350cea24ba	DL_test	11	ka	da	1	right	da	1	1148
6105758d070f9b350cea24ba	DL_test	12	ka	pa	1	left	ka	1	1889
6105758d070f9b350cea24ba	DL_test	13	pa	pa	0	left	pa	1	1327
6105758d070f9b350cea24ba	DL_test	14	ka	ka	0	left	ka	1	827
6105758d070f9b350cea24ba	DL_test	15	ka	ba	1	other	pa	0	2435
6105758d070f9b350cea24ba	DL_test	16	ba	ta	1	right	ta	1	1467
6105758d070f9b350cea24ba	DL_test	17	pa	da	1	right	da	1	1510
6105758d070f9b350cea24ba	DL_test	18	ga	pa	1	left	ga	1	2568
6105758d070f9b350cea24ba	DL_test	19	ga	ga	0	left	ga	1	768
6105758d070f9b350cea24ba	DL_test	20	da	pa	1	other	ka	0	843
6105758d070f9b350cea24ba	DL_test	21	ga	ka	1	right	ka	1	731
6105758d070f9b350cea24ba	DL_test	22	ka	ga	1	left	ka	1	692
6105758d070f9b350cea24ba	DL_test	23	ba	ba	0	left	ba	1	1460
6105758d070f9b350cea24ba	DL_test	24	ta	ba	1	other	pa	0	1380
6105758d070f9b350cea24ba	DL_test	25	ta	da	1	right	da	1	1801
6105758d070f9b350cea24ba	DL_test	26	ta	pa	1	left	ta	1	1547
6105758d070f9b350cea24ba	DL_test	27	da	da	0	left	da	1	1180
6105758d070f9b350cea24ba	DL_test	28	ba	pa	1	right	pa	1	1350
6105758d070f9b350cea24ba	DL_test	29	pa	ba	1	left	pa	1	4067
6105758d070f9b350cea24ba	DL_test	30	da	ka	1	other	pa	0	843
6105758d070f9b350cea24ba	DL_test	31	ga	ba	1	right	ba	1	1672
6105758d070f9b350cea24ba	DL_test	32	ka	ta	1	left	ka	1	2113
6105758d070f9b350cea24ba	DL_test	33	ba	ka	1	other	ga	0	2472
6105758d070f9b350cea24ba	DL_test	34	da	ga	1	right	ga	1	680
6105758d070f9b350cea24ba	DL_test	35	ta	ta	0	left	ta	1	1709
6105758d070f9b350cea24ba	DL_test	36	ta	ka	1	right	ka	1	1572
6105758d070f9b350cea24ba	DL_test	1	ka	pa	1	left	ka	1	2043
6105758d070f9b350cea24ba	DL_test	2	ba	ga	1	left	ba	1	2138
6105758d070f9b350cea24ba	DL_test	3	pa	ta	1	other	da	0	2184
6105758d070f9b350cea24ba	DL_test	4	ba	da	1	right	da	1	938
6105758d070f9b350cea24ba	DL_test	5	ba	ka	1	other	ga	0	1426
6105758d070f9b350cea24ba	DL_test	6	da	ta	1	right	ta	1	2176
6105758d070f9b350cea24ba	DL_test	7	ba	pa	1	right	pa	1	768
6105758d070f9b350cea24ba	DL_test	8	ka	ga	1	left	ka	1	1255
6105758d070f9b350cea24ba	DL_test	9	pa	da	1	other	ga	0	2000
6105758d070f9b350cea24ba	DL_test	10	pa	ka	1	left	pa	1	2242
6105758d070f9b350cea24ba	DL_test	11	ga	pa	1	other	ba	0	2330
6105758d070f9b350cea24ba	DL_test	12	ba	ta	1	right	ta	1	1471
6105758d070f9b350cea24ba	DL_test	13	ka	da	1	right	da	1	1484
6105758d070f9b350cea24ba	DL_test	14	ka	ta	1	left	ka	1	842
6105758d070f9b350cea24ba	DL_test	15	da	ba	1	left	da	1	1820
6105758d070f9b350cea24ba	DL_test	16	ga	ta	1	left	ga	1	1168
6105758d070f9b350cea24ba	DL_test	17	ka	ba	1	right	ba	1	1867
6105758d070f9b350cea24ba	DL_test	18	ta	ta	0	left	ta	1	1359
6105758d070f9b350cea24ba	DL_test	19	da	da	0	left	da	1	1538
6105758d070f9b350cea24ba	DL_test	20	ta	ka	1	right	ka	1	1426
6105758d070f9b350cea24ba	DL_test	21	da	ka	1	other	pa	0	768
6105758d070f9b350cea24ba	DL_test	22	ga	da	1	right	da	1	1346
6105758d070f9b350cea24ba	DL_test	23	ka	ka	0	left	ka	1	1446
6105758d070f9b350cea24ba	DL_test	24	ta	ga	1	left	ta	1	760
6105758d070f9b350cea24ba	DL_test	25	da	pa	1	other	ga	0	1704
6105758d070f9b350cea24ba	DL_test	26	ba	ba	0	left	ba	1	1346
6105758d070f9b350cea24ba	DL_test	27	da	ga	1	right	ga	1	1655
6105758d070f9b350cea24ba	DL_test	28	pa	ga	1	left	pa	1	1568
6105758d070f9b350cea24ba	DL_test	29	ga	ba	1	left	ga	1	1262
6105758d070f9b350cea24ba	DL_test	30	ga	ga	0	left	ga	1	656
6105758d070f9b350cea24ba	DL_test	31	ga	ka	1	right	ka	1	1138
6105758d070f9b350cea24ba	DL_test	32	ta	pa	1	left	ta	1	1876
6105758d070f9b350cea24ba	DL_test	33	pa	ba	1	left	pa	1	1242
6105758d070f9b350cea24ba	DL_test	34	ta	da	1	right	da	1	1071
6105758d070f9b350cea24ba	DL_test	35	ta	ba	1	right	ba	1	1429
6105758d070f9b350cea24ba	DL_test	36	pa	pa	0	left	pa	1	1821
