subject	block	trialnum	DL_leftSound	DL_rightSound	DL_dualSound	DL_choice	response	correct	rt
6108d6efa698e3dbe3b313d3	headphonecheck_testphase	3	NA	NA	0	NA	third	1	13674
6108d6efa698e3dbe3b313d3	headphonecheck_testphase	6	NA	NA	0	NA	first	1	1240
6108d6efa698e3dbe3b313d3	headphonecheck_testphase	9	NA	NA	0	NA	second	1	23104
6108d6efa698e3dbe3b313d3	headphonecheck_testphase	12	NA	NA	0	NA	third	1	514
6108d6efa698e3dbe3b313d3	headphonecheck_testphase	15	NA	NA	0	NA	second	1	4852
6108d6efa698e3dbe3b313d3	headphonecheck_testphase	18	NA	NA	0	NA	third	0	4165
6108d6efa698e3dbe3b313d3	stereocheck_testphase	3	NA	NA	0	NA	stereocheck_left	1	376
6108d6efa698e3dbe3b313d3	stereocheck_testphase	6	NA	NA	0	NA	stereocheck_left	1	378
6108d6efa698e3dbe3b313d3	stereocheck_testphase	9	NA	NA	0	NA	stereocheck_right	1	319
6108d6efa698e3dbe3b313d3	stereocheck_testphase	12	NA	NA	0	NA	stereocheck_right	1	334
6108d6efa698e3dbe3b313d3	stereocheck_testphase	15	NA	NA	0	NA	stereocheck_right	1	76
6108d6efa698e3dbe3b313d3	stereocheck_testphase	18	NA	NA	0	NA	stereocheck_left	1	404
6108d6efa698e3dbe3b313d3	DL_practice	2	da	da	0	left	da	1	1461
6108d6efa698e3dbe3b313d3	DL_practice	3	ga	ta	1	other	da	0	2711
6108d6efa698e3dbe3b313d3	DL_practice	4	ga	ga	0	other	ka	0	1994
6108d6efa698e3dbe3b313d3	DL_practice	5	ba	ba	0	other	pa	0	2534
6108d6efa698e3dbe3b313d3	DL_practice	6	ka	ka	0	left	ka	1	1206
6108d6efa698e3dbe3b313d3	DL_practice	7	ta	ta	0	left	ta	1	2212
6108d6efa698e3dbe3b313d3	DL_practice	8	da	ba	1	other	ta	0	5601
6108d6efa698e3dbe3b313d3	DL_practice	9	ka	pa	1	other	ba	0	305
6108d6efa698e3dbe3b313d3	DL_practice	10	pa	pa	0	left	pa	1	1576
6108d6efa698e3dbe3b313d3	DL_test	1	ka	ta	1	left	ka	1	1817
6108d6efa698e3dbe3b313d3	DL_test	2	ta	ka	1	right	ka	1	1926
6108d6efa698e3dbe3b313d3	DL_test	3	pa	ga	1	other	da	0	2592
6108d6efa698e3dbe3b313d3	DL_test	4	ba	ga	1	right	ga	1	2044
6108d6efa698e3dbe3b313d3	DL_test	5	ta	ba	1	other	pa	0	1827
6108d6efa698e3dbe3b313d3	DL_test	6	ga	ta	1	other	da	0	3813
6108d6efa698e3dbe3b313d3	DL_test	7	ga	ga	0	left	ga	1	1800
6108d6efa698e3dbe3b313d3	DL_test	8	ga	da	1	right	da	1	2243
6108d6efa698e3dbe3b313d3	DL_test	9	da	pa	1	right	pa	1	1480
6108d6efa698e3dbe3b313d3	DL_test	10	pa	da	1	right	da	1	2651
6108d6efa698e3dbe3b313d3	DL_test	11	ba	ta	1	other	ka	0	1565
6108d6efa698e3dbe3b313d3	DL_test	12	ba	da	1	right	da	1	1478
6108d6efa698e3dbe3b313d3	DL_test	13	pa	ta	1	other	ka	0	2554
6108d6efa698e3dbe3b313d3	DL_test	14	pa	pa	0	left	pa	1	1433
6108d6efa698e3dbe3b313d3	DL_test	15	pa	ba	1	left	pa	1	1168
6108d6efa698e3dbe3b313d3	DL_test	16	ga	ba	1	other	pa	0	1161
6108d6efa698e3dbe3b313d3	DL_test	17	ta	ta	0	left	ta	1	1636
6108d6efa698e3dbe3b313d3	DL_test	18	da	ga	1	left	da	1	1421
6108d6efa698e3dbe3b313d3	DL_test	19	pa	ka	1	right	ka	1	1379
6108d6efa698e3dbe3b313d3	DL_test	20	ba	ka	1	right	ka	1	1085
6108d6efa698e3dbe3b313d3	DL_test	21	ba	pa	1	right	pa	1	1326
6108d6efa698e3dbe3b313d3	DL_test	22	ka	ga	1	right	ga	1	1385
6108d6efa698e3dbe3b313d3	DL_test	23	da	da	0	left	da	1	977
6108d6efa698e3dbe3b313d3	DL_test	24	ga	ka	1	right	ka	1	1224
6108d6efa698e3dbe3b313d3	DL_test	25	ka	ba	1	other	pa	0	1264
6108d6efa698e3dbe3b313d3	DL_test	26	da	ba	1	other	pa	0	1431
6108d6efa698e3dbe3b313d3	DL_test	27	da	ta	1	other	ka	0	1335
6108d6efa698e3dbe3b313d3	DL_test	28	ta	da	1	right	da	1	2693
6108d6efa698e3dbe3b313d3	DL_test	29	ta	pa	1	right	pa	1	1605
6108d6efa698e3dbe3b313d3	DL_test	30	ka	pa	1	left	ka	1	1314
6108d6efa698e3dbe3b313d3	DL_test	31	ba	ba	0	other	pa	0	1724
6108d6efa698e3dbe3b313d3	DL_test	32	ta	ga	1	right	ga	1	1471
6108d6efa698e3dbe3b313d3	DL_test	33	ka	da	1	right	da	1	2100
6108d6efa698e3dbe3b313d3	DL_test	34	ga	pa	1	right	pa	1	1309
6108d6efa698e3dbe3b313d3	DL_test	35	ka	ka	0	left	ka	1	1364
6108d6efa698e3dbe3b313d3	DL_test	36	da	ka	1	other	pa	0	1466
6108d6efa698e3dbe3b313d3	DL_test	1	ba	ka	1	right	ka	1	1579
6108d6efa698e3dbe3b313d3	DL_test	2	ga	pa	1	right	pa	1	1497
6108d6efa698e3dbe3b313d3	DL_test	3	pa	pa	0	left	pa	1	1512
6108d6efa698e3dbe3b313d3	DL_test	4	pa	ta	1	other	ka	0	1687
6108d6efa698e3dbe3b313d3	DL_test	5	ta	da	1	right	da	1	1416
6108d6efa698e3dbe3b313d3	DL_test	6	pa	ba	1	left	pa	1	1344
6108d6efa698e3dbe3b313d3	DL_test	7	ta	ba	1	other	pa	0	1230
6108d6efa698e3dbe3b313d3	DL_test	8	ba	da	1	right	da	1	1311
6108d6efa698e3dbe3b313d3	DL_test	9	ta	pa	1	right	pa	1	1078
6108d6efa698e3dbe3b313d3	DL_test	10	ba	ta	1	other	ka	0	1114
6108d6efa698e3dbe3b313d3	DL_test	11	da	ga	1	left	da	1	1565
6108d6efa698e3dbe3b313d3	DL_test	12	ga	ka	1	right	ka	1	1160
6108d6efa698e3dbe3b313d3	DL_test	13	ga	ga	0	left	ga	1	1114
6108d6efa698e3dbe3b313d3	DL_test	14	ka	da	1	right	da	1	1742
6108d6efa698e3dbe3b313d3	DL_test	15	da	pa	1	right	pa	1	1552
6108d6efa698e3dbe3b313d3	DL_test	16	ka	ga	1	right	ga	1	1284
6108d6efa698e3dbe3b313d3	DL_test	17	ta	ta	0	left	ta	1	2727
6108d6efa698e3dbe3b313d3	DL_test	18	da	ka	1	other	pa	0	1422
6108d6efa698e3dbe3b313d3	DL_test	19	pa	ga	1	right	ga	1	1579
6108d6efa698e3dbe3b313d3	DL_test	20	pa	ka	1	right	ka	1	1084
6108d6efa698e3dbe3b313d3	DL_test	21	ka	ba	1	other	pa	0	1015
6108d6efa698e3dbe3b313d3	DL_test	22	ka	pa	1	right	pa	1	1219
6108d6efa698e3dbe3b313d3	DL_test	23	ba	ga	1	right	ga	1	1196
6108d6efa698e3dbe3b313d3	DL_test	24	ta	ka	1	right	ka	1	929
6108d6efa698e3dbe3b313d3	DL_test	25	ka	ka	0	left	ka	1	1447
6108d6efa698e3dbe3b313d3	DL_test	26	ta	ga	1	right	ga	1	1276
6108d6efa698e3dbe3b313d3	DL_test	27	ga	ta	1	other	ka	0	1414
6108d6efa698e3dbe3b313d3	DL_test	28	pa	da	1	right	da	1	1544
6108d6efa698e3dbe3b313d3	DL_test	29	ka	ta	1	left	ka	1	1415
6108d6efa698e3dbe3b313d3	DL_test	30	ba	ba	0	other	pa	0	1205
6108d6efa698e3dbe3b313d3	DL_test	31	ga	da	1	left	ga	1	2029
6108d6efa698e3dbe3b313d3	DL_test	32	ga	ba	1	left	ga	1	1675
6108d6efa698e3dbe3b313d3	DL_test	33	ba	pa	1	right	pa	1	2090
6108d6efa698e3dbe3b313d3	DL_test	34	da	da	0	left	da	1	1286
6108d6efa698e3dbe3b313d3	DL_test	35	da	ba	1	other	pa	0	1401
6108d6efa698e3dbe3b313d3	DL_test	36	da	ta	1	other	ka	0	1466
6108d6efa698e3dbe3b313d3	DL_test	1	pa	pa	0	left	pa	1	1282
6108d6efa698e3dbe3b313d3	DL_test	2	pa	ba	1	left	pa	1	1361
6108d6efa698e3dbe3b313d3	DL_test	3	ta	pa	1	right	pa	1	1209
6108d6efa698e3dbe3b313d3	DL_test	4	da	ga	1	right	ga	1	1349
6108d6efa698e3dbe3b313d3	DL_test	5	ka	ba	1	other	pa	0	1102
6108d6efa698e3dbe3b313d3	DL_test	6	da	ba	1	other	pa	0	854
6108d6efa698e3dbe3b313d3	DL_test	7	ga	da	1	right	da	1	1630
6108d6efa698e3dbe3b313d3	DL_test	8	pa	da	1	right	da	1	1063
6108d6efa698e3dbe3b313d3	DL_test	9	ga	ta	1	other	ka	0	1191
6108d6efa698e3dbe3b313d3	DL_test	10	ga	ga	0	left	ga	1	978
6108d6efa698e3dbe3b313d3	DL_test	11	ka	da	1	right	da	1	1173
6108d6efa698e3dbe3b313d3	DL_test	12	pa	ta	1	other	ka	0	1309
6108d6efa698e3dbe3b313d3	DL_test	13	ga	pa	1	right	pa	1	1296
6108d6efa698e3dbe3b313d3	DL_test	14	ka	pa	1	right	pa	1	1227
6108d6efa698e3dbe3b313d3	DL_test	15	ga	ba	1	other	pa	0	2594
6108d6efa698e3dbe3b313d3	DL_test	16	ba	pa	1	right	pa	1	1055
6108d6efa698e3dbe3b313d3	DL_test	17	ba	ba	0	other	pa	0	866
6108d6efa698e3dbe3b313d3	DL_test	18	ka	ka	0	left	ka	1	999
6108d6efa698e3dbe3b313d3	DL_test	19	ka	ta	1	left	ka	1	956
6108d6efa698e3dbe3b313d3	DL_test	20	pa	ka	1	right	ka	1	688
6108d6efa698e3dbe3b313d3	DL_test	21	ta	ga	1	right	ga	1	1204
6108d6efa698e3dbe3b313d3	DL_test	22	da	pa	1	right	pa	1	1741
6108d6efa698e3dbe3b313d3	DL_test	23	ba	ta	1	other	ka	0	1309
6108d6efa698e3dbe3b313d3	DL_test	24	da	da	0	left	da	1	1355
6108d6efa698e3dbe3b313d3	DL_test	25	pa	ga	1	right	ga	1	1006
6108d6efa698e3dbe3b313d3	DL_test	26	ga	ka	1	right	ka	1	1124
6108d6efa698e3dbe3b313d3	DL_test	27	da	ta	1	other	ka	0	1191
6108d6efa698e3dbe3b313d3	DL_test	28	ba	ga	1	right	ga	1	1199
6108d6efa698e3dbe3b313d3	DL_test	29	da	ka	1	other	pa	0	1235
6108d6efa698e3dbe3b313d3	DL_test	30	ka	ga	1	right	ga	1	1901
6108d6efa698e3dbe3b313d3	DL_test	31	ta	ka	1	right	ka	1	1054
6108d6efa698e3dbe3b313d3	DL_test	32	ta	da	1	right	da	1	1504
6108d6efa698e3dbe3b313d3	DL_test	33	ba	da	1	right	da	1	2631
6108d6efa698e3dbe3b313d3	DL_test	34	ta	ba	1	other	pa	0	1227
6108d6efa698e3dbe3b313d3	DL_test	35	ta	ta	0	other	ka	0	1923
6108d6efa698e3dbe3b313d3	DL_test	36	ba	ka	1	right	ka	1	1147
6108d6efa698e3dbe3b313d3	DL_test	1	ta	ka	1	right	ka	1	1101
6108d6efa698e3dbe3b313d3	DL_test	2	pa	ka	1	right	ka	1	816
6108d6efa698e3dbe3b313d3	DL_test	3	pa	da	1	right	da	1	1176
6108d6efa698e3dbe3b313d3	DL_test	4	ga	ta	1	other	ka	0	988
6108d6efa698e3dbe3b313d3	DL_test	5	ba	ka	1	right	ka	1	1027
6108d6efa698e3dbe3b313d3	DL_test	6	ga	pa	1	right	pa	1	1064
6108d6efa698e3dbe3b313d3	DL_test	7	da	pa	1	right	pa	1	1688
6108d6efa698e3dbe3b313d3	DL_test	8	ta	ta	0	left	ta	1	3729
6108d6efa698e3dbe3b313d3	DL_test	9	ta	da	1	right	da	1	1328
6108d6efa698e3dbe3b313d3	DL_test	10	da	ba	1	other	pa	0	1325
6108d6efa698e3dbe3b313d3	DL_test	11	ka	ta	1	left	ka	1	861
6108d6efa698e3dbe3b313d3	DL_test	12	da	ta	1	right	ta	1	4922
6108d6efa698e3dbe3b313d3	DL_test	13	ga	ka	1	right	ka	1	1208
6108d6efa698e3dbe3b313d3	DL_test	14	ba	ba	0	other	pa	0	1285
6108d6efa698e3dbe3b313d3	DL_test	15	pa	pa	0	left	pa	1	765
6108d6efa698e3dbe3b313d3	DL_test	16	ba	da	1	right	da	1	1352
6108d6efa698e3dbe3b313d3	DL_test	17	ta	pa	1	right	pa	1	1282
6108d6efa698e3dbe3b313d3	DL_test	18	ba	pa	1	right	pa	1	1094
6108d6efa698e3dbe3b313d3	DL_test	19	da	ka	1	other	pa	0	864
6108d6efa698e3dbe3b313d3	DL_test	20	ta	ba	1	other	pa	0	770
6108d6efa698e3dbe3b313d3	DL_test	21	ga	ga	0	left	ga	1	1290
6108d6efa698e3dbe3b313d3	DL_test	22	ka	ga	1	right	ga	1	949
6108d6efa698e3dbe3b313d3	DL_test	23	ka	ba	1	other	pa	0	1159
6108d6efa698e3dbe3b313d3	DL_test	24	ka	pa	1	right	pa	1	753
6108d6efa698e3dbe3b313d3	DL_test	25	da	da	0	left	da	1	2129
6108d6efa698e3dbe3b313d3	DL_test	26	ga	ba	1	other	pa	0	1383
6108d6efa698e3dbe3b313d3	DL_test	27	ga	da	1	right	da	1	1242
6108d6efa698e3dbe3b313d3	DL_test	28	pa	ta	1	other	ka	0	1671
6108d6efa698e3dbe3b313d3	DL_test	29	pa	ba	1	left	pa	1	952
6108d6efa698e3dbe3b313d3	DL_test	30	ka	ka	0	left	ka	1	1068
6108d6efa698e3dbe3b313d3	DL_test	31	pa	ga	1	right	ga	1	1105
6108d6efa698e3dbe3b313d3	DL_test	32	da	ga	1	right	ga	1	1174
6108d6efa698e3dbe3b313d3	DL_test	33	ba	ta	1	other	ka	0	1450
6108d6efa698e3dbe3b313d3	DL_test	34	ba	ga	1	right	ga	1	1176
6108d6efa698e3dbe3b313d3	DL_test	35	ka	da	1	right	da	1	1193
6108d6efa698e3dbe3b313d3	DL_test	36	ta	ga	1	right	ga	1	1482
