subject	block	trialnum	DL_leftSound	DL_rightSound	DL_dualSound	DL_choice	response	correct	rt
6116006273dc164b00631515	headphonecheck_testphase	3	NA	NA	0	NA	first	1	45925
6116006273dc164b00631515	headphonecheck_testphase	6	NA	NA	0	NA	first	0	582
6116006273dc164b00631515	headphonecheck_testphase	9	NA	NA	0	NA	third	1	216
6116006273dc164b00631515	headphonecheck_testphase	12	NA	NA	0	NA	third	1	146
6116006273dc164b00631515	headphonecheck_testphase	15	NA	NA	0	NA	second	1	160
6116006273dc164b00631515	headphonecheck_testphase	18	NA	NA	0	NA	third	0	249
6116006273dc164b00631515	stereocheck_testphase	3	NA	NA	0	NA	stereocheck_left	1	1089
6116006273dc164b00631515	stereocheck_testphase	6	NA	NA	0	NA	stereocheck_right	1	239
6116006273dc164b00631515	stereocheck_testphase	9	NA	NA	0	NA	stereocheck_left	1	220
6116006273dc164b00631515	stereocheck_testphase	12	NA	NA	0	NA	stereocheck_right	1	231
6116006273dc164b00631515	stereocheck_testphase	15	NA	NA	0	NA	stereocheck_left	1	197
6116006273dc164b00631515	stereocheck_testphase	18	NA	NA	0	NA	stereocheck_right	1	4437
6116006273dc164b00631515	DL_practice	2	ba	ba	0	left	ba	1	1685
6116006273dc164b00631515	DL_practice	3	ga	ga	0	left	ga	1	1426
6116006273dc164b00631515	DL_practice	4	ga	ta	1	other	ka	0	2602
6116006273dc164b00631515	DL_practice	5	da	ba	1	right	ba	1	1512
6116006273dc164b00631515	DL_practice	6	da	da	0	left	da	1	924
6116006273dc164b00631515	DL_practice	7	pa	pa	0	left	pa	1	1126
6116006273dc164b00631515	DL_practice	8	ta	ta	0	left	ta	1	1037
6116006273dc164b00631515	DL_practice	9	ka	ka	0	left	ka	1	1142
6116006273dc164b00631515	DL_practice	10	ka	pa	1	left	ka	1	929
6116006273dc164b00631515	DL_test	1	da	ga	1	right	ga	1	989
6116006273dc164b00631515	DL_test	2	ka	ta	1	left	ka	1	799
6116006273dc164b00631515	DL_test	3	da	pa	1	right	pa	1	1043
6116006273dc164b00631515	DL_test	4	ba	da	1	left	ba	1	1699
6116006273dc164b00631515	DL_test	5	da	ka	1	other	pa	0	1620
6116006273dc164b00631515	DL_test	6	ga	ta	1	other	ka	0	949
6116006273dc164b00631515	DL_test	7	da	da	0	left	da	1	837
6116006273dc164b00631515	DL_test	8	ba	ba	0	left	ba	1	890
6116006273dc164b00631515	DL_test	9	ba	ga	1	left	ba	1	1023
6116006273dc164b00631515	DL_test	10	pa	ka	1	right	ka	1	1229
6116006273dc164b00631515	DL_test	11	pa	pa	0	left	pa	1	1249
6116006273dc164b00631515	DL_test	12	ba	ta	1	other	ka	0	1723
6116006273dc164b00631515	DL_test	13	ba	ka	1	right	ka	1	657
6116006273dc164b00631515	DL_test	14	ta	ga	1	other	ka	0	556
6116006273dc164b00631515	DL_test	15	ka	pa	1	right	pa	1	1167
6116006273dc164b00631515	DL_test	16	ta	da	1	other	ka	0	859
6116006273dc164b00631515	DL_test	17	ga	da	1	left	ga	1	1039
6116006273dc164b00631515	DL_test	18	ka	ba	1	right	ba	1	2258
6116006273dc164b00631515	DL_test	19	ka	ga	1	left	ka	1	1029
6116006273dc164b00631515	DL_test	20	ga	ba	1	right	ba	1	1580
6116006273dc164b00631515	DL_test	21	da	ba	1	right	ba	1	1246
6116006273dc164b00631515	DL_test	22	ta	ka	1	right	ka	1	1733
6116006273dc164b00631515	DL_test	23	ga	ka	1	right	ka	1	648
6116006273dc164b00631515	DL_test	24	ta	pa	1	right	pa	1	1047
6116006273dc164b00631515	DL_test	25	ka	da	1	left	ka	1	1006
6116006273dc164b00631515	DL_test	26	pa	ba	1	left	pa	1	1284
6116006273dc164b00631515	DL_test	27	ta	ba	1	other	pa	0	747
6116006273dc164b00631515	DL_test	28	ta	ta	0	other	ka	0	1390
6116006273dc164b00631515	DL_test	29	pa	ga	1	left	pa	1	1260
6116006273dc164b00631515	DL_test	30	ga	ga	0	left	ga	1	924
6116006273dc164b00631515	DL_test	31	ba	pa	1	right	pa	1	936
6116006273dc164b00631515	DL_test	32	pa	da	1	left	pa	1	1248
6116006273dc164b00631515	DL_test	33	ka	ka	0	left	ka	1	715
6116006273dc164b00631515	DL_test	34	ga	pa	1	right	pa	1	1014
6116006273dc164b00631515	DL_test	35	pa	ta	1	left	pa	1	1168
6116006273dc164b00631515	DL_test	36	da	ta	1	other	ka	0	1009
6116006273dc164b00631515	DL_test	1	ga	pa	1	right	pa	1	1230
6116006273dc164b00631515	DL_test	2	ta	ga	1	other	ka	0	1144
6116006273dc164b00631515	DL_test	3	ta	ba	1	other	pa	0	1484
6116006273dc164b00631515	DL_test	4	pa	da	1	left	pa	1	836
6116006273dc164b00631515	DL_test	5	pa	pa	0	left	pa	1	666
6116006273dc164b00631515	DL_test	6	ta	pa	1	right	pa	1	909
6116006273dc164b00631515	DL_test	7	pa	ba	1	left	pa	1	683
6116006273dc164b00631515	DL_test	8	ka	ba	1	left	ka	1	831
6116006273dc164b00631515	DL_test	9	ka	ka	0	left	ka	1	647
6116006273dc164b00631515	DL_test	10	pa	ka	1	left	pa	1	1067
6116006273dc164b00631515	DL_test	11	ka	ta	1	left	ka	1	1367
6116006273dc164b00631515	DL_test	12	da	pa	1	right	pa	1	1255
6116006273dc164b00631515	DL_test	13	ba	ba	0	left	ba	1	1153
6116006273dc164b00631515	DL_test	14	ba	da	1	left	ba	1	971
6116006273dc164b00631515	DL_test	15	ga	ga	0	left	ga	1	1453
6116006273dc164b00631515	DL_test	16	pa	ta	1	left	pa	1	1048
6116006273dc164b00631515	DL_test	17	da	ka	1	other	pa	0	878
6116006273dc164b00631515	DL_test	18	ga	ka	1	right	ka	1	937
6116006273dc164b00631515	DL_test	19	da	ga	1	right	ga	1	770
6116006273dc164b00631515	DL_test	20	ka	ga	1	left	ka	1	1069
6116006273dc164b00631515	DL_test	21	da	ba	1	right	ba	1	1465
6116006273dc164b00631515	DL_test	22	pa	ga	1	left	pa	1	2318
6116006273dc164b00631515	DL_test	23	da	da	0	left	da	1	978
6116006273dc164b00631515	DL_test	24	ta	da	1	other	pa	0	1144
6116006273dc164b00631515	DL_test	25	ka	pa	1	right	pa	1	869
6116006273dc164b00631515	DL_test	26	ba	ga	1	left	ba	1	1442
6116006273dc164b00631515	DL_test	27	ta	ka	1	right	ka	1	1349
6116006273dc164b00631515	DL_test	28	ta	ta	0	left	ta	1	2385
6116006273dc164b00631515	DL_test	29	ga	ta	1	other	ka	0	1821
6116006273dc164b00631515	DL_test	30	ga	ba	1	right	ba	1	1537
6116006273dc164b00631515	DL_test	31	da	ta	1	right	ta	1	1607
6116006273dc164b00631515	DL_test	32	ka	da	1	left	ka	1	993
6116006273dc164b00631515	DL_test	33	ba	ka	1	other	pa	0	1016
6116006273dc164b00631515	DL_test	34	ba	ta	1	other	pa	0	996
6116006273dc164b00631515	DL_test	35	ga	da	1	left	ga	1	1294
6116006273dc164b00631515	DL_test	36	ba	pa	1	right	pa	1	1065
6116006273dc164b00631515	DL_test	1	ka	ka	0	left	ka	1	1274
6116006273dc164b00631515	DL_test	2	ba	ka	1	right	ka	1	855
6116006273dc164b00631515	DL_test	3	ba	ba	0	left	ba	1	996
6116006273dc164b00631515	DL_test	4	ta	pa	1	other	ka	0	1246
6116006273dc164b00631515	DL_test	5	ka	ba	1	left	ka	1	954
6116006273dc164b00631515	DL_test	6	ga	ka	1	right	ka	1	812
6116006273dc164b00631515	DL_test	7	pa	da	1	right	da	1	1507
6116006273dc164b00631515	DL_test	8	da	da	0	left	da	1	846
6116006273dc164b00631515	DL_test	9	ga	ba	1	right	ba	1	1756
6116006273dc164b00631515	DL_test	10	ga	pa	1	right	pa	1	1224
6116006273dc164b00631515	DL_test	11	ga	ga	0	left	ga	1	1084
6116006273dc164b00631515	DL_test	12	ka	ga	1	left	ka	1	1318
6116006273dc164b00631515	DL_test	13	pa	ta	1	right	ta	1	1715
6116006273dc164b00631515	DL_test	14	ga	ta	1	other	ka	0	1233
6116006273dc164b00631515	DL_test	15	da	pa	1	right	pa	1	955
6116006273dc164b00631515	DL_test	16	ta	ta	0	left	ta	1	1631
6116006273dc164b00631515	DL_test	17	ba	pa	1	right	pa	1	1422
6116006273dc164b00631515	DL_test	18	pa	pa	0	left	pa	1	932
6116006273dc164b00631515	DL_test	19	da	ka	1	right	ka	1	803
6116006273dc164b00631515	DL_test	20	ka	pa	1	left	ka	1	765
6116006273dc164b00631515	DL_test	21	pa	ga	1	right	ga	1	1867
6116006273dc164b00631515	DL_test	22	ga	da	1	left	ga	1	1004
6116006273dc164b00631515	DL_test	23	ka	da	1	left	ka	1	2154
6116006273dc164b00631515	DL_test	24	da	ta	1	right	ta	1	1397
6116006273dc164b00631515	DL_test	25	ba	da	1	left	ba	1	1046
6116006273dc164b00631515	DL_test	26	ka	ta	1	left	ka	1	932
6116006273dc164b00631515	DL_test	27	pa	ba	1	left	pa	1	1036
6116006273dc164b00631515	DL_test	28	ta	ga	1	other	ka	0	1548
6116006273dc164b00631515	DL_test	29	da	ba	1	left	da	1	921
6116006273dc164b00631515	DL_test	30	ta	da	1	left	ta	1	1871
6116006273dc164b00631515	DL_test	31	pa	ka	1	right	ka	1	1923
6116006273dc164b00631515	DL_test	32	ta	ka	1	right	ka	1	569
6116006273dc164b00631515	DL_test	33	ta	ba	1	other	pa	0	796
6116006273dc164b00631515	DL_test	34	ba	ga	1	right	ga	1	1252
6116006273dc164b00631515	DL_test	35	ba	ta	1	right	ta	1	1428
6116006273dc164b00631515	DL_test	36	da	ga	1	right	ga	1	1239
6116006273dc164b00631515	DL_test	1	ba	ta	1	other	ka	0	1147
6116006273dc164b00631515	DL_test	2	ta	ba	1	other	pa	0	994
6116006273dc164b00631515	DL_test	3	ka	pa	1	left	ka	1	1231
6116006273dc164b00631515	DL_test	4	ga	pa	1	other	ka	0	692
6116006273dc164b00631515	DL_test	5	ba	da	1	right	da	1	2160
6116006273dc164b00631515	DL_test	6	ta	ka	1	right	ka	1	1223
6116006273dc164b00631515	DL_test	7	da	ba	1	right	ba	1	1133
6116006273dc164b00631515	DL_test	8	da	ka	1	other	pa	0	1544
6116006273dc164b00631515	DL_test	9	ga	da	1	left	ga	1	735
6116006273dc164b00631515	DL_test	10	ba	ba	0	left	ba	1	1599
6116006273dc164b00631515	DL_test	11	ka	ta	1	left	ka	1	1583
6116006273dc164b00631515	DL_test	12	ka	da	1	left	ka	1	773
6116006273dc164b00631515	DL_test	13	ga	ta	1	other	ka	0	524
6116006273dc164b00631515	DL_test	14	ba	ka	1	right	ka	1	640
6116006273dc164b00631515	DL_test	15	ka	ba	1	right	ba	1	1404
6116006273dc164b00631515	DL_test	16	pa	ka	1	right	ka	1	1139
6116006273dc164b00631515	DL_test	17	pa	ga	1	left	pa	1	1335
6116006273dc164b00631515	DL_test	18	da	pa	1	right	pa	1	771
6116006273dc164b00631515	DL_test	19	ka	ga	1	left	ka	1	1504
6116006273dc164b00631515	DL_test	20	ka	ka	0	left	ka	1	648
6116006273dc164b00631515	DL_test	21	ba	pa	1	right	pa	1	1022
6116006273dc164b00631515	DL_test	22	ta	pa	1	right	pa	1	711
6116006273dc164b00631515	DL_test	23	ta	da	1	other	ka	0	1476
6116006273dc164b00631515	DL_test	24	ga	ka	1	right	ka	1	582
6116006273dc164b00631515	DL_test	25	da	da	0	left	da	1	1002
6116006273dc164b00631515	DL_test	26	pa	da	1	left	pa	1	1963
6116006273dc164b00631515	DL_test	27	da	ta	1	right	ta	1	1341
6116006273dc164b00631515	DL_test	28	ga	ga	0	left	ga	1	1252
6116006273dc164b00631515	DL_test	29	ba	ga	1	left	ba	1	2103
6116006273dc164b00631515	DL_test	30	ta	ta	0	left	ta	1	1613
6116006273dc164b00631515	DL_test	31	pa	ba	1	left	pa	1	1334
6116006273dc164b00631515	DL_test	32	pa	pa	0	left	pa	1	1104
6116006273dc164b00631515	DL_test	33	da	ga	1	right	ga	1	1108
6116006273dc164b00631515	DL_test	34	ta	ga	1	other	ka	0	1203
6116006273dc164b00631515	DL_test	35	pa	ta	1	left	pa	1	1285
6116006273dc164b00631515	DL_test	36	ga	ba	1	right	ba	1	1030
