subject	block	trialnum	DL_leftSound	DL_rightSound	DL_dualSound	DL_choice	response	correct	rt
613b94b83b5cb4c72904f8b3	headphonecheck_testphase	3	NA	NA	0	NA	first	1	20495
613b94b83b5cb4c72904f8b3	headphonecheck_testphase	6	NA	NA	0	NA	second	1	701
613b94b83b5cb4c72904f8b3	headphonecheck_testphase	9	NA	NA	0	NA	second	1	907
613b94b83b5cb4c72904f8b3	headphonecheck_testphase	12	NA	NA	0	NA	third	1	208
613b94b83b5cb4c72904f8b3	headphonecheck_testphase	15	NA	NA	0	NA	third	1	274
613b94b83b5cb4c72904f8b3	headphonecheck_testphase	18	NA	NA	0	NA	second	0	381
613b94b83b5cb4c72904f8b3	stereocheck_testphase	3	NA	NA	0	NA	stereocheck_left	0	3225
613b94b83b5cb4c72904f8b3	stereocheck_testphase	6	NA	NA	0	NA	stereocheck_right	0	1918
613b94b83b5cb4c72904f8b3	stereocheck_testphase	9	NA	NA	0	NA	stereocheck_left	0	1228
613b94b83b5cb4c72904f8b3	stereocheck_testphase	12	NA	NA	0	NA	stereocheck_right	0	943
613b94b83b5cb4c72904f8b3	stereocheck_testphase	15	NA	NA	0	NA	stereocheck_left	1	521
613b94b83b5cb4c72904f8b3	stereocheck_testphase	18	NA	NA	0	NA	stereocheck_right	1	254
613b94b83b5cb4c72904f8b3	DL_practice	2	ga	ga	0	left	ga	1	1200
613b94b83b5cb4c72904f8b3	DL_practice	3	ka	pa	1	left	ka	1	1303
613b94b83b5cb4c72904f8b3	DL_practice	4	da	da	0	left	da	1	1301
613b94b83b5cb4c72904f8b3	DL_practice	5	ka	ka	0	left	ka	1	1167
613b94b83b5cb4c72904f8b3	DL_practice	6	ba	ba	0	left	ba	1	1274
613b94b83b5cb4c72904f8b3	DL_practice	7	ta	ta	0	other	ka	0	1514
613b94b83b5cb4c72904f8b3	DL_practice	8	ga	ta	1	left	ga	1	1175
613b94b83b5cb4c72904f8b3	DL_practice	9	da	ba	1	right	ba	1	1055
613b94b83b5cb4c72904f8b3	DL_practice	10	pa	pa	0	left	pa	1	1243
613b94b83b5cb4c72904f8b3	DL_test	1	ta	ta	0	left	ta	1	1497
613b94b83b5cb4c72904f8b3	DL_test	2	da	ta	1	left	da	1	1252
613b94b83b5cb4c72904f8b3	DL_test	3	pa	ga	1	right	ga	1	793
613b94b83b5cb4c72904f8b3	DL_test	4	da	ba	1	right	ba	1	1056
613b94b83b5cb4c72904f8b3	DL_test	5	ta	pa	1	right	pa	1	1257
613b94b83b5cb4c72904f8b3	DL_test	6	pa	da	1	right	da	1	1227
613b94b83b5cb4c72904f8b3	DL_test	7	ka	ba	1	right	ba	1	1027
613b94b83b5cb4c72904f8b3	DL_test	8	ga	da	1	left	ga	1	872
613b94b83b5cb4c72904f8b3	DL_test	9	ka	ka	0	left	ka	1	805
613b94b83b5cb4c72904f8b3	DL_test	10	ba	ga	1	left	ba	1	909
613b94b83b5cb4c72904f8b3	DL_test	11	ta	ga	1	right	ga	1	755
613b94b83b5cb4c72904f8b3	DL_test	12	da	ka	1	other	ba	0	928
613b94b83b5cb4c72904f8b3	DL_test	13	ka	pa	1	right	pa	1	1334
613b94b83b5cb4c72904f8b3	DL_test	14	ka	ga	1	right	ga	1	937
613b94b83b5cb4c72904f8b3	DL_test	15	ta	da	1	right	da	1	1122
613b94b83b5cb4c72904f8b3	DL_test	16	da	ga	1	right	ga	1	1175
613b94b83b5cb4c72904f8b3	DL_test	17	ka	ta	1	left	ka	1	988
613b94b83b5cb4c72904f8b3	DL_test	18	pa	ka	1	right	ka	1	920
613b94b83b5cb4c72904f8b3	DL_test	19	pa	pa	0	left	pa	1	855
613b94b83b5cb4c72904f8b3	DL_test	20	ba	ta	1	left	ba	1	1184
613b94b83b5cb4c72904f8b3	DL_test	21	ba	pa	1	left	ba	1	837
613b94b83b5cb4c72904f8b3	DL_test	22	pa	ta	1	right	ta	1	1273
613b94b83b5cb4c72904f8b3	DL_test	23	ba	da	1	left	ba	1	1006
613b94b83b5cb4c72904f8b3	DL_test	24	ba	ba	0	left	ba	1	836
613b94b83b5cb4c72904f8b3	DL_test	25	ga	ga	0	left	ga	1	940
613b94b83b5cb4c72904f8b3	DL_test	26	da	pa	1	other	ga	0	944
613b94b83b5cb4c72904f8b3	DL_test	27	da	da	0	left	da	1	823
613b94b83b5cb4c72904f8b3	DL_test	28	ta	ka	1	right	ka	1	1513
613b94b83b5cb4c72904f8b3	DL_test	29	ta	ba	1	right	ba	1	1117
613b94b83b5cb4c72904f8b3	DL_test	30	ga	ka	1	left	ga	1	794
613b94b83b5cb4c72904f8b3	DL_test	31	ka	da	1	right	da	1	1039
613b94b83b5cb4c72904f8b3	DL_test	32	ga	ba	1	other	ta	0	1193
613b94b83b5cb4c72904f8b3	DL_test	33	ga	ta	1	left	ga	1	1140
613b94b83b5cb4c72904f8b3	DL_test	34	ba	ka	1	left	ba	1	1172
613b94b83b5cb4c72904f8b3	DL_test	35	pa	ba	1	right	ba	1	2277
613b94b83b5cb4c72904f8b3	DL_test	36	ga	pa	1	left	ga	1	944
613b94b83b5cb4c72904f8b3	DL_test	1	ba	ba	0	left	ba	1	927
613b94b83b5cb4c72904f8b3	DL_test	2	ga	da	1	left	ga	1	761
613b94b83b5cb4c72904f8b3	DL_test	3	da	da	0	other	ga	0	1173
613b94b83b5cb4c72904f8b3	DL_test	4	ta	pa	1	left	ta	1	1020
613b94b83b5cb4c72904f8b3	DL_test	5	ba	da	1	left	ba	1	889
613b94b83b5cb4c72904f8b3	DL_test	6	pa	ka	1	right	ka	1	1026
613b94b83b5cb4c72904f8b3	DL_test	7	ba	ka	1	left	ba	1	905
613b94b83b5cb4c72904f8b3	DL_test	8	pa	pa	0	left	pa	1	905
613b94b83b5cb4c72904f8b3	DL_test	9	ta	ka	1	right	ka	1	938
613b94b83b5cb4c72904f8b3	DL_test	10	ta	ta	0	left	ta	1	1069
613b94b83b5cb4c72904f8b3	DL_test	11	ka	ka	0	left	ka	1	872
613b94b83b5cb4c72904f8b3	DL_test	12	da	ka	1	other	ga	0	827
613b94b83b5cb4c72904f8b3	DL_test	13	pa	da	1	right	da	1	871
613b94b83b5cb4c72904f8b3	DL_test	14	da	ta	1	left	da	1	489
613b94b83b5cb4c72904f8b3	DL_test	15	ba	ga	1	left	ba	1	872
613b94b83b5cb4c72904f8b3	DL_test	16	ta	da	1	other	ba	0	756
613b94b83b5cb4c72904f8b3	DL_test	17	ba	pa	1	left	ba	1	660
613b94b83b5cb4c72904f8b3	DL_test	18	ka	ta	1	left	ka	1	927
613b94b83b5cb4c72904f8b3	DL_test	19	ba	ta	1	other	pa	0	1724
613b94b83b5cb4c72904f8b3	DL_test	20	ga	ka	1	left	ga	1	742
613b94b83b5cb4c72904f8b3	DL_test	21	ta	ga	1	right	ga	1	655
613b94b83b5cb4c72904f8b3	DL_test	22	ta	ba	1	right	ba	1	922
613b94b83b5cb4c72904f8b3	DL_test	23	ga	ga	0	left	ga	1	1025
613b94b83b5cb4c72904f8b3	DL_test	24	pa	ta	1	right	ta	1	907
613b94b83b5cb4c72904f8b3	DL_test	25	da	ba	1	right	ba	1	1156
613b94b83b5cb4c72904f8b3	DL_test	26	pa	ga	1	right	ga	1	956
613b94b83b5cb4c72904f8b3	DL_test	27	ka	ba	1	right	ba	1	923
613b94b83b5cb4c72904f8b3	DL_test	28	da	pa	1	left	da	1	785
613b94b83b5cb4c72904f8b3	DL_test	29	ga	ta	1	left	ga	1	752
613b94b83b5cb4c72904f8b3	DL_test	30	da	ga	1	right	ga	1	655
613b94b83b5cb4c72904f8b3	DL_test	31	ga	pa	1	left	ga	1	573
613b94b83b5cb4c72904f8b3	DL_test	32	pa	ba	1	right	ba	1	873
613b94b83b5cb4c72904f8b3	DL_test	33	ka	pa	1	left	ka	1	1179
613b94b83b5cb4c72904f8b3	DL_test	34	ka	ga	1	right	ga	1	922
613b94b83b5cb4c72904f8b3	DL_test	35	ga	ba	1	right	ba	1	873
613b94b83b5cb4c72904f8b3	DL_test	36	ka	da	1	other	ga	0	727
613b94b83b5cb4c72904f8b3	DL_test	1	ba	ga	1	left	ba	1	844
613b94b83b5cb4c72904f8b3	DL_test	2	da	ga	1	right	ga	1	890
613b94b83b5cb4c72904f8b3	DL_test	3	ba	pa	1	left	ba	1	670
613b94b83b5cb4c72904f8b3	DL_test	4	ta	da	1	right	da	1	623
613b94b83b5cb4c72904f8b3	DL_test	5	ka	ta	1	left	ka	1	976
613b94b83b5cb4c72904f8b3	DL_test	6	ba	ta	1	left	ba	1	789
613b94b83b5cb4c72904f8b3	DL_test	7	ka	pa	1	left	ka	1	889
613b94b83b5cb4c72904f8b3	DL_test	8	ga	ga	0	left	ga	1	744
613b94b83b5cb4c72904f8b3	DL_test	9	ga	pa	1	left	ga	1	556
613b94b83b5cb4c72904f8b3	DL_test	10	ba	ka	1	left	ba	1	907
613b94b83b5cb4c72904f8b3	DL_test	11	ta	ba	1	right	ba	1	855
613b94b83b5cb4c72904f8b3	DL_test	12	pa	ta	1	right	ta	1	1103
613b94b83b5cb4c72904f8b3	DL_test	13	da	ta	1	other	ga	0	921
613b94b83b5cb4c72904f8b3	DL_test	14	da	pa	1	other	ga	0	594
613b94b83b5cb4c72904f8b3	DL_test	15	ta	ga	1	right	ga	1	521
613b94b83b5cb4c72904f8b3	DL_test	16	ka	ga	1	right	ga	1	489
613b94b83b5cb4c72904f8b3	DL_test	17	ga	da	1	left	ga	1	739
613b94b83b5cb4c72904f8b3	DL_test	18	da	ba	1	right	ba	1	1152
613b94b83b5cb4c72904f8b3	DL_test	19	ga	ta	1	left	ga	1	689
613b94b83b5cb4c72904f8b3	DL_test	20	ta	pa	1	left	ta	1	1090
613b94b83b5cb4c72904f8b3	DL_test	21	ta	ta	0	left	ta	1	977
613b94b83b5cb4c72904f8b3	DL_test	22	ka	da	1	other	ga	0	756
613b94b83b5cb4c72904f8b3	DL_test	23	ga	ba	1	right	ba	1	863
613b94b83b5cb4c72904f8b3	DL_test	24	da	ka	1	other	ga	0	1202
613b94b83b5cb4c72904f8b3	DL_test	25	ba	da	1	left	ba	1	606
613b94b83b5cb4c72904f8b3	DL_test	26	ka	ba	1	right	ba	1	623
613b94b83b5cb4c72904f8b3	DL_test	27	ka	ka	0	left	ka	1	973
613b94b83b5cb4c72904f8b3	DL_test	28	pa	da	1	other	ga	0	1289
613b94b83b5cb4c72904f8b3	DL_test	29	ba	ba	0	left	ba	1	922
613b94b83b5cb4c72904f8b3	DL_test	30	pa	pa	0	left	pa	1	1090
613b94b83b5cb4c72904f8b3	DL_test	31	pa	ka	1	right	ka	1	1594
613b94b83b5cb4c72904f8b3	DL_test	32	pa	ga	1	right	ga	1	844
613b94b83b5cb4c72904f8b3	DL_test	33	ga	ka	1	left	ga	1	756
613b94b83b5cb4c72904f8b3	DL_test	34	pa	ba	1	right	ba	1	770
613b94b83b5cb4c72904f8b3	DL_test	35	ta	ka	1	right	ka	1	921
613b94b83b5cb4c72904f8b3	DL_test	36	da	da	0	other	ga	0	822
613b94b83b5cb4c72904f8b3	DL_test	1	ga	ba	1	right	ba	1	915
613b94b83b5cb4c72904f8b3	DL_test	2	ba	ga	1	left	ba	1	560
613b94b83b5cb4c72904f8b3	DL_test	3	ta	da	1	other	ga	0	844
613b94b83b5cb4c72904f8b3	DL_test	4	da	pa	1	other	ga	0	623
613b94b83b5cb4c72904f8b3	DL_test	5	da	ta	1	other	ga	0	670
613b94b83b5cb4c72904f8b3	DL_test	6	ba	ta	1	left	ba	1	1057
613b94b83b5cb4c72904f8b3	DL_test	7	ka	ka	0	left	ka	1	994
613b94b83b5cb4c72904f8b3	DL_test	8	ka	pa	1	left	ka	1	655
613b94b83b5cb4c72904f8b3	DL_test	9	pa	da	1	other	ga	0	842
613b94b83b5cb4c72904f8b3	DL_test	10	ga	ka	1	left	ga	1	638
613b94b83b5cb4c72904f8b3	DL_test	11	pa	ta	1	right	ta	1	1027
613b94b83b5cb4c72904f8b3	DL_test	12	da	da	0	other	ga	0	911
613b94b83b5cb4c72904f8b3	DL_test	13	ba	da	1	left	ba	1	902
613b94b83b5cb4c72904f8b3	DL_test	14	ta	pa	1	left	ta	1	1087
613b94b83b5cb4c72904f8b3	DL_test	15	ka	da	1	other	ga	0	906
613b94b83b5cb4c72904f8b3	DL_test	16	ba	pa	1	left	ba	1	810
613b94b83b5cb4c72904f8b3	DL_test	17	ga	ga	0	left	ga	1	756
613b94b83b5cb4c72904f8b3	DL_test	18	ka	ba	1	other	pa	0	1592
613b94b83b5cb4c72904f8b3	DL_test	19	pa	pa	0	left	pa	1	706
613b94b83b5cb4c72904f8b3	DL_test	20	ka	ga	1	right	ga	1	820
613b94b83b5cb4c72904f8b3	DL_test	21	ba	ba	0	left	ba	1	923
613b94b83b5cb4c72904f8b3	DL_test	22	da	ka	1	other	ga	0	1225
613b94b83b5cb4c72904f8b3	DL_test	23	da	ba	1	right	ba	1	944
613b94b83b5cb4c72904f8b3	DL_test	24	ta	ka	1	right	ka	1	853
613b94b83b5cb4c72904f8b3	DL_test	25	pa	ka	1	right	ka	1	944
613b94b83b5cb4c72904f8b3	DL_test	26	pa	ga	1	right	ga	1	770
613b94b83b5cb4c72904f8b3	DL_test	27	ga	ta	1	left	ga	1	688
613b94b83b5cb4c72904f8b3	DL_test	28	ka	ta	1	left	ka	1	915
613b94b83b5cb4c72904f8b3	DL_test	29	ta	ba	1	right	ba	1	1100
613b94b83b5cb4c72904f8b3	DL_test	30	pa	ba	1	right	ba	1	956
613b94b83b5cb4c72904f8b3	DL_test	31	ba	ka	1	left	ba	1	557
613b94b83b5cb4c72904f8b3	DL_test	32	ga	pa	1	left	ga	1	911
613b94b83b5cb4c72904f8b3	DL_test	33	ta	ga	1	right	ga	1	573
613b94b83b5cb4c72904f8b3	DL_test	34	ta	ta	0	left	ta	1	1353
613b94b83b5cb4c72904f8b3	DL_test	35	da	ga	1	right	ga	1	920
613b94b83b5cb4c72904f8b3	DL_test	36	ga	da	1	left	ga	1	577
