subject	block	trialnum	DL_leftSound	DL_rightSound	DL_dualSound	DL_choice	response	correct	rt
6153593be7f8925dee8d7db6	headphonecheck_testphase	3	NA	NA	0	NA	second	0	1235
6153593be7f8925dee8d7db6	headphonecheck_testphase	6	NA	NA	0	NA	third	0	2576
6153593be7f8925dee8d7db6	headphonecheck_testphase	9	NA	NA	0	NA	first	0	1736
6153593be7f8925dee8d7db6	headphonecheck_testphase	12	NA	NA	0	NA	third	0	652
6153593be7f8925dee8d7db6	headphonecheck_testphase	15	NA	NA	0	NA	second	0	590
6153593be7f8925dee8d7db6	headphonecheck_testphase	18	NA	NA	0	NA	first	0	1034
6153593be7f8925dee8d7db6	stereocheck_testphase	3	NA	NA	0	NA	stereocheck_right	1	6775
6153593be7f8925dee8d7db6	stereocheck_testphase	6	NA	NA	0	NA	stereocheck_right	1	1006
6153593be7f8925dee8d7db6	stereocheck_testphase	9	NA	NA	0	NA	stereocheck_left	1	2111
6153593be7f8925dee8d7db6	stereocheck_testphase	12	NA	NA	0	NA	stereocheck_left	1	39
6153593be7f8925dee8d7db6	stereocheck_testphase	15	NA	NA	0	NA	stereocheck_right	1	571
6153593be7f8925dee8d7db6	stereocheck_testphase	18	NA	NA	0	NA	stereocheck_left	1	525
6153593be7f8925dee8d7db6	DL_practice	2	ga	ta	1	left	ga	1	1980
6153593be7f8925dee8d7db6	DL_practice	3	da	ba	1	right	ba	1	1931
6153593be7f8925dee8d7db6	DL_practice	4	ba	ba	0	left	ba	1	1162
6153593be7f8925dee8d7db6	DL_practice	5	ta	ta	0	left	ta	1	2018
6153593be7f8925dee8d7db6	DL_practice	6	ka	pa	1	left	ka	1	1306
6153593be7f8925dee8d7db6	DL_practice	7	pa	pa	0	left	pa	1	1675
6153593be7f8925dee8d7db6	DL_practice	8	ka	ka	0	left	ka	1	1070
6153593be7f8925dee8d7db6	DL_practice	9	ga	ga	0	other	ka	0	974
6153593be7f8925dee8d7db6	DL_practice	10	da	da	0	left	da	1	1624
6153593be7f8925dee8d7db6	DL_test	1	ka	ba	1	right	ba	1	1911
6153593be7f8925dee8d7db6	DL_test	2	ga	da	1	left	ga	1	1369
6153593be7f8925dee8d7db6	DL_test	3	ka	pa	1	left	ka	1	1280
6153593be7f8925dee8d7db6	DL_test	4	da	pa	1	left	da	1	1412
6153593be7f8925dee8d7db6	DL_test	5	da	da	0	left	da	1	861
6153593be7f8925dee8d7db6	DL_test	6	da	ka	1	left	da	1	857
6153593be7f8925dee8d7db6	DL_test	7	ga	pa	1	left	ga	1	1370
6153593be7f8925dee8d7db6	DL_test	8	ta	pa	1	left	ta	1	1533
6153593be7f8925dee8d7db6	DL_test	9	ba	ba	0	left	ba	1	1740
6153593be7f8925dee8d7db6	DL_test	10	ba	pa	1	left	ba	1	1330
6153593be7f8925dee8d7db6	DL_test	11	ga	ta	1	left	ga	1	1216
6153593be7f8925dee8d7db6	DL_test	12	da	ta	1	left	da	1	1272
6153593be7f8925dee8d7db6	DL_test	13	pa	ta	1	right	ta	1	1574
6153593be7f8925dee8d7db6	DL_test	14	ka	ga	1	right	ga	1	1297
6153593be7f8925dee8d7db6	DL_test	15	ga	ga	0	left	ga	1	1016
6153593be7f8925dee8d7db6	DL_test	16	ta	ga	1	right	ga	1	742
6153593be7f8925dee8d7db6	DL_test	17	ta	ka	1	right	ka	1	1373
6153593be7f8925dee8d7db6	DL_test	18	pa	ka	1	right	ka	1	1153
6153593be7f8925dee8d7db6	DL_test	19	pa	ga	1	right	ga	1	2235
6153593be7f8925dee8d7db6	DL_test	20	ta	ta	0	left	ta	1	1592
6153593be7f8925dee8d7db6	DL_test	21	ga	ba	1	right	ba	1	1690
6153593be7f8925dee8d7db6	DL_test	22	ta	da	1	right	da	1	1468
6153593be7f8925dee8d7db6	DL_test	23	pa	pa	0	left	pa	1	1200
6153593be7f8925dee8d7db6	DL_test	24	ba	ga	1	left	ba	1	2163
6153593be7f8925dee8d7db6	DL_test	25	ga	ka	1	left	ga	1	931
6153593be7f8925dee8d7db6	DL_test	26	ba	da	1	left	ba	1	1829
6153593be7f8925dee8d7db6	DL_test	27	ka	ka	0	left	ka	1	1366
6153593be7f8925dee8d7db6	DL_test	28	pa	da	1	other	ga	0	1145
6153593be7f8925dee8d7db6	DL_test	29	da	ba	1	right	ba	1	1764
6153593be7f8925dee8d7db6	DL_test	30	ta	ba	1	right	ba	1	1371
6153593be7f8925dee8d7db6	DL_test	31	ka	da	1	other	ga	0	1350
6153593be7f8925dee8d7db6	DL_test	32	pa	ba	1	right	ba	1	2215
6153593be7f8925dee8d7db6	DL_test	33	ba	ka	1	left	ba	1	1752
6153593be7f8925dee8d7db6	DL_test	34	ka	ta	1	left	ka	1	1708
6153593be7f8925dee8d7db6	DL_test	35	ba	ta	1	left	ba	1	1493
6153593be7f8925dee8d7db6	DL_test	36	da	ga	1	right	ga	1	1594
6153593be7f8925dee8d7db6	DL_test	1	ba	ta	1	left	ba	1	1562
6153593be7f8925dee8d7db6	DL_test	2	ta	ta	0	left	ta	1	1994
6153593be7f8925dee8d7db6	DL_test	3	ta	ka	1	right	ka	1	1265
6153593be7f8925dee8d7db6	DL_test	4	ga	pa	1	left	ga	1	1192
6153593be7f8925dee8d7db6	DL_test	5	ta	ga	1	right	ga	1	758
6153593be7f8925dee8d7db6	DL_test	6	pa	ba	1	right	ba	1	1645
6153593be7f8925dee8d7db6	DL_test	7	ka	ka	0	left	ka	1	1310
6153593be7f8925dee8d7db6	DL_test	8	da	ta	1	left	da	1	1628
6153593be7f8925dee8d7db6	DL_test	9	ka	ba	1	right	ba	1	1771
6153593be7f8925dee8d7db6	DL_test	10	pa	ka	1	right	ka	1	992
6153593be7f8925dee8d7db6	DL_test	11	ga	da	1	left	ga	1	1201
6153593be7f8925dee8d7db6	DL_test	12	ga	ga	0	left	ga	1	731
6153593be7f8925dee8d7db6	DL_test	13	pa	ta	1	right	ta	1	1414
6153593be7f8925dee8d7db6	DL_test	14	ta	ba	1	right	ba	1	1414
6153593be7f8925dee8d7db6	DL_test	15	pa	ga	1	right	ga	1	994
6153593be7f8925dee8d7db6	DL_test	16	pa	pa	0	left	pa	1	1204
6153593be7f8925dee8d7db6	DL_test	17	da	pa	1	left	da	1	1522
6153593be7f8925dee8d7db6	DL_test	18	ga	ta	1	left	ga	1	1301
6153593be7f8925dee8d7db6	DL_test	19	ga	ba	1	right	ba	1	1781
6153593be7f8925dee8d7db6	DL_test	20	ba	ka	1	left	ba	1	2247
6153593be7f8925dee8d7db6	DL_test	21	ba	da	1	left	ba	1	1047
6153593be7f8925dee8d7db6	DL_test	22	ka	da	1	other	ga	0	1642
6153593be7f8925dee8d7db6	DL_test	23	pa	da	1	other	ga	0	3190
6153593be7f8925dee8d7db6	DL_test	24	da	ba	1	right	ba	1	1746
6153593be7f8925dee8d7db6	DL_test	25	da	da	0	left	da	1	1299
6153593be7f8925dee8d7db6	DL_test	26	ka	ta	1	left	ka	1	1624
6153593be7f8925dee8d7db6	DL_test	27	ka	pa	1	left	ka	1	1290
6153593be7f8925dee8d7db6	DL_test	28	da	ka	1	left	da	1	1629
6153593be7f8925dee8d7db6	DL_test	29	ta	da	1	right	da	1	1547
6153593be7f8925dee8d7db6	DL_test	30	ka	ga	1	right	ga	1	1003
6153593be7f8925dee8d7db6	DL_test	31	ta	pa	1	left	ta	1	1755
6153593be7f8925dee8d7db6	DL_test	32	ga	ka	1	left	ga	1	1629
6153593be7f8925dee8d7db6	DL_test	33	da	ga	1	right	ga	1	1248
6153593be7f8925dee8d7db6	DL_test	34	ba	pa	1	left	ba	1	1749
6153593be7f8925dee8d7db6	DL_test	35	ba	ba	0	left	ba	1	1389
6153593be7f8925dee8d7db6	DL_test	36	ba	ga	1	left	ba	1	674
6153593be7f8925dee8d7db6	DL_test	1	ba	ga	1	left	ba	1	1426
6153593be7f8925dee8d7db6	DL_test	2	ta	ka	1	right	ka	1	1638
6153593be7f8925dee8d7db6	DL_test	3	ka	ba	1	left	ka	1	1058
6153593be7f8925dee8d7db6	DL_test	4	da	ga	1	right	ga	1	1381
6153593be7f8925dee8d7db6	DL_test	5	da	pa	1	left	da	1	1252
6153593be7f8925dee8d7db6	DL_test	6	da	ba	1	right	ba	1	1513
6153593be7f8925dee8d7db6	DL_test	7	ta	ta	0	left	ta	1	1588
6153593be7f8925dee8d7db6	DL_test	8	ta	ba	1	other	pa	0	1916
6153593be7f8925dee8d7db6	DL_test	9	da	ka	1	left	da	1	1604
6153593be7f8925dee8d7db6	DL_test	10	ba	ta	1	left	ba	1	1978
6153593be7f8925dee8d7db6	DL_test	11	pa	pa	0	left	pa	1	1489
6153593be7f8925dee8d7db6	DL_test	12	ga	ga	0	left	ga	1	1643
6153593be7f8925dee8d7db6	DL_test	13	ga	ta	1	left	ga	1	888
6153593be7f8925dee8d7db6	DL_test	14	ka	ta	1	right	ta	1	2094
6153593be7f8925dee8d7db6	DL_test	15	ga	pa	1	other	ka	0	1394
6153593be7f8925dee8d7db6	DL_test	16	da	ta	1	left	da	1	1309
6153593be7f8925dee8d7db6	DL_test	17	ka	ka	0	left	ka	1	1312
6153593be7f8925dee8d7db6	DL_test	18	ta	ga	1	right	ga	1	2142
6153593be7f8925dee8d7db6	DL_test	19	ka	ga	1	right	ga	1	883
6153593be7f8925dee8d7db6	DL_test	20	da	da	0	left	da	1	1304
6153593be7f8925dee8d7db6	DL_test	21	ba	pa	1	left	ba	1	1902
6153593be7f8925dee8d7db6	DL_test	22	pa	da	1	other	ga	0	1136
6153593be7f8925dee8d7db6	DL_test	23	pa	ta	1	right	ta	1	1237
6153593be7f8925dee8d7db6	DL_test	24	ba	ba	0	left	ba	1	2917
6153593be7f8925dee8d7db6	DL_test	25	pa	ga	1	right	ga	1	1292
6153593be7f8925dee8d7db6	DL_test	26	ta	pa	1	left	ta	1	1745
6153593be7f8925dee8d7db6	DL_test	27	ka	pa	1	left	ka	1	1453
6153593be7f8925dee8d7db6	DL_test	28	ga	ba	1	right	ba	1	1586
6153593be7f8925dee8d7db6	DL_test	29	ba	ka	1	left	ba	1	1161
6153593be7f8925dee8d7db6	DL_test	30	ba	da	1	left	ba	1	622
6153593be7f8925dee8d7db6	DL_test	31	ka	da	1	other	ga	0	1357
6153593be7f8925dee8d7db6	DL_test	32	ga	da	1	left	ga	1	842
6153593be7f8925dee8d7db6	DL_test	33	ga	ka	1	left	ga	1	701
6153593be7f8925dee8d7db6	DL_test	34	pa	ba	1	left	pa	1	2019
6153593be7f8925dee8d7db6	DL_test	35	pa	ka	1	right	ka	1	1026
6153593be7f8925dee8d7db6	DL_test	36	ta	da	1	right	da	1	1324
6153593be7f8925dee8d7db6	DL_test	1	ga	ga	0	left	ga	1	973
6153593be7f8925dee8d7db6	DL_test	2	ta	pa	1	left	ta	1	1641
6153593be7f8925dee8d7db6	DL_test	3	ga	ba	1	right	ba	1	1522
6153593be7f8925dee8d7db6	DL_test	4	ba	ga	1	left	ba	1	1015
6153593be7f8925dee8d7db6	DL_test	5	pa	da	1	other	ka	0	1570
6153593be7f8925dee8d7db6	DL_test	6	ga	ta	1	left	ga	1	1019
6153593be7f8925dee8d7db6	DL_test	7	da	ga	1	right	ga	1	600
6153593be7f8925dee8d7db6	DL_test	8	ga	da	1	left	ga	1	624
6153593be7f8925dee8d7db6	DL_test	9	da	da	0	left	da	1	1117
6153593be7f8925dee8d7db6	DL_test	10	pa	ba	1	left	pa	1	1256
6153593be7f8925dee8d7db6	DL_test	11	ta	ta	0	left	ta	1	1274
6153593be7f8925dee8d7db6	DL_test	12	da	ba	1	right	ba	1	1915
6153593be7f8925dee8d7db6	DL_test	13	ka	ba	1	right	ba	1	3210
6153593be7f8925dee8d7db6	DL_test	14	da	ta	1	left	da	1	1252
6153593be7f8925dee8d7db6	DL_test	15	ba	ba	0	left	ba	1	1713
6153593be7f8925dee8d7db6	DL_test	16	pa	ka	1	right	ka	1	1198
6153593be7f8925dee8d7db6	DL_test	17	pa	pa	0	left	pa	1	1133
6153593be7f8925dee8d7db6	DL_test	18	ka	da	1	other	ga	0	1318
6153593be7f8925dee8d7db6	DL_test	19	ba	ka	1	left	ba	1	2030
6153593be7f8925dee8d7db6	DL_test	20	ta	da	1	right	da	1	1129
6153593be7f8925dee8d7db6	DL_test	21	ka	ga	1	right	ga	1	1434
6153593be7f8925dee8d7db6	DL_test	22	da	pa	1	left	da	1	2058
6153593be7f8925dee8d7db6	DL_test	23	ta	ka	1	right	ka	1	1333
6153593be7f8925dee8d7db6	DL_test	24	ka	ta	1	left	ka	1	924
6153593be7f8925dee8d7db6	DL_test	25	ga	pa	1	other	ka	0	2035
6153593be7f8925dee8d7db6	DL_test	26	ta	ba	1	other	da	0	2308
6153593be7f8925dee8d7db6	DL_test	27	pa	ga	1	right	ga	1	1204
6153593be7f8925dee8d7db6	DL_test	28	ka	ka	0	left	ka	1	1334
6153593be7f8925dee8d7db6	DL_test	29	pa	ta	1	right	ta	1	1649
6153593be7f8925dee8d7db6	DL_test	30	ba	da	1	left	ba	1	1900
6153593be7f8925dee8d7db6	DL_test	31	ba	ta	1	left	ba	1	966
6153593be7f8925dee8d7db6	DL_test	32	ba	pa	1	left	ba	1	957
6153593be7f8925dee8d7db6	DL_test	33	ka	pa	1	left	ka	1	1779
6153593be7f8925dee8d7db6	DL_test	34	ga	ka	1	left	ga	1	1220
6153593be7f8925dee8d7db6	DL_test	35	da	ka	1	left	da	1	1164
6153593be7f8925dee8d7db6	DL_test	36	ta	ga	1	right	ga	1	1353
