subject	block	trialnum	DL_leftSound	DL_rightSound	DL_dualSound	DL_choice	response	correct	rt
629b3b3c89d490460eacbfbc	headphonecheck_testphase	3	NA	NA	0	NA	third	1	8594
629b3b3c89d490460eacbfbc	headphonecheck_testphase	6	NA	NA	0	NA	first	1	1008
629b3b3c89d490460eacbfbc	headphonecheck_testphase	9	NA	NA	0	NA	second	1	750
629b3b3c89d490460eacbfbc	headphonecheck_testphase	12	NA	NA	0	NA	second	1	342
629b3b3c89d490460eacbfbc	headphonecheck_testphase	15	NA	NA	0	NA	first	1	215
629b3b3c89d490460eacbfbc	headphonecheck_testphase	18	NA	NA	0	NA	third	1	440
629b3b3c89d490460eacbfbc	stereocheck_testphase	3	NA	NA	0	NA	stereocheck_right	1	2683
629b3b3c89d490460eacbfbc	stereocheck_testphase	6	NA	NA	0	NA	stereocheck_left	1	725
629b3b3c89d490460eacbfbc	stereocheck_testphase	9	NA	NA	0	NA	stereocheck_right	1	706
629b3b3c89d490460eacbfbc	stereocheck_testphase	12	NA	NA	0	NA	stereocheck_right	1	273
629b3b3c89d490460eacbfbc	stereocheck_testphase	15	NA	NA	0	NA	stereocheck_left	1	299
629b3b3c89d490460eacbfbc	stereocheck_testphase	18	NA	NA	0	NA	stereocheck_left	1	281
629b3b3c89d490460eacbfbc	DL_practice	2	ba	ba	0	other	pa	0	3166
629b3b3c89d490460eacbfbc	DL_practice	3	ga	ga	0	left	ga	1	4134
629b3b3c89d490460eacbfbc	DL_practice	4	ka	ka	0	left	ka	1	1642
629b3b3c89d490460eacbfbc	DL_practice	5	da	ba	1	left	da	1	1366
629b3b3c89d490460eacbfbc	DL_practice	6	ka	pa	1	right	pa	1	1991
629b3b3c89d490460eacbfbc	DL_practice	7	da	da	0	left	da	1	1404
629b3b3c89d490460eacbfbc	DL_practice	8	pa	pa	0	left	pa	1	1467
629b3b3c89d490460eacbfbc	DL_practice	9	ta	ta	0	left	ta	1	1692
629b3b3c89d490460eacbfbc	DL_practice	10	ga	ta	1	right	ta	1	1716
629b3b3c89d490460eacbfbc	DL_test	1	ka	ba	1	other	ta	0	1466
629b3b3c89d490460eacbfbc	DL_test	2	ga	ta	1	other	ka	0	1599
629b3b3c89d490460eacbfbc	DL_test	3	ga	pa	1	right	pa	1	1367
629b3b3c89d490460eacbfbc	DL_test	4	ba	ga	1	other	da	0	1684
629b3b3c89d490460eacbfbc	DL_test	5	da	ka	1	other	pa	0	1839
629b3b3c89d490460eacbfbc	DL_test	6	ta	ka	1	left	ta	1	1007
629b3b3c89d490460eacbfbc	DL_test	7	ga	ba	1	other	da	0	1991
629b3b3c89d490460eacbfbc	DL_test	8	pa	ka	1	left	pa	1	1358
629b3b3c89d490460eacbfbc	DL_test	9	pa	da	1	left	pa	1	1366
629b3b3c89d490460eacbfbc	DL_test	10	pa	ta	1	left	pa	1	832
629b3b3c89d490460eacbfbc	DL_test	11	ka	da	1	left	ka	1	1549
629b3b3c89d490460eacbfbc	DL_test	12	da	pa	1	right	pa	1	1058
629b3b3c89d490460eacbfbc	DL_test	13	ba	ka	1	right	ka	1	1025
629b3b3c89d490460eacbfbc	DL_test	14	ba	da	1	right	da	1	1441
629b3b3c89d490460eacbfbc	DL_test	15	pa	ba	1	left	pa	1	1884
629b3b3c89d490460eacbfbc	DL_test	16	ta	ba	1	other	pa	0	861
629b3b3c89d490460eacbfbc	DL_test	17	ga	da	1	right	da	1	1062
629b3b3c89d490460eacbfbc	DL_test	18	ga	ga	0	other	da	0	1300
629b3b3c89d490460eacbfbc	DL_test	19	ta	pa	1	right	pa	1	1391
629b3b3c89d490460eacbfbc	DL_test	20	da	ba	1	other	ta	0	1991
629b3b3c89d490460eacbfbc	DL_test	21	ka	pa	1	right	pa	1	1241
629b3b3c89d490460eacbfbc	DL_test	22	pa	pa	0	left	pa	1	878
629b3b3c89d490460eacbfbc	DL_test	23	ka	ka	0	left	ka	1	906
629b3b3c89d490460eacbfbc	DL_test	24	ta	ga	1	right	ga	1	1445
629b3b3c89d490460eacbfbc	DL_test	25	pa	ga	1	right	ga	1	1823
629b3b3c89d490460eacbfbc	DL_test	26	ta	da	1	left	ta	1	2266
629b3b3c89d490460eacbfbc	DL_test	27	ka	ta	1	right	ta	1	1541
629b3b3c89d490460eacbfbc	DL_test	28	ga	ka	1	right	ka	1	1541
629b3b3c89d490460eacbfbc	DL_test	29	ba	pa	1	right	pa	1	1050
629b3b3c89d490460eacbfbc	DL_test	30	da	ga	1	left	da	1	1433
629b3b3c89d490460eacbfbc	DL_test	31	ka	ga	1	right	ga	1	1496
629b3b3c89d490460eacbfbc	DL_test	32	ta	ta	0	left	ta	1	1291
629b3b3c89d490460eacbfbc	DL_test	33	ba	ta	1	other	pa	0	841
629b3b3c89d490460eacbfbc	DL_test	34	ba	ba	0	other	pa	0	1657
629b3b3c89d490460eacbfbc	DL_test	35	da	da	0	left	da	1	1674
629b3b3c89d490460eacbfbc	DL_test	36	da	ta	1	other	ga	0	1451
629b3b3c89d490460eacbfbc	DL_test	1	da	da	0	left	da	1	1041
629b3b3c89d490460eacbfbc	DL_test	2	ka	da	1	left	ka	1	1349
629b3b3c89d490460eacbfbc	DL_test	3	ga	da	1	right	da	1	1358
629b3b3c89d490460eacbfbc	DL_test	4	ta	ga	1	left	ta	1	1316
629b3b3c89d490460eacbfbc	DL_test	5	ba	pa	1	right	pa	1	929
629b3b3c89d490460eacbfbc	DL_test	6	ka	ba	1	left	ka	1	1083
629b3b3c89d490460eacbfbc	DL_test	7	da	ga	1	left	da	1	946
629b3b3c89d490460eacbfbc	DL_test	8	pa	ka	1	left	pa	1	1091
629b3b3c89d490460eacbfbc	DL_test	9	ka	ka	0	left	ka	1	840
629b3b3c89d490460eacbfbc	DL_test	10	pa	ga	1	right	ga	1	2891
629b3b3c89d490460eacbfbc	DL_test	11	ta	ta	0	left	ta	1	1757
629b3b3c89d490460eacbfbc	DL_test	12	ba	ba	0	other	pa	0	995
629b3b3c89d490460eacbfbc	DL_test	13	pa	pa	0	left	pa	1	1240
629b3b3c89d490460eacbfbc	DL_test	14	ta	ba	1	other	pa	0	999
629b3b3c89d490460eacbfbc	DL_test	15	da	ka	1	other	pa	0	765
629b3b3c89d490460eacbfbc	DL_test	16	ba	ta	1	right	ta	1	1741
629b3b3c89d490460eacbfbc	DL_test	17	ba	da	1	right	da	1	1741
629b3b3c89d490460eacbfbc	DL_test	18	da	pa	1	right	pa	1	1484
629b3b3c89d490460eacbfbc	DL_test	19	ga	ka	1	right	ka	1	1587
629b3b3c89d490460eacbfbc	DL_test	20	ka	pa	1	left	ka	1	1550
629b3b3c89d490460eacbfbc	DL_test	21	pa	ta	1	left	pa	1	1316
629b3b3c89d490460eacbfbc	DL_test	22	ta	pa	1	right	pa	1	933
629b3b3c89d490460eacbfbc	DL_test	23	ga	ga	0	other	da	0	1290
629b3b3c89d490460eacbfbc	DL_test	24	pa	da	1	left	pa	1	1283
629b3b3c89d490460eacbfbc	DL_test	25	ka	ta	1	right	ta	1	1153
629b3b3c89d490460eacbfbc	DL_test	26	da	ta	1	right	ta	1	1407
629b3b3c89d490460eacbfbc	DL_test	27	ta	da	1	left	ta	1	745
629b3b3c89d490460eacbfbc	DL_test	28	pa	ba	1	left	pa	1	840
629b3b3c89d490460eacbfbc	DL_test	29	ta	ka	1	left	ta	1	948
629b3b3c89d490460eacbfbc	DL_test	30	ba	ga	1	right	ga	1	1236
629b3b3c89d490460eacbfbc	DL_test	31	ga	pa	1	left	ga	1	1940
629b3b3c89d490460eacbfbc	DL_test	32	ga	ta	1	right	ta	1	2066
629b3b3c89d490460eacbfbc	DL_test	33	ka	ga	1	right	ga	1	2649
629b3b3c89d490460eacbfbc	DL_test	34	da	ba	1	left	da	1	849
629b3b3c89d490460eacbfbc	DL_test	35	ga	ba	1	other	da	0	957
629b3b3c89d490460eacbfbc	DL_test	36	ba	ka	1	right	ka	1	1503
629b3b3c89d490460eacbfbc	DL_test	1	pa	ba	1	left	pa	1	998
629b3b3c89d490460eacbfbc	DL_test	2	ba	ta	1	right	ta	1	1131
629b3b3c89d490460eacbfbc	DL_test	3	ga	ta	1	other	ka	0	815
629b3b3c89d490460eacbfbc	DL_test	4	da	ka	1	other	pa	0	993
629b3b3c89d490460eacbfbc	DL_test	5	ba	ka	1	right	ka	1	1190
629b3b3c89d490460eacbfbc	DL_test	6	ka	pa	1	right	pa	1	1123
629b3b3c89d490460eacbfbc	DL_test	7	ba	ga	1	right	ga	1	1118
629b3b3c89d490460eacbfbc	DL_test	8	pa	da	1	left	pa	1	1044
629b3b3c89d490460eacbfbc	DL_test	9	ka	ta	1	right	ta	1	891
629b3b3c89d490460eacbfbc	DL_test	10	ta	pa	1	right	pa	1	927
629b3b3c89d490460eacbfbc	DL_test	11	pa	ta	1	left	pa	1	901
629b3b3c89d490460eacbfbc	DL_test	12	da	pa	1	right	pa	1	611
629b3b3c89d490460eacbfbc	DL_test	13	ga	da	1	right	da	1	1214
629b3b3c89d490460eacbfbc	DL_test	14	da	da	0	left	da	1	705
629b3b3c89d490460eacbfbc	DL_test	15	ta	ta	0	left	ta	1	1614
629b3b3c89d490460eacbfbc	DL_test	16	pa	ga	1	left	pa	1	1289
629b3b3c89d490460eacbfbc	DL_test	17	da	ga	1	left	da	1	1390
629b3b3c89d490460eacbfbc	DL_test	18	ta	ka	1	right	ka	1	1857
629b3b3c89d490460eacbfbc	DL_test	19	da	ba	1	left	da	1	1344
629b3b3c89d490460eacbfbc	DL_test	20	ka	ka	0	left	ka	1	1313
629b3b3c89d490460eacbfbc	DL_test	21	da	ta	1	right	ta	1	1657
629b3b3c89d490460eacbfbc	DL_test	22	ga	ga	0	other	da	0	1289
629b3b3c89d490460eacbfbc	DL_test	23	ka	da	1	left	ka	1	1097
629b3b3c89d490460eacbfbc	DL_test	24	ta	ba	1	other	pa	0	3831
629b3b3c89d490460eacbfbc	DL_test	25	ba	pa	1	right	pa	1	1294
629b3b3c89d490460eacbfbc	DL_test	26	ka	ga	1	left	ka	1	1160
629b3b3c89d490460eacbfbc	DL_test	27	ta	da	1	left	ta	1	1523
629b3b3c89d490460eacbfbc	DL_test	28	ga	ba	1	other	da	0	1448
629b3b3c89d490460eacbfbc	DL_test	29	pa	ka	1	left	pa	1	1468
629b3b3c89d490460eacbfbc	DL_test	30	ga	pa	1	right	pa	1	886
629b3b3c89d490460eacbfbc	DL_test	31	ba	ba	0	left	ba	1	1415
629b3b3c89d490460eacbfbc	DL_test	32	ka	ba	1	left	ka	1	1114
629b3b3c89d490460eacbfbc	DL_test	33	ga	ka	1	right	ka	1	1423
629b3b3c89d490460eacbfbc	DL_test	34	ba	da	1	right	da	1	1489
629b3b3c89d490460eacbfbc	DL_test	35	ta	ga	1	other	ka	0	1335
629b3b3c89d490460eacbfbc	DL_test	36	pa	pa	0	left	pa	1	881
629b3b3c89d490460eacbfbc	DL_test	1	ta	ga	1	right	ga	1	1181
629b3b3c89d490460eacbfbc	DL_test	2	ta	da	1	other	ga	0	598
629b3b3c89d490460eacbfbc	DL_test	3	ta	ba	1	other	pa	0	1189
629b3b3c89d490460eacbfbc	DL_test	4	ga	ga	0	left	ga	1	1181
629b3b3c89d490460eacbfbc	DL_test	5	ka	ga	1	right	ga	1	547
629b3b3c89d490460eacbfbc	DL_test	6	pa	ka	1	right	ka	1	1081
629b3b3c89d490460eacbfbc	DL_test	7	ka	ka	0	left	ka	1	672
629b3b3c89d490460eacbfbc	DL_test	8	ga	ka	1	right	ka	1	839
629b3b3c89d490460eacbfbc	DL_test	9	ba	ba	0	left	ba	1	1835
629b3b3c89d490460eacbfbc	DL_test	10	pa	ga	1	right	ga	1	1506
629b3b3c89d490460eacbfbc	DL_test	11	pa	ta	1	left	pa	1	1639
629b3b3c89d490460eacbfbc	DL_test	12	da	pa	1	other	ka	0	1048
629b3b3c89d490460eacbfbc	DL_test	13	da	da	0	left	da	1	1138
629b3b3c89d490460eacbfbc	DL_test	14	ba	da	1	left	ba	1	2081
629b3b3c89d490460eacbfbc	DL_test	15	ga	ba	1	right	ba	1	731
629b3b3c89d490460eacbfbc	DL_test	16	ta	pa	1	left	ta	1	1422
629b3b3c89d490460eacbfbc	DL_test	17	ba	ga	1	left	ba	1	1306
629b3b3c89d490460eacbfbc	DL_test	18	ta	ta	0	left	ta	1	2297
629b3b3c89d490460eacbfbc	DL_test	19	ga	ta	1	other	ka	0	1318
629b3b3c89d490460eacbfbc	DL_test	20	da	ta	1	other	pa	0	1539
629b3b3c89d490460eacbfbc	DL_test	21	da	ba	1	right	ba	1	1731
629b3b3c89d490460eacbfbc	DL_test	22	pa	da	1	right	da	1	747
629b3b3c89d490460eacbfbc	DL_test	23	da	ga	1	right	ga	1	743
629b3b3c89d490460eacbfbc	DL_test	24	ka	da	1	other	ga	0	627
629b3b3c89d490460eacbfbc	DL_test	25	ga	pa	1	left	ga	1	486
629b3b3c89d490460eacbfbc	DL_test	26	da	ka	1	other	ga	0	359
629b3b3c89d490460eacbfbc	DL_test	27	pa	pa	0	left	pa	1	1579
629b3b3c89d490460eacbfbc	DL_test	28	ka	ba	1	other	pa	0	739
629b3b3c89d490460eacbfbc	DL_test	29	pa	ba	1	right	ba	1	1483
629b3b3c89d490460eacbfbc	DL_test	30	ba	ta	1	other	ka	0	1563
629b3b3c89d490460eacbfbc	DL_test	31	ka	pa	1	left	ka	1	1164
629b3b3c89d490460eacbfbc	DL_test	32	ka	ta	1	left	ka	1	839
629b3b3c89d490460eacbfbc	DL_test	33	ta	ka	1	right	ka	1	505
629b3b3c89d490460eacbfbc	DL_test	34	ga	da	1	left	ga	1	1079
629b3b3c89d490460eacbfbc	DL_test	35	ba	ka	1	other	ga	0	1172
629b3b3c89d490460eacbfbc	DL_test	36	ba	pa	1	left	ba	1	1372
