subject	block	trialnum	DL_leftSound	DL_rightSound	DL_dualSound	DL_choice	response	correct	rt
62b46cafda63e83d14eb4ec5	headphonecheck_testphase	3	NA	NA	0	NA	third	1	95
62b46cafda63e83d14eb4ec5	headphonecheck_testphase	6	NA	NA	0	NA	second	1	667
62b46cafda63e83d14eb4ec5	headphonecheck_testphase	9	NA	NA	0	NA	first	1	423
62b46cafda63e83d14eb4ec5	headphonecheck_testphase	12	NA	NA	0	NA	second	0	442
62b46cafda63e83d14eb4ec5	headphonecheck_testphase	15	NA	NA	0	NA	first	0	7087
62b46cafda63e83d14eb4ec5	headphonecheck_testphase	18	NA	NA	0	NA	second	1	2141
62b46cafda63e83d14eb4ec5	stereocheck_testphase	3	NA	NA	0	NA	stereocheck_right	0	89
62b46cafda63e83d14eb4ec5	stereocheck_testphase	6	NA	NA	0	NA	stereocheck_left	0	79
62b46cafda63e83d14eb4ec5	stereocheck_testphase	9	NA	NA	0	NA	stereocheck_right	0	121
62b46cafda63e83d14eb4ec5	stereocheck_testphase	12	NA	NA	0	NA	stereocheck_left	0	63
62b46cafda63e83d14eb4ec5	stereocheck_testphase	15	NA	NA	0	NA	stereocheck_right	0	251
62b46cafda63e83d14eb4ec5	stereocheck_testphase	18	NA	NA	0	NA	stereocheck_left	0	446
62b46cafda63e83d14eb4ec5	DL_practice	2	ka	pa	1	left	ka	1	1484
62b46cafda63e83d14eb4ec5	DL_practice	3	ga	ga	0	left	ga	1	678
62b46cafda63e83d14eb4ec5	DL_practice	4	da	da	0	left	da	1	1135
62b46cafda63e83d14eb4ec5	DL_practice	5	pa	pa	0	left	pa	1	1167
62b46cafda63e83d14eb4ec5	DL_practice	6	ga	ta	1	other	da	0	1710
62b46cafda63e83d14eb4ec5	DL_practice	7	da	ba	1	other	ga	0	559
62b46cafda63e83d14eb4ec5	DL_practice	8	ba	ba	0	left	ba	1	1366
62b46cafda63e83d14eb4ec5	DL_practice	9	ta	ta	0	other	ba	0	114
62b46cafda63e83d14eb4ec5	DL_practice	10	ka	ka	0	left	ka	1	635
62b46cafda63e83d14eb4ec5	DL_test	1	ba	da	1	other	ga	0	738
62b46cafda63e83d14eb4ec5	DL_test	2	ba	ga	1	right	ga	1	623
62b46cafda63e83d14eb4ec5	DL_test	3	ka	ta	1	left	ka	1	535
62b46cafda63e83d14eb4ec5	DL_test	4	ka	da	1	left	ka	1	551
62b46cafda63e83d14eb4ec5	DL_test	5	pa	pa	0	other	ga	0	1910
62b46cafda63e83d14eb4ec5	DL_test	6	da	ga	1	right	ga	1	1142
62b46cafda63e83d14eb4ec5	DL_test	7	ka	pa	1	left	ka	1	814
62b46cafda63e83d14eb4ec5	DL_test	8	pa	ga	1	right	ga	1	1380
62b46cafda63e83d14eb4ec5	DL_test	9	ga	pa	1	left	ga	1	906
62b46cafda63e83d14eb4ec5	DL_test	10	ga	ta	1	left	ga	1	1057
62b46cafda63e83d14eb4ec5	DL_test	11	ga	ga	0	left	ga	1	1347
62b46cafda63e83d14eb4ec5	DL_test	12	ta	ka	1	right	ka	1	706
62b46cafda63e83d14eb4ec5	DL_test	13	da	ba	1	other	ga	0	1371
62b46cafda63e83d14eb4ec5	DL_test	14	da	ta	1	right	ta	1	873
62b46cafda63e83d14eb4ec5	DL_test	15	ga	da	1	left	ga	1	1044
62b46cafda63e83d14eb4ec5	DL_test	16	da	ka	1	other	ta	0	830
62b46cafda63e83d14eb4ec5	DL_test	17	da	da	0	left	da	1	2298
62b46cafda63e83d14eb4ec5	DL_test	18	pa	da	1	left	pa	1	858
62b46cafda63e83d14eb4ec5	DL_test	19	ta	da	1	other	ka	0	885
62b46cafda63e83d14eb4ec5	DL_test	20	ka	ba	1	left	ka	1	871
62b46cafda63e83d14eb4ec5	DL_test	21	ba	ba	0	left	ba	1	1409
62b46cafda63e83d14eb4ec5	DL_test	22	ta	ta	0	left	ta	1	1321
62b46cafda63e83d14eb4ec5	DL_test	23	pa	ka	1	other	ta	0	1286
62b46cafda63e83d14eb4ec5	DL_test	24	ba	pa	1	right	pa	1	711
62b46cafda63e83d14eb4ec5	DL_test	25	ka	ka	0	left	ka	1	664
62b46cafda63e83d14eb4ec5	DL_test	26	pa	ta	1	other	ka	0	995
62b46cafda63e83d14eb4ec5	DL_test	27	ka	ga	1	right	ga	1	800
62b46cafda63e83d14eb4ec5	DL_test	28	ba	ta	1	other	ga	0	1622
62b46cafda63e83d14eb4ec5	DL_test	29	ta	pa	1	other	ka	0	574
62b46cafda63e83d14eb4ec5	DL_test	30	da	pa	1	other	ga	0	655
62b46cafda63e83d14eb4ec5	DL_test	31	ta	ga	1	right	ga	1	739
62b46cafda63e83d14eb4ec5	DL_test	32	pa	ba	1	left	pa	1	777
62b46cafda63e83d14eb4ec5	DL_test	33	ga	ka	1	left	ga	1	1038
62b46cafda63e83d14eb4ec5	DL_test	34	ba	ka	1	other	da	0	2172
62b46cafda63e83d14eb4ec5	DL_test	35	ta	ba	1	left	ta	1	2145
62b46cafda63e83d14eb4ec5	DL_test	36	ga	ba	1	left	ga	1	1007
62b46cafda63e83d14eb4ec5	DL_test	1	ta	pa	1	other	ka	0	1088
62b46cafda63e83d14eb4ec5	DL_test	2	pa	ba	1	left	pa	1	498
62b46cafda63e83d14eb4ec5	DL_test	3	ta	da	1	other	ka	0	659
62b46cafda63e83d14eb4ec5	DL_test	4	pa	pa	0	left	pa	1	566
62b46cafda63e83d14eb4ec5	DL_test	5	ba	pa	1	right	pa	1	907
62b46cafda63e83d14eb4ec5	DL_test	6	ga	ga	0	left	ga	1	934
62b46cafda63e83d14eb4ec5	DL_test	7	da	ta	1	other	ga	0	1454
62b46cafda63e83d14eb4ec5	DL_test	8	ta	ba	1	left	ta	1	1016
62b46cafda63e83d14eb4ec5	DL_test	9	ba	ba	0	other	pa	0	597
62b46cafda63e83d14eb4ec5	DL_test	10	ka	ka	0	left	ka	1	627
62b46cafda63e83d14eb4ec5	DL_test	11	ta	ta	0	left	ta	1	1103
62b46cafda63e83d14eb4ec5	DL_test	12	pa	ta	1	left	pa	1	934
62b46cafda63e83d14eb4ec5	DL_test	13	pa	ka	1	right	ka	1	1114
62b46cafda63e83d14eb4ec5	DL_test	14	da	ga	1	right	ga	1	869
62b46cafda63e83d14eb4ec5	DL_test	15	ga	da	1	left	ga	1	744
62b46cafda63e83d14eb4ec5	DL_test	16	ga	ta	1	other	da	0	598
62b46cafda63e83d14eb4ec5	DL_test	17	da	ba	1	other	ga	0	572
62b46cafda63e83d14eb4ec5	DL_test	18	ga	ba	1	other	da	0	668
62b46cafda63e83d14eb4ec5	DL_test	19	ba	ka	1	other	da	0	607
62b46cafda63e83d14eb4ec5	DL_test	20	ba	ga	1	other	pa	0	625
62b46cafda63e83d14eb4ec5	DL_test	21	ba	ta	1	other	pa	0	589
62b46cafda63e83d14eb4ec5	DL_test	22	ta	ga	1	other	ka	0	913
62b46cafda63e83d14eb4ec5	DL_test	23	ka	ga	1	left	ka	1	633
62b46cafda63e83d14eb4ec5	DL_test	24	da	pa	1	right	pa	1	1172
62b46cafda63e83d14eb4ec5	DL_test	25	ka	ta	1	right	ta	1	586
62b46cafda63e83d14eb4ec5	DL_test	26	da	ka	1	other	ta	0	728
62b46cafda63e83d14eb4ec5	DL_test	27	pa	da	1	left	pa	1	1135
62b46cafda63e83d14eb4ec5	DL_test	28	ba	da	1	other	pa	0	2096
62b46cafda63e83d14eb4ec5	DL_test	29	ga	pa	1	left	ga	1	1143
62b46cafda63e83d14eb4ec5	DL_test	30	pa	ga	1	other	ka	0	1133
62b46cafda63e83d14eb4ec5	DL_test	31	ta	ka	1	right	ka	1	526
62b46cafda63e83d14eb4ec5	DL_test	32	ka	da	1	left	ka	1	619
62b46cafda63e83d14eb4ec5	DL_test	33	ga	ka	1	left	ga	1	745
62b46cafda63e83d14eb4ec5	DL_test	34	ka	pa	1	left	ka	1	905
62b46cafda63e83d14eb4ec5	DL_test	35	ka	ba	1	left	ka	1	746
62b46cafda63e83d14eb4ec5	DL_test	36	da	da	0	other	ga	0	1039
62b46cafda63e83d14eb4ec5	DL_test	1	da	ka	1	right	ka	1	785
62b46cafda63e83d14eb4ec5	DL_test	2	ga	ta	1	left	ga	1	759
62b46cafda63e83d14eb4ec5	DL_test	3	da	pa	1	other	ka	0	1007
62b46cafda63e83d14eb4ec5	DL_test	4	ba	ka	1	other	pa	0	604
62b46cafda63e83d14eb4ec5	DL_test	5	ta	ga	1	other	ka	0	863
62b46cafda63e83d14eb4ec5	DL_test	6	pa	da	1	other	ta	0	1324
62b46cafda63e83d14eb4ec5	DL_test	7	ga	ka	1	left	ga	1	980
62b46cafda63e83d14eb4ec5	DL_test	8	ta	ba	1	right	ba	1	1601
62b46cafda63e83d14eb4ec5	DL_test	9	ba	pa	1	right	pa	1	1094
62b46cafda63e83d14eb4ec5	DL_test	10	pa	ba	1	left	pa	1	415
62b46cafda63e83d14eb4ec5	DL_test	11	ta	pa	1	right	pa	1	653
62b46cafda63e83d14eb4ec5	DL_test	12	ba	da	1	other	ga	0	857
62b46cafda63e83d14eb4ec5	DL_test	13	ga	ba	1	left	ga	1	1331
62b46cafda63e83d14eb4ec5	DL_test	14	da	ga	1	right	ga	1	795
62b46cafda63e83d14eb4ec5	DL_test	15	ka	ga	1	left	ka	1	649
62b46cafda63e83d14eb4ec5	DL_test	16	da	da	0	other	ga	0	1003
62b46cafda63e83d14eb4ec5	DL_test	17	ka	ba	1	left	ka	1	1123
62b46cafda63e83d14eb4ec5	DL_test	18	ba	ba	0	other	pa	0	1041
62b46cafda63e83d14eb4ec5	DL_test	19	pa	ga	1	left	pa	1	961
62b46cafda63e83d14eb4ec5	DL_test	20	da	ba	1	other	ga	0	763
62b46cafda63e83d14eb4ec5	DL_test	21	ta	ka	1	right	ka	1	840
62b46cafda63e83d14eb4ec5	DL_test	22	pa	pa	0	left	pa	1	757
62b46cafda63e83d14eb4ec5	DL_test	23	ka	ta	1	left	ka	1	850
62b46cafda63e83d14eb4ec5	DL_test	24	ka	da	1	left	ka	1	1005
62b46cafda63e83d14eb4ec5	DL_test	25	pa	ka	1	right	ka	1	723
62b46cafda63e83d14eb4ec5	DL_test	26	ga	pa	1	left	ga	1	972
62b46cafda63e83d14eb4ec5	DL_test	27	ba	ga	1	right	ga	1	826
62b46cafda63e83d14eb4ec5	DL_test	28	ba	ta	1	other	pa	0	927
62b46cafda63e83d14eb4ec5	DL_test	29	pa	ta	1	left	pa	1	1281
62b46cafda63e83d14eb4ec5	DL_test	30	ta	da	1	other	ka	0	656
62b46cafda63e83d14eb4ec5	DL_test	31	ga	da	1	left	ga	1	1004
62b46cafda63e83d14eb4ec5	DL_test	32	ta	ta	0	left	ta	1	1268
62b46cafda63e83d14eb4ec5	DL_test	33	ga	ga	0	left	ga	1	1028
62b46cafda63e83d14eb4ec5	DL_test	34	ka	pa	1	left	ka	1	934
62b46cafda63e83d14eb4ec5	DL_test	35	da	ta	1	other	ga	0	1678
62b46cafda63e83d14eb4ec5	DL_test	36	ka	ka	0	left	ka	1	704
62b46cafda63e83d14eb4ec5	DL_test	1	ba	ta	1	other	pa	0	911
62b46cafda63e83d14eb4ec5	DL_test	2	ga	pa	1	right	pa	1	896
62b46cafda63e83d14eb4ec5	DL_test	3	ga	ta	1	left	ga	1	1016
62b46cafda63e83d14eb4ec5	DL_test	4	da	pa	1	other	ka	0	542
62b46cafda63e83d14eb4ec5	DL_test	5	ta	da	1	other	ka	0	691
62b46cafda63e83d14eb4ec5	DL_test	6	ta	ga	1	other	ka	0	735
62b46cafda63e83d14eb4ec5	DL_test	7	ka	da	1	left	ka	1	660
62b46cafda63e83d14eb4ec5	DL_test	8	pa	da	1	other	ka	0	682
62b46cafda63e83d14eb4ec5	DL_test	9	ka	ba	1	other	pa	0	652
62b46cafda63e83d14eb4ec5	DL_test	10	ga	ba	1	other	ka	0	31
62b46cafda63e83d14eb4ec5	DL_test	11	ga	ka	1	left	ga	1	908
62b46cafda63e83d14eb4ec5	DL_test	12	ka	ta	1	left	ka	1	1293
62b46cafda63e83d14eb4ec5	DL_test	13	da	ga	1	right	ga	1	734
62b46cafda63e83d14eb4ec5	DL_test	14	ta	pa	1	right	pa	1	774
62b46cafda63e83d14eb4ec5	DL_test	15	ba	pa	1	right	pa	1	619
62b46cafda63e83d14eb4ec5	DL_test	16	da	ba	1	left	da	1	1551
62b46cafda63e83d14eb4ec5	DL_test	17	pa	pa	0	left	pa	1	1132
62b46cafda63e83d14eb4ec5	DL_test	18	ka	pa	1	right	pa	1	1348
62b46cafda63e83d14eb4ec5	DL_test	19	ba	ga	1	right	ga	1	927
62b46cafda63e83d14eb4ec5	DL_test	20	da	da	0	left	da	1	634
62b46cafda63e83d14eb4ec5	DL_test	21	ga	ga	0	other	da	0	492
62b46cafda63e83d14eb4ec5	DL_test	22	pa	ka	1	left	pa	1	1736
62b46cafda63e83d14eb4ec5	DL_test	23	ba	ka	1	right	ka	1	1046
62b46cafda63e83d14eb4ec5	DL_test	24	ba	ba	0	other	da	0	2002
62b46cafda63e83d14eb4ec5	DL_test	25	da	ka	1	right	ka	1	1142
62b46cafda63e83d14eb4ec5	DL_test	26	ta	ka	1	right	ka	1	1115
62b46cafda63e83d14eb4ec5	DL_test	27	ka	ga	1	left	ka	1	982
62b46cafda63e83d14eb4ec5	DL_test	28	da	ta	1	other	ka	0	1019
62b46cafda63e83d14eb4ec5	DL_test	29	ka	ka	0	left	ka	1	567
62b46cafda63e83d14eb4ec5	DL_test	30	ba	da	1	other	ga	0	855
62b46cafda63e83d14eb4ec5	DL_test	31	pa	ta	1	left	pa	1	481
62b46cafda63e83d14eb4ec5	DL_test	32	ta	ta	0	left	ta	1	1091
62b46cafda63e83d14eb4ec5	DL_test	33	pa	ba	1	left	pa	1	733
62b46cafda63e83d14eb4ec5	DL_test	34	pa	ga	1	other	ka	0	1315
62b46cafda63e83d14eb4ec5	DL_test	35	ga	da	1	left	ga	1	971
62b46cafda63e83d14eb4ec5	DL_test	36	ta	ba	1	other	da	0	996
