subject	block	trialnum	DL_leftSound	DL_rightSound	DL_dualSound	DL_choice	response	correct	rt
62fb7b282ed3a1e42d9a5f46	headphonecheck_testphase	3	NA	NA	0	NA	second	1	236
62fb7b282ed3a1e42d9a5f46	headphonecheck_testphase	6	NA	NA	0	NA	third	1	2243
62fb7b282ed3a1e42d9a5f46	headphonecheck_testphase	9	NA	NA	0	NA	first	1	267
62fb7b282ed3a1e42d9a5f46	headphonecheck_testphase	12	NA	NA	0	NA	second	1	353
62fb7b282ed3a1e42d9a5f46	headphonecheck_testphase	15	NA	NA	0	NA	third	1	496
62fb7b282ed3a1e42d9a5f46	headphonecheck_testphase	18	NA	NA	0	NA	first	1	266
62fb7b282ed3a1e42d9a5f46	stereocheck_testphase	3	NA	NA	0	NA	stereocheck_left	1	442
62fb7b282ed3a1e42d9a5f46	stereocheck_testphase	6	NA	NA	0	NA	stereocheck_left	1	250
62fb7b282ed3a1e42d9a5f46	stereocheck_testphase	9	NA	NA	0	NA	stereocheck_right	1	264
62fb7b282ed3a1e42d9a5f46	stereocheck_testphase	12	NA	NA	0	NA	stereocheck_right	1	318
62fb7b282ed3a1e42d9a5f46	stereocheck_testphase	15	NA	NA	0	NA	stereocheck_right	1	289
62fb7b282ed3a1e42d9a5f46	stereocheck_testphase	18	NA	NA	0	NA	stereocheck_left	1	232
62fb7b282ed3a1e42d9a5f46	DL_practice	2	da	da	0	left	da	1	1425
62fb7b282ed3a1e42d9a5f46	DL_practice	3	pa	pa	0	left	pa	1	1303
62fb7b282ed3a1e42d9a5f46	DL_practice	4	ga	ga	0	left	ga	1	1043
62fb7b282ed3a1e42d9a5f46	DL_practice	5	ka	pa	1	left	ka	1	1335
62fb7b282ed3a1e42d9a5f46	DL_practice	6	ba	ba	0	left	ba	1	2137
62fb7b282ed3a1e42d9a5f46	DL_practice	7	ka	ka	0	left	ka	1	1310
62fb7b282ed3a1e42d9a5f46	DL_practice	8	ta	ta	0	left	ta	1	1389
62fb7b282ed3a1e42d9a5f46	DL_practice	9	da	ba	1	left	da	1	1420
62fb7b282ed3a1e42d9a5f46	DL_practice	10	ga	ta	1	other	da	0	1770
62fb7b282ed3a1e42d9a5f46	DL_test	1	ta	ta	0	left	ta	1	1302
62fb7b282ed3a1e42d9a5f46	DL_test	2	pa	pa	0	left	pa	1	1609
62fb7b282ed3a1e42d9a5f46	DL_test	3	da	ga	1	left	da	1	1333
62fb7b282ed3a1e42d9a5f46	DL_test	4	ka	ta	1	left	ka	1	1184
62fb7b282ed3a1e42d9a5f46	DL_test	5	pa	ta	1	right	ta	1	1424
62fb7b282ed3a1e42d9a5f46	DL_test	6	ba	pa	1	right	pa	1	1332
62fb7b282ed3a1e42d9a5f46	DL_test	7	ga	ta	1	right	ta	1	3070
62fb7b282ed3a1e42d9a5f46	DL_test	8	ka	ka	0	left	ka	1	1202
62fb7b282ed3a1e42d9a5f46	DL_test	9	da	da	0	left	da	1	1217
62fb7b282ed3a1e42d9a5f46	DL_test	10	pa	ba	1	left	pa	1	1542
62fb7b282ed3a1e42d9a5f46	DL_test	11	ga	ka	1	right	ka	1	1383
62fb7b282ed3a1e42d9a5f46	DL_test	12	ba	ka	1	right	ka	1	1031
62fb7b282ed3a1e42d9a5f46	DL_test	13	ga	ga	0	left	ga	1	1013
62fb7b282ed3a1e42d9a5f46	DL_test	14	da	pa	1	left	da	1	1323
62fb7b282ed3a1e42d9a5f46	DL_test	15	ka	ga	1	right	ga	1	1261
62fb7b282ed3a1e42d9a5f46	DL_test	16	ka	ba	1	left	ka	1	921
62fb7b282ed3a1e42d9a5f46	DL_test	17	pa	ka	1	right	ka	1	963
62fb7b282ed3a1e42d9a5f46	DL_test	18	ba	ta	1	right	ta	1	1235
62fb7b282ed3a1e42d9a5f46	DL_test	19	da	ba	1	left	da	1	1208
62fb7b282ed3a1e42d9a5f46	DL_test	20	ba	ga	1	right	ga	1	1184
62fb7b282ed3a1e42d9a5f46	DL_test	21	pa	da	1	right	da	1	1527
62fb7b282ed3a1e42d9a5f46	DL_test	22	ta	da	1	right	da	1	1072
62fb7b282ed3a1e42d9a5f46	DL_test	23	ga	da	1	right	da	1	1628
62fb7b282ed3a1e42d9a5f46	DL_test	24	ga	pa	1	right	pa	1	1402
62fb7b282ed3a1e42d9a5f46	DL_test	25	ta	ba	1	left	ta	1	1344
62fb7b282ed3a1e42d9a5f46	DL_test	26	ka	pa	1	left	ka	1	825
62fb7b282ed3a1e42d9a5f46	DL_test	27	ga	ba	1	left	ga	1	854
62fb7b282ed3a1e42d9a5f46	DL_test	28	ka	da	1	left	ka	1	1140
62fb7b282ed3a1e42d9a5f46	DL_test	29	ta	ka	1	right	ka	1	1461
62fb7b282ed3a1e42d9a5f46	DL_test	30	ba	da	1	right	da	1	865
62fb7b282ed3a1e42d9a5f46	DL_test	31	da	ka	1	other	pa	0	1390
62fb7b282ed3a1e42d9a5f46	DL_test	32	pa	ga	1	left	pa	1	1109
62fb7b282ed3a1e42d9a5f46	DL_test	33	da	ta	1	right	ta	1	1183
62fb7b282ed3a1e42d9a5f46	DL_test	34	ta	ga	1	other	da	0	2078
62fb7b282ed3a1e42d9a5f46	DL_test	35	ba	ba	0	left	ba	1	1659
62fb7b282ed3a1e42d9a5f46	DL_test	36	ta	pa	1	left	ta	1	1399
62fb7b282ed3a1e42d9a5f46	DL_test	1	ka	ga	1	left	ka	1	882
62fb7b282ed3a1e42d9a5f46	DL_test	2	ga	ga	0	left	ga	1	805
62fb7b282ed3a1e42d9a5f46	DL_test	3	pa	ga	1	other	ka	0	932
62fb7b282ed3a1e42d9a5f46	DL_test	4	ka	da	1	left	ka	1	829
62fb7b282ed3a1e42d9a5f46	DL_test	5	da	ba	1	left	da	1	907
62fb7b282ed3a1e42d9a5f46	DL_test	6	ba	ta	1	right	ta	1	1230
62fb7b282ed3a1e42d9a5f46	DL_test	7	da	ka	1	other	pa	0	1092
62fb7b282ed3a1e42d9a5f46	DL_test	8	pa	ba	1	left	pa	1	903
62fb7b282ed3a1e42d9a5f46	DL_test	9	pa	ka	1	right	ka	1	794
62fb7b282ed3a1e42d9a5f46	DL_test	10	ka	ba	1	left	ka	1	769
62fb7b282ed3a1e42d9a5f46	DL_test	11	pa	pa	0	left	pa	1	905
62fb7b282ed3a1e42d9a5f46	DL_test	12	ka	ka	0	left	ka	1	1396
62fb7b282ed3a1e42d9a5f46	DL_test	13	da	da	0	left	da	1	1211
62fb7b282ed3a1e42d9a5f46	DL_test	14	ta	da	1	right	da	1	1962
62fb7b282ed3a1e42d9a5f46	DL_test	15	pa	da	1	left	pa	1	1155
62fb7b282ed3a1e42d9a5f46	DL_test	16	ga	da	1	right	da	1	1020
62fb7b282ed3a1e42d9a5f46	DL_test	17	ba	da	1	right	da	1	851
62fb7b282ed3a1e42d9a5f46	DL_test	18	ta	ga	1	other	ka	0	1313
62fb7b282ed3a1e42d9a5f46	DL_test	19	ga	ba	1	left	ga	1	931
62fb7b282ed3a1e42d9a5f46	DL_test	20	da	pa	1	right	pa	1	1341
62fb7b282ed3a1e42d9a5f46	DL_test	21	ga	pa	1	right	pa	1	1663
62fb7b282ed3a1e42d9a5f46	DL_test	22	ka	pa	1	left	ka	1	940
62fb7b282ed3a1e42d9a5f46	DL_test	23	ta	ba	1	left	ta	1	1342
62fb7b282ed3a1e42d9a5f46	DL_test	24	ba	pa	1	right	pa	1	838
62fb7b282ed3a1e42d9a5f46	DL_test	25	da	ta	1	right	ta	1	1500
62fb7b282ed3a1e42d9a5f46	DL_test	26	da	ga	1	left	da	1	839
62fb7b282ed3a1e42d9a5f46	DL_test	27	ta	pa	1	left	ta	1	1812
62fb7b282ed3a1e42d9a5f46	DL_test	28	ta	ta	0	left	ta	1	882
62fb7b282ed3a1e42d9a5f46	DL_test	29	ba	ka	1	right	ka	1	829
62fb7b282ed3a1e42d9a5f46	DL_test	30	ga	ta	1	right	ta	1	1195
62fb7b282ed3a1e42d9a5f46	DL_test	31	ba	ga	1	right	ga	1	850
62fb7b282ed3a1e42d9a5f46	DL_test	32	ba	ba	0	left	ba	1	1624
62fb7b282ed3a1e42d9a5f46	DL_test	33	ta	ka	1	right	ka	1	1013
62fb7b282ed3a1e42d9a5f46	DL_test	34	pa	ta	1	right	ta	1	1213
62fb7b282ed3a1e42d9a5f46	DL_test	35	ka	ta	1	right	ta	1	1162
62fb7b282ed3a1e42d9a5f46	DL_test	36	ga	ka	1	right	ka	1	985
62fb7b282ed3a1e42d9a5f46	DL_test	1	ga	da	1	right	da	1	1665
62fb7b282ed3a1e42d9a5f46	DL_test	2	da	ga	1	left	da	1	782
62fb7b282ed3a1e42d9a5f46	DL_test	3	pa	ka	1	right	ka	1	917
62fb7b282ed3a1e42d9a5f46	DL_test	4	ga	ta	1	other	ka	0	1200
62fb7b282ed3a1e42d9a5f46	DL_test	5	ga	pa	1	right	pa	1	1422
62fb7b282ed3a1e42d9a5f46	DL_test	6	pa	da	1	right	da	1	1043
62fb7b282ed3a1e42d9a5f46	DL_test	7	ta	pa	1	left	ta	1	1064
62fb7b282ed3a1e42d9a5f46	DL_test	8	pa	pa	0	left	pa	1	757
62fb7b282ed3a1e42d9a5f46	DL_test	9	ta	da	1	left	ta	1	1252
62fb7b282ed3a1e42d9a5f46	DL_test	10	pa	ba	1	left	pa	1	864
62fb7b282ed3a1e42d9a5f46	DL_test	11	da	da	0	left	da	1	868
62fb7b282ed3a1e42d9a5f46	DL_test	12	ga	ba	1	left	ga	1	1082
62fb7b282ed3a1e42d9a5f46	DL_test	13	ta	ga	1	right	ga	1	1125
62fb7b282ed3a1e42d9a5f46	DL_test	14	ba	ga	1	right	ga	1	818
62fb7b282ed3a1e42d9a5f46	DL_test	15	ta	ta	0	left	ta	1	1150
62fb7b282ed3a1e42d9a5f46	DL_test	16	pa	ga	1	left	pa	1	1047
62fb7b282ed3a1e42d9a5f46	DL_test	17	ka	ba	1	left	ka	1	893
62fb7b282ed3a1e42d9a5f46	DL_test	18	ga	ka	1	right	ka	1	904
62fb7b282ed3a1e42d9a5f46	DL_test	19	pa	ta	1	right	ta	1	1250
62fb7b282ed3a1e42d9a5f46	DL_test	20	da	ka	1	other	pa	0	1936
62fb7b282ed3a1e42d9a5f46	DL_test	21	ka	ga	1	left	ka	1	1185
62fb7b282ed3a1e42d9a5f46	DL_test	22	ba	pa	1	right	pa	1	1561
62fb7b282ed3a1e42d9a5f46	DL_test	23	ka	ka	0	left	ka	1	1065
62fb7b282ed3a1e42d9a5f46	DL_test	24	da	ta	1	right	ta	1	1126
62fb7b282ed3a1e42d9a5f46	DL_test	25	da	pa	1	right	pa	1	1584
62fb7b282ed3a1e42d9a5f46	DL_test	26	ba	ba	0	left	ba	1	1207
62fb7b282ed3a1e42d9a5f46	DL_test	27	ba	ka	1	right	ka	1	1005
62fb7b282ed3a1e42d9a5f46	DL_test	28	ka	ta	1	right	ta	1	1133
62fb7b282ed3a1e42d9a5f46	DL_test	29	ba	ta	1	right	ta	1	839
62fb7b282ed3a1e42d9a5f46	DL_test	30	ta	ba	1	left	ta	1	972
62fb7b282ed3a1e42d9a5f46	DL_test	31	ba	da	1	right	da	1	932
62fb7b282ed3a1e42d9a5f46	DL_test	32	ka	pa	1	left	ka	1	815
62fb7b282ed3a1e42d9a5f46	DL_test	33	ka	da	1	left	ka	1	1790
62fb7b282ed3a1e42d9a5f46	DL_test	34	da	ba	1	left	da	1	1133
62fb7b282ed3a1e42d9a5f46	DL_test	35	ta	ka	1	right	ka	1	911
62fb7b282ed3a1e42d9a5f46	DL_test	36	ga	ga	0	left	ga	1	1066
62fb7b282ed3a1e42d9a5f46	DL_test	1	ka	ta	1	left	ka	1	1035
62fb7b282ed3a1e42d9a5f46	DL_test	2	ga	ta	1	right	ta	1	1080
62fb7b282ed3a1e42d9a5f46	DL_test	3	pa	da	1	right	da	1	1061
62fb7b282ed3a1e42d9a5f46	DL_test	4	ta	ta	0	left	ta	1	1010
62fb7b282ed3a1e42d9a5f46	DL_test	5	da	ba	1	left	da	1	1304
62fb7b282ed3a1e42d9a5f46	DL_test	6	ta	ga	1	other	da	0	1626
62fb7b282ed3a1e42d9a5f46	DL_test	7	ka	ba	1	left	ka	1	864
62fb7b282ed3a1e42d9a5f46	DL_test	8	ka	ka	0	left	ka	1	606
62fb7b282ed3a1e42d9a5f46	DL_test	9	ga	ga	0	left	ga	1	1108
62fb7b282ed3a1e42d9a5f46	DL_test	10	ba	ga	1	right	ga	1	782
62fb7b282ed3a1e42d9a5f46	DL_test	11	ka	da	1	left	ka	1	950
62fb7b282ed3a1e42d9a5f46	DL_test	12	ga	ba	1	left	ga	1	943
62fb7b282ed3a1e42d9a5f46	DL_test	13	pa	ta	1	right	ta	1	1385
62fb7b282ed3a1e42d9a5f46	DL_test	14	pa	pa	0	left	pa	1	856
62fb7b282ed3a1e42d9a5f46	DL_test	15	ba	ta	1	right	ta	1	1300
62fb7b282ed3a1e42d9a5f46	DL_test	16	ga	ka	1	right	ka	1	823
62fb7b282ed3a1e42d9a5f46	DL_test	17	da	pa	1	right	pa	1	1142
62fb7b282ed3a1e42d9a5f46	DL_test	18	ta	ba	1	left	ta	1	1015
62fb7b282ed3a1e42d9a5f46	DL_test	19	da	ga	1	left	da	1	965
62fb7b282ed3a1e42d9a5f46	DL_test	20	ba	ba	0	other	pa	0	1101
62fb7b282ed3a1e42d9a5f46	DL_test	21	da	ta	1	right	ta	1	904
62fb7b282ed3a1e42d9a5f46	DL_test	22	ka	pa	1	left	ka	1	674
62fb7b282ed3a1e42d9a5f46	DL_test	23	pa	ga	1	left	pa	1	1038
62fb7b282ed3a1e42d9a5f46	DL_test	24	da	da	0	left	da	1	963
62fb7b282ed3a1e42d9a5f46	DL_test	25	da	ka	1	other	pa	0	892
62fb7b282ed3a1e42d9a5f46	DL_test	26	ka	ga	1	left	ka	1	815
62fb7b282ed3a1e42d9a5f46	DL_test	27	ba	da	1	right	da	1	1253
62fb7b282ed3a1e42d9a5f46	DL_test	28	pa	ka	1	right	ka	1	1241
62fb7b282ed3a1e42d9a5f46	DL_test	29	ba	pa	1	right	pa	1	735
62fb7b282ed3a1e42d9a5f46	DL_test	30	ga	pa	1	right	pa	1	986
62fb7b282ed3a1e42d9a5f46	DL_test	31	ga	da	1	right	da	1	889
62fb7b282ed3a1e42d9a5f46	DL_test	32	ta	ka	1	right	ka	1	773
62fb7b282ed3a1e42d9a5f46	DL_test	33	pa	ba	1	left	pa	1	1037
62fb7b282ed3a1e42d9a5f46	DL_test	34	ta	pa	1	left	ta	1	1458
62fb7b282ed3a1e42d9a5f46	DL_test	35	ta	da	1	left	ta	1	1048
62fb7b282ed3a1e42d9a5f46	DL_test	36	ba	ka	1	right	ka	1	1234
