subject	block	trialnum	DL_leftSound	DL_rightSound	DL_dualSound	DL_choice	response	correct	rt
63d3a3629d0b9452d3f32c7e	headphonecheck_testphase	3	NA	NA	0	NA	second	0	17220
63d3a3629d0b9452d3f32c7e	headphonecheck_testphase	6	NA	NA	0	NA	third	1	852
63d3a3629d0b9452d3f32c7e	headphonecheck_testphase	9	NA	NA	0	NA	first	1	348
63d3a3629d0b9452d3f32c7e	headphonecheck_testphase	12	NA	NA	0	NA	second	1	473
63d3a3629d0b9452d3f32c7e	headphonecheck_testphase	15	NA	NA	0	NA	first	1	276
63d3a3629d0b9452d3f32c7e	headphonecheck_testphase	18	NA	NA	0	NA	second	1	414
63d3a3629d0b9452d3f32c7e	stereocheck_testphase	3	NA	NA	0	NA	stereocheck_left	1	35
63d3a3629d0b9452d3f32c7e	stereocheck_testphase	6	NA	NA	0	NA	stereocheck_right	1	495
63d3a3629d0b9452d3f32c7e	stereocheck_testphase	9	NA	NA	0	NA	stereocheck_left	1	2200
63d3a3629d0b9452d3f32c7e	stereocheck_testphase	12	NA	NA	0	NA	stereocheck_left	1	175
63d3a3629d0b9452d3f32c7e	stereocheck_testphase	15	NA	NA	0	NA	stereocheck_right	1	2096
63d3a3629d0b9452d3f32c7e	stereocheck_testphase	18	NA	NA	0	NA	stereocheck_right	1	475
63d3a3629d0b9452d3f32c7e	DL_practice	2	da	da	0	left	da	1	1423
63d3a3629d0b9452d3f32c7e	DL_practice	3	da	ba	1	other	ga	0	2995
63d3a3629d0b9452d3f32c7e	DL_practice	4	pa	pa	0	left	pa	1	1539
63d3a3629d0b9452d3f32c7e	DL_practice	5	ba	ba	0	left	ba	1	1348
63d3a3629d0b9452d3f32c7e	DL_practice	6	ga	ga	0	left	ga	1	758
63d3a3629d0b9452d3f32c7e	DL_practice	7	ta	ta	0	other	ka	0	1020
63d3a3629d0b9452d3f32c7e	DL_practice	8	ga	ta	1	left	ga	1	892
63d3a3629d0b9452d3f32c7e	DL_practice	9	ka	pa	1	left	ka	1	977
63d3a3629d0b9452d3f32c7e	DL_practice	10	ka	ka	0	left	ka	1	606
63d3a3629d0b9452d3f32c7e	DL_test	1	ba	pa	1	left	ba	1	1643
63d3a3629d0b9452d3f32c7e	DL_test	2	pa	ba	1	left	pa	1	1301
63d3a3629d0b9452d3f32c7e	DL_test	3	da	ba	1	other	ta	0	1831
63d3a3629d0b9452d3f32c7e	DL_test	4	ga	pa	1	left	ga	1	695
63d3a3629d0b9452d3f32c7e	DL_test	5	ta	da	1	right	da	1	1034
63d3a3629d0b9452d3f32c7e	DL_test	6	ka	ka	0	left	ka	1	653
63d3a3629d0b9452d3f32c7e	DL_test	7	ga	da	1	left	ga	1	610
63d3a3629d0b9452d3f32c7e	DL_test	8	ba	da	1	other	pa	0	1268
63d3a3629d0b9452d3f32c7e	DL_test	9	ba	ka	1	right	ka	1	1039
63d3a3629d0b9452d3f32c7e	DL_test	10	ta	pa	1	left	ta	1	2001
63d3a3629d0b9452d3f32c7e	DL_test	11	da	da	0	left	da	1	835
63d3a3629d0b9452d3f32c7e	DL_test	12	ta	ba	1	other	da	0	1823
63d3a3629d0b9452d3f32c7e	DL_test	13	da	pa	1	other	ka	0	919
63d3a3629d0b9452d3f32c7e	DL_test	14	pa	ta	1	right	ta	1	929
63d3a3629d0b9452d3f32c7e	DL_test	15	ka	ga	1	right	ga	1	1196
63d3a3629d0b9452d3f32c7e	DL_test	16	ka	da	1	other	ga	0	805
63d3a3629d0b9452d3f32c7e	DL_test	17	pa	ga	1	other	ka	0	747
63d3a3629d0b9452d3f32c7e	DL_test	18	pa	pa	0	left	pa	1	638
63d3a3629d0b9452d3f32c7e	DL_test	19	ga	ga	0	left	ga	1	739
63d3a3629d0b9452d3f32c7e	DL_test	20	ta	ka	1	right	ka	1	798
63d3a3629d0b9452d3f32c7e	DL_test	21	pa	ka	1	right	ka	1	718
63d3a3629d0b9452d3f32c7e	DL_test	22	ba	ba	0	left	ba	1	1170
63d3a3629d0b9452d3f32c7e	DL_test	23	pa	da	1	right	da	1	584
63d3a3629d0b9452d3f32c7e	DL_test	24	ka	pa	1	left	ka	1	690
63d3a3629d0b9452d3f32c7e	DL_test	25	da	ga	1	right	ga	1	692
63d3a3629d0b9452d3f32c7e	DL_test	26	ta	ta	0	other	ka	0	619
63d3a3629d0b9452d3f32c7e	DL_test	27	ta	ga	1	right	ga	1	525
63d3a3629d0b9452d3f32c7e	DL_test	28	da	ta	1	other	ga	0	1000
63d3a3629d0b9452d3f32c7e	DL_test	29	ka	ba	1	left	ka	1	867
63d3a3629d0b9452d3f32c7e	DL_test	30	da	ka	1	other	ga	0	970
63d3a3629d0b9452d3f32c7e	DL_test	31	ba	ta	1	right	ta	1	1374
63d3a3629d0b9452d3f32c7e	DL_test	32	ga	ta	1	left	ga	1	841
63d3a3629d0b9452d3f32c7e	DL_test	33	ga	ka	1	left	ga	1	560
63d3a3629d0b9452d3f32c7e	DL_test	34	ba	ga	1	left	ba	1	1110
63d3a3629d0b9452d3f32c7e	DL_test	35	ka	ta	1	left	ka	1	1738
63d3a3629d0b9452d3f32c7e	DL_test	36	ga	ba	1	right	ba	1	1615
63d3a3629d0b9452d3f32c7e	DL_test	1	ta	pa	1	left	ta	1	1453
63d3a3629d0b9452d3f32c7e	DL_test	2	da	ga	1	right	ga	1	958
63d3a3629d0b9452d3f32c7e	DL_test	3	ta	ta	0	left	ta	1	2128
63d3a3629d0b9452d3f32c7e	DL_test	4	ba	da	1	left	ba	1	2162
63d3a3629d0b9452d3f32c7e	DL_test	5	da	da	0	left	da	1	865
63d3a3629d0b9452d3f32c7e	DL_test	6	pa	ka	1	right	ka	1	661
63d3a3629d0b9452d3f32c7e	DL_test	7	ka	ga	1	right	ga	1	1553
63d3a3629d0b9452d3f32c7e	DL_test	8	pa	ba	1	left	pa	1	1959
63d3a3629d0b9452d3f32c7e	DL_test	9	ga	ta	1	left	ga	1	702
63d3a3629d0b9452d3f32c7e	DL_test	10	da	ka	1	other	ga	0	667
63d3a3629d0b9452d3f32c7e	DL_test	11	ga	da	1	left	ga	1	524
63d3a3629d0b9452d3f32c7e	DL_test	12	da	ta	1	other	ga	0	619
63d3a3629d0b9452d3f32c7e	DL_test	13	pa	pa	0	left	pa	1	1121
63d3a3629d0b9452d3f32c7e	DL_test	14	ta	ga	1	right	ga	1	800
63d3a3629d0b9452d3f32c7e	DL_test	15	ba	pa	1	right	pa	1	1266
63d3a3629d0b9452d3f32c7e	DL_test	16	ba	ga	1	other	da	0	1225
63d3a3629d0b9452d3f32c7e	DL_test	17	ka	pa	1	left	ka	1	688
63d3a3629d0b9452d3f32c7e	DL_test	18	ta	ba	1	other	pa	0	1240
63d3a3629d0b9452d3f32c7e	DL_test	19	pa	ga	1	right	ga	1	788
63d3a3629d0b9452d3f32c7e	DL_test	20	ba	ta	1	other	ka	0	760
63d3a3629d0b9452d3f32c7e	DL_test	21	ba	ba	0	left	ba	1	1114
63d3a3629d0b9452d3f32c7e	DL_test	22	ga	ba	1	left	ga	1	1245
63d3a3629d0b9452d3f32c7e	DL_test	23	ga	ga	0	other	ba	0	1070
63d3a3629d0b9452d3f32c7e	DL_test	24	ba	ka	1	right	ka	1	917
63d3a3629d0b9452d3f32c7e	DL_test	25	ka	da	1	left	ka	1	875
63d3a3629d0b9452d3f32c7e	DL_test	26	ka	ta	1	left	ka	1	463
63d3a3629d0b9452d3f32c7e	DL_test	27	da	pa	1	other	ga	0	649
63d3a3629d0b9452d3f32c7e	DL_test	28	ta	da	1	right	da	1	778
63d3a3629d0b9452d3f32c7e	DL_test	29	da	ba	1	left	da	1	827
63d3a3629d0b9452d3f32c7e	DL_test	30	ga	pa	1	left	ga	1	466
63d3a3629d0b9452d3f32c7e	DL_test	31	ga	ka	1	left	ga	1	589
63d3a3629d0b9452d3f32c7e	DL_test	32	ka	ba	1	left	ka	1	599
63d3a3629d0b9452d3f32c7e	DL_test	33	pa	da	1	other	ga	0	885
63d3a3629d0b9452d3f32c7e	DL_test	34	ka	ka	0	left	ka	1	901
63d3a3629d0b9452d3f32c7e	DL_test	35	pa	ta	1	left	pa	1	1471
63d3a3629d0b9452d3f32c7e	DL_test	36	ta	ka	1	right	ka	1	1094
63d3a3629d0b9452d3f32c7e	DL_test	1	pa	ba	1	left	pa	1	891
63d3a3629d0b9452d3f32c7e	DL_test	2	pa	da	1	other	ga	0	1062
63d3a3629d0b9452d3f32c7e	DL_test	3	ta	ka	1	right	ka	1	597
63d3a3629d0b9452d3f32c7e	DL_test	4	da	pa	1	other	ga	0	800
63d3a3629d0b9452d3f32c7e	DL_test	5	ka	ka	0	left	ka	1	1056
63d3a3629d0b9452d3f32c7e	DL_test	6	da	ga	1	right	ga	1	659
63d3a3629d0b9452d3f32c7e	DL_test	7	ga	da	1	left	ga	1	521
63d3a3629d0b9452d3f32c7e	DL_test	8	ta	pa	1	left	ta	1	1525
63d3a3629d0b9452d3f32c7e	DL_test	9	ba	da	1	left	ba	1	948
63d3a3629d0b9452d3f32c7e	DL_test	10	pa	ta	1	right	ta	1	1296
63d3a3629d0b9452d3f32c7e	DL_test	11	ga	ba	1	right	ba	1	832
63d3a3629d0b9452d3f32c7e	DL_test	12	da	ka	1	other	ga	0	652
63d3a3629d0b9452d3f32c7e	DL_test	13	ta	ba	1	left	ta	1	1056
63d3a3629d0b9452d3f32c7e	DL_test	14	ga	ta	1	left	ga	1	835
63d3a3629d0b9452d3f32c7e	DL_test	15	da	da	0	left	da	1	1350
63d3a3629d0b9452d3f32c7e	DL_test	16	ka	ta	1	left	ka	1	716
63d3a3629d0b9452d3f32c7e	DL_test	17	pa	ka	1	right	ka	1	1172
63d3a3629d0b9452d3f32c7e	DL_test	18	ga	ka	1	left	ga	1	798
63d3a3629d0b9452d3f32c7e	DL_test	19	ka	pa	1	left	ka	1	905
63d3a3629d0b9452d3f32c7e	DL_test	20	ka	ga	1	left	ka	1	1291
63d3a3629d0b9452d3f32c7e	DL_test	21	da	ta	1	left	da	1	1266
63d3a3629d0b9452d3f32c7e	DL_test	22	da	ba	1	left	da	1	917
63d3a3629d0b9452d3f32c7e	DL_test	23	ga	pa	1	left	ga	1	653
63d3a3629d0b9452d3f32c7e	DL_test	24	ka	da	1	left	ka	1	763
63d3a3629d0b9452d3f32c7e	DL_test	25	ba	ga	1	other	pa	0	743
63d3a3629d0b9452d3f32c7e	DL_test	26	ta	ga	1	right	ga	1	1234
63d3a3629d0b9452d3f32c7e	DL_test	27	ba	ba	0	left	ba	1	1145
63d3a3629d0b9452d3f32c7e	DL_test	28	ta	da	1	other	ka	0	1338
63d3a3629d0b9452d3f32c7e	DL_test	29	pa	ga	1	right	ga	1	969
63d3a3629d0b9452d3f32c7e	DL_test	30	ba	ta	1	other	da	0	1058
63d3a3629d0b9452d3f32c7e	DL_test	31	ba	ka	1	right	ka	1	1522
63d3a3629d0b9452d3f32c7e	DL_test	32	ba	pa	1	right	pa	1	697
63d3a3629d0b9452d3f32c7e	DL_test	33	pa	pa	0	left	pa	1	782
63d3a3629d0b9452d3f32c7e	DL_test	34	ta	ta	0	left	ta	1	885
63d3a3629d0b9452d3f32c7e	DL_test	35	ga	ga	0	left	ga	1	1292
63d3a3629d0b9452d3f32c7e	DL_test	36	ka	ba	1	other	da	0	1184
63d3a3629d0b9452d3f32c7e	DL_test	1	pa	ba	1	left	pa	1	1206
63d3a3629d0b9452d3f32c7e	DL_test	2	ta	ka	1	right	ka	1	541
63d3a3629d0b9452d3f32c7e	DL_test	3	ga	ga	0	left	ga	1	538
63d3a3629d0b9452d3f32c7e	DL_test	4	ba	ba	0	left	ba	1	1149
63d3a3629d0b9452d3f32c7e	DL_test	5	pa	ga	1	right	ga	1	1024
63d3a3629d0b9452d3f32c7e	DL_test	6	ta	ba	1	left	ta	1	1133
63d3a3629d0b9452d3f32c7e	DL_test	7	ba	ga	1	other	pa	0	449
63d3a3629d0b9452d3f32c7e	DL_test	8	ta	da	1	right	da	1	904
63d3a3629d0b9452d3f32c7e	DL_test	9	ga	da	1	left	ga	1	409
63d3a3629d0b9452d3f32c7e	DL_test	10	ka	ta	1	left	ka	1	438
63d3a3629d0b9452d3f32c7e	DL_test	11	ta	ta	0	left	ta	1	798
63d3a3629d0b9452d3f32c7e	DL_test	12	da	ba	1	other	pa	0	799
63d3a3629d0b9452d3f32c7e	DL_test	13	ba	da	1	right	da	1	745
63d3a3629d0b9452d3f32c7e	DL_test	14	pa	da	1	other	ga	0	451
63d3a3629d0b9452d3f32c7e	DL_test	15	ta	ga	1	right	ga	1	818
63d3a3629d0b9452d3f32c7e	DL_test	16	ta	pa	1	left	ta	1	792
63d3a3629d0b9452d3f32c7e	DL_test	17	da	pa	1	other	ga	0	1284
63d3a3629d0b9452d3f32c7e	DL_test	18	ka	ga	1	left	ka	1	607
63d3a3629d0b9452d3f32c7e	DL_test	19	ka	da	1	left	ka	1	562
63d3a3629d0b9452d3f32c7e	DL_test	20	pa	ta	1	right	ta	1	992
63d3a3629d0b9452d3f32c7e	DL_test	21	ba	ta	1	other	pa	0	942
63d3a3629d0b9452d3f32c7e	DL_test	22	ga	ba	1	right	ba	1	1759
63d3a3629d0b9452d3f32c7e	DL_test	23	ka	ba	1	left	ka	1	1428
63d3a3629d0b9452d3f32c7e	DL_test	24	pa	ka	1	right	ka	1	767
63d3a3629d0b9452d3f32c7e	DL_test	25	ka	ka	0	left	ka	1	407
63d3a3629d0b9452d3f32c7e	DL_test	26	ba	pa	1	right	pa	1	946
63d3a3629d0b9452d3f32c7e	DL_test	27	ga	ta	1	left	ga	1	653
63d3a3629d0b9452d3f32c7e	DL_test	28	ba	ka	1	other	ta	0	1213
63d3a3629d0b9452d3f32c7e	DL_test	29	ga	pa	1	other	ka	0	1229
63d3a3629d0b9452d3f32c7e	DL_test	30	da	ka	1	other	ga	0	1054
63d3a3629d0b9452d3f32c7e	DL_test	31	da	ga	1	left	da	1	2163
63d3a3629d0b9452d3f32c7e	DL_test	32	da	da	0	other	ga	0	700
63d3a3629d0b9452d3f32c7e	DL_test	33	ka	pa	1	left	ka	1	768
63d3a3629d0b9452d3f32c7e	DL_test	34	da	ta	1	left	da	1	1602
63d3a3629d0b9452d3f32c7e	DL_test	35	ga	ka	1	left	ga	1	917
63d3a3629d0b9452d3f32c7e	DL_test	36	pa	pa	0	left	pa	1	1075
