subject	block	trialnum	DL_leftSound	DL_rightSound	DL_dualSound	DL_choice	response	correct	rt
642b42fc8858b97ac2975432	headphonecheck_testphase	3	NA	NA	0	NA	second	1	104
642b42fc8858b97ac2975432	headphonecheck_testphase	6	NA	NA	0	NA	second	1	19
642b42fc8858b97ac2975432	headphonecheck_testphase	9	NA	NA	0	NA	third	1	313
642b42fc8858b97ac2975432	headphonecheck_testphase	12	NA	NA	0	NA	first	1	3743
642b42fc8858b97ac2975432	headphonecheck_testphase	15	NA	NA	0	NA	third	1	416
642b42fc8858b97ac2975432	headphonecheck_testphase	18	NA	NA	0	NA	first	1	282
642b42fc8858b97ac2975432	stereocheck_testphase	3	NA	NA	0	NA	stereocheck_right	1	312
642b42fc8858b97ac2975432	stereocheck_testphase	6	NA	NA	0	NA	stereocheck_left	1	148
642b42fc8858b97ac2975432	stereocheck_testphase	9	NA	NA	0	NA	stereocheck_left	1	216
642b42fc8858b97ac2975432	stereocheck_testphase	12	NA	NA	0	NA	stereocheck_right	1	176
642b42fc8858b97ac2975432	stereocheck_testphase	15	NA	NA	0	NA	stereocheck_right	1	142
642b42fc8858b97ac2975432	stereocheck_testphase	18	NA	NA	0	NA	stereocheck_left	1	223
642b42fc8858b97ac2975432	DL_practice	2	da	ba	1	other	ga	0	2110
642b42fc8858b97ac2975432	DL_practice	3	da	da	0	left	da	1	931
642b42fc8858b97ac2975432	DL_practice	4	ka	ka	0	left	ka	1	981
642b42fc8858b97ac2975432	DL_practice	5	pa	pa	0	left	pa	1	808
642b42fc8858b97ac2975432	DL_practice	6	ga	ga	0	left	ga	1	653
642b42fc8858b97ac2975432	DL_practice	7	ba	ba	0	other	da	0	1026
642b42fc8858b97ac2975432	DL_practice	8	ka	pa	1	left	ka	1	714
642b42fc8858b97ac2975432	DL_practice	9	ta	ta	0	left	ta	1	1356
642b42fc8858b97ac2975432	DL_practice	10	ga	ta	1	left	ga	1	946
642b42fc8858b97ac2975432	DL_test	1	da	ka	1	left	da	1	973
642b42fc8858b97ac2975432	DL_test	2	ta	ga	1	right	ga	1	506
642b42fc8858b97ac2975432	DL_test	3	ga	ba	1	other	da	0	1829
642b42fc8858b97ac2975432	DL_test	4	ka	ga	1	right	ga	1	530
642b42fc8858b97ac2975432	DL_test	5	ta	pa	1	left	ta	1	1353
642b42fc8858b97ac2975432	DL_test	6	da	ba	1	left	da	1	1200
642b42fc8858b97ac2975432	DL_test	7	ka	ka	0	left	ka	1	759
642b42fc8858b97ac2975432	DL_test	8	pa	ta	1	other	ka	0	807
642b42fc8858b97ac2975432	DL_test	9	ta	ba	1	other	da	0	2109
642b42fc8858b97ac2975432	DL_test	10	ga	pa	1	left	ga	1	835
642b42fc8858b97ac2975432	DL_test	11	ba	ta	1	left	ba	1	1725
642b42fc8858b97ac2975432	DL_test	12	ka	pa	1	left	ka	1	1093
642b42fc8858b97ac2975432	DL_test	13	da	da	0	left	da	1	892
642b42fc8858b97ac2975432	DL_test	14	pa	pa	0	left	pa	1	1027
642b42fc8858b97ac2975432	DL_test	15	pa	ga	1	right	ga	1	755
642b42fc8858b97ac2975432	DL_test	16	ka	da	1	other	ga	0	598
642b42fc8858b97ac2975432	DL_test	17	ta	ka	1	right	ka	1	1417
642b42fc8858b97ac2975432	DL_test	18	da	pa	1	left	da	1	2009
642b42fc8858b97ac2975432	DL_test	19	ba	da	1	right	da	1	530
642b42fc8858b97ac2975432	DL_test	20	ba	ga	1	right	ga	1	729
642b42fc8858b97ac2975432	DL_test	21	pa	da	1	right	da	1	685
642b42fc8858b97ac2975432	DL_test	22	ta	da	1	right	da	1	525
642b42fc8858b97ac2975432	DL_test	23	ta	ta	0	left	ta	1	1750
642b42fc8858b97ac2975432	DL_test	24	da	ta	1	left	da	1	945
642b42fc8858b97ac2975432	DL_test	25	ga	ta	1	left	ga	1	681
642b42fc8858b97ac2975432	DL_test	26	ba	pa	1	left	ba	1	738
642b42fc8858b97ac2975432	DL_test	27	ka	ta	1	right	ta	1	1157
642b42fc8858b97ac2975432	DL_test	28	ga	ga	0	left	ga	1	553
642b42fc8858b97ac2975432	DL_test	29	pa	ka	1	right	ka	1	499
642b42fc8858b97ac2975432	DL_test	30	ga	da	1	left	ga	1	469
642b42fc8858b97ac2975432	DL_test	31	pa	ba	1	left	pa	1	1820
642b42fc8858b97ac2975432	DL_test	32	ba	ka	1	other	ga	0	670
642b42fc8858b97ac2975432	DL_test	33	ga	ka	1	left	ga	1	709
642b42fc8858b97ac2975432	DL_test	34	ka	ba	1	left	ka	1	701
642b42fc8858b97ac2975432	DL_test	35	da	ga	1	right	ga	1	568
642b42fc8858b97ac2975432	DL_test	36	ba	ba	0	left	ba	1	1118
642b42fc8858b97ac2975432	DL_test	1	da	ga	1	right	ga	1	505
642b42fc8858b97ac2975432	DL_test	2	ka	pa	1	left	ka	1	912
642b42fc8858b97ac2975432	DL_test	3	ba	pa	1	left	ba	1	874
642b42fc8858b97ac2975432	DL_test	4	ka	ka	0	left	ka	1	748
642b42fc8858b97ac2975432	DL_test	5	ta	da	1	right	da	1	1347
642b42fc8858b97ac2975432	DL_test	6	ba	da	1	right	da	1	691
642b42fc8858b97ac2975432	DL_test	7	ka	da	1	other	ga	0	666
642b42fc8858b97ac2975432	DL_test	8	da	da	0	left	da	1	735
642b42fc8858b97ac2975432	DL_test	9	da	ka	1	left	da	1	636
642b42fc8858b97ac2975432	DL_test	10	da	ba	1	left	da	1	1726
642b42fc8858b97ac2975432	DL_test	11	ta	ka	1	right	ka	1	1010
642b42fc8858b97ac2975432	DL_test	12	ka	ba	1	left	ka	1	736
642b42fc8858b97ac2975432	DL_test	13	ba	ga	1	right	ga	1	748
642b42fc8858b97ac2975432	DL_test	14	ga	ga	0	left	ga	1	573
642b42fc8858b97ac2975432	DL_test	15	ba	ka	1	other	ga	0	498
642b42fc8858b97ac2975432	DL_test	16	pa	pa	0	left	pa	1	859
642b42fc8858b97ac2975432	DL_test	17	ta	ta	0	left	ta	1	583
642b42fc8858b97ac2975432	DL_test	18	da	ta	1	left	da	1	749
642b42fc8858b97ac2975432	DL_test	19	ba	ta	1	other	da	0	1575
642b42fc8858b97ac2975432	DL_test	20	pa	ba	1	left	pa	1	1524
642b42fc8858b97ac2975432	DL_test	21	ta	ba	1	left	ta	1	1663
642b42fc8858b97ac2975432	DL_test	22	ba	ba	0	left	ba	1	1366
642b42fc8858b97ac2975432	DL_test	23	pa	ta	1	right	ta	1	1435
642b42fc8858b97ac2975432	DL_test	24	ga	da	1	left	ga	1	923
642b42fc8858b97ac2975432	DL_test	25	ga	ta	1	other	da	0	689
642b42fc8858b97ac2975432	DL_test	26	ta	pa	1	left	ta	1	1054
642b42fc8858b97ac2975432	DL_test	27	ka	ta	1	right	ta	1	457
642b42fc8858b97ac2975432	DL_test	28	ga	pa	1	left	ga	1	839
642b42fc8858b97ac2975432	DL_test	29	ga	ba	1	left	ga	1	2557
642b42fc8858b97ac2975432	DL_test	30	pa	ga	1	right	ga	1	1558
642b42fc8858b97ac2975432	DL_test	31	ka	ga	1	right	ga	1	493
642b42fc8858b97ac2975432	DL_test	32	ga	ka	1	left	ga	1	464
642b42fc8858b97ac2975432	DL_test	33	ta	ga	1	right	ga	1	566
642b42fc8858b97ac2975432	DL_test	34	pa	da	1	right	da	1	855
642b42fc8858b97ac2975432	DL_test	35	da	pa	1	left	da	1	543
642b42fc8858b97ac2975432	DL_test	36	pa	ka	1	right	ka	1	959
642b42fc8858b97ac2975432	DL_test	1	da	ta	1	left	da	1	752
642b42fc8858b97ac2975432	DL_test	2	ka	ga	1	right	ga	1	819
642b42fc8858b97ac2975432	DL_test	3	ta	ka	1	right	ka	1	627
642b42fc8858b97ac2975432	DL_test	4	da	ga	1	left	da	1	1148
642b42fc8858b97ac2975432	DL_test	5	pa	ba	1	left	pa	1	852
642b42fc8858b97ac2975432	DL_test	6	ta	ta	0	left	ta	1	641
642b42fc8858b97ac2975432	DL_test	7	pa	ga	1	right	ga	1	565
642b42fc8858b97ac2975432	DL_test	8	ba	ta	1	other	da	0	481
642b42fc8858b97ac2975432	DL_test	9	ta	pa	1	left	ta	1	947
642b42fc8858b97ac2975432	DL_test	10	ga	ba	1	left	ga	1	764
642b42fc8858b97ac2975432	DL_test	11	ka	ka	0	other	da	0	957
642b42fc8858b97ac2975432	DL_test	12	ba	ba	0	left	ba	1	971
642b42fc8858b97ac2975432	DL_test	13	ba	ka	1	other	ga	0	576
642b42fc8858b97ac2975432	DL_test	14	ta	da	1	right	da	1	767
642b42fc8858b97ac2975432	DL_test	15	ba	ga	1	left	ba	1	1591
642b42fc8858b97ac2975432	DL_test	16	ta	ba	1	right	ba	1	1057
642b42fc8858b97ac2975432	DL_test	17	da	ka	1	other	ba	0	583
642b42fc8858b97ac2975432	DL_test	18	da	da	0	left	da	1	769
642b42fc8858b97ac2975432	DL_test	19	ka	ba	1	other	ga	0	1783
642b42fc8858b97ac2975432	DL_test	20	pa	ta	1	left	pa	1	1392
642b42fc8858b97ac2975432	DL_test	21	ga	pa	1	other	ka	0	558
642b42fc8858b97ac2975432	DL_test	22	da	ba	1	other	pa	0	2148
642b42fc8858b97ac2975432	DL_test	23	ga	ga	0	left	ga	1	1172
642b42fc8858b97ac2975432	DL_test	24	ga	ta	1	left	ga	1	679
642b42fc8858b97ac2975432	DL_test	25	ka	pa	1	left	ka	1	789
642b42fc8858b97ac2975432	DL_test	26	pa	da	1	other	ga	0	1339
642b42fc8858b97ac2975432	DL_test	27	ga	da	1	right	da	1	1998
642b42fc8858b97ac2975432	DL_test	28	ga	ka	1	left	ga	1	655
642b42fc8858b97ac2975432	DL_test	29	ba	da	1	other	pa	0	1397
642b42fc8858b97ac2975432	DL_test	30	da	pa	1	other	ga	0	1532
642b42fc8858b97ac2975432	DL_test	31	pa	pa	0	left	pa	1	978
642b42fc8858b97ac2975432	DL_test	32	ta	ga	1	right	ga	1	711
642b42fc8858b97ac2975432	DL_test	33	pa	ka	1	right	ka	1	725
642b42fc8858b97ac2975432	DL_test	34	ba	pa	1	right	pa	1	985
642b42fc8858b97ac2975432	DL_test	35	ka	da	1	other	ta	0	1518
642b42fc8858b97ac2975432	DL_test	36	ka	ta	1	right	ta	1	843
642b42fc8858b97ac2975432	DL_test	1	ka	ka	0	left	ka	1	875
642b42fc8858b97ac2975432	DL_test	2	ta	ka	1	right	ka	1	717
642b42fc8858b97ac2975432	DL_test	3	ta	ta	0	other	ka	0	613
642b42fc8858b97ac2975432	DL_test	4	ba	ka	1	other	ga	0	668
642b42fc8858b97ac2975432	DL_test	5	ka	pa	1	right	pa	1	1191
642b42fc8858b97ac2975432	DL_test	6	ka	ga	1	right	ga	1	593
642b42fc8858b97ac2975432	DL_test	7	da	ta	1	other	pa	0	1217
642b42fc8858b97ac2975432	DL_test	8	ka	ta	1	right	ta	1	1094
642b42fc8858b97ac2975432	DL_test	9	pa	ta	1	right	ta	1	605
642b42fc8858b97ac2975432	DL_test	10	ga	da	1	right	da	1	1063
642b42fc8858b97ac2975432	DL_test	11	ga	ta	1	other	da	0	639
642b42fc8858b97ac2975432	DL_test	12	pa	da	1	right	da	1	587
642b42fc8858b97ac2975432	DL_test	13	ga	ga	0	other	da	0	531
642b42fc8858b97ac2975432	DL_test	14	pa	ba	1	left	pa	1	1149
642b42fc8858b97ac2975432	DL_test	15	da	ga	1	right	ga	1	608
642b42fc8858b97ac2975432	DL_test	16	ta	pa	1	right	pa	1	1180
642b42fc8858b97ac2975432	DL_test	17	ka	ba	1	right	ba	1	1199
642b42fc8858b97ac2975432	DL_test	18	ka	da	1	other	ga	0	1586
642b42fc8858b97ac2975432	DL_test	19	ga	ka	1	left	ga	1	513
642b42fc8858b97ac2975432	DL_test	20	da	da	0	left	da	1	943
642b42fc8858b97ac2975432	DL_test	21	pa	ga	1	right	ga	1	510
642b42fc8858b97ac2975432	DL_test	22	pa	pa	0	left	pa	1	688
642b42fc8858b97ac2975432	DL_test	23	pa	ka	1	right	ka	1	740
642b42fc8858b97ac2975432	DL_test	24	ga	ba	1	right	ba	1	1165
642b42fc8858b97ac2975432	DL_test	25	da	ba	1	right	ba	1	508
642b42fc8858b97ac2975432	DL_test	26	ta	ga	1	right	ga	1	768
642b42fc8858b97ac2975432	DL_test	27	da	ka	1	other	ga	0	1040
642b42fc8858b97ac2975432	DL_test	28	ba	ta	1	other	pa	0	1518
642b42fc8858b97ac2975432	DL_test	29	ba	pa	1	left	ba	1	1125
642b42fc8858b97ac2975432	DL_test	30	ta	ba	1	right	ba	1	579
642b42fc8858b97ac2975432	DL_test	31	da	pa	1	left	da	1	1353
642b42fc8858b97ac2975432	DL_test	32	ba	ga	1	other	da	0	668
642b42fc8858b97ac2975432	DL_test	33	ba	da	1	right	da	1	655
642b42fc8858b97ac2975432	DL_test	34	ba	ba	0	other	da	0	591
642b42fc8858b97ac2975432	DL_test	35	ga	pa	1	other	da	0	565
642b42fc8858b97ac2975432	DL_test	36	ta	da	1	right	da	1	528
