subject	block	trialnum	DL_leftSound	DL_rightSound	DL_dualSound	DL_choice	response	correct	rt
5beccd423b6489000156596f	headphonecheck_testphase	3	NA	NA	0	NA	third	1	435
5beccd423b6489000156596f	headphonecheck_testphase	6	NA	NA	0	NA	second	1	371
5beccd423b6489000156596f	headphonecheck_testphase	9	NA	NA	0	NA	first	1	312
5beccd423b6489000156596f	headphonecheck_testphase	12	NA	NA	0	NA	third	1	347
5beccd423b6489000156596f	headphonecheck_testphase	15	NA	NA	0	NA	second	1	329
5beccd423b6489000156596f	headphonecheck_testphase	18	NA	NA	0	NA	first	1	270
5beccd423b6489000156596f	stereocheck_testphase	3	NA	NA	0	NA	stereocheck_right	1	287
5beccd423b6489000156596f	stereocheck_testphase	6	NA	NA	0	NA	stereocheck_left	1	308
5beccd423b6489000156596f	stereocheck_testphase	9	NA	NA	0	NA	stereocheck_right	1	355
5beccd423b6489000156596f	stereocheck_testphase	12	NA	NA	0	NA	stereocheck_left	1	239
5beccd423b6489000156596f	stereocheck_testphase	15	NA	NA	0	NA	stereocheck_right	1	346
5beccd423b6489000156596f	stereocheck_testphase	18	NA	NA	0	NA	stereocheck_left	1	297
5beccd423b6489000156596f	DL_practice	2	ka	ka	0	left	ka	1	1087
5beccd423b6489000156596f	DL_practice	3	ka	pa	1	left	ka	1	885
5beccd423b6489000156596f	DL_practice	4	pa	pa	0	left	pa	1	896
5beccd423b6489000156596f	DL_practice	5	da	da	0	left	da	1	874
5beccd423b6489000156596f	DL_practice	6	ba	ba	0	left	ba	1	884
5beccd423b6489000156596f	DL_practice	7	da	ba	1	right	ba	1	1596
5beccd423b6489000156596f	DL_practice	8	ga	ta	1	other	ka	0	1015
5beccd423b6489000156596f	DL_practice	9	ga	ga	0	left	ga	1	831
5beccd423b6489000156596f	DL_practice	10	ta	ta	0	left	ta	1	1026
5beccd423b6489000156596f	DL_test	1	ga	ga	0	left	ga	1	699
5beccd423b6489000156596f	DL_test	2	ta	pa	1	right	pa	1	937
5beccd423b6489000156596f	DL_test	3	ka	ka	0	left	ka	1	966
5beccd423b6489000156596f	DL_test	4	da	ga	1	left	da	1	747
5beccd423b6489000156596f	DL_test	5	da	da	0	left	da	1	785
5beccd423b6489000156596f	DL_test	6	ka	da	1	left	ka	1	907
5beccd423b6489000156596f	DL_test	7	da	ta	1	right	ta	1	1504
5beccd423b6489000156596f	DL_test	8	ka	ga	1	left	ka	1	1101
5beccd423b6489000156596f	DL_test	9	pa	ka	1	left	pa	1	895
5beccd423b6489000156596f	DL_test	10	ba	ga	1	right	ga	1	882
5beccd423b6489000156596f	DL_test	11	ga	da	1	right	da	1	1479
5beccd423b6489000156596f	DL_test	12	ga	pa	1	other	ka	0	1682
5beccd423b6489000156596f	DL_test	13	ba	da	1	right	da	1	976
5beccd423b6489000156596f	DL_test	14	pa	ba	1	left	pa	1	1151
5beccd423b6489000156596f	DL_test	15	ta	ka	1	right	ka	1	925
5beccd423b6489000156596f	DL_test	16	da	ka	1	left	da	1	1269
5beccd423b6489000156596f	DL_test	17	ga	ba	1	right	ba	1	833
5beccd423b6489000156596f	DL_test	18	ta	ga	1	other	da	0	1307
5beccd423b6489000156596f	DL_test	19	pa	ga	1	left	pa	1	1242
5beccd423b6489000156596f	DL_test	20	ga	ka	1	right	ka	1	831
5beccd423b6489000156596f	DL_test	21	pa	pa	0	left	pa	1	964
5beccd423b6489000156596f	DL_test	22	da	pa	1	right	pa	1	951
5beccd423b6489000156596f	DL_test	23	ba	ba	0	left	ba	1	1065
5beccd423b6489000156596f	DL_test	24	ka	ta	1	right	ta	1	1099
5beccd423b6489000156596f	DL_test	25	ba	ka	1	right	ka	1	1352
5beccd423b6489000156596f	DL_test	26	da	ba	1	left	da	1	1008
5beccd423b6489000156596f	DL_test	27	ka	ba	1	other	pa	0	1097
5beccd423b6489000156596f	DL_test	28	ka	pa	1	right	pa	1	958
5beccd423b6489000156596f	DL_test	29	pa	ta	1	right	ta	1	841
5beccd423b6489000156596f	DL_test	30	ta	ba	1	other	pa	0	976
5beccd423b6489000156596f	DL_test	31	ba	ta	1	other	pa	0	820
5beccd423b6489000156596f	DL_test	32	ta	ta	0	left	ta	1	882
5beccd423b6489000156596f	DL_test	33	ba	pa	1	right	pa	1	909
5beccd423b6489000156596f	DL_test	34	pa	da	1	left	pa	1	926
5beccd423b6489000156596f	DL_test	35	ga	ta	1	right	ta	1	893
5beccd423b6489000156596f	DL_test	36	ta	da	1	left	ta	1	1218
5beccd423b6489000156596f	DL_test	1	ta	ba	1	other	pa	0	817
5beccd423b6489000156596f	DL_test	2	da	ka	1	other	pa	0	673
5beccd423b6489000156596f	DL_test	3	ba	ga	1	other	da	0	1223
5beccd423b6489000156596f	DL_test	4	ta	pa	1	right	pa	1	934
5beccd423b6489000156596f	DL_test	5	pa	ka	1	left	pa	1	647
5beccd423b6489000156596f	DL_test	6	pa	da	1	left	pa	1	733
5beccd423b6489000156596f	DL_test	7	ba	pa	1	right	pa	1	572
5beccd423b6489000156596f	DL_test	8	ta	ka	1	left	ta	1	1005
5beccd423b6489000156596f	DL_test	9	da	ga	1	left	da	1	985
5beccd423b6489000156596f	DL_test	10	ta	da	1	left	ta	1	1101
5beccd423b6489000156596f	DL_test	11	pa	ta	1	left	pa	1	1789
5beccd423b6489000156596f	DL_test	12	da	ba	1	left	da	1	920
5beccd423b6489000156596f	DL_test	13	ta	ga	1	left	ta	1	1179
5beccd423b6489000156596f	DL_test	14	ta	ta	0	left	ta	1	1103
5beccd423b6489000156596f	DL_test	15	ga	da	1	right	da	1	1061
5beccd423b6489000156596f	DL_test	16	pa	ga	1	left	pa	1	924
5beccd423b6489000156596f	DL_test	17	ba	ba	0	left	ba	1	1230
5beccd423b6489000156596f	DL_test	18	pa	pa	0	left	pa	1	1051
5beccd423b6489000156596f	DL_test	19	pa	ba	1	left	pa	1	1160
5beccd423b6489000156596f	DL_test	20	ba	ta	1	right	ta	1	1035
5beccd423b6489000156596f	DL_test	21	ka	pa	1	right	pa	1	846
5beccd423b6489000156596f	DL_test	22	ga	ka	1	right	ka	1	936
5beccd423b6489000156596f	DL_test	23	ka	ba	1	left	ka	1	939
5beccd423b6489000156596f	DL_test	24	ga	ga	0	left	ga	1	1374
5beccd423b6489000156596f	DL_test	25	ba	da	1	right	da	1	807
5beccd423b6489000156596f	DL_test	26	da	da	0	left	da	1	776
5beccd423b6489000156596f	DL_test	27	ka	ga	1	left	ka	1	1100
5beccd423b6489000156596f	DL_test	28	ga	ba	1	other	da	0	1300
5beccd423b6489000156596f	DL_test	29	ga	pa	1	right	pa	1	1079
5beccd423b6489000156596f	DL_test	30	da	pa	1	right	pa	1	752
5beccd423b6489000156596f	DL_test	31	ka	da	1	other	ta	0	770
5beccd423b6489000156596f	DL_test	32	ka	ta	1	right	ta	1	600
5beccd423b6489000156596f	DL_test	33	ga	ta	1	right	ta	1	568
5beccd423b6489000156596f	DL_test	34	da	ta	1	right	ta	1	645
5beccd423b6489000156596f	DL_test	35	ba	ka	1	right	ka	1	1096
5beccd423b6489000156596f	DL_test	36	ka	ka	0	left	ka	1	1071
5beccd423b6489000156596f	DL_test	1	pa	da	1	other	ta	0	1154
5beccd423b6489000156596f	DL_test	2	ba	ka	1	other	ta	0	1429
5beccd423b6489000156596f	DL_test	3	ka	ta	1	right	ta	1	900
5beccd423b6489000156596f	DL_test	4	da	pa	1	right	pa	1	1242
5beccd423b6489000156596f	DL_test	5	ta	da	1	left	ta	1	817
5beccd423b6489000156596f	DL_test	6	ka	ga	1	left	ka	1	849
5beccd423b6489000156596f	DL_test	7	da	da	0	left	da	1	782
5beccd423b6489000156596f	DL_test	8	ga	pa	1	right	pa	1	832
5beccd423b6489000156596f	DL_test	9	pa	ka	1	left	pa	1	1854
5beccd423b6489000156596f	DL_test	10	da	ga	1	left	da	1	1015
5beccd423b6489000156596f	DL_test	11	ba	ga	1	other	da	0	958
5beccd423b6489000156596f	DL_test	12	ka	da	1	left	ka	1	1297
5beccd423b6489000156596f	DL_test	13	ga	ta	1	right	ta	1	796
5beccd423b6489000156596f	DL_test	14	pa	ba	1	left	pa	1	1043
5beccd423b6489000156596f	DL_test	15	pa	pa	0	left	pa	1	956
5beccd423b6489000156596f	DL_test	16	ta	ba	1	left	ta	1	1160
5beccd423b6489000156596f	DL_test	17	ba	ta	1	right	ta	1	1006
5beccd423b6489000156596f	DL_test	18	ba	ba	0	left	ba	1	1110
5beccd423b6489000156596f	DL_test	19	ga	ka	1	right	ka	1	1131
5beccd423b6489000156596f	DL_test	20	ga	ga	0	left	ga	1	915
5beccd423b6489000156596f	DL_test	21	ka	pa	1	right	pa	1	1038
5beccd423b6489000156596f	DL_test	22	ga	da	1	right	da	1	1438
5beccd423b6489000156596f	DL_test	23	ta	pa	1	right	pa	1	1041
5beccd423b6489000156596f	DL_test	24	pa	ga	1	left	pa	1	1669
5beccd423b6489000156596f	DL_test	25	da	ka	1	other	pa	0	982
5beccd423b6489000156596f	DL_test	26	ka	ba	1	other	pa	0	609
5beccd423b6489000156596f	DL_test	27	ga	ba	1	other	da	0	1437
5beccd423b6489000156596f	DL_test	28	ka	ka	0	left	ka	1	904
5beccd423b6489000156596f	DL_test	29	da	ba	1	left	da	1	1070
5beccd423b6489000156596f	DL_test	30	ta	ta	0	left	ta	1	1348
5beccd423b6489000156596f	DL_test	31	pa	ta	1	left	pa	1	1217
5beccd423b6489000156596f	DL_test	32	ba	pa	1	right	pa	1	905
5beccd423b6489000156596f	DL_test	33	ta	ga	1	left	ta	1	1013
5beccd423b6489000156596f	DL_test	34	ba	da	1	right	da	1	922
5beccd423b6489000156596f	DL_test	35	ta	ka	1	left	ta	1	1187
5beccd423b6489000156596f	DL_test	36	da	ta	1	right	ta	1	982
5beccd423b6489000156596f	DL_test	1	pa	pa	0	left	pa	1	1091
5beccd423b6489000156596f	DL_test	2	ta	pa	1	right	pa	1	825
5beccd423b6489000156596f	DL_test	3	ba	ta	1	right	ta	1	901
5beccd423b6489000156596f	DL_test	4	ka	ta	1	right	ta	1	968
5beccd423b6489000156596f	DL_test	5	ba	ba	0	left	ba	1	1059
5beccd423b6489000156596f	DL_test	6	ba	ga	1	other	da	0	884
5beccd423b6489000156596f	DL_test	7	ba	pa	1	right	pa	1	966
5beccd423b6489000156596f	DL_test	8	da	ba	1	left	da	1	1030
5beccd423b6489000156596f	DL_test	9	ta	ta	0	left	ta	1	906
5beccd423b6489000156596f	DL_test	10	ka	da	1	left	ka	1	1158
5beccd423b6489000156596f	DL_test	11	ka	pa	1	right	pa	1	831
5beccd423b6489000156596f	DL_test	12	pa	ka	1	left	pa	1	822
5beccd423b6489000156596f	DL_test	13	ga	da	1	right	da	1	847
5beccd423b6489000156596f	DL_test	14	ta	da	1	left	ta	1	1262
5beccd423b6489000156596f	DL_test	15	ka	ka	0	left	ka	1	1120
5beccd423b6489000156596f	DL_test	16	da	da	0	left	da	1	1071
5beccd423b6489000156596f	DL_test	17	ga	ta	1	right	ta	1	1072
5beccd423b6489000156596f	DL_test	18	ka	ba	1	left	ka	1	1180
5beccd423b6489000156596f	DL_test	19	ga	ga	0	left	ga	1	1007
5beccd423b6489000156596f	DL_test	20	pa	ta	1	right	ta	1	995
5beccd423b6489000156596f	DL_test	21	pa	da	1	other	ta	0	1025
5beccd423b6489000156596f	DL_test	22	ta	ka	1	left	ta	1	997
5beccd423b6489000156596f	DL_test	23	ba	ka	1	right	ka	1	795
5beccd423b6489000156596f	DL_test	24	da	ga	1	left	da	1	953
5beccd423b6489000156596f	DL_test	25	ga	pa	1	right	pa	1	1139
5beccd423b6489000156596f	DL_test	26	ta	ba	1	left	ta	1	1175
5beccd423b6489000156596f	DL_test	27	ka	ga	1	left	ka	1	924
5beccd423b6489000156596f	DL_test	28	ga	ka	1	right	ka	1	649
5beccd423b6489000156596f	DL_test	29	da	ta	1	right	ta	1	804
5beccd423b6489000156596f	DL_test	30	pa	ga	1	left	pa	1	859
5beccd423b6489000156596f	DL_test	31	ba	da	1	right	da	1	881
5beccd423b6489000156596f	DL_test	32	da	pa	1	right	pa	1	1190
5beccd423b6489000156596f	DL_test	33	ta	ga	1	left	ta	1	1231
5beccd423b6489000156596f	DL_test	34	pa	ba	1	left	pa	1	1292
5beccd423b6489000156596f	DL_test	35	ga	ba	1	other	da	0	1035
5beccd423b6489000156596f	DL_test	36	da	ka	1	other	pa	0	1092
