subject	block	trialnum	DL_leftSound	DL_rightSound	DL_dualSound	DL_choice	response	correct	rt
5d15fedfa8eae10015738ed7	headphonecheck_testphase	3	NA	NA	0	NA	second	1	777
5d15fedfa8eae10015738ed7	headphonecheck_testphase	6	NA	NA	0	NA	second	0	3850
5d15fedfa8eae10015738ed7	headphonecheck_testphase	9	NA	NA	0	NA	third	1	1854
5d15fedfa8eae10015738ed7	headphonecheck_testphase	12	NA	NA	0	NA	third	1	529
5d15fedfa8eae10015738ed7	headphonecheck_testphase	15	NA	NA	0	NA	second	1	368
5d15fedfa8eae10015738ed7	headphonecheck_testphase	18	NA	NA	0	NA	third	0	373
5d15fedfa8eae10015738ed7	stereocheck_testphase	3	NA	NA	0	NA	stereocheck_left	1	875
5d15fedfa8eae10015738ed7	stereocheck_testphase	6	NA	NA	0	NA	stereocheck_left	1	338
5d15fedfa8eae10015738ed7	stereocheck_testphase	9	NA	NA	0	NA	stereocheck_right	1	264
5d15fedfa8eae10015738ed7	stereocheck_testphase	12	NA	NA	0	NA	stereocheck_right	1	224
5d15fedfa8eae10015738ed7	stereocheck_testphase	15	NA	NA	0	NA	stereocheck_right	1	230
5d15fedfa8eae10015738ed7	stereocheck_testphase	18	NA	NA	0	NA	stereocheck_left	1	255
5d15fedfa8eae10015738ed7	DL_practice	2	ga	ga	0	left	ga	1	723
5d15fedfa8eae10015738ed7	DL_practice	3	pa	pa	0	left	pa	1	1497
5d15fedfa8eae10015738ed7	DL_practice	4	ba	ba	0	left	ba	1	1000
5d15fedfa8eae10015738ed7	DL_practice	5	da	da	0	other	ga	0	1008
5d15fedfa8eae10015738ed7	DL_practice	6	ga	ta	1	left	ga	1	1393
5d15fedfa8eae10015738ed7	DL_practice	7	ka	pa	1	left	ka	1	958
5d15fedfa8eae10015738ed7	DL_practice	8	da	ba	1	right	ba	1	1258
5d15fedfa8eae10015738ed7	DL_practice	9	ta	ta	0	left	ta	1	1407
5d15fedfa8eae10015738ed7	DL_practice	10	ka	ka	0	left	ka	1	841
5d15fedfa8eae10015738ed7	DL_test	1	ba	ga	1	left	ba	1	951
5d15fedfa8eae10015738ed7	DL_test	2	ga	pa	1	left	ga	1	1308
5d15fedfa8eae10015738ed7	DL_test	3	ka	ta	1	left	ka	1	852
5d15fedfa8eae10015738ed7	DL_test	4	ka	pa	1	left	ka	1	571
5d15fedfa8eae10015738ed7	DL_test	5	pa	ta	1	right	ta	1	1377
5d15fedfa8eae10015738ed7	DL_test	6	pa	ga	1	right	ga	1	856
5d15fedfa8eae10015738ed7	DL_test	7	ba	ta	1	left	ba	1	1738
5d15fedfa8eae10015738ed7	DL_test	8	ba	da	1	left	ba	1	1165
5d15fedfa8eae10015738ed7	DL_test	9	ta	da	1	right	da	1	831
5d15fedfa8eae10015738ed7	DL_test	10	ka	ka	0	left	ka	1	987
5d15fedfa8eae10015738ed7	DL_test	11	ba	pa	1	right	pa	1	1557
5d15fedfa8eae10015738ed7	DL_test	12	ta	ga	1	right	ga	1	1095
5d15fedfa8eae10015738ed7	DL_test	13	ba	ba	0	left	ba	1	1394
5d15fedfa8eae10015738ed7	DL_test	14	pa	da	1	other	ga	0	1229
5d15fedfa8eae10015738ed7	DL_test	15	ga	ka	1	left	ga	1	789
5d15fedfa8eae10015738ed7	DL_test	16	da	ga	1	right	ga	1	649
5d15fedfa8eae10015738ed7	DL_test	17	ga	ga	0	left	ga	1	674
5d15fedfa8eae10015738ed7	DL_test	18	pa	ka	1	right	ka	1	1207
5d15fedfa8eae10015738ed7	DL_test	19	ta	ka	1	right	ka	1	860
5d15fedfa8eae10015738ed7	DL_test	20	da	pa	1	left	da	1	1256
5d15fedfa8eae10015738ed7	DL_test	21	ga	ta	1	left	ga	1	1148
5d15fedfa8eae10015738ed7	DL_test	22	ka	da	1	other	ga	0	1279
5d15fedfa8eae10015738ed7	DL_test	23	ta	ta	0	left	ta	1	1431
5d15fedfa8eae10015738ed7	DL_test	24	pa	ba	1	left	pa	1	2618
5d15fedfa8eae10015738ed7	DL_test	25	ta	ba	1	right	ba	1	1979
5d15fedfa8eae10015738ed7	DL_test	26	da	ka	1	left	da	1	891
5d15fedfa8eae10015738ed7	DL_test	27	ka	ga	1	right	ga	1	736
5d15fedfa8eae10015738ed7	DL_test	28	da	ba	1	right	ba	1	1261
5d15fedfa8eae10015738ed7	DL_test	29	ba	ka	1	right	ka	1	1230
5d15fedfa8eae10015738ed7	DL_test	30	ta	pa	1	left	ta	1	1401
5d15fedfa8eae10015738ed7	DL_test	31	da	da	0	other	ga	0	900
5d15fedfa8eae10015738ed7	DL_test	32	da	ta	1	right	ta	1	1344
5d15fedfa8eae10015738ed7	DL_test	33	pa	pa	0	left	pa	1	798
5d15fedfa8eae10015738ed7	DL_test	34	ka	ba	1	left	ka	1	820
5d15fedfa8eae10015738ed7	DL_test	35	ga	ba	1	right	ba	1	811
5d15fedfa8eae10015738ed7	DL_test	36	ga	da	1	left	ga	1	761
5d15fedfa8eae10015738ed7	DL_test	1	ka	pa	1	left	ka	1	1100
5d15fedfa8eae10015738ed7	DL_test	2	ka	ka	0	left	ka	1	560
5d15fedfa8eae10015738ed7	DL_test	3	ba	pa	1	right	pa	1	1335
5d15fedfa8eae10015738ed7	DL_test	4	pa	da	1	other	ga	0	828
5d15fedfa8eae10015738ed7	DL_test	5	pa	ga	1	right	ga	1	825
5d15fedfa8eae10015738ed7	DL_test	6	ba	ga	1	left	ba	1	998
5d15fedfa8eae10015738ed7	DL_test	7	ka	ba	1	left	ka	1	1342
5d15fedfa8eae10015738ed7	DL_test	8	da	da	0	other	ga	0	703
5d15fedfa8eae10015738ed7	DL_test	9	ba	ba	0	left	ba	1	1082
5d15fedfa8eae10015738ed7	DL_test	10	ta	ba	1	left	ta	1	2170
5d15fedfa8eae10015738ed7	DL_test	11	ga	ta	1	left	ga	1	937
5d15fedfa8eae10015738ed7	DL_test	12	da	ka	1	other	ga	0	1354
5d15fedfa8eae10015738ed7	DL_test	13	da	ba	1	right	ba	1	1354
5d15fedfa8eae10015738ed7	DL_test	14	ka	da	1	left	ka	1	991
5d15fedfa8eae10015738ed7	DL_test	15	ga	ba	1	other	da	0	995
5d15fedfa8eae10015738ed7	DL_test	16	ta	ta	0	left	ta	1	1524
5d15fedfa8eae10015738ed7	DL_test	17	ta	ka	1	right	ka	1	1473
5d15fedfa8eae10015738ed7	DL_test	18	ta	ga	1	right	ga	1	755
5d15fedfa8eae10015738ed7	DL_test	19	pa	ka	1	right	ka	1	1654
5d15fedfa8eae10015738ed7	DL_test	20	ka	ta	1	left	ka	1	771
5d15fedfa8eae10015738ed7	DL_test	21	ba	da	1	left	ba	1	1158
5d15fedfa8eae10015738ed7	DL_test	22	pa	ba	1	left	pa	1	1069
5d15fedfa8eae10015738ed7	DL_test	23	da	pa	1	other	ga	0	1409
5d15fedfa8eae10015738ed7	DL_test	24	pa	ta	1	right	ta	1	1646
5d15fedfa8eae10015738ed7	DL_test	25	ba	ta	1	right	ta	1	736
5d15fedfa8eae10015738ed7	DL_test	26	ga	pa	1	left	ga	1	1058
5d15fedfa8eae10015738ed7	DL_test	27	ta	pa	1	left	ta	1	1032
5d15fedfa8eae10015738ed7	DL_test	28	ga	ga	0	left	ga	1	857
5d15fedfa8eae10015738ed7	DL_test	29	da	ta	1	left	da	1	946
5d15fedfa8eae10015738ed7	DL_test	30	ga	ka	1	left	ga	1	911
5d15fedfa8eae10015738ed7	DL_test	31	ta	da	1	right	da	1	1424
5d15fedfa8eae10015738ed7	DL_test	32	ga	da	1	left	ga	1	697
5d15fedfa8eae10015738ed7	DL_test	33	ka	ga	1	right	ga	1	608
5d15fedfa8eae10015738ed7	DL_test	34	pa	pa	0	left	pa	1	1053
5d15fedfa8eae10015738ed7	DL_test	35	da	ga	1	right	ga	1	750
5d15fedfa8eae10015738ed7	DL_test	36	ba	ka	1	right	ka	1	1611
5d15fedfa8eae10015738ed7	DL_test	1	ga	ba	1	right	ba	1	1667
5d15fedfa8eae10015738ed7	DL_test	2	ta	ta	0	left	ta	1	1306
5d15fedfa8eae10015738ed7	DL_test	3	da	da	0	other	ga	0	657
5d15fedfa8eae10015738ed7	DL_test	4	pa	ta	1	right	ta	1	1005
5d15fedfa8eae10015738ed7	DL_test	5	pa	ga	1	right	ga	1	799
5d15fedfa8eae10015738ed7	DL_test	6	da	ta	1	right	ta	1	1671
5d15fedfa8eae10015738ed7	DL_test	7	ta	ga	1	right	ga	1	747
5d15fedfa8eae10015738ed7	DL_test	8	da	ka	1	left	da	1	980
5d15fedfa8eae10015738ed7	DL_test	9	da	ga	1	right	ga	1	865
5d15fedfa8eae10015738ed7	DL_test	10	ka	ka	0	left	ka	1	785
5d15fedfa8eae10015738ed7	DL_test	11	ba	pa	1	right	pa	1	1082
5d15fedfa8eae10015738ed7	DL_test	12	ga	ta	1	left	ga	1	701
5d15fedfa8eae10015738ed7	DL_test	13	ka	pa	1	left	ka	1	924
5d15fedfa8eae10015738ed7	DL_test	14	ta	ka	1	right	ka	1	508
5d15fedfa8eae10015738ed7	DL_test	15	pa	pa	0	left	pa	1	819
5d15fedfa8eae10015738ed7	DL_test	16	ka	ga	1	right	ga	1	674
5d15fedfa8eae10015738ed7	DL_test	17	ka	ta	1	left	ka	1	999
5d15fedfa8eae10015738ed7	DL_test	18	ba	ka	1	right	ka	1	686
5d15fedfa8eae10015738ed7	DL_test	19	ba	da	1	left	ba	1	1116
5d15fedfa8eae10015738ed7	DL_test	20	ga	pa	1	left	ga	1	1313
5d15fedfa8eae10015738ed7	DL_test	21	ga	ka	1	left	ga	1	512
5d15fedfa8eae10015738ed7	DL_test	22	pa	ba	1	right	ba	1	1689
5d15fedfa8eae10015738ed7	DL_test	23	da	pa	1	other	ka	0	1293
5d15fedfa8eae10015738ed7	DL_test	24	ba	ga	1	left	ba	1	1083
5d15fedfa8eae10015738ed7	DL_test	25	ga	ga	0	left	ga	1	851
5d15fedfa8eae10015738ed7	DL_test	26	pa	da	1	other	ga	0	609
5d15fedfa8eae10015738ed7	DL_test	27	da	ba	1	right	ba	1	853
5d15fedfa8eae10015738ed7	DL_test	28	ga	da	1	left	ga	1	910
5d15fedfa8eae10015738ed7	DL_test	29	ba	ta	1	right	ta	1	1451
5d15fedfa8eae10015738ed7	DL_test	30	ta	da	1	other	ka	0	1434
5d15fedfa8eae10015738ed7	DL_test	31	pa	ka	1	right	ka	1	524
5d15fedfa8eae10015738ed7	DL_test	32	ta	pa	1	left	ta	1	1190
5d15fedfa8eae10015738ed7	DL_test	33	ta	ba	1	left	ta	1	868
5d15fedfa8eae10015738ed7	DL_test	34	ba	ba	0	left	ba	1	1336
5d15fedfa8eae10015738ed7	DL_test	35	ka	ba	1	left	ka	1	950
5d15fedfa8eae10015738ed7	DL_test	36	ka	da	1	left	ka	1	806
5d15fedfa8eae10015738ed7	DL_test	1	ka	da	1	left	ka	1	1647
5d15fedfa8eae10015738ed7	DL_test	2	da	ta	1	right	ta	1	1675
5d15fedfa8eae10015738ed7	DL_test	3	ba	ta	1	right	ta	1	716
5d15fedfa8eae10015738ed7	DL_test	4	ba	ba	0	left	ba	1	1334
5d15fedfa8eae10015738ed7	DL_test	5	pa	pa	0	left	pa	1	883
5d15fedfa8eae10015738ed7	DL_test	6	pa	ba	1	left	pa	1	1097
5d15fedfa8eae10015738ed7	DL_test	7	ta	ta	0	left	ta	1	1147
5d15fedfa8eae10015738ed7	DL_test	8	pa	ga	1	right	ga	1	1222
5d15fedfa8eae10015738ed7	DL_test	9	pa	ta	1	right	ta	1	969
5d15fedfa8eae10015738ed7	DL_test	10	pa	ka	1	right	ka	1	1452
5d15fedfa8eae10015738ed7	DL_test	11	ba	da	1	left	ba	1	1035
5d15fedfa8eae10015738ed7	DL_test	12	da	da	0	left	da	1	1154
5d15fedfa8eae10015738ed7	DL_test	13	ta	ga	1	right	ga	1	596
5d15fedfa8eae10015738ed7	DL_test	14	ga	ba	1	right	ba	1	1126
5d15fedfa8eae10015738ed7	DL_test	15	ga	ga	0	left	ga	1	813
5d15fedfa8eae10015738ed7	DL_test	16	ta	da	1	right	da	1	710
5d15fedfa8eae10015738ed7	DL_test	17	pa	da	1	other	ga	0	721
5d15fedfa8eae10015738ed7	DL_test	18	ta	ba	1	left	ta	1	1945
5d15fedfa8eae10015738ed7	DL_test	19	ba	ka	1	right	ka	1	861
5d15fedfa8eae10015738ed7	DL_test	20	ka	pa	1	left	ka	1	566
5d15fedfa8eae10015738ed7	DL_test	21	ta	ka	1	right	ka	1	450
5d15fedfa8eae10015738ed7	DL_test	22	ga	pa	1	left	ga	1	691
5d15fedfa8eae10015738ed7	DL_test	23	ka	ta	1	left	ka	1	895
5d15fedfa8eae10015738ed7	DL_test	24	ba	pa	1	right	pa	1	1563
5d15fedfa8eae10015738ed7	DL_test	25	ta	pa	1	left	ta	1	1080
5d15fedfa8eae10015738ed7	DL_test	26	ka	ba	1	other	ta	0	3477
5d15fedfa8eae10015738ed7	DL_test	27	ba	ga	1	left	ba	1	1108
5d15fedfa8eae10015738ed7	DL_test	28	ga	ta	1	left	ga	1	781
5d15fedfa8eae10015738ed7	DL_test	29	ka	ka	0	left	ka	1	769
5d15fedfa8eae10015738ed7	DL_test	30	ka	ga	1	right	ga	1	928
5d15fedfa8eae10015738ed7	DL_test	31	da	ba	1	right	ba	1	862
5d15fedfa8eae10015738ed7	DL_test	32	ga	ka	1	left	ga	1	698
5d15fedfa8eae10015738ed7	DL_test	33	da	pa	1	left	da	1	637
5d15fedfa8eae10015738ed7	DL_test	34	ga	da	1	left	ga	1	645
5d15fedfa8eae10015738ed7	DL_test	35	da	ka	1	left	da	1	1005
5d15fedfa8eae10015738ed7	DL_test	36	da	ga	1	right	ga	1	890
