subject	block	trialnum	DL_leftSound	DL_rightSound	DL_dualSound	DL_choice	response	correct	rt
5d59b01348766d0016949e6a	headphonecheck_testphase	3	NA	NA	0	NA	third	1	2002
5d59b01348766d0016949e6a	headphonecheck_testphase	6	NA	NA	0	NA	second	1	1846
5d59b01348766d0016949e6a	headphonecheck_testphase	9	NA	NA	0	NA	second	1	107
5d59b01348766d0016949e6a	headphonecheck_testphase	12	NA	NA	0	NA	first	1	382
5d59b01348766d0016949e6a	headphonecheck_testphase	15	NA	NA	0	NA	third	1	1201
5d59b01348766d0016949e6a	headphonecheck_testphase	18	NA	NA	0	NA	first	1	186
5d59b01348766d0016949e6a	stereocheck_testphase	3	NA	NA	0	NA	stereocheck_right	1	219
5d59b01348766d0016949e6a	stereocheck_testphase	6	NA	NA	0	NA	stereocheck_left	1	203
5d59b01348766d0016949e6a	stereocheck_testphase	9	NA	NA	0	NA	stereocheck_right	1	192
5d59b01348766d0016949e6a	stereocheck_testphase	12	NA	NA	0	NA	stereocheck_left	1	159
5d59b01348766d0016949e6a	stereocheck_testphase	15	NA	NA	0	NA	stereocheck_left	1	192
5d59b01348766d0016949e6a	stereocheck_testphase	18	NA	NA	0	NA	stereocheck_right	1	505
5d59b01348766d0016949e6a	DL_practice	2	ta	ta	0	left	ta	1	1131
5d59b01348766d0016949e6a	DL_practice	3	da	da	0	left	da	1	1012
5d59b01348766d0016949e6a	DL_practice	4	ba	ba	0	left	ba	1	1070
5d59b01348766d0016949e6a	DL_practice	5	ga	ta	1	right	ta	1	1033
5d59b01348766d0016949e6a	DL_practice	6	ga	ga	0	left	ga	1	989
5d59b01348766d0016949e6a	DL_practice	7	ka	pa	1	right	pa	1	1006
5d59b01348766d0016949e6a	DL_practice	8	da	ba	1	left	da	1	928
5d59b01348766d0016949e6a	DL_practice	9	ka	ka	0	left	ka	1	1028
5d59b01348766d0016949e6a	DL_practice	10	pa	pa	0	left	pa	1	1093
5d59b01348766d0016949e6a	DL_test	1	pa	ba	1	left	pa	1	1095
5d59b01348766d0016949e6a	DL_test	2	ta	da	1	left	ta	1	984
5d59b01348766d0016949e6a	DL_test	3	ka	da	1	other	ta	0	856
5d59b01348766d0016949e6a	DL_test	4	ba	da	1	right	da	1	968
5d59b01348766d0016949e6a	DL_test	5	ga	da	1	right	da	1	771
5d59b01348766d0016949e6a	DL_test	6	da	da	0	left	da	1	759
5d59b01348766d0016949e6a	DL_test	7	da	ba	1	left	da	1	711
5d59b01348766d0016949e6a	DL_test	8	ka	ga	1	left	ka	1	910
5d59b01348766d0016949e6a	DL_test	9	ga	ka	1	right	ka	1	665
5d59b01348766d0016949e6a	DL_test	10	da	ka	1	other	pa	0	1043
5d59b01348766d0016949e6a	DL_test	11	pa	ka	1	right	ka	1	906
5d59b01348766d0016949e6a	DL_test	12	ka	ka	0	left	ka	1	551
5d59b01348766d0016949e6a	DL_test	13	ba	ta	1	other	ka	0	1218
5d59b01348766d0016949e6a	DL_test	14	da	ta	1	right	ta	1	930
5d59b01348766d0016949e6a	DL_test	15	pa	da	1	other	ta	0	1007
5d59b01348766d0016949e6a	DL_test	16	ga	ga	0	left	ga	1	711
5d59b01348766d0016949e6a	DL_test	17	ta	ka	1	left	ta	1	1005
5d59b01348766d0016949e6a	DL_test	18	ba	ba	0	left	ba	1	818
5d59b01348766d0016949e6a	DL_test	19	ta	ba	1	left	ta	1	945
5d59b01348766d0016949e6a	DL_test	20	ka	ba	1	left	ka	1	880
5d59b01348766d0016949e6a	DL_test	21	ta	ta	0	left	ta	1	725
5d59b01348766d0016949e6a	DL_test	22	pa	ta	1	right	ta	1	876
5d59b01348766d0016949e6a	DL_test	23	ta	ga	1	other	ka	0	1175
5d59b01348766d0016949e6a	DL_test	24	ba	ka	1	right	ka	1	646
5d59b01348766d0016949e6a	DL_test	25	ka	ta	1	right	ta	1	817
5d59b01348766d0016949e6a	DL_test	26	ga	pa	1	right	pa	1	726
5d59b01348766d0016949e6a	DL_test	27	ba	pa	1	right	pa	1	763
5d59b01348766d0016949e6a	DL_test	28	pa	ga	1	left	pa	1	1038
5d59b01348766d0016949e6a	DL_test	29	ga	ba	1	right	ba	1	1275
5d59b01348766d0016949e6a	DL_test	30	ka	pa	1	right	pa	1	877
5d59b01348766d0016949e6a	DL_test	31	pa	pa	0	left	pa	1	806
5d59b01348766d0016949e6a	DL_test	32	ta	pa	1	left	ta	1	776
5d59b01348766d0016949e6a	DL_test	33	ga	ta	1	other	ka	0	872
5d59b01348766d0016949e6a	DL_test	34	da	pa	1	right	pa	1	846
5d59b01348766d0016949e6a	DL_test	35	da	ga	1	right	ga	1	658
5d59b01348766d0016949e6a	DL_test	36	ba	ga	1	right	ga	1	786
5d59b01348766d0016949e6a	DL_test	1	pa	ba	1	left	pa	1	774
5d59b01348766d0016949e6a	DL_test	2	da	da	0	left	da	1	851
5d59b01348766d0016949e6a	DL_test	3	pa	ka	1	right	ka	1	820
5d59b01348766d0016949e6a	DL_test	4	ka	ka	0	left	ka	1	652
5d59b01348766d0016949e6a	DL_test	5	ga	ka	1	right	ka	1	647
5d59b01348766d0016949e6a	DL_test	6	pa	ga	1	left	pa	1	1133
5d59b01348766d0016949e6a	DL_test	7	ga	da	1	left	ga	1	642
5d59b01348766d0016949e6a	DL_test	8	ka	ba	1	left	ka	1	945
5d59b01348766d0016949e6a	DL_test	9	ka	da	1	left	ka	1	680
5d59b01348766d0016949e6a	DL_test	10	ba	ta	1	right	ta	1	907
5d59b01348766d0016949e6a	DL_test	11	ba	ba	0	left	ba	1	843
5d59b01348766d0016949e6a	DL_test	12	ga	pa	1	right	pa	1	847
5d59b01348766d0016949e6a	DL_test	13	ta	pa	1	left	ta	1	856
5d59b01348766d0016949e6a	DL_test	14	ga	ba	1	right	ba	1	1422
5d59b01348766d0016949e6a	DL_test	15	ba	ga	1	right	ga	1	927
5d59b01348766d0016949e6a	DL_test	16	ka	ga	1	left	ka	1	993
5d59b01348766d0016949e6a	DL_test	17	da	ga	1	right	ga	1	653
5d59b01348766d0016949e6a	DL_test	18	pa	pa	0	left	pa	1	845
5d59b01348766d0016949e6a	DL_test	19	ka	ta	1	right	ta	1	731
5d59b01348766d0016949e6a	DL_test	20	ta	ba	1	other	da	0	1611
5d59b01348766d0016949e6a	DL_test	21	ta	da	1	left	ta	1	918
5d59b01348766d0016949e6a	DL_test	22	ga	ga	0	left	ga	1	697
5d59b01348766d0016949e6a	DL_test	23	ka	pa	1	right	pa	1	811
5d59b01348766d0016949e6a	DL_test	24	ba	da	1	right	da	1	797
5d59b01348766d0016949e6a	DL_test	25	ba	pa	1	right	pa	1	746
5d59b01348766d0016949e6a	DL_test	26	pa	ta	1	right	ta	1	677
5d59b01348766d0016949e6a	DL_test	27	da	pa	1	other	ta	0	859
5d59b01348766d0016949e6a	DL_test	28	da	ka	1	other	pa	0	607
5d59b01348766d0016949e6a	DL_test	29	da	ba	1	left	da	1	1044
5d59b01348766d0016949e6a	DL_test	30	ta	ga	1	right	ga	1	1128
5d59b01348766d0016949e6a	DL_test	31	da	ta	1	right	ta	1	798
5d59b01348766d0016949e6a	DL_test	32	ga	ta	1	right	ta	1	695
5d59b01348766d0016949e6a	DL_test	33	ta	ta	0	left	ta	1	790
5d59b01348766d0016949e6a	DL_test	34	ta	ka	1	left	ta	1	627
5d59b01348766d0016949e6a	DL_test	35	pa	da	1	right	da	1	1337
5d59b01348766d0016949e6a	DL_test	36	ba	ka	1	right	ka	1	871
5d59b01348766d0016949e6a	DL_test	1	ta	ba	1	other	ka	0	1844
5d59b01348766d0016949e6a	DL_test	2	ka	da	1	left	ka	1	1261
5d59b01348766d0016949e6a	DL_test	3	ba	ka	1	right	ka	1	606
5d59b01348766d0016949e6a	DL_test	4	ta	da	1	left	ta	1	1020
5d59b01348766d0016949e6a	DL_test	5	ga	ga	0	left	ga	1	792
5d59b01348766d0016949e6a	DL_test	6	pa	da	1	right	da	1	998
5d59b01348766d0016949e6a	DL_test	7	da	ta	1	right	ta	1	894
5d59b01348766d0016949e6a	DL_test	8	ba	da	1	right	da	1	960
5d59b01348766d0016949e6a	DL_test	9	ga	ta	1	right	ta	1	1287
5d59b01348766d0016949e6a	DL_test	10	ka	ta	1	right	ta	1	625
5d59b01348766d0016949e6a	DL_test	11	da	pa	1	right	pa	1	1038
5d59b01348766d0016949e6a	DL_test	12	ba	ga	1	left	ba	1	1154
5d59b01348766d0016949e6a	DL_test	13	ta	ta	0	left	ta	1	760
5d59b01348766d0016949e6a	DL_test	14	da	ga	1	left	da	1	1034
5d59b01348766d0016949e6a	DL_test	15	ka	pa	1	right	pa	1	835
5d59b01348766d0016949e6a	DL_test	16	ga	da	1	right	da	1	889
5d59b01348766d0016949e6a	DL_test	17	da	ka	1	other	pa	0	1296
5d59b01348766d0016949e6a	DL_test	18	pa	ka	1	right	ka	1	1143
5d59b01348766d0016949e6a	DL_test	19	pa	ba	1	left	pa	1	725
5d59b01348766d0016949e6a	DL_test	20	pa	pa	0	left	pa	1	995
5d59b01348766d0016949e6a	DL_test	21	ka	ga	1	left	ka	1	1080
5d59b01348766d0016949e6a	DL_test	22	da	ba	1	right	ba	1	1264
5d59b01348766d0016949e6a	DL_test	23	ba	ta	1	other	ka	0	1610
5d59b01348766d0016949e6a	DL_test	24	ta	pa	1	left	ta	1	989
5d59b01348766d0016949e6a	DL_test	25	ta	ka	1	left	ta	1	830
5d59b01348766d0016949e6a	DL_test	26	ga	ba	1	right	ba	1	1122
5d59b01348766d0016949e6a	DL_test	27	ka	ka	0	left	ka	1	744
5d59b01348766d0016949e6a	DL_test	28	ta	ga	1	other	ka	0	1693
5d59b01348766d0016949e6a	DL_test	29	ba	pa	1	right	pa	1	734
5d59b01348766d0016949e6a	DL_test	30	pa	ga	1	other	ba	0	1111
5d59b01348766d0016949e6a	DL_test	31	ka	ba	1	left	ka	1	923
5d59b01348766d0016949e6a	DL_test	32	pa	ta	1	right	ta	1	746
5d59b01348766d0016949e6a	DL_test	33	ga	pa	1	right	pa	1	1139
5d59b01348766d0016949e6a	DL_test	34	da	da	0	left	da	1	884
5d59b01348766d0016949e6a	DL_test	35	ba	ba	0	left	ba	1	1081
5d59b01348766d0016949e6a	DL_test	36	ga	ka	1	right	ka	1	824
5d59b01348766d0016949e6a	DL_test	1	ba	ka	1	right	ka	1	753
5d59b01348766d0016949e6a	DL_test	2	ka	ga	1	left	ka	1	984
5d59b01348766d0016949e6a	DL_test	3	ka	ka	0	left	ka	1	671
5d59b01348766d0016949e6a	DL_test	4	pa	ka	1	right	ka	1	741
5d59b01348766d0016949e6a	DL_test	5	ga	da	1	right	da	1	827
5d59b01348766d0016949e6a	DL_test	6	da	ta	1	right	ta	1	832
5d59b01348766d0016949e6a	DL_test	7	ka	ta	1	left	ka	1	796
5d59b01348766d0016949e6a	DL_test	8	ga	pa	1	right	pa	1	1122
5d59b01348766d0016949e6a	DL_test	9	ka	pa	1	right	pa	1	695
5d59b01348766d0016949e6a	DL_test	10	da	ka	1	other	pa	0	818
5d59b01348766d0016949e6a	DL_test	11	ta	ba	1	other	da	0	960
5d59b01348766d0016949e6a	DL_test	12	ta	ga	1	right	ga	1	858
5d59b01348766d0016949e6a	DL_test	13	ga	ka	1	right	ka	1	861
5d59b01348766d0016949e6a	DL_test	14	ka	da	1	right	da	1	986
5d59b01348766d0016949e6a	DL_test	15	ba	ba	0	left	ba	1	1104
5d59b01348766d0016949e6a	DL_test	16	pa	ga	1	left	pa	1	951
5d59b01348766d0016949e6a	DL_test	17	pa	pa	0	left	pa	1	597
5d59b01348766d0016949e6a	DL_test	18	ga	ba	1	right	ba	1	1000
5d59b01348766d0016949e6a	DL_test	19	pa	ta	1	right	ta	1	732
5d59b01348766d0016949e6a	DL_test	20	ba	ta	1	right	ta	1	785
5d59b01348766d0016949e6a	DL_test	21	ga	ta	1	right	ta	1	957
5d59b01348766d0016949e6a	DL_test	22	pa	ba	1	left	pa	1	1272
5d59b01348766d0016949e6a	DL_test	23	ta	da	1	left	ta	1	1230
5d59b01348766d0016949e6a	DL_test	24	da	pa	1	right	pa	1	954
5d59b01348766d0016949e6a	DL_test	25	da	da	0	left	da	1	898
5d59b01348766d0016949e6a	DL_test	26	ta	ka	1	left	ta	1	872
5d59b01348766d0016949e6a	DL_test	27	ga	ga	0	left	ga	1	1920
5d59b01348766d0016949e6a	DL_test	28	ta	pa	1	right	pa	1	2686
5d59b01348766d0016949e6a	DL_test	29	ka	ba	1	left	ka	1	1500
5d59b01348766d0016949e6a	DL_test	30	ba	pa	1	right	pa	1	818
5d59b01348766d0016949e6a	DL_test	31	ba	ga	1	left	ba	1	1090
5d59b01348766d0016949e6a	DL_test	32	pa	da	1	other	ta	0	953
5d59b01348766d0016949e6a	DL_test	33	ba	da	1	right	da	1	1015
5d59b01348766d0016949e6a	DL_test	34	ta	ta	0	left	ta	1	979
5d59b01348766d0016949e6a	DL_test	35	da	ga	1	left	da	1	981
5d59b01348766d0016949e6a	DL_test	36	da	ba	1	right	ba	1	1114
