subject	block	trialnum	DL_leftSound	DL_rightSound	DL_dualSound	DL_choice	response	correct	rt
5e405a1cfce14d29997364da	headphonecheck_testphase	3	NA	NA	0	NA	first	0	11593
5e405a1cfce14d29997364da	headphonecheck_testphase	6	NA	NA	0	NA	first	1	846
5e405a1cfce14d29997364da	headphonecheck_testphase	9	NA	NA	0	NA	first	1	797
5e405a1cfce14d29997364da	headphonecheck_testphase	12	NA	NA	0	NA	third	1	668
5e405a1cfce14d29997364da	headphonecheck_testphase	15	NA	NA	0	NA	third	1	769
5e405a1cfce14d29997364da	headphonecheck_testphase	18	NA	NA	0	NA	second	1	773
5e405a1cfce14d29997364da	stereocheck_testphase	3	NA	NA	0	NA	stereocheck_left	1	843
5e405a1cfce14d29997364da	stereocheck_testphase	6	NA	NA	0	NA	stereocheck_right	1	686
5e405a1cfce14d29997364da	stereocheck_testphase	9	NA	NA	0	NA	stereocheck_left	1	741
5e405a1cfce14d29997364da	stereocheck_testphase	12	NA	NA	0	NA	stereocheck_left	1	647
5e405a1cfce14d29997364da	stereocheck_testphase	15	NA	NA	0	NA	stereocheck_right	1	448
5e405a1cfce14d29997364da	stereocheck_testphase	18	NA	NA	0	NA	stereocheck_right	1	1300
5e405a1cfce14d29997364da	DL_practice	2	da	ba	1	left	da	1	1665
5e405a1cfce14d29997364da	DL_practice	3	ta	ta	0	left	ta	1	1766
5e405a1cfce14d29997364da	DL_practice	4	ga	ga	0	left	ga	1	1547
5e405a1cfce14d29997364da	DL_practice	5	ba	ba	0	left	ba	1	1706
5e405a1cfce14d29997364da	DL_practice	6	da	da	0	left	da	1	2122
5e405a1cfce14d29997364da	DL_practice	7	pa	pa	0	left	pa	1	1865
5e405a1cfce14d29997364da	DL_practice	8	ka	pa	1	left	ka	1	1746
5e405a1cfce14d29997364da	DL_practice	9	ga	ta	1	left	ga	1	1690
5e405a1cfce14d29997364da	DL_practice	10	ka	ka	0	left	ka	1	2240
5e405a1cfce14d29997364da	DL_test	1	ba	da	1	right	da	1	2332
5e405a1cfce14d29997364da	DL_test	2	pa	da	1	other	ta	0	3322
5e405a1cfce14d29997364da	DL_test	3	ka	pa	1	left	ka	1	1392
5e405a1cfce14d29997364da	DL_test	4	ga	ga	0	left	ga	1	1542
5e405a1cfce14d29997364da	DL_test	5	ka	ta	1	left	ka	1	1575
5e405a1cfce14d29997364da	DL_test	6	ba	pa	1	right	pa	1	1537
5e405a1cfce14d29997364da	DL_test	7	ba	ta	1	other	ka	0	1449
5e405a1cfce14d29997364da	DL_test	8	pa	ba	1	left	pa	1	1588
5e405a1cfce14d29997364da	DL_test	9	da	ta	1	other	ka	0	2265
5e405a1cfce14d29997364da	DL_test	10	pa	pa	0	left	pa	1	1485
5e405a1cfce14d29997364da	DL_test	11	ga	ba	1	other	da	0	4362
5e405a1cfce14d29997364da	DL_test	12	ta	ga	1	right	ga	1	1239
5e405a1cfce14d29997364da	DL_test	13	pa	ka	1	right	ka	1	1254
5e405a1cfce14d29997364da	DL_test	14	pa	ta	1	other	ka	0	1271
5e405a1cfce14d29997364da	DL_test	15	pa	ga	1	other	ka	0	1640
5e405a1cfce14d29997364da	DL_test	16	ga	da	1	left	ga	1	1223
5e405a1cfce14d29997364da	DL_test	17	da	ba	1	left	da	1	1977
5e405a1cfce14d29997364da	DL_test	18	ka	ka	0	left	ka	1	2518
5e405a1cfce14d29997364da	DL_test	19	ka	ba	1	other	pa	0	2186
5e405a1cfce14d29997364da	DL_test	20	da	ka	1	right	ka	1	2460
5e405a1cfce14d29997364da	DL_test	21	da	ga	1	right	ga	1	1152
5e405a1cfce14d29997364da	DL_test	22	ga	ta	1	other	ka	0	1234
5e405a1cfce14d29997364da	DL_test	23	ta	pa	1	left	ta	1	2236
5e405a1cfce14d29997364da	DL_test	24	ka	ga	1	right	ga	1	1591
5e405a1cfce14d29997364da	DL_test	25	ba	ba	0	other	pa	0	1740
5e405a1cfce14d29997364da	DL_test	26	ba	ka	1	right	ka	1	2047
5e405a1cfce14d29997364da	DL_test	27	da	pa	1	right	pa	1	1847
5e405a1cfce14d29997364da	DL_test	28	ka	da	1	other	ga	0	1333
5e405a1cfce14d29997364da	DL_test	29	ta	ta	0	left	ta	1	1818
5e405a1cfce14d29997364da	DL_test	30	ta	ba	1	other	pa	0	1709
5e405a1cfce14d29997364da	DL_test	31	ba	ga	1	right	ga	1	2291
5e405a1cfce14d29997364da	DL_test	32	da	da	0	left	da	1	2005
5e405a1cfce14d29997364da	DL_test	33	ta	da	1	other	ka	0	1677
5e405a1cfce14d29997364da	DL_test	34	ga	ka	1	left	ga	1	1472
5e405a1cfce14d29997364da	DL_test	35	ta	ka	1	right	ka	1	1906
5e405a1cfce14d29997364da	DL_test	36	ga	pa	1	right	pa	1	1695
5e405a1cfce14d29997364da	DL_test	1	ga	ka	1	right	ka	1	2131
5e405a1cfce14d29997364da	DL_test	2	ta	ga	1	right	ga	1	1439
5e405a1cfce14d29997364da	DL_test	3	da	ga	1	right	ga	1	1560
5e405a1cfce14d29997364da	DL_test	4	da	pa	1	right	pa	1	1636
5e405a1cfce14d29997364da	DL_test	5	ga	ta	1	other	ka	0	1620
5e405a1cfce14d29997364da	DL_test	6	ka	da	1	other	ga	0	2184
5e405a1cfce14d29997364da	DL_test	7	da	da	0	left	da	1	1874
5e405a1cfce14d29997364da	DL_test	8	ka	ta	1	left	ka	1	1688
5e405a1cfce14d29997364da	DL_test	9	pa	ka	1	right	ka	1	1396
5e405a1cfce14d29997364da	DL_test	10	ta	ba	1	other	pa	0	1539
5e405a1cfce14d29997364da	DL_test	11	ta	pa	1	right	pa	1	1760
5e405a1cfce14d29997364da	DL_test	12	ka	ba	1	other	pa	0	195
5e405a1cfce14d29997364da	DL_test	13	pa	pa	0	left	pa	1	1441
5e405a1cfce14d29997364da	DL_test	14	ba	ta	1	other	ka	0	1526
5e405a1cfce14d29997364da	DL_test	15	da	ba	1	left	da	1	2032
5e405a1cfce14d29997364da	DL_test	16	da	ka	1	other	pa	0	2335
5e405a1cfce14d29997364da	DL_test	17	ka	ka	0	left	ka	1	1665
5e405a1cfce14d29997364da	DL_test	18	ga	ba	1	other	pa	0	2070
5e405a1cfce14d29997364da	DL_test	19	pa	da	1	other	ka	0	1667
5e405a1cfce14d29997364da	DL_test	20	ga	ga	0	left	ga	1	1839
5e405a1cfce14d29997364da	DL_test	21	da	ta	1	other	ka	0	1926
5e405a1cfce14d29997364da	DL_test	22	ba	pa	1	right	pa	1	1446
5e405a1cfce14d29997364da	DL_test	23	ta	ka	1	right	ka	1	1898
5e405a1cfce14d29997364da	DL_test	24	ta	ta	0	other	ka	0	1268
5e405a1cfce14d29997364da	DL_test	25	ka	pa	1	other	ga	0	1871
5e405a1cfce14d29997364da	DL_test	26	ba	ka	1	other	pa	0	1591
5e405a1cfce14d29997364da	DL_test	27	ga	pa	1	right	pa	1	2560
5e405a1cfce14d29997364da	DL_test	28	ta	da	1	other	ga	0	1276
5e405a1cfce14d29997364da	DL_test	29	pa	ta	1	other	ka	0	1263
5e405a1cfce14d29997364da	DL_test	30	ba	ba	0	other	pa	0	1698
5e405a1cfce14d29997364da	DL_test	31	ga	da	1	left	ga	1	2081
5e405a1cfce14d29997364da	DL_test	32	pa	ga	1	right	ga	1	1860
5e405a1cfce14d29997364da	DL_test	33	ba	ga	1	other	ka	0	1723
5e405a1cfce14d29997364da	DL_test	34	ba	da	1	right	da	1	3655
5e405a1cfce14d29997364da	DL_test	35	pa	ba	1	left	pa	1	2095
5e405a1cfce14d29997364da	DL_test	36	ka	ga	1	right	ga	1	1421
5e405a1cfce14d29997364da	DL_test	1	ka	ga	1	right	ga	1	1116
5e405a1cfce14d29997364da	DL_test	2	da	da	0	left	da	1	2577
5e405a1cfce14d29997364da	DL_test	3	ka	pa	1	other	ga	0	1279
5e405a1cfce14d29997364da	DL_test	4	ba	ka	1	right	ka	1	2993
5e405a1cfce14d29997364da	DL_test	5	ta	da	1	right	da	1	3025
5e405a1cfce14d29997364da	DL_test	6	ta	ka	1	right	ka	1	1474
5e405a1cfce14d29997364da	DL_test	7	da	ga	1	right	ga	1	1677
5e405a1cfce14d29997364da	DL_test	8	ba	ga	1	other	da	0	3721
5e405a1cfce14d29997364da	DL_test	9	da	ka	1	other	pa	0	1579
5e405a1cfce14d29997364da	DL_test	10	ta	pa	1	other	ga	0	4363
5e405a1cfce14d29997364da	DL_test	11	ba	da	1	right	da	1	2122
5e405a1cfce14d29997364da	DL_test	12	da	pa	1	right	pa	1	1981
5e405a1cfce14d29997364da	DL_test	13	ga	ba	1	other	ta	0	2916
5e405a1cfce14d29997364da	DL_test	14	ka	ba	1	other	pa	0	2026
5e405a1cfce14d29997364da	DL_test	15	ga	ga	0	left	ga	1	1866
5e405a1cfce14d29997364da	DL_test	16	pa	ta	1	other	ka	0	1206
5e405a1cfce14d29997364da	DL_test	17	pa	ga	1	left	pa	1	2009
5e405a1cfce14d29997364da	DL_test	18	pa	da	1	left	pa	1	2670
5e405a1cfce14d29997364da	DL_test	19	ga	da	1	other	pa	0	1992
5e405a1cfce14d29997364da	DL_test	20	ta	ga	1	right	ga	1	1203
5e405a1cfce14d29997364da	DL_test	21	ba	pa	1	right	pa	1	1418
5e405a1cfce14d29997364da	DL_test	22	ta	ta	0	other	ka	0	1432
5e405a1cfce14d29997364da	DL_test	23	da	ba	1	left	da	1	2064
5e405a1cfce14d29997364da	DL_test	24	ba	ba	0	other	pa	0	1758
5e405a1cfce14d29997364da	DL_test	25	ka	ka	0	left	ka	1	1026
5e405a1cfce14d29997364da	DL_test	26	ga	ka	1	left	ga	1	1061
5e405a1cfce14d29997364da	DL_test	27	ga	ta	1	other	ka	0	1642
5e405a1cfce14d29997364da	DL_test	28	da	ta	1	other	ka	0	1230
5e405a1cfce14d29997364da	DL_test	29	pa	ka	1	right	ka	1	2317
5e405a1cfce14d29997364da	DL_test	30	ta	ba	1	other	pa	0	1633
5e405a1cfce14d29997364da	DL_test	31	ga	pa	1	left	ga	1	1922
5e405a1cfce14d29997364da	DL_test	32	pa	ba	1	left	pa	1	1319
5e405a1cfce14d29997364da	DL_test	33	ka	da	1	other	pa	0	2098
5e405a1cfce14d29997364da	DL_test	34	ba	ta	1	other	ka	0	1368
5e405a1cfce14d29997364da	DL_test	35	pa	pa	0	left	pa	1	1271
5e405a1cfce14d29997364da	DL_test	36	ka	ta	1	left	ka	1	1555
5e405a1cfce14d29997364da	DL_test	1	ga	pa	1	right	pa	1	2630
5e405a1cfce14d29997364da	DL_test	2	pa	ta	1	other	ka	0	2376
5e405a1cfce14d29997364da	DL_test	3	ka	ga	1	right	ga	1	1440
5e405a1cfce14d29997364da	DL_test	4	ga	ba	1	other	pa	0	1406
5e405a1cfce14d29997364da	DL_test	5	ka	ba	1	other	pa	0	1585
5e405a1cfce14d29997364da	DL_test	6	pa	pa	0	left	pa	1	1634
5e405a1cfce14d29997364da	DL_test	7	da	pa	1	other	ka	0	2745
5e405a1cfce14d29997364da	DL_test	8	ba	pa	1	right	pa	1	1956
5e405a1cfce14d29997364da	DL_test	9	ga	ga	0	left	ga	1	1006
5e405a1cfce14d29997364da	DL_test	10	pa	ba	1	left	pa	1	1448
5e405a1cfce14d29997364da	DL_test	11	da	ka	1	other	ga	0	1701
5e405a1cfce14d29997364da	DL_test	12	ga	ka	1	right	ka	1	1855
5e405a1cfce14d29997364da	DL_test	13	ba	ga	1	right	ga	1	6720
5e405a1cfce14d29997364da	DL_test	14	ta	ta	0	other	ka	0	1737
5e405a1cfce14d29997364da	DL_test	15	ga	da	1	left	ga	1	1684
5e405a1cfce14d29997364da	DL_test	16	ka	ka	0	left	ka	1	1485
5e405a1cfce14d29997364da	DL_test	17	ka	pa	1	left	ka	1	1900
5e405a1cfce14d29997364da	DL_test	18	ta	ga	1	right	ga	1	1784
5e405a1cfce14d29997364da	DL_test	19	da	ga	1	right	ga	1	1337
5e405a1cfce14d29997364da	DL_test	20	ta	ba	1	other	pa	0	1524
5e405a1cfce14d29997364da	DL_test	21	pa	da	1	other	ka	0	1430
5e405a1cfce14d29997364da	DL_test	22	da	ta	1	other	ka	0	1605
5e405a1cfce14d29997364da	DL_test	23	ka	da	1	other	ga	0	1785
5e405a1cfce14d29997364da	DL_test	24	pa	ga	1	other	ka	0	3443
5e405a1cfce14d29997364da	DL_test	25	ta	da	1	other	ka	0	1738
5e405a1cfce14d29997364da	DL_test	26	ta	pa	1	right	pa	1	1818
5e405a1cfce14d29997364da	DL_test	27	ba	ba	0	other	pa	0	1324
5e405a1cfce14d29997364da	DL_test	28	ba	da	1	right	da	1	2409
5e405a1cfce14d29997364da	DL_test	29	ga	ta	1	other	ka	0	1684
5e405a1cfce14d29997364da	DL_test	30	da	ba	1	other	ta	0	2835
5e405a1cfce14d29997364da	DL_test	31	ka	ta	1	left	ka	1	1692
5e405a1cfce14d29997364da	DL_test	32	da	da	0	other	ka	0	17
5e405a1cfce14d29997364da	DL_test	33	ta	ka	1	right	ka	1	1622
5e405a1cfce14d29997364da	DL_test	34	pa	ka	1	right	ka	1	1448
5e405a1cfce14d29997364da	DL_test	35	ba	ta	1	other	ka	0	1616
5e405a1cfce14d29997364da	DL_test	36	ba	ka	1	right	ka	1	1447
