subject	block	trialnum	DL_leftSound	DL_rightSound	DL_dualSound	DL_choice	response	correct	rt
5e6d7b0421be18343d8bc4a9	headphonecheck_testphase	3	NA	NA	0	NA	second	0	18481
5e6d7b0421be18343d8bc4a9	headphonecheck_testphase	6	NA	NA	0	NA	third	1	581
5e6d7b0421be18343d8bc4a9	headphonecheck_testphase	9	NA	NA	0	NA	second	1	314
5e6d7b0421be18343d8bc4a9	headphonecheck_testphase	12	NA	NA	0	NA	first	1	423
5e6d7b0421be18343d8bc4a9	headphonecheck_testphase	15	NA	NA	0	NA	third	1	381
5e6d7b0421be18343d8bc4a9	headphonecheck_testphase	18	NA	NA	0	NA	second	1	315
5e6d7b0421be18343d8bc4a9	stereocheck_testphase	3	NA	NA	0	NA	stereocheck_right	1	1533
5e6d7b0421be18343d8bc4a9	stereocheck_testphase	6	NA	NA	0	NA	stereocheck_left	1	366
5e6d7b0421be18343d8bc4a9	stereocheck_testphase	9	NA	NA	0	NA	stereocheck_right	1	209
5e6d7b0421be18343d8bc4a9	stereocheck_testphase	12	NA	NA	0	NA	stereocheck_right	1	283
5e6d7b0421be18343d8bc4a9	stereocheck_testphase	15	NA	NA	0	NA	stereocheck_left	1	332
5e6d7b0421be18343d8bc4a9	stereocheck_testphase	18	NA	NA	0	NA	stereocheck_left	1	265
5e6d7b0421be18343d8bc4a9	DL_practice	2	ka	pa	1	left	ka	1	2067
5e6d7b0421be18343d8bc4a9	DL_practice	3	ga	ta	1	left	ga	1	1550
5e6d7b0421be18343d8bc4a9	DL_practice	4	da	ba	1	right	ba	1	1183
5e6d7b0421be18343d8bc4a9	DL_practice	5	da	da	0	left	da	1	617
5e6d7b0421be18343d8bc4a9	DL_practice	6	ga	ga	0	left	ga	1	750
5e6d7b0421be18343d8bc4a9	DL_practice	7	ba	ba	0	left	ba	1	2800
5e6d7b0421be18343d8bc4a9	DL_practice	8	ka	ka	0	left	ka	1	866
5e6d7b0421be18343d8bc4a9	DL_practice	9	pa	pa	0	left	pa	1	817
5e6d7b0421be18343d8bc4a9	DL_practice	10	ta	ta	0	left	ta	1	834
5e6d7b0421be18343d8bc4a9	DL_test	1	ta	ka	1	right	ka	1	918
5e6d7b0421be18343d8bc4a9	DL_test	2	da	ka	1	left	da	1	867
5e6d7b0421be18343d8bc4a9	DL_test	3	ba	ta	1	left	ba	1	2784
5e6d7b0421be18343d8bc4a9	DL_test	4	ga	ta	1	left	ga	1	717
5e6d7b0421be18343d8bc4a9	DL_test	5	ka	da	1	other	ga	0	700
5e6d7b0421be18343d8bc4a9	DL_test	6	ba	ka	1	right	ka	1	1051
5e6d7b0421be18343d8bc4a9	DL_test	7	ba	ba	0	left	ba	1	1100
5e6d7b0421be18343d8bc4a9	DL_test	8	pa	ga	1	right	ga	1	868
5e6d7b0421be18343d8bc4a9	DL_test	9	pa	pa	0	left	pa	1	1234
5e6d7b0421be18343d8bc4a9	DL_test	10	da	ba	1	right	ba	1	1500
5e6d7b0421be18343d8bc4a9	DL_test	11	ka	ka	0	left	ka	1	885
5e6d7b0421be18343d8bc4a9	DL_test	12	ba	ga	1	right	ga	1	1235
5e6d7b0421be18343d8bc4a9	DL_test	13	ta	da	1	right	da	1	768
5e6d7b0421be18343d8bc4a9	DL_test	14	ka	ga	1	right	ga	1	717
5e6d7b0421be18343d8bc4a9	DL_test	15	ka	pa	1	left	ka	1	1084
5e6d7b0421be18343d8bc4a9	DL_test	16	da	ta	1	left	da	1	1134
5e6d7b0421be18343d8bc4a9	DL_test	17	ta	ba	1	left	ta	1	2268
5e6d7b0421be18343d8bc4a9	DL_test	18	ga	ka	1	left	ga	1	968
5e6d7b0421be18343d8bc4a9	DL_test	19	da	pa	1	left	da	1	917
5e6d7b0421be18343d8bc4a9	DL_test	20	ta	pa	1	left	ta	1	1484
5e6d7b0421be18343d8bc4a9	DL_test	21	ka	ta	1	right	ta	1	1051
5e6d7b0421be18343d8bc4a9	DL_test	22	pa	ka	1	right	ka	1	730
5e6d7b0421be18343d8bc4a9	DL_test	23	ba	da	1	right	da	1	917
5e6d7b0421be18343d8bc4a9	DL_test	24	ga	ba	1	right	ba	1	1434
5e6d7b0421be18343d8bc4a9	DL_test	25	ta	ga	1	right	ga	1	701
5e6d7b0421be18343d8bc4a9	DL_test	26	ba	pa	1	right	pa	1	1151
5e6d7b0421be18343d8bc4a9	DL_test	27	pa	da	1	right	da	1	785
5e6d7b0421be18343d8bc4a9	DL_test	28	pa	ta	1	right	ta	1	1268
5e6d7b0421be18343d8bc4a9	DL_test	29	ga	pa	1	left	ga	1	668
5e6d7b0421be18343d8bc4a9	DL_test	30	ga	da	1	left	ga	1	835
5e6d7b0421be18343d8bc4a9	DL_test	31	da	ga	1	right	ga	1	784
5e6d7b0421be18343d8bc4a9	DL_test	32	ga	ga	0	left	ga	1	718
5e6d7b0421be18343d8bc4a9	DL_test	33	ta	ta	0	left	ta	1	1184
5e6d7b0421be18343d8bc4a9	DL_test	34	da	da	0	left	da	1	1284
5e6d7b0421be18343d8bc4a9	DL_test	35	ka	ba	1	other	ga	0	1802
5e6d7b0421be18343d8bc4a9	DL_test	36	pa	ba	1	left	pa	1	1751
5e6d7b0421be18343d8bc4a9	DL_test	1	ga	ba	1	right	ba	1	1835
5e6d7b0421be18343d8bc4a9	DL_test	2	ta	ga	1	right	ga	1	801
5e6d7b0421be18343d8bc4a9	DL_test	3	ka	ka	0	left	ka	1	551
5e6d7b0421be18343d8bc4a9	DL_test	4	da	ba	1	other	pa	0	1268
5e6d7b0421be18343d8bc4a9	DL_test	5	ba	pa	1	right	pa	1	985
5e6d7b0421be18343d8bc4a9	DL_test	6	ka	ga	1	right	ga	1	1852
5e6d7b0421be18343d8bc4a9	DL_test	7	ka	ta	1	left	ka	1	785
5e6d7b0421be18343d8bc4a9	DL_test	8	ga	pa	1	other	ka	0	902
5e6d7b0421be18343d8bc4a9	DL_test	9	ga	ka	1	left	ga	1	1251
5e6d7b0421be18343d8bc4a9	DL_test	10	ta	pa	1	left	ta	1	1235
5e6d7b0421be18343d8bc4a9	DL_test	11	ba	ba	0	left	ba	1	1485
5e6d7b0421be18343d8bc4a9	DL_test	12	da	ka	1	left	da	1	785
5e6d7b0421be18343d8bc4a9	DL_test	13	ka	da	1	right	da	1	1336
5e6d7b0421be18343d8bc4a9	DL_test	14	da	ga	1	right	ga	1	635
5e6d7b0421be18343d8bc4a9	DL_test	15	ta	ta	0	left	ta	1	1301
5e6d7b0421be18343d8bc4a9	DL_test	16	ba	ga	1	left	ba	1	1535
5e6d7b0421be18343d8bc4a9	DL_test	17	ba	ta	1	left	ba	1	1435
5e6d7b0421be18343d8bc4a9	DL_test	18	da	pa	1	left	da	1	985
5e6d7b0421be18343d8bc4a9	DL_test	19	ga	ta	1	other	ka	0	1052
5e6d7b0421be18343d8bc4a9	DL_test	20	pa	ga	1	right	ga	1	1024
5e6d7b0421be18343d8bc4a9	DL_test	21	ga	ga	0	left	ga	1	769
5e6d7b0421be18343d8bc4a9	DL_test	22	pa	ka	1	right	ka	1	985
5e6d7b0421be18343d8bc4a9	DL_test	23	pa	da	1	right	da	1	1219
5e6d7b0421be18343d8bc4a9	DL_test	24	pa	ba	1	left	pa	1	1836
5e6d7b0421be18343d8bc4a9	DL_test	25	da	ta	1	left	da	1	1503
5e6d7b0421be18343d8bc4a9	DL_test	26	ba	ka	1	left	ba	1	2619
5e6d7b0421be18343d8bc4a9	DL_test	27	ta	ba	1	left	ta	1	1886
5e6d7b0421be18343d8bc4a9	DL_test	28	ta	da	1	right	da	1	1103
5e6d7b0421be18343d8bc4a9	DL_test	29	ka	ba	1	left	ka	1	1136
5e6d7b0421be18343d8bc4a9	DL_test	30	da	da	0	left	da	1	1169
5e6d7b0421be18343d8bc4a9	DL_test	31	ta	ka	1	right	ka	1	1018
5e6d7b0421be18343d8bc4a9	DL_test	32	ga	da	1	left	ga	1	952
5e6d7b0421be18343d8bc4a9	DL_test	33	ba	da	1	left	ba	1	1502
5e6d7b0421be18343d8bc4a9	DL_test	34	ka	pa	1	left	ka	1	852
5e6d7b0421be18343d8bc4a9	DL_test	35	pa	ta	1	right	ta	1	1302
5e6d7b0421be18343d8bc4a9	DL_test	36	pa	pa	0	left	pa	1	2520
5e6d7b0421be18343d8bc4a9	DL_test	1	ga	da	1	left	ga	1	836
5e6d7b0421be18343d8bc4a9	DL_test	2	pa	ga	1	right	ga	1	1052
5e6d7b0421be18343d8bc4a9	DL_test	3	ga	ta	1	left	ga	1	719
5e6d7b0421be18343d8bc4a9	DL_test	4	da	ga	1	right	ga	1	836
5e6d7b0421be18343d8bc4a9	DL_test	5	ba	ba	0	other	ga	0	36
5e6d7b0421be18343d8bc4a9	DL_test	6	da	pa	1	right	pa	1	1219
5e6d7b0421be18343d8bc4a9	DL_test	7	ba	da	1	other	pa	0	1686
5e6d7b0421be18343d8bc4a9	DL_test	8	da	ba	1	right	ba	1	1203
5e6d7b0421be18343d8bc4a9	DL_test	9	ka	ta	1	left	ka	1	1152
5e6d7b0421be18343d8bc4a9	DL_test	10	ka	ga	1	right	ga	1	1270
5e6d7b0421be18343d8bc4a9	DL_test	11	ta	ka	1	right	ka	1	1202
5e6d7b0421be18343d8bc4a9	DL_test	12	da	da	0	left	da	1	1087
5e6d7b0421be18343d8bc4a9	DL_test	13	pa	ka	1	right	ka	1	853
5e6d7b0421be18343d8bc4a9	DL_test	14	ka	da	1	left	ka	1	1203
5e6d7b0421be18343d8bc4a9	DL_test	15	ga	ka	1	left	ga	1	669
5e6d7b0421be18343d8bc4a9	DL_test	16	ta	ta	0	left	ta	1	1103
5e6d7b0421be18343d8bc4a9	DL_test	17	ba	pa	1	right	pa	1	719
5e6d7b0421be18343d8bc4a9	DL_test	18	ba	ga	1	left	ba	1	1653
5e6d7b0421be18343d8bc4a9	DL_test	19	ta	ba	1	other	da	0	1386
5e6d7b0421be18343d8bc4a9	DL_test	20	pa	ta	1	right	ta	1	1052
5e6d7b0421be18343d8bc4a9	DL_test	21	da	ka	1	left	da	1	1153
5e6d7b0421be18343d8bc4a9	DL_test	22	pa	da	1	right	da	1	853
5e6d7b0421be18343d8bc4a9	DL_test	23	pa	pa	0	left	pa	1	1069
5e6d7b0421be18343d8bc4a9	DL_test	24	ba	ka	1	right	ka	1	1420
5e6d7b0421be18343d8bc4a9	DL_test	25	ka	pa	1	left	ka	1	803
5e6d7b0421be18343d8bc4a9	DL_test	26	ga	ga	0	left	ga	1	736
5e6d7b0421be18343d8bc4a9	DL_test	27	ta	ga	1	right	ga	1	770
5e6d7b0421be18343d8bc4a9	DL_test	28	ga	ba	1	right	ba	1	1253
5e6d7b0421be18343d8bc4a9	DL_test	29	ba	ta	1	right	ta	1	1353
5e6d7b0421be18343d8bc4a9	DL_test	30	ta	da	1	right	da	1	1169
5e6d7b0421be18343d8bc4a9	DL_test	31	ka	ka	0	left	ka	1	753
5e6d7b0421be18343d8bc4a9	DL_test	32	pa	ba	1	left	pa	1	1103
5e6d7b0421be18343d8bc4a9	DL_test	33	ta	pa	1	left	ta	1	1386
5e6d7b0421be18343d8bc4a9	DL_test	34	ka	ba	1	other	ga	0	903
5e6d7b0421be18343d8bc4a9	DL_test	35	da	ta	1	left	da	1	936
5e6d7b0421be18343d8bc4a9	DL_test	36	ga	pa	1	left	ga	1	1153
5e6d7b0421be18343d8bc4a9	DL_test	1	ka	ta	1	left	ka	1	1036
5e6d7b0421be18343d8bc4a9	DL_test	2	ta	ga	1	right	ga	1	936
5e6d7b0421be18343d8bc4a9	DL_test	3	ba	ga	1	left	ba	1	1703
5e6d7b0421be18343d8bc4a9	DL_test	4	ba	pa	1	right	pa	1	1486
5e6d7b0421be18343d8bc4a9	DL_test	5	da	pa	1	left	da	1	637
5e6d7b0421be18343d8bc4a9	DL_test	6	ta	ba	1	left	ta	1	1370
5e6d7b0421be18343d8bc4a9	DL_test	7	ta	pa	1	left	ta	1	1321
5e6d7b0421be18343d8bc4a9	DL_test	8	ba	ba	0	left	ba	1	1287
5e6d7b0421be18343d8bc4a9	DL_test	9	da	ta	1	left	da	1	886
5e6d7b0421be18343d8bc4a9	DL_test	10	ka	pa	1	left	ka	1	1170
5e6d7b0421be18343d8bc4a9	DL_test	11	pa	ga	1	right	ga	1	487
5e6d7b0421be18343d8bc4a9	DL_test	12	ka	da	1	other	ga	0	954
5e6d7b0421be18343d8bc4a9	DL_test	13	ba	ta	1	right	ta	1	2153
5e6d7b0421be18343d8bc4a9	DL_test	14	pa	ka	1	right	ka	1	871
5e6d7b0421be18343d8bc4a9	DL_test	15	ga	ka	1	left	ga	1	770
5e6d7b0421be18343d8bc4a9	DL_test	16	ka	ga	1	right	ga	1	787
5e6d7b0421be18343d8bc4a9	DL_test	17	da	ka	1	left	da	1	804
5e6d7b0421be18343d8bc4a9	DL_test	18	ga	ga	0	left	ga	1	853
5e6d7b0421be18343d8bc4a9	DL_test	19	ta	ka	1	right	ka	1	1304
5e6d7b0421be18343d8bc4a9	DL_test	20	da	da	0	left	da	1	854
5e6d7b0421be18343d8bc4a9	DL_test	21	pa	ba	1	left	pa	1	970
5e6d7b0421be18343d8bc4a9	DL_test	22	ka	ka	0	left	ka	1	855
5e6d7b0421be18343d8bc4a9	DL_test	23	pa	ta	1	right	ta	1	1203
5e6d7b0421be18343d8bc4a9	DL_test	24	ta	ta	0	left	ta	1	771
5e6d7b0421be18343d8bc4a9	DL_test	25	ba	ka	1	left	ba	1	2587
5e6d7b0421be18343d8bc4a9	DL_test	26	da	ga	1	right	ga	1	720
5e6d7b0421be18343d8bc4a9	DL_test	27	da	ba	1	right	ba	1	1121
5e6d7b0421be18343d8bc4a9	DL_test	28	pa	pa	0	left	pa	1	1253
5e6d7b0421be18343d8bc4a9	DL_test	29	ga	ta	1	left	ga	1	1121
5e6d7b0421be18343d8bc4a9	DL_test	30	ga	pa	1	left	ga	1	721
5e6d7b0421be18343d8bc4a9	DL_test	31	ba	da	1	right	da	1	1071
5e6d7b0421be18343d8bc4a9	DL_test	32	pa	da	1	right	da	1	654
5e6d7b0421be18343d8bc4a9	DL_test	33	ka	ba	1	other	ga	0	1454
5e6d7b0421be18343d8bc4a9	DL_test	34	ta	da	1	right	da	1	1021
5e6d7b0421be18343d8bc4a9	DL_test	35	ga	da	1	left	ga	1	754
5e6d7b0421be18343d8bc4a9	DL_test	36	ga	ba	1	right	ba	1	1071
