subject	block	trialnum	DL_leftSound	DL_rightSound	DL_dualSound	DL_choice	response	correct	rt
5efef32a88bb6a01c8087591	headphonecheck_testphase	3	NA	NA	0	NA	third	1	799
5efef32a88bb6a01c8087591	headphonecheck_testphase	6	NA	NA	0	NA	second	1	898
5efef32a88bb6a01c8087591	headphonecheck_testphase	9	NA	NA	0	NA	third	1	630
5efef32a88bb6a01c8087591	headphonecheck_testphase	12	NA	NA	0	NA	second	1	488
5efef32a88bb6a01c8087591	headphonecheck_testphase	15	NA	NA	0	NA	first	1	510
5efef32a88bb6a01c8087591	headphonecheck_testphase	18	NA	NA	0	NA	first	1	588
5efef32a88bb6a01c8087591	stereocheck_testphase	3	NA	NA	0	NA	stereocheck_right	1	557
5efef32a88bb6a01c8087591	stereocheck_testphase	6	NA	NA	0	NA	stereocheck_right	1	499
5efef32a88bb6a01c8087591	stereocheck_testphase	9	NA	NA	0	NA	stereocheck_left	1	405
5efef32a88bb6a01c8087591	stereocheck_testphase	12	NA	NA	0	NA	stereocheck_left	1	407
5efef32a88bb6a01c8087591	stereocheck_testphase	15	NA	NA	0	NA	stereocheck_left	1	360
5efef32a88bb6a01c8087591	stereocheck_testphase	18	NA	NA	0	NA	stereocheck_right	1	422
5efef32a88bb6a01c8087591	DL_practice	2	ka	pa	1	other	ga	0	114217
5efef32a88bb6a01c8087591	DL_practice	3	ga	ga	0	left	ga	1	945
5efef32a88bb6a01c8087591	DL_practice	4	ba	ba	0	left	ba	1	1603
5efef32a88bb6a01c8087591	DL_practice	5	ta	ta	0	left	ta	1	1530
5efef32a88bb6a01c8087591	DL_practice	6	ka	ka	0	left	ka	1	850
5efef32a88bb6a01c8087591	DL_practice	7	da	da	0	left	da	1	1062
5efef32a88bb6a01c8087591	DL_practice	8	ga	ta	1	other	ka	0	2901
5efef32a88bb6a01c8087591	DL_practice	9	da	ba	1	left	da	1	1307
5efef32a88bb6a01c8087591	DL_practice	10	pa	pa	0	left	pa	1	983
5efef32a88bb6a01c8087591	DL_test	1	ga	ga	0	left	ga	1	1289
5efef32a88bb6a01c8087591	DL_test	2	pa	ba	1	left	pa	1	1079
5efef32a88bb6a01c8087591	DL_test	3	ba	da	1	right	da	1	1138
5efef32a88bb6a01c8087591	DL_test	4	ka	ga	1	left	ka	1	1381
5efef32a88bb6a01c8087591	DL_test	5	ka	pa	1	right	pa	1	1063
5efef32a88bb6a01c8087591	DL_test	6	ta	pa	1	left	ta	1	6887
5efef32a88bb6a01c8087591	DL_test	7	da	ka	1	other	pa	0	1115
5efef32a88bb6a01c8087591	DL_test	8	pa	da	1	right	da	1	1623
5efef32a88bb6a01c8087591	DL_test	9	ba	ka	1	right	ka	1	894
5efef32a88bb6a01c8087591	DL_test	10	da	ta	1	right	ta	1	1784
5efef32a88bb6a01c8087591	DL_test	11	ga	ba	1	right	ba	1	1922
5efef32a88bb6a01c8087591	DL_test	12	ta	da	1	left	ta	1	1468
5efef32a88bb6a01c8087591	DL_test	13	ga	ta	1	other	ka	0	944
5efef32a88bb6a01c8087591	DL_test	14	ka	ba	1	left	ka	1	966
5efef32a88bb6a01c8087591	DL_test	15	ta	ta	0	other	ka	0	962
5efef32a88bb6a01c8087591	DL_test	16	da	da	0	left	da	1	1093
5efef32a88bb6a01c8087591	DL_test	17	da	pa	1	right	pa	1	1051
5efef32a88bb6a01c8087591	DL_test	18	ka	ka	0	left	ka	1	815
5efef32a88bb6a01c8087591	DL_test	19	ta	ka	1	right	ka	1	822
5efef32a88bb6a01c8087591	DL_test	20	pa	ta	1	right	ta	1	1263
5efef32a88bb6a01c8087591	DL_test	21	ba	pa	1	right	pa	1	801
5efef32a88bb6a01c8087591	DL_test	22	ba	ba	0	left	ba	1	1760
5efef32a88bb6a01c8087591	DL_test	23	pa	ga	1	other	ka	0	1951
5efef32a88bb6a01c8087591	DL_test	24	ka	ta	1	left	ka	1	779
5efef32a88bb6a01c8087591	DL_test	25	da	ga	1	left	da	1	1048
5efef32a88bb6a01c8087591	DL_test	26	da	ba	1	left	da	1	1239
5efef32a88bb6a01c8087591	DL_test	27	ta	ba	1	other	ka	0	1669
5efef32a88bb6a01c8087591	DL_test	28	pa	ka	1	right	ka	1	907
5efef32a88bb6a01c8087591	DL_test	29	ba	ta	1	right	ta	1	1392
5efef32a88bb6a01c8087591	DL_test	30	pa	pa	0	left	pa	1	812
5efef32a88bb6a01c8087591	DL_test	31	ba	ga	1	right	ga	1	907
5efef32a88bb6a01c8087591	DL_test	32	ga	ka	1	right	ka	1	941
5efef32a88bb6a01c8087591	DL_test	33	ga	da	1	right	da	1	1481
5efef32a88bb6a01c8087591	DL_test	34	ta	ga	1	other	ka	0	957
5efef32a88bb6a01c8087591	DL_test	35	ga	pa	1	right	pa	1	1746
5efef32a88bb6a01c8087591	DL_test	36	ka	da	1	left	ka	1	1271
5efef32a88bb6a01c8087591	DL_test	1	pa	da	1	left	pa	1	1640
5efef32a88bb6a01c8087591	DL_test	2	pa	pa	0	left	pa	1	1106
5efef32a88bb6a01c8087591	DL_test	3	da	ga	1	left	da	1	1230
5efef32a88bb6a01c8087591	DL_test	4	da	pa	1	right	pa	1	1544
5efef32a88bb6a01c8087591	DL_test	5	ba	ga	1	right	ga	1	1306
5efef32a88bb6a01c8087591	DL_test	6	ba	ta	1	other	ka	0	2685
5efef32a88bb6a01c8087591	DL_test	7	da	ka	1	other	pa	0	840
5efef32a88bb6a01c8087591	DL_test	8	ta	ka	1	right	ka	1	1081
5efef32a88bb6a01c8087591	DL_test	9	ba	ka	1	right	ka	1	861
5efef32a88bb6a01c8087591	DL_test	10	da	ba	1	right	ba	1	1107
5efef32a88bb6a01c8087591	DL_test	11	ka	ga	1	left	ka	1	1036
5efef32a88bb6a01c8087591	DL_test	12	ka	ka	0	left	ka	1	853
5efef32a88bb6a01c8087591	DL_test	13	ka	da	1	left	ka	1	979
5efef32a88bb6a01c8087591	DL_test	14	ga	ba	1	right	ba	1	1270
5efef32a88bb6a01c8087591	DL_test	15	pa	ga	1	left	pa	1	1969
5efef32a88bb6a01c8087591	DL_test	16	ka	ba	1	left	ka	1	1063
5efef32a88bb6a01c8087591	DL_test	17	ba	pa	1	right	pa	1	878
5efef32a88bb6a01c8087591	DL_test	18	pa	ba	1	left	pa	1	888
5efef32a88bb6a01c8087591	DL_test	19	ka	pa	1	right	pa	1	744
5efef32a88bb6a01c8087591	DL_test	20	da	da	0	left	da	1	1023
5efef32a88bb6a01c8087591	DL_test	21	pa	ta	1	other	ka	0	1076
5efef32a88bb6a01c8087591	DL_test	22	ga	da	1	right	da	1	1404
5efef32a88bb6a01c8087591	DL_test	23	ga	ga	0	left	ga	1	938
5efef32a88bb6a01c8087591	DL_test	24	ka	ta	1	left	ka	1	1030
5efef32a88bb6a01c8087591	DL_test	25	pa	ka	1	right	ka	1	1409
5efef32a88bb6a01c8087591	DL_test	26	ga	pa	1	right	pa	1	1445
5efef32a88bb6a01c8087591	DL_test	27	ta	da	1	other	ga	0	1386
5efef32a88bb6a01c8087591	DL_test	28	ta	ba	1	other	pa	0	1081
5efef32a88bb6a01c8087591	DL_test	29	ba	ba	0	left	ba	1	1427
5efef32a88bb6a01c8087591	DL_test	30	da	ta	1	other	ka	0	1265
5efef32a88bb6a01c8087591	DL_test	31	ga	ta	1	other	ka	0	1090
5efef32a88bb6a01c8087591	DL_test	32	ba	da	1	right	da	1	1116
5efef32a88bb6a01c8087591	DL_test	33	ga	ka	1	right	ka	1	877
5efef32a88bb6a01c8087591	DL_test	34	ta	pa	1	right	pa	1	1054
5efef32a88bb6a01c8087591	DL_test	35	ta	ga	1	right	ga	1	1071
5efef32a88bb6a01c8087591	DL_test	36	ta	ta	0	other	ka	0	927
5efef32a88bb6a01c8087591	DL_test	1	pa	ka	1	right	ka	1	1171
5efef32a88bb6a01c8087591	DL_test	2	da	ba	1	right	ba	1	1085
5efef32a88bb6a01c8087591	DL_test	3	da	pa	1	right	pa	1	1086
5efef32a88bb6a01c8087591	DL_test	4	pa	da	1	right	da	1	1155
5efef32a88bb6a01c8087591	DL_test	5	pa	ta	1	other	ka	0	1053
5efef32a88bb6a01c8087591	DL_test	6	ta	ta	0	other	ka	0	1076
5efef32a88bb6a01c8087591	DL_test	7	ba	ba	0	left	ba	1	1266
5efef32a88bb6a01c8087591	DL_test	8	ga	ka	1	right	ka	1	990
5efef32a88bb6a01c8087591	DL_test	9	ba	pa	1	right	pa	1	1360
5efef32a88bb6a01c8087591	DL_test	10	ga	ga	0	left	ga	1	1042
5efef32a88bb6a01c8087591	DL_test	11	ga	ta	1	other	ka	0	968
5efef32a88bb6a01c8087591	DL_test	12	ka	ka	0	left	ka	1	771
5efef32a88bb6a01c8087591	DL_test	13	ta	ka	1	right	ka	1	854
5efef32a88bb6a01c8087591	DL_test	14	ba	ka	1	right	ka	1	1159
5efef32a88bb6a01c8087591	DL_test	15	ka	ba	1	left	ka	1	1081
5efef32a88bb6a01c8087591	DL_test	16	ba	ga	1	right	ga	1	1239
5efef32a88bb6a01c8087591	DL_test	17	ka	ga	1	right	ga	1	1190
5efef32a88bb6a01c8087591	DL_test	18	ka	da	1	left	ka	1	872
5efef32a88bb6a01c8087591	DL_test	19	da	da	0	left	da	1	904
5efef32a88bb6a01c8087591	DL_test	20	ta	ga	1	right	ga	1	1141
5efef32a88bb6a01c8087591	DL_test	21	ta	pa	1	right	pa	1	1122
5efef32a88bb6a01c8087591	DL_test	22	ga	da	1	right	da	1	1684
5efef32a88bb6a01c8087591	DL_test	23	pa	pa	0	left	pa	1	1306
5efef32a88bb6a01c8087591	DL_test	24	pa	ba	1	right	ba	1	1886
5efef32a88bb6a01c8087591	DL_test	25	ba	da	1	right	da	1	946
5efef32a88bb6a01c8087591	DL_test	26	da	ga	1	right	ga	1	957
5efef32a88bb6a01c8087591	DL_test	27	da	ta	1	other	ka	0	856
5efef32a88bb6a01c8087591	DL_test	28	da	ka	1	other	pa	0	2251
5efef32a88bb6a01c8087591	DL_test	29	ta	da	1	right	da	1	1297
5efef32a88bb6a01c8087591	DL_test	30	ga	ba	1	right	ba	1	1163
5efef32a88bb6a01c8087591	DL_test	31	pa	ga	1	right	ga	1	1189
5efef32a88bb6a01c8087591	DL_test	32	ka	ta	1	left	ka	1	724
5efef32a88bb6a01c8087591	DL_test	33	ba	ta	1	other	ka	0	823
5efef32a88bb6a01c8087591	DL_test	34	ta	ba	1	right	ba	1	1288
5efef32a88bb6a01c8087591	DL_test	35	ga	pa	1	right	pa	1	950
5efef32a88bb6a01c8087591	DL_test	36	ka	pa	1	left	ka	1	1461
5efef32a88bb6a01c8087591	DL_test	1	ga	ba	1	right	ba	1	1251
5efef32a88bb6a01c8087591	DL_test	2	ta	ga	1	right	ga	1	1006
5efef32a88bb6a01c8087591	DL_test	3	pa	ta	1	left	pa	1	1055
5efef32a88bb6a01c8087591	DL_test	4	ta	da	1	right	da	1	940
5efef32a88bb6a01c8087591	DL_test	5	pa	ga	1	right	ga	1	1240
5efef32a88bb6a01c8087591	DL_test	6	pa	pa	0	left	pa	1	1023
5efef32a88bb6a01c8087591	DL_test	7	ta	ta	0	other	ka	0	1550
5efef32a88bb6a01c8087591	DL_test	8	da	da	0	left	da	1	828
5efef32a88bb6a01c8087591	DL_test	9	ba	pa	1	right	pa	1	918
5efef32a88bb6a01c8087591	DL_test	10	ga	ta	1	other	ka	0	818
5efef32a88bb6a01c8087591	DL_test	11	ta	pa	1	right	pa	1	835
5efef32a88bb6a01c8087591	DL_test	12	ga	pa	1	right	pa	1	916
5efef32a88bb6a01c8087591	DL_test	13	ba	ta	1	other	ka	0	944
5efef32a88bb6a01c8087591	DL_test	14	ta	ka	1	right	ka	1	901
5efef32a88bb6a01c8087591	DL_test	15	da	pa	1	right	pa	1	753
5efef32a88bb6a01c8087591	DL_test	16	pa	da	1	right	da	1	1300
5efef32a88bb6a01c8087591	DL_test	17	ka	ka	0	left	ka	1	817
5efef32a88bb6a01c8087591	DL_test	18	ga	ka	1	right	ka	1	1072
5efef32a88bb6a01c8087591	DL_test	19	ba	ba	0	left	ba	1	1745
5efef32a88bb6a01c8087591	DL_test	20	ba	ga	1	other	da	0	1025
5efef32a88bb6a01c8087591	DL_test	21	ka	da	1	other	ga	0	1171
5efef32a88bb6a01c8087591	DL_test	22	da	ta	1	other	ka	0	839
5efef32a88bb6a01c8087591	DL_test	23	ka	pa	1	right	pa	1	1008
5efef32a88bb6a01c8087591	DL_test	24	ga	da	1	right	da	1	1322
5efef32a88bb6a01c8087591	DL_test	25	pa	ka	1	right	ka	1	817
5efef32a88bb6a01c8087591	DL_test	26	ka	ba	1	other	pa	0	967
5efef32a88bb6a01c8087591	DL_test	27	da	ka	1	other	pa	0	804
5efef32a88bb6a01c8087591	DL_test	28	ta	ba	1	right	ba	1	1339
5efef32a88bb6a01c8087591	DL_test	29	ba	da	1	right	da	1	809
5efef32a88bb6a01c8087591	DL_test	30	ga	ga	0	left	ga	1	687
5efef32a88bb6a01c8087591	DL_test	31	ka	ta	1	left	ka	1	658
5efef32a88bb6a01c8087591	DL_test	32	ba	ka	1	right	ka	1	798
5efef32a88bb6a01c8087591	DL_test	33	pa	ba	1	right	ba	1	1147
5efef32a88bb6a01c8087591	DL_test	34	da	ga	1	left	da	1	664
5efef32a88bb6a01c8087591	DL_test	35	da	ba	1	right	ba	1	1119
5efef32a88bb6a01c8087591	DL_test	36	ka	ga	1	right	ga	1	992
