subject	block	trialnum	DL_leftSound	DL_rightSound	DL_dualSound	DL_choice	response	correct	rt
608bfa04767191aa4d57bfd8	headphonecheck_testphase	3	NA	NA	0	NA	second	1	384
608bfa04767191aa4d57bfd8	headphonecheck_testphase	6	NA	NA	0	NA	third	1	347
608bfa04767191aa4d57bfd8	headphonecheck_testphase	9	NA	NA	0	NA	first	1	275
608bfa04767191aa4d57bfd8	headphonecheck_testphase	12	NA	NA	0	NA	first	1	560
608bfa04767191aa4d57bfd8	headphonecheck_testphase	15	NA	NA	0	NA	second	1	305
608bfa04767191aa4d57bfd8	headphonecheck_testphase	18	NA	NA	0	NA	third	1	707
608bfa04767191aa4d57bfd8	stereocheck_testphase	3	NA	NA	0	NA	stereocheck_left	1	405
608bfa04767191aa4d57bfd8	stereocheck_testphase	6	NA	NA	0	NA	stereocheck_left	1	232
608bfa04767191aa4d57bfd8	stereocheck_testphase	9	NA	NA	0	NA	stereocheck_right	1	171
608bfa04767191aa4d57bfd8	stereocheck_testphase	12	NA	NA	0	NA	stereocheck_right	1	206
608bfa04767191aa4d57bfd8	stereocheck_testphase	15	NA	NA	0	NA	stereocheck_right	1	971
608bfa04767191aa4d57bfd8	stereocheck_testphase	18	NA	NA	0	NA	stereocheck_left	1	88
608bfa04767191aa4d57bfd8	DL_practice	2	ga	ga	0	left	ga	1	889
608bfa04767191aa4d57bfd8	DL_practice	3	ka	ka	0	left	ka	1	668
608bfa04767191aa4d57bfd8	DL_practice	4	da	da	0	left	da	1	1243
608bfa04767191aa4d57bfd8	DL_practice	5	ga	ta	1	other	ka	0	1497
608bfa04767191aa4d57bfd8	DL_practice	6	pa	pa	0	left	pa	1	1094
608bfa04767191aa4d57bfd8	DL_practice	7	ba	ba	0	left	ba	1	1169
608bfa04767191aa4d57bfd8	DL_practice	8	ta	ta	0	left	ta	1	793
608bfa04767191aa4d57bfd8	DL_practice	9	ka	pa	1	left	ka	1	919
608bfa04767191aa4d57bfd8	DL_practice	10	da	ba	1	left	da	1	1085
608bfa04767191aa4d57bfd8	DL_test	1	ta	ka	1	right	ka	1	820
608bfa04767191aa4d57bfd8	DL_test	2	ga	da	1	right	da	1	955
608bfa04767191aa4d57bfd8	DL_test	3	ga	ba	1	left	ga	1	1034
608bfa04767191aa4d57bfd8	DL_test	4	ba	ba	0	left	ba	1	980
608bfa04767191aa4d57bfd8	DL_test	5	pa	ga	1	right	ga	1	1160
608bfa04767191aa4d57bfd8	DL_test	6	da	pa	1	right	pa	1	1128
608bfa04767191aa4d57bfd8	DL_test	7	da	da	0	left	da	1	1024
608bfa04767191aa4d57bfd8	DL_test	8	ga	pa	1	right	pa	1	1140
608bfa04767191aa4d57bfd8	DL_test	9	da	ta	1	right	ta	1	1059
608bfa04767191aa4d57bfd8	DL_test	10	ga	ga	0	left	ga	1	749
608bfa04767191aa4d57bfd8	DL_test	11	pa	da	1	left	pa	1	2900
608bfa04767191aa4d57bfd8	DL_test	12	ka	ga	1	right	ga	1	932
608bfa04767191aa4d57bfd8	DL_test	13	pa	ka	1	right	ka	1	723
608bfa04767191aa4d57bfd8	DL_test	14	da	ga	1	left	da	1	1028
608bfa04767191aa4d57bfd8	DL_test	15	ka	ba	1	left	ka	1	1274
608bfa04767191aa4d57bfd8	DL_test	16	ta	da	1	right	da	1	1097
608bfa04767191aa4d57bfd8	DL_test	17	da	ba	1	left	da	1	2117
608bfa04767191aa4d57bfd8	DL_test	18	ta	pa	1	right	pa	1	1090
608bfa04767191aa4d57bfd8	DL_test	19	ba	da	1	right	da	1	1515
608bfa04767191aa4d57bfd8	DL_test	20	pa	pa	0	left	pa	1	937
608bfa04767191aa4d57bfd8	DL_test	21	ba	ga	1	right	ga	1	1063
608bfa04767191aa4d57bfd8	DL_test	22	ka	ta	1	left	ka	1	1011
608bfa04767191aa4d57bfd8	DL_test	23	pa	ta	1	right	ta	1	1201
608bfa04767191aa4d57bfd8	DL_test	24	ka	pa	1	right	pa	1	1665
608bfa04767191aa4d57bfd8	DL_test	25	ba	ta	1	right	ta	1	1141
608bfa04767191aa4d57bfd8	DL_test	26	ga	ta	1	left	ga	1	1526
608bfa04767191aa4d57bfd8	DL_test	27	ta	ba	1	other	da	0	1900
608bfa04767191aa4d57bfd8	DL_test	28	ka	ka	0	left	ka	1	1300
608bfa04767191aa4d57bfd8	DL_test	29	ta	ta	0	left	ta	1	886
608bfa04767191aa4d57bfd8	DL_test	30	ka	da	1	other	ga	0	1362
608bfa04767191aa4d57bfd8	DL_test	31	ba	pa	1	right	pa	1	970
608bfa04767191aa4d57bfd8	DL_test	32	ga	ka	1	right	ka	1	909
608bfa04767191aa4d57bfd8	DL_test	33	ba	ka	1	right	ka	1	949
608bfa04767191aa4d57bfd8	DL_test	34	da	ka	1	other	pa	0	1004
608bfa04767191aa4d57bfd8	DL_test	35	ta	ga	1	right	ga	1	1159
608bfa04767191aa4d57bfd8	DL_test	36	pa	ba	1	left	pa	1	1226
608bfa04767191aa4d57bfd8	DL_test	1	da	da	0	left	da	1	899
608bfa04767191aa4d57bfd8	DL_test	2	ka	ga	1	right	ga	1	725
608bfa04767191aa4d57bfd8	DL_test	3	pa	ga	1	right	ga	1	1161
608bfa04767191aa4d57bfd8	DL_test	4	da	ba	1	left	da	1	1114
608bfa04767191aa4d57bfd8	DL_test	5	ga	da	1	left	ga	1	857
608bfa04767191aa4d57bfd8	DL_test	6	ga	pa	1	right	pa	1	830
608bfa04767191aa4d57bfd8	DL_test	7	pa	ka	1	right	ka	1	997
608bfa04767191aa4d57bfd8	DL_test	8	da	ga	1	left	da	1	1182
608bfa04767191aa4d57bfd8	DL_test	9	ta	pa	1	left	ta	1	1121
608bfa04767191aa4d57bfd8	DL_test	10	ba	ka	1	right	ka	1	873
608bfa04767191aa4d57bfd8	DL_test	11	ba	ta	1	right	ta	1	1456
608bfa04767191aa4d57bfd8	DL_test	12	ga	ba	1	left	ga	1	1372
608bfa04767191aa4d57bfd8	DL_test	13	ba	ba	0	left	ba	1	1399
608bfa04767191aa4d57bfd8	DL_test	14	da	ta	1	right	ta	1	1312
608bfa04767191aa4d57bfd8	DL_test	15	pa	pa	0	left	pa	1	1217
608bfa04767191aa4d57bfd8	DL_test	16	ta	ka	1	right	ka	1	891
608bfa04767191aa4d57bfd8	DL_test	17	da	pa	1	right	pa	1	1244
608bfa04767191aa4d57bfd8	DL_test	18	ka	ta	1	left	ka	1	2072
608bfa04767191aa4d57bfd8	DL_test	19	ga	ta	1	right	ta	1	1800
608bfa04767191aa4d57bfd8	DL_test	20	ba	da	1	right	da	1	1054
608bfa04767191aa4d57bfd8	DL_test	21	ta	ga	1	right	ga	1	1412
608bfa04767191aa4d57bfd8	DL_test	22	ba	pa	1	right	pa	1	963
608bfa04767191aa4d57bfd8	DL_test	23	ka	da	1	right	da	1	1132
608bfa04767191aa4d57bfd8	DL_test	24	ga	ga	0	left	ga	1	760
608bfa04767191aa4d57bfd8	DL_test	25	ka	pa	1	right	pa	1	970
608bfa04767191aa4d57bfd8	DL_test	26	ta	da	1	right	da	1	987
608bfa04767191aa4d57bfd8	DL_test	27	pa	ta	1	right	ta	1	1116
608bfa04767191aa4d57bfd8	DL_test	28	ta	ba	1	left	ta	1	3081
608bfa04767191aa4d57bfd8	DL_test	29	ga	ka	1	right	ka	1	1584
608bfa04767191aa4d57bfd8	DL_test	30	ka	ba	1	left	ka	1	1278
608bfa04767191aa4d57bfd8	DL_test	31	ta	ta	0	left	ta	1	1062
608bfa04767191aa4d57bfd8	DL_test	32	pa	ba	1	right	ba	1	1345
608bfa04767191aa4d57bfd8	DL_test	33	da	ka	1	other	pa	0	1662
608bfa04767191aa4d57bfd8	DL_test	34	ka	ka	0	left	ka	1	800
608bfa04767191aa4d57bfd8	DL_test	35	pa	da	1	right	da	1	1150
608bfa04767191aa4d57bfd8	DL_test	36	ba	ga	1	right	ga	1	2074
608bfa04767191aa4d57bfd8	DL_test	1	da	ba	1	left	da	1	1000
608bfa04767191aa4d57bfd8	DL_test	2	ta	ba	1	left	ta	1	897
608bfa04767191aa4d57bfd8	DL_test	3	ga	ba	1	left	ga	1	764
608bfa04767191aa4d57bfd8	DL_test	4	ta	ga	1	other	da	0	2282
608bfa04767191aa4d57bfd8	DL_test	5	ba	ga	1	right	ga	1	886
608bfa04767191aa4d57bfd8	DL_test	6	ga	ga	0	left	ga	1	1376
608bfa04767191aa4d57bfd8	DL_test	7	pa	ba	1	left	pa	1	1527
608bfa04767191aa4d57bfd8	DL_test	8	ta	pa	1	left	ta	1	1214
608bfa04767191aa4d57bfd8	DL_test	9	ga	pa	1	right	pa	1	1500
608bfa04767191aa4d57bfd8	DL_test	10	ba	pa	1	right	pa	1	1625
608bfa04767191aa4d57bfd8	DL_test	11	da	da	0	left	da	1	1148
608bfa04767191aa4d57bfd8	DL_test	12	ka	da	1	left	ka	1	2356
608bfa04767191aa4d57bfd8	DL_test	13	ba	ta	1	right	ta	1	979
608bfa04767191aa4d57bfd8	DL_test	14	da	ka	1	other	pa	0	1094
608bfa04767191aa4d57bfd8	DL_test	15	ba	ka	1	right	ka	1	1211
608bfa04767191aa4d57bfd8	DL_test	16	ka	ga	1	right	ga	1	1548
608bfa04767191aa4d57bfd8	DL_test	17	ba	da	1	right	da	1	1035
608bfa04767191aa4d57bfd8	DL_test	18	pa	ga	1	left	pa	1	3074
608bfa04767191aa4d57bfd8	DL_test	19	ga	da	1	left	ga	1	1038
608bfa04767191aa4d57bfd8	DL_test	20	da	ta	1	right	ta	1	1047
608bfa04767191aa4d57bfd8	DL_test	21	pa	ta	1	left	pa	1	2175
608bfa04767191aa4d57bfd8	DL_test	22	da	ga	1	right	ga	1	1282
608bfa04767191aa4d57bfd8	DL_test	23	ka	ka	0	left	ka	1	752
608bfa04767191aa4d57bfd8	DL_test	24	ka	ta	1	left	ka	1	748
608bfa04767191aa4d57bfd8	DL_test	25	ta	ka	1	right	ka	1	745
608bfa04767191aa4d57bfd8	DL_test	26	ga	ta	1	left	ga	1	1759
608bfa04767191aa4d57bfd8	DL_test	27	pa	da	1	right	da	1	1036
608bfa04767191aa4d57bfd8	DL_test	28	ka	pa	1	left	ka	1	2002
608bfa04767191aa4d57bfd8	DL_test	29	ta	da	1	right	da	1	1381
608bfa04767191aa4d57bfd8	DL_test	30	ba	ba	0	left	ba	1	1425
608bfa04767191aa4d57bfd8	DL_test	31	pa	pa	0	left	pa	1	1038
608bfa04767191aa4d57bfd8	DL_test	32	ga	ka	1	right	ka	1	858
608bfa04767191aa4d57bfd8	DL_test	33	pa	ka	1	right	ka	1	753
608bfa04767191aa4d57bfd8	DL_test	34	ta	ta	0	left	ta	1	1012
608bfa04767191aa4d57bfd8	DL_test	35	ka	ba	1	right	ba	1	1562
608bfa04767191aa4d57bfd8	DL_test	36	da	pa	1	right	pa	1	1809
608bfa04767191aa4d57bfd8	DL_test	1	ta	ta	0	left	ta	1	946
608bfa04767191aa4d57bfd8	DL_test	2	ba	ga	1	right	ga	1	911
608bfa04767191aa4d57bfd8	DL_test	3	ba	ka	1	right	ka	1	957
608bfa04767191aa4d57bfd8	DL_test	4	pa	pa	0	left	pa	1	963
608bfa04767191aa4d57bfd8	DL_test	5	ba	da	1	right	da	1	1058
608bfa04767191aa4d57bfd8	DL_test	6	ka	ta	1	left	ka	1	937
608bfa04767191aa4d57bfd8	DL_test	7	ga	ga	0	left	ga	1	857
608bfa04767191aa4d57bfd8	DL_test	8	pa	ba	1	left	pa	1	1190
608bfa04767191aa4d57bfd8	DL_test	9	da	ga	1	left	da	1	917
608bfa04767191aa4d57bfd8	DL_test	10	ga	pa	1	right	pa	1	1107
608bfa04767191aa4d57bfd8	DL_test	11	ba	pa	1	right	pa	1	895
608bfa04767191aa4d57bfd8	DL_test	12	ka	pa	1	left	ka	1	1091
608bfa04767191aa4d57bfd8	DL_test	13	ga	ka	1	right	ka	1	1926
608bfa04767191aa4d57bfd8	DL_test	14	ba	ba	0	left	ba	1	1137
608bfa04767191aa4d57bfd8	DL_test	15	ta	ga	1	left	ta	1	1440
608bfa04767191aa4d57bfd8	DL_test	16	ta	pa	1	right	pa	1	907
608bfa04767191aa4d57bfd8	DL_test	17	ka	da	1	left	ka	1	966
608bfa04767191aa4d57bfd8	DL_test	18	ga	ta	1	left	ga	1	2389
608bfa04767191aa4d57bfd8	DL_test	19	ga	ba	1	right	ba	1	1131
608bfa04767191aa4d57bfd8	DL_test	20	da	da	0	left	da	1	844
608bfa04767191aa4d57bfd8	DL_test	21	pa	ka	1	right	ka	1	1063
608bfa04767191aa4d57bfd8	DL_test	22	ta	ka	1	right	ka	1	1938
608bfa04767191aa4d57bfd8	DL_test	23	ta	da	1	right	da	1	966
608bfa04767191aa4d57bfd8	DL_test	24	ka	ka	0	left	ka	1	1085
608bfa04767191aa4d57bfd8	DL_test	25	ga	da	1	right	da	1	1004
608bfa04767191aa4d57bfd8	DL_test	26	ka	ba	1	left	ka	1	925
608bfa04767191aa4d57bfd8	DL_test	27	ka	ga	1	right	ga	1	1056
608bfa04767191aa4d57bfd8	DL_test	28	pa	da	1	left	pa	1	3006
608bfa04767191aa4d57bfd8	DL_test	29	da	ka	1	left	da	1	2969
608bfa04767191aa4d57bfd8	DL_test	30	da	ta	1	right	ta	1	1038
608bfa04767191aa4d57bfd8	DL_test	31	ba	ta	1	right	ta	1	1604
608bfa04767191aa4d57bfd8	DL_test	32	da	ba	1	left	da	1	997
608bfa04767191aa4d57bfd8	DL_test	33	pa	ta	1	right	ta	1	1624
608bfa04767191aa4d57bfd8	DL_test	34	da	pa	1	right	pa	1	1698
608bfa04767191aa4d57bfd8	DL_test	35	pa	ga	1	right	ga	1	1227
608bfa04767191aa4d57bfd8	DL_test	36	ta	ba	1	other	da	0	1645
