subject	block	trialnum	DL_leftSound	DL_rightSound	DL_dualSound	DL_choice	response	correct	rt
60cef7be32400c5dd5a5a10f	headphonecheck_testphase	3	NA	NA	0	NA	first	0	5525
60cef7be32400c5dd5a5a10f	headphonecheck_testphase	6	NA	NA	0	NA	third	0	1232
60cef7be32400c5dd5a5a10f	headphonecheck_testphase	9	NA	NA	0	NA	first	0	163
60cef7be32400c5dd5a5a10f	headphonecheck_testphase	12	NA	NA	0	NA	second	0	241
60cef7be32400c5dd5a5a10f	headphonecheck_testphase	15	NA	NA	0	NA	second	0	60
60cef7be32400c5dd5a5a10f	headphonecheck_testphase	18	NA	NA	0	NA	third	0	567
60cef7be32400c5dd5a5a10f	stereocheck_testphase	3	NA	NA	0	NA	stereocheck_left	1	6366
60cef7be32400c5dd5a5a10f	stereocheck_testphase	6	NA	NA	0	NA	stereocheck_left	1	109
60cef7be32400c5dd5a5a10f	stereocheck_testphase	9	NA	NA	0	NA	stereocheck_right	1	3098
60cef7be32400c5dd5a5a10f	stereocheck_testphase	12	NA	NA	0	NA	stereocheck_right	1	355
60cef7be32400c5dd5a5a10f	stereocheck_testphase	15	NA	NA	0	NA	stereocheck_right	1	442
60cef7be32400c5dd5a5a10f	stereocheck_testphase	18	NA	NA	0	NA	stereocheck_left	1	273
60cef7be32400c5dd5a5a10f	DL_practice	2	ba	ba	0	left	ba	1	1593
60cef7be32400c5dd5a5a10f	DL_practice	3	ka	ka	0	left	ka	1	1161
60cef7be32400c5dd5a5a10f	DL_practice	4	pa	pa	0	left	pa	1	2016
60cef7be32400c5dd5a5a10f	DL_practice	5	da	ba	1	right	ba	1	5382
60cef7be32400c5dd5a5a10f	DL_practice	6	ga	ga	0	left	ga	1	2139
60cef7be32400c5dd5a5a10f	DL_practice	7	ga	ta	1	left	ga	1	674
60cef7be32400c5dd5a5a10f	DL_practice	8	da	da	0	left	da	1	952
60cef7be32400c5dd5a5a10f	DL_practice	9	ta	ta	0	left	ta	1	1182
60cef7be32400c5dd5a5a10f	DL_practice	10	ka	pa	1	left	ka	1	1148
60cef7be32400c5dd5a5a10f	DL_test	1	ta	pa	1	left	ta	1	1471
60cef7be32400c5dd5a5a10f	DL_test	2	ba	da	1	left	ba	1	1039
60cef7be32400c5dd5a5a10f	DL_test	3	ga	pa	1	left	ga	1	1187
60cef7be32400c5dd5a5a10f	DL_test	4	ba	ga	1	left	ba	1	1509
60cef7be32400c5dd5a5a10f	DL_test	5	ga	da	1	left	ga	1	1088
60cef7be32400c5dd5a5a10f	DL_test	6	pa	ta	1	right	ta	1	1867
60cef7be32400c5dd5a5a10f	DL_test	7	pa	ba	1	right	ba	1	3676
60cef7be32400c5dd5a5a10f	DL_test	8	ba	pa	1	left	ba	1	1336
60cef7be32400c5dd5a5a10f	DL_test	9	ka	ka	0	left	ka	1	1366
60cef7be32400c5dd5a5a10f	DL_test	10	ba	ta	1	left	ba	1	1183
60cef7be32400c5dd5a5a10f	DL_test	11	ta	da	1	right	da	1	1150
60cef7be32400c5dd5a5a10f	DL_test	12	da	pa	1	left	da	1	860
60cef7be32400c5dd5a5a10f	DL_test	13	ka	ba	1	left	ka	1	1130
60cef7be32400c5dd5a5a10f	DL_test	14	ta	ka	1	right	ka	1	1123
60cef7be32400c5dd5a5a10f	DL_test	15	da	ka	1	left	da	1	1111
60cef7be32400c5dd5a5a10f	DL_test	16	ka	pa	1	left	ka	1	1008
60cef7be32400c5dd5a5a10f	DL_test	17	pa	da	1	right	da	1	944
60cef7be32400c5dd5a5a10f	DL_test	18	da	da	0	left	da	1	1310
60cef7be32400c5dd5a5a10f	DL_test	19	ba	ka	1	left	ba	1	1207
60cef7be32400c5dd5a5a10f	DL_test	20	pa	ga	1	right	ga	1	934
60cef7be32400c5dd5a5a10f	DL_test	21	ga	ta	1	left	ga	1	1145
60cef7be32400c5dd5a5a10f	DL_test	22	ga	ga	0	left	ga	1	673
60cef7be32400c5dd5a5a10f	DL_test	23	ga	ba	1	right	ba	1	1311
60cef7be32400c5dd5a5a10f	DL_test	24	da	ga	1	right	ga	1	1969
60cef7be32400c5dd5a5a10f	DL_test	25	ba	ba	0	left	ba	1	2059
60cef7be32400c5dd5a5a10f	DL_test	26	ta	ba	1	left	ta	1	1772
60cef7be32400c5dd5a5a10f	DL_test	27	pa	ka	1	right	ka	1	1277
60cef7be32400c5dd5a5a10f	DL_test	28	ka	ta	1	left	ka	1	1330
60cef7be32400c5dd5a5a10f	DL_test	29	ka	ga	1	right	ga	1	1042
60cef7be32400c5dd5a5a10f	DL_test	30	ta	ga	1	right	ga	1	685
60cef7be32400c5dd5a5a10f	DL_test	31	ga	ka	1	left	ga	1	614
60cef7be32400c5dd5a5a10f	DL_test	32	ta	ta	0	left	ta	1	1678
60cef7be32400c5dd5a5a10f	DL_test	33	pa	pa	0	left	pa	1	1389
60cef7be32400c5dd5a5a10f	DL_test	34	ka	da	1	other	ga	0	947
60cef7be32400c5dd5a5a10f	DL_test	35	da	ba	1	left	da	1	1816
60cef7be32400c5dd5a5a10f	DL_test	36	da	ta	1	left	da	1	621
60cef7be32400c5dd5a5a10f	DL_test	1	pa	ka	1	right	ka	1	1613
60cef7be32400c5dd5a5a10f	DL_test	2	da	da	0	left	da	1	1521
60cef7be32400c5dd5a5a10f	DL_test	3	ba	ga	1	right	ga	1	1234
60cef7be32400c5dd5a5a10f	DL_test	4	ga	ba	1	left	ga	1	774
60cef7be32400c5dd5a5a10f	DL_test	5	da	pa	1	left	da	1	930
60cef7be32400c5dd5a5a10f	DL_test	6	pa	ba	1	left	pa	1	1409
60cef7be32400c5dd5a5a10f	DL_test	7	da	ba	1	left	da	1	1272
60cef7be32400c5dd5a5a10f	DL_test	8	ka	ba	1	left	ka	1	1094
60cef7be32400c5dd5a5a10f	DL_test	9	pa	ta	1	right	ta	1	1289
60cef7be32400c5dd5a5a10f	DL_test	10	ba	ba	0	left	ba	1	1649
60cef7be32400c5dd5a5a10f	DL_test	11	ta	pa	1	left	ta	1	1374
60cef7be32400c5dd5a5a10f	DL_test	12	ta	ba	1	left	ta	1	691
60cef7be32400c5dd5a5a10f	DL_test	13	ka	ka	0	left	ka	1	968
60cef7be32400c5dd5a5a10f	DL_test	14	ga	ga	0	left	ga	1	911
60cef7be32400c5dd5a5a10f	DL_test	15	ta	ta	0	left	ta	1	1201
60cef7be32400c5dd5a5a10f	DL_test	16	ka	da	1	other	ga	0	1136
60cef7be32400c5dd5a5a10f	DL_test	17	ga	ta	1	left	ga	1	860
60cef7be32400c5dd5a5a10f	DL_test	18	ta	ka	1	other	ga	0	510
60cef7be32400c5dd5a5a10f	DL_test	19	ka	pa	1	left	ka	1	1011
60cef7be32400c5dd5a5a10f	DL_test	20	ta	da	1	right	da	1	1168
60cef7be32400c5dd5a5a10f	DL_test	21	da	ta	1	left	da	1	531
60cef7be32400c5dd5a5a10f	DL_test	22	da	ka	1	left	da	1	547
60cef7be32400c5dd5a5a10f	DL_test	23	pa	ga	1	right	ga	1	1115
60cef7be32400c5dd5a5a10f	DL_test	24	ba	da	1	left	ba	1	1364
60cef7be32400c5dd5a5a10f	DL_test	25	ta	ga	1	right	ga	1	1027
60cef7be32400c5dd5a5a10f	DL_test	26	ga	pa	1	left	ga	1	708
60cef7be32400c5dd5a5a10f	DL_test	27	ka	ga	1	right	ga	1	553
60cef7be32400c5dd5a5a10f	DL_test	28	pa	pa	0	left	pa	1	1543
60cef7be32400c5dd5a5a10f	DL_test	29	pa	da	1	right	da	1	1418
60cef7be32400c5dd5a5a10f	DL_test	30	ba	pa	1	left	ba	1	1282
60cef7be32400c5dd5a5a10f	DL_test	31	ga	da	1	left	ga	1	1194
60cef7be32400c5dd5a5a10f	DL_test	32	da	ga	1	right	ga	1	513
60cef7be32400c5dd5a5a10f	DL_test	33	ba	ka	1	right	ka	1	1302
60cef7be32400c5dd5a5a10f	DL_test	34	ka	ta	1	left	ka	1	550
60cef7be32400c5dd5a5a10f	DL_test	35	ga	ka	1	left	ga	1	911
60cef7be32400c5dd5a5a10f	DL_test	36	ba	ta	1	left	ba	1	1308
60cef7be32400c5dd5a5a10f	DL_test	1	ka	ba	1	left	ka	1	1103
60cef7be32400c5dd5a5a10f	DL_test	2	pa	ka	1	right	ka	1	2131
60cef7be32400c5dd5a5a10f	DL_test	3	ga	ka	1	left	ga	1	990
60cef7be32400c5dd5a5a10f	DL_test	4	ba	da	1	left	ba	1	1355
60cef7be32400c5dd5a5a10f	DL_test	5	ba	ga	1	right	ga	1	1277
60cef7be32400c5dd5a5a10f	DL_test	6	ta	ba	1	left	ta	1	1817
60cef7be32400c5dd5a5a10f	DL_test	7	ga	pa	1	left	ga	1	913
60cef7be32400c5dd5a5a10f	DL_test	8	ta	pa	1	left	ta	1	1259
60cef7be32400c5dd5a5a10f	DL_test	9	ka	da	1	other	ga	0	1178
60cef7be32400c5dd5a5a10f	DL_test	10	ka	pa	1	left	ka	1	946
60cef7be32400c5dd5a5a10f	DL_test	11	ga	ta	1	left	ga	1	1554
60cef7be32400c5dd5a5a10f	DL_test	12	ga	ga	0	left	ga	1	470
60cef7be32400c5dd5a5a10f	DL_test	13	ba	ka	1	right	ka	1	990
60cef7be32400c5dd5a5a10f	DL_test	14	da	da	0	left	da	1	966
60cef7be32400c5dd5a5a10f	DL_test	15	ka	ta	1	left	ka	1	977
60cef7be32400c5dd5a5a10f	DL_test	16	ka	ga	1	right	ga	1	771
60cef7be32400c5dd5a5a10f	DL_test	17	ga	ba	1	left	ga	1	589
60cef7be32400c5dd5a5a10f	DL_test	18	da	pa	1	left	da	1	801
60cef7be32400c5dd5a5a10f	DL_test	19	ta	ga	1	right	ga	1	805
60cef7be32400c5dd5a5a10f	DL_test	20	ta	ka	1	right	ka	1	855
60cef7be32400c5dd5a5a10f	DL_test	21	pa	ba	1	left	pa	1	1461
60cef7be32400c5dd5a5a10f	DL_test	22	ka	ka	0	left	ka	1	1303
60cef7be32400c5dd5a5a10f	DL_test	23	pa	pa	0	left	pa	1	1577
60cef7be32400c5dd5a5a10f	DL_test	24	pa	ta	1	right	ta	1	1281
60cef7be32400c5dd5a5a10f	DL_test	25	da	ga	1	left	da	1	1057
60cef7be32400c5dd5a5a10f	DL_test	26	pa	ga	1	right	ga	1	817
60cef7be32400c5dd5a5a10f	DL_test	27	ta	ta	0	left	ta	1	1266
60cef7be32400c5dd5a5a10f	DL_test	28	da	ba	1	left	da	1	894
60cef7be32400c5dd5a5a10f	DL_test	29	ba	pa	1	left	ba	1	946
60cef7be32400c5dd5a5a10f	DL_test	30	pa	da	1	right	da	1	1794
60cef7be32400c5dd5a5a10f	DL_test	31	ba	ta	1	right	ta	1	1271
60cef7be32400c5dd5a5a10f	DL_test	32	da	ta	1	left	da	1	1206
60cef7be32400c5dd5a5a10f	DL_test	33	ta	da	1	right	da	1	1172
60cef7be32400c5dd5a5a10f	DL_test	34	ba	ba	0	left	ba	1	1463
60cef7be32400c5dd5a5a10f	DL_test	35	ga	da	1	left	ga	1	960
60cef7be32400c5dd5a5a10f	DL_test	36	da	ka	1	left	da	1	920
60cef7be32400c5dd5a5a10f	DL_test	1	pa	ta	1	right	ta	1	1142
60cef7be32400c5dd5a5a10f	DL_test	2	ba	ka	1	right	ka	1	1112
60cef7be32400c5dd5a5a10f	DL_test	3	ka	da	1	other	ga	0	1105
60cef7be32400c5dd5a5a10f	DL_test	4	da	ba	1	left	da	1	722
60cef7be32400c5dd5a5a10f	DL_test	5	da	da	0	left	da	1	788
60cef7be32400c5dd5a5a10f	DL_test	6	da	ka	1	left	da	1	547
60cef7be32400c5dd5a5a10f	DL_test	7	ga	ba	1	left	ga	1	970
60cef7be32400c5dd5a5a10f	DL_test	8	ka	ka	0	other	ga	0	224
60cef7be32400c5dd5a5a10f	DL_test	9	pa	pa	0	other	ka	0	4
60cef7be32400c5dd5a5a10f	DL_test	10	ba	ga	1	right	ga	1	1108
60cef7be32400c5dd5a5a10f	DL_test	11	ba	ba	0	left	ba	1	1728
60cef7be32400c5dd5a5a10f	DL_test	12	pa	ba	1	left	pa	1	1207
60cef7be32400c5dd5a5a10f	DL_test	13	ka	ga	1	right	ga	1	1100
60cef7be32400c5dd5a5a10f	DL_test	14	ta	ba	1	left	ta	1	1142
60cef7be32400c5dd5a5a10f	DL_test	15	ga	da	1	left	ga	1	1588
60cef7be32400c5dd5a5a10f	DL_test	16	ga	ga	0	left	ga	1	604
60cef7be32400c5dd5a5a10f	DL_test	17	pa	da	1	right	da	1	851
60cef7be32400c5dd5a5a10f	DL_test	18	ka	ta	1	left	ka	1	1276
60cef7be32400c5dd5a5a10f	DL_test	19	pa	ka	1	right	ka	1	1126
60cef7be32400c5dd5a5a10f	DL_test	20	ba	da	1	other	ka	0	3636
60cef7be32400c5dd5a5a10f	DL_test	21	ga	ta	1	left	ga	1	1053
60cef7be32400c5dd5a5a10f	DL_test	22	da	pa	1	left	da	1	1220
60cef7be32400c5dd5a5a10f	DL_test	23	ta	ka	1	right	ka	1	2538
60cef7be32400c5dd5a5a10f	DL_test	24	ga	pa	1	left	ga	1	939
60cef7be32400c5dd5a5a10f	DL_test	25	ga	ka	1	left	ga	1	562
60cef7be32400c5dd5a5a10f	DL_test	26	pa	ga	1	right	ga	1	770
60cef7be32400c5dd5a5a10f	DL_test	27	ta	da	1	right	da	1	2509
60cef7be32400c5dd5a5a10f	DL_test	28	da	ta	1	left	da	1	947
60cef7be32400c5dd5a5a10f	DL_test	29	ka	pa	1	left	ka	1	1297
60cef7be32400c5dd5a5a10f	DL_test	30	ba	pa	1	left	ba	1	1162
60cef7be32400c5dd5a5a10f	DL_test	31	ta	ga	1	right	ga	1	860
60cef7be32400c5dd5a5a10f	DL_test	32	ba	ta	1	right	ta	1	1066
60cef7be32400c5dd5a5a10f	DL_test	33	da	ga	1	left	da	1	931
60cef7be32400c5dd5a5a10f	DL_test	34	ta	ta	0	left	ta	1	1174
60cef7be32400c5dd5a5a10f	DL_test	35	ka	ba	1	left	ka	1	1077
60cef7be32400c5dd5a5a10f	DL_test	36	ta	pa	1	left	ta	1	1607
