subject	block	trialnum	DL_leftSound	DL_rightSound	DL_dualSound	DL_choice	response	correct	rt
6105f0d0cbe5d053ff7ecade	headphonecheck_testphase	3	NA	NA	0	NA	first	0	9726
6105f0d0cbe5d053ff7ecade	headphonecheck_testphase	6	NA	NA	0	NA	first	0	2416
6105f0d0cbe5d053ff7ecade	headphonecheck_testphase	9	NA	NA	0	NA	second	0	2155
6105f0d0cbe5d053ff7ecade	headphonecheck_testphase	12	NA	NA	0	NA	first	1	1152
6105f0d0cbe5d053ff7ecade	headphonecheck_testphase	15	NA	NA	0	NA	second	0	880
6105f0d0cbe5d053ff7ecade	headphonecheck_testphase	18	NA	NA	0	NA	first	0	988
6105f0d0cbe5d053ff7ecade	stereocheck_testphase	3	NA	NA	0	NA	stereocheck_left	1	838
6105f0d0cbe5d053ff7ecade	stereocheck_testphase	6	NA	NA	0	NA	stereocheck_left	1	961
6105f0d0cbe5d053ff7ecade	stereocheck_testphase	9	NA	NA	0	NA	stereocheck_left	1	1070
6105f0d0cbe5d053ff7ecade	stereocheck_testphase	12	NA	NA	0	NA	stereocheck_right	1	1201
6105f0d0cbe5d053ff7ecade	stereocheck_testphase	15	NA	NA	0	NA	stereocheck_right	1	2062
6105f0d0cbe5d053ff7ecade	stereocheck_testphase	18	NA	NA	0	NA	stereocheck_right	1	1672
6105f0d0cbe5d053ff7ecade	DL_practice	2	da	da	0	left	da	1	3233
6105f0d0cbe5d053ff7ecade	DL_practice	3	ka	pa	1	other	ta	0	4301
6105f0d0cbe5d053ff7ecade	DL_practice	4	ga	ga	0	other	da	0	2237
6105f0d0cbe5d053ff7ecade	DL_practice	5	ga	ta	1	right	ta	1	3665
6105f0d0cbe5d053ff7ecade	DL_practice	6	da	ba	1	left	da	1	3009
6105f0d0cbe5d053ff7ecade	DL_practice	7	ta	ta	0	left	ta	1	2711
6105f0d0cbe5d053ff7ecade	DL_practice	8	ba	ba	0	left	ba	1	3717
6105f0d0cbe5d053ff7ecade	DL_practice	9	ka	ka	0	left	ka	1	1666
6105f0d0cbe5d053ff7ecade	DL_practice	10	pa	pa	0	left	pa	1	1326
6105f0d0cbe5d053ff7ecade	DL_test	1	ta	ka	1	left	ta	1	1724
6105f0d0cbe5d053ff7ecade	DL_test	2	da	ta	1	right	ta	1	1187
6105f0d0cbe5d053ff7ecade	DL_test	3	pa	ga	1	left	pa	1	1739
6105f0d0cbe5d053ff7ecade	DL_test	4	pa	ba	1	left	pa	1	1104
6105f0d0cbe5d053ff7ecade	DL_test	5	pa	da	1	left	pa	1	1232
6105f0d0cbe5d053ff7ecade	DL_test	6	ta	da	1	left	ta	1	1353
6105f0d0cbe5d053ff7ecade	DL_test	7	ba	ba	0	left	ba	1	1772
6105f0d0cbe5d053ff7ecade	DL_test	8	ka	ba	1	left	ka	1	1968
6105f0d0cbe5d053ff7ecade	DL_test	9	ta	ta	0	left	ta	1	1300
6105f0d0cbe5d053ff7ecade	DL_test	10	da	ga	1	left	da	1	1521
6105f0d0cbe5d053ff7ecade	DL_test	11	ga	da	1	right	da	1	1454
6105f0d0cbe5d053ff7ecade	DL_test	12	pa	ka	1	left	pa	1	1744
6105f0d0cbe5d053ff7ecade	DL_test	13	ga	ka	1	right	ka	1	1374
6105f0d0cbe5d053ff7ecade	DL_test	14	ta	ba	1	other	pa	0	2328
6105f0d0cbe5d053ff7ecade	DL_test	15	ga	ba	1	other	da	0	1461
6105f0d0cbe5d053ff7ecade	DL_test	16	ka	ta	1	right	ta	1	1537
6105f0d0cbe5d053ff7ecade	DL_test	17	ba	da	1	right	da	1	1409
6105f0d0cbe5d053ff7ecade	DL_test	18	ba	ta	1	right	ta	1	1467
6105f0d0cbe5d053ff7ecade	DL_test	19	pa	pa	0	left	pa	1	1446
6105f0d0cbe5d053ff7ecade	DL_test	20	ka	ka	0	left	ka	1	1206
6105f0d0cbe5d053ff7ecade	DL_test	21	ba	ka	1	right	ka	1	1331
6105f0d0cbe5d053ff7ecade	DL_test	22	pa	ta	1	left	pa	1	1393
6105f0d0cbe5d053ff7ecade	DL_test	23	ka	pa	1	right	pa	1	1761
6105f0d0cbe5d053ff7ecade	DL_test	24	da	pa	1	right	pa	1	1169
6105f0d0cbe5d053ff7ecade	DL_test	25	ga	pa	1	right	pa	1	2601
6105f0d0cbe5d053ff7ecade	DL_test	26	ga	ta	1	right	ta	1	1167
6105f0d0cbe5d053ff7ecade	DL_test	27	da	da	0	left	da	1	1805
6105f0d0cbe5d053ff7ecade	DL_test	28	ba	ga	1	other	da	0	1303
6105f0d0cbe5d053ff7ecade	DL_test	29	ga	ga	0	left	ga	1	1081
6105f0d0cbe5d053ff7ecade	DL_test	30	da	ka	1	other	pa	0	1821
6105f0d0cbe5d053ff7ecade	DL_test	31	ta	ga	1	left	ta	1	1432
6105f0d0cbe5d053ff7ecade	DL_test	32	da	ba	1	left	da	1	1520
6105f0d0cbe5d053ff7ecade	DL_test	33	ka	da	1	left	ka	1	1569
6105f0d0cbe5d053ff7ecade	DL_test	34	ka	ga	1	left	ka	1	1501
6105f0d0cbe5d053ff7ecade	DL_test	35	ba	pa	1	right	pa	1	1617
6105f0d0cbe5d053ff7ecade	DL_test	36	ta	pa	1	right	pa	1	3009
6105f0d0cbe5d053ff7ecade	DL_test	1	ta	ba	1	left	ta	1	2073
6105f0d0cbe5d053ff7ecade	DL_test	2	da	ba	1	left	da	1	1708
6105f0d0cbe5d053ff7ecade	DL_test	3	ka	ka	0	left	ka	1	1278
6105f0d0cbe5d053ff7ecade	DL_test	4	ba	pa	1	right	pa	1	1811
6105f0d0cbe5d053ff7ecade	DL_test	5	ka	da	1	other	pa	0	3502
6105f0d0cbe5d053ff7ecade	DL_test	6	ba	ga	1	other	da	0	1600
6105f0d0cbe5d053ff7ecade	DL_test	7	ga	ta	1	right	ta	1	1325
6105f0d0cbe5d053ff7ecade	DL_test	8	ga	ga	0	other	da	0	1423
6105f0d0cbe5d053ff7ecade	DL_test	9	da	ka	1	left	da	1	2253
6105f0d0cbe5d053ff7ecade	DL_test	10	pa	ba	1	left	pa	1	1696
6105f0d0cbe5d053ff7ecade	DL_test	11	pa	pa	0	left	pa	1	1421
6105f0d0cbe5d053ff7ecade	DL_test	12	da	da	0	left	da	1	1368
6105f0d0cbe5d053ff7ecade	DL_test	13	ka	ga	1	left	ka	1	1251
6105f0d0cbe5d053ff7ecade	DL_test	14	ta	da	1	left	ta	1	1679
6105f0d0cbe5d053ff7ecade	DL_test	15	pa	da	1	left	pa	1	1455
6105f0d0cbe5d053ff7ecade	DL_test	16	da	ga	1	left	da	1	1426
6105f0d0cbe5d053ff7ecade	DL_test	17	ba	ta	1	right	ta	1	2164
6105f0d0cbe5d053ff7ecade	DL_test	18	ta	ka	1	left	ta	1	1428
6105f0d0cbe5d053ff7ecade	DL_test	19	ga	da	1	right	da	1	1259
6105f0d0cbe5d053ff7ecade	DL_test	20	ka	pa	1	other	ta	0	3074
6105f0d0cbe5d053ff7ecade	DL_test	21	ba	ba	0	left	ba	1	1625
6105f0d0cbe5d053ff7ecade	DL_test	22	pa	ta	1	left	pa	1	1564
6105f0d0cbe5d053ff7ecade	DL_test	23	ta	pa	1	left	ta	1	1393
6105f0d0cbe5d053ff7ecade	DL_test	24	ta	ta	0	left	ta	1	1447
6105f0d0cbe5d053ff7ecade	DL_test	25	ga	pa	1	right	pa	1	2250
6105f0d0cbe5d053ff7ecade	DL_test	26	ta	ga	1	left	ta	1	2436
6105f0d0cbe5d053ff7ecade	DL_test	27	ka	ba	1	left	ka	1	1483
6105f0d0cbe5d053ff7ecade	DL_test	28	pa	ga	1	left	pa	1	1430
6105f0d0cbe5d053ff7ecade	DL_test	29	ka	ta	1	right	ta	1	1312
6105f0d0cbe5d053ff7ecade	DL_test	30	ga	ka	1	right	ka	1	1825
6105f0d0cbe5d053ff7ecade	DL_test	31	ga	ba	1	other	da	0	1380
6105f0d0cbe5d053ff7ecade	DL_test	32	da	ta	1	right	ta	1	2853
6105f0d0cbe5d053ff7ecade	DL_test	33	ba	da	1	right	da	1	1709
6105f0d0cbe5d053ff7ecade	DL_test	34	pa	ka	1	left	pa	1	1473
6105f0d0cbe5d053ff7ecade	DL_test	35	da	pa	1	right	pa	1	1462
6105f0d0cbe5d053ff7ecade	DL_test	36	ba	ka	1	right	ka	1	2189
6105f0d0cbe5d053ff7ecade	DL_test	1	ba	ga	1	other	da	0	1559
6105f0d0cbe5d053ff7ecade	DL_test	2	ta	da	1	left	ta	1	1666
6105f0d0cbe5d053ff7ecade	DL_test	3	da	ba	1	left	da	1	1532
6105f0d0cbe5d053ff7ecade	DL_test	4	ta	ka	1	left	ta	1	1609
6105f0d0cbe5d053ff7ecade	DL_test	5	da	pa	1	other	ta	0	2238
6105f0d0cbe5d053ff7ecade	DL_test	6	ka	da	1	left	ka	1	1370
6105f0d0cbe5d053ff7ecade	DL_test	7	ba	ba	0	left	ba	1	1989
6105f0d0cbe5d053ff7ecade	DL_test	8	ga	pa	1	right	pa	1	2359
6105f0d0cbe5d053ff7ecade	DL_test	9	ka	ga	1	left	ka	1	1276
6105f0d0cbe5d053ff7ecade	DL_test	10	pa	ba	1	left	pa	1	2527
6105f0d0cbe5d053ff7ecade	DL_test	11	ga	ba	1	other	da	0	1473
6105f0d0cbe5d053ff7ecade	DL_test	12	pa	ga	1	left	pa	1	1686
6105f0d0cbe5d053ff7ecade	DL_test	13	ba	pa	1	right	pa	1	1427
6105f0d0cbe5d053ff7ecade	DL_test	14	pa	da	1	left	pa	1	1444
6105f0d0cbe5d053ff7ecade	DL_test	15	ka	pa	1	right	pa	1	1416
6105f0d0cbe5d053ff7ecade	DL_test	16	da	ta	1	right	ta	1	2247
6105f0d0cbe5d053ff7ecade	DL_test	17	ka	ta	1	right	ta	1	1225
6105f0d0cbe5d053ff7ecade	DL_test	18	ka	ka	0	left	ka	1	1287
6105f0d0cbe5d053ff7ecade	DL_test	19	ba	ka	1	right	ka	1	1371
6105f0d0cbe5d053ff7ecade	DL_test	20	ga	da	1	right	da	1	1351
6105f0d0cbe5d053ff7ecade	DL_test	21	pa	ta	1	left	pa	1	3086
6105f0d0cbe5d053ff7ecade	DL_test	22	pa	pa	0	left	pa	1	1393
6105f0d0cbe5d053ff7ecade	DL_test	23	ga	ka	1	right	ka	1	1483
6105f0d0cbe5d053ff7ecade	DL_test	24	da	ga	1	left	da	1	1549
6105f0d0cbe5d053ff7ecade	DL_test	25	ga	ta	1	right	ta	1	2618
6105f0d0cbe5d053ff7ecade	DL_test	26	ta	ga	1	left	ta	1	1839
6105f0d0cbe5d053ff7ecade	DL_test	27	ga	ga	0	other	da	0	1667
6105f0d0cbe5d053ff7ecade	DL_test	28	ba	da	1	right	da	1	1545
6105f0d0cbe5d053ff7ecade	DL_test	29	ba	ta	1	other	pa	0	1927
6105f0d0cbe5d053ff7ecade	DL_test	30	ta	pa	1	left	ta	1	1624
6105f0d0cbe5d053ff7ecade	DL_test	31	ta	ta	0	left	ta	1	1220
6105f0d0cbe5d053ff7ecade	DL_test	32	pa	ka	1	left	pa	1	1388
6105f0d0cbe5d053ff7ecade	DL_test	33	da	da	0	left	da	1	1508
6105f0d0cbe5d053ff7ecade	DL_test	34	ta	ba	1	other	da	0	2111
6105f0d0cbe5d053ff7ecade	DL_test	35	da	ka	1	left	da	1	1293
6105f0d0cbe5d053ff7ecade	DL_test	36	ka	ba	1	left	ka	1	1409
6105f0d0cbe5d053ff7ecade	DL_test	1	ba	ka	1	right	ka	1	1569
6105f0d0cbe5d053ff7ecade	DL_test	2	ka	pa	1	left	ka	1	2168
6105f0d0cbe5d053ff7ecade	DL_test	3	da	ta	1	right	ta	1	2015
6105f0d0cbe5d053ff7ecade	DL_test	4	ta	ta	0	left	ta	1	1278
6105f0d0cbe5d053ff7ecade	DL_test	5	ka	ta	1	right	ta	1	1000
6105f0d0cbe5d053ff7ecade	DL_test	6	da	ka	1	other	pa	0	1260
6105f0d0cbe5d053ff7ecade	DL_test	7	ta	da	1	right	da	1	1691
6105f0d0cbe5d053ff7ecade	DL_test	8	ta	ga	1	left	ta	1	1880
6105f0d0cbe5d053ff7ecade	DL_test	9	pa	pa	0	left	pa	1	1365
6105f0d0cbe5d053ff7ecade	DL_test	10	ta	ka	1	left	ta	1	2163
6105f0d0cbe5d053ff7ecade	DL_test	11	da	pa	1	left	da	1	1799
6105f0d0cbe5d053ff7ecade	DL_test	12	da	ba	1	left	da	1	1236
6105f0d0cbe5d053ff7ecade	DL_test	13	pa	ba	1	left	pa	1	1529
6105f0d0cbe5d053ff7ecade	DL_test	14	pa	da	1	left	pa	1	1344
6105f0d0cbe5d053ff7ecade	DL_test	15	ba	ga	1	other	da	0	1477
6105f0d0cbe5d053ff7ecade	DL_test	16	ga	pa	1	right	pa	1	1471
6105f0d0cbe5d053ff7ecade	DL_test	17	pa	ga	1	other	da	0	1990
6105f0d0cbe5d053ff7ecade	DL_test	18	ga	ba	1	other	da	0	2039
6105f0d0cbe5d053ff7ecade	DL_test	19	da	da	0	left	da	1	1249
6105f0d0cbe5d053ff7ecade	DL_test	20	ga	ta	1	other	da	0	1770
6105f0d0cbe5d053ff7ecade	DL_test	21	ta	pa	1	left	ta	1	2200
6105f0d0cbe5d053ff7ecade	DL_test	22	ba	ta	1	right	ta	1	1069
6105f0d0cbe5d053ff7ecade	DL_test	23	ta	ba	1	left	ta	1	1033
6105f0d0cbe5d053ff7ecade	DL_test	24	ba	da	1	right	da	1	1410
6105f0d0cbe5d053ff7ecade	DL_test	25	pa	ka	1	right	ka	1	1735
6105f0d0cbe5d053ff7ecade	DL_test	26	ka	ba	1	right	ba	1	2046
6105f0d0cbe5d053ff7ecade	DL_test	27	ga	ga	0	other	da	0	1476
6105f0d0cbe5d053ff7ecade	DL_test	28	ka	ga	1	left	ka	1	1765
6105f0d0cbe5d053ff7ecade	DL_test	29	ba	pa	1	right	pa	1	1691
6105f0d0cbe5d053ff7ecade	DL_test	30	ba	ba	0	left	ba	1	1714
6105f0d0cbe5d053ff7ecade	DL_test	31	da	ga	1	left	da	1	1385
6105f0d0cbe5d053ff7ecade	DL_test	32	ka	ka	0	left	ka	1	2404
6105f0d0cbe5d053ff7ecade	DL_test	33	ka	da	1	left	ka	1	2200
6105f0d0cbe5d053ff7ecade	DL_test	34	ga	da	1	right	da	1	1440
6105f0d0cbe5d053ff7ecade	DL_test	35	ga	ka	1	right	ka	1	2575
6105f0d0cbe5d053ff7ecade	DL_test	36	pa	ta	1	left	pa	1	1977
