subject	block	trialnum	DL_leftSound	DL_rightSound	DL_dualSound	DL_choice	response	correct	rt
61084dbab48ab21fce452554	headphonecheck_testphase	3	NA	NA	0	NA	third	0	3415
61084dbab48ab21fce452554	headphonecheck_testphase	6	NA	NA	0	NA	third	1	21140
61084dbab48ab21fce452554	headphonecheck_testphase	9	NA	NA	0	NA	third	1	6043
61084dbab48ab21fce452554	headphonecheck_testphase	12	NA	NA	0	NA	second	1	99
61084dbab48ab21fce452554	headphonecheck_testphase	15	NA	NA	0	NA	second	1	547
61084dbab48ab21fce452554	headphonecheck_testphase	18	NA	NA	0	NA	first	1	139
61084dbab48ab21fce452554	stereocheck_testphase	3	NA	NA	0	NA	stereocheck_left	1	467
61084dbab48ab21fce452554	stereocheck_testphase	6	NA	NA	0	NA	stereocheck_right	1	312
61084dbab48ab21fce452554	stereocheck_testphase	9	NA	NA	0	NA	stereocheck_right	1	205
61084dbab48ab21fce452554	stereocheck_testphase	12	NA	NA	0	NA	stereocheck_left	1	204
61084dbab48ab21fce452554	stereocheck_testphase	15	NA	NA	0	NA	stereocheck_right	1	213
61084dbab48ab21fce452554	stereocheck_testphase	18	NA	NA	0	NA	stereocheck_left	1	223
61084dbab48ab21fce452554	DL_practice	2	ga	ta	1	left	ga	1	3501
61084dbab48ab21fce452554	DL_practice	3	pa	pa	0	left	pa	1	944
61084dbab48ab21fce452554	DL_practice	4	ka	pa	1	other	ga	0	3219
61084dbab48ab21fce452554	DL_practice	5	ka	ka	0	left	ka	1	2309
61084dbab48ab21fce452554	DL_practice	6	ta	ta	0	other	ka	0	778
61084dbab48ab21fce452554	DL_practice	7	ba	ba	0	left	ba	1	1176
61084dbab48ab21fce452554	DL_practice	8	da	da	0	left	da	1	917
61084dbab48ab21fce452554	DL_practice	9	da	ba	1	left	da	1	830
61084dbab48ab21fce452554	DL_practice	10	ga	ga	0	left	ga	1	920
61084dbab48ab21fce452554	DL_test	1	ta	pa	1	other	ka	0	1097
61084dbab48ab21fce452554	DL_test	2	ba	ga	1	right	ga	1	1100
61084dbab48ab21fce452554	DL_test	3	ba	ta	1	other	ka	0	1168
61084dbab48ab21fce452554	DL_test	4	ga	pa	1	right	pa	1	1800
61084dbab48ab21fce452554	DL_test	5	ga	da	1	right	da	1	1095
61084dbab48ab21fce452554	DL_test	6	da	da	0	left	da	1	674
61084dbab48ab21fce452554	DL_test	7	ba	pa	1	right	pa	1	1000
61084dbab48ab21fce452554	DL_test	8	ka	pa	1	left	ka	1	1102
61084dbab48ab21fce452554	DL_test	9	pa	ba	1	right	ba	1	1570
61084dbab48ab21fce452554	DL_test	10	da	pa	1	other	ka	0	1190
61084dbab48ab21fce452554	DL_test	11	ka	da	1	other	ga	0	1252
61084dbab48ab21fce452554	DL_test	12	ka	ba	1	left	ka	1	1248
61084dbab48ab21fce452554	DL_test	13	ba	ba	0	left	ba	1	1231
61084dbab48ab21fce452554	DL_test	14	da	ga	1	right	ga	1	1165
61084dbab48ab21fce452554	DL_test	15	da	ba	1	left	da	1	914
61084dbab48ab21fce452554	DL_test	16	da	ka	1	left	da	1	1384
61084dbab48ab21fce452554	DL_test	17	da	ta	1	other	ka	0	1965
61084dbab48ab21fce452554	DL_test	18	pa	da	1	right	da	1	1036
61084dbab48ab21fce452554	DL_test	19	ka	ga	1	left	ka	1	1140
61084dbab48ab21fce452554	DL_test	20	ta	ga	1	right	ga	1	742
61084dbab48ab21fce452554	DL_test	21	ba	ka	1	right	ka	1	1037
61084dbab48ab21fce452554	DL_test	22	pa	ga	1	right	ga	1	753
61084dbab48ab21fce452554	DL_test	23	pa	ta	1	other	ka	0	815
61084dbab48ab21fce452554	DL_test	24	ta	ka	1	right	ka	1	716
61084dbab48ab21fce452554	DL_test	25	pa	pa	0	left	pa	1	1441
61084dbab48ab21fce452554	DL_test	26	ta	da	1	other	ga	0	879
61084dbab48ab21fce452554	DL_test	27	ga	ka	1	right	ka	1	589
61084dbab48ab21fce452554	DL_test	28	ta	ta	0	left	ta	1	1057
61084dbab48ab21fce452554	DL_test	29	ga	ta	1	left	ga	1	1178
61084dbab48ab21fce452554	DL_test	30	ka	ka	0	left	ka	1	942
61084dbab48ab21fce452554	DL_test	31	ka	ta	1	left	ka	1	919
61084dbab48ab21fce452554	DL_test	32	pa	ka	1	right	ka	1	764
61084dbab48ab21fce452554	DL_test	33	ta	ba	1	other	pa	0	908
61084dbab48ab21fce452554	DL_test	34	ga	ga	0	left	ga	1	843
61084dbab48ab21fce452554	DL_test	35	ga	ba	1	right	ba	1	1698
61084dbab48ab21fce452554	DL_test	36	ba	da	1	right	da	1	696
61084dbab48ab21fce452554	DL_test	1	ba	pa	1	right	pa	1	1932
61084dbab48ab21fce452554	DL_test	2	da	da	0	left	da	1	979
61084dbab48ab21fce452554	DL_test	3	ka	ka	0	left	ka	1	789
61084dbab48ab21fce452554	DL_test	4	pa	pa	0	left	pa	1	891
61084dbab48ab21fce452554	DL_test	5	ta	ka	1	right	ka	1	804
61084dbab48ab21fce452554	DL_test	6	da	ta	1	other	ka	0	754
61084dbab48ab21fce452554	DL_test	7	pa	da	1	right	da	1	1215
61084dbab48ab21fce452554	DL_test	8	ka	pa	1	left	ka	1	1168
61084dbab48ab21fce452554	DL_test	9	ga	ga	0	left	ga	1	856
61084dbab48ab21fce452554	DL_test	10	ta	ga	1	right	ga	1	602
61084dbab48ab21fce452554	DL_test	11	ka	ta	1	left	ka	1	1122
61084dbab48ab21fce452554	DL_test	12	ga	pa	1	right	pa	1	856
61084dbab48ab21fce452554	DL_test	13	pa	ba	1	right	ba	1	1188
61084dbab48ab21fce452554	DL_test	14	ba	ba	0	left	ba	1	533
61084dbab48ab21fce452554	DL_test	15	ba	ga	1	right	ga	1	1072
61084dbab48ab21fce452554	DL_test	16	da	ka	1	other	pa	0	830
61084dbab48ab21fce452554	DL_test	17	da	ba	1	left	da	1	922
61084dbab48ab21fce452554	DL_test	18	ba	da	1	right	da	1	575
61084dbab48ab21fce452554	DL_test	19	da	pa	1	right	pa	1	1534
61084dbab48ab21fce452554	DL_test	20	ga	ba	1	other	pa	0	865
61084dbab48ab21fce452554	DL_test	21	ka	ga	1	right	ga	1	856
61084dbab48ab21fce452554	DL_test	22	ka	da	1	right	da	1	1127
61084dbab48ab21fce452554	DL_test	23	ta	ba	1	right	ba	1	1297
61084dbab48ab21fce452554	DL_test	24	ga	ka	1	right	ka	1	1143
61084dbab48ab21fce452554	DL_test	25	ta	pa	1	left	ta	1	1123
61084dbab48ab21fce452554	DL_test	26	ta	ta	0	left	ta	1	702
61084dbab48ab21fce452554	DL_test	27	ga	da	1	right	da	1	1222
61084dbab48ab21fce452554	DL_test	28	pa	ga	1	right	ga	1	853
61084dbab48ab21fce452554	DL_test	29	ta	da	1	other	ka	0	1502
61084dbab48ab21fce452554	DL_test	30	ba	ta	1	other	ka	0	1929
61084dbab48ab21fce452554	DL_test	31	pa	ta	1	right	ta	1	1028
61084dbab48ab21fce452554	DL_test	32	ka	ba	1	right	ba	1	1151
61084dbab48ab21fce452554	DL_test	33	pa	ka	1	right	ka	1	1255
61084dbab48ab21fce452554	DL_test	34	ba	ka	1	right	ka	1	672
61084dbab48ab21fce452554	DL_test	35	da	ga	1	left	da	1	1039
61084dbab48ab21fce452554	DL_test	36	ga	ta	1	left	ga	1	904
61084dbab48ab21fce452554	DL_test	1	ba	ba	0	left	ba	1	1224
61084dbab48ab21fce452554	DL_test	2	ka	ga	1	right	ga	1	974
61084dbab48ab21fce452554	DL_test	3	ka	ka	0	left	ka	1	604
61084dbab48ab21fce452554	DL_test	4	pa	ka	1	right	ka	1	897
61084dbab48ab21fce452554	DL_test	5	ta	pa	1	other	ka	0	1225
61084dbab48ab21fce452554	DL_test	6	ka	da	1	other	ga	0	742
61084dbab48ab21fce452554	DL_test	7	da	da	0	left	da	1	992
61084dbab48ab21fce452554	DL_test	8	ta	da	1	right	da	1	696
61084dbab48ab21fce452554	DL_test	9	ta	ga	1	right	ga	1	819
61084dbab48ab21fce452554	DL_test	10	ta	ka	1	right	ka	1	764
61084dbab48ab21fce452554	DL_test	11	ga	ta	1	other	ka	0	679
61084dbab48ab21fce452554	DL_test	12	ba	ga	1	right	ga	1	871
61084dbab48ab21fce452554	DL_test	13	ga	da	1	right	da	1	765
61084dbab48ab21fce452554	DL_test	14	ba	pa	1	right	pa	1	1235
61084dbab48ab21fce452554	DL_test	15	da	ga	1	right	ga	1	801
61084dbab48ab21fce452554	DL_test	16	ka	ta	1	left	ka	1	1306
61084dbab48ab21fce452554	DL_test	17	da	ka	1	other	pa	0	1401
61084dbab48ab21fce452554	DL_test	18	pa	ta	1	right	ta	1	882
61084dbab48ab21fce452554	DL_test	19	da	pa	1	right	pa	1	1077
61084dbab48ab21fce452554	DL_test	20	ga	ba	1	right	ba	1	1007
61084dbab48ab21fce452554	DL_test	21	ga	pa	1	other	ba	0	877
61084dbab48ab21fce452554	DL_test	22	ta	ta	0	left	ta	1	1143
61084dbab48ab21fce452554	DL_test	23	ba	da	1	right	da	1	867
61084dbab48ab21fce452554	DL_test	24	ka	pa	1	left	ka	1	986
61084dbab48ab21fce452554	DL_test	25	ba	ta	1	other	ka	0	835
61084dbab48ab21fce452554	DL_test	26	ba	ka	1	right	ka	1	608
61084dbab48ab21fce452554	DL_test	27	ta	ba	1	right	ba	1	1075
61084dbab48ab21fce452554	DL_test	28	da	ba	1	left	da	1	809
61084dbab48ab21fce452554	DL_test	29	ga	ka	1	right	ka	1	786
61084dbab48ab21fce452554	DL_test	30	pa	da	1	right	da	1	1195
61084dbab48ab21fce452554	DL_test	31	pa	pa	0	left	pa	1	1010
61084dbab48ab21fce452554	DL_test	32	ka	ba	1	right	ba	1	1323
61084dbab48ab21fce452554	DL_test	33	pa	ba	1	right	ba	1	768
61084dbab48ab21fce452554	DL_test	34	pa	ga	1	right	ga	1	747
61084dbab48ab21fce452554	DL_test	35	da	ta	1	right	ta	1	1347
61084dbab48ab21fce452554	DL_test	36	ga	ga	0	left	ga	1	698
61084dbab48ab21fce452554	DL_test	1	da	ka	1	other	pa	0	818
61084dbab48ab21fce452554	DL_test	2	ga	da	1	left	ga	1	692
61084dbab48ab21fce452554	DL_test	3	da	ba	1	right	ba	1	976
61084dbab48ab21fce452554	DL_test	4	pa	ga	1	right	ga	1	922
61084dbab48ab21fce452554	DL_test	5	da	da	0	left	da	1	648
61084dbab48ab21fce452554	DL_test	6	ba	pa	1	right	pa	1	686
61084dbab48ab21fce452554	DL_test	7	pa	da	1	right	da	1	935
61084dbab48ab21fce452554	DL_test	8	ta	ta	0	other	ka	0	677
61084dbab48ab21fce452554	DL_test	9	pa	ba	1	right	ba	1	1135
61084dbab48ab21fce452554	DL_test	10	ba	da	1	right	da	1	862
61084dbab48ab21fce452554	DL_test	11	ga	ga	0	left	ga	1	558
61084dbab48ab21fce452554	DL_test	12	ta	ga	1	right	ga	1	571
61084dbab48ab21fce452554	DL_test	13	ka	pa	1	right	pa	1	779
61084dbab48ab21fce452554	DL_test	14	pa	ta	1	right	ta	1	714
61084dbab48ab21fce452554	DL_test	15	ta	pa	1	right	pa	1	943
61084dbab48ab21fce452554	DL_test	16	da	pa	1	right	pa	1	1610
61084dbab48ab21fce452554	DL_test	17	ka	ta	1	left	ka	1	1069
61084dbab48ab21fce452554	DL_test	18	da	ga	1	right	ga	1	712
61084dbab48ab21fce452554	DL_test	19	ga	ka	1	right	ka	1	760
61084dbab48ab21fce452554	DL_test	20	ka	ka	0	left	ka	1	544
61084dbab48ab21fce452554	DL_test	21	ga	ba	1	right	ba	1	1138
61084dbab48ab21fce452554	DL_test	22	pa	pa	0	left	pa	1	1267
61084dbab48ab21fce452554	DL_test	23	ta	ba	1	right	ba	1	1248
61084dbab48ab21fce452554	DL_test	24	ka	da	1	right	da	1	1087
61084dbab48ab21fce452554	DL_test	25	ga	pa	1	right	pa	1	1260
61084dbab48ab21fce452554	DL_test	26	ta	da	1	right	da	1	844
61084dbab48ab21fce452554	DL_test	27	ga	ta	1	other	ka	0	1059
61084dbab48ab21fce452554	DL_test	28	ba	ba	0	left	ba	1	1062
61084dbab48ab21fce452554	DL_test	29	ba	ga	1	other	da	0	675
61084dbab48ab21fce452554	DL_test	30	da	ta	1	right	ta	1	1320
61084dbab48ab21fce452554	DL_test	31	ka	ba	1	right	ba	1	993
61084dbab48ab21fce452554	DL_test	32	ba	ta	1	other	ka	0	1262
61084dbab48ab21fce452554	DL_test	33	ba	ka	1	right	ka	1	859
61084dbab48ab21fce452554	DL_test	34	pa	ka	1	right	ka	1	591
61084dbab48ab21fce452554	DL_test	35	ta	ka	1	right	ka	1	561
61084dbab48ab21fce452554	DL_test	36	ka	ga	1	right	ga	1	925
