subject	block	trialnum	DL_leftSound	DL_rightSound	DL_dualSound	DL_choice	response	correct	rt
63d2a4b549eb02187fd40092	headphonecheck_testphase	3	NA	NA	0	NA	first	1	7339
63d2a4b549eb02187fd40092	headphonecheck_testphase	6	NA	NA	0	NA	second	1	784
63d2a4b549eb02187fd40092	headphonecheck_testphase	9	NA	NA	0	NA	third	1	865
63d2a4b549eb02187fd40092	headphonecheck_testphase	12	NA	NA	0	NA	second	1	1148
63d2a4b549eb02187fd40092	headphonecheck_testphase	15	NA	NA	0	NA	first	1	724
63d2a4b549eb02187fd40092	headphonecheck_testphase	18	NA	NA	0	NA	third	1	570
63d2a4b549eb02187fd40092	stereocheck_testphase	3	NA	NA	0	NA	stereocheck_right	1	696
63d2a4b549eb02187fd40092	stereocheck_testphase	6	NA	NA	0	NA	stereocheck_right	1	2935
63d2a4b549eb02187fd40092	stereocheck_testphase	9	NA	NA	0	NA	stereocheck_left	1	679
63d2a4b549eb02187fd40092	stereocheck_testphase	12	NA	NA	0	NA	stereocheck_left	1	539
63d2a4b549eb02187fd40092	stereocheck_testphase	15	NA	NA	0	NA	stereocheck_right	1	416
63d2a4b549eb02187fd40092	stereocheck_testphase	18	NA	NA	0	NA	stereocheck_left	1	354
63d2a4b549eb02187fd40092	DL_practice	2	ga	ta	1	left	ga	1	4341
63d2a4b549eb02187fd40092	DL_practice	3	da	ba	1	left	da	1	1412
63d2a4b549eb02187fd40092	DL_practice	4	da	da	0	left	da	1	1165
63d2a4b549eb02187fd40092	DL_practice	5	ka	pa	1	right	pa	1	1577
63d2a4b549eb02187fd40092	DL_practice	6	pa	pa	0	left	pa	1	1215
63d2a4b549eb02187fd40092	DL_practice	7	ka	ka	0	left	ka	1	1226
63d2a4b549eb02187fd40092	DL_practice	8	ta	ta	0	left	ta	1	1400
63d2a4b549eb02187fd40092	DL_practice	9	ga	ga	0	other	da	0	2261
63d2a4b549eb02187fd40092	DL_practice	10	ba	ba	0	left	ba	1	1242
63d2a4b549eb02187fd40092	DL_test	1	ta	da	1	left	ta	1	3126
63d2a4b549eb02187fd40092	DL_test	2	ga	ta	1	right	ta	1	1313
63d2a4b549eb02187fd40092	DL_test	3	ka	ga	1	left	ka	1	4219
63d2a4b549eb02187fd40092	DL_test	4	ta	ga	1	other	da	0	3498
63d2a4b549eb02187fd40092	DL_test	5	ba	da	1	left	ba	1	3179
63d2a4b549eb02187fd40092	DL_test	6	ka	ba	1	other	pa	0	2356
63d2a4b549eb02187fd40092	DL_test	7	pa	ka	1	other	ta	0	2833
63d2a4b549eb02187fd40092	DL_test	8	ga	ga	0	other	da	0	1615
63d2a4b549eb02187fd40092	DL_test	9	pa	ga	1	left	pa	1	2995
63d2a4b549eb02187fd40092	DL_test	10	pa	pa	0	left	pa	1	1398
63d2a4b549eb02187fd40092	DL_test	11	ga	ba	1	other	da	0	2428
63d2a4b549eb02187fd40092	DL_test	12	pa	ta	1	right	ta	1	1546
63d2a4b549eb02187fd40092	DL_test	13	ba	ka	1	other	ta	0	1466
63d2a4b549eb02187fd40092	DL_test	14	pa	da	1	other	ga	0	3815
63d2a4b549eb02187fd40092	DL_test	15	ba	ga	1	left	ba	1	1897
63d2a4b549eb02187fd40092	DL_test	16	ga	pa	1	right	pa	1	1298
63d2a4b549eb02187fd40092	DL_test	17	ta	ba	1	other	pa	0	2685
63d2a4b549eb02187fd40092	DL_test	18	ba	ta	1	right	ta	1	1514
63d2a4b549eb02187fd40092	DL_test	19	ba	ba	0	left	ba	1	1535
63d2a4b549eb02187fd40092	DL_test	20	da	ba	1	left	da	1	2393
63d2a4b549eb02187fd40092	DL_test	21	ka	ta	1	left	ka	1	2109
63d2a4b549eb02187fd40092	DL_test	22	pa	ba	1	left	pa	1	1312
63d2a4b549eb02187fd40092	DL_test	23	ka	pa	1	right	pa	1	2048
63d2a4b549eb02187fd40092	DL_test	24	ta	ka	1	left	ta	1	1216
63d2a4b549eb02187fd40092	DL_test	25	da	ta	1	right	ta	1	1209
63d2a4b549eb02187fd40092	DL_test	26	ka	ka	0	left	ka	1	1433
63d2a4b549eb02187fd40092	DL_test	27	ga	ka	1	right	ka	1	1351
63d2a4b549eb02187fd40092	DL_test	28	da	da	0	left	da	1	1364
63d2a4b549eb02187fd40092	DL_test	29	da	pa	1	other	ta	0	1939
63d2a4b549eb02187fd40092	DL_test	30	da	ka	1	other	ta	0	4348
63d2a4b549eb02187fd40092	DL_test	31	da	ga	1	left	da	1	1383
63d2a4b549eb02187fd40092	DL_test	32	ba	pa	1	right	pa	1	1257
63d2a4b549eb02187fd40092	DL_test	33	ta	ta	0	left	ta	1	1209
63d2a4b549eb02187fd40092	DL_test	34	ka	da	1	left	ka	1	1798
63d2a4b549eb02187fd40092	DL_test	35	ta	pa	1	right	pa	1	2073
63d2a4b549eb02187fd40092	DL_test	36	ga	da	1	right	da	1	1331
63d2a4b549eb02187fd40092	DL_test	1	pa	pa	0	left	pa	1	1305
63d2a4b549eb02187fd40092	DL_test	2	ga	ta	1	right	ta	1	1704
63d2a4b549eb02187fd40092	DL_test	3	pa	ba	1	left	pa	1	1390
63d2a4b549eb02187fd40092	DL_test	4	da	ka	1	other	pa	0	2469
63d2a4b549eb02187fd40092	DL_test	5	pa	ga	1	other	ba	0	2702
63d2a4b549eb02187fd40092	DL_test	6	ka	ta	1	right	ta	1	1462
63d2a4b549eb02187fd40092	DL_test	7	ba	ga	1	left	ba	1	2238
63d2a4b549eb02187fd40092	DL_test	8	da	ta	1	right	ta	1	1632
63d2a4b549eb02187fd40092	DL_test	9	ta	pa	1	right	pa	1	2438
63d2a4b549eb02187fd40092	DL_test	10	ta	ta	0	left	ta	1	1434
63d2a4b549eb02187fd40092	DL_test	11	ga	ba	1	right	ba	1	1474
63d2a4b549eb02187fd40092	DL_test	12	ka	ka	0	left	ka	1	1199
63d2a4b549eb02187fd40092	DL_test	13	ka	ga	1	right	ga	1	2844
63d2a4b549eb02187fd40092	DL_test	14	da	ba	1	left	da	1	2271
63d2a4b549eb02187fd40092	DL_test	15	pa	da	1	left	pa	1	2976
63d2a4b549eb02187fd40092	DL_test	16	ga	pa	1	right	pa	1	1278
63d2a4b549eb02187fd40092	DL_test	17	ba	ka	1	right	ka	1	1728
63d2a4b549eb02187fd40092	DL_test	18	ba	ta	1	other	pa	0	1424
63d2a4b549eb02187fd40092	DL_test	19	ka	ba	1	left	ka	1	1655
63d2a4b549eb02187fd40092	DL_test	20	pa	ta	1	left	pa	1	2479
63d2a4b549eb02187fd40092	DL_test	21	ga	ga	0	other	da	0	1419
63d2a4b549eb02187fd40092	DL_test	22	da	pa	1	other	ka	0	1856
63d2a4b549eb02187fd40092	DL_test	23	ga	ka	1	right	ka	1	1112
63d2a4b549eb02187fd40092	DL_test	24	ta	ga	1	right	ga	1	1400
63d2a4b549eb02187fd40092	DL_test	25	ba	ba	0	left	ba	1	1638
63d2a4b549eb02187fd40092	DL_test	26	ga	da	1	right	da	1	1250
63d2a4b549eb02187fd40092	DL_test	27	pa	ka	1	other	da	0	3005
63d2a4b549eb02187fd40092	DL_test	28	ba	pa	1	right	pa	1	1432
63d2a4b549eb02187fd40092	DL_test	29	ta	ba	1	other	pa	0	3199
63d2a4b549eb02187fd40092	DL_test	30	da	ga	1	left	da	1	1308
63d2a4b549eb02187fd40092	DL_test	31	ka	da	1	left	ka	1	1271
63d2a4b549eb02187fd40092	DL_test	32	ka	pa	1	right	pa	1	1263
63d2a4b549eb02187fd40092	DL_test	33	ta	da	1	right	da	1	1679
63d2a4b549eb02187fd40092	DL_test	34	da	da	0	left	da	1	1256
63d2a4b549eb02187fd40092	DL_test	35	ta	ka	1	right	ka	1	1340
63d2a4b549eb02187fd40092	DL_test	36	ba	da	1	left	ba	1	1522
63d2a4b549eb02187fd40092	DL_test	1	ka	ka	0	left	ka	1	1038
63d2a4b549eb02187fd40092	DL_test	2	ga	da	1	right	da	1	1303
63d2a4b549eb02187fd40092	DL_test	3	ka	ba	1	other	ga	0	2353
63d2a4b549eb02187fd40092	DL_test	4	ka	da	1	left	ka	1	1360
63d2a4b549eb02187fd40092	DL_test	5	da	ka	1	other	ta	0	1799
63d2a4b549eb02187fd40092	DL_test	6	ga	ga	0	left	ga	1	1312
63d2a4b549eb02187fd40092	DL_test	7	ka	ta	1	left	ka	1	1400
63d2a4b549eb02187fd40092	DL_test	8	pa	pa	0	left	pa	1	1090
63d2a4b549eb02187fd40092	DL_test	9	ta	pa	1	right	pa	1	1842
63d2a4b549eb02187fd40092	DL_test	10	ba	ta	1	right	ta	1	1573
63d2a4b549eb02187fd40092	DL_test	11	pa	ba	1	left	pa	1	1482
63d2a4b549eb02187fd40092	DL_test	12	ka	ga	1	right	ga	1	1475
63d2a4b549eb02187fd40092	DL_test	13	ba	ka	1	right	ka	1	1189
63d2a4b549eb02187fd40092	DL_test	14	pa	ka	1	right	ka	1	2730
63d2a4b549eb02187fd40092	DL_test	15	ka	pa	1	right	pa	1	1685
63d2a4b549eb02187fd40092	DL_test	16	pa	ga	1	right	ga	1	2589
63d2a4b549eb02187fd40092	DL_test	17	ba	pa	1	right	pa	1	1231
63d2a4b549eb02187fd40092	DL_test	18	da	ba	1	left	da	1	1253
63d2a4b549eb02187fd40092	DL_test	19	ba	ga	1	left	ba	1	1555
63d2a4b549eb02187fd40092	DL_test	20	ta	ka	1	right	ka	1	1422
63d2a4b549eb02187fd40092	DL_test	21	ta	ta	0	left	ta	1	1279
63d2a4b549eb02187fd40092	DL_test	22	ta	da	1	left	ta	1	2794
63d2a4b549eb02187fd40092	DL_test	23	da	ta	1	right	ta	1	1282
63d2a4b549eb02187fd40092	DL_test	24	ga	ka	1	right	ka	1	1426
63d2a4b549eb02187fd40092	DL_test	25	da	da	0	left	da	1	1401
63d2a4b549eb02187fd40092	DL_test	26	ga	ta	1	right	ta	1	3480
63d2a4b549eb02187fd40092	DL_test	27	ta	ga	1	right	ga	1	1963
63d2a4b549eb02187fd40092	DL_test	28	ta	ba	1	other	pa	0	1944
63d2a4b549eb02187fd40092	DL_test	29	ba	da	1	right	da	1	1445
63d2a4b549eb02187fd40092	DL_test	30	da	ga	1	left	da	1	1336
63d2a4b549eb02187fd40092	DL_test	31	pa	ta	1	left	pa	1	2092
63d2a4b549eb02187fd40092	DL_test	32	ga	pa	1	right	pa	1	1260
63d2a4b549eb02187fd40092	DL_test	33	ga	ba	1	right	ba	1	1669
63d2a4b549eb02187fd40092	DL_test	34	da	pa	1	right	pa	1	1784
63d2a4b549eb02187fd40092	DL_test	35	pa	da	1	left	pa	1	4101
63d2a4b549eb02187fd40092	DL_test	36	ba	ba	0	left	ba	1	1614
63d2a4b549eb02187fd40092	DL_test	1	da	ka	1	other	pa	0	1480
63d2a4b549eb02187fd40092	DL_test	2	ta	ba	1	right	ba	1	1897
63d2a4b549eb02187fd40092	DL_test	3	ba	ba	0	left	ba	1	1286
63d2a4b549eb02187fd40092	DL_test	4	da	pa	1	right	pa	1	1727
63d2a4b549eb02187fd40092	DL_test	5	ka	ga	1	right	ga	1	1304
63d2a4b549eb02187fd40092	DL_test	6	ka	ta	1	left	ka	1	1259
63d2a4b549eb02187fd40092	DL_test	7	ga	ga	0	left	ga	1	1217
63d2a4b549eb02187fd40092	DL_test	8	pa	pa	0	left	pa	1	1256
63d2a4b549eb02187fd40092	DL_test	9	ta	da	1	right	da	1	2140
63d2a4b549eb02187fd40092	DL_test	10	ka	pa	1	right	pa	1	1555
63d2a4b549eb02187fd40092	DL_test	11	da	ba	1	right	ba	1	1552
63d2a4b549eb02187fd40092	DL_test	12	ka	ka	0	left	ka	1	1132
63d2a4b549eb02187fd40092	DL_test	13	ta	ka	1	right	ka	1	1057
63d2a4b549eb02187fd40092	DL_test	14	ga	da	1	right	da	1	1276
63d2a4b549eb02187fd40092	DL_test	15	ba	ta	1	other	pa	0	1350
63d2a4b549eb02187fd40092	DL_test	16	ta	ta	0	left	ta	1	1668
63d2a4b549eb02187fd40092	DL_test	17	ka	da	1	other	ga	0	1513
63d2a4b549eb02187fd40092	DL_test	18	pa	da	1	right	da	1	1615
63d2a4b549eb02187fd40092	DL_test	19	pa	ta	1	left	pa	1	1285
63d2a4b549eb02187fd40092	DL_test	20	ga	pa	1	right	pa	1	1185
63d2a4b549eb02187fd40092	DL_test	21	pa	ga	1	other	ba	0	1765
63d2a4b549eb02187fd40092	DL_test	22	da	ta	1	right	ta	1	1341
63d2a4b549eb02187fd40092	DL_test	23	pa	ba	1	right	ba	1	2132
63d2a4b549eb02187fd40092	DL_test	24	da	da	0	left	da	1	1197
63d2a4b549eb02187fd40092	DL_test	25	ba	ka	1	right	ka	1	1394
63d2a4b549eb02187fd40092	DL_test	26	ba	pa	1	right	pa	1	1034
63d2a4b549eb02187fd40092	DL_test	27	ba	ga	1	left	ba	1	1411
63d2a4b549eb02187fd40092	DL_test	28	ba	da	1	left	ba	1	3955
63d2a4b549eb02187fd40092	DL_test	29	pa	ka	1	right	ka	1	1214
63d2a4b549eb02187fd40092	DL_test	30	ga	ka	1	right	ka	1	1132
63d2a4b549eb02187fd40092	DL_test	31	ga	ba	1	other	da	0	1323
63d2a4b549eb02187fd40092	DL_test	32	ta	ga	1	right	ga	1	1447
63d2a4b549eb02187fd40092	DL_test	33	ga	ta	1	other	ka	0	1555
63d2a4b549eb02187fd40092	DL_test	34	ka	ba	1	left	ka	1	1233
63d2a4b549eb02187fd40092	DL_test	35	ta	pa	1	right	pa	1	1376
63d2a4b549eb02187fd40092	DL_test	36	da	ga	1	left	da	1	1249
