subject	block	trialnum	DL_leftSound	DL_rightSound	DL_dualSound	DL_choice	response	correct	rt
63d3fec908b40217bbd48993	headphonecheck_testphase	3	NA	NA	0	NA	second	1	990
63d3fec908b40217bbd48993	headphonecheck_testphase	6	NA	NA	0	NA	third	1	672
63d3fec908b40217bbd48993	headphonecheck_testphase	9	NA	NA	0	NA	first	1	241
63d3fec908b40217bbd48993	headphonecheck_testphase	12	NA	NA	0	NA	third	1	1207
63d3fec908b40217bbd48993	headphonecheck_testphase	15	NA	NA	0	NA	third	0	2407
63d3fec908b40217bbd48993	headphonecheck_testphase	18	NA	NA	0	NA	first	1	856
63d3fec908b40217bbd48993	stereocheck_testphase	3	NA	NA	0	NA	stereocheck_left	1	273
63d3fec908b40217bbd48993	stereocheck_testphase	6	NA	NA	0	NA	stereocheck_left	1	708
63d3fec908b40217bbd48993	stereocheck_testphase	9	NA	NA	0	NA	stereocheck_right	1	224
63d3fec908b40217bbd48993	stereocheck_testphase	12	NA	NA	0	NA	stereocheck_right	1	2375
63d3fec908b40217bbd48993	stereocheck_testphase	15	NA	NA	0	NA	stereocheck_right	1	724
63d3fec908b40217bbd48993	stereocheck_testphase	18	NA	NA	0	NA	stereocheck_left	1	174
63d3fec908b40217bbd48993	DL_practice	2	ga	ta	1	left	ga	1	1559
63d3fec908b40217bbd48993	DL_practice	3	ta	ta	0	left	ta	1	1526
63d3fec908b40217bbd48993	DL_practice	4	ka	pa	1	left	ka	1	1026
63d3fec908b40217bbd48993	DL_practice	5	ka	ka	0	left	ka	1	826
63d3fec908b40217bbd48993	DL_practice	6	da	da	0	left	da	1	726
63d3fec908b40217bbd48993	DL_practice	7	da	ba	1	right	ba	1	1210
63d3fec908b40217bbd48993	DL_practice	8	ga	ga	0	left	ga	1	788
63d3fec908b40217bbd48993	DL_practice	9	ba	ba	0	left	ba	1	1160
63d3fec908b40217bbd48993	DL_practice	10	pa	pa	0	left	pa	1	1326
63d3fec908b40217bbd48993	DL_test	1	da	ta	1	left	da	1	1059
63d3fec908b40217bbd48993	DL_test	2	ta	ba	1	other	ga	0	1760
63d3fec908b40217bbd48993	DL_test	3	ka	ba	1	right	ba	1	1126
63d3fec908b40217bbd48993	DL_test	4	pa	ga	1	right	ga	1	1210
63d3fec908b40217bbd48993	DL_test	5	ka	ta	1	left	ka	1	894
63d3fec908b40217bbd48993	DL_test	6	ba	da	1	left	ba	1	1410
63d3fec908b40217bbd48993	DL_test	7	ba	pa	1	right	pa	1	1654
63d3fec908b40217bbd48993	DL_test	8	ka	ka	0	left	ka	1	860
63d3fec908b40217bbd48993	DL_test	9	da	ka	1	left	da	1	2143
63d3fec908b40217bbd48993	DL_test	10	da	ga	1	right	ga	1	660
63d3fec908b40217bbd48993	DL_test	11	pa	ta	1	right	ta	1	1393
63d3fec908b40217bbd48993	DL_test	12	ta	ta	0	left	ta	1	1304
63d3fec908b40217bbd48993	DL_test	13	ga	ka	1	left	ga	1	1054
63d3fec908b40217bbd48993	DL_test	14	pa	ka	1	right	ka	1	1210
63d3fec908b40217bbd48993	DL_test	15	ba	ba	0	left	ba	1	1260
63d3fec908b40217bbd48993	DL_test	16	ba	ta	1	left	ba	1	1410
63d3fec908b40217bbd48993	DL_test	17	ta	da	1	right	da	1	894
63d3fec908b40217bbd48993	DL_test	18	ka	da	1	right	da	1	1344
63d3fec908b40217bbd48993	DL_test	19	ga	ga	0	left	ga	1	610
63d3fec908b40217bbd48993	DL_test	20	ka	pa	1	left	ka	1	910
63d3fec908b40217bbd48993	DL_test	21	ba	ga	1	left	ba	1	1327
63d3fec908b40217bbd48993	DL_test	22	pa	ba	1	right	ba	1	1301
63d3fec908b40217bbd48993	DL_test	23	ka	ga	1	right	ga	1	1704
63d3fec908b40217bbd48993	DL_test	24	pa	da	1	right	da	1	1144
63d3fec908b40217bbd48993	DL_test	25	ga	da	1	left	ga	1	1245
63d3fec908b40217bbd48993	DL_test	26	da	ba	1	right	ba	1	1294
63d3fec908b40217bbd48993	DL_test	27	ta	ga	1	right	ga	1	1210
63d3fec908b40217bbd48993	DL_test	28	ga	pa	1	left	ga	1	861
63d3fec908b40217bbd48993	DL_test	29	ba	ka	1	other	pa	0	1377
63d3fec908b40217bbd48993	DL_test	30	ga	ta	1	left	ga	1	1411
63d3fec908b40217bbd48993	DL_test	31	da	pa	1	left	da	1	1344
63d3fec908b40217bbd48993	DL_test	32	da	da	0	left	da	1	1010
63d3fec908b40217bbd48993	DL_test	33	ta	ka	1	right	ka	1	1276
63d3fec908b40217bbd48993	DL_test	34	pa	pa	0	left	pa	1	1510
63d3fec908b40217bbd48993	DL_test	35	ta	pa	1	left	ta	1	878
63d3fec908b40217bbd48993	DL_test	36	ga	ba	1	right	ba	1	1461
63d3fec908b40217bbd48993	DL_test	1	da	ba	1	left	da	1	711
63d3fec908b40217bbd48993	DL_test	2	ga	ba	1	right	ba	1	945
63d3fec908b40217bbd48993	DL_test	3	ka	ba	1	right	ba	1	695
63d3fec908b40217bbd48993	DL_test	4	ba	ta	1	left	ba	1	878
63d3fec908b40217bbd48993	DL_test	5	ka	ta	1	left	ka	1	1161
63d3fec908b40217bbd48993	DL_test	6	ba	ba	0	left	ba	1	1061
63d3fec908b40217bbd48993	DL_test	7	ta	da	1	right	da	1	812
63d3fec908b40217bbd48993	DL_test	8	ta	pa	1	left	ta	1	1221
63d3fec908b40217bbd48993	DL_test	9	ta	ba	1	right	ba	1	1228
63d3fec908b40217bbd48993	DL_test	10	da	da	0	left	da	1	1146
63d3fec908b40217bbd48993	DL_test	11	da	ga	1	right	ga	1	1079
63d3fec908b40217bbd48993	DL_test	12	da	ta	1	other	ga	0	728
63d3fec908b40217bbd48993	DL_test	13	ta	ga	1	right	ga	1	661
63d3fec908b40217bbd48993	DL_test	14	ba	ka	1	other	pa	0	1195
63d3fec908b40217bbd48993	DL_test	15	ba	ga	1	left	ba	1	1044
63d3fec908b40217bbd48993	DL_test	16	pa	ta	1	right	ta	1	1028
63d3fec908b40217bbd48993	DL_test	17	ka	da	1	other	ga	0	629
63d3fec908b40217bbd48993	DL_test	18	pa	pa	0	left	pa	1	962
63d3fec908b40217bbd48993	DL_test	19	ba	da	1	left	ba	1	978
63d3fec908b40217bbd48993	DL_test	20	da	ka	1	left	da	1	1062
63d3fec908b40217bbd48993	DL_test	21	pa	ba	1	left	pa	1	978
63d3fec908b40217bbd48993	DL_test	22	ta	ta	0	left	ta	1	1637
63d3fec908b40217bbd48993	DL_test	23	pa	ga	1	right	ga	1	646
63d3fec908b40217bbd48993	DL_test	24	ga	ta	1	left	ga	1	913
63d3fec908b40217bbd48993	DL_test	25	ga	ka	1	left	ga	1	479
63d3fec908b40217bbd48993	DL_test	26	ga	ga	0	left	ga	1	712
63d3fec908b40217bbd48993	DL_test	27	ka	ga	1	right	ga	1	578
63d3fec908b40217bbd48993	DL_test	28	pa	ka	1	right	ka	1	895
63d3fec908b40217bbd48993	DL_test	29	ta	ka	1	right	ka	1	561
63d3fec908b40217bbd48993	DL_test	30	ka	pa	1	left	ka	1	696
63d3fec908b40217bbd48993	DL_test	31	ga	pa	1	left	ga	1	1296
63d3fec908b40217bbd48993	DL_test	32	ga	da	1	right	da	1	1129
63d3fec908b40217bbd48993	DL_test	33	ba	pa	1	left	ba	1	929
63d3fec908b40217bbd48993	DL_test	34	ka	ka	0	left	ka	1	704
63d3fec908b40217bbd48993	DL_test	35	pa	da	1	right	da	1	1062
63d3fec908b40217bbd48993	DL_test	36	da	pa	1	left	da	1	712
63d3fec908b40217bbd48993	DL_test	1	pa	da	1	right	da	1	746
63d3fec908b40217bbd48993	DL_test	2	ta	pa	1	left	ta	1	1129
63d3fec908b40217bbd48993	DL_test	3	ta	da	1	right	da	1	1179
63d3fec908b40217bbd48993	DL_test	4	ka	ta	1	left	ka	1	846
63d3fec908b40217bbd48993	DL_test	5	pa	ba	1	left	pa	1	1280
63d3fec908b40217bbd48993	DL_test	6	pa	ka	1	right	ka	1	945
63d3fec908b40217bbd48993	DL_test	7	ka	da	1	other	ga	0	946
63d3fec908b40217bbd48993	DL_test	8	ta	ga	1	right	ga	1	1012
63d3fec908b40217bbd48993	DL_test	9	pa	ta	1	right	ta	1	1213
63d3fec908b40217bbd48993	DL_test	10	ga	pa	1	left	ga	1	929
63d3fec908b40217bbd48993	DL_test	11	da	da	0	left	da	1	679
63d3fec908b40217bbd48993	DL_test	12	ka	ba	1	other	pa	0	1571
63d3fec908b40217bbd48993	DL_test	13	ga	ka	1	left	ga	1	2130
63d3fec908b40217bbd48993	DL_test	14	ba	ta	1	left	ba	1	1029
63d3fec908b40217bbd48993	DL_test	15	ba	ba	0	left	ba	1	771
63d3fec908b40217bbd48993	DL_test	16	da	ka	1	left	da	1	779
63d3fec908b40217bbd48993	DL_test	17	ga	da	1	left	ga	1	563
63d3fec908b40217bbd48993	DL_test	18	pa	pa	0	left	pa	1	996
63d3fec908b40217bbd48993	DL_test	19	da	ta	1	left	da	1	829
63d3fec908b40217bbd48993	DL_test	20	ka	pa	1	left	ka	1	613
63d3fec908b40217bbd48993	DL_test	21	da	pa	1	left	da	1	1113
63d3fec908b40217bbd48993	DL_test	22	pa	ga	1	right	ga	1	697
63d3fec908b40217bbd48993	DL_test	23	ba	pa	1	left	ba	1	1730
63d3fec908b40217bbd48993	DL_test	24	da	ba	1	right	ba	1	813
63d3fec908b40217bbd48993	DL_test	25	ba	da	1	left	ba	1	680
63d3fec908b40217bbd48993	DL_test	26	ta	ta	0	left	ta	1	1080
63d3fec908b40217bbd48993	DL_test	27	ga	ba	1	right	ba	1	2047
63d3fec908b40217bbd48993	DL_test	28	da	ga	1	left	da	1	913
63d3fec908b40217bbd48993	DL_test	29	ta	ba	1	other	pa	0	1813
63d3fec908b40217bbd48993	DL_test	30	ta	ka	1	right	ka	1	747
63d3fec908b40217bbd48993	DL_test	31	ba	ka	1	other	pa	0	1347
63d3fec908b40217bbd48993	DL_test	32	ga	ta	1	other	da	0	1047
63d3fec908b40217bbd48993	DL_test	33	ka	ga	1	right	ga	1	930
63d3fec908b40217bbd48993	DL_test	34	ga	ga	0	left	ga	1	613
63d3fec908b40217bbd48993	DL_test	35	ba	ga	1	left	ba	1	897
63d3fec908b40217bbd48993	DL_test	36	ka	ka	0	left	ka	1	964
63d3fec908b40217bbd48993	DL_test	1	ta	ga	1	right	ga	1	1063
63d3fec908b40217bbd48993	DL_test	2	ka	ga	1	right	ga	1	564
63d3fec908b40217bbd48993	DL_test	3	pa	ta	1	right	ta	1	1614
63d3fec908b40217bbd48993	DL_test	4	ga	ka	1	left	ga	1	830
63d3fec908b40217bbd48993	DL_test	5	ga	pa	1	left	ga	1	613
63d3fec908b40217bbd48993	DL_test	6	ba	ga	1	left	ba	1	914
63d3fec908b40217bbd48993	DL_test	7	ga	ga	0	left	ga	1	798
63d3fec908b40217bbd48993	DL_test	8	da	pa	1	left	da	1	697
63d3fec908b40217bbd48993	DL_test	9	da	ga	1	left	da	1	797
63d3fec908b40217bbd48993	DL_test	10	pa	ba	1	right	ba	1	1031
63d3fec908b40217bbd48993	DL_test	11	ta	ta	0	left	ta	1	1431
63d3fec908b40217bbd48993	DL_test	12	ba	pa	1	left	ba	1	864
63d3fec908b40217bbd48993	DL_test	13	ba	ta	1	left	ba	1	1565
63d3fec908b40217bbd48993	DL_test	14	ka	ta	1	left	ka	1	729
63d3fec908b40217bbd48993	DL_test	15	ga	da	1	left	ga	1	1087
63d3fec908b40217bbd48993	DL_test	16	da	ta	1	left	da	1	831
63d3fec908b40217bbd48993	DL_test	17	ka	ba	1	other	pa	0	1332
63d3fec908b40217bbd48993	DL_test	18	ba	ba	0	left	ba	1	1064
63d3fec908b40217bbd48993	DL_test	19	pa	da	1	right	da	1	1687
63d3fec908b40217bbd48993	DL_test	20	ta	pa	1	left	ta	1	1654
63d3fec908b40217bbd48993	DL_test	21	ta	ka	1	right	ka	1	1048
63d3fec908b40217bbd48993	DL_test	22	pa	ka	1	right	ka	1	614
63d3fec908b40217bbd48993	DL_test	23	ga	ta	1	other	da	0	1515
63d3fec908b40217bbd48993	DL_test	24	ba	da	1	left	ba	1	797
63d3fec908b40217bbd48993	DL_test	25	ka	ka	0	left	ka	1	948
63d3fec908b40217bbd48993	DL_test	26	da	ka	1	left	da	1	914
63d3fec908b40217bbd48993	DL_test	27	ba	ka	1	left	ba	1	1065
63d3fec908b40217bbd48993	DL_test	28	ta	da	1	right	da	1	1315
63d3fec908b40217bbd48993	DL_test	29	pa	pa	0	left	pa	1	681
63d3fec908b40217bbd48993	DL_test	30	da	da	0	left	da	1	998
63d3fec908b40217bbd48993	DL_test	31	ka	da	1	other	ga	0	765
63d3fec908b40217bbd48993	DL_test	32	ka	pa	1	left	ka	1	898
63d3fec908b40217bbd48993	DL_test	33	ga	ba	1	right	ba	1	1548
63d3fec908b40217bbd48993	DL_test	34	da	ba	1	right	ba	1	1181
63d3fec908b40217bbd48993	DL_test	35	pa	ga	1	right	ga	1	931
63d3fec908b40217bbd48993	DL_test	36	ta	ba	1	right	ba	1	1398
