build	computer.platform	date	time	timestamp	time_elapsed_ms	subject	group	session	blockcode	blocknum	trialcode	trialnum	stimulus_left	stimulus_right	stim_index	target_present	response	correct	latency	headphonecheck_countTestTrials	headphonecheck_index	headphonecheck_testSound	headphonecheck_correctResponse	stereocheck_countTestTrials	stereocheck_index	stereocheck_testSound	stereocheck_correctResponse	DL_index	DL_soundfile	DL_leftSound	DL_rightSound	DL_dualSound	DL_choice
6.6.1	win	2023-07-16	17:24:34	17:41:13	993688	608da9dd3e630867a6efd9b2	3	1	practice_slash	5	practice_slash	1	stimuli_distractor_trianglediamonds.svg	stimuli_target_squarediamonds.svg	11	yes	0	0	2000	0	0			0	0			1				0	
6.6.1	win	2023-07-16	17:24:34	17:41:13	993688	608da9dd3e630867a6efd9b2	3	1	practice_slash	5	advance_on_keypress_SLASH	2	stimuli_distractor_trianglediamonds.svg	stimuli_target_squarediamonds.svg	11	yes	57	0	861	0	0			0	0			1				0	
6.6.1	win	2023-07-16	17:24:34	17:41:18	998217	608da9dd3e630867a6efd9b2	3	1	practice_slash	5	practice_slash	3	stimuli_target_diamondsquares.svg	stimuli_distractor_trianglediamonds.svg	6	yes	0	0	2000	0	0			0	0			1				0	
6.6.1	win	2023-07-16	17:24:34	17:41:18	998217	608da9dd3e630867a6efd9b2	3	1	practice_slash	5	advance_on_keypress_SLASH	4	stimuli_target_diamondsquares.svg	stimuli_distractor_trianglediamonds.svg	6	yes	57	0	1021	0	0			0	0			1				0	
6.6.1	win	2023-07-16	17:24:34	17:41:23	1002895	608da9dd3e630867a6efd9b2	3	1	practice_slash	5	practice_slash	5	stimuli_target_rectanglediamonds.svg	stimuli_distractor_diamondtriangles.svg	1	yes	0	0	2000	0	0			0	0			1				0	
6.6.1	win	2023-07-16	17:24:34	17:41:23	1002895	608da9dd3e630867a6efd9b2	3	1	practice_slash	5	advance_on_keypress_SLASH	6	stimuli_target_rectanglediamonds.svg	stimuli_distractor_diamondtriangles.svg	1	yes	57	0	1082	0	0			0	0			1				0	
6.6.1	win	2023-07-16	17:24:34	17:41:27	1007625	608da9dd3e630867a6efd9b2	3	1	practice_slash	5	practice_slash	7	stimuli_target_squarediamonds.svg	stimuli_distractor_diamondtriangles.svg	2	yes	0	0	2000	0	0			0	0			1				0	
6.6.1	win	2023-07-16	17:24:34	17:41:27	1007625	608da9dd3e630867a6efd9b2	3	1	practice_slash	5	advance_on_keypress_SLASH	8	stimuli_target_squarediamonds.svg	stimuli_distractor_diamondtriangles.svg	2	yes	57	0	931	0	0			0	0			1				0	
6.6.1	win	2023-07-16	17:24:34	17:41:32	1012204	608da9dd3e630867a6efd9b2	3	1	practice_slash	5	practice_slash	9	stimuli_distractor_diamondtriangles.svg	stimuli_target_trianglerectangles.svg	9	yes	0	0	2000	0	0			0	0			1				0	
6.6.1	win	2023-07-16	17:24:34	17:41:32	1012204	608da9dd3e630867a6efd9b2	3	1	practice_slash	5	advance_on_keypress_SLASH	10	stimuli_distractor_diamondtriangles.svg	stimuli_target_trianglerectangles.svg	9	yes	57	0	756	0	0			0	0			1				0	
6.6.1	win	2023-07-16	17:24:34	17:41:36	1016617	608da9dd3e630867a6efd9b2	3	1	practice_slash	5	practice_slash	11	stimuli_distractor_trianglediamonds.svg	stimuli_target_diamondrectangles.svg	12	yes	0	0	2000	0	0			0	0			1				0	
6.6.1	win	2023-07-16	17:24:34	17:41:36	1016617	608da9dd3e630867a6efd9b2	3	1	practice_slash	5	advance_on_keypress_SLASH	12	stimuli_distractor_trianglediamonds.svg	stimuli_target_diamondrectangles.svg	12	yes	57	0	885	0	0			0	0			1				0	
6.6.1	win	2023-07-16	17:24:34	17:41:41	1021145	608da9dd3e630867a6efd9b2	3	1	practice_slash	5	practice_slash	13	stimuli_distractor_diamondtriangles.svg	stimuli_target_rectangletriangles.svg	7	yes	0	0	2000	0	0			0	0			1				0	
6.6.1	win	2023-07-16	17:24:34	17:41:41	1021145	608da9dd3e630867a6efd9b2	3	1	practice_slash	5	advance_on_keypress_SLASH	14	stimuli_distractor_diamondtriangles.svg	stimuli_target_rectangletriangles.svg	7	yes	57	0	645	0	0			0	0			1				0	
6.6.1	win	2023-07-16	17:24:34	17:41:45	1025441	608da9dd3e630867a6efd9b2	3	1	practice_slash	5	practice_slash	15	stimuli_distractor_trianglediamonds.svg	stimuli_distractor_diamondtriangles.svg	16	no	0	1	2000	0	0			0	0			1				0	
6.6.1	win	2023-07-16	17:24:34	17:41:45	1025441	608da9dd3e630867a6efd9b2	3	1	practice_slash	5	advance_on_keypress_SLASH	16	stimuli_distractor_trianglediamonds.svg	stimuli_distractor_diamondtriangles.svg	16	no	57	0	1028	0	0			0	0			1				0	
6.6.1	win	2023-07-16	17:24:34	17:41:50	1030121	608da9dd3e630867a6efd9b2	3	1	practice_slash	5	practice_slash	17	stimuli_distractor_diamondtriangles.svg	stimuli_distractor_trianglediamonds.svg	14	no	0	1	2000	0	0			0	0			1				0	
6.6.1	win	2023-07-16	17:24:34	17:41:50	1030121	608da9dd3e630867a6efd9b2	3	1	practice_slash	5	advance_on_keypress_SLASH	18	stimuli_distractor_diamondtriangles.svg	stimuli_distractor_trianglediamonds.svg	14	no	57	0	728	0	0			0	0			1				0	
6.6.1	win	2023-07-16	17:24:34	17:41:54	1034499	608da9dd3e630867a6efd9b2	3	1	practice_slash	5	practice_slash	19	stimuli_target_rectanglediamonds.svg	stimuli_distractor_trianglediamonds.svg	4	yes	0	0	2000	0	0			0	0			1				0	
6.6.1	win	2023-07-16	17:24:34	17:41:54	1034499	608da9dd3e630867a6efd9b2	3	1	practice_slash	5	advance_on_keypress_SLASH	20	stimuli_target_rectanglediamonds.svg	stimuli_distractor_trianglediamonds.svg	4	yes	57	0	3925	0	0			0	0			1				0	
6.6.1	win	2023-07-16	17:24:34	17:42:02	1042076	608da9dd3e630867a6efd9b2	3	1	practice_slash	5	practice_slash	21	stimuli_distractor_trianglediamonds.svg	stimuli_distractor_trianglediamonds.svg	15	no	0	1	2000	0	0			0	0			1				0	
6.6.1	win	2023-07-16	17:24:34	17:42:02	1042076	608da9dd3e630867a6efd9b2	3	1	practice_slash	5	advance_on_keypress_SLASH	22	stimuli_distractor_trianglediamonds.svg	stimuli_distractor_trianglediamonds.svg	15	no	57	0	678	0	0			0	0			1				0	
6.6.1	win	2023-07-16	17:24:34	17:42:06	1046405	608da9dd3e630867a6efd9b2	3	1	practice_slash	5	practice_slash	23	stimuli_distractor_diamondtriangles.svg	stimuli_distractor_diamondtriangles.svg	13	no	0	1	2000	0	0			0	0			1				0	
6.6.1	win	2023-07-16	17:24:34	17:42:06	1046405	608da9dd3e630867a6efd9b2	3	1	practice_slash	5	advance_on_keypress_SLASH	24	stimuli_distractor_diamondtriangles.svg	stimuli_distractor_diamondtriangles.svg	13	no	57	0	8656	0	0			0	0			1				0	
6.6.1	win	2023-07-16	17:24:34	17:42:17	1057336	608da9dd3e630867a6efd9b2	3	1	practice_slash	5	practice_slash	25	stimuli_target_diamondsquares.svg	stimuli_distractor_diamondtriangles.svg	3	yes	53	1	626	0	0			0	0			1				0	
6.6.1	win	2023-07-16	17:24:34	17:42:17	1057336	608da9dd3e630867a6efd9b2	3	1	practice_slash	5	advance_on_keypress_SLASH	26	stimuli_target_diamondsquares.svg	stimuli_distractor_diamondtriangles.svg	3	yes	57	0	679	0	0			0	0			1				0	
6.6.1	win	2023-07-16	17:24:34	17:42:20	1060191	608da9dd3e630867a6efd9b2	3	1	practice_slash	5	practice_slash	27	stimuli_target_squarediamonds.svg	stimuli_distractor_trianglediamonds.svg	5	yes	53	1	516	0	0			0	0			1				0	
6.6.1	win	2023-07-16	17:24:34	17:42:20	1060191	608da9dd3e630867a6efd9b2	3	1	practice_slash	5	advance_on_keypress_SLASH	28	stimuli_target_squarediamonds.svg	stimuli_distractor_trianglediamonds.svg	5	yes	57	0	681	0	0			0	0			1				0	
6.6.1	win	2023-07-16	17:24:34	17:42:23	1063035	608da9dd3e630867a6efd9b2	3	1	practice_slash	5	practice_slash	29	stimuli_distractor_diamondtriangles.svg	stimuli_target_diamondrectangles.svg	8	yes	53	1	511	0	0			0	0			1				0	
6.6.1	win	2023-07-16	17:24:34	17:42:23	1063035	608da9dd3e630867a6efd9b2	3	1	practice_slash	5	advance_on_keypress_SLASH	30	stimuli_distractor_diamondtriangles.svg	stimuli_target_diamondrectangles.svg	8	yes	57	0	725	0	0			0	0			1				0	
6.6.1	win	2023-07-16	17:24:34	17:42:26	1065905	608da9dd3e630867a6efd9b2	3	1	practice_slash	5	practice_slash	31	stimuli_distractor_trianglediamonds.svg	stimuli_target_rectanglediamonds.svg	10	yes	53	1	487	0	0			0	0			1				0	
6.6.1	win	2023-07-16	17:24:34	17:42:26	1065905	608da9dd3e630867a6efd9b2	3	1	practice_slash	5	advance_on_keypress_SLASH	32	stimuli_distractor_trianglediamonds.svg	stimuli_target_rectanglediamonds.svg	10	yes	57	0	664	0	0			0	0			1				0	
6.6.1	win	2023-07-16	17:24:34	17:42:37	1077132	608da9dd3e630867a6efd9b2	3	1	main_slash	7	main_slash	1	stimuli_target_trianglerectangles.svg	stimuli_distractor_diamondtriangles.svg	21	yes	53	1	576	0	0			0	0			1				0	
6.6.1	win	2023-07-16	17:24:34	17:42:37	1077132	608da9dd3e630867a6efd9b2	3	1	main_slash	7	advance_on_keypress_SLASH	2	stimuli_target_trianglerectangles.svg	stimuli_distractor_diamondtriangles.svg	21	yes	57	0	1150	0	0			0	0			1				0	
6.6.1	win	2023-07-16	17:24:34	17:42:39	1079287	608da9dd3e630867a6efd9b2	3	1	main_slash	7	main_slash	3	stimuli_target_rectanglediamonds.svg	stimuli_distractor_trianglediamonds.svg	2	yes	53	1	350	0	0			0	0			1				0	
6.6.1	win	2023-07-16	17:24:34	17:42:39	1079287	608da9dd3e630867a6efd9b2	3	1	main_slash	7	advance_on_keypress_SLASH	4	stimuli_target_rectanglediamonds.svg	stimuli_distractor_trianglediamonds.svg	2	yes	57	0	1546	0	0			0	0			1				0	
6.6.1	win	2023-07-16	17:24:34	17:42:42	1081890	608da9dd3e630867a6efd9b2	3	1	main_slash	7	main_slash	5	stimuli_distractor_trianglediamonds.svg	stimuli_distractor_trianglediamonds.svg	34	no	53	0	407	0	0			0	0			1				0	
6.6.1	win	2023-07-16	17:24:34	17:42:42	1081890	608da9dd3e630867a6efd9b2	3	1	main_slash	7	advance_on_keypress_SLASH	6	stimuli_distractor_trianglediamonds.svg	stimuli_distractor_trianglediamonds.svg	34	no	57	0	1198	0	0			0	0			1				0	
6.6.1	win	2023-07-16	17:24:34	17:42:44	1084458	608da9dd3e630867a6efd9b2	3	1	main_slash	7	main_slash	7	stimuli_target_rectanglediamonds.svg	stimuli_distractor_diamondtriangles.svg	6	yes	53	1	726	0	0			0	0			1				0	
6.6.1	win	2023-07-16	17:24:34	17:42:44	1084458	608da9dd3e630867a6efd9b2	3	1	main_slash	7	advance_on_keypress_SLASH	8	stimuli_target_rectanglediamonds.svg	stimuli_distractor_diamondtriangles.svg	6	yes	57	0	1033	0	0			0	0			1				0	
6.6.1	win	2023-07-16	17:24:34	17:42:46	1086434	608da9dd3e630867a6efd9b2	3	1	main_slash	7	main_slash	9	stimuli_distractor_diamondtriangles.svg	stimuli_target_rectanglediamonds.svg	14	yes	53	1	287	0	0			0	0			1				0	
6.6.1	win	2023-07-16	17:24:34	17:42:46	1086434	608da9dd3e630867a6efd9b2	3	1	main_slash	7	advance_on_keypress_SLASH	10	stimuli_distractor_diamondtriangles.svg	stimuli_target_rectanglediamonds.svg	14	yes	57	0	1120	0	0			0	0			1				0	
6.6.1	win	2023-07-16	17:24:34	17:42:48	1088542	608da9dd3e630867a6efd9b2	3	1	main_slash	7	main_slash	11	stimuli_target_rectangletriangles.svg	stimuli_distractor_diamondtriangles.svg	5	yes	53	1	348	0	0			0	0			1				0	
6.6.1	win	2023-07-16	17:24:34	17:42:48	1088542	608da9dd3e630867a6efd9b2	3	1	main_slash	7	advance_on_keypress_SLASH	12	stimuli_target_rectangletriangles.svg	stimuli_distractor_diamondtriangles.svg	5	yes	57	0	770	0	0			0	0			1				0	
6.6.1	win	2023-07-16	17:24:34	17:42:52	1091959	608da9dd3e630867a6efd9b2	3	1	main_slash	7	main_slash	13	stimuli_distractor_diamondtriangles.svg	stimuli_distractor_diamondtriangles.svg	40	no	0	1	2000	0	0			0	0			1				0	
6.6.1	win	2023-07-16	17:24:34	17:42:52	1091959	608da9dd3e630867a6efd9b2	3	1	main_slash	7	advance_on_keypress_SLASH	14	stimuli_distractor_diamondtriangles.svg	stimuli_distractor_diamondtriangles.svg	40	no	57	0	814	0	0			0	0			1				0	
6.6.1	win	2023-07-16	17:24:34	17:42:54	1093839	608da9dd3e630867a6efd9b2	3	1	main_slash	7	main_slash	15	stimuli_distractor_diamondtriangles.svg	stimuli_target_squarediamonds.svg	16	yes	53	1	417	0	0			0	0			1				0	
6.6.1	win	2023-07-16	17:24:34	17:42:54	1093839	608da9dd3e630867a6efd9b2	3	1	main_slash	7	advance_on_keypress_SLASH	16	stimuli_distractor_diamondtriangles.svg	stimuli_target_squarediamonds.svg	16	yes	57	0	1216	0	0			0	0			1				0	
6.6.1	win	2023-07-16	17:24:34	17:42:56	1096034	608da9dd3e630867a6efd9b2	3	1	main_slash	7	main_slash	17	stimuli_target_squaretriangles.svg	stimuli_distractor_trianglediamonds.svg	3	yes	53	1	329	0	0			0	0			1				0	
6.6.1	win	2023-07-16	17:24:34	17:42:56	1096034	608da9dd3e630867a6efd9b2	3	1	main_slash	7	advance_on_keypress_SLASH	18	stimuli_target_squaretriangles.svg	stimuli_distractor_trianglediamonds.svg	3	yes	57	0	883	0	0			0	0			1				0	
6.6.1	win	2023-07-16	17:24:34	17:42:59	1099569	608da9dd3e630867a6efd9b2	3	1	main_slash	7	main_slash	19	stimuli_target_trianglerectangles.svg	stimuli_distractor_trianglediamonds.svg	17	yes	0	0	2000	0	0			0	0			1				0	
6.6.1	win	2023-07-16	17:24:34	17:42:59	1099569	608da9dd3e630867a6efd9b2	3	1	main_slash	7	advance_on_keypress_SLASH	20	stimuli_target_trianglerectangles.svg	stimuli_distractor_trianglediamonds.svg	17	yes	57	0	779	0	0			0	0			1				0	
6.6.1	win	2023-07-16	17:24:34	17:43:01	1101505	608da9dd3e630867a6efd9b2	3	1	main_slash	7	main_slash	21	stimuli_target_diamondsquares.svg	stimuli_distractor_trianglediamonds.svg	20	yes	53	1	503	0	0			0	0			1				0	
6.6.1	win	2023-07-16	17:24:34	17:43:01	1101505	608da9dd3e630867a6efd9b2	3	1	main_slash	7	advance_on_keypress_SLASH	22	stimuli_target_diamondsquares.svg	stimuli_distractor_trianglediamonds.svg	20	yes	57	0	943	0	0			0	0			1				0	
6.6.1	win	2023-07-16	17:24:34	17:43:03	1103535	608da9dd3e630867a6efd9b2	3	1	main_slash	7	main_slash	23	stimuli_distractor_trianglediamonds.svg	stimuli_target_diamondsquares.svg	28	yes	53	1	438	0	0			0	0			1				0	
6.6.1	win	2023-07-16	17:24:34	17:43:03	1103535	608da9dd3e630867a6efd9b2	3	1	main_slash	7	advance_on_keypress_SLASH	24	stimuli_distractor_trianglediamonds.svg	stimuli_target_diamondsquares.svg	28	yes	57	0	842	0	0			0	0			1				0	
6.6.1	win	2023-07-16	17:24:34	17:43:05	1105386	608da9dd3e630867a6efd9b2	3	1	main_slash	7	main_slash	25	stimuli_distractor_diamondtriangles.svg	stimuli_target_diamondsquares.svg	32	yes	53	1	374	0	0			0	0			1				0	
6.6.1	win	2023-07-16	17:24:34	17:43:05	1105386	608da9dd3e630867a6efd9b2	3	1	main_slash	7	advance_on_keypress_SLASH	26	stimuli_distractor_diamondtriangles.svg	stimuli_target_diamondsquares.svg	32	yes	57	0	954	0	0			0	0			1				0	
6.6.1	win	2023-07-16	17:24:34	17:43:07	1107335	608da9dd3e630867a6efd9b2	3	1	main_slash	7	main_slash	27	stimuli_distractor_trianglediamonds.svg	stimuli_target_squaretriangles.svg	11	yes	53	1	358	0	0			0	0			1				0	
6.6.1	win	2023-07-16	17:24:34	17:43:07	1107335	608da9dd3e630867a6efd9b2	3	1	main_slash	7	advance_on_keypress_SLASH	28	stimuli_distractor_trianglediamonds.svg	stimuli_target_squaretriangles.svg	11	yes	57	0	795	0	0			0	0			1				0	
6.6.1	win	2023-07-16	17:24:34	17:43:11	1110775	608da9dd3e630867a6efd9b2	3	1	main_slash	7	main_slash	29	stimuli_target_diamondrectangles.svg	stimuli_distractor_trianglediamonds.svg	19	yes	0	0	2000	0	0			0	0			1				0	
6.6.1	win	2023-07-16	17:24:34	17:43:11	1110775	608da9dd3e630867a6efd9b2	3	1	main_slash	7	advance_on_keypress_SLASH	30	stimuli_target_diamondrectangles.svg	stimuli_distractor_trianglediamonds.svg	19	yes	57	0	615	0	0			0	0			1				0	
6.6.1	win	2023-07-16	17:24:34	17:43:12	1112411	608da9dd3e630867a6efd9b2	3	1	main_slash	7	main_slash	31	stimuli_target_trianglesquares.svg	stimuli_distractor_trianglediamonds.svg	18	yes	53	1	371	0	0			0	0			1				0	
6.6.1	win	2023-07-16	17:24:34	17:43:12	1112411	608da9dd3e630867a6efd9b2	3	1	main_slash	7	advance_on_keypress_SLASH	32	stimuli_target_trianglesquares.svg	stimuli_distractor_trianglediamonds.svg	18	yes	57	0	843	0	0			0	0			1				0	
6.6.1	win	2023-07-16	17:24:34	17:43:14	1114223	608da9dd3e630867a6efd9b2	3	1	main_slash	7	main_slash	33	stimuli_distractor_diamondtriangles.svg	stimuli_target_trianglesquares.svg	30	yes	53	1	319	0	0			0	0			1				0	
6.6.1	win	2023-07-16	17:24:34	17:43:14	1114223	608da9dd3e630867a6efd9b2	3	1	main_slash	7	advance_on_keypress_SLASH	34	stimuli_distractor_diamondtriangles.svg	stimuli_target_trianglesquares.svg	30	yes	57	0	804	0	0			0	0			1				0	
6.6.1	win	2023-07-16	17:24:34	17:43:16	1116013	608da9dd3e630867a6efd9b2	3	1	main_slash	7	main_slash	35	stimuli_distractor_trianglediamonds.svg	stimuli_target_trianglerectangles.svg	25	yes	53	1	344	0	0			0	0			1				0	
6.6.1	win	2023-07-16	17:24:34	17:43:16	1116013	608da9dd3e630867a6efd9b2	3	1	main_slash	7	advance_on_keypress_SLASH	36	stimuli_distractor_trianglediamonds.svg	stimuli_target_trianglerectangles.svg	25	yes	57	0	672	0	0			0	0			1				0	
6.6.1	win	2023-07-16	17:24:34	17:43:18	1117715	608da9dd3e630867a6efd9b2	3	1	main_slash	7	main_slash	37	stimuli_target_trianglesquares.svg	stimuli_distractor_diamondtriangles.svg	22	yes	53	1	381	0	0			0	0			1				0	
6.6.1	win	2023-07-16	17:24:34	17:43:18	1117715	608da9dd3e630867a6efd9b2	3	1	main_slash	7	advance_on_keypress_SLASH	38	stimuli_target_trianglesquares.svg	stimuli_distractor_diamondtriangles.svg	22	yes	57	0	3	0	0			0	0			1				0	
6.6.1	win	2023-07-16	17:24:34	17:43:20	1120365	608da9dd3e630867a6efd9b2	3	1	main_slash	7	main_slash	39	stimuli_distractor_trianglediamonds.svg	stimuli_distractor_diamondtriangles.svg	35	no	0	1	2000	0	0			0	0			1				0	
6.6.1	win	2023-07-16	17:24:34	17:43:20	1120365	608da9dd3e630867a6efd9b2	3	1	main_slash	7	advance_on_keypress_SLASH	40	stimuli_distractor_trianglediamonds.svg	stimuli_distractor_diamondtriangles.svg	35	no	57	0	734	0	0			0	0			1				0	
6.6.1	win	2023-07-16	17:24:34	17:43:22	1122073	608da9dd3e630867a6efd9b2	3	1	main_slash	7	main_slash	41	stimuli_target_rectangletriangles.svg	stimuli_distractor_trianglediamonds.svg	1	yes	53	1	326	0	0			0	0			1				0	
6.6.1	win	2023-07-16	17:24:34	17:43:22	1122073	608da9dd3e630867a6efd9b2	3	1	main_slash	7	advance_on_keypress_SLASH	42	stimuli_target_rectangletriangles.svg	stimuli_distractor_trianglediamonds.svg	1	yes	57	0	765	0	0			0	0			1				0	
6.6.1	win	2023-07-16	17:24:34	17:43:24	1123902	608da9dd3e630867a6efd9b2	3	1	main_slash	7	main_slash	43	stimuli_distractor_diamondtriangles.svg	stimuli_target_trianglerectangles.svg	29	yes	53	1	406	0	0			0	0			1				0	
6.6.1	win	2023-07-16	17:24:34	17:43:24	1123902	608da9dd3e630867a6efd9b2	3	1	main_slash	7	advance_on_keypress_SLASH	44	stimuli_distractor_diamondtriangles.svg	stimuli_target_trianglerectangles.svg	29	yes	57	0	823	0	0			0	0			1				0	
6.6.1	win	2023-07-16	17:24:34	17:43:26	1125719	608da9dd3e630867a6efd9b2	3	1	main_slash	7	main_slash	45	stimuli_target_diamondsquares.svg	stimuli_distractor_diamondtriangles.svg	24	yes	53	1	343	0	0			0	0			1				0	
6.6.1	win	2023-07-16	17:24:34	17:43:26	1125719	608da9dd3e630867a6efd9b2	3	1	main_slash	7	advance_on_keypress_SLASH	46	stimuli_target_diamondsquares.svg	stimuli_distractor_diamondtriangles.svg	24	yes	57	0	774	0	0			0	0			1				0	
6.6.1	win	2023-07-16	17:24:34	17:43:29	1129141	608da9dd3e630867a6efd9b2	3	1	main_slash	7	main_slash	47	stimuli_distractor_trianglediamonds.svg	stimuli_target_rectangletriangles.svg	9	yes	0	0	2000	0	0			0	0			1				0	
6.6.1	win	2023-07-16	17:24:34	17:43:29	1129141	608da9dd3e630867a6efd9b2	3	1	main_slash	7	advance_on_keypress_SLASH	48	stimuli_distractor_trianglediamonds.svg	stimuli_target_rectangletriangles.svg	9	yes	57	0	716	0	0			0	0			1				0	
6.6.1	win	2023-07-16	17:24:34	17:43:31	1130805	608da9dd3e630867a6efd9b2	3	1	main_slash	7	main_slash	49	stimuli_distractor_trianglediamonds.svg	stimuli_target_diamondrectangles.svg	27	yes	53	1	301	0	0			0	0			1				0	
6.6.1	win	2023-07-16	17:24:34	17:43:31	1130805	608da9dd3e630867a6efd9b2	3	1	main_slash	7	advance_on_keypress_SLASH	50	stimuli_distractor_trianglediamonds.svg	stimuli_target_diamondrectangles.svg	27	yes	57	0	758	0	0			0	0			1				0	
6.6.1	win	2023-07-16	17:24:34	17:43:32	1132516	608da9dd3e630867a6efd9b2	3	1	main_slash	7	main_slash	51	stimuli_distractor_trianglediamonds.svg	stimuli_distractor_diamondtriangles.svg	36	no	53	0	314	0	0			0	0			1				0	
6.6.1	win	2023-07-16	17:24:34	17:43:32	1132516	608da9dd3e630867a6efd9b2	3	1	main_slash	7	advance_on_keypress_SLASH	52	stimuli_distractor_trianglediamonds.svg	stimuli_distractor_diamondtriangles.svg	36	no	57	0	679	0	0			0	0			1				0	
6.6.1	win	2023-07-16	17:24:34	17:43:36	1135852	608da9dd3e630867a6efd9b2	3	1	main_slash	7	main_slash	53	stimuli_distractor_trianglediamonds.svg	stimuli_target_trianglesquares.svg	26	yes	0	0	2000	0	0			0	0			1				0	
6.6.1	win	2023-07-16	17:24:34	17:43:36	1135852	608da9dd3e630867a6efd9b2	3	1	main_slash	7	advance_on_keypress_SLASH	54	stimuli_distractor_trianglediamonds.svg	stimuli_target_trianglesquares.svg	26	yes	57	0	590	0	0			0	0			1				0	
6.6.1	win	2023-07-16	17:24:34	17:43:37	1137468	608da9dd3e630867a6efd9b2	3	1	main_slash	7	main_slash	55	stimuli_target_diamondrectangles.svg	stimuli_distractor_diamondtriangles.svg	23	yes	53	1	387	0	0			0	0			1				0	
6.6.1	win	2023-07-16	17:24:34	17:43:37	1137468	608da9dd3e630867a6efd9b2	3	1	main_slash	7	advance_on_keypress_SLASH	56	stimuli_target_diamondrectangles.svg	stimuli_distractor_diamondtriangles.svg	23	yes	57	0	871	0	0			0	0			1				0	
6.6.1	win	2023-07-16	17:24:34	17:43:39	1139248	608da9dd3e630867a6efd9b2	3	1	main_slash	7	main_slash	57	stimuli_distractor_diamondtriangles.svg	stimuli_target_diamondrectangles.svg	31	yes	53	1	269	0	0			0	0			1				0	
6.6.1	win	2023-07-16	17:24:34	17:43:39	1139248	608da9dd3e630867a6efd9b2	3	1	main_slash	7	advance_on_keypress_SLASH	58	stimuli_distractor_diamondtriangles.svg	stimuli_target_diamondrectangles.svg	31	yes	57	0	709	0	0			0	0			1				0	
6.6.1	win	2023-07-16	17:24:34	17:43:42	1142611	608da9dd3e630867a6efd9b2	3	1	main_slash	7	main_slash	59	stimuli_distractor_diamondtriangles.svg	stimuli_distractor_diamondtriangles.svg	39	no	0	1	2000	0	0			0	0			1				0	
6.6.1	win	2023-07-16	17:24:34	17:43:42	1142611	608da9dd3e630867a6efd9b2	3	1	main_slash	7	advance_on_keypress_SLASH	60	stimuli_distractor_diamondtriangles.svg	stimuli_distractor_diamondtriangles.svg	39	no	57	0	658	0	0			0	0			1				0	
6.6.1	win	2023-07-16	17:24:34	17:43:46	1145908	608da9dd3e630867a6efd9b2	3	1	main_slash	7	main_slash	61	stimuli_distractor_diamondtriangles.svg	stimuli_distractor_trianglediamonds.svg	37	no	0	1	2000	0	0			0	0			1				0	
6.6.1	win	2023-07-16	17:24:34	17:43:46	1145908	608da9dd3e630867a6efd9b2	3	1	main_slash	7	advance_on_keypress_SLASH	62	stimuli_distractor_diamondtriangles.svg	stimuli_distractor_trianglediamonds.svg	37	no	57	0	393	0	0			0	0			1				0	
6.6.1	win	2023-07-16	17:24:34	17:43:47	1147393	608da9dd3e630867a6efd9b2	3	1	main_slash	7	main_slash	63	stimuli_target_squarediamonds.svg	stimuli_distractor_diamondtriangles.svg	8	yes	53	1	438	0	0			0	0			1				0	
6.6.1	win	2023-07-16	17:24:34	17:43:47	1147393	608da9dd3e630867a6efd9b2	3	1	main_slash	7	advance_on_keypress_SLASH	64	stimuli_target_squarediamonds.svg	stimuli_distractor_diamondtriangles.svg	8	yes	57	0	747	0	0			0	0			1				0	
6.6.1	win	2023-07-16	17:24:34	17:43:49	1149168	608da9dd3e630867a6efd9b2	3	1	main_slash	7	main_slash	65	stimuli_distractor_trianglediamonds.svg	stimuli_target_squarediamonds.svg	12	yes	53	1	367	0	0			0	0			1				0	
6.6.1	win	2023-07-16	17:24:34	17:43:49	1149168	608da9dd3e630867a6efd9b2	3	1	main_slash	7	advance_on_keypress_SLASH	66	stimuli_distractor_trianglediamonds.svg	stimuli_target_squarediamonds.svg	12	yes	57	0	667	0	0			0	0			1				0	
6.6.1	win	2023-07-16	17:24:34	17:43:51	1150756	608da9dd3e630867a6efd9b2	3	1	main_slash	7	main_slash	67	stimuli_distractor_diamondtriangles.svg	stimuli_target_squaretriangles.svg	15	yes	53	1	269	0	0			0	0			1				0	
6.6.1	win	2023-07-16	17:24:34	17:43:51	1150756	608da9dd3e630867a6efd9b2	3	1	main_slash	7	advance_on_keypress_SLASH	68	stimuli_distractor_diamondtriangles.svg	stimuli_target_squaretriangles.svg	15	yes	57	0	919	0	0			0	0			1				0	
6.6.1	win	2023-07-16	17:24:34	17:43:54	1154317	608da9dd3e630867a6efd9b2	3	1	main_slash	7	main_slash	69	stimuli_distractor_diamondtriangles.svg	stimuli_distractor_trianglediamonds.svg	38	no	0	1	2000	0	0			0	0			1				0	
6.6.1	win	2023-07-16	17:24:34	17:43:54	1154317	608da9dd3e630867a6efd9b2	3	1	main_slash	7	advance_on_keypress_SLASH	70	stimuli_distractor_diamondtriangles.svg	stimuli_distractor_trianglediamonds.svg	38	no	57	0	956	0	0			0	0			1				0	
6.6.1	win	2023-07-16	17:24:34	17:43:56	1156256	608da9dd3e630867a6efd9b2	3	1	main_slash	7	main_slash	71	stimuli_target_squaretriangles.svg	stimuli_distractor_diamondtriangles.svg	7	yes	53	1	342	0	0			0	0			1				0	
6.6.1	win	2023-07-16	17:24:34	17:43:56	1156256	608da9dd3e630867a6efd9b2	3	1	main_slash	7	advance_on_keypress_SLASH	72	stimuli_target_squaretriangles.svg	stimuli_distractor_diamondtriangles.svg	7	yes	57	0	791	0	0			0	0			1				0	
6.6.1	win	2023-07-16	17:24:34	17:43:58	1158027	608da9dd3e630867a6efd9b2	3	1	main_slash	7	main_slash	73	stimuli_distractor_trianglediamonds.svg	stimuli_target_rectanglediamonds.svg	10	yes	53	1	331	0	0			0	0			1				0	
6.6.1	win	2023-07-16	17:24:34	17:43:58	1158027	608da9dd3e630867a6efd9b2	3	1	main_slash	7	advance_on_keypress_SLASH	74	stimuli_distractor_trianglediamonds.svg	stimuli_target_rectanglediamonds.svg	10	yes	57	0	958	0	0			0	0			1				0	
6.6.1	win	2023-07-16	17:24:34	17:44:00	1159961	608da9dd3e630867a6efd9b2	3	1	main_slash	7	main_slash	75	stimuli_target_squarediamonds.svg	stimuli_distractor_trianglediamonds.svg	4	yes	53	1	317	0	0			0	0			1				0	
6.6.1	win	2023-07-16	17:24:34	17:44:00	1159961	608da9dd3e630867a6efd9b2	3	1	main_slash	7	advance_on_keypress_SLASH	76	stimuli_target_squarediamonds.svg	stimuli_distractor_trianglediamonds.svg	4	yes	57	0	635	0	0			0	0			1				0	
6.6.1	win	2023-07-16	17:24:34	17:44:01	1161537	608da9dd3e630867a6efd9b2	3	1	main_slash	7	main_slash	77	stimuli_distractor_diamondtriangles.svg	stimuli_target_rectangletriangles.svg	13	yes	53	1	295	0	0			0	0			1				0	
6.6.1	win	2023-07-16	17:24:34	17:44:01	1161537	608da9dd3e630867a6efd9b2	3	1	main_slash	7	advance_on_keypress_SLASH	78	stimuli_distractor_diamondtriangles.svg	stimuli_target_rectangletriangles.svg	13	yes	57	0	667	0	0			0	0			1				0	
6.6.1	win	2023-07-16	17:24:34	17:44:05	1164858	608da9dd3e630867a6efd9b2	3	1	main_slash	7	main_slash	79	stimuli_distractor_trianglediamonds.svg	stimuli_distractor_trianglediamonds.svg	33	no	0	1	2000	0	0			0	0			1				0	
6.6.1	win	2023-07-16	17:24:34	17:44:05	1164858	608da9dd3e630867a6efd9b2	3	1	main_slash	7	advance_on_keypress_SLASH	80	stimuli_distractor_trianglediamonds.svg	stimuli_distractor_trianglediamonds.svg	33	no	57	0	620	0	0			0	0			1				0	
6.6.1	win	2023-07-16	17:24:34	17:44:06	1166449	608da9dd3e630867a6efd9b2	3	1	main_slash	7	main_slash	81	stimuli_distractor_trianglediamonds.svg	stimuli_target_squaretriangles.svg	11	yes	53	1	328	0	0			0	0			1				0	
6.6.1	win	2023-07-16	17:24:34	17:44:06	1166449	608da9dd3e630867a6efd9b2	3	1	main_slash	7	advance_on_keypress_SLASH	82	stimuli_distractor_trianglediamonds.svg	stimuli_target_squaretriangles.svg	11	yes	57	0	881	0	0			0	0			1				0	
6.6.1	win	2023-07-16	17:24:34	17:44:08	1168271	608da9dd3e630867a6efd9b2	3	1	main_slash	7	main_slash	83	stimuli_distractor_diamondtriangles.svg	stimuli_target_rectangletriangles.svg	13	yes	53	1	283	0	0			0	0			1				0	
6.6.1	win	2023-07-16	17:24:34	17:44:08	1168271	608da9dd3e630867a6efd9b2	3	1	main_slash	7	advance_on_keypress_SLASH	84	stimuli_distractor_diamondtriangles.svg	stimuli_target_rectangletriangles.svg	13	yes	57	0	762	0	0			0	0			1				0	
6.6.1	win	2023-07-16	17:24:34	17:44:10	1169997	608da9dd3e630867a6efd9b2	3	1	main_slash	7	main_slash	85	stimuli_target_squarediamonds.svg	stimuli_distractor_diamondtriangles.svg	8	yes	53	1	311	0	0			0	0			1				0	
6.6.1	win	2023-07-16	17:24:34	17:44:10	1169997	608da9dd3e630867a6efd9b2	3	1	main_slash	7	advance_on_keypress_SLASH	86	stimuli_target_squarediamonds.svg	stimuli_distractor_diamondtriangles.svg	8	yes	57	0	732	0	0			0	0			1				0	
6.6.1	win	2023-07-16	17:24:34	17:44:13	1173383	608da9dd3e630867a6efd9b2	3	1	main_slash	7	main_slash	87	stimuli_target_diamondrectangles.svg	stimuli_distractor_trianglediamonds.svg	19	yes	0	0	2000	0	0			0	0			1				0	
6.6.1	win	2023-07-16	17:24:34	17:44:13	1173383	608da9dd3e630867a6efd9b2	3	1	main_slash	7	advance_on_keypress_SLASH	88	stimuli_target_diamondrectangles.svg	stimuli_distractor_trianglediamonds.svg	19	yes	57	0	678	0	0			0	0			1				0	
6.6.1	win	2023-07-16	17:24:34	17:44:15	1175311	608da9dd3e630867a6efd9b2	3	1	main_slash	7	main_slash	89	stimuli_target_diamondsquares.svg	stimuli_distractor_trianglediamonds.svg	20	yes	53	1	598	0	0			0	0			1				0	
6.6.1	win	2023-07-16	17:24:34	17:44:15	1175311	608da9dd3e630867a6efd9b2	3	1	main_slash	7	advance_on_keypress_SLASH	90	stimuli_target_diamondsquares.svg	stimuli_distractor_trianglediamonds.svg	20	yes	57	0	681	0	0			0	0			1				0	
6.6.1	win	2023-07-16	17:24:34	17:44:18	1178644	608da9dd3e630867a6efd9b2	3	1	main_slash	7	main_slash	91	stimuli_distractor_trianglediamonds.svg	stimuli_distractor_trianglediamonds.svg	33	no	0	1	2000	0	0			0	0			1				0	
6.6.1	win	2023-07-16	17:24:34	17:44:18	1178644	608da9dd3e630867a6efd9b2	3	1	main_slash	7	advance_on_keypress_SLASH	92	stimuli_distractor_trianglediamonds.svg	stimuli_distractor_trianglediamonds.svg	33	no	57	0	546	0	0			0	0			1				0	
6.6.1	win	2023-07-16	17:24:34	17:44:20	1180254	608da9dd3e630867a6efd9b2	3	1	main_slash	7	main_slash	93	stimuli_distractor_trianglediamonds.svg	stimuli_target_trianglesquares.svg	26	yes	53	1	411	0	0			0	0			1				0	
6.6.1	win	2023-07-16	17:24:34	17:44:20	1180254	608da9dd3e630867a6efd9b2	3	1	main_slash	7	advance_on_keypress_SLASH	94	stimuli_distractor_trianglediamonds.svg	stimuli_target_trianglesquares.svg	26	yes	57	0	931	0	0			0	0			1				0	
6.6.1	win	2023-07-16	17:24:34	17:44:22	1182193	608da9dd3e630867a6efd9b2	3	1	main_slash	7	main_slash	95	stimuli_target_trianglesquares.svg	stimuli_distractor_trianglediamonds.svg	18	yes	53	1	353	0	0			0	0			1				0	
6.6.1	win	2023-07-16	17:24:34	17:44:22	1182193	608da9dd3e630867a6efd9b2	3	1	main_slash	7	advance_on_keypress_SLASH	96	stimuli_target_trianglesquares.svg	stimuli_distractor_trianglediamonds.svg	18	yes	57	0	751	0	0			0	0			1				0	
6.6.1	win	2023-07-16	17:24:34	17:44:25	1185587	608da9dd3e630867a6efd9b2	3	1	main_slash	7	main_slash	97	stimuli_distractor_diamondtriangles.svg	stimuli_target_squarediamonds.svg	16	yes	0	0	2000	0	0			0	0			1				0	
6.6.1	win	2023-07-16	17:24:34	17:44:25	1185587	608da9dd3e630867a6efd9b2	3	1	main_slash	7	advance_on_keypress_SLASH	98	stimuli_distractor_diamondtriangles.svg	stimuli_target_squarediamonds.svg	16	yes	57	0	465	0	0			0	0			1				0	
6.6.1	win	2023-07-16	17:24:34	17:44:28	1188702	608da9dd3e630867a6efd9b2	3	1	main_slash	7	main_slash	99	stimuli_distractor_trianglediamonds.svg	stimuli_distractor_diamondtriangles.svg	35	no	0	1	2000	0	0			0	0			1				0	
6.6.1	win	2023-07-16	17:24:34	17:44:28	1188702	608da9dd3e630867a6efd9b2	3	1	main_slash	7	advance_on_keypress_SLASH	100	stimuli_distractor_trianglediamonds.svg	stimuli_distractor_diamondtriangles.svg	35	no	57	0	319	0	0			0	0			1				0	
6.6.1	win	2023-07-16	17:24:34	17:44:30	1190137	608da9dd3e630867a6efd9b2	3	1	main_slash	7	main_slash	101	stimuli_distractor_diamondtriangles.svg	stimuli_target_trianglerectangles.svg	29	yes	53	1	472	0	0			0	0			1				0	
6.6.1	win	2023-07-16	17:24:34	17:44:30	1190137	608da9dd3e630867a6efd9b2	3	1	main_slash	7	advance_on_keypress_SLASH	102	stimuli_distractor_diamondtriangles.svg	stimuli_target_trianglerectangles.svg	29	yes	57	0	772	0	0			0	0			1				0	
6.6.1	win	2023-07-16	17:24:34	17:44:32	1191865	608da9dd3e630867a6efd9b2	3	1	main_slash	7	main_slash	103	stimuli_target_diamondrectangles.svg	stimuli_distractor_diamondtriangles.svg	23	yes	53	1	317	0	0			0	0			1				0	
6.6.1	win	2023-07-16	17:24:34	17:44:32	1191865	608da9dd3e630867a6efd9b2	3	1	main_slash	7	advance_on_keypress_SLASH	104	stimuli_target_diamondrectangles.svg	stimuli_distractor_diamondtriangles.svg	23	yes	57	0	751	0	0			0	0			1				0	
6.6.1	win	2023-07-16	17:24:34	17:44:35	1195262	608da9dd3e630867a6efd9b2	3	1	main_slash	7	main_slash	105	stimuli_distractor_trianglediamonds.svg	stimuli_distractor_trianglediamonds.svg	34	no	0	1	2000	0	0			0	0			1				0	
6.6.1	win	2023-07-16	17:24:34	17:44:35	1195262	608da9dd3e630867a6efd9b2	3	1	main_slash	7	advance_on_keypress_SLASH	106	stimuli_distractor_trianglediamonds.svg	stimuli_distractor_trianglediamonds.svg	34	no	57	0	512	0	0			0	0			1				0	
6.6.1	win	2023-07-16	17:24:34	17:44:38	1198426	608da9dd3e630867a6efd9b2	3	1	main_slash	7	main_slash	107	stimuli_target_trianglerectangles.svg	stimuli_distractor_trianglediamonds.svg	17	yes	0	0	2000	0	0			0	0			1				0	
6.6.1	win	2023-07-16	17:24:34	17:44:38	1198426	608da9dd3e630867a6efd9b2	3	1	main_slash	7	advance_on_keypress_SLASH	108	stimuli_target_trianglerectangles.svg	stimuli_distractor_trianglediamonds.svg	17	yes	57	0	275	0	0			0	0			1				0	
6.6.1	win	2023-07-16	17:24:34	17:44:41	1201356	608da9dd3e630867a6efd9b2	3	1	main_slash	7	main_slash	109	stimuli_distractor_diamondtriangles.svg	stimuli_distractor_diamondtriangles.svg	40	no	0	1	2000	0	0			0	0			1				0	
6.6.1	win	2023-07-16	17:24:34	17:44:41	1201356	608da9dd3e630867a6efd9b2	3	1	main_slash	7	advance_on_keypress_SLASH	110	stimuli_distractor_diamondtriangles.svg	stimuli_distractor_diamondtriangles.svg	40	no	57	0	347	0	0			0	0			1				0	
6.6.1	win	2023-07-16	17:24:34	17:44:42	1202556	608da9dd3e630867a6efd9b2	3	1	main_slash	7	main_slash	111	stimuli_target_rectangletriangles.svg	stimuli_distractor_diamondtriangles.svg	5	yes	53	1	203	0	0			0	0			1				0	
6.6.1	win	2023-07-16	17:24:34	17:44:42	1202556	608da9dd3e630867a6efd9b2	3	1	main_slash	7	advance_on_keypress_SLASH	112	stimuli_target_rectangletriangles.svg	stimuli_distractor_diamondtriangles.svg	5	yes	57	0	814	0	0			0	0			1				0	
6.6.1	win	2023-07-16	17:24:34	17:44:46	1206019	608da9dd3e630867a6efd9b2	3	1	main_slash	7	main_slash	113	stimuli_distractor_diamondtriangles.svg	stimuli_distractor_diamondtriangles.svg	39	no	0	1	2000	0	0			0	0			1				0	
6.6.1	win	2023-07-16	17:24:34	17:44:46	1206019	608da9dd3e630867a6efd9b2	3	1	main_slash	7	advance_on_keypress_SLASH	114	stimuli_distractor_diamondtriangles.svg	stimuli_distractor_diamondtriangles.svg	39	no	57	0	334	0	0			0	0			1				0	
6.6.1	win	2023-07-16	17:24:34	17:44:47	1207435	608da9dd3e630867a6efd9b2	3	1	main_slash	7	main_slash	115	stimuli_distractor_diamondtriangles.svg	stimuli_target_squaretriangles.svg	15	yes	53	1	435	0	0			0	0			1				0	
6.6.1	win	2023-07-16	17:24:34	17:44:47	1207435	608da9dd3e630867a6efd9b2	3	1	main_slash	7	advance_on_keypress_SLASH	116	stimuli_distractor_diamondtriangles.svg	stimuli_target_squaretriangles.svg	15	yes	57	0	709	0	0			0	0			1				0	
6.6.1	win	2023-07-16	17:24:34	17:44:49	1209130	608da9dd3e630867a6efd9b2	3	1	main_slash	7	main_slash	117	stimuli_distractor_trianglediamonds.svg	stimuli_target_rectangletriangles.svg	9	yes	53	1	348	0	0			0	0			1				0	
6.6.1	win	2023-07-16	17:24:34	17:44:49	1209130	608da9dd3e630867a6efd9b2	3	1	main_slash	7	advance_on_keypress_SLASH	118	stimuli_distractor_trianglediamonds.svg	stimuli_target_rectangletriangles.svg	9	yes	57	0	955	0	0			0	0			1				0	
6.6.1	win	2023-07-16	17:24:34	17:44:51	1211015	608da9dd3e630867a6efd9b2	3	1	main_slash	7	main_slash	119	stimuli_distractor_trianglediamonds.svg	stimuli_target_diamondrectangles.svg	27	yes	53	1	285	0	0			0	0			1				0	
6.6.1	win	2023-07-16	17:24:34	17:44:51	1211015	608da9dd3e630867a6efd9b2	3	1	main_slash	7	advance_on_keypress_SLASH	120	stimuli_distractor_trianglediamonds.svg	stimuli_target_diamondrectangles.svg	27	yes	57	0	645	0	0			0	0			1				0	
6.6.1	win	2023-07-16	17:24:34	17:44:52	1212612	608da9dd3e630867a6efd9b2	3	1	main_slash	7	main_slash	121	stimuli_target_squaretriangles.svg	stimuli_distractor_diamondtriangles.svg	7	yes	53	1	301	0	0			0	0			1				0	
6.6.1	win	2023-07-16	17:24:34	17:44:52	1212612	608da9dd3e630867a6efd9b2	3	1	main_slash	7	advance_on_keypress_SLASH	122	stimuli_target_squaretriangles.svg	stimuli_distractor_diamondtriangles.svg	7	yes	57	0	936	0	0			0	0			1				0	
6.6.1	win	2023-07-16	17:24:34	17:44:54	1214531	608da9dd3e630867a6efd9b2	3	1	main_slash	7	main_slash	123	stimuli_distractor_diamondtriangles.svg	stimuli_target_diamondrectangles.svg	31	yes	53	1	338	0	0			0	0			1				0	
6.6.1	win	2023-07-16	17:24:34	17:44:54	1214531	608da9dd3e630867a6efd9b2	3	1	main_slash	7	advance_on_keypress_SLASH	124	stimuli_distractor_diamondtriangles.svg	stimuli_target_diamondrectangles.svg	31	yes	57	0	802	0	0			0	0			1				0	
6.6.1	win	2023-07-16	17:24:34	17:44:58	1217976	608da9dd3e630867a6efd9b2	3	1	main_slash	7	main_slash	125	stimuli_distractor_diamondtriangles.svg	stimuli_distractor_trianglediamonds.svg	38	no	0	1	2000	0	0			0	0			1				0	
6.6.1	win	2023-07-16	17:24:34	17:44:58	1217976	608da9dd3e630867a6efd9b2	3	1	main_slash	7	advance_on_keypress_SLASH	126	stimuli_distractor_diamondtriangles.svg	stimuli_distractor_trianglediamonds.svg	38	no	57	0	612	0	0			0	0			1				0	
6.6.1	win	2023-07-16	17:24:34	17:44:59	1219573	608da9dd3e630867a6efd9b2	3	1	main_slash	7	main_slash	127	stimuli_target_trianglerectangles.svg	stimuli_distractor_diamondtriangles.svg	21	yes	53	1	335	0	0			0	0			1				0	
6.6.1	win	2023-07-16	17:24:34	17:44:59	1219573	608da9dd3e630867a6efd9b2	3	1	main_slash	7	advance_on_keypress_SLASH	128	stimuli_target_trianglerectangles.svg	stimuli_distractor_diamondtriangles.svg	21	yes	57	0	924	0	0			0	0			1				0	
6.6.1	win	2023-07-16	17:24:34	17:45:01	1221648	608da9dd3e630867a6efd9b2	3	1	main_slash	7	main_slash	129	stimuli_target_rectangletriangles.svg	stimuli_distractor_trianglediamonds.svg	1	yes	53	1	512	0	0			0	0			1				0	
6.6.1	win	2023-07-16	17:24:34	17:45:01	1221648	608da9dd3e630867a6efd9b2	3	1	main_slash	7	advance_on_keypress_SLASH	130	stimuli_target_rectangletriangles.svg	stimuli_distractor_trianglediamonds.svg	1	yes	57	0	633	0	0			0	0			1				0	
6.6.1	win	2023-07-16	17:24:34	17:45:03	1223199	608da9dd3e630867a6efd9b2	3	1	main_slash	7	main_slash	131	stimuli_distractor_diamondtriangles.svg	stimuli_target_trianglesquares.svg	30	yes	53	1	265	0	0			0	0			1				0	
6.6.1	win	2023-07-16	17:24:34	17:45:03	1223199	608da9dd3e630867a6efd9b2	3	1	main_slash	7	advance_on_keypress_SLASH	132	stimuli_distractor_diamondtriangles.svg	stimuli_target_trianglesquares.svg	30	yes	57	0	755	0	0			0	0			1				0	
6.6.1	win	2023-07-16	17:24:34	17:45:05	1224920	608da9dd3e630867a6efd9b2	3	1	main_slash	7	main_slash	133	stimuli_target_squarediamonds.svg	stimuli_distractor_trianglediamonds.svg	4	yes	53	1	321	0	0			0	0			1				0	
6.6.1	win	2023-07-16	17:24:34	17:45:05	1224920	608da9dd3e630867a6efd9b2	3	1	main_slash	7	advance_on_keypress_SLASH	134	stimuli_target_squarediamonds.svg	stimuli_distractor_trianglediamonds.svg	4	yes	57	0	696	0	0			0	0			1				0	
6.6.1	win	2023-07-16	17:24:34	17:45:06	1226566	608da9dd3e630867a6efd9b2	3	1	main_slash	7	main_slash	135	stimuli_target_rectanglediamonds.svg	stimuli_distractor_diamondtriangles.svg	6	yes	53	1	302	0	0			0	0			1				0	
6.6.1	win	2023-07-16	17:24:34	17:45:06	1226566	608da9dd3e630867a6efd9b2	3	1	main_slash	7	advance_on_keypress_SLASH	136	stimuli_target_rectanglediamonds.svg	stimuli_distractor_diamondtriangles.svg	6	yes	57	0	778	0	0			0	0			1				0	
6.6.1	win	2023-07-16	17:24:34	17:45:08	1228566	608da9dd3e630867a6efd9b2	3	1	main_slash	7	main_slash	137	stimuli_distractor_trianglediamonds.svg	stimuli_target_squarediamonds.svg	12	yes	53	1	570	0	0			0	0			1				0	
6.6.1	win	2023-07-16	17:24:34	17:45:08	1228566	608da9dd3e630867a6efd9b2	3	1	main_slash	7	advance_on_keypress_SLASH	138	stimuli_distractor_trianglediamonds.svg	stimuli_target_squarediamonds.svg	12	yes	57	0	995	0	0			0	0			1				0	
6.6.1	win	2023-07-16	17:24:34	17:45:10	1230562	608da9dd3e630867a6efd9b2	3	1	main_slash	7	main_slash	139	stimuli_distractor_trianglediamonds.svg	stimuli_distractor_diamondtriangles.svg	36	no	53	0	351	0	0			0	0			1				0	
6.6.1	win	2023-07-16	17:24:34	17:45:10	1230562	608da9dd3e630867a6efd9b2	3	1	main_slash	7	advance_on_keypress_SLASH	140	stimuli_distractor_trianglediamonds.svg	stimuli_distractor_diamondtriangles.svg	36	no	57	0	1206	0	0			0	0			1				0	
6.6.1	win	2023-07-16	17:24:34	17:45:14	1234408	608da9dd3e630867a6efd9b2	3	1	main_slash	7	main_slash	141	stimuli_distractor_diamondtriangles.svg	stimuli_target_diamondsquares.svg	32	yes	0	0	2000	0	0			0	0			1				0	
6.6.1	win	2023-07-16	17:24:34	17:45:14	1234408	608da9dd3e630867a6efd9b2	3	1	main_slash	7	advance_on_keypress_SLASH	142	stimuli_distractor_diamondtriangles.svg	stimuli_target_diamondsquares.svg	32	yes	57	0	477	0	0			0	0			1				0	
6.6.1	win	2023-07-16	17:24:34	17:45:16	1235853	608da9dd3e630867a6efd9b2	3	1	main_slash	7	main_slash	143	stimuli_target_diamondsquares.svg	stimuli_distractor_diamondtriangles.svg	24	yes	53	1	314	0	0			0	0			1				0	
6.6.1	win	2023-07-16	17:24:34	17:45:16	1235853	608da9dd3e630867a6efd9b2	3	1	main_slash	7	advance_on_keypress_SLASH	144	stimuli_target_diamondsquares.svg	stimuli_distractor_diamondtriangles.svg	24	yes	57	0	809	0	0			0	0			1				0	
6.6.1	win	2023-07-16	17:24:34	17:45:17	1237635	608da9dd3e630867a6efd9b2	3	1	main_slash	7	main_slash	145	stimuli_target_squaretriangles.svg	stimuli_distractor_trianglediamonds.svg	3	yes	53	1	330	0	0			0	0			1				0	
6.6.1	win	2023-07-16	17:24:34	17:45:17	1237635	608da9dd3e630867a6efd9b2	3	1	main_slash	7	advance_on_keypress_SLASH	146	stimuli_target_squaretriangles.svg	stimuli_distractor_trianglediamonds.svg	3	yes	57	0	858	0	0			0	0			1				0	
6.6.1	win	2023-07-16	17:24:34	17:45:19	1239415	608da9dd3e630867a6efd9b2	3	1	main_slash	7	main_slash	147	stimuli_target_rectanglediamonds.svg	stimuli_distractor_trianglediamonds.svg	2	yes	53	1	279	0	0			0	0			1				0	
6.6.1	win	2023-07-16	17:24:34	17:45:19	1239415	608da9dd3e630867a6efd9b2	3	1	main_slash	7	advance_on_keypress_SLASH	148	stimuli_target_rectanglediamonds.svg	stimuli_distractor_trianglediamonds.svg	2	yes	57	0	647	0	0			0	0			1				0	
6.6.1	win	2023-07-16	17:24:34	17:45:21	1241195	608da9dd3e630867a6efd9b2	3	1	main_slash	7	main_slash	149	stimuli_distractor_diamondtriangles.svg	stimuli_target_rectanglediamonds.svg	14	yes	53	1	477	0	0			0	0			1				0	
6.6.1	win	2023-07-16	17:24:34	17:45:21	1241195	608da9dd3e630867a6efd9b2	3	1	main_slash	7	advance_on_keypress_SLASH	150	stimuli_distractor_diamondtriangles.svg	stimuli_target_rectanglediamonds.svg	14	yes	57	0	521	0	0			0	0			1				0	
6.6.1	win	2023-07-16	17:24:34	17:45:22	1242626	608da9dd3e630867a6efd9b2	3	1	main_slash	7	main_slash	151	stimuli_target_trianglesquares.svg	stimuli_distractor_diamondtriangles.svg	22	yes	53	1	260	0	0			0	0			1				0	
6.6.1	win	2023-07-16	17:24:34	17:45:22	1242626	608da9dd3e630867a6efd9b2	3	1	main_slash	7	advance_on_keypress_SLASH	152	stimuli_target_trianglesquares.svg	stimuli_distractor_diamondtriangles.svg	22	yes	57	0	798	0	0			0	0			1				0	
6.6.1	win	2023-07-16	17:24:34	17:45:26	1246065	608da9dd3e630867a6efd9b2	3	1	main_slash	7	main_slash	153	stimuli_distractor_diamondtriangles.svg	stimuli_distractor_trianglediamonds.svg	37	no	0	1	2000	0	0			0	0			1				0	
6.6.1	win	2023-07-16	17:24:34	17:45:26	1246065	608da9dd3e630867a6efd9b2	3	1	main_slash	7	advance_on_keypress_SLASH	154	stimuli_distractor_diamondtriangles.svg	stimuli_distractor_trianglediamonds.svg	37	no	57	0	527	0	0			0	0			1				0	
6.6.1	win	2023-07-16	17:24:34	17:45:27	1247546	608da9dd3e630867a6efd9b2	3	1	main_slash	7	main_slash	155	stimuli_distractor_trianglediamonds.svg	stimuli_target_rectanglediamonds.svg	10	yes	53	1	300	0	0			0	0			1				0	
6.6.1	win	2023-07-16	17:24:34	17:45:27	1247546	608da9dd3e630867a6efd9b2	3	1	main_slash	7	advance_on_keypress_SLASH	156	stimuli_distractor_trianglediamonds.svg	stimuli_target_rectanglediamonds.svg	10	yes	57	0	606	0	0			0	0			1				0	
6.6.1	win	2023-07-16	17:24:34	17:45:31	1250793	608da9dd3e630867a6efd9b2	3	1	main_slash	7	main_slash	157	stimuli_distractor_trianglediamonds.svg	stimuli_target_trianglerectangles.svg	25	yes	0	0	2000	0	0			0	0			1				0	
6.6.1	win	2023-07-16	17:24:34	17:45:31	1250793	608da9dd3e630867a6efd9b2	3	1	main_slash	7	advance_on_keypress_SLASH	158	stimuli_distractor_trianglediamonds.svg	stimuli_target_trianglerectangles.svg	25	yes	57	0	382	0	0			0	0			1				0	
6.6.1	win	2023-07-16	17:24:34	17:45:32	1252147	608da9dd3e630867a6efd9b2	3	1	main_slash	7	main_slash	159	stimuli_distractor_trianglediamonds.svg	stimuli_target_diamondsquares.svg	28	yes	53	1	323	0	0			0	0			1				0	
6.6.1	win	2023-07-16	17:24:34	17:45:32	1252147	608da9dd3e630867a6efd9b2	3	1	main_slash	7	advance_on_keypress_SLASH	160	stimuli_distractor_trianglediamonds.svg	stimuli_target_diamondsquares.svg	28	yes	57	0	749	0	0			0	0			1				0	
6.6.1	win	2023-07-16	17:24:34	17:48:10	1410319	608da9dd3e630867a6efd9b2	3	1	practice_z	9	practice_z	1	stimuli_distractor_diamondtriangles.svg	stimuli_target_trianglerectangles.svg	9	yes	44	1	423	0	0			0	0			1				0	
6.6.1	win	2023-07-16	17:24:34	17:48:10	1410319	608da9dd3e630867a6efd9b2	3	1	practice_z	9	advance_on_keypress_ZEE	2	stimuli_distractor_diamondtriangles.svg	stimuli_target_trianglerectangles.svg	9	yes	57	0	780	0	0			0	0			1				0	
6.6.1	win	2023-07-16	17:24:34	17:48:13	1413033	608da9dd3e630867a6efd9b2	3	1	practice_z	9	practice_z	3	stimuli_target_rectanglediamonds.svg	stimuli_distractor_trianglediamonds.svg	4	yes	44	1	272	0	0			0	0			1				0	
6.6.1	win	2023-07-16	17:24:34	17:48:13	1413033	608da9dd3e630867a6efd9b2	3	1	practice_z	9	advance_on_keypress_ZEE	4	stimuli_target_rectanglediamonds.svg	stimuli_distractor_trianglediamonds.svg	4	yes	57	0	1787	0	0			0	0			1				0	
6.6.1	win	2023-07-16	17:24:34	17:48:17	1416789	608da9dd3e630867a6efd9b2	3	1	practice_z	9	practice_z	5	stimuli_target_squarediamonds.svg	stimuli_distractor_diamondtriangles.svg	2	yes	44	1	315	0	0			0	0			1				0	
6.6.1	win	2023-07-16	17:24:34	17:48:17	1416789	608da9dd3e630867a6efd9b2	3	1	practice_z	9	advance_on_keypress_ZEE	6	stimuli_target_squarediamonds.svg	stimuli_distractor_diamondtriangles.svg	2	yes	57	0	886	0	0			0	0			1				0	
6.6.1	win	2023-07-16	17:24:34	17:48:21	1421321	608da9dd3e630867a6efd9b2	3	1	practice_z	9	practice_z	7	stimuli_distractor_trianglediamonds.svg	stimuli_distractor_trianglediamonds.svg	15	no	0	1	2000	0	0			0	0			1				0	
6.6.1	win	2023-07-16	17:24:34	17:48:21	1421321	608da9dd3e630867a6efd9b2	3	1	practice_z	9	advance_on_keypress_ZEE	8	stimuli_distractor_trianglediamonds.svg	stimuli_distractor_trianglediamonds.svg	15	no	57	0	729	0	0			0	0			1				0	
6.6.1	win	2023-07-16	17:24:34	17:48:24	1424080	608da9dd3e630867a6efd9b2	3	1	practice_z	9	practice_z	9	stimuli_distractor_trianglediamonds.svg	stimuli_target_squarediamonds.svg	11	yes	44	1	375	0	0			0	0			1				0	
6.6.1	win	2023-07-16	17:24:34	17:48:24	1424080	608da9dd3e630867a6efd9b2	3	1	practice_z	9	advance_on_keypress_ZEE	10	stimuli_distractor_trianglediamonds.svg	stimuli_target_squarediamonds.svg	11	yes	57	0	25	0	0			0	0			1				0	
6.6.1	win	2023-07-16	17:24:34	17:48:28	1427764	608da9dd3e630867a6efd9b2	3	1	practice_z	9	practice_z	11	stimuli_distractor_diamondtriangles.svg	stimuli_distractor_trianglediamonds.svg	14	no	0	1	2000	0	0			0	0			1				0	
6.6.1	win	2023-07-16	17:24:34	17:48:28	1427764	608da9dd3e630867a6efd9b2	3	1	practice_z	9	advance_on_keypress_ZEE	12	stimuli_distractor_diamondtriangles.svg	stimuli_distractor_trianglediamonds.svg	14	no	57	0	255	0	0			0	0			1				0	
6.6.1	win	2023-07-16	17:24:34	17:48:30	1430085	608da9dd3e630867a6efd9b2	3	1	practice_z	9	practice_z	13	stimuli_target_squarediamonds.svg	stimuli_distractor_trianglediamonds.svg	5	yes	44	1	424	0	0			0	0			1				0	
6.6.1	win	2023-07-16	17:24:34	17:48:30	1430085	608da9dd3e630867a6efd9b2	3	1	practice_z	9	advance_on_keypress_ZEE	14	stimuli_target_squarediamonds.svg	stimuli_distractor_trianglediamonds.svg	5	yes	57	0	469	0	0			0	0			1				0	
6.6.1	win	2023-07-16	17:24:34	17:48:33	1432870	608da9dd3e630867a6efd9b2	3	1	practice_z	9	practice_z	15	stimuli_distractor_diamondtriangles.svg	stimuli_target_diamondrectangles.svg	8	yes	44	1	662	0	0			0	0			1				0	
6.6.1	win	2023-07-16	17:24:34	17:48:33	1432870	608da9dd3e630867a6efd9b2	3	1	practice_z	9	advance_on_keypress_ZEE	16	stimuli_distractor_diamondtriangles.svg	stimuli_target_diamondrectangles.svg	8	yes	57	0	510	0	0			0	0			1				0	
6.6.1	win	2023-07-16	17:24:34	17:48:35	1435404	608da9dd3e630867a6efd9b2	3	1	practice_z	9	practice_z	17	stimuli_target_diamondsquares.svg	stimuli_distractor_diamondtriangles.svg	3	yes	44	1	363	0	0			0	0			1				0	
6.6.1	win	2023-07-16	17:24:34	17:48:35	1435404	608da9dd3e630867a6efd9b2	3	1	practice_z	9	advance_on_keypress_ZEE	18	stimuli_target_diamondsquares.svg	stimuli_distractor_diamondtriangles.svg	3	yes	57	0	499	0	0			0	0			1				0	
6.6.1	win	2023-07-16	17:24:34	17:48:38	1437883	608da9dd3e630867a6efd9b2	3	1	practice_z	9	practice_z	19	stimuli_distractor_trianglediamonds.svg	stimuli_distractor_diamondtriangles.svg	16	no	44	0	329	0	0			0	0			1				0	
6.6.1	win	2023-07-16	17:24:34	17:48:38	1437883	608da9dd3e630867a6efd9b2	3	1	practice_z	9	advance_on_keypress_ZEE	20	stimuli_distractor_trianglediamonds.svg	stimuli_distractor_diamondtriangles.svg	16	no	57	0	586	0	0			0	0			1				0	
6.6.1	win	2023-07-16	17:24:34	17:48:42	1442119	608da9dd3e630867a6efd9b2	3	1	practice_z	9	practice_z	21	stimuli_distractor_diamondtriangles.svg	stimuli_distractor_diamondtriangles.svg	13	no	0	1	2000	0	0			0	0			1				0	
6.6.1	win	2023-07-16	17:24:34	17:48:42	1442119	608da9dd3e630867a6efd9b2	3	1	practice_z	9	advance_on_keypress_ZEE	22	stimuli_distractor_diamondtriangles.svg	stimuli_distractor_diamondtriangles.svg	13	no	57	0	452	0	0			0	0			1				0	
6.6.1	win	2023-07-16	17:24:34	17:48:44	1444650	608da9dd3e630867a6efd9b2	3	1	practice_z	9	practice_z	23	stimuli_distractor_diamondtriangles.svg	stimuli_target_rectangletriangles.svg	7	yes	44	1	436	0	0			0	0			1				0	
6.6.1	win	2023-07-16	17:24:34	17:48:44	1444650	608da9dd3e630867a6efd9b2	3	1	practice_z	9	advance_on_keypress_ZEE	24	stimuli_distractor_diamondtriangles.svg	stimuli_target_rectangletriangles.svg	7	yes	57	0	839	0	0			0	0			1				0	
6.6.1	win	2023-07-16	17:24:34	17:48:47	1447463	608da9dd3e630867a6efd9b2	3	1	practice_z	9	practice_z	25	stimuli_target_rectanglediamonds.svg	stimuli_distractor_diamondtriangles.svg	1	yes	44	1	335	0	0			0	0			1				0	
6.6.1	win	2023-07-16	17:24:34	17:48:47	1447463	608da9dd3e630867a6efd9b2	3	1	practice_z	9	advance_on_keypress_ZEE	26	stimuli_target_rectanglediamonds.svg	stimuli_distractor_diamondtriangles.svg	1	yes	57	0	503	0	0			0	0			1				0	
6.6.1	win	2023-07-16	17:24:34	17:48:50	1449983	608da9dd3e630867a6efd9b2	3	1	practice_z	9	practice_z	27	stimuli_distractor_trianglediamonds.svg	stimuli_target_diamondrectangles.svg	12	yes	44	1	371	0	0			0	0			1				0	
6.6.1	win	2023-07-16	17:24:34	17:48:50	1449983	608da9dd3e630867a6efd9b2	3	1	practice_z	9	advance_on_keypress_ZEE	28	stimuli_distractor_trianglediamonds.svg	stimuli_target_diamondrectangles.svg	12	yes	57	0	456	0	0			0	0			1				0	
6.6.1	win	2023-07-16	17:24:34	17:48:52	1452470	608da9dd3e630867a6efd9b2	3	1	practice_z	9	practice_z	29	stimuli_target_diamondsquares.svg	stimuli_distractor_trianglediamonds.svg	6	yes	44	1	381	0	0			0	0			1				0	
6.6.1	win	2023-07-16	17:24:34	17:48:52	1452470	608da9dd3e630867a6efd9b2	3	1	practice_z	9	advance_on_keypress_ZEE	30	stimuli_target_diamondsquares.svg	stimuli_distractor_trianglediamonds.svg	6	yes	57	0	360	0	0			0	0			1				0	
6.6.1	win	2023-07-16	17:24:34	17:48:55	1454872	608da9dd3e630867a6efd9b2	3	1	practice_z	9	practice_z	31	stimuli_distractor_trianglediamonds.svg	stimuli_target_rectanglediamonds.svg	10	yes	44	1	384	0	0			0	0			1				0	
6.6.1	win	2023-07-16	17:24:34	17:48:55	1454872	608da9dd3e630867a6efd9b2	3	1	practice_z	9	advance_on_keypress_ZEE	32	stimuli_distractor_trianglediamonds.svg	stimuli_target_rectanglediamonds.svg	10	yes	57	0	605	0	0			0	0			1				0	
6.6.1	win	2023-07-16	17:24:34	17:49:07	1467141	608da9dd3e630867a6efd9b2	3	1	main_z	11	main_z	1	stimuli_distractor_trianglediamonds.svg	stimuli_distractor_diamondtriangles.svg	36	no	0	1	2000	0	0			0	0			1				0	
6.6.1	win	2023-07-16	17:24:34	17:49:07	1467141	608da9dd3e630867a6efd9b2	3	1	main_z	11	advance_on_keypress_ZEE	2	stimuli_distractor_trianglediamonds.svg	stimuli_distractor_diamondtriangles.svg	36	no	57	0	598	0	0			0	0			1				0	
6.6.1	win	2023-07-16	17:24:34	17:49:09	1468746	608da9dd3e630867a6efd9b2	3	1	main_z	11	main_z	3	stimuli_target_trianglerectangles.svg	stimuli_distractor_trianglediamonds.svg	17	yes	44	1	358	0	0			0	0			1				0	
6.6.1	win	2023-07-16	17:24:34	17:49:09	1468746	608da9dd3e630867a6efd9b2	3	1	main_z	11	advance_on_keypress_ZEE	4	stimuli_target_trianglerectangles.svg	stimuli_distractor_trianglediamonds.svg	17	yes	57	0	705	0	0			0	0			1				0	
6.6.1	win	2023-07-16	17:24:34	17:49:10	1470463	608da9dd3e630867a6efd9b2	3	1	main_z	11	main_z	5	stimuli_distractor_diamondtriangles.svg	stimuli_target_squaretriangles.svg	15	yes	44	1	375	0	0			0	0			1				0	
6.6.1	win	2023-07-16	17:24:34	17:49:10	1470463	608da9dd3e630867a6efd9b2	3	1	main_z	11	advance_on_keypress_ZEE	6	stimuli_distractor_diamondtriangles.svg	stimuli_target_squaretriangles.svg	15	yes	57	0	557	0	0			0	0			1				0	
6.6.1	win	2023-07-16	17:24:34	17:49:12	1471998	608da9dd3e630867a6efd9b2	3	1	main_z	11	main_z	7	stimuli_target_rectangletriangles.svg	stimuli_distractor_diamondtriangles.svg	5	yes	44	1	346	0	0			0	0			1				0	
6.6.1	win	2023-07-16	17:24:34	17:49:12	1471998	608da9dd3e630867a6efd9b2	3	1	main_z	11	advance_on_keypress_ZEE	8	stimuli_target_rectangletriangles.svg	stimuli_distractor_diamondtriangles.svg	5	yes	57	0	659	0	0			0	0			1				0	
6.6.1	win	2023-07-16	17:24:34	17:49:13	1473659	608da9dd3e630867a6efd9b2	3	1	main_z	11	main_z	9	stimuli_distractor_trianglediamonds.svg	stimuli_target_squarediamonds.svg	12	yes	44	1	358	0	0			0	0			1				0	
6.6.1	win	2023-07-16	17:24:34	17:49:13	1473659	608da9dd3e630867a6efd9b2	3	1	main_z	11	advance_on_keypress_ZEE	10	stimuli_distractor_trianglediamonds.svg	stimuli_target_squarediamonds.svg	12	yes	57	0	645	0	0			0	0			1				0	
6.6.1	win	2023-07-16	17:24:34	17:49:15	1475300	608da9dd3e630867a6efd9b2	3	1	main_z	11	main_z	11	stimuli_target_diamondrectangles.svg	stimuli_distractor_trianglediamonds.svg	19	yes	44	1	334	0	0			0	0			1				0	
6.6.1	win	2023-07-16	17:24:34	17:49:15	1475300	608da9dd3e630867a6efd9b2	3	1	main_z	11	advance_on_keypress_ZEE	12	stimuli_target_diamondrectangles.svg	stimuli_distractor_trianglediamonds.svg	19	yes	57	0	634	0	0			0	0			1				0	
6.6.1	win	2023-07-16	17:24:34	17:49:18	1478580	608da9dd3e630867a6efd9b2	3	1	main_z	11	main_z	13	stimuli_target_trianglerectangles.svg	stimuli_distractor_diamondtriangles.svg	21	yes	0	0	2000	0	0			0	0			1				0	
6.6.1	win	2023-07-16	17:24:34	17:49:18	1478580	608da9dd3e630867a6efd9b2	3	1	main_z	11	advance_on_keypress_ZEE	14	stimuli_target_trianglerectangles.svg	stimuli_distractor_diamondtriangles.svg	21	yes	57	0	11	0	0			0	0			1				0	
6.6.1	win	2023-07-16	17:24:34	17:49:21	1481244	608da9dd3e630867a6efd9b2	3	1	main_z	11	main_z	15	stimuli_distractor_diamondtriangles.svg	stimuli_distractor_trianglediamonds.svg	38	no	0	1	2000	0	0			0	0			1				0	
6.6.1	win	2023-07-16	17:24:34	17:49:21	1481244	608da9dd3e630867a6efd9b2	3	1	main_z	11	advance_on_keypress_ZEE	16	stimuli_distractor_diamondtriangles.svg	stimuli_distractor_trianglediamonds.svg	38	no	57	0	425	0	0			0	0			1				0	
6.6.1	win	2023-07-16	17:24:34	17:49:23	1482936	608da9dd3e630867a6efd9b2	3	1	main_z	11	main_z	17	stimuli_distractor_trianglediamonds.svg	stimuli_target_diamondrectangles.svg	27	yes	44	1	611	0	0			0	0			1				0	
6.6.1	win	2023-07-16	17:24:34	17:49:23	1482936	608da9dd3e630867a6efd9b2	3	1	main_z	11	advance_on_keypress_ZEE	18	stimuli_distractor_trianglediamonds.svg	stimuli_target_diamondrectangles.svg	27	yes	57	0	632	0	0			0	0			1				0	
6.6.1	win	2023-07-16	17:24:34	17:49:24	1484616	608da9dd3e630867a6efd9b2	3	1	main_z	11	main_z	19	stimuli_target_rectangletriangles.svg	stimuli_distractor_trianglediamonds.svg	1	yes	44	1	394	0	0			0	0			1				0	
6.6.1	win	2023-07-16	17:24:34	17:49:24	1484616	608da9dd3e630867a6efd9b2	3	1	main_z	11	advance_on_keypress_ZEE	20	stimuli_target_rectangletriangles.svg	stimuli_distractor_trianglediamonds.svg	1	yes	57	0	671	0	0			0	0			1				0	
6.6.1	win	2023-07-16	17:24:34	17:49:26	1486248	608da9dd3e630867a6efd9b2	3	1	main_z	11	main_z	21	stimuli_target_rectanglediamonds.svg	stimuli_distractor_trianglediamonds.svg	2	yes	44	1	310	0	0			0	0			1				0	
6.6.1	win	2023-07-16	17:24:34	17:49:26	1486248	608da9dd3e630867a6efd9b2	3	1	main_z	11	advance_on_keypress_ZEE	22	stimuli_target_rectanglediamonds.svg	stimuli_distractor_trianglediamonds.svg	2	yes	57	0	615	0	0			0	0			1				0	
6.6.1	win	2023-07-16	17:24:34	17:49:28	1488034	608da9dd3e630867a6efd9b2	3	1	main_z	11	main_z	23	stimuli_distractor_trianglediamonds.svg	stimuli_target_trianglerectangles.svg	25	yes	44	1	505	0	0			0	0			1				0	
6.6.1	win	2023-07-16	17:24:34	17:49:28	1488034	608da9dd3e630867a6efd9b2	3	1	main_z	11	advance_on_keypress_ZEE	24	stimuli_distractor_trianglediamonds.svg	stimuli_target_trianglerectangles.svg	25	yes	57	0	585	0	0			0	0			1				0	
6.6.1	win	2023-07-16	17:24:34	17:49:29	1489629	608da9dd3e630867a6efd9b2	3	1	main_z	11	main_z	25	stimuli_distractor_diamondtriangles.svg	stimuli_target_rectangletriangles.svg	13	yes	44	1	362	0	0			0	0			1				0	
6.6.1	win	2023-07-16	17:24:34	17:49:29	1489629	608da9dd3e630867a6efd9b2	3	1	main_z	11	advance_on_keypress_ZEE	26	stimuli_distractor_diamondtriangles.svg	stimuli_target_rectangletriangles.svg	13	yes	57	0	557	0	0			0	0			1				0	
6.6.1	win	2023-07-16	17:24:34	17:49:33	1492834	608da9dd3e630867a6efd9b2	3	1	main_z	11	main_z	27	stimuli_distractor_trianglediamonds.svg	stimuli_distractor_trianglediamonds.svg	33	no	0	1	2000	0	0			0	0			1				0	
6.6.1	win	2023-07-16	17:24:34	17:49:33	1492834	608da9dd3e630867a6efd9b2	3	1	main_z	11	advance_on_keypress_ZEE	28	stimuli_distractor_trianglediamonds.svg	stimuli_distractor_trianglediamonds.svg	33	no	57	0	433	0	0			0	0			1				0	
6.6.1	win	2023-07-16	17:24:34	17:49:34	1494258	608da9dd3e630867a6efd9b2	3	1	main_z	11	main_z	29	stimuli_distractor_trianglediamonds.svg	stimuli_target_squaretriangles.svg	11	yes	44	1	344	0	0			0	0			1				0	
6.6.1	win	2023-07-16	17:24:34	17:49:34	1494258	608da9dd3e630867a6efd9b2	3	1	main_z	11	advance_on_keypress_ZEE	30	stimuli_distractor_trianglediamonds.svg	stimuli_target_squaretriangles.svg	11	yes	57	0	647	0	0			0	0			1				0	
6.6.1	win	2023-07-16	17:24:34	17:49:37	1497562	608da9dd3e630867a6efd9b2	3	1	main_z	11	main_z	31	stimuli_distractor_diamondtriangles.svg	stimuli_distractor_diamondtriangles.svg	40	no	0	1	2000	0	0			0	0			1				0	
6.6.1	win	2023-07-16	17:24:34	17:49:37	1497562	608da9dd3e630867a6efd9b2	3	1	main_z	11	advance_on_keypress_ZEE	32	stimuli_distractor_diamondtriangles.svg	stimuli_distractor_diamondtriangles.svg	40	no	57	0	408	0	0			0	0			1				0	
6.6.1	win	2023-07-16	17:24:34	17:49:39	1498873	608da9dd3e630867a6efd9b2	3	1	main_z	11	main_z	33	stimuli_target_rectanglediamonds.svg	stimuli_distractor_diamondtriangles.svg	6	yes	44	1	262	0	0			0	0			1				0	
6.6.1	win	2023-07-16	17:24:34	17:49:39	1498873	608da9dd3e630867a6efd9b2	3	1	main_z	11	advance_on_keypress_ZEE	34	stimuli_target_rectanglediamonds.svg	stimuli_distractor_diamondtriangles.svg	6	yes	57	0	652	0	0			0	0			1				0	
6.6.1	win	2023-07-16	17:24:34	17:49:42	1502175	608da9dd3e630867a6efd9b2	3	1	main_z	11	main_z	35	stimuli_distractor_trianglediamonds.svg	stimuli_distractor_diamondtriangles.svg	35	no	0	1	2000	0	0			0	0			1				0	
6.6.1	win	2023-07-16	17:24:34	17:49:42	1502175	608da9dd3e630867a6efd9b2	3	1	main_z	11	advance_on_keypress_ZEE	36	stimuli_distractor_trianglediamonds.svg	stimuli_distractor_diamondtriangles.svg	35	no	57	0	349	0	0			0	0			1				0	
6.6.1	win	2023-07-16	17:24:34	17:49:43	1503585	608da9dd3e630867a6efd9b2	3	1	main_z	11	main_z	37	stimuli_target_diamondrectangles.svg	stimuli_distractor_diamondtriangles.svg	23	yes	44	1	413	0	0			0	0			1				0	
6.6.1	win	2023-07-16	17:24:34	17:49:43	1503585	608da9dd3e630867a6efd9b2	3	1	main_z	11	advance_on_keypress_ZEE	38	stimuli_target_diamondrectangles.svg	stimuli_distractor_diamondtriangles.svg	23	yes	57	0	625	0	0			0	0			1				0	
6.6.1	win	2023-07-16	17:24:34	17:49:45	1505267	608da9dd3e630867a6efd9b2	3	1	main_z	11	main_z	39	stimuli_distractor_diamondtriangles.svg	stimuli_target_rectanglediamonds.svg	14	yes	44	1	413	0	0			0	0			1				0	
6.6.1	win	2023-07-16	17:24:34	17:49:45	1505267	608da9dd3e630867a6efd9b2	3	1	main_z	11	advance_on_keypress_ZEE	40	stimuli_distractor_diamondtriangles.svg	stimuli_target_rectanglediamonds.svg	14	yes	57	0	564	0	0			0	0			1				0	
6.6.1	win	2023-07-16	17:24:34	17:49:47	1507000	608da9dd3e630867a6efd9b2	3	1	main_z	11	main_z	41	stimuli_distractor_diamondtriangles.svg	stimuli_target_diamondrectangles.svg	31	yes	44	1	507	0	0			0	0			1				0	
6.6.1	win	2023-07-16	17:24:34	17:49:47	1507000	608da9dd3e630867a6efd9b2	3	1	main_z	11	advance_on_keypress_ZEE	42	stimuli_distractor_diamondtriangles.svg	stimuli_target_diamondrectangles.svg	31	yes	57	0	494	0	0			0	0			1				0	
6.6.1	win	2023-07-16	17:24:34	17:49:48	1508516	608da9dd3e630867a6efd9b2	3	1	main_z	11	main_z	43	stimuli_target_diamondsquares.svg	stimuli_distractor_diamondtriangles.svg	24	yes	44	1	363	0	0			0	0			1				0	
6.6.1	win	2023-07-16	17:24:34	17:49:48	1508516	608da9dd3e630867a6efd9b2	3	1	main_z	11	advance_on_keypress_ZEE	44	stimuli_target_diamondsquares.svg	stimuli_distractor_diamondtriangles.svg	24	yes	57	0	624	0	0			0	0			1				0	
6.6.1	win	2023-07-16	17:24:34	17:49:50	1510095	608da9dd3e630867a6efd9b2	3	1	main_z	11	main_z	45	stimuli_distractor_trianglediamonds.svg	stimuli_target_rectanglediamonds.svg	10	yes	44	1	312	0	0			0	0			1				0	
6.6.1	win	2023-07-16	17:24:34	17:49:50	1510095	608da9dd3e630867a6efd9b2	3	1	main_z	11	advance_on_keypress_ZEE	46	stimuli_distractor_trianglediamonds.svg	stimuli_target_rectanglediamonds.svg	10	yes	57	0	553	0	0			0	0			1				0	
6.6.1	win	2023-07-16	17:24:34	17:49:51	1511674	608da9dd3e630867a6efd9b2	3	1	main_z	11	main_z	47	stimuli_distractor_diamondtriangles.svg	stimuli_target_squarediamonds.svg	16	yes	44	1	376	0	0			0	0			1				0	
6.6.1	win	2023-07-16	17:24:34	17:49:51	1511674	608da9dd3e630867a6efd9b2	3	1	main_z	11	advance_on_keypress_ZEE	48	stimuli_distractor_diamondtriangles.svg	stimuli_target_squarediamonds.svg	16	yes	57	0	528	0	0			0	0			1				0	
6.6.1	win	2023-07-16	17:24:34	17:49:53	1513178	608da9dd3e630867a6efd9b2	3	1	main_z	11	main_z	49	stimuli_target_squaretriangles.svg	stimuli_distractor_diamondtriangles.svg	7	yes	44	1	314	0	0			0	0			1				0	
6.6.1	win	2023-07-16	17:24:34	17:49:53	1513178	608da9dd3e630867a6efd9b2	3	1	main_z	11	advance_on_keypress_ZEE	50	stimuli_target_squaretriangles.svg	stimuli_distractor_diamondtriangles.svg	7	yes	57	0	551	0	0			0	0			1				0	
6.6.1	win	2023-07-16	17:24:34	17:49:56	1516379	608da9dd3e630867a6efd9b2	3	1	main_z	11	main_z	51	stimuli_distractor_trianglediamonds.svg	stimuli_distractor_trianglediamonds.svg	34	no	0	1	2000	0	0			0	0			1				0	
6.6.1	win	2023-07-16	17:24:34	17:49:56	1516379	608da9dd3e630867a6efd9b2	3	1	main_z	11	advance_on_keypress_ZEE	52	stimuli_distractor_trianglediamonds.svg	stimuli_distractor_trianglediamonds.svg	34	no	57	0	33	0	0			0	0			1				0	
6.6.1	win	2023-07-16	17:24:34	17:49:57	1517503	608da9dd3e630867a6efd9b2	3	1	main_z	11	main_z	53	stimuli_distractor_diamondtriangles.svg	stimuli_target_diamondsquares.svg	32	yes	44	1	443	0	0			0	0			1				0	
6.6.1	win	2023-07-16	17:24:34	17:49:57	1517503	608da9dd3e630867a6efd9b2	3	1	main_z	11	advance_on_keypress_ZEE	54	stimuli_distractor_diamondtriangles.svg	stimuli_target_diamondsquares.svg	32	yes	57	0	441	0	0			0	0			1				0	
6.6.1	win	2023-07-16	17:24:34	17:49:59	1518956	608da9dd3e630867a6efd9b2	3	1	main_z	11	main_z	55	stimuli_target_squaretriangles.svg	stimuli_distractor_trianglediamonds.svg	3	yes	44	1	364	0	0			0	0			1				0	
6.6.1	win	2023-07-16	17:24:34	17:49:59	1518956	608da9dd3e630867a6efd9b2	3	1	main_z	11	advance_on_keypress_ZEE	56	stimuli_target_squaretriangles.svg	stimuli_distractor_trianglediamonds.svg	3	yes	57	0	543	0	0			0	0			1				0	
6.6.1	win	2023-07-16	17:24:34	17:50:00	1520466	608da9dd3e630867a6efd9b2	3	1	main_z	11	main_z	57	stimuli_target_trianglesquares.svg	stimuli_distractor_diamondtriangles.svg	22	yes	44	1	309	0	0			0	0			1				0	
6.6.1	win	2023-07-16	17:24:34	17:50:00	1520466	608da9dd3e630867a6efd9b2	3	1	main_z	11	advance_on_keypress_ZEE	58	stimuli_target_trianglesquares.svg	stimuli_distractor_diamondtriangles.svg	22	yes	57	0	626	0	0			0	0			1				0	
6.6.1	win	2023-07-16	17:24:34	17:50:02	1522022	608da9dd3e630867a6efd9b2	3	1	main_z	11	main_z	59	stimuli_target_squarediamonds.svg	stimuli_distractor_trianglediamonds.svg	4	yes	44	1	299	0	0			0	0			1				0	
6.6.1	win	2023-07-16	17:24:34	17:50:02	1522022	608da9dd3e630867a6efd9b2	3	1	main_z	11	advance_on_keypress_ZEE	60	stimuli_target_squarediamonds.svg	stimuli_distractor_trianglediamonds.svg	4	yes	57	0	578	0	0			0	0			1				0	
6.6.1	win	2023-07-16	17:24:34	17:50:03	1523577	608da9dd3e630867a6efd9b2	3	1	main_z	11	main_z	61	stimuli_distractor_diamondtriangles.svg	stimuli_target_trianglesquares.svg	30	yes	44	1	324	0	0			0	0			1				0	
6.6.1	win	2023-07-16	17:24:34	17:50:03	1523577	608da9dd3e630867a6efd9b2	3	1	main_z	11	advance_on_keypress_ZEE	62	stimuli_distractor_diamondtriangles.svg	stimuli_target_trianglesquares.svg	30	yes	57	0	1091	0	0			0	0			1				0	
6.6.1	win	2023-07-16	17:24:34	17:50:05	1525623	608da9dd3e630867a6efd9b2	3	1	main_z	11	main_z	63	stimuli_target_diamondsquares.svg	stimuli_distractor_trianglediamonds.svg	20	yes	44	1	322	0	0			0	0			1				0	
6.6.1	win	2023-07-16	17:24:34	17:50:05	1525623	608da9dd3e630867a6efd9b2	3	1	main_z	11	advance_on_keypress_ZEE	64	stimuli_target_diamondsquares.svg	stimuli_distractor_trianglediamonds.svg	20	yes	57	0	627	0	0			0	0			1				0	
6.6.1	win	2023-07-16	17:24:34	17:50:07	1527194	608da9dd3e630867a6efd9b2	3	1	main_z	11	main_z	65	stimuli_target_squarediamonds.svg	stimuli_distractor_diamondtriangles.svg	8	yes	44	1	294	0	0			0	0			1				0	
6.6.1	win	2023-07-16	17:24:34	17:50:07	1527194	608da9dd3e630867a6efd9b2	3	1	main_z	11	advance_on_keypress_ZEE	66	stimuli_target_squarediamonds.svg	stimuli_distractor_diamondtriangles.svg	8	yes	57	0	641	0	0			0	0			1				0	
6.6.1	win	2023-07-16	17:24:34	17:50:09	1528841	608da9dd3e630867a6efd9b2	3	1	main_z	11	main_z	67	stimuli_distractor_trianglediamonds.svg	stimuli_target_diamondsquares.svg	28	yes	44	1	359	0	0			0	0			1				0	
6.6.1	win	2023-07-16	17:24:34	17:50:09	1528841	608da9dd3e630867a6efd9b2	3	1	main_z	11	advance_on_keypress_ZEE	68	stimuli_distractor_trianglediamonds.svg	stimuli_target_diamondsquares.svg	28	yes	57	0	510	0	0			0	0			1				0	
6.6.1	win	2023-07-16	17:24:34	17:50:10	1530331	608da9dd3e630867a6efd9b2	3	1	main_z	11	main_z	69	stimuli_distractor_trianglediamonds.svg	stimuli_target_trianglesquares.svg	26	yes	44	1	318	0	0			0	0			1				0	
6.6.1	win	2023-07-16	17:24:34	17:50:10	1530331	608da9dd3e630867a6efd9b2	3	1	main_z	11	advance_on_keypress_ZEE	70	stimuli_distractor_trianglediamonds.svg	stimuli_target_trianglesquares.svg	26	yes	57	0	714	0	0			0	0			1				0	
6.6.1	win	2023-07-16	17:24:34	17:50:12	1531983	608da9dd3e630867a6efd9b2	3	1	main_z	11	main_z	71	stimuli_distractor_trianglediamonds.svg	stimuli_target_rectangletriangles.svg	9	yes	44	1	287	0	0			0	0			1				0	
6.6.1	win	2023-07-16	17:24:34	17:50:12	1531983	608da9dd3e630867a6efd9b2	3	1	main_z	11	advance_on_keypress_ZEE	72	stimuli_distractor_trianglediamonds.svg	stimuli_target_rectangletriangles.svg	9	yes	57	0	477	0	0			0	0			1				0	
6.6.1	win	2023-07-16	17:24:34	17:50:13	1533439	608da9dd3e630867a6efd9b2	3	1	main_z	11	main_z	73	stimuli_distractor_diamondtriangles.svg	stimuli_target_trianglerectangles.svg	29	yes	44	1	329	0	0			0	0			1				0	
6.6.1	win	2023-07-16	17:24:34	17:50:13	1533439	608da9dd3e630867a6efd9b2	3	1	main_z	11	advance_on_keypress_ZEE	74	stimuli_distractor_diamondtriangles.svg	stimuli_target_trianglerectangles.svg	29	yes	57	0	707	0	0			0	0			1				0	
6.6.1	win	2023-07-16	17:24:34	17:50:15	1535065	608da9dd3e630867a6efd9b2	3	1	main_z	11	main_z	75	stimuli_target_trianglesquares.svg	stimuli_distractor_trianglediamonds.svg	18	yes	44	1	273	0	0			0	0			1				0	
6.6.1	win	2023-07-16	17:24:34	17:50:15	1535065	608da9dd3e630867a6efd9b2	3	1	main_z	11	advance_on_keypress_ZEE	76	stimuli_target_trianglesquares.svg	stimuli_distractor_trianglediamonds.svg	18	yes	57	0	529	0	0			0	0			1				0	
6.6.1	win	2023-07-16	17:24:34	17:50:16	1536512	608da9dd3e630867a6efd9b2	3	1	main_z	11	main_z	77	stimuli_distractor_diamondtriangles.svg	stimuli_distractor_trianglediamonds.svg	37	no	44	0	270	0	0			0	0			1				0	
6.6.1	win	2023-07-16	17:24:34	17:50:16	1536512	608da9dd3e630867a6efd9b2	3	1	main_z	11	advance_on_keypress_ZEE	78	stimuli_distractor_diamondtriangles.svg	stimuli_distractor_trianglediamonds.svg	37	no	57	0	870	0	0			0	0			1				0	
6.6.1	win	2023-07-16	17:24:34	17:50:20	1540023	608da9dd3e630867a6efd9b2	3	1	main_z	11	main_z	79	stimuli_distractor_diamondtriangles.svg	stimuli_distractor_diamondtriangles.svg	39	no	0	1	2000	0	0			0	0			1				0	
6.6.1	win	2023-07-16	17:24:34	17:50:20	1540023	608da9dd3e630867a6efd9b2	3	1	main_z	11	advance_on_keypress_ZEE	80	stimuli_distractor_diamondtriangles.svg	stimuli_distractor_diamondtriangles.svg	39	no	57	0	210	0	0			0	0			1				0	
6.6.1	win	2023-07-16	17:24:34	17:50:21	1541409	608da9dd3e630867a6efd9b2	3	1	main_z	11	main_z	81	stimuli_distractor_trianglediamonds.svg	stimuli_distractor_diamondtriangles.svg	36	no	44	0	524	0	0			0	0			1				0	
6.6.1	win	2023-07-16	17:24:34	17:50:21	1541409	608da9dd3e630867a6efd9b2	3	1	main_z	11	advance_on_keypress_ZEE	82	stimuli_distractor_trianglediamonds.svg	stimuli_distractor_diamondtriangles.svg	36	no	57	0	674	0	0			0	0			1				0	
6.6.1	win	2023-07-16	17:24:34	17:50:23	1543143	608da9dd3e630867a6efd9b2	3	1	main_z	11	main_z	83	stimuli_target_squarediamonds.svg	stimuli_distractor_trianglediamonds.svg	4	yes	44	1	423	0	0			0	0			1				0	
6.6.1	win	2023-07-16	17:24:34	17:50:23	1543143	608da9dd3e630867a6efd9b2	3	1	main_z	11	advance_on_keypress_ZEE	84	stimuli_target_squarediamonds.svg	stimuli_distractor_trianglediamonds.svg	4	yes	57	0	470	0	0			0	0			1				0	
6.6.1	win	2023-07-16	17:24:34	17:50:25	1544732	608da9dd3e630867a6efd9b2	3	1	main_z	11	main_z	85	stimuli_target_diamondsquares.svg	stimuli_distractor_trianglediamonds.svg	20	yes	44	1	481	0	0			0	0			1				0	
6.6.1	win	2023-07-16	17:24:34	17:50:25	1544732	608da9dd3e630867a6efd9b2	3	1	main_z	11	advance_on_keypress_ZEE	86	stimuli_target_diamondsquares.svg	stimuli_distractor_trianglediamonds.svg	20	yes	57	0	417	0	0			0	0			1				0	
6.6.1	win	2023-07-16	17:24:34	17:50:26	1546094	608da9dd3e630867a6efd9b2	3	1	main_z	11	main_z	87	stimuli_target_squarediamonds.svg	stimuli_distractor_diamondtriangles.svg	8	yes	44	1	294	0	0			0	0			1				0	
6.6.1	win	2023-07-16	17:24:34	17:50:26	1546094	608da9dd3e630867a6efd9b2	3	1	main_z	11	advance_on_keypress_ZEE	88	stimuli_target_squarediamonds.svg	stimuli_distractor_diamondtriangles.svg	8	yes	57	0	662	0	0			0	0			1				0	
6.6.1	win	2023-07-16	17:24:34	17:50:28	1547765	608da9dd3e630867a6efd9b2	3	1	main_z	11	main_z	89	stimuli_target_trianglerectangles.svg	stimuli_distractor_diamondtriangles.svg	21	yes	44	1	350	0	0			0	0			1				0	
6.6.1	win	2023-07-16	17:24:34	17:50:28	1547765	608da9dd3e630867a6efd9b2	3	1	main_z	11	advance_on_keypress_ZEE	90	stimuli_target_trianglerectangles.svg	stimuli_distractor_diamondtriangles.svg	21	yes	57	0	584	0	0			0	0			1				0	
6.6.1	win	2023-07-16	17:24:34	17:50:29	1549666	608da9dd3e630867a6efd9b2	3	1	main_z	11	main_z	91	stimuli_distractor_diamondtriangles.svg	stimuli_target_trianglesquares.svg	30	yes	44	1	669	0	0			0	0			1				0	
6.6.1	win	2023-07-16	17:24:34	17:50:29	1549666	608da9dd3e630867a6efd9b2	3	1	main_z	11	advance_on_keypress_ZEE	92	stimuli_distractor_diamondtriangles.svg	stimuli_target_trianglesquares.svg	30	yes	57	0	849	0	0			0	0			1				0	
6.6.1	win	2023-07-16	17:24:34	17:50:31	1551456	608da9dd3e630867a6efd9b2	3	1	main_z	11	main_z	93	stimuli_target_squaretriangles.svg	stimuli_distractor_diamondtriangles.svg	7	yes	44	1	294	0	0			0	0			1				0	
6.6.1	win	2023-07-16	17:24:34	17:50:31	1551456	608da9dd3e630867a6efd9b2	3	1	main_z	11	advance_on_keypress_ZEE	94	stimuli_target_squaretriangles.svg	stimuli_distractor_diamondtriangles.svg	7	yes	57	0	434	0	0			0	0			1				0	
6.6.1	win	2023-07-16	17:24:34	17:50:33	1552932	608da9dd3e630867a6efd9b2	3	1	main_z	11	main_z	95	stimuli_distractor_diamondtriangles.svg	stimuli_target_squaretriangles.svg	15	yes	44	1	390	0	0			0	0			1				0	
6.6.1	win	2023-07-16	17:24:34	17:50:33	1552932	608da9dd3e630867a6efd9b2	3	1	main_z	11	advance_on_keypress_ZEE	96	stimuli_distractor_diamondtriangles.svg	stimuli_target_squaretriangles.svg	15	yes	57	0	454	0	0			0	0			1				0	
6.6.1	win	2023-07-16	17:24:34	17:50:34	1554329	608da9dd3e630867a6efd9b2	3	1	main_z	11	main_z	97	stimuli_distractor_trianglediamonds.svg	stimuli_distractor_diamondtriangles.svg	35	no	44	0	304	0	0			0	0			1				0	
6.6.1	win	2023-07-16	17:24:34	17:50:34	1554329	608da9dd3e630867a6efd9b2	3	1	main_z	11	advance_on_keypress_ZEE	98	stimuli_distractor_trianglediamonds.svg	stimuli_distractor_diamondtriangles.svg	35	no	57	0	691	0	0			0	0			1				0	
6.6.1	win	2023-07-16	17:24:34	17:50:36	1556040	608da9dd3e630867a6efd9b2	3	1	main_z	11	main_z	99	stimuli_distractor_diamondtriangles.svg	stimuli_target_rectangletriangles.svg	13	yes	44	1	383	0	0			0	0			1				0	
6.6.1	win	2023-07-16	17:24:34	17:50:36	1556040	608da9dd3e630867a6efd9b2	3	1	main_z	11	advance_on_keypress_ZEE	100	stimuli_distractor_diamondtriangles.svg	stimuli_target_rectangletriangles.svg	13	yes	57	0	493	0	0			0	0			1				0	
6.6.1	win	2023-07-16	17:24:34	17:50:39	1559171	608da9dd3e630867a6efd9b2	3	1	main_z	11	main_z	101	stimuli_distractor_trianglediamonds.svg	stimuli_target_trianglerectangles.svg	25	yes	0	0	2000	0	0			0	0			1				0	
6.6.1	win	2023-07-16	17:24:34	17:50:39	1559171	608da9dd3e630867a6efd9b2	3	1	main_z	11	advance_on_keypress_ZEE	102	stimuli_distractor_trianglediamonds.svg	stimuli_target_trianglerectangles.svg	25	yes	57	0	481	0	0			0	0			1				0	
6.6.1	win	2023-07-16	17:24:34	17:50:40	1560663	608da9dd3e630867a6efd9b2	3	1	main_z	11	main_z	103	stimuli_target_trianglesquares.svg	stimuli_distractor_diamondtriangles.svg	22	yes	44	1	361	0	0			0	0			1				0	
6.6.1	win	2023-07-16	17:24:34	17:50:40	1560663	608da9dd3e630867a6efd9b2	3	1	main_z	11	advance_on_keypress_ZEE	104	stimuli_target_trianglesquares.svg	stimuli_distractor_diamondtriangles.svg	22	yes	57	0	478	0	0			0	0			1				0	
6.6.1	win	2023-07-16	17:24:34	17:50:42	1562070	608da9dd3e630867a6efd9b2	3	1	main_z	11	main_z	105	stimuli_distractor_trianglediamonds.svg	stimuli_target_diamondsquares.svg	28	yes	44	1	269	0	0			0	0			1				0	
6.6.1	win	2023-07-16	17:24:34	17:50:42	1562070	608da9dd3e630867a6efd9b2	3	1	main_z	11	advance_on_keypress_ZEE	106	stimuli_distractor_trianglediamonds.svg	stimuli_target_diamondsquares.svg	28	yes	57	0	680	0	0			0	0			1				0	
6.6.1	win	2023-07-16	17:24:34	17:50:44	1564025	608da9dd3e630867a6efd9b2	3	1	main_z	11	main_z	107	stimuli_distractor_diamondtriangles.svg	stimuli_target_trianglerectangles.svg	29	yes	44	1	626	0	0			0	0			1				0	
6.6.1	win	2023-07-16	17:24:34	17:50:44	1564025	608da9dd3e630867a6efd9b2	3	1	main_z	11	advance_on_keypress_ZEE	108	stimuli_distractor_diamondtriangles.svg	stimuli_target_trianglerectangles.svg	29	yes	57	0	451	0	0			0	0			1				0	
6.6.1	win	2023-07-16	17:24:34	17:50:45	1565448	608da9dd3e630867a6efd9b2	3	1	main_z	11	main_z	109	stimuli_target_squaretriangles.svg	stimuli_distractor_trianglediamonds.svg	3	yes	44	1	317	0	0			0	0			1				0	
6.6.1	win	2023-07-16	17:24:34	17:50:45	1565448	608da9dd3e630867a6efd9b2	3	1	main_z	11	advance_on_keypress_ZEE	110	stimuli_target_squaretriangles.svg	stimuli_distractor_trianglediamonds.svg	3	yes	57	0	427	0	0			0	0			1				0	
6.6.1	win	2023-07-16	17:24:34	17:50:47	1566844	608da9dd3e630867a6efd9b2	3	1	main_z	11	main_z	111	stimuli_distractor_trianglediamonds.svg	stimuli_target_rectanglediamonds.svg	10	yes	44	1	315	0	0			0	0			1				0	
6.6.1	win	2023-07-16	17:24:34	17:50:47	1566844	608da9dd3e630867a6efd9b2	3	1	main_z	11	advance_on_keypress_ZEE	112	stimuli_distractor_trianglediamonds.svg	stimuli_target_rectanglediamonds.svg	10	yes	57	0	455	0	0			0	0			1				0	
6.6.1	win	2023-07-16	17:24:34	17:50:48	1568318	608da9dd3e630867a6efd9b2	3	1	main_z	11	main_z	113	stimuli_distractor_trianglediamonds.svg	stimuli_target_squarediamonds.svg	12	yes	44	1	366	0	0			0	0			1				0	
6.6.1	win	2023-07-16	17:24:34	17:50:48	1568318	608da9dd3e630867a6efd9b2	3	1	main_z	11	advance_on_keypress_ZEE	114	stimuli_distractor_trianglediamonds.svg	stimuli_target_squarediamonds.svg	12	yes	57	0	447	0	0			0	0			1				0	
6.6.1	win	2023-07-16	17:24:34	17:50:50	1569786	608da9dd3e630867a6efd9b2	3	1	main_z	11	main_z	115	stimuli_target_rectanglediamonds.svg	stimuli_distractor_trianglediamonds.svg	2	yes	44	1	377	0	0			0	0			1				0	
6.6.1	win	2023-07-16	17:24:34	17:50:50	1569786	608da9dd3e630867a6efd9b2	3	1	main_z	11	advance_on_keypress_ZEE	116	stimuli_target_rectanglediamonds.svg	stimuli_distractor_trianglediamonds.svg	2	yes	57	0	463	0	0			0	0			1				0	
6.6.1	win	2023-07-16	17:24:34	17:50:53	1572893	608da9dd3e630867a6efd9b2	3	1	main_z	11	main_z	117	stimuli_distractor_diamondtriangles.svg	stimuli_target_diamondrectangles.svg	31	yes	0	0	2000	0	0			0	0			1				0	
6.6.1	win	2023-07-16	17:24:34	17:50:53	1572893	608da9dd3e630867a6efd9b2	3	1	main_z	11	advance_on_keypress_ZEE	118	stimuli_distractor_diamondtriangles.svg	stimuli_target_diamondrectangles.svg	31	yes	57	0	487	0	0			0	0			1				0	
6.6.1	win	2023-07-16	17:24:34	17:50:54	1574351	608da9dd3e630867a6efd9b2	3	1	main_z	11	main_z	119	stimuli_target_rectanglediamonds.svg	stimuli_distractor_diamondtriangles.svg	6	yes	44	1	328	0	0			0	0			1				0	
6.6.1	win	2023-07-16	17:24:34	17:50:54	1574351	608da9dd3e630867a6efd9b2	3	1	main_z	11	advance_on_keypress_ZEE	120	stimuli_target_rectanglediamonds.svg	stimuli_distractor_diamondtriangles.svg	6	yes	57	0	517	0	0			0	0			1				0	
6.6.1	win	2023-07-16	17:24:34	17:50:56	1576034	608da9dd3e630867a6efd9b2	3	1	main_z	11	main_z	121	stimuli_distractor_trianglediamonds.svg	stimuli_target_diamondrectangles.svg	27	yes	44	1	510	0	0			0	0			1				0	
6.6.1	win	2023-07-16	17:24:34	17:50:56	1576034	608da9dd3e630867a6efd9b2	3	1	main_z	11	advance_on_keypress_ZEE	122	stimuli_distractor_trianglediamonds.svg	stimuli_target_diamondrectangles.svg	27	yes	57	0	387	0	0			0	0			1				0	
6.6.1	win	2023-07-16	17:24:34	17:50:59	1579069	608da9dd3e630867a6efd9b2	3	1	main_z	11	main_z	123	stimuli_distractor_trianglediamonds.svg	stimuli_distractor_trianglediamonds.svg	33	no	0	1	2000	0	0			0	0			1				0	
6.6.1	win	2023-07-16	17:24:34	17:50:59	1579069	608da9dd3e630867a6efd9b2	3	1	main_z	11	advance_on_keypress_ZEE	124	stimuli_distractor_trianglediamonds.svg	stimuli_distractor_trianglediamonds.svg	33	no	57	0	254	0	0			0	0			1				0	
6.6.1	win	2023-07-16	17:24:34	17:51:00	1580474	608da9dd3e630867a6efd9b2	3	1	main_z	11	main_z	125	stimuli_distractor_diamondtriangles.svg	stimuli_target_diamondsquares.svg	32	yes	44	1	504	0	0			0	0			1				0	
6.6.1	win	2023-07-16	17:24:34	17:51:00	1580474	608da9dd3e630867a6efd9b2	3	1	main_z	11	advance_on_keypress_ZEE	126	stimuli_distractor_diamondtriangles.svg	stimuli_target_diamondsquares.svg	32	yes	57	0	423	0	0			0	0			1				0	
6.6.1	win	2023-07-16	17:24:34	17:51:03	1583532	608da9dd3e630867a6efd9b2	3	1	main_z	11	main_z	127	stimuli_distractor_diamondtriangles.svg	stimuli_distractor_diamondtriangles.svg	39	no	0	1	2000	0	0			0	0			1				0	
6.6.1	win	2023-07-16	17:24:34	17:51:03	1583532	608da9dd3e630867a6efd9b2	3	1	main_z	11	advance_on_keypress_ZEE	128	stimuli_distractor_diamondtriangles.svg	stimuli_distractor_diamondtriangles.svg	39	no	57	0	386	0	0			0	0			1				0	
6.6.1	win	2023-07-16	17:24:34	17:51:05	1585090	608da9dd3e630867a6efd9b2	3	1	main_z	11	main_z	129	stimuli_target_trianglerectangles.svg	stimuli_distractor_trianglediamonds.svg	17	yes	44	1	528	0	0			0	0			1				0	
6.6.1	win	2023-07-16	17:24:34	17:51:05	1585090	608da9dd3e630867a6efd9b2	3	1	main_z	11	advance_on_keypress_ZEE	130	stimuli_target_trianglerectangles.svg	stimuli_distractor_trianglediamonds.svg	17	yes	57	0	442	0	0			0	0			1				0	
6.6.1	win	2023-07-16	17:24:34	17:51:06	1586527	608da9dd3e630867a6efd9b2	3	1	main_z	11	main_z	131	stimuli_distractor_diamondtriangles.svg	stimuli_target_squarediamonds.svg	16	yes	44	1	334	0	0			0	0			1				0	
6.6.1	win	2023-07-16	17:24:34	17:51:06	1586527	608da9dd3e630867a6efd9b2	3	1	main_z	11	advance_on_keypress_ZEE	132	stimuli_distractor_diamondtriangles.svg	stimuli_target_squarediamonds.svg	16	yes	57	0	667	0	0			0	0			1				0	
6.6.1	win	2023-07-16	17:24:34	17:51:08	1588107	608da9dd3e630867a6efd9b2	3	1	main_z	11	main_z	133	stimuli_target_diamondrectangles.svg	stimuli_distractor_diamondtriangles.svg	23	yes	44	1	264	0	0			0	0			1				0	
6.6.1	win	2023-07-16	17:24:34	17:51:08	1588107	608da9dd3e630867a6efd9b2	3	1	main_z	11	advance_on_keypress_ZEE	134	stimuli_target_diamondrectangles.svg	stimuli_distractor_diamondtriangles.svg	23	yes	57	0	501	0	0			0	0			1				0	
6.6.1	win	2023-07-16	17:24:34	17:51:09	1589605	608da9dd3e630867a6efd9b2	3	1	main_z	11	main_z	135	stimuli_distractor_diamondtriangles.svg	stimuli_distractor_diamondtriangles.svg	40	no	44	0	346	0	0			0	0			1				0	
6.6.1	win	2023-07-16	17:24:34	17:51:09	1589605	608da9dd3e630867a6efd9b2	3	1	main_z	11	advance_on_keypress_ZEE	136	stimuli_distractor_diamondtriangles.svg	stimuli_distractor_diamondtriangles.svg	40	no	57	0	423	0	0			0	0			1				0	
6.6.1	win	2023-07-16	17:24:34	17:51:12	1592674	608da9dd3e630867a6efd9b2	3	1	main_z	11	main_z	137	stimuli_distractor_diamondtriangles.svg	stimuli_distractor_trianglediamonds.svg	38	no	0	1	2000	0	0			0	0			1				0	
6.6.1	win	2023-07-16	17:24:34	17:51:12	1592674	608da9dd3e630867a6efd9b2	3	1	main_z	11	advance_on_keypress_ZEE	138	stimuli_distractor_diamondtriangles.svg	stimuli_distractor_trianglediamonds.svg	38	no	57	0	307	0	0			0	0			1				0	
6.6.1	win	2023-07-16	17:24:34	17:51:14	1593938	608da9dd3e630867a6efd9b2	3	1	main_z	11	main_z	139	stimuli_distractor_trianglediamonds.svg	stimuli_target_rectangletriangles.svg	9	yes	44	1	317	0	0			0	0			1				0	
6.6.1	win	2023-07-16	17:24:34	17:51:14	1593938	608da9dd3e630867a6efd9b2	3	1	main_z	11	advance_on_keypress_ZEE	140	stimuli_distractor_trianglediamonds.svg	stimuli_target_rectangletriangles.svg	9	yes	57	0	514	0	0			0	0			1				0	
6.6.1	win	2023-07-16	17:24:34	17:51:15	1595425	608da9dd3e630867a6efd9b2	3	1	main_z	11	main_z	141	stimuli_distractor_diamondtriangles.svg	stimuli_target_rectanglediamonds.svg	14	yes	44	1	323	0	0			0	0			1				0	
6.6.1	win	2023-07-16	17:24:34	17:51:15	1595425	608da9dd3e630867a6efd9b2	3	1	main_z	11	advance_on_keypress_ZEE	142	stimuli_distractor_diamondtriangles.svg	stimuli_target_rectanglediamonds.svg	14	yes	57	0	518	0	0			0	0			1				0	
6.6.1	win	2023-07-16	17:24:34	17:51:18	1598585	608da9dd3e630867a6efd9b2	3	1	main_z	11	main_z	143	stimuli_distractor_trianglediamonds.svg	stimuli_distractor_trianglediamonds.svg	34	no	0	1	2000	0	0			0	0			1				0	
6.6.1	win	2023-07-16	17:24:34	17:51:18	1598585	608da9dd3e630867a6efd9b2	3	1	main_z	11	advance_on_keypress_ZEE	144	stimuli_distractor_trianglediamonds.svg	stimuli_distractor_trianglediamonds.svg	34	no	57	0	222	0	0			0	0			1				0	
6.6.1	win	2023-07-16	17:24:34	17:51:20	1599799	608da9dd3e630867a6efd9b2	3	1	main_z	11	main_z	145	stimuli_distractor_trianglediamonds.svg	stimuli_target_squaretriangles.svg	11	yes	44	1	350	0	0			0	0			1				0	
6.6.1	win	2023-07-16	17:24:34	17:51:20	1599799	608da9dd3e630867a6efd9b2	3	1	main_z	11	advance_on_keypress_ZEE	146	stimuli_distractor_trianglediamonds.svg	stimuli_target_squaretriangles.svg	11	yes	57	0	453	0	0			0	0			1				0	
6.6.1	win	2023-07-16	17:24:34	17:51:23	1602898	608da9dd3e630867a6efd9b2	3	1	main_z	11	main_z	147	stimuli_distractor_diamondtriangles.svg	stimuli_distractor_trianglediamonds.svg	37	no	0	1	2000	0	0			0	0			1				0	
6.6.1	win	2023-07-16	17:24:34	17:51:23	1602898	608da9dd3e630867a6efd9b2	3	1	main_z	11	advance_on_keypress_ZEE	148	stimuli_distractor_diamondtriangles.svg	stimuli_distractor_trianglediamonds.svg	37	no	57	0	424	0	0			0	0			1				0	
6.6.1	win	2023-07-16	17:24:34	17:51:24	1604663	608da9dd3e630867a6efd9b2	3	1	main_z	11	main_z	149	stimuli_target_diamondrectangles.svg	stimuli_distractor_trianglediamonds.svg	19	yes	44	1	701	0	0			0	0			1				0	
6.6.1	win	2023-07-16	17:24:34	17:51:24	1604663	608da9dd3e630867a6efd9b2	3	1	main_z	11	advance_on_keypress_ZEE	150	stimuli_target_diamondrectangles.svg	stimuli_distractor_trianglediamonds.svg	19	yes	57	0	440	0	0			0	0			1				0	
6.6.1	win	2023-07-16	17:24:34	17:51:26	1606059	608da9dd3e630867a6efd9b2	3	1	main_z	11	main_z	151	stimuli_target_rectangletriangles.svg	stimuli_distractor_diamondtriangles.svg	5	yes	44	1	316	0	0			0	0			1				0	
6.6.1	win	2023-07-16	17:24:34	17:51:26	1606059	608da9dd3e630867a6efd9b2	3	1	main_z	11	advance_on_keypress_ZEE	152	stimuli_target_rectangletriangles.svg	stimuli_distractor_diamondtriangles.svg	5	yes	57	0	472	0	0			0	0			1				0	
6.6.1	win	2023-07-16	17:24:34	17:51:27	1607670	608da9dd3e630867a6efd9b2	3	1	main_z	11	main_z	153	stimuli_distractor_trianglediamonds.svg	stimuli_target_trianglesquares.svg	26	yes	44	1	496	0	0			0	0			1				0	
6.6.1	win	2023-07-16	17:24:34	17:51:27	1607670	608da9dd3e630867a6efd9b2	3	1	main_z	11	advance_on_keypress_ZEE	154	stimuli_distractor_trianglediamonds.svg	stimuli_target_trianglesquares.svg	26	yes	57	0	448	0	0			0	0			1				0	
6.6.1	win	2023-07-16	17:24:34	17:51:29	1609052	608da9dd3e630867a6efd9b2	3	1	main_z	11	main_z	155	stimuli_target_diamondsquares.svg	stimuli_distractor_diamondtriangles.svg	24	yes	44	1	277	0	0			0	0			1				0	
6.6.1	win	2023-07-16	17:24:34	17:51:29	1609052	608da9dd3e630867a6efd9b2	3	1	main_z	11	advance_on_keypress_ZEE	156	stimuli_target_diamondsquares.svg	stimuli_distractor_diamondtriangles.svg	24	yes	57	0	449	0	0			0	0			1				0	
6.6.1	win	2023-07-16	17:24:34	17:51:30	1610494	608da9dd3e630867a6efd9b2	3	1	main_z	11	main_z	157	stimuli_target_trianglesquares.svg	stimuli_distractor_trianglediamonds.svg	18	yes	44	1	339	0	0			0	0			1				0	
6.6.1	win	2023-07-16	17:24:34	17:51:30	1610494	608da9dd3e630867a6efd9b2	3	1	main_z	11	advance_on_keypress_ZEE	158	stimuli_target_trianglesquares.svg	stimuli_distractor_trianglediamonds.svg	18	yes	57	0	383	0	0			0	0			1				0	
6.6.1	win	2023-07-16	17:24:34	17:51:32	1611875	608da9dd3e630867a6efd9b2	3	1	main_z	11	main_z	159	stimuli_target_rectangletriangles.svg	stimuli_distractor_trianglediamonds.svg	1	yes	44	1	353	0	0			0	0			1				0	
6.6.1	win	2023-07-16	17:24:34	17:51:32	1611875	608da9dd3e630867a6efd9b2	3	1	main_z	11	advance_on_keypress_ZEE	160	stimuli_target_rectangletriangles.svg	stimuli_distractor_trianglediamonds.svg	1	yes	57	0	362	0	0			0	0			1				0	
6.6.1	win	2023-07-16	17:24:34	17:51:32	1611875	608da9dd3e630867a6efd9b2	3	1	headphonecheck_intro	13	generalIntro	1	stimuli_target_rectangletriangles.svg	stimuli_distractor_trianglediamonds.svg	1	yes	Ctrl+'Q'	1	55847	0	0			0	0			1				0	