build	computer.platform	date	time	timestamp	time_elapsed_ms	subject	group	session	blockcode	blocknum	trialcode	trialnum	stimulus_left	stimulus_right	stim_index	target_present	response	correct	latency
6.6.1	win	2022-12-14	16:17:50	16:22:00	247582	5c78b032419dcc0014119082	635189652	1	practice_z	5	practice_z	1	stimuli_target_diamondsquares.svg	stimuli_distractor_diamondtriangles.svg	3	yes	0	0	2000
6.6.1	win	2022-12-14	16:17:50	16:22:00	247582	5c78b032419dcc0014119082	635189652	1	practice_z	5	advance_on_keypress_ZEE	2	stimuli_target_diamondsquares.svg	stimuli_distractor_diamondtriangles.svg	3	yes	57	0	1608
6.6.1	win	2022-12-14	16:17:50	16:22:04	251348	5c78b032419dcc0014119082	635189652	1	practice_z	5	practice_z	3	stimuli_distractor_trianglediamonds.svg	stimuli_target_diamondcircles.svg	12	yes	44	1	502
6.6.1	win	2022-12-14	16:17:50	16:22:04	251348	5c78b032419dcc0014119082	635189652	1	practice_z	5	advance_on_keypress_ZEE	4	stimuli_distractor_trianglediamonds.svg	stimuli_target_diamondcircles.svg	12	yes	57	0	625
6.6.1	win	2022-12-14	16:17:50	16:22:07	254063	5c78b032419dcc0014119082	635189652	1	practice_z	5	practice_z	5	stimuli_distractor_diamondtriangles.svg	stimuli_target_diamondcircles.svg	8	yes	44	1	447
6.6.1	win	2022-12-14	16:17:50	16:22:07	254063	5c78b032419dcc0014119082	635189652	1	practice_z	5	advance_on_keypress_ZEE	6	stimuli_distractor_diamondtriangles.svg	stimuli_target_diamondcircles.svg	8	yes	57	0	1324
6.6.1	win	2022-12-14	16:17:50	16:22:12	259032	5c78b032419dcc0014119082	635189652	1	practice_z	5	practice_z	7	stimuli_target_diamondsquares.svg	stimuli_distractor_trianglediamonds.svg	6	yes	0	0	2000
6.6.1	win	2022-12-14	16:17:50	16:22:12	259032	5c78b032419dcc0014119082	635189652	1	practice_z	5	advance_on_keypress_ZEE	8	stimuli_target_diamondsquares.svg	stimuli_distractor_trianglediamonds.svg	6	yes	57	0	2510
6.6.1	win	2022-12-14	16:17:50	16:22:18	265182	5c78b032419dcc0014119082	635189652	1	practice_z	5	practice_z	9	stimuli_distractor_trianglediamonds.svg	stimuli_distractor_trianglediamonds.svg	15	no	0	1	2000
6.6.1	win	2022-12-14	16:17:50	16:22:18	265182	5c78b032419dcc0014119082	635189652	1	practice_z	5	advance_on_keypress_ZEE	10	stimuli_distractor_trianglediamonds.svg	stimuli_distractor_trianglediamonds.svg	15	no	57	0	856
6.6.1	win	2022-12-14	16:17:50	16:22:22	269682	5c78b032419dcc0014119082	635189652	1	practice_z	5	practice_z	11	stimuli_distractor_diamondtriangles.svg	stimuli_distractor_diamondtriangles.svg	13	no	0	1	2000
6.6.1	win	2022-12-14	16:17:50	16:22:22	269682	5c78b032419dcc0014119082	635189652	1	practice_z	5	advance_on_keypress_ZEE	12	stimuli_distractor_diamondtriangles.svg	stimuli_distractor_diamondtriangles.svg	13	no	57	0	684
6.6.1	win	2022-12-14	16:17:50	16:22:25	272751	5c78b032419dcc0014119082	635189652	1	practice_z	5	practice_z	13	stimuli_target_circlediamonds.svg	stimuli_distractor_trianglediamonds.svg	4	yes	44	1	735
6.6.1	win	2022-12-14	16:17:50	16:22:25	272751	5c78b032419dcc0014119082	635189652	1	practice_z	5	advance_on_keypress_ZEE	14	stimuli_target_circlediamonds.svg	stimuli_distractor_trianglediamonds.svg	4	yes	57	0	817
6.6.1	win	2022-12-14	16:17:50	16:22:29	276023	5c78b032419dcc0014119082	635189652	1	practice_z	5	practice_z	15	stimuli_distractor_diamondtriangles.svg	stimuli_target_circletriangles.svg	7	yes	44	1	807
6.6.1	win	2022-12-14	16:17:50	16:22:29	276023	5c78b032419dcc0014119082	635189652	1	practice_z	5	advance_on_keypress_ZEE	16	stimuli_distractor_diamondtriangles.svg	stimuli_target_circletriangles.svg	7	yes	57	0	534
6.6.1	win	2022-12-14	16:17:50	16:22:31	278911	5c78b032419dcc0014119082	635189652	1	practice_z	5	practice_z	17	stimuli_distractor_diamondtriangles.svg	stimuli_target_trianglecircles.svg	9	yes	44	1	712
6.6.1	win	2022-12-14	16:17:50	16:22:31	278911	5c78b032419dcc0014119082	635189652	1	practice_z	5	advance_on_keypress_ZEE	18	stimuli_distractor_diamondtriangles.svg	stimuli_target_trianglecircles.svg	9	yes	57	0	595
6.6.1	win	2022-12-14	16:17:50	16:22:34	281790	5c78b032419dcc0014119082	635189652	1	practice_z	5	practice_z	19	stimuli_target_circlediamonds.svg	stimuli_distractor_diamondtriangles.svg	1	yes	44	1	658
6.6.1	win	2022-12-14	16:17:50	16:22:34	281790	5c78b032419dcc0014119082	635189652	1	practice_z	5	advance_on_keypress_ZEE	20	stimuli_target_circlediamonds.svg	stimuli_distractor_diamondtriangles.svg	1	yes	57	0	536
6.6.1	win	2022-12-14	16:17:50	16:22:38	285967	5c78b032419dcc0014119082	635189652	1	practice_z	5	practice_z	21	stimuli_distractor_diamondtriangles.svg	stimuli_distractor_trianglediamonds.svg	14	no	0	1	2000
6.6.1	win	2022-12-14	16:17:50	16:22:38	285967	5c78b032419dcc0014119082	635189652	1	practice_z	5	advance_on_keypress_ZEE	22	stimuli_distractor_diamondtriangles.svg	stimuli_distractor_trianglediamonds.svg	14	no	57	0	544
6.6.1	win	2022-12-14	16:17:50	16:22:43	290149	5c78b032419dcc0014119082	635189652	1	practice_z	5	practice_z	23	stimuli_distractor_trianglediamonds.svg	stimuli_distractor_diamondtriangles.svg	16	no	0	1	2000
6.6.1	win	2022-12-14	16:17:50	16:22:43	290149	5c78b032419dcc0014119082	635189652	1	practice_z	5	advance_on_keypress_ZEE	24	stimuli_distractor_trianglediamonds.svg	stimuli_distractor_diamondtriangles.svg	16	no	57	0	545
6.6.1	win	2022-12-14	16:17:50	16:22:46	293511	5c78b032419dcc0014119082	635189652	1	practice_z	5	practice_z	25	stimuli_target_squarediamonds.svg	stimuli_distractor_trianglediamonds.svg	5	yes	44	1	1162
6.6.1	win	2022-12-14	16:17:50	16:22:46	293511	5c78b032419dcc0014119082	635189652	1	practice_z	5	advance_on_keypress_ZEE	26	stimuli_target_squarediamonds.svg	stimuli_distractor_trianglediamonds.svg	5	yes	57	0	619
6.6.1	win	2022-12-14	16:17:50	16:22:49	296487	5c78b032419dcc0014119082	635189652	1	practice_z	5	practice_z	27	stimuli_distractor_trianglediamonds.svg	stimuli_target_circlediamonds.svg	10	yes	44	1	721
6.6.1	win	2022-12-14	16:17:50	16:22:49	296487	5c78b032419dcc0014119082	635189652	1	practice_z	5	advance_on_keypress_ZEE	28	stimuli_distractor_trianglediamonds.svg	stimuli_target_circlediamonds.svg	10	yes	57	0	1548
6.6.1	win	2022-12-14	16:17:50	16:22:53	300406	5c78b032419dcc0014119082	635189652	1	practice_z	5	practice_z	29	stimuli_distractor_trianglediamonds.svg	stimuli_target_squarediamonds.svg	11	yes	44	1	724
6.6.1	win	2022-12-14	16:17:50	16:22:53	300406	5c78b032419dcc0014119082	635189652	1	practice_z	5	advance_on_keypress_ZEE	30	stimuli_distractor_trianglediamonds.svg	stimuli_target_squarediamonds.svg	11	yes	57	0	847
6.6.1	win	2022-12-14	16:17:50	16:22:56	303479	5c78b032419dcc0014119082	635189652	1	practice_z	5	practice_z	31	stimuli_target_squarediamonds.svg	stimuli_distractor_diamondtriangles.svg	2	yes	44	1	580
6.6.1	win	2022-12-14	16:17:50	16:22:56	303479	5c78b032419dcc0014119082	635189652	1	practice_z	5	advance_on_keypress_ZEE	32	stimuli_target_squarediamonds.svg	stimuli_distractor_diamondtriangles.svg	2	yes	57	0	556
6.6.1	win	2022-12-14	16:17:50	16:23:31	338221	5c78b032419dcc0014119082	635189652	1	main_z	7	main_z	1	stimuli_target_circlediamonds.svg	stimuli_distractor_trianglediamonds.svg	2	yes	44	1	523
6.6.1	win	2022-12-14	16:17:50	16:23:31	338221	5c78b032419dcc0014119082	635189652	1	main_z	7	advance_on_keypress_ZEE	2	stimuli_target_circlediamonds.svg	stimuli_distractor_trianglediamonds.svg	2	yes	57	0	2670
6.6.1	win	2022-12-14	16:17:50	16:23:35	342541	5c78b032419dcc0014119082	635189652	1	main_z	7	main_z	3	stimuli_distractor_trianglediamonds.svg	stimuli_target_diamondsquares.svg	28	yes	44	1	1010
6.6.1	win	2022-12-14	16:17:50	16:23:35	342541	5c78b032419dcc0014119082	635189652	1	main_z	7	advance_on_keypress_ZEE	4	stimuli_distractor_trianglediamonds.svg	stimuli_target_diamondsquares.svg	28	yes	57	0	2074
6.6.1	win	2022-12-14	16:17:50	16:23:38	345805	5c78b032419dcc0014119082	635189652	1	main_z	7	main_z	5	stimuli_distractor_trianglediamonds.svg	stimuli_target_squarediamonds.svg	12	yes	44	1	558
6.6.1	win	2022-12-14	16:17:50	16:23:38	345805	5c78b032419dcc0014119082	635189652	1	main_z	7	advance_on_keypress_ZEE	6	stimuli_distractor_trianglediamonds.svg	stimuli_target_squarediamonds.svg	12	yes	57	0	2319
6.6.1	win	2022-12-14	16:17:50	16:23:43	350764	5c78b032419dcc0014119082	635189652	1	main_z	7	main_z	7	stimuli_distractor_trianglediamonds.svg	stimuli_distractor_diamondtriangles.svg	35	no	0	1	2000
6.6.1	win	2022-12-14	16:17:50	16:23:43	350764	5c78b032419dcc0014119082	635189652	1	main_z	7	advance_on_keypress_ZEE	8	stimuli_distractor_trianglediamonds.svg	stimuli_distractor_diamondtriangles.svg	35	no	57	0	488
6.6.1	win	2022-12-14	16:17:50	16:23:45	352997	5c78b032419dcc0014119082	635189652	1	main_z	7	main_z	9	stimuli_target_diamondsquares.svg	stimuli_distractor_trianglediamonds.svg	20	yes	44	1	1100
6.6.1	win	2022-12-14	16:17:50	16:23:45	352997	5c78b032419dcc0014119082	635189652	1	main_z	7	advance_on_keypress_ZEE	10	stimuli_target_diamondsquares.svg	stimuli_distractor_trianglediamonds.svg	20	yes	57	0	775
6.6.1	win	2022-12-14	16:17:50	16:23:47	354949	5c78b032419dcc0014119082	635189652	1	main_z	7	main_z	11	stimuli_target_squaretriangles.svg	stimuli_distractor_diamondtriangles.svg	7	yes	44	1	535
6.6.1	win	2022-12-14	16:17:50	16:23:47	354949	5c78b032419dcc0014119082	635189652	1	main_z	7	advance_on_keypress_ZEE	12	stimuli_target_squaretriangles.svg	stimuli_distractor_diamondtriangles.svg	7	yes	57	0	497
6.6.1	win	2022-12-14	16:17:50	16:23:49	356741	5c78b032419dcc0014119082	635189652	1	main_z	7	main_z	13	stimuli_target_diamondcircles.svg	stimuli_distractor_trianglediamonds.svg	19	yes	44	1	644
6.6.1	win	2022-12-14	16:17:50	16:23:49	356741	5c78b032419dcc0014119082	635189652	1	main_z	7	advance_on_keypress_ZEE	14	stimuli_target_diamondcircles.svg	stimuli_distractor_trianglediamonds.svg	19	yes	57	0	418
6.6.1	win	2022-12-14	16:17:50	16:23:52	359798	5c78b032419dcc0014119082	635189652	1	main_z	7	main_z	15	stimuli_distractor_trianglediamonds.svg	stimuli_distractor_diamondtriangles.svg	36	no	0	1	2000
6.6.1	win	2022-12-14	16:17:50	16:23:52	359798	5c78b032419dcc0014119082	635189652	1	main_z	7	advance_on_keypress_ZEE	16	stimuli_distractor_trianglediamonds.svg	stimuli_distractor_diamondtriangles.svg	36	no	57	0	719
6.6.1	win	2022-12-14	16:17:50	16:23:56	363165	5c78b032419dcc0014119082	635189652	1	main_z	7	main_z	17	stimuli_distractor_trianglediamonds.svg	stimuli_distractor_trianglediamonds.svg	33	no	0	1	2000
6.6.1	win	2022-12-14	16:17:50	16:23:56	363165	5c78b032419dcc0014119082	635189652	1	main_z	7	advance_on_keypress_ZEE	18	stimuli_distractor_trianglediamonds.svg	stimuli_distractor_trianglediamonds.svg	33	no	57	0	448
6.6.1	win	2022-12-14	16:17:50	16:23:57	364997	5c78b032419dcc0014119082	635189652	1	main_z	7	main_z	19	stimuli_distractor_trianglediamonds.svg	stimuli_target_diamondcircles.svg	27	yes	44	1	733
6.6.1	win	2022-12-14	16:17:50	16:23:57	364997	5c78b032419dcc0014119082	635189652	1	main_z	7	advance_on_keypress_ZEE	20	stimuli_distractor_trianglediamonds.svg	stimuli_target_diamondcircles.svg	27	yes	57	0	679
6.6.1	win	2022-12-14	16:17:50	16:23:59	366957	5c78b032419dcc0014119082	635189652	1	main_z	7	main_z	21	stimuli_target_diamondcircles.svg	stimuli_distractor_diamondtriangles.svg	23	yes	44	1	643
6.6.1	win	2022-12-14	16:17:50	16:23:59	366957	5c78b032419dcc0014119082	635189652	1	main_z	7	advance_on_keypress_ZEE	22	stimuli_target_diamondcircles.svg	stimuli_distractor_diamondtriangles.svg	23	yes	57	0	441
6.6.1	win	2022-12-14	16:17:50	16:24:01	368829	5c78b032419dcc0014119082	635189652	1	main_z	7	main_z	23	stimuli_target_circletriangles.svg	stimuli_distractor_diamondtriangles.svg	5	yes	44	1	798
6.6.1	win	2022-12-14	16:17:50	16:24:01	368829	5c78b032419dcc0014119082	635189652	1	main_z	7	advance_on_keypress_ZEE	24	stimuli_target_circletriangles.svg	stimuli_distractor_diamondtriangles.svg	5	yes	57	0	550
6.6.1	win	2022-12-14	16:17:50	16:24:03	370813	5c78b032419dcc0014119082	635189652	1	main_z	7	main_z	25	stimuli_target_trianglesquares.svg	stimuli_distractor_trianglediamonds.svg	18	yes	44	1	782
6.6.1	win	2022-12-14	16:17:50	16:24:03	370813	5c78b032419dcc0014119082	635189652	1	main_z	7	advance_on_keypress_ZEE	26	stimuli_target_trianglesquares.svg	stimuli_distractor_trianglediamonds.svg	18	yes	57	0	558
6.6.1	win	2022-12-14	16:17:50	16:24:05	372653	5c78b032419dcc0014119082	635189652	1	main_z	7	main_z	27	stimuli_distractor_diamondtriangles.svg	stimuli_target_diamondcircles.svg	31	yes	44	1	639
6.6.1	win	2022-12-14	16:17:50	16:24:05	372653	5c78b032419dcc0014119082	635189652	1	main_z	7	advance_on_keypress_ZEE	28	stimuli_distractor_diamondtriangles.svg	stimuli_target_diamondcircles.svg	31	yes	57	0	389
6.6.1	win	2022-12-14	16:17:50	16:24:07	374317	5c78b032419dcc0014119082	635189652	1	main_z	7	main_z	29	stimuli_target_circletriangles.svg	stimuli_distractor_trianglediamonds.svg	1	yes	44	1	636
6.6.1	win	2022-12-14	16:17:50	16:24:07	374317	5c78b032419dcc0014119082	635189652	1	main_z	7	advance_on_keypress_ZEE	30	stimuli_target_circletriangles.svg	stimuli_distractor_trianglediamonds.svg	1	yes	57	0	346
6.6.1	win	2022-12-14	16:17:50	16:24:08	375957	5c78b032419dcc0014119082	635189652	1	main_z	7	main_z	31	stimuli_distractor_diamondtriangles.svg	stimuli_target_trianglecircles.svg	29	yes	44	1	660
6.6.1	win	2022-12-14	16:17:50	16:24:08	375957	5c78b032419dcc0014119082	635189652	1	main_z	7	advance_on_keypress_ZEE	32	stimuli_distractor_diamondtriangles.svg	stimuli_target_trianglecircles.svg	29	yes	57	0	321
6.6.1	win	2022-12-14	16:17:50	16:24:11	378914	5c78b032419dcc0014119082	635189652	1	main_z	7	main_z	33	stimuli_distractor_diamondtriangles.svg	stimuli_distractor_diamondtriangles.svg	39	no	0	1	2000
6.6.1	win	2022-12-14	16:17:50	16:24:11	378914	5c78b032419dcc0014119082	635189652	1	main_z	7	advance_on_keypress_ZEE	34	stimuli_distractor_diamondtriangles.svg	stimuli_distractor_diamondtriangles.svg	39	no	57	0	466
6.6.1	win	2022-12-14	16:17:50	16:24:13	380957	5c78b032419dcc0014119082	635189652	1	main_z	7	main_z	35	stimuli_distractor_diamondtriangles.svg	stimuli_target_circlediamonds.svg	14	yes	44	1	926
6.6.1	win	2022-12-14	16:17:50	16:24:13	380957	5c78b032419dcc0014119082	635189652	1	main_z	7	advance_on_keypress_ZEE	36	stimuli_distractor_diamondtriangles.svg	stimuli_target_circlediamonds.svg	14	yes	57	0	593
6.6.1	win	2022-12-14	16:17:50	16:24:17	384182	5c78b032419dcc0014119082	635189652	1	main_z	7	main_z	37	stimuli_distractor_diamondtriangles.svg	stimuli_distractor_diamondtriangles.svg	40	no	0	1	2000
6.6.1	win	2022-12-14	16:17:50	16:24:17	384182	5c78b032419dcc0014119082	635189652	1	main_z	7	advance_on_keypress_ZEE	38	stimuli_distractor_diamondtriangles.svg	stimuli_distractor_diamondtriangles.svg	40	no	57	0	336
6.6.1	win	2022-12-14	16:17:50	16:24:18	385821	5c78b032419dcc0014119082	635189652	1	main_z	7	main_z	39	stimuli_target_squarediamonds.svg	stimuli_distractor_trianglediamonds.svg	4	yes	44	1	657
6.6.1	win	2022-12-14	16:17:50	16:24:18	385821	5c78b032419dcc0014119082	635189652	1	main_z	7	advance_on_keypress_ZEE	40	stimuli_target_squarediamonds.svg	stimuli_distractor_trianglediamonds.svg	4	yes	57	0	686
6.6.1	win	2022-12-14	16:17:50	16:24:20	387757	5c78b032419dcc0014119082	635189652	1	main_z	7	main_z	41	stimuli_distractor_trianglediamonds.svg	stimuli_target_circletriangles.svg	9	yes	44	1	610
6.6.1	win	2022-12-14	16:17:50	16:24:20	387757	5c78b032419dcc0014119082	635189652	1	main_z	7	advance_on_keypress_ZEE	42	stimuli_distractor_trianglediamonds.svg	stimuli_target_circletriangles.svg	9	yes	57	0	465
6.6.1	win	2022-12-14	16:17:50	16:24:22	389605	5c78b032419dcc0014119082	635189652	1	main_z	7	main_z	43	stimuli_target_trianglesquares.svg	stimuli_distractor_diamondtriangles.svg	22	yes	44	1	741
6.6.1	win	2022-12-14	16:17:50	16:24:22	389605	5c78b032419dcc0014119082	635189652	1	main_z	7	advance_on_keypress_ZEE	44	stimuli_target_trianglesquares.svg	stimuli_distractor_diamondtriangles.svg	22	yes	57	0	375
6.6.1	win	2022-12-14	16:17:50	16:24:24	391269	5c78b032419dcc0014119082	635189652	1	main_z	7	main_z	45	stimuli_distractor_diamondtriangles.svg	stimuli_target_trianglesquares.svg	30	yes	44	1	655
6.6.1	win	2022-12-14	16:17:50	16:24:24	391269	5c78b032419dcc0014119082	635189652	1	main_z	7	advance_on_keypress_ZEE	46	stimuli_distractor_diamondtriangles.svg	stimuli_target_trianglesquares.svg	30	yes	57	0	348
6.6.1	win	2022-12-14	16:17:50	16:24:26	393509	5c78b032419dcc0014119082	635189652	1	main_z	7	main_z	47	stimuli_distractor_trianglediamonds.svg	stimuli_target_squaretriangles.svg	11	yes	44	1	1245
6.6.1	win	2022-12-14	16:17:50	16:24:26	393509	5c78b032419dcc0014119082	635189652	1	main_z	7	advance_on_keypress_ZEE	48	stimuli_distractor_trianglediamonds.svg	stimuli_target_squaretriangles.svg	11	yes	57	0	259
6.6.1	win	2022-12-14	16:17:50	16:24:28	395357	5c78b032419dcc0014119082	635189652	1	main_z	7	main_z	49	stimuli_distractor_diamondtriangles.svg	stimuli_target_circletriangles.svg	13	yes	44	1	960
6.6.1	win	2022-12-14	16:17:50	16:24:28	395357	5c78b032419dcc0014119082	635189652	1	main_z	7	advance_on_keypress_ZEE	50	stimuli_distractor_diamondtriangles.svg	stimuli_target_circletriangles.svg	13	yes	57	0	313
6.6.1	win	2022-12-14	16:17:50	16:24:30	397037	5c78b032419dcc0014119082	635189652	1	main_z	7	main_z	51	stimuli_distractor_diamondtriangles.svg	stimuli_target_squaretriangles.svg	15	yes	44	1	740
6.6.1	win	2022-12-14	16:17:50	16:24:30	397037	5c78b032419dcc0014119082	635189652	1	main_z	7	advance_on_keypress_ZEE	52	stimuli_distractor_diamondtriangles.svg	stimuli_target_squaretriangles.svg	15	yes	57	0	302
6.6.1	win	2022-12-14	16:17:50	16:24:31	398717	5c78b032419dcc0014119082	635189652	1	main_z	7	main_z	53	stimuli_target_trianglecircles.svg	stimuli_distractor_diamondtriangles.svg	21	yes	44	1	736
6.6.1	win	2022-12-14	16:17:50	16:24:31	398717	5c78b032419dcc0014119082	635189652	1	main_z	7	advance_on_keypress_ZEE	54	stimuli_target_trianglecircles.svg	stimuli_distractor_diamondtriangles.svg	21	yes	57	0	330
6.6.1	win	2022-12-14	16:17:50	16:24:34	401681	5c78b032419dcc0014119082	635189652	1	main_z	7	main_z	55	stimuli_target_diamondsquares.svg	stimuli_distractor_diamondtriangles.svg	24	yes	0	0	2000
6.6.1	win	2022-12-14	16:17:50	16:24:34	401681	5c78b032419dcc0014119082	635189652	1	main_z	7	advance_on_keypress_ZEE	56	stimuli_target_diamondsquares.svg	stimuli_distractor_diamondtriangles.svg	24	yes	57	0	508
6.6.1	win	2022-12-14	16:17:50	16:24:37	404831	5c78b032419dcc0014119082	635189652	1	main_z	7	main_z	57	stimuli_distractor_diamondtriangles.svg	stimuli_distractor_trianglediamonds.svg	37	no	0	1	2000
6.6.1	win	2022-12-14	16:17:50	16:24:37	404831	5c78b032419dcc0014119082	635189652	1	main_z	7	advance_on_keypress_ZEE	58	stimuli_distractor_diamondtriangles.svg	stimuli_distractor_trianglediamonds.svg	37	no	57	0	317
6.6.1	win	2022-12-14	16:17:50	16:24:40	407798	5c78b032419dcc0014119082	635189652	1	main_z	7	main_z	59	stimuli_distractor_trianglediamonds.svg	stimuli_distractor_trianglediamonds.svg	34	no	0	1	2000
6.6.1	win	2022-12-14	16:17:50	16:24:40	407798	5c78b032419dcc0014119082	635189652	1	main_z	7	advance_on_keypress_ZEE	60	stimuli_distractor_trianglediamonds.svg	stimuli_distractor_trianglediamonds.svg	34	no	57	0	551
6.6.1	win	2022-12-14	16:17:50	16:24:42	409597	5c78b032419dcc0014119082	635189652	1	main_z	7	main_z	61	stimuli_target_trianglecircles.svg	stimuli_distractor_trianglediamonds.svg	17	yes	44	1	600
6.6.1	win	2022-12-14	16:17:50	16:24:42	409597	5c78b032419dcc0014119082	635189652	1	main_z	7	advance_on_keypress_ZEE	62	stimuli_target_trianglecircles.svg	stimuli_distractor_trianglediamonds.svg	17	yes	57	0	455
6.6.1	win	2022-12-14	16:17:50	16:24:44	411645	5c78b032419dcc0014119082	635189652	1	main_z	7	main_z	63	stimuli_distractor_diamondtriangles.svg	stimuli_target_diamondsquares.svg	32	yes	44	1	948
6.6.1	win	2022-12-14	16:17:50	16:24:44	411645	5c78b032419dcc0014119082	635189652	1	main_z	7	advance_on_keypress_ZEE	64	stimuli_distractor_diamondtriangles.svg	stimuli_target_diamondsquares.svg	32	yes	57	0	341
6.6.1	win	2022-12-14	16:17:50	16:24:46	413437	5c78b032419dcc0014119082	635189652	1	main_z	7	main_z	65	stimuli_target_squarediamonds.svg	stimuli_distractor_diamondtriangles.svg	8	yes	44	1	806
6.6.1	win	2022-12-14	16:17:50	16:24:46	413437	5c78b032419dcc0014119082	635189652	1	main_z	7	advance_on_keypress_ZEE	66	stimuli_target_squarediamonds.svg	stimuli_distractor_diamondtriangles.svg	8	yes	57	0	334
6.6.1	win	2022-12-14	16:17:50	16:24:48	415197	5c78b032419dcc0014119082	635189652	1	main_z	7	main_z	67	stimuli_target_squaretriangles.svg	stimuli_distractor_trianglediamonds.svg	3	yes	44	1	783
6.6.1	win	2022-12-14	16:17:50	16:24:48	415197	5c78b032419dcc0014119082	635189652	1	main_z	7	advance_on_keypress_ZEE	68	stimuli_target_squaretriangles.svg	stimuli_distractor_trianglediamonds.svg	3	yes	57	0	343
6.6.1	win	2022-12-14	16:17:50	16:24:49	417021	5c78b032419dcc0014119082	635189652	1	main_z	7	main_z	69	stimuli_distractor_trianglediamonds.svg	stimuli_target_circlediamonds.svg	10	yes	44	1	840
6.6.1	win	2022-12-14	16:17:50	16:24:49	417021	5c78b032419dcc0014119082	635189652	1	main_z	7	advance_on_keypress_ZEE	70	stimuli_distractor_trianglediamonds.svg	stimuli_target_circlediamonds.svg	10	yes	57	0	390
6.6.1	win	2022-12-14	16:17:50	16:24:51	418749	5c78b032419dcc0014119082	635189652	1	main_z	7	main_z	71	stimuli_distractor_diamondtriangles.svg	stimuli_target_squarediamonds.svg	16	yes	44	1	702
6.6.1	win	2022-12-14	16:17:50	16:24:51	418749	5c78b032419dcc0014119082	635189652	1	main_z	7	advance_on_keypress_ZEE	72	stimuli_distractor_diamondtriangles.svg	stimuli_target_squarediamonds.svg	16	yes	57	0	497
6.6.1	win	2022-12-14	16:17:50	16:24:54	421898	5c78b032419dcc0014119082	635189652	1	main_z	7	main_z	73	stimuli_distractor_diamondtriangles.svg	stimuli_distractor_trianglediamonds.svg	38	no	0	1	2000
6.6.1	win	2022-12-14	16:17:50	16:24:54	421898	5c78b032419dcc0014119082	635189652	1	main_z	7	advance_on_keypress_ZEE	74	stimuli_distractor_diamondtriangles.svg	stimuli_distractor_trianglediamonds.svg	38	no	57	0	523
6.6.1	win	2022-12-14	16:17:50	16:24:56	423589	5c78b032419dcc0014119082	635189652	1	main_z	7	main_z	75	stimuli_target_circlediamonds.svg	stimuli_distractor_diamondtriangles.svg	6	yes	44	1	525
6.6.1	win	2022-12-14	16:17:50	16:24:56	423589	5c78b032419dcc0014119082	635189652	1	main_z	7	advance_on_keypress_ZEE	76	stimuli_target_circlediamonds.svg	stimuli_distractor_diamondtriangles.svg	6	yes	57	0	416
6.6.1	win	2022-12-14	16:17:50	16:24:58	425293	5c78b032419dcc0014119082	635189652	1	main_z	7	main_z	77	stimuli_distractor_trianglediamonds.svg	stimuli_target_trianglesquares.svg	26	yes	44	1	646
6.6.1	win	2022-12-14	16:17:50	16:24:58	425293	5c78b032419dcc0014119082	635189652	1	main_z	7	advance_on_keypress_ZEE	78	stimuli_distractor_trianglediamonds.svg	stimuli_target_trianglesquares.svg	26	yes	57	0	380
6.6.1	win	2022-12-14	16:17:50	16:24:59	426933	5c78b032419dcc0014119082	635189652	1	main_z	7	main_z	79	stimuli_distractor_trianglediamonds.svg	stimuli_target_trianglecircles.svg	25	yes	44	1	636
6.6.1	win	2022-12-14	16:17:50	16:24:59	426933	5c78b032419dcc0014119082	635189652	1	main_z	7	advance_on_keypress_ZEE	80	stimuli_distractor_trianglediamonds.svg	stimuli_target_trianglecircles.svg	25	yes	57	0	338
6.6.1	win	2022-12-14	16:17:50	16:25:01	428541	5c78b032419dcc0014119082	635189652	1	main_z	7	main_z	81	stimuli_distractor_diamondtriangles.svg	stimuli_target_squaretriangles.svg	15	yes	44	1	627
6.6.1	win	2022-12-14	16:17:50	16:25:01	428541	5c78b032419dcc0014119082	635189652	1	main_z	7	advance_on_keypress_ZEE	82	stimuli_distractor_diamondtriangles.svg	stimuli_target_squaretriangles.svg	15	yes	57	0	385
6.6.1	win	2022-12-14	16:17:50	16:25:03	430189	5c78b032419dcc0014119082	635189652	1	main_z	7	main_z	83	stimuli_target_squaretriangles.svg	stimuli_distractor_trianglediamonds.svg	3	yes	44	1	625
6.6.1	win	2022-12-14	16:17:50	16:25:03	430189	5c78b032419dcc0014119082	635189652	1	main_z	7	advance_on_keypress_ZEE	84	stimuli_target_squaretriangles.svg	stimuli_distractor_trianglediamonds.svg	3	yes	57	0	376
6.6.1	win	2022-12-14	16:17:50	16:25:04	431813	5c78b032419dcc0014119082	635189652	1	main_z	7	main_z	85	stimuli_target_trianglesquares.svg	stimuli_distractor_trianglediamonds.svg	18	yes	44	1	616
6.6.1	win	2022-12-14	16:17:50	16:25:04	431813	5c78b032419dcc0014119082	635189652	1	main_z	7	advance_on_keypress_ZEE	86	stimuli_target_trianglesquares.svg	stimuli_distractor_trianglediamonds.svg	18	yes	57	0	374
6.6.1	win	2022-12-14	16:17:50	16:25:06	433397	5c78b032419dcc0014119082	635189652	1	main_z	7	main_z	87	stimuli_target_trianglesquares.svg	stimuli_distractor_diamondtriangles.svg	22	yes	44	1	566
6.6.1	win	2022-12-14	16:17:50	16:25:06	433397	5c78b032419dcc0014119082	635189652	1	main_z	7	advance_on_keypress_ZEE	88	stimuli_target_trianglesquares.svg	stimuli_distractor_diamondtriangles.svg	22	yes	57	0	447
6.6.1	win	2022-12-14	16:17:50	16:25:08	435133	5c78b032419dcc0014119082	635189652	1	main_z	7	main_z	89	stimuli_target_squarediamonds.svg	stimuli_distractor_diamondtriangles.svg	8	yes	44	1	636
6.6.1	win	2022-12-14	16:17:50	16:25:08	435133	5c78b032419dcc0014119082	635189652	1	main_z	7	advance_on_keypress_ZEE	90	stimuli_target_squarediamonds.svg	stimuli_distractor_diamondtriangles.svg	8	yes	57	0	410
6.6.1	win	2022-12-14	16:17:50	16:25:09	436757	5c78b032419dcc0014119082	635189652	1	main_z	7	main_z	91	stimuli_distractor_trianglediamonds.svg	stimuli_target_squaretriangles.svg	11	yes	44	1	576
6.6.1	win	2022-12-14	16:17:50	16:25:09	436757	5c78b032419dcc0014119082	635189652	1	main_z	7	advance_on_keypress_ZEE	92	stimuli_distractor_trianglediamonds.svg	stimuli_target_squaretriangles.svg	11	yes	57	0	417
6.6.1	win	2022-12-14	16:17:50	16:25:11	438525	5c78b032419dcc0014119082	635189652	1	main_z	7	main_z	93	stimuli_distractor_diamondtriangles.svg	stimuli_target_diamondcircles.svg	31	yes	44	1	711
6.6.1	win	2022-12-14	16:17:50	16:25:11	438525	5c78b032419dcc0014119082	635189652	1	main_z	7	advance_on_keypress_ZEE	94	stimuli_distractor_diamondtriangles.svg	stimuli_target_diamondcircles.svg	31	yes	57	0	426
6.6.1	win	2022-12-14	16:17:50	16:25:13	440149	5c78b032419dcc0014119082	635189652	1	main_z	7	main_z	95	stimuli_target_circlediamonds.svg	stimuli_distractor_trianglediamonds.svg	2	yes	44	1	568
6.6.1	win	2022-12-14	16:17:50	16:25:13	440149	5c78b032419dcc0014119082	635189652	1	main_z	7	advance_on_keypress_ZEE	96	stimuli_target_circlediamonds.svg	stimuli_distractor_trianglediamonds.svg	2	yes	57	0	409
6.6.1	win	2022-12-14	16:17:50	16:25:14	441989	5c78b032419dcc0014119082	635189652	1	main_z	7	main_z	97	stimuli_distractor_diamondtriangles.svg	stimuli_target_trianglecircles.svg	29	yes	44	1	792
6.6.1	win	2022-12-14	16:17:50	16:25:14	441989	5c78b032419dcc0014119082	635189652	1	main_z	7	advance_on_keypress_ZEE	98	stimuli_distractor_diamondtriangles.svg	stimuli_target_trianglecircles.svg	29	yes	57	0	360
6.6.1	win	2022-12-14	16:17:50	16:25:16	443653	5c78b032419dcc0014119082	635189652	1	main_z	7	main_z	99	stimuli_target_squarediamonds.svg	stimuli_distractor_trianglediamonds.svg	4	yes	44	1	672
6.6.1	win	2022-12-14	16:17:50	16:25:16	443653	5c78b032419dcc0014119082	635189652	1	main_z	7	advance_on_keypress_ZEE	100	stimuli_target_squarediamonds.svg	stimuli_distractor_trianglediamonds.svg	4	yes	57	0	397
6.6.1	win	2022-12-14	16:17:50	16:25:18	445333	5c78b032419dcc0014119082	635189652	1	main_z	7	main_z	101	stimuli_distractor_trianglediamonds.svg	stimuli_target_diamondcircles.svg	27	yes	44	1	636
6.6.1	win	2022-12-14	16:17:50	16:25:18	445333	5c78b032419dcc0014119082	635189652	1	main_z	7	advance_on_keypress_ZEE	102	stimuli_distractor_trianglediamonds.svg	stimuli_target_diamondcircles.svg	27	yes	57	0	306
6.6.1	win	2022-12-14	16:17:50	16:25:19	446909	5c78b032419dcc0014119082	635189652	1	main_z	7	main_z	103	stimuli_distractor_trianglediamonds.svg	stimuli_target_trianglecircles.svg	25	yes	44	1	628
6.6.1	win	2022-12-14	16:17:50	16:25:19	446909	5c78b032419dcc0014119082	635189652	1	main_z	7	advance_on_keypress_ZEE	104	stimuli_distractor_trianglediamonds.svg	stimuli_target_trianglecircles.svg	25	yes	57	0	371
6.6.1	win	2022-12-14	16:17:50	16:25:22	449915	5c78b032419dcc0014119082	635189652	1	main_z	7	main_z	105	stimuli_distractor_diamondtriangles.svg	stimuli_distractor_trianglediamonds.svg	37	no	0	1	2000
6.6.1	win	2022-12-14	16:17:50	16:25:22	449915	5c78b032419dcc0014119082	635189652	1	main_z	7	advance_on_keypress_ZEE	106	stimuli_distractor_diamondtriangles.svg	stimuli_distractor_trianglediamonds.svg	37	no	57	0	578
6.6.1	win	2022-12-14	16:17:50	16:25:24	451813	5c78b032419dcc0014119082	635189652	1	main_z	7	main_z	107	stimuli_target_trianglecircles.svg	stimuli_distractor_trianglediamonds.svg	17	yes	44	1	682
6.6.1	win	2022-12-14	16:17:50	16:25:24	451813	5c78b032419dcc0014119082	635189652	1	main_z	7	advance_on_keypress_ZEE	108	stimuli_target_trianglecircles.svg	stimuli_distractor_trianglediamonds.svg	17	yes	57	0	342
6.6.1	win	2022-12-14	16:17:50	16:25:26	453445	5c78b032419dcc0014119082	635189652	1	main_z	7	main_z	109	stimuli_target_diamondsquares.svg	stimuli_distractor_trianglediamonds.svg	20	yes	44	1	648
6.6.1	win	2022-12-14	16:17:50	16:25:26	453445	5c78b032419dcc0014119082	635189652	1	main_z	7	advance_on_keypress_ZEE	110	stimuli_target_diamondsquares.svg	stimuli_distractor_trianglediamonds.svg	20	yes	57	0	373
6.6.1	win	2022-12-14	16:17:50	16:25:28	455645	5c78b032419dcc0014119082	635189652	1	main_z	7	main_z	111	stimuli_distractor_diamondtriangles.svg	stimuli_target_trianglesquares.svg	30	yes	44	1	1181
6.6.1	win	2022-12-14	16:17:50	16:25:28	455645	5c78b032419dcc0014119082	635189652	1	main_z	7	advance_on_keypress_ZEE	112	stimuli_distractor_diamondtriangles.svg	stimuli_target_trianglesquares.svg	30	yes	57	0	397
6.6.1	win	2022-12-14	16:17:50	16:25:30	457453	5c78b032419dcc0014119082	635189652	1	main_z	7	main_z	113	stimuli_distractor_trianglediamonds.svg	stimuli_target_circletriangles.svg	9	yes	44	1	756
6.6.1	win	2022-12-14	16:17:50	16:25:30	457453	5c78b032419dcc0014119082	635189652	1	main_z	7	advance_on_keypress_ZEE	114	stimuli_distractor_trianglediamonds.svg	stimuli_target_circletriangles.svg	9	yes	57	0	325
6.6.1	win	2022-12-14	16:17:50	16:25:32	459229	5c78b032419dcc0014119082	635189652	1	main_z	7	main_z	115	stimuli_target_diamondcircles.svg	stimuli_distractor_trianglediamonds.svg	19	yes	44	1	815
6.6.1	win	2022-12-14	16:17:50	16:25:32	459229	5c78b032419dcc0014119082	635189652	1	main_z	7	advance_on_keypress_ZEE	116	stimuli_target_diamondcircles.svg	stimuli_distractor_trianglediamonds.svg	19	yes	57	0	390
6.6.1	win	2022-12-14	16:17:50	16:25:34	461069	5c78b032419dcc0014119082	635189652	1	main_z	7	main_z	117	stimuli_distractor_trianglediamonds.svg	stimuli_target_circlediamonds.svg	10	yes	44	1	805
6.6.1	win	2022-12-14	16:17:50	16:25:34	461069	5c78b032419dcc0014119082	635189652	1	main_z	7	advance_on_keypress_ZEE	118	stimuli_distractor_trianglediamonds.svg	stimuli_target_circlediamonds.svg	10	yes	57	0	348
6.6.1	win	2022-12-14	16:17:50	16:25:35	462853	5c78b032419dcc0014119082	635189652	1	main_z	7	main_z	119	stimuli_distractor_diamondtriangles.svg	stimuli_target_diamondsquares.svg	32	yes	44	1	789
6.6.1	win	2022-12-14	16:17:50	16:25:35	462853	5c78b032419dcc0014119082	635189652	1	main_z	7	advance_on_keypress_ZEE	120	stimuli_distractor_diamondtriangles.svg	stimuli_target_diamondsquares.svg	32	yes	57	0	349
6.6.1	win	2022-12-14	16:17:50	16:25:37	464669	5c78b032419dcc0014119082	635189652	1	main_z	7	main_z	121	stimuli_distractor_diamondtriangles.svg	stimuli_distractor_trianglediamonds.svg	38	no	44	0	822
6.6.1	win	2022-12-14	16:17:50	16:25:37	464669	5c78b032419dcc0014119082	635189652	1	main_z	7	advance_on_keypress_ZEE	122	stimuli_distractor_diamondtriangles.svg	stimuli_distractor_trianglediamonds.svg	38	no	57	0	300
6.6.1	win	2022-12-14	16:17:50	16:25:39	466621	5c78b032419dcc0014119082	635189652	1	main_z	7	main_z	123	stimuli_target_diamondcircles.svg	stimuli_distractor_diamondtriangles.svg	23	yes	44	1	1007
6.6.1	win	2022-12-14	16:17:50	16:25:39	466621	5c78b032419dcc0014119082	635189652	1	main_z	7	advance_on_keypress_ZEE	124	stimuli_target_diamondcircles.svg	stimuli_distractor_diamondtriangles.svg	23	yes	57	0	302
6.6.1	win	2022-12-14	16:17:50	16:25:41	468629	5c78b032419dcc0014119082	635189652	1	main_z	7	main_z	125	stimuli_distractor_diamondtriangles.svg	stimuli_target_squarediamonds.svg	16	yes	44	1	1065
6.6.1	win	2022-12-14	16:17:50	16:25:41	468629	5c78b032419dcc0014119082	635189652	1	main_z	7	advance_on_keypress_ZEE	126	stimuli_distractor_diamondtriangles.svg	stimuli_target_squarediamonds.svg	16	yes	57	0	222
6.6.1	win	2022-12-14	16:17:50	16:25:44	471125	5c78b032419dcc0014119082	635189652	1	main_z	7	main_z	127	stimuli_target_circletriangles.svg	stimuli_distractor_trianglediamonds.svg	1	yes	44	1	1628
6.6.1	win	2022-12-14	16:17:50	16:25:44	471125	5c78b032419dcc0014119082	635189652	1	main_z	7	advance_on_keypress_ZEE	128	stimuli_target_circletriangles.svg	stimuli_distractor_trianglediamonds.svg	1	yes	57	0	290
6.6.1	win	2022-12-14	16:17:50	16:25:45	472949	5c78b032419dcc0014119082	635189652	1	main_z	7	main_z	129	stimuli_distractor_diamondtriangles.svg	stimuli_distractor_diamondtriangles.svg	39	no	44	0	901
6.6.1	win	2022-12-14	16:17:50	16:25:45	472949	5c78b032419dcc0014119082	635189652	1	main_z	7	advance_on_keypress_ZEE	130	stimuli_distractor_diamondtriangles.svg	stimuli_distractor_diamondtriangles.svg	39	no	57	0	329
6.6.1	win	2022-12-14	16:17:50	16:25:48	475189	5c78b032419dcc0014119082	635189652	1	main_z	7	main_z	131	stimuli_target_trianglecircles.svg	stimuli_distractor_diamondtriangles.svg	21	yes	44	1	1275
6.6.1	win	2022-12-14	16:17:50	16:25:48	475189	5c78b032419dcc0014119082	635189652	1	main_z	7	advance_on_keypress_ZEE	132	stimuli_target_trianglecircles.svg	stimuli_distractor_diamondtriangles.svg	21	yes	57	0	328
6.6.1	win	2022-12-14	16:17:50	16:25:51	478148	5c78b032419dcc0014119082	635189652	1	main_z	7	main_z	133	stimuli_target_circletriangles.svg	stimuli_distractor_diamondtriangles.svg	5	yes	0	0	2000
6.6.1	win	2022-12-14	16:17:50	16:25:51	478148	5c78b032419dcc0014119082	635189652	1	main_z	7	advance_on_keypress_ZEE	134	stimuli_target_circletriangles.svg	stimuli_distractor_diamondtriangles.svg	5	yes	57	0	873
6.6.1	win	2022-12-14	16:17:50	16:25:53	480389	5c78b032419dcc0014119082	635189652	1	main_z	7	main_z	135	stimuli_target_diamondsquares.svg	stimuli_distractor_diamondtriangles.svg	24	yes	44	1	725
6.6.1	win	2022-12-14	16:17:50	16:25:53	480389	5c78b032419dcc0014119082	635189652	1	main_z	7	advance_on_keypress_ZEE	136	stimuli_target_diamondsquares.svg	stimuli_distractor_diamondtriangles.svg	24	yes	57	0	1584
6.6.1	win	2022-12-14	16:17:50	16:25:56	483693	5c78b032419dcc0014119082	635189652	1	main_z	7	main_z	137	stimuli_distractor_trianglediamonds.svg	stimuli_distractor_diamondtriangles.svg	36	no	44	0	1079
6.6.1	win	2022-12-14	16:17:50	16:25:56	483693	5c78b032419dcc0014119082	635189652	1	main_z	7	advance_on_keypress_ZEE	138	stimuli_distractor_trianglediamonds.svg	stimuli_distractor_diamondtriangles.svg	36	no	57	0	612
6.6.1	win	2022-12-14	16:17:50	16:25:58	485581	5c78b032419dcc0014119082	635189652	1	main_z	7	main_z	139	stimuli_distractor_trianglediamonds.svg	stimuli_target_diamondsquares.svg	28	yes	44	1	650
6.6.1	win	2022-12-14	16:17:50	16:25:58	485581	5c78b032419dcc0014119082	635189652	1	main_z	7	advance_on_keypress_ZEE	140	stimuli_distractor_trianglediamonds.svg	stimuli_target_diamondsquares.svg	28	yes	57	0	1007
6.6.1	win	2022-12-14	16:17:50	16:26:01	488189	5c78b032419dcc0014119082	635189652	1	main_z	7	main_z	141	stimuli_target_squaretriangles.svg	stimuli_distractor_diamondtriangles.svg	7	yes	44	1	958
6.6.1	win	2022-12-14	16:17:50	16:26:01	488189	5c78b032419dcc0014119082	635189652	1	main_z	7	advance_on_keypress_ZEE	142	stimuli_target_squaretriangles.svg	stimuli_distractor_diamondtriangles.svg	7	yes	57	0	1088
6.6.1	win	2022-12-14	16:17:50	16:26:03	490589	5c78b032419dcc0014119082	635189652	1	main_z	7	main_z	143	stimuli_distractor_trianglediamonds.svg	stimuli_target_squarediamonds.svg	12	yes	44	1	675
6.6.1	win	2022-12-14	16:17:50	16:26:03	490589	5c78b032419dcc0014119082	635189652	1	main_z	7	advance_on_keypress_ZEE	144	stimuli_distractor_trianglediamonds.svg	stimuli_target_squarediamonds.svg	12	yes	57	0	1176
6.6.1	win	2022-12-14	16:17:50	16:26:07	494398	5c78b032419dcc0014119082	635189652	1	main_z	7	main_z	145	stimuli_distractor_trianglediamonds.svg	stimuli_distractor_diamondtriangles.svg	35	no	0	1	2000
6.6.1	win	2022-12-14	16:17:50	16:26:07	494398	5c78b032419dcc0014119082	635189652	1	main_z	7	advance_on_keypress_ZEE	146	stimuli_distractor_trianglediamonds.svg	stimuli_distractor_diamondtriangles.svg	35	no	57	0	815
6.6.1	win	2022-12-14	16:17:50	16:26:10	497864	5c78b032419dcc0014119082	635189652	1	main_z	7	main_z	147	stimuli_distractor_diamondtriangles.svg	stimuli_distractor_diamondtriangles.svg	40	no	0	1	2000
6.6.1	win	2022-12-14	16:17:50	16:26:10	497864	5c78b032419dcc0014119082	635189652	1	main_z	7	advance_on_keypress_ZEE	148	stimuli_distractor_diamondtriangles.svg	stimuli_distractor_diamondtriangles.svg	40	no	57	0	1084
6.6.1	win	2022-12-14	16:17:50	16:26:13	500189	5c78b032419dcc0014119082	635189652	1	main_z	7	main_z	149	stimuli_distractor_diamondtriangles.svg	stimuli_target_circlediamonds.svg	14	yes	44	1	592
6.6.1	win	2022-12-14	16:17:50	16:26:13	500189	5c78b032419dcc0014119082	635189652	1	main_z	7	advance_on_keypress_ZEE	150	stimuli_distractor_diamondtriangles.svg	stimuli_target_circlediamonds.svg	14	yes	57	0	328
6.6.1	win	2022-12-14	16:17:50	16:26:16	503148	5c78b032419dcc0014119082	635189652	1	main_z	7	main_z	151	stimuli_distractor_trianglediamonds.svg	stimuli_distractor_trianglediamonds.svg	33	no	0	1	2000
6.6.1	win	2022-12-14	16:17:50	16:26:16	503148	5c78b032419dcc0014119082	635189652	1	main_z	7	advance_on_keypress_ZEE	152	stimuli_distractor_trianglediamonds.svg	stimuli_distractor_trianglediamonds.svg	33	no	57	0	449
6.6.1	win	2022-12-14	16:17:50	16:26:17	504764	5c78b032419dcc0014119082	635189652	1	main_z	7	main_z	153	stimuli_distractor_diamondtriangles.svg	stimuli_target_circletriangles.svg	13	yes	44	1	502
6.6.1	win	2022-12-14	16:17:50	16:26:17	504764	5c78b032419dcc0014119082	635189652	1	main_z	7	advance_on_keypress_ZEE	154	stimuli_distractor_diamondtriangles.svg	stimuli_target_circletriangles.svg	13	yes	57	0	352
6.6.1	win	2022-12-14	16:17:50	16:26:19	506397	5c78b032419dcc0014119082	635189652	1	main_z	7	main_z	155	stimuli_target_circlediamonds.svg	stimuli_distractor_diamondtriangles.svg	6	yes	44	1	633
6.6.1	win	2022-12-14	16:17:50	16:26:19	506397	5c78b032419dcc0014119082	635189652	1	main_z	7	advance_on_keypress_ZEE	156	stimuli_target_circlediamonds.svg	stimuli_distractor_diamondtriangles.svg	6	yes	57	0	255
6.6.1	win	2022-12-14	16:17:50	16:26:22	509298	5c78b032419dcc0014119082	635189652	1	main_z	7	main_z	157	stimuli_distractor_trianglediamonds.svg	stimuli_distractor_trianglediamonds.svg	34	no	0	1	2000
6.6.1	win	2022-12-14	16:17:50	16:26:22	509298	5c78b032419dcc0014119082	635189652	1	main_z	7	advance_on_keypress_ZEE	158	stimuli_distractor_trianglediamonds.svg	stimuli_distractor_trianglediamonds.svg	34	no	57	0	427
6.6.1	win	2022-12-14	16:17:50	16:26:23	510925	5c78b032419dcc0014119082	635189652	1	main_z	7	main_z	159	stimuli_distractor_trianglediamonds.svg	stimuli_target_trianglesquares.svg	26	yes	44	1	560
6.6.1	win	2022-12-14	16:17:50	16:26:23	510925	5c78b032419dcc0014119082	635189652	1	main_z	7	advance_on_keypress_ZEE	160	stimuli_distractor_trianglediamonds.svg	stimuli_target_trianglesquares.svg	26	yes	57	0	346
6.6.1	win	2022-12-14	16:17:50	16:28:28	635933	5c78b032419dcc0014119082	635189652	1	practice_slash	9	practice_slash	1	stimuli_distractor_trianglediamonds.svg	stimuli_target_squarediamonds.svg	11	yes	0	0	2000
6.6.1	win	2022-12-14	16:17:50	16:28:28	635933	5c78b032419dcc0014119082	635189652	1	practice_slash	9	advance_on_keypress_SLASH	2	stimuli_distractor_trianglediamonds.svg	stimuli_target_squarediamonds.svg	11	yes	57	0	13850
6.6.1	win	2022-12-14	16:17:50	16:28:46	653432	5c78b032419dcc0014119082	635189652	1	practice_slash	9	practice_slash	3	stimuli_distractor_diamondtriangles.svg	stimuli_target_trianglecircles.svg	9	yes	0	0	2000
6.6.1	win	2022-12-14	16:17:50	16:28:46	653432	5c78b032419dcc0014119082	635189652	1	practice_slash	9	advance_on_keypress_SLASH	4	stimuli_distractor_diamondtriangles.svg	stimuli_target_trianglecircles.svg	9	yes	57	0	4422
6.6.1	win	2022-12-14	16:17:50	16:28:52	659591	5c78b032419dcc0014119082	635189652	1	practice_slash	9	practice_slash	5	stimuli_distractor_trianglediamonds.svg	stimuli_target_diamondcircles.svg	12	yes	8	1	92
6.6.1	win	2022-12-14	16:17:50	16:28:52	659591	5c78b032419dcc0014119082	635189652	1	practice_slash	9	advance_on_keypress_SLASH	6	stimuli_distractor_trianglediamonds.svg	stimuli_target_diamondcircles.svg	12	yes	57	0	736
6.6.1	win	2022-12-14	16:17:50	16:28:55	662495	5c78b032419dcc0014119082	635189652	1	practice_slash	9	practice_slash	7	stimuli_distractor_diamondtriangles.svg	stimuli_target_diamondcircles.svg	8	yes	8	1	529
6.6.1	win	2022-12-14	16:17:50	16:28:55	662495	5c78b032419dcc0014119082	635189652	1	practice_slash	9	advance_on_keypress_SLASH	8	stimuli_distractor_diamondtriangles.svg	stimuli_target_diamondcircles.svg	8	yes	57	0	675
6.6.1	win	2022-12-14	16:17:50	16:28:59	666816	5c78b032419dcc0014119082	635189652	1	practice_slash	9	practice_slash	9	stimuli_distractor_diamondtriangles.svg	stimuli_distractor_trianglediamonds.svg	14	no	0	1	2000
6.6.1	win	2022-12-14	16:17:50	16:28:59	666816	5c78b032419dcc0014119082	635189652	1	practice_slash	9	advance_on_keypress_SLASH	10	stimuli_distractor_diamondtriangles.svg	stimuli_distractor_trianglediamonds.svg	14	no	57	0	526
6.6.1	win	2022-12-14	16:17:50	16:29:02	669742	5c78b032419dcc0014119082	635189652	1	practice_slash	9	practice_slash	11	stimuli_target_diamondsquares.svg	stimuli_distractor_diamondtriangles.svg	3	yes	8	1	760
6.6.1	win	2022-12-14	16:17:50	16:29:02	669742	5c78b032419dcc0014119082	635189652	1	practice_slash	9	advance_on_keypress_SLASH	12	stimuli_target_diamondsquares.svg	stimuli_distractor_diamondtriangles.svg	3	yes	57	0	530
6.6.1	win	2022-12-14	16:17:50	16:29:06	673916	5c78b032419dcc0014119082	635189652	1	practice_slash	9	practice_slash	13	stimuli_distractor_diamondtriangles.svg	stimuli_distractor_diamondtriangles.svg	13	no	0	1	2000
6.6.1	win	2022-12-14	16:17:50	16:29:06	673916	5c78b032419dcc0014119082	635189652	1	practice_slash	9	advance_on_keypress_SLASH	14	stimuli_distractor_diamondtriangles.svg	stimuli_distractor_diamondtriangles.svg	13	no	57	0	426
6.6.1	win	2022-12-14	16:17:50	16:29:10	677982	5c78b032419dcc0014119082	635189652	1	practice_slash	9	practice_slash	15	stimuli_distractor_trianglediamonds.svg	stimuli_distractor_trianglediamonds.svg	15	no	0	1	2000
6.6.1	win	2022-12-14	16:17:50	16:29:10	677982	5c78b032419dcc0014119082	635189652	1	practice_slash	9	advance_on_keypress_SLASH	16	stimuli_distractor_trianglediamonds.svg	stimuli_distractor_trianglediamonds.svg	15	no	57	0	576
6.6.1	win	2022-12-14	16:17:50	16:29:13	680895	5c78b032419dcc0014119082	635189652	1	practice_slash	9	practice_slash	17	stimuli_target_squarediamonds.svg	stimuli_distractor_trianglediamonds.svg	5	yes	8	1	696
6.6.1	win	2022-12-14	16:17:50	16:29:13	680895	5c78b032419dcc0014119082	635189652	1	practice_slash	9	advance_on_keypress_SLASH	18	stimuli_target_squarediamonds.svg	stimuli_distractor_trianglediamonds.svg	5	yes	57	0	659
6.6.1	win	2022-12-14	16:17:50	16:29:18	685199	5c78b032419dcc0014119082	635189652	1	practice_slash	9	practice_slash	19	stimuli_distractor_trianglediamonds.svg	stimuli_distractor_diamondtriangles.svg	16	no	0	1	2000
6.6.1	win	2022-12-14	16:17:50	16:29:18	685199	5c78b032419dcc0014119082	635189652	1	practice_slash	9	advance_on_keypress_SLASH	20	stimuli_distractor_trianglediamonds.svg	stimuli_distractor_diamondtriangles.svg	16	no	57	0	663
6.6.1	win	2022-12-14	16:17:50	16:29:21	688151	5c78b032419dcc0014119082	635189652	1	practice_slash	9	practice_slash	21	stimuli_distractor_trianglediamonds.svg	stimuli_target_circlediamonds.svg	10	yes	8	1	635
6.6.1	win	2022-12-14	16:17:50	16:29:21	688151	5c78b032419dcc0014119082	635189652	1	practice_slash	9	advance_on_keypress_SLASH	22	stimuli_distractor_trianglediamonds.svg	stimuli_target_circlediamonds.svg	10	yes	57	0	585
6.6.1	win	2022-12-14	16:17:50	16:29:24	691087	5c78b032419dcc0014119082	635189652	1	practice_slash	9	practice_slash	23	stimuli_target_circlediamonds.svg	stimuli_distractor_trianglediamonds.svg	4	yes	8	1	704
6.6.1	win	2022-12-14	16:17:50	16:29:24	691087	5c78b032419dcc0014119082	635189652	1	practice_slash	9	advance_on_keypress_SLASH	24	stimuli_target_circlediamonds.svg	stimuli_distractor_trianglediamonds.svg	4	yes	57	0	596
6.6.1	win	2022-12-14	16:17:50	16:29:26	694015	5c78b032419dcc0014119082	635189652	1	practice_slash	9	practice_slash	25	stimuli_target_squarediamonds.svg	stimuli_distractor_diamondtriangles.svg	2	yes	8	1	699
6.6.1	win	2022-12-14	16:17:50	16:29:26	694015	5c78b032419dcc0014119082	635189652	1	practice_slash	9	advance_on_keypress_SLASH	26	stimuli_target_squarediamonds.svg	stimuli_distractor_diamondtriangles.svg	2	yes	57	0	574
6.6.1	win	2022-12-14	16:17:50	16:29:29	696958	5c78b032419dcc0014119082	635189652	1	practice_slash	9	practice_slash	27	stimuli_target_circlediamonds.svg	stimuli_distractor_diamondtriangles.svg	1	yes	8	1	726
6.6.1	win	2022-12-14	16:17:50	16:29:29	696958	5c78b032419dcc0014119082	635189652	1	practice_slash	9	advance_on_keypress_SLASH	28	stimuli_target_circlediamonds.svg	stimuli_distractor_diamondtriangles.svg	1	yes	57	0	569
6.6.1	win	2022-12-14	16:17:50	16:29:32	700006	5c78b032419dcc0014119082	635189652	1	practice_slash	9	practice_slash	29	stimuli_distractor_diamondtriangles.svg	stimuli_target_circletriangles.svg	7	yes	8	1	841
6.6.1	win	2022-12-14	16:17:50	16:29:32	700006	5c78b032419dcc0014119082	635189652	1	practice_slash	9	advance_on_keypress_SLASH	30	stimuli_distractor_diamondtriangles.svg	stimuli_target_circletriangles.svg	7	yes	57	0	895
6.6.1	win	2022-12-14	16:17:50	16:29:36	703607	5c78b032419dcc0014119082	635189652	1	practice_slash	9	practice_slash	31	stimuli_target_diamondsquares.svg	stimuli_distractor_trianglediamonds.svg	6	yes	8	1	1074
6.6.1	win	2022-12-14	16:17:50	16:29:36	703607	5c78b032419dcc0014119082	635189652	1	practice_slash	9	advance_on_keypress_SLASH	32	stimuli_target_diamondsquares.svg	stimuli_distractor_trianglediamonds.svg	6	yes	57	0	823
6.6.1	win	2022-12-14	16:17:50	16:30:02	729213	5c78b032419dcc0014119082	635189652	1	main_slash	11	main_slash	1	stimuli_distractor_diamondtriangles.svg	stimuli_target_trianglesquares.svg	30	yes	8	1	715
6.6.1	win	2022-12-14	16:17:50	16:30:02	729213	5c78b032419dcc0014119082	635189652	1	main_slash	11	advance_on_keypress_SLASH	2	stimuli_distractor_diamondtriangles.svg	stimuli_target_trianglesquares.svg	30	yes	57	0	566
6.6.1	win	2022-12-14	16:17:50	16:30:03	730997	5c78b032419dcc0014119082	635189652	1	main_slash	11	main_slash	3	stimuli_target_trianglecircles.svg	stimuli_distractor_diamondtriangles.svg	21	yes	8	1	566
6.6.1	win	2022-12-14	16:17:50	16:30:03	730997	5c78b032419dcc0014119082	635189652	1	main_slash	11	advance_on_keypress_SLASH	4	stimuli_target_trianglecircles.svg	stimuli_distractor_diamondtriangles.svg	21	yes	57	0	423
6.6.1	win	2022-12-14	16:17:50	16:30:05	732637	5c78b032419dcc0014119082	635189652	1	main_slash	11	main_slash	5	stimuli_target_circlediamonds.svg	stimuli_distractor_diamondtriangles.svg	6	yes	8	1	573
6.6.1	win	2022-12-14	16:17:50	16:30:05	732637	5c78b032419dcc0014119082	635189652	1	main_slash	11	advance_on_keypress_SLASH	6	stimuli_target_circlediamonds.svg	stimuli_distractor_diamondtriangles.svg	6	yes	57	0	430
6.6.1	win	2022-12-14	16:17:50	16:30:07	734349	5c78b032419dcc0014119082	635189652	1	main_slash	11	main_slash	7	stimuli_distractor_trianglediamonds.svg	stimuli_target_trianglecircles.svg	25	yes	8	1	652
6.6.1	win	2022-12-14	16:17:50	16:30:07	734349	5c78b032419dcc0014119082	635189652	1	main_slash	11	advance_on_keypress_SLASH	8	stimuli_distractor_trianglediamonds.svg	stimuli_target_trianglecircles.svg	25	yes	57	0	353
6.6.1	win	2022-12-14	16:17:50	16:30:10	737348	5c78b032419dcc0014119082	635189652	1	main_slash	11	main_slash	9	stimuli_distractor_trianglediamonds.svg	stimuli_distractor_trianglediamonds.svg	34	no	0	1	2000
6.6.1	win	2022-12-14	16:17:50	16:30:10	737348	5c78b032419dcc0014119082	635189652	1	main_slash	11	advance_on_keypress_SLASH	10	stimuli_distractor_trianglediamonds.svg	stimuli_distractor_trianglediamonds.svg	34	no	57	0	464
6.6.1	win	2022-12-14	16:17:50	16:30:11	738917	5c78b032419dcc0014119082	635189652	1	main_slash	11	main_slash	11	stimuli_distractor_trianglediamonds.svg	stimuli_target_squaretriangles.svg	11	yes	8	1	453
6.6.1	win	2022-12-14	16:17:50	16:30:11	738917	5c78b032419dcc0014119082	635189652	1	main_slash	11	advance_on_keypress_SLASH	12	stimuli_distractor_trianglediamonds.svg	stimuli_target_squaretriangles.svg	11	yes	57	0	426
6.6.1	win	2022-12-14	16:17:50	16:30:13	740661	5c78b032419dcc0014119082	635189652	1	main_slash	11	main_slash	13	stimuli_target_diamondsquares.svg	stimuli_distractor_trianglediamonds.svg	20	yes	8	1	680
6.6.1	win	2022-12-14	16:17:50	16:30:13	740661	5c78b032419dcc0014119082	635189652	1	main_slash	11	advance_on_keypress_SLASH	14	stimuli_target_diamondsquares.svg	stimuli_distractor_trianglediamonds.svg	20	yes	57	0	405
6.6.1	win	2022-12-14	16:17:50	16:30:15	742269	5c78b032419dcc0014119082	635189652	1	main_slash	11	main_slash	15	stimuli_target_diamondcircles.svg	stimuli_distractor_diamondtriangles.svg	23	yes	8	1	572
6.6.1	win	2022-12-14	16:17:50	16:30:15	742269	5c78b032419dcc0014119082	635189652	1	main_slash	11	advance_on_keypress_SLASH	16	stimuli_target_diamondcircles.svg	stimuli_distractor_diamondtriangles.svg	23	yes	57	0	380
6.6.1	win	2022-12-14	16:17:50	16:30:17	744061	5c78b032419dcc0014119082	635189652	1	main_slash	11	main_slash	17	stimuli_distractor_diamondtriangles.svg	stimuli_target_diamondsquares.svg	32	yes	8	1	780
6.6.1	win	2022-12-14	16:17:50	16:30:17	744061	5c78b032419dcc0014119082	635189652	1	main_slash	11	advance_on_keypress_SLASH	18	stimuli_distractor_diamondtriangles.svg	stimuli_target_diamondsquares.svg	32	yes	57	0	364
6.6.1	win	2022-12-14	16:17:50	16:30:18	745853	5c78b032419dcc0014119082	635189652	1	main_slash	11	main_slash	19	stimuli_target_squaretriangles.svg	stimuli_distractor_diamondtriangles.svg	7	yes	8	1	772
6.6.1	win	2022-12-14	16:17:50	16:30:18	745853	5c78b032419dcc0014119082	635189652	1	main_slash	11	advance_on_keypress_SLASH	20	stimuli_target_squaretriangles.svg	stimuli_distractor_diamondtriangles.svg	7	yes	57	0	365
6.6.1	win	2022-12-14	16:17:50	16:30:20	747565	5c78b032419dcc0014119082	635189652	1	main_slash	11	main_slash	21	stimuli_distractor_diamondtriangles.svg	stimuli_target_circlediamonds.svg	14	yes	8	1	701
6.6.1	win	2022-12-14	16:17:50	16:30:20	747565	5c78b032419dcc0014119082	635189652	1	main_slash	11	advance_on_keypress_SLASH	22	stimuli_distractor_diamondtriangles.svg	stimuli_target_circlediamonds.svg	14	yes	57	0	384
6.6.1	win	2022-12-14	16:17:50	16:30:23	750598	5c78b032419dcc0014119082	635189652	1	main_slash	11	main_slash	23	stimuli_distractor_trianglediamonds.svg	stimuli_distractor_diamondtriangles.svg	35	no	0	1	2000
6.6.1	win	2022-12-14	16:17:50	16:30:23	750598	5c78b032419dcc0014119082	635189652	1	main_slash	11	advance_on_keypress_SLASH	24	stimuli_distractor_trianglediamonds.svg	stimuli_distractor_diamondtriangles.svg	35	no	57	0	503
6.6.1	win	2022-12-14	16:17:50	16:30:25	752397	5c78b032419dcc0014119082	635189652	1	main_slash	11	main_slash	25	stimuli_target_diamondcircles.svg	stimuli_distractor_trianglediamonds.svg	19	yes	8	1	650
6.6.1	win	2022-12-14	16:17:50	16:30:25	752397	5c78b032419dcc0014119082	635189652	1	main_slash	11	advance_on_keypress_SLASH	26	stimuli_target_diamondcircles.svg	stimuli_distractor_trianglediamonds.svg	19	yes	57	0	383
6.6.1	win	2022-12-14	16:17:50	16:30:27	754117	5c78b032419dcc0014119082	635189652	1	main_slash	11	main_slash	27	stimuli_target_squarediamonds.svg	stimuli_distractor_trianglediamonds.svg	4	yes	8	1	686
6.6.1	win	2022-12-14	16:17:50	16:30:27	754117	5c78b032419dcc0014119082	635189652	1	main_slash	11	advance_on_keypress_SLASH	28	stimuli_target_squarediamonds.svg	stimuli_distractor_trianglediamonds.svg	4	yes	57	0	402
6.6.1	win	2022-12-14	16:17:50	16:30:28	755829	5c78b032419dcc0014119082	635189652	1	main_slash	11	main_slash	29	stimuli_target_diamondsquares.svg	stimuli_distractor_diamondtriangles.svg	24	yes	8	1	664
6.6.1	win	2022-12-14	16:17:50	16:30:28	755829	5c78b032419dcc0014119082	635189652	1	main_slash	11	advance_on_keypress_SLASH	30	stimuli_target_diamondsquares.svg	stimuli_distractor_diamondtriangles.svg	24	yes	57	0	350
6.6.1	win	2022-12-14	16:17:50	16:30:30	757477	5c78b032419dcc0014119082	635189652	1	main_slash	11	main_slash	31	stimuli_target_trianglesquares.svg	stimuli_distractor_trianglediamonds.svg	18	yes	8	1	646
6.6.1	win	2022-12-14	16:17:50	16:30:30	757477	5c78b032419dcc0014119082	635189652	1	main_slash	11	advance_on_keypress_SLASH	32	stimuli_target_trianglesquares.svg	stimuli_distractor_trianglediamonds.svg	18	yes	57	0	372
6.6.1	win	2022-12-14	16:17:50	16:30:32	759149	5c78b032419dcc0014119082	635189652	1	main_slash	11	main_slash	33	stimuli_target_circlediamonds.svg	stimuli_distractor_trianglediamonds.svg	2	yes	8	1	668
6.6.1	win	2022-12-14	16:17:50	16:30:32	759149	5c78b032419dcc0014119082	635189652	1	main_slash	11	advance_on_keypress_SLASH	34	stimuli_target_circlediamonds.svg	stimuli_distractor_trianglediamonds.svg	2	yes	57	0	65
6.6.1	win	2022-12-14	16:17:50	16:30:33	760677	5c78b032419dcc0014119082	635189652	1	main_slash	11	main_slash	35	stimuli_target_squaretriangles.svg	stimuli_distractor_trianglediamonds.svg	3	yes	8	1	813
6.6.1	win	2022-12-14	16:17:50	16:30:33	760677	5c78b032419dcc0014119082	635189652	1	main_slash	11	advance_on_keypress_SLASH	36	stimuli_target_squaretriangles.svg	stimuli_distractor_trianglediamonds.svg	3	yes	57	0	396
6.6.1	win	2022-12-14	16:17:50	16:30:36	763698	5c78b032419dcc0014119082	635189652	1	main_slash	11	main_slash	37	stimuli_distractor_diamondtriangles.svg	stimuli_distractor_diamondtriangles.svg	39	no	0	1	2000
6.6.1	win	2022-12-14	16:17:50	16:30:36	763698	5c78b032419dcc0014119082	635189652	1	main_slash	11	advance_on_keypress_SLASH	38	stimuli_distractor_diamondtriangles.svg	stimuli_distractor_diamondtriangles.svg	39	no	57	0	555
6.6.1	win	2022-12-14	16:17:50	16:30:39	766898	5c78b032419dcc0014119082	635189652	1	main_slash	11	main_slash	39	stimuli_distractor_trianglediamonds.svg	stimuli_distractor_diamondtriangles.svg	36	no	0	1	2000
6.6.1	win	2022-12-14	16:17:50	16:30:39	766898	5c78b032419dcc0014119082	635189652	1	main_slash	11	advance_on_keypress_SLASH	40	stimuli_distractor_trianglediamonds.svg	stimuli_distractor_diamondtriangles.svg	36	no	57	0	395
6.6.1	win	2022-12-14	16:17:50	16:30:41	768669	5c78b032419dcc0014119082	635189652	1	main_slash	11	main_slash	41	stimuli_distractor_diamondtriangles.svg	stimuli_target_squaretriangles.svg	15	yes	8	1	738
6.6.1	win	2022-12-14	16:17:50	16:30:41	768669	5c78b032419dcc0014119082	635189652	1	main_slash	11	advance_on_keypress_SLASH	42	stimuli_distractor_diamondtriangles.svg	stimuli_target_squaretriangles.svg	15	yes	57	0	428
6.6.1	win	2022-12-14	16:17:50	16:30:43	770605	5c78b032419dcc0014119082	635189652	1	main_slash	11	main_slash	43	stimuli_distractor_diamondtriangles.svg	stimuli_target_diamondcircles.svg	31	yes	8	1	874
6.6.1	win	2022-12-14	16:17:50	16:30:43	770605	5c78b032419dcc0014119082	635189652	1	main_slash	11	advance_on_keypress_SLASH	44	stimuli_distractor_diamondtriangles.svg	stimuli_target_diamondcircles.svg	31	yes	57	0	391
6.6.1	win	2022-12-14	16:17:50	16:30:46	773631	5c78b032419dcc0014119082	635189652	1	main_slash	11	main_slash	45	stimuli_distractor_diamondtriangles.svg	stimuli_distractor_diamondtriangles.svg	40	no	0	1	2000
6.6.1	win	2022-12-14	16:17:50	16:30:46	773631	5c78b032419dcc0014119082	635189652	1	main_slash	11	advance_on_keypress_SLASH	46	stimuli_distractor_diamondtriangles.svg	stimuli_distractor_diamondtriangles.svg	40	no	57	0	406
6.6.1	win	2022-12-14	16:17:50	16:30:48	775309	5c78b032419dcc0014119082	635189652	1	main_slash	11	main_slash	47	stimuli_distractor_trianglediamonds.svg	stimuli_target_diamondcircles.svg	27	yes	8	1	628
6.6.1	win	2022-12-14	16:17:50	16:30:48	775309	5c78b032419dcc0014119082	635189652	1	main_slash	11	advance_on_keypress_SLASH	48	stimuli_distractor_trianglediamonds.svg	stimuli_target_diamondcircles.svg	27	yes	57	0	379
6.6.1	win	2022-12-14	16:17:50	16:30:50	777117	5c78b032419dcc0014119082	635189652	1	main_slash	11	main_slash	49	stimuli_distractor_trianglediamonds.svg	stimuli_target_circlediamonds.svg	10	yes	8	1	803
6.6.1	win	2022-12-14	16:17:50	16:30:50	777117	5c78b032419dcc0014119082	635189652	1	main_slash	11	advance_on_keypress_SLASH	50	stimuli_distractor_trianglediamonds.svg	stimuli_target_circlediamonds.svg	10	yes	57	0	418
6.6.1	win	2022-12-14	16:17:50	16:30:52	779093	5c78b032419dcc0014119082	635189652	1	main_slash	11	main_slash	51	stimuli_target_squarediamonds.svg	stimuli_distractor_diamondtriangles.svg	8	yes	8	1	912
6.6.1	win	2022-12-14	16:17:50	16:30:52	779093	5c78b032419dcc0014119082	635189652	1	main_slash	11	advance_on_keypress_SLASH	52	stimuli_target_squarediamonds.svg	stimuli_distractor_diamondtriangles.svg	8	yes	57	0	356
6.6.1	win	2022-12-14	16:17:50	16:30:55	782081	5c78b032419dcc0014119082	635189652	1	main_slash	11	main_slash	53	stimuli_distractor_diamondtriangles.svg	stimuli_distractor_trianglediamonds.svg	38	no	0	1	2000
6.6.1	win	2022-12-14	16:17:50	16:30:55	782081	5c78b032419dcc0014119082	635189652	1	main_slash	11	advance_on_keypress_SLASH	54	stimuli_distractor_diamondtriangles.svg	stimuli_distractor_trianglediamonds.svg	38	no	57	0	572
6.6.1	win	2022-12-14	16:17:50	16:30:56	783933	5c78b032419dcc0014119082	635189652	1	main_slash	11	main_slash	55	stimuli_distractor_trianglediamonds.svg	stimuli_target_squarediamonds.svg	12	yes	8	1	636
6.6.1	win	2022-12-14	16:17:50	16:30:56	783933	5c78b032419dcc0014119082	635189652	1	main_slash	11	advance_on_keypress_SLASH	56	stimuli_distractor_trianglediamonds.svg	stimuli_target_squarediamonds.svg	12	yes	57	0	402
6.6.1	win	2022-12-14	16:17:50	16:30:58	785621	5c78b032419dcc0014119082	635189652	1	main_slash	11	main_slash	57	stimuli_distractor_diamondtriangles.svg	stimuli_target_squarediamonds.svg	16	yes	8	1	640
6.6.1	win	2022-12-14	16:17:50	16:30:58	785621	5c78b032419dcc0014119082	635189652	1	main_slash	11	advance_on_keypress_SLASH	58	stimuli_distractor_diamondtriangles.svg	stimuli_target_squarediamonds.svg	16	yes	57	0	446
6.6.1	win	2022-12-14	16:17:50	16:31:01	788698	5c78b032419dcc0014119082	635189652	1	main_slash	11	main_slash	59	stimuli_distractor_trianglediamonds.svg	stimuli_distractor_trianglediamonds.svg	33	no	0	1	2000
6.6.1	win	2022-12-14	16:17:50	16:31:01	788698	5c78b032419dcc0014119082	635189652	1	main_slash	11	advance_on_keypress_SLASH	60	stimuli_distractor_trianglediamonds.svg	stimuli_distractor_trianglediamonds.svg	33	no	57	0	483
6.6.1	win	2022-12-14	16:17:50	16:31:03	790749	5c78b032419dcc0014119082	635189652	1	main_slash	11	main_slash	61	stimuli_target_trianglesquares.svg	stimuli_distractor_diamondtriangles.svg	22	yes	8	1	918
6.6.1	win	2022-12-14	16:17:50	16:31:03	790749	5c78b032419dcc0014119082	635189652	1	main_slash	11	advance_on_keypress_SLASH	62	stimuli_target_trianglesquares.svg	stimuli_distractor_diamondtriangles.svg	22	yes	57	0	425
6.6.1	win	2022-12-14	16:17:50	16:31:05	792621	5c78b032419dcc0014119082	635189652	1	main_slash	11	main_slash	63	stimuli_distractor_diamondtriangles.svg	stimuli_target_trianglecircles.svg	29	yes	8	1	807
6.6.1	win	2022-12-14	16:17:50	16:31:05	792621	5c78b032419dcc0014119082	635189652	1	main_slash	11	advance_on_keypress_SLASH	64	stimuli_distractor_diamondtriangles.svg	stimuli_target_trianglecircles.svg	29	yes	57	0	350
6.6.1	win	2022-12-14	16:17:50	16:31:07	794581	5c78b032419dcc0014119082	635189652	1	main_slash	11	main_slash	65	stimuli_distractor_trianglediamonds.svg	stimuli_target_circletriangles.svg	9	yes	8	1	967
6.6.1	win	2022-12-14	16:17:50	16:31:07	794581	5c78b032419dcc0014119082	635189652	1	main_slash	11	advance_on_keypress_SLASH	66	stimuli_distractor_trianglediamonds.svg	stimuli_target_circletriangles.svg	9	yes	57	0	360
6.6.1	win	2022-12-14	16:17:50	16:31:09	796205	5c78b032419dcc0014119082	635189652	1	main_slash	11	main_slash	67	stimuli_distractor_diamondtriangles.svg	stimuli_target_circletriangles.svg	13	yes	8	1	624
6.6.1	win	2022-12-14	16:17:50	16:31:09	796205	5c78b032419dcc0014119082	635189652	1	main_slash	11	advance_on_keypress_SLASH	68	stimuli_distractor_diamondtriangles.svg	stimuli_target_circletriangles.svg	13	yes	57	0	431
6.6.1	win	2022-12-14	16:17:50	16:31:10	797997	5c78b032419dcc0014119082	635189652	1	main_slash	11	main_slash	69	stimuli_distractor_trianglediamonds.svg	stimuli_target_diamondsquares.svg	28	yes	8	1	716
6.6.1	win	2022-12-14	16:17:50	16:31:10	797997	5c78b032419dcc0014119082	635189652	1	main_slash	11	advance_on_keypress_SLASH	70	stimuli_distractor_trianglediamonds.svg	stimuli_target_diamondsquares.svg	28	yes	57	0	407
6.6.1	win	2022-12-14	16:17:50	16:31:12	799909	5c78b032419dcc0014119082	635189652	1	main_slash	11	main_slash	71	stimuli_distractor_trianglediamonds.svg	stimuli_target_trianglesquares.svg	26	yes	8	1	862
6.6.1	win	2022-12-14	16:17:50	16:31:12	799909	5c78b032419dcc0014119082	635189652	1	main_slash	11	advance_on_keypress_SLASH	72	stimuli_distractor_trianglediamonds.svg	stimuli_target_trianglesquares.svg	26	yes	57	0	371
6.6.1	win	2022-12-14	16:17:50	16:31:14	801717	5c78b032419dcc0014119082	635189652	1	main_slash	11	main_slash	73	stimuli_target_circletriangles.svg	stimuli_distractor_diamondtriangles.svg	5	yes	8	1	803
6.6.1	win	2022-12-14	16:17:50	16:31:14	801717	5c78b032419dcc0014119082	635189652	1	main_slash	11	advance_on_keypress_SLASH	74	stimuli_target_circletriangles.svg	stimuli_distractor_diamondtriangles.svg	5	yes	57	0	362
6.6.1	win	2022-12-14	16:17:50	16:31:17	804714	5c78b032419dcc0014119082	635189652	1	main_slash	11	main_slash	75	stimuli_distractor_diamondtriangles.svg	stimuli_distractor_trianglediamonds.svg	37	no	0	1	2000
6.6.1	win	2022-12-14	16:17:50	16:31:17	804714	5c78b032419dcc0014119082	635189652	1	main_slash	11	advance_on_keypress_SLASH	76	stimuli_distractor_diamondtriangles.svg	stimuli_distractor_trianglediamonds.svg	37	no	57	0	1106
6.6.1	win	2022-12-14	16:17:50	16:31:20	807141	5c78b032419dcc0014119082	635189652	1	main_slash	11	main_slash	77	stimuli_target_trianglecircles.svg	stimuli_distractor_trianglediamonds.svg	17	yes	8	1	677
6.6.1	win	2022-12-14	16:17:50	16:31:20	807141	5c78b032419dcc0014119082	635189652	1	main_slash	11	advance_on_keypress_SLASH	78	stimuli_target_trianglecircles.svg	stimuli_distractor_trianglediamonds.svg	17	yes	57	0	474
6.6.1	win	2022-12-14	16:17:50	16:31:21	808893	5c78b032419dcc0014119082	635189652	1	main_slash	11	main_slash	79	stimuli_target_circletriangles.svg	stimuli_distractor_trianglediamonds.svg	1	yes	8	1	646
6.6.1	win	2022-12-14	16:17:50	16:31:21	808893	5c78b032419dcc0014119082	635189652	1	main_slash	11	advance_on_keypress_SLASH	80	stimuli_target_circletriangles.svg	stimuli_distractor_trianglediamonds.svg	1	yes	57	0	420
6.6.1	win	2022-12-14	16:17:50	16:31:23	810973	5c78b032419dcc0014119082	635189652	1	main_slash	11	main_slash	81	stimuli_target_squaretriangles.svg	stimuli_distractor_diamondtriangles.svg	7	yes	8	1	1026
6.6.1	win	2022-12-14	16:17:50	16:31:23	810973	5c78b032419dcc0014119082	635189652	1	main_slash	11	advance_on_keypress_SLASH	82	stimuli_target_squaretriangles.svg	stimuli_distractor_diamondtriangles.svg	7	yes	57	0	856
6.6.1	win	2022-12-14	16:17:50	16:31:26	813269	5c78b032419dcc0014119082	635189652	1	main_slash	11	main_slash	83	stimuli_distractor_trianglediamonds.svg	stimuli_target_diamondcircles.svg	27	yes	8	1	805
6.6.1	win	2022-12-14	16:17:50	16:31:26	813269	5c78b032419dcc0014119082	635189652	1	main_slash	11	advance_on_keypress_SLASH	84	stimuli_distractor_trianglediamonds.svg	stimuli_target_diamondcircles.svg	27	yes	57	0	364
6.6.1	win	2022-12-14	16:17:50	16:31:29	816281	5c78b032419dcc0014119082	635189652	1	main_slash	11	main_slash	85	stimuli_distractor_diamondtriangles.svg	stimuli_distractor_trianglediamonds.svg	38	no	0	1	2000
6.6.1	win	2022-12-14	16:17:50	16:31:29	816281	5c78b032419dcc0014119082	635189652	1	main_slash	11	advance_on_keypress_SLASH	86	stimuli_distractor_diamondtriangles.svg	stimuli_distractor_trianglediamonds.svg	38	no	57	0	500
6.6.1	win	2022-12-14	16:17:50	16:31:31	818189	5c78b032419dcc0014119082	635189652	1	main_slash	11	main_slash	87	stimuli_target_diamondsquares.svg	stimuli_distractor_trianglediamonds.svg	20	yes	8	1	758
6.6.1	win	2022-12-14	16:17:50	16:31:31	818189	5c78b032419dcc0014119082	635189652	1	main_slash	11	advance_on_keypress_SLASH	88	stimuli_target_diamondsquares.svg	stimuli_distractor_trianglediamonds.svg	20	yes	57	0	384
6.6.1	win	2022-12-14	16:17:50	16:31:34	821214	5c78b032419dcc0014119082	635189652	1	main_slash	11	main_slash	89	stimuli_distractor_trianglediamonds.svg	stimuli_distractor_trianglediamonds.svg	33	no	0	1	2000
6.6.1	win	2022-12-14	16:17:50	16:31:34	821214	5c78b032419dcc0014119082	635189652	1	main_slash	11	advance_on_keypress_SLASH	90	stimuli_distractor_trianglediamonds.svg	stimuli_distractor_trianglediamonds.svg	33	no	57	0	438
6.6.1	win	2022-12-14	16:17:50	16:31:35	822797	5c78b032419dcc0014119082	635189652	1	main_slash	11	main_slash	91	stimuli_distractor_diamondtriangles.svg	stimuli_target_trianglesquares.svg	30	yes	8	1	500
6.6.1	win	2022-12-14	16:17:50	16:31:35	822797	5c78b032419dcc0014119082	635189652	1	main_slash	11	advance_on_keypress_SLASH	92	stimuli_distractor_diamondtriangles.svg	stimuli_target_trianglesquares.svg	30	yes	57	0	471
6.6.1	win	2022-12-14	16:17:50	16:31:37	824493	5c78b032419dcc0014119082	635189652	1	main_slash	11	main_slash	93	stimuli_distractor_trianglediamonds.svg	stimuli_target_trianglecircles.svg	25	yes	8	1	579
6.6.1	win	2022-12-14	16:17:50	16:31:37	824493	5c78b032419dcc0014119082	635189652	1	main_slash	11	advance_on_keypress_SLASH	94	stimuli_distractor_trianglediamonds.svg	stimuli_target_trianglecircles.svg	25	yes	57	0	372
6.6.1	win	2022-12-14	16:17:50	16:31:39	826189	5c78b032419dcc0014119082	635189652	1	main_slash	11	main_slash	95	stimuli_distractor_trianglediamonds.svg	stimuli_target_circlediamonds.svg	10	yes	8	1	692
6.6.1	win	2022-12-14	16:17:50	16:31:39	826189	5c78b032419dcc0014119082	635189652	1	main_slash	11	advance_on_keypress_SLASH	96	stimuli_distractor_trianglediamonds.svg	stimuli_target_circlediamonds.svg	10	yes	57	0	408
6.6.1	win	2022-12-14	16:17:50	16:31:40	827845	5c78b032419dcc0014119082	635189652	1	main_slash	11	main_slash	97	stimuli_distractor_trianglediamonds.svg	stimuli_target_circletriangles.svg	9	yes	8	1	614
6.6.1	win	2022-12-14	16:17:50	16:31:40	827845	5c78b032419dcc0014119082	635189652	1	main_slash	11	advance_on_keypress_SLASH	98	stimuli_distractor_trianglediamonds.svg	stimuli_target_circletriangles.svg	9	yes	57	0	429
6.6.1	win	2022-12-14	16:17:50	16:31:42	829877	5c78b032419dcc0014119082	635189652	1	main_slash	11	main_slash	99	stimuli_target_circlediamonds.svg	stimuli_distractor_diamondtriangles.svg	6	yes	8	1	963
6.6.1	win	2022-12-14	16:17:50	16:31:42	829877	5c78b032419dcc0014119082	635189652	1	main_slash	11	advance_on_keypress_SLASH	100	stimuli_target_circlediamonds.svg	stimuli_distractor_diamondtriangles.svg	6	yes	57	0	452
6.6.1	win	2022-12-14	16:17:50	16:31:44	831597	5c78b032419dcc0014119082	635189652	1	main_slash	11	main_slash	101	stimuli_distractor_diamondtriangles.svg	stimuli_target_circlediamonds.svg	14	yes	8	1	633
6.6.1	win	2022-12-14	16:17:50	16:31:44	831597	5c78b032419dcc0014119082	635189652	1	main_slash	11	advance_on_keypress_SLASH	102	stimuli_distractor_diamondtriangles.svg	stimuli_target_circlediamonds.svg	14	yes	57	0	447
6.6.1	win	2022-12-14	16:17:50	16:31:46	833413	5c78b032419dcc0014119082	635189652	1	main_slash	11	main_slash	103	stimuli_distractor_trianglediamonds.svg	stimuli_target_squarediamonds.svg	12	yes	8	1	732
6.6.1	win	2022-12-14	16:17:50	16:31:46	833413	5c78b032419dcc0014119082	635189652	1	main_slash	11	advance_on_keypress_SLASH	104	stimuli_distractor_trianglediamonds.svg	stimuli_target_squarediamonds.svg	12	yes	57	0	414
6.6.1	win	2022-12-14	16:17:50	16:31:49	836481	5c78b032419dcc0014119082	635189652	1	main_slash	11	main_slash	105	stimuli_distractor_trianglediamonds.svg	stimuli_distractor_trianglediamonds.svg	34	no	0	1	2000
6.6.1	win	2022-12-14	16:17:50	16:31:49	836481	5c78b032419dcc0014119082	635189652	1	main_slash	11	advance_on_keypress_SLASH	106	stimuli_distractor_trianglediamonds.svg	stimuli_distractor_trianglediamonds.svg	34	no	57	0	652
6.6.1	win	2022-12-14	16:17:50	16:31:52	839781	5c78b032419dcc0014119082	635189652	1	main_slash	11	main_slash	107	stimuli_distractor_trianglediamonds.svg	stimuli_distractor_diamondtriangles.svg	36	no	0	1	2000
6.6.1	win	2022-12-14	16:17:50	16:31:52	839781	5c78b032419dcc0014119082	635189652	1	main_slash	11	advance_on_keypress_SLASH	108	stimuli_distractor_trianglediamonds.svg	stimuli_distractor_diamondtriangles.svg	36	no	57	0	656
6.6.1	win	2022-12-14	16:17:50	16:31:54	841749	5c78b032419dcc0014119082	635189652	1	main_slash	11	main_slash	109	stimuli_target_trianglecircles.svg	stimuli_distractor_trianglediamonds.svg	17	yes	8	1	668
6.6.1	win	2022-12-14	16:17:50	16:31:54	841749	5c78b032419dcc0014119082	635189652	1	main_slash	11	advance_on_keypress_SLASH	110	stimuli_target_trianglecircles.svg	stimuli_distractor_trianglediamonds.svg	17	yes	57	0	489
6.6.1	win	2022-12-14	16:17:50	16:31:56	843605	5c78b032419dcc0014119082	635189652	1	main_slash	11	main_slash	111	stimuli_target_squaretriangles.svg	stimuli_distractor_trianglediamonds.svg	3	yes	8	1	724
6.6.1	win	2022-12-14	16:17:50	16:31:56	843605	5c78b032419dcc0014119082	635189652	1	main_slash	11	advance_on_keypress_SLASH	112	stimuli_target_squaretriangles.svg	stimuli_distractor_trianglediamonds.svg	3	yes	57	0	503
6.6.1	win	2022-12-14	16:17:50	16:31:58	845398	5c78b032419dcc0014119082	635189652	1	main_slash	11	main_slash	113	stimuli_target_diamondsquares.svg	stimuli_distractor_diamondtriangles.svg	24	yes	8	1	650
6.6.1	win	2022-12-14	16:17:50	16:31:58	845398	5c78b032419dcc0014119082	635189652	1	main_slash	11	advance_on_keypress_SLASH	114	stimuli_target_diamondsquares.svg	stimuli_distractor_diamondtriangles.svg	24	yes	57	0	423
6.6.1	win	2022-12-14	16:17:50	16:32:00	847237	5c78b032419dcc0014119082	635189652	1	main_slash	11	main_slash	115	stimuli_target_circlediamonds.svg	stimuli_distractor_trianglediamonds.svg	2	yes	8	1	773
6.6.1	win	2022-12-14	16:17:50	16:32:00	847237	5c78b032419dcc0014119082	635189652	1	main_slash	11	advance_on_keypress_SLASH	116	stimuli_target_circlediamonds.svg	stimuli_distractor_trianglediamonds.svg	2	yes	57	0	390
6.6.1	win	2022-12-14	16:17:50	16:32:01	848909	5c78b032419dcc0014119082	635189652	1	main_slash	11	main_slash	117	stimuli_target_diamondcircles.svg	stimuli_distractor_trianglediamonds.svg	19	yes	8	1	645
6.6.1	win	2022-12-14	16:17:50	16:32:01	848909	5c78b032419dcc0014119082	635189652	1	main_slash	11	advance_on_keypress_SLASH	118	stimuli_target_diamondcircles.svg	stimuli_distractor_trianglediamonds.svg	19	yes	57	0	539
6.6.1	win	2022-12-14	16:17:50	16:32:03	850757	5c78b032419dcc0014119082	635189652	1	main_slash	11	main_slash	119	stimuli_target_trianglesquares.svg	stimuli_distractor_trianglediamonds.svg	18	yes	8	1	676
6.6.1	win	2022-12-14	16:17:50	16:32:03	850757	5c78b032419dcc0014119082	635189652	1	main_slash	11	advance_on_keypress_SLASH	120	stimuli_target_trianglesquares.svg	stimuli_distractor_trianglediamonds.svg	18	yes	57	0	377
6.6.1	win	2022-12-14	16:17:50	16:32:06	853037	5c78b032419dcc0014119082	635189652	1	main_slash	11	main_slash	121	stimuli_distractor_trianglediamonds.svg	stimuli_target_squaretriangles.svg	11	yes	8	1	1272
6.6.1	win	2022-12-14	16:17:50	16:32:06	853037	5c78b032419dcc0014119082	635189652	1	main_slash	11	advance_on_keypress_SLASH	122	stimuli_distractor_trianglediamonds.svg	stimuli_target_squaretriangles.svg	11	yes	57	0	341
6.6.1	win	2022-12-14	16:17:50	16:32:07	854797	5c78b032419dcc0014119082	635189652	1	main_slash	11	main_slash	123	stimuli_distractor_diamondtriangles.svg	stimuli_target_squaretriangles.svg	15	yes	8	1	783
6.6.1	win	2022-12-14	16:17:50	16:32:07	854797	5c78b032419dcc0014119082	635189652	1	main_slash	11	advance_on_keypress_SLASH	124	stimuli_distractor_diamondtriangles.svg	stimuli_target_squaretriangles.svg	15	yes	57	0	359
6.6.1	win	2022-12-14	16:17:50	16:32:09	856421	5c78b032419dcc0014119082	635189652	1	main_slash	11	main_slash	125	stimuli_distractor_trianglediamonds.svg	stimuli_target_trianglesquares.svg	26	yes	8	1	624
6.6.1	win	2022-12-14	16:17:50	16:32:09	856421	5c78b032419dcc0014119082	635189652	1	main_slash	11	advance_on_keypress_SLASH	126	stimuli_distractor_trianglediamonds.svg	stimuli_target_trianglesquares.svg	26	yes	57	0	414
6.6.1	win	2022-12-14	16:17:50	16:32:11	858197	5c78b032419dcc0014119082	635189652	1	main_slash	11	main_slash	127	stimuli_target_squarediamonds.svg	stimuli_distractor_trianglediamonds.svg	4	yes	8	1	716
6.6.1	win	2022-12-14	16:17:50	16:32:11	858197	5c78b032419dcc0014119082	635189652	1	main_slash	11	advance_on_keypress_SLASH	128	stimuli_target_squarediamonds.svg	stimuli_distractor_trianglediamonds.svg	4	yes	57	0	383
6.6.1	win	2022-12-14	16:17:50	16:32:14	861231	5c78b032419dcc0014119082	635189652	1	main_slash	11	main_slash	129	stimuli_distractor_diamondtriangles.svg	stimuli_distractor_trianglediamonds.svg	37	no	0	1	2000
6.6.1	win	2022-12-14	16:17:50	16:32:14	861231	5c78b032419dcc0014119082	635189652	1	main_slash	11	advance_on_keypress_SLASH	130	stimuli_distractor_diamondtriangles.svg	stimuli_distractor_trianglediamonds.svg	37	no	57	0	486
6.6.1	win	2022-12-14	16:17:50	16:32:15	862941	5c78b032419dcc0014119082	635189652	1	main_slash	11	main_slash	131	stimuli_target_circletriangles.svg	stimuli_distractor_trianglediamonds.svg	1	yes	8	1	577
6.6.1	win	2022-12-14	16:17:50	16:32:15	862941	5c78b032419dcc0014119082	635189652	1	main_slash	11	advance_on_keypress_SLASH	132	stimuli_target_circletriangles.svg	stimuli_distractor_trianglediamonds.svg	1	yes	57	0	386
6.6.1	win	2022-12-14	16:17:50	16:32:17	864597	5c78b032419dcc0014119082	635189652	1	main_slash	11	main_slash	133	stimuli_target_trianglecircles.svg	stimuli_distractor_diamondtriangles.svg	21	yes	8	1	633
6.6.1	win	2022-12-14	16:17:50	16:32:17	864597	5c78b032419dcc0014119082	635189652	1	main_slash	11	advance_on_keypress_SLASH	134	stimuli_target_trianglecircles.svg	stimuli_distractor_diamondtriangles.svg	21	yes	57	0	359
6.6.1	win	2022-12-14	16:17:50	16:32:19	866461	5c78b032419dcc0014119082	635189652	1	main_slash	11	main_slash	135	stimuli_distractor_diamondtriangles.svg	stimuli_target_squarediamonds.svg	16	yes	8	1	864
6.6.1	win	2022-12-14	16:17:50	16:32:19	866461	5c78b032419dcc0014119082	635189652	1	main_slash	11	advance_on_keypress_SLASH	136	stimuli_distractor_diamondtriangles.svg	stimuli_target_squarediamonds.svg	16	yes	57	0	389
6.6.1	win	2022-12-14	16:17:50	16:32:21	868245	5c78b032419dcc0014119082	635189652	1	main_slash	11	main_slash	137	stimuli_distractor_diamondtriangles.svg	stimuli_target_trianglecircles.svg	29	yes	8	1	764
6.6.1	win	2022-12-14	16:17:50	16:32:21	868245	5c78b032419dcc0014119082	635189652	1	main_slash	11	advance_on_keypress_SLASH	138	stimuli_distractor_diamondtriangles.svg	stimuli_target_trianglecircles.svg	29	yes	57	0	357
6.6.1	win	2022-12-14	16:17:50	16:32:24	871248	5c78b032419dcc0014119082	635189652	1	main_slash	11	main_slash	139	stimuli_distractor_diamondtriangles.svg	stimuli_distractor_diamondtriangles.svg	39	no	0	1	2000
6.6.1	win	2022-12-14	16:17:50	16:32:24	871248	5c78b032419dcc0014119082	635189652	1	main_slash	11	advance_on_keypress_SLASH	140	stimuli_distractor_diamondtriangles.svg	stimuli_distractor_diamondtriangles.svg	39	no	57	0	493
6.6.1	win	2022-12-14	16:17:50	16:32:26	873125	5c78b032419dcc0014119082	635189652	1	main_slash	11	main_slash	141	stimuli_target_squarediamonds.svg	stimuli_distractor_diamondtriangles.svg	8	yes	8	1	744
6.6.1	win	2022-12-14	16:17:50	16:32:26	873125	5c78b032419dcc0014119082	635189652	1	main_slash	11	advance_on_keypress_SLASH	142	stimuli_target_squarediamonds.svg	stimuli_distractor_diamondtriangles.svg	8	yes	57	0	370
6.6.1	win	2022-12-14	16:17:50	16:32:27	874813	5c78b032419dcc0014119082	635189652	1	main_slash	11	main_slash	143	stimuli_distractor_trianglediamonds.svg	stimuli_target_diamondsquares.svg	28	yes	8	1	682
6.6.1	win	2022-12-14	16:17:50	16:32:27	874813	5c78b032419dcc0014119082	635189652	1	main_slash	11	advance_on_keypress_SLASH	144	stimuli_distractor_trianglediamonds.svg	stimuli_target_diamondsquares.svg	28	yes	57	0	382
6.6.1	win	2022-12-14	16:17:50	16:32:29	876685	5c78b032419dcc0014119082	635189652	1	main_slash	11	main_slash	145	stimuli_target_diamondcircles.svg	stimuli_distractor_diamondtriangles.svg	23	yes	8	1	838
6.6.1	win	2022-12-14	16:17:50	16:32:29	876685	5c78b032419dcc0014119082	635189652	1	main_slash	11	advance_on_keypress_SLASH	146	stimuli_target_diamondcircles.svg	stimuli_distractor_diamondtriangles.svg	23	yes	57	0	444
6.6.1	win	2022-12-14	16:17:50	16:32:31	878493	5c78b032419dcc0014119082	635189652	1	main_slash	11	main_slash	147	stimuli_target_circletriangles.svg	stimuli_distractor_diamondtriangles.svg	5	yes	8	1	729
6.6.1	win	2022-12-14	16:17:50	16:32:31	878493	5c78b032419dcc0014119082	635189652	1	main_slash	11	advance_on_keypress_SLASH	148	stimuli_target_circletriangles.svg	stimuli_distractor_diamondtriangles.svg	5	yes	57	0	372
6.6.1	win	2022-12-14	16:17:50	16:32:34	881498	5c78b032419dcc0014119082	635189652	1	main_slash	11	main_slash	149	stimuli_distractor_trianglediamonds.svg	stimuli_distractor_diamondtriangles.svg	35	no	0	1	2000
6.6.1	win	2022-12-14	16:17:50	16:32:34	881498	5c78b032419dcc0014119082	635189652	1	main_slash	11	advance_on_keypress_SLASH	150	stimuli_distractor_trianglediamonds.svg	stimuli_distractor_diamondtriangles.svg	35	no	57	0	411
6.6.1	win	2022-12-14	16:17:50	16:32:36	883221	5c78b032419dcc0014119082	635189652	1	main_slash	11	main_slash	151	stimuli_target_trianglesquares.svg	stimuli_distractor_diamondtriangles.svg	22	yes	8	1	674
6.6.1	win	2022-12-14	16:17:50	16:32:36	883221	5c78b032419dcc0014119082	635189652	1	main_slash	11	advance_on_keypress_SLASH	152	stimuli_target_trianglesquares.svg	stimuli_distractor_diamondtriangles.svg	22	yes	57	0	494
6.6.1	win	2022-12-14	16:17:50	16:32:39	886348	5c78b032419dcc0014119082	635189652	1	main_slash	11	main_slash	153	stimuli_distractor_diamondtriangles.svg	stimuli_distractor_diamondtriangles.svg	40	no	0	1	2000
6.6.1	win	2022-12-14	16:17:50	16:32:39	886348	5c78b032419dcc0014119082	635189652	1	main_slash	11	advance_on_keypress_SLASH	154	stimuli_distractor_diamondtriangles.svg	stimuli_distractor_diamondtriangles.svg	40	no	57	0	505
6.6.1	win	2022-12-14	16:17:50	16:32:41	888269	5c78b032419dcc0014119082	635189652	1	main_slash	11	main_slash	155	stimuli_distractor_diamondtriangles.svg	stimuli_target_circletriangles.svg	13	yes	8	1	772
6.6.1	win	2022-12-14	16:17:50	16:32:41	888269	5c78b032419dcc0014119082	635189652	1	main_slash	11	advance_on_keypress_SLASH	156	stimuli_distractor_diamondtriangles.svg	stimuli_target_circletriangles.svg	13	yes	57	0	420
6.6.1	win	2022-12-14	16:17:50	16:32:43	890165	5c78b032419dcc0014119082	635189652	1	main_slash	11	main_slash	157	stimuli_distractor_diamondtriangles.svg	stimuli_target_diamondsquares.svg	32	yes	8	1	834
6.6.1	win	2022-12-14	16:17:50	16:32:43	890165	5c78b032419dcc0014119082	635189652	1	main_slash	11	advance_on_keypress_SLASH	158	stimuli_distractor_diamondtriangles.svg	stimuli_target_diamondsquares.svg	32	yes	57	0	408
6.6.1	win	2022-12-14	16:17:50	16:32:45	892141	5c78b032419dcc0014119082	635189652	1	main_slash	11	main_slash	159	stimuli_distractor_diamondtriangles.svg	stimuli_target_diamondcircles.svg	31	yes	8	1	927
6.6.1	win	2022-12-14	16:17:50	16:32:45	892141	5c78b032419dcc0014119082	635189652	1	main_slash	11	advance_on_keypress_SLASH	160	stimuli_distractor_diamondtriangles.svg	stimuli_target_diamondcircles.svg	31	yes	57	0	394