subject	time_elapsed_ms	blocknum	block_type	block_response	trialnum	target	level	field	target_present	response	correct	rt
62ec3412706175ea98e11fba	143920	1	practice	slash	1	circle	global	LVF	yes	absent	0	2000
62ec3412706175ea98e11fba	147173	1	practice	slash	2	circle	local	RVF	yes	present	1	618
62ec3412706175ea98e11fba	151994	1	practice	slash	3	circle	local	RVF	yes	absent	0	2000
62ec3412706175ea98e11fba	154908	1	practice	slash	4	square	global	RVF	yes	present	1	862
62ec3412706175ea98e11fba	157622	1	practice	slash	5	square	local	LVF	yes	present	1	490
62ec3412706175ea98e11fba	160223	1	practice	slash	6	circle	local	RVF	yes	present	1	622
62ec3412706175ea98e11fba	162417	1	practice	slash	7	circle	global	LVF	yes	present	1	497
62ec3412706175ea98e11fba	164829	1	practice	slash	8	absent	absent	absent	no	present	0	524
62ec3412706175ea98e11fba	167152	1	practice	slash	9	square	local	LVF	yes	present	1	327
62ec3412706175ea98e11fba	169477	1	practice	slash	10	square	global	LVF	yes	present	1	374
62ec3412706175ea98e11fba	171915	1	practice	slash	11	absent	absent	absent	no	present	0	617
62ec3412706175ea98e11fba	174392	1	practice	slash	12	circle	global	RVF	yes	present	1	610
62ec3412706175ea98e11fba	176980	1	practice	slash	13	circle	global	RVF	yes	present	1	528
62ec3412706175ea98e11fba	180739	1	practice	slash	14	absent	absent	absent	no	absent	1	2000
62ec3412706175ea98e11fba	184892	1	practice	slash	15	absent	absent	absent	no	absent	1	2000
62ec3412706175ea98e11fba	187674	1	practice	slash	16	square	global	LVF	yes	present	1	561
62ec3412706175ea98e11fba	196066	2	main	slash	1	circle	global	LVF	yes	present	1	712
62ec3412706175ea98e11fba	198242	2	main	slash	2	square	local	LVF	yes	present	1	836
62ec3412706175ea98e11fba	199962	2	main	slash	3	square	global	LVF	yes	present	1	387
62ec3412706175ea98e11fba	201538	2	main	slash	4	square	global	LVF	yes	present	1	429
62ec3412706175ea98e11fba	203713	2	main	slash	5	square	local	LVF	yes	present	1	1185
62ec3412706175ea98e11fba	205452	2	main	slash	6	square	local	RVF	yes	present	1	657
62ec3412706175ea98e11fba	207124	2	main	slash	7	circle	global	LVF	yes	present	1	661
62ec3412706175ea98e11fba	208968	2	main	slash	8	square	global	RVF	yes	present	1	836
62ec3412706175ea98e11fba	211967	2	main	slash	9	absent	absent	absent	no	absent	1	2000
62ec3412706175ea98e11fba	213728	2	main	slash	10	square	local	RVF	yes	present	1	641
62ec3412706175ea98e11fba	215409	2	main	slash	11	circle	local	LVF	yes	present	1	670
62ec3412706175ea98e11fba	216993	2	main	slash	12	square	global	RVF	yes	present	1	653
62ec3412706175ea98e11fba	218719	2	main	slash	13	square	global	RVF	yes	present	1	811
62ec3412706175ea98e11fba	220725	2	main	slash	14	circle	local	LVF	yes	present	1	1164
62ec3412706175ea98e11fba	223631	2	main	slash	15	circle	local	RVF	yes	present	1	784
62ec3412706175ea98e11fba	226582	2	main	slash	16	circle	local	RVF	yes	absent	0	2000
62ec3412706175ea98e11fba	228385	2	main	slash	17	circle	global	RVF	yes	present	1	683
62ec3412706175ea98e11fba	230132	2	main	slash	18	square	local	LVF	yes	present	1	778
62ec3412706175ea98e11fba	232922	2	main	slash	19	circle	global	LVF	yes	absent	0	2000
62ec3412706175ea98e11fba	235001	2	main	slash	20	square	global	RVF	yes	present	1	1010
62ec3412706175ea98e11fba	236587	2	main	slash	21	square	local	RVF	yes	present	1	810
62ec3412706175ea98e11fba	239378	2	main	slash	22	circle	global	LVF	yes	absent	0	2000
62ec3412706175ea98e11fba	242782	2	main	slash	23	absent	absent	absent	no	absent	1	2000
62ec3412706175ea98e11fba	246403	2	main	slash	24	circle	global	RVF	yes	absent	0	2000
62ec3412706175ea98e11fba	248018	2	main	slash	25	square	global	LVF	yes	present	1	714
62ec3412706175ea98e11fba	250790	2	main	slash	26	circle	global	RVF	yes	absent	0	2000
62ec3412706175ea98e11fba	256146	2	main	slash	27	absent	absent	absent	no	absent	1	2000
62ec3412706175ea98e11fba	259031	2	main	slash	28	absent	absent	absent	no	absent	1	2000
62ec3412706175ea98e11fba	260887	2	main	slash	29	circle	local	RVF	yes	present	1	770
62ec3412706175ea98e11fba	262512	2	main	slash	30	square	global	LVF	yes	present	1	844
62ec3412706175ea98e11fba	265288	2	main	slash	31	absent	absent	absent	no	absent	1	2000
62ec3412706175ea98e11fba	266746	2	main	slash	32	circle	local	LVF	yes	present	1	772
62ec3412706175ea98e11fba	269525	2	main	slash	33	absent	absent	absent	no	absent	1	2000
62ec3412706175ea98e11fba	272445	2	main	slash	34	square	local	LVF	yes	absent	0	2000
62ec3412706175ea98e11fba	275631	2	main	slash	35	absent	absent	absent	no	absent	1	2000
62ec3412706175ea98e11fba	277263	2	main	slash	36	circle	global	RVF	yes	present	1	680
62ec3412706175ea98e11fba	280035	2	main	slash	37	absent	absent	absent	no	absent	1	2000
62ec3412706175ea98e11fba	281708	2	main	slash	38	circle	local	LVF	yes	present	1	703
62ec3412706175ea98e11fba	283258	2	main	slash	39	circle	local	RVF	yes	present	1	767
62ec3412706175ea98e11fba	284775	2	main	slash	40	square	local	RVF	yes	present	1	750
62ec3412706175ea98e11fba	287527	2	main	slash	41	absent	absent	absent	no	absent	1	2000
62ec3412706175ea98e11fba	289122	2	main	slash	42	circle	global	RVF	yes	present	1	660
62ec3412706175ea98e11fba	290571	2	main	slash	43	square	global	RVF	yes	present	1	691
62ec3412706175ea98e11fba	292516	2	main	slash	44	square	local	RVF	yes	present	1	1184
62ec3412706175ea98e11fba	294106	2	main	slash	45	square	global	LVF	yes	present	1	773
62ec3412706175ea98e11fba	296869	2	main	slash	46	absent	absent	absent	no	absent	1	2000
62ec3412706175ea98e11fba	298523	2	main	slash	47	circle	global	LVF	yes	present	1	801
62ec3412706175ea98e11fba	300054	2	main	slash	48	square	global	LVF	yes	present	1	780
62ec3412706175ea98e11fba	301570	2	main	slash	49	circle	local	LVF	yes	present	1	762
62ec3412706175ea98e11fba	303087	2	main	slash	50	square	global	LVF	yes	present	1	745
62ec3412706175ea98e11fba	304570	2	main	slash	51	circle	global	LVF	yes	present	1	760
62ec3412706175ea98e11fba	306149	2	main	slash	52	circle	local	RVF	yes	present	1	819
62ec3412706175ea98e11fba	308915	2	main	slash	53	square	local	LVF	yes	absent	0	2000
62ec3412706175ea98e11fba	310721	2	main	slash	54	square	local	RVF	yes	present	1	838
62ec3412706175ea98e11fba	312218	2	main	slash	55	square	local	RVF	yes	present	1	749
62ec3412706175ea98e11fba	313734	2	main	slash	56	square	global	LVF	yes	present	1	764
62ec3412706175ea98e11fba	315264	2	main	slash	57	circle	local	LVF	yes	present	1	760
62ec3412706175ea98e11fba	318023	2	main	slash	58	absent	absent	absent	no	absent	1	2000
62ec3412706175ea98e11fba	319789	2	main	slash	59	square	local	LVF	yes	present	1	712
62ec3412706175ea98e11fba	322528	2	main	slash	60	absent	absent	absent	no	absent	1	2000
62ec3412706175ea98e11fba	324245	2	main	slash	61	square	local	LVF	yes	present	1	615
62ec3412706175ea98e11fba	325756	2	main	slash	62	circle	global	LVF	yes	present	1	740
62ec3412706175ea98e11fba	327233	2	main	slash	63	circle	local	RVF	yes	present	1	716
62ec3412706175ea98e11fba	328669	2	main	slash	64	square	global	RVF	yes	present	1	683
62ec3412706175ea98e11fba	331437	2	main	slash	65	absent	absent	absent	no	absent	1	2000
62ec3412706175ea98e11fba	333009	2	main	slash	66	circle	local	LVF	yes	present	1	703
62ec3412706175ea98e11fba	334466	2	main	slash	67	square	local	LVF	yes	present	1	708
62ec3412706175ea98e11fba	335969	2	main	slash	68	circle	local	RVF	yes	present	1	744
62ec3412706175ea98e11fba	337899	2	main	slash	69	circle	global	RVF	yes	present	1	1139
62ec3412706175ea98e11fba	339436	2	main	slash	70	square	global	RVF	yes	present	1	774
62ec3412706175ea98e11fba	342181	2	main	slash	71	absent	absent	absent	no	absent	1	2000
62ec3412706175ea98e11fba	343872	2	main	slash	72	square	local	RVF	yes	present	1	722
62ec3412706175ea98e11fba	345289	2	main	slash	73	square	global	RVF	yes	present	1	687
62ec3412706175ea98e11fba	348053	2	main	slash	74	absent	absent	absent	no	absent	1	2000
62ec3412706175ea98e11fba	349852	2	main	slash	75	circle	global	RVF	yes	present	1	696
62ec3412706175ea98e11fba	352591	2	main	slash	76	absent	absent	absent	no	absent	1	2000
62ec3412706175ea98e11fba	354140	2	main	slash	77	circle	local	LVF	yes	present	1	563
62ec3412706175ea98e11fba	355597	2	main	slash	78	circle	global	RVF	yes	present	1	685
62ec3412706175ea98e11fba	356991	2	main	slash	79	circle	global	LVF	yes	present	1	662
62ec3412706175ea98e11fba	358420	2	main	slash	80	circle	local	RVF	yes	present	1	672
62ec3412706175ea98e11fba	377453	3	practice	z	1	absent	absent	absent	no	absent	1	2000
62ec3412706175ea98e11fba	380330	3	practice	z	2	circle	global	RVF	yes	present	1	608
62ec3412706175ea98e11fba	383258	3	practice	z	3	square	local	LVF	yes	present	1	733
62ec3412706175ea98e11fba	386032	3	practice	z	4	circle	local	RVF	yes	present	1	656
62ec3412706175ea98e11fba	388788	3	practice	z	5	circle	global	RVF	yes	present	1	642
62ec3412706175ea98e11fba	391466	3	practice	z	6	circle	local	RVF	yes	present	1	616
62ec3412706175ea98e11fba	394206	3	practice	z	7	square	global	LVF	yes	present	1	738
62ec3412706175ea98e11fba	396984	3	practice	z	8	circle	global	LVF	yes	present	1	629
62ec3412706175ea98e11fba	399584	3	practice	z	9	circle	local	RVF	yes	present	1	644
62ec3412706175ea98e11fba	403545	3	practice	z	10	absent	absent	absent	no	absent	1	2000
62ec3412706175ea98e11fba	407565	3	practice	z	11	absent	absent	absent	no	absent	1	2000
62ec3412706175ea98e11fba	410360	3	practice	z	12	square	local	LVF	yes	present	1	642
62ec3412706175ea98e11fba	413089	3	practice	z	13	square	global	LVF	yes	present	1	686
62ec3412706175ea98e11fba	417057	3	practice	z	14	absent	absent	absent	no	absent	1	2000
62ec3412706175ea98e11fba	419983	3	practice	z	15	circle	global	LVF	yes	present	1	656
62ec3412706175ea98e11fba	422700	3	practice	z	16	square	global	RVF	yes	present	1	636
62ec3412706175ea98e11fba	428655	4	main	z	1	square	local	RVF	yes	present	1	670
62ec3412706175ea98e11fba	432121	4	main	z	2	absent	absent	absent	no	absent	1	2000
62ec3412706175ea98e11fba	434957	4	main	z	3	absent	absent	absent	no	absent	1	2000
62ec3412706175ea98e11fba	436727	4	main	z	4	circle	local	RVF	yes	present	1	750
62ec3412706175ea98e11fba	438087	4	main	z	5	square	local	LVF	yes	present	1	543
62ec3412706175ea98e11fba	440862	4	main	z	6	absent	absent	absent	no	absent	1	2000
62ec3412706175ea98e11fba	442565	4	main	z	7	square	global	LVF	yes	present	1	699
62ec3412706175ea98e11fba	444115	4	main	z	8	square	global	LVF	yes	present	1	799
62ec3412706175ea98e11fba	446886	4	main	z	9	absent	absent	absent	no	absent	1	2000
62ec3412706175ea98e11fba	448713	4	main	z	10	square	local	RVF	yes	present	1	775
62ec3412706175ea98e11fba	450183	4	main	z	11	circle	local	RVF	yes	present	1	727
62ec3412706175ea98e11fba	451754	4	main	z	12	square	global	LVF	yes	present	1	813
62ec3412706175ea98e11fba	453299	4	main	z	13	circle	global	RVF	yes	present	1	773
62ec3412706175ea98e11fba	454849	4	main	z	14	square	local	LVF	yes	present	1	805
62ec3412706175ea98e11fba	456353	4	main	z	15	square	global	LVF	yes	present	1	758
62ec3412706175ea98e11fba	459081	4	main	z	16	absent	absent	absent	no	absent	1	2000
62ec3412706175ea98e11fba	460620	4	main	z	17	circle	global	RVF	yes	present	1	620
62ec3412706175ea98e11fba	463368	4	main	z	18	absent	absent	absent	no	absent	1	2000
62ec3412706175ea98e11fba	465103	4	main	z	19	circle	local	LVF	yes	present	1	782
62ec3412706175ea98e11fba	466560	4	main	z	20	square	global	RVF	yes	present	1	704
62ec3412706175ea98e11fba	468029	4	main	z	21	circle	global	LVF	yes	present	1	705
62ec3412706175ea98e11fba	470776	4	main	z	22	absent	absent	absent	no	absent	1	2000
62ec3412706175ea98e11fba	472500	4	main	z	23	circle	local	LVF	yes	present	1	804
62ec3412706175ea98e11fba	474023	4	main	z	24	square	local	RVF	yes	present	1	760
62ec3412706175ea98e11fba	475500	4	main	z	25	square	global	RVF	yes	present	1	701
62ec3412706175ea98e11fba	477003	4	main	z	26	square	local	LVF	yes	present	1	754
62ec3412706175ea98e11fba	478540	4	main	z	27	square	local	RVF	yes	present	1	773
62ec3412706175ea98e11fba	480098	4	main	z	28	circle	global	LVF	yes	present	1	812
62ec3412706175ea98e11fba	482780	4	main	z	29	circle	global	LVF	yes	present	1	1926
62ec3412706175ea98e11fba	484284	4	main	z	30	circle	global	RVF	yes	present	1	761
62ec3412706175ea98e11fba	485834	4	main	z	31	square	global	RVF	yes	present	1	793
62ec3412706175ea98e11fba	487351	4	main	z	32	square	global	RVF	yes	present	1	775
62ec3412706175ea98e11fba	490129	4	main	z	33	absent	absent	absent	no	absent	1	2000
62ec3412706175ea98e11fba	492045	4	main	z	34	circle	local	RVF	yes	present	1	797
62ec3412706175ea98e11fba	493521	4	main	z	35	circle	local	LVF	yes	present	1	722
62ec3412706175ea98e11fba	495020	4	main	z	36	circle	local	LVF	yes	present	1	717
62ec3412706175ea98e11fba	496467	4	main	z	37	circle	global	RVF	yes	present	1	698
62ec3412706175ea98e11fba	497930	4	main	z	38	circle	global	LVF	yes	present	1	693
62ec3412706175ea98e11fba	499359	4	main	z	39	circle	local	RVF	yes	present	1	671
62ec3412706175ea98e11fba	500863	4	main	z	40	square	local	LVF	yes	present	1	740
62ec3412706175ea98e11fba	502366	4	main	z	41	square	local	LVF	yes	present	1	758
62ec3412706175ea98e11fba	503816	4	main	z	42	square	local	RVF	yes	present	1	707
62ec3412706175ea98e11fba	505266	4	main	z	43	square	local	RVF	yes	present	1	687
62ec3412706175ea98e11fba	508030	4	main	z	44	absent	absent	absent	no	absent	1	2000
62ec3412706175ea98e11fba	509823	4	main	z	45	circle	local	RVF	yes	present	1	774
62ec3412706175ea98e11fba	511301	4	main	z	46	square	global	RVF	yes	present	1	733
62ec3412706175ea98e11fba	512872	4	main	z	47	circle	local	LVF	yes	present	1	803
62ec3412706175ea98e11fba	514395	4	main	z	48	circle	global	RVF	yes	present	1	758
62ec3412706175ea98e11fba	515912	4	main	z	49	circle	global	RVF	yes	present	1	757
62ec3412706175ea98e11fba	517415	4	main	z	50	circle	global	RVF	yes	present	1	742
62ec3412706175ea98e11fba	518946	4	main	z	51	square	local	RVF	yes	present	1	772
62ec3412706175ea98e11fba	521066	4	main	z	52	circle	global	RVF	yes	present	1	1357
62ec3412706175ea98e11fba	522632	4	main	z	53	square	global	RVF	yes	present	1	820
62ec3412706175ea98e11fba	524195	4	main	z	54	square	local	LVF	yes	present	1	815
62ec3412706175ea98e11fba	525739	4	main	z	55	circle	local	RVF	yes	present	1	791
62ec3412706175ea98e11fba	527243	4	main	z	56	square	global	LVF	yes	present	1	744
62ec3412706175ea98e11fba	528793	4	main	z	57	square	global	LVF	yes	present	1	792
62ec3412706175ea98e11fba	530365	4	main	z	58	square	global	RVF	yes	present	1	813
62ec3412706175ea98e11fba	533105	4	main	z	59	absent	absent	absent	no	absent	1	2000
62ec3412706175ea98e11fba	534991	4	main	z	60	circle	local	LVF	yes	present	1	800
62ec3412706175ea98e11fba	537743	4	main	z	61	absent	absent	absent	no	absent	1	2000
62ec3412706175ea98e11fba	541096	4	main	z	62	absent	absent	absent	no	absent	1	2000
62ec3412706175ea98e11fba	542665	4	main	z	63	circle	local	LVF	yes	present	1	766
62ec3412706175ea98e11fba	544222	4	main	z	64	circle	local	LVF	yes	present	1	772
62ec3412706175ea98e11fba	545807	4	main	z	65	circle	global	LVF	yes	present	1	823
62ec3412706175ea98e11fba	547357	4	main	z	66	square	local	LVF	yes	present	1	771
62ec3412706175ea98e11fba	548936	4	main	z	67	circle	global	LVF	yes	present	1	798
62ec3412706175ea98e11fba	550393	4	main	z	68	square	global	LVF	yes	present	1	719
62ec3412706175ea98e11fba	553141	4	main	z	69	absent	absent	absent	no	absent	1	2000
62ec3412706175ea98e11fba	556145	4	main	z	70	absent	absent	absent	no	absent	1	2000
62ec3412706175ea98e11fba	559081	4	main	z	71	absent	absent	absent	no	absent	1	2000
62ec3412706175ea98e11fba	561025	4	main	z	72	square	global	LVF	yes	present	1	759
62ec3412706175ea98e11fba	562536	4	main	z	73	square	local	LVF	yes	present	1	750
62ec3412706175ea98e11fba	564100	4	main	z	74	circle	global	LVF	yes	present	1	814
62ec3412706175ea98e11fba	566855	4	main	z	75	absent	absent	absent	no	absent	1	2000
62ec3412706175ea98e11fba	568563	4	main	z	76	square	global	RVF	yes	present	1	772
62ec3412706175ea98e11fba	570134	4	main	z	77	circle	local	RVF	yes	present	1	809
62ec3412706175ea98e11fba	571665	4	main	z	78	circle	local	RVF	yes	present	1	771
62ec3412706175ea98e11fba	573230	4	main	z	79	circle	global	LVF	yes	present	1	784
62ec3412706175ea98e11fba	575220	4	main	z	80	square	local	RVF	yes	present	1	1290
