subject	time_elapsed_ms	blocknum	block_type	block_response	trialnum	target	level	field	target_present	response	correct	rt
5bb0f624a1c73d0001b9d62d	834265	9.5	practice	slash	1	rectangle	local	RVF	yes	absent	0	2000
5bb0f624a1c73d0001b9d62d	838750	9.5	practice	slash	2	rectangle	local	RVF	yes	present	1	1822
5bb0f624a1c73d0001b9d62d	843060	9.5	practice	slash	3	rectangle	global	RVF	yes	present	1	1220
5bb0f624a1c73d0001b9d62d	846422	9.5	practice	slash	4	rectangle	global	RVF	yes	present	1	1001
5bb0f624a1c73d0001b9d62d	849529	9.5	practice	slash	5	square	global	LVF	yes	present	1	944
5bb0f624a1c73d0001b9d62d	854581	9.5	practice	slash	6	square	local	LVF	yes	absent	0	2000
5bb0f624a1c73d0001b9d62d	857202	9.5	practice	slash	7	rectangle	global	LVF	yes	present	1	539
5bb0f624a1c73d0001b9d62d	861376	9.5	practice	slash	8	square	local	LVF	yes	absent	0	2000
5bb0f624a1c73d0001b9d62d	864415	9.5	practice	slash	9	rectangle	local	RVF	yes	present	1	1093
5bb0f624a1c73d0001b9d62d	867954	9.5	practice	slash	10	absent	absent	absent	no	present	0	1484
5bb0f624a1c73d0001b9d62d	872034	9.5	practice	slash	11	absent	absent	absent	no	absent	1	2000
5bb0f624a1c73d0001b9d62d	874744	9.5	practice	slash	12	square	global	LVF	yes	present	1	563
5bb0f624a1c73d0001b9d62d	877786	9.5	practice	slash	13	rectangle	global	LVF	yes	present	1	974
5bb0f624a1c73d0001b9d62d	880915	9.5	practice	slash	14	square	global	RVF	yes	present	1	723
5bb0f624a1c73d0001b9d62d	885024	9.5	practice	slash	15	absent	absent	absent	no	absent	1	2000
5bb0f624a1c73d0001b9d62d	888954	9.5	practice	slash	16	absent	absent	absent	no	absent	1	2000
5bb0f624a1c73d0001b9d62d	894046	10.5	main	slash	1	square	global	LVF	yes	present	1	584
5bb0f624a1c73d0001b9d62d	898933	10.5	main	slash	2	rectangle	global	LVF	yes	present	1	371
5bb0f624a1c73d0001b9d62d	902263	10.5	main	slash	3	square	local	RVF	yes	present	1	492
5bb0f624a1c73d0001b9d62d	904465	10.5	main	slash	4	square	local	RVF	yes	present	1	430
5bb0f624a1c73d0001b9d62d	906655	10.5	main	slash	5	rectangle	local	LVF	yes	present	1	454
5bb0f624a1c73d0001b9d62d	908790	10.5	main	slash	6	square	local	LVF	yes	present	1	658
5bb0f624a1c73d0001b9d62d	910605	10.5	main	slash	7	square	global	LVF	yes	present	1	358
5bb0f624a1c73d0001b9d62d	912696	10.5	main	slash	8	square	local	LVF	yes	present	1	716
5bb0f624a1c73d0001b9d62d	914726	10.5	main	slash	9	square	local	RVF	yes	present	1	517
5bb0f624a1c73d0001b9d62d	918159	10.5	main	slash	10	absent	absent	absent	no	absent	1	2000
5bb0f624a1c73d0001b9d62d	920106	10.5	main	slash	11	square	global	RVF	yes	present	1	449
5bb0f624a1c73d0001b9d62d	922681	10.5	main	slash	12	rectangle	global	LVF	yes	present	1	710
5bb0f624a1c73d0001b9d62d	924562	10.5	main	slash	13	square	global	RVF	yes	present	1	392
5bb0f624a1c73d0001b9d62d	926387	10.5	main	slash	14	rectangle	global	LVF	yes	present	1	403
5bb0f624a1c73d0001b9d62d	928268	10.5	main	slash	15	rectangle	local	LVF	yes	present	1	318
5bb0f624a1c73d0001b9d62d	931931	10.5	main	slash	16	absent	absent	absent	no	absent	1	2000
5bb0f624a1c73d0001b9d62d	933507	10.5	main	slash	17	square	global	RVF	yes	present	1	412
5bb0f624a1c73d0001b9d62d	937393	10.5	main	slash	18	absent	absent	absent	no	absent	1	2000
5bb0f624a1c73d0001b9d62d	939766	10.5	main	slash	19	rectangle	local	RVF	yes	present	1	1009
5bb0f624a1c73d0001b9d62d	941870	10.5	main	slash	20	rectangle	global	LVF	yes	present	1	682
5bb0f624a1c73d0001b9d62d	944041	10.5	main	slash	21	rectangle	local	RVF	yes	present	1	537
5bb0f624a1c73d0001b9d62d	947368	10.5	main	slash	22	absent	absent	absent	no	absent	1	2000
5bb0f624a1c73d0001b9d62d	950666	10.5	main	slash	23	absent	absent	absent	no	absent	1	2000
5bb0f624a1c73d0001b9d62d	952792	10.5	main	slash	24	rectangle	local	LVF	yes	present	1	862
5bb0f624a1c73d0001b9d62d	954768	10.5	main	slash	25	rectangle	local	RVF	yes	present	1	657
5bb0f624a1c73d0001b9d62d	956589	10.5	main	slash	26	square	local	RVF	yes	present	1	530
5bb0f624a1c73d0001b9d62d	958246	10.5	main	slash	27	square	global	RVF	yes	present	1	320
5bb0f624a1c73d0001b9d62d	961557	10.5	main	slash	28	absent	absent	absent	no	absent	1	2000
5bb0f624a1c73d0001b9d62d	963087	10.5	main	slash	29	square	local	LVF	yes	present	1	365
5bb0f624a1c73d0001b9d62d	964796	10.5	main	slash	30	square	global	LVF	yes	present	1	327
5bb0f624a1c73d0001b9d62d	966602	10.5	main	slash	31	rectangle	global	RVF	yes	present	1	418
5bb0f624a1c73d0001b9d62d	968336	10.5	main	slash	32	square	local	LVF	yes	present	1	485
5bb0f624a1c73d0001b9d62d	970372	10.5	main	slash	33	rectangle	local	LVF	yes	present	1	873
5bb0f624a1c73d0001b9d62d	971937	10.5	main	slash	34	rectangle	global	RVF	yes	present	1	340
5bb0f624a1c73d0001b9d62d	973532	10.5	main	slash	35	rectangle	global	RVF	yes	present	1	437
5bb0f624a1c73d0001b9d62d	976661	10.5	main	slash	36	absent	absent	absent	no	absent	1	2000
5bb0f624a1c73d0001b9d62d	978434	10.5	main	slash	37	absent	absent	absent	no	present	0	505
5bb0f624a1c73d0001b9d62d	981414	10.5	main	slash	38	rectangle	local	RVF	yes	present	1	525
5bb0f624a1c73d0001b9d62d	983137	10.5	main	slash	39	square	global	LVF	yes	present	1	533
5bb0f624a1c73d0001b9d62d	984637	10.5	main	slash	40	rectangle	global	RVF	yes	present	1	417
5bb0f624a1c73d0001b9d62d	987869	10.5	main	slash	41	absent	absent	absent	no	absent	1	2000
5bb0f624a1c73d0001b9d62d	989292	10.5	main	slash	42	rectangle	global	RVF	yes	present	1	309
5bb0f624a1c73d0001b9d62d	991174	10.5	main	slash	43	rectangle	global	LVF	yes	present	1	392
5bb0f624a1c73d0001b9d62d	993012	10.5	main	slash	44	square	global	RVF	yes	present	1	483
5bb0f624a1c73d0001b9d62d	994442	10.5	main	slash	45	rectangle	global	RVF	yes	present	1	314
5bb0f624a1c73d0001b9d62d	997527	10.5	main	slash	46	absent	absent	absent	no	absent	1	2000
5bb0f624a1c73d0001b9d62d	999115	10.5	main	slash	47	square	local	LVF	yes	present	1	473
5bb0f624a1c73d0001b9d62d	1001103	10.5	main	slash	48	rectangle	local	RVF	yes	present	1	797
5bb0f624a1c73d0001b9d62d	1002837	10.5	main	slash	49	square	local	LVF	yes	present	1	432
5bb0f624a1c73d0001b9d62d	1004497	10.5	main	slash	50	square	local	RVF	yes	present	1	476
5bb0f624a1c73d0001b9d62d	1006177	10.5	main	slash	51	rectangle	local	LVF	yes	present	1	504
5bb0f624a1c73d0001b9d62d	1007680	10.5	main	slash	52	rectangle	local	RVF	yes	present	1	395
5bb0f624a1c73d0001b9d62d	1010766	10.5	main	slash	53	absent	absent	absent	no	absent	1	2000
5bb0f624a1c73d0001b9d62d	1013981	10.5	main	slash	54	absent	absent	absent	no	absent	1	2000
5bb0f624a1c73d0001b9d62d	1015459	10.5	main	slash	55	rectangle	local	RVF	yes	present	1	371
5bb0f624a1c73d0001b9d62d	1017268	10.5	main	slash	56	square	global	RVF	yes	present	1	359
5bb0f624a1c73d0001b9d62d	1018692	10.5	main	slash	57	square	global	RVF	yes	present	1	317
5bb0f624a1c73d0001b9d62d	1021135	10.5	main	slash	58	absent	absent	absent	no	present	0	1361
5bb0f624a1c73d0001b9d62d	1022680	10.5	main	slash	59	square	local	RVF	yes	present	1	392
5bb0f624a1c73d0001b9d62d	1024077	10.5	main	slash	60	rectangle	local	RVF	yes	present	1	339
5bb0f624a1c73d0001b9d62d	1027086	10.5	main	slash	61	absent	absent	absent	no	absent	1	2000
5bb0f624a1c73d0001b9d62d	1028511	10.5	main	slash	62	rectangle	global	LVF	yes	present	1	410
5bb0f624a1c73d0001b9d62d	1030322	10.5	main	slash	63	square	local	LVF	yes	present	1	790
5bb0f624a1c73d0001b9d62d	1033465	10.5	main	slash	64	absent	absent	absent	no	absent	1	2000
5bb0f624a1c73d0001b9d62d	1034810	10.5	main	slash	65	square	global	LVF	yes	present	1	365
5bb0f624a1c73d0001b9d62d	1036589	10.5	main	slash	66	square	local	RVF	yes	present	1	510
5bb0f624a1c73d0001b9d62d	1038107	10.5	main	slash	67	rectangle	local	LVF	yes	present	1	464
5bb0f624a1c73d0001b9d62d	1039546	10.5	main	slash	68	square	global	RVF	yes	present	1	388
5bb0f624a1c73d0001b9d62d	1040909	10.5	main	slash	69	square	global	LVF	yes	present	1	319
5bb0f624a1c73d0001b9d62d	1042233	10.5	main	slash	70	square	global	LVF	yes	present	1	311
5bb0f624a1c73d0001b9d62d	1043516	10.5	main	slash	71	rectangle	local	LVF	yes	present	1	311
5bb0f624a1c73d0001b9d62d	1046637	10.5	main	slash	72	absent	absent	absent	no	absent	1	2000
5bb0f624a1c73d0001b9d62d	1048241	10.5	main	slash	73	square	local	LVF	yes	present	1	390
5bb0f624a1c73d0001b9d62d	1049704	10.5	main	slash	74	rectangle	global	RVF	yes	present	1	388
5bb0f624a1c73d0001b9d62d	1051224	10.5	main	slash	75	rectangle	global	RVF	yes	present	1	441
5bb0f624a1c73d0001b9d62d	1052655	10.5	main	slash	76	square	global	LVF	yes	present	1	358
5bb0f624a1c73d0001b9d62d	1053975	10.5	main	slash	77	rectangle	global	LVF	yes	present	1	328
5bb0f624a1c73d0001b9d62d	1055401	10.5	main	slash	78	rectangle	local	LVF	yes	present	1	405
5bb0f624a1c73d0001b9d62d	1056790	10.5	main	slash	79	square	local	RVF	yes	present	1	345
5bb0f624a1c73d0001b9d62d	1058157	10.5	main	slash	80	rectangle	global	LVF	yes	present	1	280
5bb0f624a1c73d0001b9d62d	1074130	11.5	practice	z	1	square	local	LVF	yes	present	1	330
5bb0f624a1c73d0001b9d62d	1076603	11.5	practice	z	2	square	global	LVF	yes	present	1	305
5bb0f624a1c73d0001b9d62d	1080813	11.5	practice	z	3	absent	absent	absent	no	absent	1	2000
5bb0f624a1c73d0001b9d62d	1083388	11.5	practice	z	4	square	local	LVF	yes	present	1	345
5bb0f624a1c73d0001b9d62d	1086183	11.5	practice	z	5	square	global	RVF	yes	present	1	344
5bb0f624a1c73d0001b9d62d	1088428	11.5	practice	z	6	rectangle	local	RVF	yes	present	1	307
5bb0f624a1c73d0001b9d62d	1090645	11.5	practice	z	7	square	global	LVF	yes	present	1	292
5bb0f624a1c73d0001b9d62d	1092894	11.5	practice	z	8	rectangle	global	RVF	yes	present	1	293
5bb0f624a1c73d0001b9d62d	1095453	11.5	practice	z	9	rectangle	global	RVF	yes	present	1	270
5bb0f624a1c73d0001b9d62d	1097801	11.5	practice	z	10	rectangle	global	LVF	yes	present	1	437
5bb0f624a1c73d0001b9d62d	1099967	11.5	practice	z	11	rectangle	local	RVF	yes	present	1	256
5bb0f624a1c73d0001b9d62d	1102178	11.5	practice	z	12	absent	absent	absent	no	present	0	268
5bb0f624a1c73d0001b9d62d	1106124	11.5	practice	z	13	absent	absent	absent	no	absent	1	2000
5bb0f624a1c73d0001b9d62d	1110071	11.5	practice	z	14	absent	absent	absent	no	absent	1	2000
5bb0f624a1c73d0001b9d62d	1112361	11.5	practice	z	15	rectangle	global	LVF	yes	present	1	393
5bb0f624a1c73d0001b9d62d	1114802	11.5	practice	z	16	rectangle	local	RVF	yes	present	1	352
5bb0f624a1c73d0001b9d62d	1122428	12.5	main	z	1	square	local	RVF	yes	present	1	454
5bb0f624a1c73d0001b9d62d	1124231	12.5	main	z	2	square	global	RVF	yes	present	1	293
5bb0f624a1c73d0001b9d62d	1126184	12.5	main	z	3	rectangle	local	LVF	yes	present	1	364
5bb0f624a1c73d0001b9d62d	1127724	12.5	main	z	4	square	global	RVF	yes	present	1	272
5bb0f624a1c73d0001b9d62d	1129250	12.5	main	z	5	rectangle	local	RVF	yes	present	1	249
5bb0f624a1c73d0001b9d62d	1130757	12.5	main	z	6	square	local	RVF	yes	present	1	223
5bb0f624a1c73d0001b9d62d	1134015	12.5	main	z	7	absent	absent	absent	no	absent	1	2000
5bb0f624a1c73d0001b9d62d	1135603	12.5	main	z	8	square	local	LVF	yes	present	1	540
5bb0f624a1c73d0001b9d62d	1137250	12.5	main	z	9	rectangle	global	RVF	yes	present	1	306
5bb0f624a1c73d0001b9d62d	1140926	12.5	main	z	10	absent	absent	absent	no	absent	1	2000
5bb0f624a1c73d0001b9d62d	1142715	12.5	main	z	11	rectangle	local	RVF	yes	present	1	425
5bb0f624a1c73d0001b9d62d	1144569	12.5	main	z	12	rectangle	local	RVF	yes	present	1	663
5bb0f624a1c73d0001b9d62d	1146177	12.5	main	z	13	square	local	RVF	yes	present	1	389
5bb0f624a1c73d0001b9d62d	1147638	12.5	main	z	14	rectangle	local	LVF	yes	present	1	334
5bb0f624a1c73d0001b9d62d	1149344	12.5	main	z	15	square	global	LVF	yes	present	1	360
5bb0f624a1c73d0001b9d62d	1150949	12.5	main	z	16	square	local	LVF	yes	present	1	433
5bb0f624a1c73d0001b9d62d	1152373	12.5	main	z	17	square	global	RVF	yes	present	1	373
5bb0f624a1c73d0001b9d62d	1153789	12.5	main	z	18	rectangle	global	RVF	yes	present	1	372
5bb0f624a1c73d0001b9d62d	1155329	12.5	main	z	19	absent	absent	absent	no	present	0	510
5bb0f624a1c73d0001b9d62d	1156991	12.5	main	z	20	square	global	RVF	yes	present	1	463
5bb0f624a1c73d0001b9d62d	1158494	12.5	main	z	21	square	global	LVF	yes	present	1	432
5bb0f624a1c73d0001b9d62d	1161576	12.5	main	z	22	absent	absent	absent	no	absent	1	2000
5bb0f624a1c73d0001b9d62d	1163023	12.5	main	z	23	rectangle	local	LVF	yes	present	1	500
5bb0f624a1c73d0001b9d62d	1164802	12.5	main	z	24	rectangle	global	LVF	yes	present	1	746
5bb0f624a1c73d0001b9d62d	1166329	12.5	main	z	25	rectangle	global	LVF	yes	present	1	342
5bb0f624a1c73d0001b9d62d	1167916	12.5	main	z	26	square	local	LVF	yes	present	1	513
5bb0f624a1c73d0001b9d62d	1169199	12.5	main	z	27	square	global	LVF	yes	present	1	281
5bb0f624a1c73d0001b9d62d	1170531	12.5	main	z	28	rectangle	global	LVF	yes	present	1	313
5bb0f624a1c73d0001b9d62d	1172018	12.5	main	z	29	square	local	RVF	yes	present	1	519
5bb0f624a1c73d0001b9d62d	1173344	12.5	main	z	30	square	local	LVF	yes	present	1	346
5bb0f624a1c73d0001b9d62d	1174854	12.5	main	z	31	rectangle	global	RVF	yes	present	1	491
5bb0f624a1c73d0001b9d62d	1177829	12.5	main	z	32	absent	absent	absent	no	absent	1	2000
5bb0f624a1c73d0001b9d62d	1179415	12.5	main	z	33	rectangle	global	LVF	yes	present	1	289
5bb0f624a1c73d0001b9d62d	1180757	12.5	main	z	34	absent	absent	absent	no	present	0	347
5bb0f624a1c73d0001b9d62d	1182804	12.5	main	z	35	square	global	LVF	yes	present	1	281
5bb0f624a1c73d0001b9d62d	1184383	12.5	main	z	36	rectangle	local	RVF	yes	present	1	577
5bb0f624a1c73d0001b9d62d	1185744	12.5	main	z	37	rectangle	global	RVF	yes	present	1	389
5bb0f624a1c73d0001b9d62d	1188720	12.5	main	z	38	absent	absent	absent	no	absent	1	2000
5bb0f624a1c73d0001b9d62d	1190297	12.5	main	z	39	rectangle	local	LVF	yes	present	1	380
5bb0f624a1c73d0001b9d62d	1193283	12.5	main	z	40	absent	absent	absent	no	absent	1	2000
5bb0f624a1c73d0001b9d62d	1196364	12.5	main	z	41	absent	absent	absent	no	absent	1	2000
5bb0f624a1c73d0001b9d62d	1199345	12.5	main	z	42	absent	absent	absent	no	absent	1	2000
5bb0f624a1c73d0001b9d62d	1200627	12.5	main	z	43	square	global	LVF	yes	present	1	300
5bb0f624a1c73d0001b9d62d	1203558	12.5	main	z	44	absent	absent	absent	no	absent	1	2000
5bb0f624a1c73d0001b9d62d	1204802	12.5	main	z	45	rectangle	global	RVF	yes	present	1	330
5bb0f624a1c73d0001b9d62d	1206219	12.5	main	z	46	square	local	RVF	yes	present	1	448
5bb0f624a1c73d0001b9d62d	1207668	12.5	main	z	47	rectangle	local	LVF	yes	present	1	448
5bb0f624a1c73d0001b9d62d	1208984	12.5	main	z	48	square	local	LVF	yes	present	1	372
5bb0f624a1c73d0001b9d62d	1210335	12.5	main	z	49	square	local	RVF	yes	present	1	417
5bb0f624a1c73d0001b9d62d	1211791	12.5	main	z	50	square	global	RVF	yes	present	1	358
5bb0f624a1c73d0001b9d62d	1213087	12.5	main	z	51	rectangle	local	RVF	yes	present	1	355
5bb0f624a1c73d0001b9d62d	1216114	12.5	main	z	52	absent	absent	absent	no	absent	1	2000
5bb0f624a1c73d0001b9d62d	1217455	12.5	main	z	53	square	local	RVF	yes	present	1	277
5bb0f624a1c73d0001b9d62d	1218875	12.5	main	z	54	rectangle	global	LVF	yes	present	1	381
5bb0f624a1c73d0001b9d62d	1220137	12.5	main	z	55	rectangle	global	LVF	yes	present	1	310
5bb0f624a1c73d0001b9d62d	1221538	12.5	main	z	56	rectangle	local	LVF	yes	present	1	480
5bb0f624a1c73d0001b9d62d	1222882	12.5	main	z	57	square	local	LVF	yes	present	1	371
5bb0f624a1c73d0001b9d62d	1224196	12.5	main	z	58	rectangle	global	RVF	yes	present	1	407
5bb0f624a1c73d0001b9d62d	1225404	12.5	main	z	59	square	global	LVF	yes	present	1	299
5bb0f624a1c73d0001b9d62d	1227041	12.5	main	z	60	square	local	LVF	yes	present	1	437
5bb0f624a1c73d0001b9d62d	1229936	12.5	main	z	61	absent	absent	absent	no	absent	1	2000
5bb0f624a1c73d0001b9d62d	1232917	12.5	main	z	62	absent	absent	absent	no	absent	1	2000
5bb0f624a1c73d0001b9d62d	1234304	12.5	main	z	63	rectangle	global	LVF	yes	present	1	323
5bb0f624a1c73d0001b9d62d	1235626	12.5	main	z	64	rectangle	local	LVF	yes	present	1	379
5bb0f624a1c73d0001b9d62d	1238662	12.5	main	z	65	absent	absent	absent	no	absent	1	2000
5bb0f624a1c73d0001b9d62d	1239901	12.5	main	z	66	square	global	RVF	yes	present	1	307
5bb0f624a1c73d0001b9d62d	1241237	12.5	main	z	67	rectangle	local	RVF	yes	present	1	412
5bb0f624a1c73d0001b9d62d	1242454	12.5	main	z	68	square	global	LVF	yes	present	1	263
5bb0f624a1c73d0001b9d62d	1243697	12.5	main	z	69	square	global	LVF	yes	present	1	307
5bb0f624a1c73d0001b9d62d	1244951	12.5	main	z	70	rectangle	local	RVF	yes	present	1	345
5bb0f624a1c73d0001b9d62d	1246193	12.5	main	z	71	square	local	LVF	yes	present	1	338
5bb0f624a1c73d0001b9d62d	1247371	12.5	main	z	72	square	global	RVF	yes	present	1	267
5bb0f624a1c73d0001b9d62d	1248603	12.5	main	z	73	square	global	RVF	yes	present	1	299
5bb0f624a1c73d0001b9d62d	1249907	12.5	main	z	74	rectangle	global	RVF	yes	present	1	339
5bb0f624a1c73d0001b9d62d	1251382	12.5	main	z	75	rectangle	local	RVF	yes	present	1	498
5bb0f624a1c73d0001b9d62d	1252627	12.5	main	z	76	rectangle	global	LVF	yes	present	1	294
5bb0f624a1c73d0001b9d62d	1253879	12.5	main	z	77	rectangle	local	LVF	yes	present	1	314
5bb0f624a1c73d0001b9d62d	1255116	12.5	main	z	78	rectangle	global	RVF	yes	present	1	285
5bb0f624a1c73d0001b9d62d	1256311	12.5	main	z	79	absent	absent	absent	no	present	0	281
5bb0f624a1c73d0001b9d62d	1258550	12.5	main	z	80	square	local	RVF	yes	present	1	389
