subject	time_elapsed_ms	blocknum	block_type	block_response	trialnum	target	level	field	target_present	response	correct	rt
5bc10133904b2f000194b264	226467	1	practice	slash	1	absent	absent	absent	no	absent	1	2000
5bc10133904b2f000194b264	230869	1	practice	slash	2	rectangle	local	RVF	yes	absent	0	2000
5bc10133904b2f000194b264	234797	1	practice	slash	3	rectangle	local	RVF	yes	present	1	1676
5bc10133904b2f000194b264	239016	1	practice	slash	4	absent	absent	absent	no	absent	1	2000
5bc10133904b2f000194b264	242455	1	practice	slash	5	rectangle	global	LVF	yes	present	1	1166
5bc10133904b2f000194b264	246093	1	practice	slash	6	square	local	LVF	yes	present	1	1351
5bc10133904b2f000194b264	250317	1	practice	slash	7	rectangle	global	LVF	yes	absent	0	2000
5bc10133904b2f000194b264	253564	1	practice	slash	8	square	global	LVF	yes	present	1	1107
5bc10133904b2f000194b264	257699	1	practice	slash	9	absent	absent	absent	no	absent	1	2000
5bc10133904b2f000194b264	261806	1	practice	slash	10	square	global	RVF	yes	absent	0	2000
5bc10133904b2f000194b264	265395	1	practice	slash	11	square	global	LVF	yes	present	1	1129
5bc10133904b2f000194b264	269080	1	practice	slash	12	rectangle	global	RVF	yes	present	1	1485
5bc10133904b2f000194b264	273182	1	practice	slash	13	square	local	LVF	yes	absent	0	2000
5bc10133904b2f000194b264	276872	1	practice	slash	14	rectangle	global	RVF	yes	present	1	1555
5bc10133904b2f000194b264	280977	1	practice	slash	15	absent	absent	absent	no	absent	1	2000
5bc10133904b2f000194b264	284335	1	practice	slash	16	rectangle	local	RVF	yes	present	1	1291
5bc10133904b2f000194b264	290709	2	main	slash	1	square	local	LVF	yes	present	1	1185
5bc10133904b2f000194b264	294348	2	main	slash	2	square	local	LVF	yes	present	1	1423
5bc10133904b2f000194b264	296815	2	main	slash	3	rectangle	local	RVF	yes	present	1	1196
5bc10133904b2f000194b264	300294	2	main	slash	4	square	global	LVF	yes	absent	0	2000
5bc10133904b2f000194b264	302695	2	main	slash	5	rectangle	local	LVF	yes	present	1	1069
5bc10133904b2f000194b264	306098	2	main	slash	6	absent	absent	absent	no	absent	1	2000
5bc10133904b2f000194b264	308413	2	main	slash	7	square	local	LVF	yes	present	1	1369
5bc10133904b2f000194b264	312301	2	main	slash	8	rectangle	global	LVF	yes	absent	0	2000
5bc10133904b2f000194b264	314842	2	main	slash	9	square	local	RVF	yes	present	1	1242
5bc10133904b2f000194b264	318085	2	main	slash	10	rectangle	global	LVF	yes	absent	0	2000
5bc10133904b2f000194b264	320107	2	main	slash	11	square	local	RVF	yes	present	1	1092
5bc10133904b2f000194b264	323754	2	main	slash	12	square	global	RVF	yes	absent	0	2000
5bc10133904b2f000194b264	326258	2	main	slash	13	rectangle	local	RVF	yes	present	1	1169
5bc10133904b2f000194b264	329189	2	main	slash	14	square	global	LVF	yes	present	1	1326
5bc10133904b2f000194b264	332068	2	main	slash	15	square	global	LVF	yes	present	1	1594
5bc10133904b2f000194b264	334429	2	main	slash	16	rectangle	global	RVF	yes	present	1	1077
5bc10133904b2f000194b264	336570	2	main	slash	17	square	global	RVF	yes	present	1	973
5bc10133904b2f000194b264	339739	2	main	slash	18	rectangle	local	LVF	yes	absent	0	2000
5bc10133904b2f000194b264	341243	2	main	slash	19	rectangle	global	RVF	yes	present	1	602
5bc10133904b2f000194b264	342973	2	main	slash	20	square	global	RVF	yes	present	1	497
5bc10133904b2f000194b264	346289	2	main	slash	21	absent	absent	absent	no	absent	1	2000
5bc10133904b2f000194b264	349401	2	main	slash	22	absent	absent	absent	no	absent	1	2000
5bc10133904b2f000194b264	351342	2	main	slash	23	square	local	RVF	yes	present	1	988
5bc10133904b2f000194b264	353014	2	main	slash	24	square	local	LVF	yes	present	1	514
5bc10133904b2f000194b264	356734	2	main	slash	25	absent	absent	absent	no	absent	1	2000
5bc10133904b2f000194b264	359649	2	main	slash	26	absent	absent	absent	no	absent	1	2000
5bc10133904b2f000194b264	367203	2	main	slash	27	square	local	RVF	yes	present	1	987
5bc10133904b2f000194b264	370238	2	main	slash	28	square	global	LVF	yes	present	1	406
5bc10133904b2f000194b264	371907	2	main	slash	29	rectangle	local	RVF	yes	present	1	414
5bc10133904b2f000194b264	375090	2	main	slash	30	absent	absent	absent	no	absent	1	2000
5bc10133904b2f000194b264	377435	2	main	slash	31	rectangle	local	RVF	yes	present	1	821
5bc10133904b2f000194b264	379167	2	main	slash	32	rectangle	local	LVF	yes	present	1	513
5bc10133904b2f000194b264	380696	2	main	slash	33	rectangle	local	LVF	yes	present	1	461
5bc10133904b2f000194b264	382355	2	main	slash	34	rectangle	global	LVF	yes	present	1	367
5bc10133904b2f000194b264	383895	2	main	slash	35	rectangle	global	RVF	yes	present	1	352
5bc10133904b2f000194b264	385341	2	main	slash	36	square	global	RVF	yes	present	1	367
5bc10133904b2f000194b264	388522	2	main	slash	37	absent	absent	absent	no	absent	1	2000
5bc10133904b2f000194b264	390069	2	main	slash	38	absent	absent	absent	no	present	0	554
5bc10133904b2f000194b264	391851	2	main	slash	39	rectangle	global	LVF	yes	present	1	560
5bc10133904b2f000194b264	393288	2	main	slash	40	rectangle	global	RVF	yes	present	1	335
5bc10133904b2f000194b264	394989	2	main	slash	41	square	global	RVF	yes	present	1	382
5bc10133904b2f000194b264	398081	2	main	slash	42	rectangle	local	LVF	yes	absent	0	2000
5bc10133904b2f000194b264	401238	2	main	slash	43	absent	absent	absent	no	absent	1	2000
5bc10133904b2f000194b264	404161	2	main	slash	44	rectangle	global	RVF	yes	absent	0	2000
5bc10133904b2f000194b264	405912	2	main	slash	45	rectangle	global	LVF	yes	present	1	393
5bc10133904b2f000194b264	407296	2	main	slash	46	rectangle	global	RVF	yes	present	1	379
5bc10133904b2f000194b264	409028	2	main	slash	47	rectangle	local	LVF	yes	present	1	673
5bc10133904b2f000194b264	411039	2	main	slash	48	square	local	RVF	yes	present	1	906
5bc10133904b2f000194b264	412432	2	main	slash	49	rectangle	global	LVF	yes	present	1	394
5bc10133904b2f000194b264	415469	2	main	slash	50	absent	absent	absent	no	absent	1	2000
5bc10133904b2f000194b264	417150	2	main	slash	51	rectangle	local	RVF	yes	present	1	533
5bc10133904b2f000194b264	418655	2	main	slash	52	absent	absent	absent	no	present	0	501
5bc10133904b2f000194b264	421466	2	main	slash	53	square	local	LVF	yes	present	1	1775
5bc10133904b2f000194b264	423175	2	main	slash	54	rectangle	local	RVF	yes	present	1	633
5bc10133904b2f000194b264	424499	2	main	slash	55	square	global	LVF	yes	present	1	396
5bc10133904b2f000194b264	425895	2	main	slash	56	rectangle	local	RVF	yes	present	1	409
5bc10133904b2f000194b264	427232	2	main	slash	57	square	local	RVF	yes	present	1	348
5bc10133904b2f000194b264	428588	2	main	slash	58	square	global	RVF	yes	present	1	332
5bc10133904b2f000194b264	430051	2	main	slash	59	absent	absent	absent	no	present	0	505
5bc10133904b2f000194b264	432046	2	main	slash	60	square	local	LVF	yes	present	1	1011
5bc10133904b2f000194b264	433784	2	main	slash	61	rectangle	local	LVF	yes	present	1	814
5bc10133904b2f000194b264	435221	2	main	slash	62	square	local	RVF	yes	present	1	392
5bc10133904b2f000194b264	437201	2	main	slash	63	rectangle	local	LVF	yes	present	1	684
5bc10133904b2f000194b264	438842	2	main	slash	64	square	local	RVF	yes	present	1	459
5bc10133904b2f000194b264	440240	2	main	slash	65	square	global	LVF	yes	present	1	407
5bc10133904b2f000194b264	441775	2	main	slash	66	rectangle	global	LVF	yes	present	1	522
5bc10133904b2f000194b264	443126	2	main	slash	67	square	global	RVF	yes	present	1	579
5bc10133904b2f000194b264	446051	2	main	slash	68	absent	absent	absent	no	absent	1	2000
5bc10133904b2f000194b264	449089	2	main	slash	69	absent	absent	absent	no	absent	1	2000
5bc10133904b2f000194b264	450458	2	main	slash	70	square	global	LVF	yes	present	1	422
5bc10133904b2f000194b264	451718	2	main	slash	71	square	global	RVF	yes	present	1	394
5bc10133904b2f000194b264	452907	2	main	slash	72	absent	absent	absent	no	present	0	361
5bc10133904b2f000194b264	454709	2	main	slash	73	square	local	LVF	yes	present	1	639
5bc10133904b2f000194b264	457395	2	main	slash	74	absent	absent	absent	no	absent	1	2000
5bc10133904b2f000194b264	459000	2	main	slash	75	rectangle	global	RVF	yes	present	1	580
5bc10133904b2f000194b264	460255	2	main	slash	76	rectangle	global	RVF	yes	present	1	280
5bc10133904b2f000194b264	462063	2	main	slash	77	square	local	LVF	yes	present	1	789
5bc10133904b2f000194b264	463314	2	main	slash	78	square	global	LVF	yes	present	1	372
5bc10133904b2f000194b264	464881	2	main	slash	79	rectangle	global	LVF	yes	present	1	536
5bc10133904b2f000194b264	466662	2	main	slash	80	rectangle	local	RVF	yes	present	1	870
5bc10133904b2f000194b264	522368	3	practice	z	1	square	local	LVF	yes	present	1	452
5bc10133904b2f000194b264	524819	3	practice	z	2	square	global	RVF	yes	present	1	405
5bc10133904b2f000194b264	527492	3	practice	z	3	absent	absent	absent	no	present	0	498
5bc10133904b2f000194b264	529981	3	practice	z	4	rectangle	global	RVF	yes	present	1	531
5bc10133904b2f000194b264	532677	3	practice	z	5	square	global	LVF	yes	present	1	755
5bc10133904b2f000194b264	536782	3	practice	z	6	rectangle	local	RVF	yes	absent	0	2000
5bc10133904b2f000194b264	539342	3	practice	z	7	rectangle	global	LVF	yes	present	1	631
5bc10133904b2f000194b264	541807	3	practice	z	8	rectangle	local	RVF	yes	present	1	563
5bc10133904b2f000194b264	544184	3	practice	z	9	rectangle	global	RVF	yes	present	1	492
5bc10133904b2f000194b264	548070	3	practice	z	10	absent	absent	absent	no	absent	1	2000
5bc10133904b2f000194b264	552074	3	practice	z	11	absent	absent	absent	no	absent	1	2000
5bc10133904b2f000194b264	554964	3	practice	z	12	square	local	LVF	yes	present	1	840
5bc10133904b2f000194b264	557536	3	practice	z	13	rectangle	global	LVF	yes	present	1	585
5bc10133904b2f000194b264	561450	3	practice	z	14	absent	absent	absent	no	absent	1	2000
5bc10133904b2f000194b264	564447	3	practice	z	15	square	global	LVF	yes	present	1	944
5bc10133904b2f000194b264	567089	3	practice	z	16	rectangle	local	RVF	yes	present	1	628
5bc10133904b2f000194b264	572724	4	main	z	1	absent	absent	absent	no	present	0	1078
5bc10133904b2f000194b264	574296	4	main	z	2	rectangle	global	RVF	yes	present	1	527
5bc10133904b2f000194b264	577612	4	main	z	3	absent	absent	absent	no	absent	1	2000
5bc10133904b2f000194b264	580471	4	main	z	4	absent	absent	absent	no	absent	1	2000
5bc10133904b2f000194b264	581839	4	main	z	5	square	global	LVF	yes	present	1	399
5bc10133904b2f000194b264	584899	4	main	z	6	absent	absent	absent	no	absent	1	2000
5bc10133904b2f000194b264	586232	4	main	z	7	rectangle	global	RVF	yes	present	1	422
5bc10133904b2f000194b264	589180	4	main	z	8	rectangle	local	LVF	yes	absent	0	2000
5bc10133904b2f000194b264	590689	4	main	z	9	square	local	RVF	yes	present	1	522
5bc10133904b2f000194b264	592622	4	main	z	10	square	global	LVF	yes	present	1	442
5bc10133904b2f000194b264	593873	4	main	z	11	rectangle	global	LVF	yes	present	1	583
5bc10133904b2f000194b264	595556	4	main	z	12	square	global	LVF	yes	present	1	453
5bc10133904b2f000194b264	596967	4	main	z	13	square	local	LVF	yes	present	1	488
5bc10133904b2f000194b264	598183	4	main	z	14	square	global	LVF	yes	present	1	392
5bc10133904b2f000194b264	599483	4	main	z	15	square	local	LVF	yes	present	1	621
5bc10133904b2f000194b264	600664	4	main	z	16	rectangle	global	RVF	yes	present	1	507
5bc10133904b2f000194b264	601940	4	main	z	17	square	local	RVF	yes	present	1	593
5bc10133904b2f000194b264	604140	4	main	z	18	rectangle	local	LVF	yes	present	1	714
5bc10133904b2f000194b264	605869	4	main	z	19	rectangle	global	LVF	yes	present	1	873
5bc10133904b2f000194b264	607265	4	main	z	20	rectangle	local	RVF	yes	present	1	555
5bc10133904b2f000194b264	608688	4	main	z	21	square	local	LVF	yes	present	1	671
5bc10133904b2f000194b264	611427	4	main	z	22	absent	absent	absent	no	absent	1	2000
5bc10133904b2f000194b264	612921	4	main	z	23	square	local	LVF	yes	present	1	519
5bc10133904b2f000194b264	614203	4	main	z	24	square	local	RVF	yes	present	1	537
5bc10133904b2f000194b264	615871	4	main	z	25	square	global	RVF	yes	present	1	946
5bc10133904b2f000194b264	618210	4	main	z	26	square	local	RVF	yes	present	1	1092
5bc10133904b2f000194b264	619508	4	main	z	27	square	global	RVF	yes	present	1	548
5bc10133904b2f000194b264	620604	4	main	z	28	rectangle	global	LVF	yes	present	1	374
5bc10133904b2f000194b264	622735	4	main	z	29	rectangle	local	RVF	yes	present	1	659
5bc10133904b2f000194b264	623980	4	main	z	30	rectangle	local	LVF	yes	present	1	551
5bc10133904b2f000194b264	625154	4	main	z	31	square	global	RVF	yes	present	1	458
5bc10133904b2f000194b264	627526	4	main	z	32	rectangle	local	LVF	yes	present	1	1069
5bc10133904b2f000194b264	629160	4	main	z	33	square	global	RVF	yes	present	1	860
5bc10133904b2f000194b264	631967	4	main	z	34	absent	absent	absent	no	absent	1	2000
5bc10133904b2f000194b264	633454	4	main	z	35	rectangle	local	RVF	yes	present	1	505
5bc10133904b2f000194b264	636232	4	main	z	36	absent	absent	absent	no	absent	1	2000
5bc10133904b2f000194b264	639288	4	main	z	37	absent	absent	absent	no	absent	1	2000
5bc10133904b2f000194b264	640913	4	main	z	38	rectangle	global	LVF	yes	present	1	673
5bc10133904b2f000194b264	642119	4	main	z	39	rectangle	global	RVF	yes	present	1	443
5bc10133904b2f000194b264	643405	4	main	z	40	rectangle	local	RVF	yes	present	1	596
5bc10133904b2f000194b264	644646	4	main	z	41	rectangle	local	RVF	yes	present	1	491
5bc10133904b2f000194b264	645863	4	main	z	42	rectangle	local	RVF	yes	present	1	497
5bc10133904b2f000194b264	647527	4	main	z	43	square	local	RVF	yes	present	1	941
5bc10133904b2f000194b264	649064	4	main	z	44	rectangle	global	LVF	yes	present	1	823
5bc10133904b2f000194b264	650241	4	main	z	45	rectangle	global	RVF	yes	present	1	440
5bc10133904b2f000194b264	651798	4	main	z	46	rectangle	local	LVF	yes	present	1	816
5bc10133904b2f000194b264	653062	4	main	z	47	rectangle	local	LVF	yes	present	1	499
5bc10133904b2f000194b264	655802	4	main	z	48	absent	absent	absent	no	absent	1	2000
5bc10133904b2f000194b264	657693	4	main	z	49	square	global	RVF	yes	present	1	527
5bc10133904b2f000194b264	658912	4	main	z	50	square	local	LVF	yes	present	1	510
5bc10133904b2f000194b264	661657	4	main	z	51	absent	absent	absent	no	absent	1	2000
5bc10133904b2f000194b264	663274	4	main	z	52	rectangle	global	LVF	yes	present	1	470
5bc10133904b2f000194b264	664544	4	main	z	53	rectangle	global	RVF	yes	present	1	492
5bc10133904b2f000194b264	665896	4	main	z	54	square	global	RVF	yes	present	1	657
5bc10133904b2f000194b264	668605	4	main	z	55	absent	absent	absent	no	absent	1	2000
5bc10133904b2f000194b264	670297	4	main	z	56	rectangle	global	LVF	yes	present	1	470
5bc10133904b2f000194b264	671628	4	main	z	57	square	local	LVF	yes	present	1	617
5bc10133904b2f000194b264	674348	4	main	z	58	absent	absent	absent	no	absent	1	2000
5bc10133904b2f000194b264	677408	4	main	z	59	rectangle	local	LVF	yes	absent	0	2000
5bc10133904b2f000194b264	678835	4	main	z	60	rectangle	global	LVF	yes	present	1	461
5bc10133904b2f000194b264	680190	4	main	z	61	rectangle	global	RVF	yes	present	1	623
5bc10133904b2f000194b264	682946	4	main	z	62	square	local	LVF	yes	absent	0	2000
5bc10133904b2f000194b264	684843	4	main	z	63	square	global	RVF	yes	present	1	575
5bc10133904b2f000194b264	686292	4	main	z	64	square	global	RVF	yes	present	1	741
5bc10133904b2f000194b264	687651	4	main	z	65	square	global	LVF	yes	present	1	577
5bc10133904b2f000194b264	688887	4	main	z	66	square	global	LVF	yes	present	1	491
5bc10133904b2f000194b264	691665	4	main	z	67	absent	absent	absent	no	absent	1	2000
5bc10133904b2f000194b264	693085	4	main	z	68	square	local	RVF	yes	present	1	481
5bc10133904b2f000194b264	694345	4	main	z	69	square	global	LVF	yes	present	1	520
5bc10133904b2f000194b264	695594	4	main	z	70	square	local	RVF	yes	present	1	509
5bc10133904b2f000194b264	696963	4	main	z	71	rectangle	global	RVF	yes	present	1	648
5bc10133904b2f000194b264	699724	4	main	z	72	absent	absent	absent	no	absent	1	2000
5bc10133904b2f000194b264	701214	4	main	z	73	square	local	RVF	yes	present	1	555
5bc10133904b2f000194b264	703937	4	main	z	74	absent	absent	absent	no	absent	1	2000
5bc10133904b2f000194b264	705881	4	main	z	75	rectangle	local	LVF	yes	present	1	1047
5bc10133904b2f000194b264	707146	4	main	z	76	rectangle	local	RVF	yes	present	1	555
5bc10133904b2f000194b264	708327	4	main	z	77	square	global	LVF	yes	present	1	456
5bc10133904b2f000194b264	711030	4	main	z	78	absent	absent	absent	no	absent	1	2000
5bc10133904b2f000194b264	712520	4	main	z	79	rectangle	local	RVF	yes	present	1	600
5bc10133904b2f000194b264	714145	4	main	z	80	square	local	LVF	yes	present	1	898
