subject	time_elapsed_ms	blocknum	block_type	block_response	trialnum	target	level	field	target_present	response	correct	rt
606492360e422d12dc63000e	543777	9.5	practice	z	1	square	global	LVF	yes	present	1	862
606492360e422d12dc63000e	549625	9.5	practice	z	2	rectangle	local	RVF	yes	absent	0	2000
606492360e422d12dc63000e	554385	9.5	practice	z	3	absent	absent	absent	no	absent	1	2000
606492360e422d12dc63000e	557695	9.5	practice	z	4	rectangle	global	RVF	yes	present	1	815
606492360e422d12dc63000e	561250	9.5	practice	z	5	square	local	LVF	yes	present	1	1159
606492360e422d12dc63000e	564254	9.5	practice	z	6	rectangle	global	LVF	yes	present	1	867
606492360e422d12dc63000e	567332	9.5	practice	z	7	square	global	RVF	yes	present	1	865
606492360e422d12dc63000e	570356	9.5	practice	z	8	rectangle	local	RVF	yes	present	1	893
606492360e422d12dc63000e	573728	9.5	practice	z	9	square	local	LVF	yes	present	1	1220
606492360e422d12dc63000e	577770	9.5	practice	z	10	absent	absent	absent	no	absent	1	2000
606492360e422d12dc63000e	582730	9.5	practice	z	11	rectangle	local	RVF	yes	absent	0	2000
606492360e422d12dc63000e	586774	9.5	practice	z	12	absent	absent	absent	no	absent	1	2000
606492360e422d12dc63000e	589803	9.5	practice	z	13	square	global	LVF	yes	present	1	750
606492360e422d12dc63000e	592548	9.5	practice	z	14	rectangle	global	LVF	yes	present	1	732
606492360e422d12dc63000e	596611	9.5	practice	z	15	absent	absent	absent	no	absent	1	2000
606492360e422d12dc63000e	599425	9.5	practice	z	16	rectangle	global	RVF	yes	present	1	769
606492360e422d12dc63000e	603866	10.5	main	z	1	square	global	RVF	yes	present	1	586
606492360e422d12dc63000e	607361	10.5	main	z	2	rectangle	local	RVF	yes	absent	0	2000
606492360e422d12dc63000e	609048	10.5	main	z	3	rectangle	global	RVF	yes	present	1	624
606492360e422d12dc63000e	611037	10.5	main	z	4	rectangle	local	RVF	yes	present	1	733
606492360e422d12dc63000e	612906	10.5	main	z	5	rectangle	local	LVF	yes	present	1	787
606492360e422d12dc63000e	614748	10.5	main	z	6	rectangle	global	LVF	yes	present	1	683
606492360e422d12dc63000e	616677	10.5	main	z	7	square	global	LVF	yes	present	1	830
606492360e422d12dc63000e	618457	10.5	main	z	8	square	local	RVF	yes	present	1	729
606492360e422d12dc63000e	620450	10.5	main	z	9	rectangle	local	RVF	yes	present	1	907
606492360e422d12dc63000e	622147	10.5	main	z	10	square	local	RVF	yes	present	1	642
606492360e422d12dc63000e	623874	10.5	main	z	11	square	local	RVF	yes	present	1	704
606492360e422d12dc63000e	625773	10.5	main	z	12	square	global	RVF	yes	present	1	855
606492360e422d12dc63000e	627479	10.5	main	z	13	rectangle	local	LVF	yes	present	1	663
606492360e422d12dc63000e	629220	10.5	main	z	14	square	local	LVF	yes	present	1	740
606492360e422d12dc63000e	630848	10.5	main	z	15	rectangle	local	LVF	yes	present	1	721
606492360e422d12dc63000e	632455	10.5	main	z	16	rectangle	global	LVF	yes	present	1	812
606492360e422d12dc63000e	634072	10.5	main	z	17	rectangle	local	LVF	yes	present	1	599
606492360e422d12dc63000e	635585	10.5	main	z	18	square	local	RVF	yes	present	1	648
606492360e422d12dc63000e	637355	10.5	main	z	19	square	local	LVF	yes	present	1	736
606492360e422d12dc63000e	638903	10.5	main	z	20	square	local	LVF	yes	present	1	671
606492360e422d12dc63000e	640715	10.5	main	z	21	absent	absent	absent	no	present	0	802
606492360e422d12dc63000e	642712	10.5	main	z	22	square	global	RVF	yes	present	1	752
606492360e422d12dc63000e	645675	10.5	main	z	23	absent	absent	absent	no	absent	1	2000
606492360e422d12dc63000e	648871	10.5	main	z	24	absent	absent	absent	no	absent	1	2000
606492360e422d12dc63000e	650417	10.5	main	z	25	rectangle	global	RVF	yes	present	1	583
606492360e422d12dc63000e	653348	10.5	main	z	26	absent	absent	absent	no	absent	1	2000
606492360e422d12dc63000e	654962	10.5	main	z	27	rectangle	global	RVF	yes	present	1	585
606492360e422d12dc63000e	656485	10.5	main	z	28	square	global	LVF	yes	present	1	609
606492360e422d12dc63000e	658171	10.5	main	z	29	rectangle	global	LVF	yes	present	1	664
606492360e422d12dc63000e	659747	10.5	main	z	30	rectangle	global	RVF	yes	present	1	626
606492360e422d12dc63000e	661047	10.5	main	z	31	square	global	RVF	yes	present	1	528
606492360e422d12dc63000e	662318	10.5	main	z	32	square	global	LVF	yes	present	1	483
606492360e422d12dc63000e	663883	10.5	main	z	33	square	local	LVF	yes	present	1	768
606492360e422d12dc63000e	666696	10.5	main	z	34	absent	absent	absent	no	absent	1	2000
606492360e422d12dc63000e	668218	10.5	main	z	35	rectangle	global	LVF	yes	present	1	492
606492360e422d12dc63000e	670974	10.5	main	z	36	absent	absent	absent	no	absent	1	2000
606492360e422d12dc63000e	672451	10.5	main	z	37	square	global	LVF	yes	present	1	563
606492360e422d12dc63000e	675202	10.5	main	z	38	absent	absent	absent	no	absent	1	2000
606492360e422d12dc63000e	676806	10.5	main	z	39	rectangle	local	RVF	yes	present	1	676
606492360e422d12dc63000e	679530	10.5	main	z	40	absent	absent	absent	no	absent	1	2000
606492360e422d12dc63000e	681201	10.5	main	z	41	rectangle	global	LVF	yes	present	1	559
606492360e422d12dc63000e	682587	10.5	main	z	42	rectangle	local	RVF	yes	present	1	647
606492360e422d12dc63000e	683877	10.5	main	z	43	square	global	LVF	yes	present	1	573
606492360e422d12dc63000e	685256	10.5	main	z	44	rectangle	global	LVF	yes	present	1	619
606492360e422d12dc63000e	687985	10.5	main	z	45	absent	absent	absent	no	absent	1	2000
606492360e422d12dc63000e	689416	10.5	main	z	46	square	global	LVF	yes	present	1	534
606492360e422d12dc63000e	690837	10.5	main	z	47	rectangle	local	LVF	yes	present	1	676
606492360e422d12dc63000e	692117	10.5	main	z	48	square	global	RVF	yes	present	1	541
606492360e422d12dc63000e	693469	10.5	main	z	49	rectangle	global	RVF	yes	present	1	560
606492360e422d12dc63000e	694754	10.5	main	z	50	square	local	LVF	yes	present	1	564
606492360e422d12dc63000e	695978	10.5	main	z	51	rectangle	global	RVF	yes	present	1	489
606492360e422d12dc63000e	697253	10.5	main	z	52	rectangle	global	LVF	yes	present	1	515
606492360e422d12dc63000e	699985	10.5	main	z	53	absent	absent	absent	no	absent	1	2000
606492360e422d12dc63000e	702847	10.5	main	z	54	absent	absent	absent	no	absent	1	2000
606492360e422d12dc63000e	704408	10.5	main	z	55	square	local	RVF	yes	present	1	681
606492360e422d12dc63000e	705691	10.5	main	z	56	square	global	RVF	yes	present	1	582
606492360e422d12dc63000e	707091	10.5	main	z	57	square	local	RVF	yes	present	1	651
606492360e422d12dc63000e	708387	10.5	main	z	58	square	local	LVF	yes	present	1	598
606492360e422d12dc63000e	709662	10.5	main	z	59	square	local	RVF	yes	present	1	542
606492360e422d12dc63000e	711031	10.5	main	z	60	rectangle	local	RVF	yes	present	1	647
606492360e422d12dc63000e	712461	10.5	main	z	61	square	global	RVF	yes	present	1	662
606492360e422d12dc63000e	715198	10.5	main	z	62	absent	absent	absent	no	absent	1	2000
606492360e422d12dc63000e	716908	10.5	main	z	63	square	global	LVF	yes	present	1	581
606492360e422d12dc63000e	719625	10.5	main	z	64	absent	absent	absent	no	absent	1	2000
606492360e422d12dc63000e	721160	10.5	main	z	65	square	global	RVF	yes	present	1	589
606492360e422d12dc63000e	722519	10.5	main	z	66	square	local	RVF	yes	present	1	633
606492360e422d12dc63000e	723980	10.5	main	z	67	square	local	LVF	yes	present	1	746
606492360e422d12dc63000e	727231	10.5	main	z	68	rectangle	local	RVF	yes	absent	0	2000
606492360e422d12dc63000e	728653	10.5	main	z	69	rectangle	global	RVF	yes	present	1	543
606492360e422d12dc63000e	729851	10.5	main	z	70	square	global	LVF	yes	present	1	475
606492360e422d12dc63000e	731223	10.5	main	z	71	rectangle	local	LVF	yes	present	1	616
606492360e422d12dc63000e	732492	10.5	main	z	72	rectangle	local	LVF	yes	present	1	554
606492360e422d12dc63000e	733829	10.5	main	z	73	square	local	LVF	yes	present	1	593
606492360e422d12dc63000e	736552	10.5	main	z	74	absent	absent	absent	no	absent	1	2000
606492360e422d12dc63000e	737896	10.5	main	z	75	rectangle	global	LVF	yes	present	1	481
606492360e422d12dc63000e	739512	10.5	main	z	76	rectangle	local	LVF	yes	present	1	850
606492360e422d12dc63000e	742244	10.5	main	z	77	absent	absent	absent	no	absent	1	2000
606492360e422d12dc63000e	745211	10.5	main	z	78	rectangle	local	RVF	yes	present	1	789
606492360e422d12dc63000e	746415	10.5	main	z	79	rectangle	global	RVF	yes	present	1	478
606492360e422d12dc63000e	749151	10.5	main	z	80	absent	absent	absent	no	absent	1	2000
606492360e422d12dc63000e	766346	11.5	practice	slash	1	rectangle	local	RVF	yes	present	1	568
606492360e422d12dc63000e	769081	11.5	practice	slash	2	square	local	LVF	yes	present	1	703
606492360e422d12dc63000e	773105	11.5	practice	slash	3	absent	absent	absent	no	absent	1	2000
606492360e422d12dc63000e	775657	11.5	practice	slash	4	rectangle	global	LVF	yes	present	1	540
606492360e422d12dc63000e	778180	11.5	practice	slash	5	square	global	LVF	yes	present	1	601
606492360e422d12dc63000e	780786	11.5	practice	slash	6	square	global	RVF	yes	present	1	577
606492360e422d12dc63000e	783790	11.5	practice	slash	7	rectangle	global	LVF	yes	present	1	469
606492360e422d12dc63000e	786261	11.5	practice	slash	8	square	global	LVF	yes	present	1	443
606492360e422d12dc63000e	790264	11.5	practice	slash	9	absent	absent	absent	no	absent	1	2000
606492360e422d12dc63000e	792744	11.5	practice	slash	10	square	local	LVF	yes	present	1	551
606492360e422d12dc63000e	796890	11.5	practice	slash	11	rectangle	local	RVF	yes	absent	0	2000
606492360e422d12dc63000e	800950	11.5	practice	slash	12	absent	absent	absent	no	absent	1	2000
606492360e422d12dc63000e	803455	11.5	practice	slash	13	rectangle	global	RVF	yes	present	1	460
606492360e422d12dc63000e	805949	11.5	practice	slash	14	rectangle	global	RVF	yes	present	1	591
606492360e422d12dc63000e	808572	11.5	practice	slash	15	rectangle	local	RVF	yes	present	1	583
606492360e422d12dc63000e	812534	11.5	practice	slash	16	absent	absent	absent	no	absent	1	2000
606492360e422d12dc63000e	817069	12.5	main	slash	1	square	local	LVF	yes	present	1	1128
606492360e422d12dc63000e	818859	12.5	main	slash	2	square	local	RVF	yes	present	1	672
606492360e422d12dc63000e	820504	12.5	main	slash	3	square	local	RVF	yes	present	1	568
606492360e422d12dc63000e	821977	12.5	main	slash	4	square	local	LVF	yes	present	1	593
606492360e422d12dc63000e	824732	12.5	main	slash	5	absent	absent	absent	no	absent	1	2000
606492360e422d12dc63000e	826026	12.5	main	slash	6	square	global	LVF	yes	present	1	415
606492360e422d12dc63000e	828810	12.5	main	slash	7	absent	absent	absent	no	absent	1	2000
606492360e422d12dc63000e	830162	12.5	main	slash	8	rectangle	local	RVF	yes	present	1	454
606492360e422d12dc63000e	831391	12.5	main	slash	9	rectangle	global	LVF	yes	present	1	469
606492360e422d12dc63000e	832804	12.5	main	slash	10	rectangle	local	LVF	yes	present	1	685
606492360e422d12dc63000e	833998	12.5	main	slash	11	square	global	RVF	yes	present	1	465
606492360e422d12dc63000e	835312	12.5	main	slash	12	rectangle	local	LVF	yes	present	1	596
606492360e422d12dc63000e	838030	12.5	main	slash	13	absent	absent	absent	no	absent	1	2000
606492360e422d12dc63000e	839324	12.5	main	slash	14	rectangle	global	RVF	yes	present	1	364
606492360e422d12dc63000e	840653	12.5	main	slash	15	rectangle	global	RVF	yes	present	1	611
606492360e422d12dc63000e	843373	12.5	main	slash	16	absent	absent	absent	no	absent	1	2000
606492360e422d12dc63000e	846253	12.5	main	slash	17	absent	absent	absent	no	absent	1	2000
606492360e422d12dc63000e	847525	12.5	main	slash	18	square	global	RVF	yes	present	1	393
606492360e422d12dc63000e	848642	12.5	main	slash	19	rectangle	global	LVF	yes	present	1	395
606492360e422d12dc63000e	849764	12.5	main	slash	20	square	global	RVF	yes	present	1	418
606492360e422d12dc63000e	850884	12.5	main	slash	21	square	global	LVF	yes	present	1	422
606492360e422d12dc63000e	852016	12.5	main	slash	22	square	global	LVF	yes	present	1	408
606492360e422d12dc63000e	853086	12.5	main	slash	23	rectangle	global	LVF	yes	present	1	346
606492360e422d12dc63000e	854515	12.5	main	slash	24	rectangle	local	RVF	yes	present	1	708
606492360e422d12dc63000e	855666	12.5	main	slash	25	square	local	RVF	yes	present	1	429
606492360e422d12dc63000e	856869	12.5	main	slash	26	square	local	LVF	yes	present	1	500
606492360e422d12dc63000e	858004	12.5	main	slash	27	rectangle	global	RVF	yes	present	1	419
606492360e422d12dc63000e	859167	12.5	main	slash	28	rectangle	global	LVF	yes	present	1	434
606492360e422d12dc63000e	860364	12.5	main	slash	29	rectangle	local	LVF	yes	present	1	483
606492360e422d12dc63000e	862263	12.5	main	slash	30	square	global	LVF	yes	present	1	1183
606492360e422d12dc63000e	864943	12.5	main	slash	31	absent	absent	absent	no	absent	1	2000
606492360e422d12dc63000e	866548	12.5	main	slash	32	rectangle	local	LVF	yes	present	1	625
606492360e422d12dc63000e	867693	12.5	main	slash	33	square	global	RVF	yes	present	1	422
606492360e422d12dc63000e	870569	12.5	main	slash	34	absent	absent	absent	no	absent	1	2000
606492360e422d12dc63000e	871879	12.5	main	slash	35	rectangle	local	RVF	yes	present	1	414
606492360e422d12dc63000e	873192	12.5	main	slash	36	square	local	LVF	yes	present	1	561
606492360e422d12dc63000e	874337	12.5	main	slash	37	square	local	RVF	yes	present	1	409
606492360e422d12dc63000e	877077	12.5	main	slash	38	absent	absent	absent	no	absent	1	2000
606492360e422d12dc63000e	878517	12.5	main	slash	39	rectangle	global	RVF	yes	present	1	544
606492360e422d12dc63000e	879688	12.5	main	slash	40	rectangle	local	RVF	yes	present	1	433
606492360e422d12dc63000e	880815	12.5	main	slash	41	square	global	RVF	yes	present	1	412
606492360e422d12dc63000e	882034	12.5	main	slash	42	square	global	RVF	yes	present	1	481
606492360e422d12dc63000e	883285	12.5	main	slash	43	square	local	RVF	yes	present	1	535
606492360e422d12dc63000e	884549	12.5	main	slash	44	rectangle	global	RVF	yes	present	1	550
606492360e422d12dc63000e	885766	12.5	main	slash	45	rectangle	local	LVF	yes	present	1	469
606492360e422d12dc63000e	888495	12.5	main	slash	46	absent	absent	absent	no	absent	1	2000
606492360e422d12dc63000e	890261	12.5	main	slash	47	rectangle	global	LVF	yes	present	1	404
606492360e422d12dc63000e	891504	12.5	main	slash	48	square	local	LVF	yes	present	1	514
606492360e422d12dc63000e	892677	12.5	main	slash	49	rectangle	local	LVF	yes	present	1	472
606492360e422d12dc63000e	895403	12.5	main	slash	50	absent	absent	absent	no	absent	1	2000
606492360e422d12dc63000e	896744	12.5	main	slash	51	square	local	RVF	yes	present	1	445
606492360e422d12dc63000e	897936	12.5	main	slash	52	square	global	RVF	yes	present	1	423
606492360e422d12dc63000e	899123	12.5	main	slash	53	rectangle	local	RVF	yes	present	1	444
606492360e422d12dc63000e	901877	12.5	main	slash	54	absent	absent	absent	no	absent	1	2000
606492360e422d12dc63000e	903532	12.5	main	slash	55	square	global	LVF	yes	present	1	455
606492360e422d12dc63000e	904732	12.5	main	slash	56	square	local	RVF	yes	present	1	461
606492360e422d12dc63000e	906005	12.5	main	slash	57	rectangle	local	RVF	yes	present	1	535
606492360e422d12dc63000e	908751	12.5	main	slash	58	absent	absent	absent	no	absent	1	2000
606492360e422d12dc63000e	911829	12.5	main	slash	59	absent	absent	absent	no	absent	1	2000
606492360e422d12dc63000e	913822	12.5	main	slash	60	rectangle	local	LVF	yes	present	1	863
606492360e422d12dc63000e	914962	12.5	main	slash	61	rectangle	global	RVF	yes	present	1	405
606492360e422d12dc63000e	917721	12.5	main	slash	62	absent	absent	absent	no	absent	1	2000
606492360e422d12dc63000e	919233	12.5	main	slash	63	rectangle	global	LVF	yes	present	1	465
606492360e422d12dc63000e	920416	12.5	main	slash	64	rectangle	global	LVF	yes	present	1	433
606492360e422d12dc63000e	921615	12.5	main	slash	65	square	global	LVF	yes	present	1	451
606492360e422d12dc63000e	923173	12.5	main	slash	66	square	local	LVF	yes	present	1	844
606492360e422d12dc63000e	924384	12.5	main	slash	67	rectangle	local	LVF	yes	present	1	489
606492360e422d12dc63000e	925593	12.5	main	slash	68	square	global	LVF	yes	present	1	450
606492360e422d12dc63000e	926958	12.5	main	slash	69	rectangle	local	RVF	yes	present	1	634
606492360e422d12dc63000e	928357	12.5	main	slash	70	rectangle	global	RVF	yes	present	1	551
606492360e422d12dc63000e	929568	12.5	main	slash	71	square	local	LVF	yes	present	1	447
606492360e422d12dc63000e	930752	12.5	main	slash	72	square	global	LVF	yes	present	1	401
606492360e422d12dc63000e	932098	12.5	main	slash	73	square	local	LVF	yes	present	1	580
606492360e422d12dc63000e	934816	12.5	main	slash	74	absent	absent	absent	no	absent	1	2000
606492360e422d12dc63000e	936341	12.5	main	slash	75	square	local	RVF	yes	present	1	596
606492360e422d12dc63000e	938153	12.5	main	slash	76	square	global	RVF	yes	present	1	545
606492360e422d12dc63000e	940907	12.5	main	slash	77	absent	absent	absent	no	absent	1	2000
606492360e422d12dc63000e	942404	12.5	main	slash	78	rectangle	global	LVF	yes	present	1	434
606492360e422d12dc63000e	943638	12.5	main	slash	79	rectangle	local	RVF	yes	present	1	488
606492360e422d12dc63000e	944861	12.5	main	slash	80	rectangle	global	RVF	yes	present	1	478
