subject	time_elapsed_ms	blocknum	block_type	block_response	trialnum	target	level	field	target_present	response	correct	rt
6075ecc30e7921c183644eaa	719500	9.5	practice	z	1	rectangle	local	RVF	yes	present	1	1524
6075ecc30e7921c183644eaa	723889	9.5	practice	z	2	absent	absent	absent	no	absent	1	2000
6075ecc30e7921c183644eaa	727381	9.5	practice	z	3	rectangle	global	RVF	yes	present	1	561
6075ecc30e7921c183644eaa	731566	9.5	practice	z	4	absent	absent	absent	no	absent	1	2000
6075ecc30e7921c183644eaa	734269	9.5	practice	z	5	square	global	LVF	yes	present	1	508
6075ecc30e7921c183644eaa	736928	9.5	practice	z	6	rectangle	global	LVF	yes	present	1	520
6075ecc30e7921c183644eaa	740090	9.5	practice	z	7	square	local	LVF	yes	present	1	884
6075ecc30e7921c183644eaa	742940	9.5	practice	z	8	rectangle	global	RVF	yes	present	1	836
6075ecc30e7921c183644eaa	747034	9.5	practice	z	9	rectangle	local	RVF	yes	absent	0	2000
6075ecc30e7921c183644eaa	750150	9.5	practice	z	10	square	local	LVF	yes	present	1	903
6075ecc30e7921c183644eaa	753110	9.5	practice	z	11	square	global	RVF	yes	present	1	616
6075ecc30e7921c183644eaa	757375	9.5	practice	z	12	absent	absent	absent	no	absent	1	2000
6075ecc30e7921c183644eaa	760307	9.5	practice	z	13	rectangle	local	RVF	yes	present	1	770
6075ecc30e7921c183644eaa	764418	9.5	practice	z	14	absent	absent	absent	no	absent	1	2000
6075ecc30e7921c183644eaa	767343	9.5	practice	z	15	square	global	LVF	yes	present	1	663
6075ecc30e7921c183644eaa	770342	9.5	practice	z	16	rectangle	global	LVF	yes	present	1	697
6075ecc30e7921c183644eaa	779093	10.5	main	z	1	rectangle	local	LVF	yes	present	1	844
6075ecc30e7921c183644eaa	782345	10.5	main	z	2	rectangle	local	RVF	yes	present	1	815
6075ecc30e7921c183644eaa	784950	10.5	main	z	3	rectangle	global	LVF	yes	present	1	755
6075ecc30e7921c183644eaa	787660	10.5	main	z	4	square	global	LVF	yes	present	1	1000
6075ecc30e7921c183644eaa	791439	10.5	main	z	5	absent	absent	absent	no	absent	1	2000
6075ecc30e7921c183644eaa	793243	10.5	main	z	6	rectangle	global	LVF	yes	present	1	640
6075ecc30e7921c183644eaa	797068	10.5	main	z	7	absent	absent	absent	no	absent	1	2000
6075ecc30e7921c183644eaa	799223	10.5	main	z	8	absent	absent	absent	no	present	0	941
6075ecc30e7921c183644eaa	803179	10.5	main	z	9	absent	absent	absent	no	absent	1	2000
6075ecc30e7921c183644eaa	805427	10.5	main	z	10	square	global	LVF	yes	present	1	652
6075ecc30e7921c183644eaa	808235	10.5	main	z	11	rectangle	global	RVF	yes	present	1	813
6075ecc30e7921c183644eaa	810856	10.5	main	z	12	rectangle	global	RVF	yes	present	1	852
6075ecc30e7921c183644eaa	814418	10.5	main	z	13	absent	absent	absent	no	absent	1	2000
6075ecc30e7921c183644eaa	816470	10.5	main	z	14	square	global	RVF	yes	present	1	771
6075ecc30e7921c183644eaa	819234	10.5	main	z	15	square	local	RVF	yes	present	1	920
6075ecc30e7921c183644eaa	822218	10.5	main	z	16	square	local	RVF	yes	present	1	724
6075ecc30e7921c183644eaa	824941	10.5	main	z	17	square	local	LVF	yes	present	1	1149
6075ecc30e7921c183644eaa	827564	10.5	main	z	18	square	global	RVF	yes	present	1	809
6075ecc30e7921c183644eaa	829886	10.5	main	z	19	square	local	RVF	yes	present	1	799
6075ecc30e7921c183644eaa	832078	10.5	main	z	20	square	global	LVF	yes	present	1	710
6075ecc30e7921c183644eaa	834426	10.5	main	z	21	square	local	RVF	yes	present	1	893
6075ecc30e7921c183644eaa	836580	10.5	main	z	22	rectangle	global	LVF	yes	present	1	749
6075ecc30e7921c183644eaa	838740	10.5	main	z	23	square	global	LVF	yes	present	1	745
6075ecc30e7921c183644eaa	840800	10.5	main	z	24	square	local	LVF	yes	present	1	774
6075ecc30e7921c183644eaa	842770	10.5	main	z	25	rectangle	global	RVF	yes	present	1	762
6075ecc30e7921c183644eaa	844942	10.5	main	z	26	rectangle	local	RVF	yes	present	1	918
6075ecc30e7921c183644eaa	847147	10.5	main	z	27	square	global	RVF	yes	present	1	826
6075ecc30e7921c183644eaa	849259	10.5	main	z	28	rectangle	local	RVF	yes	present	1	806
6075ecc30e7921c183644eaa	851412	10.5	main	z	29	rectangle	global	LVF	yes	present	1	845
6075ecc30e7921c183644eaa	853438	10.5	main	z	30	square	local	LVF	yes	present	1	757
6075ecc30e7921c183644eaa	855496	10.5	main	z	31	rectangle	local	LVF	yes	present	1	817
6075ecc30e7921c183644eaa	857526	10.5	main	z	32	rectangle	global	RVF	yes	present	1	814
6075ecc30e7921c183644eaa	859664	10.5	main	z	33	square	local	LVF	yes	present	1	854
6075ecc30e7921c183644eaa	862858	10.5	main	z	34	absent	absent	absent	no	absent	1	2000
6075ecc30e7921c183644eaa	866171	10.5	main	z	35	absent	absent	absent	no	absent	1	2000
6075ecc30e7921c183644eaa	868080	10.5	main	z	36	square	global	RVF	yes	present	1	611
6075ecc30e7921c183644eaa	871733	10.5	main	z	37	absent	absent	absent	no	absent	1	2000
6075ecc30e7921c183644eaa	873531	10.5	main	z	38	rectangle	local	LVF	yes	present	1	735
6075ecc30e7921c183644eaa	877028	10.5	main	z	39	rectangle	local	LVF	yes	absent	0	2000
6075ecc30e7921c183644eaa	879006	10.5	main	z	40	rectangle	local	RVF	yes	present	1	864
6075ecc30e7921c183644eaa	881359	10.5	main	z	41	square	global	RVF	yes	present	1	852
6075ecc30e7921c183644eaa	883623	10.5	main	z	42	rectangle	local	LVF	yes	present	1	769
6075ecc30e7921c183644eaa	885733	10.5	main	z	43	square	local	LVF	yes	present	1	847
6075ecc30e7921c183644eaa	889018	10.5	main	z	44	absent	absent	absent	no	absent	1	2000
6075ecc30e7921c183644eaa	891101	10.5	main	z	45	rectangle	local	RVF	yes	present	1	754
6075ecc30e7921c183644eaa	893446	10.5	main	z	46	rectangle	global	LVF	yes	present	1	801
6075ecc30e7921c183644eaa	895676	10.5	main	z	47	square	local	LVF	yes	present	1	834
6075ecc30e7921c183644eaa	898003	10.5	main	z	48	rectangle	local	RVF	yes	present	1	829
6075ecc30e7921c183644eaa	900174	10.5	main	z	49	rectangle	local	RVF	yes	present	1	818
6075ecc30e7921c183644eaa	902337	10.5	main	z	50	square	global	RVF	yes	present	1	783
6075ecc30e7921c183644eaa	904401	10.5	main	z	51	rectangle	global	RVF	yes	present	1	783
6075ecc30e7921c183644eaa	906512	10.5	main	z	52	rectangle	global	RVF	yes	present	1	779
6075ecc30e7921c183644eaa	908543	10.5	main	z	53	square	global	LVF	yes	present	1	794
6075ecc30e7921c183644eaa	910612	10.5	main	z	54	square	global	LVF	yes	present	1	883
6075ecc30e7921c183644eaa	912674	10.5	main	z	55	rectangle	global	RVF	yes	present	1	814
6075ecc30e7921c183644eaa	914661	10.5	main	z	56	rectangle	global	LVF	yes	present	1	769
6075ecc30e7921c183644eaa	916596	10.5	main	z	57	rectangle	global	LVF	yes	present	1	688
6075ecc30e7921c183644eaa	918586	10.5	main	z	58	square	global	LVF	yes	present	1	781
6075ecc30e7921c183644eaa	920849	10.5	main	z	59	square	global	RVF	yes	present	1	1129
6075ecc30e7921c183644eaa	924085	10.5	main	z	60	absent	absent	absent	no	absent	1	2000
6075ecc30e7921c183644eaa	926088	10.5	main	z	61	square	local	RVF	yes	present	1	773
6075ecc30e7921c183644eaa	928207	10.5	main	z	62	square	local	LVF	yes	present	1	828
6075ecc30e7921c183644eaa	930279	10.5	main	z	63	rectangle	global	RVF	yes	present	1	885
6075ecc30e7921c183644eaa	932253	10.5	main	z	64	rectangle	local	RVF	yes	present	1	862
6075ecc30e7921c183644eaa	934108	10.5	main	z	65	rectangle	local	LVF	yes	present	1	751
6075ecc30e7921c183644eaa	935963	10.5	main	z	66	square	local	RVF	yes	present	1	723
6075ecc30e7921c183644eaa	937840	10.5	main	z	67	square	local	RVF	yes	present	1	802
6075ecc30e7921c183644eaa	939703	10.5	main	z	68	square	local	RVF	yes	present	1	768
6075ecc30e7921c183644eaa	942785	10.5	main	z	69	absent	absent	absent	no	absent	1	2000
6075ecc30e7921c183644eaa	944700	10.5	main	z	70	square	global	RVF	yes	present	1	751
6075ecc30e7921c183644eaa	946616	10.5	main	z	71	rectangle	local	LVF	yes	present	1	720
6075ecc30e7921c183644eaa	948546	10.5	main	z	72	square	global	LVF	yes	present	1	852
6075ecc30e7921c183644eaa	950404	10.5	main	z	73	rectangle	global	LVF	yes	present	1	794
6075ecc30e7921c183644eaa	952215	10.5	main	z	74	square	local	LVF	yes	present	1	725
6075ecc30e7921c183644eaa	955289	10.5	main	z	75	absent	absent	absent	no	absent	1	2000
6075ecc30e7921c183644eaa	959069	10.5	main	z	76	absent	absent	absent	no	absent	1	2000
6075ecc30e7921c183644eaa	962217	10.5	main	z	77	absent	absent	absent	no	absent	1	2000
6075ecc30e7921c183644eaa	965197	10.5	main	z	78	absent	absent	absent	no	absent	1	2000
6075ecc30e7921c183644eaa	968243	10.5	main	z	79	absent	absent	absent	no	absent	1	2000
6075ecc30e7921c183644eaa	970017	10.5	main	z	80	rectangle	local	LVF	yes	present	1	744
6075ecc30e7921c183644eaa	997286	11.5	practice	slash	1	absent	absent	absent	no	present	0	933
6075ecc30e7921c183644eaa	1001601	11.5	practice	slash	2	absent	absent	absent	no	absent	1	2000
6075ecc30e7921c183644eaa	1004310	11.5	practice	slash	3	rectangle	local	RVF	yes	present	1	663
6075ecc30e7921c183644eaa	1008311	11.5	practice	slash	4	absent	absent	absent	no	absent	1	2000
6075ecc30e7921c183644eaa	1010970	11.5	practice	slash	5	square	local	LVF	yes	present	1	681
6075ecc30e7921c183644eaa	1013981	11.5	practice	slash	6	square	local	LVF	yes	present	1	810
6075ecc30e7921c183644eaa	1016811	11.5	practice	slash	7	square	global	LVF	yes	present	1	776
6075ecc30e7921c183644eaa	1019511	11.5	practice	slash	8	rectangle	global	RVF	yes	present	1	746
6075ecc30e7921c183644eaa	1022259	11.5	practice	slash	9	rectangle	local	RVF	yes	present	1	762
6075ecc30e7921c183644eaa	1025153	11.5	practice	slash	10	rectangle	global	LVF	yes	present	1	760
6075ecc30e7921c183644eaa	1029125	11.5	practice	slash	11	absent	absent	absent	no	absent	1	2000
6075ecc30e7921c183644eaa	1031823	11.5	practice	slash	12	rectangle	global	LVF	yes	present	1	735
6075ecc30e7921c183644eaa	1035285	11.5	practice	slash	13	rectangle	local	RVF	yes	present	1	749
6075ecc30e7921c183644eaa	1038243	11.5	practice	slash	14	rectangle	global	RVF	yes	present	1	743
6075ecc30e7921c183644eaa	1041175	11.5	practice	slash	15	square	global	LVF	yes	present	1	746
6075ecc30e7921c183644eaa	1043818	11.5	practice	slash	16	square	global	RVF	yes	present	1	658
6075ecc30e7921c183644eaa	1051845	12.5	main	slash	1	rectangle	global	LVF	yes	present	1	496
6075ecc30e7921c183644eaa	1053973	12.5	main	slash	2	square	global	LVF	yes	present	1	625
6075ecc30e7921c183644eaa	1056048	12.5	main	slash	3	rectangle	local	LVF	yes	present	1	670
6075ecc30e7921c183644eaa	1058099	12.5	main	slash	4	square	global	LVF	yes	present	1	689
6075ecc30e7921c183644eaa	1059860	12.5	main	slash	5	square	global	RVF	yes	present	1	603
6075ecc30e7921c183644eaa	1061677	12.5	main	slash	6	rectangle	local	LVF	yes	present	1	669
6075ecc30e7921c183644eaa	1063574	12.5	main	slash	7	rectangle	local	LVF	yes	present	1	718
6075ecc30e7921c183644eaa	1066804	12.5	main	slash	8	absent	absent	absent	no	absent	1	2000
6075ecc30e7921c183644eaa	1068557	12.5	main	slash	9	square	local	RVF	yes	present	1	706
6075ecc30e7921c183644eaa	1070572	12.5	main	slash	10	square	local	RVF	yes	present	1	724
6075ecc30e7921c183644eaa	1073748	12.5	main	slash	11	absent	absent	absent	no	absent	1	2000
6075ecc30e7921c183644eaa	1075577	12.5	main	slash	12	rectangle	local	RVF	yes	present	1	766
6075ecc30e7921c183644eaa	1078860	12.5	main	slash	13	absent	absent	absent	no	absent	1	2000
6075ecc30e7921c183644eaa	1080676	12.5	main	slash	14	rectangle	global	RVF	yes	present	1	654
6075ecc30e7921c183644eaa	1082690	12.5	main	slash	15	square	global	LVF	yes	present	1	819
6075ecc30e7921c183644eaa	1084548	12.5	main	slash	16	rectangle	global	RVF	yes	present	1	712
6075ecc30e7921c183644eaa	1086404	12.5	main	slash	17	rectangle	local	RVF	yes	present	1	753
6075ecc30e7921c183644eaa	1089499	12.5	main	slash	18	absent	absent	absent	no	absent	1	2000
6075ecc30e7921c183644eaa	1091507	12.5	main	slash	19	square	local	RVF	yes	present	1	778
6075ecc30e7921c183644eaa	1093262	12.5	main	slash	20	square	global	RVF	yes	present	1	616
6075ecc30e7921c183644eaa	1096359	12.5	main	slash	21	absent	absent	absent	no	absent	1	2000
6075ecc30e7921c183644eaa	1098137	12.5	main	slash	22	rectangle	local	RVF	yes	present	1	580
6075ecc30e7921c183644eaa	1099865	12.5	main	slash	23	rectangle	global	RVF	yes	present	1	576
6075ecc30e7921c183644eaa	1101529	12.5	main	slash	24	square	local	LVF	yes	present	1	576
6075ecc30e7921c183644eaa	1103187	12.5	main	slash	25	rectangle	global	LVF	yes	present	1	552
6075ecc30e7921c183644eaa	1104813	12.5	main	slash	26	square	global	RVF	yes	present	1	529
6075ecc30e7921c183644eaa	1106570	12.5	main	slash	27	square	local	LVF	yes	present	1	671
6075ecc30e7921c183644eaa	1108273	12.5	main	slash	28	square	global	RVF	yes	present	1	575
6075ecc30e7921c183644eaa	1111496	12.5	main	slash	29	absent	absent	absent	no	absent	1	2000
6075ecc30e7921c183644eaa	1113194	12.5	main	slash	30	rectangle	global	RVF	yes	present	1	617
6075ecc30e7921c183644eaa	1114890	12.5	main	slash	31	rectangle	global	LVF	yes	present	1	615
6075ecc30e7921c183644eaa	1116468	12.5	main	slash	32	square	local	RVF	yes	present	1	529
6075ecc30e7921c183644eaa	1119538	12.5	main	slash	33	absent	absent	absent	no	absent	1	2000
6075ecc30e7921c183644eaa	1121329	12.5	main	slash	34	rectangle	global	LVF	yes	present	1	527
6075ecc30e7921c183644eaa	1122938	12.5	main	slash	35	square	local	LVF	yes	present	1	488
6075ecc30e7921c183644eaa	1124513	12.5	main	slash	36	rectangle	local	RVF	yes	present	1	498
6075ecc30e7921c183644eaa	1126017	12.5	main	slash	37	square	local	LVF	yes	present	1	436
6075ecc30e7921c183644eaa	1129196	12.5	main	slash	38	absent	absent	absent	no	absent	1	2000
6075ecc30e7921c183644eaa	1130947	12.5	main	slash	39	square	global	LVF	yes	present	1	554
6075ecc30e7921c183644eaa	1132602	12.5	main	slash	40	rectangle	local	LVF	yes	present	1	511
6075ecc30e7921c183644eaa	1135690	12.5	main	slash	41	absent	absent	absent	no	absent	1	2000
6075ecc30e7921c183644eaa	1137399	12.5	main	slash	42	rectangle	local	LVF	yes	present	1	544
6075ecc30e7921c183644eaa	1139012	12.5	main	slash	43	rectangle	global	RVF	yes	present	1	544
6075ecc30e7921c183644eaa	1142068	12.5	main	slash	44	absent	absent	absent	no	absent	1	2000
6075ecc30e7921c183644eaa	1143672	12.5	main	slash	45	square	local	RVF	yes	present	1	475
6075ecc30e7921c183644eaa	1145202	12.5	main	slash	46	square	local	LVF	yes	present	1	471
6075ecc30e7921c183644eaa	1146701	12.5	main	slash	47	rectangle	local	RVF	yes	present	1	438
6075ecc30e7921c183644eaa	1148169	12.5	main	slash	48	rectangle	global	RVF	yes	present	1	367
6075ecc30e7921c183644eaa	1150037	12.5	main	slash	49	rectangle	local	LVF	yes	present	1	728
6075ecc30e7921c183644eaa	1153158	12.5	main	slash	50	absent	absent	absent	no	absent	1	2000
6075ecc30e7921c183644eaa	1154714	12.5	main	slash	51	square	local	RVF	yes	present	1	443
6075ecc30e7921c183644eaa	1156232	12.5	main	slash	52	square	global	RVF	yes	present	1	397
6075ecc30e7921c183644eaa	1159336	12.5	main	slash	53	absent	absent	absent	no	absent	1	2000
6075ecc30e7921c183644eaa	1160877	12.5	main	slash	54	rectangle	global	LVF	yes	present	1	445
6075ecc30e7921c183644eaa	1163965	12.5	main	slash	55	absent	absent	absent	no	absent	1	2000
6075ecc30e7921c183644eaa	1165654	12.5	main	slash	56	rectangle	global	LVF	yes	present	1	527
6075ecc30e7921c183644eaa	1167091	12.5	main	slash	57	rectangle	global	LVF	yes	present	1	398
6075ecc30e7921c183644eaa	1170158	12.5	main	slash	58	absent	absent	absent	no	absent	1	2000
6075ecc30e7921c183644eaa	1171744	12.5	main	slash	59	square	global	RVF	yes	present	1	522
6075ecc30e7921c183644eaa	1173296	12.5	main	slash	60	square	local	LVF	yes	present	1	525
6075ecc30e7921c183644eaa	1174880	12.5	main	slash	61	square	global	LVF	yes	present	1	576
6075ecc30e7921c183644eaa	1176433	12.5	main	slash	62	rectangle	local	RVF	yes	present	1	499
6075ecc30e7921c183644eaa	1178300	12.5	main	slash	63	square	local	LVF	yes	present	1	484
6075ecc30e7921c183644eaa	1179916	12.5	main	slash	64	absent	absent	absent	no	present	0	584
6075ecc30e7921c183644eaa	1181819	12.5	main	slash	65	rectangle	local	LVF	yes	present	1	722
6075ecc30e7921c183644eaa	1183641	12.5	main	slash	66	square	global	RVF	yes	present	1	712
6075ecc30e7921c183644eaa	1185201	12.5	main	slash	67	square	local	RVF	yes	present	1	526
6075ecc30e7921c183644eaa	1186897	12.5	main	slash	68	rectangle	global	RVF	yes	present	1	588
6075ecc30e7921c183644eaa	1188496	12.5	main	slash	69	square	global	LVF	yes	present	1	606
6075ecc30e7921c183644eaa	1190219	12.5	main	slash	70	square	local	RVF	yes	present	1	663
6075ecc30e7921c183644eaa	1193270	12.5	main	slash	71	absent	absent	absent	no	absent	1	2000
6075ecc30e7921c183644eaa	1195061	12.5	main	slash	72	rectangle	local	RVF	yes	present	1	544
6075ecc30e7921c183644eaa	1196642	12.5	main	slash	73	square	local	LVF	yes	present	1	544
6075ecc30e7921c183644eaa	1198877	12.5	main	slash	74	rectangle	local	RVF	yes	present	1	1213
6075ecc30e7921c183644eaa	1200506	12.5	main	slash	75	rectangle	local	LVF	yes	present	1	544
6075ecc30e7921c183644eaa	1202224	12.5	main	slash	76	square	global	LVF	yes	present	1	563
6075ecc30e7921c183644eaa	1205259	12.5	main	slash	77	rectangle	global	LVF	yes	absent	0	2000
6075ecc30e7921c183644eaa	1207014	12.5	main	slash	78	rectangle	global	RVF	yes	present	1	457
6075ecc30e7921c183644eaa	1208695	12.5	main	slash	79	square	global	RVF	yes	present	1	507
6075ecc30e7921c183644eaa	1210229	12.5	main	slash	80	square	global	LVF	yes	present	1	492
