subject	time_elapsed_ms	blocknum	block_type	block_response	trialnum	target	level	field	target_present	response	correct	rt
632c0075227e9b734c80424d	806530	9.5	practice	slash	1	rectangle	local	RVF	yes	absent	0	2000
632c0075227e9b734c80424d	812777	9.5	practice	slash	2	absent	absent	absent	no	present	0	1004
632c0075227e9b734c80424d	818082	9.5	practice	slash	3	square	local	LVF	yes	present	1	1463
632c0075227e9b734c80424d	823916	9.5	practice	slash	4	square	global	LVF	yes	present	1	916
632c0075227e9b734c80424d	828224	9.5	practice	slash	5	absent	absent	absent	no	present	0	923
632c0075227e9b734c80424d	837989	9.5	practice	slash	6	square	local	LVF	yes	present	1	1178
632c0075227e9b734c80424d	842795	9.5	practice	slash	7	absent	absent	absent	no	absent	1	2000
632c0075227e9b734c80424d	846666	9.5	practice	slash	8	rectangle	global	RVF	yes	present	1	1017
632c0075227e9b734c80424d	851107	9.5	practice	slash	9	rectangle	global	LVF	yes	present	1	753
632c0075227e9b734c80424d	854410	9.5	practice	slash	10	rectangle	global	LVF	yes	present	1	1056
632c0075227e9b734c80424d	857921	9.5	practice	slash	11	square	global	RVF	yes	present	1	815
632c0075227e9b734c80424d	862042	9.5	practice	slash	12	rectangle	local	RVF	yes	absent	0	2000
632c0075227e9b734c80424d	865847	9.5	practice	slash	13	absent	absent	absent	no	absent	1	2000
632c0075227e9b734c80424d	868901	9.5	practice	slash	14	square	global	LVF	yes	present	1	1033
632c0075227e9b734c80424d	871874	9.5	practice	slash	15	rectangle	global	RVF	yes	present	1	723
632c0075227e9b734c80424d	875420	9.5	practice	slash	16	rectangle	local	RVF	yes	present	1	1407
632c0075227e9b734c80424d	887749	10.5	main	slash	1	square	local	LVF	yes	present	1	899
632c0075227e9b734c80424d	891663	10.5	main	slash	2	absent	absent	absent	no	absent	1	2000
632c0075227e9b734c80424d	894574	10.5	main	slash	3	absent	absent	absent	no	present	0	1586
632c0075227e9b734c80424d	898312	10.5	main	slash	4	absent	absent	absent	no	absent	1	2000
632c0075227e9b734c80424d	901923	10.5	main	slash	5	rectangle	local	RVF	yes	present	1	1966
632c0075227e9b734c80424d	904295	10.5	main	slash	6	square	global	RVF	yes	present	1	798
632c0075227e9b734c80424d	906323	10.5	main	slash	7	rectangle	global	RVF	yes	present	1	620
632c0075227e9b734c80424d	909651	10.5	main	slash	8	absent	absent	absent	no	absent	1	2000
632c0075227e9b734c80424d	911299	10.5	main	slash	9	rectangle	global	LVF	yes	present	1	575
632c0075227e9b734c80424d	914447	10.5	main	slash	10	rectangle	local	RVF	yes	absent	0	2000
632c0075227e9b734c80424d	917833	10.5	main	slash	11	absent	absent	absent	no	absent	1	2000
632c0075227e9b734c80424d	919843	10.5	main	slash	12	rectangle	global	LVF	yes	present	1	689
632c0075227e9b734c80424d	921464	10.5	main	slash	13	square	global	LVF	yes	present	1	536
632c0075227e9b734c80424d	924479	10.5	main	slash	14	square	local	LVF	yes	absent	0	2000
632c0075227e9b734c80424d	926841	10.5	main	slash	15	square	local	LVF	yes	present	1	1192
632c0075227e9b734c80424d	929201	10.5	main	slash	16	rectangle	global	LVF	yes	present	1	609
632c0075227e9b734c80424d	931497	10.5	main	slash	17	rectangle	global	RVF	yes	present	1	611
632c0075227e9b734c80424d	933687	10.5	main	slash	18	square	global	RVF	yes	present	1	685
632c0075227e9b734c80424d	935601	10.5	main	slash	19	rectangle	local	LVF	yes	present	1	838
632c0075227e9b734c80424d	938123	10.5	main	slash	20	square	global	LVF	yes	present	1	747
632c0075227e9b734c80424d	941496	10.5	main	slash	21	absent	absent	absent	no	absent	1	2000
632c0075227e9b734c80424d	943162	10.5	main	slash	22	rectangle	global	LVF	yes	present	1	616
632c0075227e9b734c80424d	948616	10.5	main	slash	23	square	local	LVF	yes	absent	0	2000
632c0075227e9b734c80424d	950219	10.5	main	slash	24	square	global	RVF	yes	present	1	534
632c0075227e9b734c80424d	951937	10.5	main	slash	25	rectangle	global	RVF	yes	present	1	469
632c0075227e9b734c80424d	955329	10.5	main	slash	26	square	local	RVF	yes	absent	0	2000
632c0075227e9b734c80424d	957336	10.5	main	slash	27	square	global	RVF	yes	present	1	466
632c0075227e9b734c80424d	960736	10.5	main	slash	28	rectangle	local	LVF	yes	absent	0	2000
632c0075227e9b734c80424d	962196	10.5	main	slash	29	square	global	LVF	yes	present	1	551
632c0075227e9b734c80424d	965483	10.5	main	slash	30	rectangle	local	RVF	yes	absent	0	2000
632c0075227e9b734c80424d	968692	10.5	main	slash	31	square	local	RVF	yes	absent	0	2000
632c0075227e9b734c80424d	971760	10.5	main	slash	32	rectangle	local	LVF	yes	absent	0	2000
632c0075227e9b734c80424d	973421	10.5	main	slash	33	square	global	LVF	yes	present	1	666
632c0075227e9b734c80424d	976470	10.5	main	slash	34	rectangle	local	RVF	yes	absent	0	2000
632c0075227e9b734c80424d	979459	10.5	main	slash	35	rectangle	local	LVF	yes	absent	0	2000
632c0075227e9b734c80424d	982444	10.5	main	slash	36	absent	absent	absent	no	absent	1	2000
632c0075227e9b734c80424d	985280	10.5	main	slash	37	square	local	RVF	yes	absent	0	2000
632c0075227e9b734c80424d	988248	10.5	main	slash	38	absent	absent	absent	no	absent	1	2000
632c0075227e9b734c80424d	990993	10.5	main	slash	39	square	local	RVF	yes	absent	0	2000
632c0075227e9b734c80424d	992988	10.5	main	slash	40	rectangle	global	RVF	yes	present	1	1045
632c0075227e9b734c80424d	995048	10.5	main	slash	41	rectangle	global	RVF	yes	present	1	709
632c0075227e9b734c80424d	996981	10.5	main	slash	42	rectangle	global	LVF	yes	present	1	644
632c0075227e9b734c80424d	1000287	10.5	main	slash	43	absent	absent	absent	no	absent	1	2000
632c0075227e9b734c80424d	1003229	10.5	main	slash	44	square	local	LVF	yes	absent	0	2000
632c0075227e9b734c80424d	1006358	10.5	main	slash	45	absent	absent	absent	no	absent	1	2000
632c0075227e9b734c80424d	1009311	10.5	main	slash	46	rectangle	local	RVF	yes	absent	0	2000
632c0075227e9b734c80424d	1011625	10.5	main	slash	47	rectangle	local	LVF	yes	present	1	1131
632c0075227e9b734c80424d	1015188	10.5	main	slash	48	rectangle	local	RVF	yes	absent	0	2000
632c0075227e9b734c80424d	1017037	10.5	main	slash	49	square	global	LVF	yes	present	1	852
632c0075227e9b734c80424d	1018793	10.5	main	slash	50	square	global	RVF	yes	present	1	493
632c0075227e9b734c80424d	1020534	10.5	main	slash	51	rectangle	global	LVF	yes	present	1	544
632c0075227e9b734c80424d	1022214	10.5	main	slash	52	rectangle	global	LVF	yes	present	1	431
632c0075227e9b734c80424d	1025425	10.5	main	slash	53	square	local	LVF	yes	absent	0	2000
632c0075227e9b734c80424d	1027117	10.5	main	slash	54	rectangle	global	RVF	yes	present	1	557
632c0075227e9b734c80424d	1030572	10.5	main	slash	55	square	local	RVF	yes	absent	0	2000
632c0075227e9b734c80424d	1034037	10.5	main	slash	56	absent	absent	absent	no	absent	1	2000
632c0075227e9b734c80424d	1035749	10.5	main	slash	57	rectangle	global	RVF	yes	present	1	591
632c0075227e9b734c80424d	1039275	10.5	main	slash	58	rectangle	local	LVF	yes	absent	0	2000
632c0075227e9b734c80424d	1042695	10.5	main	slash	59	rectangle	local	RVF	yes	absent	0	2000
632c0075227e9b734c80424d	1045720	10.5	main	slash	60	square	local	RVF	yes	absent	0	2000
632c0075227e9b734c80424d	1048869	10.5	main	slash	61	square	local	LVF	yes	absent	0	2000
632c0075227e9b734c80424d	1051852	10.5	main	slash	62	absent	absent	absent	no	absent	1	2000
632c0075227e9b734c80424d	1054826	10.5	main	slash	63	absent	absent	absent	no	absent	1	2000
632c0075227e9b734c80424d	1056788	10.5	main	slash	64	square	global	RVF	yes	present	1	1133
632c0075227e9b734c80424d	1060034	10.5	main	slash	65	square	local	RVF	yes	absent	0	2000
632c0075227e9b734c80424d	1064665	10.5	main	slash	66	square	global	LVF	yes	present	1	511
632c0075227e9b734c80424d	1066396	10.5	main	slash	67	square	global	RVF	yes	present	1	534
632c0075227e9b734c80424d	1069400	10.5	main	slash	68	absent	absent	absent	no	absent	1	2000
632c0075227e9b734c80424d	1070978	10.5	main	slash	69	square	global	LVF	yes	present	1	510
632c0075227e9b734c80424d	1072541	10.5	main	slash	70	rectangle	global	RVF	yes	present	1	514
632c0075227e9b734c80424d	1075572	10.5	main	slash	71	rectangle	local	RVF	yes	absent	0	2000
632c0075227e9b734c80424d	1078808	10.5	main	slash	72	rectangle	local	LVF	yes	absent	0	2000
632c0075227e9b734c80424d	1082111	10.5	main	slash	73	square	local	RVF	yes	absent	0	2000
632c0075227e9b734c80424d	1083816	10.5	main	slash	74	square	global	RVF	yes	present	1	619
632c0075227e9b734c80424d	1086073	10.5	main	slash	75	square	global	LVF	yes	present	1	758
632c0075227e9b734c80424d	1089550	10.5	main	slash	76	square	local	LVF	yes	absent	0	2000
632c0075227e9b734c80424d	1092720	10.5	main	slash	77	rectangle	local	LVF	yes	absent	0	2000
632c0075227e9b734c80424d	1094321	10.5	main	slash	78	rectangle	global	LVF	yes	present	1	465
632c0075227e9b734c80424d	1097874	10.5	main	slash	79	absent	absent	absent	no	absent	1	2000
632c0075227e9b734c80424d	1101040	10.5	main	slash	80	absent	absent	absent	no	absent	1	2000
632c0075227e9b734c80424d	1122280	11.5	practice	z	1	square	local	LVF	yes	absent	0	2000
632c0075227e9b734c80424d	1125261	11.5	practice	z	2	rectangle	global	RVF	yes	present	1	463
632c0075227e9b734c80424d	1127851	11.5	practice	z	3	square	global	LVF	yes	present	1	421
632c0075227e9b734c80424d	1131909	11.5	practice	z	4	rectangle	local	RVF	yes	absent	0	2000
632c0075227e9b734c80424d	1134704	11.5	practice	z	5	absent	absent	absent	no	present	0	446
632c0075227e9b734c80424d	1138874	11.5	practice	z	6	absent	absent	absent	no	absent	1	2000
632c0075227e9b734c80424d	1142954	11.5	practice	z	7	rectangle	local	RVF	yes	absent	0	2000
632c0075227e9b734c80424d	1147900	11.5	practice	z	8	absent	absent	absent	no	absent	1	2000
632c0075227e9b734c80424d	1150587	11.5	practice	z	9	square	global	RVF	yes	present	1	682
632c0075227e9b734c80424d	1154709	11.5	practice	z	10	absent	absent	absent	no	absent	1	2000
632c0075227e9b734c80424d	1157745	11.5	practice	z	11	rectangle	local	RVF	yes	present	1	911
632c0075227e9b734c80424d	1160396	11.5	practice	z	12	rectangle	global	LVF	yes	present	1	616
632c0075227e9b734c80424d	1162935	11.5	practice	z	13	square	global	LVF	yes	present	1	500
632c0075227e9b734c80424d	1167022	11.5	practice	z	14	square	local	LVF	yes	absent	0	2000
632c0075227e9b734c80424d	1169752	11.5	practice	z	15	rectangle	global	RVF	yes	present	1	736
632c0075227e9b734c80424d	1172338	11.5	practice	z	16	rectangle	global	LVF	yes	present	1	867
632c0075227e9b734c80424d	1179900	12.5	main	z	1	absent	absent	absent	no	absent	1	2000
632c0075227e9b734c80424d	1182466	12.5	main	z	2	rectangle	global	LVF	yes	present	1	570
632c0075227e9b734c80424d	1185631	12.5	main	z	3	rectangle	local	LVF	yes	present	1	1370
632c0075227e9b734c80424d	1190220	12.5	main	z	4	absent	absent	absent	no	absent	1	2000
632c0075227e9b734c80424d	1191850	12.5	main	z	5	rectangle	global	RVF	yes	present	1	565
632c0075227e9b734c80424d	1193988	12.5	main	z	6	square	global	RVF	yes	present	1	699
632c0075227e9b734c80424d	1195807	12.5	main	z	7	square	global	LVF	yes	present	1	571
632c0075227e9b734c80424d	1197357	12.5	main	z	8	square	global	RVF	yes	present	1	489
632c0075227e9b734c80424d	1198907	12.5	main	z	9	square	global	LVF	yes	present	1	482
632c0075227e9b734c80424d	1200616	12.5	main	z	10	rectangle	global	RVF	yes	present	1	468
632c0075227e9b734c80424d	1203606	12.5	main	z	11	square	local	RVF	yes	absent	0	2000
632c0075227e9b734c80424d	1205092	12.5	main	z	12	rectangle	global	LVF	yes	present	1	527
632c0075227e9b734c80424d	1206660	12.5	main	z	13	square	global	LVF	yes	present	1	411
632c0075227e9b734c80424d	1208289	12.5	main	z	14	square	local	LVF	yes	present	1	374
632c0075227e9b734c80424d	1210203	12.5	main	z	15	absent	absent	absent	no	present	0	603
632c0075227e9b734c80424d	1213413	12.5	main	z	16	rectangle	local	LVF	yes	absent	0	2000
632c0075227e9b734c80424d	1217250	12.5	main	z	17	rectangle	local	RVF	yes	absent	0	2000
632c0075227e9b734c80424d	1220320	12.5	main	z	18	square	local	RVF	yes	absent	0	2000
632c0075227e9b734c80424d	1223095	12.5	main	z	19	absent	absent	absent	no	absent	1	2000
632c0075227e9b734c80424d	1226298	12.5	main	z	20	rectangle	local	LVF	yes	absent	0	2000
632c0075227e9b734c80424d	1229510	12.5	main	z	21	rectangle	local	RVF	yes	absent	0	2000
632c0075227e9b734c80424d	1232624	12.5	main	z	22	rectangle	global	LVF	yes	absent	0	2000
632c0075227e9b734c80424d	1235761	12.5	main	z	23	square	local	RVF	yes	absent	0	2000
632c0075227e9b734c80424d	1239209	12.5	main	z	24	square	local	RVF	yes	absent	0	2000
632c0075227e9b734c80424d	1243928	12.5	main	z	25	absent	absent	absent	no	absent	1	2000
632c0075227e9b734c80424d	1246168	12.5	main	z	26	rectangle	global	RVF	yes	present	1	602
632c0075227e9b734c80424d	1249238	12.5	main	z	27	rectangle	local	LVF	yes	absent	0	2000
632c0075227e9b734c80424d	1251492	12.5	main	z	28	absent	absent	absent	no	present	0	994
632c0075227e9b734c80424d	1253329	12.5	main	z	29	rectangle	global	LVF	yes	present	1	724
632c0075227e9b734c80424d	1254905	12.5	main	z	30	square	global	RVF	yes	present	1	615
632c0075227e9b734c80424d	1257924	12.5	main	z	31	square	local	LVF	yes	absent	0	2000
632c0075227e9b734c80424d	1261088	12.5	main	z	32	absent	absent	absent	no	absent	1	2000
632c0075227e9b734c80424d	1264096	12.5	main	z	33	rectangle	local	RVF	yes	absent	0	2000
632c0075227e9b734c80424d	1266973	12.5	main	z	34	rectangle	global	RVF	yes	present	1	670
632c0075227e9b734c80424d	1270168	12.5	main	z	35	absent	absent	absent	no	absent	1	2000
632c0075227e9b734c80424d	1272155	12.5	main	z	36	square	local	LVF	yes	present	1	1035
632c0075227e9b734c80424d	1274079	12.5	main	z	37	rectangle	local	RVF	yes	present	1	903
632c0075227e9b734c80424d	1275705	12.5	main	z	38	square	global	LVF	yes	present	1	642
632c0075227e9b734c80424d	1277419	12.5	main	z	39	square	local	LVF	yes	present	1	727
632c0075227e9b734c80424d	1279077	12.5	main	z	40	square	global	RVF	yes	present	1	665
632c0075227e9b734c80424d	1280738	12.5	main	z	41	square	local	RVF	yes	present	1	604
632c0075227e9b734c80424d	1282624	12.5	main	z	42	absent	absent	absent	no	present	0	574
632c0075227e9b734c80424d	1284395	12.5	main	z	43	rectangle	global	LVF	yes	present	1	716
632c0075227e9b734c80424d	1285929	12.5	main	z	44	rectangle	global	LVF	yes	present	1	534
632c0075227e9b734c80424d	1287973	12.5	main	z	45	absent	absent	absent	no	present	0	571
632c0075227e9b734c80424d	1289693	12.5	main	z	46	rectangle	local	RVF	yes	present	1	767
632c0075227e9b734c80424d	1292086	12.5	main	z	47	square	local	RVF	yes	present	1	1440
632c0075227e9b734c80424d	1294019	12.5	main	z	48	rectangle	local	LVF	yes	present	1	933
632c0075227e9b734c80424d	1295805	12.5	main	z	49	rectangle	local	LVF	yes	present	1	873
632c0075227e9b734c80424d	1297789	12.5	main	z	50	square	local	RVF	yes	present	1	1098
632c0075227e9b734c80424d	1299396	12.5	main	z	51	rectangle	global	LVF	yes	present	1	638
632c0075227e9b734c80424d	1300736	12.5	main	z	52	square	global	LVF	yes	present	1	423
632c0075227e9b734c80424d	1302107	12.5	main	z	53	absent	absent	absent	no	present	0	423
632c0075227e9b734c80424d	1303680	12.5	main	z	54	square	global	LVF	yes	present	1	512
632c0075227e9b734c80424d	1305240	12.5	main	z	55	absent	absent	absent	no	present	0	406
632c0075227e9b734c80424d	1306854	12.5	main	z	56	rectangle	global	RVF	yes	present	1	422
632c0075227e9b734c80424d	1308352	12.5	main	z	57	square	local	RVF	yes	present	1	441
632c0075227e9b734c80424d	1309963	12.5	main	z	58	square	global	LVF	yes	present	1	599
632c0075227e9b734c80424d	1311367	12.5	main	z	59	square	global	RVF	yes	present	1	464
632c0075227e9b734c80424d	1313057	12.5	main	z	60	square	global	LVF	yes	present	1	609
632c0075227e9b734c80424d	1314447	12.5	main	z	61	rectangle	global	RVF	yes	present	1	341
632c0075227e9b734c80424d	1315786	12.5	main	z	62	rectangle	local	RVF	yes	present	1	292
632c0075227e9b734c80424d	1317975	12.5	main	z	63	absent	absent	absent	no	present	0	1125
632c0075227e9b734c80424d	1319715	12.5	main	z	64	absent	absent	absent	no	present	0	602
632c0075227e9b734c80424d	1321232	12.5	main	z	65	rectangle	global	LVF	yes	present	1	537
632c0075227e9b734c80424d	1322750	12.5	main	z	66	absent	absent	absent	no	present	0	564
632c0075227e9b734c80424d	1324541	12.5	main	z	67	absent	absent	absent	no	present	0	788
632c0075227e9b734c80424d	1326294	12.5	main	z	68	rectangle	global	RVF	yes	present	1	731
632c0075227e9b734c80424d	1327751	12.5	main	z	69	square	local	LVF	yes	present	1	519
632c0075227e9b734c80424d	1329522	12.5	main	z	70	rectangle	local	RVF	yes	present	1	543
632c0075227e9b734c80424d	1331197	12.5	main	z	71	rectangle	global	RVF	yes	present	1	423
632c0075227e9b734c80424d	1332529	12.5	main	z	72	square	local	LVF	yes	present	1	274
632c0075227e9b734c80424d	1333811	12.5	main	z	73	square	global	RVF	yes	present	1	145
632c0075227e9b734c80424d	1335089	12.5	main	z	74	square	local	LVF	yes	present	1	182
632c0075227e9b734c80424d	1336333	12.5	main	z	75	square	global	RVF	yes	present	1	96
632c0075227e9b734c80424d	1338490	12.5	main	z	76	square	local	LVF	yes	present	1	1030
632c0075227e9b734c80424d	1340295	12.5	main	z	77	rectangle	local	LVF	yes	present	1	388
632c0075227e9b734c80424d	1341793	12.5	main	z	78	rectangle	local	RVF	yes	present	1	316
632c0075227e9b734c80424d	1343742	12.5	main	z	79	square	global	RVF	yes	present	1	566
632c0075227e9b734c80424d	1345479	12.5	main	z	80	rectangle	local	LVF	yes	present	1	767
