subject	time_elapsed_ms	blocknum	block_type	block_response	trialnum	target	level	field	target_present	response	correct	rt
63cff34d33a9948e3b0b28d6	582920	9.5	practice	z	1	absent	absent	absent	no	absent	1	2000
63cff34d33a9948e3b0b28d6	586008	9.5	practice	z	2	square	global	RVF	yes	present	1	354
63cff34d33a9948e3b0b28d6	589309	9.5	practice	z	3	rectangle	local	RVF	yes	present	1	707
63cff34d33a9948e3b0b28d6	593604	9.5	practice	z	4	absent	absent	absent	no	absent	1	2000
63cff34d33a9948e3b0b28d6	598004	9.5	practice	z	5	square	local	LVF	yes	absent	0	2000
63cff34d33a9948e3b0b28d6	600804	9.5	practice	z	6	rectangle	global	RVF	yes	present	1	504
63cff34d33a9948e3b0b28d6	604604	9.5	practice	z	7	square	local	LVF	yes	present	1	1247
63cff34d33a9948e3b0b28d6	607462	9.5	practice	z	8	rectangle	global	LVF	yes	present	1	608
63cff34d33a9948e3b0b28d6	611671	9.5	practice	z	9	absent	absent	absent	no	absent	1	2000
63cff34d33a9948e3b0b28d6	614325	9.5	practice	z	10	square	global	LVF	yes	present	1	471
63cff34d33a9948e3b0b28d6	617142	9.5	practice	z	11	rectangle	global	RVF	yes	present	1	606
63cff34d33a9948e3b0b28d6	621624	9.5	practice	z	12	absent	absent	absent	no	absent	1	2000
63cff34d33a9948e3b0b28d6	624619	9.5	practice	z	13	square	global	LVF	yes	present	1	732
63cff34d33a9948e3b0b28d6	627628	9.5	practice	z	14	rectangle	local	RVF	yes	present	1	774
63cff34d33a9948e3b0b28d6	630155	9.5	practice	z	15	rectangle	global	LVF	yes	present	1	500
63cff34d33a9948e3b0b28d6	633521	9.5	practice	z	16	rectangle	local	RVF	yes	present	1	1168
63cff34d33a9948e3b0b28d6	639288	10.5	main	z	1	square	local	RVF	yes	present	1	885
63cff34d33a9948e3b0b28d6	641689	10.5	main	z	2	square	global	RVF	yes	present	1	652
63cff34d33a9948e3b0b28d6	643897	10.5	main	z	3	absent	absent	absent	no	present	0	857
63cff34d33a9948e3b0b28d6	646355	10.5	main	z	4	rectangle	global	RVF	yes	present	1	617
63cff34d33a9948e3b0b28d6	648530	10.5	main	z	5	square	local	LVF	yes	present	1	977
63cff34d33a9948e3b0b28d6	650553	10.5	main	z	6	square	global	RVF	yes	present	1	748
63cff34d33a9948e3b0b28d6	652738	10.5	main	z	7	absent	absent	absent	no	present	0	850
63cff34d33a9948e3b0b28d6	654390	10.5	main	z	8	absent	absent	absent	no	present	0	486
63cff34d33a9948e3b0b28d6	656517	10.5	main	z	9	rectangle	global	LVF	yes	present	1	713
63cff34d33a9948e3b0b28d6	658638	10.5	main	z	10	square	local	RVF	yes	present	1	884
63cff34d33a9948e3b0b28d6	661032	10.5	main	z	11	square	global	LVF	yes	present	1	845
63cff34d33a9948e3b0b28d6	663014	10.5	main	z	12	rectangle	global	RVF	yes	present	1	660
63cff34d33a9948e3b0b28d6	664673	10.5	main	z	13	square	global	LVF	yes	present	1	469
63cff34d33a9948e3b0b28d6	666436	10.5	main	z	14	rectangle	global	LVF	yes	present	1	699
63cff34d33a9948e3b0b28d6	668736	10.5	main	z	15	square	local	LVF	yes	present	1	1115
63cff34d33a9948e3b0b28d6	671256	10.5	main	z	16	absent	absent	absent	no	present	0	1585
63cff34d33a9948e3b0b28d6	674306	10.5	main	z	17	absent	absent	absent	no	absent	1	2000
63cff34d33a9948e3b0b28d6	677572	10.5	main	z	18	rectangle	global	LVF	yes	absent	0	2000
63cff34d33a9948e3b0b28d6	679897	10.5	main	z	19	absent	absent	absent	no	present	0	1043
63cff34d33a9948e3b0b28d6	681968	10.5	main	z	20	square	local	LVF	yes	present	1	864
63cff34d33a9948e3b0b28d6	685155	10.5	main	z	21	absent	absent	absent	no	absent	1	2000
63cff34d33a9948e3b0b28d6	687133	10.5	main	z	22	rectangle	global	LVF	yes	present	1	696
63cff34d33a9948e3b0b28d6	689252	10.5	main	z	23	rectangle	local	LVF	yes	present	1	1015
63cff34d33a9948e3b0b28d6	692405	10.5	main	z	24	square	global	RVF	yes	absent	0	2000
63cff34d33a9948e3b0b28d6	694290	10.5	main	z	25	rectangle	local	LVF	yes	present	1	702
63cff34d33a9948e3b0b28d6	696126	10.5	main	z	26	square	local	RVF	yes	present	1	738
63cff34d33a9948e3b0b28d6	698274	10.5	main	z	27	rectangle	local	RVF	yes	present	1	986
63cff34d33a9948e3b0b28d6	700242	10.5	main	z	28	rectangle	local	RVF	yes	present	1	954
63cff34d33a9948e3b0b28d6	701983	10.5	main	z	29	square	local	RVF	yes	present	1	629
63cff34d33a9948e3b0b28d6	705106	10.5	main	z	30	rectangle	global	RVF	yes	absent	0	2000
63cff34d33a9948e3b0b28d6	708389	10.5	main	z	31	rectangle	global	RVF	yes	absent	0	2000
63cff34d33a9948e3b0b28d6	712456	10.5	main	z	32	square	global	LVF	yes	absent	0	2000
63cff34d33a9948e3b0b28d6	715506	10.5	main	z	33	square	global	LVF	yes	absent	0	2000
63cff34d33a9948e3b0b28d6	717208	10.5	main	z	34	rectangle	local	LVF	yes	present	1	703
63cff34d33a9948e3b0b28d6	719271	10.5	main	z	35	rectangle	local	RVF	yes	present	1	833
63cff34d33a9948e3b0b28d6	721135	10.5	main	z	36	rectangle	local	LVF	yes	present	1	864
63cff34d33a9948e3b0b28d6	724223	10.5	main	z	37	square	global	RVF	yes	absent	0	2000
63cff34d33a9948e3b0b28d6	727224	10.5	main	z	38	absent	absent	absent	no	absent	1	2000
63cff34d33a9948e3b0b28d6	729167	10.5	main	z	39	rectangle	local	RVF	yes	present	1	962
63cff34d33a9948e3b0b28d6	731207	10.5	main	z	40	square	local	LVF	yes	present	1	818
63cff34d33a9948e3b0b28d6	734340	10.5	main	z	41	rectangle	global	RVF	yes	absent	0	2000
63cff34d33a9948e3b0b28d6	740040	10.5	main	z	42	rectangle	global	LVF	yes	absent	0	2000
63cff34d33a9948e3b0b28d6	741740	10.5	main	z	43	square	local	RVF	yes	present	1	618
63cff34d33a9948e3b0b28d6	744436	10.5	main	z	44	rectangle	global	RVF	yes	present	1	1614
63cff34d33a9948e3b0b28d6	747523	10.5	main	z	45	absent	absent	absent	no	absent	1	2000
63cff34d33a9948e3b0b28d6	750053	10.5	main	z	46	absent	absent	absent	no	present	0	1548
63cff34d33a9948e3b0b28d6	752318	10.5	main	z	47	rectangle	global	LVF	yes	present	1	1262
63cff34d33a9948e3b0b28d6	755240	10.5	main	z	48	square	local	RVF	yes	absent	0	2000
63cff34d33a9948e3b0b28d6	758240	10.5	main	z	49	absent	absent	absent	no	absent	1	2000
63cff34d33a9948e3b0b28d6	761457	10.5	main	z	50	absent	absent	absent	no	absent	1	2000
63cff34d33a9948e3b0b28d6	763532	10.5	main	z	51	rectangle	local	LVF	yes	present	1	944
63cff34d33a9948e3b0b28d6	766208	10.5	main	z	52	square	global	RVF	yes	present	1	1504
63cff34d33a9948e3b0b28d6	768409	10.5	main	z	53	rectangle	local	RVF	yes	present	1	986
63cff34d33a9948e3b0b28d6	771263	10.5	main	z	54	rectangle	global	RVF	yes	present	1	1441
63cff34d33a9948e3b0b28d6	773686	10.5	main	z	55	rectangle	local	LVF	yes	present	1	930
63cff34d33a9948e3b0b28d6	775659	10.5	main	z	56	square	global	LVF	yes	present	1	871
63cff34d33a9948e3b0b28d6	777644	10.5	main	z	57	square	global	LVF	yes	present	1	789
63cff34d33a9948e3b0b28d6	779609	10.5	main	z	58	square	local	LVF	yes	present	1	810
63cff34d33a9948e3b0b28d6	781651	10.5	main	z	59	rectangle	local	LVF	yes	present	1	895
63cff34d33a9948e3b0b28d6	784708	10.5	main	z	60	absent	absent	absent	no	absent	1	2000
63cff34d33a9948e3b0b28d6	786541	10.5	main	z	61	rectangle	global	LVF	yes	present	1	634
63cff34d33a9948e3b0b28d6	788469	10.5	main	z	62	square	local	RVF	yes	present	1	879
63cff34d33a9948e3b0b28d6	790637	10.5	main	z	63	rectangle	local	RVF	yes	present	1	1115
63cff34d33a9948e3b0b28d6	793557	10.5	main	z	64	absent	absent	absent	no	absent	1	2000
63cff34d33a9948e3b0b28d6	795595	10.5	main	z	65	square	local	LVF	yes	present	1	772
63cff34d33a9948e3b0b28d6	797424	10.5	main	z	66	rectangle	global	LVF	yes	present	1	733
63cff34d33a9948e3b0b28d6	799542	10.5	main	z	67	absent	absent	absent	no	present	0	1119
63cff34d33a9948e3b0b28d6	801257	10.5	main	z	68	square	local	LVF	yes	present	1	784
63cff34d33a9948e3b0b28d6	802767	10.5	main	z	69	rectangle	local	RVF	yes	present	1	578
63cff34d33a9948e3b0b28d6	804659	10.5	main	z	70	square	global	RVF	yes	present	1	802
63cff34d33a9948e3b0b28d6	806441	10.5	main	z	71	rectangle	global	RVF	yes	present	1	849
63cff34d33a9948e3b0b28d6	808281	10.5	main	z	72	square	local	LVF	yes	present	1	958
63cff34d33a9948e3b0b28d6	811191	10.5	main	z	73	absent	absent	absent	no	absent	1	2000
63cff34d33a9948e3b0b28d6	812887	10.5	main	z	74	square	global	RVF	yes	present	1	632
63cff34d33a9948e3b0b28d6	814575	10.5	main	z	75	square	global	RVF	yes	present	1	669
63cff34d33a9948e3b0b28d6	817540	10.5	main	z	76	square	local	RVF	yes	absent	0	2000
63cff34d33a9948e3b0b28d6	819957	10.5	main	z	77	square	global	LVF	yes	present	1	718
63cff34d33a9948e3b0b28d6	821846	10.5	main	z	78	rectangle	local	LVF	yes	present	1	939
63cff34d33a9948e3b0b28d6	823453	10.5	main	z	79	rectangle	local	RVF	yes	present	1	663
63cff34d33a9948e3b0b28d6	825376	10.5	main	z	80	square	global	LVF	yes	present	1	753
63cff34d33a9948e3b0b28d6	840977	11.5	practice	slash	1	rectangle	global	RVF	yes	present	1	469
63cff34d33a9948e3b0b28d6	844608	11.5	practice	slash	2	rectangle	local	RVF	yes	present	1	1068
63cff34d33a9948e3b0b28d6	847978	11.5	practice	slash	3	rectangle	local	RVF	yes	present	1	1021
63cff34d33a9948e3b0b28d6	852158	11.5	practice	slash	4	square	local	LVF	yes	absent	0	2000
63cff34d33a9948e3b0b28d6	854895	11.5	practice	slash	5	rectangle	global	RVF	yes	present	1	488
63cff34d33a9948e3b0b28d6	857528	11.5	practice	slash	6	rectangle	local	RVF	yes	present	1	486
63cff34d33a9948e3b0b28d6	861678	11.5	practice	slash	7	square	global	LVF	yes	absent	0	2000
63cff34d33a9948e3b0b28d6	864307	11.5	practice	slash	8	rectangle	global	LVF	yes	present	1	448
63cff34d33a9948e3b0b28d6	868343	11.5	practice	slash	9	absent	absent	absent	no	absent	1	2000
63cff34d33a9948e3b0b28d6	871002	11.5	practice	slash	10	square	local	LVF	yes	present	1	477
63cff34d33a9948e3b0b28d6	873442	11.5	practice	slash	11	square	global	LVF	yes	present	1	381
63cff34d33a9948e3b0b28d6	877579	11.5	practice	slash	12	absent	absent	absent	no	absent	1	2000
63cff34d33a9948e3b0b28d6	880041	11.5	practice	slash	13	rectangle	global	LVF	yes	present	1	383
63cff34d33a9948e3b0b28d6	882595	11.5	practice	slash	14	absent	absent	absent	no	present	0	470
63cff34d33a9948e3b0b28d6	887395	11.5	practice	slash	15	absent	absent	absent	no	absent	1	2000
63cff34d33a9948e3b0b28d6	890057	11.5	practice	slash	16	square	global	RVF	yes	present	1	365
63cff34d33a9948e3b0b28d6	894291	12.5	main	slash	1	rectangle	local	LVF	yes	present	1	449
63cff34d33a9948e3b0b28d6	896301	12.5	main	slash	2	rectangle	global	LVF	yes	present	1	444
63cff34d33a9948e3b0b28d6	898026	12.5	main	slash	3	square	global	LVF	yes	present	1	452
63cff34d33a9948e3b0b28d6	899725	12.5	main	slash	4	square	global	RVF	yes	present	1	451
63cff34d33a9948e3b0b28d6	901730	12.5	main	slash	5	rectangle	local	RVF	yes	present	1	806
63cff34d33a9948e3b0b28d6	903986	12.5	main	slash	6	square	local	RVF	yes	present	1	1045
63cff34d33a9948e3b0b28d6	905962	12.5	main	slash	7	square	local	LVF	yes	present	1	888
63cff34d33a9948e3b0b28d6	907659	12.5	main	slash	8	square	local	LVF	yes	present	1	617
63cff34d33a9948e3b0b28d6	910743	12.5	main	slash	9	absent	absent	absent	no	absent	1	2000
63cff34d33a9948e3b0b28d6	912160	12.5	main	slash	10	square	global	LVF	yes	present	1	419
63cff34d33a9948e3b0b28d6	914234	12.5	main	slash	11	square	local	LVF	yes	present	1	743
63cff34d33a9948e3b0b28d6	916023	12.5	main	slash	12	rectangle	local	RVF	yes	present	1	598
63cff34d33a9948e3b0b28d6	917655	12.5	main	slash	13	rectangle	global	LVF	yes	present	1	546
63cff34d33a9948e3b0b28d6	919901	12.5	main	slash	14	rectangle	global	RVF	yes	present	1	825
63cff34d33a9948e3b0b28d6	921547	12.5	main	slash	15	square	global	LVF	yes	present	1	556
63cff34d33a9948e3b0b28d6	923202	12.5	main	slash	16	square	global	RVF	yes	present	1	527
63cff34d33a9948e3b0b28d6	924952	12.5	main	slash	17	square	local	RVF	yes	present	1	644
63cff34d33a9948e3b0b28d6	928143	12.5	main	slash	18	absent	absent	absent	no	absent	1	2000
63cff34d33a9948e3b0b28d6	929912	12.5	main	slash	19	square	local	RVF	yes	present	1	604
63cff34d33a9948e3b0b28d6	931873	12.5	main	slash	20	rectangle	local	LVF	yes	present	1	848
63cff34d33a9948e3b0b28d6	934993	12.5	main	slash	21	absent	absent	absent	no	absent	1	2000
63cff34d33a9948e3b0b28d6	936667	12.5	main	slash	22	square	local	LVF	yes	present	1	675
63cff34d33a9948e3b0b28d6	938462	12.5	main	slash	23	rectangle	global	RVF	yes	present	1	670
63cff34d33a9948e3b0b28d6	940428	12.5	main	slash	24	rectangle	local	LVF	yes	present	1	827
63cff34d33a9948e3b0b28d6	942216	12.5	main	slash	25	rectangle	local	RVF	yes	present	1	724
63cff34d33a9948e3b0b28d6	945360	12.5	main	slash	26	absent	absent	absent	no	absent	1	2000
63cff34d33a9948e3b0b28d6	948359	12.5	main	slash	27	absent	absent	absent	no	absent	1	2000
63cff34d33a9948e3b0b28d6	950839	12.5	main	slash	28	rectangle	global	RVF	yes	present	1	1464
63cff34d33a9948e3b0b28d6	952547	12.5	main	slash	29	square	global	RVF	yes	present	1	605
63cff34d33a9948e3b0b28d6	954754	12.5	main	slash	30	rectangle	local	RVF	yes	present	1	1045
63cff34d33a9948e3b0b28d6	957860	12.5	main	slash	31	absent	absent	absent	no	absent	1	2000
63cff34d33a9948e3b0b28d6	959489	12.5	main	slash	32	rectangle	global	LVF	yes	present	1	645
63cff34d33a9948e3b0b28d6	961126	12.5	main	slash	33	square	local	RVF	yes	present	1	584
63cff34d33a9948e3b0b28d6	964160	12.5	main	slash	34	absent	absent	absent	no	absent	1	2000
63cff34d33a9948e3b0b28d6	965807	12.5	main	slash	35	rectangle	global	LVF	yes	present	1	665
63cff34d33a9948e3b0b28d6	967437	12.5	main	slash	36	square	global	LVF	yes	present	1	545
63cff34d33a9948e3b0b28d6	969455	12.5	main	slash	37	rectangle	local	LVF	yes	present	1	995
63cff34d33a9948e3b0b28d6	972494	12.5	main	slash	38	square	global	RVF	yes	absent	0	2000
63cff34d33a9948e3b0b28d6	973956	12.5	main	slash	39	rectangle	global	RVF	yes	present	1	447
63cff34d33a9948e3b0b28d6	977026	12.5	main	slash	40	absent	absent	absent	no	absent	1	2000
63cff34d33a9948e3b0b28d6	978899	12.5	main	slash	41	rectangle	global	RVF	yes	present	1	673
63cff34d33a9948e3b0b28d6	980679	12.5	main	slash	42	square	local	RVF	yes	present	1	736
63cff34d33a9948e3b0b28d6	982687	12.5	main	slash	43	rectangle	local	LVF	yes	present	1	960
63cff34d33a9948e3b0b28d6	984579	12.5	main	slash	44	square	local	RVF	yes	present	1	886
63cff34d33a9948e3b0b28d6	986514	12.5	main	slash	45	rectangle	local	RVF	yes	present	1	903
63cff34d33a9948e3b0b28d6	988336	12.5	main	slash	46	square	global	LVF	yes	present	1	860
63cff34d33a9948e3b0b28d6	991343	12.5	main	slash	47	absent	absent	absent	no	absent	1	2000
63cff34d33a9948e3b0b28d6	992976	12.5	main	slash	48	square	local	RVF	yes	present	1	511
63cff34d33a9948e3b0b28d6	995059	12.5	main	slash	49	rectangle	global	RVF	yes	present	1	1032
63cff34d33a9948e3b0b28d6	998060	12.5	main	slash	50	absent	absent	absent	no	absent	1	2000
63cff34d33a9948e3b0b28d6	999698	12.5	main	slash	51	square	local	RVF	yes	present	1	471
63cff34d33a9948e3b0b28d6	1001495	12.5	main	slash	52	square	global	RVF	yes	present	1	652
63cff34d33a9948e3b0b28d6	1003023	12.5	main	slash	53	rectangle	global	RVF	yes	present	1	463
63cff34d33a9948e3b0b28d6	1004497	12.5	main	slash	54	square	global	RVF	yes	present	1	520
63cff34d33a9948e3b0b28d6	1005960	12.5	main	slash	55	rectangle	local	RVF	yes	present	1	502
63cff34d33a9948e3b0b28d6	1008994	12.5	main	slash	56	absent	absent	absent	no	absent	1	2000
63cff34d33a9948e3b0b28d6	1010783	12.5	main	slash	57	rectangle	global	LVF	yes	present	1	774
63cff34d33a9948e3b0b28d6	1012421	12.5	main	slash	58	rectangle	global	RVF	yes	present	1	561
63cff34d33a9948e3b0b28d6	1014438	12.5	main	slash	59	rectangle	local	RVF	yes	present	1	911
63cff34d33a9948e3b0b28d6	1016172	12.5	main	slash	60	square	global	LVF	yes	present	1	679
63cff34d33a9948e3b0b28d6	1019194	12.5	main	slash	61	absent	absent	absent	no	absent	1	2000
63cff34d33a9948e3b0b28d6	1020754	12.5	main	slash	62	square	local	LVF	yes	present	1	528
63cff34d33a9948e3b0b28d6	1022385	12.5	main	slash	63	square	local	LVF	yes	present	1	475
63cff34d33a9948e3b0b28d6	1024012	12.5	main	slash	64	square	global	LVF	yes	present	1	567
63cff34d33a9948e3b0b28d6	1025509	12.5	main	slash	65	absent	absent	absent	no	present	0	483
63cff34d33a9948e3b0b28d6	1027311	12.5	main	slash	66	square	local	LVF	yes	present	1	665
63cff34d33a9948e3b0b28d6	1028990	12.5	main	slash	67	square	global	RVF	yes	present	1	630
63cff34d33a9948e3b0b28d6	1030916	12.5	main	slash	68	absent	absent	absent	no	present	0	772
63cff34d33a9948e3b0b28d6	1032701	12.5	main	slash	69	rectangle	local	LVF	yes	present	1	638
63cff34d33a9948e3b0b28d6	1034924	12.5	main	slash	70	square	global	RVF	yes	present	1	863
63cff34d33a9948e3b0b28d6	1036616	12.5	main	slash	71	rectangle	local	LVF	yes	present	1	538
63cff34d33a9948e3b0b28d6	1038227	12.5	main	slash	72	rectangle	global	LVF	yes	present	1	505
63cff34d33a9948e3b0b28d6	1040085	12.5	main	slash	73	rectangle	global	LVF	yes	present	1	556
63cff34d33a9948e3b0b28d6	1042039	12.5	main	slash	74	absent	absent	absent	no	present	0	829
63cff34d33a9948e3b0b28d6	1045628	12.5	main	slash	75	absent	absent	absent	no	absent	1	2000
63cff34d33a9948e3b0b28d6	1047398	12.5	main	slash	76	rectangle	local	LVF	yes	present	1	637
63cff34d33a9948e3b0b28d6	1050462	12.5	main	slash	77	rectangle	local	RVF	yes	absent	0	2000
63cff34d33a9948e3b0b28d6	1051888	12.5	main	slash	78	rectangle	global	LVF	yes	present	1	444
63cff34d33a9948e3b0b28d6	1053650	12.5	main	slash	79	square	local	LVF	yes	present	1	455
63cff34d33a9948e3b0b28d6	1055352	12.5	main	slash	80	square	global	LVF	yes	present	1	458
