subject	time_elapsed_ms	blocknum	block_type	block_response	trialnum	target	level	field	target_present	response	correct	rt
63d7f3f4e50de685d3d5b4fb	685426	9.5	practice	z	1	absent	absent	absent	no	absent	1	2000
63d7f3f4e50de685d3d5b4fb	688772	9.5	practice	z	2	square	global	RVF	yes	present	1	372
63d7f3f4e50de685d3d5b4fb	691435	9.5	practice	z	3	square	local	LVF	yes	present	1	597
63d7f3f4e50de685d3d5b4fb	693999	9.5	practice	z	4	square	global	LVF	yes	present	1	462
63d7f3f4e50de685d3d5b4fb	696461	9.5	practice	z	5	rectangle	global	RVF	yes	present	1	409
63d7f3f4e50de685d3d5b4fb	700178	9.5	practice	z	6	rectangle	local	RVF	yes	present	1	444
63d7f3f4e50de685d3d5b4fb	704183	9.5	practice	z	7	absent	absent	absent	no	absent	1	2000
63d7f3f4e50de685d3d5b4fb	709163	9.5	practice	z	8	square	local	LVF	yes	absent	0	2000
63d7f3f4e50de685d3d5b4fb	712067	9.5	practice	z	9	rectangle	global	LVF	yes	present	1	539
63d7f3f4e50de685d3d5b4fb	714786	9.5	practice	z	10	rectangle	global	LVF	yes	present	1	543
63d7f3f4e50de685d3d5b4fb	718077	9.5	practice	z	11	rectangle	local	RVF	yes	present	1	1170
63d7f3f4e50de685d3d5b4fb	720540	9.5	practice	z	12	square	global	LVF	yes	present	1	433
63d7f3f4e50de685d3d5b4fb	724522	9.5	practice	z	13	absent	absent	absent	no	absent	1	2000
63d7f3f4e50de685d3d5b4fb	726908	9.5	practice	z	14	rectangle	global	RVF	yes	present	1	421
63d7f3f4e50de685d3d5b4fb	730769	9.5	practice	z	15	absent	absent	absent	no	absent	1	2000
63d7f3f4e50de685d3d5b4fb	733409	9.5	practice	z	16	rectangle	local	RVF	yes	present	1	527
63d7f3f4e50de685d3d5b4fb	765484	10.5	main	z	1	rectangle	local	RVF	yes	absent	0	2000
63d7f3f4e50de685d3d5b4fb	768292	10.5	main	z	2	square	local	RVF	yes	present	1	496
63d7f3f4e50de685d3d5b4fb	770109	10.5	main	z	3	square	global	LVF	yes	present	1	480
63d7f3f4e50de685d3d5b4fb	772459	10.5	main	z	4	rectangle	local	LVF	yes	present	1	1164
63d7f3f4e50de685d3d5b4fb	774436	10.5	main	z	5	rectangle	local	LVF	yes	present	1	659
63d7f3f4e50de685d3d5b4fb	775952	10.5	main	z	6	square	local	LVF	yes	present	1	310
63d7f3f4e50de685d3d5b4fb	778030	10.5	main	z	7	square	global	RVF	yes	present	1	722
63d7f3f4e50de685d3d5b4fb	779771	10.5	main	z	8	square	local	RVF	yes	present	1	647
63d7f3f4e50de685d3d5b4fb	782806	10.5	main	z	9	absent	absent	absent	no	absent	1	2000
63d7f3f4e50de685d3d5b4fb	785938	10.5	main	z	10	absent	absent	absent	no	absent	1	2000
63d7f3f4e50de685d3d5b4fb	788500	10.5	main	z	11	rectangle	global	LVF	yes	present	1	531
63d7f3f4e50de685d3d5b4fb	790633	10.5	main	z	12	rectangle	global	RVF	yes	present	1	503
63d7f3f4e50de685d3d5b4fb	792016	10.5	main	z	13	rectangle	global	LVF	yes	present	1	372
63d7f3f4e50de685d3d5b4fb	793715	10.5	main	z	14	absent	absent	absent	no	present	0	715
63d7f3f4e50de685d3d5b4fb	795386	10.5	main	z	15	square	global	RVF	yes	present	1	554
63d7f3f4e50de685d3d5b4fb	798382	10.5	main	z	16	absent	absent	absent	no	absent	1	2000
63d7f3f4e50de685d3d5b4fb	799897	10.5	main	z	17	square	local	RVF	yes	present	1	534
63d7f3f4e50de685d3d5b4fb	802913	10.5	main	z	18	absent	absent	absent	no	absent	1	2000
63d7f3f4e50de685d3d5b4fb	804629	10.5	main	z	19	absent	absent	absent	no	present	0	634
63d7f3f4e50de685d3d5b4fb	806263	10.5	main	z	20	square	global	LVF	yes	present	1	685
63d7f3f4e50de685d3d5b4fb	809209	10.5	main	z	21	rectangle	local	LVF	yes	absent	0	2000
63d7f3f4e50de685d3d5b4fb	811195	10.5	main	z	22	square	local	LVF	yes	present	1	921
63d7f3f4e50de685d3d5b4fb	812827	10.5	main	z	23	square	global	RVF	yes	present	1	704
63d7f3f4e50de685d3d5b4fb	814157	10.5	main	z	24	square	global	LVF	yes	present	1	402
63d7f3f4e50de685d3d5b4fb	815770	10.5	main	z	25	rectangle	local	RVF	yes	present	1	615
63d7f3f4e50de685d3d5b4fb	817203	10.5	main	z	26	square	local	LVF	yes	present	1	499
63d7f3f4e50de685d3d5b4fb	818544	10.5	main	z	27	rectangle	global	RVF	yes	present	1	407
63d7f3f4e50de685d3d5b4fb	820560	10.5	main	z	28	rectangle	local	RVF	yes	present	1	757
63d7f3f4e50de685d3d5b4fb	822018	10.5	main	z	29	rectangle	local	RVF	yes	present	1	533
63d7f3f4e50de685d3d5b4fb	823328	10.5	main	z	30	square	global	RVF	yes	present	1	294
63d7f3f4e50de685d3d5b4fb	824926	10.5	main	z	31	square	global	LVF	yes	present	1	559
63d7f3f4e50de685d3d5b4fb	826396	10.5	main	z	32	rectangle	local	LVF	yes	present	1	497
63d7f3f4e50de685d3d5b4fb	827732	10.5	main	z	33	rectangle	global	RVF	yes	present	1	317
63d7f3f4e50de685d3d5b4fb	829212	10.5	main	z	34	rectangle	global	LVF	yes	present	1	414
63d7f3f4e50de685d3d5b4fb	830780	10.5	main	z	35	square	local	LVF	yes	present	1	599
63d7f3f4e50de685d3d5b4fb	832352	10.5	main	z	36	rectangle	global	RVF	yes	present	1	655
63d7f3f4e50de685d3d5b4fb	835346	10.5	main	z	37	absent	absent	absent	no	absent	1	2000
63d7f3f4e50de685d3d5b4fb	838494	10.5	main	z	38	absent	absent	absent	no	absent	1	2000
63d7f3f4e50de685d3d5b4fb	840850	10.5	main	z	39	square	local	RVF	yes	present	1	358
63d7f3f4e50de685d3d5b4fb	842756	10.5	main	z	40	rectangle	global	LVF	yes	present	1	448
63d7f3f4e50de685d3d5b4fb	844406	10.5	main	z	41	square	global	RVF	yes	present	1	513
63d7f3f4e50de685d3d5b4fb	845832	10.5	main	z	42	rectangle	local	RVF	yes	present	1	559
63d7f3f4e50de685d3d5b4fb	847189	10.5	main	z	43	square	global	RVF	yes	present	1	450
63d7f3f4e50de685d3d5b4fb	848366	10.5	main	z	44	rectangle	global	LVF	yes	present	1	295
63d7f3f4e50de685d3d5b4fb	849554	10.5	main	z	45	square	local	RVF	yes	present	1	333
63d7f3f4e50de685d3d5b4fb	851007	10.5	main	z	46	square	global	LVF	yes	present	1	487
63d7f3f4e50de685d3d5b4fb	852149	10.5	main	z	47	square	local	LVF	yes	present	1	263
63d7f3f4e50de685d3d5b4fb	854131	10.5	main	z	48	rectangle	local	LVF	yes	present	1	563
63d7f3f4e50de685d3d5b4fb	855667	10.5	main	z	49	square	local	RVF	yes	present	1	549
63d7f3f4e50de685d3d5b4fb	856919	10.5	main	z	50	rectangle	global	RVF	yes	present	1	336
63d7f3f4e50de685d3d5b4fb	858308	10.5	main	z	51	absent	absent	absent	no	present	0	309
63d7f3f4e50de685d3d5b4fb	861906	10.5	main	z	52	square	global	LVF	yes	present	1	1858
63d7f3f4e50de685d3d5b4fb	863277	10.5	main	z	53	rectangle	global	LVF	yes	present	1	363
63d7f3f4e50de685d3d5b4fb	865139	10.5	main	z	54	absent	absent	absent	no	present	0	792
63d7f3f4e50de685d3d5b4fb	867105	10.5	main	z	55	square	global	LVF	yes	present	1	493
63d7f3f4e50de685d3d5b4fb	868701	10.5	main	z	56	absent	absent	absent	no	present	0	624
63d7f3f4e50de685d3d5b4fb	871675	10.5	main	z	57	rectangle	local	LVF	yes	present	1	749
63d7f3f4e50de685d3d5b4fb	874658	10.5	main	z	58	square	global	RVF	yes	absent	0	2000
63d7f3f4e50de685d3d5b4fb	876129	10.5	main	z	59	square	local	RVF	yes	present	1	539
63d7f3f4e50de685d3d5b4fb	877736	10.5	main	z	60	square	local	LVF	yes	present	1	580
63d7f3f4e50de685d3d5b4fb	879241	10.5	main	z	61	square	local	LVF	yes	present	1	486
63d7f3f4e50de685d3d5b4fb	880905	10.5	main	z	62	absent	absent	absent	no	present	0	650
63d7f3f4e50de685d3d5b4fb	883970	10.5	main	z	63	absent	absent	absent	no	absent	1	2000
63d7f3f4e50de685d3d5b4fb	885657	10.5	main	z	64	rectangle	global	LVF	yes	present	1	438
63d7f3f4e50de685d3d5b4fb	888585	10.5	main	z	65	square	global	RVF	yes	absent	0	2000
63d7f3f4e50de685d3d5b4fb	890664	10.5	main	z	66	square	local	LVF	yes	present	1	531
63d7f3f4e50de685d3d5b4fb	892197	10.5	main	z	67	rectangle	global	RVF	yes	present	1	504
63d7f3f4e50de685d3d5b4fb	895164	10.5	main	z	68	absent	absent	absent	no	absent	1	2000
63d7f3f4e50de685d3d5b4fb	896668	10.5	main	z	69	rectangle	global	LVF	yes	present	1	405
63d7f3f4e50de685d3d5b4fb	898491	10.5	main	z	70	rectangle	global	RVF	yes	present	1	646
63d7f3f4e50de685d3d5b4fb	900004	10.5	main	z	71	rectangle	local	RVF	yes	present	1	426
63d7f3f4e50de685d3d5b4fb	901287	10.5	main	z	72	rectangle	global	RVF	yes	present	1	243
63d7f3f4e50de685d3d5b4fb	903116	10.5	main	z	73	square	local	RVF	yes	present	1	457
63d7f3f4e50de685d3d5b4fb	905316	10.5	main	z	74	rectangle	local	RVF	yes	present	1	674
63d7f3f4e50de685d3d5b4fb	907098	10.5	main	z	75	square	global	LVF	yes	present	1	857
63d7f3f4e50de685d3d5b4fb	909957	10.5	main	z	76	absent	absent	absent	no	absent	1	2000
63d7f3f4e50de685d3d5b4fb	913438	10.5	main	z	77	absent	absent	absent	no	absent	1	2000
63d7f3f4e50de685d3d5b4fb	915324	10.5	main	z	78	rectangle	local	RVF	yes	present	1	687
63d7f3f4e50de685d3d5b4fb	916702	10.5	main	z	79	rectangle	local	LVF	yes	present	1	500
63d7f3f4e50de685d3d5b4fb	918644	10.5	main	z	80	rectangle	local	LVF	yes	present	1	876
63d7f3f4e50de685d3d5b4fb	953854	11.5	practice	slash	1	rectangle	local	RVF	yes	present	1	484
63d7f3f4e50de685d3d5b4fb	958187	11.5	practice	slash	2	absent	absent	absent	no	absent	1	2000
63d7f3f4e50de685d3d5b4fb	962418	11.5	practice	slash	3	absent	absent	absent	no	absent	1	2000
63d7f3f4e50de685d3d5b4fb	965363	11.5	practice	slash	4	rectangle	global	LVF	yes	present	1	315
63d7f3f4e50de685d3d5b4fb	968676	11.5	practice	slash	5	rectangle	local	RVF	yes	present	1	462
63d7f3f4e50de685d3d5b4fb	971243	11.5	practice	slash	6	square	local	LVF	yes	present	1	481
63d7f3f4e50de685d3d5b4fb	973984	11.5	practice	slash	7	rectangle	global	LVF	yes	present	1	273
63d7f3f4e50de685d3d5b4fb	976562	11.5	practice	slash	8	square	global	LVF	yes	present	1	302
63d7f3f4e50de685d3d5b4fb	978998	11.5	practice	slash	9	square	local	LVF	yes	present	1	441
63d7f3f4e50de685d3d5b4fb	981356	11.5	practice	slash	10	square	global	LVF	yes	present	1	299
63d7f3f4e50de685d3d5b4fb	984024	11.5	practice	slash	11	absent	absent	absent	no	present	0	703
63d7f3f4e50de685d3d5b4fb	986437	11.5	practice	slash	12	rectangle	global	RVF	yes	present	1	333
63d7f3f4e50de685d3d5b4fb	988801	11.5	practice	slash	13	rectangle	global	RVF	yes	present	1	298
63d7f3f4e50de685d3d5b4fb	991318	11.5	practice	slash	14	square	global	RVF	yes	present	1	316
63d7f3f4e50de685d3d5b4fb	995684	11.5	practice	slash	15	absent	absent	absent	no	absent	1	2000
63d7f3f4e50de685d3d5b4fb	998048	11.5	practice	slash	16	rectangle	local	RVF	yes	present	1	433
63d7f3f4e50de685d3d5b4fb	1052937	12.5	main	slash	1	square	global	RVF	yes	present	1	1852
63d7f3f4e50de685d3d5b4fb	1055335	12.5	main	slash	2	absent	absent	absent	no	present	0	835
63d7f3f4e50de685d3d5b4fb	1056987	12.5	main	slash	3	square	local	LVF	yes	present	1	473
63d7f3f4e50de685d3d5b4fb	1058630	12.5	main	slash	4	rectangle	local	LVF	yes	present	1	482
63d7f3f4e50de685d3d5b4fb	1059962	12.5	main	slash	5	rectangle	global	RVF	yes	present	1	299
63d7f3f4e50de685d3d5b4fb	1061653	12.5	main	slash	6	rectangle	local	RVF	yes	present	1	391
63d7f3f4e50de685d3d5b4fb	1063076	12.5	main	slash	7	rectangle	local	LVF	yes	present	1	372
63d7f3f4e50de685d3d5b4fb	1064384	12.5	main	slash	8	square	local	RVF	yes	present	1	642
63d7f3f4e50de685d3d5b4fb	1065951	12.5	main	slash	9	square	local	RVF	yes	present	1	592
63d7f3f4e50de685d3d5b4fb	1067423	12.5	main	slash	10	square	global	LVF	yes	present	1	506
63d7f3f4e50de685d3d5b4fb	1068707	12.5	main	slash	11	absent	absent	absent	no	present	0	372
63d7f3f4e50de685d3d5b4fb	1070115	12.5	main	slash	12	square	global	RVF	yes	present	1	308
63d7f3f4e50de685d3d5b4fb	1071347	12.5	main	slash	13	square	local	LVF	yes	present	1	274
63d7f3f4e50de685d3d5b4fb	1072989	12.5	main	slash	14	absent	absent	absent	no	present	0	298
63d7f3f4e50de685d3d5b4fb	1074994	12.5	main	slash	15	square	global	LVF	yes	present	1	439
63d7f3f4e50de685d3d5b4fb	1076476	12.5	main	slash	16	rectangle	global	LVF	yes	present	1	471
63d7f3f4e50de685d3d5b4fb	1079404	12.5	main	slash	17	absent	absent	absent	no	absent	1	2000
63d7f3f4e50de685d3d5b4fb	1082058	12.5	main	slash	18	rectangle	local	RVF	yes	present	1	292
63d7f3f4e50de685d3d5b4fb	1083919	12.5	main	slash	19	rectangle	global	LVF	yes	present	1	402
63d7f3f4e50de685d3d5b4fb	1085504	12.5	main	slash	20	square	local	LVF	yes	present	1	603
63d7f3f4e50de685d3d5b4fb	1086998	12.5	main	slash	21	rectangle	local	LVF	yes	present	1	499
63d7f3f4e50de685d3d5b4fb	1088337	12.5	main	slash	22	square	local	RVF	yes	present	1	438
63d7f3f4e50de685d3d5b4fb	1089647	12.5	main	slash	23	square	global	RVF	yes	present	1	364
63d7f3f4e50de685d3d5b4fb	1092631	12.5	main	slash	24	rectangle	global	RVF	yes	absent	0	2000
63d7f3f4e50de685d3d5b4fb	1094384	12.5	main	slash	25	rectangle	global	LVF	yes	present	1	440
63d7f3f4e50de685d3d5b4fb	1096740	12.5	main	slash	26	rectangle	local	RVF	yes	present	1	630
63d7f3f4e50de685d3d5b4fb	1098084	12.5	main	slash	27	square	local	LVF	yes	present	1	425
63d7f3f4e50de685d3d5b4fb	1099583	12.5	main	slash	28	absent	absent	absent	no	present	0	391
63d7f3f4e50de685d3d5b4fb	1102166	12.5	main	slash	29	rectangle	local	RVF	yes	present	1	742
63d7f3f4e50de685d3d5b4fb	1104514	12.5	main	slash	30	rectangle	global	RVF	yes	present	1	1325
63d7f3f4e50de685d3d5b4fb	1106056	12.5	main	slash	31	square	local	RVF	yes	present	1	448
63d7f3f4e50de685d3d5b4fb	1109123	12.5	main	slash	32	rectangle	global	RVF	yes	absent	0	2000
63d7f3f4e50de685d3d5b4fb	1110729	12.5	main	slash	33	absent	absent	absent	no	present	0	676
63d7f3f4e50de685d3d5b4fb	1114770	12.5	main	slash	34	absent	absent	absent	no	absent	1	2000
63d7f3f4e50de685d3d5b4fb	1116384	12.5	main	slash	35	square	global	LVF	yes	present	1	432
63d7f3f4e50de685d3d5b4fb	1117822	12.5	main	slash	36	rectangle	global	LVF	yes	present	1	357
63d7f3f4e50de685d3d5b4fb	1119234	12.5	main	slash	37	square	global	LVF	yes	present	1	434
63d7f3f4e50de685d3d5b4fb	1121921	12.5	main	slash	38	rectangle	local	LVF	yes	present	1	1590
63d7f3f4e50de685d3d5b4fb	1124781	12.5	main	slash	39	absent	absent	absent	no	absent	1	2000
63d7f3f4e50de685d3d5b4fb	1125969	12.5	main	slash	40	square	global	RVF	yes	present	1	524
63d7f3f4e50de685d3d5b4fb	1127699	12.5	main	slash	41	square	local	RVF	yes	present	1	670
63d7f3f4e50de685d3d5b4fb	1129050	12.5	main	slash	42	rectangle	local	RVF	yes	present	1	407
63d7f3f4e50de685d3d5b4fb	1130687	12.5	main	slash	43	rectangle	global	LVF	yes	present	1	578
63d7f3f4e50de685d3d5b4fb	1131968	12.5	main	slash	44	rectangle	global	RVF	yes	present	1	343
63d7f3f4e50de685d3d5b4fb	1133391	12.5	main	slash	45	rectangle	global	RVF	yes	present	1	431
63d7f3f4e50de685d3d5b4fb	1134651	12.5	main	slash	46	rectangle	global	RVF	yes	present	1	311
63d7f3f4e50de685d3d5b4fb	1137362	12.5	main	slash	47	absent	absent	absent	no	present	0	1622
63d7f3f4e50de685d3d5b4fb	1139193	12.5	main	slash	48	square	local	LVF	yes	present	1	637
63d7f3f4e50de685d3d5b4fb	1140726	12.5	main	slash	49	rectangle	global	LVF	yes	present	1	489
63d7f3f4e50de685d3d5b4fb	1142472	12.5	main	slash	50	rectangle	local	LVF	yes	present	1	768
63d7f3f4e50de685d3d5b4fb	1144623	12.5	main	slash	51	square	global	LVF	yes	present	1	435
63d7f3f4e50de685d3d5b4fb	1145949	12.5	main	slash	52	square	global	LVF	yes	present	1	379
63d7f3f4e50de685d3d5b4fb	1147407	12.5	main	slash	53	rectangle	local	RVF	yes	present	1	491
63d7f3f4e50de685d3d5b4fb	1149073	12.5	main	slash	54	square	local	RVF	yes	present	1	523
63d7f3f4e50de685d3d5b4fb	1152100	12.5	main	slash	55	square	global	RVF	yes	absent	0	2000
63d7f3f4e50de685d3d5b4fb	1153814	12.5	main	slash	56	absent	absent	absent	no	present	0	283
63d7f3f4e50de685d3d5b4fb	1155743	12.5	main	slash	57	square	global	RVF	yes	present	1	446
63d7f3f4e50de685d3d5b4fb	1157389	12.5	main	slash	58	square	local	RVF	yes	present	1	627
63d7f3f4e50de685d3d5b4fb	1160379	12.5	main	slash	59	absent	absent	absent	no	absent	1	2000
63d7f3f4e50de685d3d5b4fb	1163295	12.5	main	slash	60	absent	absent	absent	no	absent	1	2000
63d7f3f4e50de685d3d5b4fb	1164756	12.5	main	slash	61	rectangle	local	LVF	yes	present	1	507
63d7f3f4e50de685d3d5b4fb	1167842	12.5	main	slash	62	square	global	RVF	yes	absent	0	2000
63d7f3f4e50de685d3d5b4fb	1169844	12.5	main	slash	63	square	local	LVF	yes	present	1	555
63d7f3f4e50de685d3d5b4fb	1171989	12.5	main	slash	64	absent	absent	absent	no	present	0	999
63d7f3f4e50de685d3d5b4fb	1173453	12.5	main	slash	65	rectangle	global	LVF	yes	present	1	549
63d7f3f4e50de685d3d5b4fb	1175199	12.5	main	slash	66	rectangle	local	RVF	yes	present	1	613
63d7f3f4e50de685d3d5b4fb	1177121	12.5	main	slash	67	rectangle	local	LVF	yes	present	1	569
63d7f3f4e50de685d3d5b4fb	1180718	12.5	main	slash	68	absent	absent	absent	no	absent	1	2000
63d7f3f4e50de685d3d5b4fb	1182682	12.5	main	slash	69	square	global	LVF	yes	present	1	464
63d7f3f4e50de685d3d5b4fb	1184003	12.5	main	slash	70	square	global	LVF	yes	present	1	404
63d7f3f4e50de685d3d5b4fb	1186932	12.5	main	slash	71	rectangle	local	LVF	yes	absent	0	2000
63d7f3f4e50de685d3d5b4fb	1189029	12.5	main	slash	72	absent	absent	absent	no	present	0	748
63d7f3f4e50de685d3d5b4fb	1190731	12.5	main	slash	73	square	global	RVF	yes	present	1	817
63d7f3f4e50de685d3d5b4fb	1193281	12.5	main	slash	74	rectangle	local	RVF	yes	present	1	1553
63d7f3f4e50de685d3d5b4fb	1196095	12.5	main	slash	75	square	local	RVF	yes	present	1	385
63d7f3f4e50de685d3d5b4fb	1197548	12.5	main	slash	76	square	local	LVF	yes	present	1	523
63d7f3f4e50de685d3d5b4fb	1198849	12.5	main	slash	77	square	local	LVF	yes	present	1	442
63d7f3f4e50de685d3d5b4fb	1200163	12.5	main	slash	78	rectangle	global	RVF	yes	present	1	424
63d7f3f4e50de685d3d5b4fb	1201429	12.5	main	slash	79	rectangle	global	LVF	yes	present	1	308
63d7f3f4e50de685d3d5b4fb	1202694	12.5	main	slash	80	absent	absent	absent	no	present	0	322
