subject	time_elapsed_ms	blocknum	block_type	block_response	trialnum	target	level	field	target_present	response	correct	rt
63e52f8ab3688f45f842114c	961384	9.5	practice	z	1	square	global	LVF	yes	present	1	968
63e52f8ab3688f45f842114c	965886	9.5	practice	z	2	absent	absent	absent	no	absent	1	2000
63e52f8ab3688f45f842114c	969168	9.5	practice	z	3	square	local	LVF	yes	present	1	877
63e52f8ab3688f45f842114c	973567	9.5	practice	z	4	rectangle	local	RVF	yes	present	1	1040
63e52f8ab3688f45f842114c	976936	9.5	practice	z	5	square	global	LVF	yes	present	1	1138
63e52f8ab3688f45f842114c	981152	9.5	practice	z	6	absent	absent	absent	no	absent	1	2000
63e52f8ab3688f45f842114c	985064	9.5	practice	z	7	square	global	RVF	yes	present	1	991
63e52f8ab3688f45f842114c	989293	9.5	practice	z	8	absent	absent	absent	no	absent	1	2000
63e52f8ab3688f45f842114c	992879	9.5	practice	z	9	rectangle	local	RVF	yes	present	1	731
63e52f8ab3688f45f842114c	996407	9.5	practice	z	10	rectangle	global	RVF	yes	present	1	857
63e52f8ab3688f45f842114c	1000621	9.5	practice	z	11	absent	absent	absent	no	absent	1	2000
63e52f8ab3688f45f842114c	1003927	9.5	practice	z	12	rectangle	global	LVF	yes	present	1	1003
63e52f8ab3688f45f842114c	1007120	9.5	practice	z	13	square	local	LVF	yes	present	1	991
63e52f8ab3688f45f842114c	1010328	9.5	practice	z	14	rectangle	global	RVF	yes	present	1	896
63e52f8ab3688f45f842114c	1013119	9.5	practice	z	15	rectangle	global	LVF	yes	present	1	818
63e52f8ab3688f45f842114c	1016159	9.5	practice	z	16	rectangle	local	RVF	yes	present	1	972
63e52f8ab3688f45f842114c	1024244	10.5	main	z	1	rectangle	global	RVF	yes	present	1	509
63e52f8ab3688f45f842114c	1026901	10.5	main	z	2	rectangle	global	RVF	yes	present	1	521
63e52f8ab3688f45f842114c	1029461	10.5	main	z	3	square	local	RVF	yes	present	1	828
63e52f8ab3688f45f842114c	1033806	10.5	main	z	4	rectangle	local	LVF	yes	present	1	635
63e52f8ab3688f45f842114c	1036493	10.5	main	z	5	rectangle	local	RVF	yes	present	1	987
63e52f8ab3688f45f842114c	1039077	10.5	main	z	6	square	global	RVF	yes	present	1	1219
63e52f8ab3688f45f842114c	1042829	10.5	main	z	7	rectangle	global	LVF	yes	present	1	1167
63e52f8ab3688f45f842114c	1044869	10.5	main	z	8	square	local	LVF	yes	present	1	721
63e52f8ab3688f45f842114c	1046997	10.5	main	z	9	rectangle	local	LVF	yes	present	1	930
63e52f8ab3688f45f842114c	1049325	10.5	main	z	10	rectangle	global	LVF	yes	present	1	1122
63e52f8ab3688f45f842114c	1052589	10.5	main	z	11	absent	absent	absent	no	absent	1	2000
63e52f8ab3688f45f842114c	1054541	10.5	main	z	12	rectangle	local	LVF	yes	present	1	516
63e52f8ab3688f45f842114c	1056725	10.5	main	z	13	square	global	LVF	yes	present	1	815
63e52f8ab3688f45f842114c	1058765	10.5	main	z	14	square	local	RVF	yes	present	1	869
63e52f8ab3688f45f842114c	1060821	10.5	main	z	15	square	global	LVF	yes	present	1	757
63e52f8ab3688f45f842114c	1062957	10.5	main	z	16	rectangle	local	LVF	yes	present	1	941
63e52f8ab3688f45f842114c	1064925	10.5	main	z	17	square	local	LVF	yes	present	1	740
63e52f8ab3688f45f842114c	1068121	10.5	main	z	18	absent	absent	absent	no	absent	1	2000
63e52f8ab3688f45f842114c	1071909	10.5	main	z	19	square	global	LVF	yes	present	1	516
63e52f8ab3688f45f842114c	1073749	10.5	main	z	20	rectangle	local	RVF	yes	present	1	621
63e52f8ab3688f45f842114c	1075525	10.5	main	z	21	square	global	RVF	yes	present	1	646
63e52f8ab3688f45f842114c	1077854	10.5	main	z	22	rectangle	global	RVF	yes	present	1	939
63e52f8ab3688f45f842114c	1080029	10.5	main	z	23	square	local	RVF	yes	present	1	596
63e52f8ab3688f45f842114c	1081861	10.5	main	z	24	rectangle	local	RVF	yes	present	1	659
63e52f8ab3688f45f842114c	1085021	10.5	main	z	25	absent	absent	absent	no	absent	1	2000
63e52f8ab3688f45f842114c	1086893	10.5	main	z	26	square	local	LVF	yes	present	1	720
63e52f8ab3688f45f842114c	1088926	10.5	main	z	27	square	global	LVF	yes	present	1	650
63e52f8ab3688f45f842114c	1090853	10.5	main	z	28	square	local	RVF	yes	present	1	659
63e52f8ab3688f45f842114c	1094147	10.5	main	z	29	absent	absent	absent	no	absent	1	2000
63e52f8ab3688f45f842114c	1096077	10.5	main	z	30	square	global	RVF	yes	present	1	728
63e52f8ab3688f45f842114c	1099335	10.5	main	z	31	absent	absent	absent	no	absent	1	2000
63e52f8ab3688f45f842114c	1101381	10.5	main	z	32	rectangle	global	LVF	yes	present	1	693
63e52f8ab3688f45f842114c	1105024	10.5	main	z	33	absent	absent	absent	no	absent	1	2000
63e52f8ab3688f45f842114c	1106885	10.5	main	z	34	rectangle	global	LVF	yes	present	1	692
63e52f8ab3688f45f842114c	1108957	10.5	main	z	35	rectangle	global	RVF	yes	present	1	578
63e52f8ab3688f45f842114c	1110781	10.5	main	z	36	rectangle	local	RVF	yes	present	1	634
63e52f8ab3688f45f842114c	1112557	10.5	main	z	37	square	global	RVF	yes	present	1	608
63e52f8ab3688f45f842114c	1114421	10.5	main	z	38	square	local	LVF	yes	present	1	603
63e52f8ab3688f45f842114c	1117553	10.5	main	z	39	absent	absent	absent	no	absent	1	2000
63e52f8ab3688f45f842114c	1120890	10.5	main	z	40	absent	absent	absent	no	absent	1	2000
63e52f8ab3688f45f842114c	1124026	10.5	main	z	41	absent	absent	absent	no	absent	1	2000
63e52f8ab3688f45f842114c	1125837	10.5	main	z	42	square	local	LVF	yes	present	1	708
63e52f8ab3688f45f842114c	1128117	10.5	main	z	43	square	global	LVF	yes	present	1	586
63e52f8ab3688f45f842114c	1130445	10.5	main	z	44	rectangle	local	RVF	yes	present	1	1162
63e52f8ab3688f45f842114c	1132341	10.5	main	z	45	rectangle	local	LVF	yes	present	1	771
63e52f8ab3688f45f842114c	1134661	10.5	main	z	46	square	global	LVF	yes	present	1	1240
63e52f8ab3688f45f842114c	1136422	10.5	main	z	47	rectangle	global	RVF	yes	present	1	698
63e52f8ab3688f45f842114c	1139675	10.5	main	z	48	absent	absent	absent	no	absent	1	2000
63e52f8ab3688f45f842114c	1141469	10.5	main	z	49	square	global	LVF	yes	present	1	690
63e52f8ab3688f45f842114c	1144631	10.5	main	z	50	absent	absent	absent	no	absent	1	2000
63e52f8ab3688f45f842114c	1147093	10.5	main	z	51	rectangle	local	RVF	yes	present	1	1226
63e52f8ab3688f45f842114c	1149181	10.5	main	z	52	square	global	RVF	yes	present	1	729
63e52f8ab3688f45f842114c	1151030	10.5	main	z	53	square	local	LVF	yes	present	1	725
63e52f8ab3688f45f842114c	1153053	10.5	main	z	54	square	global	RVF	yes	present	1	830
63e52f8ab3688f45f842114c	1156208	10.5	main	z	55	rectangle	local	LVF	yes	absent	0	2000
63e52f8ab3688f45f842114c	1157957	10.5	main	z	56	rectangle	local	LVF	yes	present	1	546
63e52f8ab3688f45f842114c	1159653	10.5	main	z	57	square	local	LVF	yes	present	1	472
63e52f8ab3688f45f842114c	1161277	10.5	main	z	58	rectangle	global	LVF	yes	present	1	546
63e52f8ab3688f45f842114c	1162909	10.5	main	z	59	square	global	RVF	yes	present	1	560
63e52f8ab3688f45f842114c	1164517	10.5	main	z	60	square	local	RVF	yes	present	1	548
63e52f8ab3688f45f842114c	1166397	10.5	main	z	61	absent	absent	absent	no	present	0	843
63e52f8ab3688f45f842114c	1168429	10.5	main	z	62	rectangle	global	RVF	yes	present	1	1007
63e52f8ab3688f45f842114c	1170589	10.5	main	z	63	rectangle	local	RVF	yes	present	1	1082
63e52f8ab3688f45f842114c	1174389	10.5	main	z	64	rectangle	local	LVF	yes	present	1	677
63e52f8ab3688f45f842114c	1178330	10.5	main	z	65	square	local	RVF	yes	absent	0	2000
63e52f8ab3688f45f842114c	1181284	10.5	main	z	66	absent	absent	absent	no	absent	1	2000
63e52f8ab3688f45f842114c	1183069	10.5	main	z	67	rectangle	global	RVF	yes	present	1	833
63e52f8ab3688f45f842114c	1186405	10.5	main	z	68	absent	absent	absent	no	absent	1	2000
63e52f8ab3688f45f842114c	1188437	10.5	main	z	69	square	local	RVF	yes	present	1	628
63e52f8ab3688f45f842114c	1190365	10.5	main	z	70	square	local	LVF	yes	present	1	638
63e52f8ab3688f45f842114c	1192053	10.5	main	z	71	rectangle	global	LVF	yes	present	1	540
63e52f8ab3688f45f842114c	1194245	10.5	main	z	72	rectangle	local	RVF	yes	present	1	1180
63e52f8ab3688f45f842114c	1195901	10.5	main	z	73	square	global	RVF	yes	present	1	485
63e52f8ab3688f45f842114c	1197637	10.5	main	z	74	rectangle	global	RVF	yes	present	1	436
63e52f8ab3688f45f842114c	1199125	10.5	main	z	75	square	global	LVF	yes	present	1	423
63e52f8ab3688f45f842114c	1202138	10.5	main	z	76	absent	absent	absent	no	absent	1	2000
63e52f8ab3688f45f842114c	1204061	10.5	main	z	77	rectangle	global	LVF	yes	present	1	586
63e52f8ab3688f45f842114c	1205749	10.5	main	z	78	square	local	RVF	yes	present	1	622
63e52f8ab3688f45f842114c	1207421	10.5	main	z	79	rectangle	global	LVF	yes	present	1	693
63e52f8ab3688f45f842114c	1210446	10.5	main	z	80	absent	absent	absent	no	absent	1	2000
63e52f8ab3688f45f842114c	1240663	11.5	practice	slash	1	absent	absent	absent	no	present	0	600
63e52f8ab3688f45f842114c	1243423	11.5	practice	slash	2	square	local	LVF	yes	present	1	524
63e52f8ab3688f45f842114c	1247484	11.5	practice	slash	3	absent	absent	absent	no	absent	1	2000
63e52f8ab3688f45f842114c	1249984	11.5	practice	slash	4	square	global	LVF	yes	present	1	461
63e52f8ab3688f45f842114c	1252808	11.5	practice	slash	5	square	local	LVF	yes	present	1	499
63e52f8ab3688f45f842114c	1255231	11.5	practice	slash	6	rectangle	global	LVF	yes	present	1	454
63e52f8ab3688f45f842114c	1257815	11.5	practice	slash	7	rectangle	global	RVF	yes	present	1	619
63e52f8ab3688f45f842114c	1260207	11.5	practice	slash	8	rectangle	global	RVF	yes	present	1	558
63e52f8ab3688f45f842114c	1262462	11.5	practice	slash	9	absent	absent	absent	no	present	0	462
63e52f8ab3688f45f842114c	1264885	11.5	practice	slash	10	square	global	LVF	yes	present	1	505
63e52f8ab3688f45f842114c	1267135	11.5	practice	slash	11	rectangle	global	LVF	yes	present	1	413
63e52f8ab3688f45f842114c	1270743	11.5	practice	slash	12	rectangle	local	RVF	yes	present	1	717
63e52f8ab3688f45f842114c	1274695	11.5	practice	slash	13	absent	absent	absent	no	absent	1	2000
63e52f8ab3688f45f842114c	1277375	11.5	practice	slash	14	square	global	RVF	yes	present	1	609
63e52f8ab3688f45f842114c	1279807	11.5	practice	slash	15	rectangle	local	RVF	yes	present	1	389
63e52f8ab3688f45f842114c	1282287	11.5	practice	slash	16	rectangle	local	RVF	yes	present	1	316
63e52f8ab3688f45f842114c	1287413	12.5	main	slash	1	rectangle	global	RVF	yes	present	1	455
63e52f8ab3688f45f842114c	1290676	12.5	main	slash	2	absent	absent	absent	no	absent	1	2000
63e52f8ab3688f45f842114c	1292021	12.5	main	slash	3	rectangle	local	LVF	yes	present	1	425
63e52f8ab3688f45f842114c	1293653	12.5	main	slash	4	rectangle	global	RVF	yes	present	1	323
63e52f8ab3688f45f842114c	1295110	12.5	main	slash	5	square	global	RVF	yes	present	1	295
63e52f8ab3688f45f842114c	1298200	12.5	main	slash	6	absent	absent	absent	no	absent	1	2000
63e52f8ab3688f45f842114c	1301520	12.5	main	slash	7	absent	absent	absent	no	absent	1	2000
63e52f8ab3688f45f842114c	1303253	12.5	main	slash	8	rectangle	local	LVF	yes	present	1	496
63e52f8ab3688f45f842114c	1304781	12.5	main	slash	9	square	local	LVF	yes	present	1	322
63e52f8ab3688f45f842114c	1307960	12.5	main	slash	10	absent	absent	absent	no	absent	1	2000
63e52f8ab3688f45f842114c	1309517	12.5	main	slash	11	rectangle	global	LVF	yes	present	1	453
63e52f8ab3688f45f842114c	1312301	12.5	main	slash	12	absent	absent	absent	no	present	0	1552
63e52f8ab3688f45f842114c	1314445	12.5	main	slash	13	square	global	LVF	yes	present	1	893
63e52f8ab3688f45f842114c	1316125	12.5	main	slash	14	square	local	RVF	yes	present	1	521
63e52f8ab3688f45f842114c	1317917	12.5	main	slash	15	square	global	RVF	yes	present	1	562
63e52f8ab3688f45f842114c	1319557	12.5	main	slash	16	square	global	RVF	yes	present	1	400
63e52f8ab3688f45f842114c	1321069	12.5	main	slash	17	square	global	LVF	yes	present	1	444
63e52f8ab3688f45f842114c	1322453	12.5	main	slash	18	square	local	LVF	yes	present	1	360
63e52f8ab3688f45f842114c	1323941	12.5	main	slash	19	square	global	LVF	yes	present	1	446
63e52f8ab3688f45f842114c	1325462	12.5	main	slash	20	rectangle	local	LVF	yes	present	1	508
63e52f8ab3688f45f842114c	1326869	12.5	main	slash	21	square	local	RVF	yes	present	1	422
63e52f8ab3688f45f842114c	1328277	12.5	main	slash	22	square	local	RVF	yes	present	1	396
63e52f8ab3688f45f842114c	1331500	12.5	main	slash	23	rectangle	local	RVF	yes	absent	0	2000
63e52f8ab3688f45f842114c	1333333	12.5	main	slash	24	rectangle	global	LVF	yes	present	1	462
63e52f8ab3688f45f842114c	1336453	12.5	main	slash	25	rectangle	global	RVF	yes	present	1	346
63e52f8ab3688f45f842114c	1338278	12.5	main	slash	26	square	global	RVF	yes	present	1	486
63e52f8ab3688f45f842114c	1340014	12.5	main	slash	27	rectangle	global	LVF	yes	present	1	403
63e52f8ab3688f45f842114c	1341765	12.5	main	slash	28	rectangle	local	RVF	yes	present	1	452
63e52f8ab3688f45f842114c	1343389	12.5	main	slash	29	rectangle	local	RVF	yes	present	1	441
63e52f8ab3688f45f842114c	1346682	12.5	main	slash	30	absent	absent	absent	no	absent	1	2000
63e52f8ab3688f45f842114c	1348477	12.5	main	slash	31	square	local	LVF	yes	present	1	541
63e52f8ab3688f45f842114c	1350037	12.5	main	slash	32	square	global	LVF	yes	present	1	449
63e52f8ab3688f45f842114c	1351709	12.5	main	slash	33	square	local	LVF	yes	present	1	553
63e52f8ab3688f45f842114c	1353285	12.5	main	slash	34	rectangle	global	RVF	yes	present	1	528
63e52f8ab3688f45f842114c	1356325	12.5	main	slash	35	absent	absent	absent	no	absent	1	2000
63e52f8ab3688f45f842114c	1358205	12.5	main	slash	36	rectangle	local	LVF	yes	present	1	810
63e52f8ab3688f45f842114c	1360485	12.5	main	slash	37	rectangle	global	LVF	yes	present	1	337
63e52f8ab3688f45f842114c	1361941	12.5	main	slash	38	square	local	RVF	yes	present	1	275
63e52f8ab3688f45f842114c	1364309	12.5	main	slash	39	rectangle	local	RVF	yes	present	1	591
63e52f8ab3688f45f842114c	1367503	12.5	main	slash	40	absent	absent	absent	no	absent	1	2000
63e52f8ab3688f45f842114c	1370756	12.5	main	slash	41	absent	absent	absent	no	absent	1	2000
63e52f8ab3688f45f842114c	1372173	12.5	main	slash	42	rectangle	global	RVF	yes	present	1	463
63e52f8ab3688f45f842114c	1375378	12.5	main	slash	43	absent	absent	absent	no	absent	1	2000
63e52f8ab3688f45f842114c	1377565	12.5	main	slash	44	square	local	LVF	yes	present	1	583
63e52f8ab3688f45f842114c	1379229	12.5	main	slash	45	rectangle	global	RVF	yes	present	1	462
63e52f8ab3688f45f842114c	1380789	12.5	main	slash	46	rectangle	global	LVF	yes	present	1	404
63e52f8ab3688f45f842114c	1383903	12.5	main	slash	47	absent	absent	absent	no	absent	1	2000
63e52f8ab3688f45f842114c	1385845	12.5	main	slash	48	square	local	RVF	yes	present	1	606
63e52f8ab3688f45f842114c	1387693	12.5	main	slash	49	rectangle	local	LVF	yes	present	1	651
63e52f8ab3688f45f842114c	1389814	12.5	main	slash	50	rectangle	global	LVF	yes	present	1	520
63e52f8ab3688f45f842114c	1391597	12.5	main	slash	51	rectangle	local	RVF	yes	present	1	602
63e52f8ab3688f45f842114c	1393285	12.5	main	slash	52	rectangle	local	RVF	yes	present	1	521
63e52f8ab3688f45f842114c	1394947	12.5	main	slash	53	absent	absent	absent	no	present	0	504
63e52f8ab3688f45f842114c	1396645	12.5	main	slash	54	square	global	RVF	yes	present	1	611
63e52f8ab3688f45f842114c	1398453	12.5	main	slash	55	square	global	LVF	yes	present	1	534
63e52f8ab3688f45f842114c	1400021	12.5	main	slash	56	rectangle	global	RVF	yes	present	1	333
63e52f8ab3688f45f842114c	1401741	12.5	main	slash	57	square	global	LVF	yes	present	1	419
63e52f8ab3688f45f842114c	1403333	12.5	main	slash	58	square	local	LVF	yes	present	1	459
63e52f8ab3688f45f842114c	1405133	12.5	main	slash	59	square	global	LVF	yes	present	1	607
63e52f8ab3688f45f842114c	1408310	12.5	main	slash	60	absent	absent	absent	no	absent	1	2000
63e52f8ab3688f45f842114c	1410093	12.5	main	slash	61	square	global	LVF	yes	present	1	546
63e52f8ab3688f45f842114c	1412081	12.5	main	slash	62	rectangle	global	LVF	yes	present	1	370
63e52f8ab3688f45f842114c	1413877	12.5	main	slash	63	rectangle	global	RVF	yes	present	1	492
63e52f8ab3688f45f842114c	1415709	12.5	main	slash	64	rectangle	local	RVF	yes	present	1	689
63e52f8ab3688f45f842114c	1418887	12.5	main	slash	65	absent	absent	absent	no	absent	1	2000
63e52f8ab3688f45f842114c	1422189	12.5	main	slash	66	rectangle	global	LVF	yes	present	1	463
63e52f8ab3688f45f842114c	1423772	12.5	main	slash	67	square	global	RVF	yes	present	1	362
63e52f8ab3688f45f842114c	1425397	12.5	main	slash	68	rectangle	local	LVF	yes	present	1	518
63e52f8ab3688f45f842114c	1426989	12.5	main	slash	69	square	local	LVF	yes	present	1	491
63e52f8ab3688f45f842114c	1428477	12.5	main	slash	70	absent	absent	absent	no	present	0	496
63e52f8ab3688f45f842114c	1430165	12.5	main	slash	71	square	local	RVF	yes	present	1	614
63e52f8ab3688f45f842114c	1431765	12.5	main	slash	72	square	local	RVF	yes	present	1	547
63e52f8ab3688f45f842114c	1433397	12.5	main	slash	73	square	global	RVF	yes	present	1	660
63e52f8ab3688f45f842114c	1434853	12.5	main	slash	74	square	global	RVF	yes	present	1	431
63e52f8ab3688f45f842114c	1436605	12.5	main	slash	75	rectangle	local	LVF	yes	present	1	748
63e52f8ab3688f45f842114c	1438581	12.5	main	slash	76	square	local	RVF	yes	present	1	855
63e52f8ab3688f45f842114c	1441627	12.5	main	slash	77	absent	absent	absent	no	absent	1	2000
63e52f8ab3688f45f842114c	1443245	12.5	main	slash	78	square	local	LVF	yes	present	1	448
63e52f8ab3688f45f842114c	1444901	12.5	main	slash	79	rectangle	local	LVF	yes	present	1	536
63e52f8ab3688f45f842114c	1446645	12.5	main	slash	80	rectangle	local	RVF	yes	present	1	544
