build	computer.platform	date	time	timestamp	time_elapsed_ms	subject	group	session	blockcode	blocknum	trialcode	trialnum	stimulus_left	stimulus_right	stim_index	target_present	response	correct	latency
6.6.1	win	2022-11-07	13:48:30	13:51:26	175019	5d10102523f6320017c63e07	564531561	1	practice_slash	5	practice_slash	1	stimuli_distractor_diamondtriangles.svg	stimuli_target_diamondcircles.svg	8	yes	0	0	2003
6.6.1	win	2022-11-07	13:48:30	13:51:26	175019	5d10102523f6320017c63e07	564531561	1	practice_slash	5	advance_on_keypress_SLASH	2	stimuli_distractor_diamondtriangles.svg	stimuli_target_diamondcircles.svg	8	yes	57	0	1169
6.6.1	win	2022-11-07	13:48:30	13:51:30	178497	5d10102523f6320017c63e07	564531561	1	practice_slash	5	practice_slash	3	stimuli_target_squarediamonds.svg	stimuli_distractor_diamondtriangles.svg	2	yes	53	1	676
6.6.1	win	2022-11-07	13:48:30	13:51:30	178497	5d10102523f6320017c63e07	564531561	1	practice_slash	5	advance_on_keypress_SLASH	4	stimuli_target_squarediamonds.svg	stimuli_distractor_diamondtriangles.svg	2	yes	57	0	894
6.6.1	win	2022-11-07	13:48:30	13:51:33	181432	5d10102523f6320017c63e07	564531561	1	practice_slash	5	practice_slash	5	stimuli_target_circlediamonds.svg	stimuli_distractor_diamondtriangles.svg	1	yes	53	1	416
6.6.1	win	2022-11-07	13:48:30	13:51:33	181432	5d10102523f6320017c63e07	564531561	1	practice_slash	5	advance_on_keypress_SLASH	6	stimuli_target_circlediamonds.svg	stimuli_distractor_diamondtriangles.svg	1	yes	57	0	479
6.6.1	win	2022-11-07	13:48:30	13:51:35	184077	5d10102523f6320017c63e07	564531561	1	practice_slash	5	practice_slash	7	stimuli_distractor_diamondtriangles.svg	stimuli_target_circletriangles.svg	7	yes	53	1	540
6.6.1	win	2022-11-07	13:48:30	13:51:35	184077	5d10102523f6320017c63e07	564531561	1	practice_slash	5	advance_on_keypress_SLASH	8	stimuli_distractor_diamondtriangles.svg	stimuli_target_circletriangles.svg	7	yes	57	0	572
6.6.1	win	2022-11-07	13:48:30	13:51:38	187085	5d10102523f6320017c63e07	564531561	1	practice_slash	5	practice_slash	9	stimuli_target_squarediamonds.svg	stimuli_distractor_trianglediamonds.svg	5	yes	53	1	812
6.6.1	win	2022-11-07	13:48:30	13:51:38	187085	5d10102523f6320017c63e07	564531561	1	practice_slash	5	advance_on_keypress_SLASH	10	stimuli_target_squarediamonds.svg	stimuli_distractor_trianglediamonds.svg	5	yes	57	0	473
6.6.1	win	2022-11-07	13:48:30	13:51:42	190536	5d10102523f6320017c63e07	564531561	1	practice_slash	5	practice_slash	11	stimuli_distractor_diamondtriangles.svg	stimuli_distractor_trianglediamonds.svg	14	no	53	0	1361
6.6.1	win	2022-11-07	13:48:30	13:51:42	190536	5d10102523f6320017c63e07	564531561	1	practice_slash	5	advance_on_keypress_SLASH	12	stimuli_distractor_diamondtriangles.svg	stimuli_distractor_trianglediamonds.svg	14	no	57	0	1200
6.6.1	win	2022-11-07	13:48:30	13:51:46	194264	5d10102523f6320017c63e07	564531561	1	practice_slash	5	practice_slash	13	stimuli_distractor_trianglediamonds.svg	stimuli_target_squarediamonds.svg	11	yes	53	1	908
6.6.1	win	2022-11-07	13:48:30	13:51:46	194264	5d10102523f6320017c63e07	564531561	1	practice_slash	5	advance_on_keypress_SLASH	14	stimuli_distractor_trianglediamonds.svg	stimuli_target_squarediamonds.svg	11	yes	57	0	849
6.6.1	win	2022-11-07	13:48:30	13:51:50	198742	5d10102523f6320017c63e07	564531561	1	practice_slash	5	practice_slash	15	stimuli_distractor_trianglediamonds.svg	stimuli_distractor_trianglediamonds.svg	15	no	0	1	2003
6.6.1	win	2022-11-07	13:48:30	13:51:50	198742	5d10102523f6320017c63e07	564531561	1	practice_slash	5	advance_on_keypress_SLASH	16	stimuli_distractor_trianglediamonds.svg	stimuli_distractor_trianglediamonds.svg	15	no	57	0	718
6.6.1	win	2022-11-07	13:48:30	13:51:53	201735	5d10102523f6320017c63e07	564531561	1	practice_slash	5	practice_slash	17	stimuli_distractor_trianglediamonds.svg	stimuli_target_diamondcircles.svg	12	yes	53	1	656
6.6.1	win	2022-11-07	13:48:30	13:51:53	201735	5d10102523f6320017c63e07	564531561	1	practice_slash	5	advance_on_keypress_SLASH	18	stimuli_distractor_trianglediamonds.svg	stimuli_target_diamondcircles.svg	12	yes	57	0	713
6.6.1	win	2022-11-07	13:48:30	13:51:57	205598	5d10102523f6320017c63e07	564531561	1	practice_slash	5	practice_slash	19	stimuli_distractor_diamondtriangles.svg	stimuli_distractor_diamondtriangles.svg	13	no	53	0	1526
6.6.1	win	2022-11-07	13:48:30	13:51:57	205598	5d10102523f6320017c63e07	564531561	1	practice_slash	5	advance_on_keypress_SLASH	20	stimuli_distractor_diamondtriangles.svg	stimuli_distractor_diamondtriangles.svg	13	no	57	0	686
6.6.1	win	2022-11-07	13:48:30	13:52:01	209908	5d10102523f6320017c63e07	564531561	1	practice_slash	5	practice_slash	21	stimuli_target_diamondsquares.svg	stimuli_distractor_trianglediamonds.svg	6	yes	0	0	2003
6.6.1	win	2022-11-07	13:48:30	13:52:01	209908	5d10102523f6320017c63e07	564531561	1	practice_slash	5	advance_on_keypress_SLASH	22	stimuli_target_diamondsquares.svg	stimuli_distractor_trianglediamonds.svg	6	yes	57	0	660
6.6.1	win	2022-11-07	13:48:30	13:52:04	212852	5d10102523f6320017c63e07	564531561	1	practice_slash	5	practice_slash	23	stimuli_target_circlediamonds.svg	stimuli_distractor_trianglediamonds.svg	4	yes	53	1	662
6.6.1	win	2022-11-07	13:48:30	13:52:04	212852	5d10102523f6320017c63e07	564531561	1	practice_slash	5	advance_on_keypress_SLASH	24	stimuli_target_circlediamonds.svg	stimuli_distractor_trianglediamonds.svg	4	yes	57	0	676
6.6.1	win	2022-11-07	13:48:30	13:52:08	216288	5d10102523f6320017c63e07	564531561	1	practice_slash	5	practice_slash	25	stimuli_target_diamondsquares.svg	stimuli_distractor_diamondtriangles.svg	3	yes	53	1	1133
6.6.1	win	2022-11-07	13:48:30	13:52:08	216288	5d10102523f6320017c63e07	564531561	1	practice_slash	5	advance_on_keypress_SLASH	26	stimuli_target_diamondsquares.svg	stimuli_distractor_diamondtriangles.svg	3	yes	57	0	630
6.6.1	win	2022-11-07	13:48:30	13:52:11	219249	5d10102523f6320017c63e07	564531561	1	practice_slash	5	practice_slash	27	stimuli_distractor_diamondtriangles.svg	stimuli_target_trianglecircles.svg	9	yes	53	1	706
6.6.1	win	2022-11-07	13:48:30	13:52:11	219249	5d10102523f6320017c63e07	564531561	1	practice_slash	5	advance_on_keypress_SLASH	28	stimuli_distractor_diamondtriangles.svg	stimuli_target_trianglecircles.svg	9	yes	57	0	551
6.6.1	win	2022-11-07	13:48:30	13:52:14	223146	5d10102523f6320017c63e07	564531561	1	practice_slash	5	practice_slash	29	stimuli_distractor_trianglediamonds.svg	stimuli_distractor_diamondtriangles.svg	16	no	53	0	1720
6.6.1	win	2022-11-07	13:48:30	13:52:14	223146	5d10102523f6320017c63e07	564531561	1	practice_slash	5	advance_on_keypress_SLASH	30	stimuli_distractor_trianglediamonds.svg	stimuli_distractor_diamondtriangles.svg	16	no	57	0	472
6.6.1	win	2022-11-07	13:48:30	13:52:18	226410	5d10102523f6320017c63e07	564531561	1	practice_slash	5	practice_slash	31	stimuli_distractor_trianglediamonds.svg	stimuli_target_circlediamonds.svg	10	yes	53	1	1171
6.6.1	win	2022-11-07	13:48:30	13:52:18	226410	5d10102523f6320017c63e07	564531561	1	practice_slash	5	advance_on_keypress_SLASH	32	stimuli_distractor_trianglediamonds.svg	stimuli_target_circlediamonds.svg	10	yes	57	0	862
6.6.1	win	2022-11-07	13:48:30	13:52:25	233590	5d10102523f6320017c63e07	564531561	1	main_slash	7	main_slash	1	stimuli_distractor_trianglediamonds.svg	stimuli_target_diamondcircles.svg	27	yes	53	1	847
6.6.1	win	2022-11-07	13:48:30	13:52:25	233590	5d10102523f6320017c63e07	564531561	1	main_slash	7	advance_on_keypress_SLASH	2	stimuli_distractor_trianglediamonds.svg	stimuli_target_diamondcircles.svg	27	yes	57	0	1116
6.6.1	win	2022-11-07	13:48:30	13:52:28	236826	5d10102523f6320017c63e07	564531561	1	main_slash	7	main_slash	3	stimuli_target_squarediamonds.svg	stimuli_distractor_diamondtriangles.svg	8	yes	53	1	1500
6.6.1	win	2022-11-07	13:48:30	13:52:28	236826	5d10102523f6320017c63e07	564531561	1	main_slash	7	advance_on_keypress_SLASH	4	stimuli_target_squarediamonds.svg	stimuli_distractor_diamondtriangles.svg	8	yes	57	0	720
6.6.1	win	2022-11-07	13:48:30	13:52:32	240170	5d10102523f6320017c63e07	564531561	1	main_slash	7	main_slash	5	stimuli_distractor_trianglediamonds.svg	stimuli_distractor_trianglediamonds.svg	34	no	0	1	2003
6.6.1	win	2022-11-07	13:48:30	13:52:32	240170	5d10102523f6320017c63e07	564531561	1	main_slash	7	advance_on_keypress_SLASH	6	stimuli_distractor_trianglediamonds.svg	stimuli_distractor_trianglediamonds.svg	34	no	57	0	750
6.6.1	win	2022-11-07	13:48:30	13:52:33	242150	5d10102523f6320017c63e07	564531561	1	main_slash	7	main_slash	7	stimuli_distractor_trianglediamonds.svg	stimuli_target_trianglecircles.svg	25	yes	53	1	608
6.6.1	win	2022-11-07	13:48:30	13:52:33	242150	5d10102523f6320017c63e07	564531561	1	main_slash	7	advance_on_keypress_SLASH	8	stimuli_distractor_trianglediamonds.svg	stimuli_target_trianglecircles.svg	25	yes	57	0	534
6.6.1	win	2022-11-07	13:48:30	13:52:35	244000	5d10102523f6320017c63e07	564531561	1	main_slash	7	main_slash	9	stimuli_target_trianglecircles.svg	stimuli_distractor_trianglediamonds.svg	17	yes	53	1	694
6.6.1	win	2022-11-07	13:48:30	13:52:35	244000	5d10102523f6320017c63e07	564531561	1	main_slash	7	advance_on_keypress_SLASH	10	stimuli_target_trianglecircles.svg	stimuli_distractor_trianglediamonds.svg	17	yes	57	0	479
6.6.1	win	2022-11-07	13:48:30	13:52:38	247101	5d10102523f6320017c63e07	564531561	1	main_slash	7	main_slash	11	stimuli_distractor_diamondtriangles.svg	stimuli_distractor_trianglediamonds.svg	38	no	0	1	2003
6.6.1	win	2022-11-07	13:48:30	13:52:38	247101	5d10102523f6320017c63e07	564531561	1	main_slash	7	advance_on_keypress_SLASH	12	stimuli_distractor_diamondtriangles.svg	stimuli_distractor_trianglediamonds.svg	38	no	57	0	536
6.6.1	win	2022-11-07	13:48:30	13:52:42	250260	5d10102523f6320017c63e07	564531561	1	main_slash	7	main_slash	13	stimuli_distractor_trianglediamonds.svg	stimuli_distractor_diamondtriangles.svg	36	no	0	1	2003
6.6.1	win	2022-11-07	13:48:30	13:52:42	250260	5d10102523f6320017c63e07	564531561	1	main_slash	7	advance_on_keypress_SLASH	14	stimuli_distractor_trianglediamonds.svg	stimuli_distractor_diamondtriangles.svg	36	no	57	0	613
6.6.1	win	2022-11-07	13:48:30	13:52:44	252695	5d10102523f6320017c63e07	564531561	1	main_slash	7	main_slash	15	stimuli_distractor_diamondtriangles.svg	stimuli_target_diamondsquares.svg	32	yes	53	1	1209
6.6.1	win	2022-11-07	13:48:30	13:52:44	252695	5d10102523f6320017c63e07	564531561	1	main_slash	7	advance_on_keypress_SLASH	16	stimuli_distractor_diamondtriangles.svg	stimuli_target_diamondsquares.svg	32	yes	57	0	584
6.6.1	win	2022-11-07	13:48:30	13:52:46	254746	5d10102523f6320017c63e07	564531561	1	main_slash	7	main_slash	17	stimuli_distractor_diamondtriangles.svg	stimuli_target_trianglecircles.svg	29	yes	53	1	850
6.6.1	win	2022-11-07	13:48:30	13:52:46	254746	5d10102523f6320017c63e07	564531561	1	main_slash	7	advance_on_keypress_SLASH	18	stimuli_distractor_diamondtriangles.svg	stimuli_target_trianglecircles.svg	29	yes	57	0	555
6.6.1	win	2022-11-07	13:48:30	13:52:48	256946	5d10102523f6320017c63e07	564531561	1	main_slash	7	main_slash	19	stimuli_distractor_trianglediamonds.svg	stimuli_target_circlediamonds.svg	10	yes	53	1	1029
6.6.1	win	2022-11-07	13:48:30	13:52:48	256946	5d10102523f6320017c63e07	564531561	1	main_slash	7	advance_on_keypress_SLASH	20	stimuli_distractor_trianglediamonds.svg	stimuli_target_circlediamonds.svg	10	yes	57	0	425
6.6.1	win	2022-11-07	13:48:30	13:52:51	259996	5d10102523f6320017c63e07	564531561	1	main_slash	7	main_slash	21	stimuli_target_squaretriangles.svg	stimuli_distractor_trianglediamonds.svg	3	yes	53	1	2002
6.6.1	win	2022-11-07	13:48:30	13:52:51	259996	5d10102523f6320017c63e07	564531561	1	main_slash	7	advance_on_keypress_SLASH	22	stimuli_target_squaretriangles.svg	stimuli_distractor_trianglediamonds.svg	3	yes	57	0	789
6.6.1	win	2022-11-07	13:48:30	13:52:54	262613	5d10102523f6320017c63e07	564531561	1	main_slash	7	main_slash	23	stimuli_distractor_trianglediamonds.svg	stimuli_target_diamondsquares.svg	28	yes	53	1	1210
6.6.1	win	2022-11-07	13:48:30	13:52:54	262613	5d10102523f6320017c63e07	564531561	1	main_slash	7	advance_on_keypress_SLASH	24	stimuli_distractor_trianglediamonds.svg	stimuli_target_diamondsquares.svg	28	yes	57	0	432
6.6.1	win	2022-11-07	13:48:30	13:52:56	264606	5d10102523f6320017c63e07	564531561	1	main_slash	7	main_slash	25	stimuli_distractor_diamondtriangles.svg	stimuli_target_circlediamonds.svg	14	yes	53	1	944
6.6.1	win	2022-11-07	13:48:30	13:52:56	264606	5d10102523f6320017c63e07	564531561	1	main_slash	7	advance_on_keypress_SLASH	26	stimuli_distractor_diamondtriangles.svg	stimuli_target_circlediamonds.svg	14	yes	57	0	369
6.6.1	win	2022-11-07	13:48:30	13:52:58	266764	5d10102523f6320017c63e07	564531561	1	main_slash	7	main_slash	27	stimuli_distractor_trianglediamonds.svg	stimuli_target_trianglesquares.svg	26	yes	53	1	1173
6.6.1	win	2022-11-07	13:48:30	13:52:58	266764	5d10102523f6320017c63e07	564531561	1	main_slash	7	advance_on_keypress_SLASH	28	stimuli_distractor_trianglediamonds.svg	stimuli_target_trianglesquares.svg	26	yes	57	0	410
6.6.1	win	2022-11-07	13:48:30	13:53:01	269795	5d10102523f6320017c63e07	564531561	1	main_slash	7	main_slash	29	stimuli_target_trianglesquares.svg	stimuli_distractor_trianglediamonds.svg	18	yes	0	0	2003
6.6.1	win	2022-11-07	13:48:30	13:53:01	269795	5d10102523f6320017c63e07	564531561	1	main_slash	7	advance_on_keypress_SLASH	30	stimuli_target_trianglesquares.svg	stimuli_distractor_trianglediamonds.svg	18	yes	57	0	519
6.6.1	win	2022-11-07	13:48:30	13:53:04	272167	5d10102523f6320017c63e07	564531561	1	main_slash	7	main_slash	31	stimuli_target_circletriangles.svg	stimuli_distractor_trianglediamonds.svg	1	yes	53	1	1236
6.6.1	win	2022-11-07	13:48:30	13:53:04	272167	5d10102523f6320017c63e07	564531561	1	main_slash	7	advance_on_keypress_SLASH	32	stimuli_target_circletriangles.svg	stimuli_distractor_trianglediamonds.svg	1	yes	57	0	390
6.6.1	win	2022-11-07	13:48:30	13:53:06	274495	5d10102523f6320017c63e07	564531561	1	main_slash	7	main_slash	33	stimuli_distractor_diamondtriangles.svg	stimuli_target_trianglesquares.svg	30	yes	53	1	1321
6.6.1	win	2022-11-07	13:48:30	13:53:06	274495	5d10102523f6320017c63e07	564531561	1	main_slash	7	advance_on_keypress_SLASH	34	stimuli_distractor_diamondtriangles.svg	stimuli_target_trianglesquares.svg	30	yes	57	0	324
6.6.1	win	2022-11-07	13:48:30	13:53:09	277441	5d10102523f6320017c63e07	564531561	1	main_slash	7	main_slash	35	stimuli_distractor_trianglediamonds.svg	stimuli_distractor_diamondtriangles.svg	35	no	0	1	2003
6.6.1	win	2022-11-07	13:48:30	13:53:09	277441	5d10102523f6320017c63e07	564531561	1	main_slash	7	advance_on_keypress_SLASH	36	stimuli_distractor_trianglediamonds.svg	stimuli_distractor_diamondtriangles.svg	35	no	57	0	219
6.6.1	win	2022-11-07	13:48:30	13:53:11	279864	5d10102523f6320017c63e07	564531561	1	main_slash	7	main_slash	37	stimuli_distractor_trianglediamonds.svg	stimuli_distractor_trianglediamonds.svg	33	no	53	0	1579
6.6.1	win	2022-11-07	13:48:30	13:53:11	279864	5d10102523f6320017c63e07	564531561	1	main_slash	7	advance_on_keypress_SLASH	38	stimuli_distractor_trianglediamonds.svg	stimuli_distractor_trianglediamonds.svg	33	no	57	0	386
6.6.1	win	2022-11-07	13:48:30	13:53:13	282078	5d10102523f6320017c63e07	564531561	1	main_slash	7	main_slash	39	stimuli_target_trianglesquares.svg	stimuli_distractor_diamondtriangles.svg	22	yes	53	1	1209
6.6.1	win	2022-11-07	13:48:30	13:53:13	282078	5d10102523f6320017c63e07	564531561	1	main_slash	7	advance_on_keypress_SLASH	40	stimuli_target_trianglesquares.svg	stimuli_distractor_diamondtriangles.svg	22	yes	57	0	371
6.6.1	win	2022-11-07	13:48:30	13:53:16	285073	5d10102523f6320017c63e07	564531561	1	main_slash	7	main_slash	41	stimuli_distractor_trianglediamonds.svg	stimuli_target_circletriangles.svg	9	yes	0	0	2003
6.6.1	win	2022-11-07	13:48:30	13:53:16	285073	5d10102523f6320017c63e07	564531561	1	main_slash	7	advance_on_keypress_SLASH	42	stimuli_distractor_trianglediamonds.svg	stimuli_target_circletriangles.svg	9	yes	57	0	573
6.6.1	win	2022-11-07	13:48:30	13:53:19	287481	5d10102523f6320017c63e07	564531561	1	main_slash	7	main_slash	43	stimuli_target_squaretriangles.svg	stimuli_distractor_diamondtriangles.svg	7	yes	53	1	1210
6.6.1	win	2022-11-07	13:48:30	13:53:19	287481	5d10102523f6320017c63e07	564531561	1	main_slash	7	advance_on_keypress_SLASH	44	stimuli_target_squaretriangles.svg	stimuli_distractor_diamondtriangles.svg	7	yes	57	0	1340
6.6.1	win	2022-11-07	13:48:30	13:53:23	291442	5d10102523f6320017c63e07	564531561	1	main_slash	7	main_slash	45	stimuli_distractor_trianglediamonds.svg	stimuli_target_squaretriangles.svg	11	yes	0	0	2003
6.6.1	win	2022-11-07	13:48:30	13:53:23	291442	5d10102523f6320017c63e07	564531561	1	main_slash	7	advance_on_keypress_SLASH	46	stimuli_distractor_trianglediamonds.svg	stimuli_target_squaretriangles.svg	11	yes	57	0	833
6.6.1	win	2022-11-07	13:48:30	13:53:25	294008	5d10102523f6320017c63e07	564531561	1	main_slash	7	main_slash	47	stimuli_target_diamondcircles.svg	stimuli_distractor_diamondtriangles.svg	23	yes	53	1	1111
6.6.1	win	2022-11-07	13:48:30	13:53:25	294008	5d10102523f6320017c63e07	564531561	1	main_slash	7	advance_on_keypress_SLASH	48	stimuli_target_diamondcircles.svg	stimuli_distractor_diamondtriangles.svg	23	yes	57	0	397
6.6.1	win	2022-11-07	13:48:30	13:53:28	296255	5d10102523f6320017c63e07	564531561	1	main_slash	7	main_slash	49	stimuli_distractor_diamondtriangles.svg	stimuli_target_circletriangles.svg	13	yes	53	1	1233
6.6.1	win	2022-11-07	13:48:30	13:53:28	296255	5d10102523f6320017c63e07	564531561	1	main_slash	7	advance_on_keypress_SLASH	50	stimuli_distractor_diamondtriangles.svg	stimuli_target_circletriangles.svg	13	yes	57	0	313
6.6.1	win	2022-11-07	13:48:30	13:53:31	299192	5d10102523f6320017c63e07	564531561	1	main_slash	7	main_slash	51	stimuli_distractor_diamondtriangles.svg	stimuli_distractor_diamondtriangles.svg	40	no	0	1	2003
6.6.1	win	2022-11-07	13:48:30	13:53:31	299192	5d10102523f6320017c63e07	564531561	1	main_slash	7	advance_on_keypress_SLASH	52	stimuli_distractor_diamondtriangles.svg	stimuli_distractor_diamondtriangles.svg	40	no	57	0	424
6.6.1	win	2022-11-07	13:48:30	13:53:32	301026	5d10102523f6320017c63e07	564531561	1	main_slash	7	main_slash	53	stimuli_target_circlediamonds.svg	stimuli_distractor_diamondtriangles.svg	6	yes	53	1	789
6.6.1	win	2022-11-07	13:48:30	13:53:32	301026	5d10102523f6320017c63e07	564531561	1	main_slash	7	advance_on_keypress_SLASH	54	stimuli_target_circlediamonds.svg	stimuli_distractor_diamondtriangles.svg	6	yes	57	0	367
6.6.1	win	2022-11-07	13:48:30	13:53:35	303537	5d10102523f6320017c63e07	564531561	1	main_slash	7	main_slash	55	stimuli_distractor_diamondtriangles.svg	stimuli_target_squarediamonds.svg	16	yes	53	1	1521
6.6.1	win	2022-11-07	13:48:30	13:53:35	303537	5d10102523f6320017c63e07	564531561	1	main_slash	7	advance_on_keypress_SLASH	56	stimuli_distractor_diamondtriangles.svg	stimuli_target_squarediamonds.svg	16	yes	57	0	323
6.6.1	win	2022-11-07	13:48:30	13:53:37	305252	5d10102523f6320017c63e07	564531561	1	main_slash	7	main_slash	57	stimuli_distractor_diamondtriangles.svg	stimuli_target_diamondcircles.svg	31	yes	53	1	772
6.6.1	win	2022-11-07	13:48:30	13:53:37	305252	5d10102523f6320017c63e07	564531561	1	main_slash	7	advance_on_keypress_SLASH	58	stimuli_distractor_diamondtriangles.svg	stimuli_target_diamondcircles.svg	31	yes	57	0	371
6.6.1	win	2022-11-07	13:48:30	13:53:39	308112	5d10102523f6320017c63e07	564531561	1	main_slash	7	main_slash	59	stimuli_distractor_diamondtriangles.svg	stimuli_distractor_trianglediamonds.svg	37	no	53	0	1868
6.6.1	win	2022-11-07	13:48:30	13:53:39	308112	5d10102523f6320017c63e07	564531561	1	main_slash	7	advance_on_keypress_SLASH	60	stimuli_distractor_diamondtriangles.svg	stimuli_distractor_trianglediamonds.svg	37	no	57	0	269
6.6.1	win	2022-11-07	13:48:30	13:53:41	309895	5d10102523f6320017c63e07	564531561	1	main_slash	7	main_slash	61	stimuli_distractor_diamondtriangles.svg	stimuli_target_squaretriangles.svg	15	yes	53	1	894
6.6.1	win	2022-11-07	13:48:30	13:53:41	309895	5d10102523f6320017c63e07	564531561	1	main_slash	7	advance_on_keypress_SLASH	62	stimuli_distractor_diamondtriangles.svg	stimuli_target_squaretriangles.svg	15	yes	57	0	314
6.6.1	win	2022-11-07	13:48:30	13:53:44	312831	5d10102523f6320017c63e07	564531561	1	main_slash	7	main_slash	63	stimuli_distractor_diamondtriangles.svg	stimuli_distractor_diamondtriangles.svg	39	no	0	1	2003
6.6.1	win	2022-11-07	13:48:30	13:53:44	312831	5d10102523f6320017c63e07	564531561	1	main_slash	7	advance_on_keypress_SLASH	64	stimuli_distractor_diamondtriangles.svg	stimuli_distractor_diamondtriangles.svg	39	no	57	0	842
6.6.1	win	2022-11-07	13:48:30	13:53:46	315035	5d10102523f6320017c63e07	564531561	1	main_slash	7	main_slash	65	stimuli_target_diamondcircles.svg	stimuli_distractor_trianglediamonds.svg	19	yes	53	1	742
6.6.1	win	2022-11-07	13:48:30	13:53:46	315035	5d10102523f6320017c63e07	564531561	1	main_slash	7	advance_on_keypress_SLASH	66	stimuli_target_diamondcircles.svg	stimuli_distractor_trianglediamonds.svg	19	yes	57	0	403
6.6.1	win	2022-11-07	13:48:30	13:53:48	317094	5d10102523f6320017c63e07	564531561	1	main_slash	7	main_slash	67	stimuli_target_squarediamonds.svg	stimuli_distractor_trianglediamonds.svg	4	yes	53	1	1037
6.6.1	win	2022-11-07	13:48:30	13:53:48	317094	5d10102523f6320017c63e07	564531561	1	main_slash	7	advance_on_keypress_SLASH	68	stimuli_target_squarediamonds.svg	stimuli_distractor_trianglediamonds.svg	4	yes	57	0	299
6.6.1	win	2022-11-07	13:48:30	13:53:50	318803	5d10102523f6320017c63e07	564531561	1	main_slash	7	main_slash	69	stimuli_target_circletriangles.svg	stimuli_distractor_diamondtriangles.svg	5	yes	53	1	788
6.6.1	win	2022-11-07	13:48:30	13:53:50	318803	5d10102523f6320017c63e07	564531561	1	main_slash	7	advance_on_keypress_SLASH	70	stimuli_target_circletriangles.svg	stimuli_distractor_diamondtriangles.svg	5	yes	57	0	326
6.6.1	win	2022-11-07	13:48:30	13:53:53	321656	5d10102523f6320017c63e07	564531561	1	main_slash	7	main_slash	71	stimuli_target_diamondsquares.svg	stimuli_distractor_trianglediamonds.svg	20	yes	53	1	1905
6.6.1	win	2022-11-07	13:48:30	13:53:53	321656	5d10102523f6320017c63e07	564531561	1	main_slash	7	advance_on_keypress_SLASH	72	stimuli_target_diamondsquares.svg	stimuli_distractor_trianglediamonds.svg	20	yes	57	0	250
6.6.1	win	2022-11-07	13:48:30	13:53:55	323950	5d10102523f6320017c63e07	564531561	1	main_slash	7	main_slash	73	stimuli_target_diamondsquares.svg	stimuli_distractor_diamondtriangles.svg	24	yes	53	1	1421
6.6.1	win	2022-11-07	13:48:30	13:53:55	323950	5d10102523f6320017c63e07	564531561	1	main_slash	7	advance_on_keypress_SLASH	74	stimuli_target_diamondsquares.svg	stimuli_distractor_diamondtriangles.svg	24	yes	57	0	246
6.6.1	win	2022-11-07	13:48:30	13:53:57	325767	5d10102523f6320017c63e07	564531561	1	main_slash	7	main_slash	75	stimuli_target_circlediamonds.svg	stimuli_distractor_trianglediamonds.svg	2	yes	53	1	946
6.6.1	win	2022-11-07	13:48:30	13:53:57	325767	5d10102523f6320017c63e07	564531561	1	main_slash	7	advance_on_keypress_SLASH	76	stimuli_target_circlediamonds.svg	stimuli_distractor_trianglediamonds.svg	2	yes	57	0	291
6.6.1	win	2022-11-07	13:48:30	13:53:59	327934	5d10102523f6320017c63e07	564531561	1	main_slash	7	main_slash	77	stimuli_distractor_trianglediamonds.svg	stimuli_target_squarediamonds.svg	12	yes	53	1	1259
6.6.1	win	2022-11-07	13:48:30	13:53:59	327934	5d10102523f6320017c63e07	564531561	1	main_slash	7	advance_on_keypress_SLASH	78	stimuli_distractor_trianglediamonds.svg	stimuli_target_squarediamonds.svg	12	yes	57	0	277
6.6.1	win	2022-11-07	13:48:30	13:54:01	329764	5d10102523f6320017c63e07	564531561	1	main_slash	7	main_slash	79	stimuli_target_trianglecircles.svg	stimuli_distractor_diamondtriangles.svg	21	yes	53	1	936
6.6.1	win	2022-11-07	13:48:30	13:54:01	329764	5d10102523f6320017c63e07	564531561	1	main_slash	7	advance_on_keypress_SLASH	80	stimuli_target_trianglecircles.svg	stimuli_distractor_diamondtriangles.svg	21	yes	57	0	295
6.6.1	win	2022-11-07	13:48:30	13:54:03	332146	5d10102523f6320017c63e07	564531561	1	main_slash	7	main_slash	81	stimuli_distractor_trianglediamonds.svg	stimuli_target_circlediamonds.svg	10	yes	53	1	1464
6.6.1	win	2022-11-07	13:48:30	13:54:03	332146	5d10102523f6320017c63e07	564531561	1	main_slash	7	advance_on_keypress_SLASH	82	stimuli_distractor_trianglediamonds.svg	stimuli_target_circlediamonds.svg	10	yes	57	0	261
6.6.1	win	2022-11-07	13:48:30	13:54:05	333902	5d10102523f6320017c63e07	564531561	1	main_slash	7	main_slash	83	stimuli_target_squarediamonds.svg	stimuli_distractor_trianglediamonds.svg	4	yes	53	1	873
6.6.1	win	2022-11-07	13:48:30	13:54:05	333902	5d10102523f6320017c63e07	564531561	1	main_slash	7	advance_on_keypress_SLASH	84	stimuli_target_squarediamonds.svg	stimuli_distractor_trianglediamonds.svg	4	yes	57	0	307
6.6.1	win	2022-11-07	13:48:30	13:54:07	335577	5d10102523f6320017c63e07	564531561	1	main_slash	7	main_slash	85	stimuli_target_trianglecircles.svg	stimuli_distractor_trianglediamonds.svg	17	yes	53	1	749
6.6.1	win	2022-11-07	13:48:30	13:54:07	335577	5d10102523f6320017c63e07	564531561	1	main_slash	7	advance_on_keypress_SLASH	86	stimuli_target_trianglecircles.svg	stimuli_distractor_trianglediamonds.svg	17	yes	57	0	369
6.6.1	win	2022-11-07	13:48:30	13:54:09	337986	5d10102523f6320017c63e07	564531561	1	main_slash	7	main_slash	87	stimuli_distractor_diamondtriangles.svg	stimuli_distractor_diamondtriangles.svg	39	no	53	0	1422
6.6.1	win	2022-11-07	13:48:30	13:54:09	337986	5d10102523f6320017c63e07	564531561	1	main_slash	7	advance_on_keypress_SLASH	88	stimuli_distractor_diamondtriangles.svg	stimuli_distractor_diamondtriangles.svg	39	no	57	0	261
6.6.1	win	2022-11-07	13:48:30	13:54:12	340873	5d10102523f6320017c63e07	564531561	1	main_slash	7	main_slash	89	stimuli_distractor_diamondtriangles.svg	stimuli_distractor_trianglediamonds.svg	38	no	0	1	2003
6.6.1	win	2022-11-07	13:48:30	13:54:12	340873	5d10102523f6320017c63e07	564531561	1	main_slash	7	advance_on_keypress_SLASH	90	stimuli_distractor_diamondtriangles.svg	stimuli_distractor_trianglediamonds.svg	38	no	57	0	454
6.6.1	win	2022-11-07	13:48:30	13:54:14	342897	5d10102523f6320017c63e07	564531561	1	main_slash	7	main_slash	91	stimuli_distractor_diamondtriangles.svg	stimuli_target_diamondcircles.svg	31	yes	53	1	958
6.6.1	win	2022-11-07	13:48:30	13:54:14	342897	5d10102523f6320017c63e07	564531561	1	main_slash	7	advance_on_keypress_SLASH	92	stimuli_distractor_diamondtriangles.svg	stimuli_target_diamondcircles.svg	31	yes	57	0	276
6.6.1	win	2022-11-07	13:48:30	13:54:17	345797	5d10102523f6320017c63e07	564531561	1	main_slash	7	main_slash	93	stimuli_distractor_diamondtriangles.svg	stimuli_target_trianglesquares.svg	30	yes	0	0	2003
6.6.1	win	2022-11-07	13:48:30	13:54:17	345797	5d10102523f6320017c63e07	564531561	1	main_slash	7	advance_on_keypress_SLASH	94	stimuli_distractor_diamondtriangles.svg	stimuli_target_trianglesquares.svg	30	yes	57	0	530
6.6.1	win	2022-11-07	13:48:30	13:54:20	348435	5d10102523f6320017c63e07	564531561	1	main_slash	7	main_slash	95	stimuli_distractor_trianglediamonds.svg	stimuli_target_diamondcircles.svg	27	yes	53	1	1482
6.6.1	win	2022-11-07	13:48:30	13:54:20	348435	5d10102523f6320017c63e07	564531561	1	main_slash	7	advance_on_keypress_SLASH	96	stimuli_distractor_trianglediamonds.svg	stimuli_target_diamondcircles.svg	27	yes	57	0	319
6.6.1	win	2022-11-07	13:48:30	13:54:22	350245	5d10102523f6320017c63e07	564531561	1	main_slash	7	main_slash	97	stimuli_distractor_trianglediamonds.svg	stimuli_target_circletriangles.svg	9	yes	53	1	875
6.6.1	win	2022-11-07	13:48:30	13:54:22	350245	5d10102523f6320017c63e07	564531561	1	main_slash	7	advance_on_keypress_SLASH	98	stimuli_distractor_trianglediamonds.svg	stimuli_target_circletriangles.svg	9	yes	57	0	296
6.6.1	win	2022-11-07	13:48:30	13:54:23	352015	5d10102523f6320017c63e07	564531561	1	main_slash	7	main_slash	99	stimuli_target_circlediamonds.svg	stimuli_distractor_trianglediamonds.svg	2	yes	53	1	853
6.6.1	win	2022-11-07	13:48:30	13:54:23	352015	5d10102523f6320017c63e07	564531561	1	main_slash	7	advance_on_keypress_SLASH	100	stimuli_target_circlediamonds.svg	stimuli_distractor_trianglediamonds.svg	2	yes	57	0	436
6.6.1	win	2022-11-07	13:48:30	13:54:26	354491	5d10102523f6320017c63e07	564531561	1	main_slash	7	main_slash	101	stimuli_distractor_trianglediamonds.svg	stimuli_target_diamondsquares.svg	28	yes	53	1	1420
6.6.1	win	2022-11-07	13:48:30	13:54:26	354491	5d10102523f6320017c63e07	564531561	1	main_slash	7	advance_on_keypress_SLASH	102	stimuli_distractor_trianglediamonds.svg	stimuli_target_diamondsquares.svg	28	yes	57	0	278
6.6.1	win	2022-11-07	13:48:30	13:54:28	356205	5d10102523f6320017c63e07	564531561	1	main_slash	7	main_slash	103	stimuli_target_circletriangles.svg	stimuli_distractor_diamondtriangles.svg	5	yes	53	1	814
6.6.1	win	2022-11-07	13:48:30	13:54:28	356205	5d10102523f6320017c63e07	564531561	1	main_slash	7	advance_on_keypress_SLASH	104	stimuli_target_circletriangles.svg	stimuli_distractor_diamondtriangles.svg	5	yes	57	0	286
6.6.1	win	2022-11-07	13:48:30	13:54:29	357888	5d10102523f6320017c63e07	564531561	1	main_slash	7	main_slash	105	stimuli_target_trianglecircles.svg	stimuli_distractor_diamondtriangles.svg	21	yes	53	1	782
6.6.1	win	2022-11-07	13:48:30	13:54:29	357888	5d10102523f6320017c63e07	564531561	1	main_slash	7	advance_on_keypress_SLASH	106	stimuli_target_trianglecircles.svg	stimuli_distractor_diamondtriangles.svg	21	yes	57	0	286
6.6.1	win	2022-11-07	13:48:30	13:54:31	359524	5d10102523f6320017c63e07	564531561	1	main_slash	7	main_slash	107	stimuli_target_diamondcircles.svg	stimuli_distractor_trianglediamonds.svg	19	yes	53	1	730
6.6.1	win	2022-11-07	13:48:30	13:54:31	359524	5d10102523f6320017c63e07	564531561	1	main_slash	7	advance_on_keypress_SLASH	108	stimuli_target_diamondcircles.svg	stimuli_distractor_trianglediamonds.svg	19	yes	57	0	276
6.6.1	win	2022-11-07	13:48:30	13:54:33	361199	5d10102523f6320017c63e07	564531561	1	main_slash	7	main_slash	109	stimuli_target_diamondcircles.svg	stimuli_distractor_diamondtriangles.svg	23	yes	53	1	781
6.6.1	win	2022-11-07	13:48:30	13:54:33	361199	5d10102523f6320017c63e07	564531561	1	main_slash	7	advance_on_keypress_SLASH	110	stimuli_target_diamondcircles.svg	stimuli_distractor_diamondtriangles.svg	23	yes	57	0	314
6.6.1	win	2022-11-07	13:48:30	13:54:34	363110	5d10102523f6320017c63e07	564531561	1	main_slash	7	main_slash	111	stimuli_distractor_diamondtriangles.svg	stimuli_target_squarediamonds.svg	16	yes	53	1	983
6.6.1	win	2022-11-07	13:48:30	13:54:34	363110	5d10102523f6320017c63e07	564531561	1	main_slash	7	advance_on_keypress_SLASH	112	stimuli_distractor_diamondtriangles.svg	stimuli_target_squarediamonds.svg	16	yes	57	0	272
6.6.1	win	2022-11-07	13:48:30	13:54:36	365094	5d10102523f6320017c63e07	564531561	1	main_slash	7	main_slash	113	stimuli_distractor_trianglediamonds.svg	stimuli_distractor_diamondtriangles.svg	35	no	53	0	1092
6.6.1	win	2022-11-07	13:48:30	13:54:36	365094	5d10102523f6320017c63e07	564531561	1	main_slash	7	advance_on_keypress_SLASH	114	stimuli_distractor_trianglediamonds.svg	stimuli_distractor_diamondtriangles.svg	35	no	57	0	291
6.6.1	win	2022-11-07	13:48:30	13:54:39	367355	5d10102523f6320017c63e07	564531561	1	main_slash	7	main_slash	115	stimuli_distractor_diamondtriangles.svg	stimuli_target_diamondsquares.svg	32	yes	53	1	1353
6.6.1	win	2022-11-07	13:48:30	13:54:39	367355	5d10102523f6320017c63e07	564531561	1	main_slash	7	advance_on_keypress_SLASH	116	stimuli_distractor_diamondtriangles.svg	stimuli_target_diamondsquares.svg	32	yes	57	0	268
6.6.1	win	2022-11-07	13:48:30	13:54:41	369239	5d10102523f6320017c63e07	564531561	1	main_slash	7	main_slash	117	stimuli_distractor_trianglediamonds.svg	stimuli_target_trianglesquares.svg	26	yes	53	1	994
6.6.1	win	2022-11-07	13:48:30	13:54:41	369239	5d10102523f6320017c63e07	564531561	1	main_slash	7	advance_on_keypress_SLASH	118	stimuli_distractor_trianglediamonds.svg	stimuli_target_trianglesquares.svg	26	yes	57	0	324
6.6.1	win	2022-11-07	13:48:30	13:54:42	371137	5d10102523f6320017c63e07	564531561	1	main_slash	7	main_slash	119	stimuli_target_squaretriangles.svg	stimuli_distractor_trianglediamonds.svg	3	yes	53	1	955
6.6.1	win	2022-11-07	13:48:30	13:54:42	371137	5d10102523f6320017c63e07	564531561	1	main_slash	7	advance_on_keypress_SLASH	120	stimuli_target_squaretriangles.svg	stimuli_distractor_trianglediamonds.svg	3	yes	57	0	278
6.6.1	win	2022-11-07	13:48:30	13:54:45	374040	5d10102523f6320017c63e07	564531561	1	main_slash	7	main_slash	121	stimuli_distractor_trianglediamonds.svg	stimuli_target_squarediamonds.svg	12	yes	0	0	2003
6.6.1	win	2022-11-07	13:48:30	13:54:45	374040	5d10102523f6320017c63e07	564531561	1	main_slash	7	advance_on_keypress_SLASH	122	stimuli_distractor_trianglediamonds.svg	stimuli_target_squarediamonds.svg	12	yes	57	0	726
6.6.1	win	2022-11-07	13:48:30	13:54:47	376082	5d10102523f6320017c63e07	564531561	1	main_slash	7	main_slash	123	stimuli_distractor_trianglediamonds.svg	stimuli_target_squaretriangles.svg	11	yes	53	1	691
6.6.1	win	2022-11-07	13:48:30	13:54:47	376082	5d10102523f6320017c63e07	564531561	1	main_slash	7	advance_on_keypress_SLASH	124	stimuli_distractor_trianglediamonds.svg	stimuli_target_squaretriangles.svg	11	yes	57	0	293
6.6.1	win	2022-11-07	13:48:30	13:54:49	377732	5d10102523f6320017c63e07	564531561	1	main_slash	7	main_slash	125	stimuli_distractor_diamondtriangles.svg	stimuli_target_trianglecircles.svg	29	yes	53	1	737
6.6.1	win	2022-11-07	13:48:30	13:54:49	377732	5d10102523f6320017c63e07	564531561	1	main_slash	7	advance_on_keypress_SLASH	126	stimuli_distractor_diamondtriangles.svg	stimuli_target_trianglecircles.svg	29	yes	57	0	282
6.6.1	win	2022-11-07	13:48:30	13:54:51	379366	5d10102523f6320017c63e07	564531561	1	main_slash	7	main_slash	127	stimuli_distractor_trianglediamonds.svg	stimuli_target_trianglecircles.svg	25	yes	53	1	732
6.6.1	win	2022-11-07	13:48:30	13:54:51	379366	5d10102523f6320017c63e07	564531561	1	main_slash	7	advance_on_keypress_SLASH	128	stimuli_distractor_trianglediamonds.svg	stimuli_target_trianglecircles.svg	25	yes	57	0	279
6.6.1	win	2022-11-07	13:48:30	13:54:53	381224	5d10102523f6320017c63e07	564531561	1	main_slash	7	main_slash	129	stimuli_target_squaretriangles.svg	stimuli_distractor_diamondtriangles.svg	7	yes	53	1	965
6.6.1	win	2022-11-07	13:48:30	13:54:53	381224	5d10102523f6320017c63e07	564531561	1	main_slash	7	advance_on_keypress_SLASH	130	stimuli_target_squaretriangles.svg	stimuli_distractor_diamondtriangles.svg	7	yes	57	0	275
6.6.1	win	2022-11-07	13:48:30	13:54:55	383727	5d10102523f6320017c63e07	564531561	1	main_slash	7	main_slash	131	stimuli_distractor_diamondtriangles.svg	stimuli_target_squaretriangles.svg	15	yes	53	1	1607
6.6.1	win	2022-11-07	13:48:30	13:54:55	383727	5d10102523f6320017c63e07	564531561	1	main_slash	7	advance_on_keypress_SLASH	132	stimuli_distractor_diamondtriangles.svg	stimuli_target_squaretriangles.svg	15	yes	57	0	271
6.6.1	win	2022-11-07	13:48:30	13:54:57	385840	5d10102523f6320017c63e07	564531561	1	main_slash	7	main_slash	133	stimuli_target_diamondsquares.svg	stimuli_distractor_diamondtriangles.svg	24	yes	53	1	1227
6.6.1	win	2022-11-07	13:48:30	13:54:57	385840	5d10102523f6320017c63e07	564531561	1	main_slash	7	advance_on_keypress_SLASH	134	stimuli_target_diamondsquares.svg	stimuli_distractor_diamondtriangles.svg	24	yes	57	0	313
6.6.1	win	2022-11-07	13:48:30	13:55:00	388776	5d10102523f6320017c63e07	564531561	1	main_slash	7	main_slash	135	stimuli_distractor_trianglediamonds.svg	stimuli_distractor_diamondtriangles.svg	36	no	0	1	2003
6.6.1	win	2022-11-07	13:48:30	13:55:00	388776	5d10102523f6320017c63e07	564531561	1	main_slash	7	advance_on_keypress_SLASH	136	stimuli_distractor_trianglediamonds.svg	stimuli_distractor_diamondtriangles.svg	36	no	57	0	296
6.6.1	win	2022-11-07	13:48:30	13:55:02	390867	5d10102523f6320017c63e07	564531561	1	main_slash	7	main_slash	137	stimuli_target_squarediamonds.svg	stimuli_distractor_diamondtriangles.svg	8	yes	53	1	1170
6.6.1	win	2022-11-07	13:48:30	13:55:02	390867	5d10102523f6320017c63e07	564531561	1	main_slash	7	advance_on_keypress_SLASH	138	stimuli_target_squarediamonds.svg	stimuli_distractor_diamondtriangles.svg	8	yes	57	0	306
6.6.1	win	2022-11-07	13:48:30	13:55:04	392859	5d10102523f6320017c63e07	564531561	1	main_slash	7	main_slash	139	stimuli_target_circletriangles.svg	stimuli_distractor_trianglediamonds.svg	1	yes	53	1	1065
6.6.1	win	2022-11-07	13:48:30	13:55:04	392859	5d10102523f6320017c63e07	564531561	1	main_slash	7	advance_on_keypress_SLASH	140	stimuli_target_circletriangles.svg	stimuli_distractor_trianglediamonds.svg	1	yes	57	0	319
6.6.1	win	2022-11-07	13:48:30	13:55:06	395133	5d10102523f6320017c63e07	564531561	1	main_slash	7	main_slash	141	stimuli_distractor_diamondtriangles.svg	stimuli_target_circlediamonds.svg	14	yes	53	1	1339
6.6.1	win	2022-11-07	13:48:30	13:55:06	395133	5d10102523f6320017c63e07	564531561	1	main_slash	7	advance_on_keypress_SLASH	142	stimuli_distractor_diamondtriangles.svg	stimuli_target_circlediamonds.svg	14	yes	57	0	531
6.6.1	win	2022-11-07	13:48:30	13:55:10	398291	5d10102523f6320017c63e07	564531561	1	main_slash	7	main_slash	143	stimuli_distractor_trianglediamonds.svg	stimuli_distractor_trianglediamonds.svg	34	no	0	1	2003
6.6.1	win	2022-11-07	13:48:30	13:55:10	398291	5d10102523f6320017c63e07	564531561	1	main_slash	7	advance_on_keypress_SLASH	144	stimuli_distractor_trianglediamonds.svg	stimuli_distractor_trianglediamonds.svg	34	no	57	0	318
6.6.1	win	2022-11-07	13:48:30	13:55:12	400301	5d10102523f6320017c63e07	564531561	1	main_slash	7	main_slash	145	stimuli_target_diamondsquares.svg	stimuli_distractor_trianglediamonds.svg	20	yes	53	1	1069
6.6.1	win	2022-11-07	13:48:30	13:55:12	400301	5d10102523f6320017c63e07	564531561	1	main_slash	7	advance_on_keypress_SLASH	146	stimuli_target_diamondsquares.svg	stimuli_distractor_trianglediamonds.svg	20	yes	57	0	323
6.6.1	win	2022-11-07	13:48:30	13:55:14	402286	5d10102523f6320017c63e07	564531561	1	main_slash	7	main_slash	147	stimuli_target_circlediamonds.svg	stimuli_distractor_diamondtriangles.svg	6	yes	53	1	1040
6.6.1	win	2022-11-07	13:48:30	13:55:14	402286	5d10102523f6320017c63e07	564531561	1	main_slash	7	advance_on_keypress_SLASH	148	stimuli_target_circlediamonds.svg	stimuli_distractor_diamondtriangles.svg	6	yes	57	0	328
6.6.1	win	2022-11-07	13:48:30	13:55:16	404271	5d10102523f6320017c63e07	564531561	1	main_slash	7	main_slash	149	stimuli_distractor_diamondtriangles.svg	stimuli_target_circletriangles.svg	13	yes	53	1	1039
6.6.1	win	2022-11-07	13:48:30	13:55:16	404271	5d10102523f6320017c63e07	564531561	1	main_slash	7	advance_on_keypress_SLASH	150	stimuli_distractor_diamondtriangles.svg	stimuli_target_circletriangles.svg	13	yes	57	0	334
6.6.1	win	2022-11-07	13:48:30	13:55:19	407228	5d10102523f6320017c63e07	564531561	1	main_slash	7	main_slash	151	stimuli_distractor_trianglediamonds.svg	stimuli_distractor_trianglediamonds.svg	33	no	0	1	2003
6.6.1	win	2022-11-07	13:48:30	13:55:19	407228	5d10102523f6320017c63e07	564531561	1	main_slash	7	advance_on_keypress_SLASH	152	stimuli_distractor_trianglediamonds.svg	stimuli_distractor_trianglediamonds.svg	33	no	57	0	309
6.6.1	win	2022-11-07	13:48:30	13:55:22	410166	5d10102523f6320017c63e07	564531561	1	main_slash	7	main_slash	153	stimuli_distractor_diamondtriangles.svg	stimuli_distractor_diamondtriangles.svg	40	no	0	1	2003
6.6.1	win	2022-11-07	13:48:30	13:55:22	410166	5d10102523f6320017c63e07	564531561	1	main_slash	7	advance_on_keypress_SLASH	154	stimuli_distractor_diamondtriangles.svg	stimuli_distractor_diamondtriangles.svg	40	no	57	0	292
6.6.1	win	2022-11-07	13:48:30	13:55:24	412197	5d10102523f6320017c63e07	564531561	1	main_slash	7	main_slash	155	stimuli_target_trianglesquares.svg	stimuli_distractor_trianglediamonds.svg	18	yes	53	1	1118
6.6.1	win	2022-11-07	13:48:30	13:55:24	412197	5d10102523f6320017c63e07	564531561	1	main_slash	7	advance_on_keypress_SLASH	156	stimuli_target_trianglesquares.svg	stimuli_distractor_trianglediamonds.svg	18	yes	57	0	350
6.6.1	win	2022-11-07	13:48:30	13:55:27	415166	5d10102523f6320017c63e07	564531561	1	main_slash	7	main_slash	157	stimuli_distractor_diamondtriangles.svg	stimuli_distractor_trianglediamonds.svg	37	no	0	1	2003
6.6.1	win	2022-11-07	13:48:30	13:55:27	415166	5d10102523f6320017c63e07	564531561	1	main_slash	7	advance_on_keypress_SLASH	158	stimuli_distractor_diamondtriangles.svg	stimuli_distractor_trianglediamonds.svg	37	no	57	0	830
6.6.1	win	2022-11-07	13:48:30	13:55:29	417580	5d10102523f6320017c63e07	564531561	1	main_slash	7	main_slash	159	stimuli_target_trianglesquares.svg	stimuli_distractor_diamondtriangles.svg	22	yes	53	1	959
6.6.1	win	2022-11-07	13:48:30	13:55:29	417580	5d10102523f6320017c63e07	564531561	1	main_slash	7	advance_on_keypress_SLASH	160	stimuli_target_trianglesquares.svg	stimuli_distractor_diamondtriangles.svg	22	yes	57	0	533
6.6.1	win	2022-11-07	13:48:30	13:55:51	439422	5d10102523f6320017c63e07	564531561	1	practice_z	9	practice_z	1	stimuli_target_circlediamonds.svg	stimuli_distractor_trianglediamonds.svg	4	yes	44	1	834
6.6.1	win	2022-11-07	13:48:30	13:55:51	439422	5d10102523f6320017c63e07	564531561	1	practice_z	9	advance_on_keypress_ZEE	2	stimuli_target_circlediamonds.svg	stimuli_distractor_trianglediamonds.svg	4	yes	57	0	958
6.6.1	win	2022-11-07	13:48:30	13:55:55	444009	5d10102523f6320017c63e07	564531561	1	practice_z	9	practice_z	3	stimuli_distractor_trianglediamonds.svg	stimuli_distractor_diamondtriangles.svg	16	no	0	1	2003
6.6.1	win	2022-11-07	13:48:30	13:55:55	444009	5d10102523f6320017c63e07	564531561	1	practice_z	9	advance_on_keypress_ZEE	4	stimuli_distractor_trianglediamonds.svg	stimuli_distractor_diamondtriangles.svg	16	no	57	0	487
6.6.1	win	2022-11-07	13:48:30	13:55:59	448127	5d10102523f6320017c63e07	564531561	1	practice_z	9	practice_z	5	stimuli_distractor_trianglediamonds.svg	stimuli_distractor_trianglediamonds.svg	15	no	0	1	2003
6.6.1	win	2022-11-07	13:48:30	13:55:59	448127	5d10102523f6320017c63e07	564531561	1	practice_z	9	advance_on_keypress_ZEE	6	stimuli_distractor_trianglediamonds.svg	stimuli_distractor_trianglediamonds.svg	15	no	57	0	427
6.6.1	win	2022-11-07	13:48:30	13:56:02	450836	5d10102523f6320017c63e07	564531561	1	practice_z	9	practice_z	7	stimuli_distractor_diamondtriangles.svg	stimuli_target_diamondcircles.svg	8	yes	44	1	656
6.6.1	win	2022-11-07	13:48:30	13:56:02	450836	5d10102523f6320017c63e07	564531561	1	practice_z	9	advance_on_keypress_ZEE	8	stimuli_distractor_diamondtriangles.svg	stimuli_target_diamondcircles.svg	8	yes	57	0	457
6.6.1	win	2022-11-07	13:48:30	13:56:05	454133	5d10102523f6320017c63e07	564531561	1	practice_z	9	practice_z	9	stimuli_distractor_diamondtriangles.svg	stimuli_target_circletriangles.svg	7	yes	44	1	1218
6.6.1	win	2022-11-07	13:48:30	13:56:05	454133	5d10102523f6320017c63e07	564531561	1	practice_z	9	advance_on_keypress_ZEE	10	stimuli_distractor_diamondtriangles.svg	stimuli_target_circletriangles.svg	7	yes	57	0	449
6.6.1	win	2022-11-07	13:48:30	13:56:10	458210	5d10102523f6320017c63e07	564531561	1	practice_z	9	practice_z	11	stimuli_distractor_diamondtriangles.svg	stimuli_distractor_diamondtriangles.svg	13	no	0	1	2003
6.6.1	win	2022-11-07	13:48:30	13:56:10	458210	5d10102523f6320017c63e07	564531561	1	practice_z	9	advance_on_keypress_ZEE	12	stimuli_distractor_diamondtriangles.svg	stimuli_distractor_diamondtriangles.svg	13	no	57	0	517
6.6.1	win	2022-11-07	13:48:30	13:56:13	461771	5d10102523f6320017c63e07	564531561	1	practice_z	9	practice_z	13	stimuli_distractor_diamondtriangles.svg	stimuli_distractor_trianglediamonds.svg	14	no	44	0	1418
6.6.1	win	2022-11-07	13:48:30	13:56:13	461771	5d10102523f6320017c63e07	564531561	1	practice_z	9	advance_on_keypress_ZEE	14	stimuli_distractor_diamondtriangles.svg	stimuli_distractor_trianglediamonds.svg	14	no	57	0	583
6.6.1	win	2022-11-07	13:48:30	13:56:16	464859	5d10102523f6320017c63e07	564531561	1	practice_z	9	practice_z	15	stimuli_distractor_trianglediamonds.svg	stimuli_target_squarediamonds.svg	11	yes	44	1	881
6.6.1	win	2022-11-07	13:48:30	13:56:16	464859	5d10102523f6320017c63e07	564531561	1	practice_z	9	advance_on_keypress_ZEE	16	stimuli_distractor_trianglediamonds.svg	stimuli_target_squarediamonds.svg	11	yes	57	0	675
6.6.1	win	2022-11-07	13:48:30	13:56:20	468359	5d10102523f6320017c63e07	564531561	1	practice_z	9	practice_z	17	stimuli_target_squarediamonds.svg	stimuli_distractor_trianglediamonds.svg	5	yes	44	1	1201
6.6.1	win	2022-11-07	13:48:30	13:56:20	468359	5d10102523f6320017c63e07	564531561	1	practice_z	9	advance_on_keypress_ZEE	18	stimuli_target_squarediamonds.svg	stimuli_distractor_trianglediamonds.svg	5	yes	57	0	667
6.6.1	win	2022-11-07	13:48:30	13:56:23	471252	5d10102523f6320017c63e07	564531561	1	practice_z	9	practice_z	19	stimuli_distractor_trianglediamonds.svg	stimuli_target_diamondcircles.svg	12	yes	44	1	607
6.6.1	win	2022-11-07	13:48:30	13:56:23	471252	5d10102523f6320017c63e07	564531561	1	practice_z	9	advance_on_keypress_ZEE	20	stimuli_distractor_trianglediamonds.svg	stimuli_target_diamondcircles.svg	12	yes	57	0	651
6.6.1	win	2022-11-07	13:48:30	13:56:27	475530	5d10102523f6320017c63e07	564531561	1	practice_z	9	practice_z	21	stimuli_target_diamondsquares.svg	stimuli_distractor_trianglediamonds.svg	6	yes	0	0	2003
6.6.1	win	2022-11-07	13:48:30	13:56:27	475530	5d10102523f6320017c63e07	564531561	1	practice_z	9	advance_on_keypress_ZEE	22	stimuli_target_diamondsquares.svg	stimuli_distractor_trianglediamonds.svg	6	yes	57	0	808
6.6.1	win	2022-11-07	13:48:30	13:56:30	478661	5d10102523f6320017c63e07	564531561	1	practice_z	9	practice_z	23	stimuli_target_diamondsquares.svg	stimuli_distractor_diamondtriangles.svg	3	yes	44	1	703
6.6.1	win	2022-11-07	13:48:30	13:56:30	478661	5d10102523f6320017c63e07	564531561	1	practice_z	9	advance_on_keypress_ZEE	24	stimuli_target_diamondsquares.svg	stimuli_distractor_diamondtriangles.svg	3	yes	57	0	699
6.6.1	win	2022-11-07	13:48:30	13:56:33	481682	5d10102523f6320017c63e07	564531561	1	practice_z	9	practice_z	25	stimuli_target_squarediamonds.svg	stimuli_distractor_diamondtriangles.svg	2	yes	44	1	696
6.6.1	win	2022-11-07	13:48:30	13:56:33	481682	5d10102523f6320017c63e07	564531561	1	practice_z	9	advance_on_keypress_ZEE	26	stimuli_target_squarediamonds.svg	stimuli_distractor_diamondtriangles.svg	2	yes	57	0	523
6.6.1	win	2022-11-07	13:48:30	13:56:36	484764	5d10102523f6320017c63e07	564531561	1	practice_z	9	practice_z	27	stimuli_distractor_trianglediamonds.svg	stimuli_target_circlediamonds.svg	10	yes	44	1	931
6.6.1	win	2022-11-07	13:48:30	13:56:36	484764	5d10102523f6320017c63e07	564531561	1	practice_z	9	advance_on_keypress_ZEE	28	stimuli_distractor_trianglediamonds.svg	stimuli_target_circlediamonds.svg	10	yes	57	0	682
6.6.1	win	2022-11-07	13:48:30	13:56:39	487772	5d10102523f6320017c63e07	564531561	1	practice_z	9	practice_z	29	stimuli_target_circlediamonds.svg	stimuli_distractor_diamondtriangles.svg	1	yes	44	1	696
6.6.1	win	2022-11-07	13:48:30	13:56:39	487772	5d10102523f6320017c63e07	564531561	1	practice_z	9	advance_on_keypress_ZEE	30	stimuli_target_circlediamonds.svg	stimuli_distractor_diamondtriangles.svg	1	yes	57	0	582
6.6.1	win	2022-11-07	13:48:30	13:56:42	490645	5d10102523f6320017c63e07	564531561	1	practice_z	9	practice_z	31	stimuli_distractor_diamondtriangles.svg	stimuli_target_trianglecircles.svg	9	yes	44	1	666
6.6.1	win	2022-11-07	13:48:30	13:56:42	490645	5d10102523f6320017c63e07	564531561	1	practice_z	9	advance_on_keypress_ZEE	32	stimuli_distractor_diamondtriangles.svg	stimuli_target_trianglecircles.svg	9	yes	57	0	574
6.6.1	win	2022-11-07	13:48:30	13:56:48	496431	5d10102523f6320017c63e07	564531561	1	main_z	11	main_z	1	stimuli_distractor_trianglediamonds.svg	stimuli_target_diamondsquares.svg	28	yes	44	1	1121
6.6.1	win	2022-11-07	13:48:30	13:56:48	496431	5d10102523f6320017c63e07	564531561	1	main_z	11	advance_on_keypress_ZEE	2	stimuli_distractor_trianglediamonds.svg	stimuli_target_diamondsquares.svg	28	yes	57	0	1200
6.6.1	win	2022-11-07	13:48:30	13:56:51	499318	5d10102523f6320017c63e07	564531561	1	main_z	11	main_z	3	stimuli_target_diamondsquares.svg	stimuli_distractor_diamondtriangles.svg	24	yes	44	1	1064
6.6.1	win	2022-11-07	13:48:30	13:56:51	499318	5d10102523f6320017c63e07	564531561	1	main_z	11	advance_on_keypress_ZEE	4	stimuli_target_diamondsquares.svg	stimuli_distractor_diamondtriangles.svg	24	yes	57	0	661
6.6.1	win	2022-11-07	13:48:30	13:56:54	502597	5d10102523f6320017c63e07	564531561	1	main_z	11	main_z	5	stimuli_distractor_trianglediamonds.svg	stimuli_target_squaretriangles.svg	11	yes	0	0	2003
6.6.1	win	2022-11-07	13:48:30	13:56:54	502597	5d10102523f6320017c63e07	564531561	1	main_z	11	advance_on_keypress_ZEE	6	stimuli_distractor_trianglediamonds.svg	stimuli_target_squaretriangles.svg	11	yes	57	0	996
6.6.1	win	2022-11-07	13:48:30	13:56:57	505165	5d10102523f6320017c63e07	564531561	1	main_z	11	main_z	7	stimuli_distractor_diamondtriangles.svg	stimuli_target_squaretriangles.svg	15	yes	44	1	959
6.6.1	win	2022-11-07	13:48:30	13:56:57	505165	5d10102523f6320017c63e07	564531561	1	main_z	11	advance_on_keypress_ZEE	8	stimuli_distractor_diamondtriangles.svg	stimuli_target_squaretriangles.svg	15	yes	57	0	465
6.6.1	win	2022-11-07	13:48:30	13:57:00	508250	5d10102523f6320017c63e07	564531561	1	main_z	11	main_z	9	stimuli_target_squaretriangles.svg	stimuli_distractor_diamondtriangles.svg	7	yes	0	0	2003
6.6.1	win	2022-11-07	13:48:30	13:57:00	508250	5d10102523f6320017c63e07	564531561	1	main_z	11	advance_on_keypress_ZEE	10	stimuli_target_squaretriangles.svg	stimuli_distractor_diamondtriangles.svg	7	yes	57	0	328
6.6.1	win	2022-11-07	13:48:30	13:57:01	509725	5d10102523f6320017c63e07	564531561	1	main_z	11	main_z	11	stimuli_distractor_trianglediamonds.svg	stimuli_target_circlediamonds.svg	10	yes	44	1	521
6.6.1	win	2022-11-07	13:48:30	13:57:01	509725	5d10102523f6320017c63e07	564531561	1	main_z	11	advance_on_keypress_ZEE	12	stimuli_distractor_trianglediamonds.svg	stimuli_target_circlediamonds.svg	10	yes	57	0	619
6.6.1	win	2022-11-07	13:48:30	13:57:03	512081	5d10102523f6320017c63e07	564531561	1	main_z	11	main_z	13	stimuli_target_squaretriangles.svg	stimuli_distractor_trianglediamonds.svg	3	yes	44	1	1118
6.6.1	win	2022-11-07	13:48:30	13:57:03	512081	5d10102523f6320017c63e07	564531561	1	main_z	11	advance_on_keypress_ZEE	14	stimuli_target_squaretriangles.svg	stimuli_distractor_trianglediamonds.svg	3	yes	57	0	437
6.6.1	win	2022-11-07	13:48:30	13:57:05	513683	5d10102523f6320017c63e07	564531561	1	main_z	11	main_z	15	stimuli_target_diamondcircles.svg	stimuli_distractor_trianglediamonds.svg	19	yes	44	1	547
6.6.1	win	2022-11-07	13:48:30	13:57:05	513683	5d10102523f6320017c63e07	564531561	1	main_z	11	advance_on_keypress_ZEE	16	stimuli_target_diamondcircles.svg	stimuli_distractor_trianglediamonds.svg	19	yes	57	0	421
6.6.1	win	2022-11-07	13:48:30	13:57:08	516730	5d10102523f6320017c63e07	564531561	1	main_z	11	main_z	17	stimuli_distractor_diamondtriangles.svg	stimuli_distractor_diamondtriangles.svg	39	no	0	1	2003
6.6.1	win	2022-11-07	13:48:30	13:57:08	516730	5d10102523f6320017c63e07	564531561	1	main_z	11	advance_on_keypress_ZEE	18	stimuli_distractor_diamondtriangles.svg	stimuli_distractor_diamondtriangles.svg	39	no	57	0	321
6.6.1	win	2022-11-07	13:48:30	13:57:11	519322	5d10102523f6320017c63e07	564531561	1	main_z	11	main_z	19	stimuli_distractor_diamondtriangles.svg	stimuli_distractor_trianglediamonds.svg	37	no	44	0	1651
6.6.1	win	2022-11-07	13:48:30	13:57:11	519322	5d10102523f6320017c63e07	564531561	1	main_z	11	advance_on_keypress_ZEE	20	stimuli_distractor_diamondtriangles.svg	stimuli_distractor_trianglediamonds.svg	37	no	57	0	401
6.6.1	win	2022-11-07	13:48:30	13:57:13	521172	5d10102523f6320017c63e07	564531561	1	main_z	11	main_z	21	stimuli_target_circlediamonds.svg	stimuli_distractor_diamondtriangles.svg	6	yes	44	1	827
6.6.1	win	2022-11-07	13:48:30	13:57:13	521172	5d10102523f6320017c63e07	564531561	1	main_z	11	advance_on_keypress_ZEE	22	stimuli_target_circlediamonds.svg	stimuli_distractor_diamondtriangles.svg	6	yes	57	0	371
6.6.1	win	2022-11-07	13:48:30	13:57:16	524160	5d10102523f6320017c63e07	564531561	1	main_z	11	main_z	23	stimuli_distractor_trianglediamonds.svg	stimuli_distractor_diamondtriangles.svg	35	no	0	1	2003
6.6.1	win	2022-11-07	13:48:30	13:57:16	524160	5d10102523f6320017c63e07	564531561	1	main_z	11	advance_on_keypress_ZEE	24	stimuli_distractor_trianglediamonds.svg	stimuli_distractor_diamondtriangles.svg	35	no	57	0	325
6.6.1	win	2022-11-07	13:48:30	13:57:17	525875	5d10102523f6320017c63e07	564531561	1	main_z	11	main_z	25	stimuli_distractor_trianglediamonds.svg	stimuli_target_diamondcircles.svg	27	yes	44	1	773
6.6.1	win	2022-11-07	13:48:30	13:57:17	525875	5d10102523f6320017c63e07	564531561	1	main_z	11	advance_on_keypress_ZEE	26	stimuli_distractor_trianglediamonds.svg	stimuli_target_diamondcircles.svg	27	yes	57	0	488
6.6.1	win	2022-11-07	13:48:30	13:57:20	528987	5d10102523f6320017c63e07	564531561	1	main_z	11	main_z	27	stimuli_distractor_diamondtriangles.svg	stimuli_target_trianglesquares.svg	30	yes	0	0	2003
6.6.1	win	2022-11-07	13:48:30	13:57:20	528987	5d10102523f6320017c63e07	564531561	1	main_z	11	advance_on_keypress_ZEE	28	stimuli_distractor_diamondtriangles.svg	stimuli_target_trianglesquares.svg	30	yes	57	0	531
6.6.1	win	2022-11-07	13:48:30	13:57:22	530652	5d10102523f6320017c63e07	564531561	1	main_z	11	main_z	29	stimuli_target_trianglecircles.svg	stimuli_distractor_trianglediamonds.svg	17	yes	44	1	509
6.6.1	win	2022-11-07	13:48:30	13:57:22	530652	5d10102523f6320017c63e07	564531561	1	main_z	11	advance_on_keypress_ZEE	30	stimuli_target_trianglecircles.svg	stimuli_distractor_trianglediamonds.svg	17	yes	57	0	406
6.6.1	win	2022-11-07	13:48:30	13:57:24	532442	5d10102523f6320017c63e07	564531561	1	main_z	11	main_z	31	stimuli_target_trianglesquares.svg	stimuli_distractor_trianglediamonds.svg	18	yes	44	1	764
6.6.1	win	2022-11-07	13:48:30	13:57:24	532442	5d10102523f6320017c63e07	564531561	1	main_z	11	advance_on_keypress_ZEE	32	stimuli_target_trianglesquares.svg	stimuli_distractor_trianglediamonds.svg	18	yes	57	0	430
6.6.1	win	2022-11-07	13:48:30	13:57:25	534010	5d10102523f6320017c63e07	564531561	1	main_z	11	main_z	33	stimuli_target_trianglecircles.svg	stimuli_distractor_diamondtriangles.svg	21	yes	44	1	519
6.6.1	win	2022-11-07	13:48:30	13:57:25	534010	5d10102523f6320017c63e07	564531561	1	main_z	11	advance_on_keypress_ZEE	34	stimuli_target_trianglecircles.svg	stimuli_distractor_diamondtriangles.svg	21	yes	57	0	416
6.6.1	win	2022-11-07	13:48:30	13:57:27	535739	5d10102523f6320017c63e07	564531561	1	main_z	11	main_z	35	stimuli_distractor_trianglediamonds.svg	stimuli_target_trianglecircles.svg	25	yes	44	1	692
6.6.1	win	2022-11-07	13:48:30	13:57:27	535739	5d10102523f6320017c63e07	564531561	1	main_z	11	advance_on_keypress_ZEE	36	stimuli_distractor_trianglediamonds.svg	stimuli_target_trianglecircles.svg	25	yes	57	0	395
6.6.1	win	2022-11-07	13:48:30	13:57:29	537266	5d10102523f6320017c63e07	564531561	1	main_z	11	main_z	37	stimuli_distractor_diamondtriangles.svg	stimuli_target_trianglecircles.svg	29	yes	44	1	511
6.6.1	win	2022-11-07	13:48:30	13:57:29	537266	5d10102523f6320017c63e07	564531561	1	main_z	11	advance_on_keypress_ZEE	38	stimuli_distractor_diamondtriangles.svg	stimuli_target_trianglecircles.svg	29	yes	57	0	335
6.6.1	win	2022-11-07	13:48:30	13:57:31	539393	5d10102523f6320017c63e07	564531561	1	main_z	11	main_z	39	stimuli_distractor_diamondtriangles.svg	stimuli_target_diamondsquares.svg	32	yes	44	1	1173
6.6.1	win	2022-11-07	13:48:30	13:57:31	539393	5d10102523f6320017c63e07	564531561	1	main_z	11	advance_on_keypress_ZEE	40	stimuli_distractor_diamondtriangles.svg	stimuli_target_diamondsquares.svg	32	yes	57	0	760
6.6.1	win	2022-11-07	13:48:30	13:57:33	541432	5d10102523f6320017c63e07	564531561	1	main_z	11	main_z	41	stimuli_distractor_diamondtriangles.svg	stimuli_target_circlediamonds.svg	14	yes	44	1	663
6.6.1	win	2022-11-07	13:48:30	13:57:33	541432	5d10102523f6320017c63e07	564531561	1	main_z	11	advance_on_keypress_ZEE	42	stimuli_distractor_diamondtriangles.svg	stimuli_target_circlediamonds.svg	14	yes	57	0	541
6.6.1	win	2022-11-07	13:48:30	13:57:35	543800	5d10102523f6320017c63e07	564531561	1	main_z	11	main_z	43	stimuli_target_squarediamonds.svg	stimuli_distractor_diamondtriangles.svg	8	yes	44	1	1205
6.6.1	win	2022-11-07	13:48:30	13:57:35	543800	5d10102523f6320017c63e07	564531561	1	main_z	11	advance_on_keypress_ZEE	44	stimuli_target_squarediamonds.svg	stimuli_distractor_diamondtriangles.svg	8	yes	57	0	959
6.6.1	win	2022-11-07	13:48:30	13:57:39	547383	5d10102523f6320017c63e07	564531561	1	main_z	11	main_z	45	stimuli_distractor_trianglediamonds.svg	stimuli_distractor_trianglediamonds.svg	33	no	0	1	2003
6.6.1	win	2022-11-07	13:48:30	13:57:39	547383	5d10102523f6320017c63e07	564531561	1	main_z	11	advance_on_keypress_ZEE	46	stimuli_distractor_trianglediamonds.svg	stimuli_distractor_trianglediamonds.svg	33	no	57	0	377
6.6.1	win	2022-11-07	13:48:30	13:57:40	548994	5d10102523f6320017c63e07	564531561	1	main_z	11	main_z	47	stimuli_distractor_diamondtriangles.svg	stimuli_target_diamondcircles.svg	31	yes	44	1	614
6.6.1	win	2022-11-07	13:48:30	13:57:40	548994	5d10102523f6320017c63e07	564531561	1	main_z	11	advance_on_keypress_ZEE	48	stimuli_distractor_diamondtriangles.svg	stimuli_target_diamondcircles.svg	31	yes	57	0	629
6.6.1	win	2022-11-07	13:48:30	13:57:44	552244	5d10102523f6320017c63e07	564531561	1	main_z	11	main_z	49	stimuli_distractor_diamondtriangles.svg	stimuli_distractor_diamondtriangles.svg	40	no	0	1	2003
6.6.1	win	2022-11-07	13:48:30	13:57:44	552244	5d10102523f6320017c63e07	564531561	1	main_z	11	advance_on_keypress_ZEE	50	stimuli_distractor_diamondtriangles.svg	stimuli_distractor_diamondtriangles.svg	40	no	57	0	487
6.6.1	win	2022-11-07	13:48:30	13:57:45	553913	5d10102523f6320017c63e07	564531561	1	main_z	11	main_z	51	stimuli_target_trianglesquares.svg	stimuli_distractor_diamondtriangles.svg	22	yes	44	1	561
6.6.1	win	2022-11-07	13:48:30	13:57:45	553913	5d10102523f6320017c63e07	564531561	1	main_z	11	advance_on_keypress_ZEE	52	stimuli_target_trianglesquares.svg	stimuli_distractor_diamondtriangles.svg	22	yes	57	0	738
6.6.1	win	2022-11-07	13:48:30	13:57:47	555885	5d10102523f6320017c63e07	564531561	1	main_z	11	main_z	53	stimuli_target_diamondsquares.svg	stimuli_distractor_trianglediamonds.svg	20	yes	44	1	616
6.6.1	win	2022-11-07	13:48:30	13:57:47	555885	5d10102523f6320017c63e07	564531561	1	main_z	11	advance_on_keypress_ZEE	54	stimuli_target_diamondsquares.svg	stimuli_distractor_trianglediamonds.svg	20	yes	57	0	677
6.6.1	win	2022-11-07	13:48:30	13:57:49	557782	5d10102523f6320017c63e07	564531561	1	main_z	11	main_z	55	stimuli_target_squarediamonds.svg	stimuli_distractor_trianglediamonds.svg	4	yes	44	1	597
6.6.1	win	2022-11-07	13:48:30	13:57:49	557782	5d10102523f6320017c63e07	564531561	1	main_z	11	advance_on_keypress_ZEE	56	stimuli_target_squarediamonds.svg	stimuli_distractor_trianglediamonds.svg	4	yes	57	0	726
6.6.1	win	2022-11-07	13:48:30	13:57:51	559713	5d10102523f6320017c63e07	564531561	1	main_z	11	main_z	57	stimuli_distractor_trianglediamonds.svg	stimuli_target_circletriangles.svg	9	yes	44	1	583
6.6.1	win	2022-11-07	13:48:30	13:57:51	559713	5d10102523f6320017c63e07	564531561	1	main_z	11	advance_on_keypress_ZEE	58	stimuli_distractor_trianglediamonds.svg	stimuli_target_circletriangles.svg	9	yes	57	0	660
6.6.1	win	2022-11-07	13:48:30	13:57:54	562994	5d10102523f6320017c63e07	564531561	1	main_z	11	main_z	59	stimuli_distractor_trianglediamonds.svg	stimuli_distractor_diamondtriangles.svg	36	no	0	1	2003
6.6.1	win	2022-11-07	13:48:30	13:57:54	562994	5d10102523f6320017c63e07	564531561	1	main_z	11	advance_on_keypress_ZEE	60	stimuli_distractor_trianglediamonds.svg	stimuli_distractor_diamondtriangles.svg	36	no	57	0	570
6.6.1	win	2022-11-07	13:48:30	13:57:56	564800	5d10102523f6320017c63e07	564531561	1	main_z	11	main_z	61	stimuli_distractor_trianglediamonds.svg	stimuli_target_trianglesquares.svg	26	yes	44	1	614
6.6.1	win	2022-11-07	13:48:30	13:57:56	564800	5d10102523f6320017c63e07	564531561	1	main_z	11	advance_on_keypress_ZEE	62	stimuli_distractor_trianglediamonds.svg	stimuli_target_trianglesquares.svg	26	yes	57	0	549
6.6.1	win	2022-11-07	13:48:30	13:57:58	566523	5d10102523f6320017c63e07	564531561	1	main_z	11	main_z	63	stimuli_distractor_diamondtriangles.svg	stimuli_distractor_trianglediamonds.svg	38	no	44	0	553
6.6.1	win	2022-11-07	13:48:30	13:57:58	566523	5d10102523f6320017c63e07	564531561	1	main_z	11	advance_on_keypress_ZEE	64	stimuli_distractor_diamondtriangles.svg	stimuli_distractor_trianglediamonds.svg	38	no	57	0	629
6.6.1	win	2022-11-07	13:48:30	13:58:00	568420	5d10102523f6320017c63e07	564531561	1	main_z	11	main_z	65	stimuli_target_diamondcircles.svg	stimuli_distractor_diamondtriangles.svg	23	yes	44	1	644
6.6.1	win	2022-11-07	13:48:30	13:58:00	568420	5d10102523f6320017c63e07	564531561	1	main_z	11	advance_on_keypress_ZEE	66	stimuli_target_diamondcircles.svg	stimuli_distractor_diamondtriangles.svg	23	yes	57	0	469
6.6.1	win	2022-11-07	13:48:30	13:58:01	570144	5d10102523f6320017c63e07	564531561	1	main_z	11	main_z	67	stimuli_target_circletriangles.svg	stimuli_distractor_diamondtriangles.svg	5	yes	44	1	632
6.6.1	win	2022-11-07	13:48:30	13:58:01	570144	5d10102523f6320017c63e07	564531561	1	main_z	11	advance_on_keypress_ZEE	68	stimuli_target_circletriangles.svg	stimuli_distractor_diamondtriangles.svg	5	yes	57	0	422
6.6.1	win	2022-11-07	13:48:30	13:58:05	573189	5d10102523f6320017c63e07	564531561	1	main_z	11	main_z	69	stimuli_distractor_trianglediamonds.svg	stimuli_target_squarediamonds.svg	12	yes	0	0	2003
6.6.1	win	2022-11-07	13:48:30	13:58:05	573189	5d10102523f6320017c63e07	564531561	1	main_z	11	advance_on_keypress_ZEE	70	stimuli_distractor_trianglediamonds.svg	stimuli_target_squarediamonds.svg	12	yes	57	0	569
6.6.1	win	2022-11-07	13:48:30	13:58:06	574974	5d10102523f6320017c63e07	564531561	1	main_z	11	main_z	71	stimuli_target_circletriangles.svg	stimuli_distractor_trianglediamonds.svg	1	yes	44	1	594
6.6.1	win	2022-11-07	13:48:30	13:58:06	574974	5d10102523f6320017c63e07	564531561	1	main_z	11	advance_on_keypress_ZEE	72	stimuli_target_circletriangles.svg	stimuli_distractor_trianglediamonds.svg	1	yes	57	0	582
6.6.1	win	2022-11-07	13:48:30	13:58:08	576931	5d10102523f6320017c63e07	564531561	1	main_z	11	main_z	73	stimuli_distractor_diamondtriangles.svg	stimuli_target_circletriangles.svg	13	yes	44	1	752
6.6.1	win	2022-11-07	13:48:30	13:58:08	576931	5d10102523f6320017c63e07	564531561	1	main_z	11	advance_on_keypress_ZEE	74	stimuli_distractor_diamondtriangles.svg	stimuli_target_circletriangles.svg	13	yes	57	0	384
6.6.1	win	2022-11-07	13:48:30	13:58:11	579946	5d10102523f6320017c63e07	564531561	1	main_z	11	main_z	75	stimuli_distractor_trianglediamonds.svg	stimuli_distractor_trianglediamonds.svg	34	no	0	1	2003
6.6.1	win	2022-11-07	13:48:30	13:58:11	579946	5d10102523f6320017c63e07	564531561	1	main_z	11	advance_on_keypress_ZEE	76	stimuli_distractor_trianglediamonds.svg	stimuli_distractor_trianglediamonds.svg	34	no	57	0	547
6.6.1	win	2022-11-07	13:48:30	13:58:13	581964	5d10102523f6320017c63e07	564531561	1	main_z	11	main_z	77	stimuli_distractor_diamondtriangles.svg	stimuli_target_squarediamonds.svg	16	yes	44	1	848
6.6.1	win	2022-11-07	13:48:30	13:58:13	581964	5d10102523f6320017c63e07	564531561	1	main_z	11	advance_on_keypress_ZEE	78	stimuli_distractor_diamondtriangles.svg	stimuli_target_squarediamonds.svg	16	yes	57	0	404
6.6.1	win	2022-11-07	13:48:30	13:58:15	583694	5d10102523f6320017c63e07	564531561	1	main_z	11	main_z	79	stimuli_target_circlediamonds.svg	stimuli_distractor_trianglediamonds.svg	2	yes	44	1	709
6.6.1	win	2022-11-07	13:48:30	13:58:15	583694	5d10102523f6320017c63e07	564531561	1	main_z	11	advance_on_keypress_ZEE	80	stimuli_target_circlediamonds.svg	stimuli_distractor_trianglediamonds.svg	2	yes	57	0	384
6.6.1	win	2022-11-07	13:48:30	13:58:17	585174	5d10102523f6320017c63e07	564531561	1	main_z	11	main_z	81	stimuli_target_diamondcircles.svg	stimuli_distractor_diamondtriangles.svg	23	yes	44	1	481
6.6.1	win	2022-11-07	13:48:30	13:58:17	585174	5d10102523f6320017c63e07	564531561	1	main_z	11	advance_on_keypress_ZEE	82	stimuli_target_diamondcircles.svg	stimuli_distractor_diamondtriangles.svg	23	yes	57	0	399
6.6.1	win	2022-11-07	13:48:30	13:58:20	588196	5d10102523f6320017c63e07	564531561	1	main_z	11	main_z	83	stimuli_distractor_trianglediamonds.svg	stimuli_distractor_trianglediamonds.svg	34	no	0	1	2003
6.6.1	win	2022-11-07	13:48:30	13:58:20	588196	5d10102523f6320017c63e07	564531561	1	main_z	11	advance_on_keypress_ZEE	84	stimuli_distractor_trianglediamonds.svg	stimuli_distractor_trianglediamonds.svg	34	no	57	0	830
6.6.1	win	2022-11-07	13:48:30	13:58:22	590167	5d10102523f6320017c63e07	564531561	1	main_z	11	main_z	85	stimuli_distractor_diamondtriangles.svg	stimuli_target_circlediamonds.svg	14	yes	44	1	515
6.6.1	win	2022-11-07	13:48:30	13:58:22	590167	5d10102523f6320017c63e07	564531561	1	main_z	11	advance_on_keypress_ZEE	86	stimuli_distractor_diamondtriangles.svg	stimuli_target_circlediamonds.svg	14	yes	57	0	392
6.6.1	win	2022-11-07	13:48:30	13:58:23	591822	5d10102523f6320017c63e07	564531561	1	main_z	11	main_z	87	stimuli_target_trianglecircles.svg	stimuli_distractor_diamondtriangles.svg	21	yes	44	1	643
6.6.1	win	2022-11-07	13:48:30	13:58:23	591822	5d10102523f6320017c63e07	564531561	1	main_z	11	advance_on_keypress_ZEE	88	stimuli_target_trianglecircles.svg	stimuli_distractor_diamondtriangles.svg	21	yes	57	0	327
6.6.1	win	2022-11-07	13:48:30	13:58:25	593875	5d10102523f6320017c63e07	564531561	1	main_z	11	main_z	89	stimuli_target_circlediamonds.svg	stimuli_distractor_diamondtriangles.svg	6	yes	44	1	1106
6.6.1	win	2022-11-07	13:48:30	13:58:25	593875	5d10102523f6320017c63e07	564531561	1	main_z	11	advance_on_keypress_ZEE	90	stimuli_target_circlediamonds.svg	stimuli_distractor_diamondtriangles.svg	6	yes	57	0	330
6.6.1	win	2022-11-07	13:48:30	13:58:28	596324	5d10102523f6320017c63e07	564531561	1	main_z	11	main_z	91	stimuli_distractor_trianglediamonds.svg	stimuli_target_squaretriangles.svg	11	yes	44	1	1499
6.6.1	win	2022-11-07	13:48:30	13:58:28	596324	5d10102523f6320017c63e07	564531561	1	main_z	11	advance_on_keypress_ZEE	92	stimuli_distractor_trianglediamonds.svg	stimuli_target_squaretriangles.svg	11	yes	57	0	362
6.6.1	win	2022-11-07	13:48:30	13:58:30	598360	5d10102523f6320017c63e07	564531561	1	main_z	11	main_z	93	stimuli_distractor_trianglediamonds.svg	stimuli_target_diamondsquares.svg	28	yes	44	1	1055
6.6.1	win	2022-11-07	13:48:30	13:58:30	598360	5d10102523f6320017c63e07	564531561	1	main_z	11	advance_on_keypress_ZEE	94	stimuli_distractor_trianglediamonds.svg	stimuli_target_diamondsquares.svg	28	yes	57	0	305
6.6.1	win	2022-11-07	13:48:30	13:58:32	600159	5d10102523f6320017c63e07	564531561	1	main_z	11	main_z	95	stimuli_target_trianglesquares.svg	stimuli_distractor_diamondtriangles.svg	22	yes	44	1	876
6.6.1	win	2022-11-07	13:48:30	13:58:32	600159	5d10102523f6320017c63e07	564531561	1	main_z	11	advance_on_keypress_ZEE	96	stimuli_target_trianglesquares.svg	stimuli_distractor_diamondtriangles.svg	22	yes	57	0	256
6.6.1	win	2022-11-07	13:48:30	13:58:33	602029	5d10102523f6320017c63e07	564531561	1	main_z	11	main_z	97	stimuli_target_squaretriangles.svg	stimuli_distractor_trianglediamonds.svg	3	yes	44	1	996
6.6.1	win	2022-11-07	13:48:30	13:58:33	602029	5d10102523f6320017c63e07	564531561	1	main_z	11	advance_on_keypress_ZEE	98	stimuli_target_squaretriangles.svg	stimuli_distractor_trianglediamonds.svg	3	yes	57	0	340
6.6.1	win	2022-11-07	13:48:30	13:58:36	605002	5d10102523f6320017c63e07	564531561	1	main_z	11	main_z	99	stimuli_distractor_diamondtriangles.svg	stimuli_distractor_diamondtriangles.svg	39	no	0	1	2003
6.6.1	win	2022-11-07	13:48:30	13:58:36	605002	5d10102523f6320017c63e07	564531561	1	main_z	11	advance_on_keypress_ZEE	100	stimuli_distractor_diamondtriangles.svg	stimuli_distractor_diamondtriangles.svg	39	no	57	0	267
6.6.1	win	2022-11-07	13:48:30	13:58:38	606625	5d10102523f6320017c63e07	564531561	1	main_z	11	main_z	101	stimuli_target_squarediamonds.svg	stimuli_distractor_trianglediamonds.svg	4	yes	44	1	730
6.6.1	win	2022-11-07	13:48:30	13:58:38	606625	5d10102523f6320017c63e07	564531561	1	main_z	11	advance_on_keypress_ZEE	102	stimuli_target_squarediamonds.svg	stimuli_distractor_trianglediamonds.svg	4	yes	57	0	371
6.6.1	win	2022-11-07	13:48:30	13:58:40	608160	5d10102523f6320017c63e07	564531561	1	main_z	11	main_z	103	stimuli_target_trianglesquares.svg	stimuli_distractor_trianglediamonds.svg	18	yes	44	1	543
6.6.1	win	2022-11-07	13:48:30	13:58:40	608160	5d10102523f6320017c63e07	564531561	1	main_z	11	advance_on_keypress_ZEE	104	stimuli_target_trianglesquares.svg	stimuli_distractor_trianglediamonds.svg	18	yes	57	0	311
6.6.1	win	2022-11-07	13:48:30	13:58:42	610171	5d10102523f6320017c63e07	564531561	1	main_z	11	main_z	105	stimuli_distractor_trianglediamonds.svg	stimuli_target_squarediamonds.svg	12	yes	44	1	1082
6.6.1	win	2022-11-07	13:48:30	13:58:42	610171	5d10102523f6320017c63e07	564531561	1	main_z	11	advance_on_keypress_ZEE	106	stimuli_distractor_trianglediamonds.svg	stimuli_target_squarediamonds.svg	12	yes	57	0	262
6.6.1	win	2022-11-07	13:48:30	13:58:43	611712	5d10102523f6320017c63e07	564531561	1	main_z	11	main_z	107	stimuli_distractor_diamondtriangles.svg	stimuli_target_squarediamonds.svg	16	yes	44	1	657
6.6.1	win	2022-11-07	13:48:30	13:58:43	611712	5d10102523f6320017c63e07	564531561	1	main_z	11	advance_on_keypress_ZEE	108	stimuli_distractor_diamondtriangles.svg	stimuli_target_squarediamonds.svg	16	yes	57	0	287
6.6.1	win	2022-11-07	13:48:30	13:58:45	613260	5d10102523f6320017c63e07	564531561	1	main_z	11	main_z	109	stimuli_distractor_diamondtriangles.svg	stimuli_target_diamondcircles.svg	31	yes	44	1	635
6.6.1	win	2022-11-07	13:48:30	13:58:45	613260	5d10102523f6320017c63e07	564531561	1	main_z	11	advance_on_keypress_ZEE	110	stimuli_distractor_diamondtriangles.svg	stimuli_target_diamondcircles.svg	31	yes	57	0	272
6.6.1	win	2022-11-07	13:48:30	13:58:46	614733	5d10102523f6320017c63e07	564531561	1	main_z	11	main_z	111	stimuli_target_circletriangles.svg	stimuli_distractor_trianglediamonds.svg	1	yes	44	1	581
6.6.1	win	2022-11-07	13:48:30	13:58:46	614733	5d10102523f6320017c63e07	564531561	1	main_z	11	advance_on_keypress_ZEE	112	stimuli_target_circletriangles.svg	stimuli_distractor_trianglediamonds.svg	1	yes	57	0	273
6.6.1	win	2022-11-07	13:48:30	13:58:48	616321	5d10102523f6320017c63e07	564531561	1	main_z	11	main_z	113	stimuli_target_circletriangles.svg	stimuli_distractor_diamondtriangles.svg	5	yes	44	1	697
6.6.1	win	2022-11-07	13:48:30	13:58:48	616321	5d10102523f6320017c63e07	564531561	1	main_z	11	advance_on_keypress_ZEE	114	stimuli_target_circletriangles.svg	stimuli_distractor_diamondtriangles.svg	5	yes	57	0	265
6.6.1	win	2022-11-07	13:48:30	13:58:49	617761	5d10102523f6320017c63e07	564531561	1	main_z	11	main_z	115	stimuli_target_diamondcircles.svg	stimuli_distractor_trianglediamonds.svg	19	yes	44	1	561
6.6.1	win	2022-11-07	13:48:30	13:58:49	617761	5d10102523f6320017c63e07	564531561	1	main_z	11	advance_on_keypress_ZEE	116	stimuli_target_diamondcircles.svg	stimuli_distractor_trianglediamonds.svg	19	yes	57	0	247
6.6.1	win	2022-11-07	13:48:30	13:58:52	620634	5d10102523f6320017c63e07	564531561	1	main_z	11	main_z	117	stimuli_distractor_diamondtriangles.svg	stimuli_distractor_diamondtriangles.svg	40	no	0	1	2003
6.6.1	win	2022-11-07	13:48:30	13:58:52	620634	5d10102523f6320017c63e07	564531561	1	main_z	11	advance_on_keypress_ZEE	118	stimuli_distractor_diamondtriangles.svg	stimuli_distractor_diamondtriangles.svg	40	no	57	0	325
6.6.1	win	2022-11-07	13:48:30	13:58:53	622121	5d10102523f6320017c63e07	564531561	1	main_z	11	main_z	119	stimuli_target_trianglecircles.svg	stimuli_distractor_trianglediamonds.svg	17	yes	44	1	539
6.6.1	win	2022-11-07	13:48:30	13:58:53	622121	5d10102523f6320017c63e07	564531561	1	main_z	11	advance_on_keypress_ZEE	120	stimuli_target_trianglecircles.svg	stimuli_distractor_trianglediamonds.svg	17	yes	57	0	306
6.6.1	win	2022-11-07	13:48:30	13:58:55	623756	5d10102523f6320017c63e07	564531561	1	main_z	11	main_z	121	stimuli_target_diamondsquares.svg	stimuli_distractor_trianglediamonds.svg	20	yes	44	1	708
6.6.1	win	2022-11-07	13:48:30	13:58:55	623756	5d10102523f6320017c63e07	564531561	1	main_z	11	advance_on_keypress_ZEE	122	stimuli_target_diamondsquares.svg	stimuli_distractor_trianglediamonds.svg	20	yes	57	0	558
6.6.1	win	2022-11-07	13:48:30	13:58:57	625500	5d10102523f6320017c63e07	564531561	1	main_z	11	main_z	123	stimuli_target_squaretriangles.svg	stimuli_distractor_diamondtriangles.svg	7	yes	44	1	570
6.6.1	win	2022-11-07	13:48:30	13:58:57	625500	5d10102523f6320017c63e07	564531561	1	main_z	11	advance_on_keypress_ZEE	124	stimuli_target_squaretriangles.svg	stimuli_distractor_diamondtriangles.svg	7	yes	57	0	328
6.6.1	win	2022-11-07	13:48:30	13:58:58	627080	5d10102523f6320017c63e07	564531561	1	main_z	11	main_z	125	stimuli_distractor_trianglediamonds.svg	stimuli_target_circlediamonds.svg	10	yes	44	1	636
6.6.1	win	2022-11-07	13:48:30	13:58:58	627080	5d10102523f6320017c63e07	564531561	1	main_z	11	advance_on_keypress_ZEE	126	stimuli_distractor_trianglediamonds.svg	stimuli_target_circlediamonds.svg	10	yes	57	0	353
6.6.1	win	2022-11-07	13:48:30	13:59:00	628890	5d10102523f6320017c63e07	564531561	1	main_z	11	main_z	127	stimuli_distractor_diamondtriangles.svg	stimuli_target_squaretriangles.svg	15	yes	44	1	835
6.6.1	win	2022-11-07	13:48:30	13:59:00	628890	5d10102523f6320017c63e07	564531561	1	main_z	11	advance_on_keypress_ZEE	128	stimuli_distractor_diamondtriangles.svg	stimuli_target_squaretriangles.svg	15	yes	57	0	345
6.6.1	win	2022-11-07	13:48:30	13:59:02	630424	5d10102523f6320017c63e07	564531561	1	main_z	11	main_z	129	stimuli_target_diamondsquares.svg	stimuli_distractor_diamondtriangles.svg	24	yes	44	1	571
6.6.1	win	2022-11-07	13:48:30	13:59:02	630424	5d10102523f6320017c63e07	564531561	1	main_z	11	advance_on_keypress_ZEE	130	stimuli_target_diamondsquares.svg	stimuli_distractor_diamondtriangles.svg	24	yes	57	0	297
6.6.1	win	2022-11-07	13:48:30	13:59:03	631740	5d10102523f6320017c63e07	564531561	1	main_z	11	main_z	131	stimuli_distractor_diamondtriangles.svg	stimuli_distractor_trianglediamonds.svg	37	no	44	0	397
6.6.1	win	2022-11-07	13:48:30	13:59:03	631740	5d10102523f6320017c63e07	564531561	1	main_z	11	advance_on_keypress_ZEE	132	stimuli_distractor_diamondtriangles.svg	stimuli_distractor_trianglediamonds.svg	37	no	57	0	1138
6.6.1	win	2022-11-07	13:48:30	13:59:06	634468	5d10102523f6320017c63e07	564531561	1	main_z	11	main_z	133	stimuli_distractor_trianglediamonds.svg	stimuli_target_diamondcircles.svg	27	yes	44	1	969
6.6.1	win	2022-11-07	13:48:30	13:59:06	634468	5d10102523f6320017c63e07	564531561	1	main_z	11	advance_on_keypress_ZEE	134	stimuli_distractor_trianglediamonds.svg	stimuli_target_diamondcircles.svg	27	yes	57	0	353
6.6.1	win	2022-11-07	13:48:30	13:59:07	636036	5d10102523f6320017c63e07	564531561	1	main_z	11	main_z	135	stimuli_distractor_trianglediamonds.svg	stimuli_target_trianglesquares.svg	26	yes	44	1	592
6.6.1	win	2022-11-07	13:48:30	13:59:07	636036	5d10102523f6320017c63e07	564531561	1	main_z	11	advance_on_keypress_ZEE	136	stimuli_distractor_trianglediamonds.svg	stimuli_target_trianglesquares.svg	26	yes	57	0	599
6.6.1	win	2022-11-07	13:48:30	13:59:09	637994	5d10102523f6320017c63e07	564531561	1	main_z	11	main_z	137	stimuli_distractor_trianglediamonds.svg	stimuli_target_trianglecircles.svg	25	yes	44	1	745
6.6.1	win	2022-11-07	13:48:30	13:59:09	637994	5d10102523f6320017c63e07	564531561	1	main_z	11	advance_on_keypress_ZEE	138	stimuli_distractor_trianglediamonds.svg	stimuli_target_trianglecircles.svg	25	yes	57	0	345
6.6.1	win	2022-11-07	13:48:30	13:59:11	639333	5d10102523f6320017c63e07	564531561	1	main_z	11	main_z	139	stimuli_distractor_diamondtriangles.svg	stimuli_target_trianglecircles.svg	29	yes	44	1	375
6.6.1	win	2022-11-07	13:48:30	13:59:11	639333	5d10102523f6320017c63e07	564531561	1	main_z	11	advance_on_keypress_ZEE	140	stimuli_distractor_diamondtriangles.svg	stimuli_target_trianglecircles.svg	29	yes	57	0	390
6.6.1	win	2022-11-07	13:48:30	13:59:12	640941	5d10102523f6320017c63e07	564531561	1	main_z	11	main_z	141	stimuli_distractor_trianglediamonds.svg	stimuli_target_circletriangles.svg	9	yes	44	1	601
6.6.1	win	2022-11-07	13:48:30	13:59:12	640941	5d10102523f6320017c63e07	564531561	1	main_z	11	advance_on_keypress_ZEE	142	stimuli_distractor_trianglediamonds.svg	stimuli_target_circletriangles.svg	9	yes	57	0	447
6.6.1	win	2022-11-07	13:48:30	13:59:15	644017	5d10102523f6320017c63e07	564531561	1	main_z	11	main_z	143	stimuli_distractor_trianglediamonds.svg	stimuli_distractor_trianglediamonds.svg	33	no	0	1	2003
6.6.1	win	2022-11-07	13:48:30	13:59:15	644017	5d10102523f6320017c63e07	564531561	1	main_z	11	advance_on_keypress_ZEE	144	stimuli_distractor_trianglediamonds.svg	stimuli_distractor_trianglediamonds.svg	33	no	57	0	554
6.6.1	win	2022-11-07	13:48:30	13:59:17	645698	5d10102523f6320017c63e07	564531561	1	main_z	11	main_z	145	stimuli_distractor_diamondtriangles.svg	stimuli_target_circletriangles.svg	13	yes	44	1	501
6.6.1	win	2022-11-07	13:48:30	13:59:17	645698	5d10102523f6320017c63e07	564531561	1	main_z	11	advance_on_keypress_ZEE	146	stimuli_distractor_diamondtriangles.svg	stimuli_target_circletriangles.svg	13	yes	57	0	400
6.6.1	win	2022-11-07	13:48:30	13:59:20	648725	5d10102523f6320017c63e07	564531561	1	main_z	11	main_z	147	stimuli_distractor_trianglediamonds.svg	stimuli_distractor_diamondtriangles.svg	36	no	0	1	2003
6.6.1	win	2022-11-07	13:48:30	13:59:20	648725	5d10102523f6320017c63e07	564531561	1	main_z	11	advance_on_keypress_ZEE	148	stimuli_distractor_trianglediamonds.svg	stimuli_distractor_diamondtriangles.svg	36	no	57	0	535
6.6.1	win	2022-11-07	13:48:30	13:59:23	651309	5d10102523f6320017c63e07	564531561	1	main_z	11	main_z	149	stimuli_distractor_trianglediamonds.svg	stimuli_distractor_diamondtriangles.svg	35	no	44	0	1428
6.6.1	win	2022-11-07	13:48:30	13:59:23	651309	5d10102523f6320017c63e07	564531561	1	main_z	11	advance_on_keypress_ZEE	150	stimuli_distractor_trianglediamonds.svg	stimuli_distractor_diamondtriangles.svg	35	no	57	0	327
6.6.1	win	2022-11-07	13:48:30	13:59:24	652797	5d10102523f6320017c63e07	564531561	1	main_z	11	main_z	151	stimuli_target_squarediamonds.svg	stimuli_distractor_diamondtriangles.svg	8	yes	44	1	541
6.6.1	win	2022-11-07	13:48:30	13:59:24	652797	5d10102523f6320017c63e07	564531561	1	main_z	11	advance_on_keypress_ZEE	152	stimuli_target_squarediamonds.svg	stimuli_distractor_diamondtriangles.svg	8	yes	57	0	429
6.6.1	win	2022-11-07	13:48:30	13:59:27	655850	5d10102523f6320017c63e07	564531561	1	main_z	11	main_z	153	stimuli_distractor_diamondtriangles.svg	stimuli_distractor_trianglediamonds.svg	38	no	0	1	2003
6.6.1	win	2022-11-07	13:48:30	13:59:27	655850	5d10102523f6320017c63e07	564531561	1	main_z	11	advance_on_keypress_ZEE	154	stimuli_distractor_diamondtriangles.svg	stimuli_distractor_trianglediamonds.svg	38	no	57	0	603
6.6.1	win	2022-11-07	13:48:30	13:59:29	658106	5d10102523f6320017c63e07	564531561	1	main_z	11	main_z	155	stimuli_distractor_diamondtriangles.svg	stimuli_target_diamondsquares.svg	32	yes	44	1	1030
6.6.1	win	2022-11-07	13:48:30	13:59:29	658106	5d10102523f6320017c63e07	564531561	1	main_z	11	advance_on_keypress_ZEE	156	stimuli_distractor_diamondtriangles.svg	stimuli_target_diamondsquares.svg	32	yes	57	0	384
6.6.1	win	2022-11-07	13:48:30	13:59:31	659687	5d10102523f6320017c63e07	564531561	1	main_z	11	main_z	157	stimuli_distractor_diamondtriangles.svg	stimuli_target_trianglesquares.svg	30	yes	44	1	583
6.6.1	win	2022-11-07	13:48:30	13:59:31	659687	5d10102523f6320017c63e07	564531561	1	main_z	11	advance_on_keypress_ZEE	158	stimuli_distractor_diamondtriangles.svg	stimuli_target_trianglesquares.svg	30	yes	57	0	289
6.6.1	win	2022-11-07	13:48:30	13:59:33	661618	5d10102523f6320017c63e07	564531561	1	main_z	11	main_z	159	stimuli_target_circlediamonds.svg	stimuli_distractor_trianglediamonds.svg	2	yes	44	1	1021
6.6.1	win	2022-11-07	13:48:30	13:59:33	661618	5d10102523f6320017c63e07	564531561	1	main_z	11	advance_on_keypress_ZEE	160	stimuli_target_circlediamonds.svg	stimuli_distractor_trianglediamonds.svg	2	yes	57	0	331