build	computer.platform	date	time	timestamp	time_elapsed_ms	subject	group	session	blockcode	blocknum	trialcode	trialnum	stimulus_left	stimulus_right	stim_index	target_present	response	correct	latency
6.6.1	and	2022-11-07	13:48:37	13:51:45	170782	611195657110219178aa70e1	871721325	1	practice_slash	5	practice_slash	1	stimuli_distractor_diamondtriangles.svg	stimuli_distractor_trianglediamonds.svg	14	no	0	1	2000
6.6.1	and	2022-11-07	13:48:37	13:51:45	170782	611195657110219178aa70e1	871721325	1	practice_slash	5	advance_on_keypress_SLASH	2	stimuli_distractor_diamondtriangles.svg	stimuli_distractor_trianglediamonds.svg	14	no	57	0	1576
6.6.1	and	2022-11-07	13:48:37	13:51:50	176033	611195657110219178aa70e1	871721325	1	practice_slash	5	practice_slash	3	stimuli_target_diamondsquares.svg	stimuli_distractor_diamondtriangles.svg	3	yes	0	0	2000
6.6.1	and	2022-11-07	13:48:37	13:51:50	176033	611195657110219178aa70e1	871721325	1	practice_slash	5	advance_on_keypress_SLASH	4	stimuli_target_diamondsquares.svg	stimuli_distractor_diamondtriangles.svg	3	yes	57	0	690
6.6.1	and	2022-11-07	13:48:37	13:51:53	179220	611195657110219178aa70e1	871721325	1	practice_slash	5	practice_slash	5	stimuli_target_circlediamonds.svg	stimuli_distractor_trianglediamonds.svg	4	yes	53	1	835
6.6.1	and	2022-11-07	13:48:37	13:51:53	179220	611195657110219178aa70e1	871721325	1	practice_slash	5	advance_on_keypress_SLASH	6	stimuli_target_circlediamonds.svg	stimuli_distractor_trianglediamonds.svg	4	yes	57	0	461
6.6.1	and	2022-11-07	13:48:37	13:51:56	181957	611195657110219178aa70e1	871721325	1	practice_slash	5	practice_slash	7	stimuli_target_circlediamonds.svg	stimuli_distractor_diamondtriangles.svg	1	yes	53	1	627
6.6.1	and	2022-11-07	13:48:37	13:51:56	181957	611195657110219178aa70e1	871721325	1	practice_slash	5	advance_on_keypress_SLASH	8	stimuli_target_circlediamonds.svg	stimuli_distractor_diamondtriangles.svg	1	yes	57	0	305
6.6.1	and	2022-11-07	13:48:37	13:52:00	185917	611195657110219178aa70e1	871721325	1	practice_slash	5	practice_slash	9	stimuli_distractor_trianglediamonds.svg	stimuli_distractor_diamondtriangles.svg	16	no	0	1	2000
6.6.1	and	2022-11-07	13:48:37	13:52:00	185917	611195657110219178aa70e1	871721325	1	practice_slash	5	advance_on_keypress_SLASH	10	stimuli_distractor_trianglediamonds.svg	stimuli_distractor_diamondtriangles.svg	16	no	57	0	86
6.6.1	and	2022-11-07	13:48:37	13:52:03	188531	611195657110219178aa70e1	871721325	1	practice_slash	5	practice_slash	11	stimuli_distractor_trianglediamonds.svg	stimuli_target_squarediamonds.svg	11	yes	53	1	873
6.6.1	and	2022-11-07	13:48:37	13:52:03	188531	611195657110219178aa70e1	871721325	1	practice_slash	5	advance_on_keypress_SLASH	12	stimuli_distractor_trianglediamonds.svg	stimuli_target_squarediamonds.svg	11	yes	57	0	552
6.6.1	and	2022-11-07	13:48:37	13:52:06	191586	611195657110219178aa70e1	871721325	1	practice_slash	5	practice_slash	13	stimuli_distractor_diamondtriangles.svg	stimuli_target_diamondcircles.svg	8	yes	53	1	858
6.6.1	and	2022-11-07	13:48:37	13:52:06	191586	611195657110219178aa70e1	871721325	1	practice_slash	5	advance_on_keypress_SLASH	14	stimuli_distractor_diamondtriangles.svg	stimuli_target_diamondcircles.svg	8	yes	57	0	484
6.6.1	and	2022-11-07	13:48:37	13:52:10	195733	611195657110219178aa70e1	871721325	1	practice_slash	5	practice_slash	15	stimuli_distractor_diamondtriangles.svg	stimuli_target_circletriangles.svg	7	yes	0	0	2000
6.6.1	and	2022-11-07	13:48:37	13:52:10	195733	611195657110219178aa70e1	871721325	1	practice_slash	5	advance_on_keypress_SLASH	16	stimuli_distractor_diamondtriangles.svg	stimuli_target_circletriangles.svg	7	yes	57	0	440
6.6.1	and	2022-11-07	13:48:37	13:52:14	199831	611195657110219178aa70e1	871721325	1	practice_slash	5	practice_slash	17	stimuli_distractor_trianglediamonds.svg	stimuli_distractor_trianglediamonds.svg	15	no	0	1	2000
6.6.1	and	2022-11-07	13:48:37	13:52:14	199831	611195657110219178aa70e1	871721325	1	practice_slash	5	advance_on_keypress_SLASH	18	stimuli_distractor_trianglediamonds.svg	stimuli_distractor_trianglediamonds.svg	15	no	57	0	379
6.6.1	and	2022-11-07	13:48:37	13:52:17	202917	611195657110219178aa70e1	871721325	1	practice_slash	5	practice_slash	19	stimuli_distractor_trianglediamonds.svg	stimuli_target_diamondcircles.svg	12	yes	53	1	1056
6.6.1	and	2022-11-07	13:48:37	13:52:17	202917	611195657110219178aa70e1	871721325	1	practice_slash	5	advance_on_keypress_SLASH	20	stimuli_distractor_trianglediamonds.svg	stimuli_target_diamondcircles.svg	12	yes	57	0	593
6.6.1	and	2022-11-07	13:48:37	13:52:21	206681	611195657110219178aa70e1	871721325	1	practice_slash	5	practice_slash	21	stimuli_target_squarediamonds.svg	stimuli_distractor_diamondtriangles.svg	2	yes	53	1	1520
6.6.1	and	2022-11-07	13:48:37	13:52:21	206681	611195657110219178aa70e1	871721325	1	practice_slash	5	advance_on_keypress_SLASH	22	stimuli_target_squarediamonds.svg	stimuli_distractor_diamondtriangles.svg	2	yes	57	0	457
6.6.1	and	2022-11-07	13:48:37	13:52:25	210801	611195657110219178aa70e1	871721325	1	practice_slash	5	practice_slash	23	stimuli_distractor_diamondtriangles.svg	stimuli_distractor_diamondtriangles.svg	13	no	0	1	2000
6.6.1	and	2022-11-07	13:48:37	13:52:25	210801	611195657110219178aa70e1	871721325	1	practice_slash	5	advance_on_keypress_SLASH	24	stimuli_distractor_diamondtriangles.svg	stimuli_distractor_diamondtriangles.svg	13	no	57	0	387
6.6.1	and	2022-11-07	13:48:37	13:52:28	213534	611195657110219178aa70e1	871721325	1	practice_slash	5	practice_slash	25	stimuli_distractor_diamondtriangles.svg	stimuli_target_trianglecircles.svg	9	yes	53	1	675
6.6.1	and	2022-11-07	13:48:37	13:52:28	213534	611195657110219178aa70e1	871721325	1	practice_slash	5	advance_on_keypress_SLASH	26	stimuli_distractor_diamondtriangles.svg	stimuli_target_trianglecircles.svg	9	yes	57	0	479
6.6.1	and	2022-11-07	13:48:37	13:52:31	217242	611195657110219178aa70e1	871721325	1	practice_slash	5	practice_slash	27	stimuli_distractor_trianglediamonds.svg	stimuli_target_circlediamonds.svg	10	yes	53	1	1585
6.6.1	and	2022-11-07	13:48:37	13:52:31	217242	611195657110219178aa70e1	871721325	1	practice_slash	5	advance_on_keypress_SLASH	28	stimuli_distractor_trianglediamonds.svg	stimuli_target_circlediamonds.svg	10	yes	57	0	266
6.6.1	and	2022-11-07	13:48:37	13:52:35	221158	611195657110219178aa70e1	871721325	1	practice_slash	5	practice_slash	29	stimuli_target_diamondsquares.svg	stimuli_distractor_trianglediamonds.svg	6	yes	0	0	2000
6.6.1	and	2022-11-07	13:48:37	13:52:35	221158	611195657110219178aa70e1	871721325	1	practice_slash	5	advance_on_keypress_SLASH	30	stimuli_target_diamondsquares.svg	stimuli_distractor_trianglediamonds.svg	6	yes	57	0	244
6.6.1	and	2022-11-07	13:48:37	13:52:38	223907	611195657110219178aa70e1	871721325	1	practice_slash	5	practice_slash	31	stimuli_target_squarediamonds.svg	stimuli_distractor_trianglediamonds.svg	5	yes	53	1	849
6.6.1	and	2022-11-07	13:48:37	13:52:38	223907	611195657110219178aa70e1	871721325	1	practice_slash	5	advance_on_keypress_SLASH	32	stimuli_target_squarediamonds.svg	stimuli_distractor_trianglediamonds.svg	5	yes	57	0	426
6.6.1	and	2022-11-07	13:48:37	13:52:44	230135	611195657110219178aa70e1	871721325	1	main_slash	7	main_slash	1	stimuli_target_trianglesquares.svg	stimuli_distractor_trianglediamonds.svg	18	yes	53	1	1364
6.6.1	and	2022-11-07	13:48:37	13:52:44	230135	611195657110219178aa70e1	871721325	1	main_slash	7	advance_on_keypress_SLASH	2	stimuli_target_trianglesquares.svg	stimuli_distractor_trianglediamonds.svg	18	yes	57	0	1053
6.6.1	and	2022-11-07	13:48:37	13:52:48	233852	611195657110219178aa70e1	871721325	1	main_slash	7	main_slash	3	stimuli_target_diamondsquares.svg	stimuli_distractor_diamondtriangles.svg	24	yes	0	0	2000
6.6.1	and	2022-11-07	13:48:37	13:52:48	233852	611195657110219178aa70e1	871721325	1	main_slash	7	advance_on_keypress_SLASH	4	stimuli_target_diamondsquares.svg	stimuli_distractor_diamondtriangles.svg	24	yes	57	0	493
6.6.1	and	2022-11-07	13:48:37	13:52:50	235793	611195657110219178aa70e1	871721325	1	main_slash	7	main_slash	5	stimuli_target_squaretriangles.svg	stimuli_distractor_trianglediamonds.svg	3	yes	53	1	794
6.6.1	and	2022-11-07	13:48:37	13:52:50	235793	611195657110219178aa70e1	871721325	1	main_slash	7	advance_on_keypress_SLASH	6	stimuli_target_squaretriangles.svg	stimuli_distractor_trianglediamonds.svg	3	yes	57	0	809
6.6.1	and	2022-11-07	13:48:37	13:52:53	239255	611195657110219178aa70e1	871721325	1	main_slash	7	main_slash	7	stimuli_distractor_diamondtriangles.svg	stimuli_distractor_trianglediamonds.svg	37	no	0	1	2000
6.6.1	and	2022-11-07	13:48:37	13:52:53	239255	611195657110219178aa70e1	871721325	1	main_slash	7	advance_on_keypress_SLASH	8	stimuli_distractor_diamondtriangles.svg	stimuli_distractor_trianglediamonds.svg	37	no	57	0	446
6.6.1	and	2022-11-07	13:48:37	13:52:55	241183	611195657110219178aa70e1	871721325	1	main_slash	7	main_slash	9	stimuli_target_trianglesquares.svg	stimuli_distractor_diamondtriangles.svg	22	yes	53	1	834
6.6.1	and	2022-11-07	13:48:37	13:52:55	241183	611195657110219178aa70e1	871721325	1	main_slash	7	advance_on_keypress_SLASH	10	stimuli_target_trianglesquares.svg	stimuli_distractor_diamondtriangles.svg	22	yes	57	0	542
6.6.1	and	2022-11-07	13:48:37	13:52:58	244367	611195657110219178aa70e1	871721325	1	main_slash	7	main_slash	11	stimuli_distractor_diamondtriangles.svg	stimuli_distractor_diamondtriangles.svg	40	no	0	1	2000
6.6.1	and	2022-11-07	13:48:37	13:52:58	244367	611195657110219178aa70e1	871721325	1	main_slash	7	advance_on_keypress_SLASH	12	stimuli_distractor_diamondtriangles.svg	stimuli_distractor_diamondtriangles.svg	40	no	57	0	355
6.6.1	and	2022-11-07	13:48:37	13:53:00	246162	611195657110219178aa70e1	871721325	1	main_slash	7	main_slash	13	stimuli_distractor_diamondtriangles.svg	stimuli_target_squarediamonds.svg	16	yes	53	1	796
6.6.1	and	2022-11-07	13:48:37	13:53:00	246162	611195657110219178aa70e1	871721325	1	main_slash	7	advance_on_keypress_SLASH	14	stimuli_distractor_diamondtriangles.svg	stimuli_target_squarediamonds.svg	16	yes	57	0	487
6.6.1	and	2022-11-07	13:48:37	13:53:02	248112	611195657110219178aa70e1	871721325	1	main_slash	7	main_slash	15	stimuli_distractor_trianglediamonds.svg	stimuli_target_squarediamonds.svg	12	yes	53	1	817
6.6.1	and	2022-11-07	13:48:37	13:53:02	248112	611195657110219178aa70e1	871721325	1	main_slash	7	advance_on_keypress_SLASH	16	stimuli_distractor_trianglediamonds.svg	stimuli_target_squarediamonds.svg	12	yes	57	0	564
6.6.1	and	2022-11-07	13:48:37	13:53:04	250146	611195657110219178aa70e1	871721325	1	main_slash	7	main_slash	17	stimuli_distractor_diamondtriangles.svg	stimuli_target_squaretriangles.svg	15	yes	53	1	812
6.6.1	and	2022-11-07	13:48:37	13:53:04	250146	611195657110219178aa70e1	871721325	1	main_slash	7	advance_on_keypress_SLASH	18	stimuli_distractor_diamondtriangles.svg	stimuli_target_squaretriangles.svg	15	yes	57	0	475
6.6.1	and	2022-11-07	13:48:37	13:53:06	252093	611195657110219178aa70e1	871721325	1	main_slash	7	main_slash	19	stimuli_target_circlediamonds.svg	stimuli_distractor_trianglediamonds.svg	2	yes	53	1	827
6.6.1	and	2022-11-07	13:48:37	13:53:06	252093	611195657110219178aa70e1	871721325	1	main_slash	7	advance_on_keypress_SLASH	20	stimuli_target_circlediamonds.svg	stimuli_distractor_trianglediamonds.svg	2	yes	57	0	545
6.6.1	and	2022-11-07	13:48:37	13:53:09	255285	611195657110219178aa70e1	871721325	1	main_slash	7	main_slash	21	stimuli_distractor_trianglediamonds.svg	stimuli_distractor_trianglediamonds.svg	34	no	0	1	2000
6.6.1	and	2022-11-07	13:48:37	13:53:09	255285	611195657110219178aa70e1	871721325	1	main_slash	7	advance_on_keypress_SLASH	22	stimuli_distractor_trianglediamonds.svg	stimuli_distractor_trianglediamonds.svg	34	no	57	0	322
6.6.1	and	2022-11-07	13:48:37	13:53:11	256980	611195657110219178aa70e1	871721325	1	main_slash	7	main_slash	23	stimuli_target_squarediamonds.svg	stimuli_distractor_diamondtriangles.svg	8	yes	53	1	715
6.6.1	and	2022-11-07	13:48:37	13:53:11	256980	611195657110219178aa70e1	871721325	1	main_slash	7	advance_on_keypress_SLASH	24	stimuli_target_squarediamonds.svg	stimuli_distractor_diamondtriangles.svg	8	yes	57	0	824
6.6.1	and	2022-11-07	13:48:37	13:53:13	259278	611195657110219178aa70e1	871721325	1	main_slash	7	main_slash	25	stimuli_distractor_trianglediamonds.svg	stimuli_target_circlediamonds.svg	10	yes	53	1	825
6.6.1	and	2022-11-07	13:48:37	13:53:13	259278	611195657110219178aa70e1	871721325	1	main_slash	7	advance_on_keypress_SLASH	26	stimuli_distractor_trianglediamonds.svg	stimuli_target_circlediamonds.svg	10	yes	57	0	550
6.6.1	and	2022-11-07	13:48:37	13:53:17	262482	611195657110219178aa70e1	871721325	1	main_slash	7	main_slash	27	stimuli_target_diamondsquares.svg	stimuli_distractor_trianglediamonds.svg	20	yes	0	0	2000
6.6.1	and	2022-11-07	13:48:37	13:53:17	262482	611195657110219178aa70e1	871721325	1	main_slash	7	advance_on_keypress_SLASH	28	stimuli_target_diamondsquares.svg	stimuli_distractor_trianglediamonds.svg	20	yes	57	0	308
6.6.1	and	2022-11-07	13:48:37	13:53:18	264216	611195657110219178aa70e1	871721325	1	main_slash	7	main_slash	29	stimuli_distractor_diamondtriangles.svg	stimuli_target_diamondsquares.svg	32	yes	53	1	768
6.6.1	and	2022-11-07	13:48:37	13:53:18	264216	611195657110219178aa70e1	871721325	1	main_slash	7	advance_on_keypress_SLASH	30	stimuli_distractor_diamondtriangles.svg	stimuli_target_diamondsquares.svg	32	yes	57	0	878
6.6.1	and	2022-11-07	13:48:37	13:53:22	267746	611195657110219178aa70e1	871721325	1	main_slash	7	main_slash	31	stimuli_distractor_diamondtriangles.svg	stimuli_distractor_trianglediamonds.svg	38	no	0	1	2000
6.6.1	and	2022-11-07	13:48:37	13:53:22	267746	611195657110219178aa70e1	871721325	1	main_slash	7	advance_on_keypress_SLASH	32	stimuli_distractor_diamondtriangles.svg	stimuli_distractor_trianglediamonds.svg	38	no	57	0	367
6.6.1	and	2022-11-07	13:48:37	13:53:24	269591	611195657110219178aa70e1	871721325	1	main_slash	7	main_slash	33	stimuli_distractor_diamondtriangles.svg	stimuli_target_diamondcircles.svg	31	yes	53	1	830
6.6.1	and	2022-11-07	13:48:37	13:53:24	269591	611195657110219178aa70e1	871721325	1	main_slash	7	advance_on_keypress_SLASH	34	stimuli_distractor_diamondtriangles.svg	stimuli_target_diamondcircles.svg	31	yes	57	0	675
6.6.1	and	2022-11-07	13:48:37	13:53:26	271820	611195657110219178aa70e1	871721325	1	main_slash	7	main_slash	35	stimuli_target_circlediamonds.svg	stimuli_distractor_diamondtriangles.svg	6	yes	53	1	912
6.6.1	and	2022-11-07	13:48:37	13:53:26	271820	611195657110219178aa70e1	871721325	1	main_slash	7	advance_on_keypress_SLASH	36	stimuli_target_circlediamonds.svg	stimuli_distractor_diamondtriangles.svg	6	yes	57	0	543
6.6.1	and	2022-11-07	13:48:37	13:53:28	273820	611195657110219178aa70e1	871721325	1	main_slash	7	main_slash	37	stimuli_distractor_diamondtriangles.svg	stimuli_target_circlediamonds.svg	14	yes	53	1	812
6.6.1	and	2022-11-07	13:48:37	13:53:28	273820	611195657110219178aa70e1	871721325	1	main_slash	7	advance_on_keypress_SLASH	38	stimuli_distractor_diamondtriangles.svg	stimuli_target_circlediamonds.svg	14	yes	57	0	533
6.6.1	and	2022-11-07	13:48:37	13:53:30	275960	611195657110219178aa70e1	871721325	1	main_slash	7	main_slash	39	stimuli_distractor_diamondtriangles.svg	stimuli_target_trianglesquares.svg	30	yes	53	1	970
6.6.1	and	2022-11-07	13:48:37	13:53:30	275960	611195657110219178aa70e1	871721325	1	main_slash	7	advance_on_keypress_SLASH	40	stimuli_distractor_diamondtriangles.svg	stimuli_target_trianglesquares.svg	30	yes	57	0	538
6.6.1	and	2022-11-07	13:48:37	13:53:32	278122	611195657110219178aa70e1	871721325	1	main_slash	7	main_slash	41	stimuli_target_squaretriangles.svg	stimuli_distractor_diamondtriangles.svg	7	yes	53	1	980
6.6.1	and	2022-11-07	13:48:37	13:53:32	278122	611195657110219178aa70e1	871721325	1	main_slash	7	advance_on_keypress_SLASH	42	stimuli_target_squaretriangles.svg	stimuli_distractor_diamondtriangles.svg	7	yes	57	0	737
6.6.1	and	2022-11-07	13:48:37	13:53:35	280526	611195657110219178aa70e1	871721325	1	main_slash	7	main_slash	43	stimuli_target_trianglecircles.svg	stimuli_distractor_trianglediamonds.svg	17	yes	53	1	1015
6.6.1	and	2022-11-07	13:48:37	13:53:35	280526	611195657110219178aa70e1	871721325	1	main_slash	7	advance_on_keypress_SLASH	44	stimuli_target_trianglecircles.svg	stimuli_distractor_trianglediamonds.svg	17	yes	57	0	570
6.6.1	and	2022-11-07	13:48:37	13:53:37	282688	611195657110219178aa70e1	871721325	1	main_slash	7	main_slash	45	stimuli_distractor_trianglediamonds.svg	stimuli_target_trianglesquares.svg	26	yes	53	1	965
6.6.1	and	2022-11-07	13:48:37	13:53:37	282688	611195657110219178aa70e1	871721325	1	main_slash	7	advance_on_keypress_SLASH	46	stimuli_distractor_trianglediamonds.svg	stimuli_target_trianglesquares.svg	26	yes	57	0	467
6.6.1	and	2022-11-07	13:48:37	13:53:39	284825	611195657110219178aa70e1	871721325	1	main_slash	7	main_slash	47	stimuli_distractor_trianglediamonds.svg	stimuli_target_circletriangles.svg	9	yes	53	1	1018
6.6.1	and	2022-11-07	13:48:37	13:53:39	284825	611195657110219178aa70e1	871721325	1	main_slash	7	advance_on_keypress_SLASH	48	stimuli_distractor_trianglediamonds.svg	stimuli_target_circletriangles.svg	9	yes	57	0	542
6.6.1	and	2022-11-07	13:48:37	13:53:41	286916	611195657110219178aa70e1	871721325	1	main_slash	7	main_slash	49	stimuli_distractor_trianglediamonds.svg	stimuli_target_squaretriangles.svg	11	yes	53	1	909
6.6.1	and	2022-11-07	13:48:37	13:53:41	286916	611195657110219178aa70e1	871721325	1	main_slash	7	advance_on_keypress_SLASH	50	stimuli_distractor_trianglediamonds.svg	stimuli_target_squaretriangles.svg	11	yes	57	0	440
6.6.1	and	2022-11-07	13:48:37	13:53:43	288972	611195657110219178aa70e1	871721325	1	main_slash	7	main_slash	51	stimuli_distractor_diamondtriangles.svg	stimuli_target_trianglecircles.svg	29	yes	53	1	965
6.6.1	and	2022-11-07	13:48:37	13:53:43	288972	611195657110219178aa70e1	871721325	1	main_slash	7	advance_on_keypress_SLASH	52	stimuli_distractor_diamondtriangles.svg	stimuli_target_trianglecircles.svg	29	yes	57	0	505
6.6.1	and	2022-11-07	13:48:37	13:53:45	291130	611195657110219178aa70e1	871721325	1	main_slash	7	main_slash	53	stimuli_target_circletriangles.svg	stimuli_distractor_trianglediamonds.svg	1	yes	53	1	1005
6.6.1	and	2022-11-07	13:48:37	13:53:45	291130	611195657110219178aa70e1	871721325	1	main_slash	7	advance_on_keypress_SLASH	54	stimuli_target_circletriangles.svg	stimuli_distractor_trianglediamonds.svg	1	yes	57	0	516
6.6.1	and	2022-11-07	13:48:37	13:53:47	293182	611195657110219178aa70e1	871721325	1	main_slash	7	main_slash	55	stimuli_target_circletriangles.svg	stimuli_distractor_diamondtriangles.svg	5	yes	53	1	874
6.6.1	and	2022-11-07	13:48:37	13:53:47	293182	611195657110219178aa70e1	871721325	1	main_slash	7	advance_on_keypress_SLASH	56	stimuli_target_circletriangles.svg	stimuli_distractor_diamondtriangles.svg	5	yes	57	0	667
6.6.1	and	2022-11-07	13:48:37	13:53:49	295391	611195657110219178aa70e1	871721325	1	main_slash	7	main_slash	57	stimuli_distractor_trianglediamonds.svg	stimuli_target_diamondsquares.svg	28	yes	53	1	882
6.6.1	and	2022-11-07	13:48:37	13:53:49	295391	611195657110219178aa70e1	871721325	1	main_slash	7	advance_on_keypress_SLASH	58	stimuli_distractor_trianglediamonds.svg	stimuli_target_diamondsquares.svg	28	yes	57	0	467
6.6.1	and	2022-11-07	13:48:37	13:53:51	297378	611195657110219178aa70e1	871721325	1	main_slash	7	main_slash	59	stimuli_target_diamondcircles.svg	stimuli_distractor_trianglediamonds.svg	19	yes	53	1	870
6.6.1	and	2022-11-07	13:48:37	13:53:51	297378	611195657110219178aa70e1	871721325	1	main_slash	7	advance_on_keypress_SLASH	60	stimuli_target_diamondcircles.svg	stimuli_distractor_trianglediamonds.svg	19	yes	57	0	402
6.6.1	and	2022-11-07	13:48:37	13:53:54	300423	611195657110219178aa70e1	871721325	1	main_slash	7	main_slash	61	stimuli_distractor_trianglediamonds.svg	stimuli_distractor_diamondtriangles.svg	36	no	0	1	2000
6.6.1	and	2022-11-07	13:48:37	13:53:54	300423	611195657110219178aa70e1	871721325	1	main_slash	7	advance_on_keypress_SLASH	62	stimuli_distractor_trianglediamonds.svg	stimuli_distractor_diamondtriangles.svg	36	no	57	0	357
6.6.1	and	2022-11-07	13:48:37	13:53:57	303427	611195657110219178aa70e1	871721325	1	main_slash	7	main_slash	63	stimuli_distractor_trianglediamonds.svg	stimuli_distractor_diamondtriangles.svg	35	no	0	1	2000
6.6.1	and	2022-11-07	13:48:37	13:53:57	303427	611195657110219178aa70e1	871721325	1	main_slash	7	advance_on_keypress_SLASH	64	stimuli_distractor_trianglediamonds.svg	stimuli_distractor_diamondtriangles.svg	35	no	57	0	354
6.6.1	and	2022-11-07	13:48:37	13:53:59	305170	611195657110219178aa70e1	871721325	1	main_slash	7	main_slash	65	stimuli_target_trianglecircles.svg	stimuli_distractor_diamondtriangles.svg	21	yes	53	1	731
6.6.1	and	2022-11-07	13:48:37	13:53:59	305170	611195657110219178aa70e1	871721325	1	main_slash	7	advance_on_keypress_SLASH	66	stimuli_target_trianglecircles.svg	stimuli_distractor_diamondtriangles.svg	21	yes	57	0	542
6.6.1	and	2022-11-07	13:48:37	13:54:02	308360	611195657110219178aa70e1	871721325	1	main_slash	7	main_slash	67	stimuli_distractor_trianglediamonds.svg	stimuli_distractor_trianglediamonds.svg	33	no	0	1	2000
6.6.1	and	2022-11-07	13:48:37	13:54:02	308360	611195657110219178aa70e1	871721325	1	main_slash	7	advance_on_keypress_SLASH	68	stimuli_distractor_trianglediamonds.svg	stimuli_distractor_trianglediamonds.svg	33	no	57	0	334
6.6.1	and	2022-11-07	13:48:37	13:54:05	311342	611195657110219178aa70e1	871721325	1	main_slash	7	main_slash	69	stimuli_distractor_diamondtriangles.svg	stimuli_distractor_diamondtriangles.svg	39	no	0	1	2000
6.6.1	and	2022-11-07	13:48:37	13:54:05	311342	611195657110219178aa70e1	871721325	1	main_slash	7	advance_on_keypress_SLASH	70	stimuli_distractor_diamondtriangles.svg	stimuli_distractor_diamondtriangles.svg	39	no	57	0	434
6.6.1	and	2022-11-07	13:48:37	13:54:07	313308	611195657110219178aa70e1	871721325	1	main_slash	7	main_slash	71	stimuli_target_squarediamonds.svg	stimuli_distractor_trianglediamonds.svg	4	yes	53	1	886
6.6.1	and	2022-11-07	13:48:37	13:54:07	313308	611195657110219178aa70e1	871721325	1	main_slash	7	advance_on_keypress_SLASH	72	stimuli_target_squarediamonds.svg	stimuli_distractor_trianglediamonds.svg	4	yes	57	0	328
6.6.1	and	2022-11-07	13:48:37	13:54:09	315039	611195657110219178aa70e1	871721325	1	main_slash	7	main_slash	73	stimuli_distractor_trianglediamonds.svg	stimuli_target_trianglecircles.svg	25	yes	53	1	754
6.6.1	and	2022-11-07	13:48:37	13:54:09	315039	611195657110219178aa70e1	871721325	1	main_slash	7	advance_on_keypress_SLASH	74	stimuli_distractor_trianglediamonds.svg	stimuli_target_trianglecircles.svg	25	yes	57	0	398
6.6.1	and	2022-11-07	13:48:37	13:54:11	317046	611195657110219178aa70e1	871721325	1	main_slash	7	main_slash	75	stimuli_distractor_diamondtriangles.svg	stimuli_target_circletriangles.svg	13	yes	53	1	961
6.6.1	and	2022-11-07	13:48:37	13:54:11	317046	611195657110219178aa70e1	871721325	1	main_slash	7	advance_on_keypress_SLASH	76	stimuli_distractor_diamondtriangles.svg	stimuli_target_circletriangles.svg	13	yes	57	0	385
6.6.1	and	2022-11-07	13:48:37	13:54:13	319001	611195657110219178aa70e1	871721325	1	main_slash	7	main_slash	77	stimuli_target_diamondcircles.svg	stimuli_distractor_diamondtriangles.svg	23	yes	53	1	916
6.6.1	and	2022-11-07	13:48:37	13:54:13	319001	611195657110219178aa70e1	871721325	1	main_slash	7	advance_on_keypress_SLASH	78	stimuli_target_diamondcircles.svg	stimuli_distractor_diamondtriangles.svg	23	yes	57	0	419
6.6.1	and	2022-11-07	13:48:37	13:54:15	321065	611195657110219178aa70e1	871721325	1	main_slash	7	main_slash	79	stimuli_distractor_trianglediamonds.svg	stimuli_target_diamondcircles.svg	27	yes	53	1	989
6.6.1	and	2022-11-07	13:48:37	13:54:15	321065	611195657110219178aa70e1	871721325	1	main_slash	7	advance_on_keypress_SLASH	80	stimuli_distractor_trianglediamonds.svg	stimuli_target_diamondcircles.svg	27	yes	57	0	490
6.6.1	and	2022-11-07	13:48:37	13:54:18	324205	611195657110219178aa70e1	871721325	1	main_slash	7	main_slash	81	stimuli_distractor_trianglediamonds.svg	stimuli_distractor_trianglediamonds.svg	33	no	0	1	2000
6.6.1	and	2022-11-07	13:48:37	13:54:18	324205	611195657110219178aa70e1	871721325	1	main_slash	7	advance_on_keypress_SLASH	82	stimuli_distractor_trianglediamonds.svg	stimuli_distractor_trianglediamonds.svg	33	no	57	0	394
6.6.1	and	2022-11-07	13:48:37	13:54:20	326112	611195657110219178aa70e1	871721325	1	main_slash	7	main_slash	83	stimuli_target_squaretriangles.svg	stimuli_distractor_trianglediamonds.svg	3	yes	53	1	859
6.6.1	and	2022-11-07	13:48:37	13:54:20	326112	611195657110219178aa70e1	871721325	1	main_slash	7	advance_on_keypress_SLASH	84	stimuli_target_squaretriangles.svg	stimuli_distractor_trianglediamonds.svg	3	yes	57	0	432
6.6.1	and	2022-11-07	13:48:37	13:54:22	328174	611195657110219178aa70e1	871721325	1	main_slash	7	main_slash	85	stimuli_target_diamondsquares.svg	stimuli_distractor_diamondtriangles.svg	24	yes	53	1	991
6.6.1	and	2022-11-07	13:48:37	13:54:22	328174	611195657110219178aa70e1	871721325	1	main_slash	7	advance_on_keypress_SLASH	86	stimuli_target_diamondsquares.svg	stimuli_distractor_diamondtriangles.svg	24	yes	57	0	1211
6.6.1	and	2022-11-07	13:48:37	13:54:25	330827	611195657110219178aa70e1	871721325	1	main_slash	7	main_slash	87	stimuli_target_circlediamonds.svg	stimuli_distractor_trianglediamonds.svg	2	yes	53	1	793
6.6.1	and	2022-11-07	13:48:37	13:54:25	330827	611195657110219178aa70e1	871721325	1	main_slash	7	advance_on_keypress_SLASH	88	stimuli_target_circlediamonds.svg	stimuli_distractor_trianglediamonds.svg	2	yes	57	0	318
6.6.1	and	2022-11-07	13:48:37	13:54:27	332619	611195657110219178aa70e1	871721325	1	main_slash	7	main_slash	89	stimuli_distractor_diamondtriangles.svg	stimuli_target_squaretriangles.svg	15	yes	53	1	821
6.6.1	and	2022-11-07	13:48:37	13:54:27	332619	611195657110219178aa70e1	871721325	1	main_slash	7	advance_on_keypress_SLASH	90	stimuli_distractor_diamondtriangles.svg	stimuli_target_squaretriangles.svg	15	yes	57	0	334
6.6.1	and	2022-11-07	13:48:37	13:54:29	334686	611195657110219178aa70e1	871721325	1	main_slash	7	main_slash	91	stimuli_distractor_trianglediamonds.svg	stimuli_target_trianglesquares.svg	26	yes	53	1	1101
6.6.1	and	2022-11-07	13:48:37	13:54:29	334686	611195657110219178aa70e1	871721325	1	main_slash	7	advance_on_keypress_SLASH	92	stimuli_distractor_trianglediamonds.svg	stimuli_target_trianglesquares.svg	26	yes	57	0	347
6.6.1	and	2022-11-07	13:48:37	13:54:31	336609	611195657110219178aa70e1	871721325	1	main_slash	7	main_slash	93	stimuli_target_diamondsquares.svg	stimuli_distractor_trianglediamonds.svg	20	yes	53	1	926
6.6.1	and	2022-11-07	13:48:37	13:54:31	336609	611195657110219178aa70e1	871721325	1	main_slash	7	advance_on_keypress_SLASH	94	stimuli_target_diamondsquares.svg	stimuli_distractor_trianglediamonds.svg	20	yes	57	0	354
6.6.1	and	2022-11-07	13:48:37	13:54:33	338884	611195657110219178aa70e1	871721325	1	main_slash	7	main_slash	95	stimuli_distractor_trianglediamonds.svg	stimuli_target_squaretriangles.svg	11	yes	53	1	1265
6.6.1	and	2022-11-07	13:48:37	13:54:33	338884	611195657110219178aa70e1	871721325	1	main_slash	7	advance_on_keypress_SLASH	96	stimuli_distractor_trianglediamonds.svg	stimuli_target_squaretriangles.svg	11	yes	57	0	516
6.6.1	and	2022-11-07	13:48:37	13:54:35	340892	611195657110219178aa70e1	871721325	1	main_slash	7	main_slash	97	stimuli_distractor_trianglediamonds.svg	stimuli_target_circletriangles.svg	9	yes	53	1	861
6.6.1	and	2022-11-07	13:48:37	13:54:35	340892	611195657110219178aa70e1	871721325	1	main_slash	7	advance_on_keypress_SLASH	98	stimuli_distractor_trianglediamonds.svg	stimuli_target_circletriangles.svg	9	yes	57	0	409
6.6.1	and	2022-11-07	13:48:37	13:54:38	343950	611195657110219178aa70e1	871721325	1	main_slash	7	main_slash	99	stimuli_target_diamondcircles.svg	stimuli_distractor_trianglediamonds.svg	19	yes	0	0	2000
6.6.1	and	2022-11-07	13:48:37	13:54:38	343950	611195657110219178aa70e1	871721325	1	main_slash	7	advance_on_keypress_SLASH	100	stimuli_target_diamondcircles.svg	stimuli_distractor_trianglediamonds.svg	19	yes	57	0	747
6.6.1	and	2022-11-07	13:48:37	13:54:40	346147	611195657110219178aa70e1	871721325	1	main_slash	7	main_slash	101	stimuli_distractor_diamondtriangles.svg	stimuli_target_trianglecircles.svg	29	yes	53	1	794
6.6.1	and	2022-11-07	13:48:37	13:54:40	346147	611195657110219178aa70e1	871721325	1	main_slash	7	advance_on_keypress_SLASH	102	stimuli_distractor_diamondtriangles.svg	stimuli_target_trianglecircles.svg	29	yes	57	0	492
6.6.1	and	2022-11-07	13:48:37	13:54:42	348032	611195657110219178aa70e1	871721325	1	main_slash	7	main_slash	103	stimuli_target_circletriangles.svg	stimuli_distractor_diamondtriangles.svg	5	yes	53	1	750
6.6.1	and	2022-11-07	13:48:37	13:54:42	348032	611195657110219178aa70e1	871721325	1	main_slash	7	advance_on_keypress_SLASH	104	stimuli_target_circletriangles.svg	stimuli_distractor_diamondtriangles.svg	5	yes	57	0	414
6.6.1	and	2022-11-07	13:48:37	13:54:44	350042	611195657110219178aa70e1	871721325	1	main_slash	7	main_slash	105	stimuli_target_diamondcircles.svg	stimuli_distractor_diamondtriangles.svg	23	yes	53	1	960
6.6.1	and	2022-11-07	13:48:37	13:54:44	350042	611195657110219178aa70e1	871721325	1	main_slash	7	advance_on_keypress_SLASH	106	stimuli_target_diamondcircles.svg	stimuli_distractor_diamondtriangles.svg	23	yes	57	0	342
6.6.1	and	2022-11-07	13:48:37	13:54:46	351884	611195657110219178aa70e1	871721325	1	main_slash	7	main_slash	107	stimuli_distractor_trianglediamonds.svg	stimuli_target_trianglecircles.svg	25	yes	53	1	856
6.6.1	and	2022-11-07	13:48:37	13:54:46	351884	611195657110219178aa70e1	871721325	1	main_slash	7	advance_on_keypress_SLASH	108	stimuli_distractor_trianglediamonds.svg	stimuli_target_trianglecircles.svg	25	yes	57	0	420
6.6.1	and	2022-11-07	13:48:37	13:54:49	354520	611195657110219178aa70e1	871721325	1	main_slash	7	main_slash	109	stimuli_distractor_diamondtriangles.svg	stimuli_target_diamondsquares.svg	32	yes	53	1	1558
6.6.1	and	2022-11-07	13:48:37	13:54:49	354520	611195657110219178aa70e1	871721325	1	main_slash	7	advance_on_keypress_SLASH	110	stimuli_distractor_diamondtriangles.svg	stimuli_target_diamondsquares.svg	32	yes	57	0	499
6.6.1	and	2022-11-07	13:48:37	13:54:51	356692	611195657110219178aa70e1	871721325	1	main_slash	7	main_slash	111	stimuli_target_trianglesquares.svg	stimuli_distractor_diamondtriangles.svg	22	yes	53	1	1030
6.6.1	and	2022-11-07	13:48:37	13:54:51	356692	611195657110219178aa70e1	871721325	1	main_slash	7	advance_on_keypress_SLASH	112	stimuli_target_trianglesquares.svg	stimuli_distractor_diamondtriangles.svg	22	yes	57	0	406
6.6.1	and	2022-11-07	13:48:37	13:54:54	359748	611195657110219178aa70e1	871721325	1	main_slash	7	main_slash	113	stimuli_distractor_diamondtriangles.svg	stimuli_distractor_diamondtriangles.svg	40	no	0	1	2000
6.6.1	and	2022-11-07	13:48:37	13:54:54	359748	611195657110219178aa70e1	871721325	1	main_slash	7	advance_on_keypress_SLASH	114	stimuli_distractor_diamondtriangles.svg	stimuli_distractor_diamondtriangles.svg	40	no	57	0	449
6.6.1	and	2022-11-07	13:48:37	13:54:56	361558	611195657110219178aa70e1	871721325	1	main_slash	7	main_slash	115	stimuli_target_trianglecircles.svg	stimuli_distractor_diamondtriangles.svg	21	yes	53	1	713
6.6.1	and	2022-11-07	13:48:37	13:54:56	361558	611195657110219178aa70e1	871721325	1	main_slash	7	advance_on_keypress_SLASH	116	stimuli_target_trianglecircles.svg	stimuli_distractor_diamondtriangles.svg	21	yes	57	0	378
6.6.1	and	2022-11-07	13:48:37	13:54:58	363484	611195657110219178aa70e1	871721325	1	main_slash	7	main_slash	117	stimuli_target_trianglesquares.svg	stimuli_distractor_trianglediamonds.svg	18	yes	53	1	903
6.6.1	and	2022-11-07	13:48:37	13:54:58	363484	611195657110219178aa70e1	871721325	1	main_slash	7	advance_on_keypress_SLASH	118	stimuli_target_trianglesquares.svg	stimuli_distractor_trianglediamonds.svg	18	yes	57	0	425
6.6.1	and	2022-11-07	13:48:37	13:54:59	365405	611195657110219178aa70e1	871721325	1	main_slash	7	main_slash	119	stimuli_distractor_trianglediamonds.svg	stimuli_target_diamondsquares.svg	28	yes	53	1	846
6.6.1	and	2022-11-07	13:48:37	13:54:59	365405	611195657110219178aa70e1	871721325	1	main_slash	7	advance_on_keypress_SLASH	120	stimuli_distractor_trianglediamonds.svg	stimuli_target_diamondsquares.svg	28	yes	57	0	389
6.6.1	and	2022-11-07	13:48:37	13:55:02	367847	611195657110219178aa70e1	871721325	1	main_slash	7	main_slash	121	stimuli_distractor_trianglediamonds.svg	stimuli_distractor_trianglediamonds.svg	34	no	53	0	1398
6.6.1	and	2022-11-07	13:48:37	13:55:02	367847	611195657110219178aa70e1	871721325	1	main_slash	7	advance_on_keypress_SLASH	122	stimuli_distractor_trianglediamonds.svg	stimuli_distractor_trianglediamonds.svg	34	no	57	0	574
6.6.1	and	2022-11-07	13:48:37	13:55:04	369968	611195657110219178aa70e1	871721325	1	main_slash	7	main_slash	123	stimuli_distractor_diamondtriangles.svg	stimuli_target_circlediamonds.svg	14	yes	53	1	910
6.6.1	and	2022-11-07	13:48:37	13:55:04	369968	611195657110219178aa70e1	871721325	1	main_slash	7	advance_on_keypress_SLASH	124	stimuli_distractor_diamondtriangles.svg	stimuli_target_circlediamonds.svg	14	yes	57	0	364
6.6.1	and	2022-11-07	13:48:37	13:55:06	371850	611195657110219178aa70e1	871721325	1	main_slash	7	main_slash	125	stimuli_target_squarediamonds.svg	stimuli_distractor_diamondtriangles.svg	8	yes	53	1	875
6.6.1	and	2022-11-07	13:48:37	13:55:06	371850	611195657110219178aa70e1	871721325	1	main_slash	7	advance_on_keypress_SLASH	126	stimuli_target_squarediamonds.svg	stimuli_distractor_diamondtriangles.svg	8	yes	57	0	620
6.6.1	and	2022-11-07	13:48:37	13:55:09	375113	611195657110219178aa70e1	871721325	1	main_slash	7	main_slash	127	stimuli_distractor_trianglediamonds.svg	stimuli_distractor_diamondtriangles.svg	36	no	0	1	2000
6.6.1	and	2022-11-07	13:48:37	13:55:09	375113	611195657110219178aa70e1	871721325	1	main_slash	7	advance_on_keypress_SLASH	128	stimuli_distractor_trianglediamonds.svg	stimuli_distractor_diamondtriangles.svg	36	no	57	0	422
6.6.1	and	2022-11-07	13:48:37	13:55:12	378196	611195657110219178aa70e1	871721325	1	main_slash	7	main_slash	129	stimuli_distractor_trianglediamonds.svg	stimuli_distractor_diamondtriangles.svg	35	no	0	1	2000
6.6.1	and	2022-11-07	13:48:37	13:55:12	378196	611195657110219178aa70e1	871721325	1	main_slash	7	advance_on_keypress_SLASH	130	stimuli_distractor_trianglediamonds.svg	stimuli_distractor_diamondtriangles.svg	35	no	57	0	881
6.6.1	and	2022-11-07	13:48:37	13:55:14	380394	611195657110219178aa70e1	871721325	1	main_slash	7	main_slash	131	stimuli_distractor_trianglediamonds.svg	stimuli_target_diamondcircles.svg	27	yes	53	1	666
6.6.1	and	2022-11-07	13:48:37	13:55:14	380394	611195657110219178aa70e1	871721325	1	main_slash	7	advance_on_keypress_SLASH	132	stimuli_distractor_trianglediamonds.svg	stimuli_target_diamondcircles.svg	27	yes	57	0	409
6.6.1	and	2022-11-07	13:48:37	13:55:17	382540	611195657110219178aa70e1	871721325	1	main_slash	7	main_slash	133	stimuli_target_squarediamonds.svg	stimuli_distractor_trianglediamonds.svg	4	yes	53	1	1095
6.6.1	and	2022-11-07	13:48:37	13:55:17	382540	611195657110219178aa70e1	871721325	1	main_slash	7	advance_on_keypress_SLASH	134	stimuli_target_squarediamonds.svg	stimuli_distractor_trianglediamonds.svg	4	yes	57	0	347
6.6.1	and	2022-11-07	13:48:37	13:55:19	384754	611195657110219178aa70e1	871721325	1	main_slash	7	main_slash	135	stimuli_target_squaretriangles.svg	stimuli_distractor_diamondtriangles.svg	7	yes	53	1	1227
6.6.1	and	2022-11-07	13:48:37	13:55:19	384754	611195657110219178aa70e1	871721325	1	main_slash	7	advance_on_keypress_SLASH	136	stimuli_target_squaretriangles.svg	stimuli_distractor_diamondtriangles.svg	7	yes	57	0	316
6.6.1	and	2022-11-07	13:48:37	13:55:22	387710	611195657110219178aa70e1	871721325	1	main_slash	7	main_slash	137	stimuli_distractor_diamondtriangles.svg	stimuli_distractor_diamondtriangles.svg	39	no	0	1	2000
6.6.1	and	2022-11-07	13:48:37	13:55:22	387710	611195657110219178aa70e1	871721325	1	main_slash	7	advance_on_keypress_SLASH	138	stimuli_distractor_diamondtriangles.svg	stimuli_distractor_diamondtriangles.svg	39	no	57	0	489
6.6.1	and	2022-11-07	13:48:37	13:55:24	389700	611195657110219178aa70e1	871721325	1	main_slash	7	main_slash	139	stimuli_distractor_trianglediamonds.svg	stimuli_target_squarediamonds.svg	12	yes	53	1	861
6.6.1	and	2022-11-07	13:48:37	13:55:24	389700	611195657110219178aa70e1	871721325	1	main_slash	7	advance_on_keypress_SLASH	140	stimuli_distractor_trianglediamonds.svg	stimuli_target_squarediamonds.svg	12	yes	57	0	326
6.6.1	and	2022-11-07	13:48:37	13:55:26	391815	611195657110219178aa70e1	871721325	1	main_slash	7	main_slash	141	stimuli_target_circletriangles.svg	stimuli_distractor_trianglediamonds.svg	1	yes	53	1	1140
6.6.1	and	2022-11-07	13:48:37	13:55:26	391815	611195657110219178aa70e1	871721325	1	main_slash	7	advance_on_keypress_SLASH	142	stimuli_target_circletriangles.svg	stimuli_distractor_trianglediamonds.svg	1	yes	57	0	287
6.6.1	and	2022-11-07	13:48:37	13:55:28	393664	611195657110219178aa70e1	871721325	1	main_slash	7	main_slash	143	stimuli_distractor_diamondtriangles.svg	stimuli_target_diamondcircles.svg	31	yes	53	1	906
6.6.1	and	2022-11-07	13:48:37	13:55:28	393664	611195657110219178aa70e1	871721325	1	main_slash	7	advance_on_keypress_SLASH	144	stimuli_distractor_diamondtriangles.svg	stimuli_target_diamondcircles.svg	31	yes	57	0	403
6.6.1	and	2022-11-07	13:48:37	13:55:30	395607	611195657110219178aa70e1	871721325	1	main_slash	7	main_slash	145	stimuli_target_trianglecircles.svg	stimuli_distractor_trianglediamonds.svg	17	yes	53	1	884
6.6.1	and	2022-11-07	13:48:37	13:55:30	395607	611195657110219178aa70e1	871721325	1	main_slash	7	advance_on_keypress_SLASH	146	stimuli_target_trianglecircles.svg	stimuli_distractor_trianglediamonds.svg	17	yes	57	0	333
6.6.1	and	2022-11-07	13:48:37	13:55:32	397782	611195657110219178aa70e1	871721325	1	main_slash	7	main_slash	147	stimuli_distractor_trianglediamonds.svg	stimuli_target_circlediamonds.svg	10	yes	53	1	1210
6.6.1	and	2022-11-07	13:48:37	13:55:32	397782	611195657110219178aa70e1	871721325	1	main_slash	7	advance_on_keypress_SLASH	148	stimuli_distractor_trianglediamonds.svg	stimuli_target_circlediamonds.svg	10	yes	57	0	339
6.6.1	and	2022-11-07	13:48:37	13:55:34	399767	611195657110219178aa70e1	871721325	1	main_slash	7	main_slash	149	stimuli_target_circlediamonds.svg	stimuli_distractor_diamondtriangles.svg	6	yes	53	1	996
6.6.1	and	2022-11-07	13:48:37	13:55:34	399767	611195657110219178aa70e1	871721325	1	main_slash	7	advance_on_keypress_SLASH	150	stimuli_target_circlediamonds.svg	stimuli_distractor_diamondtriangles.svg	6	yes	57	0	320
6.6.1	and	2022-11-07	13:48:37	13:55:36	401786	611195657110219178aa70e1	871721325	1	main_slash	7	main_slash	151	stimuli_distractor_diamondtriangles.svg	stimuli_target_squarediamonds.svg	16	yes	53	1	1045
6.6.1	and	2022-11-07	13:48:37	13:55:36	401786	611195657110219178aa70e1	871721325	1	main_slash	7	advance_on_keypress_SLASH	152	stimuli_distractor_diamondtriangles.svg	stimuli_target_squarediamonds.svg	16	yes	57	0	357
6.6.1	and	2022-11-07	13:48:37	13:55:38	403832	611195657110219178aa70e1	871721325	1	main_slash	7	main_slash	153	stimuli_distractor_diamondtriangles.svg	stimuli_target_trianglesquares.svg	30	yes	53	1	1042
6.6.1	and	2022-11-07	13:48:37	13:55:38	403832	611195657110219178aa70e1	871721325	1	main_slash	7	advance_on_keypress_SLASH	154	stimuli_distractor_diamondtriangles.svg	stimuli_target_trianglesquares.svg	30	yes	57	0	361
6.6.1	and	2022-11-07	13:48:37	13:55:41	406845	611195657110219178aa70e1	871721325	1	main_slash	7	main_slash	155	stimuli_distractor_diamondtriangles.svg	stimuli_distractor_trianglediamonds.svg	38	no	0	1	2000
6.6.1	and	2022-11-07	13:48:37	13:55:41	406845	611195657110219178aa70e1	871721325	1	main_slash	7	advance_on_keypress_SLASH	156	stimuli_distractor_diamondtriangles.svg	stimuli_distractor_trianglediamonds.svg	38	no	57	0	629
6.6.1	and	2022-11-07	13:48:37	13:55:44	410122	611195657110219178aa70e1	871721325	1	main_slash	7	main_slash	157	stimuli_distractor_diamondtriangles.svg	stimuli_distractor_trianglediamonds.svg	37	no	0	1	2000
6.6.1	and	2022-11-07	13:48:37	13:55:44	410122	611195657110219178aa70e1	871721325	1	main_slash	7	advance_on_keypress_SLASH	158	stimuli_distractor_diamondtriangles.svg	stimuli_distractor_trianglediamonds.svg	37	no	57	0	473
6.6.1	and	2022-11-07	13:48:37	13:55:46	411915	611195657110219178aa70e1	871721325	1	main_slash	7	main_slash	159	stimuli_distractor_diamondtriangles.svg	stimuli_target_circletriangles.svg	13	yes	53	1	676
6.6.1	and	2022-11-07	13:48:37	13:55:46	411915	611195657110219178aa70e1	871721325	1	main_slash	7	advance_on_keypress_SLASH	160	stimuli_distractor_diamondtriangles.svg	stimuli_target_circletriangles.svg	13	yes	57	0	373
6.6.1	and	2022-11-07	13:48:37	13:56:15	440903	611195657110219178aa70e1	871721325	1	practice_z	9	practice_z	1	stimuli_distractor_trianglediamonds.svg	stimuli_target_circlediamonds.svg	10	yes	44	1	697
6.6.1	and	2022-11-07	13:48:37	13:56:15	440903	611195657110219178aa70e1	871721325	1	practice_z	9	advance_on_keypress_ZEE	2	stimuli_distractor_trianglediamonds.svg	stimuli_target_circlediamonds.svg	10	yes	57	0	433
6.6.1	and	2022-11-07	13:48:37	13:56:19	444988	611195657110219178aa70e1	871721325	1	practice_z	9	practice_z	3	stimuli_distractor_trianglediamonds.svg	stimuli_distractor_trianglediamonds.svg	15	no	0	1	2000
6.6.1	and	2022-11-07	13:48:37	13:56:19	444988	611195657110219178aa70e1	871721325	1	practice_z	9	advance_on_keypress_ZEE	4	stimuli_distractor_trianglediamonds.svg	stimuli_distractor_trianglediamonds.svg	15	no	57	0	371
6.6.1	and	2022-11-07	13:48:37	13:56:22	447823	611195657110219178aa70e1	871721325	1	practice_z	9	practice_z	5	stimuli_distractor_diamondtriangles.svg	stimuli_target_circletriangles.svg	7	yes	44	1	803
6.6.1	and	2022-11-07	13:48:37	13:56:22	447823	611195657110219178aa70e1	871721325	1	practice_z	9	advance_on_keypress_ZEE	6	stimuli_distractor_diamondtriangles.svg	stimuli_target_circletriangles.svg	7	yes	57	0	414
6.6.1	and	2022-11-07	13:48:37	13:56:26	451889	611195657110219178aa70e1	871721325	1	practice_z	9	practice_z	7	stimuli_distractor_diamondtriangles.svg	stimuli_target_trianglecircles.svg	9	yes	0	0	2000
6.6.1	and	2022-11-07	13:48:37	13:56:26	451889	611195657110219178aa70e1	871721325	1	practice_z	9	advance_on_keypress_ZEE	8	stimuli_distractor_diamondtriangles.svg	stimuli_target_trianglecircles.svg	9	yes	57	0	391
6.6.1	and	2022-11-07	13:48:37	13:56:29	455068	611195657110219178aa70e1	871721325	1	practice_z	9	practice_z	9	stimuli_target_diamondsquares.svg	stimuli_distractor_diamondtriangles.svg	3	yes	44	1	1132
6.6.1	and	2022-11-07	13:48:37	13:56:29	455068	611195657110219178aa70e1	871721325	1	practice_z	9	advance_on_keypress_ZEE	10	stimuli_target_diamondsquares.svg	stimuli_distractor_diamondtriangles.svg	3	yes	57	0	498
6.6.1	and	2022-11-07	13:48:37	13:56:32	458225	611195657110219178aa70e1	871721325	1	practice_z	9	practice_z	11	stimuli_target_diamondsquares.svg	stimuli_distractor_trianglediamonds.svg	6	yes	44	1	1003
6.6.1	and	2022-11-07	13:48:37	13:56:32	458225	611195657110219178aa70e1	871721325	1	practice_z	9	advance_on_keypress_ZEE	12	stimuli_target_diamondsquares.svg	stimuli_distractor_trianglediamonds.svg	6	yes	57	0	474
6.6.1	and	2022-11-07	13:48:37	13:56:35	461302	611195657110219178aa70e1	871721325	1	practice_z	9	practice_z	13	stimuli_distractor_diamondtriangles.svg	stimuli_target_diamondcircles.svg	8	yes	44	1	948
6.6.1	and	2022-11-07	13:48:37	13:56:35	461302	611195657110219178aa70e1	871721325	1	practice_z	9	advance_on_keypress_ZEE	14	stimuli_distractor_diamondtriangles.svg	stimuli_target_diamondcircles.svg	8	yes	57	0	312
6.6.1	and	2022-11-07	13:48:37	13:56:39	464509	611195657110219178aa70e1	871721325	1	practice_z	9	practice_z	15	stimuli_distractor_trianglediamonds.svg	stimuli_target_squarediamonds.svg	11	yes	44	1	1236
6.6.1	and	2022-11-07	13:48:37	13:56:39	464509	611195657110219178aa70e1	871721325	1	practice_z	9	advance_on_keypress_ZEE	16	stimuli_distractor_trianglediamonds.svg	stimuli_target_squarediamonds.svg	11	yes	57	0	255
6.6.1	and	2022-11-07	13:48:37	13:56:42	468423	611195657110219178aa70e1	871721325	1	practice_z	9	practice_z	17	stimuli_distractor_trianglediamonds.svg	stimuli_distractor_diamondtriangles.svg	16	no	0	1	2000
6.6.1	and	2022-11-07	13:48:37	13:56:42	468423	611195657110219178aa70e1	871721325	1	practice_z	9	advance_on_keypress_ZEE	18	stimuli_distractor_trianglediamonds.svg	stimuli_distractor_diamondtriangles.svg	16	no	57	0	407
6.6.1	and	2022-11-07	13:48:37	13:56:45	471389	611195657110219178aa70e1	871721325	1	practice_z	9	practice_z	19	stimuli_target_circlediamonds.svg	stimuli_distractor_diamondtriangles.svg	1	yes	44	1	906
6.6.1	and	2022-11-07	13:48:37	13:56:45	471389	611195657110219178aa70e1	871721325	1	practice_z	9	advance_on_keypress_ZEE	20	stimuli_target_circlediamonds.svg	stimuli_distractor_diamondtriangles.svg	1	yes	57	0	390
6.6.1	and	2022-11-07	13:48:37	13:56:48	474299	611195657110219178aa70e1	871721325	1	practice_z	9	practice_z	21	stimuli_target_circlediamonds.svg	stimuli_distractor_trianglediamonds.svg	4	yes	44	1	856
6.6.1	and	2022-11-07	13:48:37	13:56:48	474299	611195657110219178aa70e1	871721325	1	practice_z	9	advance_on_keypress_ZEE	22	stimuli_target_circlediamonds.svg	stimuli_distractor_trianglediamonds.svg	4	yes	57	0	217
6.6.1	and	2022-11-07	13:48:37	13:56:52	478187	611195657110219178aa70e1	871721325	1	practice_z	9	practice_z	23	stimuli_distractor_diamondtriangles.svg	stimuli_distractor_diamondtriangles.svg	13	no	0	1	2000
6.6.1	and	2022-11-07	13:48:37	13:56:52	478187	611195657110219178aa70e1	871721325	1	practice_z	9	advance_on_keypress_ZEE	24	stimuli_distractor_diamondtriangles.svg	stimuli_distractor_diamondtriangles.svg	13	no	57	0	463
6.6.1	and	2022-11-07	13:48:37	13:56:55	481015	611195657110219178aa70e1	871721325	1	practice_z	9	practice_z	25	stimuli_distractor_trianglediamonds.svg	stimuli_target_diamondcircles.svg	12	yes	44	1	699
6.6.1	and	2022-11-07	13:48:37	13:56:55	481015	611195657110219178aa70e1	871721325	1	practice_z	9	advance_on_keypress_ZEE	26	stimuli_distractor_trianglediamonds.svg	stimuli_target_diamondcircles.svg	12	yes	57	0	423
6.6.1	and	2022-11-07	13:48:37	13:56:58	483929	611195657110219178aa70e1	871721325	1	practice_z	9	practice_z	27	stimuli_target_squarediamonds.svg	stimuli_distractor_diamondtriangles.svg	2	yes	44	1	833
6.6.1	and	2022-11-07	13:48:37	13:56:58	483929	611195657110219178aa70e1	871721325	1	practice_z	9	advance_on_keypress_ZEE	28	stimuli_target_squarediamonds.svg	stimuli_distractor_diamondtriangles.svg	2	yes	57	0	327
6.6.1	and	2022-11-07	13:48:37	13:57:01	486805	611195657110219178aa70e1	871721325	1	practice_z	9	practice_z	29	stimuli_distractor_diamondtriangles.svg	stimuli_distractor_trianglediamonds.svg	14	no	44	0	892
6.6.1	and	2022-11-07	13:48:37	13:57:01	486805	611195657110219178aa70e1	871721325	1	practice_z	9	advance_on_keypress_ZEE	30	stimuli_distractor_diamondtriangles.svg	stimuli_distractor_trianglediamonds.svg	14	no	57	0	406
6.6.1	and	2022-11-07	13:48:37	13:57:04	489636	611195657110219178aa70e1	871721325	1	practice_z	9	practice_z	31	stimuli_target_squarediamonds.svg	stimuli_distractor_trianglediamonds.svg	5	yes	44	1	771
6.6.1	and	2022-11-07	13:48:37	13:57:04	489636	611195657110219178aa70e1	871721325	1	practice_z	9	advance_on_keypress_ZEE	32	stimuli_target_squarediamonds.svg	stimuli_distractor_trianglediamonds.svg	5	yes	57	0	262
6.6.1	and	2022-11-07	13:48:37	13:57:09	494653	611195657110219178aa70e1	871721325	1	main_z	11	main_z	1	stimuli_distractor_trianglediamonds.svg	stimuli_distractor_diamondtriangles.svg	36	no	0	1	2000
6.6.1	and	2022-11-07	13:48:37	13:57:09	494653	611195657110219178aa70e1	871721325	1	main_z	11	advance_on_keypress_ZEE	2	stimuli_distractor_trianglediamonds.svg	stimuli_distractor_diamondtriangles.svg	36	no	57	0	453
6.6.1	and	2022-11-07	13:48:37	13:57:11	496556	611195657110219178aa70e1	871721325	1	main_z	11	main_z	3	stimuli_target_squarediamonds.svg	stimuli_distractor_diamondtriangles.svg	8	yes	44	1	783
6.6.1	and	2022-11-07	13:48:37	13:57:11	496556	611195657110219178aa70e1	871721325	1	main_z	11	advance_on_keypress_ZEE	4	stimuli_target_squarediamonds.svg	stimuli_distractor_diamondtriangles.svg	8	yes	57	0	480
6.6.1	and	2022-11-07	13:48:37	13:57:13	498689	611195657110219178aa70e1	871721325	1	main_z	11	main_z	5	stimuli_distractor_diamondtriangles.svg	stimuli_distractor_trianglediamonds.svg	38	no	44	0	1016
6.6.1	and	2022-11-07	13:48:37	13:57:13	498689	611195657110219178aa70e1	871721325	1	main_z	11	advance_on_keypress_ZEE	6	stimuli_distractor_diamondtriangles.svg	stimuli_distractor_trianglediamonds.svg	38	no	57	0	414
6.6.1	and	2022-11-07	13:48:37	13:57:15	500722	611195657110219178aa70e1	871721325	1	main_z	11	main_z	7	stimuli_distractor_diamondtriangles.svg	stimuli_target_trianglesquares.svg	30	yes	44	1	980
6.6.1	and	2022-11-07	13:48:37	13:57:15	500722	611195657110219178aa70e1	871721325	1	main_z	11	advance_on_keypress_ZEE	8	stimuli_distractor_diamondtriangles.svg	stimuli_target_trianglesquares.svg	30	yes	57	0	415
6.6.1	and	2022-11-07	13:48:37	13:57:17	502770	611195657110219178aa70e1	871721325	1	main_z	11	main_z	9	stimuli_distractor_trianglediamonds.svg	stimuli_target_trianglecircles.svg	25	yes	44	1	997
6.6.1	and	2022-11-07	13:48:37	13:57:17	502770	611195657110219178aa70e1	871721325	1	main_z	11	advance_on_keypress_ZEE	10	stimuli_distractor_trianglediamonds.svg	stimuli_target_trianglecircles.svg	25	yes	57	0	370
6.6.1	and	2022-11-07	13:48:37	13:57:19	505072	611195657110219178aa70e1	871721325	1	main_z	11	main_z	11	stimuli_target_circlediamonds.svg	stimuli_distractor_diamondtriangles.svg	6	yes	44	1	1284
6.6.1	and	2022-11-07	13:48:37	13:57:19	505072	611195657110219178aa70e1	871721325	1	main_z	11	advance_on_keypress_ZEE	12	stimuli_target_circlediamonds.svg	stimuli_distractor_diamondtriangles.svg	6	yes	57	0	383
6.6.1	and	2022-11-07	13:48:37	13:57:21	507109	611195657110219178aa70e1	871721325	1	main_z	11	main_z	13	stimuli_distractor_diamondtriangles.svg	stimuli_target_circlediamonds.svg	14	yes	44	1	987
6.6.1	and	2022-11-07	13:48:37	13:57:21	507109	611195657110219178aa70e1	871721325	1	main_z	11	advance_on_keypress_ZEE	14	stimuli_distractor_diamondtriangles.svg	stimuli_target_circlediamonds.svg	14	yes	57	0	406
6.6.1	and	2022-11-07	13:48:37	13:57:24	510177	611195657110219178aa70e1	871721325	1	main_z	11	main_z	15	stimuli_distractor_diamondtriangles.svg	stimuli_distractor_diamondtriangles.svg	39	no	0	1	2000
6.6.1	and	2022-11-07	13:48:37	13:57:24	510177	611195657110219178aa70e1	871721325	1	main_z	11	advance_on_keypress_ZEE	16	stimuli_distractor_diamondtriangles.svg	stimuli_distractor_diamondtriangles.svg	39	no	57	0	335
6.6.1	and	2022-11-07	13:48:37	13:57:26	511887	611195657110219178aa70e1	871721325	1	main_z	11	main_z	17	stimuli_target_diamondsquares.svg	stimuli_distractor_diamondtriangles.svg	24	yes	44	1	735
6.6.1	and	2022-11-07	13:48:37	13:57:26	511887	611195657110219178aa70e1	871721325	1	main_z	11	advance_on_keypress_ZEE	18	stimuli_target_diamondsquares.svg	stimuli_distractor_diamondtriangles.svg	24	yes	57	0	427
6.6.1	and	2022-11-07	13:48:37	13:57:29	514609	611195657110219178aa70e1	871721325	1	main_z	11	main_z	19	stimuli_target_squaretriangles.svg	stimuli_distractor_diamondtriangles.svg	7	yes	44	1	1653
6.6.1	and	2022-11-07	13:48:37	13:57:29	514609	611195657110219178aa70e1	871721325	1	main_z	11	advance_on_keypress_ZEE	20	stimuli_target_squaretriangles.svg	stimuli_distractor_diamondtriangles.svg	7	yes	57	0	505
6.6.1	and	2022-11-07	13:48:37	13:57:31	516548	611195657110219178aa70e1	871721325	1	main_z	11	main_z	21	stimuli_distractor_diamondtriangles.svg	stimuli_target_squaretriangles.svg	15	yes	44	1	778
6.6.1	and	2022-11-07	13:48:37	13:57:31	516548	611195657110219178aa70e1	871721325	1	main_z	11	advance_on_keypress_ZEE	22	stimuli_distractor_diamondtriangles.svg	stimuli_target_squaretriangles.svg	15	yes	57	0	386
6.6.1	and	2022-11-07	13:48:37	13:57:32	518392	611195657110219178aa70e1	871721325	1	main_z	11	main_z	23	stimuli_distractor_trianglediamonds.svg	stimuli_target_circlediamonds.svg	10	yes	44	1	805
6.6.1	and	2022-11-07	13:48:37	13:57:32	518392	611195657110219178aa70e1	871721325	1	main_z	11	advance_on_keypress_ZEE	24	stimuli_distractor_trianglediamonds.svg	stimuli_target_circlediamonds.svg	10	yes	57	0	371
6.6.1	and	2022-11-07	13:48:37	13:57:35	521424	611195657110219178aa70e1	871721325	1	main_z	11	main_z	25	stimuli_target_diamondsquares.svg	stimuli_distractor_trianglediamonds.svg	20	yes	0	0	2000
6.6.1	and	2022-11-07	13:48:37	13:57:35	521424	611195657110219178aa70e1	871721325	1	main_z	11	advance_on_keypress_ZEE	26	stimuli_target_diamondsquares.svg	stimuli_distractor_trianglediamonds.svg	20	yes	57	0	363
6.6.1	and	2022-11-07	13:48:37	13:57:37	523123	611195657110219178aa70e1	871721325	1	main_z	11	main_z	27	stimuli_target_circletriangles.svg	stimuli_distractor_trianglediamonds.svg	1	yes	44	1	684
6.6.1	and	2022-11-07	13:48:37	13:57:37	523123	611195657110219178aa70e1	871721325	1	main_z	11	advance_on_keypress_ZEE	28	stimuli_target_circletriangles.svg	stimuli_distractor_trianglediamonds.svg	1	yes	57	0	357
6.6.1	and	2022-11-07	13:48:37	13:57:39	524878	611195657110219178aa70e1	871721325	1	main_z	11	main_z	29	stimuli_distractor_diamondtriangles.svg	stimuli_target_diamondcircles.svg	31	yes	44	1	740
6.6.1	and	2022-11-07	13:48:37	13:57:39	524878	611195657110219178aa70e1	871721325	1	main_z	11	advance_on_keypress_ZEE	30	stimuli_distractor_diamondtriangles.svg	stimuli_target_diamondcircles.svg	31	yes	57	0	398
6.6.1	and	2022-11-07	13:48:37	13:57:41	526728	611195657110219178aa70e1	871721325	1	main_z	11	main_z	31	stimuli_distractor_trianglediamonds.svg	stimuli_target_squarediamonds.svg	12	yes	44	1	791
6.6.1	and	2022-11-07	13:48:37	13:57:41	526728	611195657110219178aa70e1	871721325	1	main_z	11	advance_on_keypress_ZEE	32	stimuli_distractor_trianglediamonds.svg	stimuli_target_squarediamonds.svg	12	yes	57	0	420
6.6.1	and	2022-11-07	13:48:37	13:57:43	528630	611195657110219178aa70e1	871721325	1	main_z	11	main_z	33	stimuli_distractor_diamondtriangles.svg	stimuli_target_trianglecircles.svg	29	yes	44	1	827
6.6.1	and	2022-11-07	13:48:37	13:57:43	528630	611195657110219178aa70e1	871721325	1	main_z	11	advance_on_keypress_ZEE	34	stimuli_distractor_diamondtriangles.svg	stimuli_target_trianglecircles.svg	29	yes	57	0	362
6.6.1	and	2022-11-07	13:48:37	13:57:45	530539	611195657110219178aa70e1	871721325	1	main_z	11	main_z	35	stimuli_target_trianglesquares.svg	stimuli_distractor_trianglediamonds.svg	18	yes	44	1	905
6.6.1	and	2022-11-07	13:48:37	13:57:45	530539	611195657110219178aa70e1	871721325	1	main_z	11	advance_on_keypress_ZEE	36	stimuli_target_trianglesquares.svg	stimuli_distractor_trianglediamonds.svg	18	yes	57	0	400
6.6.1	and	2022-11-07	13:48:37	13:57:47	532843	611195657110219178aa70e1	871721325	1	main_z	11	main_z	37	stimuli_target_squaretriangles.svg	stimuli_distractor_trianglediamonds.svg	3	yes	44	1	1260
6.6.1	and	2022-11-07	13:48:37	13:57:47	532843	611195657110219178aa70e1	871721325	1	main_z	11	advance_on_keypress_ZEE	38	stimuli_target_squaretriangles.svg	stimuli_distractor_trianglediamonds.svg	3	yes	57	0	350
6.6.1	and	2022-11-07	13:48:37	13:57:49	534737	611195657110219178aa70e1	871721325	1	main_z	11	main_z	39	stimuli_distractor_trianglediamonds.svg	stimuli_target_trianglesquares.svg	26	yes	44	1	905
6.6.1	and	2022-11-07	13:48:37	13:57:49	534737	611195657110219178aa70e1	871721325	1	main_z	11	advance_on_keypress_ZEE	40	stimuli_distractor_trianglediamonds.svg	stimuli_target_trianglesquares.svg	26	yes	57	0	379
6.6.1	and	2022-11-07	13:48:37	13:57:52	537768	611195657110219178aa70e1	871721325	1	main_z	11	main_z	41	stimuli_distractor_diamondtriangles.svg	stimuli_distractor_diamondtriangles.svg	40	no	0	1	2000
6.6.1	and	2022-11-07	13:48:37	13:57:52	537768	611195657110219178aa70e1	871721325	1	main_z	11	advance_on_keypress_ZEE	42	stimuli_distractor_diamondtriangles.svg	stimuli_distractor_diamondtriangles.svg	40	no	57	0	788
6.6.1	and	2022-11-07	13:48:37	13:57:54	540043	611195657110219178aa70e1	871721325	1	main_z	11	main_z	43	stimuli_target_trianglecircles.svg	stimuli_distractor_trianglediamonds.svg	17	yes	44	1	842
6.6.1	and	2022-11-07	13:48:37	13:57:54	540043	611195657110219178aa70e1	871721325	1	main_z	11	advance_on_keypress_ZEE	44	stimuli_target_trianglecircles.svg	stimuli_distractor_trianglediamonds.svg	17	yes	57	0	324
6.6.1	and	2022-11-07	13:48:37	13:57:56	541825	611195657110219178aa70e1	871721325	1	main_z	11	main_z	45	stimuli_target_diamondcircles.svg	stimuli_distractor_trianglediamonds.svg	19	yes	44	1	809
6.6.1	and	2022-11-07	13:48:37	13:57:56	541825	611195657110219178aa70e1	871721325	1	main_z	11	advance_on_keypress_ZEE	46	stimuli_target_diamondcircles.svg	stimuli_distractor_trianglediamonds.svg	19	yes	57	0	314
6.6.1	and	2022-11-07	13:48:37	13:57:58	544336	611195657110219178aa70e1	871721325	1	main_z	11	main_z	47	stimuli_target_circlediamonds.svg	stimuli_distractor_trianglediamonds.svg	2	yes	44	1	1552
6.6.1	and	2022-11-07	13:48:37	13:57:58	544336	611195657110219178aa70e1	871721325	1	main_z	11	advance_on_keypress_ZEE	48	stimuli_target_circlediamonds.svg	stimuli_distractor_trianglediamonds.svg	2	yes	57	0	384
6.6.1	and	2022-11-07	13:48:37	13:58:01	546518	611195657110219178aa70e1	871721325	1	main_z	11	main_z	49	stimuli_target_squarediamonds.svg	stimuli_distractor_trianglediamonds.svg	4	yes	44	1	1149
6.6.1	and	2022-11-07	13:48:37	13:58:01	546518	611195657110219178aa70e1	871721325	1	main_z	11	advance_on_keypress_ZEE	50	stimuli_target_squarediamonds.svg	stimuli_distractor_trianglediamonds.svg	4	yes	57	0	386
6.6.1	and	2022-11-07	13:48:37	13:58:04	549548	611195657110219178aa70e1	871721325	1	main_z	11	main_z	51	stimuli_distractor_trianglediamonds.svg	stimuli_distractor_diamondtriangles.svg	35	no	0	1	2000
6.6.1	and	2022-11-07	13:48:37	13:58:04	549548	611195657110219178aa70e1	871721325	1	main_z	11	advance_on_keypress_ZEE	52	stimuli_distractor_trianglediamonds.svg	stimuli_distractor_diamondtriangles.svg	35	no	57	0	383
6.6.1	and	2022-11-07	13:48:37	13:58:05	551284	611195657110219178aa70e1	871721325	1	main_z	11	main_z	53	stimuli_target_trianglecircles.svg	stimuli_distractor_diamondtriangles.svg	21	yes	44	1	718
6.6.1	and	2022-11-07	13:48:37	13:58:05	551284	611195657110219178aa70e1	871721325	1	main_z	11	advance_on_keypress_ZEE	54	stimuli_target_trianglecircles.svg	stimuli_distractor_diamondtriangles.svg	21	yes	57	0	332
6.6.1	and	2022-11-07	13:48:37	13:58:07	553312	611195657110219178aa70e1	871721325	1	main_z	11	main_z	55	stimuli_distractor_diamondtriangles.svg	stimuli_target_circletriangles.svg	13	yes	44	1	1061
6.6.1	and	2022-11-07	13:48:37	13:58:07	553312	611195657110219178aa70e1	871721325	1	main_z	11	advance_on_keypress_ZEE	56	stimuli_distractor_diamondtriangles.svg	stimuli_target_circletriangles.svg	13	yes	57	0	301
6.6.1	and	2022-11-07	13:48:37	13:58:09	555186	611195657110219178aa70e1	871721325	1	main_z	11	main_z	57	stimuli_target_trianglesquares.svg	stimuli_distractor_diamondtriangles.svg	22	yes	44	1	935
6.6.1	and	2022-11-07	13:48:37	13:58:09	555186	611195657110219178aa70e1	871721325	1	main_z	11	advance_on_keypress_ZEE	58	stimuli_target_trianglesquares.svg	stimuli_distractor_diamondtriangles.svg	22	yes	57	0	319
6.6.1	and	2022-11-07	13:48:37	13:58:12	557751	611195657110219178aa70e1	871721325	1	main_z	11	main_z	59	stimuli_distractor_diamondtriangles.svg	stimuli_distractor_trianglediamonds.svg	37	no	44	0	1588
6.6.1	and	2022-11-07	13:48:37	13:58:12	557751	611195657110219178aa70e1	871721325	1	main_z	11	advance_on_keypress_ZEE	60	stimuli_distractor_diamondtriangles.svg	stimuli_distractor_trianglediamonds.svg	37	no	57	0	400
6.6.1	and	2022-11-07	13:48:37	13:58:14	559598	611195657110219178aa70e1	871721325	1	main_z	11	main_z	61	stimuli_distractor_diamondtriangles.svg	stimuli_target_diamondsquares.svg	32	yes	44	1	783
6.6.1	and	2022-11-07	13:48:37	13:58:14	559598	611195657110219178aa70e1	871721325	1	main_z	11	advance_on_keypress_ZEE	62	stimuli_distractor_diamondtriangles.svg	stimuli_target_diamondsquares.svg	32	yes	57	0	370
6.6.1	and	2022-11-07	13:48:37	13:58:17	562620	611195657110219178aa70e1	871721325	1	main_z	11	main_z	63	stimuli_distractor_trianglediamonds.svg	stimuli_target_diamondsquares.svg	28	yes	0	0	2000
6.6.1	and	2022-11-07	13:48:37	13:58:17	562620	611195657110219178aa70e1	871721325	1	main_z	11	advance_on_keypress_ZEE	64	stimuli_distractor_trianglediamonds.svg	stimuli_target_diamondsquares.svg	28	yes	57	0	392
6.6.1	and	2022-11-07	13:48:37	13:58:19	564545	611195657110219178aa70e1	871721325	1	main_z	11	main_z	65	stimuli_distractor_trianglediamonds.svg	stimuli_target_circletriangles.svg	9	yes	44	1	883
6.6.1	and	2022-11-07	13:48:37	13:58:19	564545	611195657110219178aa70e1	871721325	1	main_z	11	advance_on_keypress_ZEE	66	stimuli_distractor_trianglediamonds.svg	stimuli_target_circletriangles.svg	9	yes	57	0	407
6.6.1	and	2022-11-07	13:48:37	13:58:21	566518	611195657110219178aa70e1	871721325	1	main_z	11	main_z	67	stimuli_target_diamondcircles.svg	stimuli_distractor_diamondtriangles.svg	23	yes	44	1	923
6.6.1	and	2022-11-07	13:48:37	13:58:21	566518	611195657110219178aa70e1	871721325	1	main_z	11	advance_on_keypress_ZEE	68	stimuli_target_diamondcircles.svg	stimuli_distractor_diamondtriangles.svg	23	yes	57	0	358
6.6.1	and	2022-11-07	13:48:37	13:58:22	568458	611195657110219178aa70e1	871721325	1	main_z	11	main_z	69	stimuli_distractor_trianglediamonds.svg	stimuli_target_diamondcircles.svg	27	yes	44	1	929
6.6.1	and	2022-11-07	13:48:37	13:58:22	568458	611195657110219178aa70e1	871721325	1	main_z	11	advance_on_keypress_ZEE	70	stimuli_distractor_trianglediamonds.svg	stimuli_target_diamondcircles.svg	27	yes	57	0	347
6.6.1	and	2022-11-07	13:48:37	13:58:24	570390	611195657110219178aa70e1	871721325	1	main_z	11	main_z	71	stimuli_distractor_trianglediamonds.svg	stimuli_target_squaretriangles.svg	11	yes	44	1	942
6.6.1	and	2022-11-07	13:48:37	13:58:24	570390	611195657110219178aa70e1	871721325	1	main_z	11	advance_on_keypress_ZEE	72	stimuli_distractor_trianglediamonds.svg	stimuli_target_squaretriangles.svg	11	yes	57	0	362
6.6.1	and	2022-11-07	13:48:37	13:58:27	573398	611195657110219178aa70e1	871721325	1	main_z	11	main_z	73	stimuli_distractor_trianglediamonds.svg	stimuli_distractor_trianglediamonds.svg	34	no	0	1	2000
6.6.1	and	2022-11-07	13:48:37	13:58:27	573398	611195657110219178aa70e1	871721325	1	main_z	11	advance_on_keypress_ZEE	74	stimuli_distractor_trianglediamonds.svg	stimuli_distractor_trianglediamonds.svg	34	no	57	0	549
6.6.1	and	2022-11-07	13:48:37	13:58:31	576599	611195657110219178aa70e1	871721325	1	main_z	11	main_z	75	stimuli_distractor_trianglediamonds.svg	stimuli_distractor_trianglediamonds.svg	33	no	0	1	2000
6.6.1	and	2022-11-07	13:48:37	13:58:31	576599	611195657110219178aa70e1	871721325	1	main_z	11	advance_on_keypress_ZEE	76	stimuli_distractor_trianglediamonds.svg	stimuli_distractor_trianglediamonds.svg	33	no	57	0	415
6.6.1	and	2022-11-07	13:48:37	13:58:32	578459	611195657110219178aa70e1	871721325	1	main_z	11	main_z	77	stimuli_target_circletriangles.svg	stimuli_distractor_diamondtriangles.svg	5	yes	44	1	800
6.6.1	and	2022-11-07	13:48:37	13:58:32	578459	611195657110219178aa70e1	871721325	1	main_z	11	advance_on_keypress_ZEE	78	stimuli_target_circletriangles.svg	stimuli_distractor_diamondtriangles.svg	5	yes	57	0	270
6.6.1	and	2022-11-07	13:48:37	13:58:34	580309	611195657110219178aa70e1	871721325	1	main_z	11	main_z	79	stimuli_distractor_diamondtriangles.svg	stimuli_target_squarediamonds.svg	16	yes	44	1	929
6.6.1	and	2022-11-07	13:48:37	13:58:34	580309	611195657110219178aa70e1	871721325	1	main_z	11	advance_on_keypress_ZEE	80	stimuli_distractor_diamondtriangles.svg	stimuli_target_squarediamonds.svg	16	yes	57	0	332
6.6.1	and	2022-11-07	13:48:37	13:58:36	582177	611195657110219178aa70e1	871721325	1	main_z	11	main_z	81	stimuli_distractor_diamondtriangles.svg	stimuli_target_squaretriangles.svg	15	yes	44	1	883
6.6.1	and	2022-11-07	13:48:37	13:58:36	582177	611195657110219178aa70e1	871721325	1	main_z	11	advance_on_keypress_ZEE	82	stimuli_distractor_diamondtriangles.svg	stimuli_target_squaretriangles.svg	15	yes	57	0	376
6.6.1	and	2022-11-07	13:48:37	13:58:38	584285	611195657110219178aa70e1	871721325	1	main_z	11	main_z	83	stimuli_target_diamondcircles.svg	stimuli_distractor_trianglediamonds.svg	19	yes	44	1	1091
6.6.1	and	2022-11-07	13:48:37	13:58:38	584285	611195657110219178aa70e1	871721325	1	main_z	11	advance_on_keypress_ZEE	84	stimuli_target_diamondcircles.svg	stimuli_distractor_trianglediamonds.svg	19	yes	57	0	349
6.6.1	and	2022-11-07	13:48:37	13:58:40	586138	611195657110219178aa70e1	871721325	1	main_z	11	main_z	85	stimuli_distractor_trianglediamonds.svg	stimuli_target_squaretriangles.svg	11	yes	44	1	864
6.6.1	and	2022-11-07	13:48:37	13:58:40	586138	611195657110219178aa70e1	871721325	1	main_z	11	advance_on_keypress_ZEE	86	stimuli_distractor_trianglediamonds.svg	stimuli_target_squaretriangles.svg	11	yes	57	0	242
6.6.1	and	2022-11-07	13:48:37	13:58:42	587883	611195657110219178aa70e1	871721325	1	main_z	11	main_z	87	stimuli_target_squaretriangles.svg	stimuli_distractor_diamondtriangles.svg	7	yes	44	1	859
6.6.1	and	2022-11-07	13:48:37	13:58:42	587883	611195657110219178aa70e1	871721325	1	main_z	11	advance_on_keypress_ZEE	88	stimuli_target_squaretriangles.svg	stimuli_distractor_diamondtriangles.svg	7	yes	57	0	279
6.6.1	and	2022-11-07	13:48:37	13:58:45	590810	611195657110219178aa70e1	871721325	1	main_z	11	main_z	89	stimuli_distractor_trianglediamonds.svg	stimuli_distractor_trianglediamonds.svg	34	no	0	1	2000
6.6.1	and	2022-11-07	13:48:37	13:58:45	590810	611195657110219178aa70e1	871721325	1	main_z	11	advance_on_keypress_ZEE	90	stimuli_distractor_trianglediamonds.svg	stimuli_distractor_trianglediamonds.svg	34	no	57	0	241
6.6.1	and	2022-11-07	13:48:37	13:58:47	592921	611195657110219178aa70e1	871721325	1	main_z	11	main_z	91	stimuli_distractor_trianglediamonds.svg	stimuli_target_diamondcircles.svg	27	yes	44	1	1232
6.6.1	and	2022-11-07	13:48:37	13:58:47	592921	611195657110219178aa70e1	871721325	1	main_z	11	advance_on_keypress_ZEE	92	stimuli_distractor_trianglediamonds.svg	stimuli_target_diamondcircles.svg	27	yes	57	0	350
6.6.1	and	2022-11-07	13:48:37	13:58:49	594730	611195657110219178aa70e1	871721325	1	main_z	11	main_z	93	stimuli_distractor_trianglediamonds.svg	stimuli_target_trianglecircles.svg	25	yes	44	1	824
6.6.1	and	2022-11-07	13:48:37	13:58:49	594730	611195657110219178aa70e1	871721325	1	main_z	11	advance_on_keypress_ZEE	94	stimuli_distractor_trianglediamonds.svg	stimuli_target_trianglecircles.svg	25	yes	57	0	303
6.6.1	and	2022-11-07	13:48:37	13:58:51	597052	611195657110219178aa70e1	871721325	1	main_z	11	main_z	95	stimuli_target_trianglecircles.svg	stimuli_distractor_diamondtriangles.svg	21	yes	44	1	1359
6.6.1	and	2022-11-07	13:48:37	13:58:51	597052	611195657110219178aa70e1	871721325	1	main_z	11	advance_on_keypress_ZEE	96	stimuli_target_trianglecircles.svg	stimuli_distractor_diamondtriangles.svg	21	yes	57	0	304
6.6.1	and	2022-11-07	13:48:37	13:58:53	599409	611195657110219178aa70e1	871721325	1	main_z	11	main_z	97	stimuli_distractor_diamondtriangles.svg	stimuli_target_circletriangles.svg	13	yes	44	1	1403
6.6.1	and	2022-11-07	13:48:37	13:58:53	599409	611195657110219178aa70e1	871721325	1	main_z	11	advance_on_keypress_ZEE	98	stimuli_distractor_diamondtriangles.svg	stimuli_target_circletriangles.svg	13	yes	57	0	316
6.6.1	and	2022-11-07	13:48:37	13:58:55	601243	611195657110219178aa70e1	871721325	1	main_z	11	main_z	99	stimuli_distractor_diamondtriangles.svg	stimuli_target_diamondsquares.svg	32	yes	44	1	884
6.6.1	and	2022-11-07	13:48:37	13:58:55	601243	611195657110219178aa70e1	871721325	1	main_z	11	advance_on_keypress_ZEE	100	stimuli_distractor_diamondtriangles.svg	stimuli_target_diamondsquares.svg	32	yes	57	0	316
6.6.1	and	2022-11-07	13:48:37	13:58:58	603806	611195657110219178aa70e1	871721325	1	main_z	11	main_z	101	stimuli_distractor_diamondtriangles.svg	stimuli_target_squarediamonds.svg	16	yes	44	1	1600
6.6.1	and	2022-11-07	13:48:37	13:58:58	603806	611195657110219178aa70e1	871721325	1	main_z	11	advance_on_keypress_ZEE	102	stimuli_distractor_diamondtriangles.svg	stimuli_target_squarediamonds.svg	16	yes	57	0	296
6.6.1	and	2022-11-07	13:48:37	13:59:00	605692	611195657110219178aa70e1	871721325	1	main_z	11	main_z	103	stimuli_target_trianglecircles.svg	stimuli_distractor_trianglediamonds.svg	17	yes	44	1	951
6.6.1	and	2022-11-07	13:48:37	13:59:00	605692	611195657110219178aa70e1	871721325	1	main_z	11	advance_on_keypress_ZEE	104	stimuli_target_trianglecircles.svg	stimuli_distractor_trianglediamonds.svg	17	yes	57	0	390
6.6.1	and	2022-11-07	13:48:37	13:59:03	608726	611195657110219178aa70e1	871721325	1	main_z	11	main_z	105	stimuli_distractor_diamondtriangles.svg	stimuli_target_circlediamonds.svg	14	yes	0	0	2000
6.6.1	and	2022-11-07	13:48:37	13:59:03	608726	611195657110219178aa70e1	871721325	1	main_z	11	advance_on_keypress_ZEE	106	stimuli_distractor_diamondtriangles.svg	stimuli_target_circlediamonds.svg	14	yes	57	0	530
6.6.1	and	2022-11-07	13:48:37	13:59:05	610818	611195657110219178aa70e1	871721325	1	main_z	11	main_z	107	stimuli_target_diamondsquares.svg	stimuli_distractor_diamondtriangles.svg	24	yes	44	1	913
6.6.1	and	2022-11-07	13:48:37	13:59:05	610818	611195657110219178aa70e1	871721325	1	main_z	11	advance_on_keypress_ZEE	108	stimuli_target_diamondsquares.svg	stimuli_distractor_diamondtriangles.svg	24	yes	57	0	331
6.6.1	and	2022-11-07	13:48:37	13:59:07	612751	611195657110219178aa70e1	871721325	1	main_z	11	main_z	109	stimuli_distractor_trianglediamonds.svg	stimuli_target_circletriangles.svg	9	yes	44	1	963
6.6.1	and	2022-11-07	13:48:37	13:59:07	612751	611195657110219178aa70e1	871721325	1	main_z	11	advance_on_keypress_ZEE	110	stimuli_distractor_trianglediamonds.svg	stimuli_target_circletriangles.svg	9	yes	57	0	338
6.6.1	and	2022-11-07	13:48:37	13:59:09	614842	611195657110219178aa70e1	871721325	1	main_z	11	main_z	111	stimuli_target_diamondcircles.svg	stimuli_distractor_diamondtriangles.svg	23	yes	44	1	1101
6.6.1	and	2022-11-07	13:48:37	13:59:09	614842	611195657110219178aa70e1	871721325	1	main_z	11	advance_on_keypress_ZEE	112	stimuli_target_diamondcircles.svg	stimuli_distractor_diamondtriangles.svg	23	yes	57	0	378
6.6.1	and	2022-11-07	13:48:37	13:59:11	616880	611195657110219178aa70e1	871721325	1	main_z	11	main_z	113	stimuli_distractor_diamondtriangles.svg	stimuli_target_trianglesquares.svg	30	yes	44	1	1007
6.6.1	and	2022-11-07	13:48:37	13:59:11	616880	611195657110219178aa70e1	871721325	1	main_z	11	advance_on_keypress_ZEE	114	stimuli_distractor_diamondtriangles.svg	stimuli_target_trianglesquares.svg	30	yes	57	0	345
6.6.1	and	2022-11-07	13:48:37	13:59:13	619218	611195657110219178aa70e1	871721325	1	main_z	11	main_z	115	stimuli_distractor_diamondtriangles.svg	stimuli_target_trianglecircles.svg	29	yes	44	1	1348
6.6.1	and	2022-11-07	13:48:37	13:59:13	619218	611195657110219178aa70e1	871721325	1	main_z	11	advance_on_keypress_ZEE	116	stimuli_distractor_diamondtriangles.svg	stimuli_target_trianglecircles.svg	29	yes	57	0	300
6.6.1	and	2022-11-07	13:48:37	13:59:15	621210	611195657110219178aa70e1	871721325	1	main_z	11	main_z	117	stimuli_distractor_diamondtriangles.svg	stimuli_target_diamondcircles.svg	31	yes	44	1	1056
6.6.1	and	2022-11-07	13:48:37	13:59:15	621210	611195657110219178aa70e1	871721325	1	main_z	11	advance_on_keypress_ZEE	118	stimuli_distractor_diamondtriangles.svg	stimuli_target_diamondcircles.svg	31	yes	57	0	363
6.6.1	and	2022-11-07	13:48:37	13:59:18	624232	611195657110219178aa70e1	871721325	1	main_z	11	main_z	119	stimuli_distractor_diamondtriangles.svg	stimuli_distractor_diamondtriangles.svg	39	no	0	1	2000
6.6.1	and	2022-11-07	13:48:37	13:59:18	624232	611195657110219178aa70e1	871721325	1	main_z	11	advance_on_keypress_ZEE	120	stimuli_distractor_diamondtriangles.svg	stimuli_distractor_diamondtriangles.svg	39	no	57	0	400
6.6.1	and	2022-11-07	13:48:37	13:59:20	626135	611195657110219178aa70e1	871721325	1	main_z	11	main_z	121	stimuli_distractor_trianglediamonds.svg	stimuli_target_squarediamonds.svg	12	yes	44	1	867
6.6.1	and	2022-11-07	13:48:37	13:59:20	626135	611195657110219178aa70e1	871721325	1	main_z	11	advance_on_keypress_ZEE	122	stimuli_distractor_trianglediamonds.svg	stimuli_target_squarediamonds.svg	12	yes	57	0	325
6.6.1	and	2022-11-07	13:48:37	13:59:22	628003	611195657110219178aa70e1	871721325	1	main_z	11	main_z	123	stimuli_target_circletriangles.svg	stimuli_distractor_diamondtriangles.svg	5	yes	44	1	902
6.6.1	and	2022-11-07	13:48:37	13:59:22	628003	611195657110219178aa70e1	871721325	1	main_z	11	advance_on_keypress_ZEE	124	stimuli_target_circletriangles.svg	stimuli_distractor_diamondtriangles.svg	5	yes	57	0	372
6.6.1	and	2022-11-07	13:48:37	13:59:24	629892	611195657110219178aa70e1	871721325	1	main_z	11	main_z	125	stimuli_target_squarediamonds.svg	stimuli_distractor_trianglediamonds.svg	4	yes	44	1	874
6.6.1	and	2022-11-07	13:48:37	13:59:24	629892	611195657110219178aa70e1	871721325	1	main_z	11	advance_on_keypress_ZEE	126	stimuli_target_squarediamonds.svg	stimuli_distractor_trianglediamonds.svg	4	yes	57	0	284
6.6.1	and	2022-11-07	13:48:37	13:59:26	631876	611195657110219178aa70e1	871721325	1	main_z	11	main_z	127	stimuli_distractor_trianglediamonds.svg	stimuli_target_circlediamonds.svg	10	yes	44	1	1042
6.6.1	and	2022-11-07	13:48:37	13:59:26	631876	611195657110219178aa70e1	871721325	1	main_z	11	advance_on_keypress_ZEE	128	stimuli_distractor_trianglediamonds.svg	stimuli_target_circlediamonds.svg	10	yes	57	0	244
6.6.1	and	2022-11-07	13:48:37	13:59:29	634773	611195657110219178aa70e1	871721325	1	main_z	11	main_z	129	stimuli_distractor_trianglediamonds.svg	stimuli_distractor_diamondtriangles.svg	35	no	0	1	2000
6.6.1	and	2022-11-07	13:48:37	13:59:29	634773	611195657110219178aa70e1	871721325	1	main_z	11	advance_on_keypress_ZEE	130	stimuli_distractor_trianglediamonds.svg	stimuli_distractor_diamondtriangles.svg	35	no	57	0	318
6.6.1	and	2022-11-07	13:48:37	13:59:31	636485	611195657110219178aa70e1	871721325	1	main_z	11	main_z	131	stimuli_distractor_trianglediamonds.svg	stimuli_target_diamondsquares.svg	28	yes	44	1	752
6.6.1	and	2022-11-07	13:48:37	13:59:31	636485	611195657110219178aa70e1	871721325	1	main_z	11	advance_on_keypress_ZEE	132	stimuli_distractor_trianglediamonds.svg	stimuli_target_diamondsquares.svg	28	yes	57	0	270
6.6.1	and	2022-11-07	13:48:37	13:59:32	638292	611195657110219178aa70e1	871721325	1	main_z	11	main_z	133	stimuli_target_squarediamonds.svg	stimuli_distractor_diamondtriangles.svg	8	yes	44	1	888
6.6.1	and	2022-11-07	13:48:37	13:59:32	638292	611195657110219178aa70e1	871721325	1	main_z	11	advance_on_keypress_ZEE	134	stimuli_target_squarediamonds.svg	stimuli_distractor_diamondtriangles.svg	8	yes	57	0	259
6.6.1	and	2022-11-07	13:48:37	13:59:35	641203	611195657110219178aa70e1	871721325	1	main_z	11	main_z	135	stimuli_distractor_trianglediamonds.svg	stimuli_distractor_diamondtriangles.svg	36	no	0	1	2000
6.6.1	and	2022-11-07	13:48:37	13:59:35	641203	611195657110219178aa70e1	871721325	1	main_z	11	advance_on_keypress_ZEE	136	stimuli_distractor_trianglediamonds.svg	stimuli_distractor_diamondtriangles.svg	36	no	57	0	324
6.6.1	and	2022-11-07	13:48:37	13:59:37	642955	611195657110219178aa70e1	871721325	1	main_z	11	main_z	137	stimuli_target_circletriangles.svg	stimuli_distractor_trianglediamonds.svg	1	yes	44	1	773
6.6.1	and	2022-11-07	13:48:37	13:59:37	642955	611195657110219178aa70e1	871721325	1	main_z	11	advance_on_keypress_ZEE	138	stimuli_target_circletriangles.svg	stimuli_distractor_trianglediamonds.svg	1	yes	57	0	234
6.6.1	and	2022-11-07	13:48:37	13:59:39	644749	611195657110219178aa70e1	871721325	1	main_z	11	main_z	139	stimuli_target_squaretriangles.svg	stimuli_distractor_trianglediamonds.svg	3	yes	44	1	899
6.6.1	and	2022-11-07	13:48:37	13:59:39	644749	611195657110219178aa70e1	871721325	1	main_z	11	advance_on_keypress_ZEE	140	stimuli_target_squaretriangles.svg	stimuli_distractor_trianglediamonds.svg	3	yes	57	0	270
6.6.1	and	2022-11-07	13:48:37	13:59:41	646574	611195657110219178aa70e1	871721325	1	main_z	11	main_z	141	stimuli_target_trianglesquares.svg	stimuli_distractor_diamondtriangles.svg	22	yes	44	1	906
6.6.1	and	2022-11-07	13:48:37	13:59:41	646574	611195657110219178aa70e1	871721325	1	main_z	11	advance_on_keypress_ZEE	142	stimuli_target_trianglesquares.svg	stimuli_distractor_diamondtriangles.svg	22	yes	57	0	244
6.6.1	and	2022-11-07	13:48:37	13:59:42	648382	611195657110219178aa70e1	871721325	1	main_z	11	main_z	143	stimuli_distractor_trianglediamonds.svg	stimuli_target_trianglesquares.svg	26	yes	44	1	913
6.6.1	and	2022-11-07	13:48:37	13:59:42	648382	611195657110219178aa70e1	871721325	1	main_z	11	advance_on_keypress_ZEE	144	stimuli_distractor_trianglediamonds.svg	stimuli_target_trianglesquares.svg	26	yes	57	0	254
6.6.1	and	2022-11-07	13:48:37	13:59:45	651286	611195657110219178aa70e1	871721325	1	main_z	11	main_z	145	stimuli_distractor_diamondtriangles.svg	stimuli_distractor_trianglediamonds.svg	38	no	0	1	2000
6.6.1	and	2022-11-07	13:48:37	13:59:45	651286	611195657110219178aa70e1	871721325	1	main_z	11	advance_on_keypress_ZEE	146	stimuli_distractor_diamondtriangles.svg	stimuli_distractor_trianglediamonds.svg	38	no	57	0	368
6.6.1	and	2022-11-07	13:48:37	13:59:47	653109	611195657110219178aa70e1	871721325	1	main_z	11	main_z	147	stimuli_target_circlediamonds.svg	stimuli_distractor_diamondtriangles.svg	6	yes	44	1	808
6.6.1	and	2022-11-07	13:48:37	13:59:47	653109	611195657110219178aa70e1	871721325	1	main_z	11	advance_on_keypress_ZEE	148	stimuli_target_circlediamonds.svg	stimuli_distractor_diamondtriangles.svg	6	yes	57	0	281
6.6.1	and	2022-11-07	13:48:37	13:59:49	655037	611195657110219178aa70e1	871721325	1	main_z	11	main_z	149	stimuli_target_trianglesquares.svg	stimuli_distractor_trianglediamonds.svg	18	yes	44	1	989
6.6.1	and	2022-11-07	13:48:37	13:59:49	655037	611195657110219178aa70e1	871721325	1	main_z	11	advance_on_keypress_ZEE	150	stimuli_target_trianglesquares.svg	stimuli_distractor_trianglediamonds.svg	18	yes	57	0	278
6.6.1	and	2022-11-07	13:48:37	13:59:52	657965	611195657110219178aa70e1	871721325	1	main_z	11	main_z	151	stimuli_distractor_trianglediamonds.svg	stimuli_distractor_trianglediamonds.svg	33	no	0	1	2000
6.6.1	and	2022-11-07	13:48:37	13:59:52	657965	611195657110219178aa70e1	871721325	1	main_z	11	advance_on_keypress_ZEE	152	stimuli_distractor_trianglediamonds.svg	stimuli_distractor_trianglediamonds.svg	33	no	57	0	316
6.6.1	and	2022-11-07	13:48:37	13:59:54	659779	611195657110219178aa70e1	871721325	1	main_z	11	main_z	153	stimuli_target_circlediamonds.svg	stimuli_distractor_trianglediamonds.svg	2	yes	44	1	866
6.6.1	and	2022-11-07	13:48:37	13:59:54	659779	611195657110219178aa70e1	871721325	1	main_z	11	advance_on_keypress_ZEE	154	stimuli_target_circlediamonds.svg	stimuli_distractor_trianglediamonds.svg	2	yes	57	0	239
6.6.1	and	2022-11-07	13:48:37	13:59:57	662667	611195657110219178aa70e1	871721325	1	main_z	11	main_z	155	stimuli_target_diamondsquares.svg	stimuli_distractor_trianglediamonds.svg	20	yes	0	0	2000
6.6.1	and	2022-11-07	13:48:37	13:59:57	662667	611195657110219178aa70e1	871721325	1	main_z	11	advance_on_keypress_ZEE	156	stimuli_target_diamondsquares.svg	stimuli_distractor_trianglediamonds.svg	20	yes	57	0	332
6.6.1	and	2022-11-07	13:48:37	14:00:00	665647	611195657110219178aa70e1	871721325	1	main_z	11	main_z	157	stimuli_distractor_diamondtriangles.svg	stimuli_distractor_diamondtriangles.svg	40	no	0	1	2000
6.6.1	and	2022-11-07	13:48:37	14:00:00	665647	611195657110219178aa70e1	871721325	1	main_z	11	advance_on_keypress_ZEE	158	stimuli_distractor_diamondtriangles.svg	stimuli_distractor_diamondtriangles.svg	40	no	57	0	66
6.6.1	and	2022-11-07	13:48:37	14:00:02	667740	611195657110219178aa70e1	871721325	1	main_z	11	main_z	159	stimuli_distractor_diamondtriangles.svg	stimuli_distractor_trianglediamonds.svg	37	no	44	0	1390
6.6.1	and	2022-11-07	13:48:37	14:00:02	667740	611195657110219178aa70e1	871721325	1	main_z	11	advance_on_keypress_ZEE	160	stimuli_distractor_diamondtriangles.svg	stimuli_distractor_trianglediamonds.svg	37	no	57	0	306