build	computer.platform	date	time	timestamp	time_elapsed_ms	subject	group	session	blockcode	blocknum	trialcode	trialnum	stimulus_left	stimulus_right	stim_index	target_present	response	correct	latency
6.6.1	win	2022-11-07	13:30:08	13:33:00	166842	5c6ac9e5d9c5be000174497f	683340666	1	practice_z	5	practice_z	1	stimuli_distractor_diamondtriangles.svg	stimuli_distractor_trianglediamonds.svg	14	no	0	1	2000
6.6.1	win	2022-11-07	13:30:08	13:33:00	166842	5c6ac9e5d9c5be000174497f	683340666	1	practice_z	5	advance_on_keypress_ZEE	2	stimuli_distractor_diamondtriangles.svg	stimuli_distractor_trianglediamonds.svg	14	no	57	0	690
6.6.1	win	2022-11-07	13:30:08	13:33:04	171177	5c6ac9e5d9c5be000174497f	683340666	1	practice_z	5	practice_z	3	stimuli_distractor_trianglediamonds.svg	stimuli_distractor_trianglediamonds.svg	15	no	0	1	2000
6.6.1	win	2022-11-07	13:30:08	13:33:04	171177	5c6ac9e5d9c5be000174497f	683340666	1	practice_z	5	advance_on_keypress_ZEE	4	stimuli_distractor_trianglediamonds.svg	stimuli_distractor_trianglediamonds.svg	15	no	57	0	878
6.6.1	win	2022-11-07	13:30:08	13:33:07	174194	5c6ac9e5d9c5be000174497f	683340666	1	practice_z	5	practice_z	5	stimuli_target_circlediamonds.svg	stimuli_distractor_trianglediamonds.svg	4	yes	44	1	509
6.6.1	win	2022-11-07	13:30:08	13:33:07	174194	5c6ac9e5d9c5be000174497f	683340666	1	practice_z	5	advance_on_keypress_ZEE	6	stimuli_target_circlediamonds.svg	stimuli_distractor_trianglediamonds.svg	4	yes	57	0	872
6.6.1	win	2022-11-07	13:30:08	13:33:11	178417	5c6ac9e5d9c5be000174497f	683340666	1	practice_z	5	practice_z	7	stimuli_distractor_diamondtriangles.svg	stimuli_target_trianglecircles.svg	9	yes	44	1	1714
6.6.1	win	2022-11-07	13:30:08	13:33:11	178417	5c6ac9e5d9c5be000174497f	683340666	1	practice_z	5	advance_on_keypress_ZEE	8	stimuli_distractor_diamondtriangles.svg	stimuli_target_trianglecircles.svg	9	yes	57	0	581
6.6.1	win	2022-11-07	13:30:08	13:33:14	181514	5c6ac9e5d9c5be000174497f	683340666	1	practice_z	5	practice_z	9	stimuli_distractor_diamondtriangles.svg	stimuli_target_circletriangles.svg	7	yes	44	1	876
6.6.1	win	2022-11-07	13:30:08	13:33:14	181514	5c6ac9e5d9c5be000174497f	683340666	1	practice_z	5	advance_on_keypress_ZEE	10	stimuli_distractor_diamondtriangles.svg	stimuli_target_circletriangles.svg	7	yes	57	0	428
6.6.1	win	2022-11-07	13:30:08	13:33:17	184381	5c6ac9e5d9c5be000174497f	683340666	1	practice_z	5	practice_z	11	stimuli_target_squarediamonds.svg	stimuli_distractor_trianglediamonds.svg	5	yes	44	1	801
6.6.1	win	2022-11-07	13:30:08	13:33:17	184381	5c6ac9e5d9c5be000174497f	683340666	1	practice_z	5	advance_on_keypress_ZEE	12	stimuli_target_squarediamonds.svg	stimuli_distractor_trianglediamonds.svg	5	yes	57	0	473
6.6.1	win	2022-11-07	13:30:08	13:33:20	187206	5c6ac9e5d9c5be000174497f	683340666	1	practice_z	5	practice_z	13	stimuli_target_circlediamonds.svg	stimuli_distractor_diamondtriangles.svg	1	yes	44	1	719
6.6.1	win	2022-11-07	13:30:08	13:33:20	187206	5c6ac9e5d9c5be000174497f	683340666	1	practice_z	5	advance_on_keypress_ZEE	14	stimuli_target_circlediamonds.svg	stimuli_distractor_diamondtriangles.svg	1	yes	57	0	510
6.6.1	win	2022-11-07	13:30:08	13:33:23	190111	5c6ac9e5d9c5be000174497f	683340666	1	practice_z	5	practice_z	15	stimuli_distractor_trianglediamonds.svg	stimuli_target_circlediamonds.svg	10	yes	44	1	757
6.6.1	win	2022-11-07	13:30:08	13:33:23	190111	5c6ac9e5d9c5be000174497f	683340666	1	practice_z	5	advance_on_keypress_ZEE	16	stimuli_distractor_trianglediamonds.svg	stimuli_target_circlediamonds.svg	10	yes	57	0	299
6.6.1	win	2022-11-07	13:30:08	13:33:26	193285	5c6ac9e5d9c5be000174497f	683340666	1	practice_z	5	practice_z	17	stimuli_target_diamondsquares.svg	stimuli_distractor_diamondtriangles.svg	3	yes	44	1	1247
6.6.1	win	2022-11-07	13:30:08	13:33:26	193285	5c6ac9e5d9c5be000174497f	683340666	1	practice_z	5	advance_on_keypress_ZEE	18	stimuli_target_diamondsquares.svg	stimuli_distractor_diamondtriangles.svg	3	yes	57	0	383
6.6.1	win	2022-11-07	13:30:08	13:33:29	196456	5c6ac9e5d9c5be000174497f	683340666	1	practice_z	5	practice_z	19	stimuli_distractor_trianglediamonds.svg	stimuli_target_diamondcircles.svg	12	yes	44	1	1150
6.6.1	win	2022-11-07	13:30:08	13:33:29	196456	5c6ac9e5d9c5be000174497f	683340666	1	practice_z	5	advance_on_keypress_ZEE	20	stimuli_distractor_trianglediamonds.svg	stimuli_target_diamondcircles.svg	12	yes	57	0	368
6.6.1	win	2022-11-07	13:30:08	13:33:32	199424	5c6ac9e5d9c5be000174497f	683340666	1	practice_z	5	practice_z	21	stimuli_distractor_diamondtriangles.svg	stimuli_target_diamondcircles.svg	8	yes	44	1	968
6.6.1	win	2022-11-07	13:30:08	13:33:32	199424	5c6ac9e5d9c5be000174497f	683340666	1	practice_z	5	advance_on_keypress_ZEE	22	stimuli_distractor_diamondtriangles.svg	stimuli_target_diamondcircles.svg	8	yes	57	0	471
6.6.1	win	2022-11-07	13:30:08	13:33:36	203524	5c6ac9e5d9c5be000174497f	683340666	1	practice_z	5	practice_z	23	stimuli_distractor_trianglediamonds.svg	stimuli_distractor_diamondtriangles.svg	16	no	0	1	2000
6.6.1	win	2022-11-07	13:30:08	13:33:36	203524	5c6ac9e5d9c5be000174497f	683340666	1	practice_z	5	advance_on_keypress_ZEE	24	stimuli_distractor_trianglediamonds.svg	stimuli_distractor_diamondtriangles.svg	16	no	57	0	396
6.6.1	win	2022-11-07	13:30:08	13:33:39	206164	5c6ac9e5d9c5be000174497f	683340666	1	practice_z	5	practice_z	25	stimuli_target_squarediamonds.svg	stimuli_distractor_diamondtriangles.svg	2	yes	44	1	606
6.6.1	win	2022-11-07	13:30:08	13:33:39	206164	5c6ac9e5d9c5be000174497f	683340666	1	practice_z	5	advance_on_keypress_ZEE	26	stimuli_target_squarediamonds.svg	stimuli_distractor_diamondtriangles.svg	2	yes	57	0	403
6.6.1	win	2022-11-07	13:30:08	13:33:43	210200	5c6ac9e5d9c5be000174497f	683340666	1	practice_z	5	practice_z	27	stimuli_target_diamondsquares.svg	stimuli_distractor_trianglediamonds.svg	6	yes	0	0	2000
6.6.1	win	2022-11-07	13:30:08	13:33:43	210200	5c6ac9e5d9c5be000174497f	683340666	1	practice_z	5	advance_on_keypress_ZEE	28	stimuli_target_diamondsquares.svg	stimuli_distractor_trianglediamonds.svg	6	yes	57	0	484
6.6.1	win	2022-11-07	13:30:08	13:33:47	214326	5c6ac9e5d9c5be000174497f	683340666	1	practice_z	5	practice_z	29	stimuli_distractor_diamondtriangles.svg	stimuli_distractor_diamondtriangles.svg	13	no	0	1	2000
6.6.1	win	2022-11-07	13:30:08	13:33:47	214326	5c6ac9e5d9c5be000174497f	683340666	1	practice_z	5	advance_on_keypress_ZEE	30	stimuli_distractor_diamondtriangles.svg	stimuli_distractor_diamondtriangles.svg	13	no	57	0	384
6.6.1	win	2022-11-07	13:30:08	13:33:50	217018	5c6ac9e5d9c5be000174497f	683340666	1	practice_z	5	practice_z	31	stimuli_distractor_trianglediamonds.svg	stimuli_target_squarediamonds.svg	11	yes	44	1	685
6.6.1	win	2022-11-07	13:30:08	13:33:50	217018	5c6ac9e5d9c5be000174497f	683340666	1	practice_z	5	advance_on_keypress_ZEE	32	stimuli_distractor_trianglediamonds.svg	stimuli_target_squarediamonds.svg	11	yes	57	0	454
6.6.1	win	2022-11-07	13:30:08	13:33:58	225249	5c6ac9e5d9c5be000174497f	683340666	1	main_z	7	main_z	1	stimuli_distractor_trianglediamonds.svg	stimuli_distractor_trianglediamonds.svg	34	no	0	1	2000
6.6.1	win	2022-11-07	13:30:08	13:33:58	225249	5c6ac9e5d9c5be000174497f	683340666	1	main_z	7	advance_on_keypress_ZEE	2	stimuli_distractor_trianglediamonds.svg	stimuli_distractor_trianglediamonds.svg	34	no	57	0	415
6.6.1	win	2022-11-07	13:30:08	13:34:00	226822	5c6ac9e5d9c5be000174497f	683340666	1	main_z	7	main_z	3	stimuli_target_circlediamonds.svg	stimuli_distractor_diamondtriangles.svg	6	yes	44	1	532
6.6.1	win	2022-11-07	13:30:08	13:34:00	226822	5c6ac9e5d9c5be000174497f	683340666	1	main_z	7	advance_on_keypress_ZEE	4	stimuli_target_circlediamonds.svg	stimuli_distractor_diamondtriangles.svg	6	yes	57	0	570
6.6.1	win	2022-11-07	13:30:08	13:34:02	228824	5c6ac9e5d9c5be000174497f	683340666	1	main_z	7	main_z	5	stimuli_distractor_diamondtriangles.svg	stimuli_target_trianglesquares.svg	30	yes	44	1	808
6.6.1	win	2022-11-07	13:30:08	13:34:02	228824	5c6ac9e5d9c5be000174497f	683340666	1	main_z	7	advance_on_keypress_ZEE	6	stimuli_distractor_diamondtriangles.svg	stimuli_target_trianglesquares.svg	30	yes	57	0	570
6.6.1	win	2022-11-07	13:30:08	13:34:05	232025	5c6ac9e5d9c5be000174497f	683340666	1	main_z	7	main_z	7	stimuli_distractor_trianglediamonds.svg	stimuli_distractor_diamondtriangles.svg	35	no	0	1	2000
6.6.1	win	2022-11-07	13:30:08	13:34:05	232025	5c6ac9e5d9c5be000174497f	683340666	1	main_z	7	advance_on_keypress_ZEE	8	stimuli_distractor_trianglediamonds.svg	stimuli_distractor_diamondtriangles.svg	35	no	57	0	406
6.6.1	win	2022-11-07	13:30:08	13:34:07	233808	5c6ac9e5d9c5be000174497f	683340666	1	main_z	7	main_z	9	stimuli_target_squaretriangles.svg	stimuli_distractor_diamondtriangles.svg	7	yes	44	1	749
6.6.1	win	2022-11-07	13:30:08	13:34:07	233808	5c6ac9e5d9c5be000174497f	683340666	1	main_z	7	advance_on_keypress_ZEE	10	stimuli_target_squaretriangles.svg	stimuli_distractor_diamondtriangles.svg	7	yes	57	0	415
6.6.1	win	2022-11-07	13:30:08	13:34:08	235344	5c6ac9e5d9c5be000174497f	683340666	1	main_z	7	main_z	11	stimuli_target_trianglesquares.svg	stimuli_distractor_diamondtriangles.svg	22	yes	44	1	493
6.6.1	win	2022-11-07	13:30:08	13:34:08	235344	5c6ac9e5d9c5be000174497f	683340666	1	main_z	7	advance_on_keypress_ZEE	12	stimuli_target_trianglesquares.svg	stimuli_distractor_diamondtriangles.svg	22	yes	57	0	332
6.6.1	win	2022-11-07	13:30:08	13:34:10	236985	5c6ac9e5d9c5be000174497f	683340666	1	main_z	7	main_z	13	stimuli_target_squaretriangles.svg	stimuli_distractor_trianglediamonds.svg	3	yes	44	1	685
6.6.1	win	2022-11-07	13:30:08	13:34:10	236985	5c6ac9e5d9c5be000174497f	683340666	1	main_z	7	advance_on_keypress_ZEE	14	stimuli_target_squaretriangles.svg	stimuli_distractor_trianglediamonds.svg	3	yes	57	0	167
6.6.1	win	2022-11-07	13:30:08	13:34:12	239114	5c6ac9e5d9c5be000174497f	683340666	1	main_z	7	main_z	15	stimuli_target_trianglesquares.svg	stimuli_distractor_trianglediamonds.svg	18	yes	44	1	1339
6.6.1	win	2022-11-07	13:30:08	13:34:12	239114	5c6ac9e5d9c5be000174497f	683340666	1	main_z	7	advance_on_keypress_ZEE	16	stimuli_target_trianglesquares.svg	stimuli_distractor_trianglediamonds.svg	18	yes	57	0	74
6.6.1	win	2022-11-07	13:30:08	13:34:13	240421	5c6ac9e5d9c5be000174497f	683340666	1	main_z	7	main_z	17	stimuli_distractor_diamondtriangles.svg	stimuli_target_diamondcircles.svg	31	yes	44	1	603
6.6.1	win	2022-11-07	13:30:08	13:34:13	240421	5c6ac9e5d9c5be000174497f	683340666	1	main_z	7	advance_on_keypress_ZEE	18	stimuli_distractor_diamondtriangles.svg	stimuli_target_diamondcircles.svg	31	yes	57	0	99
6.6.1	win	2022-11-07	13:30:08	13:34:15	242335	5c6ac9e5d9c5be000174497f	683340666	1	main_z	7	main_z	19	stimuli_target_diamondcircles.svg	stimuli_distractor_diamondtriangles.svg	23	yes	44	1	1190
6.6.1	win	2022-11-07	13:30:08	13:34:15	242335	5c6ac9e5d9c5be000174497f	683340666	1	main_z	7	advance_on_keypress_ZEE	20	stimuli_target_diamondcircles.svg	stimuli_distractor_diamondtriangles.svg	23	yes	57	0	89
6.6.1	win	2022-11-07	13:30:08	13:34:17	243722	5c6ac9e5d9c5be000174497f	683340666	1	main_z	7	main_z	21	stimuli_distractor_diamondtriangles.svg	stimuli_target_squaretriangles.svg	15	yes	44	1	670
6.6.1	win	2022-11-07	13:30:08	13:34:17	243722	5c6ac9e5d9c5be000174497f	683340666	1	main_z	7	advance_on_keypress_ZEE	22	stimuli_distractor_diamondtriangles.svg	stimuli_target_squaretriangles.svg	15	yes	57	0	75
6.6.1	win	2022-11-07	13:30:08	13:34:19	245817	5c6ac9e5d9c5be000174497f	683340666	1	main_z	7	main_z	23	stimuli_target_squarediamonds.svg	stimuli_distractor_trianglediamonds.svg	4	yes	44	1	1390
6.6.1	win	2022-11-07	13:30:08	13:34:19	245817	5c6ac9e5d9c5be000174497f	683340666	1	main_z	7	advance_on_keypress_ZEE	24	stimuli_target_squarediamonds.svg	stimuli_distractor_trianglediamonds.svg	4	yes	57	0	107
6.6.1	win	2022-11-07	13:30:08	13:34:20	247646	5c6ac9e5d9c5be000174497f	683340666	1	main_z	7	main_z	25	stimuli_target_diamondcircles.svg	stimuli_distractor_trianglediamonds.svg	19	yes	44	1	1093
6.6.1	win	2022-11-07	13:30:08	13:34:20	247646	5c6ac9e5d9c5be000174497f	683340666	1	main_z	7	advance_on_keypress_ZEE	26	stimuli_target_diamondcircles.svg	stimuli_distractor_trianglediamonds.svg	19	yes	57	0	520
6.6.1	win	2022-11-07	13:30:08	13:34:23	250447	5c6ac9e5d9c5be000174497f	683340666	1	main_z	7	main_z	27	stimuli_distractor_diamondtriangles.svg	stimuli_target_circlediamonds.svg	14	yes	44	1	1661
6.6.1	win	2022-11-07	13:30:08	13:34:23	250447	5c6ac9e5d9c5be000174497f	683340666	1	main_z	7	advance_on_keypress_ZEE	28	stimuli_distractor_diamondtriangles.svg	stimuli_target_circlediamonds.svg	14	yes	57	0	56
6.6.1	win	2022-11-07	13:30:08	13:34:25	251825	5c6ac9e5d9c5be000174497f	683340666	1	main_z	7	main_z	29	stimuli_distractor_trianglediamonds.svg	stimuli_target_trianglesquares.svg	26	yes	44	1	696
6.6.1	win	2022-11-07	13:30:08	13:34:25	251825	5c6ac9e5d9c5be000174497f	683340666	1	main_z	7	advance_on_keypress_ZEE	30	stimuli_distractor_trianglediamonds.svg	stimuli_target_trianglesquares.svg	26	yes	57	0	68
6.6.1	win	2022-11-07	13:30:08	13:34:27	254520	5c6ac9e5d9c5be000174497f	683340666	1	main_z	7	main_z	31	stimuli_distractor_diamondtriangles.svg	stimuli_distractor_trianglediamonds.svg	38	no	0	1	2000
6.6.1	win	2022-11-07	13:30:08	13:34:27	254520	5c6ac9e5d9c5be000174497f	683340666	1	main_z	7	advance_on_keypress_ZEE	32	stimuli_distractor_diamondtriangles.svg	stimuli_distractor_trianglediamonds.svg	38	no	57	0	565
6.6.1	win	2022-11-07	13:30:08	13:34:30	256731	5c6ac9e5d9c5be000174497f	683340666	1	main_z	7	main_z	33	stimuli_distractor_trianglediamonds.svg	stimuli_target_diamondsquares.svg	28	yes	44	1	1019
6.6.1	win	2022-11-07	13:30:08	13:34:30	256731	5c6ac9e5d9c5be000174497f	683340666	1	main_z	7	advance_on_keypress_ZEE	34	stimuli_distractor_trianglediamonds.svg	stimuli_target_diamondsquares.svg	28	yes	57	0	86
6.6.1	win	2022-11-07	13:30:08	13:34:31	258236	5c6ac9e5d9c5be000174497f	683340666	1	main_z	7	main_z	35	stimuli_distractor_trianglediamonds.svg	stimuli_target_circletriangles.svg	9	yes	44	1	790
6.6.1	win	2022-11-07	13:30:08	13:34:31	258236	5c6ac9e5d9c5be000174497f	683340666	1	main_z	7	advance_on_keypress_ZEE	36	stimuli_distractor_trianglediamonds.svg	stimuli_target_circletriangles.svg	9	yes	57	0	65
6.6.1	win	2022-11-07	13:30:08	13:34:32	259650	5c6ac9e5d9c5be000174497f	683340666	1	main_z	7	main_z	37	stimuli_distractor_trianglediamonds.svg	stimuli_target_squaretriangles.svg	11	yes	44	1	721
6.6.1	win	2022-11-07	13:30:08	13:34:32	259650	5c6ac9e5d9c5be000174497f	683340666	1	main_z	7	advance_on_keypress_ZEE	38	stimuli_distractor_trianglediamonds.svg	stimuli_target_squaretriangles.svg	11	yes	57	0	75
6.6.1	win	2022-11-07	13:30:08	13:34:34	260974	5c6ac9e5d9c5be000174497f	683340666	1	main_z	7	main_z	39	stimuli_target_circlediamonds.svg	stimuli_distractor_trianglediamonds.svg	2	yes	44	1	619
6.6.1	win	2022-11-07	13:30:08	13:34:34	260974	5c6ac9e5d9c5be000174497f	683340666	1	main_z	7	advance_on_keypress_ZEE	40	stimuli_target_circlediamonds.svg	stimuli_distractor_trianglediamonds.svg	2	yes	57	0	81
6.6.1	win	2022-11-07	13:30:08	13:34:35	262324	5c6ac9e5d9c5be000174497f	683340666	1	main_z	7	main_z	41	stimuli_target_squarediamonds.svg	stimuli_distractor_diamondtriangles.svg	8	yes	44	1	643
6.6.1	win	2022-11-07	13:30:08	13:34:35	262324	5c6ac9e5d9c5be000174497f	683340666	1	main_z	7	advance_on_keypress_ZEE	42	stimuli_target_squarediamonds.svg	stimuli_distractor_diamondtriangles.svg	8	yes	57	0	102
6.6.1	win	2022-11-07	13:30:08	13:34:37	263734	5c6ac9e5d9c5be000174497f	683340666	1	main_z	7	main_z	43	stimuli_distractor_trianglediamonds.svg	stimuli_target_diamondcircles.svg	27	yes	44	1	679
6.6.1	win	2022-11-07	13:30:08	13:34:37	263734	5c6ac9e5d9c5be000174497f	683340666	1	main_z	7	advance_on_keypress_ZEE	44	stimuli_distractor_trianglediamonds.svg	stimuli_target_diamondcircles.svg	27	yes	57	0	125
6.6.1	win	2022-11-07	13:30:08	13:34:38	265171	5c6ac9e5d9c5be000174497f	683340666	1	main_z	7	main_z	45	stimuli_target_diamondsquares.svg	stimuli_distractor_diamondtriangles.svg	24	yes	44	1	682
6.6.1	win	2022-11-07	13:30:08	13:34:38	265171	5c6ac9e5d9c5be000174497f	683340666	1	main_z	7	advance_on_keypress_ZEE	46	stimuli_target_diamondsquares.svg	stimuli_distractor_diamondtriangles.svg	24	yes	57	0	100
6.6.1	win	2022-11-07	13:30:08	13:34:41	267897	5c6ac9e5d9c5be000174497f	683340666	1	main_z	7	main_z	47	stimuli_target_diamondsquares.svg	stimuli_distractor_trianglediamonds.svg	20	yes	0	0	2000
6.6.1	win	2022-11-07	13:30:08	13:34:41	267897	5c6ac9e5d9c5be000174497f	683340666	1	main_z	7	advance_on_keypress_ZEE	48	stimuli_target_diamondsquares.svg	stimuli_distractor_trianglediamonds.svg	20	yes	57	0	431
6.6.1	win	2022-11-07	13:30:08	13:34:44	270955	5c6ac9e5d9c5be000174497f	683340666	1	main_z	7	main_z	49	stimuli_distractor_trianglediamonds.svg	stimuli_distractor_diamondtriangles.svg	36	no	0	1	2000
6.6.1	win	2022-11-07	13:30:08	13:34:44	270955	5c6ac9e5d9c5be000174497f	683340666	1	main_z	7	advance_on_keypress_ZEE	50	stimuli_distractor_trianglediamonds.svg	stimuli_distractor_diamondtriangles.svg	36	no	57	0	514
6.6.1	win	2022-11-07	13:30:08	13:34:46	272797	5c6ac9e5d9c5be000174497f	683340666	1	main_z	7	main_z	51	stimuli_distractor_diamondtriangles.svg	stimuli_target_diamondsquares.svg	32	yes	44	1	699
6.6.1	win	2022-11-07	13:30:08	13:34:46	272797	5c6ac9e5d9c5be000174497f	683340666	1	main_z	7	advance_on_keypress_ZEE	52	stimuli_distractor_diamondtriangles.svg	stimuli_target_diamondsquares.svg	32	yes	57	0	254
6.6.1	win	2022-11-07	13:30:08	13:34:48	275681	5c6ac9e5d9c5be000174497f	683340666	1	main_z	7	main_z	53	stimuli_distractor_diamondtriangles.svg	stimuli_distractor_diamondtriangles.svg	40	no	0	1	2000
6.6.1	win	2022-11-07	13:30:08	13:34:48	275681	5c6ac9e5d9c5be000174497f	683340666	1	main_z	7	advance_on_keypress_ZEE	54	stimuli_distractor_diamondtriangles.svg	stimuli_distractor_diamondtriangles.svg	40	no	57	0	348
6.6.1	win	2022-11-07	13:30:08	13:34:50	277349	5c6ac9e5d9c5be000174497f	683340666	1	main_z	7	main_z	55	stimuli_target_trianglecircles.svg	stimuli_distractor_trianglediamonds.svg	17	yes	44	1	691
6.6.1	win	2022-11-07	13:30:08	13:34:50	277349	5c6ac9e5d9c5be000174497f	683340666	1	main_z	7	advance_on_keypress_ZEE	56	stimuli_target_trianglecircles.svg	stimuli_distractor_trianglediamonds.svg	17	yes	57	0	112
6.6.1	win	2022-11-07	13:30:08	13:34:52	278774	5c6ac9e5d9c5be000174497f	683340666	1	main_z	7	main_z	57	stimuli_distractor_trianglediamonds.svg	stimuli_target_squarediamonds.svg	12	yes	44	1	692
6.6.1	win	2022-11-07	13:30:08	13:34:52	278774	5c6ac9e5d9c5be000174497f	683340666	1	main_z	7	advance_on_keypress_ZEE	58	stimuli_distractor_trianglediamonds.svg	stimuli_target_squarediamonds.svg	12	yes	57	0	66
6.6.1	win	2022-11-07	13:30:08	13:34:54	281465	5c6ac9e5d9c5be000174497f	683340666	1	main_z	7	main_z	59	stimuli_distractor_diamondtriangles.svg	stimuli_distractor_diamondtriangles.svg	39	no	0	1	2000
6.6.1	win	2022-11-07	13:30:08	13:34:54	281465	5c6ac9e5d9c5be000174497f	683340666	1	main_z	7	advance_on_keypress_ZEE	60	stimuli_distractor_diamondtriangles.svg	stimuli_distractor_diamondtriangles.svg	39	no	57	0	229
6.6.1	win	2022-11-07	13:30:08	13:34:57	284325	5c6ac9e5d9c5be000174497f	683340666	1	main_z	7	main_z	61	stimuli_distractor_trianglediamonds.svg	stimuli_distractor_trianglediamonds.svg	33	no	0	1	2000
6.6.1	win	2022-11-07	13:30:08	13:34:57	284325	5c6ac9e5d9c5be000174497f	683340666	1	main_z	7	advance_on_keypress_ZEE	62	stimuli_distractor_trianglediamonds.svg	stimuli_distractor_trianglediamonds.svg	33	no	57	0	268
6.6.1	win	2022-11-07	13:30:08	13:34:59	285794	5c6ac9e5d9c5be000174497f	683340666	1	main_z	7	main_z	63	stimuli_target_circletriangles.svg	stimuli_distractor_diamondtriangles.svg	5	yes	44	1	577
6.6.1	win	2022-11-07	13:30:08	13:34:59	285794	5c6ac9e5d9c5be000174497f	683340666	1	main_z	7	advance_on_keypress_ZEE	64	stimuli_target_circletriangles.svg	stimuli_distractor_diamondtriangles.svg	5	yes	57	0	110
6.6.1	win	2022-11-07	13:30:08	13:35:00	287079	5c6ac9e5d9c5be000174497f	683340666	1	main_z	7	main_z	65	stimuli_target_trianglecircles.svg	stimuli_distractor_diamondtriangles.svg	21	yes	44	1	555
6.6.1	win	2022-11-07	13:30:08	13:35:00	287079	5c6ac9e5d9c5be000174497f	683340666	1	main_z	7	advance_on_keypress_ZEE	66	stimuli_target_trianglecircles.svg	stimuli_distractor_diamondtriangles.svg	21	yes	57	0	69
6.6.1	win	2022-11-07	13:30:08	13:35:03	289775	5c6ac9e5d9c5be000174497f	683340666	1	main_z	7	main_z	67	stimuli_target_circletriangles.svg	stimuli_distractor_trianglediamonds.svg	1	yes	0	0	2000
6.6.1	win	2022-11-07	13:30:08	13:35:03	289775	5c6ac9e5d9c5be000174497f	683340666	1	main_z	7	advance_on_keypress_ZEE	68	stimuli_target_circletriangles.svg	stimuli_distractor_trianglediamonds.svg	1	yes	57	0	404
6.6.1	win	2022-11-07	13:30:08	13:35:04	291419	5c6ac9e5d9c5be000174497f	683340666	1	main_z	7	main_z	69	stimuli_distractor_diamondtriangles.svg	stimuli_target_trianglecircles.svg	29	yes	44	1	609
6.6.1	win	2022-11-07	13:30:08	13:35:04	291419	5c6ac9e5d9c5be000174497f	683340666	1	main_z	7	advance_on_keypress_ZEE	70	stimuli_distractor_diamondtriangles.svg	stimuli_target_trianglecircles.svg	29	yes	57	0	81
6.6.1	win	2022-11-07	13:30:08	13:35:07	294125	5c6ac9e5d9c5be000174497f	683340666	1	main_z	7	main_z	71	stimuli_distractor_diamondtriangles.svg	stimuli_distractor_trianglediamonds.svg	37	no	0	1	2000
6.6.1	win	2022-11-07	13:30:08	13:35:07	294125	5c6ac9e5d9c5be000174497f	683340666	1	main_z	7	advance_on_keypress_ZEE	72	stimuli_distractor_diamondtriangles.svg	stimuli_distractor_trianglediamonds.svg	37	no	57	0	648
6.6.1	win	2022-11-07	13:30:08	13:35:09	296165	5c6ac9e5d9c5be000174497f	683340666	1	main_z	7	main_z	73	stimuli_distractor_diamondtriangles.svg	stimuli_target_circletriangles.svg	13	yes	44	1	763
6.6.1	win	2022-11-07	13:30:08	13:35:09	296165	5c6ac9e5d9c5be000174497f	683340666	1	main_z	7	advance_on_keypress_ZEE	74	stimuli_distractor_diamondtriangles.svg	stimuli_target_circletriangles.svg	13	yes	57	0	74
6.6.1	win	2022-11-07	13:30:08	13:35:10	297539	5c6ac9e5d9c5be000174497f	683340666	1	main_z	7	main_z	75	stimuli_distractor_trianglediamonds.svg	stimuli_target_trianglecircles.svg	25	yes	44	1	671
6.6.1	win	2022-11-07	13:30:08	13:35:10	297539	5c6ac9e5d9c5be000174497f	683340666	1	main_z	7	advance_on_keypress_ZEE	76	stimuli_distractor_trianglediamonds.svg	stimuli_target_trianglecircles.svg	25	yes	57	0	104
6.6.1	win	2022-11-07	13:30:08	13:35:13	300277	5c6ac9e5d9c5be000174497f	683340666	1	main_z	7	main_z	77	stimuli_distractor_trianglediamonds.svg	stimuli_target_circlediamonds.svg	10	yes	0	0	2000
6.6.1	win	2022-11-07	13:30:08	13:35:13	300277	5c6ac9e5d9c5be000174497f	683340666	1	main_z	7	advance_on_keypress_ZEE	78	stimuli_distractor_trianglediamonds.svg	stimuli_target_circlediamonds.svg	10	yes	57	0	327
6.6.1	win	2022-11-07	13:30:08	13:35:15	301896	5c6ac9e5d9c5be000174497f	683340666	1	main_z	7	main_z	79	stimuli_distractor_diamondtriangles.svg	stimuli_target_squarediamonds.svg	16	yes	44	1	661
6.6.1	win	2022-11-07	13:30:08	13:35:15	301896	5c6ac9e5d9c5be000174497f	683340666	1	main_z	7	advance_on_keypress_ZEE	80	stimuli_distractor_diamondtriangles.svg	stimuli_target_squarediamonds.svg	16	yes	57	0	57
6.6.1	win	2022-11-07	13:30:08	13:35:16	303646	5c6ac9e5d9c5be000174497f	683340666	1	main_z	7	main_z	81	stimuli_distractor_diamondtriangles.svg	stimuli_distractor_trianglediamonds.svg	38	no	44	0	1068
6.6.1	win	2022-11-07	13:30:08	13:35:16	303646	5c6ac9e5d9c5be000174497f	683340666	1	main_z	7	advance_on_keypress_ZEE	82	stimuli_distractor_diamondtriangles.svg	stimuli_distractor_trianglediamonds.svg	38	no	57	0	65
6.6.1	win	2022-11-07	13:30:08	13:35:18	304965	5c6ac9e5d9c5be000174497f	683340666	1	main_z	7	main_z	83	stimuli_target_trianglesquares.svg	stimuli_distractor_trianglediamonds.svg	18	yes	44	1	629
6.6.1	win	2022-11-07	13:30:08	13:35:18	304965	5c6ac9e5d9c5be000174497f	683340666	1	main_z	7	advance_on_keypress_ZEE	84	stimuli_target_trianglesquares.svg	stimuli_distractor_trianglediamonds.svg	18	yes	57	0	93
6.6.1	win	2022-11-07	13:30:08	13:35:20	307689	5c6ac9e5d9c5be000174497f	683340666	1	main_z	7	main_z	85	stimuli_distractor_diamondtriangles.svg	stimuli_distractor_diamondtriangles.svg	39	no	0	1	2000
6.6.1	win	2022-11-07	13:30:08	13:35:20	307689	5c6ac9e5d9c5be000174497f	683340666	1	main_z	7	advance_on_keypress_ZEE	86	stimuli_distractor_diamondtriangles.svg	stimuli_distractor_diamondtriangles.svg	39	no	57	0	452
6.6.1	win	2022-11-07	13:30:08	13:35:22	309366	5c6ac9e5d9c5be000174497f	683340666	1	main_z	7	main_z	87	stimuli_distractor_trianglediamonds.svg	stimuli_target_squaretriangles.svg	11	yes	44	1	595
6.6.1	win	2022-11-07	13:30:08	13:35:22	309366	5c6ac9e5d9c5be000174497f	683340666	1	main_z	7	advance_on_keypress_ZEE	88	stimuli_distractor_trianglediamonds.svg	stimuli_target_squaretriangles.svg	11	yes	57	0	56
6.6.1	win	2022-11-07	13:30:08	13:35:23	310652	5c6ac9e5d9c5be000174497f	683340666	1	main_z	7	main_z	89	stimuli_distractor_diamondtriangles.svg	stimuli_target_circlediamonds.svg	14	yes	44	1	598
6.6.1	win	2022-11-07	13:30:08	13:35:23	310652	5c6ac9e5d9c5be000174497f	683340666	1	main_z	7	advance_on_keypress_ZEE	90	stimuli_distractor_diamondtriangles.svg	stimuli_target_circlediamonds.svg	14	yes	57	0	63
6.6.1	win	2022-11-07	13:30:08	13:35:25	311948	5c6ac9e5d9c5be000174497f	683340666	1	main_z	7	main_z	91	stimuli_target_trianglecircles.svg	stimuli_distractor_diamondtriangles.svg	21	yes	44	1	602
6.6.1	win	2022-11-07	13:30:08	13:35:25	311948	5c6ac9e5d9c5be000174497f	683340666	1	main_z	7	advance_on_keypress_ZEE	92	stimuli_target_trianglecircles.svg	stimuli_distractor_diamondtriangles.svg	21	yes	57	0	74
6.6.1	win	2022-11-07	13:30:08	13:35:27	313814	5c6ac9e5d9c5be000174497f	683340666	1	main_z	7	main_z	93	stimuli_distractor_trianglediamonds.svg	stimuli_target_diamondsquares.svg	28	yes	44	1	1168
6.6.1	win	2022-11-07	13:30:08	13:35:27	313814	5c6ac9e5d9c5be000174497f	683340666	1	main_z	7	advance_on_keypress_ZEE	94	stimuli_distractor_trianglediamonds.svg	stimuli_target_diamondsquares.svg	28	yes	57	0	51
6.6.1	win	2022-11-07	13:30:08	13:35:28	315461	5c6ac9e5d9c5be000174497f	683340666	1	main_z	7	main_z	95	stimuli_target_trianglesquares.svg	stimuli_distractor_diamondtriangles.svg	22	yes	44	1	973
6.6.1	win	2022-11-07	13:30:08	13:35:28	315461	5c6ac9e5d9c5be000174497f	683340666	1	main_z	7	advance_on_keypress_ZEE	96	stimuli_target_trianglesquares.svg	stimuli_distractor_diamondtriangles.svg	22	yes	57	0	108
6.6.1	win	2022-11-07	13:30:08	13:35:30	316727	5c6ac9e5d9c5be000174497f	683340666	1	main_z	7	main_z	97	stimuli_target_trianglecircles.svg	stimuli_distractor_trianglediamonds.svg	17	yes	44	1	531
6.6.1	win	2022-11-07	13:30:08	13:35:30	316727	5c6ac9e5d9c5be000174497f	683340666	1	main_z	7	advance_on_keypress_ZEE	98	stimuli_target_trianglecircles.svg	stimuli_distractor_trianglediamonds.svg	17	yes	57	0	83
6.6.1	win	2022-11-07	13:30:08	13:35:31	318064	5c6ac9e5d9c5be000174497f	683340666	1	main_z	7	main_z	99	stimuli_distractor_trianglediamonds.svg	stimuli_target_circlediamonds.svg	10	yes	44	1	627
6.6.1	win	2022-11-07	13:30:08	13:35:31	318064	5c6ac9e5d9c5be000174497f	683340666	1	main_z	7	advance_on_keypress_ZEE	100	stimuli_distractor_trianglediamonds.svg	stimuli_target_circlediamonds.svg	10	yes	57	0	97
6.6.1	win	2022-11-07	13:30:08	13:35:34	320789	5c6ac9e5d9c5be000174497f	683340666	1	main_z	7	main_z	101	stimuli_distractor_trianglediamonds.svg	stimuli_distractor_diamondtriangles.svg	35	no	0	1	2000
6.6.1	win	2022-11-07	13:30:08	13:35:34	320789	5c6ac9e5d9c5be000174497f	683340666	1	main_z	7	advance_on_keypress_ZEE	102	stimuli_distractor_trianglediamonds.svg	stimuli_distractor_diamondtriangles.svg	35	no	57	0	244
6.6.1	win	2022-11-07	13:30:08	13:35:36	323655	5c6ac9e5d9c5be000174497f	683340666	1	main_z	7	main_z	103	stimuli_distractor_trianglediamonds.svg	stimuli_distractor_diamondtriangles.svg	36	no	0	1	2000
6.6.1	win	2022-11-07	13:30:08	13:35:36	323655	5c6ac9e5d9c5be000174497f	683340666	1	main_z	7	advance_on_keypress_ZEE	104	stimuli_distractor_trianglediamonds.svg	stimuli_distractor_diamondtriangles.svg	36	no	57	0	292
6.6.1	win	2022-11-07	13:30:08	13:35:38	325296	5c6ac9e5d9c5be000174497f	683340666	1	main_z	7	main_z	105	stimuli_distractor_diamondtriangles.svg	stimuli_target_circletriangles.svg	13	yes	44	1	723
6.6.1	win	2022-11-07	13:30:08	13:35:38	325296	5c6ac9e5d9c5be000174497f	683340666	1	main_z	7	advance_on_keypress_ZEE	106	stimuli_distractor_diamondtriangles.svg	stimuli_target_circletriangles.svg	13	yes	57	0	84
6.6.1	win	2022-11-07	13:30:08	13:35:39	326505	5c6ac9e5d9c5be000174497f	683340666	1	main_z	7	main_z	107	stimuli_target_circletriangles.svg	stimuli_distractor_diamondtriangles.svg	5	yes	44	1	500
6.6.1	win	2022-11-07	13:30:08	13:35:39	326505	5c6ac9e5d9c5be000174497f	683340666	1	main_z	7	advance_on_keypress_ZEE	108	stimuli_target_circletriangles.svg	stimuli_distractor_diamondtriangles.svg	5	yes	57	0	70
6.6.1	win	2022-11-07	13:30:08	13:35:40	327692	5c6ac9e5d9c5be000174497f	683340666	1	main_z	7	main_z	109	stimuli_target_circlediamonds.svg	stimuli_distractor_diamondtriangles.svg	6	yes	44	1	493
6.6.1	win	2022-11-07	13:30:08	13:35:40	327692	5c6ac9e5d9c5be000174497f	683340666	1	main_z	7	advance_on_keypress_ZEE	110	stimuli_target_circlediamonds.svg	stimuli_distractor_diamondtriangles.svg	6	yes	57	0	78
6.6.1	win	2022-11-07	13:30:08	13:35:43	330389	5c6ac9e5d9c5be000174497f	683340666	1	main_z	7	main_z	111	stimuli_distractor_diamondtriangles.svg	stimuli_target_trianglesquares.svg	30	yes	0	0	2000
6.6.1	win	2022-11-07	13:30:08	13:35:43	330389	5c6ac9e5d9c5be000174497f	683340666	1	main_z	7	advance_on_keypress_ZEE	112	stimuli_distractor_diamondtriangles.svg	stimuli_target_trianglesquares.svg	30	yes	57	0	250
6.6.1	win	2022-11-07	13:30:08	13:35:46	333265	5c6ac9e5d9c5be000174497f	683340666	1	main_z	7	main_z	113	stimuli_distractor_trianglediamonds.svg	stimuli_distractor_trianglediamonds.svg	33	no	0	1	2000
6.6.1	win	2022-11-07	13:30:08	13:35:46	333265	5c6ac9e5d9c5be000174497f	683340666	1	main_z	7	advance_on_keypress_ZEE	114	stimuli_distractor_trianglediamonds.svg	stimuli_distractor_trianglediamonds.svg	33	no	57	0	325
6.6.1	win	2022-11-07	13:30:08	13:35:48	334725	5c6ac9e5d9c5be000174497f	683340666	1	main_z	7	main_z	115	stimuli_target_squarediamonds.svg	stimuli_distractor_diamondtriangles.svg	8	yes	44	1	511
6.6.1	win	2022-11-07	13:30:08	13:35:48	334725	5c6ac9e5d9c5be000174497f	683340666	1	main_z	7	advance_on_keypress_ZEE	116	stimuli_target_squarediamonds.svg	stimuli_distractor_diamondtriangles.svg	8	yes	57	0	848
6.6.1	win	2022-11-07	13:30:08	13:35:50	336952	5c6ac9e5d9c5be000174497f	683340666	1	main_z	7	main_z	117	stimuli_distractor_trianglediamonds.svg	stimuli_target_diamondcircles.svg	27	yes	44	1	753
6.6.1	win	2022-11-07	13:30:08	13:35:50	336952	5c6ac9e5d9c5be000174497f	683340666	1	main_z	7	advance_on_keypress_ZEE	118	stimuli_distractor_trianglediamonds.svg	stimuli_target_diamondcircles.svg	27	yes	57	0	767
6.6.1	win	2022-11-07	13:30:08	13:35:52	338844	5c6ac9e5d9c5be000174497f	683340666	1	main_z	7	main_z	119	stimuli_target_circlediamonds.svg	stimuli_distractor_trianglediamonds.svg	2	yes	44	1	504
6.6.1	win	2022-11-07	13:30:08	13:35:52	338844	5c6ac9e5d9c5be000174497f	683340666	1	main_z	7	advance_on_keypress_ZEE	120	stimuli_target_circlediamonds.svg	stimuli_distractor_trianglediamonds.svg	2	yes	57	0	393
6.6.1	win	2022-11-07	13:30:08	13:35:53	340553	5c6ac9e5d9c5be000174497f	683340666	1	main_z	7	main_z	121	stimuli_distractor_diamondtriangles.svg	stimuli_target_diamondsquares.svg	32	yes	44	1	688
6.6.1	win	2022-11-07	13:30:08	13:35:53	340553	5c6ac9e5d9c5be000174497f	683340666	1	main_z	7	advance_on_keypress_ZEE	122	stimuli_distractor_diamondtriangles.svg	stimuli_target_diamondsquares.svg	32	yes	57	0	121
6.6.1	win	2022-11-07	13:30:08	13:35:56	343308	5c6ac9e5d9c5be000174497f	683340666	1	main_z	7	main_z	123	stimuli_distractor_trianglediamonds.svg	stimuli_distractor_trianglediamonds.svg	34	no	0	1	2000
6.6.1	win	2022-11-07	13:30:08	13:35:56	343308	5c6ac9e5d9c5be000174497f	683340666	1	main_z	7	advance_on_keypress_ZEE	124	stimuli_distractor_trianglediamonds.svg	stimuli_distractor_trianglediamonds.svg	34	no	57	0	353
6.6.1	win	2022-11-07	13:30:08	13:35:58	344807	5c6ac9e5d9c5be000174497f	683340666	1	main_z	7	main_z	125	stimuli_target_diamondcircles.svg	stimuli_distractor_diamondtriangles.svg	23	yes	44	1	520
6.6.1	win	2022-11-07	13:30:08	13:35:58	344807	5c6ac9e5d9c5be000174497f	683340666	1	main_z	7	advance_on_keypress_ZEE	126	stimuli_target_diamondcircles.svg	stimuli_distractor_diamondtriangles.svg	23	yes	57	0	63
6.6.1	win	2022-11-07	13:30:08	13:35:59	346193	5c6ac9e5d9c5be000174497f	683340666	1	main_z	7	main_z	127	stimuli_target_squaretriangles.svg	stimuli_distractor_trianglediamonds.svg	3	yes	44	1	693
6.6.1	win	2022-11-07	13:30:08	13:35:59	346193	5c6ac9e5d9c5be000174497f	683340666	1	main_z	7	advance_on_keypress_ZEE	128	stimuli_target_squaretriangles.svg	stimuli_distractor_trianglediamonds.svg	3	yes	57	0	63
6.6.1	win	2022-11-07	13:30:08	13:36:00	347447	5c6ac9e5d9c5be000174497f	683340666	1	main_z	7	main_z	129	stimuli_distractor_diamondtriangles.svg	stimuli_target_trianglecircles.svg	29	yes	44	1	565
6.6.1	win	2022-11-07	13:30:08	13:36:00	347447	5c6ac9e5d9c5be000174497f	683340666	1	main_z	7	advance_on_keypress_ZEE	130	stimuli_distractor_diamondtriangles.svg	stimuli_target_trianglecircles.svg	29	yes	57	0	110
6.6.1	win	2022-11-07	13:30:08	13:36:02	348798	5c6ac9e5d9c5be000174497f	683340666	1	main_z	7	main_z	131	stimuli_target_circletriangles.svg	stimuli_distractor_trianglediamonds.svg	1	yes	44	1	615
6.6.1	win	2022-11-07	13:30:08	13:36:02	348798	5c6ac9e5d9c5be000174497f	683340666	1	main_z	7	advance_on_keypress_ZEE	132	stimuli_target_circletriangles.svg	stimuli_distractor_trianglediamonds.svg	1	yes	57	0	62
6.6.1	win	2022-11-07	13:30:08	13:36:03	350188	5c6ac9e5d9c5be000174497f	683340666	1	main_z	7	main_z	133	stimuli_distractor_trianglediamonds.svg	stimuli_target_trianglesquares.svg	26	yes	44	1	704
6.6.1	win	2022-11-07	13:30:08	13:36:03	350188	5c6ac9e5d9c5be000174497f	683340666	1	main_z	7	advance_on_keypress_ZEE	134	stimuli_distractor_trianglediamonds.svg	stimuli_target_trianglesquares.svg	26	yes	57	0	55
6.6.1	win	2022-11-07	13:30:08	13:36:04	351408	5c6ac9e5d9c5be000174497f	683340666	1	main_z	7	main_z	135	stimuli_distractor_diamondtriangles.svg	stimuli_target_squarediamonds.svg	16	yes	44	1	523
6.6.1	win	2022-11-07	13:30:08	13:36:04	351408	5c6ac9e5d9c5be000174497f	683340666	1	main_z	7	advance_on_keypress_ZEE	136	stimuli_distractor_diamondtriangles.svg	stimuli_target_squarediamonds.svg	16	yes	57	0	52
6.6.1	win	2022-11-07	13:30:08	13:36:05	352617	5c6ac9e5d9c5be000174497f	683340666	1	main_z	7	main_z	137	stimuli_target_squarediamonds.svg	stimuli_distractor_trianglediamonds.svg	4	yes	44	1	532
6.6.1	win	2022-11-07	13:30:08	13:36:05	352617	5c6ac9e5d9c5be000174497f	683340666	1	main_z	7	advance_on_keypress_ZEE	138	stimuli_target_squarediamonds.svg	stimuli_distractor_trianglediamonds.svg	4	yes	57	0	65
6.6.1	win	2022-11-07	13:30:08	13:36:08	355310	5c6ac9e5d9c5be000174497f	683340666	1	main_z	7	main_z	139	stimuli_target_diamondsquares.svg	stimuli_distractor_diamondtriangles.svg	24	yes	0	0	2000
6.6.1	win	2022-11-07	13:30:08	13:36:08	355310	5c6ac9e5d9c5be000174497f	683340666	1	main_z	7	advance_on_keypress_ZEE	140	stimuli_target_diamondsquares.svg	stimuli_distractor_diamondtriangles.svg	24	yes	57	0	490
6.6.1	win	2022-11-07	13:30:08	13:36:11	357938	5c6ac9e5d9c5be000174497f	683340666	1	main_z	7	main_z	141	stimuli_target_diamondsquares.svg	stimuli_distractor_trianglediamonds.svg	20	yes	44	1	1512
6.6.1	win	2022-11-07	13:30:08	13:36:11	357938	5c6ac9e5d9c5be000174497f	683340666	1	main_z	7	advance_on_keypress_ZEE	142	stimuli_target_diamondsquares.svg	stimuli_distractor_trianglediamonds.svg	20	yes	57	0	70
6.6.1	win	2022-11-07	13:30:08	13:36:12	359196	5c6ac9e5d9c5be000174497f	683340666	1	main_z	7	main_z	143	stimuli_distractor_trianglediamonds.svg	stimuli_target_squarediamonds.svg	12	yes	44	1	569
6.6.1	win	2022-11-07	13:30:08	13:36:12	359196	5c6ac9e5d9c5be000174497f	683340666	1	main_z	7	advance_on_keypress_ZEE	144	stimuli_distractor_trianglediamonds.svg	stimuli_target_squarediamonds.svg	12	yes	57	0	57
6.6.1	win	2022-11-07	13:30:08	13:36:15	361878	5c6ac9e5d9c5be000174497f	683340666	1	main_z	7	main_z	145	stimuli_distractor_diamondtriangles.svg	stimuli_distractor_diamondtriangles.svg	40	no	0	1	2000
6.6.1	win	2022-11-07	13:30:08	13:36:15	361878	5c6ac9e5d9c5be000174497f	683340666	1	main_z	7	advance_on_keypress_ZEE	146	stimuli_distractor_diamondtriangles.svg	stimuli_distractor_diamondtriangles.svg	40	no	57	0	266
6.6.1	win	2022-11-07	13:30:08	13:36:16	363309	5c6ac9e5d9c5be000174497f	683340666	1	main_z	7	main_z	147	stimuli_distractor_trianglediamonds.svg	stimuli_target_trianglecircles.svg	25	yes	44	1	540
6.6.1	win	2022-11-07	13:30:08	13:36:16	363309	5c6ac9e5d9c5be000174497f	683340666	1	main_z	7	advance_on_keypress_ZEE	148	stimuli_distractor_trianglediamonds.svg	stimuli_target_trianglecircles.svg	25	yes	57	0	71
6.6.1	win	2022-11-07	13:30:08	13:36:17	364555	5c6ac9e5d9c5be000174497f	683340666	1	main_z	7	main_z	149	stimuli_distractor_diamondtriangles.svg	stimuli_target_diamondcircles.svg	31	yes	44	1	545
6.6.1	win	2022-11-07	13:30:08	13:36:17	364555	5c6ac9e5d9c5be000174497f	683340666	1	main_z	7	advance_on_keypress_ZEE	150	stimuli_distractor_diamondtriangles.svg	stimuli_target_diamondcircles.svg	31	yes	57	0	58
6.6.1	win	2022-11-07	13:30:08	13:36:18	365655	5c6ac9e5d9c5be000174497f	683340666	1	main_z	7	main_z	151	stimuli_distractor_diamondtriangles.svg	stimuli_target_squaretriangles.svg	15	yes	44	1	419
6.6.1	win	2022-11-07	13:30:08	13:36:18	365655	5c6ac9e5d9c5be000174497f	683340666	1	main_z	7	advance_on_keypress_ZEE	152	stimuli_distractor_diamondtriangles.svg	stimuli_target_squaretriangles.svg	15	yes	57	0	73
6.6.1	win	2022-11-07	13:30:08	13:36:21	368354	5c6ac9e5d9c5be000174497f	683340666	1	main_z	7	main_z	153	stimuli_distractor_diamondtriangles.svg	stimuli_distractor_trianglediamonds.svg	37	no	0	1	2000
6.6.1	win	2022-11-07	13:30:08	13:36:21	368354	5c6ac9e5d9c5be000174497f	683340666	1	main_z	7	advance_on_keypress_ZEE	154	stimuli_distractor_diamondtriangles.svg	stimuli_distractor_trianglediamonds.svg	37	no	57	0	540
6.6.1	win	2022-11-07	13:30:08	13:36:23	370052	5c6ac9e5d9c5be000174497f	683340666	1	main_z	7	main_z	155	stimuli_distractor_trianglediamonds.svg	stimuli_target_circletriangles.svg	9	yes	44	1	521
6.6.1	win	2022-11-07	13:30:08	13:36:23	370052	5c6ac9e5d9c5be000174497f	683340666	1	main_z	7	advance_on_keypress_ZEE	156	stimuli_distractor_trianglediamonds.svg	stimuli_target_circletriangles.svg	9	yes	57	0	47
6.6.1	win	2022-11-07	13:30:08	13:36:24	371213	5c6ac9e5d9c5be000174497f	683340666	1	main_z	7	main_z	157	stimuli_target_squaretriangles.svg	stimuli_distractor_diamondtriangles.svg	7	yes	44	1	485
6.6.1	win	2022-11-07	13:30:08	13:36:24	371213	5c6ac9e5d9c5be000174497f	683340666	1	main_z	7	advance_on_keypress_ZEE	158	stimuli_target_squaretriangles.svg	stimuli_distractor_diamondtriangles.svg	7	yes	57	0	60
6.6.1	win	2022-11-07	13:30:08	13:36:25	372637	5c6ac9e5d9c5be000174497f	683340666	1	main_z	7	main_z	159	stimuli_target_diamondcircles.svg	stimuli_distractor_trianglediamonds.svg	19	yes	44	1	741
6.6.1	win	2022-11-07	13:30:08	13:36:25	372637	5c6ac9e5d9c5be000174497f	683340666	1	main_z	7	advance_on_keypress_ZEE	160	stimuli_target_diamondcircles.svg	stimuli_distractor_trianglediamonds.svg	19	yes	57	0	68
6.6.1	win	2022-11-07	13:30:08	13:36:50	396783	5c6ac9e5d9c5be000174497f	683340666	1	practice_slash	9	practice_slash	1	stimuli_target_squarediamonds.svg	stimuli_distractor_diamondtriangles.svg	2	yes	53	1	548
6.6.1	win	2022-11-07	13:30:08	13:36:50	396783	5c6ac9e5d9c5be000174497f	683340666	1	practice_slash	9	advance_on_keypress_SLASH	2	stimuli_target_squarediamonds.svg	stimuli_distractor_diamondtriangles.svg	2	yes	57	0	491
6.6.1	win	2022-11-07	13:30:08	13:36:52	399526	5c6ac9e5d9c5be000174497f	683340666	1	practice_slash	9	practice_slash	3	stimuli_target_circlediamonds.svg	stimuli_distractor_diamondtriangles.svg	1	yes	53	1	615
6.6.1	win	2022-11-07	13:30:08	13:36:52	399526	5c6ac9e5d9c5be000174497f	683340666	1	practice_slash	9	advance_on_keypress_SLASH	4	stimuli_target_circlediamonds.svg	stimuli_distractor_diamondtriangles.svg	1	yes	57	0	430
6.6.1	win	2022-11-07	13:30:08	13:36:55	402134	5c6ac9e5d9c5be000174497f	683340666	1	practice_slash	9	practice_slash	5	stimuli_target_circlediamonds.svg	stimuli_distractor_trianglediamonds.svg	4	yes	53	1	547
6.6.1	win	2022-11-07	13:30:08	13:36:55	402134	5c6ac9e5d9c5be000174497f	683340666	1	practice_slash	9	advance_on_keypress_SLASH	6	stimuli_target_circlediamonds.svg	stimuli_distractor_trianglediamonds.svg	4	yes	57	0	472
6.6.1	win	2022-11-07	13:30:08	13:36:59	406236	5c6ac9e5d9c5be000174497f	683340666	1	practice_slash	9	practice_slash	7	stimuli_distractor_diamondtriangles.svg	stimuli_distractor_diamondtriangles.svg	13	no	0	1	2000
6.6.1	win	2022-11-07	13:30:08	13:36:59	406236	5c6ac9e5d9c5be000174497f	683340666	1	practice_slash	9	advance_on_keypress_SLASH	8	stimuli_distractor_diamondtriangles.svg	stimuli_distractor_diamondtriangles.svg	13	no	57	0	408
6.6.1	win	2022-11-07	13:30:08	13:37:03	410279	5c6ac9e5d9c5be000174497f	683340666	1	practice_slash	9	practice_slash	9	stimuli_distractor_trianglediamonds.svg	stimuli_distractor_trianglediamonds.svg	15	no	0	1	2000
6.6.1	win	2022-11-07	13:30:08	13:37:03	410279	5c6ac9e5d9c5be000174497f	683340666	1	practice_slash	9	advance_on_keypress_SLASH	10	stimuli_distractor_trianglediamonds.svg	stimuli_distractor_trianglediamonds.svg	15	no	57	0	544
6.6.1	win	2022-11-07	13:30:08	13:37:07	414454	5c6ac9e5d9c5be000174497f	683340666	1	practice_slash	9	practice_slash	11	stimuli_distractor_trianglediamonds.svg	stimuli_distractor_diamondtriangles.svg	16	no	0	1	2000
6.6.1	win	2022-11-07	13:30:08	13:37:07	414454	5c6ac9e5d9c5be000174497f	683340666	1	practice_slash	9	advance_on_keypress_SLASH	12	stimuli_distractor_trianglediamonds.svg	stimuli_distractor_diamondtriangles.svg	16	no	57	0	339
6.6.1	win	2022-11-07	13:30:08	13:37:10	416968	5c6ac9e5d9c5be000174497f	683340666	1	practice_slash	9	practice_slash	13	stimuli_distractor_diamondtriangles.svg	stimuli_target_trianglecircles.svg	9	yes	53	1	546
6.6.1	win	2022-11-07	13:30:08	13:37:10	416968	5c6ac9e5d9c5be000174497f	683340666	1	practice_slash	9	advance_on_keypress_SLASH	14	stimuli_distractor_diamondtriangles.svg	stimuli_target_trianglecircles.svg	9	yes	57	0	430
6.6.1	win	2022-11-07	13:30:08	13:37:13	419935	5c6ac9e5d9c5be000174497f	683340666	1	practice_slash	9	practice_slash	15	stimuli_distractor_trianglediamonds.svg	stimuli_target_circlediamonds.svg	10	yes	53	1	904
6.6.1	win	2022-11-07	13:30:08	13:37:13	419935	5c6ac9e5d9c5be000174497f	683340666	1	practice_slash	9	advance_on_keypress_SLASH	16	stimuli_distractor_trianglediamonds.svg	stimuli_target_circlediamonds.svg	10	yes	57	0	434
6.6.1	win	2022-11-07	13:30:08	13:37:17	424005	5c6ac9e5d9c5be000174497f	683340666	1	practice_slash	9	practice_slash	17	stimuli_distractor_diamondtriangles.svg	stimuli_distractor_trianglediamonds.svg	14	no	0	1	2000
6.6.1	win	2022-11-07	13:30:08	13:37:17	424005	5c6ac9e5d9c5be000174497f	683340666	1	practice_slash	9	advance_on_keypress_SLASH	18	stimuli_distractor_diamondtriangles.svg	stimuli_distractor_trianglediamonds.svg	14	no	57	0	359
6.6.1	win	2022-11-07	13:30:08	13:37:19	426524	5c6ac9e5d9c5be000174497f	683340666	1	practice_slash	9	practice_slash	19	stimuli_distractor_trianglediamonds.svg	stimuli_target_diamondcircles.svg	12	yes	53	1	534
6.6.1	win	2022-11-07	13:30:08	13:37:19	426524	5c6ac9e5d9c5be000174497f	683340666	1	practice_slash	9	advance_on_keypress_SLASH	20	stimuli_distractor_trianglediamonds.svg	stimuli_target_diamondcircles.svg	12	yes	57	0	454
6.6.1	win	2022-11-07	13:30:08	13:37:22	429267	5c6ac9e5d9c5be000174497f	683340666	1	practice_slash	9	practice_slash	21	stimuli_distractor_diamondtriangles.svg	stimuli_target_circletriangles.svg	7	yes	53	1	653
6.6.1	win	2022-11-07	13:30:08	13:37:22	429267	5c6ac9e5d9c5be000174497f	683340666	1	practice_slash	9	advance_on_keypress_SLASH	22	stimuli_distractor_diamondtriangles.svg	stimuli_target_circletriangles.svg	7	yes	57	0	342
6.6.1	win	2022-11-07	13:30:08	13:37:25	431873	5c6ac9e5d9c5be000174497f	683340666	1	practice_slash	9	practice_slash	23	stimuli_target_diamondsquares.svg	stimuli_distractor_diamondtriangles.svg	3	yes	53	1	633
6.6.1	win	2022-11-07	13:30:08	13:37:25	431873	5c6ac9e5d9c5be000174497f	683340666	1	practice_slash	9	advance_on_keypress_SLASH	24	stimuli_target_diamondsquares.svg	stimuli_distractor_diamondtriangles.svg	3	yes	57	0	320
6.6.1	win	2022-11-07	13:30:08	13:37:27	434325	5c6ac9e5d9c5be000174497f	683340666	1	practice_slash	9	practice_slash	25	stimuli_distractor_trianglediamonds.svg	stimuli_target_squarediamonds.svg	11	yes	53	1	485
6.6.1	win	2022-11-07	13:30:08	13:37:27	434325	5c6ac9e5d9c5be000174497f	683340666	1	practice_slash	9	advance_on_keypress_SLASH	26	stimuli_distractor_trianglediamonds.svg	stimuli_target_squarediamonds.svg	11	yes	57	0	329
6.6.1	win	2022-11-07	13:30:08	13:37:30	436924	5c6ac9e5d9c5be000174497f	683340666	1	practice_slash	9	practice_slash	27	stimuli_target_squarediamonds.svg	stimuli_distractor_trianglediamonds.svg	5	yes	53	1	632
6.6.1	win	2022-11-07	13:30:08	13:37:30	436924	5c6ac9e5d9c5be000174497f	683340666	1	practice_slash	9	advance_on_keypress_SLASH	28	stimuli_target_squarediamonds.svg	stimuli_distractor_trianglediamonds.svg	5	yes	57	0	256
6.6.1	win	2022-11-07	13:30:08	13:37:33	440345	5c6ac9e5d9c5be000174497f	683340666	1	practice_slash	9	practice_slash	29	stimuli_target_diamondsquares.svg	stimuli_distractor_trianglediamonds.svg	6	yes	53	1	1537
6.6.1	win	2022-11-07	13:30:08	13:37:33	440345	5c6ac9e5d9c5be000174497f	683340666	1	practice_slash	9	advance_on_keypress_SLASH	30	stimuli_target_diamondsquares.svg	stimuli_distractor_trianglediamonds.svg	6	yes	57	0	405
6.6.1	win	2022-11-07	13:30:08	13:37:36	443046	5c6ac9e5d9c5be000174497f	683340666	1	practice_slash	9	practice_slash	31	stimuli_distractor_diamondtriangles.svg	stimuli_target_diamondcircles.svg	8	yes	53	1	662
6.6.1	win	2022-11-07	13:30:08	13:37:36	443046	5c6ac9e5d9c5be000174497f	683340666	1	practice_slash	9	advance_on_keypress_SLASH	32	stimuli_distractor_diamondtriangles.svg	stimuli_target_diamondcircles.svg	8	yes	57	0	341
6.6.1	win	2022-11-07	13:30:08	13:37:48	455317	5c6ac9e5d9c5be000174497f	683340666	1	main_slash	11	main_slash	1	stimuli_distractor_trianglediamonds.svg	stimuli_target_diamondsquares.svg	28	yes	53	1	1542
6.6.1	win	2022-11-07	13:30:08	13:37:48	455317	5c6ac9e5d9c5be000174497f	683340666	1	main_slash	11	advance_on_keypress_SLASH	2	stimuli_distractor_trianglediamonds.svg	stimuli_target_diamondsquares.svg	28	yes	57	0	1079
6.6.1	win	2022-11-07	13:30:08	13:37:50	457556	5c6ac9e5d9c5be000174497f	683340666	1	main_slash	11	main_slash	3	stimuli_distractor_trianglediamonds.svg	stimuli_target_diamondcircles.svg	27	yes	53	1	524
6.6.1	win	2022-11-07	13:30:08	13:37:50	457556	5c6ac9e5d9c5be000174497f	683340666	1	main_slash	11	advance_on_keypress_SLASH	4	stimuli_distractor_trianglediamonds.svg	stimuli_target_diamondcircles.svg	27	yes	57	0	132
6.6.1	win	2022-11-07	13:30:08	13:37:53	460316	5c6ac9e5d9c5be000174497f	683340666	1	main_slash	11	main_slash	5	stimuli_distractor_trianglediamonds.svg	stimuli_distractor_trianglediamonds.svg	33	no	0	1	2000
6.6.1	win	2022-11-07	13:30:08	13:37:53	460316	5c6ac9e5d9c5be000174497f	683340666	1	main_slash	11	advance_on_keypress_SLASH	6	stimuli_distractor_trianglediamonds.svg	stimuli_distractor_trianglediamonds.svg	33	no	57	0	293
6.6.1	win	2022-11-07	13:30:08	13:37:55	461717	5c6ac9e5d9c5be000174497f	683340666	1	main_slash	11	main_slash	7	stimuli_distractor_trianglediamonds.svg	stimuli_target_squaretriangles.svg	11	yes	53	1	483
6.6.1	win	2022-11-07	13:30:08	13:37:55	461717	5c6ac9e5d9c5be000174497f	683340666	1	main_slash	11	advance_on_keypress_SLASH	8	stimuli_distractor_trianglediamonds.svg	stimuli_target_squaretriangles.svg	11	yes	57	0	348
6.6.1	win	2022-11-07	13:30:08	13:37:56	463145	5c6ac9e5d9c5be000174497f	683340666	1	main_slash	11	main_slash	9	stimuli_distractor_diamondtriangles.svg	stimuli_target_trianglecircles.svg	29	yes	53	1	453
6.6.1	win	2022-11-07	13:30:08	13:37:56	463145	5c6ac9e5d9c5be000174497f	683340666	1	main_slash	11	advance_on_keypress_SLASH	10	stimuli_distractor_diamondtriangles.svg	stimuli_target_trianglecircles.svg	29	yes	57	0	104
6.6.1	win	2022-11-07	13:30:08	13:37:57	464399	5c6ac9e5d9c5be000174497f	683340666	1	main_slash	11	main_slash	11	stimuli_target_trianglecircles.svg	stimuli_distractor_trianglediamonds.svg	17	yes	53	1	523
6.6.1	win	2022-11-07	13:30:08	13:37:57	464399	5c6ac9e5d9c5be000174497f	683340666	1	main_slash	11	advance_on_keypress_SLASH	12	stimuli_target_trianglecircles.svg	stimuli_distractor_trianglediamonds.svg	17	yes	57	0	88
6.6.1	win	2022-11-07	13:30:08	13:37:58	465578	5c6ac9e5d9c5be000174497f	683340666	1	main_slash	11	main_slash	13	stimuli_target_squarediamonds.svg	stimuli_distractor_diamondtriangles.svg	8	yes	53	1	460
6.6.1	win	2022-11-07	13:30:08	13:37:58	465578	5c6ac9e5d9c5be000174497f	683340666	1	main_slash	11	advance_on_keypress_SLASH	14	stimuli_target_squarediamonds.svg	stimuli_distractor_diamondtriangles.svg	8	yes	57	0	88
6.6.1	win	2022-11-07	13:30:08	13:38:00	466777	5c6ac9e5d9c5be000174497f	683340666	1	main_slash	11	main_slash	15	stimuli_distractor_trianglediamonds.svg	stimuli_target_circlediamonds.svg	10	yes	53	1	484
6.6.1	win	2022-11-07	13:30:08	13:38:00	466777	5c6ac9e5d9c5be000174497f	683340666	1	main_slash	11	advance_on_keypress_SLASH	16	stimuli_distractor_trianglediamonds.svg	stimuli_target_circlediamonds.svg	10	yes	57	0	116
6.6.1	win	2022-11-07	13:30:08	13:38:01	468397	5c6ac9e5d9c5be000174497f	683340666	1	main_slash	11	main_slash	17	stimuli_target_circletriangles.svg	stimuli_distractor_trianglediamonds.svg	1	yes	53	1	879
6.6.1	win	2022-11-07	13:30:08	13:38:01	468397	5c6ac9e5d9c5be000174497f	683340666	1	main_slash	11	advance_on_keypress_SLASH	18	stimuli_target_circletriangles.svg	stimuli_distractor_trianglediamonds.svg	1	yes	57	0	71
6.6.1	win	2022-11-07	13:30:08	13:38:02	469592	5c6ac9e5d9c5be000174497f	683340666	1	main_slash	11	main_slash	19	stimuli_distractor_diamondtriangles.svg	stimuli_target_diamondcircles.svg	31	yes	53	1	492
6.6.1	win	2022-11-07	13:30:08	13:38:02	469592	5c6ac9e5d9c5be000174497f	683340666	1	main_slash	11	advance_on_keypress_SLASH	20	stimuli_distractor_diamondtriangles.svg	stimuli_target_diamondcircles.svg	31	yes	57	0	91
6.6.1	win	2022-11-07	13:30:08	13:38:04	470841	5c6ac9e5d9c5be000174497f	683340666	1	main_slash	11	main_slash	21	stimuli_distractor_diamondtriangles.svg	stimuli_target_circlediamonds.svg	14	yes	53	1	523
6.6.1	win	2022-11-07	13:30:08	13:38:04	470841	5c6ac9e5d9c5be000174497f	683340666	1	main_slash	11	advance_on_keypress_SLASH	22	stimuli_distractor_diamondtriangles.svg	stimuli_target_circlediamonds.svg	14	yes	57	0	83
6.6.1	win	2022-11-07	13:30:08	13:38:06	473552	5c6ac9e5d9c5be000174497f	683340666	1	main_slash	11	main_slash	23	stimuli_distractor_trianglediamonds.svg	stimuli_distractor_diamondtriangles.svg	35	no	0	1	2000
6.6.1	win	2022-11-07	13:30:08	13:38:06	473552	5c6ac9e5d9c5be000174497f	683340666	1	main_slash	11	advance_on_keypress_SLASH	24	stimuli_distractor_trianglediamonds.svg	stimuli_distractor_diamondtriangles.svg	35	no	57	0	429
6.6.1	win	2022-11-07	13:30:08	13:38:09	476610	5c6ac9e5d9c5be000174497f	683340666	1	main_slash	11	main_slash	25	stimuli_distractor_trianglediamonds.svg	stimuli_distractor_trianglediamonds.svg	34	no	0	1	2000
6.6.1	win	2022-11-07	13:30:08	13:38:09	476610	5c6ac9e5d9c5be000174497f	683340666	1	main_slash	11	advance_on_keypress_SLASH	26	stimuli_distractor_trianglediamonds.svg	stimuli_distractor_trianglediamonds.svg	34	no	57	0	270
6.6.1	win	2022-11-07	13:30:08	13:38:11	478069	5c6ac9e5d9c5be000174497f	683340666	1	main_slash	11	main_slash	27	stimuli_distractor_diamondtriangles.svg	stimuli_target_squarediamonds.svg	16	yes	53	1	558
6.6.1	win	2022-11-07	13:30:08	13:38:11	478069	5c6ac9e5d9c5be000174497f	683340666	1	main_slash	11	advance_on_keypress_SLASH	28	stimuli_distractor_diamondtriangles.svg	stimuli_target_squarediamonds.svg	16	yes	57	0	191
6.6.1	win	2022-11-07	13:30:08	13:38:14	480886	5c6ac9e5d9c5be000174497f	683340666	1	main_slash	11	main_slash	29	stimuli_distractor_diamondtriangles.svg	stimuli_distractor_diamondtriangles.svg	40	no	0	1	2000
6.6.1	win	2022-11-07	13:30:08	13:38:14	480886	5c6ac9e5d9c5be000174497f	683340666	1	main_slash	11	advance_on_keypress_SLASH	30	stimuli_distractor_diamondtriangles.svg	stimuli_distractor_diamondtriangles.svg	40	no	57	0	205
6.6.1	win	2022-11-07	13:30:08	13:38:15	482213	5c6ac9e5d9c5be000174497f	683340666	1	main_slash	11	main_slash	31	stimuli_distractor_trianglediamonds.svg	stimuli_target_trianglecircles.svg	25	yes	53	1	494
6.6.1	win	2022-11-07	13:30:08	13:38:15	482213	5c6ac9e5d9c5be000174497f	683340666	1	main_slash	11	advance_on_keypress_SLASH	32	stimuli_distractor_trianglediamonds.svg	stimuli_target_trianglecircles.svg	25	yes	57	0	114
6.6.1	win	2022-11-07	13:30:08	13:38:17	483913	5c6ac9e5d9c5be000174497f	683340666	1	main_slash	11	main_slash	33	stimuli_target_diamondsquares.svg	stimuli_distractor_diamondtriangles.svg	24	yes	53	1	959
6.6.1	win	2022-11-07	13:30:08	13:38:17	483913	5c6ac9e5d9c5be000174497f	683340666	1	main_slash	11	advance_on_keypress_SLASH	34	stimuli_target_diamondsquares.svg	stimuli_distractor_diamondtriangles.svg	24	yes	57	0	72
6.6.1	win	2022-11-07	13:30:08	13:38:18	485257	5c6ac9e5d9c5be000174497f	683340666	1	main_slash	11	main_slash	35	stimuli_distractor_trianglediamonds.svg	stimuli_target_circletriangles.svg	9	yes	53	1	645
6.6.1	win	2022-11-07	13:30:08	13:38:18	485257	5c6ac9e5d9c5be000174497f	683340666	1	main_slash	11	advance_on_keypress_SLASH	36	stimuli_distractor_trianglediamonds.svg	stimuli_target_circletriangles.svg	9	yes	57	0	84
6.6.1	win	2022-11-07	13:30:08	13:38:19	486543	5c6ac9e5d9c5be000174497f	683340666	1	main_slash	11	main_slash	37	stimuli_distractor_trianglediamonds.svg	stimuli_target_squarediamonds.svg	12	yes	53	1	573
6.6.1	win	2022-11-07	13:30:08	13:38:19	486543	5c6ac9e5d9c5be000174497f	683340666	1	main_slash	11	advance_on_keypress_SLASH	38	stimuli_distractor_trianglediamonds.svg	stimuli_target_squarediamonds.svg	12	yes	57	0	89
6.6.1	win	2022-11-07	13:30:08	13:38:22	489262	5c6ac9e5d9c5be000174497f	683340666	1	main_slash	11	main_slash	39	stimuli_distractor_diamondtriangles.svg	stimuli_distractor_trianglediamonds.svg	37	no	0	1	2000
6.6.1	win	2022-11-07	13:30:08	13:38:22	489262	5c6ac9e5d9c5be000174497f	683340666	1	main_slash	11	advance_on_keypress_SLASH	40	stimuli_distractor_diamondtriangles.svg	stimuli_distractor_trianglediamonds.svg	37	no	57	0	763
6.6.1	win	2022-11-07	13:30:08	13:38:24	491227	5c6ac9e5d9c5be000174497f	683340666	1	main_slash	11	main_slash	41	stimuli_target_trianglesquares.svg	stimuli_distractor_diamondtriangles.svg	22	yes	53	1	573
6.6.1	win	2022-11-07	13:30:08	13:38:24	491227	5c6ac9e5d9c5be000174497f	683340666	1	main_slash	11	advance_on_keypress_SLASH	42	stimuli_target_trianglesquares.svg	stimuli_distractor_diamondtriangles.svg	22	yes	57	0	102
6.6.1	win	2022-11-07	13:30:08	13:38:25	492495	5c6ac9e5d9c5be000174497f	683340666	1	main_slash	11	main_slash	43	stimuli_distractor_trianglediamonds.svg	stimuli_target_trianglesquares.svg	26	yes	53	1	532
6.6.1	win	2022-11-07	13:30:08	13:38:25	492495	5c6ac9e5d9c5be000174497f	683340666	1	main_slash	11	advance_on_keypress_SLASH	44	stimuli_distractor_trianglediamonds.svg	stimuli_target_trianglesquares.svg	26	yes	57	0	87
6.6.1	win	2022-11-07	13:30:08	13:38:27	493828	5c6ac9e5d9c5be000174497f	683340666	1	main_slash	11	main_slash	45	stimuli_distractor_diamondtriangles.svg	stimuli_target_trianglesquares.svg	30	yes	53	1	614
6.6.1	win	2022-11-07	13:30:08	13:38:27	493828	5c6ac9e5d9c5be000174497f	683340666	1	main_slash	11	advance_on_keypress_SLASH	46	stimuli_distractor_diamondtriangles.svg	stimuli_target_trianglesquares.svg	30	yes	57	0	103
6.6.1	win	2022-11-07	13:30:08	13:38:28	495121	5c6ac9e5d9c5be000174497f	683340666	1	main_slash	11	main_slash	47	stimuli_target_circlediamonds.svg	stimuli_distractor_trianglediamonds.svg	2	yes	53	1	557
6.6.1	win	2022-11-07	13:30:08	13:38:28	495121	5c6ac9e5d9c5be000174497f	683340666	1	main_slash	11	advance_on_keypress_SLASH	48	stimuli_target_circlediamonds.svg	stimuli_distractor_trianglediamonds.svg	2	yes	57	0	110
6.6.1	win	2022-11-07	13:30:08	13:38:29	496395	5c6ac9e5d9c5be000174497f	683340666	1	main_slash	11	main_slash	49	stimuli_target_circlediamonds.svg	stimuli_distractor_diamondtriangles.svg	6	yes	53	1	540
6.6.1	win	2022-11-07	13:30:08	13:38:29	496395	5c6ac9e5d9c5be000174497f	683340666	1	main_slash	11	advance_on_keypress_SLASH	50	stimuli_target_circlediamonds.svg	stimuli_distractor_diamondtriangles.svg	6	yes	57	0	116
6.6.1	win	2022-11-07	13:30:08	13:38:31	497858	5c6ac9e5d9c5be000174497f	683340666	1	main_slash	11	main_slash	51	stimuli_target_trianglecircles.svg	stimuli_distractor_diamondtriangles.svg	21	yes	53	1	719
6.6.1	win	2022-11-07	13:30:08	13:38:31	497858	5c6ac9e5d9c5be000174497f	683340666	1	main_slash	11	advance_on_keypress_SLASH	52	stimuli_target_trianglecircles.svg	stimuli_distractor_diamondtriangles.svg	21	yes	57	0	128
6.6.1	win	2022-11-07	13:30:08	13:38:33	500615	5c6ac9e5d9c5be000174497f	683340666	1	main_slash	11	main_slash	53	stimuli_target_squaretriangles.svg	stimuli_distractor_trianglediamonds.svg	3	yes	0	0	2000
6.6.1	win	2022-11-07	13:30:08	13:38:33	500615	5c6ac9e5d9c5be000174497f	683340666	1	main_slash	11	advance_on_keypress_SLASH	54	stimuli_target_squaretriangles.svg	stimuli_distractor_trianglediamonds.svg	3	yes	57	0	653
6.6.1	win	2022-11-07	13:30:08	13:38:35	502536	5c6ac9e5d9c5be000174497f	683340666	1	main_slash	11	main_slash	55	stimuli_target_circletriangles.svg	stimuli_distractor_diamondtriangles.svg	5	yes	53	1	637
6.6.1	win	2022-11-07	13:30:08	13:38:35	502536	5c6ac9e5d9c5be000174497f	683340666	1	main_slash	11	advance_on_keypress_SLASH	56	stimuli_target_circletriangles.svg	stimuli_distractor_diamondtriangles.svg	5	yes	57	0	128
6.6.1	win	2022-11-07	13:30:08	13:38:38	505290	5c6ac9e5d9c5be000174497f	683340666	1	main_slash	11	main_slash	57	stimuli_target_diamondsquares.svg	stimuli_distractor_trianglediamonds.svg	20	yes	0	0	2000
6.6.1	win	2022-11-07	13:30:08	13:38:38	505290	5c6ac9e5d9c5be000174497f	683340666	1	main_slash	11	advance_on_keypress_SLASH	58	stimuli_target_diamondsquares.svg	stimuli_distractor_trianglediamonds.svg	20	yes	57	0	381
6.6.1	win	2022-11-07	13:30:08	13:38:40	506794	5c6ac9e5d9c5be000174497f	683340666	1	main_slash	11	main_slash	59	stimuli_target_diamondcircles.svg	stimuli_distractor_diamondtriangles.svg	23	yes	53	1	495
6.6.1	win	2022-11-07	13:30:08	13:38:40	506794	5c6ac9e5d9c5be000174497f	683340666	1	main_slash	11	advance_on_keypress_SLASH	60	stimuli_target_diamondcircles.svg	stimuli_distractor_diamondtriangles.svg	23	yes	57	0	112
6.6.1	win	2022-11-07	13:30:08	13:38:41	508063	5c6ac9e5d9c5be000174497f	683340666	1	main_slash	11	main_slash	61	stimuli_distractor_diamondtriangles.svg	stimuli_target_circletriangles.svg	13	yes	53	1	525
6.6.1	win	2022-11-07	13:30:08	13:38:41	508063	5c6ac9e5d9c5be000174497f	683340666	1	main_slash	11	advance_on_keypress_SLASH	62	stimuli_distractor_diamondtriangles.svg	stimuli_target_circletriangles.svg	13	yes	57	0	86
6.6.1	win	2022-11-07	13:30:08	13:38:44	510774	5c6ac9e5d9c5be000174497f	683340666	1	main_slash	11	main_slash	63	stimuli_distractor_diamondtriangles.svg	stimuli_distractor_diamondtriangles.svg	39	no	0	1	2000
6.6.1	win	2022-11-07	13:30:08	13:38:44	510774	5c6ac9e5d9c5be000174497f	683340666	1	main_slash	11	advance_on_keypress_SLASH	64	stimuli_distractor_diamondtriangles.svg	stimuli_distractor_diamondtriangles.svg	39	no	57	0	460
6.6.1	win	2022-11-07	13:30:08	13:38:45	512663	5c6ac9e5d9c5be000174497f	683340666	1	main_slash	11	main_slash	65	stimuli_distractor_diamondtriangles.svg	stimuli_target_diamondsquares.svg	32	yes	53	1	804
6.6.1	win	2022-11-07	13:30:08	13:38:45	512663	5c6ac9e5d9c5be000174497f	683340666	1	main_slash	11	advance_on_keypress_SLASH	66	stimuli_distractor_diamondtriangles.svg	stimuli_target_diamondsquares.svg	32	yes	57	0	130
6.6.1	win	2022-11-07	13:30:08	13:38:47	514044	5c6ac9e5d9c5be000174497f	683340666	1	main_slash	11	main_slash	67	stimuli_target_trianglesquares.svg	stimuli_distractor_trianglediamonds.svg	18	yes	53	1	619
6.6.1	win	2022-11-07	13:30:08	13:38:47	514044	5c6ac9e5d9c5be000174497f	683340666	1	main_slash	11	advance_on_keypress_SLASH	68	stimuli_target_trianglesquares.svg	stimuli_distractor_trianglediamonds.svg	18	yes	57	0	121
6.6.1	win	2022-11-07	13:30:08	13:38:48	515297	5c6ac9e5d9c5be000174497f	683340666	1	main_slash	11	main_slash	69	stimuli_target_diamondcircles.svg	stimuli_distractor_trianglediamonds.svg	19	yes	53	1	505
6.6.1	win	2022-11-07	13:30:08	13:38:48	515297	5c6ac9e5d9c5be000174497f	683340666	1	main_slash	11	advance_on_keypress_SLASH	70	stimuli_target_diamondcircles.svg	stimuli_distractor_trianglediamonds.svg	19	yes	57	0	106
6.6.1	win	2022-11-07	13:30:08	13:38:51	518033	5c6ac9e5d9c5be000174497f	683340666	1	main_slash	11	main_slash	71	stimuli_distractor_diamondtriangles.svg	stimuli_distractor_trianglediamonds.svg	38	no	0	1	2000
6.6.1	win	2022-11-07	13:30:08	13:38:51	518033	5c6ac9e5d9c5be000174497f	683340666	1	main_slash	11	advance_on_keypress_SLASH	72	stimuli_distractor_diamondtriangles.svg	stimuli_distractor_trianglediamonds.svg	38	no	57	0	496
6.6.1	win	2022-11-07	13:30:08	13:38:53	520219	5c6ac9e5d9c5be000174497f	683340666	1	main_slash	11	main_slash	73	stimuli_target_squaretriangles.svg	stimuli_distractor_diamondtriangles.svg	7	yes	53	1	1060
6.6.1	win	2022-11-07	13:30:08	13:38:53	520219	5c6ac9e5d9c5be000174497f	683340666	1	main_slash	11	advance_on_keypress_SLASH	74	stimuli_target_squaretriangles.svg	stimuli_distractor_diamondtriangles.svg	7	yes	57	0	143
6.6.1	win	2022-11-07	13:30:08	13:38:54	521705	5c6ac9e5d9c5be000174497f	683340666	1	main_slash	11	main_slash	75	stimuli_distractor_diamondtriangles.svg	stimuli_target_squaretriangles.svg	15	yes	53	1	721
6.6.1	win	2022-11-07	13:30:08	13:38:54	521705	5c6ac9e5d9c5be000174497f	683340666	1	main_slash	11	advance_on_keypress_SLASH	76	stimuli_distractor_diamondtriangles.svg	stimuli_target_squaretriangles.svg	15	yes	57	0	125
6.6.1	win	2022-11-07	13:30:08	13:38:56	523266	5c6ac9e5d9c5be000174497f	683340666	1	main_slash	11	main_slash	77	stimuli_target_squarediamonds.svg	stimuli_distractor_trianglediamonds.svg	4	yes	53	1	806
6.6.1	win	2022-11-07	13:30:08	13:38:56	523266	5c6ac9e5d9c5be000174497f	683340666	1	main_slash	11	advance_on_keypress_SLASH	78	stimuli_target_squarediamonds.svg	stimuli_distractor_trianglediamonds.svg	4	yes	57	0	91
6.6.1	win	2022-11-07	13:30:08	13:38:59	525985	5c6ac9e5d9c5be000174497f	683340666	1	main_slash	11	main_slash	79	stimuli_distractor_trianglediamonds.svg	stimuli_distractor_diamondtriangles.svg	36	no	0	1	2000
6.6.1	win	2022-11-07	13:30:08	13:38:59	525985	5c6ac9e5d9c5be000174497f	683340666	1	main_slash	11	advance_on_keypress_SLASH	80	stimuli_distractor_trianglediamonds.svg	stimuli_distractor_diamondtriangles.svg	36	no	57	0	1299
6.6.1	win	2022-11-07	13:30:08	13:39:03	529910	5c6ac9e5d9c5be000174497f	683340666	1	main_slash	11	main_slash	81	stimuli_distractor_trianglediamonds.svg	stimuli_distractor_trianglediamonds.svg	34	no	0	1	2000
6.6.1	win	2022-11-07	13:30:08	13:39:03	529910	5c6ac9e5d9c5be000174497f	683340666	1	main_slash	11	advance_on_keypress_SLASH	82	stimuli_distractor_trianglediamonds.svg	stimuli_distractor_trianglediamonds.svg	34	no	57	0	298
6.6.1	win	2022-11-07	13:30:08	13:39:04	531405	5c6ac9e5d9c5be000174497f	683340666	1	main_slash	11	main_slash	83	stimuli_target_circletriangles.svg	stimuli_distractor_diamondtriangles.svg	5	yes	53	1	570
6.6.1	win	2022-11-07	13:30:08	13:39:04	531405	5c6ac9e5d9c5be000174497f	683340666	1	main_slash	11	advance_on_keypress_SLASH	84	stimuli_target_circletriangles.svg	stimuli_distractor_diamondtriangles.svg	5	yes	57	0	140
6.6.1	win	2022-11-07	13:30:08	13:39:05	532589	5c6ac9e5d9c5be000174497f	683340666	1	main_slash	11	main_slash	85	stimuli_distractor_diamondtriangles.svg	stimuli_target_squaretriangles.svg	15	yes	53	1	421
6.6.1	win	2022-11-07	13:30:08	13:39:05	532589	5c6ac9e5d9c5be000174497f	683340666	1	main_slash	11	advance_on_keypress_SLASH	86	stimuli_distractor_diamondtriangles.svg	stimuli_target_squaretriangles.svg	15	yes	57	0	115
6.6.1	win	2022-11-07	13:30:08	13:39:08	535336	5c6ac9e5d9c5be000174497f	683340666	1	main_slash	11	main_slash	87	stimuli_distractor_trianglediamonds.svg	stimuli_target_diamondsquares.svg	28	yes	0	0	2000
6.6.1	win	2022-11-07	13:30:08	13:39:08	535336	5c6ac9e5d9c5be000174497f	683340666	1	main_slash	11	advance_on_keypress_SLASH	88	stimuli_distractor_trianglediamonds.svg	stimuli_target_diamondsquares.svg	28	yes	57	0	370
6.6.1	win	2022-11-07	13:30:08	13:39:10	536903	5c6ac9e5d9c5be000174497f	683340666	1	main_slash	11	main_slash	89	stimuli_target_diamondcircles.svg	stimuli_distractor_diamondtriangles.svg	23	yes	53	1	566
6.6.1	win	2022-11-07	13:30:08	13:39:10	536903	5c6ac9e5d9c5be000174497f	683340666	1	main_slash	11	advance_on_keypress_SLASH	90	stimuli_target_diamondcircles.svg	stimuli_distractor_diamondtriangles.svg	23	yes	57	0	125
6.6.1	win	2022-11-07	13:30:08	13:39:11	538298	5c6ac9e5d9c5be000174497f	683340666	1	main_slash	11	main_slash	91	stimuli_target_squaretriangles.svg	stimuli_distractor_diamondtriangles.svg	7	yes	53	1	644
6.6.1	win	2022-11-07	13:30:08	13:39:11	538298	5c6ac9e5d9c5be000174497f	683340666	1	main_slash	11	advance_on_keypress_SLASH	92	stimuli_target_squaretriangles.svg	stimuli_distractor_diamondtriangles.svg	7	yes	57	0	96
6.6.1	win	2022-11-07	13:30:08	13:39:12	539459	5c6ac9e5d9c5be000174497f	683340666	1	main_slash	11	main_slash	93	stimuli_target_circlediamonds.svg	stimuli_distractor_diamondtriangles.svg	6	yes	53	1	439
6.6.1	win	2022-11-07	13:30:08	13:39:12	539459	5c6ac9e5d9c5be000174497f	683340666	1	main_slash	11	advance_on_keypress_SLASH	94	stimuli_target_circlediamonds.svg	stimuli_distractor_diamondtriangles.svg	6	yes	57	0	90
6.6.1	win	2022-11-07	13:30:08	13:39:14	541157	5c6ac9e5d9c5be000174497f	683340666	1	main_slash	11	main_slash	95	stimuli_target_diamondsquares.svg	stimuli_distractor_diamondtriangles.svg	24	yes	53	1	977
6.6.1	win	2022-11-07	13:30:08	13:39:14	541157	5c6ac9e5d9c5be000174497f	683340666	1	main_slash	11	advance_on_keypress_SLASH	96	stimuli_target_diamondsquares.svg	stimuli_distractor_diamondtriangles.svg	24	yes	57	0	108
6.6.1	win	2022-11-07	13:30:08	13:39:15	542507	5c6ac9e5d9c5be000174497f	683340666	1	main_slash	11	main_slash	97	stimuli_distractor_trianglediamonds.svg	stimuli_target_diamondcircles.svg	27	yes	53	1	620
6.6.1	win	2022-11-07	13:30:08	13:39:15	542507	5c6ac9e5d9c5be000174497f	683340666	1	main_slash	11	advance_on_keypress_SLASH	98	stimuli_distractor_trianglediamonds.svg	stimuli_target_diamondcircles.svg	27	yes	57	0	106
6.6.1	win	2022-11-07	13:30:08	13:39:18	545246	5c6ac9e5d9c5be000174497f	683340666	1	main_slash	11	main_slash	99	stimuli_distractor_trianglediamonds.svg	stimuli_distractor_diamondtriangles.svg	36	no	0	1	2000
6.6.1	win	2022-11-07	13:30:08	13:39:18	545246	5c6ac9e5d9c5be000174497f	683340666	1	main_slash	11	advance_on_keypress_SLASH	100	stimuli_distractor_trianglediamonds.svg	stimuli_distractor_diamondtriangles.svg	36	no	57	0	471
6.6.1	win	2022-11-07	13:30:08	13:39:20	546806	5c6ac9e5d9c5be000174497f	683340666	1	main_slash	11	main_slash	101	stimuli_target_trianglecircles.svg	stimuli_distractor_trianglediamonds.svg	17	yes	53	1	460
6.6.1	win	2022-11-07	13:30:08	13:39:20	546806	5c6ac9e5d9c5be000174497f	683340666	1	main_slash	11	advance_on_keypress_SLASH	102	stimuli_target_trianglecircles.svg	stimuli_distractor_trianglediamonds.svg	17	yes	57	0	97
6.6.1	win	2022-11-07	13:30:08	13:39:22	549529	5c6ac9e5d9c5be000174497f	683340666	1	main_slash	11	main_slash	103	stimuli_distractor_trianglediamonds.svg	stimuli_distractor_trianglediamonds.svg	33	no	0	1	2000
6.6.1	win	2022-11-07	13:30:08	13:39:22	549529	5c6ac9e5d9c5be000174497f	683340666	1	main_slash	11	advance_on_keypress_SLASH	104	stimuli_distractor_trianglediamonds.svg	stimuli_distractor_trianglediamonds.svg	33	no	57	0	102
6.6.1	win	2022-11-07	13:30:08	13:39:24	550741	5c6ac9e5d9c5be000174497f	683340666	1	main_slash	11	main_slash	105	stimuli_distractor_diamondtriangles.svg	stimuli_target_diamondcircles.svg	31	yes	53	1	486
6.6.1	win	2022-11-07	13:30:08	13:39:24	550741	5c6ac9e5d9c5be000174497f	683340666	1	main_slash	11	advance_on_keypress_SLASH	106	stimuli_distractor_diamondtriangles.svg	stimuli_target_diamondcircles.svg	31	yes	57	0	102
6.6.1	win	2022-11-07	13:30:08	13:39:26	553495	5c6ac9e5d9c5be000174497f	683340666	1	main_slash	11	main_slash	107	stimuli_distractor_trianglediamonds.svg	stimuli_distractor_diamondtriangles.svg	35	no	0	1	2000
6.6.1	win	2022-11-07	13:30:08	13:39:26	553495	5c6ac9e5d9c5be000174497f	683340666	1	main_slash	11	advance_on_keypress_SLASH	108	stimuli_distractor_trianglediamonds.svg	stimuli_distractor_diamondtriangles.svg	35	no	57	0	243
6.6.1	win	2022-11-07	13:30:08	13:39:28	554896	5c6ac9e5d9c5be000174497f	683340666	1	main_slash	11	main_slash	109	stimuli_distractor_trianglediamonds.svg	stimuli_target_squaretriangles.svg	11	yes	53	1	532
6.6.1	win	2022-11-07	13:30:08	13:39:28	554896	5c6ac9e5d9c5be000174497f	683340666	1	main_slash	11	advance_on_keypress_SLASH	110	stimuli_distractor_trianglediamonds.svg	stimuli_target_squaretriangles.svg	11	yes	57	0	118
6.6.1	win	2022-11-07	13:30:08	13:39:29	556235	5c6ac9e5d9c5be000174497f	683340666	1	main_slash	11	main_slash	111	stimuli_target_squaretriangles.svg	stimuli_distractor_trianglediamonds.svg	3	yes	53	1	595
6.6.1	win	2022-11-07	13:30:08	13:39:29	556235	5c6ac9e5d9c5be000174497f	683340666	1	main_slash	11	advance_on_keypress_SLASH	112	stimuli_target_squaretriangles.svg	stimuli_distractor_trianglediamonds.svg	3	yes	57	0	95
6.6.1	win	2022-11-07	13:30:08	13:39:32	558965	5c6ac9e5d9c5be000174497f	683340666	1	main_slash	11	main_slash	113	stimuli_distractor_diamondtriangles.svg	stimuli_distractor_diamondtriangles.svg	40	no	0	1	2000
6.6.1	win	2022-11-07	13:30:08	13:39:32	558965	5c6ac9e5d9c5be000174497f	683340666	1	main_slash	11	advance_on_keypress_SLASH	114	stimuli_distractor_diamondtriangles.svg	stimuli_distractor_diamondtriangles.svg	40	no	57	0	246
6.6.1	win	2022-11-07	13:30:08	13:39:33	560333	5c6ac9e5d9c5be000174497f	683340666	1	main_slash	11	main_slash	115	stimuli_distractor_diamondtriangles.svg	stimuli_target_trianglesquares.svg	30	yes	53	1	493
6.6.1	win	2022-11-07	13:30:08	13:39:33	560333	5c6ac9e5d9c5be000174497f	683340666	1	main_slash	11	advance_on_keypress_SLASH	116	stimuli_distractor_diamondtriangles.svg	stimuli_target_trianglesquares.svg	30	yes	57	0	102
6.6.1	win	2022-11-07	13:30:08	13:39:34	561566	5c6ac9e5d9c5be000174497f	683340666	1	main_slash	11	main_slash	117	stimuli_target_circlediamonds.svg	stimuli_distractor_trianglediamonds.svg	2	yes	53	1	509
6.6.1	win	2022-11-07	13:30:08	13:39:34	561566	5c6ac9e5d9c5be000174497f	683340666	1	main_slash	11	advance_on_keypress_SLASH	118	stimuli_target_circlediamonds.svg	stimuli_distractor_trianglediamonds.svg	2	yes	57	0	73
6.6.1	win	2022-11-07	13:30:08	13:39:35	562702	5c6ac9e5d9c5be000174497f	683340666	1	main_slash	11	main_slash	119	stimuli_distractor_diamondtriangles.svg	stimuli_target_trianglecircles.svg	29	yes	53	1	438
6.6.1	win	2022-11-07	13:30:08	13:39:35	562702	5c6ac9e5d9c5be000174497f	683340666	1	main_slash	11	advance_on_keypress_SLASH	120	stimuli_distractor_diamondtriangles.svg	stimuli_target_trianglecircles.svg	29	yes	57	0	82
6.6.1	win	2022-11-07	13:30:08	13:39:37	563939	5c6ac9e5d9c5be000174497f	683340666	1	main_slash	11	main_slash	121	stimuli_target_trianglesquares.svg	stimuli_distractor_diamondtriangles.svg	22	yes	53	1	522
6.6.1	win	2022-11-07	13:30:08	13:39:37	563939	5c6ac9e5d9c5be000174497f	683340666	1	main_slash	11	advance_on_keypress_SLASH	122	stimuli_target_trianglesquares.svg	stimuli_distractor_diamondtriangles.svg	22	yes	57	0	67
6.6.1	win	2022-11-07	13:30:08	13:39:39	565778	5c6ac9e5d9c5be000174497f	683340666	1	main_slash	11	main_slash	123	stimuli_distractor_trianglediamonds.svg	stimuli_target_circletriangles.svg	9	yes	53	1	1145
6.6.1	win	2022-11-07	13:30:08	13:39:39	565778	5c6ac9e5d9c5be000174497f	683340666	1	main_slash	11	advance_on_keypress_SLASH	124	stimuli_distractor_trianglediamonds.svg	stimuli_target_circletriangles.svg	9	yes	57	0	56
6.6.1	win	2022-11-07	13:30:08	13:39:41	568466	5c6ac9e5d9c5be000174497f	683340666	1	main_slash	11	main_slash	125	stimuli_distractor_diamondtriangles.svg	stimuli_distractor_diamondtriangles.svg	39	no	0	1	2000
6.6.1	win	2022-11-07	13:30:08	13:39:41	568466	5c6ac9e5d9c5be000174497f	683340666	1	main_slash	11	advance_on_keypress_SLASH	126	stimuli_distractor_diamondtriangles.svg	stimuli_distractor_diamondtriangles.svg	39	no	57	0	295
6.6.1	win	2022-11-07	13:30:08	13:39:43	569879	5c6ac9e5d9c5be000174497f	683340666	1	main_slash	11	main_slash	127	stimuli_distractor_diamondtriangles.svg	stimuli_target_circletriangles.svg	13	yes	53	1	488
6.6.1	win	2022-11-07	13:30:08	13:39:43	569879	5c6ac9e5d9c5be000174497f	683340666	1	main_slash	11	advance_on_keypress_SLASH	128	stimuli_distractor_diamondtriangles.svg	stimuli_target_circletriangles.svg	13	yes	57	0	98
6.6.1	win	2022-11-07	13:30:08	13:39:44	571652	5c6ac9e5d9c5be000174497f	683340666	1	main_slash	11	main_slash	129	stimuli_target_diamondsquares.svg	stimuli_distractor_trianglediamonds.svg	20	yes	53	1	1044
6.6.1	win	2022-11-07	13:30:08	13:39:44	571652	5c6ac9e5d9c5be000174497f	683340666	1	main_slash	11	advance_on_keypress_SLASH	130	stimuli_target_diamondsquares.svg	stimuli_distractor_trianglediamonds.svg	20	yes	57	0	146
6.6.1	win	2022-11-07	13:30:08	13:39:47	574425	5c6ac9e5d9c5be000174497f	683340666	1	main_slash	11	main_slash	131	stimuli_distractor_diamondtriangles.svg	stimuli_distractor_trianglediamonds.svg	37	no	0	1	2000
6.6.1	win	2022-11-07	13:30:08	13:39:47	574425	5c6ac9e5d9c5be000174497f	683340666	1	main_slash	11	advance_on_keypress_SLASH	132	stimuli_distractor_diamondtriangles.svg	stimuli_distractor_trianglediamonds.svg	37	no	57	0	293
6.6.1	win	2022-11-07	13:30:08	13:39:50	577342	5c6ac9e5d9c5be000174497f	683340666	1	main_slash	11	main_slash	133	stimuli_distractor_diamondtriangles.svg	stimuli_distractor_trianglediamonds.svg	38	no	0	1	2000
6.6.1	win	2022-11-07	13:30:08	13:39:50	577342	5c6ac9e5d9c5be000174497f	683340666	1	main_slash	11	advance_on_keypress_SLASH	134	stimuli_distractor_diamondtriangles.svg	stimuli_distractor_trianglediamonds.svg	38	no	57	0	229
6.6.1	win	2022-11-07	13:30:08	13:39:52	578905	5c6ac9e5d9c5be000174497f	683340666	1	main_slash	11	main_slash	135	stimuli_target_trianglesquares.svg	stimuli_distractor_trianglediamonds.svg	18	yes	53	1	703
6.6.1	win	2022-11-07	13:30:08	13:39:52	578905	5c6ac9e5d9c5be000174497f	683340666	1	main_slash	11	advance_on_keypress_SLASH	136	stimuli_target_trianglesquares.svg	stimuli_distractor_trianglediamonds.svg	18	yes	57	0	109
6.6.1	win	2022-11-07	13:30:08	13:39:53	580137	5c6ac9e5d9c5be000174497f	683340666	1	main_slash	11	main_slash	137	stimuli_distractor_diamondtriangles.svg	stimuli_target_squarediamonds.svg	16	yes	53	1	494
6.6.1	win	2022-11-07	13:30:08	13:39:53	580137	5c6ac9e5d9c5be000174497f	683340666	1	main_slash	11	advance_on_keypress_SLASH	138	stimuli_distractor_diamondtriangles.svg	stimuli_target_squarediamonds.svg	16	yes	57	0	95
6.6.1	win	2022-11-07	13:30:08	13:39:54	581306	5c6ac9e5d9c5be000174497f	683340666	1	main_slash	11	main_slash	139	stimuli_distractor_trianglediamonds.svg	stimuli_target_circlediamonds.svg	10	yes	53	1	455
6.6.1	win	2022-11-07	13:30:08	13:39:54	581306	5c6ac9e5d9c5be000174497f	683340666	1	main_slash	11	advance_on_keypress_SLASH	140	stimuli_distractor_trianglediamonds.svg	stimuli_target_circlediamonds.svg	10	yes	57	0	81
6.6.1	win	2022-11-07	13:30:08	13:39:56	583700	5c6ac9e5d9c5be000174497f	683340666	1	main_slash	11	main_slash	141	stimuli_distractor_diamondtriangles.svg	stimuli_target_diamondsquares.svg	32	yes	53	1	1682
6.6.1	win	2022-11-07	13:30:08	13:39:56	583700	5c6ac9e5d9c5be000174497f	683340666	1	main_slash	11	advance_on_keypress_SLASH	142	stimuli_distractor_diamondtriangles.svg	stimuli_target_diamondsquares.svg	32	yes	57	0	29
6.6.1	win	2022-11-07	13:30:08	13:39:58	585193	5c6ac9e5d9c5be000174497f	683340666	1	main_slash	11	main_slash	143	stimuli_distractor_diamondtriangles.svg	stimuli_target_circlediamonds.svg	14	yes	53	1	833
6.6.1	win	2022-11-07	13:30:08	13:39:58	585193	5c6ac9e5d9c5be000174497f	683340666	1	main_slash	11	advance_on_keypress_SLASH	144	stimuli_distractor_diamondtriangles.svg	stimuli_target_circlediamonds.svg	14	yes	57	0	70
6.6.1	win	2022-11-07	13:30:08	13:39:59	586452	5c6ac9e5d9c5be000174497f	683340666	1	main_slash	11	main_slash	145	stimuli_target_squarediamonds.svg	stimuli_distractor_trianglediamonds.svg	4	yes	53	1	558
6.6.1	win	2022-11-07	13:30:08	13:39:59	586452	5c6ac9e5d9c5be000174497f	683340666	1	main_slash	11	advance_on_keypress_SLASH	146	stimuli_target_squarediamonds.svg	stimuli_distractor_trianglediamonds.svg	4	yes	57	0	97
6.6.1	win	2022-11-07	13:30:08	13:40:01	587723	5c6ac9e5d9c5be000174497f	683340666	1	main_slash	11	main_slash	147	stimuli_distractor_trianglediamonds.svg	stimuli_target_trianglecircles.svg	25	yes	53	1	546
6.6.1	win	2022-11-07	13:30:08	13:40:01	587723	5c6ac9e5d9c5be000174497f	683340666	1	main_slash	11	advance_on_keypress_SLASH	148	stimuli_distractor_trianglediamonds.svg	stimuli_target_trianglecircles.svg	25	yes	57	0	105
6.6.1	win	2022-11-07	13:30:08	13:40:02	589101	5c6ac9e5d9c5be000174497f	683340666	1	main_slash	11	main_slash	149	stimuli_distractor_trianglediamonds.svg	stimuli_target_trianglesquares.svg	26	yes	53	1	640
6.6.1	win	2022-11-07	13:30:08	13:40:02	589101	5c6ac9e5d9c5be000174497f	683340666	1	main_slash	11	advance_on_keypress_SLASH	150	stimuli_distractor_trianglediamonds.svg	stimuli_target_trianglesquares.svg	26	yes	57	0	101
6.6.1	win	2022-11-07	13:30:08	13:40:03	590434	5c6ac9e5d9c5be000174497f	683340666	1	main_slash	11	main_slash	151	stimuli_distractor_trianglediamonds.svg	stimuli_target_squarediamonds.svg	12	yes	53	1	606
6.6.1	win	2022-11-07	13:30:08	13:40:03	590434	5c6ac9e5d9c5be000174497f	683340666	1	main_slash	11	advance_on_keypress_SLASH	152	stimuli_distractor_trianglediamonds.svg	stimuli_target_squarediamonds.svg	12	yes	57	0	90
6.6.1	win	2022-11-07	13:30:08	13:40:04	591649	5c6ac9e5d9c5be000174497f	683340666	1	main_slash	11	main_slash	153	stimuli_target_circletriangles.svg	stimuli_distractor_trianglediamonds.svg	1	yes	53	1	496
6.6.1	win	2022-11-07	13:30:08	13:40:04	591649	5c6ac9e5d9c5be000174497f	683340666	1	main_slash	11	advance_on_keypress_SLASH	154	stimuli_target_circletriangles.svg	stimuli_distractor_trianglediamonds.svg	1	yes	57	0	81
6.6.1	win	2022-11-07	13:30:08	13:40:07	594361	5c6ac9e5d9c5be000174497f	683340666	1	main_slash	11	main_slash	155	stimuli_target_diamondcircles.svg	stimuli_distractor_trianglediamonds.svg	19	yes	0	0	2000
6.6.1	win	2022-11-07	13:30:08	13:40:07	594361	5c6ac9e5d9c5be000174497f	683340666	1	main_slash	11	advance_on_keypress_SLASH	156	stimuli_target_diamondcircles.svg	stimuli_distractor_trianglediamonds.svg	19	yes	57	0	484
6.6.1	win	2022-11-07	13:30:08	13:40:09	596374	5c6ac9e5d9c5be000174497f	683340666	1	main_slash	11	main_slash	157	stimuli_target_trianglecircles.svg	stimuli_distractor_diamondtriangles.svg	21	yes	53	1	904
6.6.1	win	2022-11-07	13:30:08	13:40:09	596374	5c6ac9e5d9c5be000174497f	683340666	1	main_slash	11	advance_on_keypress_SLASH	158	stimuli_target_trianglecircles.svg	stimuli_distractor_diamondtriangles.svg	21	yes	57	0	111
6.6.1	win	2022-11-07	13:30:08	13:40:11	597937	5c6ac9e5d9c5be000174497f	683340666	1	main_slash	11	main_slash	159	stimuli_target_squarediamonds.svg	stimuli_distractor_diamondtriangles.svg	8	yes	53	1	825
6.6.1	win	2022-11-07	13:30:08	13:40:11	597937	5c6ac9e5d9c5be000174497f	683340666	1	main_slash	11	advance_on_keypress_SLASH	160	stimuli_target_squarediamonds.svg	stimuli_distractor_diamondtriangles.svg	8	yes	57	0	106