build	computer.platform	date	time	timestamp	time_elapsed_ms	subject	group	session	blockcode	blocknum	trialcode	trialnum	stimulus_left	stimulus_right	stim_index	target_present	response	correct	latency
6.6.1	mac	2022-11-07	14:44:33	14:46:35	120889	613909e5cf0d18ff1e3162a9	553282817	1	practice_slash	5	practice_slash	1	stimuli_target_squarediamonds.svg	stimuli_distractor_trianglediamonds.svg	5	yes	0	0	2000
6.6.1	mac	2022-11-07	14:44:33	14:46:35	120889	613909e5cf0d18ff1e3162a9	553282817	1	practice_slash	5	advance_on_keypress_SLASH	2	stimuli_target_squarediamonds.svg	stimuli_distractor_trianglediamonds.svg	5	yes	57	0	2946
6.6.1	mac	2022-11-07	14:44:33	14:46:42	127480	613909e5cf0d18ff1e3162a9	553282817	1	practice_slash	5	practice_slash	3	stimuli_distractor_trianglediamonds.svg	stimuli_distractor_trianglediamonds.svg	15	no	0	1	2000
6.6.1	mac	2022-11-07	14:44:33	14:46:42	127480	613909e5cf0d18ff1e3162a9	553282817	1	practice_slash	5	advance_on_keypress_SLASH	4	stimuli_distractor_trianglediamonds.svg	stimuli_distractor_trianglediamonds.svg	15	no	57	0	2945
6.6.1	mac	2022-11-07	14:44:33	14:46:47	132352	613909e5cf0d18ff1e3162a9	553282817	1	practice_slash	5	practice_slash	5	stimuli_target_diamondsquares.svg	stimuli_distractor_diamondtriangles.svg	3	yes	53	1	295
6.6.1	mac	2022-11-07	14:44:33	14:46:47	132352	613909e5cf0d18ff1e3162a9	553282817	1	practice_slash	5	advance_on_keypress_SLASH	6	stimuli_target_diamondsquares.svg	stimuli_distractor_diamondtriangles.svg	3	yes	57	0	1873
6.6.1	mac	2022-11-07	14:44:33	14:46:52	137855	613909e5cf0d18ff1e3162a9	553282817	1	practice_slash	5	practice_slash	7	stimuli_distractor_diamondtriangles.svg	stimuli_distractor_diamondtriangles.svg	13	no	0	1	2000
6.6.1	mac	2022-11-07	14:44:33	14:46:52	137855	613909e5cf0d18ff1e3162a9	553282817	1	practice_slash	5	advance_on_keypress_SLASH	8	stimuli_distractor_diamondtriangles.svg	stimuli_distractor_diamondtriangles.svg	13	no	57	0	954
6.6.1	mac	2022-11-07	14:44:33	14:46:57	142444	613909e5cf0d18ff1e3162a9	553282817	1	practice_slash	5	practice_slash	9	stimuli_distractor_diamondtriangles.svg	stimuli_target_diamondcircles.svg	8	yes	0	0	2000
6.6.1	mac	2022-11-07	14:44:33	14:46:57	142444	613909e5cf0d18ff1e3162a9	553282817	1	practice_slash	5	advance_on_keypress_SLASH	10	stimuli_distractor_diamondtriangles.svg	stimuli_target_diamondcircles.svg	8	yes	57	0	537
6.6.1	mac	2022-11-07	14:44:33	14:47:00	145034	613909e5cf0d18ff1e3162a9	553282817	1	practice_slash	5	practice_slash	11	stimuli_target_circlediamonds.svg	stimuli_distractor_trianglediamonds.svg	4	yes	53	1	416
6.6.1	mac	2022-11-07	14:44:33	14:47:00	145034	613909e5cf0d18ff1e3162a9	553282817	1	practice_slash	5	advance_on_keypress_SLASH	12	stimuli_target_circlediamonds.svg	stimuli_distractor_trianglediamonds.svg	4	yes	57	0	622
6.6.1	mac	2022-11-07	14:44:33	14:47:02	147604	613909e5cf0d18ff1e3162a9	553282817	1	practice_slash	5	practice_slash	13	stimuli_distractor_diamondtriangles.svg	stimuli_distractor_trianglediamonds.svg	14	no	53	0	326
6.6.1	mac	2022-11-07	14:44:33	14:47:02	147604	613909e5cf0d18ff1e3162a9	553282817	1	practice_slash	5	advance_on_keypress_SLASH	14	stimuli_distractor_diamondtriangles.svg	stimuli_distractor_trianglediamonds.svg	14	no	57	0	570
6.6.1	mac	2022-11-07	14:44:33	14:47:06	151807	613909e5cf0d18ff1e3162a9	553282817	1	practice_slash	5	practice_slash	15	stimuli_distractor_trianglediamonds.svg	stimuli_distractor_diamondtriangles.svg	16	no	0	1	2000
6.6.1	mac	2022-11-07	14:44:33	14:47:06	151807	613909e5cf0d18ff1e3162a9	553282817	1	practice_slash	5	advance_on_keypress_SLASH	16	stimuli_distractor_trianglediamonds.svg	stimuli_distractor_diamondtriangles.svg	16	no	57	0	657
6.6.1	mac	2022-11-07	14:44:33	14:47:11	156104	613909e5cf0d18ff1e3162a9	553282817	1	practice_slash	5	practice_slash	17	stimuli_distractor_diamondtriangles.svg	stimuli_target_trianglecircles.svg	9	yes	0	0	2000
6.6.1	mac	2022-11-07	14:44:33	14:47:11	156104	613909e5cf0d18ff1e3162a9	553282817	1	practice_slash	5	advance_on_keypress_SLASH	18	stimuli_distractor_diamondtriangles.svg	stimuli_target_trianglecircles.svg	9	yes	57	0	1345
6.6.1	mac	2022-11-07	14:44:33	14:47:16	161079	613909e5cf0d18ff1e3162a9	553282817	1	practice_slash	5	practice_slash	19	stimuli_target_diamondsquares.svg	stimuli_distractor_trianglediamonds.svg	6	yes	0	0	2000
6.6.1	mac	2022-11-07	14:44:33	14:47:16	161079	613909e5cf0d18ff1e3162a9	553282817	1	practice_slash	5	advance_on_keypress_SLASH	20	stimuli_target_diamondsquares.svg	stimuli_distractor_trianglediamonds.svg	6	yes	57	0	430
6.6.1	mac	2022-11-07	14:44:33	14:47:18	163595	613909e5cf0d18ff1e3162a9	553282817	1	practice_slash	5	practice_slash	21	stimuli_distractor_trianglediamonds.svg	stimuli_target_circlediamonds.svg	10	yes	53	1	446
6.6.1	mac	2022-11-07	14:44:33	14:47:18	163595	613909e5cf0d18ff1e3162a9	553282817	1	practice_slash	5	advance_on_keypress_SLASH	22	stimuli_distractor_trianglediamonds.svg	stimuli_target_circlediamonds.svg	10	yes	57	0	966
6.6.1	mac	2022-11-07	14:44:33	14:47:21	166910	613909e5cf0d18ff1e3162a9	553282817	1	practice_slash	5	practice_slash	23	stimuli_distractor_diamondtriangles.svg	stimuli_target_circletriangles.svg	7	yes	53	1	705
6.6.1	mac	2022-11-07	14:44:33	14:47:21	166910	613909e5cf0d18ff1e3162a9	553282817	1	practice_slash	5	advance_on_keypress_SLASH	24	stimuli_distractor_diamondtriangles.svg	stimuli_target_circletriangles.svg	7	yes	57	0	973
6.6.1	mac	2022-11-07	14:44:33	14:47:24	169878	613909e5cf0d18ff1e3162a9	553282817	1	practice_slash	5	practice_slash	25	stimuli_target_squarediamonds.svg	stimuli_distractor_diamondtriangles.svg	2	yes	53	1	376
6.6.1	mac	2022-11-07	14:44:33	14:47:24	169878	613909e5cf0d18ff1e3162a9	553282817	1	practice_slash	5	advance_on_keypress_SLASH	26	stimuli_target_squarediamonds.svg	stimuli_distractor_diamondtriangles.svg	2	yes	57	0	857
6.6.1	mac	2022-11-07	14:44:33	14:47:28	173021	613909e5cf0d18ff1e3162a9	553282817	1	practice_slash	5	practice_slash	27	stimuli_distractor_trianglediamonds.svg	stimuli_target_squarediamonds.svg	11	yes	53	1	668
6.6.1	mac	2022-11-07	14:44:33	14:47:28	173021	613909e5cf0d18ff1e3162a9	553282817	1	practice_slash	5	advance_on_keypress_SLASH	28	stimuli_distractor_trianglediamonds.svg	stimuli_target_squarediamonds.svg	11	yes	57	0	480
6.6.1	mac	2022-11-07	14:44:33	14:47:30	175875	613909e5cf0d18ff1e3162a9	553282817	1	practice_slash	5	practice_slash	29	stimuli_distractor_trianglediamonds.svg	stimuli_target_diamondcircles.svg	12	yes	53	1	750
6.6.1	mac	2022-11-07	14:44:33	14:47:30	175875	613909e5cf0d18ff1e3162a9	553282817	1	practice_slash	5	advance_on_keypress_SLASH	30	stimuli_distractor_trianglediamonds.svg	stimuli_target_diamondcircles.svg	12	yes	57	0	410
6.6.1	mac	2022-11-07	14:44:33	14:47:33	178560	613909e5cf0d18ff1e3162a9	553282817	1	practice_slash	5	practice_slash	31	stimuli_target_circlediamonds.svg	stimuli_distractor_diamondtriangles.svg	1	yes	53	1	646
6.6.1	mac	2022-11-07	14:44:33	14:47:33	178560	613909e5cf0d18ff1e3162a9	553282817	1	practice_slash	5	advance_on_keypress_SLASH	32	stimuli_target_circlediamonds.svg	stimuli_distractor_diamondtriangles.svg	1	yes	57	0	542
6.6.1	mac	2022-11-07	14:44:33	14:47:38	183923	613909e5cf0d18ff1e3162a9	553282817	1	main_slash	7	main_slash	1	stimuli_target_circlediamonds.svg	stimuli_distractor_trianglediamonds.svg	2	yes	53	1	460
6.6.1	mac	2022-11-07	14:44:33	14:47:38	183923	613909e5cf0d18ff1e3162a9	553282817	1	main_slash	7	advance_on_keypress_SLASH	2	stimuli_target_circlediamonds.svg	stimuli_distractor_trianglediamonds.svg	2	yes	57	0	1560
6.6.1	mac	2022-11-07	14:44:33	14:47:41	186541	613909e5cf0d18ff1e3162a9	553282817	1	main_slash	7	main_slash	3	stimuli_distractor_diamondtriangles.svg	stimuli_target_diamondcircles.svg	31	yes	53	1	427
6.6.1	mac	2022-11-07	14:44:33	14:47:41	186541	613909e5cf0d18ff1e3162a9	553282817	1	main_slash	7	advance_on_keypress_SLASH	4	stimuli_distractor_diamondtriangles.svg	stimuli_target_diamondcircles.svg	31	yes	57	0	644
6.6.1	mac	2022-11-07	14:44:33	14:47:43	188256	613909e5cf0d18ff1e3162a9	553282817	1	main_slash	7	main_slash	5	stimuli_distractor_trianglediamonds.svg	stimuli_target_squaretriangles.svg	11	yes	53	1	439
6.6.1	mac	2022-11-07	14:44:33	14:47:43	188256	613909e5cf0d18ff1e3162a9	553282817	1	main_slash	7	advance_on_keypress_SLASH	6	stimuli_distractor_trianglediamonds.svg	stimuli_target_squaretriangles.svg	11	yes	57	0	1049
6.6.1	mac	2022-11-07	14:44:33	14:47:45	190324	613909e5cf0d18ff1e3162a9	553282817	1	main_slash	7	main_slash	7	stimuli_distractor_trianglediamonds.svg	stimuli_target_circletriangles.svg	9	yes	53	1	390
6.6.1	mac	2022-11-07	14:44:33	14:47:45	190324	613909e5cf0d18ff1e3162a9	553282817	1	main_slash	7	advance_on_keypress_SLASH	8	stimuli_distractor_trianglediamonds.svg	stimuli_target_circletriangles.svg	9	yes	57	0	758
6.6.1	mac	2022-11-07	14:44:33	14:47:48	193719	613909e5cf0d18ff1e3162a9	553282817	1	main_slash	7	main_slash	9	stimuli_distractor_trianglediamonds.svg	stimuli_distractor_diamondtriangles.svg	35	no	0	1	2000
6.6.1	mac	2022-11-07	14:44:33	14:47:48	193719	613909e5cf0d18ff1e3162a9	553282817	1	main_slash	7	advance_on_keypress_SLASH	10	stimuli_distractor_trianglediamonds.svg	stimuli_distractor_diamondtriangles.svg	35	no	57	0	449
6.6.1	mac	2022-11-07	14:44:33	14:47:51	196807	613909e5cf0d18ff1e3162a9	553282817	1	main_slash	7	main_slash	11	stimuli_distractor_diamondtriangles.svg	stimuli_target_trianglesquares.svg	30	yes	0	0	2000
6.6.1	mac	2022-11-07	14:44:33	14:47:51	196807	613909e5cf0d18ff1e3162a9	553282817	1	main_slash	7	advance_on_keypress_SLASH	12	stimuli_distractor_diamondtriangles.svg	stimuli_target_trianglesquares.svg	30	yes	57	0	7
6.6.1	mac	2022-11-07	14:44:33	14:47:53	198519	613909e5cf0d18ff1e3162a9	553282817	1	main_slash	7	main_slash	13	stimuli_target_trianglecircles.svg	stimuli_distractor_trianglediamonds.svg	17	yes	53	1	1088
6.6.1	mac	2022-11-07	14:44:33	14:47:53	198519	613909e5cf0d18ff1e3162a9	553282817	1	main_slash	7	advance_on_keypress_SLASH	14	stimuli_target_trianglecircles.svg	stimuli_distractor_trianglediamonds.svg	17	yes	57	0	766
6.6.1	mac	2022-11-07	14:44:33	14:47:55	200954	613909e5cf0d18ff1e3162a9	553282817	1	main_slash	7	main_slash	15	stimuli_target_diamondcircles.svg	stimuli_distractor_diamondtriangles.svg	23	yes	53	1	1039
6.6.1	mac	2022-11-07	14:44:33	14:47:55	200954	613909e5cf0d18ff1e3162a9	553282817	1	main_slash	7	advance_on_keypress_SLASH	16	stimuli_target_diamondcircles.svg	stimuli_distractor_diamondtriangles.svg	23	yes	57	0	606
6.6.1	mac	2022-11-07	14:44:33	14:47:59	204180	613909e5cf0d18ff1e3162a9	553282817	1	main_slash	7	main_slash	17	stimuli_distractor_diamondtriangles.svg	stimuli_distractor_diamondtriangles.svg	40	no	0	1	2000
6.6.1	mac	2022-11-07	14:44:33	14:47:59	204180	613909e5cf0d18ff1e3162a9	553282817	1	main_slash	7	advance_on_keypress_SLASH	18	stimuli_distractor_diamondtriangles.svg	stimuli_distractor_diamondtriangles.svg	40	no	57	0	699
6.6.1	mac	2022-11-07	14:44:33	14:48:00	205939	613909e5cf0d18ff1e3162a9	553282817	1	main_slash	7	main_slash	19	stimuli_target_circletriangles.svg	stimuli_distractor_diamondtriangles.svg	5	yes	53	1	433
6.6.1	mac	2022-11-07	14:44:33	14:48:00	205939	613909e5cf0d18ff1e3162a9	553282817	1	main_slash	7	advance_on_keypress_SLASH	20	stimuli_target_circletriangles.svg	stimuli_distractor_diamondtriangles.svg	5	yes	57	0	845
6.6.1	mac	2022-11-07	14:44:33	14:48:04	209412	613909e5cf0d18ff1e3162a9	553282817	1	main_slash	7	main_slash	21	stimuli_target_diamondsquares.svg	stimuli_distractor_diamondtriangles.svg	24	yes	0	0	2000
6.6.1	mac	2022-11-07	14:44:33	14:48:04	209412	613909e5cf0d18ff1e3162a9	553282817	1	main_slash	7	advance_on_keypress_SLASH	22	stimuli_target_diamondsquares.svg	stimuli_distractor_diamondtriangles.svg	24	yes	57	0	444
6.6.1	mac	2022-11-07	14:44:33	14:48:06	211182	613909e5cf0d18ff1e3162a9	553282817	1	main_slash	7	main_slash	23	stimuli_distractor_diamondtriangles.svg	stimuli_target_diamondsquares.svg	32	yes	53	1	710
6.6.1	mac	2022-11-07	14:44:33	14:48:06	211182	613909e5cf0d18ff1e3162a9	553282817	1	main_slash	7	advance_on_keypress_SLASH	24	stimuli_distractor_diamondtriangles.svg	stimuli_target_diamondsquares.svg	32	yes	57	0	767
6.6.1	mac	2022-11-07	14:44:33	14:48:09	214574	613909e5cf0d18ff1e3162a9	553282817	1	main_slash	7	main_slash	25	stimuli_distractor_trianglediamonds.svg	stimuli_distractor_trianglediamonds.svg	33	no	0	1	2000
6.6.1	mac	2022-11-07	14:44:33	14:48:09	214574	613909e5cf0d18ff1e3162a9	553282817	1	main_slash	7	advance_on_keypress_SLASH	26	stimuli_distractor_trianglediamonds.svg	stimuli_distractor_trianglediamonds.svg	33	no	57	0	199
6.6.1	mac	2022-11-07	14:44:33	14:48:11	216244	613909e5cf0d18ff1e3162a9	553282817	1	main_slash	7	main_slash	27	stimuli_target_trianglesquares.svg	stimuli_distractor_diamondtriangles.svg	22	yes	53	1	843
6.6.1	mac	2022-11-07	14:44:33	14:48:11	216244	613909e5cf0d18ff1e3162a9	553282817	1	main_slash	7	advance_on_keypress_SLASH	28	stimuli_target_trianglesquares.svg	stimuli_distractor_diamondtriangles.svg	22	yes	57	0	629
6.6.1	mac	2022-11-07	14:44:33	14:48:13	218331	613909e5cf0d18ff1e3162a9	553282817	1	main_slash	7	main_slash	29	stimuli_target_trianglesquares.svg	stimuli_distractor_trianglediamonds.svg	18	yes	53	1	825
6.6.1	mac	2022-11-07	14:44:33	14:48:13	218331	613909e5cf0d18ff1e3162a9	553282817	1	main_slash	7	advance_on_keypress_SLASH	30	stimuli_target_trianglesquares.svg	stimuli_distractor_trianglediamonds.svg	18	yes	57	0	533
6.6.1	mac	2022-11-07	14:44:33	14:48:15	220143	613909e5cf0d18ff1e3162a9	553282817	1	main_slash	7	main_slash	31	stimuli_distractor_diamondtriangles.svg	stimuli_target_circlediamonds.svg	14	yes	53	1	650
6.6.1	mac	2022-11-07	14:44:33	14:48:15	220143	613909e5cf0d18ff1e3162a9	553282817	1	main_slash	7	advance_on_keypress_SLASH	32	stimuli_distractor_diamondtriangles.svg	stimuli_target_circlediamonds.svg	14	yes	57	0	740
6.6.1	mac	2022-11-07	14:44:33	14:48:16	221956	613909e5cf0d18ff1e3162a9	553282817	1	main_slash	7	main_slash	33	stimuli_target_circletriangles.svg	stimuli_distractor_trianglediamonds.svg	1	yes	53	1	436
6.6.1	mac	2022-11-07	14:44:33	14:48:16	221956	613909e5cf0d18ff1e3162a9	553282817	1	main_slash	7	advance_on_keypress_SLASH	34	stimuli_target_circletriangles.svg	stimuli_distractor_trianglediamonds.svg	1	yes	57	0	524
6.6.1	mac	2022-11-07	14:44:33	14:48:18	223530	613909e5cf0d18ff1e3162a9	553282817	1	main_slash	7	main_slash	35	stimuli_target_squarediamonds.svg	stimuli_distractor_diamondtriangles.svg	8	yes	53	1	408
6.6.1	mac	2022-11-07	14:44:33	14:48:18	223530	613909e5cf0d18ff1e3162a9	553282817	1	main_slash	7	advance_on_keypress_SLASH	36	stimuli_target_squarediamonds.svg	stimuli_distractor_diamondtriangles.svg	8	yes	57	0	556
6.6.1	mac	2022-11-07	14:44:33	14:48:20	225279	613909e5cf0d18ff1e3162a9	553282817	1	main_slash	7	main_slash	37	stimuli_distractor_diamondtriangles.svg	stimuli_target_squaretriangles.svg	15	yes	53	1	570
6.6.1	mac	2022-11-07	14:44:33	14:48:20	225279	613909e5cf0d18ff1e3162a9	553282817	1	main_slash	7	advance_on_keypress_SLASH	38	stimuli_distractor_diamondtriangles.svg	stimuli_target_squaretriangles.svg	15	yes	57	0	684
6.6.1	mac	2022-11-07	14:44:33	14:48:23	228599	613909e5cf0d18ff1e3162a9	553282817	1	main_slash	7	main_slash	39	stimuli_distractor_trianglediamonds.svg	stimuli_target_trianglesquares.svg	26	yes	0	0	2000
6.6.1	mac	2022-11-07	14:44:33	14:48:23	228599	613909e5cf0d18ff1e3162a9	553282817	1	main_slash	7	advance_on_keypress_SLASH	40	stimuli_distractor_trianglediamonds.svg	stimuli_target_trianglesquares.svg	26	yes	57	0	379
6.6.1	mac	2022-11-07	14:44:33	14:48:25	230178	613909e5cf0d18ff1e3162a9	553282817	1	main_slash	7	main_slash	41	stimuli_distractor_diamondtriangles.svg	stimuli_target_squarediamonds.svg	16	yes	53	1	568
6.6.1	mac	2022-11-07	14:44:33	14:48:25	230178	613909e5cf0d18ff1e3162a9	553282817	1	main_slash	7	advance_on_keypress_SLASH	42	stimuli_distractor_diamondtriangles.svg	stimuli_target_squarediamonds.svg	16	yes	57	0	745
6.6.1	mac	2022-11-07	14:44:33	14:48:28	233551	613909e5cf0d18ff1e3162a9	553282817	1	main_slash	7	main_slash	43	stimuli_distractor_diamondtriangles.svg	stimuli_distractor_trianglediamonds.svg	37	no	0	1	2000
6.6.1	mac	2022-11-07	14:44:33	14:48:28	233551	613909e5cf0d18ff1e3162a9	553282817	1	main_slash	7	advance_on_keypress_SLASH	44	stimuli_distractor_diamondtriangles.svg	stimuli_distractor_trianglediamonds.svg	37	no	57	0	319
6.6.1	mac	2022-11-07	14:44:33	14:48:29	234918	613909e5cf0d18ff1e3162a9	553282817	1	main_slash	7	main_slash	45	stimuli_distractor_trianglediamonds.svg	stimuli_target_circlediamonds.svg	10	yes	53	1	421
6.6.1	mac	2022-11-07	14:44:33	14:48:29	234918	613909e5cf0d18ff1e3162a9	553282817	1	main_slash	7	advance_on_keypress_SLASH	46	stimuli_distractor_trianglediamonds.svg	stimuli_target_circlediamonds.svg	10	yes	57	0	557
6.6.1	mac	2022-11-07	14:44:33	14:48:33	238114	613909e5cf0d18ff1e3162a9	553282817	1	main_slash	7	main_slash	47	stimuli_distractor_trianglediamonds.svg	stimuli_distractor_trianglediamonds.svg	34	no	0	1	2000
6.6.1	mac	2022-11-07	14:44:33	14:48:33	238114	613909e5cf0d18ff1e3162a9	553282817	1	main_slash	7	advance_on_keypress_SLASH	48	stimuli_distractor_trianglediamonds.svg	stimuli_distractor_trianglediamonds.svg	34	no	57	0	303
6.6.1	mac	2022-11-07	14:44:33	14:48:34	239470	613909e5cf0d18ff1e3162a9	553282817	1	main_slash	7	main_slash	49	stimuli_distractor_trianglediamonds.svg	stimuli_target_squarediamonds.svg	12	yes	53	1	428
6.6.1	mac	2022-11-07	14:44:33	14:48:34	239470	613909e5cf0d18ff1e3162a9	553282817	1	main_slash	7	advance_on_keypress_SLASH	50	stimuli_distractor_trianglediamonds.svg	stimuli_target_squarediamonds.svg	12	yes	57	0	622
6.6.1	mac	2022-11-07	14:44:33	14:48:36	241100	613909e5cf0d18ff1e3162a9	553282817	1	main_slash	7	main_slash	51	stimuli_target_circlediamonds.svg	stimuli_distractor_diamondtriangles.svg	6	yes	53	1	385
6.6.1	mac	2022-11-07	14:44:33	14:48:36	241100	613909e5cf0d18ff1e3162a9	553282817	1	main_slash	7	advance_on_keypress_SLASH	52	stimuli_target_circlediamonds.svg	stimuli_distractor_diamondtriangles.svg	6	yes	57	0	491
6.6.1	mac	2022-11-07	14:44:33	14:48:38	243033	613909e5cf0d18ff1e3162a9	553282817	1	main_slash	7	main_slash	53	stimuli_target_diamondcircles.svg	stimuli_distractor_trianglediamonds.svg	19	yes	53	1	812
6.6.1	mac	2022-11-07	14:44:33	14:48:38	243033	613909e5cf0d18ff1e3162a9	553282817	1	main_slash	7	advance_on_keypress_SLASH	54	stimuli_target_diamondcircles.svg	stimuli_distractor_trianglediamonds.svg	19	yes	57	0	705
6.6.1	mac	2022-11-07	14:44:33	14:48:39	244870	613909e5cf0d18ff1e3162a9	553282817	1	main_slash	7	main_slash	55	stimuli_target_squaretriangles.svg	stimuli_distractor_diamondtriangles.svg	7	yes	53	1	509
6.6.1	mac	2022-11-07	14:44:33	14:48:39	244870	613909e5cf0d18ff1e3162a9	553282817	1	main_slash	7	advance_on_keypress_SLASH	56	stimuli_target_squaretriangles.svg	stimuli_distractor_diamondtriangles.svg	7	yes	57	0	623
6.6.1	mac	2022-11-07	14:44:33	14:48:41	246840	613909e5cf0d18ff1e3162a9	553282817	1	main_slash	7	main_slash	57	stimuli_distractor_trianglediamonds.svg	stimuli_target_trianglecircles.svg	25	yes	53	1	724
6.6.1	mac	2022-11-07	14:44:33	14:48:41	246840	613909e5cf0d18ff1e3162a9	553282817	1	main_slash	7	advance_on_keypress_SLASH	58	stimuli_distractor_trianglediamonds.svg	stimuli_target_trianglecircles.svg	25	yes	57	0	507
6.6.1	mac	2022-11-07	14:44:33	14:48:43	248700	613909e5cf0d18ff1e3162a9	553282817	1	main_slash	7	main_slash	59	stimuli_target_diamondsquares.svg	stimuli_distractor_trianglediamonds.svg	20	yes	53	1	731
6.6.1	mac	2022-11-07	14:44:33	14:48:43	248700	613909e5cf0d18ff1e3162a9	553282817	1	main_slash	7	advance_on_keypress_SLASH	60	stimuli_target_diamondsquares.svg	stimuli_distractor_trianglediamonds.svg	20	yes	57	0	629
6.6.1	mac	2022-11-07	14:44:33	14:48:46	251974	613909e5cf0d18ff1e3162a9	553282817	1	main_slash	7	main_slash	61	stimuli_distractor_trianglediamonds.svg	stimuli_distractor_diamondtriangles.svg	36	no	0	1	2000
6.6.1	mac	2022-11-07	14:44:33	14:48:46	251974	613909e5cf0d18ff1e3162a9	553282817	1	main_slash	7	advance_on_keypress_SLASH	62	stimuli_distractor_trianglediamonds.svg	stimuli_distractor_diamondtriangles.svg	36	no	57	0	309
6.6.1	mac	2022-11-07	14:44:33	14:48:48	253354	613909e5cf0d18ff1e3162a9	553282817	1	main_slash	7	main_slash	63	stimuli_target_squaretriangles.svg	stimuli_distractor_trianglediamonds.svg	3	yes	53	1	433
6.6.1	mac	2022-11-07	14:44:33	14:48:48	253354	613909e5cf0d18ff1e3162a9	553282817	1	main_slash	7	advance_on_keypress_SLASH	64	stimuli_target_squaretriangles.svg	stimuli_distractor_trianglediamonds.svg	3	yes	57	0	626
6.6.1	mac	2022-11-07	14:44:33	14:48:51	256612	613909e5cf0d18ff1e3162a9	553282817	1	main_slash	7	main_slash	65	stimuli_distractor_diamondtriangles.svg	stimuli_distractor_diamondtriangles.svg	39	no	0	1	2000
6.6.1	mac	2022-11-07	14:44:33	14:48:51	256612	613909e5cf0d18ff1e3162a9	553282817	1	main_slash	7	advance_on_keypress_SLASH	66	stimuli_distractor_diamondtriangles.svg	stimuli_distractor_diamondtriangles.svg	39	no	57	0	581
6.6.1	mac	2022-11-07	14:44:33	14:48:53	258475	613909e5cf0d18ff1e3162a9	553282817	1	main_slash	7	main_slash	67	stimuli_distractor_trianglediamonds.svg	stimuli_target_diamondcircles.svg	27	yes	53	1	647
6.6.1	mac	2022-11-07	14:44:33	14:48:53	258475	613909e5cf0d18ff1e3162a9	553282817	1	main_slash	7	advance_on_keypress_SLASH	68	stimuli_distractor_trianglediamonds.svg	stimuli_target_diamondcircles.svg	27	yes	57	0	545
6.6.1	mac	2022-11-07	14:44:33	14:48:55	260501	613909e5cf0d18ff1e3162a9	553282817	1	main_slash	7	main_slash	69	stimuli_distractor_trianglediamonds.svg	stimuli_target_diamondsquares.svg	28	yes	53	1	847
6.6.1	mac	2022-11-07	14:44:33	14:48:55	260501	613909e5cf0d18ff1e3162a9	553282817	1	main_slash	7	advance_on_keypress_SLASH	70	stimuli_distractor_trianglediamonds.svg	stimuli_target_diamondsquares.svg	28	yes	57	0	441
6.6.1	mac	2022-11-07	14:44:33	14:48:57	262871	613909e5cf0d18ff1e3162a9	553282817	1	main_slash	7	main_slash	71	stimuli_target_squarediamonds.svg	stimuli_distractor_trianglediamonds.svg	4	yes	53	1	1307
6.6.1	mac	2022-11-07	14:44:33	14:48:57	262871	613909e5cf0d18ff1e3162a9	553282817	1	main_slash	7	advance_on_keypress_SLASH	72	stimuli_target_squarediamonds.svg	stimuli_distractor_trianglediamonds.svg	4	yes	57	0	485
6.6.1	mac	2022-11-07	14:44:33	14:49:01	265985	613909e5cf0d18ff1e3162a9	553282817	1	main_slash	7	main_slash	73	stimuli_distractor_diamondtriangles.svg	stimuli_distractor_trianglediamonds.svg	38	no	0	1	2000
6.6.1	mac	2022-11-07	14:44:33	14:49:01	265985	613909e5cf0d18ff1e3162a9	553282817	1	main_slash	7	advance_on_keypress_SLASH	74	stimuli_distractor_diamondtriangles.svg	stimuli_distractor_trianglediamonds.svg	38	no	57	0	1413
6.6.1	mac	2022-11-07	14:44:33	14:49:03	268554	613909e5cf0d18ff1e3162a9	553282817	1	main_slash	7	main_slash	75	stimuli_distractor_diamondtriangles.svg	stimuli_target_trianglecircles.svg	29	yes	53	1	514
6.6.1	mac	2022-11-07	14:44:33	14:49:03	268554	613909e5cf0d18ff1e3162a9	553282817	1	main_slash	7	advance_on_keypress_SLASH	76	stimuli_distractor_diamondtriangles.svg	stimuli_target_trianglecircles.svg	29	yes	57	0	547
6.6.1	mac	2022-11-07	14:44:33	14:49:05	270114	613909e5cf0d18ff1e3162a9	553282817	1	main_slash	7	main_slash	77	stimuli_target_trianglecircles.svg	stimuli_distractor_diamondtriangles.svg	21	yes	53	1	384
6.6.1	mac	2022-11-07	14:44:33	14:49:05	270114	613909e5cf0d18ff1e3162a9	553282817	1	main_slash	7	advance_on_keypress_SLASH	78	stimuli_target_trianglecircles.svg	stimuli_distractor_diamondtriangles.svg	21	yes	57	0	617
6.6.1	mac	2022-11-07	14:44:33	14:49:07	272004	613909e5cf0d18ff1e3162a9	553282817	1	main_slash	7	main_slash	79	stimuli_distractor_diamondtriangles.svg	stimuli_target_circletriangles.svg	13	yes	53	1	631
6.6.1	mac	2022-11-07	14:44:33	14:49:07	272004	613909e5cf0d18ff1e3162a9	553282817	1	main_slash	7	advance_on_keypress_SLASH	80	stimuli_distractor_diamondtriangles.svg	stimuli_target_circletriangles.svg	13	yes	57	0	568
6.6.1	mac	2022-11-07	14:44:33	14:49:08	273899	613909e5cf0d18ff1e3162a9	553282817	1	main_slash	7	main_slash	81	stimuli_target_squarediamonds.svg	stimuli_distractor_trianglediamonds.svg	4	yes	53	1	699
6.6.1	mac	2022-11-07	14:44:33	14:49:08	273899	613909e5cf0d18ff1e3162a9	553282817	1	main_slash	7	advance_on_keypress_SLASH	82	stimuli_target_squarediamonds.svg	stimuli_distractor_trianglediamonds.svg	4	yes	57	0	468
6.6.1	mac	2022-11-07	14:44:33	14:49:11	276290	613909e5cf0d18ff1e3162a9	553282817	1	main_slash	7	main_slash	83	stimuli_distractor_diamondtriangles.svg	stimuli_target_trianglesquares.svg	30	yes	53	1	1294
6.6.1	mac	2022-11-07	14:44:33	14:49:11	276290	613909e5cf0d18ff1e3162a9	553282817	1	main_slash	7	advance_on_keypress_SLASH	84	stimuli_distractor_diamondtriangles.svg	stimuli_target_trianglesquares.svg	30	yes	57	0	306
6.6.1	mac	2022-11-07	14:44:33	14:49:12	277841	613909e5cf0d18ff1e3162a9	553282817	1	main_slash	7	main_slash	85	stimuli_target_diamondsquares.svg	stimuli_distractor_diamondtriangles.svg	24	yes	53	1	607
6.6.1	mac	2022-11-07	14:44:33	14:49:12	277841	613909e5cf0d18ff1e3162a9	553282817	1	main_slash	7	advance_on_keypress_SLASH	86	stimuli_target_diamondsquares.svg	stimuli_distractor_diamondtriangles.svg	24	yes	57	0	402
6.6.1	mac	2022-11-07	14:44:33	14:49:14	279380	613909e5cf0d18ff1e3162a9	553282817	1	main_slash	7	main_slash	87	stimuli_target_diamondsquares.svg	stimuli_distractor_trianglediamonds.svg	20	yes	53	1	508
6.6.1	mac	2022-11-07	14:44:33	14:49:14	279380	613909e5cf0d18ff1e3162a9	553282817	1	main_slash	7	advance_on_keypress_SLASH	88	stimuli_target_diamondsquares.svg	stimuli_distractor_trianglediamonds.svg	20	yes	57	0	405
6.6.1	mac	2022-11-07	14:44:33	14:49:16	281513	613909e5cf0d18ff1e3162a9	553282817	1	main_slash	7	main_slash	89	stimuli_distractor_diamondtriangles.svg	stimuli_distractor_trianglediamonds.svg	37	no	53	0	1104
6.6.1	mac	2022-11-07	14:44:33	14:49:16	281513	613909e5cf0d18ff1e3162a9	553282817	1	main_slash	7	advance_on_keypress_SLASH	90	stimuli_distractor_diamondtriangles.svg	stimuli_distractor_trianglediamonds.svg	37	no	57	0	331
6.6.1	mac	2022-11-07	14:44:33	14:49:17	282911	613909e5cf0d18ff1e3162a9	553282817	1	main_slash	7	main_slash	91	stimuli_target_diamondcircles.svg	stimuli_distractor_diamondtriangles.svg	23	yes	53	1	430
6.6.1	mac	2022-11-07	14:44:33	14:49:17	282911	613909e5cf0d18ff1e3162a9	553282817	1	main_slash	7	advance_on_keypress_SLASH	92	stimuli_target_diamondcircles.svg	stimuli_distractor_diamondtriangles.svg	23	yes	57	0	480
6.6.1	mac	2022-11-07	14:44:33	14:49:21	286022	613909e5cf0d18ff1e3162a9	553282817	1	main_slash	7	main_slash	93	stimuli_distractor_trianglediamonds.svg	stimuli_distractor_diamondtriangles.svg	35	no	0	1	2000
6.6.1	mac	2022-11-07	14:44:33	14:49:21	286022	613909e5cf0d18ff1e3162a9	553282817	1	main_slash	7	advance_on_keypress_SLASH	94	stimuli_distractor_trianglediamonds.svg	stimuli_distractor_diamondtriangles.svg	35	no	57	0	666
6.6.1	mac	2022-11-07	14:44:33	14:49:22	287972	613909e5cf0d18ff1e3162a9	553282817	1	main_slash	7	main_slash	95	stimuli_distractor_diamondtriangles.svg	stimuli_target_squarediamonds.svg	16	yes	53	1	646
6.6.1	mac	2022-11-07	14:44:33	14:49:22	287972	613909e5cf0d18ff1e3162a9	553282817	1	main_slash	7	advance_on_keypress_SLASH	96	stimuli_distractor_diamondtriangles.svg	stimuli_target_squarediamonds.svg	16	yes	57	0	655
6.6.1	mac	2022-11-07	14:44:33	14:49:24	289663	613909e5cf0d18ff1e3162a9	553282817	1	main_slash	7	main_slash	97	stimuli_target_circlediamonds.svg	stimuli_distractor_trianglediamonds.svg	2	yes	53	1	408
6.6.1	mac	2022-11-07	14:44:33	14:49:24	289663	613909e5cf0d18ff1e3162a9	553282817	1	main_slash	7	advance_on_keypress_SLASH	98	stimuli_target_circlediamonds.svg	stimuli_distractor_trianglediamonds.svg	2	yes	57	0	435
6.6.1	mac	2022-11-07	14:44:33	14:49:26	291692	613909e5cf0d18ff1e3162a9	553282817	1	main_slash	7	main_slash	99	stimuli_target_diamondcircles.svg	stimuli_distractor_trianglediamonds.svg	19	yes	53	1	954
6.6.1	mac	2022-11-07	14:44:33	14:49:26	291692	613909e5cf0d18ff1e3162a9	553282817	1	main_slash	7	advance_on_keypress_SLASH	100	stimuli_target_diamondcircles.svg	stimuli_distractor_trianglediamonds.svg	19	yes	57	0	354
6.6.1	mac	2022-11-07	14:44:33	14:49:28	293658	613909e5cf0d18ff1e3162a9	553282817	1	main_slash	7	main_slash	101	stimuli_target_squaretriangles.svg	stimuli_distractor_trianglediamonds.svg	3	yes	53	1	973
6.6.1	mac	2022-11-07	14:44:33	14:49:28	293658	613909e5cf0d18ff1e3162a9	553282817	1	main_slash	7	advance_on_keypress_SLASH	102	stimuli_target_squaretriangles.svg	stimuli_distractor_trianglediamonds.svg	3	yes	57	0	454
6.6.1	mac	2022-11-07	14:44:33	14:49:30	295585	613909e5cf0d18ff1e3162a9	553282817	1	main_slash	7	main_slash	103	stimuli_distractor_diamondtriangles.svg	stimuli_target_trianglecircles.svg	29	yes	53	1	851
6.6.1	mac	2022-11-07	14:44:33	14:49:30	295585	613909e5cf0d18ff1e3162a9	553282817	1	main_slash	7	advance_on_keypress_SLASH	104	stimuli_distractor_diamondtriangles.svg	stimuli_target_trianglecircles.svg	29	yes	57	0	321
6.6.1	mac	2022-11-07	14:44:33	14:49:32	297697	613909e5cf0d18ff1e3162a9	553282817	1	main_slash	7	main_slash	105	stimuli_target_circletriangles.svg	stimuli_distractor_trianglediamonds.svg	1	yes	53	1	1156
6.6.1	mac	2022-11-07	14:44:33	14:49:32	297697	613909e5cf0d18ff1e3162a9	553282817	1	main_slash	7	advance_on_keypress_SLASH	106	stimuli_target_circletriangles.svg	stimuli_distractor_trianglediamonds.svg	1	yes	57	0	260
6.6.1	mac	2022-11-07	14:44:33	14:49:34	299301	613909e5cf0d18ff1e3162a9	553282817	1	main_slash	7	main_slash	107	stimuli_distractor_trianglediamonds.svg	stimuli_target_circlediamonds.svg	10	yes	53	1	705
6.6.1	mac	2022-11-07	14:44:33	14:49:34	299301	613909e5cf0d18ff1e3162a9	553282817	1	main_slash	7	advance_on_keypress_SLASH	108	stimuli_distractor_trianglediamonds.svg	stimuli_target_circlediamonds.svg	10	yes	57	0	424
6.6.1	mac	2022-11-07	14:44:33	14:49:36	300993	613909e5cf0d18ff1e3162a9	553282817	1	main_slash	7	main_slash	109	stimuli_target_trianglecircles.svg	stimuli_distractor_trianglediamonds.svg	17	yes	53	1	635
6.6.1	mac	2022-11-07	14:44:33	14:49:36	300993	613909e5cf0d18ff1e3162a9	553282817	1	main_slash	7	advance_on_keypress_SLASH	110	stimuli_target_trianglecircles.svg	stimuli_distractor_trianglediamonds.svg	17	yes	57	0	460
6.6.1	mac	2022-11-07	14:44:33	14:49:37	302910	613909e5cf0d18ff1e3162a9	553282817	1	main_slash	7	main_slash	111	stimuli_target_squaretriangles.svg	stimuli_distractor_diamondtriangles.svg	7	yes	53	1	826
6.6.1	mac	2022-11-07	14:44:33	14:49:37	302910	613909e5cf0d18ff1e3162a9	553282817	1	main_slash	7	advance_on_keypress_SLASH	112	stimuli_target_squaretriangles.svg	stimuli_distractor_diamondtriangles.svg	7	yes	57	0	574
6.6.1	mac	2022-11-07	14:44:33	14:49:39	304555	613909e5cf0d18ff1e3162a9	553282817	1	main_slash	7	main_slash	113	stimuli_target_trianglecircles.svg	stimuli_distractor_diamondtriangles.svg	21	yes	53	1	449
6.6.1	mac	2022-11-07	14:44:33	14:49:39	304555	613909e5cf0d18ff1e3162a9	553282817	1	main_slash	7	advance_on_keypress_SLASH	114	stimuli_target_trianglecircles.svg	stimuli_distractor_diamondtriangles.svg	21	yes	57	0	2050
6.6.1	mac	2022-11-07	14:44:33	14:49:44	309231	613909e5cf0d18ff1e3162a9	553282817	1	main_slash	7	main_slash	115	stimuli_distractor_diamondtriangles.svg	stimuli_distractor_diamondtriangles.svg	40	no	0	1	2000
6.6.1	mac	2022-11-07	14:44:33	14:49:44	309231	613909e5cf0d18ff1e3162a9	553282817	1	main_slash	7	advance_on_keypress_SLASH	116	stimuli_distractor_diamondtriangles.svg	stimuli_distractor_diamondtriangles.svg	40	no	57	0	468
6.6.1	mac	2022-11-07	14:44:33	14:49:45	310869	613909e5cf0d18ff1e3162a9	553282817	1	main_slash	7	main_slash	117	stimuli_target_trianglesquares.svg	stimuli_distractor_diamondtriangles.svg	22	yes	53	1	543
6.6.1	mac	2022-11-07	14:44:33	14:49:45	310869	613909e5cf0d18ff1e3162a9	553282817	1	main_slash	7	advance_on_keypress_SLASH	118	stimuli_target_trianglesquares.svg	stimuli_distractor_diamondtriangles.svg	22	yes	57	0	555
6.6.1	mac	2022-11-07	14:44:33	14:49:47	312745	613909e5cf0d18ff1e3162a9	553282817	1	main_slash	7	main_slash	119	stimuli_distractor_diamondtriangles.svg	stimuli_target_squaretriangles.svg	15	yes	53	1	697
6.6.1	mac	2022-11-07	14:44:33	14:49:47	312745	613909e5cf0d18ff1e3162a9	553282817	1	main_slash	7	advance_on_keypress_SLASH	120	stimuli_distractor_diamondtriangles.svg	stimuli_target_squaretriangles.svg	15	yes	57	0	684
6.6.1	mac	2022-11-07	14:44:33	14:49:49	314579	613909e5cf0d18ff1e3162a9	553282817	1	main_slash	7	main_slash	121	stimuli_distractor_diamondtriangles.svg	stimuli_target_circletriangles.svg	13	yes	53	1	506
6.6.1	mac	2022-11-07	14:44:33	14:49:49	314579	613909e5cf0d18ff1e3162a9	553282817	1	main_slash	7	advance_on_keypress_SLASH	122	stimuli_distractor_diamondtriangles.svg	stimuli_target_circletriangles.svg	13	yes	57	0	538
6.6.1	mac	2022-11-07	14:44:33	14:49:52	317739	613909e5cf0d18ff1e3162a9	553282817	1	main_slash	7	main_slash	123	stimuli_distractor_trianglediamonds.svg	stimuli_distractor_diamondtriangles.svg	36	no	0	1	2000
6.6.1	mac	2022-11-07	14:44:33	14:49:52	317739	613909e5cf0d18ff1e3162a9	553282817	1	main_slash	7	advance_on_keypress_SLASH	124	stimuli_distractor_trianglediamonds.svg	stimuli_distractor_diamondtriangles.svg	36	no	57	0	321
6.6.1	mac	2022-11-07	14:44:33	14:49:54	319135	613909e5cf0d18ff1e3162a9	553282817	1	main_slash	7	main_slash	125	stimuli_target_circlediamonds.svg	stimuli_distractor_diamondtriangles.svg	6	yes	53	1	450
6.6.1	mac	2022-11-07	14:44:33	14:49:54	319135	613909e5cf0d18ff1e3162a9	553282817	1	main_slash	7	advance_on_keypress_SLASH	126	stimuli_target_circlediamonds.svg	stimuli_distractor_diamondtriangles.svg	6	yes	57	0	633
6.6.1	mac	2022-11-07	14:44:33	14:49:55	320892	613909e5cf0d18ff1e3162a9	553282817	1	main_slash	7	main_slash	127	stimuli_distractor_trianglediamonds.svg	stimuli_target_trianglecircles.svg	25	yes	53	1	478
6.6.1	mac	2022-11-07	14:44:33	14:49:55	320892	613909e5cf0d18ff1e3162a9	553282817	1	main_slash	7	advance_on_keypress_SLASH	128	stimuli_distractor_trianglediamonds.svg	stimuli_target_trianglecircles.svg	25	yes	57	0	430
6.6.1	mac	2022-11-07	14:44:33	14:49:57	322496	613909e5cf0d18ff1e3162a9	553282817	1	main_slash	7	main_slash	129	stimuli_target_trianglesquares.svg	stimuli_distractor_trianglediamonds.svg	18	yes	53	1	542
6.6.1	mac	2022-11-07	14:44:33	14:49:57	322496	613909e5cf0d18ff1e3162a9	553282817	1	main_slash	7	advance_on_keypress_SLASH	130	stimuli_target_trianglesquares.svg	stimuli_distractor_trianglediamonds.svg	18	yes	57	0	671
6.6.1	mac	2022-11-07	14:44:33	14:49:59	324246	613909e5cf0d18ff1e3162a9	553282817	1	main_slash	7	main_slash	131	stimuli_distractor_trianglediamonds.svg	stimuli_target_trianglesquares.svg	26	yes	53	1	452
6.6.1	mac	2022-11-07	14:44:33	14:49:59	324246	613909e5cf0d18ff1e3162a9	553282817	1	main_slash	7	advance_on_keypress_SLASH	132	stimuli_distractor_trianglediamonds.svg	stimuli_target_trianglesquares.svg	26	yes	57	0	541
6.6.1	mac	2022-11-07	14:44:33	14:50:00	325827	613909e5cf0d18ff1e3162a9	553282817	1	main_slash	7	main_slash	133	stimuli_distractor_trianglediamonds.svg	stimuli_target_diamondcircles.svg	27	yes	53	1	398
6.6.1	mac	2022-11-07	14:44:33	14:50:00	325827	613909e5cf0d18ff1e3162a9	553282817	1	main_slash	7	advance_on_keypress_SLASH	134	stimuli_distractor_trianglediamonds.svg	stimuli_target_diamondcircles.svg	27	yes	57	0	481
6.6.1	mac	2022-11-07	14:44:33	14:50:03	328935	613909e5cf0d18ff1e3162a9	553282817	1	main_slash	7	main_slash	135	stimuli_distractor_diamondtriangles.svg	stimuli_distractor_diamondtriangles.svg	39	no	0	1	2000
6.6.1	mac	2022-11-07	14:44:33	14:50:03	328935	613909e5cf0d18ff1e3162a9	553282817	1	main_slash	7	advance_on_keypress_SLASH	136	stimuli_distractor_diamondtriangles.svg	stimuli_distractor_diamondtriangles.svg	39	no	57	0	885
6.6.1	mac	2022-11-07	14:44:33	14:50:06	331034	613909e5cf0d18ff1e3162a9	553282817	1	main_slash	7	main_slash	137	stimuli_distractor_diamondtriangles.svg	stimuli_target_diamondsquares.svg	32	yes	53	1	585
6.6.1	mac	2022-11-07	14:44:33	14:50:06	331034	613909e5cf0d18ff1e3162a9	553282817	1	main_slash	7	advance_on_keypress_SLASH	138	stimuli_distractor_diamondtriangles.svg	stimuli_target_diamondsquares.svg	32	yes	57	0	393
6.6.1	mac	2022-11-07	14:44:33	14:50:09	334058	613909e5cf0d18ff1e3162a9	553282817	1	main_slash	7	main_slash	139	stimuli_distractor_trianglediamonds.svg	stimuli_distractor_trianglediamonds.svg	33	no	0	1	2000
6.6.1	mac	2022-11-07	14:44:33	14:50:09	334058	613909e5cf0d18ff1e3162a9	553282817	1	main_slash	7	advance_on_keypress_SLASH	140	stimuli_distractor_trianglediamonds.svg	stimuli_distractor_trianglediamonds.svg	33	no	57	0	292
6.6.1	mac	2022-11-07	14:44:33	14:50:10	335528	613909e5cf0d18ff1e3162a9	553282817	1	main_slash	7	main_slash	141	stimuli_distractor_trianglediamonds.svg	stimuli_target_squaretriangles.svg	11	yes	53	1	537
6.6.1	mac	2022-11-07	14:44:33	14:50:10	335528	613909e5cf0d18ff1e3162a9	553282817	1	main_slash	7	advance_on_keypress_SLASH	142	stimuli_distractor_trianglediamonds.svg	stimuli_target_squaretriangles.svg	11	yes	57	0	596
6.6.1	mac	2022-11-07	14:44:33	14:50:13	338753	613909e5cf0d18ff1e3162a9	553282817	1	main_slash	7	main_slash	143	stimuli_distractor_trianglediamonds.svg	stimuli_distractor_trianglediamonds.svg	34	no	0	1	2000
6.6.1	mac	2022-11-07	14:44:33	14:50:13	338753	613909e5cf0d18ff1e3162a9	553282817	1	main_slash	7	advance_on_keypress_SLASH	144	stimuli_distractor_trianglediamonds.svg	stimuli_distractor_trianglediamonds.svg	34	no	57	0	601
6.6.1	mac	2022-11-07	14:44:33	14:50:15	340357	613909e5cf0d18ff1e3162a9	553282817	1	main_slash	7	main_slash	145	stimuli_distractor_diamondtriangles.svg	stimuli_target_circlediamonds.svg	14	yes	53	1	367
6.6.1	mac	2022-11-07	14:44:33	14:50:15	340357	613909e5cf0d18ff1e3162a9	553282817	1	main_slash	7	advance_on_keypress_SLASH	146	stimuli_distractor_diamondtriangles.svg	stimuli_target_circlediamonds.svg	14	yes	57	0	438
6.6.1	mac	2022-11-07	14:44:33	14:50:16	341895	613909e5cf0d18ff1e3162a9	553282817	1	main_slash	7	main_slash	147	stimuli_distractor_diamondtriangles.svg	stimuli_target_diamondcircles.svg	31	yes	53	1	475
6.6.1	mac	2022-11-07	14:44:33	14:50:16	341895	613909e5cf0d18ff1e3162a9	553282817	1	main_slash	7	advance_on_keypress_SLASH	148	stimuli_distractor_diamondtriangles.svg	stimuli_target_diamondcircles.svg	31	yes	57	0	379
6.6.1	mac	2022-11-07	14:44:33	14:50:18	343285	613909e5cf0d18ff1e3162a9	553282817	1	main_slash	7	main_slash	149	stimuli_target_circletriangles.svg	stimuli_distractor_diamondtriangles.svg	5	yes	53	1	375
6.6.1	mac	2022-11-07	14:44:33	14:50:18	343285	613909e5cf0d18ff1e3162a9	553282817	1	main_slash	7	advance_on_keypress_SLASH	150	stimuli_target_circletriangles.svg	stimuli_distractor_diamondtriangles.svg	5	yes	57	0	423
6.6.1	mac	2022-11-07	14:44:33	14:50:20	345086	613909e5cf0d18ff1e3162a9	553282817	1	main_slash	7	main_slash	151	stimuli_distractor_trianglediamonds.svg	stimuli_target_diamondsquares.svg	28	yes	53	1	740
6.6.1	mac	2022-11-07	14:44:33	14:50:20	345086	613909e5cf0d18ff1e3162a9	553282817	1	main_slash	7	advance_on_keypress_SLASH	152	stimuli_distractor_trianglediamonds.svg	stimuli_target_diamondsquares.svg	28	yes	57	0	424
6.6.1	mac	2022-11-07	14:44:33	14:50:21	346536	613909e5cf0d18ff1e3162a9	553282817	1	main_slash	7	main_slash	153	stimuli_distractor_trianglediamonds.svg	stimuli_target_circletriangles.svg	9	yes	53	1	390
6.6.1	mac	2022-11-07	14:44:33	14:50:21	346536	613909e5cf0d18ff1e3162a9	553282817	1	main_slash	7	advance_on_keypress_SLASH	154	stimuli_distractor_trianglediamonds.svg	stimuli_target_circletriangles.svg	9	yes	57	0	415
6.6.1	mac	2022-11-07	14:44:33	14:50:22	347872	613909e5cf0d18ff1e3162a9	553282817	1	main_slash	7	main_slash	155	stimuli_distractor_diamondtriangles.svg	stimuli_distractor_trianglediamonds.svg	38	no	53	0	290
6.6.1	mac	2022-11-07	14:44:33	14:50:22	347872	613909e5cf0d18ff1e3162a9	553282817	1	main_slash	7	advance_on_keypress_SLASH	156	stimuli_distractor_diamondtriangles.svg	stimuli_distractor_trianglediamonds.svg	38	no	57	0	946
6.6.1	mac	2022-11-07	14:44:33	14:50:24	349879	613909e5cf0d18ff1e3162a9	553282817	1	main_slash	7	main_slash	157	stimuli_target_squarediamonds.svg	stimuli_distractor_diamondtriangles.svg	8	yes	53	1	422
6.6.1	mac	2022-11-07	14:44:33	14:50:24	349879	613909e5cf0d18ff1e3162a9	553282817	1	main_slash	7	advance_on_keypress_SLASH	158	stimuli_target_squarediamonds.svg	stimuli_distractor_diamondtriangles.svg	8	yes	57	0	423
6.6.1	mac	2022-11-07	14:44:33	14:50:26	351585	613909e5cf0d18ff1e3162a9	553282817	1	main_slash	7	main_slash	159	stimuli_distractor_trianglediamonds.svg	stimuli_target_squarediamonds.svg	12	yes	53	1	653
6.6.1	mac	2022-11-07	14:44:33	14:50:26	351585	613909e5cf0d18ff1e3162a9	553282817	1	main_slash	7	advance_on_keypress_SLASH	160	stimuli_distractor_trianglediamonds.svg	stimuli_target_squarediamonds.svg	12	yes	57	0	451
6.6.1	mac	2022-11-07	14:44:33	14:50:38	363548	613909e5cf0d18ff1e3162a9	553282817	1	practice_z	9	practice_z	1	stimuli_distractor_trianglediamonds.svg	stimuli_target_circlediamonds.svg	10	yes	44	1	444
6.6.1	mac	2022-11-07	14:44:33	14:50:38	363548	613909e5cf0d18ff1e3162a9	553282817	1	practice_z	9	advance_on_keypress_ZEE	2	stimuli_distractor_trianglediamonds.svg	stimuli_target_circlediamonds.svg	10	yes	57	0	2127
6.6.1	mac	2022-11-07	14:44:33	14:50:42	367959	613909e5cf0d18ff1e3162a9	553282817	1	practice_z	9	practice_z	3	stimuli_distractor_diamondtriangles.svg	stimuli_distractor_trianglediamonds.svg	14	no	44	0	634
6.6.1	mac	2022-11-07	14:44:33	14:50:42	367959	613909e5cf0d18ff1e3162a9	553282817	1	practice_z	9	advance_on_keypress_ZEE	4	stimuli_distractor_diamondtriangles.svg	stimuli_distractor_trianglediamonds.svg	14	no	57	0	361
6.6.1	mac	2022-11-07	14:44:33	14:50:45	370380	613909e5cf0d18ff1e3162a9	553282817	1	practice_z	9	practice_z	5	stimuli_distractor_diamondtriangles.svg	stimuli_target_circletriangles.svg	7	yes	44	1	415
6.6.1	mac	2022-11-07	14:44:33	14:50:45	370380	613909e5cf0d18ff1e3162a9	553282817	1	practice_z	9	advance_on_keypress_ZEE	6	stimuli_distractor_diamondtriangles.svg	stimuli_target_circletriangles.svg	7	yes	57	0	387
6.6.1	mac	2022-11-07	14:44:33	14:50:49	374401	613909e5cf0d18ff1e3162a9	553282817	1	practice_z	9	practice_z	7	stimuli_distractor_diamondtriangles.svg	stimuli_distractor_diamondtriangles.svg	13	no	0	1	2000
6.6.1	mac	2022-11-07	14:44:33	14:50:49	374401	613909e5cf0d18ff1e3162a9	553282817	1	practice_z	9	advance_on_keypress_ZEE	8	stimuli_distractor_diamondtriangles.svg	stimuli_distractor_diamondtriangles.svg	13	no	57	0	432
6.6.1	mac	2022-11-07	14:44:33	14:50:52	377216	613909e5cf0d18ff1e3162a9	553282817	1	practice_z	9	practice_z	9	stimuli_target_diamondsquares.svg	stimuli_distractor_trianglediamonds.svg	6	yes	44	1	754
6.6.1	mac	2022-11-07	14:44:33	14:50:52	377216	613909e5cf0d18ff1e3162a9	553282817	1	practice_z	9	advance_on_keypress_ZEE	10	stimuli_target_diamondsquares.svg	stimuli_distractor_trianglediamonds.svg	6	yes	57	0	568
6.6.1	mac	2022-11-07	14:44:33	14:50:56	381419	613909e5cf0d18ff1e3162a9	553282817	1	practice_z	9	practice_z	11	stimuli_distractor_trianglediamonds.svg	stimuli_distractor_diamondtriangles.svg	16	no	0	1	2000
6.6.1	mac	2022-11-07	14:44:33	14:50:56	381419	613909e5cf0d18ff1e3162a9	553282817	1	practice_z	9	advance_on_keypress_ZEE	12	stimuli_distractor_trianglediamonds.svg	stimuli_distractor_diamondtriangles.svg	16	no	57	0	424
6.6.1	mac	2022-11-07	14:44:33	14:50:58	383871	613909e5cf0d18ff1e3162a9	553282817	1	practice_z	9	practice_z	13	stimuli_target_circlediamonds.svg	stimuli_distractor_trianglediamonds.svg	4	yes	44	1	409
6.6.1	mac	2022-11-07	14:44:33	14:50:58	383871	613909e5cf0d18ff1e3162a9	553282817	1	practice_z	9	advance_on_keypress_ZEE	14	stimuli_target_circlediamonds.svg	stimuli_distractor_trianglediamonds.svg	4	yes	57	0	489
6.6.1	mac	2022-11-07	14:44:33	14:51:01	386530	613909e5cf0d18ff1e3162a9	553282817	1	practice_z	9	practice_z	15	stimuli_target_diamondsquares.svg	stimuli_distractor_diamondtriangles.svg	3	yes	44	1	537
6.6.1	mac	2022-11-07	14:44:33	14:51:01	386530	613909e5cf0d18ff1e3162a9	553282817	1	practice_z	9	advance_on_keypress_ZEE	16	stimuli_target_diamondsquares.svg	stimuli_distractor_diamondtriangles.svg	3	yes	57	0	395
6.6.1	mac	2022-11-07	14:44:33	14:51:04	389018	613909e5cf0d18ff1e3162a9	553282817	1	practice_z	9	practice_z	17	stimuli_target_circlediamonds.svg	stimuli_distractor_diamondtriangles.svg	1	yes	44	1	460
6.6.1	mac	2022-11-07	14:44:33	14:51:04	389018	613909e5cf0d18ff1e3162a9	553282817	1	practice_z	9	advance_on_keypress_ZEE	18	stimuli_target_circlediamonds.svg	stimuli_distractor_diamondtriangles.svg	1	yes	57	0	402
6.6.1	mac	2022-11-07	14:44:33	14:51:06	391610	613909e5cf0d18ff1e3162a9	553282817	1	practice_z	9	practice_z	19	stimuli_distractor_diamondtriangles.svg	stimuli_target_trianglecircles.svg	9	yes	44	1	546
6.6.1	mac	2022-11-07	14:44:33	14:51:06	391610	613909e5cf0d18ff1e3162a9	553282817	1	practice_z	9	advance_on_keypress_ZEE	20	stimuli_distractor_diamondtriangles.svg	stimuli_target_trianglecircles.svg	9	yes	57	0	1096
6.6.1	mac	2022-11-07	14:44:33	14:51:09	394741	613909e5cf0d18ff1e3162a9	553282817	1	practice_z	9	practice_z	21	stimuli_distractor_trianglediamonds.svg	stimuli_target_diamondcircles.svg	12	yes	44	1	397
6.6.1	mac	2022-11-07	14:44:33	14:51:09	394741	613909e5cf0d18ff1e3162a9	553282817	1	practice_z	9	advance_on_keypress_ZEE	22	stimuli_distractor_trianglediamonds.svg	stimuli_target_diamondcircles.svg	12	yes	57	0	457
6.6.1	mac	2022-11-07	14:44:33	14:51:12	397210	613909e5cf0d18ff1e3162a9	553282817	1	practice_z	9	practice_z	23	stimuli_target_squarediamonds.svg	stimuli_distractor_diamondtriangles.svg	2	yes	44	1	366
6.6.1	mac	2022-11-07	14:44:33	14:51:12	397210	613909e5cf0d18ff1e3162a9	553282817	1	practice_z	9	advance_on_keypress_ZEE	24	stimuli_target_squarediamonds.svg	stimuli_distractor_diamondtriangles.svg	2	yes	57	0	408
6.6.1	mac	2022-11-07	14:44:33	14:51:16	401260	613909e5cf0d18ff1e3162a9	553282817	1	practice_z	9	practice_z	25	stimuli_distractor_trianglediamonds.svg	stimuli_distractor_trianglediamonds.svg	15	no	0	1	2000
6.6.1	mac	2022-11-07	14:44:33	14:51:16	401260	613909e5cf0d18ff1e3162a9	553282817	1	practice_z	9	advance_on_keypress_ZEE	26	stimuli_distractor_trianglediamonds.svg	stimuli_distractor_trianglediamonds.svg	15	no	57	0	458
6.6.1	mac	2022-11-07	14:44:33	14:51:18	403785	613909e5cf0d18ff1e3162a9	553282817	1	practice_z	9	practice_z	27	stimuli_target_squarediamonds.svg	stimuli_distractor_trianglediamonds.svg	5	yes	44	1	434
6.6.1	mac	2022-11-07	14:44:33	14:51:18	403785	613909e5cf0d18ff1e3162a9	553282817	1	practice_z	9	advance_on_keypress_ZEE	28	stimuli_target_squarediamonds.svg	stimuli_distractor_trianglediamonds.svg	5	yes	57	0	479
6.6.1	mac	2022-11-07	14:44:33	14:51:21	406306	613909e5cf0d18ff1e3162a9	553282817	1	practice_z	9	practice_z	29	stimuli_distractor_trianglediamonds.svg	stimuli_target_squarediamonds.svg	11	yes	44	1	417
6.6.1	mac	2022-11-07	14:44:33	14:51:21	406306	613909e5cf0d18ff1e3162a9	553282817	1	practice_z	9	advance_on_keypress_ZEE	30	stimuli_distractor_trianglediamonds.svg	stimuli_target_squarediamonds.svg	11	yes	57	0	411
6.6.1	mac	2022-11-07	14:44:33	14:51:23	408921	613909e5cf0d18ff1e3162a9	553282817	1	practice_z	9	practice_z	31	stimuli_distractor_diamondtriangles.svg	stimuli_target_diamondcircles.svg	8	yes	44	1	580
6.6.1	mac	2022-11-07	14:44:33	14:51:23	408921	613909e5cf0d18ff1e3162a9	553282817	1	practice_z	9	advance_on_keypress_ZEE	32	stimuli_distractor_diamondtriangles.svg	stimuli_target_diamondcircles.svg	8	yes	57	0	402
6.6.1	mac	2022-11-07	14:44:33	14:51:27	412038	613909e5cf0d18ff1e3162a9	553282817	1	main_z	11	main_z	1	stimuli_distractor_trianglediamonds.svg	stimuli_target_circletriangles.svg	9	yes	44	1	463
6.6.1	mac	2022-11-07	14:44:33	14:51:27	412038	613909e5cf0d18ff1e3162a9	553282817	1	main_z	11	advance_on_keypress_ZEE	2	stimuli_distractor_trianglediamonds.svg	stimuli_target_circletriangles.svg	9	yes	57	0	1157
6.6.1	mac	2022-11-07	14:44:33	14:51:29	414256	613909e5cf0d18ff1e3162a9	553282817	1	main_z	11	main_z	3	stimuli_target_circletriangles.svg	stimuli_distractor_diamondtriangles.svg	5	yes	44	1	427
6.6.1	mac	2022-11-07	14:44:33	14:51:29	414256	613909e5cf0d18ff1e3162a9	553282817	1	main_z	11	advance_on_keypress_ZEE	4	stimuli_target_circletriangles.svg	stimuli_distractor_diamondtriangles.svg	5	yes	57	0	333
6.6.1	mac	2022-11-07	14:44:33	14:51:32	417229	613909e5cf0d18ff1e3162a9	553282817	1	main_z	11	main_z	5	stimuli_distractor_trianglediamonds.svg	stimuli_distractor_trianglediamonds.svg	33	no	0	1	2000
6.6.1	mac	2022-11-07	14:44:33	14:51:32	417229	613909e5cf0d18ff1e3162a9	553282817	1	main_z	11	advance_on_keypress_ZEE	6	stimuli_distractor_trianglediamonds.svg	stimuli_distractor_trianglediamonds.svg	33	no	57	0	386
6.6.1	mac	2022-11-07	14:44:33	14:51:33	418739	613909e5cf0d18ff1e3162a9	553282817	1	main_z	11	main_z	7	stimuli_distractor_diamondtriangles.svg	stimuli_target_circlediamonds.svg	14	yes	44	1	491
6.6.1	mac	2022-11-07	14:44:33	14:51:33	418739	613909e5cf0d18ff1e3162a9	553282817	1	main_z	11	advance_on_keypress_ZEE	8	stimuli_distractor_diamondtriangles.svg	stimuli_target_circlediamonds.svg	14	yes	57	0	322
6.6.1	mac	2022-11-07	14:44:33	14:51:35	420184	613909e5cf0d18ff1e3162a9	553282817	1	main_z	11	main_z	9	stimuli_target_squaretriangles.svg	stimuli_distractor_trianglediamonds.svg	3	yes	44	1	488
6.6.1	mac	2022-11-07	14:44:33	14:51:35	420184	613909e5cf0d18ff1e3162a9	553282817	1	main_z	11	advance_on_keypress_ZEE	10	stimuli_target_squaretriangles.svg	stimuli_distractor_trianglediamonds.svg	3	yes	57	0	345
6.6.1	mac	2022-11-07	14:44:33	14:51:36	421614	613909e5cf0d18ff1e3162a9	553282817	1	main_z	11	main_z	11	stimuli_target_circletriangles.svg	stimuli_distractor_trianglediamonds.svg	1	yes	44	1	458
6.6.1	mac	2022-11-07	14:44:33	14:51:36	421614	613909e5cf0d18ff1e3162a9	553282817	1	main_z	11	advance_on_keypress_ZEE	12	stimuli_target_circletriangles.svg	stimuli_distractor_trianglediamonds.svg	1	yes	57	0	336
6.6.1	mac	2022-11-07	14:44:33	14:51:38	423370	613909e5cf0d18ff1e3162a9	553282817	1	main_z	11	main_z	13	stimuli_distractor_trianglediamonds.svg	stimuli_target_trianglesquares.svg	26	yes	44	1	796
6.6.1	mac	2022-11-07	14:44:33	14:51:38	423370	613909e5cf0d18ff1e3162a9	553282817	1	main_z	11	advance_on_keypress_ZEE	14	stimuli_distractor_trianglediamonds.svg	stimuli_target_trianglesquares.svg	26	yes	57	0	237
6.6.1	mac	2022-11-07	14:44:33	14:51:39	424790	613909e5cf0d18ff1e3162a9	553282817	1	main_z	11	main_z	15	stimuli_distractor_diamondtriangles.svg	stimuli_distractor_trianglediamonds.svg	38	no	44	0	552
6.6.1	mac	2022-11-07	14:44:33	14:51:39	424790	613909e5cf0d18ff1e3162a9	553282817	1	main_z	11	advance_on_keypress_ZEE	16	stimuli_distractor_diamondtriangles.svg	stimuli_distractor_trianglediamonds.svg	38	no	57	0	331
6.6.1	mac	2022-11-07	14:44:33	14:51:41	426466	613909e5cf0d18ff1e3162a9	553282817	1	main_z	11	main_z	17	stimuli_target_diamondsquares.svg	stimuli_distractor_diamondtriangles.svg	24	yes	44	1	712
6.6.1	mac	2022-11-07	14:44:33	14:51:41	426466	613909e5cf0d18ff1e3162a9	553282817	1	main_z	11	advance_on_keypress_ZEE	18	stimuli_target_diamondsquares.svg	stimuli_distractor_diamondtriangles.svg	24	yes	57	0	253
6.6.1	mac	2022-11-07	14:44:33	14:51:44	429355	613909e5cf0d18ff1e3162a9	553282817	1	main_z	11	main_z	19	stimuli_distractor_trianglediamonds.svg	stimuli_distractor_trianglediamonds.svg	34	no	0	1	2000
6.6.1	mac	2022-11-07	14:44:33	14:51:44	429355	613909e5cf0d18ff1e3162a9	553282817	1	main_z	11	advance_on_keypress_ZEE	20	stimuli_distractor_trianglediamonds.svg	stimuli_distractor_trianglediamonds.svg	34	no	57	0	217
6.6.1	mac	2022-11-07	14:44:33	14:51:45	430648	613909e5cf0d18ff1e3162a9	553282817	1	main_z	11	main_z	21	stimuli_target_squaretriangles.svg	stimuli_distractor_diamondtriangles.svg	7	yes	44	1	449
6.6.1	mac	2022-11-07	14:44:33	14:51:45	430648	613909e5cf0d18ff1e3162a9	553282817	1	main_z	11	advance_on_keypress_ZEE	22	stimuli_target_squaretriangles.svg	stimuli_distractor_diamondtriangles.svg	7	yes	57	0	351
6.6.1	mac	2022-11-07	14:44:33	14:51:47	432229	613909e5cf0d18ff1e3162a9	553282817	1	main_z	11	main_z	23	stimuli_target_trianglecircles.svg	stimuli_distractor_trianglediamonds.svg	17	yes	44	1	585
6.6.1	mac	2022-11-07	14:44:33	14:51:47	432229	613909e5cf0d18ff1e3162a9	553282817	1	main_z	11	advance_on_keypress_ZEE	24	stimuli_target_trianglecircles.svg	stimuli_distractor_trianglediamonds.svg	17	yes	57	0	272
6.6.1	mac	2022-11-07	14:44:33	14:51:48	433551	613909e5cf0d18ff1e3162a9	553282817	1	main_z	11	main_z	25	stimuli_target_trianglecircles.svg	stimuli_distractor_diamondtriangles.svg	21	yes	44	1	423
6.6.1	mac	2022-11-07	14:44:33	14:51:48	433551	613909e5cf0d18ff1e3162a9	553282817	1	main_z	11	advance_on_keypress_ZEE	26	stimuli_target_trianglecircles.svg	stimuli_distractor_diamondtriangles.svg	21	yes	57	0	370
6.6.1	mac	2022-11-07	14:44:33	14:51:50	435247	613909e5cf0d18ff1e3162a9	553282817	1	main_z	11	main_z	27	stimuli_target_squarediamonds.svg	stimuli_distractor_trianglediamonds.svg	4	yes	44	1	706
6.6.1	mac	2022-11-07	14:44:33	14:51:50	435247	613909e5cf0d18ff1e3162a9	553282817	1	main_z	11	advance_on_keypress_ZEE	28	stimuli_target_squarediamonds.svg	stimuli_distractor_trianglediamonds.svg	4	yes	57	0	340
6.6.1	mac	2022-11-07	14:44:33	14:51:51	436692	613909e5cf0d18ff1e3162a9	553282817	1	main_z	11	main_z	29	stimuli_distractor_trianglediamonds.svg	stimuli_target_circlediamonds.svg	10	yes	44	1	468
6.6.1	mac	2022-11-07	14:44:33	14:51:51	436692	613909e5cf0d18ff1e3162a9	553282817	1	main_z	11	advance_on_keypress_ZEE	30	stimuli_distractor_trianglediamonds.svg	stimuli_target_circlediamonds.svg	10	yes	57	0	255
6.6.1	mac	2022-11-07	14:44:33	14:51:53	438064	613909e5cf0d18ff1e3162a9	553282817	1	main_z	11	main_z	31	stimuli_distractor_trianglediamonds.svg	stimuli_target_squaretriangles.svg	11	yes	44	1	488
6.6.1	mac	2022-11-07	14:44:33	14:51:53	438064	613909e5cf0d18ff1e3162a9	553282817	1	main_z	11	advance_on_keypress_ZEE	32	stimuli_distractor_trianglediamonds.svg	stimuli_target_squaretriangles.svg	11	yes	57	0	267
6.6.1	mac	2022-11-07	14:44:33	14:51:54	439727	613909e5cf0d18ff1e3162a9	553282817	1	main_z	11	main_z	33	stimuli_target_trianglesquares.svg	stimuli_distractor_trianglediamonds.svg	18	yes	44	1	767
6.6.1	mac	2022-11-07	14:44:33	14:51:54	439727	613909e5cf0d18ff1e3162a9	553282817	1	main_z	11	advance_on_keypress_ZEE	34	stimuli_target_trianglesquares.svg	stimuli_distractor_trianglediamonds.svg	18	yes	57	0	283
6.6.1	mac	2022-11-07	14:44:33	14:51:56	441114	613909e5cf0d18ff1e3162a9	553282817	1	main_z	11	main_z	35	stimuli_target_diamondcircles.svg	stimuli_distractor_trianglediamonds.svg	19	yes	44	1	463
6.6.1	mac	2022-11-07	14:44:33	14:51:56	441114	613909e5cf0d18ff1e3162a9	553282817	1	main_z	11	advance_on_keypress_ZEE	36	stimuli_target_diamondcircles.svg	stimuli_distractor_trianglediamonds.svg	19	yes	57	0	289
6.6.1	mac	2022-11-07	14:44:33	14:51:57	442512	613909e5cf0d18ff1e3162a9	553282817	1	main_z	11	main_z	37	stimuli_distractor_diamondtriangles.svg	stimuli_target_circletriangles.svg	13	yes	44	1	487
6.6.1	mac	2022-11-07	14:44:33	14:51:57	442512	613909e5cf0d18ff1e3162a9	553282817	1	main_z	11	advance_on_keypress_ZEE	38	stimuli_distractor_diamondtriangles.svg	stimuli_target_circletriangles.svg	13	yes	57	0	350
6.6.1	mac	2022-11-07	14:44:33	14:51:59	444503	613909e5cf0d18ff1e3162a9	553282817	1	main_z	11	main_z	39	stimuli_distractor_diamondtriangles.svg	stimuli_target_trianglesquares.svg	30	yes	44	1	1007
6.6.1	mac	2022-11-07	14:44:33	14:51:59	444503	613909e5cf0d18ff1e3162a9	553282817	1	main_z	11	advance_on_keypress_ZEE	40	stimuli_distractor_diamondtriangles.svg	stimuli_target_trianglesquares.svg	30	yes	57	0	209
6.6.1	mac	2022-11-07	14:44:33	14:52:00	445926	613909e5cf0d18ff1e3162a9	553282817	1	main_z	11	main_z	41	stimuli_distractor_trianglediamonds.svg	stimuli_target_diamondsquares.svg	28	yes	44	1	575
6.6.1	mac	2022-11-07	14:44:33	14:52:00	445926	613909e5cf0d18ff1e3162a9	553282817	1	main_z	11	advance_on_keypress_ZEE	42	stimuli_distractor_trianglediamonds.svg	stimuli_target_diamondsquares.svg	28	yes	57	0	305
6.6.1	mac	2022-11-07	14:44:33	14:52:03	448854	613909e5cf0d18ff1e3162a9	553282817	1	main_z	11	main_z	43	stimuli_distractor_trianglediamonds.svg	stimuli_distractor_diamondtriangles.svg	35	no	0	1	2000
6.6.1	mac	2022-11-07	14:44:33	14:52:03	448854	613909e5cf0d18ff1e3162a9	553282817	1	main_z	11	advance_on_keypress_ZEE	44	stimuli_distractor_trianglediamonds.svg	stimuli_distractor_diamondtriangles.svg	35	no	57	0	243
6.6.1	mac	2022-11-07	14:44:33	14:52:06	451731	613909e5cf0d18ff1e3162a9	553282817	1	main_z	11	main_z	45	stimuli_distractor_trianglediamonds.svg	stimuli_distractor_diamondtriangles.svg	36	no	0	1	2000
6.6.1	mac	2022-11-07	14:44:33	14:52:06	451731	613909e5cf0d18ff1e3162a9	553282817	1	main_z	11	advance_on_keypress_ZEE	46	stimuli_distractor_trianglediamonds.svg	stimuli_distractor_diamondtriangles.svg	36	no	57	0	462
6.6.1	mac	2022-11-07	14:44:33	14:52:08	453325	613909e5cf0d18ff1e3162a9	553282817	1	main_z	11	main_z	47	stimuli_target_diamondsquares.svg	stimuli_distractor_trianglediamonds.svg	20	yes	44	1	501
6.6.1	mac	2022-11-07	14:44:33	14:52:08	453325	613909e5cf0d18ff1e3162a9	553282817	1	main_z	11	advance_on_keypress_ZEE	48	stimuli_target_diamondsquares.svg	stimuli_distractor_trianglediamonds.svg	20	yes	57	0	273
6.6.1	mac	2022-11-07	14:44:33	14:52:10	455286	613909e5cf0d18ff1e3162a9	553282817	1	main_z	11	main_z	49	stimuli_distractor_diamondtriangles.svg	stimuli_target_squarediamonds.svg	16	yes	44	1	1053
6.6.1	mac	2022-11-07	14:44:33	14:52:10	455286	613909e5cf0d18ff1e3162a9	553282817	1	main_z	11	advance_on_keypress_ZEE	50	stimuli_distractor_diamondtriangles.svg	stimuli_target_squarediamonds.svg	16	yes	57	0	235
6.6.1	mac	2022-11-07	14:44:33	14:52:13	458150	613909e5cf0d18ff1e3162a9	553282817	1	main_z	11	main_z	51	stimuli_distractor_diamondtriangles.svg	stimuli_distractor_diamondtriangles.svg	40	no	0	1	2000
6.6.1	mac	2022-11-07	14:44:33	14:52:13	458150	613909e5cf0d18ff1e3162a9	553282817	1	main_z	11	advance_on_keypress_ZEE	52	stimuli_distractor_diamondtriangles.svg	stimuli_distractor_diamondtriangles.svg	40	no	57	0	1930
6.6.1	mac	2022-11-07	14:44:33	14:52:16	461272	613909e5cf0d18ff1e3162a9	553282817	1	main_z	11	main_z	53	stimuli_distractor_trianglediamonds.svg	stimuli_target_squarediamonds.svg	12	yes	44	1	560
6.6.1	mac	2022-11-07	14:44:33	14:52:16	461272	613909e5cf0d18ff1e3162a9	553282817	1	main_z	11	advance_on_keypress_ZEE	54	stimuli_distractor_trianglediamonds.svg	stimuli_target_squarediamonds.svg	12	yes	57	0	396
6.6.1	mac	2022-11-07	14:44:33	14:52:17	462921	613909e5cf0d18ff1e3162a9	553282817	1	main_z	11	main_z	55	stimuli_distractor_diamondtriangles.svg	stimuli_target_diamondcircles.svg	31	yes	44	1	616
6.6.1	mac	2022-11-07	14:44:33	14:52:17	462921	613909e5cf0d18ff1e3162a9	553282817	1	main_z	11	advance_on_keypress_ZEE	56	stimuli_distractor_diamondtriangles.svg	stimuli_target_diamondcircles.svg	31	yes	57	0	335
6.6.1	mac	2022-11-07	14:44:33	14:52:19	464346	613909e5cf0d18ff1e3162a9	553282817	1	main_z	11	main_z	57	stimuli_target_diamondcircles.svg	stimuli_distractor_diamondtriangles.svg	23	yes	44	1	460
6.6.1	mac	2022-11-07	14:44:33	14:52:19	464346	613909e5cf0d18ff1e3162a9	553282817	1	main_z	11	advance_on_keypress_ZEE	58	stimuli_target_diamondcircles.svg	stimuli_distractor_diamondtriangles.svg	23	yes	57	0	323
6.6.1	mac	2022-11-07	14:44:33	14:52:21	466035	613909e5cf0d18ff1e3162a9	553282817	1	main_z	11	main_z	59	stimuli_distractor_diamondtriangles.svg	stimuli_target_squaretriangles.svg	15	yes	44	1	730
6.6.1	mac	2022-11-07	14:44:33	14:52:21	466035	613909e5cf0d18ff1e3162a9	553282817	1	main_z	11	advance_on_keypress_ZEE	60	stimuli_distractor_diamondtriangles.svg	stimuli_target_squaretriangles.svg	15	yes	57	0	282
6.6.1	mac	2022-11-07	14:44:33	14:52:22	467409	613909e5cf0d18ff1e3162a9	553282817	1	main_z	11	main_z	61	stimuli_distractor_trianglediamonds.svg	stimuli_target_diamondcircles.svg	27	yes	44	1	463
6.6.1	mac	2022-11-07	14:44:33	14:52:22	467409	613909e5cf0d18ff1e3162a9	553282817	1	main_z	11	advance_on_keypress_ZEE	62	stimuli_distractor_trianglediamonds.svg	stimuli_target_diamondcircles.svg	27	yes	57	0	283
6.6.1	mac	2022-11-07	14:44:33	14:52:23	468957	613909e5cf0d18ff1e3162a9	553282817	1	main_z	11	main_z	63	stimuli_target_trianglesquares.svg	stimuli_distractor_diamondtriangles.svg	22	yes	44	1	636
6.6.1	mac	2022-11-07	14:44:33	14:52:23	468957	613909e5cf0d18ff1e3162a9	553282817	1	main_z	11	advance_on_keypress_ZEE	64	stimuli_target_trianglesquares.svg	stimuli_distractor_diamondtriangles.svg	22	yes	57	0	213
6.6.1	mac	2022-11-07	14:44:33	14:52:25	470215	613909e5cf0d18ff1e3162a9	553282817	1	main_z	11	main_z	65	stimuli_target_squarediamonds.svg	stimuli_distractor_diamondtriangles.svg	8	yes	44	1	400
6.6.1	mac	2022-11-07	14:44:33	14:52:25	470215	613909e5cf0d18ff1e3162a9	553282817	1	main_z	11	advance_on_keypress_ZEE	66	stimuli_target_squarediamonds.svg	stimuli_distractor_diamondtriangles.svg	8	yes	57	0	386
6.6.1	mac	2022-11-07	14:44:33	14:52:28	473229	613909e5cf0d18ff1e3162a9	553282817	1	main_z	11	main_z	67	stimuli_distractor_diamondtriangles.svg	stimuli_distractor_trianglediamonds.svg	37	no	0	1	2000
6.6.1	mac	2022-11-07	14:44:33	14:52:28	473229	613909e5cf0d18ff1e3162a9	553282817	1	main_z	11	advance_on_keypress_ZEE	68	stimuli_distractor_diamondtriangles.svg	stimuli_distractor_trianglediamonds.svg	37	no	57	0	480
6.6.1	mac	2022-11-07	14:44:33	14:52:31	476327	613909e5cf0d18ff1e3162a9	553282817	1	main_z	11	main_z	69	stimuli_distractor_diamondtriangles.svg	stimuli_distractor_diamondtriangles.svg	39	no	0	1	2000
6.6.1	mac	2022-11-07	14:44:33	14:52:31	476327	613909e5cf0d18ff1e3162a9	553282817	1	main_z	11	advance_on_keypress_ZEE	70	stimuli_distractor_diamondtriangles.svg	stimuli_distractor_diamondtriangles.svg	39	no	57	0	294
6.6.1	mac	2022-11-07	14:44:33	14:52:32	477605	613909e5cf0d18ff1e3162a9	553282817	1	main_z	11	main_z	71	stimuli_target_circlediamonds.svg	stimuli_distractor_trianglediamonds.svg	2	yes	44	1	365
6.6.1	mac	2022-11-07	14:44:33	14:52:32	477605	613909e5cf0d18ff1e3162a9	553282817	1	main_z	11	advance_on_keypress_ZEE	72	stimuli_target_circlediamonds.svg	stimuli_distractor_trianglediamonds.svg	2	yes	57	0	320
6.6.1	mac	2022-11-07	14:44:33	14:52:33	478870	613909e5cf0d18ff1e3162a9	553282817	1	main_z	11	main_z	73	stimuli_target_circlediamonds.svg	stimuli_distractor_diamondtriangles.svg	6	yes	44	1	316
6.6.1	mac	2022-11-07	14:44:33	14:52:33	478870	613909e5cf0d18ff1e3162a9	553282817	1	main_z	11	advance_on_keypress_ZEE	74	stimuli_target_circlediamonds.svg	stimuli_distractor_diamondtriangles.svg	6	yes	57	0	296
6.6.1	mac	2022-11-07	14:44:33	14:52:35	480493	613909e5cf0d18ff1e3162a9	553282817	1	main_z	11	main_z	75	stimuli_distractor_trianglediamonds.svg	stimuli_target_trianglecircles.svg	25	yes	44	1	699
6.6.1	mac	2022-11-07	14:44:33	14:52:35	480493	613909e5cf0d18ff1e3162a9	553282817	1	main_z	11	advance_on_keypress_ZEE	76	stimuli_distractor_trianglediamonds.svg	stimuli_target_trianglecircles.svg	25	yes	57	0	193
6.6.1	mac	2022-11-07	14:44:33	14:52:36	481803	613909e5cf0d18ff1e3162a9	553282817	1	main_z	11	main_z	77	stimuli_distractor_diamondtriangles.svg	stimuli_target_trianglecircles.svg	29	yes	44	1	484
6.6.1	mac	2022-11-07	14:44:33	14:52:36	481803	613909e5cf0d18ff1e3162a9	553282817	1	main_z	11	advance_on_keypress_ZEE	78	stimuli_distractor_diamondtriangles.svg	stimuli_target_trianglecircles.svg	29	yes	57	0	255
6.6.1	mac	2022-11-07	14:44:33	14:52:38	483077	613909e5cf0d18ff1e3162a9	553282817	1	main_z	11	main_z	79	stimuli_distractor_diamondtriangles.svg	stimuli_target_diamondsquares.svg	32	yes	44	1	378
6.6.1	mac	2022-11-07	14:44:33	14:52:38	483077	613909e5cf0d18ff1e3162a9	553282817	1	main_z	11	advance_on_keypress_ZEE	80	stimuli_distractor_diamondtriangles.svg	stimuli_target_diamondsquares.svg	32	yes	57	0	288
6.6.1	mac	2022-11-07	14:44:33	14:52:39	484533	613909e5cf0d18ff1e3162a9	553282817	1	main_z	11	main_z	81	stimuli_distractor_trianglediamonds.svg	stimuli_target_trianglesquares.svg	26	yes	44	1	532
6.6.1	mac	2022-11-07	14:44:33	14:52:39	484533	613909e5cf0d18ff1e3162a9	553282817	1	main_z	11	advance_on_keypress_ZEE	82	stimuli_distractor_trianglediamonds.svg	stimuli_target_trianglesquares.svg	26	yes	57	0	227
6.6.1	mac	2022-11-07	14:44:33	14:52:40	485816	613909e5cf0d18ff1e3162a9	553282817	1	main_z	11	main_z	83	stimuli_distractor_trianglediamonds.svg	stimuli_distractor_trianglediamonds.svg	33	no	44	0	422
6.6.1	mac	2022-11-07	14:44:33	14:52:40	485816	613909e5cf0d18ff1e3162a9	553282817	1	main_z	11	advance_on_keypress_ZEE	84	stimuli_distractor_trianglediamonds.svg	stimuli_distractor_trianglediamonds.svg	33	no	57	0	755
6.6.1	mac	2022-11-07	14:44:33	14:52:42	487690	613909e5cf0d18ff1e3162a9	553282817	1	main_z	11	main_z	85	stimuli_distractor_diamondtriangles.svg	stimuli_target_diamondcircles.svg	31	yes	44	1	485
6.6.1	mac	2022-11-07	14:44:33	14:52:42	487690	613909e5cf0d18ff1e3162a9	553282817	1	main_z	11	advance_on_keypress_ZEE	86	stimuli_distractor_diamondtriangles.svg	stimuli_target_diamondcircles.svg	31	yes	57	0	236
6.6.1	mac	2022-11-07	14:44:33	14:52:44	489375	613909e5cf0d18ff1e3162a9	553282817	1	main_z	11	main_z	87	stimuli_target_squaretriangles.svg	stimuli_distractor_trianglediamonds.svg	3	yes	44	1	808
6.6.1	mac	2022-11-07	14:44:33	14:52:44	489375	613909e5cf0d18ff1e3162a9	553282817	1	main_z	11	advance_on_keypress_ZEE	88	stimuli_target_squaretriangles.svg	stimuli_distractor_trianglediamonds.svg	3	yes	57	0	185
6.6.1	mac	2022-11-07	14:44:33	14:52:45	490711	613909e5cf0d18ff1e3162a9	553282817	1	main_z	11	main_z	89	stimuli_target_circletriangles.svg	stimuli_distractor_trianglediamonds.svg	1	yes	44	1	528
6.6.1	mac	2022-11-07	14:44:33	14:52:45	490711	613909e5cf0d18ff1e3162a9	553282817	1	main_z	11	advance_on_keypress_ZEE	90	stimuli_target_circletriangles.svg	stimuli_distractor_trianglediamonds.svg	1	yes	57	0	270
6.6.1	mac	2022-11-07	14:44:33	14:52:47	492033	613909e5cf0d18ff1e3162a9	553282817	1	main_z	11	main_z	91	stimuli_distractor_trianglediamonds.svg	stimuli_target_squarediamonds.svg	12	yes	44	1	429
6.6.1	mac	2022-11-07	14:44:33	14:52:47	492033	613909e5cf0d18ff1e3162a9	553282817	1	main_z	11	advance_on_keypress_ZEE	92	stimuli_distractor_trianglediamonds.svg	stimuli_target_squarediamonds.svg	12	yes	57	0	212
6.6.1	mac	2022-11-07	14:44:33	14:52:48	493436	613909e5cf0d18ff1e3162a9	553282817	1	main_z	11	main_z	93	stimuli_target_diamondcircles.svg	stimuli_distractor_diamondtriangles.svg	23	yes	44	1	556
6.6.1	mac	2022-11-07	14:44:33	14:52:48	493436	613909e5cf0d18ff1e3162a9	553282817	1	main_z	11	advance_on_keypress_ZEE	94	stimuli_target_diamondcircles.svg	stimuli_distractor_diamondtriangles.svg	23	yes	57	0	208
6.6.1	mac	2022-11-07	14:44:33	14:52:51	496270	613909e5cf0d18ff1e3162a9	553282817	1	main_z	11	main_z	95	stimuli_target_circletriangles.svg	stimuli_distractor_diamondtriangles.svg	5	yes	0	0	2000
6.6.1	mac	2022-11-07	14:44:33	14:52:51	496270	613909e5cf0d18ff1e3162a9	553282817	1	main_z	11	advance_on_keypress_ZEE	96	stimuli_target_circletriangles.svg	stimuli_distractor_diamondtriangles.svg	5	yes	57	0	272
6.6.1	mac	2022-11-07	14:44:33	14:52:52	497933	613909e5cf0d18ff1e3162a9	553282817	1	main_z	11	main_z	97	stimuli_distractor_diamondtriangles.svg	stimuli_target_squarediamonds.svg	16	yes	44	1	775
6.6.1	mac	2022-11-07	14:44:33	14:52:52	497933	613909e5cf0d18ff1e3162a9	553282817	1	main_z	11	advance_on_keypress_ZEE	98	stimuli_distractor_diamondtriangles.svg	stimuli_target_squarediamonds.svg	16	yes	57	0	250
6.6.1	mac	2022-11-07	14:44:33	14:52:55	500806	613909e5cf0d18ff1e3162a9	553282817	1	main_z	11	main_z	99	stimuli_distractor_trianglediamonds.svg	stimuli_distractor_diamondtriangles.svg	35	no	0	1	2000
6.6.1	mac	2022-11-07	14:44:33	14:52:55	500806	613909e5cf0d18ff1e3162a9	553282817	1	main_z	11	advance_on_keypress_ZEE	100	stimuli_distractor_trianglediamonds.svg	stimuli_distractor_diamondtriangles.svg	35	no	57	0	332
6.6.1	mac	2022-11-07	14:44:33	14:52:57	502152	613909e5cf0d18ff1e3162a9	553282817	1	main_z	11	main_z	101	stimuli_target_circlediamonds.svg	stimuli_distractor_diamondtriangles.svg	6	yes	44	1	388
6.6.1	mac	2022-11-07	14:44:33	14:52:57	502152	613909e5cf0d18ff1e3162a9	553282817	1	main_z	11	advance_on_keypress_ZEE	102	stimuli_target_circlediamonds.svg	stimuli_distractor_diamondtriangles.svg	6	yes	57	0	252
6.6.1	mac	2022-11-07	14:44:33	14:52:58	503645	613909e5cf0d18ff1e3162a9	553282817	1	main_z	11	main_z	103	stimuli_distractor_diamondtriangles.svg	stimuli_target_diamondsquares.svg	32	yes	44	1	611
6.6.1	mac	2022-11-07	14:44:33	14:52:58	503645	613909e5cf0d18ff1e3162a9	553282817	1	main_z	11	advance_on_keypress_ZEE	104	stimuli_distractor_diamondtriangles.svg	stimuli_target_diamondsquares.svg	32	yes	57	0	209
6.6.1	mac	2022-11-07	14:44:33	14:53:01	506486	613909e5cf0d18ff1e3162a9	553282817	1	main_z	11	main_z	105	stimuli_target_squaretriangles.svg	stimuli_distractor_diamondtriangles.svg	7	yes	0	0	2000
6.6.1	mac	2022-11-07	14:44:33	14:53:01	506486	613909e5cf0d18ff1e3162a9	553282817	1	main_z	11	advance_on_keypress_ZEE	106	stimuli_target_squaretriangles.svg	stimuli_distractor_diamondtriangles.svg	7	yes	57	0	231
6.6.1	mac	2022-11-07	14:44:33	14:53:03	507989	613909e5cf0d18ff1e3162a9	553282817	1	main_z	11	main_z	107	stimuli_target_trianglesquares.svg	stimuli_distractor_diamondtriangles.svg	22	yes	44	1	637
6.6.1	mac	2022-11-07	14:44:33	14:53:03	507989	613909e5cf0d18ff1e3162a9	553282817	1	main_z	11	advance_on_keypress_ZEE	108	stimuli_target_trianglesquares.svg	stimuli_distractor_diamondtriangles.svg	22	yes	57	0	327
6.6.1	mac	2022-11-07	14:44:33	14:53:04	509566	613909e5cf0d18ff1e3162a9	553282817	1	main_z	11	main_z	109	stimuli_distractor_trianglediamonds.svg	stimuli_target_squaretriangles.svg	11	yes	44	1	618
6.6.1	mac	2022-11-07	14:44:33	14:53:04	509566	613909e5cf0d18ff1e3162a9	553282817	1	main_z	11	advance_on_keypress_ZEE	110	stimuli_distractor_trianglediamonds.svg	stimuli_target_squaretriangles.svg	11	yes	57	0	232
6.6.1	mac	2022-11-07	14:44:33	14:53:05	510877	613909e5cf0d18ff1e3162a9	553282817	1	main_z	11	main_z	111	stimuli_distractor_trianglediamonds.svg	stimuli_target_diamondcircles.svg	27	yes	44	1	436
6.6.1	mac	2022-11-07	14:44:33	14:53:05	510877	613909e5cf0d18ff1e3162a9	553282817	1	main_z	11	advance_on_keypress_ZEE	112	stimuli_distractor_trianglediamonds.svg	stimuli_target_diamondcircles.svg	27	yes	57	0	308
6.6.1	mac	2022-11-07	14:44:33	14:53:07	512299	613909e5cf0d18ff1e3162a9	553282817	1	main_z	11	main_z	113	stimuli_distractor_trianglediamonds.svg	stimuli_target_diamondsquares.svg	28	yes	44	1	495
6.6.1	mac	2022-11-07	14:44:33	14:53:07	512299	613909e5cf0d18ff1e3162a9	553282817	1	main_z	11	advance_on_keypress_ZEE	114	stimuli_distractor_trianglediamonds.svg	stimuli_target_diamondsquares.svg	28	yes	57	0	285
6.6.1	mac	2022-11-07	14:44:33	14:53:08	513640	613909e5cf0d18ff1e3162a9	553282817	1	main_z	11	main_z	115	stimuli_target_squarediamonds.svg	stimuli_distractor_trianglediamonds.svg	4	yes	44	1	433
6.6.1	mac	2022-11-07	14:44:33	14:53:08	513640	613909e5cf0d18ff1e3162a9	553282817	1	main_z	11	advance_on_keypress_ZEE	116	stimuli_target_squarediamonds.svg	stimuli_distractor_trianglediamonds.svg	4	yes	57	0	334
6.6.1	mac	2022-11-07	14:44:33	14:53:10	515147	613909e5cf0d18ff1e3162a9	553282817	1	main_z	11	main_z	117	stimuli_target_diamondcircles.svg	stimuli_distractor_trianglediamonds.svg	19	yes	44	1	536
6.6.1	mac	2022-11-07	14:44:33	14:53:10	515147	613909e5cf0d18ff1e3162a9	553282817	1	main_z	11	advance_on_keypress_ZEE	118	stimuli_target_diamondcircles.svg	stimuli_distractor_trianglediamonds.svg	19	yes	57	0	259
6.6.1	mac	2022-11-07	14:44:33	14:53:11	516610	613909e5cf0d18ff1e3162a9	553282817	1	main_z	11	main_z	119	stimuli_distractor_trianglediamonds.svg	stimuli_target_circlediamonds.svg	10	yes	44	1	559
6.6.1	mac	2022-11-07	14:44:33	14:53:11	516610	613909e5cf0d18ff1e3162a9	553282817	1	main_z	11	advance_on_keypress_ZEE	120	stimuli_distractor_trianglediamonds.svg	stimuli_target_circlediamonds.svg	10	yes	57	0	319
6.6.1	mac	2022-11-07	14:44:33	14:53:14	519554	613909e5cf0d18ff1e3162a9	553282817	1	main_z	11	main_z	121	stimuli_distractor_diamondtriangles.svg	stimuli_distractor_diamondtriangles.svg	39	no	0	1	2000
6.6.1	mac	2022-11-07	14:44:33	14:53:14	519554	613909e5cf0d18ff1e3162a9	553282817	1	main_z	11	advance_on_keypress_ZEE	122	stimuli_distractor_diamondtriangles.svg	stimuli_distractor_diamondtriangles.svg	39	no	57	0	320
6.6.1	mac	2022-11-07	14:44:33	14:53:16	521012	613909e5cf0d18ff1e3162a9	553282817	1	main_z	11	main_z	123	stimuli_target_diamondsquares.svg	stimuli_distractor_diamondtriangles.svg	24	yes	44	1	503
6.6.1	mac	2022-11-07	14:44:33	14:53:16	521012	613909e5cf0d18ff1e3162a9	553282817	1	main_z	11	advance_on_keypress_ZEE	124	stimuli_target_diamondsquares.svg	stimuli_distractor_diamondtriangles.svg	24	yes	57	0	251
6.6.1	mac	2022-11-07	14:44:33	14:53:17	522445	613909e5cf0d18ff1e3162a9	553282817	1	main_z	11	main_z	125	stimuli_distractor_trianglediamonds.svg	stimuli_target_circletriangles.svg	9	yes	44	1	540
6.6.1	mac	2022-11-07	14:44:33	14:53:17	522445	613909e5cf0d18ff1e3162a9	553282817	1	main_z	11	advance_on_keypress_ZEE	126	stimuli_distractor_trianglediamonds.svg	stimuli_target_circletriangles.svg	9	yes	57	0	260
6.6.1	mac	2022-11-07	14:44:33	14:53:18	523783	613909e5cf0d18ff1e3162a9	553282817	1	main_z	11	main_z	127	stimuli_distractor_diamondtriangles.svg	stimuli_target_circlediamonds.svg	14	yes	44	1	444
6.6.1	mac	2022-11-07	14:44:33	14:53:18	523783	613909e5cf0d18ff1e3162a9	553282817	1	main_z	11	advance_on_keypress_ZEE	128	stimuli_distractor_diamondtriangles.svg	stimuli_target_circlediamonds.svg	14	yes	57	0	244
6.6.1	mac	2022-11-07	14:44:33	14:53:20	525040	613909e5cf0d18ff1e3162a9	553282817	1	main_z	11	main_z	129	stimuli_distractor_trianglediamonds.svg	stimuli_target_trianglecircles.svg	25	yes	44	1	380
6.6.1	mac	2022-11-07	14:44:33	14:53:20	525040	613909e5cf0d18ff1e3162a9	553282817	1	main_z	11	advance_on_keypress_ZEE	130	stimuli_distractor_trianglediamonds.svg	stimuli_target_trianglecircles.svg	25	yes	57	0	244
6.6.1	mac	2022-11-07	14:44:33	14:53:21	526306	613909e5cf0d18ff1e3162a9	553282817	1	main_z	11	main_z	131	stimuli_distractor_diamondtriangles.svg	stimuli_target_trianglecircles.svg	29	yes	44	1	400
6.6.1	mac	2022-11-07	14:44:33	14:53:21	526306	613909e5cf0d18ff1e3162a9	553282817	1	main_z	11	advance_on_keypress_ZEE	132	stimuli_distractor_diamondtriangles.svg	stimuli_target_trianglecircles.svg	29	yes	57	0	229
6.6.1	mac	2022-11-07	14:44:33	14:53:22	527543	613909e5cf0d18ff1e3162a9	553282817	1	main_z	11	main_z	133	stimuli_target_diamondsquares.svg	stimuli_distractor_trianglediamonds.svg	20	yes	44	1	388
6.6.1	mac	2022-11-07	14:44:33	14:53:22	527543	613909e5cf0d18ff1e3162a9	553282817	1	main_z	11	advance_on_keypress_ZEE	134	stimuli_target_diamondsquares.svg	stimuli_distractor_trianglediamonds.svg	20	yes	57	0	417
6.6.1	mac	2022-11-07	14:44:33	14:53:24	529121	613909e5cf0d18ff1e3162a9	553282817	1	main_z	11	main_z	135	stimuli_target_trianglecircles.svg	stimuli_distractor_trianglediamonds.svg	17	yes	44	1	528
6.6.1	mac	2022-11-07	14:44:33	14:53:24	529121	613909e5cf0d18ff1e3162a9	553282817	1	main_z	11	advance_on_keypress_ZEE	136	stimuli_target_trianglecircles.svg	stimuli_distractor_trianglediamonds.svg	17	yes	57	0	420
6.6.1	mac	2022-11-07	14:44:33	14:53:27	532163	613909e5cf0d18ff1e3162a9	553282817	1	main_z	11	main_z	137	stimuli_target_trianglecircles.svg	stimuli_distractor_diamondtriangles.svg	21	yes	0	0	2000
6.6.1	mac	2022-11-07	14:44:33	14:53:27	532163	613909e5cf0d18ff1e3162a9	553282817	1	main_z	11	advance_on_keypress_ZEE	138	stimuli_target_trianglecircles.svg	stimuli_distractor_diamondtriangles.svg	21	yes	57	0	668
6.6.1	mac	2022-11-07	14:44:33	14:53:30	535463	613909e5cf0d18ff1e3162a9	553282817	1	main_z	11	main_z	139	stimuli_distractor_trianglediamonds.svg	stimuli_distractor_trianglediamonds.svg	34	no	0	1	2000
6.6.1	mac	2022-11-07	14:44:33	14:53:30	535463	613909e5cf0d18ff1e3162a9	553282817	1	main_z	11	advance_on_keypress_ZEE	140	stimuli_distractor_trianglediamonds.svg	stimuli_distractor_trianglediamonds.svg	34	no	57	0	633
6.6.1	mac	2022-11-07	14:44:33	14:53:32	537094	613909e5cf0d18ff1e3162a9	553282817	1	main_z	11	main_z	141	stimuli_distractor_diamondtriangles.svg	stimuli_target_trianglesquares.svg	30	yes	44	1	358
6.6.1	mac	2022-11-07	14:44:33	14:53:32	537094	613909e5cf0d18ff1e3162a9	553282817	1	main_z	11	advance_on_keypress_ZEE	142	stimuli_distractor_diamondtriangles.svg	stimuli_target_trianglesquares.svg	30	yes	57	0	355
6.6.1	mac	2022-11-07	14:44:33	14:53:35	540068	613909e5cf0d18ff1e3162a9	553282817	1	main_z	11	main_z	143	stimuli_distractor_diamondtriangles.svg	stimuli_distractor_trianglediamonds.svg	38	no	0	1	2000
6.6.1	mac	2022-11-07	14:44:33	14:53:35	540068	613909e5cf0d18ff1e3162a9	553282817	1	main_z	11	advance_on_keypress_ZEE	144	stimuli_distractor_diamondtriangles.svg	stimuli_distractor_trianglediamonds.svg	38	no	57	0	282
6.6.1	mac	2022-11-07	14:44:33	14:53:36	541457	613909e5cf0d18ff1e3162a9	553282817	1	main_z	11	main_z	145	stimuli_distractor_diamondtriangles.svg	stimuli_target_circletriangles.svg	13	yes	44	1	465
6.6.1	mac	2022-11-07	14:44:33	14:53:36	541457	613909e5cf0d18ff1e3162a9	553282817	1	main_z	11	advance_on_keypress_ZEE	146	stimuli_distractor_diamondtriangles.svg	stimuli_target_circletriangles.svg	13	yes	57	0	280
6.6.1	mac	2022-11-07	14:44:33	14:53:37	542959	613909e5cf0d18ff1e3162a9	553282817	1	main_z	11	main_z	147	stimuli_target_trianglesquares.svg	stimuli_distractor_trianglediamonds.svg	18	yes	44	1	578
6.6.1	mac	2022-11-07	14:44:33	14:53:37	542959	613909e5cf0d18ff1e3162a9	553282817	1	main_z	11	advance_on_keypress_ZEE	148	stimuli_target_trianglesquares.svg	stimuli_distractor_trianglediamonds.svg	18	yes	57	0	256
6.6.1	mac	2022-11-07	14:44:33	14:53:39	544299	613909e5cf0d18ff1e3162a9	553282817	1	main_z	11	main_z	149	stimuli_distractor_diamondtriangles.svg	stimuli_target_squaretriangles.svg	15	yes	44	1	463
6.6.1	mac	2022-11-07	14:44:33	14:53:39	544299	613909e5cf0d18ff1e3162a9	553282817	1	main_z	11	advance_on_keypress_ZEE	150	stimuli_distractor_diamondtriangles.svg	stimuli_target_squaretriangles.svg	15	yes	57	0	386
6.6.1	mac	2022-11-07	14:44:33	14:53:42	547322	613909e5cf0d18ff1e3162a9	553282817	1	main_z	11	main_z	151	stimuli_distractor_diamondtriangles.svg	stimuli_distractor_diamondtriangles.svg	40	no	0	1	2000
6.6.1	mac	2022-11-07	14:44:33	14:53:42	547322	613909e5cf0d18ff1e3162a9	553282817	1	main_z	11	advance_on_keypress_ZEE	152	stimuli_distractor_diamondtriangles.svg	stimuli_distractor_diamondtriangles.svg	40	no	57	0	311
6.6.1	mac	2022-11-07	14:44:33	14:53:45	550263	613909e5cf0d18ff1e3162a9	553282817	1	main_z	11	main_z	153	stimuli_distractor_diamondtriangles.svg	stimuli_distractor_trianglediamonds.svg	37	no	0	1	2000
6.6.1	mac	2022-11-07	14:44:33	14:53:45	550263	613909e5cf0d18ff1e3162a9	553282817	1	main_z	11	advance_on_keypress_ZEE	154	stimuli_distractor_diamondtriangles.svg	stimuli_distractor_trianglediamonds.svg	37	no	57	0	322
6.6.1	mac	2022-11-07	14:44:33	14:53:46	551714	613909e5cf0d18ff1e3162a9	553282817	1	main_z	11	main_z	155	stimuli_target_squarediamonds.svg	stimuli_distractor_diamondtriangles.svg	8	yes	44	1	506
6.6.1	mac	2022-11-07	14:44:33	14:53:46	551714	613909e5cf0d18ff1e3162a9	553282817	1	main_z	11	advance_on_keypress_ZEE	156	stimuli_target_squarediamonds.svg	stimuli_distractor_diamondtriangles.svg	8	yes	57	0	264
6.6.1	mac	2022-11-07	14:44:33	14:53:49	554605	613909e5cf0d18ff1e3162a9	553282817	1	main_z	11	main_z	157	stimuli_distractor_trianglediamonds.svg	stimuli_distractor_diamondtriangles.svg	36	no	0	1	2000
6.6.1	mac	2022-11-07	14:44:33	14:53:49	554605	613909e5cf0d18ff1e3162a9	553282817	1	main_z	11	advance_on_keypress_ZEE	158	stimuli_distractor_trianglediamonds.svg	stimuli_distractor_diamondtriangles.svg	36	no	57	0	402
6.6.1	mac	2022-11-07	14:44:33	14:53:51	556088	613909e5cf0d18ff1e3162a9	553282817	1	main_z	11	main_z	159	stimuli_target_circlediamonds.svg	stimuli_distractor_trianglediamonds.svg	2	yes	44	1	454
6.6.1	mac	2022-11-07	14:44:33	14:53:51	556088	613909e5cf0d18ff1e3162a9	553282817	1	main_z	11	advance_on_keypress_ZEE	160	stimuli_target_circlediamonds.svg	stimuli_distractor_trianglediamonds.svg	2	yes	57	0	276