build	computer.platform	date	time	timestamp	time_elapsed_ms	subject	group	session	blockcode	blocknum	trialcode	trialnum	stimulus_left	stimulus_right	stim_index	target_present	response	correct	latency
6.6.1	win	2022-11-04	12:11:33	12:13:31	117486	631b593a9bb21bb86ea260a7	900033217	1	practice_slash	5	practice_slash	1	stimuli_distractor_trianglediamonds.svg	stimuli_target_squarediamonds.svg	11	yes	0	0	2003
6.6.1	win	2022-11-04	12:11:33	12:13:31	117486	631b593a9bb21bb86ea260a7	900033217	1	practice_slash	5	advance_on_keypress_SLASH	2	stimuli_distractor_trianglediamonds.svg	stimuli_target_squarediamonds.svg	11	yes	57	0	912
6.6.1	win	2022-11-04	12:11:33	12:13:36	122021	631b593a9bb21bb86ea260a7	900033217	1	practice_slash	5	practice_slash	3	stimuli_distractor_diamondtriangles.svg	stimuli_distractor_trianglediamonds.svg	14	no	0	1	2003
6.6.1	win	2022-11-04	12:11:33	12:13:36	122021	631b593a9bb21bb86ea260a7	900033217	1	practice_slash	5	advance_on_keypress_SLASH	4	stimuli_distractor_diamondtriangles.svg	stimuli_distractor_trianglediamonds.svg	14	no	57	0	3483
6.6.1	win	2022-11-04	12:11:33	12:13:42	127760	631b593a9bb21bb86ea260a7	900033217	1	practice_slash	5	practice_slash	5	stimuli_target_circlediamonds.svg	stimuli_distractor_diamondtriangles.svg	1	yes	53	1	632
6.6.1	win	2022-11-04	12:11:33	12:13:42	127760	631b593a9bb21bb86ea260a7	900033217	1	practice_slash	5	advance_on_keypress_SLASH	6	stimuli_target_circlediamonds.svg	stimuli_distractor_diamondtriangles.svg	1	yes	57	0	773
6.6.1	win	2022-11-04	12:11:33	12:13:46	132160	631b593a9bb21bb86ea260a7	900033217	1	practice_slash	5	practice_slash	7	stimuli_target_diamondsquares.svg	stimuli_distractor_trianglediamonds.svg	6	yes	0	0	2003
6.6.1	win	2022-11-04	12:11:33	12:13:46	132160	631b593a9bb21bb86ea260a7	900033217	1	practice_slash	5	advance_on_keypress_SLASH	8	stimuli_target_diamondsquares.svg	stimuli_distractor_trianglediamonds.svg	6	yes	57	0	627
6.6.1	win	2022-11-04	12:11:33	12:13:49	135133	631b593a9bb21bb86ea260a7	900033217	1	practice_slash	5	practice_slash	9	stimuli_target_squarediamonds.svg	stimuli_distractor_trianglediamonds.svg	5	yes	53	1	726
6.6.1	win	2022-11-04	12:11:33	12:13:49	135133	631b593a9bb21bb86ea260a7	900033217	1	practice_slash	5	advance_on_keypress_SLASH	10	stimuli_target_squarediamonds.svg	stimuli_distractor_trianglediamonds.svg	5	yes	57	0	1140
6.6.1	win	2022-11-04	12:11:33	12:13:53	139304	631b593a9bb21bb86ea260a7	900033217	1	practice_slash	5	practice_slash	11	stimuli_distractor_trianglediamonds.svg	stimuli_target_circlediamonds.svg	10	yes	53	1	1411
6.6.1	win	2022-11-04	12:11:33	12:13:53	139304	631b593a9bb21bb86ea260a7	900033217	1	practice_slash	5	advance_on_keypress_SLASH	12	stimuli_distractor_trianglediamonds.svg	stimuli_target_circlediamonds.svg	10	yes	57	0	395
6.6.1	win	2022-11-04	12:11:33	12:13:57	143320	631b593a9bb21bb86ea260a7	900033217	1	practice_slash	5	practice_slash	13	stimuli_distractor_diamondtriangles.svg	stimuli_target_diamondcircles.svg	8	yes	0	0	2003
6.6.1	win	2022-11-04	12:11:33	12:13:57	143320	631b593a9bb21bb86ea260a7	900033217	1	practice_slash	5	advance_on_keypress_SLASH	14	stimuli_distractor_diamondtriangles.svg	stimuli_target_diamondcircles.svg	8	yes	57	0	366
6.6.1	win	2022-11-04	12:11:33	12:14:01	146766	631b593a9bb21bb86ea260a7	900033217	1	practice_slash	5	practice_slash	15	stimuli_target_diamondsquares.svg	stimuli_distractor_diamondtriangles.svg	3	yes	53	1	1450
6.6.1	win	2022-11-04	12:11:33	12:14:01	146766	631b593a9bb21bb86ea260a7	900033217	1	practice_slash	5	advance_on_keypress_SLASH	16	stimuli_target_diamondsquares.svg	stimuli_distractor_diamondtriangles.svg	3	yes	57	0	451
6.6.1	win	2022-11-04	12:11:33	12:14:05	150841	631b593a9bb21bb86ea260a7	900033217	1	practice_slash	5	practice_slash	17	stimuli_distractor_diamondtriangles.svg	stimuli_distractor_diamondtriangles.svg	13	no	0	1	2003
6.6.1	win	2022-11-04	12:11:33	12:14:05	150841	631b593a9bb21bb86ea260a7	900033217	1	practice_slash	5	advance_on_keypress_SLASH	18	stimuli_distractor_diamondtriangles.svg	stimuli_distractor_diamondtriangles.svg	13	no	57	0	488
6.6.1	win	2022-11-04	12:11:33	12:14:08	153851	631b593a9bb21bb86ea260a7	900033217	1	practice_slash	5	practice_slash	19	stimuli_distractor_trianglediamonds.svg	stimuli_target_diamondcircles.svg	12	yes	53	1	902
6.6.1	win	2022-11-04	12:11:33	12:14:08	153851	631b593a9bb21bb86ea260a7	900033217	1	practice_slash	5	advance_on_keypress_SLASH	20	stimuli_distractor_trianglediamonds.svg	stimuli_target_diamondcircles.svg	12	yes	57	0	502
6.6.1	win	2022-11-04	12:11:33	12:14:11	156670	631b593a9bb21bb86ea260a7	900033217	1	practice_slash	5	practice_slash	21	stimuli_target_circlediamonds.svg	stimuli_distractor_trianglediamonds.svg	4	yes	53	1	693
6.6.1	win	2022-11-04	12:11:33	12:14:11	156670	631b593a9bb21bb86ea260a7	900033217	1	practice_slash	5	advance_on_keypress_SLASH	22	stimuli_target_circlediamonds.svg	stimuli_distractor_trianglediamonds.svg	4	yes	57	0	269
6.6.1	win	2022-11-04	12:11:33	12:14:15	160564	631b593a9bb21bb86ea260a7	900033217	1	practice_slash	5	practice_slash	23	stimuli_distractor_trianglediamonds.svg	stimuli_distractor_trianglediamonds.svg	15	no	0	1	2003
6.6.1	win	2022-11-04	12:11:33	12:14:15	160564	631b593a9bb21bb86ea260a7	900033217	1	practice_slash	5	advance_on_keypress_SLASH	24	stimuli_distractor_trianglediamonds.svg	stimuli_distractor_trianglediamonds.svg	15	no	57	0	224
6.6.1	win	2022-11-04	12:11:33	12:14:17	163124	631b593a9bb21bb86ea260a7	900033217	1	practice_slash	5	practice_slash	25	stimuli_distractor_diamondtriangles.svg	stimuli_target_circletriangles.svg	7	yes	53	1	710
6.6.1	win	2022-11-04	12:11:33	12:14:17	163124	631b593a9bb21bb86ea260a7	900033217	1	practice_slash	5	advance_on_keypress_SLASH	26	stimuli_distractor_diamondtriangles.svg	stimuli_target_circletriangles.svg	7	yes	57	0	147
6.6.1	win	2022-11-04	12:11:33	12:14:20	165797	631b593a9bb21bb86ea260a7	900033217	1	practice_slash	5	practice_slash	27	stimuli_distractor_diamondtriangles.svg	stimuli_target_trianglecircles.svg	9	yes	53	1	904
6.6.1	win	2022-11-04	12:11:33	12:14:20	165797	631b593a9bb21bb86ea260a7	900033217	1	practice_slash	5	advance_on_keypress_SLASH	28	stimuli_distractor_diamondtriangles.svg	stimuli_target_trianglecircles.svg	9	yes	57	0	118
6.6.1	win	2022-11-04	12:11:33	12:14:24	169536	631b593a9bb21bb86ea260a7	900033217	1	practice_slash	5	practice_slash	29	stimuli_distractor_trianglediamonds.svg	stimuli_distractor_diamondtriangles.svg	16	no	0	1	2003
6.6.1	win	2022-11-04	12:11:33	12:14:24	169536	631b593a9bb21bb86ea260a7	900033217	1	practice_slash	5	advance_on_keypress_SLASH	30	stimuli_distractor_trianglediamonds.svg	stimuli_distractor_diamondtriangles.svg	16	no	57	0	252
6.6.1	win	2022-11-04	12:11:33	12:14:26	172014	631b593a9bb21bb86ea260a7	900033217	1	practice_slash	5	practice_slash	31	stimuli_target_squarediamonds.svg	stimuli_distractor_diamondtriangles.svg	2	yes	53	1	605
6.6.1	win	2022-11-04	12:11:33	12:14:26	172014	631b593a9bb21bb86ea260a7	900033217	1	practice_slash	5	advance_on_keypress_SLASH	32	stimuli_target_squarediamonds.svg	stimuli_distractor_diamondtriangles.svg	2	yes	57	0	44
6.6.1	win	2022-11-04	12:11:33	12:14:30	176515	631b593a9bb21bb86ea260a7	900033217	1	main_slash	7	main_slash	1	stimuli_target_diamondcircles.svg	stimuli_distractor_trianglediamonds.svg	19	yes	53	1	810
6.6.1	win	2022-11-04	12:11:33	12:14:30	176515	631b593a9bb21bb86ea260a7	900033217	1	main_slash	7	advance_on_keypress_SLASH	2	stimuli_target_diamondcircles.svg	stimuli_distractor_trianglediamonds.svg	19	yes	57	0	950
6.6.1	win	2022-11-04	12:11:33	12:14:33	178714	631b593a9bb21bb86ea260a7	900033217	1	main_slash	7	main_slash	3	stimuli_target_circletriangles.svg	stimuli_distractor_trianglediamonds.svg	1	yes	53	1	628
6.6.1	win	2022-11-04	12:11:33	12:14:33	178714	631b593a9bb21bb86ea260a7	900033217	1	main_slash	7	advance_on_keypress_SLASH	4	stimuli_target_circletriangles.svg	stimuli_distractor_trianglediamonds.svg	1	yes	57	0	240
6.6.1	win	2022-11-04	12:11:33	12:14:35	181084	631b593a9bb21bb86ea260a7	900033217	1	main_slash	7	main_slash	5	stimuli_distractor_trianglediamonds.svg	stimuli_target_trianglesquares.svg	26	yes	53	1	1516
6.6.1	win	2022-11-04	12:11:33	12:14:35	181084	631b593a9bb21bb86ea260a7	900033217	1	main_slash	7	advance_on_keypress_SLASH	6	stimuli_distractor_trianglediamonds.svg	stimuli_target_trianglesquares.svg	26	yes	57	0	382
6.6.1	win	2022-11-04	12:11:33	12:14:37	182747	631b593a9bb21bb86ea260a7	900033217	1	main_slash	7	main_slash	7	stimuli_distractor_trianglediamonds.svg	stimuli_target_diamondcircles.svg	27	yes	53	1	666
6.6.1	win	2022-11-04	12:11:33	12:14:37	182747	631b593a9bb21bb86ea260a7	900033217	1	main_slash	7	advance_on_keypress_SLASH	8	stimuli_distractor_trianglediamonds.svg	stimuli_target_diamondcircles.svg	27	yes	57	0	283
6.6.1	win	2022-11-04	12:11:33	12:14:40	185653	631b593a9bb21bb86ea260a7	900033217	1	main_slash	7	main_slash	9	stimuli_distractor_diamondtriangles.svg	stimuli_distractor_diamondtriangles.svg	40	no	0	1	2003
6.6.1	win	2022-11-04	12:11:33	12:14:40	185653	631b593a9bb21bb86ea260a7	900033217	1	main_slash	7	advance_on_keypress_SLASH	10	stimuli_distractor_diamondtriangles.svg	stimuli_distractor_diamondtriangles.svg	40	no	57	0	347
6.6.1	win	2022-11-04	12:11:33	12:14:41	187316	631b593a9bb21bb86ea260a7	900033217	1	main_slash	7	main_slash	11	stimuli_distractor_trianglediamonds.svg	stimuli_target_trianglecircles.svg	25	yes	53	1	701
6.6.1	win	2022-11-04	12:11:33	12:14:41	187316	631b593a9bb21bb86ea260a7	900033217	1	main_slash	7	advance_on_keypress_SLASH	12	stimuli_distractor_trianglediamonds.svg	stimuli_target_trianglecircles.svg	25	yes	57	0	240
6.6.1	win	2022-11-04	12:11:33	12:14:43	188842	631b593a9bb21bb86ea260a7	900033217	1	main_slash	7	main_slash	13	stimuli_target_trianglecircles.svg	stimuli_distractor_diamondtriangles.svg	21	yes	53	1	664
6.6.1	win	2022-11-04	12:11:33	12:14:43	188842	631b593a9bb21bb86ea260a7	900033217	1	main_slash	7	advance_on_keypress_SLASH	14	stimuli_target_trianglecircles.svg	stimuli_distractor_diamondtriangles.svg	21	yes	57	0	191
6.6.1	win	2022-11-04	12:11:33	12:14:45	190597	631b593a9bb21bb86ea260a7	900033217	1	main_slash	7	main_slash	15	stimuli_distractor_diamondtriangles.svg	stimuli_target_circlediamonds.svg	14	yes	53	1	946
6.6.1	win	2022-11-04	12:11:33	12:14:45	190597	631b593a9bb21bb86ea260a7	900033217	1	main_slash	7	advance_on_keypress_SLASH	16	stimuli_distractor_diamondtriangles.svg	stimuli_target_circlediamonds.svg	14	yes	57	0	272
6.6.1	win	2022-11-04	12:11:33	12:14:47	193487	631b593a9bb21bb86ea260a7	900033217	1	main_slash	7	main_slash	17	stimuli_distractor_trianglediamonds.svg	stimuli_distractor_trianglediamonds.svg	34	no	0	1	2003
6.6.1	win	2022-11-04	12:11:33	12:14:47	193487	631b593a9bb21bb86ea260a7	900033217	1	main_slash	7	advance_on_keypress_SLASH	18	stimuli_distractor_trianglediamonds.svg	stimuli_distractor_trianglediamonds.svg	34	no	57	0	396
6.6.1	win	2022-11-04	12:11:33	12:14:49	195160	631b593a9bb21bb86ea260a7	900033217	1	main_slash	7	main_slash	19	stimuli_distractor_diamondtriangles.svg	stimuli_target_squaretriangles.svg	15	yes	53	1	662
6.6.1	win	2022-11-04	12:11:33	12:14:49	195160	631b593a9bb21bb86ea260a7	900033217	1	main_slash	7	advance_on_keypress_SLASH	20	stimuli_distractor_diamondtriangles.svg	stimuli_target_squaretriangles.svg	15	yes	57	0	169
6.6.1	win	2022-11-04	12:11:33	12:14:52	197945	631b593a9bb21bb86ea260a7	900033217	1	main_slash	7	main_slash	21	stimuli_distractor_trianglediamonds.svg	stimuli_target_diamondsquares.svg	28	yes	0	0	2003
6.6.1	win	2022-11-04	12:11:33	12:14:52	197945	631b593a9bb21bb86ea260a7	900033217	1	main_slash	7	advance_on_keypress_SLASH	22	stimuli_distractor_trianglediamonds.svg	stimuli_target_diamondsquares.svg	28	yes	57	0	264
6.6.1	win	2022-11-04	12:11:33	12:14:54	199632	631b593a9bb21bb86ea260a7	900033217	1	main_slash	7	main_slash	23	stimuli_distractor_trianglediamonds.svg	stimuli_target_squaretriangles.svg	11	yes	53	1	809
6.6.1	win	2022-11-04	12:11:33	12:14:54	199632	631b593a9bb21bb86ea260a7	900033217	1	main_slash	7	advance_on_keypress_SLASH	24	stimuli_distractor_trianglediamonds.svg	stimuli_target_squaretriangles.svg	11	yes	57	0	264
6.6.1	win	2022-11-04	12:11:33	12:14:56	202515	631b593a9bb21bb86ea260a7	900033217	1	main_slash	7	main_slash	25	stimuli_distractor_trianglediamonds.svg	stimuli_distractor_diamondtriangles.svg	36	no	0	1	2003
6.6.1	win	2022-11-04	12:11:33	12:14:56	202515	631b593a9bb21bb86ea260a7	900033217	1	main_slash	7	advance_on_keypress_SLASH	26	stimuli_distractor_trianglediamonds.svg	stimuli_distractor_diamondtriangles.svg	36	no	57	0	410
6.6.1	win	2022-11-04	12:11:33	12:15:00	205543	631b593a9bb21bb86ea260a7	900033217	1	main_slash	7	main_slash	27	stimuli_target_diamondsquares.svg	stimuli_distractor_trianglediamonds.svg	20	yes	0	0	2003
6.6.1	win	2022-11-04	12:11:33	12:15:00	205543	631b593a9bb21bb86ea260a7	900033217	1	main_slash	7	advance_on_keypress_SLASH	28	stimuli_target_diamondsquares.svg	stimuli_distractor_trianglediamonds.svg	20	yes	57	0	290
6.6.1	win	2022-11-04	12:11:33	12:15:01	207104	631b593a9bb21bb86ea260a7	900033217	1	main_slash	7	main_slash	29	stimuli_target_squaretriangles.svg	stimuli_distractor_diamondtriangles.svg	7	yes	53	1	656
6.6.1	win	2022-11-04	12:11:33	12:15:01	207104	631b593a9bb21bb86ea260a7	900033217	1	main_slash	7	advance_on_keypress_SLASH	30	stimuli_target_squaretriangles.svg	stimuli_distractor_diamondtriangles.svg	7	yes	57	0	153
6.6.1	win	2022-11-04	12:11:33	12:15:03	208904	631b593a9bb21bb86ea260a7	900033217	1	main_slash	7	main_slash	31	stimuli_distractor_diamondtriangles.svg	stimuli_target_trianglesquares.svg	30	yes	53	1	1031
6.6.1	win	2022-11-04	12:11:33	12:15:03	208904	631b593a9bb21bb86ea260a7	900033217	1	main_slash	7	advance_on_keypress_SLASH	32	stimuli_distractor_diamondtriangles.svg	stimuli_target_trianglesquares.svg	30	yes	57	0	203
6.6.1	win	2022-11-04	12:11:33	12:15:06	211723	631b593a9bb21bb86ea260a7	900033217	1	main_slash	7	main_slash	33	stimuli_distractor_diamondtriangles.svg	stimuli_distractor_trianglediamonds.svg	38	no	0	1	2003
6.6.1	win	2022-11-04	12:11:33	12:15:06	211723	631b593a9bb21bb86ea260a7	900033217	1	main_slash	7	advance_on_keypress_SLASH	34	stimuli_distractor_diamondtriangles.svg	stimuli_distractor_trianglediamonds.svg	38	no	57	0	837
6.6.1	win	2022-11-04	12:11:33	12:15:08	213796	631b593a9bb21bb86ea260a7	900033217	1	main_slash	7	main_slash	35	stimuli_distractor_trianglediamonds.svg	stimuli_target_circletriangles.svg	9	yes	53	1	624
6.6.1	win	2022-11-04	12:11:33	12:15:08	213796	631b593a9bb21bb86ea260a7	900033217	1	main_slash	7	advance_on_keypress_SLASH	36	stimuli_distractor_trianglediamonds.svg	stimuli_target_circletriangles.svg	9	yes	57	0	236
6.6.1	win	2022-11-04	12:11:33	12:15:09	215346	631b593a9bb21bb86ea260a7	900033217	1	main_slash	7	main_slash	37	stimuli_target_squarediamonds.svg	stimuli_distractor_diamondtriangles.svg	8	yes	53	1	695
6.6.1	win	2022-11-04	12:11:33	12:15:09	215346	631b593a9bb21bb86ea260a7	900033217	1	main_slash	7	advance_on_keypress_SLASH	38	stimuli_target_squarediamonds.svg	stimuli_distractor_diamondtriangles.svg	8	yes	57	0	167
6.6.1	win	2022-11-04	12:11:33	12:15:11	216772	631b593a9bb21bb86ea260a7	900033217	1	main_slash	7	main_slash	39	stimuli_target_circletriangles.svg	stimuli_distractor_diamondtriangles.svg	5	yes	53	1	642
6.6.1	win	2022-11-04	12:11:33	12:15:11	216772	631b593a9bb21bb86ea260a7	900033217	1	main_slash	7	advance_on_keypress_SLASH	40	stimuli_target_circletriangles.svg	stimuli_distractor_diamondtriangles.svg	5	yes	57	0	142
6.6.1	win	2022-11-04	12:11:33	12:15:12	218213	631b593a9bb21bb86ea260a7	900033217	1	main_slash	7	main_slash	41	stimuli_target_squaretriangles.svg	stimuli_distractor_trianglediamonds.svg	3	yes	53	1	679
6.6.1	win	2022-11-04	12:11:33	12:15:12	218213	631b593a9bb21bb86ea260a7	900033217	1	main_slash	7	advance_on_keypress_SLASH	42	stimuli_target_squaretriangles.svg	stimuli_distractor_trianglediamonds.svg	3	yes	57	0	150
6.6.1	win	2022-11-04	12:11:33	12:15:14	220177	631b593a9bb21bb86ea260a7	900033217	1	main_slash	7	main_slash	43	stimuli_target_diamondsquares.svg	stimuli_distractor_diamondtriangles.svg	24	yes	53	1	1192
6.6.1	win	2022-11-04	12:11:33	12:15:14	220177	631b593a9bb21bb86ea260a7	900033217	1	main_slash	7	advance_on_keypress_SLASH	44	stimuli_target_diamondsquares.svg	stimuli_distractor_diamondtriangles.svg	24	yes	57	0	263
6.6.1	win	2022-11-04	12:11:33	12:15:17	223064	631b593a9bb21bb86ea260a7	900033217	1	main_slash	7	main_slash	45	stimuli_distractor_diamondtriangles.svg	stimuli_target_squarediamonds.svg	16	yes	0	0	2003
6.6.1	win	2022-11-04	12:11:33	12:15:17	223064	631b593a9bb21bb86ea260a7	900033217	1	main_slash	7	advance_on_keypress_SLASH	46	stimuli_distractor_diamondtriangles.svg	stimuli_target_squarediamonds.svg	16	yes	57	0	284
6.6.1	win	2022-11-04	12:11:33	12:15:19	224574	631b593a9bb21bb86ea260a7	900033217	1	main_slash	7	main_slash	47	stimuli_distractor_diamondtriangles.svg	stimuli_target_circletriangles.svg	13	yes	53	1	609
6.6.1	win	2022-11-04	12:11:33	12:15:19	224574	631b593a9bb21bb86ea260a7	900033217	1	main_slash	7	advance_on_keypress_SLASH	48	stimuli_distractor_diamondtriangles.svg	stimuli_target_circletriangles.svg	13	yes	57	0	163
6.6.1	win	2022-11-04	12:11:33	12:15:20	226302	631b593a9bb21bb86ea260a7	900033217	1	main_slash	7	main_slash	49	stimuli_distractor_diamondtriangles.svg	stimuli_target_diamondsquares.svg	32	yes	53	1	942
6.6.1	win	2022-11-04	12:11:33	12:15:20	226302	631b593a9bb21bb86ea260a7	900033217	1	main_slash	7	advance_on_keypress_SLASH	50	stimuli_distractor_diamondtriangles.svg	stimuli_target_diamondsquares.svg	32	yes	57	0	174
6.6.1	win	2022-11-04	12:11:33	12:15:23	229099	631b593a9bb21bb86ea260a7	900033217	1	main_slash	7	main_slash	51	stimuli_distractor_trianglediamonds.svg	stimuli_distractor_trianglediamonds.svg	33	no	0	1	2003
6.6.1	win	2022-11-04	12:11:33	12:15:23	229099	631b593a9bb21bb86ea260a7	900033217	1	main_slash	7	advance_on_keypress_SLASH	52	stimuli_distractor_trianglediamonds.svg	stimuli_distractor_trianglediamonds.svg	33	no	57	0	281
6.6.1	win	2022-11-04	12:11:33	12:15:25	230748	631b593a9bb21bb86ea260a7	900033217	1	main_slash	7	main_slash	53	stimuli_distractor_diamondtriangles.svg	stimuli_target_trianglecircles.svg	29	yes	53	1	756
6.6.1	win	2022-11-04	12:11:33	12:15:25	230748	631b593a9bb21bb86ea260a7	900033217	1	main_slash	7	advance_on_keypress_SLASH	54	stimuli_distractor_diamondtriangles.svg	stimuli_target_trianglecircles.svg	29	yes	57	0	149
6.6.1	win	2022-11-04	12:11:33	12:15:26	232234	631b593a9bb21bb86ea260a7	900033217	1	main_slash	7	main_slash	55	stimuli_distractor_trianglediamonds.svg	stimuli_target_circlediamonds.svg	10	yes	53	1	714
6.6.1	win	2022-11-04	12:11:33	12:15:26	232234	631b593a9bb21bb86ea260a7	900033217	1	main_slash	7	advance_on_keypress_SLASH	56	stimuli_distractor_trianglediamonds.svg	stimuli_target_circlediamonds.svg	10	yes	57	0	202
6.6.1	win	2022-11-04	12:11:33	12:15:28	233790	631b593a9bb21bb86ea260a7	900033217	1	main_slash	7	main_slash	57	stimuli_target_squarediamonds.svg	stimuli_distractor_trianglediamonds.svg	4	yes	53	1	736
6.6.1	win	2022-11-04	12:11:33	12:15:28	233790	631b593a9bb21bb86ea260a7	900033217	1	main_slash	7	advance_on_keypress_SLASH	58	stimuli_target_squarediamonds.svg	stimuli_distractor_trianglediamonds.svg	4	yes	57	0	216
6.6.1	win	2022-11-04	12:11:33	12:15:29	235397	631b593a9bb21bb86ea260a7	900033217	1	main_slash	7	main_slash	59	stimuli_target_circlediamonds.svg	stimuli_distractor_diamondtriangles.svg	6	yes	53	1	773
6.6.1	win	2022-11-04	12:11:33	12:15:29	235397	631b593a9bb21bb86ea260a7	900033217	1	main_slash	7	advance_on_keypress_SLASH	60	stimuli_target_circlediamonds.svg	stimuli_distractor_diamondtriangles.svg	6	yes	57	0	121
6.6.1	win	2022-11-04	12:11:33	12:15:31	236941	631b593a9bb21bb86ea260a7	900033217	1	main_slash	7	main_slash	61	stimuli_distractor_diamondtriangles.svg	stimuli_target_diamondcircles.svg	31	yes	53	1	810
6.6.1	win	2022-11-04	12:11:33	12:15:31	236941	631b593a9bb21bb86ea260a7	900033217	1	main_slash	7	advance_on_keypress_SLASH	62	stimuli_distractor_diamondtriangles.svg	stimuli_target_diamondcircles.svg	31	yes	57	0	128
6.6.1	win	2022-11-04	12:11:33	12:15:33	238549	631b593a9bb21bb86ea260a7	900033217	1	main_slash	7	main_slash	63	stimuli_target_diamondcircles.svg	stimuli_distractor_diamondtriangles.svg	23	yes	53	1	862
6.6.1	win	2022-11-04	12:11:33	12:15:33	238549	631b593a9bb21bb86ea260a7	900033217	1	main_slash	7	advance_on_keypress_SLASH	64	stimuli_target_diamondcircles.svg	stimuli_distractor_diamondtriangles.svg	23	yes	57	0	70
6.6.1	win	2022-11-04	12:11:33	12:15:34	240009	631b593a9bb21bb86ea260a7	900033217	1	main_slash	7	main_slash	65	stimuli_target_trianglecircles.svg	stimuli_distractor_trianglediamonds.svg	17	yes	53	1	774
6.6.1	win	2022-11-04	12:11:33	12:15:34	240009	631b593a9bb21bb86ea260a7	900033217	1	main_slash	7	advance_on_keypress_SLASH	66	stimuli_target_trianglecircles.svg	stimuli_distractor_trianglediamonds.svg	17	yes	57	0	131
6.6.1	win	2022-11-04	12:11:33	12:15:36	241534	631b593a9bb21bb86ea260a7	900033217	1	main_slash	7	main_slash	67	stimuli_target_circlediamonds.svg	stimuli_distractor_trianglediamonds.svg	2	yes	53	1	778
6.6.1	win	2022-11-04	12:11:33	12:15:36	241534	631b593a9bb21bb86ea260a7	900033217	1	main_slash	7	advance_on_keypress_SLASH	68	stimuli_target_circlediamonds.svg	stimuli_distractor_trianglediamonds.svg	2	yes	57	0	131
6.6.1	win	2022-11-04	12:11:33	12:15:38	244287	631b593a9bb21bb86ea260a7	900033217	1	main_slash	7	main_slash	69	stimuli_distractor_trianglediamonds.svg	stimuli_distractor_diamondtriangles.svg	35	no	0	1	2003
6.6.1	win	2022-11-04	12:11:33	12:15:38	244287	631b593a9bb21bb86ea260a7	900033217	1	main_slash	7	advance_on_keypress_SLASH	70	stimuli_distractor_trianglediamonds.svg	stimuli_distractor_diamondtriangles.svg	35	no	57	0	517
6.6.1	win	2022-11-04	12:11:33	12:15:40	246078	631b593a9bb21bb86ea260a7	900033217	1	main_slash	7	main_slash	71	stimuli_target_trianglesquares.svg	stimuli_distractor_diamondtriangles.svg	22	yes	53	1	655
6.6.1	win	2022-11-04	12:11:33	12:15:40	246078	631b593a9bb21bb86ea260a7	900033217	1	main_slash	7	advance_on_keypress_SLASH	72	stimuli_target_trianglesquares.svg	stimuli_distractor_diamondtriangles.svg	22	yes	57	0	123
6.6.1	win	2022-11-04	12:11:33	12:15:42	247536	631b593a9bb21bb86ea260a7	900033217	1	main_slash	7	main_slash	73	stimuli_distractor_trianglediamonds.svg	stimuli_target_squarediamonds.svg	12	yes	53	1	717
6.6.1	win	2022-11-04	12:11:33	12:15:42	247536	631b593a9bb21bb86ea260a7	900033217	1	main_slash	7	advance_on_keypress_SLASH	74	stimuli_distractor_trianglediamonds.svg	stimuli_target_squarediamonds.svg	12	yes	57	0	130
6.6.1	win	2022-11-04	12:11:33	12:15:44	250287	631b593a9bb21bb86ea260a7	900033217	1	main_slash	7	main_slash	75	stimuli_distractor_diamondtriangles.svg	stimuli_distractor_diamondtriangles.svg	39	no	0	1	2003
6.6.1	win	2022-11-04	12:11:33	12:15:44	250287	631b593a9bb21bb86ea260a7	900033217	1	main_slash	7	advance_on_keypress_SLASH	76	stimuli_distractor_diamondtriangles.svg	stimuli_distractor_diamondtriangles.svg	39	no	57	0	697
6.6.1	win	2022-11-04	12:11:33	12:15:46	252259	631b593a9bb21bb86ea260a7	900033217	1	main_slash	7	main_slash	77	stimuli_target_trianglesquares.svg	stimuli_distractor_trianglediamonds.svg	18	yes	53	1	662
6.6.1	win	2022-11-04	12:11:33	12:15:46	252259	631b593a9bb21bb86ea260a7	900033217	1	main_slash	7	advance_on_keypress_SLASH	78	stimuli_target_trianglesquares.svg	stimuli_distractor_trianglediamonds.svg	18	yes	57	0	120
6.6.1	win	2022-11-04	12:11:33	12:15:48	253807	631b593a9bb21bb86ea260a7	900033217	1	main_slash	7	main_slash	79	stimuli_distractor_diamondtriangles.svg	stimuli_distractor_trianglediamonds.svg	37	no	53	0	815
6.6.1	win	2022-11-04	12:11:33	12:15:48	253807	631b593a9bb21bb86ea260a7	900033217	1	main_slash	7	advance_on_keypress_SLASH	80	stimuli_distractor_diamondtriangles.svg	stimuli_distractor_trianglediamonds.svg	37	no	57	0	100
6.6.1	win	2022-11-04	12:11:33	12:15:49	255205	631b593a9bb21bb86ea260a7	900033217	1	main_slash	7	main_slash	81	stimuli_distractor_trianglediamonds.svg	stimuli_target_squaretriangles.svg	11	yes	53	1	685
6.6.1	win	2022-11-04	12:11:33	12:15:49	255205	631b593a9bb21bb86ea260a7	900033217	1	main_slash	7	advance_on_keypress_SLASH	82	stimuli_distractor_trianglediamonds.svg	stimuli_target_squaretriangles.svg	11	yes	57	0	88
6.6.1	win	2022-11-04	12:11:33	12:15:52	257919	631b593a9bb21bb86ea260a7	900033217	1	main_slash	7	main_slash	83	stimuli_distractor_diamondtriangles.svg	stimuli_distractor_diamondtriangles.svg	40	no	0	1	2003
6.6.1	win	2022-11-04	12:11:33	12:15:52	257919	631b593a9bb21bb86ea260a7	900033217	1	main_slash	7	advance_on_keypress_SLASH	84	stimuli_distractor_diamondtriangles.svg	stimuli_distractor_diamondtriangles.svg	40	no	57	0	271
6.6.1	win	2022-11-04	12:11:33	12:15:54	259600	631b593a9bb21bb86ea260a7	900033217	1	main_slash	7	main_slash	85	stimuli_distractor_trianglediamonds.svg	stimuli_distractor_diamondtriangles.svg	35	no	53	0	795
6.6.1	win	2022-11-04	12:11:33	12:15:54	259600	631b593a9bb21bb86ea260a7	900033217	1	main_slash	7	advance_on_keypress_SLASH	86	stimuli_distractor_trianglediamonds.svg	stimuli_distractor_diamondtriangles.svg	35	no	57	0	122
6.6.1	win	2022-11-04	12:11:33	12:15:55	261021	631b593a9bb21bb86ea260a7	900033217	1	main_slash	7	main_slash	87	stimuli_distractor_trianglediamonds.svg	stimuli_target_circletriangles.svg	9	yes	53	1	688
6.6.1	win	2022-11-04	12:11:33	12:15:55	261021	631b593a9bb21bb86ea260a7	900033217	1	main_slash	7	advance_on_keypress_SLASH	88	stimuli_distractor_trianglediamonds.svg	stimuli_target_circletriangles.svg	9	yes	57	0	86
6.6.1	win	2022-11-04	12:11:33	12:15:58	263725	631b593a9bb21bb86ea260a7	900033217	1	main_slash	7	main_slash	89	stimuli_distractor_diamondtriangles.svg	stimuli_distractor_trianglediamonds.svg	37	no	0	1	2003
6.6.1	win	2022-11-04	12:11:33	12:15:58	263725	631b593a9bb21bb86ea260a7	900033217	1	main_slash	7	advance_on_keypress_SLASH	90	stimuli_distractor_diamondtriangles.svg	stimuli_distractor_trianglediamonds.svg	37	no	57	0	536
6.6.1	win	2022-11-04	12:11:33	12:15:59	265427	631b593a9bb21bb86ea260a7	900033217	1	main_slash	7	main_slash	91	stimuli_target_circlediamonds.svg	stimuli_distractor_trianglediamonds.svg	2	yes	53	1	552
6.6.1	win	2022-11-04	12:11:33	12:15:59	265427	631b593a9bb21bb86ea260a7	900033217	1	main_slash	7	advance_on_keypress_SLASH	92	stimuli_target_circlediamonds.svg	stimuli_distractor_trianglediamonds.svg	2	yes	57	0	81
6.6.1	win	2022-11-04	12:11:33	12:16:01	266763	631b593a9bb21bb86ea260a7	900033217	1	main_slash	7	main_slash	93	stimuli_distractor_diamondtriangles.svg	stimuli_target_circlediamonds.svg	14	yes	53	1	638
6.6.1	win	2022-11-04	12:11:33	12:16:01	266763	631b593a9bb21bb86ea260a7	900033217	1	main_slash	7	advance_on_keypress_SLASH	94	stimuli_distractor_diamondtriangles.svg	stimuli_target_circlediamonds.svg	14	yes	57	0	64
6.6.1	win	2022-11-04	12:11:33	12:16:02	268125	631b593a9bb21bb86ea260a7	900033217	1	main_slash	7	main_slash	95	stimuli_target_diamondsquares.svg	stimuli_distractor_trianglediamonds.svg	20	yes	53	1	681
6.6.1	win	2022-11-04	12:11:33	12:16:02	268125	631b593a9bb21bb86ea260a7	900033217	1	main_slash	7	advance_on_keypress_SLASH	96	stimuli_target_diamondsquares.svg	stimuli_distractor_trianglediamonds.svg	20	yes	57	0	90
6.6.1	win	2022-11-04	12:11:33	12:16:03	269474	631b593a9bb21bb86ea260a7	900033217	1	main_slash	7	main_slash	97	stimuli_target_circletriangles.svg	stimuli_distractor_diamondtriangles.svg	5	yes	53	1	641
6.6.1	win	2022-11-04	12:11:33	12:16:03	269474	631b593a9bb21bb86ea260a7	900033217	1	main_slash	7	advance_on_keypress_SLASH	98	stimuli_target_circletriangles.svg	stimuli_distractor_diamondtriangles.svg	5	yes	57	0	103
6.6.1	win	2022-11-04	12:11:33	12:16:05	271090	631b593a9bb21bb86ea260a7	900033217	1	main_slash	7	main_slash	99	stimuli_distractor_trianglediamonds.svg	stimuli_target_squarediamonds.svg	12	yes	53	1	895
6.6.1	win	2022-11-04	12:11:33	12:16:05	271090	631b593a9bb21bb86ea260a7	900033217	1	main_slash	7	advance_on_keypress_SLASH	100	stimuli_distractor_trianglediamonds.svg	stimuli_target_squarediamonds.svg	12	yes	57	0	117
6.6.1	win	2022-11-04	12:11:33	12:16:08	273834	631b593a9bb21bb86ea260a7	900033217	1	main_slash	7	main_slash	101	stimuli_distractor_diamondtriangles.svg	stimuli_distractor_trianglediamonds.svg	38	no	0	1	2003
6.6.1	win	2022-11-04	12:11:33	12:16:08	273834	631b593a9bb21bb86ea260a7	900033217	1	main_slash	7	advance_on_keypress_SLASH	102	stimuli_distractor_diamondtriangles.svg	stimuli_distractor_trianglediamonds.svg	38	no	57	0	541
6.6.1	win	2022-11-04	12:11:33	12:16:10	276072	631b593a9bb21bb86ea260a7	900033217	1	main_slash	7	main_slash	103	stimuli_distractor_diamondtriangles.svg	stimuli_target_diamondsquares.svg	32	yes	53	1	1069
6.6.1	win	2022-11-04	12:11:33	12:16:10	276072	631b593a9bb21bb86ea260a7	900033217	1	main_slash	7	advance_on_keypress_SLASH	104	stimuli_distractor_diamondtriangles.svg	stimuli_target_diamondsquares.svg	32	yes	57	0	110
6.6.1	win	2022-11-04	12:11:33	12:16:12	277642	631b593a9bb21bb86ea260a7	900033217	1	main_slash	7	main_slash	105	stimuli_target_squaretriangles.svg	stimuli_distractor_diamondtriangles.svg	7	yes	53	1	843
6.6.1	win	2022-11-04	12:11:33	12:16:12	277642	631b593a9bb21bb86ea260a7	900033217	1	main_slash	7	advance_on_keypress_SLASH	106	stimuli_target_squaretriangles.svg	stimuli_distractor_diamondtriangles.svg	7	yes	57	0	120
6.6.1	win	2022-11-04	12:11:33	12:16:13	279097	631b593a9bb21bb86ea260a7	900033217	1	main_slash	7	main_slash	107	stimuli_target_squaretriangles.svg	stimuli_distractor_trianglediamonds.svg	3	yes	53	1	722
6.6.1	win	2022-11-04	12:11:33	12:16:13	279097	631b593a9bb21bb86ea260a7	900033217	1	main_slash	7	advance_on_keypress_SLASH	108	stimuli_target_squaretriangles.svg	stimuli_distractor_trianglediamonds.svg	3	yes	57	0	640
6.6.1	win	2022-11-04	12:11:33	12:16:16	282357	631b593a9bb21bb86ea260a7	900033217	1	main_slash	7	main_slash	109	stimuli_distractor_trianglediamonds.svg	stimuli_distractor_diamondtriangles.svg	36	no	0	1	2003
6.6.1	win	2022-11-04	12:11:33	12:16:16	282357	631b593a9bb21bb86ea260a7	900033217	1	main_slash	7	advance_on_keypress_SLASH	110	stimuli_distractor_trianglediamonds.svg	stimuli_distractor_diamondtriangles.svg	36	no	57	0	1085
6.6.1	win	2022-11-04	12:11:33	12:16:19	284639	631b593a9bb21bb86ea260a7	900033217	1	main_slash	7	main_slash	111	stimuli_target_circlediamonds.svg	stimuli_distractor_diamondtriangles.svg	6	yes	53	1	583
6.6.1	win	2022-11-04	12:11:33	12:16:19	284639	631b593a9bb21bb86ea260a7	900033217	1	main_slash	7	advance_on_keypress_SLASH	112	stimuli_target_circlediamonds.svg	stimuli_distractor_diamondtriangles.svg	6	yes	57	0	149
6.6.1	win	2022-11-04	12:11:33	12:16:21	287406	631b593a9bb21bb86ea260a7	900033217	1	main_slash	7	main_slash	113	stimuli_distractor_trianglediamonds.svg	stimuli_distractor_trianglediamonds.svg	33	no	0	1	2003
6.6.1	win	2022-11-04	12:11:33	12:16:21	287406	631b593a9bb21bb86ea260a7	900033217	1	main_slash	7	advance_on_keypress_SLASH	114	stimuli_distractor_trianglediamonds.svg	stimuli_distractor_trianglediamonds.svg	33	no	57	0	93
6.6.1	win	2022-11-04	12:11:33	12:16:23	288706	631b593a9bb21bb86ea260a7	900033217	1	main_slash	7	main_slash	115	stimuli_target_squarediamonds.svg	stimuli_distractor_diamondtriangles.svg	8	yes	53	1	594
6.6.1	win	2022-11-04	12:11:33	12:16:23	288706	631b593a9bb21bb86ea260a7	900033217	1	main_slash	7	advance_on_keypress_SLASH	116	stimuli_target_squarediamonds.svg	stimuli_distractor_diamondtriangles.svg	8	yes	57	0	106
6.6.1	win	2022-11-04	12:11:33	12:16:24	290104	631b593a9bb21bb86ea260a7	900033217	1	main_slash	7	main_slash	117	stimuli_distractor_trianglediamonds.svg	stimuli_target_trianglesquares.svg	26	yes	53	1	680
6.6.1	win	2022-11-04	12:11:33	12:16:24	290104	631b593a9bb21bb86ea260a7	900033217	1	main_slash	7	advance_on_keypress_SLASH	118	stimuli_distractor_trianglediamonds.svg	stimuli_target_trianglesquares.svg	26	yes	57	0	121
6.6.1	win	2022-11-04	12:11:33	12:16:26	291788	631b593a9bb21bb86ea260a7	900033217	1	main_slash	7	main_slash	119	stimuli_target_squarediamonds.svg	stimuli_distractor_trianglediamonds.svg	4	yes	53	1	947
6.6.1	win	2022-11-04	12:11:33	12:16:26	291788	631b593a9bb21bb86ea260a7	900033217	1	main_slash	7	advance_on_keypress_SLASH	120	stimuli_target_squarediamonds.svg	stimuli_distractor_trianglediamonds.svg	4	yes	57	0	125
6.6.1	win	2022-11-04	12:11:33	12:16:29	294532	631b593a9bb21bb86ea260a7	900033217	1	main_slash	7	main_slash	121	stimuli_distractor_trianglediamonds.svg	stimuli_distractor_trianglediamonds.svg	34	no	0	1	2003
6.6.1	win	2022-11-04	12:11:33	12:16:29	294532	631b593a9bb21bb86ea260a7	900033217	1	main_slash	7	advance_on_keypress_SLASH	122	stimuli_distractor_trianglediamonds.svg	stimuli_distractor_trianglediamonds.svg	34	no	57	0	627
6.6.1	win	2022-11-04	12:11:33	12:16:30	296456	631b593a9bb21bb86ea260a7	900033217	1	main_slash	7	main_slash	123	stimuli_distractor_trianglediamonds.svg	stimuli_target_diamondcircles.svg	27	yes	53	1	684
6.6.1	win	2022-11-04	12:11:33	12:16:30	296456	631b593a9bb21bb86ea260a7	900033217	1	main_slash	7	advance_on_keypress_SLASH	124	stimuli_distractor_trianglediamonds.svg	stimuli_target_diamondcircles.svg	27	yes	57	0	79
6.6.1	win	2022-11-04	12:11:33	12:16:33	299150	631b593a9bb21bb86ea260a7	900033217	1	main_slash	7	main_slash	125	stimuli_distractor_trianglediamonds.svg	stimuli_target_diamondsquares.svg	28	yes	0	0	2003
6.6.1	win	2022-11-04	12:11:33	12:16:33	299150	631b593a9bb21bb86ea260a7	900033217	1	main_slash	7	advance_on_keypress_SLASH	126	stimuli_distractor_trianglediamonds.svg	stimuli_target_diamondsquares.svg	28	yes	57	0	2676
6.6.1	win	2022-11-04	12:11:33	12:16:37	303091	631b593a9bb21bb86ea260a7	900033217	1	main_slash	7	main_slash	127	stimuli_target_diamondcircles.svg	stimuli_distractor_trianglediamonds.svg	19	yes	53	1	652
6.6.1	win	2022-11-04	12:11:33	12:16:37	303091	631b593a9bb21bb86ea260a7	900033217	1	main_slash	7	advance_on_keypress_SLASH	128	stimuli_target_diamondcircles.svg	stimuli_distractor_trianglediamonds.svg	19	yes	57	0	93
6.6.1	win	2022-11-04	12:11:33	12:16:38	304362	631b593a9bb21bb86ea260a7	900033217	1	main_slash	7	main_slash	129	stimuli_target_circletriangles.svg	stimuli_distractor_trianglediamonds.svg	1	yes	53	1	561
6.6.1	win	2022-11-04	12:11:33	12:16:38	304362	631b593a9bb21bb86ea260a7	900033217	1	main_slash	7	advance_on_keypress_SLASH	130	stimuli_target_circletriangles.svg	stimuli_distractor_trianglediamonds.svg	1	yes	57	0	94
6.6.1	win	2022-11-04	12:11:33	12:16:40	305999	631b593a9bb21bb86ea260a7	900033217	1	main_slash	7	main_slash	131	stimuli_target_trianglesquares.svg	stimuli_distractor_diamondtriangles.svg	22	yes	53	1	921
6.6.1	win	2022-11-04	12:11:33	12:16:40	305999	631b593a9bb21bb86ea260a7	900033217	1	main_slash	7	advance_on_keypress_SLASH	132	stimuli_target_trianglesquares.svg	stimuli_distractor_diamondtriangles.svg	22	yes	57	0	776
6.6.1	win	2022-11-04	12:11:33	12:16:42	307980	631b593a9bb21bb86ea260a7	900033217	1	main_slash	7	main_slash	133	stimuli_distractor_trianglediamonds.svg	stimuli_target_circlediamonds.svg	10	yes	53	1	583
6.6.1	win	2022-11-04	12:11:33	12:16:42	307980	631b593a9bb21bb86ea260a7	900033217	1	main_slash	7	advance_on_keypress_SLASH	134	stimuli_distractor_trianglediamonds.svg	stimuli_target_circlediamonds.svg	10	yes	57	0	72
6.6.1	win	2022-11-04	12:11:33	12:16:44	309647	631b593a9bb21bb86ea260a7	900033217	1	main_slash	7	main_slash	135	stimuli_target_trianglecircles.svg	stimuli_distractor_diamondtriangles.svg	21	yes	53	1	979
6.6.1	win	2022-11-04	12:11:33	12:16:44	309647	631b593a9bb21bb86ea260a7	900033217	1	main_slash	7	advance_on_keypress_SLASH	136	stimuli_target_trianglecircles.svg	stimuli_distractor_diamondtriangles.svg	21	yes	57	0	91
6.6.1	win	2022-11-04	12:11:33	12:16:45	311029	631b593a9bb21bb86ea260a7	900033217	1	main_slash	7	main_slash	137	stimuli_distractor_trianglediamonds.svg	stimuli_target_trianglecircles.svg	25	yes	53	1	673
6.6.1	win	2022-11-04	12:11:33	12:16:45	311029	631b593a9bb21bb86ea260a7	900033217	1	main_slash	7	advance_on_keypress_SLASH	138	stimuli_distractor_trianglediamonds.svg	stimuli_target_trianglecircles.svg	25	yes	57	0	122
6.6.1	win	2022-11-04	12:11:33	12:16:47	312551	631b593a9bb21bb86ea260a7	900033217	1	main_slash	7	main_slash	139	stimuli_target_trianglesquares.svg	stimuli_distractor_trianglediamonds.svg	18	yes	53	1	779
6.6.1	win	2022-11-04	12:11:33	12:16:47	312551	631b593a9bb21bb86ea260a7	900033217	1	main_slash	7	advance_on_keypress_SLASH	140	stimuli_target_trianglesquares.svg	stimuli_distractor_trianglediamonds.svg	18	yes	57	0	100
6.6.1	win	2022-11-04	12:11:33	12:16:48	313885	631b593a9bb21bb86ea260a7	900033217	1	main_slash	7	main_slash	141	stimuli_distractor_diamondtriangles.svg	stimuli_target_trianglesquares.svg	30	yes	53	1	620
6.6.1	win	2022-11-04	12:11:33	12:16:48	313885	631b593a9bb21bb86ea260a7	900033217	1	main_slash	7	advance_on_keypress_SLASH	142	stimuli_distractor_diamondtriangles.svg	stimuli_target_trianglesquares.svg	30	yes	57	0	90
6.6.1	win	2022-11-04	12:11:33	12:16:49	315432	631b593a9bb21bb86ea260a7	900033217	1	main_slash	7	main_slash	143	stimuli_target_diamondsquares.svg	stimuli_distractor_diamondtriangles.svg	24	yes	53	1	839
6.6.1	win	2022-11-04	12:11:33	12:16:49	315432	631b593a9bb21bb86ea260a7	900033217	1	main_slash	7	advance_on_keypress_SLASH	144	stimuli_target_diamondsquares.svg	stimuli_distractor_diamondtriangles.svg	24	yes	57	0	131
6.6.1	win	2022-11-04	12:11:33	12:16:52	318185	631b593a9bb21bb86ea260a7	900033217	1	main_slash	7	main_slash	145	stimuli_distractor_diamondtriangles.svg	stimuli_target_circletriangles.svg	13	yes	0	0	2003
6.6.1	win	2022-11-04	12:11:33	12:16:52	318185	631b593a9bb21bb86ea260a7	900033217	1	main_slash	7	advance_on_keypress_SLASH	146	stimuli_distractor_diamondtriangles.svg	stimuli_target_circletriangles.svg	13	yes	57	0	512
6.6.1	win	2022-11-04	12:11:33	12:16:55	321317	631b593a9bb21bb86ea260a7	900033217	1	main_slash	7	main_slash	147	stimuli_distractor_diamondtriangles.svg	stimuli_distractor_diamondtriangles.svg	39	no	0	1	2003
6.6.1	win	2022-11-04	12:11:33	12:16:55	321317	631b593a9bb21bb86ea260a7	900033217	1	main_slash	7	advance_on_keypress_SLASH	148	stimuli_distractor_diamondtriangles.svg	stimuli_distractor_diamondtriangles.svg	39	no	57	0	413
6.6.1	win	2022-11-04	12:11:33	12:16:57	322929	631b593a9bb21bb86ea260a7	900033217	1	main_slash	7	main_slash	149	stimuli_distractor_diamondtriangles.svg	stimuli_target_squarediamonds.svg	16	yes	53	1	587
6.6.1	win	2022-11-04	12:11:33	12:16:57	322929	631b593a9bb21bb86ea260a7	900033217	1	main_slash	7	advance_on_keypress_SLASH	150	stimuli_distractor_diamondtriangles.svg	stimuli_target_squarediamonds.svg	16	yes	57	0	117
6.6.1	win	2022-11-04	12:11:33	12:16:58	324280	631b593a9bb21bb86ea260a7	900033217	1	main_slash	7	main_slash	151	stimuli_distractor_diamondtriangles.svg	stimuli_target_squaretriangles.svg	15	yes	53	1	618
6.6.1	win	2022-11-04	12:11:33	12:16:58	324280	631b593a9bb21bb86ea260a7	900033217	1	main_slash	7	advance_on_keypress_SLASH	152	stimuli_distractor_diamondtriangles.svg	stimuli_target_squaretriangles.svg	15	yes	57	0	112
6.6.1	win	2022-11-04	12:11:33	12:17:01	327012	631b593a9bb21bb86ea260a7	900033217	1	main_slash	7	main_slash	153	stimuli_target_diamondcircles.svg	stimuli_distractor_diamondtriangles.svg	23	yes	0	0	2003
6.6.1	win	2022-11-04	12:11:33	12:17:01	327012	631b593a9bb21bb86ea260a7	900033217	1	main_slash	7	advance_on_keypress_SLASH	154	stimuli_target_diamondcircles.svg	stimuli_distractor_diamondtriangles.svg	23	yes	57	0	216
6.6.1	win	2022-11-04	12:11:33	12:17:02	328467	631b593a9bb21bb86ea260a7	900033217	1	main_slash	7	main_slash	155	stimuli_target_trianglecircles.svg	stimuli_distractor_trianglediamonds.svg	17	yes	53	1	624
6.6.1	win	2022-11-04	12:11:33	12:17:02	328467	631b593a9bb21bb86ea260a7	900033217	1	main_slash	7	advance_on_keypress_SLASH	156	stimuli_target_trianglecircles.svg	stimuli_distractor_trianglediamonds.svg	17	yes	57	0	61
6.6.1	win	2022-11-04	12:11:33	12:17:04	329579	631b593a9bb21bb86ea260a7	900033217	1	main_slash	7	main_slash	157	stimuli_distractor_diamondtriangles.svg	stimuli_target_trianglecircles.svg	29	yes	53	1	431
6.6.1	win	2022-11-04	12:11:33	12:17:04	329579	631b593a9bb21bb86ea260a7	900033217	1	main_slash	7	advance_on_keypress_SLASH	158	stimuli_distractor_diamondtriangles.svg	stimuli_target_trianglecircles.svg	29	yes	57	0	88
6.6.1	win	2022-11-04	12:11:33	12:17:05	330774	631b593a9bb21bb86ea260a7	900033217	1	main_slash	7	main_slash	159	stimuli_distractor_diamondtriangles.svg	stimuli_target_diamondcircles.svg	31	yes	53	1	487
6.6.1	win	2022-11-04	12:11:33	12:17:05	330774	631b593a9bb21bb86ea260a7	900033217	1	main_slash	7	advance_on_keypress_SLASH	160	stimuli_distractor_diamondtriangles.svg	stimuli_target_diamondcircles.svg	31	yes	57	0	95
6.6.1	win	2022-11-04	12:11:33	12:22:00	626471	631b593a9bb21bb86ea260a7	900033217	1	practice_z	9	practice_z	1	stimuli_target_diamondsquares.svg	stimuli_distractor_diamondtriangles.svg	3	yes	44	1	603
6.6.1	win	2022-11-04	12:11:33	12:22:00	626471	631b593a9bb21bb86ea260a7	900033217	1	practice_z	9	advance_on_keypress_ZEE	2	stimuli_target_diamondsquares.svg	stimuli_distractor_diamondtriangles.svg	3	yes	57	0	240
6.6.1	win	2022-11-04	12:11:33	12:22:04	630336	631b593a9bb21bb86ea260a7	900033217	1	practice_z	9	practice_z	3	stimuli_distractor_trianglediamonds.svg	stimuli_distractor_diamondtriangles.svg	16	no	0	1	2003
6.6.1	win	2022-11-04	12:11:33	12:22:04	630336	631b593a9bb21bb86ea260a7	900033217	1	practice_z	9	advance_on_keypress_ZEE	4	stimuli_distractor_trianglediamonds.svg	stimuli_distractor_diamondtriangles.svg	16	no	57	0	297
6.6.1	win	2022-11-04	12:11:33	12:22:07	632807	631b593a9bb21bb86ea260a7	900033217	1	practice_z	9	practice_z	5	stimuli_distractor_diamondtriangles.svg	stimuli_target_diamondcircles.svg	8	yes	44	1	550
6.6.1	win	2022-11-04	12:11:33	12:22:07	632807	631b593a9bb21bb86ea260a7	900033217	1	practice_z	9	advance_on_keypress_ZEE	6	stimuli_distractor_diamondtriangles.svg	stimuli_target_diamondcircles.svg	8	yes	57	0	467
6.6.1	win	2022-11-04	12:11:33	12:22:09	635465	631b593a9bb21bb86ea260a7	900033217	1	practice_z	9	practice_z	7	stimuli_distractor_trianglediamonds.svg	stimuli_target_squarediamonds.svg	11	yes	44	1	576
6.6.1	win	2022-11-04	12:11:33	12:22:09	635465	631b593a9bb21bb86ea260a7	900033217	1	practice_z	9	advance_on_keypress_ZEE	8	stimuli_distractor_trianglediamonds.svg	stimuli_target_squarediamonds.svg	11	yes	57	0	139
6.6.1	win	2022-11-04	12:11:33	12:22:13	639225	631b593a9bb21bb86ea260a7	900033217	1	practice_z	9	practice_z	9	stimuli_distractor_diamondtriangles.svg	stimuli_distractor_diamondtriangles.svg	13	no	0	1	2003
6.6.1	win	2022-11-04	12:11:33	12:22:13	639225	631b593a9bb21bb86ea260a7	900033217	1	practice_z	9	advance_on_keypress_ZEE	10	stimuli_distractor_diamondtriangles.svg	stimuli_distractor_diamondtriangles.svg	13	no	57	0	136
6.6.1	win	2022-11-04	12:11:33	12:22:16	641653	631b593a9bb21bb86ea260a7	900033217	1	practice_z	9	practice_z	11	stimuli_distractor_diamondtriangles.svg	stimuli_target_trianglecircles.svg	9	yes	44	1	668
6.6.1	win	2022-11-04	12:11:33	12:22:16	641653	631b593a9bb21bb86ea260a7	900033217	1	practice_z	9	advance_on_keypress_ZEE	12	stimuli_distractor_diamondtriangles.svg	stimuli_target_trianglecircles.svg	9	yes	57	0	137
6.6.1	win	2022-11-04	12:11:33	12:22:18	644125	631b593a9bb21bb86ea260a7	900033217	1	practice_z	9	practice_z	13	stimuli_distractor_trianglediamonds.svg	stimuli_target_diamondcircles.svg	12	yes	44	1	715
6.6.1	win	2022-11-04	12:11:33	12:22:18	644125	631b593a9bb21bb86ea260a7	900033217	1	practice_z	9	advance_on_keypress_ZEE	14	stimuli_distractor_trianglediamonds.svg	stimuli_target_diamondcircles.svg	12	yes	57	0	134
6.6.1	win	2022-11-04	12:11:33	12:22:21	646528	631b593a9bb21bb86ea260a7	900033217	1	practice_z	9	practice_z	15	stimuli_distractor_diamondtriangles.svg	stimuli_target_circletriangles.svg	7	yes	44	1	654
6.6.1	win	2022-11-04	12:11:33	12:22:21	646528	631b593a9bb21bb86ea260a7	900033217	1	practice_z	9	advance_on_keypress_ZEE	16	stimuli_distractor_diamondtriangles.svg	stimuli_target_circletriangles.svg	7	yes	57	0	61
6.6.1	win	2022-11-04	12:11:33	12:22:24	650211	631b593a9bb21bb86ea260a7	900033217	1	practice_z	9	practice_z	17	stimuli_target_diamondsquares.svg	stimuli_distractor_trianglediamonds.svg	6	yes	0	0	2003
6.6.1	win	2022-11-04	12:11:33	12:22:24	650211	631b593a9bb21bb86ea260a7	900033217	1	practice_z	9	advance_on_keypress_ZEE	18	stimuli_target_diamondsquares.svg	stimuli_distractor_trianglediamonds.svg	6	yes	57	0	155
6.6.1	win	2022-11-04	12:11:33	12:22:28	653594	631b593a9bb21bb86ea260a7	900033217	1	practice_z	9	practice_z	19	stimuli_distractor_trianglediamonds.svg	stimuli_distractor_trianglediamonds.svg	15	no	44	0	1608
6.6.1	win	2022-11-04	12:11:33	12:22:28	653594	631b593a9bb21bb86ea260a7	900033217	1	practice_z	9	advance_on_keypress_ZEE	20	stimuli_distractor_trianglediamonds.svg	stimuli_distractor_trianglediamonds.svg	15	no	57	0	82
6.6.1	win	2022-11-04	12:11:33	12:22:30	655878	631b593a9bb21bb86ea260a7	900033217	1	practice_z	9	practice_z	21	stimuli_distractor_trianglediamonds.svg	stimuli_target_circlediamonds.svg	10	yes	44	1	580
6.6.1	win	2022-11-04	12:11:33	12:22:30	655878	631b593a9bb21bb86ea260a7	900033217	1	practice_z	9	advance_on_keypress_ZEE	22	stimuli_distractor_trianglediamonds.svg	stimuli_target_circlediamonds.svg	10	yes	57	0	146
6.6.1	win	2022-11-04	12:11:33	12:22:32	658281	631b593a9bb21bb86ea260a7	900033217	1	practice_z	9	practice_z	23	stimuli_target_squarediamonds.svg	stimuli_distractor_diamondtriangles.svg	2	yes	44	1	635
6.6.1	win	2022-11-04	12:11:33	12:22:32	658281	631b593a9bb21bb86ea260a7	900033217	1	practice_z	9	advance_on_keypress_ZEE	24	stimuli_target_squarediamonds.svg	stimuli_distractor_diamondtriangles.svg	2	yes	57	0	83
6.6.1	win	2022-11-04	12:11:33	12:22:35	660605	631b593a9bb21bb86ea260a7	900033217	1	practice_z	9	practice_z	25	stimuli_target_circlediamonds.svg	stimuli_distractor_diamondtriangles.svg	1	yes	44	1	619
6.6.1	win	2022-11-04	12:11:33	12:22:35	660605	631b593a9bb21bb86ea260a7	900033217	1	practice_z	9	advance_on_keypress_ZEE	26	stimuli_target_circlediamonds.svg	stimuli_distractor_diamondtriangles.svg	1	yes	57	0	188
6.6.1	win	2022-11-04	12:11:33	12:22:37	662950	631b593a9bb21bb86ea260a7	900033217	1	practice_z	9	practice_z	27	stimuli_target_circlediamonds.svg	stimuli_distractor_trianglediamonds.svg	4	yes	44	1	539
6.6.1	win	2022-11-04	12:11:33	12:22:37	662950	631b593a9bb21bb86ea260a7	900033217	1	practice_z	9	advance_on_keypress_ZEE	28	stimuli_target_circlediamonds.svg	stimuli_distractor_trianglediamonds.svg	4	yes	57	0	124
6.6.1	win	2022-11-04	12:11:33	12:22:39	665256	631b593a9bb21bb86ea260a7	900033217	1	practice_z	9	practice_z	29	stimuli_target_squarediamonds.svg	stimuli_distractor_trianglediamonds.svg	5	yes	44	1	561
6.6.1	win	2022-11-04	12:11:33	12:22:39	665256	631b593a9bb21bb86ea260a7	900033217	1	practice_z	9	advance_on_keypress_ZEE	30	stimuli_target_squarediamonds.svg	stimuli_distractor_trianglediamonds.svg	5	yes	57	0	1058
6.6.1	win	2022-11-04	12:11:33	12:22:44	669934	631b593a9bb21bb86ea260a7	900033217	1	practice_z	9	practice_z	31	stimuli_distractor_diamondtriangles.svg	stimuli_distractor_trianglediamonds.svg	14	no	0	1	2003
6.6.1	win	2022-11-04	12:11:33	12:22:44	669934	631b593a9bb21bb86ea260a7	900033217	1	practice_z	9	advance_on_keypress_ZEE	32	stimuli_distractor_diamondtriangles.svg	stimuli_distractor_trianglediamonds.svg	14	no	57	0	46
6.6.1	win	2022-11-04	12:11:33	12:22:47	672526	631b593a9bb21bb86ea260a7	900033217	1	main_z	11	main_z	1	stimuli_distractor_diamondtriangles.svg	stimuli_target_trianglecircles.svg	29	yes	44	1	631
6.6.1	win	2022-11-04	12:11:33	12:22:47	672526	631b593a9bb21bb86ea260a7	900033217	1	main_z	11	advance_on_keypress_ZEE	2	stimuli_distractor_diamondtriangles.svg	stimuli_target_trianglecircles.svg	29	yes	57	0	175
6.6.1	win	2022-11-04	12:11:33	12:22:48	673983	631b593a9bb21bb86ea260a7	900033217	1	main_z	11	main_z	3	stimuli_distractor_trianglediamonds.svg	stimuli_target_trianglesquares.svg	26	yes	44	1	664
6.6.1	win	2022-11-04	12:11:33	12:22:48	673983	631b593a9bb21bb86ea260a7	900033217	1	main_z	11	advance_on_keypress_ZEE	4	stimuli_distractor_trianglediamonds.svg	stimuli_target_trianglesquares.svg	26	yes	57	0	98
6.6.1	win	2022-11-04	12:11:33	12:22:49	675495	631b593a9bb21bb86ea260a7	900033217	1	main_z	11	main_z	5	stimuli_distractor_trianglediamonds.svg	stimuli_distractor_diamondtriangles.svg	35	no	44	0	799
6.6.1	win	2022-11-04	12:11:33	12:22:49	675495	631b593a9bb21bb86ea260a7	900033217	1	main_z	11	advance_on_keypress_ZEE	6	stimuli_distractor_trianglediamonds.svg	stimuli_distractor_diamondtriangles.svg	35	no	57	0	92
6.6.1	win	2022-11-04	12:11:33	12:22:52	678204	631b593a9bb21bb86ea260a7	900033217	1	main_z	11	main_z	7	stimuli_target_diamondsquares.svg	stimuli_distractor_trianglediamonds.svg	20	yes	0	0	2003
6.6.1	win	2022-11-04	12:11:33	12:22:52	678204	631b593a9bb21bb86ea260a7	900033217	1	main_z	11	advance_on_keypress_ZEE	8	stimuli_target_diamondsquares.svg	stimuli_distractor_trianglediamonds.svg	20	yes	57	0	177
6.6.1	win	2022-11-04	12:11:33	12:22:54	679712	631b593a9bb21bb86ea260a7	900033217	1	main_z	11	main_z	9	stimuli_distractor_trianglediamonds.svg	stimuli_distractor_diamondtriangles.svg	36	no	44	0	719
6.6.1	win	2022-11-04	12:11:33	12:22:54	679712	631b593a9bb21bb86ea260a7	900033217	1	main_z	11	advance_on_keypress_ZEE	10	stimuli_distractor_trianglediamonds.svg	stimuli_distractor_diamondtriangles.svg	36	no	57	0	58
6.6.1	win	2022-11-04	12:11:33	12:22:55	681084	631b593a9bb21bb86ea260a7	900033217	1	main_z	11	main_z	11	stimuli_distractor_trianglediamonds.svg	stimuli_target_diamondsquares.svg	28	yes	44	1	703
6.6.1	win	2022-11-04	12:11:33	12:22:55	681084	631b593a9bb21bb86ea260a7	900033217	1	main_z	11	advance_on_keypress_ZEE	12	stimuli_distractor_trianglediamonds.svg	stimuli_target_diamondsquares.svg	28	yes	57	0	196
6.6.1	win	2022-11-04	12:11:33	12:22:57	682555	631b593a9bb21bb86ea260a7	900033217	1	main_z	11	main_z	13	stimuli_target_diamondcircles.svg	stimuli_distractor_trianglediamonds.svg	19	yes	44	1	660
6.6.1	win	2022-11-04	12:11:33	12:22:57	682555	631b593a9bb21bb86ea260a7	900033217	1	main_z	11	advance_on_keypress_ZEE	14	stimuli_target_diamondcircles.svg	stimuli_distractor_trianglediamonds.svg	19	yes	57	0	113
6.6.1	win	2022-11-04	12:11:33	12:22:59	685287	631b593a9bb21bb86ea260a7	900033217	1	main_z	11	main_z	15	stimuli_distractor_trianglediamonds.svg	stimuli_distractor_trianglediamonds.svg	33	no	0	1	2003
6.6.1	win	2022-11-04	12:11:33	12:22:59	685287	631b593a9bb21bb86ea260a7	900033217	1	main_z	11	advance_on_keypress_ZEE	16	stimuli_distractor_trianglediamonds.svg	stimuli_distractor_trianglediamonds.svg	33	no	57	0	121
6.6.1	win	2022-11-04	12:11:33	12:23:01	686564	631b593a9bb21bb86ea260a7	900033217	1	main_z	11	main_z	17	stimuli_target_squarediamonds.svg	stimuli_distractor_trianglediamonds.svg	4	yes	44	1	543
6.6.1	win	2022-11-04	12:11:33	12:23:01	686564	631b593a9bb21bb86ea260a7	900033217	1	main_z	11	advance_on_keypress_ZEE	18	stimuli_target_squarediamonds.svg	stimuli_distractor_trianglediamonds.svg	4	yes	57	0	56
6.6.1	win	2022-11-04	12:11:33	12:23:02	687840	631b593a9bb21bb86ea260a7	900033217	1	main_z	11	main_z	19	stimuli_distractor_trianglediamonds.svg	stimuli_target_circletriangles.svg	9	yes	44	1	604
6.6.1	win	2022-11-04	12:11:33	12:23:02	687840	631b593a9bb21bb86ea260a7	900033217	1	main_z	11	advance_on_keypress_ZEE	20	stimuli_distractor_trianglediamonds.svg	stimuli_target_circletriangles.svg	9	yes	57	0	113
6.6.1	win	2022-11-04	12:11:33	12:23:03	689442	631b593a9bb21bb86ea260a7	900033217	1	main_z	11	main_z	21	stimuli_target_trianglesquares.svg	stimuli_distractor_trianglediamonds.svg	18	yes	44	1	873
6.6.1	win	2022-11-04	12:11:33	12:23:03	689442	631b593a9bb21bb86ea260a7	900033217	1	main_z	11	advance_on_keypress_ZEE	22	stimuli_target_trianglesquares.svg	stimuli_distractor_trianglediamonds.svg	18	yes	57	0	8
6.6.1	win	2022-11-04	12:11:33	12:23:05	690746	631b593a9bb21bb86ea260a7	900033217	1	main_z	11	main_z	23	stimuli_target_trianglecircles.svg	stimuli_distractor_trianglediamonds.svg	17	yes	44	1	670
6.6.1	win	2022-11-04	12:11:33	12:23:05	690746	631b593a9bb21bb86ea260a7	900033217	1	main_z	11	advance_on_keypress_ZEE	24	stimuli_target_trianglecircles.svg	stimuli_distractor_trianglediamonds.svg	17	yes	57	0	79
6.6.1	win	2022-11-04	12:11:33	12:23:06	692418	631b593a9bb21bb86ea260a7	900033217	1	main_z	11	main_z	25	stimuli_target_diamondcircles.svg	stimuli_distractor_diamondtriangles.svg	23	yes	44	1	981
6.6.1	win	2022-11-04	12:11:33	12:23:06	692418	631b593a9bb21bb86ea260a7	900033217	1	main_z	11	advance_on_keypress_ZEE	26	stimuli_target_diamondcircles.svg	stimuli_distractor_diamondtriangles.svg	23	yes	57	0	51
6.6.1	win	2022-11-04	12:11:33	12:23:08	693809	631b593a9bb21bb86ea260a7	900033217	1	main_z	11	main_z	27	stimuli_target_circlediamonds.svg	stimuli_distractor_diamondtriangles.svg	6	yes	44	1	726
6.6.1	win	2022-11-04	12:11:33	12:23:08	693809	631b593a9bb21bb86ea260a7	900033217	1	main_z	11	advance_on_keypress_ZEE	28	stimuli_target_circlediamonds.svg	stimuli_distractor_diamondtriangles.svg	6	yes	57	0	151
6.6.1	win	2022-11-04	12:11:33	12:23:09	695217	631b593a9bb21bb86ea260a7	900033217	1	main_z	11	main_z	29	stimuli_target_circletriangles.svg	stimuli_distractor_diamondtriangles.svg	5	yes	44	1	642
6.6.1	win	2022-11-04	12:11:33	12:23:09	695217	631b593a9bb21bb86ea260a7	900033217	1	main_z	11	advance_on_keypress_ZEE	30	stimuli_target_circletriangles.svg	stimuli_distractor_diamondtriangles.svg	5	yes	57	0	145
6.6.1	win	2022-11-04	12:11:33	12:23:11	696650	631b593a9bb21bb86ea260a7	900033217	1	main_z	11	main_z	31	stimuli_target_squaretriangles.svg	stimuli_distractor_trianglediamonds.svg	3	yes	44	1	672
6.6.1	win	2022-11-04	12:11:33	12:23:11	696650	631b593a9bb21bb86ea260a7	900033217	1	main_z	11	advance_on_keypress_ZEE	32	stimuli_target_squaretriangles.svg	stimuli_distractor_trianglediamonds.svg	3	yes	57	0	126
6.6.1	win	2022-11-04	12:11:33	12:23:12	698025	631b593a9bb21bb86ea260a7	900033217	1	main_z	11	main_z	33	stimuli_target_circletriangles.svg	stimuli_distractor_trianglediamonds.svg	1	yes	44	1	629
6.6.1	win	2022-11-04	12:11:33	12:23:12	698025	631b593a9bb21bb86ea260a7	900033217	1	main_z	11	advance_on_keypress_ZEE	34	stimuli_target_circletriangles.svg	stimuli_distractor_trianglediamonds.svg	1	yes	57	0	32
6.6.1	win	2022-11-04	12:11:33	12:23:13	699309	631b593a9bb21bb86ea260a7	900033217	1	main_z	11	main_z	35	stimuli_target_circlediamonds.svg	stimuli_distractor_trianglediamonds.svg	2	yes	44	1	636
6.6.1	win	2022-11-04	12:11:33	12:23:13	699309	631b593a9bb21bb86ea260a7	900033217	1	main_z	11	advance_on_keypress_ZEE	36	stimuli_target_circlediamonds.svg	stimuli_distractor_trianglediamonds.svg	2	yes	57	0	71
6.6.1	win	2022-11-04	12:11:33	12:23:15	700676	631b593a9bb21bb86ea260a7	900033217	1	main_z	11	main_z	37	stimuli_distractor_trianglediamonds.svg	stimuli_target_diamondcircles.svg	27	yes	44	1	683
6.6.1	win	2022-11-04	12:11:33	12:23:15	700676	631b593a9bb21bb86ea260a7	900033217	1	main_z	11	advance_on_keypress_ZEE	38	stimuli_distractor_trianglediamonds.svg	stimuli_target_diamondcircles.svg	27	yes	57	0	125
6.6.1	win	2022-11-04	12:11:33	12:23:16	701997	631b593a9bb21bb86ea260a7	900033217	1	main_z	11	main_z	39	stimuli_target_squaretriangles.svg	stimuli_distractor_diamondtriangles.svg	7	yes	44	1	580
6.6.1	win	2022-11-04	12:11:33	12:23:16	701997	631b593a9bb21bb86ea260a7	900033217	1	main_z	11	advance_on_keypress_ZEE	40	stimuli_target_squaretriangles.svg	stimuli_distractor_diamondtriangles.svg	7	yes	57	0	122
6.6.1	win	2022-11-04	12:11:33	12:23:17	703377	631b593a9bb21bb86ea260a7	900033217	1	main_z	11	main_z	41	stimuli_distractor_diamondtriangles.svg	stimuli_target_trianglesquares.svg	30	yes	44	1	648
6.6.1	win	2022-11-04	12:11:33	12:23:17	703377	631b593a9bb21bb86ea260a7	900033217	1	main_z	11	advance_on_keypress_ZEE	42	stimuli_distractor_diamondtriangles.svg	stimuli_target_trianglesquares.svg	30	yes	57	0	126
6.6.1	win	2022-11-04	12:11:33	12:23:20	706121	631b593a9bb21bb86ea260a7	900033217	1	main_z	11	main_z	43	stimuli_distractor_trianglediamonds.svg	stimuli_distractor_trianglediamonds.svg	34	no	0	1	2003
6.6.1	win	2022-11-04	12:11:33	12:23:20	706121	631b593a9bb21bb86ea260a7	900033217	1	main_z	11	advance_on_keypress_ZEE	44	stimuli_distractor_trianglediamonds.svg	stimuli_distractor_trianglediamonds.svg	34	no	57	0	156
6.6.1	win	2022-11-04	12:11:33	12:23:21	707430	631b593a9bb21bb86ea260a7	900033217	1	main_z	11	main_z	45	stimuli_distractor_trianglediamonds.svg	stimuli_target_circlediamonds.svg	10	yes	44	1	541
6.6.1	win	2022-11-04	12:11:33	12:23:21	707430	631b593a9bb21bb86ea260a7	900033217	1	main_z	11	advance_on_keypress_ZEE	46	stimuli_distractor_trianglediamonds.svg	stimuli_target_circlediamonds.svg	10	yes	57	0	167
6.6.1	win	2022-11-04	12:11:33	12:23:24	710219	631b593a9bb21bb86ea260a7	900033217	1	main_z	11	main_z	47	stimuli_distractor_diamondtriangles.svg	stimuli_distractor_diamondtriangles.svg	39	no	0	1	2003
6.6.1	win	2022-11-04	12:11:33	12:23:24	710219	631b593a9bb21bb86ea260a7	900033217	1	main_z	11	advance_on_keypress_ZEE	48	stimuli_distractor_diamondtriangles.svg	stimuli_distractor_diamondtriangles.svg	39	no	57	0	129
6.6.1	win	2022-11-04	12:11:33	12:23:26	711683	631b593a9bb21bb86ea260a7	900033217	1	main_z	11	main_z	49	stimuli_target_diamondsquares.svg	stimuli_distractor_diamondtriangles.svg	24	yes	44	1	725
6.6.1	win	2022-11-04	12:11:33	12:23:26	711683	631b593a9bb21bb86ea260a7	900033217	1	main_z	11	advance_on_keypress_ZEE	50	stimuli_target_diamondsquares.svg	stimuli_distractor_diamondtriangles.svg	24	yes	57	0	100
6.6.1	win	2022-11-04	12:11:33	12:23:27	713028	631b593a9bb21bb86ea260a7	900033217	1	main_z	11	main_z	51	stimuli_distractor_diamondtriangles.svg	stimuli_target_diamondcircles.svg	31	yes	44	1	632
6.6.1	win	2022-11-04	12:11:33	12:23:27	713028	631b593a9bb21bb86ea260a7	900033217	1	main_z	11	advance_on_keypress_ZEE	52	stimuli_distractor_diamondtriangles.svg	stimuli_target_diamondcircles.svg	31	yes	57	0	119
6.6.1	win	2022-11-04	12:11:33	12:23:28	714357	631b593a9bb21bb86ea260a7	900033217	1	main_z	11	main_z	53	stimuli_distractor_trianglediamonds.svg	stimuli_target_squarediamonds.svg	12	yes	44	1	593
6.6.1	win	2022-11-04	12:11:33	12:23:28	714357	631b593a9bb21bb86ea260a7	900033217	1	main_z	11	advance_on_keypress_ZEE	54	stimuli_distractor_trianglediamonds.svg	stimuli_target_squarediamonds.svg	12	yes	57	0	77
6.6.1	win	2022-11-04	12:11:33	12:23:30	715729	631b593a9bb21bb86ea260a7	900033217	1	main_z	11	main_z	55	stimuli_distractor_diamondtriangles.svg	stimuli_target_circlediamonds.svg	14	yes	44	1	680
6.6.1	win	2022-11-04	12:11:33	12:23:30	715729	631b593a9bb21bb86ea260a7	900033217	1	main_z	11	advance_on_keypress_ZEE	56	stimuli_distractor_diamondtriangles.svg	stimuli_target_circlediamonds.svg	14	yes	57	0	178
6.6.1	win	2022-11-04	12:11:33	12:23:31	717222	631b593a9bb21bb86ea260a7	900033217	1	main_z	11	main_z	57	stimuli_target_trianglecircles.svg	stimuli_distractor_diamondtriangles.svg	21	yes	44	1	693
6.6.1	win	2022-11-04	12:11:33	12:23:31	717222	631b593a9bb21bb86ea260a7	900033217	1	main_z	11	advance_on_keypress_ZEE	58	stimuli_target_trianglecircles.svg	stimuli_distractor_diamondtriangles.svg	21	yes	57	0	138
6.6.1	win	2022-11-04	12:11:33	12:23:33	718619	631b593a9bb21bb86ea260a7	900033217	1	main_z	11	main_z	59	stimuli_distractor_diamondtriangles.svg	stimuli_target_diamondsquares.svg	32	yes	44	1	639
6.6.1	win	2022-11-04	12:11:33	12:23:33	718619	631b593a9bb21bb86ea260a7	900033217	1	main_z	11	advance_on_keypress_ZEE	60	stimuli_distractor_diamondtriangles.svg	stimuli_target_diamondsquares.svg	32	yes	57	0	116
6.6.1	win	2022-11-04	12:11:33	12:23:35	721358	631b593a9bb21bb86ea260a7	900033217	1	main_z	11	main_z	61	stimuli_distractor_diamondtriangles.svg	stimuli_distractor_trianglediamonds.svg	37	no	0	1	2003
6.6.1	win	2022-11-04	12:11:33	12:23:35	721358	631b593a9bb21bb86ea260a7	900033217	1	main_z	11	advance_on_keypress_ZEE	62	stimuli_distractor_diamondtriangles.svg	stimuli_distractor_trianglediamonds.svg	37	no	57	0	117
6.6.1	win	2022-11-04	12:11:33	12:23:37	722692	631b593a9bb21bb86ea260a7	900033217	1	main_z	11	main_z	63	stimuli_distractor_diamondtriangles.svg	stimuli_target_circletriangles.svg	13	yes	44	1	601
6.6.1	win	2022-11-04	12:11:33	12:23:37	722692	631b593a9bb21bb86ea260a7	900033217	1	main_z	11	advance_on_keypress_ZEE	64	stimuli_distractor_diamondtriangles.svg	stimuli_target_circletriangles.svg	13	yes	57	0	160
6.6.1	win	2022-11-04	12:11:33	12:23:38	724156	631b593a9bb21bb86ea260a7	900033217	1	main_z	11	main_z	65	stimuli_distractor_trianglediamonds.svg	stimuli_target_squaretriangles.svg	11	yes	44	1	691
6.6.1	win	2022-11-04	12:11:33	12:23:38	724156	631b593a9bb21bb86ea260a7	900033217	1	main_z	11	advance_on_keypress_ZEE	66	stimuli_distractor_trianglediamonds.svg	stimuli_target_squaretriangles.svg	11	yes	57	0	153
6.6.1	win	2022-11-04	12:11:33	12:23:41	726928	631b593a9bb21bb86ea260a7	900033217	1	main_z	11	main_z	67	stimuli_target_trianglesquares.svg	stimuli_distractor_diamondtriangles.svg	22	yes	0	0	2003
6.6.1	win	2022-11-04	12:11:33	12:23:41	726928	631b593a9bb21bb86ea260a7	900033217	1	main_z	11	advance_on_keypress_ZEE	68	stimuli_target_trianglesquares.svg	stimuli_distractor_diamondtriangles.svg	22	yes	57	0	34
6.6.1	win	2022-11-04	12:11:33	12:23:42	728170	631b593a9bb21bb86ea260a7	900033217	1	main_z	11	main_z	69	stimuli_distractor_trianglediamonds.svg	stimuli_target_trianglecircles.svg	25	yes	44	1	594
6.6.1	win	2022-11-04	12:11:33	12:23:42	728170	631b593a9bb21bb86ea260a7	900033217	1	main_z	11	advance_on_keypress_ZEE	70	stimuli_distractor_trianglediamonds.svg	stimuli_target_trianglecircles.svg	25	yes	57	0	138
6.6.1	win	2022-11-04	12:11:33	12:23:44	729608	631b593a9bb21bb86ea260a7	900033217	1	main_z	11	main_z	71	stimuli_target_squarediamonds.svg	stimuli_distractor_diamondtriangles.svg	8	yes	44	1	684
6.6.1	win	2022-11-04	12:11:33	12:23:44	729608	631b593a9bb21bb86ea260a7	900033217	1	main_z	11	advance_on_keypress_ZEE	72	stimuli_target_squarediamonds.svg	stimuli_distractor_diamondtriangles.svg	8	yes	57	0	145
6.6.1	win	2022-11-04	12:11:33	12:23:45	731011	631b593a9bb21bb86ea260a7	900033217	1	main_z	11	main_z	73	stimuli_distractor_diamondtriangles.svg	stimuli_target_squaretriangles.svg	15	yes	44	1	642
6.6.1	win	2022-11-04	12:11:33	12:23:45	731011	631b593a9bb21bb86ea260a7	900033217	1	main_z	11	advance_on_keypress_ZEE	74	stimuli_distractor_diamondtriangles.svg	stimuli_target_squaretriangles.svg	15	yes	57	0	85
6.6.1	win	2022-11-04	12:11:33	12:23:48	733713	631b593a9bb21bb86ea260a7	900033217	1	main_z	11	main_z	75	stimuli_distractor_diamondtriangles.svg	stimuli_distractor_diamondtriangles.svg	40	no	0	1	2003
6.6.1	win	2022-11-04	12:11:33	12:23:48	733713	631b593a9bb21bb86ea260a7	900033217	1	main_z	11	advance_on_keypress_ZEE	76	stimuli_distractor_diamondtriangles.svg	stimuli_distractor_diamondtriangles.svg	40	no	57	0	59
6.6.1	win	2022-11-04	12:11:33	12:23:49	735068	631b593a9bb21bb86ea260a7	900033217	1	main_z	11	main_z	77	stimuli_distractor_diamondtriangles.svg	stimuli_distractor_trianglediamonds.svg	38	no	44	0	685
6.6.1	win	2022-11-04	12:11:33	12:23:49	735068	631b593a9bb21bb86ea260a7	900033217	1	main_z	11	advance_on_keypress_ZEE	78	stimuli_distractor_diamondtriangles.svg	stimuli_distractor_trianglediamonds.svg	38	no	57	0	95
6.6.1	win	2022-11-04	12:11:33	12:23:50	736418	631b593a9bb21bb86ea260a7	900033217	1	main_z	11	main_z	79	stimuli_distractor_diamondtriangles.svg	stimuli_target_squarediamonds.svg	16	yes	44	1	625
6.6.1	win	2022-11-04	12:11:33	12:23:50	736418	631b593a9bb21bb86ea260a7	900033217	1	main_z	11	advance_on_keypress_ZEE	80	stimuli_distractor_diamondtriangles.svg	stimuli_target_squarediamonds.svg	16	yes	57	0	141
6.6.1	win	2022-11-04	12:11:33	12:23:52	737911	631b593a9bb21bb86ea260a7	900033217	1	main_z	11	main_z	81	stimuli_target_circlediamonds.svg	stimuli_distractor_diamondtriangles.svg	6	yes	44	1	737
6.6.1	win	2022-11-04	12:11:33	12:23:52	737911	631b593a9bb21bb86ea260a7	900033217	1	main_z	11	advance_on_keypress_ZEE	82	stimuli_target_circlediamonds.svg	stimuli_distractor_diamondtriangles.svg	6	yes	57	0	70
6.6.1	win	2022-11-04	12:11:33	12:23:53	739225	631b593a9bb21bb86ea260a7	900033217	1	main_z	11	main_z	83	stimuli_target_trianglecircles.svg	stimuli_distractor_trianglediamonds.svg	17	yes	44	1	627
6.6.1	win	2022-11-04	12:11:33	12:23:53	739225	631b593a9bb21bb86ea260a7	900033217	1	main_z	11	advance_on_keypress_ZEE	84	stimuli_target_trianglecircles.svg	stimuli_distractor_trianglediamonds.svg	17	yes	57	0	125
6.6.1	win	2022-11-04	12:11:33	12:23:55	740601	631b593a9bb21bb86ea260a7	900033217	1	main_z	11	main_z	85	stimuli_distractor_diamondtriangles.svg	stimuli_target_squarediamonds.svg	16	yes	44	1	635
6.6.1	win	2022-11-04	12:11:33	12:23:55	740601	631b593a9bb21bb86ea260a7	900033217	1	main_z	11	advance_on_keypress_ZEE	86	stimuli_distractor_diamondtriangles.svg	stimuli_target_squarediamonds.svg	16	yes	57	0	157
6.6.1	win	2022-11-04	12:11:33	12:23:56	741932	631b593a9bb21bb86ea260a7	900033217	1	main_z	11	main_z	87	stimuli_distractor_diamondtriangles.svg	stimuli_target_circlediamonds.svg	14	yes	44	1	556
6.6.1	win	2022-11-04	12:11:33	12:23:56	741932	631b593a9bb21bb86ea260a7	900033217	1	main_z	11	advance_on_keypress_ZEE	88	stimuli_distractor_diamondtriangles.svg	stimuli_target_circlediamonds.svg	14	yes	57	0	103
6.6.1	win	2022-11-04	12:11:33	12:23:59	744657	631b593a9bb21bb86ea260a7	900033217	1	main_z	11	main_z	89	stimuli_distractor_trianglediamonds.svg	stimuli_distractor_diamondtriangles.svg	36	no	0	1	2003
6.6.1	win	2022-11-04	12:11:33	12:23:59	744657	631b593a9bb21bb86ea260a7	900033217	1	main_z	11	advance_on_keypress_ZEE	90	stimuli_distractor_trianglediamonds.svg	stimuli_distractor_diamondtriangles.svg	36	no	57	0	170
6.6.1	win	2022-11-04	12:11:33	12:24:00	746057	631b593a9bb21bb86ea260a7	900033217	1	main_z	11	main_z	91	stimuli_target_trianglesquares.svg	stimuli_distractor_diamondtriangles.svg	22	yes	44	1	618
6.6.1	win	2022-11-04	12:11:33	12:24:00	746057	631b593a9bb21bb86ea260a7	900033217	1	main_z	11	advance_on_keypress_ZEE	92	stimuli_target_trianglesquares.svg	stimuli_distractor_diamondtriangles.svg	22	yes	57	0	140
6.6.1	win	2022-11-04	12:11:33	12:24:01	747404	631b593a9bb21bb86ea260a7	900033217	1	main_z	11	main_z	93	stimuli_target_squaretriangles.svg	stimuli_distractor_trianglediamonds.svg	3	yes	44	1	590
6.6.1	win	2022-11-04	12:11:33	12:24:01	747404	631b593a9bb21bb86ea260a7	900033217	1	main_z	11	advance_on_keypress_ZEE	94	stimuli_target_squaretriangles.svg	stimuli_distractor_trianglediamonds.svg	3	yes	57	0	106
6.6.1	win	2022-11-04	12:11:33	12:24:04	750130	631b593a9bb21bb86ea260a7	900033217	1	main_z	11	main_z	95	stimuli_distractor_trianglediamonds.svg	stimuli_distractor_trianglediamonds.svg	33	no	0	1	2003
6.6.1	win	2022-11-04	12:11:33	12:24:04	750130	631b593a9bb21bb86ea260a7	900033217	1	main_z	11	advance_on_keypress_ZEE	96	stimuli_distractor_trianglediamonds.svg	stimuli_distractor_trianglediamonds.svg	33	no	57	0	8
6.6.1	win	2022-11-04	12:11:33	12:24:05	751254	631b593a9bb21bb86ea260a7	900033217	1	main_z	11	main_z	97	stimuli_distractor_trianglediamonds.svg	stimuli_target_trianglecircles.svg	25	yes	44	1	494
6.6.1	win	2022-11-04	12:11:33	12:24:05	751254	631b593a9bb21bb86ea260a7	900033217	1	main_z	11	advance_on_keypress_ZEE	98	stimuli_distractor_trianglediamonds.svg	stimuli_target_trianglecircles.svg	25	yes	57	0	152
6.6.1	win	2022-11-04	12:11:33	12:24:07	752554	631b593a9bb21bb86ea260a7	900033217	1	main_z	11	main_z	99	stimuli_distractor_diamondtriangles.svg	stimuli_target_circletriangles.svg	13	yes	44	1	531
6.6.1	win	2022-11-04	12:11:33	12:24:07	752554	631b593a9bb21bb86ea260a7	900033217	1	main_z	11	advance_on_keypress_ZEE	100	stimuli_distractor_diamondtriangles.svg	stimuli_target_circletriangles.svg	13	yes	57	0	117
6.6.1	win	2022-11-04	12:11:33	12:24:09	755290	631b593a9bb21bb86ea260a7	900033217	1	main_z	11	main_z	101	stimuli_distractor_trianglediamonds.svg	stimuli_distractor_trianglediamonds.svg	34	no	0	1	2003
6.6.1	win	2022-11-04	12:11:33	12:24:09	755290	631b593a9bb21bb86ea260a7	900033217	1	main_z	11	advance_on_keypress_ZEE	102	stimuli_distractor_trianglediamonds.svg	stimuli_distractor_trianglediamonds.svg	34	no	57	0	166
6.6.1	win	2022-11-04	12:11:33	12:24:11	756737	631b593a9bb21bb86ea260a7	900033217	1	main_z	11	main_z	103	stimuli_target_diamondsquares.svg	stimuli_distractor_trianglediamonds.svg	20	yes	44	1	665
6.6.1	win	2022-11-04	12:11:33	12:24:11	756737	631b593a9bb21bb86ea260a7	900033217	1	main_z	11	advance_on_keypress_ZEE	104	stimuli_target_diamondsquares.svg	stimuli_distractor_trianglediamonds.svg	20	yes	57	0	177
6.6.1	win	2022-11-04	12:11:33	12:24:12	758471	631b593a9bb21bb86ea260a7	900033217	1	main_z	11	main_z	105	stimuli_target_diamondcircles.svg	stimuli_distractor_diamondtriangles.svg	23	yes	44	1	941
6.6.1	win	2022-11-04	12:11:33	12:24:12	758471	631b593a9bb21bb86ea260a7	900033217	1	main_z	11	advance_on_keypress_ZEE	106	stimuli_target_diamondcircles.svg	stimuli_distractor_diamondtriangles.svg	23	yes	57	0	75
6.6.1	win	2022-11-04	12:11:33	12:24:14	759781	631b593a9bb21bb86ea260a7	900033217	1	main_z	11	main_z	107	stimuli_target_trianglecircles.svg	stimuli_distractor_diamondtriangles.svg	21	yes	44	1	613
6.6.1	win	2022-11-04	12:11:33	12:24:14	759781	631b593a9bb21bb86ea260a7	900033217	1	main_z	11	advance_on_keypress_ZEE	108	stimuli_target_trianglecircles.svg	stimuli_distractor_diamondtriangles.svg	21	yes	57	0	149
6.6.1	win	2022-11-04	12:11:33	12:24:15	761155	631b593a9bb21bb86ea260a7	900033217	1	main_z	11	main_z	109	stimuli_distractor_trianglediamonds.svg	stimuli_target_circlediamonds.svg	10	yes	44	1	611
6.6.1	win	2022-11-04	12:11:33	12:24:15	761155	631b593a9bb21bb86ea260a7	900033217	1	main_z	11	advance_on_keypress_ZEE	110	stimuli_distractor_trianglediamonds.svg	stimuli_target_circlediamonds.svg	10	yes	57	0	171
6.6.1	win	2022-11-04	12:11:33	12:24:16	762482	631b593a9bb21bb86ea260a7	900033217	1	main_z	11	main_z	111	stimuli_distractor_trianglediamonds.svg	stimuli_target_circletriangles.svg	9	yes	44	1	535
6.6.1	win	2022-11-04	12:11:33	12:24:16	762482	631b593a9bb21bb86ea260a7	900033217	1	main_z	11	advance_on_keypress_ZEE	112	stimuli_distractor_trianglediamonds.svg	stimuli_target_circletriangles.svg	9	yes	57	0	84
6.6.1	win	2022-11-04	12:11:33	12:24:18	763921	631b593a9bb21bb86ea260a7	900033217	1	main_z	11	main_z	113	stimuli_target_diamondsquares.svg	stimuli_distractor_diamondtriangles.svg	24	yes	44	1	738
6.6.1	win	2022-11-04	12:11:33	12:24:18	763921	631b593a9bb21bb86ea260a7	900033217	1	main_z	11	advance_on_keypress_ZEE	114	stimuli_target_diamondsquares.svg	stimuli_distractor_diamondtriangles.svg	24	yes	57	0	191
6.6.1	win	2022-11-04	12:11:33	12:24:19	765408	631b593a9bb21bb86ea260a7	900033217	1	main_z	11	main_z	115	stimuli_target_squarediamonds.svg	stimuli_distractor_diamondtriangles.svg	8	yes	44	1	677
6.6.1	win	2022-11-04	12:11:33	12:24:19	765408	631b593a9bb21bb86ea260a7	900033217	1	main_z	11	advance_on_keypress_ZEE	116	stimuli_target_squarediamonds.svg	stimuli_distractor_diamondtriangles.svg	8	yes	57	0	191
6.6.1	win	2022-11-04	12:11:33	12:24:21	766857	631b593a9bb21bb86ea260a7	900033217	1	main_z	11	main_z	117	stimuli_distractor_trianglediamonds.svg	stimuli_target_squarediamonds.svg	12	yes	44	1	646
6.6.1	win	2022-11-04	12:11:33	12:24:21	766857	631b593a9bb21bb86ea260a7	900033217	1	main_z	11	advance_on_keypress_ZEE	118	stimuli_distractor_trianglediamonds.svg	stimuli_target_squarediamonds.svg	12	yes	57	0	142
6.6.1	win	2022-11-04	12:11:33	12:24:24	769617	631b593a9bb21bb86ea260a7	900033217	1	main_z	11	main_z	119	stimuli_distractor_diamondtriangles.svg	stimuli_distractor_trianglediamonds.svg	38	no	0	1	2003
6.6.1	win	2022-11-04	12:11:33	12:24:24	769617	631b593a9bb21bb86ea260a7	900033217	1	main_z	11	advance_on_keypress_ZEE	120	stimuli_distractor_diamondtriangles.svg	stimuli_distractor_trianglediamonds.svg	38	no	57	0	22
6.6.1	win	2022-11-04	12:11:33	12:24:25	770824	631b593a9bb21bb86ea260a7	900033217	1	main_z	11	main_z	121	stimuli_target_squarediamonds.svg	stimuli_distractor_trianglediamonds.svg	4	yes	44	1	572
6.6.1	win	2022-11-04	12:11:33	12:24:25	770824	631b593a9bb21bb86ea260a7	900033217	1	main_z	11	advance_on_keypress_ZEE	122	stimuli_target_squarediamonds.svg	stimuli_distractor_trianglediamonds.svg	4	yes	57	0	124
6.6.1	win	2022-11-04	12:11:33	12:24:26	772230	631b593a9bb21bb86ea260a7	900033217	1	main_z	11	main_z	123	stimuli_distractor_diamondtriangles.svg	stimuli_target_trianglecircles.svg	29	yes	44	1	665
6.6.1	win	2022-11-04	12:11:33	12:24:26	772230	631b593a9bb21bb86ea260a7	900033217	1	main_z	11	advance_on_keypress_ZEE	124	stimuli_distractor_diamondtriangles.svg	stimuli_target_trianglecircles.svg	29	yes	57	0	108
6.6.1	win	2022-11-04	12:11:33	12:24:27	773495	631b593a9bb21bb86ea260a7	900033217	1	main_z	11	main_z	125	stimuli_distractor_trianglediamonds.svg	stimuli_target_diamondcircles.svg	27	yes	44	1	534
6.6.1	win	2022-11-04	12:11:33	12:24:27	773495	631b593a9bb21bb86ea260a7	900033217	1	main_z	11	advance_on_keypress_ZEE	126	stimuli_distractor_trianglediamonds.svg	stimuli_target_diamondcircles.svg	27	yes	57	0	131
6.6.1	win	2022-11-04	12:11:33	12:24:29	774773	631b593a9bb21bb86ea260a7	900033217	1	main_z	11	main_z	127	stimuli_distractor_diamondtriangles.svg	stimuli_target_squaretriangles.svg	15	yes	44	1	524
6.6.1	win	2022-11-04	12:11:33	12:24:29	774773	631b593a9bb21bb86ea260a7	900033217	1	main_z	11	advance_on_keypress_ZEE	128	stimuli_distractor_diamondtriangles.svg	stimuli_target_squaretriangles.svg	15	yes	57	0	117
6.6.1	win	2022-11-04	12:11:33	12:24:30	776176	631b593a9bb21bb86ea260a7	900033217	1	main_z	11	main_z	129	stimuli_distractor_trianglediamonds.svg	stimuli_target_diamondsquares.svg	28	yes	44	1	666
6.6.1	win	2022-11-04	12:11:33	12:24:30	776176	631b593a9bb21bb86ea260a7	900033217	1	main_z	11	advance_on_keypress_ZEE	130	stimuli_distractor_trianglediamonds.svg	stimuli_target_diamondsquares.svg	28	yes	57	0	98
6.6.1	win	2022-11-04	12:11:33	12:24:31	777518	631b593a9bb21bb86ea260a7	900033217	1	main_z	11	main_z	131	stimuli_target_squaretriangles.svg	stimuli_distractor_diamondtriangles.svg	7	yes	44	1	626
6.6.1	win	2022-11-04	12:11:33	12:24:31	777518	631b593a9bb21bb86ea260a7	900033217	1	main_z	11	advance_on_keypress_ZEE	132	stimuli_target_squaretriangles.svg	stimuli_distractor_diamondtriangles.svg	7	yes	57	0	120
6.6.1	win	2022-11-04	12:11:33	12:24:33	778810	631b593a9bb21bb86ea260a7	900033217	1	main_z	11	main_z	133	stimuli_target_circlediamonds.svg	stimuli_distractor_trianglediamonds.svg	2	yes	44	1	557
6.6.1	win	2022-11-04	12:11:33	12:24:33	778810	631b593a9bb21bb86ea260a7	900033217	1	main_z	11	advance_on_keypress_ZEE	134	stimuli_target_circlediamonds.svg	stimuli_distractor_trianglediamonds.svg	2	yes	57	0	119
6.6.1	win	2022-11-04	12:11:33	12:24:36	781547	631b593a9bb21bb86ea260a7	900033217	1	main_z	11	main_z	135	stimuli_distractor_diamondtriangles.svg	stimuli_distractor_diamondtriangles.svg	39	no	0	1	2003
6.6.1	win	2022-11-04	12:11:33	12:24:36	781547	631b593a9bb21bb86ea260a7	900033217	1	main_z	11	advance_on_keypress_ZEE	136	stimuli_distractor_diamondtriangles.svg	stimuli_distractor_diamondtriangles.svg	39	no	57	0	171
6.6.1	win	2022-11-04	12:11:33	12:24:38	784339	631b593a9bb21bb86ea260a7	900033217	1	main_z	11	main_z	137	stimuli_distractor_trianglediamonds.svg	stimuli_distractor_diamondtriangles.svg	35	no	0	1	2003
6.6.1	win	2022-11-04	12:11:33	12:24:38	784339	631b593a9bb21bb86ea260a7	900033217	1	main_z	11	advance_on_keypress_ZEE	138	stimuli_distractor_trianglediamonds.svg	stimuli_distractor_diamondtriangles.svg	35	no	57	0	363
6.6.1	win	2022-11-04	12:11:33	12:24:40	785948	631b593a9bb21bb86ea260a7	900033217	1	main_z	11	main_z	139	stimuli_target_trianglesquares.svg	stimuli_distractor_trianglediamonds.svg	18	yes	44	1	633
6.6.1	win	2022-11-04	12:11:33	12:24:40	785948	631b593a9bb21bb86ea260a7	900033217	1	main_z	11	advance_on_keypress_ZEE	140	stimuli_target_trianglesquares.svg	stimuli_distractor_trianglediamonds.svg	18	yes	57	0	147
6.6.1	win	2022-11-04	12:11:33	12:24:41	787244	631b593a9bb21bb86ea260a7	900033217	1	main_z	11	main_z	141	stimuli_distractor_trianglediamonds.svg	stimuli_target_trianglesquares.svg	26	yes	44	1	533
6.6.1	win	2022-11-04	12:11:33	12:24:41	787244	631b593a9bb21bb86ea260a7	900033217	1	main_z	11	advance_on_keypress_ZEE	142	stimuli_distractor_trianglediamonds.svg	stimuli_target_trianglesquares.svg	26	yes	57	0	125
6.6.1	win	2022-11-04	12:11:33	12:24:43	788595	631b593a9bb21bb86ea260a7	900033217	1	main_z	11	main_z	143	stimuli_distractor_diamondtriangles.svg	stimuli_target_diamondsquares.svg	32	yes	44	1	606
6.6.1	win	2022-11-04	12:11:33	12:24:43	788595	631b593a9bb21bb86ea260a7	900033217	1	main_z	11	advance_on_keypress_ZEE	144	stimuli_distractor_diamondtriangles.svg	stimuli_target_diamondsquares.svg	32	yes	57	0	161
6.6.1	win	2022-11-04	12:11:33	12:24:44	790005	631b593a9bb21bb86ea260a7	900033217	1	main_z	11	main_z	145	stimuli_target_diamondcircles.svg	stimuli_distractor_trianglediamonds.svg	19	yes	44	1	634
6.6.1	win	2022-11-04	12:11:33	12:24:44	790005	631b593a9bb21bb86ea260a7	900033217	1	main_z	11	advance_on_keypress_ZEE	146	stimuli_target_diamondcircles.svg	stimuli_distractor_trianglediamonds.svg	19	yes	57	0	131
6.6.1	win	2022-11-04	12:11:33	12:24:45	791290	631b593a9bb21bb86ea260a7	900033217	1	main_z	11	main_z	147	stimuli_target_circletriangles.svg	stimuli_distractor_trianglediamonds.svg	1	yes	44	1	537
6.6.1	win	2022-11-04	12:11:33	12:24:45	791290	631b593a9bb21bb86ea260a7	900033217	1	main_z	11	advance_on_keypress_ZEE	148	stimuli_target_circletriangles.svg	stimuli_distractor_trianglediamonds.svg	1	yes	57	0	146
6.6.1	win	2022-11-04	12:11:33	12:24:47	792524	631b593a9bb21bb86ea260a7	900033217	1	main_z	11	main_z	149	stimuli_distractor_diamondtriangles.svg	stimuli_target_trianglesquares.svg	30	yes	44	1	472
6.6.1	win	2022-11-04	12:11:33	12:24:47	792524	631b593a9bb21bb86ea260a7	900033217	1	main_z	11	advance_on_keypress_ZEE	150	stimuli_distractor_diamondtriangles.svg	stimuli_target_trianglesquares.svg	30	yes	57	0	156
6.6.1	win	2022-11-04	12:11:33	12:24:49	795298	631b593a9bb21bb86ea260a7	900033217	1	main_z	11	main_z	151	stimuli_distractor_diamondtriangles.svg	stimuli_distractor_trianglediamonds.svg	37	no	0	1	2003
6.6.1	win	2022-11-04	12:11:33	12:24:49	795298	631b593a9bb21bb86ea260a7	900033217	1	main_z	11	advance_on_keypress_ZEE	152	stimuli_distractor_diamondtriangles.svg	stimuli_distractor_trianglediamonds.svg	37	no	57	0	121
6.6.1	win	2022-11-04	12:11:33	12:24:52	798034	631b593a9bb21bb86ea260a7	900033217	1	main_z	11	main_z	153	stimuli_distractor_diamondtriangles.svg	stimuli_distractor_diamondtriangles.svg	40	no	0	1	2003
6.6.1	win	2022-11-04	12:11:33	12:24:52	798034	631b593a9bb21bb86ea260a7	900033217	1	main_z	11	advance_on_keypress_ZEE	154	stimuli_distractor_diamondtriangles.svg	stimuli_distractor_diamondtriangles.svg	40	no	57	0	103
6.6.1	win	2022-11-04	12:11:33	12:24:53	799392	631b593a9bb21bb86ea260a7	900033217	1	main_z	11	main_z	155	stimuli_distractor_trianglediamonds.svg	stimuli_target_squaretriangles.svg	11	yes	44	1	639
6.6.1	win	2022-11-04	12:11:33	12:24:53	799392	631b593a9bb21bb86ea260a7	900033217	1	main_z	11	advance_on_keypress_ZEE	156	stimuli_distractor_trianglediamonds.svg	stimuli_target_squaretriangles.svg	11	yes	57	0	130
6.6.1	win	2022-11-04	12:11:33	12:24:56	802145	631b593a9bb21bb86ea260a7	900033217	1	main_z	11	main_z	157	stimuli_target_circletriangles.svg	stimuli_distractor_diamondtriangles.svg	5	yes	0	0	2003
6.6.1	win	2022-11-04	12:11:33	12:24:56	802145	631b593a9bb21bb86ea260a7	900033217	1	main_z	11	advance_on_keypress_ZEE	158	stimuli_target_circletriangles.svg	stimuli_distractor_diamondtriangles.svg	5	yes	57	0	192
6.6.1	win	2022-11-04	12:11:33	12:24:58	803763	631b593a9bb21bb86ea260a7	900033217	1	main_z	11	main_z	159	stimuli_distractor_diamondtriangles.svg	stimuli_target_diamondcircles.svg	31	yes	44	1	808
6.6.1	win	2022-11-04	12:11:33	12:24:58	803763	631b593a9bb21bb86ea260a7	900033217	1	main_z	11	advance_on_keypress_ZEE	160	stimuli_distractor_diamondtriangles.svg	stimuli_target_diamondcircles.svg	31	yes	57	0	163