build	computer.platform	date	time	timestamp	time_elapsed_ms	subject	group	session	blockcode	blocknum	trialcode	trialnum	stimulus_left	stimulus_right	stim_index	target_present	response	correct	latency
6.6.1	and	2022-11-07	14:22:46	14:26:32	199545	5a6ff39ef660ae0001a9837e	107135399	1	practice_slash	5	practice_slash	1	stimuli_target_squarediamonds.svg	stimuli_distractor_trianglediamonds.svg	5	yes	53	1	1651
6.6.1	and	2022-11-07	14:22:46	14:26:32	199545	5a6ff39ef660ae0001a9837e	107135399	1	practice_slash	5	advance_on_keypress_SLASH	2	stimuli_target_squarediamonds.svg	stimuli_distractor_trianglediamonds.svg	5	yes	57	0	1575
6.6.1	and	2022-11-07	14:22:46	14:26:36	203370	5a6ff39ef660ae0001a9837e	107135399	1	practice_slash	5	practice_slash	3	stimuli_distractor_trianglediamonds.svg	stimuli_distractor_trianglediamonds.svg	15	no	53	0	589
6.6.1	and	2022-11-07	14:22:46	14:26:36	203370	5a6ff39ef660ae0001a9837e	107135399	1	practice_slash	5	advance_on_keypress_SLASH	4	stimuli_distractor_trianglediamonds.svg	stimuli_distractor_trianglediamonds.svg	15	no	57	0	1577
6.6.1	and	2022-11-07	14:22:46	14:26:41	208081	5a6ff39ef660ae0001a9837e	107135399	1	practice_slash	5	practice_slash	5	stimuli_distractor_trianglediamonds.svg	stimuli_target_squarediamonds.svg	11	yes	53	1	1476
6.6.1	and	2022-11-07	14:22:46	14:26:41	208081	5a6ff39ef660ae0001a9837e	107135399	1	practice_slash	5	advance_on_keypress_SLASH	6	stimuli_distractor_trianglediamonds.svg	stimuli_target_squarediamonds.svg	11	yes	57	0	1597
6.6.1	and	2022-11-07	14:22:46	14:26:46	213350	5a6ff39ef660ae0001a9837e	107135399	1	practice_slash	5	practice_slash	7	stimuli_target_diamondsquares.svg	stimuli_distractor_trianglediamonds.svg	6	yes	0	0	2000
6.6.1	and	2022-11-07	14:22:46	14:26:46	213350	5a6ff39ef660ae0001a9837e	107135399	1	practice_slash	5	advance_on_keypress_SLASH	8	stimuli_target_diamondsquares.svg	stimuli_distractor_trianglediamonds.svg	6	yes	57	0	960
6.6.1	and	2022-11-07	14:22:46	14:26:50	217334	5a6ff39ef660ae0001a9837e	107135399	1	practice_slash	5	practice_slash	9	stimuli_distractor_diamondtriangles.svg	stimuli_target_diamondcircles.svg	8	yes	53	1	1347
6.6.1	and	2022-11-07	14:22:46	14:26:50	217334	5a6ff39ef660ae0001a9837e	107135399	1	practice_slash	5	advance_on_keypress_SLASH	10	stimuli_distractor_diamondtriangles.svg	stimuli_target_diamondcircles.svg	8	yes	57	0	4074
6.6.1	and	2022-11-07	14:22:46	14:26:57	223823	5a6ff39ef660ae0001a9837e	107135399	1	practice_slash	5	practice_slash	11	stimuli_target_circlediamonds.svg	stimuli_distractor_trianglediamonds.svg	4	yes	53	1	745
6.6.1	and	2022-11-07	14:22:46	14:26:57	223823	5a6ff39ef660ae0001a9837e	107135399	1	practice_slash	5	advance_on_keypress_SLASH	12	stimuli_target_circlediamonds.svg	stimuli_distractor_trianglediamonds.svg	4	yes	57	0	620
6.6.1	and	2022-11-07	14:22:46	14:27:00	226978	5a6ff39ef660ae0001a9837e	107135399	1	practice_slash	5	practice_slash	13	stimuli_distractor_diamondtriangles.svg	stimuli_target_trianglecircles.svg	9	yes	53	1	888
6.6.1	and	2022-11-07	14:22:46	14:27:00	226978	5a6ff39ef660ae0001a9837e	107135399	1	practice_slash	5	advance_on_keypress_SLASH	14	stimuli_distractor_diamondtriangles.svg	stimuli_target_trianglecircles.svg	9	yes	57	0	434
6.6.1	and	2022-11-07	14:22:46	14:27:04	231042	5a6ff39ef660ae0001a9837e	107135399	1	practice_slash	5	practice_slash	15	stimuli_distractor_diamondtriangles.svg	stimuli_distractor_diamondtriangles.svg	13	no	0	1	2000
6.6.1	and	2022-11-07	14:22:46	14:27:04	231042	5a6ff39ef660ae0001a9837e	107135399	1	practice_slash	5	advance_on_keypress_SLASH	16	stimuli_distractor_diamondtriangles.svg	stimuli_distractor_diamondtriangles.svg	13	no	57	0	431
6.6.1	and	2022-11-07	14:22:46	14:27:07	234264	5a6ff39ef660ae0001a9837e	107135399	1	practice_slash	5	practice_slash	17	stimuli_distractor_trianglediamonds.svg	stimuli_target_circlediamonds.svg	10	yes	53	1	1155
6.6.1	and	2022-11-07	14:22:46	14:27:07	234264	5a6ff39ef660ae0001a9837e	107135399	1	practice_slash	5	advance_on_keypress_SLASH	18	stimuli_distractor_trianglediamonds.svg	stimuli_target_circlediamonds.svg	10	yes	57	0	997
6.6.1	and	2022-11-07	14:22:46	14:27:11	238057	5a6ff39ef660ae0001a9837e	107135399	1	practice_slash	5	practice_slash	19	stimuli_target_diamondsquares.svg	stimuli_distractor_diamondtriangles.svg	3	yes	53	1	1167
6.6.1	and	2022-11-07	14:22:46	14:27:11	238057	5a6ff39ef660ae0001a9837e	107135399	1	practice_slash	5	advance_on_keypress_SLASH	20	stimuli_target_diamondsquares.svg	stimuli_distractor_diamondtriangles.svg	3	yes	57	0	960
6.6.1	and	2022-11-07	14:22:46	14:27:14	241631	5a6ff39ef660ae0001a9837e	107135399	1	practice_slash	5	practice_slash	21	stimuli_target_circlediamonds.svg	stimuli_distractor_diamondtriangles.svg	1	yes	53	1	974
6.6.1	and	2022-11-07	14:22:46	14:27:14	241631	5a6ff39ef660ae0001a9837e	107135399	1	practice_slash	5	advance_on_keypress_SLASH	22	stimuli_target_circlediamonds.svg	stimuli_distractor_diamondtriangles.svg	1	yes	57	0	544
6.6.1	and	2022-11-07	14:22:46	14:27:19	245808	5a6ff39ef660ae0001a9837e	107135399	1	practice_slash	5	practice_slash	23	stimuli_distractor_diamondtriangles.svg	stimuli_distractor_trianglediamonds.svg	14	no	0	1	2000
6.6.1	and	2022-11-07	14:22:46	14:27:19	245808	5a6ff39ef660ae0001a9837e	107135399	1	practice_slash	5	advance_on_keypress_SLASH	24	stimuli_distractor_diamondtriangles.svg	stimuli_distractor_trianglediamonds.svg	14	no	57	0	57324
6.6.1	and	2022-11-07	14:22:46	14:28:18	305579	5a6ff39ef660ae0001a9837e	107135399	1	practice_slash	5	practice_slash	25	stimuli_distractor_diamondtriangles.svg	stimuli_target_circletriangles.svg	7	yes	53	1	836
6.6.1	and	2022-11-07	14:22:46	14:28:18	305579	5a6ff39ef660ae0001a9837e	107135399	1	practice_slash	5	advance_on_keypress_SLASH	26	stimuli_distractor_diamondtriangles.svg	stimuli_target_circletriangles.svg	7	yes	57	0	485
6.6.1	and	2022-11-07	14:22:46	14:28:23	309705	5a6ff39ef660ae0001a9837e	107135399	1	practice_slash	5	practice_slash	27	stimuli_target_squarediamonds.svg	stimuli_distractor_diamondtriangles.svg	2	yes	0	0	2000
6.6.1	and	2022-11-07	14:22:46	14:28:23	309705	5a6ff39ef660ae0001a9837e	107135399	1	practice_slash	5	advance_on_keypress_SLASH	28	stimuli_target_squarediamonds.svg	stimuli_distractor_diamondtriangles.svg	2	yes	57	0	463
6.6.1	and	2022-11-07	14:22:46	14:28:27	313806	5a6ff39ef660ae0001a9837e	107135399	1	practice_slash	5	practice_slash	29	stimuli_distractor_trianglediamonds.svg	stimuli_target_diamondcircles.svg	12	yes	0	0	2000
6.6.1	and	2022-11-07	14:22:46	14:28:27	313806	5a6ff39ef660ae0001a9837e	107135399	1	practice_slash	5	advance_on_keypress_SLASH	30	stimuli_distractor_trianglediamonds.svg	stimuli_target_diamondcircles.svg	12	yes	57	0	624
6.6.1	and	2022-11-07	14:22:46	14:28:31	318055	5a6ff39ef660ae0001a9837e	107135399	1	practice_slash	5	practice_slash	31	stimuli_distractor_trianglediamonds.svg	stimuli_distractor_diamondtriangles.svg	16	no	0	1	2000
6.6.1	and	2022-11-07	14:22:46	14:28:31	318055	5a6ff39ef660ae0001a9837e	107135399	1	practice_slash	5	advance_on_keypress_SLASH	32	stimuli_distractor_trianglediamonds.svg	stimuli_distractor_diamondtriangles.svg	16	no	57	0	257
6.6.1	and	2022-11-07	14:22:46	14:28:38	325310	5a6ff39ef660ae0001a9837e	107135399	1	main_slash	7	main_slash	1	stimuli_target_squarediamonds.svg	stimuli_distractor_trianglediamonds.svg	4	yes	53	1	1808
6.6.1	and	2022-11-07	14:22:46	14:28:38	325310	5a6ff39ef660ae0001a9837e	107135399	1	main_slash	7	advance_on_keypress_SLASH	2	stimuli_target_squarediamonds.svg	stimuli_distractor_trianglediamonds.svg	4	yes	57	0	579
6.6.1	and	2022-11-07	14:22:46	14:28:40	327070	5a6ff39ef660ae0001a9837e	107135399	1	main_slash	7	main_slash	3	stimuli_distractor_diamondtriangles.svg	stimuli_target_squarediamonds.svg	16	yes	53	1	536
6.6.1	and	2022-11-07	14:22:46	14:28:40	327070	5a6ff39ef660ae0001a9837e	107135399	1	main_slash	7	advance_on_keypress_SLASH	4	stimuli_distractor_diamondtriangles.svg	stimuli_target_squarediamonds.svg	16	yes	57	0	2100
6.6.1	and	2022-11-07	14:22:46	14:28:43	330390	5a6ff39ef660ae0001a9837e	107135399	1	main_slash	7	main_slash	5	stimuli_distractor_diamondtriangles.svg	stimuli_target_squaretriangles.svg	15	yes	53	1	587
6.6.1	and	2022-11-07	14:22:46	14:28:43	330390	5a6ff39ef660ae0001a9837e	107135399	1	main_slash	7	advance_on_keypress_SLASH	6	stimuli_distractor_diamondtriangles.svg	stimuli_target_squaretriangles.svg	15	yes	57	0	836
6.6.1	and	2022-11-07	14:22:46	14:28:47	333852	5a6ff39ef660ae0001a9837e	107135399	1	main_slash	7	main_slash	7	stimuli_target_diamondcircles.svg	stimuli_distractor_diamondtriangles.svg	23	yes	0	0	2000
6.6.1	and	2022-11-07	14:22:46	14:28:47	333852	5a6ff39ef660ae0001a9837e	107135399	1	main_slash	7	advance_on_keypress_SLASH	8	stimuli_target_diamondcircles.svg	stimuli_distractor_diamondtriangles.svg	23	yes	57	0	604
6.6.1	and	2022-11-07	14:22:46	14:28:49	335822	5a6ff39ef660ae0001a9837e	107135399	1	main_slash	7	main_slash	9	stimuli_target_circlediamonds.svg	stimuli_distractor_trianglediamonds.svg	2	yes	53	1	736
6.6.1	and	2022-11-07	14:22:46	14:28:49	335822	5a6ff39ef660ae0001a9837e	107135399	1	main_slash	7	advance_on_keypress_SLASH	10	stimuli_target_circlediamonds.svg	stimuli_distractor_trianglediamonds.svg	2	yes	57	0	1892
6.6.1	and	2022-11-07	14:22:46	14:28:52	339534	5a6ff39ef660ae0001a9837e	107135399	1	main_slash	7	main_slash	11	stimuli_target_trianglecircles.svg	stimuli_distractor_diamondtriangles.svg	21	yes	53	1	1183
6.6.1	and	2022-11-07	14:22:46	14:28:52	339534	5a6ff39ef660ae0001a9837e	107135399	1	main_slash	7	advance_on_keypress_SLASH	12	stimuli_target_trianglecircles.svg	stimuli_distractor_diamondtriangles.svg	21	yes	57	0	1568
6.6.1	and	2022-11-07	14:22:46	14:28:55	342634	5a6ff39ef660ae0001a9837e	107135399	1	main_slash	7	main_slash	13	stimuli_target_circletriangles.svg	stimuli_distractor_diamondtriangles.svg	5	yes	53	1	900
6.6.1	and	2022-11-07	14:22:46	14:28:55	342634	5a6ff39ef660ae0001a9837e	107135399	1	main_slash	7	advance_on_keypress_SLASH	14	stimuli_target_circletriangles.svg	stimuli_distractor_diamondtriangles.svg	5	yes	57	0	1224
6.6.1	and	2022-11-07	14:22:46	14:28:58	345155	5a6ff39ef660ae0001a9837e	107135399	1	main_slash	7	main_slash	15	stimuli_distractor_trianglediamonds.svg	stimuli_target_circlediamonds.svg	10	yes	53	1	672
6.6.1	and	2022-11-07	14:22:46	14:28:58	345155	5a6ff39ef660ae0001a9837e	107135399	1	main_slash	7	advance_on_keypress_SLASH	16	stimuli_distractor_trianglediamonds.svg	stimuli_target_circlediamonds.svg	10	yes	57	0	1227
6.6.1	and	2022-11-07	14:22:46	14:29:02	349018	5a6ff39ef660ae0001a9837e	107135399	1	main_slash	7	main_slash	17	stimuli_target_diamondcircles.svg	stimuli_distractor_trianglediamonds.svg	19	yes	0	0	2000
6.6.1	and	2022-11-07	14:22:46	14:29:02	349018	5a6ff39ef660ae0001a9837e	107135399	1	main_slash	7	advance_on_keypress_SLASH	18	stimuli_target_diamondcircles.svg	stimuli_distractor_trianglediamonds.svg	19	yes	57	0	715
6.6.1	and	2022-11-07	14:22:46	14:29:05	352367	5a6ff39ef660ae0001a9837e	107135399	1	main_slash	7	main_slash	19	stimuli_distractor_diamondtriangles.svg	stimuli_distractor_diamondtriangles.svg	40	no	0	1	2000
6.6.1	and	2022-11-07	14:22:46	14:29:05	352367	5a6ff39ef660ae0001a9837e	107135399	1	main_slash	7	advance_on_keypress_SLASH	20	stimuli_distractor_diamondtriangles.svg	stimuli_distractor_diamondtriangles.svg	40	no	57	0	1000
6.6.1	and	2022-11-07	14:22:46	14:29:09	356001	5a6ff39ef660ae0001a9837e	107135399	1	main_slash	7	main_slash	21	stimuli_distractor_trianglediamonds.svg	stimuli_target_diamondcircles.svg	27	yes	0	0	2000
6.6.1	and	2022-11-07	14:22:46	14:29:09	356001	5a6ff39ef660ae0001a9837e	107135399	1	main_slash	7	advance_on_keypress_SLASH	22	stimuli_distractor_trianglediamonds.svg	stimuli_target_diamondcircles.svg	27	yes	57	0	2373
6.6.1	and	2022-11-07	14:22:46	14:29:14	361000	5a6ff39ef660ae0001a9837e	107135399	1	main_slash	7	main_slash	23	stimuli_distractor_trianglediamonds.svg	stimuli_target_trianglesquares.svg	26	yes	0	0	2000
6.6.1	and	2022-11-07	14:22:46	14:29:14	361000	5a6ff39ef660ae0001a9837e	107135399	1	main_slash	7	advance_on_keypress_SLASH	24	stimuli_distractor_trianglediamonds.svg	stimuli_target_trianglesquares.svg	26	yes	57	0	10520
6.6.1	and	2022-11-07	14:22:46	14:29:26	373028	5a6ff39ef660ae0001a9837e	107135399	1	main_slash	7	main_slash	25	stimuli_distractor_diamondtriangles.svg	stimuli_distractor_trianglediamonds.svg	37	no	53	0	882
6.6.1	and	2022-11-07	14:22:46	14:29:26	373028	5a6ff39ef660ae0001a9837e	107135399	1	main_slash	7	advance_on_keypress_SLASH	26	stimuli_distractor_diamondtriangles.svg	stimuli_distractor_trianglediamonds.svg	37	no	57	0	735
6.6.1	and	2022-11-07	14:22:46	14:29:29	376399	5a6ff39ef660ae0001a9837e	107135399	1	main_slash	7	main_slash	27	stimuli_distractor_trianglediamonds.svg	stimuli_target_diamondsquares.svg	28	yes	0	0	2000
6.6.1	and	2022-11-07	14:22:46	14:29:29	376399	5a6ff39ef660ae0001a9837e	107135399	1	main_slash	7	advance_on_keypress_SLASH	28	stimuli_distractor_trianglediamonds.svg	stimuli_target_diamondsquares.svg	28	yes	57	0	2186
6.6.1	and	2022-11-07	14:22:46	14:29:34	381215	5a6ff39ef660ae0001a9837e	107135399	1	main_slash	7	main_slash	29	stimuli_distractor_trianglediamonds.svg	stimuli_target_trianglecircles.svg	25	yes	0	0	2000
6.6.1	and	2022-11-07	14:22:46	14:29:34	381215	5a6ff39ef660ae0001a9837e	107135399	1	main_slash	7	advance_on_keypress_SLASH	30	stimuli_distractor_trianglediamonds.svg	stimuli_target_trianglecircles.svg	25	yes	57	0	1490
6.6.1	and	2022-11-07	14:22:46	14:29:37	384267	5a6ff39ef660ae0001a9837e	107135399	1	main_slash	7	main_slash	31	stimuli_distractor_trianglediamonds.svg	stimuli_target_squarediamonds.svg	12	yes	53	1	935
6.6.1	and	2022-11-07	14:22:46	14:29:37	384267	5a6ff39ef660ae0001a9837e	107135399	1	main_slash	7	advance_on_keypress_SLASH	32	stimuli_distractor_trianglediamonds.svg	stimuli_target_squarediamonds.svg	12	yes	57	0	8318
6.6.1	and	2022-11-07	14:22:46	14:29:47	394162	5a6ff39ef660ae0001a9837e	107135399	1	main_slash	7	main_slash	33	stimuli_target_squaretriangles.svg	stimuli_distractor_diamondtriangles.svg	7	yes	53	1	950
6.6.1	and	2022-11-07	14:22:46	14:29:47	394162	5a6ff39ef660ae0001a9837e	107135399	1	main_slash	7	advance_on_keypress_SLASH	34	stimuli_target_squaretriangles.svg	stimuli_distractor_diamondtriangles.svg	7	yes	57	0	1109
6.6.1	and	2022-11-07	14:22:46	14:29:51	397899	5a6ff39ef660ae0001a9837e	107135399	1	main_slash	7	main_slash	35	stimuli_distractor_diamondtriangles.svg	stimuli_target_diamondsquares.svg	32	yes	0	0	2000
6.6.1	and	2022-11-07	14:22:46	14:29:51	397899	5a6ff39ef660ae0001a9837e	107135399	1	main_slash	7	advance_on_keypress_SLASH	36	stimuli_distractor_diamondtriangles.svg	stimuli_target_diamondsquares.svg	32	yes	57	0	1653
6.6.1	and	2022-11-07	14:22:46	14:29:55	402181	5a6ff39ef660ae0001a9837e	107135399	1	main_slash	7	main_slash	37	stimuli_target_trianglecircles.svg	stimuli_distractor_trianglediamonds.svg	17	yes	0	0	2000
6.6.1	and	2022-11-07	14:22:46	14:29:55	402181	5a6ff39ef660ae0001a9837e	107135399	1	main_slash	7	advance_on_keypress_SLASH	38	stimuli_target_trianglecircles.svg	stimuli_distractor_trianglediamonds.svg	17	yes	57	0	10798
6.6.1	and	2022-11-07	14:22:46	14:30:07	414587	5a6ff39ef660ae0001a9837e	107135399	1	main_slash	7	main_slash	39	stimuli_target_trianglesquares.svg	stimuli_distractor_diamondtriangles.svg	22	yes	53	1	977
6.6.1	and	2022-11-07	14:22:46	14:30:07	414587	5a6ff39ef660ae0001a9837e	107135399	1	main_slash	7	advance_on_keypress_SLASH	40	stimuli_target_trianglesquares.svg	stimuli_distractor_diamondtriangles.svg	22	yes	57	0	757
6.6.1	and	2022-11-07	14:22:46	14:30:11	417966	5a6ff39ef660ae0001a9837e	107135399	1	main_slash	7	main_slash	41	stimuli_distractor_diamondtriangles.svg	stimuli_target_trianglecircles.svg	29	yes	0	0	2000
6.6.1	and	2022-11-07	14:22:46	14:30:11	417966	5a6ff39ef660ae0001a9837e	107135399	1	main_slash	7	advance_on_keypress_SLASH	42	stimuli_distractor_diamondtriangles.svg	stimuli_target_trianglecircles.svg	29	yes	57	0	1032
6.6.1	and	2022-11-07	14:22:46	14:30:15	421631	5a6ff39ef660ae0001a9837e	107135399	1	main_slash	7	main_slash	43	stimuli_distractor_trianglediamonds.svg	stimuli_distractor_trianglediamonds.svg	33	no	0	1	2000
6.6.1	and	2022-11-07	14:22:46	14:30:15	421631	5a6ff39ef660ae0001a9837e	107135399	1	main_slash	7	advance_on_keypress_SLASH	44	stimuli_distractor_trianglediamonds.svg	stimuli_distractor_trianglediamonds.svg	33	no	57	0	722
6.6.1	and	2022-11-07	14:22:46	14:30:17	423831	5a6ff39ef660ae0001a9837e	107135399	1	main_slash	7	main_slash	45	stimuli_target_squarediamonds.svg	stimuli_distractor_diamondtriangles.svg	8	yes	53	1	852
6.6.1	and	2022-11-07	14:22:46	14:30:17	423831	5a6ff39ef660ae0001a9837e	107135399	1	main_slash	7	advance_on_keypress_SLASH	46	stimuli_target_squarediamonds.svg	stimuli_distractor_diamondtriangles.svg	8	yes	57	0	621
6.6.1	and	2022-11-07	14:22:46	14:30:19	426146	5a6ff39ef660ae0001a9837e	107135399	1	main_slash	7	main_slash	47	stimuli_target_diamondsquares.svg	stimuli_distractor_diamondtriangles.svg	24	yes	53	1	1066
6.6.1	and	2022-11-07	14:22:46	14:30:19	426146	5a6ff39ef660ae0001a9837e	107135399	1	main_slash	7	advance_on_keypress_SLASH	48	stimuli_target_diamondsquares.svg	stimuli_distractor_diamondtriangles.svg	24	yes	57	0	460
6.6.1	and	2022-11-07	14:22:46	14:30:21	427866	5a6ff39ef660ae0001a9837e	107135399	1	main_slash	7	main_slash	49	stimuli_target_squaretriangles.svg	stimuli_distractor_trianglediamonds.svg	3	yes	53	1	619
6.6.1	and	2022-11-07	14:22:46	14:30:21	427866	5a6ff39ef660ae0001a9837e	107135399	1	main_slash	7	advance_on_keypress_SLASH	50	stimuli_target_squaretriangles.svg	stimuli_distractor_trianglediamonds.svg	3	yes	57	0	401
6.6.1	and	2022-11-07	14:22:46	14:30:24	430898	5a6ff39ef660ae0001a9837e	107135399	1	main_slash	7	main_slash	51	stimuli_distractor_trianglediamonds.svg	stimuli_distractor_diamondtriangles.svg	35	no	0	1	2000
6.6.1	and	2022-11-07	14:22:46	14:30:24	430898	5a6ff39ef660ae0001a9837e	107135399	1	main_slash	7	advance_on_keypress_SLASH	52	stimuli_distractor_trianglediamonds.svg	stimuli_distractor_diamondtriangles.svg	35	no	57	0	966
6.6.1	and	2022-11-07	14:22:46	14:30:27	434499	5a6ff39ef660ae0001a9837e	107135399	1	main_slash	7	main_slash	53	stimuli_distractor_diamondtriangles.svg	stimuli_distractor_trianglediamonds.svg	38	no	0	1	2000
6.6.1	and	2022-11-07	14:22:46	14:30:27	434499	5a6ff39ef660ae0001a9837e	107135399	1	main_slash	7	advance_on_keypress_SLASH	54	stimuli_distractor_diamondtriangles.svg	stimuli_distractor_trianglediamonds.svg	38	no	57	0	610
6.6.1	and	2022-11-07	14:22:46	14:30:31	437731	5a6ff39ef660ae0001a9837e	107135399	1	main_slash	7	main_slash	55	stimuli_distractor_trianglediamonds.svg	stimuli_distractor_trianglediamonds.svg	34	no	0	1	2000
6.6.1	and	2022-11-07	14:22:46	14:30:31	437731	5a6ff39ef660ae0001a9837e	107135399	1	main_slash	7	advance_on_keypress_SLASH	56	stimuli_distractor_trianglediamonds.svg	stimuli_distractor_trianglediamonds.svg	34	no	57	0	483
6.6.1	and	2022-11-07	14:22:46	14:30:33	439986	5a6ff39ef660ae0001a9837e	107135399	1	main_slash	7	main_slash	57	stimuli_distractor_diamondtriangles.svg	stimuli_target_circlediamonds.svg	14	yes	53	1	1139
6.6.1	and	2022-11-07	14:22:46	14:30:33	439986	5a6ff39ef660ae0001a9837e	107135399	1	main_slash	7	advance_on_keypress_SLASH	58	stimuli_distractor_diamondtriangles.svg	stimuli_target_circlediamonds.svg	14	yes	57	0	3930
6.6.1	and	2022-11-07	14:22:46	14:30:38	445217	5a6ff39ef660ae0001a9837e	107135399	1	main_slash	7	main_slash	59	stimuli_distractor_trianglediamonds.svg	stimuli_target_squaretriangles.svg	11	yes	53	1	671
6.6.1	and	2022-11-07	14:22:46	14:30:38	445217	5a6ff39ef660ae0001a9837e	107135399	1	main_slash	7	advance_on_keypress_SLASH	60	stimuli_distractor_trianglediamonds.svg	stimuli_target_squaretriangles.svg	11	yes	57	0	3142
6.6.1	and	2022-11-07	14:22:46	14:30:42	449580	5a6ff39ef660ae0001a9837e	107135399	1	main_slash	7	main_slash	61	stimuli_distractor_diamondtriangles.svg	stimuli_target_diamondcircles.svg	31	yes	53	1	586
6.6.1	and	2022-11-07	14:22:46	14:30:42	449580	5a6ff39ef660ae0001a9837e	107135399	1	main_slash	7	advance_on_keypress_SLASH	62	stimuli_distractor_diamondtriangles.svg	stimuli_target_diamondcircles.svg	31	yes	57	0	975
6.6.1	and	2022-11-07	14:22:46	14:30:45	452057	5a6ff39ef660ae0001a9837e	107135399	1	main_slash	7	main_slash	63	stimuli_distractor_diamondtriangles.svg	stimuli_target_trianglesquares.svg	30	yes	53	1	879
6.6.1	and	2022-11-07	14:22:46	14:30:45	452057	5a6ff39ef660ae0001a9837e	107135399	1	main_slash	7	advance_on_keypress_SLASH	64	stimuli_distractor_diamondtriangles.svg	stimuli_target_trianglesquares.svg	30	yes	57	0	699
6.6.1	and	2022-11-07	14:22:46	14:30:47	454314	5a6ff39ef660ae0001a9837e	107135399	1	main_slash	7	main_slash	65	stimuli_distractor_diamondtriangles.svg	stimuli_target_circletriangles.svg	13	yes	53	1	919
6.6.1	and	2022-11-07	14:22:46	14:30:47	454314	5a6ff39ef660ae0001a9837e	107135399	1	main_slash	7	advance_on_keypress_SLASH	66	stimuli_distractor_diamondtriangles.svg	stimuli_target_circletriangles.svg	13	yes	57	0	956
6.6.1	and	2022-11-07	14:22:46	14:30:49	456571	5a6ff39ef660ae0001a9837e	107135399	1	main_slash	7	main_slash	67	stimuli_distractor_trianglediamonds.svg	stimuli_target_circletriangles.svg	9	yes	53	1	676
6.6.1	and	2022-11-07	14:22:46	14:30:49	456571	5a6ff39ef660ae0001a9837e	107135399	1	main_slash	7	advance_on_keypress_SLASH	68	stimuli_distractor_trianglediamonds.svg	stimuli_target_circletriangles.svg	9	yes	57	0	968
6.6.1	and	2022-11-07	14:22:46	14:30:53	460162	5a6ff39ef660ae0001a9837e	107135399	1	main_slash	7	main_slash	69	stimuli_distractor_trianglediamonds.svg	stimuli_distractor_diamondtriangles.svg	36	no	0	1	2000
6.6.1	and	2022-11-07	14:22:46	14:30:53	460162	5a6ff39ef660ae0001a9837e	107135399	1	main_slash	7	advance_on_keypress_SLASH	70	stimuli_distractor_trianglediamonds.svg	stimuli_distractor_diamondtriangles.svg	36	no	57	0	891
6.6.1	and	2022-11-07	14:22:46	14:30:57	463679	5a6ff39ef660ae0001a9837e	107135399	1	main_slash	7	main_slash	71	stimuli_distractor_diamondtriangles.svg	stimuli_distractor_diamondtriangles.svg	39	no	0	1	2000
6.6.1	and	2022-11-07	14:22:46	14:30:57	463679	5a6ff39ef660ae0001a9837e	107135399	1	main_slash	7	advance_on_keypress_SLASH	72	stimuli_distractor_diamondtriangles.svg	stimuli_distractor_diamondtriangles.svg	39	no	57	0	405
6.6.1	and	2022-11-07	14:22:46	14:30:59	465876	5a6ff39ef660ae0001a9837e	107135399	1	main_slash	7	main_slash	73	stimuli_target_trianglesquares.svg	stimuli_distractor_trianglediamonds.svg	18	yes	53	1	1164
6.6.1	and	2022-11-07	14:22:46	14:30:59	465876	5a6ff39ef660ae0001a9837e	107135399	1	main_slash	7	advance_on_keypress_SLASH	74	stimuli_target_trianglesquares.svg	stimuli_distractor_trianglediamonds.svg	18	yes	57	0	3494
6.6.1	and	2022-11-07	14:22:46	14:31:04	470733	5a6ff39ef660ae0001a9837e	107135399	1	main_slash	7	main_slash	75	stimuli_target_circlediamonds.svg	stimuli_distractor_diamondtriangles.svg	6	yes	53	1	724
6.6.1	and	2022-11-07	14:22:46	14:31:04	470733	5a6ff39ef660ae0001a9837e	107135399	1	main_slash	7	advance_on_keypress_SLASH	76	stimuli_target_circlediamonds.svg	stimuli_distractor_diamondtriangles.svg	6	yes	57	0	961
6.6.1	and	2022-11-07	14:22:46	14:31:06	472950	5a6ff39ef660ae0001a9837e	107135399	1	main_slash	7	main_slash	77	stimuli_target_circletriangles.svg	stimuli_distractor_trianglediamonds.svg	1	yes	53	1	622
6.6.1	and	2022-11-07	14:22:46	14:31:06	472950	5a6ff39ef660ae0001a9837e	107135399	1	main_slash	7	advance_on_keypress_SLASH	78	stimuli_target_circletriangles.svg	stimuli_distractor_trianglediamonds.svg	1	yes	57	0	613
6.6.1	and	2022-11-07	14:22:46	14:31:08	475355	5a6ff39ef660ae0001a9837e	107135399	1	main_slash	7	main_slash	79	stimuli_target_diamondsquares.svg	stimuli_distractor_trianglediamonds.svg	20	yes	53	1	1160
6.6.1	and	2022-11-07	14:22:46	14:31:08	475355	5a6ff39ef660ae0001a9837e	107135399	1	main_slash	7	advance_on_keypress_SLASH	80	stimuli_target_diamondsquares.svg	stimuli_distractor_trianglediamonds.svg	20	yes	57	0	420
6.6.1	and	2022-11-07	14:22:46	14:31:10	477250	5a6ff39ef660ae0001a9837e	107135399	1	main_slash	7	main_slash	81	stimuli_distractor_trianglediamonds.svg	stimuli_target_trianglesquares.svg	26	yes	53	1	839
6.6.1	and	2022-11-07	14:22:46	14:31:10	477250	5a6ff39ef660ae0001a9837e	107135399	1	main_slash	7	advance_on_keypress_SLASH	82	stimuli_distractor_trianglediamonds.svg	stimuli_target_trianglesquares.svg	26	yes	57	0	421
6.6.1	and	2022-11-07	14:22:46	14:31:12	478898	5a6ff39ef660ae0001a9837e	107135399	1	main_slash	7	main_slash	83	stimuli_target_diamondsquares.svg	stimuli_distractor_diamondtriangles.svg	24	yes	53	1	601
6.6.1	and	2022-11-07	14:22:46	14:31:12	478898	5a6ff39ef660ae0001a9837e	107135399	1	main_slash	7	advance_on_keypress_SLASH	84	stimuli_target_diamondsquares.svg	stimuli_distractor_diamondtriangles.svg	24	yes	57	0	391
6.6.1	and	2022-11-07	14:22:46	14:31:14	481056	5a6ff39ef660ae0001a9837e	107135399	1	main_slash	7	main_slash	85	stimuli_distractor_trianglediamonds.svg	stimuli_distractor_diamondtriangles.svg	35	no	53	0	1144
6.6.1	and	2022-11-07	14:22:46	14:31:14	481056	5a6ff39ef660ae0001a9837e	107135399	1	main_slash	7	advance_on_keypress_SLASH	86	stimuli_distractor_trianglediamonds.svg	stimuli_distractor_diamondtriangles.svg	35	no	57	0	340
6.6.1	and	2022-11-07	14:22:46	14:31:17	484029	5a6ff39ef660ae0001a9837e	107135399	1	main_slash	7	main_slash	87	stimuli_distractor_trianglediamonds.svg	stimuli_distractor_trianglediamonds.svg	34	no	0	1	2000
6.6.1	and	2022-11-07	14:22:46	14:31:17	484029	5a6ff39ef660ae0001a9837e	107135399	1	main_slash	7	advance_on_keypress_SLASH	88	stimuli_distractor_trianglediamonds.svg	stimuli_distractor_trianglediamonds.svg	34	no	57	0	507
6.6.1	and	2022-11-07	14:22:46	14:31:19	485843	5a6ff39ef660ae0001a9837e	107135399	1	main_slash	7	main_slash	89	stimuli_distractor_diamondtriangles.svg	stimuli_target_circletriangles.svg	13	yes	53	1	683
6.6.1	and	2022-11-07	14:22:46	14:31:19	485843	5a6ff39ef660ae0001a9837e	107135399	1	main_slash	7	advance_on_keypress_SLASH	90	stimuli_distractor_diamondtriangles.svg	stimuli_target_circletriangles.svg	13	yes	57	0	559
6.6.1	and	2022-11-07	14:22:46	14:31:21	488519	5a6ff39ef660ae0001a9837e	107135399	1	main_slash	7	main_slash	91	stimuli_target_squarediamonds.svg	stimuli_distractor_diamondtriangles.svg	8	yes	53	1	1492
6.6.1	and	2022-11-07	14:22:46	14:31:21	488519	5a6ff39ef660ae0001a9837e	107135399	1	main_slash	7	advance_on_keypress_SLASH	92	stimuli_target_squarediamonds.svg	stimuli_distractor_diamondtriangles.svg	8	yes	57	0	524
6.6.1	and	2022-11-07	14:22:46	14:31:24	490675	5a6ff39ef660ae0001a9837e	107135399	1	main_slash	7	main_slash	93	stimuli_distractor_trianglediamonds.svg	stimuli_target_trianglecircles.svg	25	yes	53	1	1016
6.6.1	and	2022-11-07	14:22:46	14:31:24	490675	5a6ff39ef660ae0001a9837e	107135399	1	main_slash	7	advance_on_keypress_SLASH	94	stimuli_distractor_trianglediamonds.svg	stimuli_target_trianglecircles.svg	25	yes	57	0	713
6.6.1	and	2022-11-07	14:22:46	14:31:27	494028	5a6ff39ef660ae0001a9837e	107135399	1	main_slash	7	main_slash	95	stimuli_target_squaretriangles.svg	stimuli_distractor_diamondtriangles.svg	7	yes	0	0	2000
6.6.1	and	2022-11-07	14:22:46	14:31:27	494028	5a6ff39ef660ae0001a9837e	107135399	1	main_slash	7	advance_on_keypress_SLASH	96	stimuli_target_squaretriangles.svg	stimuli_distractor_diamondtriangles.svg	7	yes	57	0	503
6.6.1	and	2022-11-07	14:22:46	14:31:29	495635	5a6ff39ef660ae0001a9837e	107135399	1	main_slash	7	main_slash	97	stimuli_target_circlediamonds.svg	stimuli_distractor_diamondtriangles.svg	6	yes	53	1	475
6.6.1	and	2022-11-07	14:22:46	14:31:29	495635	5a6ff39ef660ae0001a9837e	107135399	1	main_slash	7	advance_on_keypress_SLASH	98	stimuli_target_circlediamonds.svg	stimuli_distractor_diamondtriangles.svg	6	yes	57	0	565
6.6.1	and	2022-11-07	14:22:46	14:31:31	497809	5a6ff39ef660ae0001a9837e	107135399	1	main_slash	7	main_slash	99	stimuli_target_trianglesquares.svg	stimuli_distractor_diamondtriangles.svg	22	yes	53	1	981
6.6.1	and	2022-11-07	14:22:46	14:31:31	497809	5a6ff39ef660ae0001a9837e	107135399	1	main_slash	7	advance_on_keypress_SLASH	100	stimuli_target_trianglesquares.svg	stimuli_distractor_diamondtriangles.svg	22	yes	57	0	459
6.6.1	and	2022-11-07	14:22:46	14:31:33	499699	5a6ff39ef660ae0001a9837e	107135399	1	main_slash	7	main_slash	101	stimuli_target_diamondcircles.svg	stimuli_distractor_diamondtriangles.svg	23	yes	53	1	787
6.6.1	and	2022-11-07	14:22:46	14:31:33	499699	5a6ff39ef660ae0001a9837e	107135399	1	main_slash	7	advance_on_keypress_SLASH	102	stimuli_target_diamondcircles.svg	stimuli_distractor_diamondtriangles.svg	23	yes	57	0	690
6.6.1	and	2022-11-07	14:22:46	14:31:36	503010	5a6ff39ef660ae0001a9837e	107135399	1	main_slash	7	main_slash	103	stimuli_distractor_diamondtriangles.svg	stimuli_distractor_diamondtriangles.svg	39	no	0	1	2000
6.6.1	and	2022-11-07	14:22:46	14:31:36	503010	5a6ff39ef660ae0001a9837e	107135399	1	main_slash	7	advance_on_keypress_SLASH	104	stimuli_distractor_diamondtriangles.svg	stimuli_distractor_diamondtriangles.svg	39	no	57	0	707
6.6.1	and	2022-11-07	14:22:46	14:31:38	504952	5a6ff39ef660ae0001a9837e	107135399	1	main_slash	7	main_slash	105	stimuli_target_squarediamonds.svg	stimuli_distractor_trianglediamonds.svg	4	yes	53	1	610
6.6.1	and	2022-11-07	14:22:46	14:31:38	504952	5a6ff39ef660ae0001a9837e	107135399	1	main_slash	7	advance_on_keypress_SLASH	106	stimuli_target_squarediamonds.svg	stimuli_distractor_trianglediamonds.svg	4	yes	57	0	912
6.6.1	and	2022-11-07	14:22:46	14:31:40	507030	5a6ff39ef660ae0001a9837e	107135399	1	main_slash	7	main_slash	107	stimuli_target_circletriangles.svg	stimuli_distractor_diamondtriangles.svg	5	yes	53	1	537
6.6.1	and	2022-11-07	14:22:46	14:31:40	507030	5a6ff39ef660ae0001a9837e	107135399	1	main_slash	7	advance_on_keypress_SLASH	108	stimuli_target_circletriangles.svg	stimuli_distractor_diamondtriangles.svg	5	yes	57	0	509
6.6.1	and	2022-11-07	14:22:46	14:31:42	508761	5a6ff39ef660ae0001a9837e	107135399	1	main_slash	7	main_slash	109	stimuli_target_circletriangles.svg	stimuli_distractor_trianglediamonds.svg	1	yes	53	1	601
6.6.1	and	2022-11-07	14:22:46	14:31:42	508761	5a6ff39ef660ae0001a9837e	107135399	1	main_slash	7	advance_on_keypress_SLASH	110	stimuli_target_circletriangles.svg	stimuli_distractor_trianglediamonds.svg	1	yes	57	0	482
6.6.1	and	2022-11-07	14:22:46	14:31:43	510486	5a6ff39ef660ae0001a9837e	107135399	1	main_slash	7	main_slash	111	stimuli_distractor_diamondtriangles.svg	stimuli_target_trianglecircles.svg	29	yes	53	1	609
6.6.1	and	2022-11-07	14:22:46	14:31:43	510486	5a6ff39ef660ae0001a9837e	107135399	1	main_slash	7	advance_on_keypress_SLASH	112	stimuli_distractor_diamondtriangles.svg	stimuli_target_trianglecircles.svg	29	yes	57	0	628
6.6.1	and	2022-11-07	14:22:46	14:31:45	512289	5a6ff39ef660ae0001a9837e	107135399	1	main_slash	7	main_slash	113	stimuli_distractor_trianglediamonds.svg	stimuli_target_circletriangles.svg	9	yes	53	1	546
6.6.1	and	2022-11-07	14:22:46	14:31:45	512289	5a6ff39ef660ae0001a9837e	107135399	1	main_slash	7	advance_on_keypress_SLASH	114	stimuli_distractor_trianglediamonds.svg	stimuli_target_circletriangles.svg	9	yes	57	0	747
6.6.1	and	2022-11-07	14:22:46	14:31:49	515678	5a6ff39ef660ae0001a9837e	107135399	1	main_slash	7	main_slash	115	stimuli_distractor_diamondtriangles.svg	stimuli_distractor_diamondtriangles.svg	40	no	0	1	2000
6.6.1	and	2022-11-07	14:22:46	14:31:49	515678	5a6ff39ef660ae0001a9837e	107135399	1	main_slash	7	advance_on_keypress_SLASH	116	stimuli_distractor_diamondtriangles.svg	stimuli_distractor_diamondtriangles.svg	40	no	57	0	357
6.6.1	and	2022-11-07	14:22:46	14:31:50	517387	5a6ff39ef660ae0001a9837e	107135399	1	main_slash	7	main_slash	117	stimuli_distractor_trianglediamonds.svg	stimuli_target_squarediamonds.svg	12	yes	53	1	726
6.6.1	and	2022-11-07	14:22:46	14:31:50	517387	5a6ff39ef660ae0001a9837e	107135399	1	main_slash	7	advance_on_keypress_SLASH	118	stimuli_distractor_trianglediamonds.svg	stimuli_target_squarediamonds.svg	12	yes	57	0	676
6.6.1	and	2022-11-07	14:22:46	14:31:53	519588	5a6ff39ef660ae0001a9837e	107135399	1	main_slash	7	main_slash	119	stimuli_distractor_diamondtriangles.svg	stimuli_target_trianglesquares.svg	30	yes	53	1	894
6.6.1	and	2022-11-07	14:22:46	14:31:53	519588	5a6ff39ef660ae0001a9837e	107135399	1	main_slash	7	advance_on_keypress_SLASH	120	stimuli_distractor_diamondtriangles.svg	stimuli_target_trianglesquares.svg	30	yes	57	0	611
6.6.1	and	2022-11-07	14:22:46	14:31:54	521528	5a6ff39ef660ae0001a9837e	107135399	1	main_slash	7	main_slash	121	stimuli_distractor_trianglediamonds.svg	stimuli_target_diamondcircles.svg	27	yes	53	1	685
6.6.1	and	2022-11-07	14:22:46	14:31:54	521528	5a6ff39ef660ae0001a9837e	107135399	1	main_slash	7	advance_on_keypress_SLASH	122	stimuli_distractor_trianglediamonds.svg	stimuli_target_diamondcircles.svg	27	yes	57	0	510
6.6.1	and	2022-11-07	14:22:46	14:31:56	523407	5a6ff39ef660ae0001a9837e	107135399	1	main_slash	7	main_slash	123	stimuli_distractor_diamondtriangles.svg	stimuli_target_circlediamonds.svg	14	yes	53	1	748
6.6.1	and	2022-11-07	14:22:46	14:31:56	523407	5a6ff39ef660ae0001a9837e	107135399	1	main_slash	7	advance_on_keypress_SLASH	124	stimuli_distractor_diamondtriangles.svg	stimuli_target_circlediamonds.svg	14	yes	57	0	426
6.6.1	and	2022-11-07	14:22:46	14:31:58	525029	5a6ff39ef660ae0001a9837e	107135399	1	main_slash	7	main_slash	125	stimuli_distractor_diamondtriangles.svg	stimuli_target_squarediamonds.svg	16	yes	53	1	570
6.6.1	and	2022-11-07	14:22:46	14:31:58	525029	5a6ff39ef660ae0001a9837e	107135399	1	main_slash	7	advance_on_keypress_SLASH	126	stimuli_distractor_diamondtriangles.svg	stimuli_target_squarediamonds.svg	16	yes	57	0	553
6.6.1	and	2022-11-07	14:22:46	14:32:00	526677	5a6ff39ef660ae0001a9837e	107135399	1	main_slash	7	main_slash	127	stimuli_target_squaretriangles.svg	stimuli_distractor_trianglediamonds.svg	3	yes	53	1	468
6.6.1	and	2022-11-07	14:22:46	14:32:00	526677	5a6ff39ef660ae0001a9837e	107135399	1	main_slash	7	advance_on_keypress_SLASH	128	stimuli_target_squaretriangles.svg	stimuli_distractor_trianglediamonds.svg	3	yes	57	0	397
6.6.1	and	2022-11-07	14:22:46	14:32:02	528902	5a6ff39ef660ae0001a9837e	107135399	1	main_slash	7	main_slash	129	stimuli_target_trianglecircles.svg	stimuli_distractor_diamondtriangles.svg	21	yes	53	1	1194
6.6.1	and	2022-11-07	14:22:46	14:32:02	528902	5a6ff39ef660ae0001a9837e	107135399	1	main_slash	7	advance_on_keypress_SLASH	130	stimuli_target_trianglecircles.svg	stimuli_distractor_diamondtriangles.svg	21	yes	57	0	391
6.6.1	and	2022-11-07	14:22:46	14:32:04	530567	5a6ff39ef660ae0001a9837e	107135399	1	main_slash	7	main_slash	131	stimuli_distractor_trianglediamonds.svg	stimuli_target_squaretriangles.svg	11	yes	53	1	639
6.6.1	and	2022-11-07	14:22:46	14:32:04	530567	5a6ff39ef660ae0001a9837e	107135399	1	main_slash	7	advance_on_keypress_SLASH	132	stimuli_distractor_trianglediamonds.svg	stimuli_target_squaretriangles.svg	11	yes	57	0	358
6.6.1	and	2022-11-07	14:22:46	14:32:05	532041	5a6ff39ef660ae0001a9837e	107135399	1	main_slash	7	main_slash	133	stimuli_distractor_trianglediamonds.svg	stimuli_target_circlediamonds.svg	10	yes	53	1	498
6.6.1	and	2022-11-07	14:22:46	14:32:05	532041	5a6ff39ef660ae0001a9837e	107135399	1	main_slash	7	advance_on_keypress_SLASH	134	stimuli_distractor_trianglediamonds.svg	stimuli_target_circlediamonds.svg	10	yes	57	0	379
6.6.1	and	2022-11-07	14:22:46	14:32:08	534717	5a6ff39ef660ae0001a9837e	107135399	1	main_slash	7	main_slash	135	stimuli_target_diamondsquares.svg	stimuli_distractor_trianglediamonds.svg	20	yes	53	1	1660
6.6.1	and	2022-11-07	14:22:46	14:32:08	534717	5a6ff39ef660ae0001a9837e	107135399	1	main_slash	7	advance_on_keypress_SLASH	136	stimuli_target_diamondsquares.svg	stimuli_distractor_trianglediamonds.svg	20	yes	57	0	487
6.6.1	and	2022-11-07	14:22:46	14:32:11	537827	5a6ff39ef660ae0001a9837e	107135399	1	main_slash	7	main_slash	137	stimuli_distractor_trianglediamonds.svg	stimuli_distractor_diamondtriangles.svg	36	no	0	1	2000
6.6.1	and	2022-11-07	14:22:46	14:32:11	537827	5a6ff39ef660ae0001a9837e	107135399	1	main_slash	7	advance_on_keypress_SLASH	138	stimuli_distractor_trianglediamonds.svg	stimuli_distractor_diamondtriangles.svg	36	no	57	0	599
6.6.1	and	2022-11-07	14:22:46	14:32:13	539679	5a6ff39ef660ae0001a9837e	107135399	1	main_slash	7	main_slash	139	stimuli_target_circlediamonds.svg	stimuli_distractor_trianglediamonds.svg	2	yes	53	1	621
6.6.1	and	2022-11-07	14:22:46	14:32:13	539679	5a6ff39ef660ae0001a9837e	107135399	1	main_slash	7	advance_on_keypress_SLASH	140	stimuli_target_circlediamonds.svg	stimuli_distractor_trianglediamonds.svg	2	yes	57	0	367
6.6.1	and	2022-11-07	14:22:46	14:32:14	541337	5a6ff39ef660ae0001a9837e	107135399	1	main_slash	7	main_slash	141	stimuli_distractor_diamondtriangles.svg	stimuli_target_squaretriangles.svg	15	yes	53	1	662
6.6.1	and	2022-11-07	14:22:46	14:32:14	541337	5a6ff39ef660ae0001a9837e	107135399	1	main_slash	7	advance_on_keypress_SLASH	142	stimuli_distractor_diamondtriangles.svg	stimuli_target_squaretriangles.svg	15	yes	57	0	413
6.6.1	and	2022-11-07	14:22:46	14:32:17	544392	5a6ff39ef660ae0001a9837e	107135399	1	main_slash	7	main_slash	143	stimuli_distractor_trianglediamonds.svg	stimuli_distractor_trianglediamonds.svg	33	no	0	1	2000
6.6.1	and	2022-11-07	14:22:46	14:32:17	544392	5a6ff39ef660ae0001a9837e	107135399	1	main_slash	7	advance_on_keypress_SLASH	144	stimuli_distractor_trianglediamonds.svg	stimuli_distractor_trianglediamonds.svg	33	no	57	0	620
6.6.1	and	2022-11-07	14:22:46	14:32:19	546271	5a6ff39ef660ae0001a9837e	107135399	1	main_slash	7	main_slash	145	stimuli_target_trianglecircles.svg	stimuli_distractor_trianglediamonds.svg	17	yes	53	1	627
6.6.1	and	2022-11-07	14:22:46	14:32:19	546271	5a6ff39ef660ae0001a9837e	107135399	1	main_slash	7	advance_on_keypress_SLASH	146	stimuli_target_trianglecircles.svg	stimuli_distractor_trianglediamonds.svg	17	yes	57	0	376
6.6.1	and	2022-11-07	14:22:46	14:32:22	549292	5a6ff39ef660ae0001a9837e	107135399	1	main_slash	7	main_slash	147	stimuli_distractor_diamondtriangles.svg	stimuli_distractor_trianglediamonds.svg	38	no	0	1	2000
6.6.1	and	2022-11-07	14:22:46	14:32:22	549292	5a6ff39ef660ae0001a9837e	107135399	1	main_slash	7	advance_on_keypress_SLASH	148	stimuli_distractor_diamondtriangles.svg	stimuli_distractor_trianglediamonds.svg	38	no	57	0	616
6.6.1	and	2022-11-07	14:22:46	14:32:24	551176	5a6ff39ef660ae0001a9837e	107135399	1	main_slash	7	main_slash	149	stimuli_distractor_diamondtriangles.svg	stimuli_target_diamondsquares.svg	32	yes	53	1	636
6.6.1	and	2022-11-07	14:22:46	14:32:24	551176	5a6ff39ef660ae0001a9837e	107135399	1	main_slash	7	advance_on_keypress_SLASH	150	stimuli_distractor_diamondtriangles.svg	stimuli_target_diamondsquares.svg	32	yes	57	0	405
6.6.1	and	2022-11-07	14:22:46	14:32:26	553216	5a6ff39ef660ae0001a9837e	107135399	1	main_slash	7	main_slash	151	stimuli_distractor_diamondtriangles.svg	stimuli_distractor_trianglediamonds.svg	37	no	53	0	1008
6.6.1	and	2022-11-07	14:22:46	14:32:26	553216	5a6ff39ef660ae0001a9837e	107135399	1	main_slash	7	advance_on_keypress_SLASH	152	stimuli_distractor_diamondtriangles.svg	stimuli_distractor_trianglediamonds.svg	37	no	57	0	738
6.6.1	and	2022-11-07	14:22:46	14:32:28	555109	5a6ff39ef660ae0001a9837e	107135399	1	main_slash	7	main_slash	153	stimuli_distractor_diamondtriangles.svg	stimuli_target_diamondcircles.svg	31	yes	53	1	535
6.6.1	and	2022-11-07	14:22:46	14:32:28	555109	5a6ff39ef660ae0001a9837e	107135399	1	main_slash	7	advance_on_keypress_SLASH	154	stimuli_distractor_diamondtriangles.svg	stimuli_target_diamondcircles.svg	31	yes	57	0	344
6.6.1	and	2022-11-07	14:22:46	14:32:30	556596	5a6ff39ef660ae0001a9837e	107135399	1	main_slash	7	main_slash	155	stimuli_target_diamondcircles.svg	stimuli_distractor_trianglediamonds.svg	19	yes	53	1	505
6.6.1	and	2022-11-07	14:22:46	14:32:30	556596	5a6ff39ef660ae0001a9837e	107135399	1	main_slash	7	advance_on_keypress_SLASH	156	stimuli_target_diamondcircles.svg	stimuli_distractor_trianglediamonds.svg	19	yes	57	0	339
6.6.1	and	2022-11-07	14:22:46	14:32:32	558868	5a6ff39ef660ae0001a9837e	107135399	1	main_slash	7	main_slash	157	stimuli_distractor_trianglediamonds.svg	stimuli_target_diamondsquares.svg	28	yes	53	1	1292
6.6.1	and	2022-11-07	14:22:46	14:32:32	558868	5a6ff39ef660ae0001a9837e	107135399	1	main_slash	7	advance_on_keypress_SLASH	158	stimuli_distractor_trianglediamonds.svg	stimuli_target_diamondsquares.svg	28	yes	57	0	388
6.6.1	and	2022-11-07	14:22:46	14:32:33	560463	5a6ff39ef660ae0001a9837e	107135399	1	main_slash	7	main_slash	159	stimuli_target_trianglesquares.svg	stimuli_distractor_trianglediamonds.svg	18	yes	53	1	572
6.6.1	and	2022-11-07	14:22:46	14:32:33	560463	5a6ff39ef660ae0001a9837e	107135399	1	main_slash	7	advance_on_keypress_SLASH	160	stimuli_target_trianglesquares.svg	stimuli_distractor_trianglediamonds.svg	18	yes	57	0	662
6.6.1	and	2022-11-07	14:22:46	14:34:22	668696	5a6ff39ef660ae0001a9837e	107135399	1	practice_z	9	practice_z	1	stimuli_target_diamondsquares.svg	stimuli_distractor_trianglediamonds.svg	6	yes	44	1	571
6.6.1	and	2022-11-07	14:22:46	14:34:22	668696	5a6ff39ef660ae0001a9837e	107135399	1	practice_z	9	advance_on_keypress_ZEE	2	stimuli_target_diamondsquares.svg	stimuli_distractor_trianglediamonds.svg	6	yes	57	0	470
6.6.1	and	2022-11-07	14:22:46	14:34:24	671224	5a6ff39ef660ae0001a9837e	107135399	1	practice_z	9	practice_z	3	stimuli_target_circlediamonds.svg	stimuli_distractor_diamondtriangles.svg	1	yes	44	1	419
6.6.1	and	2022-11-07	14:22:46	14:34:24	671224	5a6ff39ef660ae0001a9837e	107135399	1	practice_z	9	advance_on_keypress_ZEE	4	stimuli_target_circlediamonds.svg	stimuli_distractor_diamondtriangles.svg	1	yes	57	0	489
6.6.1	and	2022-11-07	14:22:46	14:34:27	673869	5a6ff39ef660ae0001a9837e	107135399	1	practice_z	9	practice_z	5	stimuli_distractor_diamondtriangles.svg	stimuli_target_diamondcircles.svg	8	yes	44	1	533
6.6.1	and	2022-11-07	14:22:46	14:34:27	673869	5a6ff39ef660ae0001a9837e	107135399	1	practice_z	9	advance_on_keypress_ZEE	6	stimuli_distractor_diamondtriangles.svg	stimuli_target_diamondcircles.svg	8	yes	57	0	409
6.6.1	and	2022-11-07	14:22:46	14:34:31	677905	5a6ff39ef660ae0001a9837e	107135399	1	practice_z	9	practice_z	7	stimuli_distractor_diamondtriangles.svg	stimuli_distractor_trianglediamonds.svg	14	no	0	1	2000
6.6.1	and	2022-11-07	14:22:46	14:34:31	677905	5a6ff39ef660ae0001a9837e	107135399	1	practice_z	9	advance_on_keypress_ZEE	8	stimuli_distractor_diamondtriangles.svg	stimuli_distractor_trianglediamonds.svg	14	no	57	0	94276
6.6.1	and	2022-11-07	14:22:46	14:36:09	775766	5a6ff39ef660ae0001a9837e	107135399	1	practice_z	9	practice_z	9	stimuli_distractor_diamondtriangles.svg	stimuli_target_circletriangles.svg	7	yes	0	0	2000
6.6.1	and	2022-11-07	14:22:46	14:36:09	775766	5a6ff39ef660ae0001a9837e	107135399	1	practice_z	9	advance_on_keypress_ZEE	10	stimuli_distractor_diamondtriangles.svg	stimuli_target_circletriangles.svg	7	yes	57	0	132468
6.6.1	and	2022-11-07	14:22:46	14:38:25	911805	5a6ff39ef660ae0001a9837e	107135399	1	practice_z	9	practice_z	11	stimuli_distractor_diamondtriangles.svg	stimuli_distractor_diamondtriangles.svg	13	no	0	1	2000
6.6.1	and	2022-11-07	14:22:46	14:38:25	911805	5a6ff39ef660ae0001a9837e	107135399	1	practice_z	9	advance_on_keypress_ZEE	12	stimuli_distractor_diamondtriangles.svg	stimuli_distractor_diamondtriangles.svg	13	no	57	0	63785
6.6.1	and	2022-11-07	14:22:46	14:39:31	977743	5a6ff39ef660ae0001a9837e	107135399	1	practice_z	9	practice_z	13	stimuli_distractor_trianglediamonds.svg	stimuli_target_squarediamonds.svg	11	yes	44	1	538
6.6.1	and	2022-11-07	14:22:46	14:39:31	977743	5a6ff39ef660ae0001a9837e	107135399	1	practice_z	9	advance_on_keypress_ZEE	14	stimuli_distractor_trianglediamonds.svg	stimuli_target_squarediamonds.svg	11	yes	57	0	1261
6.6.1	and	2022-11-07	14:22:46	14:39:34	981085	5a6ff39ef660ae0001a9837e	107135399	1	practice_z	9	practice_z	15	stimuli_distractor_trianglediamonds.svg	stimuli_target_circlediamonds.svg	10	yes	44	1	445
6.6.1	and	2022-11-07	14:22:46	14:39:34	981085	5a6ff39ef660ae0001a9837e	107135399	1	practice_z	9	advance_on_keypress_ZEE	16	stimuli_distractor_trianglediamonds.svg	stimuli_target_circlediamonds.svg	10	yes	57	0	351
6.6.1	and	2022-11-07	14:22:46	14:39:37	983456	5a6ff39ef660ae0001a9837e	107135399	1	practice_z	9	practice_z	17	stimuli_target_circlediamonds.svg	stimuli_distractor_trianglediamonds.svg	4	yes	44	1	381
6.6.1	and	2022-11-07	14:22:46	14:39:37	983456	5a6ff39ef660ae0001a9837e	107135399	1	practice_z	9	advance_on_keypress_ZEE	18	stimuli_target_circlediamonds.svg	stimuli_distractor_trianglediamonds.svg	4	yes	57	0	367
6.6.1	and	2022-11-07	14:22:46	14:39:39	986021	5a6ff39ef660ae0001a9837e	107135399	1	practice_z	9	practice_z	19	stimuli_distractor_trianglediamonds.svg	stimuli_distractor_diamondtriangles.svg	16	no	44	0	565
6.6.1	and	2022-11-07	14:22:46	14:39:39	986021	5a6ff39ef660ae0001a9837e	107135399	1	practice_z	9	advance_on_keypress_ZEE	20	stimuli_distractor_trianglediamonds.svg	stimuli_distractor_diamondtriangles.svg	16	no	57	0	367
6.6.1	and	2022-11-07	14:22:46	14:39:42	988460	5a6ff39ef660ae0001a9837e	107135399	1	practice_z	9	practice_z	21	stimuli_distractor_diamondtriangles.svg	stimuli_target_trianglecircles.svg	9	yes	44	1	437
6.6.1	and	2022-11-07	14:22:46	14:39:42	988460	5a6ff39ef660ae0001a9837e	107135399	1	practice_z	9	advance_on_keypress_ZEE	22	stimuli_distractor_diamondtriangles.svg	stimuli_target_trianglecircles.svg	9	yes	57	0	408
6.6.1	and	2022-11-07	14:22:46	14:39:46	992490	5a6ff39ef660ae0001a9837e	107135399	1	practice_z	9	practice_z	23	stimuli_distractor_trianglediamonds.svg	stimuli_distractor_trianglediamonds.svg	15	no	0	1	2000
6.6.1	and	2022-11-07	14:22:46	14:39:46	992490	5a6ff39ef660ae0001a9837e	107135399	1	practice_z	9	advance_on_keypress_ZEE	24	stimuli_distractor_trianglediamonds.svg	stimuli_distractor_trianglediamonds.svg	15	no	57	0	443
6.6.1	and	2022-11-07	14:22:46	14:39:48	995112	5a6ff39ef660ae0001a9837e	107135399	1	practice_z	9	practice_z	25	stimuli_target_diamondsquares.svg	stimuli_distractor_diamondtriangles.svg	3	yes	44	1	541
6.6.1	and	2022-11-07	14:22:46	14:39:48	995112	5a6ff39ef660ae0001a9837e	107135399	1	practice_z	9	advance_on_keypress_ZEE	26	stimuli_target_diamondsquares.svg	stimuli_distractor_diamondtriangles.svg	3	yes	57	0	553
6.6.1	and	2022-11-07	14:22:46	14:39:52	998576	5a6ff39ef660ae0001a9837e	107135399	1	practice_z	9	practice_z	27	stimuli_target_squarediamonds.svg	stimuli_distractor_diamondtriangles.svg	2	yes	44	1	1285
6.6.1	and	2022-11-07	14:22:46	14:39:52	998576	5a6ff39ef660ae0001a9837e	107135399	1	practice_z	9	advance_on_keypress_ZEE	28	stimuli_target_squarediamonds.svg	stimuli_distractor_diamondtriangles.svg	2	yes	57	0	120301
6.6.1	and	2022-11-07	14:22:46	14:41:54	1120992	5a6ff39ef660ae0001a9837e	107135399	1	practice_z	9	practice_z	29	stimuli_target_squarediamonds.svg	stimuli_distractor_trianglediamonds.svg	5	yes	44	1	542
6.6.1	and	2022-11-07	14:22:46	14:41:54	1120992	5a6ff39ef660ae0001a9837e	107135399	1	practice_z	9	advance_on_keypress_ZEE	30	stimuli_target_squarediamonds.svg	stimuli_distractor_trianglediamonds.svg	5	yes	57	0	367
6.6.1	and	2022-11-07	14:22:46	14:41:57	1123314	5a6ff39ef660ae0001a9837e	107135399	1	practice_z	9	practice_z	31	stimuli_distractor_trianglediamonds.svg	stimuli_target_diamondcircles.svg	12	yes	44	1	315
6.6.1	and	2022-11-07	14:22:46	14:41:57	1123314	5a6ff39ef660ae0001a9837e	107135399	1	practice_z	9	advance_on_keypress_ZEE	32	stimuli_distractor_trianglediamonds.svg	stimuli_target_diamondcircles.svg	12	yes	57	0	335
6.6.1	and	2022-11-07	14:22:46	14:42:01	1127731	5a6ff39ef660ae0001a9837e	107135399	1	main_z	11	main_z	1	stimuli_distractor_trianglediamonds.svg	stimuli_target_trianglecircles.svg	25	yes	44	1	389
6.6.1	and	2022-11-07	14:22:46	14:42:01	1127731	5a6ff39ef660ae0001a9837e	107135399	1	main_z	11	advance_on_keypress_ZEE	2	stimuli_distractor_trianglediamonds.svg	stimuli_target_trianglecircles.svg	25	yes	57	0	393
6.6.1	and	2022-11-07	14:22:46	14:42:03	1129260	5a6ff39ef660ae0001a9837e	107135399	1	main_z	11	main_z	3	stimuli_distractor_diamondtriangles.svg	stimuli_target_diamondcircles.svg	31	yes	44	1	494
6.6.1	and	2022-11-07	14:22:46	14:42:03	1129260	5a6ff39ef660ae0001a9837e	107135399	1	main_z	11	advance_on_keypress_ZEE	4	stimuli_distractor_diamondtriangles.svg	stimuli_target_diamondcircles.svg	31	yes	57	0	343
6.6.1	and	2022-11-07	14:22:46	14:42:06	1132250	5a6ff39ef660ae0001a9837e	107135399	1	main_z	11	main_z	5	stimuli_distractor_trianglediamonds.svg	stimuli_distractor_diamondtriangles.svg	36	no	0	1	2000
6.6.1	and	2022-11-07	14:22:46	14:42:06	1132250	5a6ff39ef660ae0001a9837e	107135399	1	main_z	11	advance_on_keypress_ZEE	6	stimuli_distractor_trianglediamonds.svg	stimuli_distractor_diamondtriangles.svg	36	no	57	0	399
6.6.1	and	2022-11-07	14:22:46	14:42:09	1135283	5a6ff39ef660ae0001a9837e	107135399	1	main_z	11	main_z	7	stimuli_target_squaretriangles.svg	stimuli_distractor_diamondtriangles.svg	7	yes	0	0	2000
6.6.1	and	2022-11-07	14:22:46	14:42:09	1135283	5a6ff39ef660ae0001a9837e	107135399	1	main_z	11	advance_on_keypress_ZEE	8	stimuli_target_squaretriangles.svg	stimuli_distractor_diamondtriangles.svg	7	yes	57	0	150
6.6.1	and	2022-11-07	14:22:46	14:42:11	1138065	5a6ff39ef660ae0001a9837e	107135399	1	main_z	11	main_z	9	stimuli_distractor_trianglediamonds.svg	stimuli_distractor_diamondtriangles.svg	35	no	0	1	2000
6.6.1	and	2022-11-07	14:22:46	14:42:11	1138065	5a6ff39ef660ae0001a9837e	107135399	1	main_z	11	advance_on_keypress_ZEE	10	stimuli_distractor_trianglediamonds.svg	stimuli_distractor_diamondtriangles.svg	35	no	57	0	447
6.6.1	and	2022-11-07	14:22:46	14:42:13	1139662	5a6ff39ef660ae0001a9837e	107135399	1	main_z	11	main_z	11	stimuli_distractor_diamondtriangles.svg	stimuli_target_diamondsquares.svg	32	yes	44	1	514
6.6.1	and	2022-11-07	14:22:46	14:42:13	1139662	5a6ff39ef660ae0001a9837e	107135399	1	main_z	11	advance_on_keypress_ZEE	12	stimuli_distractor_diamondtriangles.svg	stimuli_target_diamondsquares.svg	32	yes	57	0	468
6.6.1	and	2022-11-07	14:22:46	14:42:16	1142764	5a6ff39ef660ae0001a9837e	107135399	1	main_z	11	main_z	13	stimuli_distractor_diamondtriangles.svg	stimuli_distractor_diamondtriangles.svg	39	no	0	1	2000
6.6.1	and	2022-11-07	14:22:46	14:42:16	1142764	5a6ff39ef660ae0001a9837e	107135399	1	main_z	11	advance_on_keypress_ZEE	14	stimuli_distractor_diamondtriangles.svg	stimuli_distractor_diamondtriangles.svg	39	no	57	0	753
6.6.1	and	2022-11-07	14:22:46	14:42:18	1144585	5a6ff39ef660ae0001a9837e	107135399	1	main_z	11	main_z	15	stimuli_distractor_trianglediamonds.svg	stimuli_target_diamondcircles.svg	27	yes	44	1	438
6.6.1	and	2022-11-07	14:22:46	14:42:18	1144585	5a6ff39ef660ae0001a9837e	107135399	1	main_z	11	advance_on_keypress_ZEE	16	stimuli_distractor_trianglediamonds.svg	stimuli_target_diamondcircles.svg	27	yes	57	0	7919
6.6.1	and	2022-11-07	14:22:46	14:42:27	1153360	5a6ff39ef660ae0001a9837e	107135399	1	main_z	11	main_z	17	stimuli_distractor_diamondtriangles.svg	stimuli_target_circletriangles.svg	13	yes	44	1	234
6.6.1	and	2022-11-07	14:22:46	14:42:27	1153360	5a6ff39ef660ae0001a9837e	107135399	1	main_z	11	advance_on_keypress_ZEE	18	stimuli_distractor_diamondtriangles.svg	stimuli_target_circletriangles.svg	13	yes	57	0	59207
6.6.1	and	2022-11-07	14:22:46	14:43:27	1213589	5a6ff39ef660ae0001a9837e	107135399	1	main_z	11	main_z	19	stimuli_distractor_trianglediamonds.svg	stimuli_target_squaretriangles.svg	11	yes	44	1	410
6.6.1	and	2022-11-07	14:22:46	14:43:27	1213589	5a6ff39ef660ae0001a9837e	107135399	1	main_z	11	advance_on_keypress_ZEE	20	stimuli_distractor_trianglediamonds.svg	stimuli_target_squaretriangles.svg	11	yes	57	0	463
6.6.1	and	2022-11-07	14:22:46	14:43:30	1216694	5a6ff39ef660ae0001a9837e	107135399	1	main_z	11	main_z	21	stimuli_distractor_diamondtriangles.svg	stimuli_distractor_diamondtriangles.svg	40	no	0	1	2000
6.6.1	and	2022-11-07	14:22:46	14:43:30	1216694	5a6ff39ef660ae0001a9837e	107135399	1	main_z	11	advance_on_keypress_ZEE	22	stimuli_distractor_diamondtriangles.svg	stimuli_distractor_diamondtriangles.svg	40	no	57	0	4690
6.6.1	and	2022-11-07	14:22:46	14:43:36	1222571	5a6ff39ef660ae0001a9837e	107135399	1	main_z	11	main_z	23	stimuli_target_squarediamonds.svg	stimuli_distractor_trianglediamonds.svg	4	yes	44	1	563
6.6.1	and	2022-11-07	14:22:46	14:43:36	1222571	5a6ff39ef660ae0001a9837e	107135399	1	main_z	11	advance_on_keypress_ZEE	24	stimuli_target_squarediamonds.svg	stimuli_distractor_trianglediamonds.svg	4	yes	57	0	417
6.6.1	and	2022-11-07	14:22:46	14:43:38	1224635	5a6ff39ef660ae0001a9837e	107135399	1	main_z	11	main_z	25	stimuli_target_trianglecircles.svg	stimuli_distractor_diamondtriangles.svg	21	yes	44	1	1007
6.6.1	and	2022-11-07	14:22:46	14:43:38	1224635	5a6ff39ef660ae0001a9837e	107135399	1	main_z	11	advance_on_keypress_ZEE	26	stimuli_target_trianglecircles.svg	stimuli_distractor_diamondtriangles.svg	21	yes	57	0	526
6.6.1	and	2022-11-07	14:22:46	14:43:40	1227114	5a6ff39ef660ae0001a9837e	107135399	1	main_z	11	main_z	27	stimuli_distractor_trianglediamonds.svg	stimuli_target_squarediamonds.svg	12	yes	44	1	1320
6.6.1	and	2022-11-07	14:22:46	14:43:40	1227114	5a6ff39ef660ae0001a9837e	107135399	1	main_z	11	advance_on_keypress_ZEE	28	stimuli_distractor_trianglediamonds.svg	stimuli_target_squarediamonds.svg	12	yes	57	0	377
6.6.1	and	2022-11-07	14:22:46	14:43:43	1229243	5a6ff39ef660ae0001a9837e	107135399	1	main_z	11	main_z	29	stimuli_distractor_diamondtriangles.svg	stimuli_target_squaretriangles.svg	15	yes	44	1	1116
6.6.1	and	2022-11-07	14:22:46	14:43:43	1229243	5a6ff39ef660ae0001a9837e	107135399	1	main_z	11	advance_on_keypress_ZEE	30	stimuli_distractor_diamondtriangles.svg	stimuli_target_squaretriangles.svg	15	yes	57	0	414
6.6.1	and	2022-11-07	14:22:46	14:43:44	1230826	5a6ff39ef660ae0001a9837e	107135399	1	main_z	11	main_z	31	stimuli_target_diamondsquares.svg	stimuli_distractor_diamondtriangles.svg	24	yes	44	1	533
6.6.1	and	2022-11-07	14:22:46	14:43:44	1230826	5a6ff39ef660ae0001a9837e	107135399	1	main_z	11	advance_on_keypress_ZEE	32	stimuli_target_diamondsquares.svg	stimuli_distractor_diamondtriangles.svg	24	yes	57	0	28807
6.6.1	and	2022-11-07	14:22:46	14:44:14	1260831	5a6ff39ef660ae0001a9837e	107135399	1	main_z	11	main_z	33	stimuli_target_trianglesquares.svg	stimuli_distractor_diamondtriangles.svg	22	yes	44	1	569
6.6.1	and	2022-11-07	14:22:46	14:44:14	1260831	5a6ff39ef660ae0001a9837e	107135399	1	main_z	11	advance_on_keypress_ZEE	34	stimuli_target_trianglesquares.svg	stimuli_distractor_diamondtriangles.svg	22	yes	57	0	855
6.6.1	and	2022-11-07	14:22:46	14:44:16	1262640	5a6ff39ef660ae0001a9837e	107135399	1	main_z	11	main_z	35	stimuli_distractor_diamondtriangles.svg	stimuli_distractor_trianglediamonds.svg	38	no	44	0	332
6.6.1	and	2022-11-07	14:22:46	14:44:16	1262640	5a6ff39ef660ae0001a9837e	107135399	1	main_z	11	advance_on_keypress_ZEE	36	stimuli_distractor_diamondtriangles.svg	stimuli_distractor_trianglediamonds.svg	38	no	57	0	670
6.6.1	and	2022-11-07	14:22:46	14:44:18	1264436	5a6ff39ef660ae0001a9837e	107135399	1	main_z	11	main_z	37	stimuli_distractor_diamondtriangles.svg	stimuli_target_trianglesquares.svg	30	yes	44	1	493
6.6.1	and	2022-11-07	14:22:46	14:44:18	1264436	5a6ff39ef660ae0001a9837e	107135399	1	main_z	11	advance_on_keypress_ZEE	38	stimuli_distractor_diamondtriangles.svg	stimuli_target_trianglesquares.svg	30	yes	57	0	805
6.6.1	and	2022-11-07	14:22:46	14:44:20	1266351	5a6ff39ef660ae0001a9837e	107135399	1	main_z	11	main_z	39	stimuli_target_circletriangles.svg	stimuli_distractor_diamondtriangles.svg	5	yes	44	1	475
6.6.1	and	2022-11-07	14:22:46	14:44:20	1266351	5a6ff39ef660ae0001a9837e	107135399	1	main_z	11	advance_on_keypress_ZEE	40	stimuli_target_circletriangles.svg	stimuli_distractor_diamondtriangles.svg	5	yes	57	0	570
6.6.1	and	2022-11-07	14:22:46	14:44:21	1267876	5a6ff39ef660ae0001a9837e	107135399	1	main_z	11	main_z	41	stimuli_distractor_trianglediamonds.svg	stimuli_target_trianglesquares.svg	26	yes	44	1	333
6.6.1	and	2022-11-07	14:22:46	14:44:21	1267876	5a6ff39ef660ae0001a9837e	107135399	1	main_z	11	advance_on_keypress_ZEE	42	stimuli_distractor_trianglediamonds.svg	stimuli_target_trianglesquares.svg	26	yes	57	0	457
6.6.1	and	2022-11-07	14:22:46	14:44:24	1270958	5a6ff39ef660ae0001a9837e	107135399	1	main_z	11	main_z	43	stimuli_distractor_trianglediamonds.svg	stimuli_distractor_trianglediamonds.svg	33	no	0	1	2000
6.6.1	and	2022-11-07	14:22:46	14:44:24	1270958	5a6ff39ef660ae0001a9837e	107135399	1	main_z	11	advance_on_keypress_ZEE	44	stimuli_distractor_trianglediamonds.svg	stimuli_distractor_trianglediamonds.svg	33	no	57	0	413
6.6.1	and	2022-11-07	14:22:46	14:44:26	1272475	5a6ff39ef660ae0001a9837e	107135399	1	main_z	11	main_z	45	stimuli_target_diamondcircles.svg	stimuli_distractor_diamondtriangles.svg	23	yes	44	1	466
6.6.1	and	2022-11-07	14:22:46	14:44:26	1272475	5a6ff39ef660ae0001a9837e	107135399	1	main_z	11	advance_on_keypress_ZEE	46	stimuli_target_diamondcircles.svg	stimuli_distractor_diamondtriangles.svg	23	yes	57	0	531
6.6.1	and	2022-11-07	14:22:46	14:44:27	1273970	5a6ff39ef660ae0001a9837e	107135399	1	main_z	11	main_z	47	stimuli_target_trianglecircles.svg	stimuli_distractor_trianglediamonds.svg	17	yes	44	1	328
6.6.1	and	2022-11-07	14:22:46	14:44:27	1273970	5a6ff39ef660ae0001a9837e	107135399	1	main_z	11	advance_on_keypress_ZEE	48	stimuli_target_trianglecircles.svg	stimuli_distractor_trianglediamonds.svg	17	yes	57	0	554
6.6.1	and	2022-11-07	14:22:46	14:44:29	1275558	5a6ff39ef660ae0001a9837e	107135399	1	main_z	11	main_z	49	stimuli_distractor_trianglediamonds.svg	stimuli_target_circlediamonds.svg	10	yes	44	1	386
6.6.1	and	2022-11-07	14:22:46	14:44:29	1275558	5a6ff39ef660ae0001a9837e	107135399	1	main_z	11	advance_on_keypress_ZEE	50	stimuli_distractor_trianglediamonds.svg	stimuli_target_circlediamonds.svg	10	yes	57	0	446
6.6.1	and	2022-11-07	14:22:46	14:44:32	1278642	5a6ff39ef660ae0001a9837e	107135399	1	main_z	11	main_z	51	stimuli_target_squarediamonds.svg	stimuli_distractor_diamondtriangles.svg	8	yes	0	0	2000
6.6.1	and	2022-11-07	14:22:46	14:44:32	1278642	5a6ff39ef660ae0001a9837e	107135399	1	main_z	11	advance_on_keypress_ZEE	52	stimuli_target_squarediamonds.svg	stimuli_distractor_diamondtriangles.svg	8	yes	57	0	451
6.6.1	and	2022-11-07	14:22:46	14:44:33	1280126	5a6ff39ef660ae0001a9837e	107135399	1	main_z	11	main_z	53	stimuli_target_trianglesquares.svg	stimuli_distractor_trianglediamonds.svg	18	yes	44	1	403
6.6.1	and	2022-11-07	14:22:46	14:44:33	1280126	5a6ff39ef660ae0001a9837e	107135399	1	main_z	11	advance_on_keypress_ZEE	54	stimuli_target_trianglesquares.svg	stimuli_distractor_trianglediamonds.svg	18	yes	57	0	657
6.6.1	and	2022-11-07	14:22:46	14:44:35	1281892	5a6ff39ef660ae0001a9837e	107135399	1	main_z	11	main_z	55	stimuli_target_diamondsquares.svg	stimuli_distractor_trianglediamonds.svg	20	yes	44	1	484
6.6.1	and	2022-11-07	14:22:46	14:44:35	1281892	5a6ff39ef660ae0001a9837e	107135399	1	main_z	11	advance_on_keypress_ZEE	56	stimuli_target_diamondsquares.svg	stimuli_distractor_trianglediamonds.svg	20	yes	57	0	491
6.6.1	and	2022-11-07	14:22:46	14:44:37	1283440	5a6ff39ef660ae0001a9837e	107135399	1	main_z	11	main_z	57	stimuli_target_circlediamonds.svg	stimuli_distractor_trianglediamonds.svg	2	yes	44	1	433
6.6.1	and	2022-11-07	14:22:46	14:44:37	1283440	5a6ff39ef660ae0001a9837e	107135399	1	main_z	11	advance_on_keypress_ZEE	58	stimuli_target_circlediamonds.svg	stimuli_distractor_trianglediamonds.svg	2	yes	57	0	711
6.6.1	and	2022-11-07	14:22:46	14:44:39	1285270	5a6ff39ef660ae0001a9837e	107135399	1	main_z	11	main_z	59	stimuli_target_squaretriangles.svg	stimuli_distractor_trianglediamonds.svg	3	yes	44	1	479
6.6.1	and	2022-11-07	14:22:46	14:44:39	1285270	5a6ff39ef660ae0001a9837e	107135399	1	main_z	11	advance_on_keypress_ZEE	60	stimuli_target_squaretriangles.svg	stimuli_distractor_trianglediamonds.svg	3	yes	57	0	594
6.6.1	and	2022-11-07	14:22:46	14:44:40	1287144	5a6ff39ef660ae0001a9837e	107135399	1	main_z	11	main_z	61	stimuli_distractor_diamondtriangles.svg	stimuli_target_circlediamonds.svg	14	yes	44	1	636
6.6.1	and	2022-11-07	14:22:46	14:44:40	1287144	5a6ff39ef660ae0001a9837e	107135399	1	main_z	11	advance_on_keypress_ZEE	62	stimuli_distractor_diamondtriangles.svg	stimuli_target_circlediamonds.svg	14	yes	57	0	2018
6.6.1	and	2022-11-07	14:22:46	14:44:44	1290242	5a6ff39ef660ae0001a9837e	107135399	1	main_z	11	main_z	63	stimuli_distractor_trianglediamonds.svg	stimuli_target_circletriangles.svg	9	yes	44	1	451
6.6.1	and	2022-11-07	14:22:46	14:44:44	1290242	5a6ff39ef660ae0001a9837e	107135399	1	main_z	11	advance_on_keypress_ZEE	64	stimuli_distractor_trianglediamonds.svg	stimuli_target_circletriangles.svg	9	yes	57	0	722
6.6.1	and	2022-11-07	14:22:46	14:44:45	1291946	5a6ff39ef660ae0001a9837e	107135399	1	main_z	11	main_z	65	stimuli_target_diamondcircles.svg	stimuli_distractor_trianglediamonds.svg	19	yes	44	1	356
6.6.1	and	2022-11-07	14:22:46	14:44:45	1291946	5a6ff39ef660ae0001a9837e	107135399	1	main_z	11	advance_on_keypress_ZEE	66	stimuli_target_diamondcircles.svg	stimuli_distractor_trianglediamonds.svg	19	yes	57	0	499
6.6.1	and	2022-11-07	14:22:46	14:44:47	1293414	5a6ff39ef660ae0001a9837e	107135399	1	main_z	11	main_z	67	stimuli_target_circletriangles.svg	stimuli_distractor_trianglediamonds.svg	1	yes	44	1	340
6.6.1	and	2022-11-07	14:22:46	14:44:47	1293414	5a6ff39ef660ae0001a9837e	107135399	1	main_z	11	advance_on_keypress_ZEE	68	stimuli_target_circletriangles.svg	stimuli_distractor_trianglediamonds.svg	1	yes	57	0	585
6.6.1	and	2022-11-07	14:22:46	14:44:48	1294943	5a6ff39ef660ae0001a9837e	107135399	1	main_z	11	main_z	69	stimuli_distractor_diamondtriangles.svg	stimuli_distractor_trianglediamonds.svg	37	no	44	0	319
6.6.1	and	2022-11-07	14:22:46	14:44:48	1294943	5a6ff39ef660ae0001a9837e	107135399	1	main_z	11	advance_on_keypress_ZEE	70	stimuli_distractor_diamondtriangles.svg	stimuli_distractor_trianglediamonds.svg	37	no	57	0	680
6.6.1	and	2022-11-07	14:22:46	14:44:50	1296597	5a6ff39ef660ae0001a9837e	107135399	1	main_z	11	main_z	71	stimuli_distractor_diamondtriangles.svg	stimuli_target_squarediamonds.svg	16	yes	44	1	339
6.6.1	and	2022-11-07	14:22:46	14:44:50	1296597	5a6ff39ef660ae0001a9837e	107135399	1	main_z	11	advance_on_keypress_ZEE	72	stimuli_distractor_diamondtriangles.svg	stimuli_target_squarediamonds.svg	16	yes	57	0	751
6.6.1	and	2022-11-07	14:22:46	14:44:52	1298875	5a6ff39ef660ae0001a9837e	107135399	1	main_z	11	main_z	73	stimuli_distractor_trianglediamonds.svg	stimuli_distractor_trianglediamonds.svg	34	no	44	0	901
6.6.1	and	2022-11-07	14:22:46	14:44:52	1298875	5a6ff39ef660ae0001a9837e	107135399	1	main_z	11	advance_on_keypress_ZEE	74	stimuli_distractor_trianglediamonds.svg	stimuli_distractor_trianglediamonds.svg	34	no	57	0	564
6.6.1	and	2022-11-07	14:22:46	14:44:54	1300345	5a6ff39ef660ae0001a9837e	107135399	1	main_z	11	main_z	75	stimuli_target_circlediamonds.svg	stimuli_distractor_diamondtriangles.svg	6	yes	44	1	271
6.6.1	and	2022-11-07	14:22:46	14:44:54	1300345	5a6ff39ef660ae0001a9837e	107135399	1	main_z	11	advance_on_keypress_ZEE	76	stimuli_target_circlediamonds.svg	stimuli_distractor_diamondtriangles.svg	6	yes	57	0	563
6.6.1	and	2022-11-07	14:22:46	14:44:55	1302069	5a6ff39ef660ae0001a9837e	107135399	1	main_z	11	main_z	77	stimuli_distractor_diamondtriangles.svg	stimuli_target_trianglecircles.svg	29	yes	44	1	529
6.6.1	and	2022-11-07	14:22:46	14:44:55	1302069	5a6ff39ef660ae0001a9837e	107135399	1	main_z	11	advance_on_keypress_ZEE	78	stimuli_distractor_diamondtriangles.svg	stimuli_target_trianglecircles.svg	29	yes	57	0	671
6.6.1	and	2022-11-07	14:22:46	14:44:59	1305375	5a6ff39ef660ae0001a9837e	107135399	1	main_z	11	main_z	79	stimuli_distractor_trianglediamonds.svg	stimuli_target_diamondsquares.svg	28	yes	0	0	2000
6.6.1	and	2022-11-07	14:22:46	14:44:59	1305375	5a6ff39ef660ae0001a9837e	107135399	1	main_z	11	advance_on_keypress_ZEE	80	stimuli_distractor_trianglediamonds.svg	stimuli_target_diamondsquares.svg	28	yes	57	0	587
6.6.1	and	2022-11-07	14:22:46	14:45:00	1306661	5a6ff39ef660ae0001a9837e	107135399	1	main_z	11	main_z	81	stimuli_distractor_trianglediamonds.svg	stimuli_distractor_diamondtriangles.svg	35	no	44	0	72
6.6.1	and	2022-11-07	14:22:46	14:45:00	1306661	5a6ff39ef660ae0001a9837e	107135399	1	main_z	11	advance_on_keypress_ZEE	82	stimuli_distractor_trianglediamonds.svg	stimuli_distractor_diamondtriangles.svg	35	no	57	0	159614
6.6.1	and	2022-11-07	14:22:46	14:47:41	1467171	5a6ff39ef660ae0001a9837e	107135399	1	main_z	11	main_z	83	stimuli_distractor_diamondtriangles.svg	stimuli_target_diamondcircles.svg	31	yes	44	1	344
6.6.1	and	2022-11-07	14:22:46	14:47:41	1467171	5a6ff39ef660ae0001a9837e	107135399	1	main_z	11	advance_on_keypress_ZEE	84	stimuli_distractor_diamondtriangles.svg	stimuli_target_diamondcircles.svg	31	yes	57	0	386
6.6.1	and	2022-11-07	14:22:46	14:47:42	1468456	5a6ff39ef660ae0001a9837e	107135399	1	main_z	11	main_z	85	stimuli_distractor_diamondtriangles.svg	stimuli_target_circlediamonds.svg	14	yes	44	1	274
6.6.1	and	2022-11-07	14:22:46	14:47:42	1468456	5a6ff39ef660ae0001a9837e	107135399	1	main_z	11	advance_on_keypress_ZEE	86	stimuli_distractor_diamondtriangles.svg	stimuli_target_circlediamonds.svg	14	yes	57	0	409
6.6.1	and	2022-11-07	14:22:46	14:47:43	1469825	5a6ff39ef660ae0001a9837e	107135399	1	main_z	11	main_z	87	stimuli_distractor_diamondtriangles.svg	stimuli_target_squarediamonds.svg	16	yes	44	1	326
6.6.1	and	2022-11-07	14:22:46	14:47:43	1469825	5a6ff39ef660ae0001a9837e	107135399	1	main_z	11	advance_on_keypress_ZEE	88	stimuli_distractor_diamondtriangles.svg	stimuli_target_squarediamonds.svg	16	yes	57	0	335
6.6.1	and	2022-11-07	14:22:46	14:47:45	1471118	5a6ff39ef660ae0001a9837e	107135399	1	main_z	11	main_z	89	stimuli_distractor_diamondtriangles.svg	stimuli_target_circletriangles.svg	13	yes	44	1	335
6.6.1	and	2022-11-07	14:22:46	14:47:45	1471118	5a6ff39ef660ae0001a9837e	107135399	1	main_z	11	advance_on_keypress_ZEE	90	stimuli_distractor_diamondtriangles.svg	stimuli_target_circletriangles.svg	13	yes	57	0	333
6.6.1	and	2022-11-07	14:22:46	14:47:46	1472366	5a6ff39ef660ae0001a9837e	107135399	1	main_z	11	main_z	91	stimuli_distractor_trianglediamonds.svg	stimuli_target_squarediamonds.svg	12	yes	44	1	284
6.6.1	and	2022-11-07	14:22:46	14:47:46	1472366	5a6ff39ef660ae0001a9837e	107135399	1	main_z	11	advance_on_keypress_ZEE	92	stimuli_distractor_trianglediamonds.svg	stimuli_target_squarediamonds.svg	12	yes	57	0	356
6.6.1	and	2022-11-07	14:22:46	14:47:47	1473619	5a6ff39ef660ae0001a9837e	107135399	1	main_z	11	main_z	93	stimuli_target_diamondcircles.svg	stimuli_distractor_diamondtriangles.svg	23	yes	44	1	269
6.6.1	and	2022-11-07	14:22:46	14:47:47	1473619	5a6ff39ef660ae0001a9837e	107135399	1	main_z	11	advance_on_keypress_ZEE	94	stimuli_target_diamondcircles.svg	stimuli_distractor_diamondtriangles.svg	23	yes	57	0	375
6.6.1	and	2022-11-07	14:22:46	14:47:48	1474977	5a6ff39ef660ae0001a9837e	107135399	1	main_z	11	main_z	95	stimuli_target_trianglecircles.svg	stimuli_distractor_diamondtriangles.svg	21	yes	44	1	343
6.6.1	and	2022-11-07	14:22:46	14:47:48	1474977	5a6ff39ef660ae0001a9837e	107135399	1	main_z	11	advance_on_keypress_ZEE	96	stimuli_target_trianglecircles.svg	stimuli_distractor_diamondtriangles.svg	21	yes	57	0	286
6.6.1	and	2022-11-07	14:22:46	14:47:50	1476261	5a6ff39ef660ae0001a9837e	107135399	1	main_z	11	main_z	97	stimuli_target_trianglesquares.svg	stimuli_distractor_trianglediamonds.svg	18	yes	44	1	362
6.6.1	and	2022-11-07	14:22:46	14:47:50	1476261	5a6ff39ef660ae0001a9837e	107135399	1	main_z	11	advance_on_keypress_ZEE	98	stimuli_target_trianglesquares.svg	stimuli_distractor_trianglediamonds.svg	18	yes	57	0	316
6.6.1	and	2022-11-07	14:22:46	14:47:51	1477617	5a6ff39ef660ae0001a9837e	107135399	1	main_z	11	main_z	99	stimuli_distractor_trianglediamonds.svg	stimuli_target_circletriangles.svg	9	yes	44	1	402
6.6.1	and	2022-11-07	14:22:46	14:47:51	1477617	5a6ff39ef660ae0001a9837e	107135399	1	main_z	11	advance_on_keypress_ZEE	100	stimuli_distractor_trianglediamonds.svg	stimuli_target_circletriangles.svg	9	yes	57	0	388
6.6.1	and	2022-11-07	14:22:46	14:47:54	1480632	5a6ff39ef660ae0001a9837e	107135399	1	main_z	11	main_z	101	stimuli_distractor_trianglediamonds.svg	stimuli_distractor_trianglediamonds.svg	33	no	0	1	2000
6.6.1	and	2022-11-07	14:22:46	14:47:54	1480632	5a6ff39ef660ae0001a9837e	107135399	1	main_z	11	advance_on_keypress_ZEE	102	stimuli_distractor_trianglediamonds.svg	stimuli_distractor_trianglediamonds.svg	33	no	57	0	603
6.6.1	and	2022-11-07	14:22:46	14:47:56	1482114	5a6ff39ef660ae0001a9837e	107135399	1	main_z	11	main_z	103	stimuli_target_diamondcircles.svg	stimuli_distractor_trianglediamonds.svg	19	yes	44	1	249
6.6.1	and	2022-11-07	14:22:46	14:47:56	1482114	5a6ff39ef660ae0001a9837e	107135399	1	main_z	11	advance_on_keypress_ZEE	104	stimuli_target_diamondcircles.svg	stimuli_distractor_trianglediamonds.svg	19	yes	57	0	387
6.6.1	and	2022-11-07	14:22:46	14:47:57	1483628	5a6ff39ef660ae0001a9837e	107135399	1	main_z	11	main_z	105	stimuli_distractor_trianglediamonds.svg	stimuli_target_circlediamonds.svg	10	yes	44	1	497
6.6.1	and	2022-11-07	14:22:46	14:47:57	1483628	5a6ff39ef660ae0001a9837e	107135399	1	main_z	11	advance_on_keypress_ZEE	106	stimuli_distractor_trianglediamonds.svg	stimuli_target_circlediamonds.svg	10	yes	57	0	374
6.6.1	and	2022-11-07	14:22:46	14:47:59	1485195	5a6ff39ef660ae0001a9837e	107135399	1	main_z	11	main_z	107	stimuli_target_diamondsquares.svg	stimuli_distractor_diamondtriangles.svg	24	yes	44	1	564
6.6.1	and	2022-11-07	14:22:46	14:47:59	1485195	5a6ff39ef660ae0001a9837e	107135399	1	main_z	11	advance_on_keypress_ZEE	108	stimuli_target_diamondsquares.svg	stimuli_distractor_diamondtriangles.svg	24	yes	57	0	291
6.6.1	and	2022-11-07	14:22:46	14:48:00	1486404	5a6ff39ef660ae0001a9837e	107135399	1	main_z	11	main_z	109	stimuli_target_diamondsquares.svg	stimuli_distractor_trianglediamonds.svg	20	yes	44	1	289
6.6.1	and	2022-11-07	14:22:46	14:48:00	1486404	5a6ff39ef660ae0001a9837e	107135399	1	main_z	11	advance_on_keypress_ZEE	110	stimuli_target_diamondsquares.svg	stimuli_distractor_trianglediamonds.svg	20	yes	57	0	358
6.6.1	and	2022-11-07	14:22:46	14:48:01	1487719	5a6ff39ef660ae0001a9837e	107135399	1	main_z	11	main_z	111	stimuli_target_squaretriangles.svg	stimuli_distractor_diamondtriangles.svg	7	yes	44	1	338
6.6.1	and	2022-11-07	14:22:46	14:48:01	1487719	5a6ff39ef660ae0001a9837e	107135399	1	main_z	11	advance_on_keypress_ZEE	112	stimuli_target_squaretriangles.svg	stimuli_distractor_diamondtriangles.svg	7	yes	57	0	348
6.6.1	and	2022-11-07	14:22:46	14:48:03	1489174	5a6ff39ef660ae0001a9837e	107135399	1	main_z	11	main_z	113	stimuli_distractor_diamondtriangles.svg	stimuli_target_diamondsquares.svg	32	yes	44	1	473
6.6.1	and	2022-11-07	14:22:46	14:48:03	1489174	5a6ff39ef660ae0001a9837e	107135399	1	main_z	11	advance_on_keypress_ZEE	114	stimuli_distractor_diamondtriangles.svg	stimuli_target_diamondsquares.svg	32	yes	57	0	340
6.6.1	and	2022-11-07	14:22:46	14:48:04	1490455	5a6ff39ef660ae0001a9837e	107135399	1	main_z	11	main_z	115	stimuli_target_circletriangles.svg	stimuli_distractor_diamondtriangles.svg	5	yes	44	1	322
6.6.1	and	2022-11-07	14:22:46	14:48:04	1490455	5a6ff39ef660ae0001a9837e	107135399	1	main_z	11	advance_on_keypress_ZEE	116	stimuli_target_circletriangles.svg	stimuli_distractor_diamondtriangles.svg	5	yes	57	0	321
6.6.1	and	2022-11-07	14:22:46	14:48:05	1491799	5a6ff39ef660ae0001a9837e	107135399	1	main_z	11	main_z	117	stimuli_distractor_trianglediamonds.svg	stimuli_target_squaretriangles.svg	11	yes	44	1	401
6.6.1	and	2022-11-07	14:22:46	14:48:05	1491799	5a6ff39ef660ae0001a9837e	107135399	1	main_z	11	advance_on_keypress_ZEE	118	stimuli_distractor_trianglediamonds.svg	stimuli_target_squaretriangles.svg	11	yes	57	0	299
6.6.1	and	2022-11-07	14:22:46	14:48:06	1492999	5a6ff39ef660ae0001a9837e	107135399	1	main_z	11	main_z	119	stimuli_target_squarediamonds.svg	stimuli_distractor_diamondtriangles.svg	8	yes	44	1	268
6.6.1	and	2022-11-07	14:22:46	14:48:06	1492999	5a6ff39ef660ae0001a9837e	107135399	1	main_z	11	advance_on_keypress_ZEE	120	stimuli_target_squarediamonds.svg	stimuli_distractor_diamondtriangles.svg	8	yes	57	0	283
6.6.1	and	2022-11-07	14:22:46	14:48:08	1494244	5a6ff39ef660ae0001a9837e	107135399	1	main_z	11	main_z	121	stimuli_target_trianglecircles.svg	stimuli_distractor_trianglediamonds.svg	17	yes	44	1	329
6.6.1	and	2022-11-07	14:22:46	14:48:08	1494244	5a6ff39ef660ae0001a9837e	107135399	1	main_z	11	advance_on_keypress_ZEE	122	stimuli_target_trianglecircles.svg	stimuli_distractor_trianglediamonds.svg	17	yes	57	0	309
6.6.1	and	2022-11-07	14:22:46	14:48:09	1495497	5a6ff39ef660ae0001a9837e	107135399	1	main_z	11	main_z	123	stimuli_distractor_diamondtriangles.svg	stimuli_target_squaretriangles.svg	15	yes	44	1	316
6.6.1	and	2022-11-07	14:22:46	14:48:09	1495497	5a6ff39ef660ae0001a9837e	107135399	1	main_z	11	advance_on_keypress_ZEE	124	stimuli_distractor_diamondtriangles.svg	stimuli_target_squaretriangles.svg	15	yes	57	0	331
6.6.1	and	2022-11-07	14:22:46	14:48:10	1496793	5a6ff39ef660ae0001a9837e	107135399	1	main_z	11	main_z	125	stimuli_distractor_diamondtriangles.svg	stimuli_distractor_trianglediamonds.svg	37	no	44	0	326
6.6.1	and	2022-11-07	14:22:46	14:48:10	1496793	5a6ff39ef660ae0001a9837e	107135399	1	main_z	11	advance_on_keypress_ZEE	126	stimuli_distractor_diamondtriangles.svg	stimuli_distractor_trianglediamonds.svg	37	no	57	0	329
6.6.1	and	2022-11-07	14:22:46	14:48:13	1499764	5a6ff39ef660ae0001a9837e	107135399	1	main_z	11	main_z	127	stimuli_distractor_trianglediamonds.svg	stimuli_distractor_diamondtriangles.svg	36	no	0	1	2000
6.6.1	and	2022-11-07	14:22:46	14:48:13	1499764	5a6ff39ef660ae0001a9837e	107135399	1	main_z	11	advance_on_keypress_ZEE	128	stimuli_distractor_trianglediamonds.svg	stimuli_distractor_diamondtriangles.svg	36	no	57	0	2166
6.6.1	and	2022-11-07	14:22:46	14:48:16	1502863	5a6ff39ef660ae0001a9837e	107135399	1	main_z	11	main_z	129	stimuli_target_trianglesquares.svg	stimuli_distractor_diamondtriangles.svg	22	yes	44	1	301
6.6.1	and	2022-11-07	14:22:46	14:48:16	1502863	5a6ff39ef660ae0001a9837e	107135399	1	main_z	11	advance_on_keypress_ZEE	130	stimuli_target_trianglesquares.svg	stimuli_distractor_diamondtriangles.svg	22	yes	57	0	373
6.6.1	and	2022-11-07	14:22:46	14:48:18	1504246	5a6ff39ef660ae0001a9837e	107135399	1	main_z	11	main_z	131	stimuli_target_circletriangles.svg	stimuli_distractor_trianglediamonds.svg	1	yes	44	1	384
6.6.1	and	2022-11-07	14:22:46	14:48:18	1504246	5a6ff39ef660ae0001a9837e	107135399	1	main_z	11	advance_on_keypress_ZEE	132	stimuli_target_circletriangles.svg	stimuli_distractor_trianglediamonds.svg	1	yes	57	0	315
6.6.1	and	2022-11-07	14:22:46	14:48:21	1507198	5a6ff39ef660ae0001a9837e	107135399	1	main_z	11	main_z	133	stimuli_target_squaretriangles.svg	stimuli_distractor_trianglediamonds.svg	3	yes	0	0	2000
6.6.1	and	2022-11-07	14:22:46	14:48:21	1507198	5a6ff39ef660ae0001a9837e	107135399	1	main_z	11	advance_on_keypress_ZEE	134	stimuli_target_squaretriangles.svg	stimuli_distractor_trianglediamonds.svg	3	yes	57	0	445
6.6.1	and	2022-11-07	14:22:46	14:48:22	1508537	5a6ff39ef660ae0001a9837e	107135399	1	main_z	11	main_z	135	stimuli_distractor_diamondtriangles.svg	stimuli_distractor_diamondtriangles.svg	39	no	44	0	254
6.6.1	and	2022-11-07	14:22:46	14:48:22	1508537	5a6ff39ef660ae0001a9837e	107135399	1	main_z	11	advance_on_keypress_ZEE	136	stimuli_distractor_diamondtriangles.svg	stimuli_distractor_diamondtriangles.svg	39	no	57	0	400
6.6.1	and	2022-11-07	14:22:46	14:48:23	1510026	5a6ff39ef660ae0001a9837e	107135399	1	main_z	11	main_z	137	stimuli_target_squarediamonds.svg	stimuli_distractor_trianglediamonds.svg	4	yes	44	1	462
6.6.1	and	2022-11-07	14:22:46	14:48:23	1510026	5a6ff39ef660ae0001a9837e	107135399	1	main_z	11	advance_on_keypress_ZEE	138	stimuli_target_squarediamonds.svg	stimuli_distractor_trianglediamonds.svg	4	yes	57	0	249
6.6.1	and	2022-11-07	14:22:46	14:48:25	1511278	5a6ff39ef660ae0001a9837e	107135399	1	main_z	11	main_z	139	stimuli_distractor_trianglediamonds.svg	stimuli_target_diamondcircles.svg	27	yes	44	1	364
6.6.1	and	2022-11-07	14:22:46	14:48:25	1511278	5a6ff39ef660ae0001a9837e	107135399	1	main_z	11	advance_on_keypress_ZEE	140	stimuli_distractor_trianglediamonds.svg	stimuli_target_diamondcircles.svg	27	yes	57	0	278
6.6.1	and	2022-11-07	14:22:46	14:48:26	1512602	5a6ff39ef660ae0001a9837e	107135399	1	main_z	11	main_z	141	stimuli_target_circlediamonds.svg	stimuli_distractor_diamondtriangles.svg	6	yes	44	1	406
6.6.1	and	2022-11-07	14:22:46	14:48:26	1512602	5a6ff39ef660ae0001a9837e	107135399	1	main_z	11	advance_on_keypress_ZEE	142	stimuli_target_circlediamonds.svg	stimuli_distractor_diamondtriangles.svg	6	yes	57	0	282
6.6.1	and	2022-11-07	14:22:46	14:48:29	1515514	5a6ff39ef660ae0001a9837e	107135399	1	main_z	11	main_z	143	stimuli_distractor_trianglediamonds.svg	stimuli_distractor_trianglediamonds.svg	34	no	0	1	2000
6.6.1	and	2022-11-07	14:22:46	14:48:29	1515514	5a6ff39ef660ae0001a9837e	107135399	1	main_z	11	advance_on_keypress_ZEE	144	stimuli_distractor_trianglediamonds.svg	stimuli_distractor_trianglediamonds.svg	34	no	57	0	403
6.6.1	and	2022-11-07	14:22:46	14:48:30	1516777	5a6ff39ef660ae0001a9837e	107135399	1	main_z	11	main_z	145	stimuli_distractor_diamondtriangles.svg	stimuli_target_trianglesquares.svg	30	yes	44	1	230
6.6.1	and	2022-11-07	14:22:46	14:48:30	1516777	5a6ff39ef660ae0001a9837e	107135399	1	main_z	11	advance_on_keypress_ZEE	146	stimuli_distractor_diamondtriangles.svg	stimuli_target_trianglesquares.svg	30	yes	57	0	319
6.6.1	and	2022-11-07	14:22:46	14:48:32	1518194	5a6ff39ef660ae0001a9837e	107135399	1	main_z	11	main_z	147	stimuli_distractor_trianglediamonds.svg	stimuli_target_diamondsquares.svg	28	yes	44	1	464
6.6.1	and	2022-11-07	14:22:46	14:48:32	1518194	5a6ff39ef660ae0001a9837e	107135399	1	main_z	11	advance_on_keypress_ZEE	148	stimuli_distractor_trianglediamonds.svg	stimuli_target_diamondsquares.svg	28	yes	57	0	297
6.6.1	and	2022-11-07	14:22:46	14:48:33	1519457	5a6ff39ef660ae0001a9837e	107135399	1	main_z	11	main_z	149	stimuli_distractor_trianglediamonds.svg	stimuli_target_trianglesquares.svg	26	yes	44	1	327
6.6.1	and	2022-11-07	14:22:46	14:48:33	1519457	5a6ff39ef660ae0001a9837e	107135399	1	main_z	11	advance_on_keypress_ZEE	150	stimuli_distractor_trianglediamonds.svg	stimuli_target_trianglesquares.svg	26	yes	57	0	286
6.6.1	and	2022-11-07	14:22:46	14:48:36	1522381	5a6ff39ef660ae0001a9837e	107135399	1	main_z	11	main_z	151	stimuli_distractor_diamondtriangles.svg	stimuli_distractor_trianglediamonds.svg	38	no	0	1	2000
6.6.1	and	2022-11-07	14:22:46	14:48:36	1522381	5a6ff39ef660ae0001a9837e	107135399	1	main_z	11	advance_on_keypress_ZEE	152	stimuli_distractor_diamondtriangles.svg	stimuli_distractor_trianglediamonds.svg	38	no	57	0	616
6.6.1	and	2022-11-07	14:22:46	14:48:37	1524013	5a6ff39ef660ae0001a9837e	107135399	1	main_z	11	main_z	153	stimuli_distractor_trianglediamonds.svg	stimuli_target_trianglecircles.svg	25	yes	44	1	384
6.6.1	and	2022-11-07	14:22:46	14:48:37	1524013	5a6ff39ef660ae0001a9837e	107135399	1	main_z	11	advance_on_keypress_ZEE	154	stimuli_distractor_trianglediamonds.svg	stimuli_target_trianglecircles.svg	25	yes	57	0	299
6.6.1	and	2022-11-07	14:22:46	14:48:40	1526947	5a6ff39ef660ae0001a9837e	107135399	1	main_z	11	main_z	155	stimuli_distractor_diamondtriangles.svg	stimuli_distractor_diamondtriangles.svg	40	no	0	1	2000
6.6.1	and	2022-11-07	14:22:46	14:48:40	1526947	5a6ff39ef660ae0001a9837e	107135399	1	main_z	11	advance_on_keypress_ZEE	156	stimuli_distractor_diamondtriangles.svg	stimuli_distractor_diamondtriangles.svg	40	no	57	0	676
6.6.1	and	2022-11-07	14:22:46	14:48:42	1528530	5a6ff39ef660ae0001a9837e	107135399	1	main_z	11	main_z	157	stimuli_distractor_diamondtriangles.svg	stimuli_target_trianglecircles.svg	29	yes	44	1	266
6.6.1	and	2022-11-07	14:22:46	14:48:42	1528530	5a6ff39ef660ae0001a9837e	107135399	1	main_z	11	advance_on_keypress_ZEE	158	stimuli_distractor_diamondtriangles.svg	stimuli_target_trianglecircles.svg	29	yes	57	0	313
6.6.1	and	2022-11-07	14:22:46	14:48:43	1529713	5a6ff39ef660ae0001a9837e	107135399	1	main_z	11	main_z	159	stimuli_target_circlediamonds.svg	stimuli_distractor_trianglediamonds.svg	2	yes	44	1	232
6.6.1	and	2022-11-07	14:22:46	14:48:43	1529713	5a6ff39ef660ae0001a9837e	107135399	1	main_z	11	advance_on_keypress_ZEE	160	stimuli_target_circlediamonds.svg	stimuli_distractor_trianglediamonds.svg	2	yes	57	0	333