build	computer.platform	date	time	timestamp	time_elapsed_ms	subject	group	session	blockcode	blocknum	trialcode	trialnum	stimulus_left	stimulus_right	stim_index	target_present	response	correct	latency
6.6.1	win	2022-11-07	11:17:16	11:20:43	206757	5d4b14caed2dfc0001a22c1a	825170770	1	practice_z	5	practice_z	1	stimuli_distractor_trianglediamonds.svg	stimuli_target_diamondcircles.svg	12	yes	0	0	2000
6.6.1	win	2022-11-07	11:17:16	11:20:43	206757	5d4b14caed2dfc0001a22c1a	825170770	1	practice_z	5	advance_on_keypress_ZEE	2	stimuli_distractor_trianglediamonds.svg	stimuli_target_diamondcircles.svg	12	yes	57	0	3048
6.6.1	win	2022-11-07	11:17:16	11:20:49	211986	5d4b14caed2dfc0001a22c1a	825170770	1	practice_z	5	practice_z	3	stimuli_distractor_diamondtriangles.svg	stimuli_target_circletriangles.svg	7	yes	44	1	533
6.6.1	win	2022-11-07	11:17:16	11:20:49	211986	5d4b14caed2dfc0001a22c1a	825170770	1	practice_z	5	advance_on_keypress_ZEE	4	stimuli_distractor_diamondtriangles.svg	stimuli_target_circletriangles.svg	7	yes	57	0	1031
6.6.1	win	2022-11-07	11:17:16	11:20:52	215218	5d4b14caed2dfc0001a22c1a	825170770	1	practice_z	5	practice_z	5	stimuli_target_squarediamonds.svg	stimuli_distractor_diamondtriangles.svg	2	yes	44	1	548
6.6.1	win	2022-11-07	11:17:16	11:20:52	215218	5d4b14caed2dfc0001a22c1a	825170770	1	practice_z	5	advance_on_keypress_ZEE	6	stimuli_target_squarediamonds.svg	stimuli_distractor_diamondtriangles.svg	2	yes	57	0	742
6.6.1	win	2022-11-07	11:17:16	11:20:55	218131	5d4b14caed2dfc0001a22c1a	825170770	1	practice_z	5	practice_z	7	stimuli_target_circlediamonds.svg	stimuli_distractor_diamondtriangles.svg	1	yes	44	1	527
6.6.1	win	2022-11-07	11:17:16	11:20:55	218131	5d4b14caed2dfc0001a22c1a	825170770	1	practice_z	5	advance_on_keypress_ZEE	8	stimuli_target_circlediamonds.svg	stimuli_distractor_diamondtriangles.svg	1	yes	57	0	770
6.6.1	win	2022-11-07	11:17:16	11:20:58	221042	5d4b14caed2dfc0001a22c1a	825170770	1	practice_z	5	practice_z	9	stimuli_distractor_trianglediamonds.svg	stimuli_target_circlediamonds.svg	10	yes	44	1	506
6.6.1	win	2022-11-07	11:17:16	11:20:58	221042	5d4b14caed2dfc0001a22c1a	825170770	1	practice_z	5	advance_on_keypress_ZEE	10	stimuli_distractor_trianglediamonds.svg	stimuli_target_circlediamonds.svg	10	yes	57	0	589
6.6.1	win	2022-11-07	11:17:16	11:21:02	225269	5d4b14caed2dfc0001a22c1a	825170770	1	practice_z	5	practice_z	11	stimuli_distractor_diamondtriangles.svg	stimuli_distractor_trianglediamonds.svg	14	no	0	1	2000
6.6.1	win	2022-11-07	11:17:16	11:21:02	225269	5d4b14caed2dfc0001a22c1a	825170770	1	practice_z	5	advance_on_keypress_ZEE	12	stimuli_distractor_diamondtriangles.svg	stimuli_distractor_trianglediamonds.svg	14	no	57	0	1395
6.6.1	win	2022-11-07	11:17:16	11:21:06	228851	5d4b14caed2dfc0001a22c1a	825170770	1	practice_z	5	practice_z	13	stimuli_target_diamondsquares.svg	stimuli_distractor_trianglediamonds.svg	6	yes	44	1	530
6.6.1	win	2022-11-07	11:17:16	11:21:06	228851	5d4b14caed2dfc0001a22c1a	825170770	1	practice_z	5	advance_on_keypress_ZEE	14	stimuli_target_diamondsquares.svg	stimuli_distractor_trianglediamonds.svg	6	yes	57	0	644
6.6.1	win	2022-11-07	11:17:16	11:21:08	231618	5d4b14caed2dfc0001a22c1a	825170770	1	practice_z	5	practice_z	15	stimuli_distractor_diamondtriangles.svg	stimuli_target_diamondcircles.svg	8	yes	44	1	482
6.6.1	win	2022-11-07	11:17:16	11:21:08	231618	5d4b14caed2dfc0001a22c1a	825170770	1	practice_z	5	advance_on_keypress_ZEE	16	stimuli_distractor_diamondtriangles.svg	stimuli_target_diamondcircles.svg	8	yes	57	0	518
6.6.1	win	2022-11-07	11:17:16	11:21:11	234226	5d4b14caed2dfc0001a22c1a	825170770	1	practice_z	5	practice_z	17	stimuli_target_diamondsquares.svg	stimuli_distractor_diamondtriangles.svg	3	yes	44	1	439
6.6.1	win	2022-11-07	11:17:16	11:21:11	234226	5d4b14caed2dfc0001a22c1a	825170770	1	practice_z	5	advance_on_keypress_ZEE	18	stimuli_target_diamondsquares.svg	stimuli_distractor_diamondtriangles.svg	3	yes	57	0	1950
6.6.1	win	2022-11-07	11:17:16	11:21:15	238178	5d4b14caed2dfc0001a22c1a	825170770	1	practice_z	5	practice_z	19	stimuli_distractor_diamondtriangles.svg	stimuli_target_trianglecircles.svg	9	yes	44	1	358
6.6.1	win	2022-11-07	11:17:16	11:21:15	238178	5d4b14caed2dfc0001a22c1a	825170770	1	practice_z	5	advance_on_keypress_ZEE	20	stimuli_distractor_diamondtriangles.svg	stimuli_target_trianglecircles.svg	9	yes	57	0	623
6.6.1	win	2022-11-07	11:17:16	11:21:18	240931	5d4b14caed2dfc0001a22c1a	825170770	1	practice_z	5	practice_z	21	stimuli_distractor_trianglediamonds.svg	stimuli_distractor_diamondtriangles.svg	16	no	44	0	493
6.6.1	win	2022-11-07	11:17:16	11:21:18	240931	5d4b14caed2dfc0001a22c1a	825170770	1	practice_z	5	advance_on_keypress_ZEE	22	stimuli_distractor_trianglediamonds.svg	stimuli_distractor_diamondtriangles.svg	16	no	57	0	369
6.6.1	win	2022-11-07	11:17:16	11:21:20	243458	5d4b14caed2dfc0001a22c1a	825170770	1	practice_z	5	practice_z	23	stimuli_target_squarediamonds.svg	stimuli_distractor_trianglediamonds.svg	5	yes	44	1	521
6.6.1	win	2022-11-07	11:17:16	11:21:20	243458	5d4b14caed2dfc0001a22c1a	825170770	1	practice_z	5	advance_on_keypress_ZEE	24	stimuli_target_squarediamonds.svg	stimuli_distractor_trianglediamonds.svg	5	yes	57	0	652
6.6.1	win	2022-11-07	11:17:16	11:21:23	246290	5d4b14caed2dfc0001a22c1a	825170770	1	practice_z	5	practice_z	25	stimuli_distractor_trianglediamonds.svg	stimuli_target_squarediamonds.svg	11	yes	44	1	537
6.6.1	win	2022-11-07	11:17:16	11:21:23	246290	5d4b14caed2dfc0001a22c1a	825170770	1	practice_z	5	advance_on_keypress_ZEE	26	stimuli_distractor_trianglediamonds.svg	stimuli_target_squarediamonds.svg	11	yes	57	0	907
6.6.1	win	2022-11-07	11:17:16	11:21:26	249250	5d4b14caed2dfc0001a22c1a	825170770	1	practice_z	5	practice_z	27	stimuli_target_circlediamonds.svg	stimuli_distractor_trianglediamonds.svg	4	yes	44	1	413
6.6.1	win	2022-11-07	11:17:16	11:21:26	249250	5d4b14caed2dfc0001a22c1a	825170770	1	practice_z	5	advance_on_keypress_ZEE	28	stimuli_target_circlediamonds.svg	stimuli_distractor_trianglediamonds.svg	4	yes	57	0	789
6.6.1	win	2022-11-07	11:17:16	11:21:30	253670	5d4b14caed2dfc0001a22c1a	825170770	1	practice_z	5	practice_z	29	stimuli_distractor_diamondtriangles.svg	stimuli_distractor_diamondtriangles.svg	13	no	0	1	2000
6.6.1	win	2022-11-07	11:17:16	11:21:30	253670	5d4b14caed2dfc0001a22c1a	825170770	1	practice_z	5	advance_on_keypress_ZEE	30	stimuli_distractor_diamondtriangles.svg	stimuli_distractor_diamondtriangles.svg	13	no	57	0	1379
6.6.1	win	2022-11-07	11:17:16	11:21:35	258687	5d4b14caed2dfc0001a22c1a	825170770	1	practice_z	5	practice_z	31	stimuli_distractor_trianglediamonds.svg	stimuli_distractor_trianglediamonds.svg	15	no	0	1	2000
6.6.1	win	2022-11-07	11:17:16	11:21:35	258687	5d4b14caed2dfc0001a22c1a	825170770	1	practice_z	5	advance_on_keypress_ZEE	32	stimuli_distractor_trianglediamonds.svg	stimuli_distractor_trianglediamonds.svg	15	no	57	0	650
6.6.1	win	2022-11-07	11:17:16	11:21:45	268089	5d4b14caed2dfc0001a22c1a	825170770	1	main_z	7	main_z	1	stimuli_target_trianglecircles.svg	stimuli_distractor_trianglediamonds.svg	17	yes	44	1	419
6.6.1	win	2022-11-07	11:17:16	11:21:45	268089	5d4b14caed2dfc0001a22c1a	825170770	1	main_z	7	advance_on_keypress_ZEE	2	stimuli_target_trianglecircles.svg	stimuli_distractor_trianglediamonds.svg	17	yes	57	0	1970
6.6.1	win	2022-11-07	11:17:16	11:21:48	271114	5d4b14caed2dfc0001a22c1a	825170770	1	main_z	7	main_z	3	stimuli_distractor_trianglediamonds.svg	stimuli_target_circletriangles.svg	9	yes	44	1	410
6.6.1	win	2022-11-07	11:17:16	11:21:48	271114	5d4b14caed2dfc0001a22c1a	825170770	1	main_z	7	advance_on_keypress_ZEE	4	stimuli_distractor_trianglediamonds.svg	stimuli_target_circletriangles.svg	9	yes	57	0	1402
6.6.1	win	2022-11-07	11:17:16	11:21:50	273725	5d4b14caed2dfc0001a22c1a	825170770	1	main_z	7	main_z	5	stimuli_target_squaretriangles.svg	stimuli_distractor_diamondtriangles.svg	7	yes	44	1	568
6.6.1	win	2022-11-07	11:17:16	11:21:50	273725	5d4b14caed2dfc0001a22c1a	825170770	1	main_z	7	advance_on_keypress_ZEE	6	stimuli_target_squaretriangles.svg	stimuli_distractor_diamondtriangles.svg	7	yes	57	0	1249
6.6.1	win	2022-11-07	11:17:16	11:21:53	276098	5d4b14caed2dfc0001a22c1a	825170770	1	main_z	7	main_z	7	stimuli_distractor_diamondtriangles.svg	stimuli_target_diamondcircles.svg	31	yes	44	1	469
6.6.1	win	2022-11-07	11:17:16	11:21:53	276098	5d4b14caed2dfc0001a22c1a	825170770	1	main_z	7	advance_on_keypress_ZEE	8	stimuli_distractor_diamondtriangles.svg	stimuli_target_diamondcircles.svg	31	yes	57	0	994
6.6.1	win	2022-11-07	11:17:16	11:21:55	278201	5d4b14caed2dfc0001a22c1a	825170770	1	main_z	7	main_z	9	stimuli_distractor_diamondtriangles.svg	stimuli_target_circletriangles.svg	13	yes	44	1	464
6.6.1	win	2022-11-07	11:17:16	11:21:55	278201	5d4b14caed2dfc0001a22c1a	825170770	1	main_z	7	advance_on_keypress_ZEE	10	stimuli_distractor_diamondtriangles.svg	stimuli_target_circletriangles.svg	13	yes	57	0	1102
6.6.1	win	2022-11-07	11:17:16	11:21:57	280393	5d4b14caed2dfc0001a22c1a	825170770	1	main_z	7	main_z	11	stimuli_distractor_trianglediamonds.svg	stimuli_target_squaretriangles.svg	11	yes	44	1	456
6.6.1	win	2022-11-07	11:17:16	11:21:57	280393	5d4b14caed2dfc0001a22c1a	825170770	1	main_z	7	advance_on_keypress_ZEE	12	stimuli_distractor_trianglediamonds.svg	stimuli_target_squaretriangles.svg	11	yes	57	0	1174
6.6.1	win	2022-11-07	11:17:16	11:22:01	284204	5d4b14caed2dfc0001a22c1a	825170770	1	main_z	7	main_z	13	stimuli_distractor_trianglediamonds.svg	stimuli_distractor_diamondtriangles.svg	36	no	0	1	2000
6.6.1	win	2022-11-07	11:17:16	11:22:01	284204	5d4b14caed2dfc0001a22c1a	825170770	1	main_z	7	advance_on_keypress_ZEE	14	stimuli_distractor_trianglediamonds.svg	stimuli_distractor_diamondtriangles.svg	36	no	57	0	893
6.6.1	win	2022-11-07	11:17:16	11:22:03	286233	5d4b14caed2dfc0001a22c1a	825170770	1	main_z	7	main_z	15	stimuli_distractor_trianglediamonds.svg	stimuli_target_circlediamonds.svg	10	yes	44	1	497
6.6.1	win	2022-11-07	11:17:16	11:22:03	286233	5d4b14caed2dfc0001a22c1a	825170770	1	main_z	7	advance_on_keypress_ZEE	16	stimuli_distractor_trianglediamonds.svg	stimuli_target_circlediamonds.svg	10	yes	57	0	1165
6.6.1	win	2022-11-07	11:17:16	11:22:05	288569	5d4b14caed2dfc0001a22c1a	825170770	1	main_z	7	main_z	17	stimuli_target_diamondcircles.svg	stimuli_distractor_diamondtriangles.svg	23	yes	44	1	532
6.6.1	win	2022-11-07	11:17:16	11:22:05	288569	5d4b14caed2dfc0001a22c1a	825170770	1	main_z	7	advance_on_keypress_ZEE	18	stimuli_target_diamondcircles.svg	stimuli_distractor_diamondtriangles.svg	23	yes	57	0	1214
6.6.1	win	2022-11-07	11:17:16	11:22:08	290841	5d4b14caed2dfc0001a22c1a	825170770	1	main_z	7	main_z	19	stimuli_target_trianglesquares.svg	stimuli_distractor_diamondtriangles.svg	22	yes	44	1	421
6.6.1	win	2022-11-07	11:17:16	11:22:08	290841	5d4b14caed2dfc0001a22c1a	825170770	1	main_z	7	advance_on_keypress_ZEE	20	stimuli_target_trianglesquares.svg	stimuli_distractor_diamondtriangles.svg	22	yes	57	0	1396
6.6.1	win	2022-11-07	11:17:16	11:22:10	293370	5d4b14caed2dfc0001a22c1a	825170770	1	main_z	7	main_z	21	stimuli_distractor_diamondtriangles.svg	stimuli_target_diamondsquares.svg	32	yes	44	1	499
6.6.1	win	2022-11-07	11:17:16	11:22:10	293370	5d4b14caed2dfc0001a22c1a	825170770	1	main_z	7	advance_on_keypress_ZEE	22	stimuli_distractor_diamondtriangles.svg	stimuli_target_diamondsquares.svg	32	yes	57	0	1102
6.6.1	win	2022-11-07	11:17:16	11:22:14	297121	5d4b14caed2dfc0001a22c1a	825170770	1	main_z	7	main_z	23	stimuli_distractor_diamondtriangles.svg	stimuli_distractor_trianglediamonds.svg	37	no	0	1	2000
6.6.1	win	2022-11-07	11:17:16	11:22:14	297121	5d4b14caed2dfc0001a22c1a	825170770	1	main_z	7	advance_on_keypress_ZEE	24	stimuli_distractor_diamondtriangles.svg	stimuli_distractor_trianglediamonds.svg	37	no	57	0	760
6.6.1	win	2022-11-07	11:17:16	11:22:17	300521	5d4b14caed2dfc0001a22c1a	825170770	1	main_z	7	main_z	25	stimuli_distractor_diamondtriangles.svg	stimuli_target_squarediamonds.svg	16	yes	0	0	2000
6.6.1	win	2022-11-07	11:17:16	11:22:17	300521	5d4b14caed2dfc0001a22c1a	825170770	1	main_z	7	advance_on_keypress_ZEE	26	stimuli_distractor_diamondtriangles.svg	stimuli_target_squarediamonds.svg	16	yes	57	0	592
6.6.1	win	2022-11-07	11:17:16	11:22:19	302297	5d4b14caed2dfc0001a22c1a	825170770	1	main_z	7	main_z	27	stimuli_distractor_trianglediamonds.svg	stimuli_target_diamondcircles.svg	27	yes	44	1	544
6.6.1	win	2022-11-07	11:17:16	11:22:19	302297	5d4b14caed2dfc0001a22c1a	825170770	1	main_z	7	advance_on_keypress_ZEE	28	stimuli_distractor_trianglediamonds.svg	stimuli_target_diamondcircles.svg	27	yes	57	0	1082
6.6.1	win	2022-11-07	11:17:16	11:22:22	305098	5d4b14caed2dfc0001a22c1a	825170770	1	main_z	7	main_z	29	stimuli_target_diamondsquares.svg	stimuli_distractor_diamondtriangles.svg	24	yes	44	1	1077
6.6.1	win	2022-11-07	11:17:16	11:22:22	305098	5d4b14caed2dfc0001a22c1a	825170770	1	main_z	7	advance_on_keypress_ZEE	30	stimuli_target_diamondsquares.svg	stimuli_distractor_diamondtriangles.svg	24	yes	57	0	1354
6.6.1	win	2022-11-07	11:17:16	11:22:24	307705	5d4b14caed2dfc0001a22c1a	825170770	1	main_z	7	main_z	31	stimuli_distractor_trianglediamonds.svg	stimuli_target_diamondsquares.svg	28	yes	44	1	618
6.6.1	win	2022-11-07	11:17:16	11:22:24	307705	5d4b14caed2dfc0001a22c1a	825170770	1	main_z	7	advance_on_keypress_ZEE	32	stimuli_distractor_trianglediamonds.svg	stimuli_target_diamondsquares.svg	28	yes	57	0	1041
6.6.1	win	2022-11-07	11:17:16	11:22:27	309850	5d4b14caed2dfc0001a22c1a	825170770	1	main_z	7	main_z	33	stimuli_distractor_diamondtriangles.svg	stimuli_target_trianglecircles.svg	29	yes	44	1	462
6.6.1	win	2022-11-07	11:17:16	11:22:27	309850	5d4b14caed2dfc0001a22c1a	825170770	1	main_z	7	advance_on_keypress_ZEE	34	stimuli_distractor_diamondtriangles.svg	stimuli_target_trianglecircles.svg	29	yes	57	0	972
6.6.1	win	2022-11-07	11:17:16	11:22:29	311866	5d4b14caed2dfc0001a22c1a	825170770	1	main_z	7	main_z	35	stimuli_target_squaretriangles.svg	stimuli_distractor_trianglediamonds.svg	3	yes	44	1	411
6.6.1	win	2022-11-07	11:17:16	11:22:29	311866	5d4b14caed2dfc0001a22c1a	825170770	1	main_z	7	advance_on_keypress_ZEE	36	stimuli_target_squaretriangles.svg	stimuli_distractor_trianglediamonds.svg	3	yes	57	0	1051
6.6.1	win	2022-11-07	11:17:16	11:22:31	313945	5d4b14caed2dfc0001a22c1a	825170770	1	main_z	7	main_z	37	stimuli_target_circlediamonds.svg	stimuli_distractor_diamondtriangles.svg	6	yes	44	1	392
6.6.1	win	2022-11-07	11:17:16	11:22:31	313945	5d4b14caed2dfc0001a22c1a	825170770	1	main_z	7	advance_on_keypress_ZEE	38	stimuli_target_circlediamonds.svg	stimuli_distractor_diamondtriangles.svg	6	yes	57	0	919
6.6.1	win	2022-11-07	11:17:16	11:22:33	315849	5d4b14caed2dfc0001a22c1a	825170770	1	main_z	7	main_z	39	stimuli_distractor_diamondtriangles.svg	stimuli_target_circlediamonds.svg	14	yes	44	1	345
6.6.1	win	2022-11-07	11:17:16	11:22:33	315849	5d4b14caed2dfc0001a22c1a	825170770	1	main_z	7	advance_on_keypress_ZEE	40	stimuli_distractor_diamondtriangles.svg	stimuli_target_circlediamonds.svg	14	yes	57	0	892
6.6.1	win	2022-11-07	11:17:16	11:22:34	317786	5d4b14caed2dfc0001a22c1a	825170770	1	main_z	7	main_z	41	stimuli_target_diamondsquares.svg	stimuli_distractor_trianglediamonds.svg	20	yes	44	1	415
6.6.1	win	2022-11-07	11:17:16	11:22:34	317786	5d4b14caed2dfc0001a22c1a	825170770	1	main_z	7	advance_on_keypress_ZEE	42	stimuli_target_diamondsquares.svg	stimuli_distractor_trianglediamonds.svg	20	yes	57	0	925
6.6.1	win	2022-11-07	11:17:16	11:22:36	319769	5d4b14caed2dfc0001a22c1a	825170770	1	main_z	7	main_z	43	stimuli_target_diamondcircles.svg	stimuli_distractor_trianglediamonds.svg	19	yes	44	1	415
6.6.1	win	2022-11-07	11:17:16	11:22:36	319769	5d4b14caed2dfc0001a22c1a	825170770	1	main_z	7	advance_on_keypress_ZEE	44	stimuli_target_diamondcircles.svg	stimuli_distractor_trianglediamonds.svg	19	yes	57	0	894
6.6.1	win	2022-11-07	11:17:16	11:22:38	321657	5d4b14caed2dfc0001a22c1a	825170770	1	main_z	7	main_z	45	stimuli_distractor_diamondtriangles.svg	stimuli_target_trianglesquares.svg	30	yes	44	1	353
6.6.1	win	2022-11-07	11:17:16	11:22:38	321657	5d4b14caed2dfc0001a22c1a	825170770	1	main_z	7	advance_on_keypress_ZEE	46	stimuli_distractor_diamondtriangles.svg	stimuli_target_trianglesquares.svg	30	yes	57	0	867
6.6.1	win	2022-11-07	11:17:16	11:22:40	323770	5d4b14caed2dfc0001a22c1a	825170770	1	main_z	7	main_z	47	stimuli_target_circletriangles.svg	stimuli_distractor_trianglediamonds.svg	1	yes	44	1	598
6.6.1	win	2022-11-07	11:17:16	11:22:40	323770	5d4b14caed2dfc0001a22c1a	825170770	1	main_z	7	advance_on_keypress_ZEE	48	stimuli_target_circletriangles.svg	stimuli_distractor_trianglediamonds.svg	1	yes	57	0	1150
6.6.1	win	2022-11-07	11:17:16	11:22:43	325881	5d4b14caed2dfc0001a22c1a	825170770	1	main_z	7	main_z	49	stimuli_target_circletriangles.svg	stimuli_distractor_diamondtriangles.svg	5	yes	44	1	311
6.6.1	win	2022-11-07	11:17:16	11:22:43	325881	5d4b14caed2dfc0001a22c1a	825170770	1	main_z	7	advance_on_keypress_ZEE	50	stimuli_target_circletriangles.svg	stimuli_distractor_diamondtriangles.svg	5	yes	57	0	890
6.6.1	win	2022-11-07	11:17:16	11:22:46	329404	5d4b14caed2dfc0001a22c1a	825170770	1	main_z	7	main_z	51	stimuli_distractor_trianglediamonds.svg	stimuli_distractor_trianglediamonds.svg	33	no	0	1	2000
6.6.1	win	2022-11-07	11:17:16	11:22:46	329404	5d4b14caed2dfc0001a22c1a	825170770	1	main_z	7	advance_on_keypress_ZEE	52	stimuli_distractor_trianglediamonds.svg	stimuli_distractor_trianglediamonds.svg	33	no	57	0	557
6.6.1	win	2022-11-07	11:17:16	11:22:48	331034	5d4b14caed2dfc0001a22c1a	825170770	1	main_z	7	main_z	53	stimuli_target_trianglesquares.svg	stimuli_distractor_trianglediamonds.svg	18	yes	44	1	429
6.6.1	win	2022-11-07	11:17:16	11:22:48	331034	5d4b14caed2dfc0001a22c1a	825170770	1	main_z	7	advance_on_keypress_ZEE	54	stimuli_target_trianglesquares.svg	stimuli_distractor_trianglediamonds.svg	18	yes	57	0	796
6.6.1	win	2022-11-07	11:17:16	11:22:50	332841	5d4b14caed2dfc0001a22c1a	825170770	1	main_z	7	main_z	55	stimuli_distractor_trianglediamonds.svg	stimuli_target_squarediamonds.svg	12	yes	44	1	387
6.6.1	win	2022-11-07	11:17:16	11:22:50	332841	5d4b14caed2dfc0001a22c1a	825170770	1	main_z	7	advance_on_keypress_ZEE	56	stimuli_distractor_trianglediamonds.svg	stimuli_target_squarediamonds.svg	12	yes	57	0	835
6.6.1	win	2022-11-07	11:17:16	11:22:52	334889	5d4b14caed2dfc0001a22c1a	825170770	1	main_z	7	main_z	57	stimuli_distractor_trianglediamonds.svg	stimuli_target_trianglesquares.svg	26	yes	44	1	568
6.6.1	win	2022-11-07	11:17:16	11:22:52	334889	5d4b14caed2dfc0001a22c1a	825170770	1	main_z	7	advance_on_keypress_ZEE	58	stimuli_distractor_trianglediamonds.svg	stimuli_target_trianglesquares.svg	26	yes	57	0	833
6.6.1	win	2022-11-07	11:17:16	11:22:55	338372	5d4b14caed2dfc0001a22c1a	825170770	1	main_z	7	main_z	59	stimuli_distractor_trianglediamonds.svg	stimuli_distractor_trianglediamonds.svg	34	no	0	1	2000
6.6.1	win	2022-11-07	11:17:16	11:22:55	338372	5d4b14caed2dfc0001a22c1a	825170770	1	main_z	7	advance_on_keypress_ZEE	60	stimuli_distractor_trianglediamonds.svg	stimuli_distractor_trianglediamonds.svg	34	no	57	0	645
6.6.1	win	2022-11-07	11:17:16	11:22:57	340025	5d4b14caed2dfc0001a22c1a	825170770	1	main_z	7	main_z	61	stimuli_target_squarediamonds.svg	stimuli_distractor_trianglediamonds.svg	4	yes	44	1	371
6.6.1	win	2022-11-07	11:17:16	11:22:57	340025	5d4b14caed2dfc0001a22c1a	825170770	1	main_z	7	advance_on_keypress_ZEE	62	stimuli_target_squarediamonds.svg	stimuli_distractor_trianglediamonds.svg	4	yes	57	0	772
6.6.1	win	2022-11-07	11:17:16	11:22:59	341977	5d4b14caed2dfc0001a22c1a	825170770	1	main_z	7	main_z	63	stimuli_distractor_diamondtriangles.svg	stimuli_distractor_diamondtriangles.svg	39	no	44	0	540
6.6.1	win	2022-11-07	11:17:16	11:22:59	341977	5d4b14caed2dfc0001a22c1a	825170770	1	main_z	7	advance_on_keypress_ZEE	64	stimuli_distractor_diamondtriangles.svg	stimuli_distractor_diamondtriangles.svg	39	no	57	0	902
6.6.1	win	2022-11-07	11:17:16	11:23:01	343914	5d4b14caed2dfc0001a22c1a	825170770	1	main_z	7	main_z	65	stimuli_target_circlediamonds.svg	stimuli_distractor_trianglediamonds.svg	2	yes	44	1	392
6.6.1	win	2022-11-07	11:17:16	11:23:01	343914	5d4b14caed2dfc0001a22c1a	825170770	1	main_z	7	advance_on_keypress_ZEE	66	stimuli_target_circlediamonds.svg	stimuli_distractor_trianglediamonds.svg	2	yes	57	0	776
6.6.1	win	2022-11-07	11:17:16	11:23:03	345849	5d4b14caed2dfc0001a22c1a	825170770	1	main_z	7	main_z	67	stimuli_target_trianglecircles.svg	stimuli_distractor_diamondtriangles.svg	21	yes	44	1	528
6.6.1	win	2022-11-07	11:17:16	11:23:03	345849	5d4b14caed2dfc0001a22c1a	825170770	1	main_z	7	advance_on_keypress_ZEE	68	stimuli_target_trianglecircles.svg	stimuli_distractor_diamondtriangles.svg	21	yes	57	0	859
6.6.1	win	2022-11-07	11:17:16	11:23:06	349338	5d4b14caed2dfc0001a22c1a	825170770	1	main_z	7	main_z	69	stimuli_distractor_trianglediamonds.svg	stimuli_distractor_diamondtriangles.svg	35	no	0	1	2000
6.6.1	win	2022-11-07	11:17:16	11:23:06	349338	5d4b14caed2dfc0001a22c1a	825170770	1	main_z	7	advance_on_keypress_ZEE	70	stimuli_distractor_trianglediamonds.svg	stimuli_distractor_diamondtriangles.svg	35	no	57	0	559
6.6.1	win	2022-11-07	11:17:16	11:23:08	351178	5d4b14caed2dfc0001a22c1a	825170770	1	main_z	7	main_z	71	stimuli_distractor_diamondtriangles.svg	stimuli_target_squaretriangles.svg	15	yes	44	1	640
6.6.1	win	2022-11-07	11:17:16	11:23:08	351178	5d4b14caed2dfc0001a22c1a	825170770	1	main_z	7	advance_on_keypress_ZEE	72	stimuli_distractor_diamondtriangles.svg	stimuli_target_squaretriangles.svg	15	yes	57	0	774
6.6.1	win	2022-11-07	11:17:16	11:23:10	353274	5d4b14caed2dfc0001a22c1a	825170770	1	main_z	7	main_z	73	stimuli_distractor_diamondtriangles.svg	stimuli_distractor_diamondtriangles.svg	40	no	44	0	686
6.6.1	win	2022-11-07	11:17:16	11:23:10	353274	5d4b14caed2dfc0001a22c1a	825170770	1	main_z	7	advance_on_keypress_ZEE	74	stimuli_distractor_diamondtriangles.svg	stimuli_distractor_diamondtriangles.svg	40	no	57	0	658
6.6.1	win	2022-11-07	11:17:16	11:23:13	356572	5d4b14caed2dfc0001a22c1a	825170770	1	main_z	7	main_z	75	stimuli_distractor_diamondtriangles.svg	stimuli_distractor_trianglediamonds.svg	38	no	0	1	2000
6.6.1	win	2022-11-07	11:17:16	11:23:13	356572	5d4b14caed2dfc0001a22c1a	825170770	1	main_z	7	advance_on_keypress_ZEE	76	stimuli_distractor_diamondtriangles.svg	stimuli_distractor_trianglediamonds.svg	38	no	57	0	397
6.6.1	win	2022-11-07	11:17:16	11:23:15	358107	5d4b14caed2dfc0001a22c1a	825170770	1	main_z	7	main_z	77	stimuli_target_squarediamonds.svg	stimuli_distractor_diamondtriangles.svg	8	yes	44	1	502
6.6.1	win	2022-11-07	11:17:16	11:23:15	358107	5d4b14caed2dfc0001a22c1a	825170770	1	main_z	7	advance_on_keypress_ZEE	78	stimuli_target_squarediamonds.svg	stimuli_distractor_diamondtriangles.svg	8	yes	57	0	736
6.6.1	win	2022-11-07	11:17:16	11:23:17	359978	5d4b14caed2dfc0001a22c1a	825170770	1	main_z	7	main_z	79	stimuli_distractor_trianglediamonds.svg	stimuli_target_trianglecircles.svg	25	yes	44	1	489
6.6.1	win	2022-11-07	11:17:16	11:23:17	359978	5d4b14caed2dfc0001a22c1a	825170770	1	main_z	7	advance_on_keypress_ZEE	80	stimuli_distractor_trianglediamonds.svg	stimuli_target_trianglecircles.svg	25	yes	57	0	709
6.6.1	win	2022-11-07	11:17:16	11:23:18	361769	5d4b14caed2dfc0001a22c1a	825170770	1	main_z	7	main_z	81	stimuli_target_squaretriangles.svg	stimuli_distractor_trianglediamonds.svg	3	yes	44	1	448
6.6.1	win	2022-11-07	11:17:16	11:23:18	361769	5d4b14caed2dfc0001a22c1a	825170770	1	main_z	7	advance_on_keypress_ZEE	82	stimuli_target_squaretriangles.svg	stimuli_distractor_trianglediamonds.svg	3	yes	57	0	686
6.6.1	win	2022-11-07	11:17:16	11:23:20	363609	5d4b14caed2dfc0001a22c1a	825170770	1	main_z	7	main_z	83	stimuli_distractor_diamondtriangles.svg	stimuli_target_squarediamonds.svg	16	yes	44	1	521
6.6.1	win	2022-11-07	11:17:16	11:23:20	363609	5d4b14caed2dfc0001a22c1a	825170770	1	main_z	7	advance_on_keypress_ZEE	84	stimuli_distractor_diamondtriangles.svg	stimuli_target_squarediamonds.svg	16	yes	57	0	708
6.6.1	win	2022-11-07	11:17:16	11:23:24	366955	5d4b14caed2dfc0001a22c1a	825170770	1	main_z	7	main_z	85	stimuli_distractor_diamondtriangles.svg	stimuli_distractor_trianglediamonds.svg	38	no	0	1	2000
6.6.1	win	2022-11-07	11:17:16	11:23:24	366955	5d4b14caed2dfc0001a22c1a	825170770	1	main_z	7	advance_on_keypress_ZEE	86	stimuli_distractor_diamondtriangles.svg	stimuli_distractor_trianglediamonds.svg	38	no	57	0	590
6.6.1	win	2022-11-07	11:17:16	11:23:25	368682	5d4b14caed2dfc0001a22c1a	825170770	1	main_z	7	main_z	87	stimuli_target_circletriangles.svg	stimuli_distractor_trianglediamonds.svg	1	yes	44	1	493
6.6.1	win	2022-11-07	11:17:16	11:23:25	368682	5d4b14caed2dfc0001a22c1a	825170770	1	main_z	7	advance_on_keypress_ZEE	88	stimuli_target_circletriangles.svg	stimuli_distractor_trianglediamonds.svg	1	yes	57	0	761
6.6.1	win	2022-11-07	11:17:16	11:23:29	372072	5d4b14caed2dfc0001a22c1a	825170770	1	main_z	7	main_z	89	stimuli_distractor_diamondtriangles.svg	stimuli_distractor_diamondtriangles.svg	39	no	0	1	2000
6.6.1	win	2022-11-07	11:17:16	11:23:29	372072	5d4b14caed2dfc0001a22c1a	825170770	1	main_z	7	advance_on_keypress_ZEE	90	stimuli_distractor_diamondtriangles.svg	stimuli_distractor_diamondtriangles.svg	39	no	57	0	401
6.6.1	win	2022-11-07	11:17:16	11:23:30	373545	5d4b14caed2dfc0001a22c1a	825170770	1	main_z	7	main_z	91	stimuli_target_squarediamonds.svg	stimuli_distractor_trianglediamonds.svg	4	yes	44	1	424
6.6.1	win	2022-11-07	11:17:16	11:23:30	373545	5d4b14caed2dfc0001a22c1a	825170770	1	main_z	7	advance_on_keypress_ZEE	92	stimuli_target_squarediamonds.svg	stimuli_distractor_trianglediamonds.svg	4	yes	57	0	695
6.6.1	win	2022-11-07	11:17:16	11:23:32	375593	5d4b14caed2dfc0001a22c1a	825170770	1	main_z	7	main_z	93	stimuli_distractor_trianglediamonds.svg	stimuli_target_squaretriangles.svg	11	yes	44	1	722
6.6.1	win	2022-11-07	11:17:16	11:23:32	375593	5d4b14caed2dfc0001a22c1a	825170770	1	main_z	7	advance_on_keypress_ZEE	94	stimuli_distractor_trianglediamonds.svg	stimuli_target_squaretriangles.svg	11	yes	57	0	820
6.6.1	win	2022-11-07	11:17:16	11:23:34	377497	5d4b14caed2dfc0001a22c1a	825170770	1	main_z	7	main_z	95	stimuli_distractor_trianglediamonds.svg	stimuli_target_trianglesquares.svg	26	yes	44	1	442
6.6.1	win	2022-11-07	11:17:16	11:23:34	377497	5d4b14caed2dfc0001a22c1a	825170770	1	main_z	7	advance_on_keypress_ZEE	96	stimuli_distractor_trianglediamonds.svg	stimuli_target_trianglesquares.svg	26	yes	57	0	745
6.6.1	win	2022-11-07	11:17:16	11:23:36	379273	5d4b14caed2dfc0001a22c1a	825170770	1	main_z	7	main_z	97	stimuli_target_circletriangles.svg	stimuli_distractor_diamondtriangles.svg	5	yes	44	1	402
6.6.1	win	2022-11-07	11:17:16	11:23:36	379273	5d4b14caed2dfc0001a22c1a	825170770	1	main_z	7	advance_on_keypress_ZEE	98	stimuli_target_circletriangles.svg	stimuli_distractor_diamondtriangles.svg	5	yes	57	0	737
6.6.1	win	2022-11-07	11:17:16	11:23:38	381017	5d4b14caed2dfc0001a22c1a	825170770	1	main_z	7	main_z	99	stimuli_distractor_diamondtriangles.svg	stimuli_target_diamondcircles.svg	31	yes	44	1	362
6.6.1	win	2022-11-07	11:17:16	11:23:38	381017	5d4b14caed2dfc0001a22c1a	825170770	1	main_z	7	advance_on_keypress_ZEE	100	stimuli_distractor_diamondtriangles.svg	stimuli_target_diamondcircles.svg	31	yes	57	0	748
6.6.1	win	2022-11-07	11:17:16	11:23:41	384233	5d4b14caed2dfc0001a22c1a	825170770	1	main_z	7	main_z	101	stimuli_distractor_trianglediamonds.svg	stimuli_target_circlediamonds.svg	10	yes	44	1	1845
6.6.1	win	2022-11-07	11:17:16	11:23:41	384233	5d4b14caed2dfc0001a22c1a	825170770	1	main_z	7	advance_on_keypress_ZEE	102	stimuli_distractor_trianglediamonds.svg	stimuli_target_circlediamonds.svg	10	yes	57	0	1051
6.6.1	win	2022-11-07	11:17:16	11:23:43	386409	5d4b14caed2dfc0001a22c1a	825170770	1	main_z	7	main_z	103	stimuli_distractor_diamondtriangles.svg	stimuli_target_trianglecircles.svg	29	yes	44	1	488
6.6.1	win	2022-11-07	11:17:16	11:23:43	386409	5d4b14caed2dfc0001a22c1a	825170770	1	main_z	7	advance_on_keypress_ZEE	104	stimuli_distractor_diamondtriangles.svg	stimuli_target_trianglecircles.svg	29	yes	57	0	723
6.6.1	win	2022-11-07	11:17:16	11:23:45	388185	5d4b14caed2dfc0001a22c1a	825170770	1	main_z	7	main_z	105	stimuli_target_trianglesquares.svg	stimuli_distractor_trianglediamonds.svg	18	yes	44	1	414
6.6.1	win	2022-11-07	11:17:16	11:23:45	388185	5d4b14caed2dfc0001a22c1a	825170770	1	main_z	7	advance_on_keypress_ZEE	106	stimuli_target_trianglesquares.svg	stimuli_distractor_trianglediamonds.svg	18	yes	57	0	749
6.6.1	win	2022-11-07	11:17:16	11:23:47	390362	5d4b14caed2dfc0001a22c1a	825170770	1	main_z	7	main_z	107	stimuli_target_circlediamonds.svg	stimuli_distractor_diamondtriangles.svg	6	yes	44	1	790
6.6.1	win	2022-11-07	11:17:16	11:23:47	390362	5d4b14caed2dfc0001a22c1a	825170770	1	main_z	7	advance_on_keypress_ZEE	108	stimuli_target_circlediamonds.svg	stimuli_distractor_diamondtriangles.svg	6	yes	57	0	934
6.6.1	win	2022-11-07	11:17:16	11:23:49	392362	5d4b14caed2dfc0001a22c1a	825170770	1	main_z	7	main_z	109	stimuli_distractor_trianglediamonds.svg	stimuli_target_diamondcircles.svg	27	yes	44	1	423
6.6.1	win	2022-11-07	11:17:16	11:23:49	392362	5d4b14caed2dfc0001a22c1a	825170770	1	main_z	7	advance_on_keypress_ZEE	110	stimuli_distractor_trianglediamonds.svg	stimuli_target_diamondcircles.svg	27	yes	57	0	678
6.6.1	win	2022-11-07	11:17:16	11:23:52	395672	5d4b14caed2dfc0001a22c1a	825170770	1	main_z	7	main_z	111	stimuli_distractor_diamondtriangles.svg	stimuli_distractor_diamondtriangles.svg	40	no	0	1	2000
6.6.1	win	2022-11-07	11:17:16	11:23:52	395672	5d4b14caed2dfc0001a22c1a	825170770	1	main_z	7	advance_on_keypress_ZEE	112	stimuli_distractor_diamondtriangles.svg	stimuli_distractor_diamondtriangles.svg	40	no	57	0	593
6.6.1	win	2022-11-07	11:17:16	11:23:56	398905	5d4b14caed2dfc0001a22c1a	825170770	1	main_z	7	main_z	113	stimuli_distractor_trianglediamonds.svg	stimuli_distractor_trianglediamonds.svg	33	no	0	1	2000
6.6.1	win	2022-11-07	11:17:16	11:23:56	398905	5d4b14caed2dfc0001a22c1a	825170770	1	main_z	7	advance_on_keypress_ZEE	114	stimuli_distractor_trianglediamonds.svg	stimuli_distractor_trianglediamonds.svg	33	no	57	0	575
6.6.1	win	2022-11-07	11:17:16	11:23:59	402123	5d4b14caed2dfc0001a22c1a	825170770	1	main_z	7	main_z	115	stimuli_distractor_trianglediamonds.svg	stimuli_target_diamondsquares.svg	28	yes	0	0	2000
6.6.1	win	2022-11-07	11:17:16	11:23:59	402123	5d4b14caed2dfc0001a22c1a	825170770	1	main_z	7	advance_on_keypress_ZEE	116	stimuli_distractor_trianglediamonds.svg	stimuli_target_diamondsquares.svg	28	yes	57	0	495
6.6.1	win	2022-11-07	11:17:16	11:24:02	405256	5d4b14caed2dfc0001a22c1a	825170770	1	main_z	7	main_z	117	stimuli_distractor_trianglediamonds.svg	stimuli_target_squarediamonds.svg	12	yes	0	0	2000
6.6.1	win	2022-11-07	11:17:16	11:24:02	405256	5d4b14caed2dfc0001a22c1a	825170770	1	main_z	7	advance_on_keypress_ZEE	118	stimuli_distractor_trianglediamonds.svg	stimuli_target_squarediamonds.svg	12	yes	57	0	481
6.6.1	win	2022-11-07	11:17:16	11:24:03	406793	5d4b14caed2dfc0001a22c1a	825170770	1	main_z	7	main_z	119	stimuli_distractor_trianglediamonds.svg	stimuli_target_trianglecircles.svg	25	yes	44	1	421
6.6.1	win	2022-11-07	11:17:16	11:24:03	406793	5d4b14caed2dfc0001a22c1a	825170770	1	main_z	7	advance_on_keypress_ZEE	120	stimuli_distractor_trianglediamonds.svg	stimuli_target_trianglecircles.svg	25	yes	57	0	660
6.6.1	win	2022-11-07	11:17:16	11:24:07	410089	5d4b14caed2dfc0001a22c1a	825170770	1	main_z	7	main_z	121	stimuli_target_diamondsquares.svg	stimuli_distractor_diamondtriangles.svg	24	yes	0	0	2000
6.6.1	win	2022-11-07	11:17:16	11:24:07	410089	5d4b14caed2dfc0001a22c1a	825170770	1	main_z	7	advance_on_keypress_ZEE	122	stimuli_target_diamondsquares.svg	stimuli_distractor_diamondtriangles.svg	24	yes	57	0	416
6.6.1	win	2022-11-07	11:17:16	11:24:08	411561	5d4b14caed2dfc0001a22c1a	825170770	1	main_z	7	main_z	123	stimuli_target_diamondcircles.svg	stimuli_distractor_diamondtriangles.svg	23	yes	44	1	406
6.6.1	win	2022-11-07	11:17:16	11:24:08	411561	5d4b14caed2dfc0001a22c1a	825170770	1	main_z	7	advance_on_keypress_ZEE	124	stimuli_target_diamondcircles.svg	stimuli_distractor_diamondtriangles.svg	23	yes	57	0	805
6.6.1	win	2022-11-07	11:17:16	11:24:10	413401	5d4b14caed2dfc0001a22c1a	825170770	1	main_z	7	main_z	125	stimuli_distractor_diamondtriangles.svg	stimuli_target_trianglesquares.svg	30	yes	44	1	395
6.6.1	win	2022-11-07	11:17:16	11:24:10	413401	5d4b14caed2dfc0001a22c1a	825170770	1	main_z	7	advance_on_keypress_ZEE	126	stimuli_distractor_diamondtriangles.svg	stimuli_target_trianglesquares.svg	30	yes	57	0	764
6.6.1	win	2022-11-07	11:17:16	11:24:13	416789	5d4b14caed2dfc0001a22c1a	825170770	1	main_z	7	main_z	127	stimuli_distractor_diamondtriangles.svg	stimuli_target_diamondsquares.svg	32	yes	0	0	2000
6.6.1	win	2022-11-07	11:17:16	11:24:13	416789	5d4b14caed2dfc0001a22c1a	825170770	1	main_z	7	advance_on_keypress_ZEE	128	stimuli_distractor_diamondtriangles.svg	stimuli_target_diamondsquares.svg	32	yes	57	0	515
6.6.1	win	2022-11-07	11:17:16	11:24:15	418345	5d4b14caed2dfc0001a22c1a	825170770	1	main_z	7	main_z	129	stimuli_target_squaretriangles.svg	stimuli_distractor_diamondtriangles.svg	7	yes	44	1	390
6.6.1	win	2022-11-07	11:17:16	11:24:15	418345	5d4b14caed2dfc0001a22c1a	825170770	1	main_z	7	advance_on_keypress_ZEE	130	stimuli_target_squaretriangles.svg	stimuli_distractor_diamondtriangles.svg	7	yes	57	0	758
6.6.1	win	2022-11-07	11:17:16	11:24:17	420201	5d4b14caed2dfc0001a22c1a	825170770	1	main_z	7	main_z	131	stimuli_target_diamondcircles.svg	stimuli_distractor_trianglediamonds.svg	19	yes	44	1	462
6.6.1	win	2022-11-07	11:17:16	11:24:17	420201	5d4b14caed2dfc0001a22c1a	825170770	1	main_z	7	advance_on_keypress_ZEE	132	stimuli_target_diamondcircles.svg	stimuli_distractor_trianglediamonds.svg	19	yes	57	0	620
6.6.1	win	2022-11-07	11:17:16	11:24:19	421945	5d4b14caed2dfc0001a22c1a	825170770	1	main_z	7	main_z	133	stimuli_distractor_diamondtriangles.svg	stimuli_target_circlediamonds.svg	14	yes	44	1	490
6.6.1	win	2022-11-07	11:17:16	11:24:19	421945	5d4b14caed2dfc0001a22c1a	825170770	1	main_z	7	advance_on_keypress_ZEE	134	stimuli_distractor_diamondtriangles.svg	stimuli_target_circlediamonds.svg	14	yes	57	0	566
6.6.1	win	2022-11-07	11:17:16	11:24:20	423529	5d4b14caed2dfc0001a22c1a	825170770	1	main_z	7	main_z	135	stimuli_target_squarediamonds.svg	stimuli_distractor_diamondtriangles.svg	8	yes	44	1	374
6.6.1	win	2022-11-07	11:17:16	11:24:20	423529	5d4b14caed2dfc0001a22c1a	825170770	1	main_z	7	advance_on_keypress_ZEE	136	stimuli_target_squarediamonds.svg	stimuli_distractor_diamondtriangles.svg	8	yes	57	0	662
6.6.1	win	2022-11-07	11:17:16	11:24:24	426823	5d4b14caed2dfc0001a22c1a	825170770	1	main_z	7	main_z	137	stimuli_target_diamondsquares.svg	stimuli_distractor_trianglediamonds.svg	20	yes	0	0	2000
6.6.1	win	2022-11-07	11:17:16	11:24:24	426823	5d4b14caed2dfc0001a22c1a	825170770	1	main_z	7	advance_on_keypress_ZEE	138	stimuli_target_diamondsquares.svg	stimuli_distractor_trianglediamonds.svg	20	yes	57	0	418
6.6.1	win	2022-11-07	11:17:16	11:24:25	428345	5d4b14caed2dfc0001a22c1a	825170770	1	main_z	7	main_z	139	stimuli_distractor_diamondtriangles.svg	stimuli_target_circletriangles.svg	13	yes	44	1	456
6.6.1	win	2022-11-07	11:17:16	11:24:25	428345	5d4b14caed2dfc0001a22c1a	825170770	1	main_z	7	advance_on_keypress_ZEE	140	stimuli_distractor_diamondtriangles.svg	stimuli_target_circletriangles.svg	13	yes	57	0	709
6.6.1	win	2022-11-07	11:17:16	11:24:27	430233	5d4b14caed2dfc0001a22c1a	825170770	1	main_z	7	main_z	141	stimuli_target_trianglesquares.svg	stimuli_distractor_diamondtriangles.svg	22	yes	44	1	544
6.6.1	win	2022-11-07	11:17:16	11:24:27	430233	5d4b14caed2dfc0001a22c1a	825170770	1	main_z	7	advance_on_keypress_ZEE	142	stimuli_target_trianglesquares.svg	stimuli_distractor_diamondtriangles.svg	22	yes	57	0	778
6.6.1	win	2022-11-07	11:17:16	11:24:29	432041	5d4b14caed2dfc0001a22c1a	825170770	1	main_z	7	main_z	143	stimuli_distractor_trianglediamonds.svg	stimuli_distractor_trianglediamonds.svg	34	no	44	0	402
6.6.1	win	2022-11-07	11:17:16	11:24:29	432041	5d4b14caed2dfc0001a22c1a	825170770	1	main_z	7	advance_on_keypress_ZEE	144	stimuli_distractor_trianglediamonds.svg	stimuli_distractor_trianglediamonds.svg	34	no	57	0	801
6.6.1	win	2022-11-07	11:17:16	11:24:32	435490	5d4b14caed2dfc0001a22c1a	825170770	1	main_z	7	main_z	145	stimuli_distractor_trianglediamonds.svg	stimuli_distractor_diamondtriangles.svg	36	no	0	1	2000
6.6.1	win	2022-11-07	11:17:16	11:24:32	435490	5d4b14caed2dfc0001a22c1a	825170770	1	main_z	7	advance_on_keypress_ZEE	146	stimuli_distractor_trianglediamonds.svg	stimuli_distractor_diamondtriangles.svg	36	no	57	0	471
6.6.1	win	2022-11-07	11:17:16	11:24:34	437033	5d4b14caed2dfc0001a22c1a	825170770	1	main_z	7	main_z	147	stimuli_target_trianglecircles.svg	stimuli_distractor_trianglediamonds.svg	17	yes	44	1	427
6.6.1	win	2022-11-07	11:17:16	11:24:34	437033	5d4b14caed2dfc0001a22c1a	825170770	1	main_z	7	advance_on_keypress_ZEE	148	stimuli_target_trianglecircles.svg	stimuli_distractor_trianglediamonds.svg	17	yes	57	0	634
6.6.1	win	2022-11-07	11:17:16	11:24:37	440306	5d4b14caed2dfc0001a22c1a	825170770	1	main_z	7	main_z	149	stimuli_distractor_diamondtriangles.svg	stimuli_distractor_trianglediamonds.svg	37	no	0	1	2000
6.6.1	win	2022-11-07	11:17:16	11:24:37	440306	5d4b14caed2dfc0001a22c1a	825170770	1	main_z	7	advance_on_keypress_ZEE	150	stimuli_distractor_diamondtriangles.svg	stimuli_distractor_trianglediamonds.svg	37	no	57	0	423
6.6.1	win	2022-11-07	11:17:16	11:24:38	441754	5d4b14caed2dfc0001a22c1a	825170770	1	main_z	7	main_z	151	stimuli_distractor_trianglediamonds.svg	stimuli_target_circletriangles.svg	9	yes	44	1	381
6.6.1	win	2022-11-07	11:17:16	11:24:38	441754	5d4b14caed2dfc0001a22c1a	825170770	1	main_z	7	advance_on_keypress_ZEE	152	stimuli_distractor_trianglediamonds.svg	stimuli_target_circletriangles.svg	9	yes	57	0	605
6.6.1	win	2022-11-07	11:17:16	11:24:40	443322	5d4b14caed2dfc0001a22c1a	825170770	1	main_z	7	main_z	153	stimuli_target_circlediamonds.svg	stimuli_distractor_trianglediamonds.svg	2	yes	44	1	332
6.6.1	win	2022-11-07	11:17:16	11:24:40	443322	5d4b14caed2dfc0001a22c1a	825170770	1	main_z	7	advance_on_keypress_ZEE	154	stimuli_target_circlediamonds.svg	stimuli_distractor_trianglediamonds.svg	2	yes	57	0	590
6.6.1	win	2022-11-07	11:17:16	11:24:43	446556	5d4b14caed2dfc0001a22c1a	825170770	1	main_z	7	main_z	155	stimuli_distractor_trianglediamonds.svg	stimuli_distractor_diamondtriangles.svg	35	no	0	1	2000
6.6.1	win	2022-11-07	11:17:16	11:24:43	446556	5d4b14caed2dfc0001a22c1a	825170770	1	main_z	7	advance_on_keypress_ZEE	156	stimuli_distractor_trianglediamonds.svg	stimuli_distractor_diamondtriangles.svg	35	no	57	0	397
6.6.1	win	2022-11-07	11:17:16	11:24:45	448041	5d4b14caed2dfc0001a22c1a	825170770	1	main_z	7	main_z	157	stimuli_distractor_diamondtriangles.svg	stimuli_target_squaretriangles.svg	15	yes	44	1	452
6.6.1	win	2022-11-07	11:17:16	11:24:45	448041	5d4b14caed2dfc0001a22c1a	825170770	1	main_z	7	advance_on_keypress_ZEE	158	stimuli_distractor_diamondtriangles.svg	stimuli_target_squaretriangles.svg	15	yes	57	0	561
6.6.1	win	2022-11-07	11:17:16	11:24:46	449673	5d4b14caed2dfc0001a22c1a	825170770	1	main_z	7	main_z	159	stimuli_target_trianglecircles.svg	stimuli_distractor_diamondtriangles.svg	21	yes	44	1	434
6.6.1	win	2022-11-07	11:17:16	11:24:46	449673	5d4b14caed2dfc0001a22c1a	825170770	1	main_z	7	advance_on_keypress_ZEE	160	stimuli_target_trianglecircles.svg	stimuli_distractor_diamondtriangles.svg	21	yes	57	0	671
6.6.1	win	2022-11-07	11:17:16	11:25:17	480274	5d4b14caed2dfc0001a22c1a	825170770	1	practice_slash	9	practice_slash	1	stimuli_distractor_trianglediamonds.svg	stimuli_target_squarediamonds.svg	11	yes	53	1	366
6.6.1	win	2022-11-07	11:17:16	11:25:17	480274	5d4b14caed2dfc0001a22c1a	825170770	1	practice_slash	9	advance_on_keypress_SLASH	2	stimuli_distractor_trianglediamonds.svg	stimuli_target_squarediamonds.svg	11	yes	57	0	583
6.6.1	win	2022-11-07	11:17:16	11:25:20	482978	5d4b14caed2dfc0001a22c1a	825170770	1	practice_slash	9	practice_slash	3	stimuli_target_circlediamonds.svg	stimuli_distractor_trianglediamonds.svg	4	yes	53	1	471
6.6.1	win	2022-11-07	11:17:16	11:25:20	482978	5d4b14caed2dfc0001a22c1a	825170770	1	practice_slash	9	advance_on_keypress_SLASH	4	stimuli_target_circlediamonds.svg	stimuli_distractor_trianglediamonds.svg	4	yes	57	0	299
6.6.1	win	2022-11-07	11:17:16	11:25:22	485570	5d4b14caed2dfc0001a22c1a	825170770	1	practice_slash	9	practice_slash	5	stimuli_target_diamondsquares.svg	stimuli_distractor_diamondtriangles.svg	3	yes	53	1	646
6.6.1	win	2022-11-07	11:17:16	11:25:22	485570	5d4b14caed2dfc0001a22c1a	825170770	1	practice_slash	9	advance_on_keypress_SLASH	6	stimuli_target_diamondsquares.svg	stimuli_distractor_diamondtriangles.svg	3	yes	57	0	356
6.6.1	win	2022-11-07	11:17:16	11:25:25	488051	5d4b14caed2dfc0001a22c1a	825170770	1	practice_slash	9	practice_slash	7	stimuli_target_circlediamonds.svg	stimuli_distractor_diamondtriangles.svg	1	yes	53	1	493
6.6.1	win	2022-11-07	11:17:16	11:25:25	488051	5d4b14caed2dfc0001a22c1a	825170770	1	practice_slash	9	advance_on_keypress_SLASH	8	stimuli_target_circlediamonds.svg	stimuli_distractor_diamondtriangles.svg	1	yes	57	0	337
6.6.1	win	2022-11-07	11:17:16	11:25:29	492025	5d4b14caed2dfc0001a22c1a	825170770	1	practice_slash	9	practice_slash	9	stimuli_distractor_diamondtriangles.svg	stimuli_target_circletriangles.svg	7	yes	0	0	2000
6.6.1	win	2022-11-07	11:17:16	11:25:29	492025	5d4b14caed2dfc0001a22c1a	825170770	1	practice_slash	9	advance_on_keypress_SLASH	10	stimuli_distractor_diamondtriangles.svg	stimuli_target_circletriangles.svg	7	yes	57	0	481
6.6.1	win	2022-11-07	11:17:16	11:25:33	496141	5d4b14caed2dfc0001a22c1a	825170770	1	practice_slash	9	practice_slash	11	stimuli_distractor_diamondtriangles.svg	stimuli_distractor_diamondtriangles.svg	13	no	0	1	2000
6.6.1	win	2022-11-07	11:17:16	11:25:33	496141	5d4b14caed2dfc0001a22c1a	825170770	1	practice_slash	9	advance_on_keypress_SLASH	12	stimuli_distractor_diamondtriangles.svg	stimuli_distractor_diamondtriangles.svg	13	no	57	0	364
6.6.1	win	2022-11-07	11:17:16	11:25:35	498626	5d4b14caed2dfc0001a22c1a	825170770	1	practice_slash	9	practice_slash	13	stimuli_distractor_diamondtriangles.svg	stimuli_target_trianglecircles.svg	9	yes	53	1	485
6.6.1	win	2022-11-07	11:17:16	11:25:35	498626	5d4b14caed2dfc0001a22c1a	825170770	1	practice_slash	9	advance_on_keypress_SLASH	14	stimuli_distractor_diamondtriangles.svg	stimuli_target_trianglecircles.svg	9	yes	57	0	345
6.6.1	win	2022-11-07	11:17:16	11:25:38	501074	5d4b14caed2dfc0001a22c1a	825170770	1	practice_slash	9	practice_slash	15	stimuli_distractor_trianglediamonds.svg	stimuli_target_circlediamonds.svg	10	yes	53	1	466
6.6.1	win	2022-11-07	11:17:16	11:25:38	501074	5d4b14caed2dfc0001a22c1a	825170770	1	practice_slash	9	advance_on_keypress_SLASH	16	stimuli_distractor_trianglediamonds.svg	stimuli_target_circlediamonds.svg	10	yes	57	0	327
6.6.1	win	2022-11-07	11:17:16	11:25:42	505041	5d4b14caed2dfc0001a22c1a	825170770	1	practice_slash	9	practice_slash	17	stimuli_distractor_trianglediamonds.svg	stimuli_distractor_trianglediamonds.svg	15	no	0	1	2000
6.6.1	win	2022-11-07	11:17:16	11:25:42	505041	5d4b14caed2dfc0001a22c1a	825170770	1	practice_slash	9	advance_on_keypress_SLASH	18	stimuli_distractor_trianglediamonds.svg	stimuli_distractor_trianglediamonds.svg	15	no	57	0	440
6.6.1	win	2022-11-07	11:17:16	11:25:44	507490	5d4b14caed2dfc0001a22c1a	825170770	1	practice_slash	9	practice_slash	19	stimuli_distractor_trianglediamonds.svg	stimuli_target_diamondcircles.svg	12	yes	53	1	366
6.6.1	win	2022-11-07	11:17:16	11:25:44	507490	5d4b14caed2dfc0001a22c1a	825170770	1	practice_slash	9	advance_on_keypress_SLASH	20	stimuli_distractor_trianglediamonds.svg	stimuli_target_diamondcircles.svg	12	yes	57	0	358
6.6.1	win	2022-11-07	11:17:16	11:25:47	509890	5d4b14caed2dfc0001a22c1a	825170770	1	practice_slash	9	practice_slash	21	stimuli_distractor_diamondtriangles.svg	stimuli_target_diamondcircles.svg	8	yes	53	1	399
6.6.1	win	2022-11-07	11:17:16	11:25:47	509890	5d4b14caed2dfc0001a22c1a	825170770	1	practice_slash	9	advance_on_keypress_SLASH	22	stimuli_distractor_diamondtriangles.svg	stimuli_target_diamondcircles.svg	8	yes	57	0	358
6.6.1	win	2022-11-07	11:17:16	11:25:51	513892	5d4b14caed2dfc0001a22c1a	825170770	1	practice_slash	9	practice_slash	23	stimuli_distractor_trianglediamonds.svg	stimuli_distractor_diamondtriangles.svg	16	no	0	1	2000
6.6.1	win	2022-11-07	11:17:16	11:25:51	513892	5d4b14caed2dfc0001a22c1a	825170770	1	practice_slash	9	advance_on_keypress_SLASH	24	stimuli_distractor_trianglediamonds.svg	stimuli_distractor_diamondtriangles.svg	16	no	57	0	310
6.6.1	win	2022-11-07	11:17:16	11:25:53	516354	5d4b14caed2dfc0001a22c1a	825170770	1	practice_slash	9	practice_slash	25	stimuli_target_squarediamonds.svg	stimuli_distractor_trianglediamonds.svg	5	yes	53	1	513
6.6.1	win	2022-11-07	11:17:16	11:25:53	516354	5d4b14caed2dfc0001a22c1a	825170770	1	practice_slash	9	advance_on_keypress_SLASH	26	stimuli_target_squarediamonds.svg	stimuli_distractor_trianglediamonds.svg	5	yes	57	0	340
6.6.1	win	2022-11-07	11:17:16	11:25:56	518818	5d4b14caed2dfc0001a22c1a	825170770	1	practice_slash	9	practice_slash	27	stimuli_target_diamondsquares.svg	stimuli_distractor_trianglediamonds.svg	6	yes	53	1	493
6.6.1	win	2022-11-07	11:17:16	11:25:56	518818	5d4b14caed2dfc0001a22c1a	825170770	1	practice_slash	9	advance_on_keypress_SLASH	28	stimuli_target_diamondsquares.svg	stimuli_distractor_trianglediamonds.svg	6	yes	57	0	305
6.6.1	win	2022-11-07	11:17:16	11:25:59	522758	5d4b14caed2dfc0001a22c1a	825170770	1	practice_slash	9	practice_slash	29	stimuli_distractor_diamondtriangles.svg	stimuli_distractor_trianglediamonds.svg	14	no	0	1	2000
6.6.1	win	2022-11-07	11:17:16	11:25:59	522758	5d4b14caed2dfc0001a22c1a	825170770	1	practice_slash	9	advance_on_keypress_SLASH	30	stimuli_distractor_diamondtriangles.svg	stimuli_distractor_trianglediamonds.svg	14	no	57	0	1107
6.6.1	win	2022-11-07	11:17:16	11:26:03	525954	5d4b14caed2dfc0001a22c1a	825170770	1	practice_slash	9	practice_slash	31	stimuli_target_squarediamonds.svg	stimuli_distractor_diamondtriangles.svg	2	yes	53	1	446
6.6.1	win	2022-11-07	11:17:16	11:26:03	525954	5d4b14caed2dfc0001a22c1a	825170770	1	practice_slash	9	advance_on_keypress_SLASH	32	stimuli_target_squarediamonds.svg	stimuli_distractor_diamondtriangles.svg	2	yes	57	0	340
6.6.1	win	2022-11-07	11:17:16	11:26:11	534675	5d4b14caed2dfc0001a22c1a	825170770	1	main_slash	11	main_slash	1	stimuli_distractor_diamondtriangles.svg	stimuli_distractor_trianglediamonds.svg	37	no	0	1	2000
6.6.1	win	2022-11-07	11:17:16	11:26:11	534675	5d4b14caed2dfc0001a22c1a	825170770	1	main_slash	11	advance_on_keypress_SLASH	2	stimuli_distractor_diamondtriangles.svg	stimuli_distractor_trianglediamonds.svg	37	no	57	0	454
6.6.1	win	2022-11-07	11:17:16	11:26:13	536153	5d4b14caed2dfc0001a22c1a	825170770	1	main_slash	11	main_slash	3	stimuli_distractor_trianglediamonds.svg	stimuli_target_squaretriangles.svg	11	yes	53	1	379
6.6.1	win	2022-11-07	11:17:16	11:26:13	536153	5d4b14caed2dfc0001a22c1a	825170770	1	main_slash	11	advance_on_keypress_SLASH	4	stimuli_distractor_trianglediamonds.svg	stimuli_target_squaretriangles.svg	11	yes	57	0	668
6.6.1	win	2022-11-07	11:17:16	11:26:16	539458	5d4b14caed2dfc0001a22c1a	825170770	1	main_slash	11	main_slash	5	stimuli_distractor_diamondtriangles.svg	stimuli_distractor_diamondtriangles.svg	39	no	0	1	2000
6.6.1	win	2022-11-07	11:17:16	11:26:16	539458	5d4b14caed2dfc0001a22c1a	825170770	1	main_slash	11	advance_on_keypress_SLASH	6	stimuli_distractor_diamondtriangles.svg	stimuli_distractor_diamondtriangles.svg	39	no	57	0	503
6.6.1	win	2022-11-07	11:17:16	11:26:18	541033	5d4b14caed2dfc0001a22c1a	825170770	1	main_slash	11	main_slash	7	stimuli_target_trianglecircles.svg	stimuli_distractor_trianglediamonds.svg	17	yes	53	1	426
6.6.1	win	2022-11-07	11:17:16	11:26:18	541033	5d4b14caed2dfc0001a22c1a	825170770	1	main_slash	11	advance_on_keypress_SLASH	8	stimuli_target_trianglecircles.svg	stimuli_distractor_trianglediamonds.svg	17	yes	57	0	616
6.6.1	win	2022-11-07	11:17:16	11:26:19	542777	5d4b14caed2dfc0001a22c1a	825170770	1	main_slash	11	main_slash	9	stimuli_target_circletriangles.svg	stimuli_distractor_trianglediamonds.svg	1	yes	53	1	486
6.6.1	win	2022-11-07	11:17:16	11:26:19	542777	5d4b14caed2dfc0001a22c1a	825170770	1	main_slash	11	advance_on_keypress_SLASH	10	stimuli_target_circletriangles.svg	stimuli_distractor_trianglediamonds.svg	1	yes	57	0	530
6.6.1	win	2022-11-07	11:17:16	11:26:21	544361	5d4b14caed2dfc0001a22c1a	825170770	1	main_slash	11	main_slash	11	stimuli_target_trianglecircles.svg	stimuli_distractor_diamondtriangles.svg	21	yes	53	1	420
6.6.1	win	2022-11-07	11:17:16	11:26:21	544361	5d4b14caed2dfc0001a22c1a	825170770	1	main_slash	11	advance_on_keypress_SLASH	12	stimuli_target_trianglecircles.svg	stimuli_distractor_diamondtriangles.svg	21	yes	57	0	483
6.6.1	win	2022-11-07	11:17:16	11:26:23	545994	5d4b14caed2dfc0001a22c1a	825170770	1	main_slash	11	main_slash	13	stimuli_target_diamondsquares.svg	stimuli_distractor_diamondtriangles.svg	24	yes	53	1	502
6.6.1	win	2022-11-07	11:17:16	11:26:23	545994	5d4b14caed2dfc0001a22c1a	825170770	1	main_slash	11	advance_on_keypress_SLASH	14	stimuli_target_diamondsquares.svg	stimuli_distractor_diamondtriangles.svg	24	yes	57	0	514
6.6.1	win	2022-11-07	11:17:16	11:26:25	547897	5d4b14caed2dfc0001a22c1a	825170770	1	main_slash	11	main_slash	15	stimuli_distractor_trianglediamonds.svg	stimuli_target_circlediamonds.svg	10	yes	53	1	756
6.6.1	win	2022-11-07	11:17:16	11:26:25	547897	5d4b14caed2dfc0001a22c1a	825170770	1	main_slash	11	advance_on_keypress_SLASH	16	stimuli_distractor_trianglediamonds.svg	stimuli_target_circlediamonds.svg	10	yes	57	0	534
6.6.1	win	2022-11-07	11:17:16	11:26:26	549465	5d4b14caed2dfc0001a22c1a	825170770	1	main_slash	11	main_slash	17	stimuli_target_squarediamonds.svg	stimuli_distractor_trianglediamonds.svg	4	yes	53	1	391
6.6.1	win	2022-11-07	11:17:16	11:26:26	549465	5d4b14caed2dfc0001a22c1a	825170770	1	main_slash	11	advance_on_keypress_SLASH	18	stimuli_target_squarediamonds.svg	stimuli_distractor_trianglediamonds.svg	4	yes	57	0	583
6.6.1	win	2022-11-07	11:17:16	11:26:28	551337	5d4b14caed2dfc0001a22c1a	825170770	1	main_slash	11	main_slash	19	stimuli_distractor_diamondtriangles.svg	stimuli_target_trianglesquares.svg	30	yes	53	1	646
6.6.1	win	2022-11-07	11:17:16	11:26:28	551337	5d4b14caed2dfc0001a22c1a	825170770	1	main_slash	11	advance_on_keypress_SLASH	20	stimuli_distractor_diamondtriangles.svg	stimuli_target_trianglesquares.svg	30	yes	57	0	636
6.6.1	win	2022-11-07	11:17:16	11:26:30	553033	5d4b14caed2dfc0001a22c1a	825170770	1	main_slash	11	main_slash	21	stimuli_target_circlediamonds.svg	stimuli_distractor_trianglediamonds.svg	2	yes	53	1	425
6.6.1	win	2022-11-07	11:17:16	11:26:30	553033	5d4b14caed2dfc0001a22c1a	825170770	1	main_slash	11	advance_on_keypress_SLASH	22	stimuli_target_circlediamonds.svg	stimuli_distractor_trianglediamonds.svg	2	yes	57	0	520
6.6.1	win	2022-11-07	11:17:16	11:26:31	554633	5d4b14caed2dfc0001a22c1a	825170770	1	main_slash	11	main_slash	23	stimuli_distractor_diamondtriangles.svg	stimuli_target_diamondcircles.svg	31	yes	53	1	442
6.6.1	win	2022-11-07	11:17:16	11:26:31	554633	5d4b14caed2dfc0001a22c1a	825170770	1	main_slash	11	advance_on_keypress_SLASH	24	stimuli_distractor_diamondtriangles.svg	stimuli_target_diamondcircles.svg	31	yes	57	0	552
6.6.1	win	2022-11-07	11:17:16	11:26:33	556234	5d4b14caed2dfc0001a22c1a	825170770	1	main_slash	11	main_slash	25	stimuli_target_trianglesquares.svg	stimuli_distractor_diamondtriangles.svg	22	yes	53	1	409
6.6.1	win	2022-11-07	11:17:16	11:26:33	556234	5d4b14caed2dfc0001a22c1a	825170770	1	main_slash	11	advance_on_keypress_SLASH	26	stimuli_target_trianglesquares.svg	stimuli_distractor_diamondtriangles.svg	22	yes	57	0	520
6.6.1	win	2022-11-07	11:17:16	11:26:35	558041	5d4b14caed2dfc0001a22c1a	825170770	1	main_slash	11	main_slash	27	stimuli_distractor_diamondtriangles.svg	stimuli_target_squarediamonds.svg	16	yes	53	1	650
6.6.1	win	2022-11-07	11:17:16	11:26:35	558041	5d4b14caed2dfc0001a22c1a	825170770	1	main_slash	11	advance_on_keypress_SLASH	28	stimuli_distractor_diamondtriangles.svg	stimuli_target_squarediamonds.svg	16	yes	57	0	607
6.6.1	win	2022-11-07	11:17:16	11:26:36	559706	5d4b14caed2dfc0001a22c1a	825170770	1	main_slash	11	main_slash	29	stimuli_target_diamondcircles.svg	stimuli_distractor_trianglediamonds.svg	19	yes	53	1	414
6.6.1	win	2022-11-07	11:17:16	11:26:36	559706	5d4b14caed2dfc0001a22c1a	825170770	1	main_slash	11	advance_on_keypress_SLASH	30	stimuli_target_diamondcircles.svg	stimuli_distractor_trianglediamonds.svg	19	yes	57	0	525
6.6.1	win	2022-11-07	11:17:16	11:26:38	561273	5d4b14caed2dfc0001a22c1a	825170770	1	main_slash	11	main_slash	31	stimuli_target_circletriangles.svg	stimuli_distractor_diamondtriangles.svg	5	yes	53	1	415
6.6.1	win	2022-11-07	11:17:16	11:26:38	561273	5d4b14caed2dfc0001a22c1a	825170770	1	main_slash	11	advance_on_keypress_SLASH	32	stimuli_target_circletriangles.svg	stimuli_distractor_diamondtriangles.svg	5	yes	57	0	542
6.6.1	win	2022-11-07	11:17:16	11:26:41	564458	5d4b14caed2dfc0001a22c1a	825170770	1	main_slash	11	main_slash	33	stimuli_distractor_trianglediamonds.svg	stimuli_distractor_trianglediamonds.svg	33	no	0	1	2000
6.6.1	win	2022-11-07	11:17:16	11:26:41	564458	5d4b14caed2dfc0001a22c1a	825170770	1	main_slash	11	advance_on_keypress_SLASH	34	stimuli_distractor_trianglediamonds.svg	stimuli_distractor_trianglediamonds.svg	33	no	57	0	718
6.6.1	win	2022-11-07	11:17:16	11:26:43	566234	5d4b14caed2dfc0001a22c1a	825170770	1	main_slash	11	main_slash	35	stimuli_distractor_trianglediamonds.svg	stimuli_target_circletriangles.svg	9	yes	53	1	408
6.6.1	win	2022-11-07	11:17:16	11:26:43	566234	5d4b14caed2dfc0001a22c1a	825170770	1	main_slash	11	advance_on_keypress_SLASH	36	stimuli_distractor_trianglediamonds.svg	stimuli_target_circletriangles.svg	9	yes	57	0	488
6.6.1	win	2022-11-07	11:17:16	11:26:45	567962	5d4b14caed2dfc0001a22c1a	825170770	1	main_slash	11	main_slash	37	stimuli_distractor_trianglediamonds.svg	stimuli_target_diamondsquares.svg	28	yes	53	1	603
6.6.1	win	2022-11-07	11:17:16	11:26:45	567962	5d4b14caed2dfc0001a22c1a	825170770	1	main_slash	11	advance_on_keypress_SLASH	38	stimuli_distractor_trianglediamonds.svg	stimuli_target_diamondsquares.svg	28	yes	57	0	722
6.6.1	win	2022-11-07	11:17:16	11:26:46	569722	5d4b14caed2dfc0001a22c1a	825170770	1	main_slash	11	main_slash	39	stimuli_target_squaretriangles.svg	stimuli_distractor_diamondtriangles.svg	7	yes	53	1	396
6.6.1	win	2022-11-07	11:17:16	11:26:46	569722	5d4b14caed2dfc0001a22c1a	825170770	1	main_slash	11	advance_on_keypress_SLASH	40	stimuli_target_squaretriangles.svg	stimuli_distractor_diamondtriangles.svg	7	yes	57	0	588
6.6.1	win	2022-11-07	11:17:16	11:26:50	572942	5d4b14caed2dfc0001a22c1a	825170770	1	main_slash	11	main_slash	41	stimuli_distractor_diamondtriangles.svg	stimuli_distractor_diamondtriangles.svg	40	no	0	1	2000
6.6.1	win	2022-11-07	11:17:16	11:26:50	572942	5d4b14caed2dfc0001a22c1a	825170770	1	main_slash	11	advance_on_keypress_SLASH	42	stimuli_distractor_diamondtriangles.svg	stimuli_distractor_diamondtriangles.svg	40	no	57	0	523
6.6.1	win	2022-11-07	11:17:16	11:26:51	574442	5d4b14caed2dfc0001a22c1a	825170770	1	main_slash	11	main_slash	43	stimuli_target_circlediamonds.svg	stimuli_distractor_diamondtriangles.svg	6	yes	53	1	333
6.6.1	win	2022-11-07	11:17:16	11:26:51	574442	5d4b14caed2dfc0001a22c1a	825170770	1	main_slash	11	advance_on_keypress_SLASH	44	stimuli_target_circlediamonds.svg	stimuli_distractor_diamondtriangles.svg	6	yes	57	0	575
6.6.1	win	2022-11-07	11:17:16	11:26:53	576153	5d4b14caed2dfc0001a22c1a	825170770	1	main_slash	11	main_slash	45	stimuli_target_diamondcircles.svg	stimuli_distractor_diamondtriangles.svg	23	yes	53	1	495
6.6.1	win	2022-11-07	11:17:16	11:26:53	576153	5d4b14caed2dfc0001a22c1a	825170770	1	main_slash	11	advance_on_keypress_SLASH	46	stimuli_target_diamondcircles.svg	stimuli_distractor_diamondtriangles.svg	23	yes	57	0	443
6.6.1	win	2022-11-07	11:17:16	11:26:54	577530	5d4b14caed2dfc0001a22c1a	825170770	1	main_slash	11	main_slash	47	stimuli_distractor_diamondtriangles.svg	stimuli_target_trianglecircles.svg	29	yes	53	1	304
6.6.1	win	2022-11-07	11:17:16	11:26:54	577530	5d4b14caed2dfc0001a22c1a	825170770	1	main_slash	11	advance_on_keypress_SLASH	48	stimuli_distractor_diamondtriangles.svg	stimuli_target_trianglecircles.svg	29	yes	57	0	612
6.6.1	win	2022-11-07	11:17:16	11:26:56	579338	5d4b14caed2dfc0001a22c1a	825170770	1	main_slash	11	main_slash	49	stimuli_distractor_trianglediamonds.svg	stimuli_distractor_diamondtriangles.svg	36	no	53	0	562
6.6.1	win	2022-11-07	11:17:16	11:26:56	579338	5d4b14caed2dfc0001a22c1a	825170770	1	main_slash	11	advance_on_keypress_SLASH	50	stimuli_distractor_trianglediamonds.svg	stimuli_distractor_diamondtriangles.svg	36	no	57	0	716
6.6.1	win	2022-11-07	11:17:16	11:26:58	581306	5d4b14caed2dfc0001a22c1a	825170770	1	main_slash	11	main_slash	51	stimuli_distractor_diamondtriangles.svg	stimuli_target_diamondsquares.svg	32	yes	53	1	614
6.6.1	win	2022-11-07	11:17:16	11:26:58	581306	5d4b14caed2dfc0001a22c1a	825170770	1	main_slash	11	advance_on_keypress_SLASH	52	stimuli_distractor_diamondtriangles.svg	stimuli_target_diamondsquares.svg	32	yes	57	0	509
6.6.1	win	2022-11-07	11:17:16	11:27:00	582858	5d4b14caed2dfc0001a22c1a	825170770	1	main_slash	11	main_slash	53	stimuli_distractor_trianglediamonds.svg	stimuli_target_squarediamonds.svg	12	yes	53	1	416
6.6.1	win	2022-11-07	11:17:16	11:27:00	582858	5d4b14caed2dfc0001a22c1a	825170770	1	main_slash	11	advance_on_keypress_SLASH	54	stimuli_distractor_trianglediamonds.svg	stimuli_target_squarediamonds.svg	12	yes	57	0	526
6.6.1	win	2022-11-07	11:17:16	11:27:01	584457	5d4b14caed2dfc0001a22c1a	825170770	1	main_slash	11	main_slash	55	stimuli_distractor_diamondtriangles.svg	stimuli_target_squaretriangles.svg	15	yes	53	1	432
6.6.1	win	2022-11-07	11:17:16	11:27:01	584457	5d4b14caed2dfc0001a22c1a	825170770	1	main_slash	11	advance_on_keypress_SLASH	56	stimuli_distractor_diamondtriangles.svg	stimuli_target_squaretriangles.svg	15	yes	57	0	462
6.6.1	win	2022-11-07	11:17:16	11:27:04	587559	5d4b14caed2dfc0001a22c1a	825170770	1	main_slash	11	main_slash	57	stimuli_distractor_diamondtriangles.svg	stimuli_distractor_trianglediamonds.svg	38	no	0	1	2000
6.6.1	win	2022-11-07	11:17:16	11:27:04	587559	5d4b14caed2dfc0001a22c1a	825170770	1	main_slash	11	advance_on_keypress_SLASH	58	stimuli_distractor_diamondtriangles.svg	stimuli_distractor_trianglediamonds.svg	38	no	57	0	593
6.6.1	win	2022-11-07	11:17:16	11:27:06	589177	5d4b14caed2dfc0001a22c1a	825170770	1	main_slash	11	main_slash	59	stimuli_target_squarediamonds.svg	stimuli_distractor_diamondtriangles.svg	8	yes	53	1	384
6.6.1	win	2022-11-07	11:17:16	11:27:06	589177	5d4b14caed2dfc0001a22c1a	825170770	1	main_slash	11	advance_on_keypress_SLASH	60	stimuli_target_squarediamonds.svg	stimuli_distractor_diamondtriangles.svg	8	yes	57	0	624
6.6.1	win	2022-11-07	11:17:16	11:27:08	590921	5d4b14caed2dfc0001a22c1a	825170770	1	main_slash	11	main_slash	61	stimuli_target_diamondsquares.svg	stimuli_distractor_trianglediamonds.svg	20	yes	53	1	479
6.6.1	win	2022-11-07	11:17:16	11:27:08	590921	5d4b14caed2dfc0001a22c1a	825170770	1	main_slash	11	advance_on_keypress_SLASH	62	stimuli_target_diamondsquares.svg	stimuli_distractor_trianglediamonds.svg	20	yes	57	0	460
6.6.1	win	2022-11-07	11:17:16	11:27:09	592378	5d4b14caed2dfc0001a22c1a	825170770	1	main_slash	11	main_slash	63	stimuli_distractor_trianglediamonds.svg	stimuli_target_trianglecircles.svg	25	yes	53	1	369
6.6.1	win	2022-11-07	11:17:16	11:27:09	592378	5d4b14caed2dfc0001a22c1a	825170770	1	main_slash	11	advance_on_keypress_SLASH	64	stimuli_distractor_trianglediamonds.svg	stimuli_target_trianglecircles.svg	25	yes	57	0	545
6.6.1	win	2022-11-07	11:17:16	11:27:11	594137	5d4b14caed2dfc0001a22c1a	825170770	1	main_slash	11	main_slash	65	stimuli_distractor_trianglediamonds.svg	stimuli_target_trianglesquares.svg	26	yes	53	1	578
6.6.1	win	2022-11-07	11:17:16	11:27:11	594137	5d4b14caed2dfc0001a22c1a	825170770	1	main_slash	11	advance_on_keypress_SLASH	66	stimuli_distractor_trianglediamonds.svg	stimuli_target_trianglesquares.svg	26	yes	57	0	458
6.6.1	win	2022-11-07	11:17:16	11:27:14	597226	5d4b14caed2dfc0001a22c1a	825170770	1	main_slash	11	main_slash	67	stimuli_distractor_trianglediamonds.svg	stimuli_distractor_diamondtriangles.svg	35	no	0	1	2000
6.6.1	win	2022-11-07	11:17:16	11:27:14	597226	5d4b14caed2dfc0001a22c1a	825170770	1	main_slash	11	advance_on_keypress_SLASH	68	stimuli_distractor_trianglediamonds.svg	stimuli_distractor_diamondtriangles.svg	35	no	57	0	447
6.6.1	win	2022-11-07	11:17:16	11:27:17	600309	5d4b14caed2dfc0001a22c1a	825170770	1	main_slash	11	main_slash	69	stimuli_distractor_trianglediamonds.svg	stimuli_distractor_trianglediamonds.svg	34	no	0	1	2000
6.6.1	win	2022-11-07	11:17:16	11:27:17	600309	5d4b14caed2dfc0001a22c1a	825170770	1	main_slash	11	advance_on_keypress_SLASH	70	stimuli_distractor_trianglediamonds.svg	stimuli_distractor_trianglediamonds.svg	34	no	57	0	500
6.6.1	win	2022-11-07	11:17:16	11:27:19	601881	5d4b14caed2dfc0001a22c1a	825170770	1	main_slash	11	main_slash	71	stimuli_distractor_diamondtriangles.svg	stimuli_target_circletriangles.svg	13	yes	53	1	423
6.6.1	win	2022-11-07	11:17:16	11:27:19	601881	5d4b14caed2dfc0001a22c1a	825170770	1	main_slash	11	advance_on_keypress_SLASH	72	stimuli_distractor_diamondtriangles.svg	stimuli_target_circletriangles.svg	13	yes	57	0	565
6.6.1	win	2022-11-07	11:17:16	11:27:20	603481	5d4b14caed2dfc0001a22c1a	825170770	1	main_slash	11	main_slash	73	stimuli_distractor_diamondtriangles.svg	stimuli_target_circlediamonds.svg	14	yes	53	1	388
6.6.1	win	2022-11-07	11:17:16	11:27:20	603481	5d4b14caed2dfc0001a22c1a	825170770	1	main_slash	11	advance_on_keypress_SLASH	74	stimuli_distractor_diamondtriangles.svg	stimuli_target_circlediamonds.svg	14	yes	57	0	613
6.6.1	win	2022-11-07	11:17:16	11:27:22	605113	5d4b14caed2dfc0001a22c1a	825170770	1	main_slash	11	main_slash	75	stimuli_target_squaretriangles.svg	stimuli_distractor_trianglediamonds.svg	3	yes	53	1	388
6.6.1	win	2022-11-07	11:17:16	11:27:22	605113	5d4b14caed2dfc0001a22c1a	825170770	1	main_slash	11	advance_on_keypress_SLASH	76	stimuli_target_squaretriangles.svg	stimuli_distractor_trianglediamonds.svg	3	yes	57	0	531
6.6.1	win	2022-11-07	11:17:16	11:27:23	606697	5d4b14caed2dfc0001a22c1a	825170770	1	main_slash	11	main_slash	77	stimuli_target_trianglesquares.svg	stimuli_distractor_trianglediamonds.svg	18	yes	53	1	405
6.6.1	win	2022-11-07	11:17:16	11:27:23	606697	5d4b14caed2dfc0001a22c1a	825170770	1	main_slash	11	advance_on_keypress_SLASH	78	stimuli_target_trianglesquares.svg	stimuli_distractor_trianglediamonds.svg	18	yes	57	0	628
6.6.1	win	2022-11-07	11:17:16	11:27:25	608330	5d4b14caed2dfc0001a22c1a	825170770	1	main_slash	11	main_slash	79	stimuli_distractor_trianglediamonds.svg	stimuli_target_diamondcircles.svg	27	yes	53	1	370
6.6.1	win	2022-11-07	11:17:16	11:27:25	608330	5d4b14caed2dfc0001a22c1a	825170770	1	main_slash	11	advance_on_keypress_SLASH	80	stimuli_distractor_trianglediamonds.svg	stimuli_target_diamondcircles.svg	27	yes	57	0	595
6.6.1	win	2022-11-07	11:17:16	11:27:27	609961	5d4b14caed2dfc0001a22c1a	825170770	1	main_slash	11	main_slash	81	stimuli_target_squaretriangles.svg	stimuli_distractor_trianglediamonds.svg	3	yes	53	1	401
6.6.1	win	2022-11-07	11:17:16	11:27:27	609961	5d4b14caed2dfc0001a22c1a	825170770	1	main_slash	11	advance_on_keypress_SLASH	82	stimuli_target_squaretriangles.svg	stimuli_distractor_trianglediamonds.svg	3	yes	57	0	530
6.6.1	win	2022-11-07	11:17:16	11:27:30	613126	5d4b14caed2dfc0001a22c1a	825170770	1	main_slash	11	main_slash	83	stimuli_distractor_trianglediamonds.svg	stimuli_distractor_trianglediamonds.svg	33	no	0	1	2000
6.6.1	win	2022-11-07	11:17:16	11:27:30	613126	5d4b14caed2dfc0001a22c1a	825170770	1	main_slash	11	advance_on_keypress_SLASH	84	stimuli_distractor_trianglediamonds.svg	stimuli_distractor_trianglediamonds.svg	33	no	57	0	419
6.6.1	win	2022-11-07	11:17:16	11:27:31	614633	5d4b14caed2dfc0001a22c1a	825170770	1	main_slash	11	main_slash	85	stimuli_target_diamondsquares.svg	stimuli_distractor_trianglediamonds.svg	20	yes	53	1	441
6.6.1	win	2022-11-07	11:17:16	11:27:31	614633	5d4b14caed2dfc0001a22c1a	825170770	1	main_slash	11	advance_on_keypress_SLASH	86	stimuli_target_diamondsquares.svg	stimuli_distractor_trianglediamonds.svg	20	yes	57	0	551
6.6.1	win	2022-11-07	11:17:16	11:27:33	616169	5d4b14caed2dfc0001a22c1a	825170770	1	main_slash	11	main_slash	87	stimuli_distractor_diamondtriangles.svg	stimuli_target_squarediamonds.svg	16	yes	53	1	343
6.6.1	win	2022-11-07	11:17:16	11:27:33	616169	5d4b14caed2dfc0001a22c1a	825170770	1	main_slash	11	advance_on_keypress_SLASH	88	stimuli_distractor_diamondtriangles.svg	stimuli_target_squarediamonds.svg	16	yes	57	0	505
6.6.1	win	2022-11-07	11:17:16	11:27:35	617817	5d4b14caed2dfc0001a22c1a	825170770	1	main_slash	11	main_slash	89	stimuli_target_circlediamonds.svg	stimuli_distractor_diamondtriangles.svg	6	yes	53	1	507
6.6.1	win	2022-11-07	11:17:16	11:27:35	617817	5d4b14caed2dfc0001a22c1a	825170770	1	main_slash	11	advance_on_keypress_SLASH	90	stimuli_target_circlediamonds.svg	stimuli_distractor_diamondtriangles.svg	6	yes	57	0	408
6.6.1	win	2022-11-07	11:17:16	11:27:36	619209	5d4b14caed2dfc0001a22c1a	825170770	1	main_slash	11	main_slash	91	stimuli_target_squarediamonds.svg	stimuli_distractor_diamondtriangles.svg	8	yes	53	1	350
6.6.1	win	2022-11-07	11:17:16	11:27:36	619209	5d4b14caed2dfc0001a22c1a	825170770	1	main_slash	11	advance_on_keypress_SLASH	92	stimuli_target_squarediamonds.svg	stimuli_distractor_diamondtriangles.svg	8	yes	57	0	464
6.6.1	win	2022-11-07	11:17:16	11:27:37	620761	5d4b14caed2dfc0001a22c1a	825170770	1	main_slash	11	main_slash	93	stimuli_distractor_trianglediamonds.svg	stimuli_target_diamondsquares.svg	28	yes	53	1	451
6.6.1	win	2022-11-07	11:17:16	11:27:37	620761	5d4b14caed2dfc0001a22c1a	825170770	1	main_slash	11	advance_on_keypress_SLASH	94	stimuli_distractor_trianglediamonds.svg	stimuli_target_diamondsquares.svg	28	yes	57	0	658
6.6.1	win	2022-11-07	11:17:16	11:27:39	622473	5d4b14caed2dfc0001a22c1a	825170770	1	main_slash	11	main_slash	95	stimuli_distractor_diamondtriangles.svg	stimuli_target_trianglesquares.svg	30	yes	53	1	413
6.6.1	win	2022-11-07	11:17:16	11:27:39	622473	5d4b14caed2dfc0001a22c1a	825170770	1	main_slash	11	advance_on_keypress_SLASH	96	stimuli_distractor_diamondtriangles.svg	stimuli_target_trianglesquares.svg	30	yes	57	0	494
6.6.1	win	2022-11-07	11:17:16	11:27:41	623977	5d4b14caed2dfc0001a22c1a	825170770	1	main_slash	11	main_slash	97	stimuli_distractor_diamondtriangles.svg	stimuli_target_diamondcircles.svg	31	yes	53	1	384
6.6.1	win	2022-11-07	11:17:16	11:27:41	623977	5d4b14caed2dfc0001a22c1a	825170770	1	main_slash	11	advance_on_keypress_SLASH	98	stimuli_distractor_diamondtriangles.svg	stimuli_target_diamondcircles.svg	31	yes	57	0	448
6.6.1	win	2022-11-07	11:17:16	11:27:42	625609	5d4b14caed2dfc0001a22c1a	825170770	1	main_slash	11	main_slash	99	stimuli_distractor_diamondtriangles.svg	stimuli_target_diamondsquares.svg	32	yes	53	1	532
6.6.1	win	2022-11-07	11:17:16	11:27:42	625609	5d4b14caed2dfc0001a22c1a	825170770	1	main_slash	11	advance_on_keypress_SLASH	100	stimuli_distractor_diamondtriangles.svg	stimuli_target_diamondsquares.svg	32	yes	57	0	478
6.6.1	win	2022-11-07	11:17:16	11:27:44	627145	5d4b14caed2dfc0001a22c1a	825170770	1	main_slash	11	main_slash	101	stimuli_target_trianglecircles.svg	stimuli_distractor_trianglediamonds.svg	17	yes	53	1	418
6.6.1	win	2022-11-07	11:17:16	11:27:44	627145	5d4b14caed2dfc0001a22c1a	825170770	1	main_slash	11	advance_on_keypress_SLASH	102	stimuli_target_trianglecircles.svg	stimuli_distractor_trianglediamonds.svg	17	yes	57	0	482
6.6.1	win	2022-11-07	11:17:16	11:27:47	630276	5d4b14caed2dfc0001a22c1a	825170770	1	main_slash	11	main_slash	103	stimuli_distractor_diamondtriangles.svg	stimuli_distractor_diamondtriangles.svg	39	no	0	1	2000
6.6.1	win	2022-11-07	11:17:16	11:27:47	630276	5d4b14caed2dfc0001a22c1a	825170770	1	main_slash	11	advance_on_keypress_SLASH	104	stimuli_distractor_diamondtriangles.svg	stimuli_distractor_diamondtriangles.svg	39	no	57	0	660
6.6.1	win	2022-11-07	11:17:16	11:27:50	633576	5d4b14caed2dfc0001a22c1a	825170770	1	main_slash	11	main_slash	105	stimuli_distractor_trianglediamonds.svg	stimuli_distractor_diamondtriangles.svg	36	no	0	1	2000
6.6.1	win	2022-11-07	11:17:16	11:27:50	633576	5d4b14caed2dfc0001a22c1a	825170770	1	main_slash	11	advance_on_keypress_SLASH	106	stimuli_distractor_trianglediamonds.svg	stimuli_distractor_diamondtriangles.svg	36	no	57	0	497
6.6.1	win	2022-11-07	11:17:16	11:27:52	635113	5d4b14caed2dfc0001a22c1a	825170770	1	main_slash	11	main_slash	107	stimuli_target_circlediamonds.svg	stimuli_distractor_trianglediamonds.svg	2	yes	53	1	404
6.6.1	win	2022-11-07	11:17:16	11:27:52	635113	5d4b14caed2dfc0001a22c1a	825170770	1	main_slash	11	advance_on_keypress_SLASH	108	stimuli_target_circlediamonds.svg	stimuli_distractor_trianglediamonds.svg	2	yes	57	0	578
6.6.1	win	2022-11-07	11:17:16	11:27:55	638326	5d4b14caed2dfc0001a22c1a	825170770	1	main_slash	11	main_slash	109	stimuli_distractor_diamondtriangles.svg	stimuli_distractor_trianglediamonds.svg	38	no	0	1	2000
6.6.1	win	2022-11-07	11:17:16	11:27:55	638326	5d4b14caed2dfc0001a22c1a	825170770	1	main_slash	11	advance_on_keypress_SLASH	110	stimuli_distractor_diamondtriangles.svg	stimuli_distractor_trianglediamonds.svg	38	no	57	0	499
6.6.1	win	2022-11-07	11:17:16	11:27:57	639817	5d4b14caed2dfc0001a22c1a	825170770	1	main_slash	11	main_slash	111	stimuli_distractor_trianglediamonds.svg	stimuli_target_diamondcircles.svg	27	yes	53	1	340
6.6.1	win	2022-11-07	11:17:16	11:27:57	639817	5d4b14caed2dfc0001a22c1a	825170770	1	main_slash	11	advance_on_keypress_SLASH	112	stimuli_distractor_trianglediamonds.svg	stimuli_target_diamondcircles.svg	27	yes	57	0	470
6.6.1	win	2022-11-07	11:17:16	11:27:58	641385	5d4b14caed2dfc0001a22c1a	825170770	1	main_slash	11	main_slash	113	stimuli_distractor_trianglediamonds.svg	stimuli_target_circlediamonds.svg	10	yes	53	1	459
6.6.1	win	2022-11-07	11:17:16	11:27:58	641385	5d4b14caed2dfc0001a22c1a	825170770	1	main_slash	11	advance_on_keypress_SLASH	114	stimuli_distractor_trianglediamonds.svg	stimuli_target_circlediamonds.svg	10	yes	57	0	440
6.6.1	win	2022-11-07	11:17:16	11:28:00	642985	5d4b14caed2dfc0001a22c1a	825170770	1	main_slash	11	main_slash	115	stimuli_target_trianglesquares.svg	stimuli_distractor_trianglediamonds.svg	18	yes	53	1	525
6.6.1	win	2022-11-07	11:17:16	11:28:00	642985	5d4b14caed2dfc0001a22c1a	825170770	1	main_slash	11	advance_on_keypress_SLASH	116	stimuli_target_trianglesquares.svg	stimuli_distractor_trianglediamonds.svg	18	yes	57	0	552
6.6.1	win	2022-11-07	11:17:16	11:28:01	644569	5d4b14caed2dfc0001a22c1a	825170770	1	main_slash	11	main_slash	117	stimuli_distractor_trianglediamonds.svg	stimuli_target_trianglecircles.svg	25	yes	53	1	393
6.6.1	win	2022-11-07	11:17:16	11:28:01	644569	5d4b14caed2dfc0001a22c1a	825170770	1	main_slash	11	advance_on_keypress_SLASH	118	stimuli_distractor_trianglediamonds.svg	stimuli_target_trianglecircles.svg	25	yes	57	0	456
6.6.1	win	2022-11-07	11:17:16	11:28:03	646041	5d4b14caed2dfc0001a22c1a	825170770	1	main_slash	11	main_slash	119	stimuli_distractor_trianglediamonds.svg	stimuli_target_squaretriangles.svg	11	yes	53	1	382
6.6.1	win	2022-11-07	11:17:16	11:28:03	646041	5d4b14caed2dfc0001a22c1a	825170770	1	main_slash	11	advance_on_keypress_SLASH	120	stimuli_distractor_trianglediamonds.svg	stimuli_target_squaretriangles.svg	11	yes	57	0	494
6.6.1	win	2022-11-07	11:17:16	11:28:04	647609	5d4b14caed2dfc0001a22c1a	825170770	1	main_slash	11	main_slash	121	stimuli_distractor_diamondtriangles.svg	stimuli_target_squaretriangles.svg	15	yes	53	1	432
6.6.1	win	2022-11-07	11:17:16	11:28:04	647609	5d4b14caed2dfc0001a22c1a	825170770	1	main_slash	11	advance_on_keypress_SLASH	122	stimuli_distractor_diamondtriangles.svg	stimuli_target_squaretriangles.svg	15	yes	57	0	415
6.6.1	win	2022-11-07	11:17:16	11:28:06	649305	5d4b14caed2dfc0001a22c1a	825170770	1	main_slash	11	main_slash	123	stimuli_target_trianglesquares.svg	stimuli_distractor_diamondtriangles.svg	22	yes	53	1	629
6.6.1	win	2022-11-07	11:17:16	11:28:06	649305	5d4b14caed2dfc0001a22c1a	825170770	1	main_slash	11	advance_on_keypress_SLASH	124	stimuli_target_trianglesquares.svg	stimuli_distractor_diamondtriangles.svg	22	yes	57	0	443
6.6.1	win	2022-11-07	11:17:16	11:28:07	650761	5d4b14caed2dfc0001a22c1a	825170770	1	main_slash	11	main_slash	125	stimuli_distractor_diamondtriangles.svg	stimuli_target_circlediamonds.svg	14	yes	53	1	384
6.6.1	win	2022-11-07	11:17:16	11:28:07	650761	5d4b14caed2dfc0001a22c1a	825170770	1	main_slash	11	advance_on_keypress_SLASH	126	stimuli_distractor_diamondtriangles.svg	stimuli_target_circlediamonds.svg	14	yes	57	0	1008
6.6.1	win	2022-11-07	11:17:16	11:28:10	652825	5d4b14caed2dfc0001a22c1a	825170770	1	main_slash	11	main_slash	127	stimuli_target_squarediamonds.svg	stimuli_distractor_trianglediamonds.svg	4	yes	53	1	416
6.6.1	win	2022-11-07	11:17:16	11:28:10	652825	5d4b14caed2dfc0001a22c1a	825170770	1	main_slash	11	advance_on_keypress_SLASH	128	stimuli_target_squarediamonds.svg	stimuli_distractor_trianglediamonds.svg	4	yes	57	0	398
6.6.1	win	2022-11-07	11:17:16	11:28:11	654185	5d4b14caed2dfc0001a22c1a	825170770	1	main_slash	11	main_slash	129	stimuli_target_diamondsquares.svg	stimuli_distractor_diamondtriangles.svg	24	yes	53	1	308
6.6.1	win	2022-11-07	11:17:16	11:28:11	654185	5d4b14caed2dfc0001a22c1a	825170770	1	main_slash	11	advance_on_keypress_SLASH	130	stimuli_target_diamondsquares.svg	stimuli_distractor_diamondtriangles.svg	24	yes	57	0	439
6.6.1	win	2022-11-07	11:17:16	11:28:12	655769	5d4b14caed2dfc0001a22c1a	825170770	1	main_slash	11	main_slash	131	stimuli_distractor_trianglediamonds.svg	stimuli_target_circletriangles.svg	9	yes	53	1	509
6.6.1	win	2022-11-07	11:17:16	11:28:12	655769	5d4b14caed2dfc0001a22c1a	825170770	1	main_slash	11	advance_on_keypress_SLASH	132	stimuli_distractor_trianglediamonds.svg	stimuli_target_circletriangles.svg	9	yes	57	0	472
6.6.1	win	2022-11-07	11:17:16	11:28:14	657257	5d4b14caed2dfc0001a22c1a	825170770	1	main_slash	11	main_slash	133	stimuli_distractor_diamondtriangles.svg	stimuli_distractor_trianglediamonds.svg	37	no	53	0	381
6.6.1	win	2022-11-07	11:17:16	11:28:14	657257	5d4b14caed2dfc0001a22c1a	825170770	1	main_slash	11	advance_on_keypress_SLASH	134	stimuli_distractor_diamondtriangles.svg	stimuli_distractor_trianglediamonds.svg	37	no	57	0	637
6.6.1	win	2022-11-07	11:17:16	11:28:16	659001	5d4b14caed2dfc0001a22c1a	825170770	1	main_slash	11	main_slash	135	stimuli_target_diamondcircles.svg	stimuli_distractor_diamondtriangles.svg	23	yes	53	1	474
6.6.1	win	2022-11-07	11:17:16	11:28:16	659001	5d4b14caed2dfc0001a22c1a	825170770	1	main_slash	11	advance_on_keypress_SLASH	136	stimuli_target_diamondcircles.svg	stimuli_distractor_diamondtriangles.svg	23	yes	57	0	423
6.6.1	win	2022-11-07	11:17:16	11:28:17	660425	5d4b14caed2dfc0001a22c1a	825170770	1	main_slash	11	main_slash	137	stimuli_target_squaretriangles.svg	stimuli_distractor_diamondtriangles.svg	7	yes	53	1	366
6.6.1	win	2022-11-07	11:17:16	11:28:17	660425	5d4b14caed2dfc0001a22c1a	825170770	1	main_slash	11	advance_on_keypress_SLASH	138	stimuli_target_squaretriangles.svg	stimuli_distractor_diamondtriangles.svg	7	yes	57	0	445
6.6.1	win	2022-11-07	11:17:16	11:28:19	662025	5d4b14caed2dfc0001a22c1a	825170770	1	main_slash	11	main_slash	139	stimuli_distractor_diamondtriangles.svg	stimuli_target_circletriangles.svg	13	yes	53	1	515
6.6.1	win	2022-11-07	11:17:16	11:28:19	662025	5d4b14caed2dfc0001a22c1a	825170770	1	main_slash	11	advance_on_keypress_SLASH	140	stimuli_distractor_diamondtriangles.svg	stimuli_target_circletriangles.svg	13	yes	57	0	830
6.6.1	win	2022-11-07	11:17:16	11:28:21	663881	5d4b14caed2dfc0001a22c1a	825170770	1	main_slash	11	main_slash	141	stimuli_target_trianglecircles.svg	stimuli_distractor_diamondtriangles.svg	21	yes	53	1	387
6.6.1	win	2022-11-07	11:17:16	11:28:21	663881	5d4b14caed2dfc0001a22c1a	825170770	1	main_slash	11	advance_on_keypress_SLASH	142	stimuli_target_trianglecircles.svg	stimuli_distractor_diamondtriangles.svg	21	yes	57	0	516
6.6.1	win	2022-11-07	11:17:16	11:28:22	665401	5d4b14caed2dfc0001a22c1a	825170770	1	main_slash	11	main_slash	143	stimuli_distractor_diamondtriangles.svg	stimuli_target_trianglecircles.svg	29	yes	53	1	357
6.6.1	win	2022-11-07	11:17:16	11:28:22	665401	5d4b14caed2dfc0001a22c1a	825170770	1	main_slash	11	advance_on_keypress_SLASH	144	stimuli_distractor_diamondtriangles.svg	stimuli_target_trianglecircles.svg	29	yes	57	0	519
6.6.1	win	2022-11-07	11:17:16	11:28:24	667129	5d4b14caed2dfc0001a22c1a	825170770	1	main_slash	11	main_slash	145	stimuli_target_circletriangles.svg	stimuli_distractor_trianglediamonds.svg	1	yes	53	1	568
6.6.1	win	2022-11-07	11:17:16	11:28:24	667129	5d4b14caed2dfc0001a22c1a	825170770	1	main_slash	11	advance_on_keypress_SLASH	146	stimuli_target_circletriangles.svg	stimuli_distractor_trianglediamonds.svg	1	yes	57	0	417
6.6.1	win	2022-11-07	11:17:16	11:28:25	668601	5d4b14caed2dfc0001a22c1a	825170770	1	main_slash	11	main_slash	147	stimuli_target_diamondcircles.svg	stimuli_distractor_trianglediamonds.svg	19	yes	53	1	408
6.6.1	win	2022-11-07	11:17:16	11:28:25	668601	5d4b14caed2dfc0001a22c1a	825170770	1	main_slash	11	advance_on_keypress_SLASH	148	stimuli_target_diamondcircles.svg	stimuli_distractor_trianglediamonds.svg	19	yes	57	0	518
6.6.1	win	2022-11-07	11:17:16	11:28:28	671760	5d4b14caed2dfc0001a22c1a	825170770	1	main_slash	11	main_slash	149	stimuli_distractor_trianglediamonds.svg	stimuli_distractor_diamondtriangles.svg	35	no	0	1	2000
6.6.1	win	2022-11-07	11:17:16	11:28:28	671760	5d4b14caed2dfc0001a22c1a	825170770	1	main_slash	11	advance_on_keypress_SLASH	150	stimuli_distractor_trianglediamonds.svg	stimuli_distractor_diamondtriangles.svg	35	no	57	0	424
6.6.1	win	2022-11-07	11:17:16	11:28:32	674827	5d4b14caed2dfc0001a22c1a	825170770	1	main_slash	11	main_slash	151	stimuli_distractor_trianglediamonds.svg	stimuli_distractor_trianglediamonds.svg	34	no	0	1	2000
6.6.1	win	2022-11-07	11:17:16	11:28:32	674827	5d4b14caed2dfc0001a22c1a	825170770	1	main_slash	11	advance_on_keypress_SLASH	152	stimuli_distractor_trianglediamonds.svg	stimuli_distractor_trianglediamonds.svg	34	no	57	0	509
6.6.1	win	2022-11-07	11:17:16	11:28:33	676473	5d4b14caed2dfc0001a22c1a	825170770	1	main_slash	11	main_slash	153	stimuli_distractor_trianglediamonds.svg	stimuli_target_squarediamonds.svg	12	yes	53	1	496
6.6.1	win	2022-11-07	11:17:16	11:28:33	676473	5d4b14caed2dfc0001a22c1a	825170770	1	main_slash	11	advance_on_keypress_SLASH	154	stimuli_distractor_trianglediamonds.svg	stimuli_target_squarediamonds.svg	12	yes	57	0	700
6.6.1	win	2022-11-07	11:17:16	11:28:35	678265	5d4b14caed2dfc0001a22c1a	825170770	1	main_slash	11	main_slash	155	stimuli_distractor_trianglediamonds.svg	stimuli_target_trianglesquares.svg	26	yes	53	1	454
6.6.1	win	2022-11-07	11:17:16	11:28:35	678265	5d4b14caed2dfc0001a22c1a	825170770	1	main_slash	11	advance_on_keypress_SLASH	156	stimuli_distractor_trianglediamonds.svg	stimuli_target_trianglesquares.svg	26	yes	57	0	692
6.6.1	win	2022-11-07	11:17:16	11:28:37	679978	5d4b14caed2dfc0001a22c1a	825170770	1	main_slash	11	main_slash	157	stimuli_target_circletriangles.svg	stimuli_distractor_diamondtriangles.svg	5	yes	53	1	383
6.6.1	win	2022-11-07	11:17:16	11:28:37	679978	5d4b14caed2dfc0001a22c1a	825170770	1	main_slash	11	advance_on_keypress_SLASH	158	stimuli_target_circletriangles.svg	stimuli_distractor_diamondtriangles.svg	5	yes	57	0	560
6.6.1	win	2022-11-07	11:17:16	11:28:40	683177	5d4b14caed2dfc0001a22c1a	825170770	1	main_slash	11	main_slash	159	stimuli_distractor_diamondtriangles.svg	stimuli_distractor_diamondtriangles.svg	40	no	0	1	2000
6.6.1	win	2022-11-07	11:17:16	11:28:40	683177	5d4b14caed2dfc0001a22c1a	825170770	1	main_slash	11	advance_on_keypress_SLASH	160	stimuli_distractor_diamondtriangles.svg	stimuli_distractor_diamondtriangles.svg	40	no	57	0	591