build	computer.platform	date	time	timestamp	time_elapsed_ms	subject	group	session	blockcode	blocknum	trialcode	trialnum	stimulus_left	stimulus_right	stim_index	target_present	response	correct	latency
6.6.1	win	2022-11-07	13:31:05	13:34:52	225423	5af491b6222e4d0001877572	538415421	1	practice_slash	5	practice_slash	1	stimuli_distractor_diamondtriangles.svg	stimuli_distractor_diamondtriangles.svg	13	no	0	1	2000
6.6.1	win	2022-11-07	13:31:05	13:34:52	225423	5af491b6222e4d0001877572	538415421	1	practice_slash	5	advance_on_keypress_SLASH	2	stimuli_distractor_diamondtriangles.svg	stimuli_distractor_diamondtriangles.svg	13	no	57	0	2936
6.6.1	win	2022-11-07	13:31:05	13:34:58	230971	5af491b6222e4d0001877572	538415421	1	practice_slash	5	practice_slash	3	stimuli_target_circlediamonds.svg	stimuli_distractor_trianglediamonds.svg	4	yes	53	1	937
6.6.1	win	2022-11-07	13:31:05	13:34:58	230971	5af491b6222e4d0001877572	538415421	1	practice_slash	5	advance_on_keypress_SLASH	4	stimuli_target_circlediamonds.svg	stimuli_distractor_trianglediamonds.svg	4	yes	57	0	1105
6.6.1	win	2022-11-07	13:31:05	13:35:01	234146	5af491b6222e4d0001877572	538415421	1	practice_slash	5	practice_slash	5	stimuli_distractor_trianglediamonds.svg	stimuli_target_circlediamonds.svg	10	yes	53	1	432
6.6.1	win	2022-11-07	13:31:05	13:35:01	234146	5af491b6222e4d0001877572	538415421	1	practice_slash	5	advance_on_keypress_SLASH	6	stimuli_distractor_trianglediamonds.svg	stimuli_target_circlediamonds.svg	10	yes	57	0	2554
6.6.1	win	2022-11-07	13:31:05	13:35:06	239118	5af491b6222e4d0001877572	538415421	1	practice_slash	5	practice_slash	7	stimuli_target_diamondsquares.svg	stimuli_distractor_trianglediamonds.svg	6	yes	53	1	774
6.6.1	win	2022-11-07	13:31:05	13:35:06	239118	5af491b6222e4d0001877572	538415421	1	practice_slash	5	advance_on_keypress_SLASH	8	stimuli_target_diamondsquares.svg	stimuli_distractor_trianglediamonds.svg	6	yes	57	0	2715
6.6.1	win	2022-11-07	13:31:05	13:35:12	245472	5af491b6222e4d0001877572	538415421	1	practice_slash	5	practice_slash	9	stimuli_target_squarediamonds.svg	stimuli_distractor_diamondtriangles.svg	2	yes	0	0	2000
6.6.1	win	2022-11-07	13:31:05	13:35:12	245472	5af491b6222e4d0001877572	538415421	1	practice_slash	5	advance_on_keypress_SLASH	10	stimuli_target_squarediamonds.svg	stimuli_distractor_diamondtriangles.svg	2	yes	57	0	811
6.6.1	win	2022-11-07	13:31:05	13:35:17	249935	5af491b6222e4d0001877572	538415421	1	practice_slash	5	practice_slash	11	stimuli_distractor_diamondtriangles.svg	stimuli_distractor_trianglediamonds.svg	14	no	0	1	2000
6.6.1	win	2022-11-07	13:31:05	13:35:17	249935	5af491b6222e4d0001877572	538415421	1	practice_slash	5	advance_on_keypress_SLASH	12	stimuli_distractor_diamondtriangles.svg	stimuli_distractor_trianglediamonds.svg	14	no	57	0	2047
6.6.1	win	2022-11-07	13:31:05	13:35:23	255630	5af491b6222e4d0001877572	538415421	1	practice_slash	5	practice_slash	13	stimuli_distractor_trianglediamonds.svg	stimuli_distractor_trianglediamonds.svg	15	no	0	1	2000
6.6.1	win	2022-11-07	13:31:05	13:35:23	255630	5af491b6222e4d0001877572	538415421	1	practice_slash	5	advance_on_keypress_SLASH	14	stimuli_distractor_trianglediamonds.svg	stimuli_distractor_trianglediamonds.svg	15	no	57	0	596
6.6.1	win	2022-11-07	13:31:05	13:35:26	258747	5af491b6222e4d0001877572	538415421	1	practice_slash	5	practice_slash	15	stimuli_distractor_diamondtriangles.svg	stimuli_target_diamondcircles.svg	8	yes	53	1	870
6.6.1	win	2022-11-07	13:31:05	13:35:26	258747	5af491b6222e4d0001877572	538415421	1	practice_slash	5	advance_on_keypress_SLASH	16	stimuli_distractor_diamondtriangles.svg	stimuli_target_diamondcircles.svg	8	yes	57	0	1224
6.6.1	win	2022-11-07	13:31:05	13:35:29	262275	5af491b6222e4d0001877572	538415421	1	practice_slash	5	practice_slash	17	stimuli_target_circlediamonds.svg	stimuli_distractor_diamondtriangles.svg	1	yes	53	1	669
6.6.1	win	2022-11-07	13:31:05	13:35:29	262275	5af491b6222e4d0001877572	538415421	1	practice_slash	5	advance_on_keypress_SLASH	18	stimuli_target_circlediamonds.svg	stimuli_distractor_diamondtriangles.svg	1	yes	57	0	817
6.6.1	win	2022-11-07	13:31:05	13:35:32	265594	5af491b6222e4d0001877572	538415421	1	practice_slash	5	practice_slash	19	stimuli_distractor_trianglediamonds.svg	stimuli_target_squarediamonds.svg	11	yes	53	1	857
6.6.1	win	2022-11-07	13:31:05	13:35:32	265594	5af491b6222e4d0001877572	538415421	1	practice_slash	5	advance_on_keypress_SLASH	20	stimuli_distractor_trianglediamonds.svg	stimuli_target_squarediamonds.svg	11	yes	57	0	695
6.6.1	win	2022-11-07	13:31:05	13:35:35	268455	5af491b6222e4d0001877572	538415421	1	practice_slash	5	practice_slash	21	stimuli_target_squarediamonds.svg	stimuli_distractor_trianglediamonds.svg	5	yes	53	1	539
6.6.1	win	2022-11-07	13:31:05	13:35:35	268455	5af491b6222e4d0001877572	538415421	1	practice_slash	5	advance_on_keypress_SLASH	22	stimuli_target_squarediamonds.svg	stimuli_distractor_trianglediamonds.svg	5	yes	57	0	967
6.6.1	win	2022-11-07	13:31:05	13:35:38	271551	5af491b6222e4d0001877572	538415421	1	practice_slash	5	practice_slash	23	stimuli_target_diamondsquares.svg	stimuli_distractor_diamondtriangles.svg	3	yes	53	1	486
6.6.1	win	2022-11-07	13:31:05	13:35:38	271551	5af491b6222e4d0001877572	538415421	1	practice_slash	5	advance_on_keypress_SLASH	24	stimuli_target_diamondsquares.svg	stimuli_distractor_diamondtriangles.svg	3	yes	57	0	1036
6.6.1	win	2022-11-07	13:31:05	13:35:42	274753	5af491b6222e4d0001877572	538415421	1	practice_slash	5	practice_slash	25	stimuli_distractor_trianglediamonds.svg	stimuli_target_diamondcircles.svg	12	yes	53	1	524
6.6.1	win	2022-11-07	13:31:05	13:35:42	274753	5af491b6222e4d0001877572	538415421	1	practice_slash	5	advance_on_keypress_SLASH	26	stimuli_distractor_trianglediamonds.svg	stimuli_target_diamondcircles.svg	12	yes	57	0	683
6.6.1	win	2022-11-07	13:31:05	13:35:44	277379	5af491b6222e4d0001877572	538415421	1	practice_slash	5	practice_slash	27	stimuli_distractor_diamondtriangles.svg	stimuli_target_circletriangles.svg	7	yes	53	1	303
6.6.1	win	2022-11-07	13:31:05	13:35:44	277379	5af491b6222e4d0001877572	538415421	1	practice_slash	5	advance_on_keypress_SLASH	28	stimuli_distractor_diamondtriangles.svg	stimuli_target_circletriangles.svg	7	yes	57	0	528
6.6.1	win	2022-11-07	13:31:05	13:35:47	280202	5af491b6222e4d0001877572	538415421	1	practice_slash	5	practice_slash	29	stimuli_distractor_trianglediamonds.svg	stimuli_distractor_diamondtriangles.svg	16	no	53	0	645
6.6.1	win	2022-11-07	13:31:05	13:35:47	280202	5af491b6222e4d0001877572	538415421	1	practice_slash	5	advance_on_keypress_SLASH	30	stimuli_distractor_trianglediamonds.svg	stimuli_distractor_diamondtriangles.svg	16	no	57	0	681
6.6.1	win	2022-11-07	13:31:05	13:35:50	282980	5af491b6222e4d0001877572	538415421	1	practice_slash	5	practice_slash	31	stimuli_distractor_diamondtriangles.svg	stimuli_target_trianglecircles.svg	9	yes	53	1	442
6.6.1	win	2022-11-07	13:31:05	13:35:50	282980	5af491b6222e4d0001877572	538415421	1	practice_slash	5	advance_on_keypress_SLASH	32	stimuli_distractor_diamondtriangles.svg	stimuli_target_trianglecircles.svg	9	yes	57	0	601
6.6.1	win	2022-11-07	13:31:05	13:36:08	301518	5af491b6222e4d0001877572	538415421	1	main_slash	7	main_slash	1	stimuli_distractor_trianglediamonds.svg	stimuli_target_trianglesquares.svg	26	yes	53	1	433
6.6.1	win	2022-11-07	13:31:05	13:36:08	301518	5af491b6222e4d0001877572	538415421	1	main_slash	7	advance_on_keypress_SLASH	2	stimuli_distractor_trianglediamonds.svg	stimuli_target_trianglesquares.svg	26	yes	57	0	1338
6.6.1	win	2022-11-07	13:31:05	13:36:11	304111	5af491b6222e4d0001877572	538415421	1	main_slash	7	main_slash	3	stimuli_distractor_diamondtriangles.svg	stimuli_target_trianglecircles.svg	29	yes	53	1	611
6.6.1	win	2022-11-07	13:31:05	13:36:11	304111	5af491b6222e4d0001877572	538415421	1	main_slash	7	advance_on_keypress_SLASH	4	stimuli_distractor_diamondtriangles.svg	stimuli_target_trianglecircles.svg	29	yes	57	0	742
6.6.1	win	2022-11-07	13:31:05	13:36:13	305966	5af491b6222e4d0001877572	538415421	1	main_slash	7	main_slash	5	stimuli_target_squarediamonds.svg	stimuli_distractor_trianglediamonds.svg	4	yes	53	1	483
6.6.1	win	2022-11-07	13:31:05	13:36:13	305966	5af491b6222e4d0001877572	538415421	1	main_slash	7	advance_on_keypress_SLASH	6	stimuli_target_squarediamonds.svg	stimuli_distractor_trianglediamonds.svg	4	yes	57	0	618
6.6.1	win	2022-11-07	13:31:05	13:36:15	307953	5af491b6222e4d0001877572	538415421	1	main_slash	7	main_slash	7	stimuli_target_diamondsquares.svg	stimuli_distractor_diamondtriangles.svg	24	yes	53	1	723
6.6.1	win	2022-11-07	13:31:05	13:36:15	307953	5af491b6222e4d0001877572	538415421	1	main_slash	7	advance_on_keypress_SLASH	8	stimuli_target_diamondsquares.svg	stimuli_distractor_diamondtriangles.svg	24	yes	57	0	737
6.6.1	win	2022-11-07	13:31:05	13:36:18	311328	5af491b6222e4d0001877572	538415421	1	main_slash	7	main_slash	9	stimuli_distractor_trianglediamonds.svg	stimuli_distractor_trianglediamonds.svg	33	no	0	1	2000
6.6.1	win	2022-11-07	13:31:05	13:36:18	311328	5af491b6222e4d0001877572	538415421	1	main_slash	7	advance_on_keypress_SLASH	10	stimuli_distractor_trianglediamonds.svg	stimuli_distractor_trianglediamonds.svg	33	no	57	0	474
6.6.1	win	2022-11-07	13:31:05	13:36:21	314442	5af491b6222e4d0001877572	538415421	1	main_slash	7	main_slash	11	stimuli_distractor_trianglediamonds.svg	stimuli_distractor_diamondtriangles.svg	35	no	0	1	2000
6.6.1	win	2022-11-07	13:31:05	13:36:21	314442	5af491b6222e4d0001877572	538415421	1	main_slash	7	advance_on_keypress_SLASH	12	stimuli_distractor_trianglediamonds.svg	stimuli_distractor_diamondtriangles.svg	35	no	57	0	611
6.6.1	win	2022-11-07	13:31:05	13:36:25	317689	5af491b6222e4d0001877572	538415421	1	main_slash	7	main_slash	13	stimuli_distractor_trianglediamonds.svg	stimuli_distractor_diamondtriangles.svg	36	no	0	1	2000
6.6.1	win	2022-11-07	13:31:05	13:36:25	317689	5af491b6222e4d0001877572	538415421	1	main_slash	7	advance_on_keypress_SLASH	14	stimuli_distractor_trianglediamonds.svg	stimuli_distractor_diamondtriangles.svg	36	no	57	0	559
6.6.1	win	2022-11-07	13:31:05	13:36:28	320886	5af491b6222e4d0001877572	538415421	1	main_slash	7	main_slash	15	stimuli_distractor_diamondtriangles.svg	stimuli_distractor_diamondtriangles.svg	39	no	0	1	2000
6.6.1	win	2022-11-07	13:31:05	13:36:28	320886	5af491b6222e4d0001877572	538415421	1	main_slash	7	advance_on_keypress_SLASH	16	stimuli_distractor_diamondtriangles.svg	stimuli_distractor_diamondtriangles.svg	39	no	57	0	481
6.6.1	win	2022-11-07	13:31:05	13:36:29	322543	5af491b6222e4d0001877572	538415421	1	main_slash	7	main_slash	17	stimuli_target_circlediamonds.svg	stimuli_distractor_diamondtriangles.svg	6	yes	53	1	526
6.6.1	win	2022-11-07	13:31:05	13:36:29	322543	5af491b6222e4d0001877572	538415421	1	main_slash	7	advance_on_keypress_SLASH	18	stimuli_target_circlediamonds.svg	stimuli_distractor_diamondtriangles.svg	6	yes	57	0	921
6.6.1	win	2022-11-07	13:31:05	13:36:33	326099	5af491b6222e4d0001877572	538415421	1	main_slash	7	main_slash	19	stimuli_distractor_diamondtriangles.svg	stimuli_target_trianglesquares.svg	30	yes	0	0	2000
6.6.1	win	2022-11-07	13:31:05	13:36:33	326099	5af491b6222e4d0001877572	538415421	1	main_slash	7	advance_on_keypress_SLASH	20	stimuli_distractor_diamondtriangles.svg	stimuli_target_trianglesquares.svg	30	yes	57	0	595
6.6.1	win	2022-11-07	13:31:05	13:36:35	327962	5af491b6222e4d0001877572	538415421	1	main_slash	7	main_slash	21	stimuli_distractor_diamondtriangles.svg	stimuli_target_diamondsquares.svg	32	yes	53	1	634
6.6.1	win	2022-11-07	13:31:05	13:36:35	327962	5af491b6222e4d0001877572	538415421	1	main_slash	7	advance_on_keypress_SLASH	22	stimuli_distractor_diamondtriangles.svg	stimuli_target_diamondsquares.svg	32	yes	57	0	1149
6.6.1	win	2022-11-07	13:31:05	13:36:37	330306	5af491b6222e4d0001877572	538415421	1	main_slash	7	main_slash	23	stimuli_target_circlediamonds.svg	stimuli_distractor_trianglediamonds.svg	2	yes	53	1	546
6.6.1	win	2022-11-07	13:31:05	13:36:37	330306	5af491b6222e4d0001877572	538415421	1	main_slash	7	advance_on_keypress_SLASH	24	stimuli_target_circlediamonds.svg	stimuli_distractor_trianglediamonds.svg	2	yes	57	0	739
6.6.1	win	2022-11-07	13:31:05	13:36:39	332421	5af491b6222e4d0001877572	538415421	1	main_slash	7	main_slash	25	stimuli_target_trianglesquares.svg	stimuli_distractor_diamondtriangles.svg	22	yes	53	1	729
6.6.1	win	2022-11-07	13:31:05	13:36:39	332421	5af491b6222e4d0001877572	538415421	1	main_slash	7	advance_on_keypress_SLASH	26	stimuli_target_trianglesquares.svg	stimuli_distractor_diamondtriangles.svg	22	yes	57	0	750
6.6.1	win	2022-11-07	13:31:05	13:36:41	334472	5af491b6222e4d0001877572	538415421	1	main_slash	7	main_slash	27	stimuli_target_trianglecircles.svg	stimuli_distractor_diamondtriangles.svg	21	yes	53	1	648
6.6.1	win	2022-11-07	13:31:05	13:36:41	334472	5af491b6222e4d0001877572	538415421	1	main_slash	7	advance_on_keypress_SLASH	28	stimuli_target_trianglecircles.svg	stimuli_distractor_diamondtriangles.svg	21	yes	57	0	720
6.6.1	win	2022-11-07	13:31:05	13:36:43	336453	5af491b6222e4d0001877572	538415421	1	main_slash	7	main_slash	29	stimuli_distractor_diamondtriangles.svg	stimuli_target_circlediamonds.svg	14	yes	53	1	615
6.6.1	win	2022-11-07	13:31:05	13:36:43	336453	5af491b6222e4d0001877572	538415421	1	main_slash	7	advance_on_keypress_SLASH	30	stimuli_distractor_diamondtriangles.svg	stimuli_target_circlediamonds.svg	14	yes	57	0	737
6.6.1	win	2022-11-07	13:31:05	13:36:46	338903	5af491b6222e4d0001877572	538415421	1	main_slash	7	main_slash	31	stimuli_distractor_diamondtriangles.svg	stimuli_target_squaretriangles.svg	15	yes	53	1	1066
6.6.1	win	2022-11-07	13:31:05	13:36:46	338903	5af491b6222e4d0001877572	538415421	1	main_slash	7	advance_on_keypress_SLASH	32	stimuli_distractor_diamondtriangles.svg	stimuli_target_squaretriangles.svg	15	yes	57	0	1060
6.6.1	win	2022-11-07	13:31:05	13:36:48	341166	5af491b6222e4d0001877572	538415421	1	main_slash	7	main_slash	33	stimuli_target_squarediamonds.svg	stimuli_distractor_diamondtriangles.svg	8	yes	53	1	565
6.6.1	win	2022-11-07	13:31:05	13:36:48	341166	5af491b6222e4d0001877572	538415421	1	main_slash	7	advance_on_keypress_SLASH	34	stimuli_target_squarediamonds.svg	stimuli_distractor_diamondtriangles.svg	8	yes	57	0	3652
6.6.1	win	2022-11-07	13:31:05	13:36:53	345978	5af491b6222e4d0001877572	538415421	1	main_slash	7	main_slash	35	stimuli_distractor_diamondtriangles.svg	stimuli_target_diamondcircles.svg	31	yes	53	1	500
6.6.1	win	2022-11-07	13:31:05	13:36:53	345978	5af491b6222e4d0001877572	538415421	1	main_slash	7	advance_on_keypress_SLASH	36	stimuli_distractor_diamondtriangles.svg	stimuli_target_diamondcircles.svg	31	yes	57	0	587
6.6.1	win	2022-11-07	13:31:05	13:36:55	347659	5af491b6222e4d0001877572	538415421	1	main_slash	7	main_slash	37	stimuli_distractor_trianglediamonds.svg	stimuli_target_trianglecircles.svg	25	yes	53	1	447
6.6.1	win	2022-11-07	13:31:05	13:36:55	347659	5af491b6222e4d0001877572	538415421	1	main_slash	7	advance_on_keypress_SLASH	38	stimuli_distractor_trianglediamonds.svg	stimuli_target_trianglecircles.svg	25	yes	57	0	629
6.6.1	win	2022-11-07	13:31:05	13:36:56	349274	5af491b6222e4d0001877572	538415421	1	main_slash	7	main_slash	39	stimuli_distractor_trianglediamonds.svg	stimuli_target_diamondcircles.svg	27	yes	53	1	330
6.6.1	win	2022-11-07	13:31:05	13:36:56	349274	5af491b6222e4d0001877572	538415421	1	main_slash	7	advance_on_keypress_SLASH	40	stimuli_distractor_trianglediamonds.svg	stimuli_target_diamondcircles.svg	27	yes	57	0	602
6.6.1	win	2022-11-07	13:31:05	13:36:58	350791	5af491b6222e4d0001877572	538415421	1	main_slash	7	main_slash	41	stimuli_distractor_trianglediamonds.svg	stimuli_target_diamondsquares.svg	28	yes	53	1	265
6.6.1	win	2022-11-07	13:31:05	13:36:58	350791	5af491b6222e4d0001877572	538415421	1	main_slash	7	advance_on_keypress_SLASH	42	stimuli_distractor_trianglediamonds.svg	stimuli_target_diamondsquares.svg	28	yes	57	0	583
6.6.1	win	2022-11-07	13:31:05	13:36:59	352474	5af491b6222e4d0001877572	538415421	1	main_slash	7	main_slash	43	stimuli_distractor_diamondtriangles.svg	stimuli_distractor_trianglediamonds.svg	38	no	53	0	450
6.6.1	win	2022-11-07	13:31:05	13:36:59	352474	5af491b6222e4d0001877572	538415421	1	main_slash	7	advance_on_keypress_SLASH	44	stimuli_distractor_diamondtriangles.svg	stimuli_distractor_trianglediamonds.svg	38	no	57	0	931
6.6.1	win	2022-11-07	13:31:05	13:37:02	354701	5af491b6222e4d0001877572	538415421	1	main_slash	7	main_slash	45	stimuli_target_diamondcircles.svg	stimuli_distractor_trianglediamonds.svg	19	yes	53	1	645
6.6.1	win	2022-11-07	13:31:05	13:37:02	354701	5af491b6222e4d0001877572	538415421	1	main_slash	7	advance_on_keypress_SLASH	46	stimuli_target_diamondcircles.svg	stimuli_distractor_trianglediamonds.svg	19	yes	57	0	583
6.6.1	win	2022-11-07	13:31:05	13:37:05	357938	5af491b6222e4d0001877572	538415421	1	main_slash	7	main_slash	47	stimuli_distractor_diamondtriangles.svg	stimuli_target_circletriangles.svg	13	yes	0	0	2000
6.6.1	win	2022-11-07	13:31:05	13:37:05	357938	5af491b6222e4d0001877572	538415421	1	main_slash	7	advance_on_keypress_SLASH	48	stimuli_distractor_diamondtriangles.svg	stimuli_target_circletriangles.svg	13	yes	57	0	739
6.6.1	win	2022-11-07	13:31:05	13:37:07	359833	5af491b6222e4d0001877572	538415421	1	main_slash	7	main_slash	49	stimuli_distractor_trianglediamonds.svg	stimuli_target_circlediamonds.svg	10	yes	53	1	507
6.6.1	win	2022-11-07	13:31:05	13:37:07	359833	5af491b6222e4d0001877572	538415421	1	main_slash	7	advance_on_keypress_SLASH	50	stimuli_distractor_trianglediamonds.svg	stimuli_target_circlediamonds.svg	10	yes	57	0	554
6.6.1	win	2022-11-07	13:31:05	13:37:09	361894	5af491b6222e4d0001877572	538415421	1	main_slash	7	main_slash	51	stimuli_distractor_trianglediamonds.svg	stimuli_target_circletriangles.svg	9	yes	53	1	861
6.6.1	win	2022-11-07	13:31:05	13:37:09	361894	5af491b6222e4d0001877572	538415421	1	main_slash	7	advance_on_keypress_SLASH	52	stimuli_distractor_trianglediamonds.svg	stimuli_target_circletriangles.svg	9	yes	57	0	746
6.6.1	win	2022-11-07	13:31:05	13:37:12	365281	5af491b6222e4d0001877572	538415421	1	main_slash	7	main_slash	53	stimuli_distractor_diamondtriangles.svg	stimuli_distractor_diamondtriangles.svg	40	no	0	1	2000
6.6.1	win	2022-11-07	13:31:05	13:37:12	365281	5af491b6222e4d0001877572	538415421	1	main_slash	7	advance_on_keypress_SLASH	54	stimuli_distractor_diamondtriangles.svg	stimuli_distractor_diamondtriangles.svg	40	no	57	0	511
6.6.1	win	2022-11-07	13:31:05	13:37:14	366944	5af491b6222e4d0001877572	538415421	1	main_slash	7	main_slash	55	stimuli_distractor_diamondtriangles.svg	stimuli_target_squarediamonds.svg	16	yes	53	1	512
6.6.1	win	2022-11-07	13:31:05	13:37:14	366944	5af491b6222e4d0001877572	538415421	1	main_slash	7	advance_on_keypress_SLASH	56	stimuli_distractor_diamondtriangles.svg	stimuli_target_squarediamonds.svg	16	yes	57	0	596
6.6.1	win	2022-11-07	13:31:05	13:37:16	369037	5af491b6222e4d0001877572	538415421	1	main_slash	7	main_slash	57	stimuli_distractor_trianglediamonds.svg	stimuli_target_squarediamonds.svg	12	yes	53	1	843
6.6.1	win	2022-11-07	13:31:05	13:37:16	369037	5af491b6222e4d0001877572	538415421	1	main_slash	7	advance_on_keypress_SLASH	58	stimuli_distractor_trianglediamonds.svg	stimuli_target_squarediamonds.svg	12	yes	57	0	671
6.6.1	win	2022-11-07	13:31:05	13:37:19	372342	5af491b6222e4d0001877572	538415421	1	main_slash	7	main_slash	59	stimuli_distractor_trianglediamonds.svg	stimuli_distractor_trianglediamonds.svg	34	no	0	1	2000
6.6.1	win	2022-11-07	13:31:05	13:37:19	372342	5af491b6222e4d0001877572	538415421	1	main_slash	7	advance_on_keypress_SLASH	60	stimuli_distractor_trianglediamonds.svg	stimuli_distractor_trianglediamonds.svg	34	no	57	0	877
6.6.1	win	2022-11-07	13:31:05	13:37:21	374556	5af491b6222e4d0001877572	538415421	1	main_slash	7	main_slash	61	stimuli_target_squaretriangles.svg	stimuli_distractor_diamondtriangles.svg	7	yes	53	1	701
6.6.1	win	2022-11-07	13:31:05	13:37:21	374556	5af491b6222e4d0001877572	538415421	1	main_slash	7	advance_on_keypress_SLASH	62	stimuli_target_squaretriangles.svg	stimuli_distractor_diamondtriangles.svg	7	yes	57	0	490
6.6.1	win	2022-11-07	13:31:05	13:37:23	376591	5af491b6222e4d0001877572	538415421	1	main_slash	7	main_slash	63	stimuli_target_circletriangles.svg	stimuli_distractor_trianglediamonds.svg	1	yes	53	1	902
6.6.1	win	2022-11-07	13:31:05	13:37:23	376591	5af491b6222e4d0001877572	538415421	1	main_slash	7	advance_on_keypress_SLASH	64	stimuli_target_circletriangles.svg	stimuli_distractor_trianglediamonds.svg	1	yes	57	0	492
6.6.1	win	2022-11-07	13:31:05	13:37:26	379457	5af491b6222e4d0001877572	538415421	1	main_slash	7	main_slash	65	stimuli_target_trianglecircles.svg	stimuli_distractor_trianglediamonds.svg	17	yes	53	1	1738
6.6.1	win	2022-11-07	13:31:05	13:37:26	379457	5af491b6222e4d0001877572	538415421	1	main_slash	7	advance_on_keypress_SLASH	66	stimuli_target_trianglecircles.svg	stimuli_distractor_trianglediamonds.svg	17	yes	57	0	580
6.6.1	win	2022-11-07	13:31:05	13:37:29	381873	5af491b6222e4d0001877572	538415421	1	main_slash	7	main_slash	67	stimuli_distractor_diamondtriangles.svg	stimuli_distractor_trianglediamonds.svg	37	no	53	0	1190
6.6.1	win	2022-11-07	13:31:05	13:37:29	381873	5af491b6222e4d0001877572	538415421	1	main_slash	7	advance_on_keypress_SLASH	68	stimuli_distractor_diamondtriangles.svg	stimuli_distractor_trianglediamonds.svg	37	no	57	0	9483
6.6.1	win	2022-11-07	13:31:05	13:37:39	392372	5af491b6222e4d0001877572	538415421	1	main_slash	7	main_slash	69	stimuli_distractor_trianglediamonds.svg	stimuli_target_squaretriangles.svg	11	yes	53	1	383
6.6.1	win	2022-11-07	13:31:05	13:37:39	392372	5af491b6222e4d0001877572	538415421	1	main_slash	7	advance_on_keypress_SLASH	70	stimuli_distractor_trianglediamonds.svg	stimuli_target_squaretriangles.svg	11	yes	57	0	535
6.6.1	win	2022-11-07	13:31:05	13:37:41	394105	5af491b6222e4d0001877572	538415421	1	main_slash	7	main_slash	71	stimuli_target_trianglesquares.svg	stimuli_distractor_trianglediamonds.svg	18	yes	53	1	550
6.6.1	win	2022-11-07	13:31:05	13:37:41	394105	5af491b6222e4d0001877572	538415421	1	main_slash	7	advance_on_keypress_SLASH	72	stimuli_target_trianglesquares.svg	stimuli_distractor_trianglediamonds.svg	18	yes	57	0	605
6.6.1	win	2022-11-07	13:31:05	13:37:43	396007	5af491b6222e4d0001877572	538415421	1	main_slash	7	main_slash	73	stimuli_target_squaretriangles.svg	stimuli_distractor_trianglediamonds.svg	3	yes	53	1	654
6.6.1	win	2022-11-07	13:31:05	13:37:43	396007	5af491b6222e4d0001877572	538415421	1	main_slash	7	advance_on_keypress_SLASH	74	stimuli_target_squaretriangles.svg	stimuli_distractor_trianglediamonds.svg	3	yes	57	0	1137
6.6.1	win	2022-11-07	13:31:05	13:37:45	398027	5af491b6222e4d0001877572	538415421	1	main_slash	7	main_slash	75	stimuli_target_diamondcircles.svg	stimuli_distractor_diamondtriangles.svg	23	yes	53	1	243
6.6.1	win	2022-11-07	13:31:05	13:37:45	398027	5af491b6222e4d0001877572	538415421	1	main_slash	7	advance_on_keypress_SLASH	76	stimuli_target_diamondcircles.svg	stimuli_distractor_diamondtriangles.svg	23	yes	57	0	10564
6.6.1	win	2022-11-07	13:31:05	13:37:57	409806	5af491b6222e4d0001877572	538415421	1	main_slash	7	main_slash	77	stimuli_target_diamondsquares.svg	stimuli_distractor_trianglediamonds.svg	20	yes	53	1	506
6.6.1	win	2022-11-07	13:31:05	13:37:57	409806	5af491b6222e4d0001877572	538415421	1	main_slash	7	advance_on_keypress_SLASH	78	stimuli_target_diamondsquares.svg	stimuli_distractor_trianglediamonds.svg	20	yes	57	0	545
6.6.1	win	2022-11-07	13:31:05	13:37:58	411236	5af491b6222e4d0001877572	538415421	1	main_slash	7	main_slash	79	stimuli_target_circletriangles.svg	stimuli_distractor_diamondtriangles.svg	5	yes	53	1	247
6.6.1	win	2022-11-07	13:31:05	13:37:58	411236	5af491b6222e4d0001877572	538415421	1	main_slash	7	advance_on_keypress_SLASH	80	stimuli_target_circletriangles.svg	stimuli_distractor_diamondtriangles.svg	5	yes	57	0	552
6.6.1	win	2022-11-07	13:31:05	13:38:00	413190	5af491b6222e4d0001877572	538415421	1	main_slash	7	main_slash	81	stimuli_distractor_diamondtriangles.svg	stimuli_target_squarediamonds.svg	16	yes	53	1	752
6.6.1	win	2022-11-07	13:31:05	13:38:00	413190	5af491b6222e4d0001877572	538415421	1	main_slash	7	advance_on_keypress_SLASH	82	stimuli_distractor_diamondtriangles.svg	stimuli_target_squarediamonds.svg	16	yes	57	0	1151
6.6.1	win	2022-11-07	13:31:05	13:38:03	416145	5af491b6222e4d0001877572	538415421	1	main_slash	7	main_slash	83	stimuli_target_diamondcircles.svg	stimuli_distractor_diamondtriangles.svg	23	yes	53	1	1159
6.6.1	win	2022-11-07	13:31:05	13:38:03	416145	5af491b6222e4d0001877572	538415421	1	main_slash	7	advance_on_keypress_SLASH	84	stimuli_target_diamondcircles.svg	stimuli_distractor_diamondtriangles.svg	23	yes	57	0	467
6.6.1	win	2022-11-07	13:31:05	13:38:06	419251	5af491b6222e4d0001877572	538415421	1	main_slash	7	main_slash	85	stimuli_distractor_diamondtriangles.svg	stimuli_distractor_trianglediamonds.svg	38	no	0	1	2000
6.6.1	win	2022-11-07	13:31:05	13:38:06	419251	5af491b6222e4d0001877572	538415421	1	main_slash	7	advance_on_keypress_SLASH	86	stimuli_distractor_diamondtriangles.svg	stimuli_distractor_trianglediamonds.svg	38	no	57	0	570
6.6.1	win	2022-11-07	13:31:05	13:38:09	421618	5af491b6222e4d0001877572	538415421	1	main_slash	7	main_slash	87	stimuli_target_trianglesquares.svg	stimuli_distractor_diamondtriangles.svg	22	yes	53	1	1154
6.6.1	win	2022-11-07	13:31:05	13:38:09	421618	5af491b6222e4d0001877572	538415421	1	main_slash	7	advance_on_keypress_SLASH	88	stimuli_target_trianglesquares.svg	stimuli_distractor_diamondtriangles.svg	22	yes	57	0	432
6.6.1	win	2022-11-07	13:31:05	13:38:10	423405	5af491b6222e4d0001877572	538415421	1	main_slash	7	main_slash	89	stimuli_target_trianglecircles.svg	stimuli_distractor_diamondtriangles.svg	21	yes	53	1	709
6.6.1	win	2022-11-07	13:31:05	13:38:10	423405	5af491b6222e4d0001877572	538415421	1	main_slash	7	advance_on_keypress_SLASH	90	stimuli_target_trianglecircles.svg	stimuli_distractor_diamondtriangles.svg	21	yes	57	0	433
6.6.1	win	2022-11-07	13:31:05	13:38:12	425123	5af491b6222e4d0001877572	538415421	1	main_slash	7	main_slash	91	stimuli_target_trianglecircles.svg	stimuli_distractor_trianglediamonds.svg	17	yes	53	1	645
6.6.1	win	2022-11-07	13:31:05	13:38:12	425123	5af491b6222e4d0001877572	538415421	1	main_slash	7	advance_on_keypress_SLASH	92	stimuli_target_trianglecircles.svg	stimuli_distractor_trianglediamonds.svg	17	yes	57	0	338
6.6.1	win	2022-11-07	13:31:05	13:38:15	428093	5af491b6222e4d0001877572	538415421	1	main_slash	7	main_slash	93	stimuli_distractor_trianglediamonds.svg	stimuli_distractor_trianglediamonds.svg	34	no	0	1	2000
6.6.1	win	2022-11-07	13:31:05	13:38:15	428093	5af491b6222e4d0001877572	538415421	1	main_slash	7	advance_on_keypress_SLASH	94	stimuli_distractor_trianglediamonds.svg	stimuli_distractor_trianglediamonds.svg	34	no	57	0	2963
6.6.1	win	2022-11-07	13:31:05	13:38:19	432263	5af491b6222e4d0001877572	538415421	1	main_slash	7	main_slash	95	stimuli_distractor_trianglediamonds.svg	stimuli_target_squarediamonds.svg	12	yes	53	1	559
6.6.1	win	2022-11-07	13:31:05	13:38:19	432263	5af491b6222e4d0001877572	538415421	1	main_slash	7	advance_on_keypress_SLASH	96	stimuli_distractor_trianglediamonds.svg	stimuli_target_squarediamonds.svg	12	yes	57	0	338
6.6.1	win	2022-11-07	13:31:05	13:38:21	433802	5af491b6222e4d0001877572	538415421	1	main_slash	7	main_slash	97	stimuli_distractor_diamondtriangles.svg	stimuli_target_trianglecircles.svg	29	yes	53	1	566
6.6.1	win	2022-11-07	13:31:05	13:38:21	433802	5af491b6222e4d0001877572	538415421	1	main_slash	7	advance_on_keypress_SLASH	98	stimuli_distractor_diamondtriangles.svg	stimuli_target_trianglecircles.svg	29	yes	57	0	456
6.6.1	win	2022-11-07	13:31:05	13:38:22	435516	5af491b6222e4d0001877572	538415421	1	main_slash	7	main_slash	99	stimuli_target_squarediamonds.svg	stimuli_distractor_trianglediamonds.svg	4	yes	53	1	614
6.6.1	win	2022-11-07	13:31:05	13:38:22	435516	5af491b6222e4d0001877572	538415421	1	main_slash	7	advance_on_keypress_SLASH	100	stimuli_target_squarediamonds.svg	stimuli_distractor_trianglediamonds.svg	4	yes	57	0	369
6.6.1	win	2022-11-07	13:31:05	13:38:24	437048	5af491b6222e4d0001877572	538415421	1	main_slash	7	main_slash	101	stimuli_distractor_diamondtriangles.svg	stimuli_target_diamondcircles.svg	31	yes	53	1	506
6.6.1	win	2022-11-07	13:31:05	13:38:24	437048	5af491b6222e4d0001877572	538415421	1	main_slash	7	advance_on_keypress_SLASH	102	stimuli_distractor_diamondtriangles.svg	stimuli_target_diamondcircles.svg	31	yes	57	0	427
6.6.1	win	2022-11-07	13:31:05	13:38:25	438507	5af491b6222e4d0001877572	538415421	1	main_slash	7	main_slash	103	stimuli_distractor_trianglediamonds.svg	stimuli_target_trianglecircles.svg	25	yes	53	1	391
6.6.1	win	2022-11-07	13:31:05	13:38:25	438507	5af491b6222e4d0001877572	538415421	1	main_slash	7	advance_on_keypress_SLASH	104	stimuli_distractor_trianglediamonds.svg	stimuli_target_trianglecircles.svg	25	yes	57	0	520
6.6.1	win	2022-11-07	13:31:05	13:38:27	440163	5af491b6222e4d0001877572	538415421	1	main_slash	7	main_slash	105	stimuli_distractor_diamondtriangles.svg	stimuli_target_trianglesquares.svg	30	yes	53	1	498
6.6.1	win	2022-11-07	13:31:05	13:38:27	440163	5af491b6222e4d0001877572	538415421	1	main_slash	7	advance_on_keypress_SLASH	106	stimuli_distractor_diamondtriangles.svg	stimuli_target_trianglesquares.svg	30	yes	57	0	502
6.6.1	win	2022-11-07	13:31:05	13:38:29	441918	5af491b6222e4d0001877572	538415421	1	main_slash	7	main_slash	107	stimuli_target_diamondcircles.svg	stimuli_distractor_trianglediamonds.svg	19	yes	53	1	605
6.6.1	win	2022-11-07	13:31:05	13:38:29	441918	5af491b6222e4d0001877572	538415421	1	main_slash	7	advance_on_keypress_SLASH	108	stimuli_target_diamondcircles.svg	stimuli_distractor_trianglediamonds.svg	19	yes	57	0	329
6.6.1	win	2022-11-07	13:31:05	13:38:30	443350	5af491b6222e4d0001877572	538415421	1	main_slash	7	main_slash	109	stimuli_target_circlediamonds.svg	stimuli_distractor_diamondtriangles.svg	6	yes	53	1	455
6.6.1	win	2022-11-07	13:31:05	13:38:30	443350	5af491b6222e4d0001877572	538415421	1	main_slash	7	advance_on_keypress_SLASH	110	stimuli_target_circlediamonds.svg	stimuli_distractor_diamondtriangles.svg	6	yes	57	0	419
6.6.1	win	2022-11-07	13:31:05	13:38:32	445120	5af491b6222e4d0001877572	538415421	1	main_slash	7	main_slash	111	stimuli_target_squarediamonds.svg	stimuli_distractor_diamondtriangles.svg	8	yes	53	1	709
6.6.1	win	2022-11-07	13:31:05	13:38:32	445120	5af491b6222e4d0001877572	538415421	1	main_slash	7	advance_on_keypress_SLASH	112	stimuli_target_squarediamonds.svg	stimuli_distractor_diamondtriangles.svg	8	yes	57	0	320
6.6.1	win	2022-11-07	13:31:05	13:38:33	446504	5af491b6222e4d0001877572	538415421	1	main_slash	7	main_slash	113	stimuli_distractor_trianglediamonds.svg	stimuli_target_circletriangles.svg	9	yes	53	1	429
6.6.1	win	2022-11-07	13:31:05	13:38:33	446504	5af491b6222e4d0001877572	538415421	1	main_slash	7	advance_on_keypress_SLASH	114	stimuli_distractor_trianglediamonds.svg	stimuli_target_circletriangles.svg	9	yes	57	0	404
6.6.1	win	2022-11-07	13:31:05	13:38:35	447776	5af491b6222e4d0001877572	538415421	1	main_slash	7	main_slash	115	stimuli_distractor_diamondtriangles.svg	stimuli_distractor_diamondtriangles.svg	40	no	53	0	219
6.6.1	win	2022-11-07	13:31:05	13:38:35	447776	5af491b6222e4d0001877572	538415421	1	main_slash	7	advance_on_keypress_SLASH	116	stimuli_distractor_diamondtriangles.svg	stimuli_distractor_diamondtriangles.svg	40	no	57	0	8590
6.6.1	win	2022-11-07	13:31:05	13:38:46	459016	5af491b6222e4d0001877572	538415421	1	main_slash	7	main_slash	117	stimuli_distractor_trianglediamonds.svg	stimuli_distractor_trianglediamonds.svg	33	no	0	1	2000
6.6.1	win	2022-11-07	13:31:05	13:38:46	459016	5af491b6222e4d0001877572	538415421	1	main_slash	7	advance_on_keypress_SLASH	118	stimuli_distractor_trianglediamonds.svg	stimuli_distractor_trianglediamonds.svg	33	no	57	0	844
6.6.1	win	2022-11-07	13:31:05	13:38:48	460773	5af491b6222e4d0001877572	538415421	1	main_slash	7	main_slash	119	stimuli_target_squaretriangles.svg	stimuli_distractor_diamondtriangles.svg	7	yes	53	1	277
6.6.1	win	2022-11-07	13:31:05	13:38:48	460773	5af491b6222e4d0001877572	538415421	1	main_slash	7	advance_on_keypress_SLASH	120	stimuli_target_squaretriangles.svg	stimuli_distractor_diamondtriangles.svg	7	yes	57	0	587
6.6.1	win	2022-11-07	13:31:05	13:38:50	462835	5af491b6222e4d0001877572	538415421	1	main_slash	7	main_slash	121	stimuli_target_circlediamonds.svg	stimuli_distractor_trianglediamonds.svg	2	yes	53	1	840
6.6.1	win	2022-11-07	13:31:05	13:38:50	462835	5af491b6222e4d0001877572	538415421	1	main_slash	7	advance_on_keypress_SLASH	122	stimuli_target_circlediamonds.svg	stimuli_distractor_trianglediamonds.svg	2	yes	57	0	546
6.6.1	win	2022-11-07	13:31:05	13:38:52	464711	5af491b6222e4d0001877572	538415421	1	main_slash	7	main_slash	123	stimuli_distractor_trianglediamonds.svg	stimuli_target_squaretriangles.svg	11	yes	53	1	685
6.6.1	win	2022-11-07	13:31:05	13:38:52	464711	5af491b6222e4d0001877572	538415421	1	main_slash	7	advance_on_keypress_SLASH	124	stimuli_distractor_trianglediamonds.svg	stimuli_target_squaretriangles.svg	11	yes	57	0	407
6.6.1	win	2022-11-07	13:31:05	13:38:53	466407	5af491b6222e4d0001877572	538415421	1	main_slash	7	main_slash	125	stimuli_target_squaretriangles.svg	stimuli_distractor_trianglediamonds.svg	3	yes	53	1	649
6.6.1	win	2022-11-07	13:31:05	13:38:53	466407	5af491b6222e4d0001877572	538415421	1	main_slash	7	advance_on_keypress_SLASH	126	stimuli_target_squaretriangles.svg	stimuli_distractor_trianglediamonds.svg	3	yes	57	0	428
6.6.1	win	2022-11-07	13:31:05	13:38:55	467996	5af491b6222e4d0001877572	538415421	1	main_slash	7	main_slash	127	stimuli_target_circletriangles.svg	stimuli_distractor_diamondtriangles.svg	5	yes	53	1	523
6.6.1	win	2022-11-07	13:31:05	13:38:55	467996	5af491b6222e4d0001877572	538415421	1	main_slash	7	advance_on_keypress_SLASH	128	stimuli_target_circletriangles.svg	stimuli_distractor_diamondtriangles.svg	5	yes	57	0	422
6.6.1	win	2022-11-07	13:31:05	13:38:57	469716	5af491b6222e4d0001877572	538415421	1	main_slash	7	main_slash	129	stimuli_distractor_trianglediamonds.svg	stimuli_distractor_diamondtriangles.svg	36	no	53	0	661
6.6.1	win	2022-11-07	13:31:05	13:38:57	469716	5af491b6222e4d0001877572	538415421	1	main_slash	7	advance_on_keypress_SLASH	130	stimuli_distractor_trianglediamonds.svg	stimuli_distractor_diamondtriangles.svg	36	no	57	0	599
6.6.1	win	2022-11-07	13:31:05	13:38:59	471714	5af491b6222e4d0001877572	538415421	1	main_slash	7	main_slash	131	stimuli_distractor_diamondtriangles.svg	stimuli_target_diamondsquares.svg	32	yes	53	1	760
6.6.1	win	2022-11-07	13:31:05	13:38:59	471714	5af491b6222e4d0001877572	538415421	1	main_slash	7	advance_on_keypress_SLASH	132	stimuli_distractor_diamondtriangles.svg	stimuli_target_diamondsquares.svg	32	yes	57	0	465
6.6.1	win	2022-11-07	13:31:05	13:39:00	473586	5af491b6222e4d0001877572	538415421	1	main_slash	7	main_slash	133	stimuli_distractor_trianglediamonds.svg	stimuli_target_diamondcircles.svg	27	yes	53	1	767
6.6.1	win	2022-11-07	13:31:05	13:39:00	473586	5af491b6222e4d0001877572	538415421	1	main_slash	7	advance_on_keypress_SLASH	134	stimuli_distractor_trianglediamonds.svg	stimuli_target_diamondcircles.svg	27	yes	57	0	509
6.6.1	win	2022-11-07	13:31:05	13:39:02	475585	5af491b6222e4d0001877572	538415421	1	main_slash	7	main_slash	135	stimuli_distractor_trianglediamonds.svg	stimuli_target_trianglesquares.svg	26	yes	53	1	851
6.6.1	win	2022-11-07	13:31:05	13:39:02	475585	5af491b6222e4d0001877572	538415421	1	main_slash	7	advance_on_keypress_SLASH	136	stimuli_distractor_trianglediamonds.svg	stimuli_target_trianglesquares.svg	26	yes	57	0	561
6.6.1	win	2022-11-07	13:31:05	13:39:04	477575	5af491b6222e4d0001877572	538415421	1	main_slash	7	main_slash	137	stimuli_target_trianglesquares.svg	stimuli_distractor_trianglediamonds.svg	18	yes	53	1	793
6.6.1	win	2022-11-07	13:31:05	13:39:04	477575	5af491b6222e4d0001877572	538415421	1	main_slash	7	advance_on_keypress_SLASH	138	stimuli_target_trianglesquares.svg	stimuli_distractor_trianglediamonds.svg	18	yes	57	0	619
6.6.1	win	2022-11-07	13:31:05	13:39:06	479493	5af491b6222e4d0001877572	538415421	1	main_slash	7	main_slash	139	stimuli_distractor_diamondtriangles.svg	stimuli_target_squaretriangles.svg	15	yes	53	1	663
6.6.1	win	2022-11-07	13:31:05	13:39:06	479493	5af491b6222e4d0001877572	538415421	1	main_slash	7	advance_on_keypress_SLASH	140	stimuli_distractor_diamondtriangles.svg	stimuli_target_squaretriangles.svg	15	yes	57	0	391
6.6.1	win	2022-11-07	13:31:05	13:39:09	482529	5af491b6222e4d0001877572	538415421	1	main_slash	7	main_slash	141	stimuli_distractor_diamondtriangles.svg	stimuli_distractor_trianglediamonds.svg	37	no	0	1	2000
6.6.1	win	2022-11-07	13:31:05	13:39:09	482529	5af491b6222e4d0001877572	538415421	1	main_slash	7	advance_on_keypress_SLASH	142	stimuli_distractor_diamondtriangles.svg	stimuli_distractor_trianglediamonds.svg	37	no	57	0	661
6.6.1	win	2022-11-07	13:31:05	13:39:11	484341	5af491b6222e4d0001877572	538415421	1	main_slash	7	main_slash	143	stimuli_distractor_diamondtriangles.svg	stimuli_target_circlediamonds.svg	14	yes	53	1	512
6.6.1	win	2022-11-07	13:31:05	13:39:11	484341	5af491b6222e4d0001877572	538415421	1	main_slash	7	advance_on_keypress_SLASH	144	stimuli_distractor_diamondtriangles.svg	stimuli_target_circlediamonds.svg	14	yes	57	0	398
6.6.1	win	2022-11-07	13:31:05	13:39:13	486514	5af491b6222e4d0001877572	538415421	1	main_slash	7	main_slash	145	stimuli_target_diamondsquares.svg	stimuli_distractor_diamondtriangles.svg	24	yes	53	1	1123
6.6.1	win	2022-11-07	13:31:05	13:39:13	486514	5af491b6222e4d0001877572	538415421	1	main_slash	7	advance_on_keypress_SLASH	146	stimuli_target_diamondsquares.svg	stimuli_distractor_diamondtriangles.svg	24	yes	57	0	583
6.6.1	win	2022-11-07	13:31:05	13:39:17	489739	5af491b6222e4d0001877572	538415421	1	main_slash	7	main_slash	147	stimuli_distractor_diamondtriangles.svg	stimuli_distractor_diamondtriangles.svg	39	no	0	1	2000
6.6.1	win	2022-11-07	13:31:05	13:39:17	489739	5af491b6222e4d0001877572	538415421	1	main_slash	7	advance_on_keypress_SLASH	148	stimuli_distractor_diamondtriangles.svg	stimuli_distractor_diamondtriangles.svg	39	no	57	0	657
6.6.1	win	2022-11-07	13:31:05	13:39:18	491462	5af491b6222e4d0001877572	538415421	1	main_slash	7	main_slash	149	stimuli_target_diamondsquares.svg	stimuli_distractor_trianglediamonds.svg	20	yes	53	1	426
6.6.1	win	2022-11-07	13:31:05	13:39:18	491462	5af491b6222e4d0001877572	538415421	1	main_slash	7	advance_on_keypress_SLASH	150	stimuli_target_diamondsquares.svg	stimuli_distractor_trianglediamonds.svg	20	yes	57	0	627
6.6.1	win	2022-11-07	13:31:05	13:39:20	493344	5af491b6222e4d0001877572	538415421	1	main_slash	7	main_slash	151	stimuli_distractor_trianglediamonds.svg	stimuli_target_circlediamonds.svg	10	yes	53	1	626
6.6.1	win	2022-11-07	13:31:05	13:39:20	493344	5af491b6222e4d0001877572	538415421	1	main_slash	7	advance_on_keypress_SLASH	152	stimuli_distractor_trianglediamonds.svg	stimuli_target_circlediamonds.svg	10	yes	57	0	402
6.6.1	win	2022-11-07	13:31:05	13:39:22	494926	5af491b6222e4d0001877572	538415421	1	main_slash	7	main_slash	153	stimuli_target_circletriangles.svg	stimuli_distractor_trianglediamonds.svg	1	yes	53	1	543
6.6.1	win	2022-11-07	13:31:05	13:39:22	494926	5af491b6222e4d0001877572	538415421	1	main_slash	7	advance_on_keypress_SLASH	154	stimuli_target_circletriangles.svg	stimuli_distractor_trianglediamonds.svg	1	yes	57	0	454
6.6.1	win	2022-11-07	13:31:05	13:39:24	496684	5af491b6222e4d0001877572	538415421	1	main_slash	7	main_slash	155	stimuli_distractor_trianglediamonds.svg	stimuli_distractor_diamondtriangles.svg	35	no	53	0	669
6.6.1	win	2022-11-07	13:31:05	13:39:24	496684	5af491b6222e4d0001877572	538415421	1	main_slash	7	advance_on_keypress_SLASH	156	stimuli_distractor_trianglediamonds.svg	stimuli_distractor_diamondtriangles.svg	35	no	57	0	480
6.6.1	win	2022-11-07	13:31:05	13:39:25	498565	5af491b6222e4d0001877572	538415421	1	main_slash	7	main_slash	157	stimuli_distractor_trianglediamonds.svg	stimuli_target_diamondsquares.svg	28	yes	53	1	751
6.6.1	win	2022-11-07	13:31:05	13:39:25	498565	5af491b6222e4d0001877572	538415421	1	main_slash	7	advance_on_keypress_SLASH	158	stimuli_distractor_trianglediamonds.svg	stimuli_target_diamondsquares.svg	28	yes	57	0	567
6.6.1	win	2022-11-07	13:31:05	13:39:27	500326	5af491b6222e4d0001877572	538415421	1	main_slash	7	main_slash	159	stimuli_distractor_diamondtriangles.svg	stimuli_target_circletriangles.svg	13	yes	53	1	548
6.6.1	win	2022-11-07	13:31:05	13:39:27	500326	5af491b6222e4d0001877572	538415421	1	main_slash	7	advance_on_keypress_SLASH	160	stimuli_distractor_diamondtriangles.svg	stimuli_target_circletriangles.svg	13	yes	57	0	495
6.6.1	win	2022-11-07	13:31:05	13:39:49	522594	5af491b6222e4d0001877572	538415421	1	practice_z	9	practice_z	1	stimuli_target_circlediamonds.svg	stimuli_distractor_trianglediamonds.svg	4	yes	44	1	365
6.6.1	win	2022-11-07	13:31:05	13:39:49	522594	5af491b6222e4d0001877572	538415421	1	practice_z	9	advance_on_keypress_ZEE	2	stimuli_target_circlediamonds.svg	stimuli_distractor_trianglediamonds.svg	4	yes	57	0	574
6.6.1	win	2022-11-07	13:31:05	13:39:52	524995	5af491b6222e4d0001877572	538415421	1	practice_z	9	practice_z	3	stimuli_target_squarediamonds.svg	stimuli_distractor_trianglediamonds.svg	5	yes	44	1	185
6.6.1	win	2022-11-07	13:31:05	13:39:52	524995	5af491b6222e4d0001877572	538415421	1	practice_z	9	advance_on_keypress_ZEE	4	stimuli_target_squarediamonds.svg	stimuli_distractor_trianglediamonds.svg	5	yes	57	0	1328
6.6.1	win	2022-11-07	13:31:05	13:39:55	528441	5af491b6222e4d0001877572	538415421	1	practice_z	9	practice_z	5	stimuli_distractor_diamondtriangles.svg	stimuli_target_trianglecircles.svg	9	yes	44	1	466
6.6.1	win	2022-11-07	13:31:05	13:39:55	528441	5af491b6222e4d0001877572	538415421	1	practice_z	9	advance_on_keypress_ZEE	6	stimuli_distractor_diamondtriangles.svg	stimuli_target_trianglecircles.svg	9	yes	57	0	1390
6.6.1	win	2022-11-07	13:31:05	13:39:59	531938	5af491b6222e4d0001877572	538415421	1	practice_z	9	practice_z	7	stimuli_target_squarediamonds.svg	stimuli_distractor_diamondtriangles.svg	2	yes	44	1	467
6.6.1	win	2022-11-07	13:31:05	13:39:59	531938	5af491b6222e4d0001877572	538415421	1	practice_z	9	advance_on_keypress_ZEE	8	stimuli_target_squarediamonds.svg	stimuli_distractor_diamondtriangles.svg	2	yes	57	0	545
6.6.1	win	2022-11-07	13:31:05	13:40:02	534710	5af491b6222e4d0001877572	538415421	1	practice_z	9	practice_z	9	stimuli_distractor_diamondtriangles.svg	stimuli_target_diamondcircles.svg	8	yes	44	1	575
6.6.1	win	2022-11-07	13:31:05	13:40:02	534710	5af491b6222e4d0001877572	538415421	1	practice_z	9	advance_on_keypress_ZEE	10	stimuli_distractor_diamondtriangles.svg	stimuli_target_diamondcircles.svg	8	yes	57	0	1332
6.6.1	win	2022-11-07	13:31:05	13:40:05	537923	5af491b6222e4d0001877572	538415421	1	practice_z	9	practice_z	11	stimuli_target_diamondsquares.svg	stimuli_distractor_trianglediamonds.svg	6	yes	44	1	241
6.6.1	win	2022-11-07	13:31:05	13:40:05	537923	5af491b6222e4d0001877572	538415421	1	practice_z	9	advance_on_keypress_ZEE	12	stimuli_target_diamondsquares.svg	stimuli_distractor_trianglediamonds.svg	6	yes	57	0	681
6.6.1	win	2022-11-07	13:31:05	13:40:08	540938	5af491b6222e4d0001877572	538415421	1	practice_z	9	practice_z	13	stimuli_target_circlediamonds.svg	stimuli_distractor_diamondtriangles.svg	1	yes	44	1	691
6.6.1	win	2022-11-07	13:31:05	13:40:08	540938	5af491b6222e4d0001877572	538415421	1	practice_z	9	advance_on_keypress_ZEE	14	stimuli_target_circlediamonds.svg	stimuli_distractor_diamondtriangles.svg	1	yes	57	0	445
6.6.1	win	2022-11-07	13:31:05	13:40:11	544003	5af491b6222e4d0001877572	538415421	1	practice_z	9	practice_z	15	stimuli_distractor_diamondtriangles.svg	stimuli_target_circletriangles.svg	7	yes	44	1	977
6.6.1	win	2022-11-07	13:31:05	13:40:11	544003	5af491b6222e4d0001877572	538415421	1	practice_z	9	advance_on_keypress_ZEE	16	stimuli_distractor_diamondtriangles.svg	stimuli_target_circletriangles.svg	7	yes	57	0	460
6.6.1	win	2022-11-07	13:31:05	13:40:14	546605	5af491b6222e4d0001877572	538415421	1	practice_z	9	practice_z	17	stimuli_distractor_trianglediamonds.svg	stimuli_target_diamondcircles.svg	12	yes	44	1	481
6.6.1	win	2022-11-07	13:31:05	13:40:14	546605	5af491b6222e4d0001877572	538415421	1	practice_z	9	advance_on_keypress_ZEE	18	stimuli_distractor_trianglediamonds.svg	stimuli_target_diamondcircles.svg	12	yes	57	0	548
6.6.1	win	2022-11-07	13:31:05	13:40:18	550805	5af491b6222e4d0001877572	538415421	1	practice_z	9	practice_z	19	stimuli_distractor_trianglediamonds.svg	stimuli_distractor_diamondtriangles.svg	16	no	0	1	2000
6.6.1	win	2022-11-07	13:31:05	13:40:18	550805	5af491b6222e4d0001877572	538415421	1	practice_z	9	advance_on_keypress_ZEE	20	stimuli_distractor_trianglediamonds.svg	stimuli_distractor_diamondtriangles.svg	16	no	57	0	1051
6.6.1	win	2022-11-07	13:31:05	13:40:21	554154	5af491b6222e4d0001877572	538415421	1	practice_z	9	practice_z	21	stimuli_distractor_diamondtriangles.svg	stimuli_distractor_trianglediamonds.svg	14	no	44	0	653
6.6.1	win	2022-11-07	13:31:05	13:40:21	554154	5af491b6222e4d0001877572	538415421	1	practice_z	9	advance_on_keypress_ZEE	22	stimuli_distractor_diamondtriangles.svg	stimuli_distractor_trianglediamonds.svg	14	no	57	0	519
6.6.1	win	2022-11-07	13:31:05	13:40:24	556984	5af491b6222e4d0001877572	538415421	1	practice_z	9	practice_z	23	stimuli_target_diamondsquares.svg	stimuli_distractor_diamondtriangles.svg	3	yes	44	1	670
6.6.1	win	2022-11-07	13:31:05	13:40:24	556984	5af491b6222e4d0001877572	538415421	1	practice_z	9	advance_on_keypress_ZEE	24	stimuli_target_diamondsquares.svg	stimuli_distractor_diamondtriangles.svg	3	yes	57	0	607
6.6.1	win	2022-11-07	13:31:05	13:40:27	559800	5af491b6222e4d0001877572	538415421	1	practice_z	9	practice_z	25	stimuli_distractor_trianglediamonds.svg	stimuli_target_squarediamonds.svg	11	yes	44	1	570
6.6.1	win	2022-11-07	13:31:05	13:40:27	559800	5af491b6222e4d0001877572	538415421	1	practice_z	9	advance_on_keypress_ZEE	26	stimuli_distractor_trianglediamonds.svg	stimuli_target_squarediamonds.svg	11	yes	57	0	546
6.6.1	win	2022-11-07	13:31:05	13:40:31	563994	5af491b6222e4d0001877572	538415421	1	practice_z	9	practice_z	27	stimuli_distractor_trianglediamonds.svg	stimuli_distractor_trianglediamonds.svg	15	no	0	1	2000
6.6.1	win	2022-11-07	13:31:05	13:40:31	563994	5af491b6222e4d0001877572	538415421	1	practice_z	9	advance_on_keypress_ZEE	28	stimuli_distractor_trianglediamonds.svg	stimuli_distractor_trianglediamonds.svg	15	no	57	0	476
6.6.1	win	2022-11-07	13:31:05	13:40:35	568107	5af491b6222e4d0001877572	538415421	1	practice_z	9	practice_z	29	stimuli_distractor_diamondtriangles.svg	stimuli_distractor_diamondtriangles.svg	13	no	0	1	2000
6.6.1	win	2022-11-07	13:31:05	13:40:35	568107	5af491b6222e4d0001877572	538415421	1	practice_z	9	advance_on_keypress_ZEE	30	stimuli_distractor_diamondtriangles.svg	stimuli_distractor_diamondtriangles.svg	13	no	57	0	723
6.6.1	win	2022-11-07	13:31:05	13:40:38	570985	5af491b6222e4d0001877572	538415421	1	practice_z	9	practice_z	31	stimuli_distractor_trianglediamonds.svg	stimuli_target_circlediamonds.svg	10	yes	44	1	504
6.6.1	win	2022-11-07	13:31:05	13:40:38	570985	5af491b6222e4d0001877572	538415421	1	practice_z	9	advance_on_keypress_ZEE	32	stimuli_distractor_trianglediamonds.svg	stimuli_target_circlediamonds.svg	10	yes	57	0	2835
6.6.1	win	2022-11-07	13:31:05	13:40:44	577310	5af491b6222e4d0001877572	538415421	1	main_z	11	main_z	1	stimuli_target_diamondcircles.svg	stimuli_distractor_diamondtriangles.svg	23	yes	44	1	505
6.6.1	win	2022-11-07	13:31:05	13:40:44	577310	5af491b6222e4d0001877572	538415421	1	main_z	11	advance_on_keypress_ZEE	2	stimuli_target_diamondcircles.svg	stimuli_distractor_diamondtriangles.svg	23	yes	57	0	583
6.6.1	win	2022-11-07	13:31:05	13:40:46	579176	5af491b6222e4d0001877572	538415421	1	main_z	11	main_z	3	stimuli_distractor_diamondtriangles.svg	stimuli_target_diamondsquares.svg	32	yes	44	1	633
6.6.1	win	2022-11-07	13:31:05	13:40:46	579176	5af491b6222e4d0001877572	538415421	1	main_z	11	advance_on_keypress_ZEE	4	stimuli_distractor_diamondtriangles.svg	stimuli_target_diamondsquares.svg	32	yes	57	0	487
6.6.1	win	2022-11-07	13:31:05	13:40:48	581218	5af491b6222e4d0001877572	538415421	1	main_z	11	main_z	5	stimuli_distractor_diamondtriangles.svg	stimuli_distractor_trianglediamonds.svg	37	no	44	0	910
6.6.1	win	2022-11-07	13:31:05	13:40:48	581218	5af491b6222e4d0001877572	538415421	1	main_z	11	advance_on_keypress_ZEE	6	stimuli_distractor_diamondtriangles.svg	stimuli_distractor_trianglediamonds.svg	37	no	57	0	770
6.6.1	win	2022-11-07	13:31:05	13:40:50	583350	5af491b6222e4d0001877572	538415421	1	main_z	11	main_z	7	stimuli_distractor_trianglediamonds.svg	stimuli_target_trianglesquares.svg	26	yes	44	1	727
6.6.1	win	2022-11-07	13:31:05	13:40:50	583350	5af491b6222e4d0001877572	538415421	1	main_z	11	advance_on_keypress_ZEE	8	stimuli_distractor_trianglediamonds.svg	stimuli_target_trianglesquares.svg	26	yes	57	0	734
6.6.1	win	2022-11-07	13:31:05	13:40:52	585389	5af491b6222e4d0001877572	538415421	1	main_z	11	main_z	9	stimuli_distractor_diamondtriangles.svg	stimuli_target_circletriangles.svg	13	yes	44	1	668
6.6.1	win	2022-11-07	13:31:05	13:40:52	585389	5af491b6222e4d0001877572	538415421	1	main_z	11	advance_on_keypress_ZEE	10	stimuli_distractor_diamondtriangles.svg	stimuli_target_circletriangles.svg	13	yes	57	0	483
6.6.1	win	2022-11-07	13:31:05	13:40:54	587244	5af491b6222e4d0001877572	538415421	1	main_z	11	main_z	11	stimuli_target_diamondsquares.svg	stimuli_distractor_diamondtriangles.svg	24	yes	44	1	724
6.6.1	win	2022-11-07	13:31:05	13:40:54	587244	5af491b6222e4d0001877572	538415421	1	main_z	11	advance_on_keypress_ZEE	12	stimuli_target_diamondsquares.svg	stimuli_distractor_diamondtriangles.svg	24	yes	57	0	520
6.6.1	win	2022-11-07	13:31:05	13:40:56	589010	5af491b6222e4d0001877572	538415421	1	main_z	11	main_z	13	stimuli_distractor_trianglediamonds.svg	stimuli_target_circletriangles.svg	9	yes	44	1	609
6.6.1	win	2022-11-07	13:31:05	13:40:56	589010	5af491b6222e4d0001877572	538415421	1	main_z	11	advance_on_keypress_ZEE	14	stimuli_distractor_trianglediamonds.svg	stimuli_target_circletriangles.svg	9	yes	57	0	525
6.6.1	win	2022-11-07	13:31:05	13:40:58	590653	5af491b6222e4d0001877572	538415421	1	main_z	11	main_z	15	stimuli_target_squaretriangles.svg	stimuli_distractor_trianglediamonds.svg	3	yes	44	1	487
6.6.1	win	2022-11-07	13:31:05	13:40:58	590653	5af491b6222e4d0001877572	538415421	1	main_z	11	advance_on_keypress_ZEE	16	stimuli_target_squaretriangles.svg	stimuli_distractor_trianglediamonds.svg	3	yes	57	0	557
6.6.1	win	2022-11-07	13:31:05	13:41:01	593848	5af491b6222e4d0001877572	538415421	1	main_z	11	main_z	17	stimuli_distractor_diamondtriangles.svg	stimuli_distractor_diamondtriangles.svg	39	no	0	1	2000
6.6.1	win	2022-11-07	13:31:05	13:41:01	593848	5af491b6222e4d0001877572	538415421	1	main_z	11	advance_on_keypress_ZEE	18	stimuli_distractor_diamondtriangles.svg	stimuli_distractor_diamondtriangles.svg	39	no	57	0	404
6.6.1	win	2022-11-07	13:31:05	13:41:03	595616	5af491b6222e4d0001877572	538415421	1	main_z	11	main_z	19	stimuli_distractor_trianglediamonds.svg	stimuli_target_trianglecircles.svg	25	yes	44	1	720
6.6.1	win	2022-11-07	13:31:05	13:41:03	595616	5af491b6222e4d0001877572	538415421	1	main_z	11	advance_on_keypress_ZEE	20	stimuli_distractor_trianglediamonds.svg	stimuli_target_trianglecircles.svg	25	yes	57	0	484
6.6.1	win	2022-11-07	13:31:05	13:41:06	598744	5af491b6222e4d0001877572	538415421	1	main_z	11	main_z	21	stimuli_distractor_trianglediamonds.svg	stimuli_distractor_diamondtriangles.svg	35	no	0	1	2000
6.6.1	win	2022-11-07	13:31:05	13:41:06	598744	5af491b6222e4d0001877572	538415421	1	main_z	11	advance_on_keypress_ZEE	22	stimuli_distractor_trianglediamonds.svg	stimuli_distractor_diamondtriangles.svg	35	no	57	0	467
6.6.1	win	2022-11-07	13:31:05	13:41:08	600625	5af491b6222e4d0001877572	538415421	1	main_z	11	main_z	23	stimuli_target_squarediamonds.svg	stimuli_distractor_diamondtriangles.svg	8	yes	44	1	767
6.6.1	win	2022-11-07	13:31:05	13:41:08	600625	5af491b6222e4d0001877572	538415421	1	main_z	11	advance_on_keypress_ZEE	24	stimuli_target_squarediamonds.svg	stimuli_distractor_diamondtriangles.svg	8	yes	57	0	663
6.6.1	win	2022-11-07	13:31:05	13:41:10	602797	5af491b6222e4d0001877572	538415421	1	main_z	11	main_z	25	stimuli_distractor_diamondtriangles.svg	stimuli_target_diamondcircles.svg	31	yes	44	1	858
6.6.1	win	2022-11-07	13:31:05	13:41:10	602797	5af491b6222e4d0001877572	538415421	1	main_z	11	advance_on_keypress_ZEE	26	stimuli_distractor_diamondtriangles.svg	stimuli_target_diamondcircles.svg	31	yes	57	0	510
6.6.1	win	2022-11-07	13:31:05	13:41:12	604828	5af491b6222e4d0001877572	538415421	1	main_z	11	main_z	27	stimuli_distractor_trianglediamonds.svg	stimuli_target_circlediamonds.svg	10	yes	44	1	890
6.6.1	win	2022-11-07	13:31:05	13:41:12	604828	5af491b6222e4d0001877572	538415421	1	main_z	11	advance_on_keypress_ZEE	28	stimuli_distractor_trianglediamonds.svg	stimuli_target_circlediamonds.svg	10	yes	57	0	555
6.6.1	win	2022-11-07	13:31:05	13:41:14	606684	5af491b6222e4d0001877572	538415421	1	main_z	11	main_z	29	stimuli_distractor_diamondtriangles.svg	stimuli_target_trianglesquares.svg	30	yes	44	1	665
6.6.1	win	2022-11-07	13:31:05	13:41:14	606684	5af491b6222e4d0001877572	538415421	1	main_z	11	advance_on_keypress_ZEE	30	stimuli_distractor_diamondtriangles.svg	stimuli_target_trianglesquares.svg	30	yes	57	0	582
6.6.1	win	2022-11-07	13:31:05	13:41:15	608462	5af491b6222e4d0001877572	538415421	1	main_z	11	main_z	31	stimuli_distractor_diamondtriangles.svg	stimuli_target_squarediamonds.svg	16	yes	44	1	545
6.6.1	win	2022-11-07	13:31:05	13:41:15	608462	5af491b6222e4d0001877572	538415421	1	main_z	11	advance_on_keypress_ZEE	32	stimuli_distractor_diamondtriangles.svg	stimuli_target_squarediamonds.svg	16	yes	57	0	543
6.6.1	win	2022-11-07	13:31:05	13:41:17	610293	5af491b6222e4d0001877572	538415421	1	main_z	11	main_z	33	stimuli_distractor_diamondtriangles.svg	stimuli_target_circlediamonds.svg	14	yes	44	1	660
6.6.1	win	2022-11-07	13:31:05	13:41:17	610293	5af491b6222e4d0001877572	538415421	1	main_z	11	advance_on_keypress_ZEE	34	stimuli_distractor_diamondtriangles.svg	stimuli_target_circlediamonds.svg	14	yes	57	0	524
6.6.1	win	2022-11-07	13:31:05	13:41:19	612094	5af491b6222e4d0001877572	538415421	1	main_z	11	main_z	35	stimuli_target_circletriangles.svg	stimuli_distractor_trianglediamonds.svg	1	yes	44	1	646
6.6.1	win	2022-11-07	13:31:05	13:41:19	612094	5af491b6222e4d0001877572	538415421	1	main_z	11	advance_on_keypress_ZEE	36	stimuli_target_circletriangles.svg	stimuli_distractor_trianglediamonds.svg	1	yes	57	0	465
6.6.1	win	2022-11-07	13:31:05	13:41:21	614202	5af491b6222e4d0001877572	538415421	1	main_z	11	main_z	37	stimuli_target_trianglecircles.svg	stimuli_distractor_trianglediamonds.svg	17	yes	44	1	989
6.6.1	win	2022-11-07	13:31:05	13:41:21	614202	5af491b6222e4d0001877572	538415421	1	main_z	11	advance_on_keypress_ZEE	38	stimuli_target_trianglecircles.svg	stimuli_distractor_trianglediamonds.svg	17	yes	57	0	543
6.6.1	win	2022-11-07	13:31:05	13:41:23	616296	5af491b6222e4d0001877572	538415421	1	main_z	11	main_z	39	stimuli_distractor_diamondtriangles.svg	stimuli_target_squaretriangles.svg	15	yes	44	1	918
6.6.1	win	2022-11-07	13:31:05	13:41:23	616296	5af491b6222e4d0001877572	538415421	1	main_z	11	advance_on_keypress_ZEE	40	stimuli_distractor_diamondtriangles.svg	stimuli_target_squaretriangles.svg	15	yes	57	0	714
6.6.1	win	2022-11-07	13:31:05	13:41:25	618106	5af491b6222e4d0001877572	538415421	1	main_z	11	main_z	41	stimuli_distractor_trianglediamonds.svg	stimuli_target_diamondcircles.svg	27	yes	44	1	447
6.6.1	win	2022-11-07	13:31:05	13:41:25	618106	5af491b6222e4d0001877572	538415421	1	main_z	11	advance_on_keypress_ZEE	42	stimuli_distractor_trianglediamonds.svg	stimuli_target_diamondcircles.svg	27	yes	57	0	549
6.6.1	win	2022-11-07	13:31:05	13:41:27	619618	5af491b6222e4d0001877572	538415421	1	main_z	11	main_z	43	stimuli_distractor_trianglediamonds.svg	stimuli_target_squarediamonds.svg	12	yes	44	1	310
6.6.1	win	2022-11-07	13:31:05	13:41:27	619618	5af491b6222e4d0001877572	538415421	1	main_z	11	advance_on_keypress_ZEE	44	stimuli_distractor_trianglediamonds.svg	stimuli_target_squarediamonds.svg	12	yes	57	0	523
6.6.1	win	2022-11-07	13:31:05	13:41:28	621029	5af491b6222e4d0001877572	538415421	1	main_z	11	main_z	45	stimuli_distractor_diamondtriangles.svg	stimuli_distractor_diamondtriangles.svg	40	no	44	0	256
6.6.1	win	2022-11-07	13:31:05	13:41:28	621029	5af491b6222e4d0001877572	538415421	1	main_z	11	advance_on_keypress_ZEE	46	stimuli_distractor_diamondtriangles.svg	stimuli_distractor_diamondtriangles.svg	40	no	57	0	1089
6.6.1	win	2022-11-07	13:31:05	13:41:31	623899	5af491b6222e4d0001877572	538415421	1	main_z	11	main_z	47	stimuli_target_diamondsquares.svg	stimuli_distractor_trianglediamonds.svg	20	yes	44	1	1144
6.6.1	win	2022-11-07	13:31:05	13:41:31	623899	5af491b6222e4d0001877572	538415421	1	main_z	11	advance_on_keypress_ZEE	48	stimuli_target_diamondsquares.svg	stimuli_distractor_trianglediamonds.svg	20	yes	57	0	724
6.6.1	win	2022-11-07	13:31:05	13:41:33	625615	5af491b6222e4d0001877572	538415421	1	main_z	11	main_z	49	stimuli_target_diamondcircles.svg	stimuli_distractor_trianglediamonds.svg	19	yes	44	1	363
6.6.1	win	2022-11-07	13:31:05	13:41:33	625615	5af491b6222e4d0001877572	538415421	1	main_z	11	advance_on_keypress_ZEE	50	stimuli_target_diamondcircles.svg	stimuli_distractor_trianglediamonds.svg	19	yes	57	0	475
6.6.1	win	2022-11-07	13:31:05	13:41:34	627175	5af491b6222e4d0001877572	538415421	1	main_z	11	main_z	51	stimuli_distractor_trianglediamonds.svg	stimuli_target_diamondsquares.svg	28	yes	44	1	441
6.6.1	win	2022-11-07	13:31:05	13:41:34	627175	5af491b6222e4d0001877572	538415421	1	main_z	11	advance_on_keypress_ZEE	52	stimuli_distractor_trianglediamonds.svg	stimuli_target_diamondsquares.svg	28	yes	57	0	450
6.6.1	win	2022-11-07	13:31:05	13:41:36	628719	5af491b6222e4d0001877572	538415421	1	main_z	11	main_z	53	stimuli_target_trianglesquares.svg	stimuli_distractor_diamondtriangles.svg	22	yes	44	1	453
6.6.1	win	2022-11-07	13:31:05	13:41:36	628719	5af491b6222e4d0001877572	538415421	1	main_z	11	advance_on_keypress_ZEE	54	stimuli_target_trianglesquares.svg	stimuli_distractor_diamondtriangles.svg	22	yes	57	0	390
6.6.1	win	2022-11-07	13:31:05	13:41:39	631749	5af491b6222e4d0001877572	538415421	1	main_z	11	main_z	55	stimuli_distractor_trianglediamonds.svg	stimuli_distractor_diamondtriangles.svg	36	no	0	1	2000
6.6.1	win	2022-11-07	13:31:05	13:41:39	631749	5af491b6222e4d0001877572	538415421	1	main_z	11	advance_on_keypress_ZEE	56	stimuli_distractor_trianglediamonds.svg	stimuli_distractor_diamondtriangles.svg	36	no	57	0	435
6.6.1	win	2022-11-07	13:31:05	13:41:40	633278	5af491b6222e4d0001877572	538415421	1	main_z	11	main_z	57	stimuli_target_circlediamonds.svg	stimuli_distractor_trianglediamonds.svg	2	yes	44	1	449
6.6.1	win	2022-11-07	13:31:05	13:41:40	633278	5af491b6222e4d0001877572	538415421	1	main_z	11	advance_on_keypress_ZEE	58	stimuli_target_circlediamonds.svg	stimuli_distractor_trianglediamonds.svg	2	yes	57	0	386
6.6.1	win	2022-11-07	13:31:05	13:41:42	634715	5af491b6222e4d0001877572	538415421	1	main_z	11	main_z	59	stimuli_target_trianglecircles.svg	stimuli_distractor_diamondtriangles.svg	21	yes	44	1	403
6.6.1	win	2022-11-07	13:31:05	13:41:42	634715	5af491b6222e4d0001877572	538415421	1	main_z	11	advance_on_keypress_ZEE	60	stimuli_target_trianglecircles.svg	stimuli_distractor_diamondtriangles.svg	21	yes	57	0	431
6.6.1	win	2022-11-07	13:31:05	13:41:43	636223	5af491b6222e4d0001877572	538415421	1	main_z	11	main_z	61	stimuli_target_squaretriangles.svg	stimuli_distractor_diamondtriangles.svg	7	yes	44	1	430
6.6.1	win	2022-11-07	13:31:05	13:41:43	636223	5af491b6222e4d0001877572	538415421	1	main_z	11	advance_on_keypress_ZEE	62	stimuli_target_squaretriangles.svg	stimuli_distractor_diamondtriangles.svg	7	yes	57	0	417
6.6.1	win	2022-11-07	13:31:05	13:41:45	637784	5af491b6222e4d0001877572	538415421	1	main_z	11	main_z	63	stimuli_distractor_diamondtriangles.svg	stimuli_target_trianglecircles.svg	29	yes	44	1	492
6.6.1	win	2022-11-07	13:31:05	13:41:45	637784	5af491b6222e4d0001877572	538415421	1	main_z	11	advance_on_keypress_ZEE	64	stimuli_distractor_diamondtriangles.svg	stimuli_target_trianglecircles.svg	29	yes	57	0	438
6.6.1	win	2022-11-07	13:31:05	13:41:48	640857	5af491b6222e4d0001877572	538415421	1	main_z	11	main_z	65	stimuli_distractor_diamondtriangles.svg	stimuli_distractor_trianglediamonds.svg	38	no	0	1	2000
6.6.1	win	2022-11-07	13:31:05	13:41:48	640857	5af491b6222e4d0001877572	538415421	1	main_z	11	advance_on_keypress_ZEE	66	stimuli_distractor_diamondtriangles.svg	stimuli_distractor_trianglediamonds.svg	38	no	57	0	309
6.6.1	win	2022-11-07	13:31:05	13:41:51	643805	5af491b6222e4d0001877572	538415421	1	main_z	11	main_z	67	stimuli_distractor_trianglediamonds.svg	stimuli_distractor_trianglediamonds.svg	33	no	0	1	2000
6.6.1	win	2022-11-07	13:31:05	13:41:51	643805	5af491b6222e4d0001877572	538415421	1	main_z	11	advance_on_keypress_ZEE	68	stimuli_distractor_trianglediamonds.svg	stimuli_distractor_trianglediamonds.svg	33	no	57	0	358
6.6.1	win	2022-11-07	13:31:05	13:41:52	645447	5af491b6222e4d0001877572	538415421	1	main_z	11	main_z	69	stimuli_target_squarediamonds.svg	stimuli_distractor_trianglediamonds.svg	4	yes	44	1	645
6.6.1	win	2022-11-07	13:31:05	13:41:52	645447	5af491b6222e4d0001877572	538415421	1	main_z	11	advance_on_keypress_ZEE	70	stimuli_target_squarediamonds.svg	stimuli_distractor_trianglediamonds.svg	4	yes	57	0	374
6.6.1	win	2022-11-07	13:31:05	13:41:54	646967	5af491b6222e4d0001877572	538415421	1	main_z	11	main_z	71	stimuli_target_trianglesquares.svg	stimuli_distractor_trianglediamonds.svg	18	yes	44	1	500
6.6.1	win	2022-11-07	13:31:05	13:41:54	646967	5af491b6222e4d0001877572	538415421	1	main_z	11	advance_on_keypress_ZEE	72	stimuli_target_trianglesquares.svg	stimuli_distractor_trianglediamonds.svg	18	yes	57	0	412
6.6.1	win	2022-11-07	13:31:05	13:41:56	648657	5af491b6222e4d0001877572	538415421	1	main_z	11	main_z	73	stimuli_target_circletriangles.svg	stimuli_distractor_diamondtriangles.svg	5	yes	44	1	636
6.6.1	win	2022-11-07	13:31:05	13:41:56	648657	5af491b6222e4d0001877572	538415421	1	main_z	11	advance_on_keypress_ZEE	74	stimuli_target_circletriangles.svg	stimuli_distractor_diamondtriangles.svg	5	yes	57	0	390
6.6.1	win	2022-11-07	13:31:05	13:41:59	651681	5af491b6222e4d0001877572	538415421	1	main_z	11	main_z	75	stimuli_distractor_trianglediamonds.svg	stimuli_distractor_trianglediamonds.svg	34	no	0	1	2000
6.6.1	win	2022-11-07	13:31:05	13:41:59	651681	5af491b6222e4d0001877572	538415421	1	main_z	11	advance_on_keypress_ZEE	76	stimuli_distractor_trianglediamonds.svg	stimuli_distractor_trianglediamonds.svg	34	no	57	0	506
6.6.1	win	2022-11-07	13:31:05	13:42:00	653439	5af491b6222e4d0001877572	538415421	1	main_z	11	main_z	77	stimuli_target_circlediamonds.svg	stimuli_distractor_diamondtriangles.svg	6	yes	44	1	611
6.6.1	win	2022-11-07	13:31:05	13:42:00	653439	5af491b6222e4d0001877572	538415421	1	main_z	11	advance_on_keypress_ZEE	78	stimuli_target_circlediamonds.svg	stimuli_distractor_diamondtriangles.svg	6	yes	57	0	398
6.6.1	win	2022-11-07	13:31:05	13:42:02	654905	5af491b6222e4d0001877572	538415421	1	main_z	11	main_z	79	stimuli_distractor_trianglediamonds.svg	stimuli_target_squaretriangles.svg	11	yes	44	1	427
6.6.1	win	2022-11-07	13:31:05	13:42:02	654905	5af491b6222e4d0001877572	538415421	1	main_z	11	advance_on_keypress_ZEE	80	stimuli_distractor_trianglediamonds.svg	stimuli_target_squaretriangles.svg	11	yes	57	0	406
6.6.1	win	2022-11-07	13:31:05	13:42:03	656304	5af491b6222e4d0001877572	538415421	1	main_z	11	main_z	81	stimuli_target_circletriangles.svg	stimuli_distractor_trianglediamonds.svg	1	yes	44	1	363
6.6.1	win	2022-11-07	13:31:05	13:42:03	656304	5af491b6222e4d0001877572	538415421	1	main_z	11	advance_on_keypress_ZEE	82	stimuli_target_circletriangles.svg	stimuli_distractor_trianglediamonds.svg	1	yes	57	0	379
6.6.1	win	2022-11-07	13:31:05	13:42:05	657650	5af491b6222e4d0001877572	538415421	1	main_z	11	main_z	83	stimuli_distractor_trianglediamonds.svg	stimuli_target_circlediamonds.svg	10	yes	44	1	309
6.6.1	win	2022-11-07	13:31:05	13:42:05	657650	5af491b6222e4d0001877572	538415421	1	main_z	11	advance_on_keypress_ZEE	84	stimuli_distractor_trianglediamonds.svg	stimuli_target_circlediamonds.svg	10	yes	57	0	438
6.6.1	win	2022-11-07	13:31:05	13:42:06	658982	5af491b6222e4d0001877572	538415421	1	main_z	11	main_z	85	stimuli_distractor_trianglediamonds.svg	stimuli_target_squarediamonds.svg	12	yes	44	1	259
6.6.1	win	2022-11-07	13:31:05	13:42:06	658982	5af491b6222e4d0001877572	538415421	1	main_z	11	advance_on_keypress_ZEE	86	stimuli_distractor_trianglediamonds.svg	stimuli_target_squarediamonds.svg	12	yes	57	0	579
6.6.1	win	2022-11-07	13:31:05	13:42:07	660429	5af491b6222e4d0001877572	538415421	1	main_z	11	main_z	87	stimuli_distractor_diamondtriangles.svg	stimuli_distractor_trianglediamonds.svg	37	no	44	0	224
6.6.1	win	2022-11-07	13:31:05	13:42:07	660429	5af491b6222e4d0001877572	538415421	1	main_z	11	advance_on_keypress_ZEE	88	stimuli_distractor_diamondtriangles.svg	stimuli_distractor_trianglediamonds.svg	37	no	57	0	788
6.6.1	win	2022-11-07	13:31:05	13:42:09	662368	5af491b6222e4d0001877572	538415421	1	main_z	11	main_z	89	stimuli_distractor_trianglediamonds.svg	stimuli_target_diamondcircles.svg	27	yes	44	1	500
6.6.1	win	2022-11-07	13:31:05	13:42:09	662368	5af491b6222e4d0001877572	538415421	1	main_z	11	advance_on_keypress_ZEE	90	stimuli_distractor_trianglediamonds.svg	stimuli_target_diamondcircles.svg	27	yes	57	0	464
6.6.1	win	2022-11-07	13:31:05	13:42:11	663810	5af491b6222e4d0001877572	538415421	1	main_z	11	main_z	91	stimuli_distractor_diamondtriangles.svg	stimuli_target_squaretriangles.svg	15	yes	44	1	324
6.6.1	win	2022-11-07	13:31:05	13:42:11	663810	5af491b6222e4d0001877572	538415421	1	main_z	11	advance_on_keypress_ZEE	92	stimuli_distractor_diamondtriangles.svg	stimuli_target_squaretriangles.svg	15	yes	57	0	459
6.6.1	win	2022-11-07	13:31:05	13:42:12	665416	5af491b6222e4d0001877572	538415421	1	main_z	11	main_z	93	stimuli_target_diamondsquares.svg	stimuli_distractor_diamondtriangles.svg	24	yes	44	1	504
6.6.1	win	2022-11-07	13:31:05	13:42:12	665416	5af491b6222e4d0001877572	538415421	1	main_z	11	advance_on_keypress_ZEE	94	stimuli_target_diamondsquares.svg	stimuli_distractor_diamondtriangles.svg	24	yes	57	0	699
6.6.1	win	2022-11-07	13:31:05	13:42:14	667113	5af491b6222e4d0001877572	538415421	1	main_z	11	main_z	95	stimuli_target_trianglesquares.svg	stimuli_distractor_diamondtriangles.svg	22	yes	44	1	348
6.6.1	win	2022-11-07	13:31:05	13:42:14	667113	5af491b6222e4d0001877572	538415421	1	main_z	11	advance_on_keypress_ZEE	96	stimuli_target_trianglesquares.svg	stimuli_distractor_diamondtriangles.svg	22	yes	57	0	467
6.6.1	win	2022-11-07	13:31:05	13:42:16	668774	5af491b6222e4d0001877572	538415421	1	main_z	11	main_z	97	stimuli_distractor_trianglediamonds.svg	stimuli_target_circletriangles.svg	9	yes	44	1	541
6.6.1	win	2022-11-07	13:31:05	13:42:16	668774	5af491b6222e4d0001877572	538415421	1	main_z	11	advance_on_keypress_ZEE	98	stimuli_distractor_trianglediamonds.svg	stimuli_target_circletriangles.svg	9	yes	57	0	464
6.6.1	win	2022-11-07	13:31:05	13:42:17	670205	5af491b6222e4d0001877572	538415421	1	main_z	11	main_z	99	stimuli_distractor_trianglediamonds.svg	stimuli_target_diamondsquares.svg	28	yes	44	1	325
6.6.1	win	2022-11-07	13:31:05	13:42:17	670205	5af491b6222e4d0001877572	538415421	1	main_z	11	advance_on_keypress_ZEE	100	stimuli_distractor_trianglediamonds.svg	stimuli_target_diamondsquares.svg	28	yes	57	0	496
6.6.1	win	2022-11-07	13:31:05	13:42:19	671707	5af491b6222e4d0001877572	538415421	1	main_z	11	main_z	101	stimuli_target_circlediamonds.svg	stimuli_distractor_diamondtriangles.svg	6	yes	44	1	361
6.6.1	win	2022-11-07	13:31:05	13:42:19	671707	5af491b6222e4d0001877572	538415421	1	main_z	11	advance_on_keypress_ZEE	102	stimuli_target_circlediamonds.svg	stimuli_distractor_diamondtriangles.svg	6	yes	57	0	497
6.6.1	win	2022-11-07	13:31:05	13:42:20	673523	5af491b6222e4d0001877572	538415421	1	main_z	11	main_z	103	stimuli_distractor_diamondtriangles.svg	stimuli_distractor_trianglediamonds.svg	38	no	44	0	679
6.6.1	win	2022-11-07	13:31:05	13:42:20	673523	5af491b6222e4d0001877572	538415421	1	main_z	11	advance_on_keypress_ZEE	104	stimuli_distractor_diamondtriangles.svg	stimuli_distractor_trianglediamonds.svg	38	no	57	0	545
6.6.1	win	2022-11-07	13:31:05	13:42:22	675306	5af491b6222e4d0001877572	538415421	1	main_z	11	main_z	105	stimuli_target_diamondsquares.svg	stimuli_distractor_trianglediamonds.svg	20	yes	44	1	597
6.6.1	win	2022-11-07	13:31:05	13:42:22	675306	5af491b6222e4d0001877572	538415421	1	main_z	11	advance_on_keypress_ZEE	106	stimuli_target_diamondsquares.svg	stimuli_distractor_trianglediamonds.svg	20	yes	57	0	398
6.6.1	win	2022-11-07	13:31:05	13:42:24	676774	5af491b6222e4d0001877572	538415421	1	main_z	11	main_z	107	stimuli_distractor_diamondtriangles.svg	stimuli_target_trianglecircles.svg	29	yes	44	1	416
6.6.1	win	2022-11-07	13:31:05	13:42:24	676774	5af491b6222e4d0001877572	538415421	1	main_z	11	advance_on_keypress_ZEE	108	stimuli_distractor_diamondtriangles.svg	stimuli_target_trianglecircles.svg	29	yes	57	0	439
6.6.1	win	2022-11-07	13:31:05	13:42:25	678182	5af491b6222e4d0001877572	538415421	1	main_z	11	main_z	109	stimuli_distractor_diamondtriangles.svg	stimuli_target_diamondcircles.svg	31	yes	44	1	325
6.6.1	win	2022-11-07	13:31:05	13:42:25	678182	5af491b6222e4d0001877572	538415421	1	main_z	11	advance_on_keypress_ZEE	110	stimuli_distractor_diamondtriangles.svg	stimuli_target_diamondcircles.svg	31	yes	57	0	447
6.6.1	win	2022-11-07	13:31:05	13:42:26	679567	5af491b6222e4d0001877572	538415421	1	main_z	11	main_z	111	stimuli_distractor_trianglediamonds.svg	stimuli_target_trianglesquares.svg	26	yes	44	1	295
6.6.1	win	2022-11-07	13:31:05	13:42:26	679567	5af491b6222e4d0001877572	538415421	1	main_z	11	advance_on_keypress_ZEE	112	stimuli_distractor_trianglediamonds.svg	stimuli_target_trianglesquares.svg	26	yes	57	0	458
6.6.1	win	2022-11-07	13:31:05	13:42:28	681043	5af491b6222e4d0001877572	538415421	1	main_z	11	main_z	113	stimuli_distractor_trianglediamonds.svg	stimuli_distractor_diamondtriangles.svg	36	no	44	0	389
6.6.1	win	2022-11-07	13:31:05	13:42:28	681043	5af491b6222e4d0001877572	538415421	1	main_z	11	advance_on_keypress_ZEE	114	stimuli_distractor_trianglediamonds.svg	stimuli_distractor_diamondtriangles.svg	36	no	57	0	795
6.6.1	win	2022-11-07	13:31:05	13:42:30	682984	5af491b6222e4d0001877572	538415421	1	main_z	11	main_z	115	stimuli_target_circlediamonds.svg	stimuli_distractor_trianglediamonds.svg	2	yes	44	1	509
6.6.1	win	2022-11-07	13:31:05	13:42:30	682984	5af491b6222e4d0001877572	538415421	1	main_z	11	advance_on_keypress_ZEE	116	stimuli_target_circlediamonds.svg	stimuli_distractor_trianglediamonds.svg	2	yes	57	0	425
6.6.1	win	2022-11-07	13:31:05	13:42:31	684324	5af491b6222e4d0001877572	538415421	1	main_z	11	main_z	117	stimuli_distractor_trianglediamonds.svg	stimuli_target_trianglecircles.svg	25	yes	44	1	273
6.6.1	win	2022-11-07	13:31:05	13:42:31	684324	5af491b6222e4d0001877572	538415421	1	main_z	11	advance_on_keypress_ZEE	118	stimuli_distractor_trianglediamonds.svg	stimuli_target_trianglecircles.svg	25	yes	57	0	420
6.6.1	win	2022-11-07	13:31:05	13:42:34	687383	5af491b6222e4d0001877572	538415421	1	main_z	11	main_z	119	stimuli_distractor_trianglediamonds.svg	stimuli_distractor_diamondtriangles.svg	35	no	0	1	2000
6.6.1	win	2022-11-07	13:31:05	13:42:34	687383	5af491b6222e4d0001877572	538415421	1	main_z	11	advance_on_keypress_ZEE	120	stimuli_distractor_trianglediamonds.svg	stimuli_distractor_diamondtriangles.svg	35	no	57	0	611
6.6.1	win	2022-11-07	13:31:05	13:42:36	688898	5af491b6222e4d0001877572	538415421	1	main_z	11	main_z	121	stimuli_distractor_diamondtriangles.svg	stimuli_target_circlediamonds.svg	14	yes	44	1	268
6.6.1	win	2022-11-07	13:31:05	13:42:36	688898	5af491b6222e4d0001877572	538415421	1	main_z	11	advance_on_keypress_ZEE	122	stimuli_distractor_diamondtriangles.svg	stimuli_target_circlediamonds.svg	14	yes	57	0	384
6.6.1	win	2022-11-07	13:31:05	13:42:37	690169	5af491b6222e4d0001877572	538415421	1	main_z	11	main_z	123	stimuli_target_squarediamonds.svg	stimuli_distractor_trianglediamonds.svg	4	yes	44	1	240
6.6.1	win	2022-11-07	13:31:05	13:42:37	690169	5af491b6222e4d0001877572	538415421	1	main_z	11	advance_on_keypress_ZEE	124	stimuli_target_squarediamonds.svg	stimuli_distractor_trianglediamonds.svg	4	yes	57	0	392
6.6.1	win	2022-11-07	13:31:05	13:42:38	691418	5af491b6222e4d0001877572	538415421	1	main_z	11	main_z	125	stimuli_target_squaretriangles.svg	stimuli_distractor_trianglediamonds.svg	3	yes	44	1	223
6.6.1	win	2022-11-07	13:31:05	13:42:38	691418	5af491b6222e4d0001877572	538415421	1	main_z	11	advance_on_keypress_ZEE	126	stimuli_target_squaretriangles.svg	stimuli_distractor_trianglediamonds.svg	3	yes	57	0	447
6.6.1	win	2022-11-07	13:31:05	13:42:40	692737	5af491b6222e4d0001877572	538415421	1	main_z	11	main_z	127	stimuli_distractor_trianglediamonds.svg	stimuli_distractor_trianglediamonds.svg	33	no	44	0	227
6.6.1	win	2022-11-07	13:31:05	13:42:40	692737	5af491b6222e4d0001877572	538415421	1	main_z	11	advance_on_keypress_ZEE	128	stimuli_distractor_trianglediamonds.svg	stimuli_distractor_trianglediamonds.svg	33	no	57	0	999
6.6.1	win	2022-11-07	13:31:05	13:42:43	696376	5af491b6222e4d0001877572	538415421	1	main_z	11	main_z	129	stimuli_distractor_diamondtriangles.svg	stimuli_distractor_diamondtriangles.svg	39	no	0	1	2000
6.6.1	win	2022-11-07	13:31:05	13:42:43	696376	5af491b6222e4d0001877572	538415421	1	main_z	11	advance_on_keypress_ZEE	130	stimuli_distractor_diamondtriangles.svg	stimuli_distractor_diamondtriangles.svg	39	no	57	0	352
6.6.1	win	2022-11-07	13:31:05	13:42:45	697663	5af491b6222e4d0001877572	538415421	1	main_z	11	main_z	131	stimuli_target_diamondcircles.svg	stimuli_distractor_trianglediamonds.svg	19	yes	44	1	290
6.6.1	win	2022-11-07	13:31:05	13:42:45	697663	5af491b6222e4d0001877572	538415421	1	main_z	11	advance_on_keypress_ZEE	132	stimuli_target_diamondcircles.svg	stimuli_distractor_trianglediamonds.svg	19	yes	57	0	406
6.6.1	win	2022-11-07	13:31:05	13:42:46	698969	5af491b6222e4d0001877572	538415421	1	main_z	11	main_z	133	stimuli_target_squaretriangles.svg	stimuli_distractor_diamondtriangles.svg	7	yes	44	1	264
6.6.1	win	2022-11-07	13:31:05	13:42:46	698969	5af491b6222e4d0001877572	538415421	1	main_z	11	advance_on_keypress_ZEE	134	stimuli_target_squaretriangles.svg	stimuli_distractor_diamondtriangles.svg	7	yes	57	0	456
6.6.1	win	2022-11-07	13:31:05	13:42:47	700282	5af491b6222e4d0001877572	538415421	1	main_z	11	main_z	135	stimuli_distractor_diamondtriangles.svg	stimuli_target_diamondsquares.svg	32	yes	44	1	212
6.6.1	win	2022-11-07	13:31:05	13:42:47	700282	5af491b6222e4d0001877572	538415421	1	main_z	11	advance_on_keypress_ZEE	136	stimuli_distractor_diamondtriangles.svg	stimuli_target_diamondsquares.svg	32	yes	57	0	411
6.6.1	win	2022-11-07	13:31:05	13:42:48	701562	5af491b6222e4d0001877572	538415421	1	main_z	11	main_z	137	stimuli_target_trianglecircles.svg	stimuli_distractor_diamondtriangles.svg	21	yes	44	1	243
6.6.1	win	2022-11-07	13:31:05	13:42:48	701562	5af491b6222e4d0001877572	538415421	1	main_z	11	advance_on_keypress_ZEE	138	stimuli_target_trianglecircles.svg	stimuli_distractor_diamondtriangles.svg	21	yes	57	0	457
6.6.1	win	2022-11-07	13:31:05	13:42:52	704652	5af491b6222e4d0001877572	538415421	1	main_z	11	main_z	139	stimuli_distractor_trianglediamonds.svg	stimuli_distractor_trianglediamonds.svg	34	no	0	1	2000
6.6.1	win	2022-11-07	13:31:05	13:42:52	704652	5af491b6222e4d0001877572	538415421	1	main_z	11	advance_on_keypress_ZEE	140	stimuli_distractor_trianglediamonds.svg	stimuli_distractor_trianglediamonds.svg	34	no	57	0	518
6.6.1	win	2022-11-07	13:31:05	13:42:53	706335	5af491b6222e4d0001877572	538415421	1	main_z	11	main_z	141	stimuli_distractor_diamondtriangles.svg	stimuli_target_trianglesquares.svg	30	yes	44	1	520
6.6.1	win	2022-11-07	13:31:05	13:42:53	706335	5af491b6222e4d0001877572	538415421	1	main_z	11	advance_on_keypress_ZEE	142	stimuli_distractor_diamondtriangles.svg	stimuli_target_trianglesquares.svg	30	yes	57	0	413
6.6.1	win	2022-11-07	13:31:05	13:42:55	707696	5af491b6222e4d0001877572	538415421	1	main_z	11	main_z	143	stimuli_distractor_diamondtriangles.svg	stimuli_distractor_diamondtriangles.svg	40	no	44	0	299
6.6.1	win	2022-11-07	13:31:05	13:42:55	707696	5af491b6222e4d0001877572	538415421	1	main_z	11	advance_on_keypress_ZEE	144	stimuli_distractor_diamondtriangles.svg	stimuli_distractor_diamondtriangles.svg	40	no	57	0	755
6.6.1	win	2022-11-07	13:31:05	13:42:57	710186	5af491b6222e4d0001877572	538415421	1	main_z	11	main_z	145	stimuli_distractor_trianglediamonds.svg	stimuli_target_squaretriangles.svg	11	yes	44	1	1090
6.6.1	win	2022-11-07	13:31:05	13:42:57	710186	5af491b6222e4d0001877572	538415421	1	main_z	11	advance_on_keypress_ZEE	146	stimuli_distractor_trianglediamonds.svg	stimuli_target_squaretriangles.svg	11	yes	57	0	609
6.6.1	win	2022-11-07	13:31:05	13:42:59	711675	5af491b6222e4d0001877572	538415421	1	main_z	11	main_z	147	stimuli_target_squarediamonds.svg	stimuli_distractor_diamondtriangles.svg	8	yes	44	1	248
6.6.1	win	2022-11-07	13:31:05	13:42:59	711675	5af491b6222e4d0001877572	538415421	1	main_z	11	advance_on_keypress_ZEE	148	stimuli_target_squarediamonds.svg	stimuli_distractor_diamondtriangles.svg	8	yes	57	0	409
6.6.1	win	2022-11-07	13:31:05	13:43:00	712981	5af491b6222e4d0001877572	538415421	1	main_z	11	main_z	149	stimuli_distractor_diamondtriangles.svg	stimuli_target_circletriangles.svg	13	yes	44	1	255
6.6.1	win	2022-11-07	13:31:05	13:43:00	712981	5af491b6222e4d0001877572	538415421	1	main_z	11	advance_on_keypress_ZEE	150	stimuli_distractor_diamondtriangles.svg	stimuli_target_circletriangles.svg	13	yes	57	0	657
6.6.1	win	2022-11-07	13:31:05	13:43:01	714502	5af491b6222e4d0001877572	538415421	1	main_z	11	main_z	151	stimuli_distractor_diamondtriangles.svg	stimuli_target_squarediamonds.svg	16	yes	44	1	227
6.6.1	win	2022-11-07	13:31:05	13:43:01	714502	5af491b6222e4d0001877572	538415421	1	main_z	11	advance_on_keypress_ZEE	152	stimuli_distractor_diamondtriangles.svg	stimuli_target_squarediamonds.svg	16	yes	57	0	481
6.6.1	win	2022-11-07	13:31:05	13:43:03	715851	5af491b6222e4d0001877572	538415421	1	main_z	11	main_z	153	stimuli_target_circletriangles.svg	stimuli_distractor_diamondtriangles.svg	5	yes	44	1	228
6.6.1	win	2022-11-07	13:31:05	13:43:03	715851	5af491b6222e4d0001877572	538415421	1	main_z	11	advance_on_keypress_ZEE	154	stimuli_target_circletriangles.svg	stimuli_distractor_diamondtriangles.svg	5	yes	57	0	479
6.6.1	win	2022-11-07	13:31:05	13:43:04	717188	5af491b6222e4d0001877572	538415421	1	main_z	11	main_z	155	stimuli_target_trianglecircles.svg	stimuli_distractor_trianglediamonds.svg	17	yes	44	1	232
6.6.1	win	2022-11-07	13:31:05	13:43:04	717188	5af491b6222e4d0001877572	538415421	1	main_z	11	advance_on_keypress_ZEE	156	stimuli_target_trianglecircles.svg	stimuli_distractor_trianglediamonds.svg	17	yes	57	0	947
6.6.1	win	2022-11-07	13:31:05	13:43:06	719055	5af491b6222e4d0001877572	538415421	1	main_z	11	main_z	157	stimuli_target_diamondcircles.svg	stimuli_distractor_diamondtriangles.svg	23	yes	44	1	268
6.6.1	win	2022-11-07	13:31:05	13:43:06	719055	5af491b6222e4d0001877572	538415421	1	main_z	11	advance_on_keypress_ZEE	158	stimuli_target_diamondcircles.svg	stimuli_distractor_diamondtriangles.svg	23	yes	57	0	417
6.6.1	win	2022-11-07	13:31:05	13:43:07	720339	5af491b6222e4d0001877572	538415421	1	main_z	11	main_z	159	stimuli_target_trianglesquares.svg	stimuli_distractor_trianglediamonds.svg	18	yes	44	1	219
6.6.1	win	2022-11-07	13:31:05	13:43:07	720339	5af491b6222e4d0001877572	538415421	1	main_z	11	advance_on_keypress_ZEE	160	stimuli_target_trianglesquares.svg	stimuli_distractor_trianglediamonds.svg	18	yes	57	0	480