build	computer.platform	date	time	timestamp	time_elapsed_ms	subject	group	session	blockcode	blocknum	trialcode	trialnum	stimulus_left	stimulus_right	stim_index	target_present	response	correct	latency
6.6.1	win	2022-11-07	13:52:31	13:54:24	111463	5d1beb9c9e033e0017a725dc	115073660	1	practice_z	5	practice_z	1	stimuli_distractor_diamondtriangles.svg	stimuli_target_circletriangles.svg	7	yes	0	0	2000
6.6.1	win	2022-11-07	13:52:31	13:54:24	111463	5d1beb9c9e033e0017a725dc	115073660	1	practice_z	5	advance_on_keypress_ZEE	2	stimuli_distractor_diamondtriangles.svg	stimuli_target_circletriangles.svg	7	yes	57	0	1313
6.6.1	win	2022-11-07	13:52:31	13:54:27	114738	5d1beb9c9e033e0017a725dc	115073660	1	practice_z	5	practice_z	3	stimuli_distractor_trianglediamonds.svg	stimuli_target_diamondcircles.svg	12	yes	44	1	307
6.6.1	win	2022-11-07	13:52:31	13:54:27	114738	5d1beb9c9e033e0017a725dc	115073660	1	practice_z	5	advance_on_keypress_ZEE	4	stimuli_distractor_trianglediamonds.svg	stimuli_target_diamondcircles.svg	12	yes	57	0	607
6.6.1	win	2022-11-07	13:52:31	13:54:30	117801	5d1beb9c9e033e0017a725dc	115073660	1	practice_z	5	practice_z	5	stimuli_distractor_diamondtriangles.svg	stimuli_distractor_trianglediamonds.svg	14	no	44	0	821
6.6.1	win	2022-11-07	13:52:31	13:54:30	117801	5d1beb9c9e033e0017a725dc	115073660	1	practice_z	5	advance_on_keypress_ZEE	6	stimuli_distractor_diamondtriangles.svg	stimuli_distractor_trianglediamonds.svg	14	no	57	0	548
6.6.1	win	2022-11-07	13:52:31	13:54:33	120380	5d1beb9c9e033e0017a725dc	115073660	1	practice_z	5	practice_z	7	stimuli_distractor_trianglediamonds.svg	stimuli_target_circlediamonds.svg	10	yes	44	1	374
6.6.1	win	2022-11-07	13:52:31	13:54:33	120380	5d1beb9c9e033e0017a725dc	115073660	1	practice_z	5	advance_on_keypress_ZEE	8	stimuli_distractor_trianglediamonds.svg	stimuli_target_circlediamonds.svg	10	yes	57	0	1342
6.6.1	win	2022-11-07	13:52:31	13:54:36	123706	5d1beb9c9e033e0017a725dc	115073660	1	practice_z	5	practice_z	9	stimuli_distractor_diamondtriangles.svg	stimuli_distractor_diamondtriangles.svg	13	no	44	0	343
6.6.1	win	2022-11-07	13:52:31	13:54:36	123706	5d1beb9c9e033e0017a725dc	115073660	1	practice_z	5	advance_on_keypress_ZEE	10	stimuli_distractor_diamondtriangles.svg	stimuli_distractor_diamondtriangles.svg	13	no	57	0	1489
6.6.1	win	2022-11-07	13:52:31	13:54:39	127242	5d1beb9c9e033e0017a725dc	115073660	1	practice_z	5	practice_z	11	stimuli_target_circlediamonds.svg	stimuli_distractor_trianglediamonds.svg	4	yes	44	1	412
6.6.1	win	2022-11-07	13:52:31	13:54:39	127242	5d1beb9c9e033e0017a725dc	115073660	1	practice_z	5	advance_on_keypress_ZEE	12	stimuli_target_circlediamonds.svg	stimuli_distractor_trianglediamonds.svg	4	yes	57	0	1123
6.6.1	win	2022-11-07	13:52:31	13:54:43	130603	5d1beb9c9e033e0017a725dc	115073660	1	practice_z	5	practice_z	13	stimuli_target_diamondsquares.svg	stimuli_distractor_trianglediamonds.svg	6	yes	44	1	590
6.6.1	win	2022-11-07	13:52:31	13:54:43	130603	5d1beb9c9e033e0017a725dc	115073660	1	practice_z	5	advance_on_keypress_ZEE	14	stimuli_target_diamondsquares.svg	stimuli_distractor_trianglediamonds.svg	6	yes	57	0	638
6.6.1	win	2022-11-07	13:52:31	13:54:45	133307	5d1beb9c9e033e0017a725dc	115073660	1	practice_z	5	practice_z	15	stimuli_target_circlediamonds.svg	stimuli_distractor_diamondtriangles.svg	1	yes	44	1	427
6.6.1	win	2022-11-07	13:52:31	13:54:45	133307	5d1beb9c9e033e0017a725dc	115073660	1	practice_z	5	advance_on_keypress_ZEE	16	stimuli_target_circlediamonds.svg	stimuli_distractor_diamondtriangles.svg	1	yes	57	0	826
6.6.1	win	2022-11-07	13:52:31	13:54:48	136140	5d1beb9c9e033e0017a725dc	115073660	1	practice_z	5	practice_z	17	stimuli_distractor_diamondtriangles.svg	stimuli_target_trianglecircles.svg	9	yes	44	1	360
6.6.1	win	2022-11-07	13:52:31	13:54:48	136140	5d1beb9c9e033e0017a725dc	115073660	1	practice_z	5	advance_on_keypress_ZEE	18	stimuli_distractor_diamondtriangles.svg	stimuli_target_trianglecircles.svg	9	yes	57	0	1258
6.6.1	win	2022-11-07	13:52:31	13:54:52	139356	5d1beb9c9e033e0017a725dc	115073660	1	practice_z	5	practice_z	19	stimuli_distractor_trianglediamonds.svg	stimuli_distractor_diamondtriangles.svg	16	no	44	0	310
6.6.1	win	2022-11-07	13:52:31	13:54:52	139356	5d1beb9c9e033e0017a725dc	115073660	1	practice_z	5	advance_on_keypress_ZEE	20	stimuli_distractor_trianglediamonds.svg	stimuli_distractor_diamondtriangles.svg	16	no	57	0	1129
6.6.1	win	2022-11-07	13:52:31	13:54:55	142472	5d1beb9c9e033e0017a725dc	115073660	1	practice_z	5	practice_z	21	stimuli_distractor_trianglediamonds.svg	stimuli_distractor_trianglediamonds.svg	15	no	44	0	330
6.6.1	win	2022-11-07	13:52:31	13:54:55	142472	5d1beb9c9e033e0017a725dc	115073660	1	practice_z	5	advance_on_keypress_ZEE	22	stimuli_distractor_trianglediamonds.svg	stimuli_distractor_trianglediamonds.svg	15	no	57	0	628
6.6.1	win	2022-11-07	13:52:31	13:54:57	145170	5d1beb9c9e033e0017a725dc	115073660	1	practice_z	5	practice_z	23	stimuli_target_squarediamonds.svg	stimuli_distractor_diamondtriangles.svg	2	yes	44	1	402
6.6.1	win	2022-11-07	13:52:31	13:54:57	145170	5d1beb9c9e033e0017a725dc	115073660	1	practice_z	5	advance_on_keypress_ZEE	24	stimuli_target_squarediamonds.svg	stimuli_distractor_diamondtriangles.svg	2	yes	57	0	1217
6.6.1	win	2022-11-07	13:52:31	13:55:01	148436	5d1beb9c9e033e0017a725dc	115073660	1	practice_z	5	practice_z	25	stimuli_distractor_trianglediamonds.svg	stimuli_target_squarediamonds.svg	11	yes	44	1	407
6.6.1	win	2022-11-07	13:52:31	13:55:01	148436	5d1beb9c9e033e0017a725dc	115073660	1	practice_z	5	advance_on_keypress_ZEE	26	stimuli_distractor_trianglediamonds.svg	stimuli_target_squarediamonds.svg	11	yes	57	0	79
6.6.1	win	2022-11-07	13:52:31	13:55:03	150630	5d1beb9c9e033e0017a725dc	115073660	1	practice_z	5	practice_z	27	stimuli_target_squarediamonds.svg	stimuli_distractor_trianglediamonds.svg	5	yes	44	1	483
6.6.1	win	2022-11-07	13:52:31	13:55:03	150630	5d1beb9c9e033e0017a725dc	115073660	1	practice_z	5	advance_on_keypress_ZEE	28	stimuli_target_squarediamonds.svg	stimuli_distractor_trianglediamonds.svg	5	yes	57	0	1967
6.6.1	win	2022-11-07	13:52:31	13:55:07	154813	5d1beb9c9e033e0017a725dc	115073660	1	practice_z	5	practice_z	29	stimuli_target_diamondsquares.svg	stimuli_distractor_diamondtriangles.svg	3	yes	44	1	567
6.6.1	win	2022-11-07	13:52:31	13:55:07	154813	5d1beb9c9e033e0017a725dc	115073660	1	practice_z	5	advance_on_keypress_ZEE	30	stimuli_target_diamondsquares.svg	stimuli_distractor_diamondtriangles.svg	3	yes	57	0	2344
6.6.1	win	2022-11-07	13:52:31	13:55:12	159390	5d1beb9c9e033e0017a725dc	115073660	1	practice_z	5	practice_z	31	stimuli_distractor_diamondtriangles.svg	stimuli_target_diamondcircles.svg	8	yes	44	1	594
6.6.1	win	2022-11-07	13:52:31	13:55:12	159390	5d1beb9c9e033e0017a725dc	115073660	1	practice_z	5	advance_on_keypress_ZEE	32	stimuli_distractor_diamondtriangles.svg	stimuli_target_diamondcircles.svg	8	yes	57	0	34
6.6.1	win	2022-11-07	13:52:31	13:55:19	166754	5d1beb9c9e033e0017a725dc	115073660	1	main_z	7	main_z	1	stimuli_target_trianglesquares.svg	stimuli_distractor_diamondtriangles.svg	22	yes	44	1	388
6.6.1	win	2022-11-07	13:52:31	13:55:19	166754	5d1beb9c9e033e0017a725dc	115073660	1	main_z	7	advance_on_keypress_ZEE	2	stimuli_target_trianglesquares.svg	stimuli_distractor_diamondtriangles.svg	22	yes	57	0	1300
6.6.1	win	2022-11-07	13:52:31	13:55:21	169084	5d1beb9c9e033e0017a725dc	115073660	1	main_z	7	main_z	3	stimuli_distractor_diamondtriangles.svg	stimuli_distractor_trianglediamonds.svg	38	no	44	0	358
6.6.1	win	2022-11-07	13:52:31	13:55:21	169084	5d1beb9c9e033e0017a725dc	115073660	1	main_z	7	advance_on_keypress_ZEE	4	stimuli_distractor_diamondtriangles.svg	stimuli_distractor_trianglediamonds.svg	38	no	57	0	655
6.6.1	win	2022-11-07	13:52:31	13:55:23	170787	5d1beb9c9e033e0017a725dc	115073660	1	main_z	7	main_z	5	stimuli_target_squaretriangles.svg	stimuli_distractor_diamondtriangles.svg	7	yes	44	1	385
6.6.1	win	2022-11-07	13:52:31	13:55:23	170787	5d1beb9c9e033e0017a725dc	115073660	1	main_z	7	advance_on_keypress_ZEE	6	stimuli_target_squaretriangles.svg	stimuli_distractor_diamondtriangles.svg	7	yes	57	0	827
6.6.1	win	2022-11-07	13:52:31	13:55:26	174262	5d1beb9c9e033e0017a725dc	115073660	1	main_z	7	main_z	7	stimuli_distractor_trianglediamonds.svg	stimuli_target_squarediamonds.svg	12	yes	0	0	2000
6.6.1	win	2022-11-07	13:52:31	13:55:26	174262	5d1beb9c9e033e0017a725dc	115073660	1	main_z	7	advance_on_keypress_ZEE	8	stimuli_distractor_trianglediamonds.svg	stimuli_target_squarediamonds.svg	12	yes	57	0	664
6.6.1	win	2022-11-07	13:52:31	13:55:28	176126	5d1beb9c9e033e0017a725dc	115073660	1	main_z	7	main_z	9	stimuli_target_diamondsquares.svg	stimuli_distractor_trianglediamonds.svg	20	yes	44	1	548
6.6.1	win	2022-11-07	13:52:31	13:55:28	176126	5d1beb9c9e033e0017a725dc	115073660	1	main_z	7	advance_on_keypress_ZEE	10	stimuli_target_diamondsquares.svg	stimuli_distractor_trianglediamonds.svg	20	yes	57	0	950
6.6.1	win	2022-11-07	13:52:31	13:55:32	179730	5d1beb9c9e033e0017a725dc	115073660	1	main_z	7	main_z	11	stimuli_distractor_diamondtriangles.svg	stimuli_target_circletriangles.svg	13	yes	0	0	2000
6.6.1	win	2022-11-07	13:52:31	13:55:32	179730	5d1beb9c9e033e0017a725dc	115073660	1	main_z	7	advance_on_keypress_ZEE	12	stimuli_distractor_diamondtriangles.svg	stimuli_target_circletriangles.svg	13	yes	57	0	1030
6.6.1	win	2022-11-07	13:52:31	13:55:34	181919	5d1beb9c9e033e0017a725dc	115073660	1	main_z	7	main_z	13	stimuli_target_diamondcircles.svg	stimuli_distractor_trianglediamonds.svg	19	yes	44	1	524
6.6.1	win	2022-11-07	13:52:31	13:55:34	181919	5d1beb9c9e033e0017a725dc	115073660	1	main_z	7	advance_on_keypress_ZEE	14	stimuli_target_diamondcircles.svg	stimuli_distractor_trianglediamonds.svg	19	yes	57	0	958
6.6.1	win	2022-11-07	13:52:31	13:55:37	184537	5d1beb9c9e033e0017a725dc	115073660	1	main_z	7	main_z	15	stimuli_distractor_trianglediamonds.svg	stimuli_target_squaretriangles.svg	11	yes	44	1	1015
6.6.1	win	2022-11-07	13:52:31	13:55:37	184537	5d1beb9c9e033e0017a725dc	115073660	1	main_z	7	advance_on_keypress_ZEE	16	stimuli_distractor_trianglediamonds.svg	stimuli_target_squaretriangles.svg	11	yes	57	0	7767
6.6.1	win	2022-11-07	13:52:31	13:55:46	193490	5d1beb9c9e033e0017a725dc	115073660	1	main_z	7	main_z	17	stimuli_distractor_trianglediamonds.svg	stimuli_target_circletriangles.svg	9	yes	44	1	535
6.6.1	win	2022-11-07	13:52:31	13:55:46	193490	5d1beb9c9e033e0017a725dc	115073660	1	main_z	7	advance_on_keypress_ZEE	18	stimuli_distractor_trianglediamonds.svg	stimuli_target_circletriangles.svg	9	yes	57	0	858
6.6.1	win	2022-11-07	13:52:31	13:55:49	197009	5d1beb9c9e033e0017a725dc	115073660	1	main_z	7	main_z	19	stimuli_distractor_diamondtriangles.svg	stimuli_distractor_diamondtriangles.svg	39	no	0	1	2000
6.6.1	win	2022-11-07	13:52:31	13:55:49	197009	5d1beb9c9e033e0017a725dc	115073660	1	main_z	7	advance_on_keypress_ZEE	20	stimuli_distractor_diamondtriangles.svg	stimuli_distractor_diamondtriangles.svg	39	no	57	0	516
6.6.1	win	2022-11-07	13:52:31	13:55:51	198865	5d1beb9c9e033e0017a725dc	115073660	1	main_z	7	main_z	21	stimuli_distractor_trianglediamonds.svg	stimuli_target_diamondsquares.svg	28	yes	44	1	687
6.6.1	win	2022-11-07	13:52:31	13:55:51	198865	5d1beb9c9e033e0017a725dc	115073660	1	main_z	7	advance_on_keypress_ZEE	22	stimuli_distractor_trianglediamonds.svg	stimuli_target_diamondsquares.svg	28	yes	57	0	1298
6.6.1	win	2022-11-07	13:52:31	13:55:54	201481	5d1beb9c9e033e0017a725dc	115073660	1	main_z	7	main_z	23	stimuli_target_diamondcircles.svg	stimuli_distractor_diamondtriangles.svg	23	yes	44	1	669
6.6.1	win	2022-11-07	13:52:31	13:55:54	201481	5d1beb9c9e033e0017a725dc	115073660	1	main_z	7	advance_on_keypress_ZEE	24	stimuli_target_diamondcircles.svg	stimuli_distractor_diamondtriangles.svg	23	yes	57	0	1082
6.6.1	win	2022-11-07	13:52:31	13:55:56	204009	5d1beb9c9e033e0017a725dc	115073660	1	main_z	7	main_z	25	stimuli_distractor_diamondtriangles.svg	stimuli_distractor_trianglediamonds.svg	37	no	44	0	798
6.6.1	win	2022-11-07	13:52:31	13:55:56	204009	5d1beb9c9e033e0017a725dc	115073660	1	main_z	7	advance_on_keypress_ZEE	26	stimuli_distractor_diamondtriangles.svg	stimuli_distractor_trianglediamonds.svg	37	no	57	0	637
6.6.1	win	2022-11-07	13:52:31	13:55:58	205919	5d1beb9c9e033e0017a725dc	115073660	1	main_z	7	main_z	27	stimuli_target_squarediamonds.svg	stimuli_distractor_diamondtriangles.svg	8	yes	44	1	619
6.6.1	win	2022-11-07	13:52:31	13:55:58	205919	5d1beb9c9e033e0017a725dc	115073660	1	main_z	7	advance_on_keypress_ZEE	28	stimuli_target_squarediamonds.svg	stimuli_distractor_diamondtriangles.svg	8	yes	57	0	897
6.6.1	win	2022-11-07	13:52:31	13:56:02	209468	5d1beb9c9e033e0017a725dc	115073660	1	main_z	7	main_z	29	stimuli_distractor_trianglediamonds.svg	stimuli_distractor_trianglediamonds.svg	33	no	0	1	2000
6.6.1	win	2022-11-07	13:52:31	13:56:02	209468	5d1beb9c9e033e0017a725dc	115073660	1	main_z	7	advance_on_keypress_ZEE	30	stimuli_distractor_trianglediamonds.svg	stimuli_distractor_trianglediamonds.svg	33	no	57	0	643
6.6.1	win	2022-11-07	13:52:31	13:56:04	211454	5d1beb9c9e033e0017a725dc	115073660	1	main_z	7	main_z	31	stimuli_distractor_diamondtriangles.svg	stimuli_target_trianglecircles.svg	29	yes	44	1	688
6.6.1	win	2022-11-07	13:52:31	13:56:04	211454	5d1beb9c9e033e0017a725dc	115073660	1	main_z	7	advance_on_keypress_ZEE	32	stimuli_distractor_diamondtriangles.svg	stimuli_target_trianglecircles.svg	29	yes	57	0	780
6.6.1	win	2022-11-07	13:52:31	13:56:06	213996	5d1beb9c9e033e0017a725dc	115073660	1	main_z	7	main_z	33	stimuli_distractor_diamondtriangles.svg	stimuli_target_diamondsquares.svg	32	yes	44	1	1116
6.6.1	win	2022-11-07	13:52:31	13:56:06	213996	5d1beb9c9e033e0017a725dc	115073660	1	main_z	7	advance_on_keypress_ZEE	34	stimuli_distractor_diamondtriangles.svg	stimuli_target_diamondsquares.svg	32	yes	57	0	615
6.6.1	win	2022-11-07	13:52:31	13:56:08	215938	5d1beb9c9e033e0017a725dc	115073660	1	main_z	7	main_z	35	stimuli_target_circletriangles.svg	stimuli_distractor_diamondtriangles.svg	5	yes	44	1	677
6.6.1	win	2022-11-07	13:52:31	13:56:08	215938	5d1beb9c9e033e0017a725dc	115073660	1	main_z	7	advance_on_keypress_ZEE	36	stimuli_target_circletriangles.svg	stimuli_distractor_diamondtriangles.svg	5	yes	57	0	634
6.6.1	win	2022-11-07	13:52:31	13:56:11	218420	5d1beb9c9e033e0017a725dc	115073660	1	main_z	7	main_z	37	stimuli_distractor_trianglediamonds.svg	stimuli_target_trianglecircles.svg	25	yes	44	1	1199
6.6.1	win	2022-11-07	13:52:31	13:56:11	218420	5d1beb9c9e033e0017a725dc	115073660	1	main_z	7	advance_on_keypress_ZEE	38	stimuli_distractor_trianglediamonds.svg	stimuli_target_trianglecircles.svg	25	yes	57	0	575
6.6.1	win	2022-11-07	13:52:31	13:56:12	220222	5d1beb9c9e033e0017a725dc	115073660	1	main_z	7	main_z	39	stimuli_distractor_trianglediamonds.svg	stimuli_target_circlediamonds.svg	10	yes	44	1	583
6.6.1	win	2022-11-07	13:52:31	13:56:12	220222	5d1beb9c9e033e0017a725dc	115073660	1	main_z	7	advance_on_keypress_ZEE	40	stimuli_distractor_trianglediamonds.svg	stimuli_target_circlediamonds.svg	10	yes	57	0	535
6.6.1	win	2022-11-07	13:52:31	13:56:16	223395	5d1beb9c9e033e0017a725dc	115073660	1	main_z	7	main_z	41	stimuli_distractor_diamondtriangles.svg	stimuli_distractor_diamondtriangles.svg	40	no	0	1	2000
6.6.1	win	2022-11-07	13:52:31	13:56:16	223395	5d1beb9c9e033e0017a725dc	115073660	1	main_z	7	advance_on_keypress_ZEE	42	stimuli_distractor_diamondtriangles.svg	stimuli_distractor_diamondtriangles.svg	40	no	57	0	640
6.6.1	win	2022-11-07	13:52:31	13:56:17	225315	5d1beb9c9e033e0017a725dc	115073660	1	main_z	7	main_z	43	stimuli_distractor_trianglediamonds.svg	stimuli_target_trianglesquares.svg	26	yes	44	1	637
6.6.1	win	2022-11-07	13:52:31	13:56:17	225315	5d1beb9c9e033e0017a725dc	115073660	1	main_z	7	advance_on_keypress_ZEE	44	stimuli_distractor_trianglediamonds.svg	stimuli_target_trianglesquares.svg	26	yes	57	0	507
6.6.1	win	2022-11-07	13:52:31	13:56:19	227016	5d1beb9c9e033e0017a725dc	115073660	1	main_z	7	main_z	45	stimuli_target_circlediamonds.svg	stimuli_distractor_diamondtriangles.svg	6	yes	44	1	542
6.6.1	win	2022-11-07	13:52:31	13:56:19	227016	5d1beb9c9e033e0017a725dc	115073660	1	main_z	7	advance_on_keypress_ZEE	46	stimuli_target_circlediamonds.svg	stimuli_distractor_diamondtriangles.svg	6	yes	57	0	368
6.6.1	win	2022-11-07	13:52:31	13:56:21	228514	5d1beb9c9e033e0017a725dc	115073660	1	main_z	7	main_z	47	stimuli_target_trianglecircles.svg	stimuli_distractor_diamondtriangles.svg	21	yes	44	1	456
6.6.1	win	2022-11-07	13:52:31	13:56:21	228514	5d1beb9c9e033e0017a725dc	115073660	1	main_z	7	advance_on_keypress_ZEE	48	stimuli_target_trianglecircles.svg	stimuli_distractor_diamondtriangles.svg	21	yes	57	0	356
6.6.1	win	2022-11-07	13:52:31	13:56:24	231516	5d1beb9c9e033e0017a725dc	115073660	1	main_z	7	main_z	49	stimuli_distractor_trianglediamonds.svg	stimuli_distractor_trianglediamonds.svg	34	no	0	1	2000
6.6.1	win	2022-11-07	13:52:31	13:56:24	231516	5d1beb9c9e033e0017a725dc	115073660	1	main_z	7	advance_on_keypress_ZEE	50	stimuli_distractor_trianglediamonds.svg	stimuli_distractor_trianglediamonds.svg	34	no	57	0	716
6.6.1	win	2022-11-07	13:52:31	13:56:26	233346	5d1beb9c9e033e0017a725dc	115073660	1	main_z	7	main_z	51	stimuli_distractor_diamondtriangles.svg	stimuli_target_squarediamonds.svg	16	yes	44	1	455
6.6.1	win	2022-11-07	13:52:31	13:56:26	233346	5d1beb9c9e033e0017a725dc	115073660	1	main_z	7	advance_on_keypress_ZEE	52	stimuli_distractor_diamondtriangles.svg	stimuli_target_squarediamonds.svg	16	yes	57	0	4483
6.6.1	win	2022-11-07	13:52:31	13:56:31	239177	5d1beb9c9e033e0017a725dc	115073660	1	main_z	7	main_z	53	stimuli_distractor_diamondtriangles.svg	stimuli_target_diamondcircles.svg	31	yes	44	1	695
6.6.1	win	2022-11-07	13:52:31	13:56:31	239177	5d1beb9c9e033e0017a725dc	115073660	1	main_z	7	advance_on_keypress_ZEE	54	stimuli_distractor_diamondtriangles.svg	stimuli_target_diamondcircles.svg	31	yes	57	0	418
6.6.1	win	2022-11-07	13:52:31	13:56:34	242249	5d1beb9c9e033e0017a725dc	115073660	1	main_z	7	main_z	55	stimuli_distractor_diamondtriangles.svg	stimuli_target_circlediamonds.svg	14	yes	0	0	2000
6.6.1	win	2022-11-07	13:52:31	13:56:34	242249	5d1beb9c9e033e0017a725dc	115073660	1	main_z	7	advance_on_keypress_ZEE	56	stimuli_distractor_diamondtriangles.svg	stimuli_target_circlediamonds.svg	14	yes	57	0	928
6.6.1	win	2022-11-07	13:52:31	13:56:38	245773	5d1beb9c9e033e0017a725dc	115073660	1	main_z	7	main_z	57	stimuli_distractor_trianglediamonds.svg	stimuli_distractor_diamondtriangles.svg	35	no	44	0	1946
6.6.1	win	2022-11-07	13:52:31	13:56:38	245773	5d1beb9c9e033e0017a725dc	115073660	1	main_z	7	advance_on_keypress_ZEE	58	stimuli_distractor_trianglediamonds.svg	stimuli_distractor_diamondtriangles.svg	35	no	57	0	660
6.6.1	win	2022-11-07	13:52:31	13:56:41	249061	5d1beb9c9e033e0017a725dc	115073660	1	main_z	7	main_z	59	stimuli_distractor_trianglediamonds.svg	stimuli_distractor_diamondtriangles.svg	36	no	0	1	2000
6.6.1	win	2022-11-07	13:52:31	13:56:41	249061	5d1beb9c9e033e0017a725dc	115073660	1	main_z	7	advance_on_keypress_ZEE	60	stimuli_distractor_trianglediamonds.svg	stimuli_distractor_diamondtriangles.svg	36	no	57	0	464
6.6.1	win	2022-11-07	13:52:31	13:56:43	250822	5d1beb9c9e033e0017a725dc	115073660	1	main_z	7	main_z	61	stimuli_target_diamondsquares.svg	stimuli_distractor_diamondtriangles.svg	24	yes	44	1	644
6.6.1	win	2022-11-07	13:52:31	13:56:43	250822	5d1beb9c9e033e0017a725dc	115073660	1	main_z	7	advance_on_keypress_ZEE	62	stimuli_target_diamondsquares.svg	stimuli_distractor_diamondtriangles.svg	24	yes	57	0	691
6.6.1	win	2022-11-07	13:52:31	13:56:45	253034	5d1beb9c9e033e0017a725dc	115073660	1	main_z	7	main_z	63	stimuli_target_trianglesquares.svg	stimuli_distractor_trianglediamonds.svg	18	yes	44	1	878
6.6.1	win	2022-11-07	13:52:31	13:56:45	253034	5d1beb9c9e033e0017a725dc	115073660	1	main_z	7	advance_on_keypress_ZEE	64	stimuli_target_trianglesquares.svg	stimuli_distractor_trianglediamonds.svg	18	yes	57	0	418
6.6.1	win	2022-11-07	13:52:31	13:56:47	255166	5d1beb9c9e033e0017a725dc	115073660	1	main_z	7	main_z	65	stimuli_distractor_trianglediamonds.svg	stimuli_target_diamondcircles.svg	27	yes	44	1	1072
6.6.1	win	2022-11-07	13:52:31	13:56:47	255166	5d1beb9c9e033e0017a725dc	115073660	1	main_z	7	advance_on_keypress_ZEE	66	stimuli_distractor_trianglediamonds.svg	stimuli_target_diamondcircles.svg	27	yes	57	0	501
6.6.1	win	2022-11-07	13:52:31	13:56:49	256990	5d1beb9c9e033e0017a725dc	115073660	1	main_z	7	main_z	67	stimuli_target_squaretriangles.svg	stimuli_distractor_trianglediamonds.svg	3	yes	44	1	663
6.6.1	win	2022-11-07	13:52:31	13:56:49	256990	5d1beb9c9e033e0017a725dc	115073660	1	main_z	7	advance_on_keypress_ZEE	68	stimuli_target_squaretriangles.svg	stimuli_distractor_trianglediamonds.svg	3	yes	57	0	436
6.6.1	win	2022-11-07	13:52:31	13:56:51	258832	5d1beb9c9e033e0017a725dc	115073660	1	main_z	7	main_z	69	stimuli_distractor_diamondtriangles.svg	stimuli_target_trianglesquares.svg	30	yes	44	1	753
6.6.1	win	2022-11-07	13:52:31	13:56:51	258832	5d1beb9c9e033e0017a725dc	115073660	1	main_z	7	advance_on_keypress_ZEE	70	stimuli_distractor_diamondtriangles.svg	stimuli_target_trianglesquares.svg	30	yes	57	0	378
6.6.1	win	2022-11-07	13:52:31	13:56:53	260507	5d1beb9c9e033e0017a725dc	115073660	1	main_z	7	main_z	71	stimuli_distractor_diamondtriangles.svg	stimuli_target_squaretriangles.svg	15	yes	44	1	658
6.6.1	win	2022-11-07	13:52:31	13:56:53	260507	5d1beb9c9e033e0017a725dc	115073660	1	main_z	7	advance_on_keypress_ZEE	72	stimuli_distractor_diamondtriangles.svg	stimuli_target_squaretriangles.svg	15	yes	57	0	384
6.6.1	win	2022-11-07	13:52:31	13:56:54	262100	5d1beb9c9e033e0017a725dc	115073660	1	main_z	7	main_z	73	stimuli_target_circletriangles.svg	stimuli_distractor_trianglediamonds.svg	1	yes	44	1	560
6.6.1	win	2022-11-07	13:52:31	13:56:54	262100	5d1beb9c9e033e0017a725dc	115073660	1	main_z	7	advance_on_keypress_ZEE	74	stimuli_target_circletriangles.svg	stimuli_distractor_trianglediamonds.svg	1	yes	57	0	344
6.6.1	win	2022-11-07	13:52:31	13:56:56	263647	5d1beb9c9e033e0017a725dc	115073660	1	main_z	7	main_z	75	stimuli_target_circlediamonds.svg	stimuli_distractor_trianglediamonds.svg	2	yes	44	1	553
6.6.1	win	2022-11-07	13:52:31	13:56:56	263647	5d1beb9c9e033e0017a725dc	115073660	1	main_z	7	advance_on_keypress_ZEE	76	stimuli_target_circlediamonds.svg	stimuli_distractor_trianglediamonds.svg	2	yes	57	0	362
6.6.1	win	2022-11-07	13:52:31	13:56:57	265239	5d1beb9c9e033e0017a725dc	115073660	1	main_z	7	main_z	77	stimuli_target_squarediamonds.svg	stimuli_distractor_trianglediamonds.svg	4	yes	44	1	595
6.6.1	win	2022-11-07	13:52:31	13:56:57	265239	5d1beb9c9e033e0017a725dc	115073660	1	main_z	7	advance_on_keypress_ZEE	78	stimuli_target_squarediamonds.svg	stimuli_distractor_trianglediamonds.svg	4	yes	57	0	411
6.6.1	win	2022-11-07	13:52:31	13:56:59	267144	5d1beb9c9e033e0017a725dc	115073660	1	main_z	7	main_z	79	stimuli_target_trianglecircles.svg	stimuli_distractor_trianglediamonds.svg	17	yes	44	1	857
6.6.1	win	2022-11-07	13:52:31	13:56:59	267144	5d1beb9c9e033e0017a725dc	115073660	1	main_z	7	advance_on_keypress_ZEE	80	stimuli_target_trianglecircles.svg	stimuli_distractor_trianglediamonds.svg	17	yes	57	0	358
6.6.1	win	2022-11-07	13:52:31	13:57:01	268832	5d1beb9c9e033e0017a725dc	115073660	1	main_z	7	main_z	81	stimuli_distractor_diamondtriangles.svg	stimuli_target_trianglesquares.svg	30	yes	44	1	670
6.6.1	win	2022-11-07	13:52:31	13:57:01	268832	5d1beb9c9e033e0017a725dc	115073660	1	main_z	7	advance_on_keypress_ZEE	82	stimuli_distractor_diamondtriangles.svg	stimuli_target_trianglesquares.svg	30	yes	57	0	347
6.6.1	win	2022-11-07	13:52:31	13:57:03	270423	5d1beb9c9e033e0017a725dc	115073660	1	main_z	7	main_z	83	stimuli_target_squarediamonds.svg	stimuli_distractor_diamondtriangles.svg	8	yes	44	1	581
6.6.1	win	2022-11-07	13:52:31	13:57:03	270423	5d1beb9c9e033e0017a725dc	115073660	1	main_z	7	advance_on_keypress_ZEE	84	stimuli_target_squarediamonds.svg	stimuli_distractor_diamondtriangles.svg	8	yes	57	0	364
6.6.1	win	2022-11-07	13:52:31	13:57:06	273428	5d1beb9c9e033e0017a725dc	115073660	1	main_z	7	main_z	85	stimuli_distractor_trianglediamonds.svg	stimuli_distractor_trianglediamonds.svg	34	no	0	1	2000
6.6.1	win	2022-11-07	13:52:31	13:57:06	273428	5d1beb9c9e033e0017a725dc	115073660	1	main_z	7	advance_on_keypress_ZEE	86	stimuli_distractor_trianglediamonds.svg	stimuli_distractor_trianglediamonds.svg	34	no	57	0	324
6.6.1	win	2022-11-07	13:52:31	13:57:07	275109	5d1beb9c9e033e0017a725dc	115073660	1	main_z	7	main_z	87	stimuli_target_trianglecircles.svg	stimuli_distractor_diamondtriangles.svg	21	yes	44	1	710
6.6.1	win	2022-11-07	13:52:31	13:57:07	275109	5d1beb9c9e033e0017a725dc	115073660	1	main_z	7	advance_on_keypress_ZEE	88	stimuli_target_trianglecircles.svg	stimuli_distractor_diamondtriangles.svg	21	yes	57	0	337
6.6.1	win	2022-11-07	13:52:31	13:57:09	276761	5d1beb9c9e033e0017a725dc	115073660	1	main_z	7	main_z	89	stimuli_target_trianglesquares.svg	stimuli_distractor_diamondtriangles.svg	22	yes	44	1	666
6.6.1	win	2022-11-07	13:52:31	13:57:09	276761	5d1beb9c9e033e0017a725dc	115073660	1	main_z	7	advance_on_keypress_ZEE	90	stimuli_target_trianglesquares.svg	stimuli_distractor_diamondtriangles.svg	22	yes	57	0	479
6.6.1	win	2022-11-07	13:52:31	13:57:11	278473	5d1beb9c9e033e0017a725dc	115073660	1	main_z	7	main_z	91	stimuli_distractor_diamondtriangles.svg	stimuli_target_circletriangles.svg	13	yes	44	1	595
6.6.1	win	2022-11-07	13:52:31	13:57:11	278473	5d1beb9c9e033e0017a725dc	115073660	1	main_z	7	advance_on_keypress_ZEE	92	stimuli_distractor_diamondtriangles.svg	stimuli_target_circletriangles.svg	13	yes	57	0	307
6.6.1	win	2022-11-07	13:52:31	13:57:13	281177	5d1beb9c9e033e0017a725dc	115073660	1	main_z	7	main_z	93	stimuli_distractor_diamondtriangles.svg	stimuli_target_diamondcircles.svg	31	yes	44	1	1750
6.6.1	win	2022-11-07	13:52:31	13:57:13	281177	5d1beb9c9e033e0017a725dc	115073660	1	main_z	7	advance_on_keypress_ZEE	94	stimuli_distractor_diamondtriangles.svg	stimuli_target_diamondcircles.svg	31	yes	57	0	383
6.6.1	win	2022-11-07	13:52:31	13:57:15	282843	5d1beb9c9e033e0017a725dc	115073660	1	main_z	7	main_z	95	stimuli_distractor_diamondtriangles.svg	stimuli_target_trianglecircles.svg	29	yes	44	1	622
6.6.1	win	2022-11-07	13:52:31	13:57:15	282843	5d1beb9c9e033e0017a725dc	115073660	1	main_z	7	advance_on_keypress_ZEE	96	stimuli_distractor_diamondtriangles.svg	stimuli_target_trianglecircles.svg	29	yes	57	0	332
6.6.1	win	2022-11-07	13:52:31	13:57:17	284442	5d1beb9c9e033e0017a725dc	115073660	1	main_z	7	main_z	97	stimuli_distractor_trianglediamonds.svg	stimuli_target_circletriangles.svg	9	yes	44	1	614
6.6.1	win	2022-11-07	13:52:31	13:57:17	284442	5d1beb9c9e033e0017a725dc	115073660	1	main_z	7	advance_on_keypress_ZEE	98	stimuli_distractor_trianglediamonds.svg	stimuli_target_circletriangles.svg	9	yes	57	0	396
6.6.1	win	2022-11-07	13:52:31	13:57:18	286290	5d1beb9c9e033e0017a725dc	115073660	1	main_z	7	main_z	99	stimuli_target_trianglesquares.svg	stimuli_distractor_trianglediamonds.svg	18	yes	44	1	812
6.6.1	win	2022-11-07	13:52:31	13:57:18	286290	5d1beb9c9e033e0017a725dc	115073660	1	main_z	7	advance_on_keypress_ZEE	100	stimuli_target_trianglesquares.svg	stimuli_distractor_trianglediamonds.svg	18	yes	57	0	347
6.6.1	win	2022-11-07	13:52:31	13:57:21	289278	5d1beb9c9e033e0017a725dc	115073660	1	main_z	7	main_z	101	stimuli_target_diamondsquares.svg	stimuli_distractor_diamondtriangles.svg	24	yes	0	0	2000
6.6.1	win	2022-11-07	13:52:31	13:57:21	289278	5d1beb9c9e033e0017a725dc	115073660	1	main_z	7	advance_on_keypress_ZEE	102	stimuli_target_diamondsquares.svg	stimuli_distractor_diamondtriangles.svg	24	yes	57	0	524
6.6.1	win	2022-11-07	13:52:31	13:57:23	291140	5d1beb9c9e033e0017a725dc	115073660	1	main_z	7	main_z	103	stimuli_target_circletriangles.svg	stimuli_distractor_trianglediamonds.svg	1	yes	44	1	694
6.6.1	win	2022-11-07	13:52:31	13:57:23	291140	5d1beb9c9e033e0017a725dc	115073660	1	main_z	7	advance_on_keypress_ZEE	104	stimuli_target_circletriangles.svg	stimuli_distractor_trianglediamonds.svg	1	yes	57	0	354
6.6.1	win	2022-11-07	13:52:31	13:57:25	293013	5d1beb9c9e033e0017a725dc	115073660	1	main_z	7	main_z	105	stimuli_target_trianglecircles.svg	stimuli_distractor_trianglediamonds.svg	17	yes	44	1	883
6.6.1	win	2022-11-07	13:52:31	13:57:25	293013	5d1beb9c9e033e0017a725dc	115073660	1	main_z	7	advance_on_keypress_ZEE	106	stimuli_target_trianglecircles.svg	stimuli_distractor_trianglediamonds.svg	17	yes	57	0	335
6.6.1	win	2022-11-07	13:52:31	13:57:27	294715	5d1beb9c9e033e0017a725dc	115073660	1	main_z	7	main_z	107	stimuli_target_diamondcircles.svg	stimuli_distractor_trianglediamonds.svg	19	yes	44	1	720
6.6.1	win	2022-11-07	13:52:31	13:57:27	294715	5d1beb9c9e033e0017a725dc	115073660	1	main_z	7	advance_on_keypress_ZEE	108	stimuli_target_diamondcircles.svg	stimuli_distractor_trianglediamonds.svg	19	yes	57	0	331
6.6.1	win	2022-11-07	13:52:31	13:57:30	297695	5d1beb9c9e033e0017a725dc	115073660	1	main_z	7	main_z	109	stimuli_distractor_trianglediamonds.svg	stimuli_distractor_trianglediamonds.svg	33	no	0	1	2000
6.6.1	win	2022-11-07	13:52:31	13:57:30	297695	5d1beb9c9e033e0017a725dc	115073660	1	main_z	7	advance_on_keypress_ZEE	110	stimuli_distractor_trianglediamonds.svg	stimuli_distractor_trianglediamonds.svg	33	no	57	0	651
6.6.1	win	2022-11-07	13:52:31	13:57:32	299729	5d1beb9c9e033e0017a725dc	115073660	1	main_z	7	main_z	111	stimuli_distractor_diamondtriangles.svg	stimuli_target_squaretriangles.svg	15	yes	44	1	721
6.6.1	win	2022-11-07	13:52:31	13:57:32	299729	5d1beb9c9e033e0017a725dc	115073660	1	main_z	7	advance_on_keypress_ZEE	112	stimuli_distractor_diamondtriangles.svg	stimuli_target_squaretriangles.svg	15	yes	57	0	363
6.6.1	win	2022-11-07	13:52:31	13:57:33	301316	5d1beb9c9e033e0017a725dc	115073660	1	main_z	7	main_z	113	stimuli_target_diamondcircles.svg	stimuli_distractor_diamondtriangles.svg	23	yes	44	1	588
6.6.1	win	2022-11-07	13:52:31	13:57:33	301316	5d1beb9c9e033e0017a725dc	115073660	1	main_z	7	advance_on_keypress_ZEE	114	stimuli_target_diamondcircles.svg	stimuli_distractor_diamondtriangles.svg	23	yes	57	0	276
6.6.1	win	2022-11-07	13:52:31	13:57:35	303076	5d1beb9c9e033e0017a725dc	115073660	1	main_z	7	main_z	115	stimuli_distractor_diamondtriangles.svg	stimuli_target_diamondsquares.svg	32	yes	44	1	848
6.6.1	win	2022-11-07	13:52:31	13:57:35	303076	5d1beb9c9e033e0017a725dc	115073660	1	main_z	7	advance_on_keypress_ZEE	116	stimuli_distractor_diamondtriangles.svg	stimuli_target_diamondsquares.svg	32	yes	57	0	317
6.6.1	win	2022-11-07	13:52:31	13:57:37	304689	5d1beb9c9e033e0017a725dc	115073660	1	main_z	7	main_z	117	stimuli_distractor_trianglediamonds.svg	stimuli_target_diamondcircles.svg	27	yes	44	1	639
6.6.1	win	2022-11-07	13:52:31	13:57:37	304689	5d1beb9c9e033e0017a725dc	115073660	1	main_z	7	advance_on_keypress_ZEE	118	stimuli_distractor_trianglediamonds.svg	stimuli_target_diamondcircles.svg	27	yes	57	0	357
6.6.1	win	2022-11-07	13:52:31	13:57:38	306118	5d1beb9c9e033e0017a725dc	115073660	1	main_z	7	main_z	119	stimuli_distractor_trianglediamonds.svg	stimuli_target_trianglecircles.svg	25	yes	44	1	413
6.6.1	win	2022-11-07	13:52:31	13:57:38	306118	5d1beb9c9e033e0017a725dc	115073660	1	main_z	7	advance_on_keypress_ZEE	120	stimuli_distractor_trianglediamonds.svg	stimuli_target_trianglecircles.svg	25	yes	57	0	276
6.6.1	win	2022-11-07	13:52:31	13:57:41	308580	5d1beb9c9e033e0017a725dc	115073660	1	main_z	7	main_z	121	stimuli_distractor_trianglediamonds.svg	stimuli_distractor_diamondtriangles.svg	35	no	44	0	1536
6.6.1	win	2022-11-07	13:52:31	13:57:41	308580	5d1beb9c9e033e0017a725dc	115073660	1	main_z	7	advance_on_keypress_ZEE	122	stimuli_distractor_trianglediamonds.svg	stimuli_distractor_diamondtriangles.svg	35	no	57	0	1546
6.6.1	win	2022-11-07	13:52:31	13:57:43	311196	5d1beb9c9e033e0017a725dc	115073660	1	main_z	7	main_z	123	stimuli_target_circlediamonds.svg	stimuli_distractor_trianglediamonds.svg	2	yes	44	1	435
6.6.1	win	2022-11-07	13:52:31	13:57:43	311196	5d1beb9c9e033e0017a725dc	115073660	1	main_z	7	advance_on_keypress_ZEE	124	stimuli_target_circlediamonds.svg	stimuli_distractor_trianglediamonds.svg	2	yes	57	0	313
6.6.1	win	2022-11-07	13:52:31	13:57:45	312561	5d1beb9c9e033e0017a725dc	115073660	1	main_z	7	main_z	125	stimuli_target_squaretriangles.svg	stimuli_distractor_diamondtriangles.svg	7	yes	44	1	395
6.6.1	win	2022-11-07	13:52:31	13:57:45	312561	5d1beb9c9e033e0017a725dc	115073660	1	main_z	7	advance_on_keypress_ZEE	126	stimuli_target_squaretriangles.svg	stimuli_distractor_diamondtriangles.svg	7	yes	57	0	323
6.6.1	win	2022-11-07	13:52:31	13:57:46	314156	5d1beb9c9e033e0017a725dc	115073660	1	main_z	7	main_z	127	stimuli_distractor_diamondtriangles.svg	stimuli_target_circlediamonds.svg	14	yes	44	1	629
6.6.1	win	2022-11-07	13:52:31	13:57:46	314156	5d1beb9c9e033e0017a725dc	115073660	1	main_z	7	advance_on_keypress_ZEE	128	stimuli_distractor_diamondtriangles.svg	stimuli_target_circlediamonds.svg	14	yes	57	0	339
6.6.1	win	2022-11-07	13:52:31	13:57:48	315662	5d1beb9c9e033e0017a725dc	115073660	1	main_z	7	main_z	129	stimuli_distractor_trianglediamonds.svg	stimuli_target_squarediamonds.svg	12	yes	44	1	533
6.6.1	win	2022-11-07	13:52:31	13:57:48	315662	5d1beb9c9e033e0017a725dc	115073660	1	main_z	7	advance_on_keypress_ZEE	130	stimuli_distractor_trianglediamonds.svg	stimuli_target_squarediamonds.svg	12	yes	57	0	304
6.6.1	win	2022-11-07	13:52:31	13:57:50	317917	5d1beb9c9e033e0017a725dc	115073660	1	main_z	7	main_z	131	stimuli_distractor_trianglediamonds.svg	stimuli_target_trianglesquares.svg	26	yes	44	1	1306
6.6.1	win	2022-11-07	13:52:31	13:57:50	317917	5d1beb9c9e033e0017a725dc	115073660	1	main_z	7	advance_on_keypress_ZEE	132	stimuli_distractor_trianglediamonds.svg	stimuli_target_trianglesquares.svg	26	yes	57	0	301
6.6.1	win	2022-11-07	13:52:31	13:57:52	319343	5d1beb9c9e033e0017a725dc	115073660	1	main_z	7	main_z	133	stimuli_target_circletriangles.svg	stimuli_distractor_diamondtriangles.svg	5	yes	44	1	480
6.6.1	win	2022-11-07	13:52:31	13:57:52	319343	5d1beb9c9e033e0017a725dc	115073660	1	main_z	7	advance_on_keypress_ZEE	134	stimuli_target_circletriangles.svg	stimuli_distractor_diamondtriangles.svg	5	yes	57	0	284
6.6.1	win	2022-11-07	13:52:31	13:57:54	322296	5d1beb9c9e033e0017a725dc	115073660	1	main_z	7	main_z	135	stimuli_distractor_diamondtriangles.svg	stimuli_distractor_diamondtriangles.svg	40	no	0	1	2000
6.6.1	win	2022-11-07	13:52:31	13:57:54	322296	5d1beb9c9e033e0017a725dc	115073660	1	main_z	7	advance_on_keypress_ZEE	136	stimuli_distractor_diamondtriangles.svg	stimuli_distractor_diamondtriangles.svg	40	no	57	0	567
6.6.1	win	2022-11-07	13:52:31	13:57:56	323950	5d1beb9c9e033e0017a725dc	115073660	1	main_z	7	main_z	137	stimuli_target_circlediamonds.svg	stimuli_distractor_diamondtriangles.svg	6	yes	44	1	438
6.6.1	win	2022-11-07	13:52:31	13:57:56	323950	5d1beb9c9e033e0017a725dc	115073660	1	main_z	7	advance_on_keypress_ZEE	138	stimuli_target_circlediamonds.svg	stimuli_distractor_diamondtriangles.svg	6	yes	57	0	268
6.6.1	win	2022-11-07	13:52:31	13:57:58	325558	5d1beb9c9e033e0017a725dc	115073660	1	main_z	7	main_z	139	stimuli_distractor_trianglediamonds.svg	stimuli_target_squaretriangles.svg	11	yes	44	1	696
6.6.1	win	2022-11-07	13:52:31	13:57:58	325558	5d1beb9c9e033e0017a725dc	115073660	1	main_z	7	advance_on_keypress_ZEE	140	stimuli_distractor_trianglediamonds.svg	stimuli_target_squaretriangles.svg	11	yes	57	0	292
6.6.1	win	2022-11-07	13:52:31	13:57:59	327110	5d1beb9c9e033e0017a725dc	115073660	1	main_z	7	main_z	141	stimuli_target_diamondsquares.svg	stimuli_distractor_trianglediamonds.svg	20	yes	44	1	616
6.6.1	win	2022-11-07	13:52:31	13:57:59	327110	5d1beb9c9e033e0017a725dc	115073660	1	main_z	7	advance_on_keypress_ZEE	142	stimuli_target_diamondsquares.svg	stimuli_distractor_trianglediamonds.svg	20	yes	57	0	326
6.6.1	win	2022-11-07	13:52:31	13:58:01	328558	5d1beb9c9e033e0017a725dc	115073660	1	main_z	7	main_z	143	stimuli_target_squaretriangles.svg	stimuli_distractor_trianglediamonds.svg	3	yes	44	1	481
6.6.1	win	2022-11-07	13:52:31	13:58:01	328558	5d1beb9c9e033e0017a725dc	115073660	1	main_z	7	advance_on_keypress_ZEE	144	stimuli_target_squaretriangles.svg	stimuli_distractor_trianglediamonds.svg	3	yes	57	0	285
6.6.1	win	2022-11-07	13:52:31	13:58:02	330071	5d1beb9c9e033e0017a725dc	115073660	1	main_z	7	main_z	145	stimuli_distractor_trianglediamonds.svg	stimuli_distractor_diamondtriangles.svg	36	no	44	0	576
6.6.1	win	2022-11-07	13:52:31	13:58:02	330071	5d1beb9c9e033e0017a725dc	115073660	1	main_z	7	advance_on_keypress_ZEE	146	stimuli_distractor_trianglediamonds.svg	stimuli_distractor_diamondtriangles.svg	36	no	57	0	865
6.6.1	win	2022-11-07	13:52:31	13:58:06	333586	5d1beb9c9e033e0017a725dc	115073660	1	main_z	7	main_z	147	stimuli_distractor_diamondtriangles.svg	stimuli_distractor_diamondtriangles.svg	39	no	0	1	2000
6.6.1	win	2022-11-07	13:52:31	13:58:06	333586	5d1beb9c9e033e0017a725dc	115073660	1	main_z	7	advance_on_keypress_ZEE	148	stimuli_distractor_diamondtriangles.svg	stimuli_distractor_diamondtriangles.svg	39	no	57	0	140
6.6.1	win	2022-11-07	13:52:31	13:58:09	336384	5d1beb9c9e033e0017a725dc	115073660	1	main_z	7	main_z	149	stimuli_distractor_diamondtriangles.svg	stimuli_distractor_trianglediamonds.svg	37	no	0	1	2000
6.6.1	win	2022-11-07	13:52:31	13:58:09	336384	5d1beb9c9e033e0017a725dc	115073660	1	main_z	7	advance_on_keypress_ZEE	150	stimuli_distractor_diamondtriangles.svg	stimuli_distractor_trianglediamonds.svg	37	no	57	0	389
6.6.1	win	2022-11-07	13:52:31	13:58:10	337975	5d1beb9c9e033e0017a725dc	115073660	1	main_z	7	main_z	151	stimuli_distractor_trianglediamonds.svg	stimuli_target_circlediamonds.svg	10	yes	44	1	548
6.6.1	win	2022-11-07	13:52:31	13:58:10	337975	5d1beb9c9e033e0017a725dc	115073660	1	main_z	7	advance_on_keypress_ZEE	152	stimuli_distractor_trianglediamonds.svg	stimuli_target_circlediamonds.svg	10	yes	57	0	301
6.6.1	win	2022-11-07	13:52:31	13:58:13	340928	5d1beb9c9e033e0017a725dc	115073660	1	main_z	7	main_z	153	stimuli_distractor_diamondtriangles.svg	stimuli_distractor_trianglediamonds.svg	38	no	0	1	2000
6.6.1	win	2022-11-07	13:52:31	13:58:13	340928	5d1beb9c9e033e0017a725dc	115073660	1	main_z	7	advance_on_keypress_ZEE	154	stimuli_distractor_diamondtriangles.svg	stimuli_distractor_trianglediamonds.svg	38	no	57	0	511
6.6.1	win	2022-11-07	13:52:31	13:58:15	342608	5d1beb9c9e033e0017a725dc	115073660	1	main_z	7	main_z	155	stimuli_distractor_diamondtriangles.svg	stimuli_target_squarediamonds.svg	16	yes	44	1	530
6.6.1	win	2022-11-07	13:52:31	13:58:15	342608	5d1beb9c9e033e0017a725dc	115073660	1	main_z	7	advance_on_keypress_ZEE	156	stimuli_distractor_diamondtriangles.svg	stimuli_target_squarediamonds.svg	16	yes	57	0	277
6.6.1	win	2022-11-07	13:52:31	13:58:18	345528	5d1beb9c9e033e0017a725dc	115073660	1	main_z	7	main_z	157	stimuli_distractor_trianglediamonds.svg	stimuli_target_diamondsquares.svg	28	yes	0	0	2000
6.6.1	win	2022-11-07	13:52:31	13:58:18	345528	5d1beb9c9e033e0017a725dc	115073660	1	main_z	7	advance_on_keypress_ZEE	158	stimuli_distractor_trianglediamonds.svg	stimuli_target_diamondsquares.svg	28	yes	57	0	968
6.6.1	win	2022-11-07	13:52:31	13:58:20	347690	5d1beb9c9e033e0017a725dc	115073660	1	main_z	7	main_z	159	stimuli_target_squarediamonds.svg	stimuli_distractor_trianglediamonds.svg	4	yes	44	1	544
6.6.1	win	2022-11-07	13:52:31	13:58:20	347690	5d1beb9c9e033e0017a725dc	115073660	1	main_z	7	advance_on_keypress_ZEE	160	stimuli_target_squarediamonds.svg	stimuli_distractor_trianglediamonds.svg	4	yes	57	0	290
6.6.1	win	2022-11-07	13:52:31	13:58:39	367068	5d1beb9c9e033e0017a725dc	115073660	1	practice_slash	9	practice_slash	1	stimuli_distractor_diamondtriangles.svg	stimuli_distractor_trianglediamonds.svg	14	no	53	0	405
6.6.1	win	2022-11-07	13:52:31	13:58:39	367068	5d1beb9c9e033e0017a725dc	115073660	1	practice_slash	9	advance_on_keypress_SLASH	2	stimuli_distractor_diamondtriangles.svg	stimuli_distractor_trianglediamonds.svg	14	no	57	0	565
6.6.1	win	2022-11-07	13:52:31	13:58:43	371279	5d1beb9c9e033e0017a725dc	115073660	1	practice_slash	9	practice_slash	3	stimuli_distractor_trianglediamonds.svg	stimuli_distractor_trianglediamonds.svg	15	no	0	1	2000
6.6.1	win	2022-11-07	13:52:31	13:58:43	371279	5d1beb9c9e033e0017a725dc	115073660	1	practice_slash	9	advance_on_keypress_SLASH	4	stimuli_distractor_trianglediamonds.svg	stimuli_distractor_trianglediamonds.svg	15	no	57	0	604
6.6.1	win	2022-11-07	13:52:31	13:58:46	373940	5d1beb9c9e033e0017a725dc	115073660	1	practice_slash	9	practice_slash	5	stimuli_distractor_diamondtriangles.svg	stimuli_target_trianglecircles.svg	9	yes	53	1	411
6.6.1	win	2022-11-07	13:52:31	13:58:46	373940	5d1beb9c9e033e0017a725dc	115073660	1	practice_slash	9	advance_on_keypress_SLASH	6	stimuli_distractor_diamondtriangles.svg	stimuli_target_trianglecircles.svg	9	yes	57	0	555
6.6.1	win	2022-11-07	13:52:31	13:58:49	376709	5d1beb9c9e033e0017a725dc	115073660	1	practice_slash	9	practice_slash	7	stimuli_distractor_trianglediamonds.svg	stimuli_target_diamondcircles.svg	12	yes	53	1	580
6.6.1	win	2022-11-07	13:52:31	13:58:49	376709	5d1beb9c9e033e0017a725dc	115073660	1	practice_slash	9	advance_on_keypress_SLASH	8	stimuli_distractor_trianglediamonds.svg	stimuli_target_diamondcircles.svg	12	yes	57	0	612
6.6.1	win	2022-11-07	13:52:31	13:58:52	379517	5d1beb9c9e033e0017a725dc	115073660	1	practice_slash	9	practice_slash	9	stimuli_distractor_diamondtriangles.svg	stimuli_target_circletriangles.svg	7	yes	53	1	538
6.6.1	win	2022-11-07	13:52:31	13:58:52	379517	5d1beb9c9e033e0017a725dc	115073660	1	practice_slash	9	advance_on_keypress_SLASH	10	stimuli_distractor_diamondtriangles.svg	stimuli_target_circletriangles.svg	7	yes	57	0	604
6.6.1	win	2022-11-07	13:52:31	13:58:56	383763	5d1beb9c9e033e0017a725dc	115073660	1	practice_slash	9	practice_slash	11	stimuli_distractor_trianglediamonds.svg	stimuli_distractor_diamondtriangles.svg	16	no	0	1	2000
6.6.1	win	2022-11-07	13:52:31	13:58:56	383763	5d1beb9c9e033e0017a725dc	115073660	1	practice_slash	9	advance_on_keypress_SLASH	12	stimuli_distractor_trianglediamonds.svg	stimuli_distractor_diamondtriangles.svg	16	no	57	0	579
6.6.1	win	2022-11-07	13:52:31	13:59:00	387980	5d1beb9c9e033e0017a725dc	115073660	1	practice_slash	9	practice_slash	13	stimuli_target_diamondsquares.svg	stimuli_distractor_diamondtriangles.svg	3	yes	0	0	2000
6.6.1	win	2022-11-07	13:52:31	13:59:00	387980	5d1beb9c9e033e0017a725dc	115073660	1	practice_slash	9	advance_on_keypress_SLASH	14	stimuli_target_diamondsquares.svg	stimuli_distractor_diamondtriangles.svg	3	yes	57	0	730
6.6.1	win	2022-11-07	13:52:31	13:59:03	391246	5d1beb9c9e033e0017a725dc	115073660	1	practice_slash	9	practice_slash	15	stimuli_distractor_trianglediamonds.svg	stimuli_target_circlediamonds.svg	10	yes	53	1	883
6.6.1	win	2022-11-07	13:52:31	13:59:03	391246	5d1beb9c9e033e0017a725dc	115073660	1	practice_slash	9	advance_on_keypress_SLASH	16	stimuli_distractor_trianglediamonds.svg	stimuli_target_circlediamonds.svg	10	yes	57	0	504
6.6.1	win	2022-11-07	13:52:31	13:59:08	395397	5d1beb9c9e033e0017a725dc	115073660	1	practice_slash	9	practice_slash	17	stimuli_target_diamondsquares.svg	stimuli_distractor_trianglediamonds.svg	6	yes	0	0	2000
6.6.1	win	2022-11-07	13:52:31	13:59:08	395397	5d1beb9c9e033e0017a725dc	115073660	1	practice_slash	9	advance_on_keypress_SLASH	18	stimuli_target_diamondsquares.svg	stimuli_distractor_trianglediamonds.svg	6	yes	57	0	739
6.6.1	win	2022-11-07	13:52:31	13:59:11	398823	5d1beb9c9e033e0017a725dc	115073660	1	practice_slash	9	practice_slash	19	stimuli_target_circlediamonds.svg	stimuli_distractor_diamondtriangles.svg	1	yes	53	1	1044
6.6.1	win	2022-11-07	13:52:31	13:59:11	398823	5d1beb9c9e033e0017a725dc	115073660	1	practice_slash	9	advance_on_keypress_SLASH	20	stimuli_target_circlediamonds.svg	stimuli_distractor_diamondtriangles.svg	1	yes	57	0	74
6.6.1	win	2022-11-07	13:52:31	13:59:14	401464	5d1beb9c9e033e0017a725dc	115073660	1	practice_slash	9	practice_slash	21	stimuli_target_squarediamonds.svg	stimuli_distractor_trianglediamonds.svg	5	yes	53	1	934
6.6.1	win	2022-11-07	13:52:31	13:59:14	401464	5d1beb9c9e033e0017a725dc	115073660	1	practice_slash	9	advance_on_keypress_SLASH	22	stimuli_target_squarediamonds.svg	stimuli_distractor_trianglediamonds.svg	5	yes	57	0	568
6.6.1	win	2022-11-07	13:52:31	13:59:17	404616	5d1beb9c9e033e0017a725dc	115073660	1	practice_slash	9	practice_slash	23	stimuli_distractor_diamondtriangles.svg	stimuli_target_diamondcircles.svg	8	yes	53	1	937
6.6.1	win	2022-11-07	13:52:31	13:59:17	404616	5d1beb9c9e033e0017a725dc	115073660	1	practice_slash	9	advance_on_keypress_SLASH	24	stimuli_distractor_diamondtriangles.svg	stimuli_target_diamondcircles.svg	8	yes	57	0	483
6.6.1	win	2022-11-07	13:52:31	13:59:20	407888	5d1beb9c9e033e0017a725dc	115073660	1	practice_slash	9	practice_slash	25	stimuli_target_circlediamonds.svg	stimuli_distractor_trianglediamonds.svg	4	yes	53	1	1142
6.6.1	win	2022-11-07	13:52:31	13:59:20	407888	5d1beb9c9e033e0017a725dc	115073660	1	practice_slash	9	advance_on_keypress_SLASH	26	stimuli_target_circlediamonds.svg	stimuli_distractor_trianglediamonds.svg	4	yes	57	0	744
6.6.1	win	2022-11-07	13:52:31	13:59:24	412263	5d1beb9c9e033e0017a725dc	115073660	1	practice_slash	9	practice_slash	27	stimuli_distractor_diamondtriangles.svg	stimuli_distractor_diamondtriangles.svg	13	no	0	1	2000
6.6.1	win	2022-11-07	13:52:31	13:59:24	412263	5d1beb9c9e033e0017a725dc	115073660	1	practice_slash	9	advance_on_keypress_SLASH	28	stimuli_distractor_diamondtriangles.svg	stimuli_distractor_diamondtriangles.svg	13	no	57	0	514
6.6.1	win	2022-11-07	13:52:31	13:59:28	415425	5d1beb9c9e033e0017a725dc	115073660	1	practice_slash	9	practice_slash	29	stimuli_target_squarediamonds.svg	stimuli_distractor_diamondtriangles.svg	2	yes	53	1	996
6.6.1	win	2022-11-07	13:52:31	13:59:28	415425	5d1beb9c9e033e0017a725dc	115073660	1	practice_slash	9	advance_on_keypress_SLASH	30	stimuli_target_squarediamonds.svg	stimuli_distractor_diamondtriangles.svg	2	yes	57	0	515
6.6.1	win	2022-11-07	13:52:31	13:59:31	418865	5d1beb9c9e033e0017a725dc	115073660	1	practice_slash	9	practice_slash	31	stimuli_distractor_trianglediamonds.svg	stimuli_target_squarediamonds.svg	11	yes	53	1	1269
6.6.1	win	2022-11-07	13:52:31	13:59:31	418865	5d1beb9c9e033e0017a725dc	115073660	1	practice_slash	9	advance_on_keypress_SLASH	32	stimuli_distractor_trianglediamonds.svg	stimuli_target_squarediamonds.svg	11	yes	57	0	451
6.6.1	win	2022-11-07	13:52:31	13:59:40	427964	5d1beb9c9e033e0017a725dc	115073660	1	main_slash	11	main_slash	1	stimuli_distractor_trianglediamonds.svg	stimuli_distractor_diamondtriangles.svg	36	no	0	1	2000
6.6.1	win	2022-11-07	13:52:31	13:59:40	427964	5d1beb9c9e033e0017a725dc	115073660	1	main_slash	11	advance_on_keypress_SLASH	2	stimuli_distractor_trianglediamonds.svg	stimuli_distractor_diamondtriangles.svg	36	no	57	0	983
6.6.1	win	2022-11-07	13:52:31	13:59:43	430595	5d1beb9c9e033e0017a725dc	115073660	1	main_slash	11	main_slash	3	stimuli_distractor_diamondtriangles.svg	stimuli_target_diamondcircles.svg	31	yes	53	1	990
6.6.1	win	2022-11-07	13:52:31	13:59:43	430595	5d1beb9c9e033e0017a725dc	115073660	1	main_slash	11	advance_on_keypress_SLASH	4	stimuli_distractor_diamondtriangles.svg	stimuli_target_diamondcircles.svg	31	yes	57	0	759
6.6.1	win	2022-11-07	13:52:31	13:59:46	433618	5d1beb9c9e033e0017a725dc	115073660	1	main_slash	11	main_slash	5	stimuli_target_circlediamonds.svg	stimuli_distractor_diamondtriangles.svg	6	yes	53	1	1607
6.6.1	win	2022-11-07	13:52:31	13:59:46	433618	5d1beb9c9e033e0017a725dc	115073660	1	main_slash	11	advance_on_keypress_SLASH	6	stimuli_target_circlediamonds.svg	stimuli_distractor_diamondtriangles.svg	6	yes	57	0	694
6.6.1	win	2022-11-07	13:52:31	13:59:48	436159	5d1beb9c9e033e0017a725dc	115073660	1	main_slash	11	main_slash	7	stimuli_distractor_diamondtriangles.svg	stimuli_target_circlediamonds.svg	14	yes	53	1	1201
6.6.1	win	2022-11-07	13:52:31	13:59:48	436159	5d1beb9c9e033e0017a725dc	115073660	1	main_slash	11	advance_on_keypress_SLASH	8	stimuli_distractor_diamondtriangles.svg	stimuli_target_circlediamonds.svg	14	yes	57	0	512
6.6.1	win	2022-11-07	13:52:31	13:59:52	439328	5d1beb9c9e033e0017a725dc	115073660	1	main_slash	11	main_slash	9	stimuli_distractor_diamondtriangles.svg	stimuli_distractor_diamondtriangles.svg	40	no	0	1	2000
6.6.1	win	2022-11-07	13:52:31	13:59:52	439328	5d1beb9c9e033e0017a725dc	115073660	1	main_slash	11	advance_on_keypress_SLASH	10	stimuli_distractor_diamondtriangles.svg	stimuli_distractor_diamondtriangles.svg	40	no	57	0	817
6.6.1	win	2022-11-07	13:52:31	13:59:54	441746	5d1beb9c9e033e0017a725dc	115073660	1	main_slash	11	main_slash	11	stimuli_target_circlediamonds.svg	stimuli_distractor_trianglediamonds.svg	2	yes	53	1	952
6.6.1	win	2022-11-07	13:52:31	13:59:54	441746	5d1beb9c9e033e0017a725dc	115073660	1	main_slash	11	advance_on_keypress_SLASH	12	stimuli_target_circlediamonds.svg	stimuli_distractor_trianglediamonds.svg	2	yes	57	0	658
6.6.1	win	2022-11-07	13:52:31	13:59:56	444307	5d1beb9c9e033e0017a725dc	115073660	1	main_slash	11	main_slash	13	stimuli_distractor_trianglediamonds.svg	stimuli_target_squarediamonds.svg	12	yes	53	1	1262
6.6.1	win	2022-11-07	13:52:31	13:59:56	444307	5d1beb9c9e033e0017a725dc	115073660	1	main_slash	11	advance_on_keypress_SLASH	14	stimuli_distractor_trianglediamonds.svg	stimuli_target_squarediamonds.svg	12	yes	57	0	556
6.6.1	win	2022-11-07	13:52:31	13:59:59	446656	5d1beb9c9e033e0017a725dc	115073660	1	main_slash	11	main_slash	15	stimuli_target_diamondsquares.svg	stimuli_distractor_trianglediamonds.svg	20	yes	53	1	1156
6.6.1	win	2022-11-07	13:52:31	13:59:59	446656	5d1beb9c9e033e0017a725dc	115073660	1	main_slash	11	advance_on_keypress_SLASH	16	stimuli_target_diamondsquares.svg	stimuli_distractor_trianglediamonds.svg	20	yes	57	0	454
6.6.1	win	2022-11-07	13:52:31	14:00:02	449774	5d1beb9c9e033e0017a725dc	115073660	1	main_slash	11	main_slash	17	stimuli_distractor_diamondtriangles.svg	stimuli_distractor_trianglediamonds.svg	37	no	0	1	2000
6.6.1	win	2022-11-07	13:52:31	14:00:02	449774	5d1beb9c9e033e0017a725dc	115073660	1	main_slash	11	advance_on_keypress_SLASH	18	stimuli_distractor_diamondtriangles.svg	stimuli_distractor_trianglediamonds.svg	37	no	57	0	3514
6.6.1	win	2022-11-07	13:52:31	14:00:07	454964	5d1beb9c9e033e0017a725dc	115073660	1	main_slash	11	main_slash	19	stimuli_distractor_diamondtriangles.svg	stimuli_target_squaretriangles.svg	15	yes	53	1	1036
6.6.1	win	2022-11-07	13:52:31	14:00:07	454964	5d1beb9c9e033e0017a725dc	115073660	1	main_slash	11	advance_on_keypress_SLASH	20	stimuli_distractor_diamondtriangles.svg	stimuli_target_squaretriangles.svg	15	yes	57	0	626
6.6.1	win	2022-11-07	13:52:31	14:00:10	458229	5d1beb9c9e033e0017a725dc	115073660	1	main_slash	11	main_slash	21	stimuli_distractor_trianglediamonds.svg	stimuli_distractor_diamondtriangles.svg	35	no	0	1	2000
6.6.1	win	2022-11-07	13:52:31	14:00:10	458229	5d1beb9c9e033e0017a725dc	115073660	1	main_slash	11	advance_on_keypress_SLASH	22	stimuli_distractor_trianglediamonds.svg	stimuli_distractor_diamondtriangles.svg	35	no	57	0	535
6.6.1	win	2022-11-07	13:52:31	14:00:13	460551	5d1beb9c9e033e0017a725dc	115073660	1	main_slash	11	main_slash	23	stimuli_target_trianglesquares.svg	stimuli_distractor_diamondtriangles.svg	22	yes	53	1	1130
6.6.1	win	2022-11-07	13:52:31	14:00:13	460551	5d1beb9c9e033e0017a725dc	115073660	1	main_slash	11	advance_on_keypress_SLASH	24	stimuli_target_trianglesquares.svg	stimuli_distractor_diamondtriangles.svg	22	yes	57	0	588
6.6.1	win	2022-11-07	13:52:31	14:00:15	463053	5d1beb9c9e033e0017a725dc	115073660	1	main_slash	11	main_slash	25	stimuli_distractor_trianglediamonds.svg	stimuli_target_diamondcircles.svg	27	yes	53	1	1275
6.6.1	win	2022-11-07	13:52:31	14:00:15	463053	5d1beb9c9e033e0017a725dc	115073660	1	main_slash	11	advance_on_keypress_SLASH	26	stimuli_distractor_trianglediamonds.svg	stimuli_target_diamondcircles.svg	27	yes	57	0	488
6.6.1	win	2022-11-07	13:52:31	14:00:17	465237	5d1beb9c9e033e0017a725dc	115073660	1	main_slash	11	main_slash	27	stimuli_distractor_diamondtriangles.svg	stimuli_target_circletriangles.svg	13	yes	53	1	1051
6.6.1	win	2022-11-07	13:52:31	14:00:17	465237	5d1beb9c9e033e0017a725dc	115073660	1	main_slash	11	advance_on_keypress_SLASH	28	stimuli_distractor_diamondtriangles.svg	stimuli_target_circletriangles.svg	13	yes	57	0	432
6.6.1	win	2022-11-07	13:52:31	14:00:20	467581	5d1beb9c9e033e0017a725dc	115073660	1	main_slash	11	main_slash	29	stimuli_target_trianglesquares.svg	stimuli_distractor_trianglediamonds.svg	18	yes	53	1	1270
6.6.1	win	2022-11-07	13:52:31	14:00:20	467581	5d1beb9c9e033e0017a725dc	115073660	1	main_slash	11	advance_on_keypress_SLASH	30	stimuli_target_trianglesquares.svg	stimuli_distractor_trianglediamonds.svg	18	yes	57	0	419
6.6.1	win	2022-11-07	13:52:31	14:00:23	470657	5d1beb9c9e033e0017a725dc	115073660	1	main_slash	11	main_slash	31	stimuli_distractor_diamondtriangles.svg	stimuli_target_diamondsquares.svg	32	yes	0	0	2000
6.6.1	win	2022-11-07	13:52:31	14:00:23	470657	5d1beb9c9e033e0017a725dc	115073660	1	main_slash	11	advance_on_keypress_SLASH	32	stimuli_distractor_diamondtriangles.svg	stimuli_target_diamondsquares.svg	32	yes	57	0	617
6.6.1	win	2022-11-07	13:52:31	14:00:25	472840	5d1beb9c9e033e0017a725dc	115073660	1	main_slash	11	main_slash	33	stimuli_distractor_trianglediamonds.svg	stimuli_target_circlediamonds.svg	10	yes	53	1	919
6.6.1	win	2022-11-07	13:52:31	14:00:25	472840	5d1beb9c9e033e0017a725dc	115073660	1	main_slash	11	advance_on_keypress_SLASH	34	stimuli_distractor_trianglediamonds.svg	stimuli_target_circlediamonds.svg	10	yes	57	0	409
6.6.1	win	2022-11-07	13:52:31	14:00:27	474953	5d1beb9c9e033e0017a725dc	115073660	1	main_slash	11	main_slash	35	stimuli_target_circletriangles.svg	stimuli_distractor_diamondtriangles.svg	5	yes	53	1	1047
6.6.1	win	2022-11-07	13:52:31	14:00:27	474953	5d1beb9c9e033e0017a725dc	115073660	1	main_slash	11	advance_on_keypress_SLASH	36	stimuli_target_circletriangles.svg	stimuli_distractor_diamondtriangles.svg	5	yes	57	0	413
6.6.1	win	2022-11-07	13:52:31	14:00:30	478018	5d1beb9c9e033e0017a725dc	115073660	1	main_slash	11	main_slash	37	stimuli_distractor_trianglediamonds.svg	stimuli_target_diamondsquares.svg	28	yes	0	0	2000
6.6.1	win	2022-11-07	13:52:31	14:00:30	478018	5d1beb9c9e033e0017a725dc	115073660	1	main_slash	11	advance_on_keypress_SLASH	38	stimuli_distractor_trianglediamonds.svg	stimuli_target_diamondsquares.svg	28	yes	57	0	562
6.6.1	win	2022-11-07	13:52:31	14:00:33	481228	5d1beb9c9e033e0017a725dc	115073660	1	main_slash	11	main_slash	39	stimuli_distractor_trianglediamonds.svg	stimuli_distractor_trianglediamonds.svg	34	no	0	1	2000
6.6.1	win	2022-11-07	13:52:31	14:00:33	481228	5d1beb9c9e033e0017a725dc	115073660	1	main_slash	11	advance_on_keypress_SLASH	40	stimuli_distractor_trianglediamonds.svg	stimuli_distractor_trianglediamonds.svg	34	no	57	0	146
6.6.1	win	2022-11-07	13:52:31	14:00:35	482886	5d1beb9c9e033e0017a725dc	115073660	1	main_slash	11	main_slash	41	stimuli_target_squarediamonds.svg	stimuli_distractor_diamondtriangles.svg	8	yes	53	1	876
6.6.1	win	2022-11-07	13:52:31	14:00:35	482886	5d1beb9c9e033e0017a725dc	115073660	1	main_slash	11	advance_on_keypress_SLASH	42	stimuli_target_squarediamonds.svg	stimuli_distractor_diamondtriangles.svg	8	yes	57	0	456
6.6.1	win	2022-11-07	13:52:31	14:00:37	485242	5d1beb9c9e033e0017a725dc	115073660	1	main_slash	11	main_slash	43	stimuli_distractor_diamondtriangles.svg	stimuli_target_trianglecircles.svg	29	yes	53	1	1261
6.6.1	win	2022-11-07	13:52:31	14:00:37	485242	5d1beb9c9e033e0017a725dc	115073660	1	main_slash	11	advance_on_keypress_SLASH	44	stimuli_distractor_diamondtriangles.svg	stimuli_target_trianglecircles.svg	29	yes	57	0	323
6.6.1	win	2022-11-07	13:52:31	14:00:40	487460	5d1beb9c9e033e0017a725dc	115073660	1	main_slash	11	main_slash	45	stimuli_target_diamondcircles.svg	stimuli_distractor_trianglediamonds.svg	19	yes	53	1	1237
6.6.1	win	2022-11-07	13:52:31	14:00:40	487460	5d1beb9c9e033e0017a725dc	115073660	1	main_slash	11	advance_on_keypress_SLASH	46	stimuli_target_diamondcircles.svg	stimuli_distractor_trianglediamonds.svg	19	yes	57	0	1218
6.6.1	win	2022-11-07	13:52:31	14:00:43	490379	5d1beb9c9e033e0017a725dc	115073660	1	main_slash	11	main_slash	47	stimuli_distractor_trianglediamonds.svg	stimuli_target_squaretriangles.svg	11	yes	53	1	1048
6.6.1	win	2022-11-07	13:52:31	14:00:43	490379	5d1beb9c9e033e0017a725dc	115073660	1	main_slash	11	advance_on_keypress_SLASH	48	stimuli_distractor_trianglediamonds.svg	stimuli_target_squaretriangles.svg	11	yes	57	0	501
6.6.1	win	2022-11-07	13:52:31	14:00:45	492631	5d1beb9c9e033e0017a725dc	115073660	1	main_slash	11	main_slash	49	stimuli_target_circletriangles.svg	stimuli_distractor_trianglediamonds.svg	1	yes	53	1	1096
6.6.1	win	2022-11-07	13:52:31	14:00:45	492631	5d1beb9c9e033e0017a725dc	115073660	1	main_slash	11	advance_on_keypress_SLASH	50	stimuli_target_circletriangles.svg	stimuli_distractor_trianglediamonds.svg	1	yes	57	0	339
6.6.1	win	2022-11-07	13:52:31	14:00:47	494776	5d1beb9c9e033e0017a725dc	115073660	1	main_slash	11	main_slash	51	stimuli_distractor_diamondtriangles.svg	stimuli_target_squarediamonds.svg	16	yes	53	1	1148
6.6.1	win	2022-11-07	13:52:31	14:00:47	494776	5d1beb9c9e033e0017a725dc	115073660	1	main_slash	11	advance_on_keypress_SLASH	52	stimuli_distractor_diamondtriangles.svg	stimuli_target_squarediamonds.svg	16	yes	57	0	349
6.6.1	win	2022-11-07	13:52:31	14:00:50	497781	5d1beb9c9e033e0017a725dc	115073660	1	main_slash	11	main_slash	53	stimuli_distractor_diamondtriangles.svg	stimuli_distractor_diamondtriangles.svg	39	no	0	1	2000
6.6.1	win	2022-11-07	13:52:31	14:00:50	497781	5d1beb9c9e033e0017a725dc	115073660	1	main_slash	11	advance_on_keypress_SLASH	54	stimuli_distractor_diamondtriangles.svg	stimuli_distractor_diamondtriangles.svg	39	no	57	0	574
6.6.1	win	2022-11-07	13:52:31	14:00:53	501014	5d1beb9c9e033e0017a725dc	115073660	1	main_slash	11	main_slash	55	stimuli_distractor_diamondtriangles.svg	stimuli_distractor_trianglediamonds.svg	38	no	0	1	2000
6.6.1	win	2022-11-07	13:52:31	14:00:53	501014	5d1beb9c9e033e0017a725dc	115073660	1	main_slash	11	advance_on_keypress_SLASH	56	stimuli_distractor_diamondtriangles.svg	stimuli_distractor_trianglediamonds.svg	38	no	57	0	597
6.6.1	win	2022-11-07	13:52:31	14:00:56	503539	5d1beb9c9e033e0017a725dc	115073660	1	main_slash	11	main_slash	57	stimuli_distractor_diamondtriangles.svg	stimuli_target_trianglesquares.svg	30	yes	53	1	1268
6.6.1	win	2022-11-07	13:52:31	14:00:56	503539	5d1beb9c9e033e0017a725dc	115073660	1	main_slash	11	advance_on_keypress_SLASH	58	stimuli_distractor_diamondtriangles.svg	stimuli_target_trianglesquares.svg	30	yes	57	0	465
6.6.1	win	2022-11-07	13:52:31	14:00:58	506156	5d1beb9c9e033e0017a725dc	115073660	1	main_slash	11	main_slash	59	stimuli_distractor_trianglediamonds.svg	stimuli_target_trianglesquares.svg	26	yes	53	1	1500
6.6.1	win	2022-11-07	13:52:31	14:00:58	506156	5d1beb9c9e033e0017a725dc	115073660	1	main_slash	11	advance_on_keypress_SLASH	60	stimuli_distractor_trianglediamonds.svg	stimuli_target_trianglesquares.svg	26	yes	57	0	473
6.6.1	win	2022-11-07	13:52:31	14:01:00	508234	5d1beb9c9e033e0017a725dc	115073660	1	main_slash	11	main_slash	61	stimuli_distractor_trianglediamonds.svg	stimuli_target_circletriangles.svg	9	yes	53	1	947
6.6.1	win	2022-11-07	13:52:31	14:01:00	508234	5d1beb9c9e033e0017a725dc	115073660	1	main_slash	11	advance_on_keypress_SLASH	62	stimuli_distractor_trianglediamonds.svg	stimuli_target_circletriangles.svg	9	yes	57	0	333
6.6.1	win	2022-11-07	13:52:31	14:01:02	510165	5d1beb9c9e033e0017a725dc	115073660	1	main_slash	11	main_slash	63	stimuli_target_squarediamonds.svg	stimuli_distractor_trianglediamonds.svg	4	yes	53	1	951
6.6.1	win	2022-11-07	13:52:31	14:01:02	510165	5d1beb9c9e033e0017a725dc	115073660	1	main_slash	11	advance_on_keypress_SLASH	64	stimuli_target_squarediamonds.svg	stimuli_distractor_trianglediamonds.svg	4	yes	57	0	352
6.6.1	win	2022-11-07	13:52:31	14:01:04	512226	5d1beb9c9e033e0017a725dc	115073660	1	main_slash	11	main_slash	65	stimuli_target_diamondsquares.svg	stimuli_distractor_diamondtriangles.svg	24	yes	53	1	1048
6.6.1	win	2022-11-07	13:52:31	14:01:04	512226	5d1beb9c9e033e0017a725dc	115073660	1	main_slash	11	advance_on_keypress_SLASH	66	stimuli_target_diamondsquares.svg	stimuli_distractor_diamondtriangles.svg	24	yes	57	0	317
6.6.1	win	2022-11-07	13:52:31	14:01:06	514188	5d1beb9c9e033e0017a725dc	115073660	1	main_slash	11	main_slash	67	stimuli_target_squaretriangles.svg	stimuli_distractor_trianglediamonds.svg	3	yes	53	1	983
6.6.1	win	2022-11-07	13:52:31	14:01:06	514188	5d1beb9c9e033e0017a725dc	115073660	1	main_slash	11	advance_on_keypress_SLASH	68	stimuli_target_squaretriangles.svg	stimuli_distractor_trianglediamonds.svg	3	yes	57	0	480
6.6.1	win	2022-11-07	13:52:31	14:01:09	517318	5d1beb9c9e033e0017a725dc	115073660	1	main_slash	11	main_slash	69	stimuli_distractor_trianglediamonds.svg	stimuli_distractor_trianglediamonds.svg	33	no	0	1	2000
6.6.1	win	2022-11-07	13:52:31	14:01:09	517318	5d1beb9c9e033e0017a725dc	115073660	1	main_slash	11	advance_on_keypress_SLASH	70	stimuli_distractor_trianglediamonds.svg	stimuli_distractor_trianglediamonds.svg	33	no	57	0	603
6.6.1	win	2022-11-07	13:52:31	14:01:12	519530	5d1beb9c9e033e0017a725dc	115073660	1	main_slash	11	main_slash	71	stimuli_target_squaretriangles.svg	stimuli_distractor_diamondtriangles.svg	7	yes	53	1	970
6.6.1	win	2022-11-07	13:52:31	14:01:12	519530	5d1beb9c9e033e0017a725dc	115073660	1	main_slash	11	advance_on_keypress_SLASH	72	stimuli_target_squaretriangles.svg	stimuli_distractor_diamondtriangles.svg	7	yes	57	0	338
6.6.1	win	2022-11-07	13:52:31	14:01:14	521634	5d1beb9c9e033e0017a725dc	115073660	1	main_slash	11	main_slash	73	stimuli_target_trianglecircles.svg	stimuli_distractor_diamondtriangles.svg	21	yes	53	1	1124
6.6.1	win	2022-11-07	13:52:31	14:01:14	521634	5d1beb9c9e033e0017a725dc	115073660	1	main_slash	11	advance_on_keypress_SLASH	74	stimuli_target_trianglecircles.svg	stimuli_distractor_diamondtriangles.svg	21	yes	57	0	342
6.6.1	win	2022-11-07	13:52:31	14:01:16	523664	5d1beb9c9e033e0017a725dc	115073660	1	main_slash	11	main_slash	75	stimuli_target_diamondcircles.svg	stimuli_distractor_diamondtriangles.svg	23	yes	53	1	1041
6.6.1	win	2022-11-07	13:52:31	14:01:16	523664	5d1beb9c9e033e0017a725dc	115073660	1	main_slash	11	advance_on_keypress_SLASH	76	stimuli_target_diamondcircles.svg	stimuli_distractor_diamondtriangles.svg	23	yes	57	0	325
6.6.1	win	2022-11-07	13:52:31	14:01:18	525571	5d1beb9c9e033e0017a725dc	115073660	1	main_slash	11	main_slash	77	stimuli_distractor_trianglediamonds.svg	stimuli_target_trianglecircles.svg	25	yes	53	1	927
6.6.1	win	2022-11-07	13:52:31	14:01:18	525571	5d1beb9c9e033e0017a725dc	115073660	1	main_slash	11	advance_on_keypress_SLASH	78	stimuli_distractor_trianglediamonds.svg	stimuli_target_trianglecircles.svg	25	yes	57	0	337
6.6.1	win	2022-11-07	13:52:31	14:01:20	527584	5d1beb9c9e033e0017a725dc	115073660	1	main_slash	11	main_slash	79	stimuli_target_trianglecircles.svg	stimuli_distractor_trianglediamonds.svg	17	yes	53	1	1027
6.6.1	win	2022-11-07	13:52:31	14:01:20	527584	5d1beb9c9e033e0017a725dc	115073660	1	main_slash	11	advance_on_keypress_SLASH	80	stimuli_target_trianglecircles.svg	stimuli_distractor_trianglediamonds.svg	17	yes	57	0	265
6.6.1	win	2022-11-07	13:52:31	14:01:22	529652	5d1beb9c9e033e0017a725dc	115073660	1	main_slash	11	main_slash	81	stimuli_distractor_diamondtriangles.svg	stimuli_target_squaretriangles.svg	15	yes	53	1	1157
6.6.1	win	2022-11-07	13:52:31	14:01:22	529652	5d1beb9c9e033e0017a725dc	115073660	1	main_slash	11	advance_on_keypress_SLASH	82	stimuli_distractor_diamondtriangles.svg	stimuli_target_squaretriangles.svg	15	yes	57	0	303
6.6.1	win	2022-11-07	13:52:31	14:01:24	531724	5d1beb9c9e033e0017a725dc	115073660	1	main_slash	11	main_slash	83	stimuli_distractor_diamondtriangles.svg	stimuli_target_trianglecircles.svg	29	yes	53	1	1129
6.6.1	win	2022-11-07	13:52:31	14:01:24	531724	5d1beb9c9e033e0017a725dc	115073660	1	main_slash	11	advance_on_keypress_SLASH	84	stimuli_distractor_diamondtriangles.svg	stimuli_target_trianglecircles.svg	29	yes	57	0	340
6.6.1	win	2022-11-07	13:52:31	14:01:26	533716	5d1beb9c9e033e0017a725dc	115073660	1	main_slash	11	main_slash	85	stimuli_distractor_diamondtriangles.svg	stimuli_target_circlediamonds.svg	14	yes	53	1	1013
6.6.1	win	2022-11-07	13:52:31	14:01:26	533716	5d1beb9c9e033e0017a725dc	115073660	1	main_slash	11	advance_on_keypress_SLASH	86	stimuli_distractor_diamondtriangles.svg	stimuli_target_circlediamonds.svg	14	yes	57	0	308
6.6.1	win	2022-11-07	13:52:31	14:01:28	535815	5d1beb9c9e033e0017a725dc	115073660	1	main_slash	11	main_slash	87	stimuli_distractor_diamondtriangles.svg	stimuli_distractor_trianglediamonds.svg	38	no	53	0	1134
6.6.1	win	2022-11-07	13:52:31	14:01:28	535815	5d1beb9c9e033e0017a725dc	115073660	1	main_slash	11	advance_on_keypress_SLASH	88	stimuli_distractor_diamondtriangles.svg	stimuli_distractor_trianglediamonds.svg	38	no	57	0	345
6.6.1	win	2022-11-07	13:52:31	14:01:31	538821	5d1beb9c9e033e0017a725dc	115073660	1	main_slash	11	main_slash	89	stimuli_distractor_trianglediamonds.svg	stimuli_distractor_diamondtriangles.svg	36	no	0	1	2000
6.6.1	win	2022-11-07	13:52:31	14:01:31	538821	5d1beb9c9e033e0017a725dc	115073660	1	main_slash	11	advance_on_keypress_SLASH	90	stimuli_distractor_trianglediamonds.svg	stimuli_distractor_diamondtriangles.svg	36	no	57	0	497
6.6.1	win	2022-11-07	13:52:31	14:01:33	540841	5d1beb9c9e033e0017a725dc	115073660	1	main_slash	11	main_slash	91	stimuli_distractor_trianglediamonds.svg	stimuli_target_squaretriangles.svg	11	yes	53	1	868
6.6.1	win	2022-11-07	13:52:31	14:01:33	540841	5d1beb9c9e033e0017a725dc	115073660	1	main_slash	11	advance_on_keypress_SLASH	92	stimuli_distractor_trianglediamonds.svg	stimuli_target_squaretriangles.svg	11	yes	57	0	313
6.6.1	win	2022-11-07	13:52:31	14:01:35	542701	5d1beb9c9e033e0017a725dc	115073660	1	main_slash	11	main_slash	93	stimuli_target_diamondcircles.svg	stimuli_distractor_diamondtriangles.svg	23	yes	53	1	906
6.6.1	win	2022-11-07	13:52:31	14:01:35	542701	5d1beb9c9e033e0017a725dc	115073660	1	main_slash	11	advance_on_keypress_SLASH	94	stimuli_target_diamondcircles.svg	stimuli_distractor_diamondtriangles.svg	23	yes	57	0	310
6.6.1	win	2022-11-07	13:52:31	14:01:37	544645	5d1beb9c9e033e0017a725dc	115073660	1	main_slash	11	main_slash	95	stimuli_distractor_diamondtriangles.svg	stimuli_target_trianglesquares.svg	30	yes	53	1	994
6.6.1	win	2022-11-07	13:52:31	14:01:37	544645	5d1beb9c9e033e0017a725dc	115073660	1	main_slash	11	advance_on_keypress_SLASH	96	stimuli_distractor_diamondtriangles.svg	stimuli_target_trianglesquares.svg	30	yes	57	0	376
6.6.1	win	2022-11-07	13:52:31	14:01:39	546431	5d1beb9c9e033e0017a725dc	115073660	1	main_slash	11	main_slash	97	stimuli_target_circletriangles.svg	stimuli_distractor_diamondtriangles.svg	5	yes	53	1	769
6.6.1	win	2022-11-07	13:52:31	14:01:39	546431	5d1beb9c9e033e0017a725dc	115073660	1	main_slash	11	advance_on_keypress_SLASH	98	stimuli_target_circletriangles.svg	stimuli_distractor_diamondtriangles.svg	5	yes	57	0	410
6.6.1	win	2022-11-07	13:52:31	14:01:40	548306	5d1beb9c9e033e0017a725dc	115073660	1	main_slash	11	main_slash	99	stimuli_target_circlediamonds.svg	stimuli_distractor_diamondtriangles.svg	6	yes	53	1	824
6.6.1	win	2022-11-07	13:52:31	14:01:40	548306	5d1beb9c9e033e0017a725dc	115073660	1	main_slash	11	advance_on_keypress_SLASH	100	stimuli_target_circlediamonds.svg	stimuli_distractor_diamondtriangles.svg	6	yes	57	0	439
6.6.1	win	2022-11-07	13:52:31	14:01:43	550356	5d1beb9c9e033e0017a725dc	115073660	1	main_slash	11	main_slash	101	stimuli_distractor_trianglediamonds.svg	stimuli_target_trianglecircles.svg	25	yes	53	1	972
6.6.1	win	2022-11-07	13:52:31	14:01:43	550356	5d1beb9c9e033e0017a725dc	115073660	1	main_slash	11	advance_on_keypress_SLASH	102	stimuli_distractor_trianglediamonds.svg	stimuli_target_trianglecircles.svg	25	yes	57	0	325
6.6.1	win	2022-11-07	13:52:31	14:01:45	552332	5d1beb9c9e033e0017a725dc	115073660	1	main_slash	11	main_slash	103	stimuli_distractor_diamondtriangles.svg	stimuli_target_squarediamonds.svg	16	yes	53	1	1016
6.6.1	win	2022-11-07	13:52:31	14:01:45	552332	5d1beb9c9e033e0017a725dc	115073660	1	main_slash	11	advance_on_keypress_SLASH	104	stimuli_distractor_diamondtriangles.svg	stimuli_target_squarediamonds.svg	16	yes	57	0	462
6.6.1	win	2022-11-07	13:52:31	14:01:47	554356	5d1beb9c9e033e0017a725dc	115073660	1	main_slash	11	main_slash	105	stimuli_distractor_diamondtriangles.svg	stimuli_target_diamondsquares.svg	32	yes	53	1	907
6.6.1	win	2022-11-07	13:52:31	14:01:47	554356	5d1beb9c9e033e0017a725dc	115073660	1	main_slash	11	advance_on_keypress_SLASH	106	stimuli_distractor_diamondtriangles.svg	stimuli_target_diamondsquares.svg	32	yes	57	0	2670
6.6.1	win	2022-11-07	13:52:31	14:01:51	558394	5d1beb9c9e033e0017a725dc	115073660	1	main_slash	11	main_slash	107	stimuli_distractor_trianglediamonds.svg	stimuli_target_circlediamonds.svg	10	yes	53	1	722
6.6.1	win	2022-11-07	13:52:31	14:01:51	558394	5d1beb9c9e033e0017a725dc	115073660	1	main_slash	11	advance_on_keypress_SLASH	108	stimuli_distractor_trianglediamonds.svg	stimuli_target_circlediamonds.svg	10	yes	57	0	428
6.6.1	win	2022-11-07	13:52:31	14:01:54	561477	5d1beb9c9e033e0017a725dc	115073660	1	main_slash	11	main_slash	109	stimuli_distractor_diamondtriangles.svg	stimuli_distractor_diamondtriangles.svg	40	no	0	1	2000
6.6.1	win	2022-11-07	13:52:31	14:01:54	561477	5d1beb9c9e033e0017a725dc	115073660	1	main_slash	11	advance_on_keypress_SLASH	110	stimuli_distractor_diamondtriangles.svg	stimuli_distractor_diamondtriangles.svg	40	no	57	0	41
6.6.1	win	2022-11-07	13:52:31	14:01:55	563023	5d1beb9c9e033e0017a725dc	115073660	1	main_slash	11	main_slash	111	stimuli_target_diamondcircles.svg	stimuli_distractor_trianglediamonds.svg	19	yes	53	1	862
6.6.1	win	2022-11-07	13:52:31	14:01:55	563023	5d1beb9c9e033e0017a725dc	115073660	1	main_slash	11	advance_on_keypress_SLASH	112	stimuli_target_diamondcircles.svg	stimuli_distractor_trianglediamonds.svg	19	yes	57	0	372
6.6.1	win	2022-11-07	13:52:31	14:01:57	564991	5d1beb9c9e033e0017a725dc	115073660	1	main_slash	11	main_slash	113	stimuli_distractor_trianglediamonds.svg	stimuli_target_diamondcircles.svg	27	yes	53	1	964
6.6.1	win	2022-11-07	13:52:31	14:01:57	564991	5d1beb9c9e033e0017a725dc	115073660	1	main_slash	11	advance_on_keypress_SLASH	114	stimuli_distractor_trianglediamonds.svg	stimuli_target_diamondcircles.svg	27	yes	57	0	357
6.6.1	win	2022-11-07	13:52:31	14:01:59	566806	5d1beb9c9e033e0017a725dc	115073660	1	main_slash	11	main_slash	115	stimuli_distractor_trianglediamonds.svg	stimuli_target_squarediamonds.svg	12	yes	53	1	806
6.6.1	win	2022-11-07	13:52:31	14:01:59	566806	5d1beb9c9e033e0017a725dc	115073660	1	main_slash	11	advance_on_keypress_SLASH	116	stimuli_distractor_trianglediamonds.svg	stimuli_target_squarediamonds.svg	12	yes	57	0	413
6.6.1	win	2022-11-07	13:52:31	14:02:01	568675	5d1beb9c9e033e0017a725dc	115073660	1	main_slash	11	main_slash	117	stimuli_target_diamondsquares.svg	stimuli_distractor_diamondtriangles.svg	24	yes	53	1	803
6.6.1	win	2022-11-07	13:52:31	14:02:01	568675	5d1beb9c9e033e0017a725dc	115073660	1	main_slash	11	advance_on_keypress_SLASH	118	stimuli_target_diamondsquares.svg	stimuli_distractor_diamondtriangles.svg	24	yes	57	0	378
6.6.1	win	2022-11-07	13:52:31	14:02:03	570456	5d1beb9c9e033e0017a725dc	115073660	1	main_slash	11	main_slash	119	stimuli_distractor_trianglediamonds.svg	stimuli_target_trianglesquares.svg	26	yes	53	1	745
6.6.1	win	2022-11-07	13:52:31	14:02:03	570456	5d1beb9c9e033e0017a725dc	115073660	1	main_slash	11	advance_on_keypress_SLASH	120	stimuli_distractor_trianglediamonds.svg	stimuli_target_trianglesquares.svg	26	yes	57	0	379
6.6.1	win	2022-11-07	13:52:31	14:02:05	572360	5d1beb9c9e033e0017a725dc	115073660	1	main_slash	11	main_slash	121	stimuli_target_squaretriangles.svg	stimuli_distractor_diamondtriangles.svg	7	yes	53	1	882
6.6.1	win	2022-11-07	13:52:31	14:02:05	572360	5d1beb9c9e033e0017a725dc	115073660	1	main_slash	11	advance_on_keypress_SLASH	122	stimuli_target_squaretriangles.svg	stimuli_distractor_diamondtriangles.svg	7	yes	57	0	518
6.6.1	win	2022-11-07	13:52:31	14:02:06	574304	5d1beb9c9e033e0017a725dc	115073660	1	main_slash	11	main_slash	123	stimuli_target_trianglecircles.svg	stimuli_distractor_trianglediamonds.svg	17	yes	53	1	777
6.6.1	win	2022-11-07	13:52:31	14:02:06	574304	5d1beb9c9e033e0017a725dc	115073660	1	main_slash	11	advance_on_keypress_SLASH	124	stimuli_target_trianglecircles.svg	stimuli_distractor_trianglediamonds.svg	17	yes	57	0	498
6.6.1	win	2022-11-07	13:52:31	14:02:08	576242	5d1beb9c9e033e0017a725dc	115073660	1	main_slash	11	main_slash	125	stimuli_distractor_trianglediamonds.svg	stimuli_target_diamondsquares.svg	28	yes	53	1	789
6.6.1	win	2022-11-07	13:52:31	14:02:08	576242	5d1beb9c9e033e0017a725dc	115073660	1	main_slash	11	advance_on_keypress_SLASH	126	stimuli_distractor_trianglediamonds.svg	stimuli_target_diamondsquares.svg	28	yes	57	0	444
6.6.1	win	2022-11-07	13:52:31	14:02:10	578303	5d1beb9c9e033e0017a725dc	115073660	1	main_slash	11	main_slash	127	stimuli_target_squarediamonds.svg	stimuli_distractor_trianglediamonds.svg	4	yes	53	1	952
6.6.1	win	2022-11-07	13:52:31	14:02:10	578303	5d1beb9c9e033e0017a725dc	115073660	1	main_slash	11	advance_on_keypress_SLASH	128	stimuli_target_squarediamonds.svg	stimuli_distractor_trianglediamonds.svg	4	yes	57	0	514
6.6.1	win	2022-11-07	13:52:31	14:02:13	580449	5d1beb9c9e033e0017a725dc	115073660	1	main_slash	11	main_slash	129	stimuli_target_squarediamonds.svg	stimuli_distractor_diamondtriangles.svg	8	yes	53	1	988
6.6.1	win	2022-11-07	13:52:31	14:02:13	580449	5d1beb9c9e033e0017a725dc	115073660	1	main_slash	11	advance_on_keypress_SLASH	130	stimuli_target_squarediamonds.svg	stimuli_distractor_diamondtriangles.svg	8	yes	57	0	484
6.6.1	win	2022-11-07	13:52:31	14:02:15	582473	5d1beb9c9e033e0017a725dc	115073660	1	main_slash	11	main_slash	131	stimuli_distractor_diamondtriangles.svg	stimuli_target_diamondcircles.svg	31	yes	53	1	895
6.6.1	win	2022-11-07	13:52:31	14:02:15	582473	5d1beb9c9e033e0017a725dc	115073660	1	main_slash	11	advance_on_keypress_SLASH	132	stimuli_distractor_diamondtriangles.svg	stimuli_target_diamondcircles.svg	31	yes	57	0	355
6.6.1	win	2022-11-07	13:52:31	14:02:18	585461	5d1beb9c9e033e0017a725dc	115073660	1	main_slash	11	main_slash	133	stimuli_distractor_trianglediamonds.svg	stimuli_distractor_trianglediamonds.svg	34	no	0	1	2000
6.6.1	win	2022-11-07	13:52:31	14:02:18	585461	5d1beb9c9e033e0017a725dc	115073660	1	main_slash	11	advance_on_keypress_SLASH	134	stimuli_distractor_trianglediamonds.svg	stimuli_distractor_trianglediamonds.svg	34	no	57	0	428
6.6.1	win	2022-11-07	13:52:31	14:02:19	587153	5d1beb9c9e033e0017a725dc	115073660	1	main_slash	11	main_slash	135	stimuli_target_circlediamonds.svg	stimuli_distractor_trianglediamonds.svg	2	yes	53	1	626
6.6.1	win	2022-11-07	13:52:31	14:02:19	587153	5d1beb9c9e033e0017a725dc	115073660	1	main_slash	11	advance_on_keypress_SLASH	136	stimuli_target_circlediamonds.svg	stimuli_distractor_trianglediamonds.svg	2	yes	57	0	385
6.6.1	win	2022-11-07	13:52:31	14:02:21	589074	5d1beb9c9e033e0017a725dc	115073660	1	main_slash	11	main_slash	137	stimuli_target_trianglecircles.svg	stimuli_distractor_diamondtriangles.svg	21	yes	53	1	896
6.6.1	win	2022-11-07	13:52:31	14:02:21	589074	5d1beb9c9e033e0017a725dc	115073660	1	main_slash	11	advance_on_keypress_SLASH	138	stimuli_target_trianglecircles.svg	stimuli_distractor_diamondtriangles.svg	21	yes	57	0	284
6.6.1	win	2022-11-07	13:52:31	14:02:24	591997	5d1beb9c9e033e0017a725dc	115073660	1	main_slash	11	main_slash	139	stimuli_distractor_trianglediamonds.svg	stimuli_distractor_diamondtriangles.svg	35	no	0	1	2000
6.6.1	win	2022-11-07	13:52:31	14:02:24	591997	5d1beb9c9e033e0017a725dc	115073660	1	main_slash	11	advance_on_keypress_SLASH	140	stimuli_distractor_trianglediamonds.svg	stimuli_distractor_diamondtriangles.svg	35	no	57	0	680
6.6.1	win	2022-11-07	13:52:31	14:02:27	595311	5d1beb9c9e033e0017a725dc	115073660	1	main_slash	11	main_slash	141	stimuli_distractor_trianglediamonds.svg	stimuli_distractor_trianglediamonds.svg	33	no	0	1	2000
6.6.1	win	2022-11-07	13:52:31	14:02:27	595311	5d1beb9c9e033e0017a725dc	115073660	1	main_slash	11	advance_on_keypress_SLASH	142	stimuli_distractor_trianglediamonds.svg	stimuli_distractor_trianglediamonds.svg	33	no	57	0	363
6.6.1	win	2022-11-07	13:52:31	14:02:29	597018	5d1beb9c9e033e0017a725dc	115073660	1	main_slash	11	main_slash	143	stimuli_distractor_diamondtriangles.svg	stimuli_target_circletriangles.svg	13	yes	53	1	708
6.6.1	win	2022-11-07	13:52:31	14:02:29	597018	5d1beb9c9e033e0017a725dc	115073660	1	main_slash	11	advance_on_keypress_SLASH	144	stimuli_distractor_diamondtriangles.svg	stimuli_target_circletriangles.svg	13	yes	57	0	415
6.6.1	win	2022-11-07	13:52:31	14:02:31	599123	5d1beb9c9e033e0017a725dc	115073660	1	main_slash	11	main_slash	145	stimuli_target_trianglesquares.svg	stimuli_distractor_diamondtriangles.svg	22	yes	53	1	1045
6.6.1	win	2022-11-07	13:52:31	14:02:31	599123	5d1beb9c9e033e0017a725dc	115073660	1	main_slash	11	advance_on_keypress_SLASH	146	stimuli_target_trianglesquares.svg	stimuli_distractor_diamondtriangles.svg	22	yes	57	0	347
6.6.1	win	2022-11-07	13:52:31	14:02:34	602111	5d1beb9c9e033e0017a725dc	115073660	1	main_slash	11	main_slash	147	stimuli_distractor_diamondtriangles.svg	stimuli_distractor_trianglediamonds.svg	37	no	0	1	2000
6.6.1	win	2022-11-07	13:52:31	14:02:34	602111	5d1beb9c9e033e0017a725dc	115073660	1	main_slash	11	advance_on_keypress_SLASH	148	stimuli_distractor_diamondtriangles.svg	stimuli_distractor_trianglediamonds.svg	37	no	57	0	476
6.6.1	win	2022-11-07	13:52:31	14:02:37	605234	5d1beb9c9e033e0017a725dc	115073660	1	main_slash	11	main_slash	149	stimuli_distractor_diamondtriangles.svg	stimuli_distractor_diamondtriangles.svg	39	no	0	1	2000
6.6.1	win	2022-11-07	13:52:31	14:02:37	605234	5d1beb9c9e033e0017a725dc	115073660	1	main_slash	11	advance_on_keypress_SLASH	150	stimuli_distractor_diamondtriangles.svg	stimuli_distractor_diamondtriangles.svg	39	no	57	0	280
6.6.1	win	2022-11-07	13:52:31	14:02:40	608031	5d1beb9c9e033e0017a725dc	115073660	1	main_slash	11	main_slash	151	stimuli_target_diamondsquares.svg	stimuli_distractor_trianglediamonds.svg	20	yes	53	1	1867
6.6.1	win	2022-11-07	13:52:31	14:02:40	608031	5d1beb9c9e033e0017a725dc	115073660	1	main_slash	11	advance_on_keypress_SLASH	152	stimuli_target_diamondsquares.svg	stimuli_distractor_trianglediamonds.svg	20	yes	57	0	416
6.6.1	win	2022-11-07	13:52:31	14:02:43	610884	5d1beb9c9e033e0017a725dc	115073660	1	main_slash	11	main_slash	153	stimuli_target_trianglesquares.svg	stimuli_distractor_trianglediamonds.svg	18	yes	53	1	1790
6.6.1	win	2022-11-07	13:52:31	14:02:43	610884	5d1beb9c9e033e0017a725dc	115073660	1	main_slash	11	advance_on_keypress_SLASH	154	stimuli_target_trianglesquares.svg	stimuli_distractor_trianglediamonds.svg	18	yes	57	0	966
6.6.1	win	2022-11-07	13:52:31	14:02:46	613604	5d1beb9c9e033e0017a725dc	115073660	1	main_slash	11	main_slash	155	stimuli_distractor_trianglediamonds.svg	stimuli_target_circletriangles.svg	9	yes	53	1	1111
6.6.1	win	2022-11-07	13:52:31	14:02:46	613604	5d1beb9c9e033e0017a725dc	115073660	1	main_slash	11	advance_on_keypress_SLASH	156	stimuli_distractor_trianglediamonds.svg	stimuli_target_circletriangles.svg	9	yes	57	0	362
6.6.1	win	2022-11-07	13:52:31	14:02:48	615656	5d1beb9c9e033e0017a725dc	115073660	1	main_slash	11	main_slash	157	stimuli_target_circletriangles.svg	stimuli_distractor_trianglediamonds.svg	1	yes	53	1	1059
6.6.1	win	2022-11-07	13:52:31	14:02:48	615656	5d1beb9c9e033e0017a725dc	115073660	1	main_slash	11	advance_on_keypress_SLASH	158	stimuli_target_circletriangles.svg	stimuli_distractor_trianglediamonds.svg	1	yes	57	0	328
6.6.1	win	2022-11-07	13:52:31	14:02:50	617685	5d1beb9c9e033e0017a725dc	115073660	1	main_slash	11	main_slash	159	stimuli_target_squaretriangles.svg	stimuli_distractor_trianglediamonds.svg	3	yes	53	1	1057
6.6.1	win	2022-11-07	13:52:31	14:02:50	617685	5d1beb9c9e033e0017a725dc	115073660	1	main_slash	11	advance_on_keypress_SLASH	160	stimuli_target_squaretriangles.svg	stimuli_distractor_trianglediamonds.svg	3	yes	57	0	343