subject	time_elapsed_ms	blocknum	block_type	block_response	trialnum	target	level	field	target_present	response	correct	rt
5a4aef0b56ec1100014a3e76	164879	1	practice	z	1	square	local	LVF	yes	present	1	467
5a4aef0b56ec1100014a3e76	168412	1	practice	z	2	circle	global	LVF	yes	present	1	533
5a4aef0b56ec1100014a3e76	173412	1	practice	z	3	absent	absent	absent	no	absent	1	2000
5a4aef0b56ec1100014a3e76	176534	1	practice	z	4	circle	global	LVF	yes	present	1	673
5a4aef0b56ec1100014a3e76	179971	1	practice	z	5	square	global	LVF	yes	present	1	993
5a4aef0b56ec1100014a3e76	184245	1	practice	z	6	absent	absent	absent	no	absent	1	2000
5a4aef0b56ec1100014a3e76	188479	1	practice	z	7	circle	local	RVF	yes	absent	0	2000
5a4aef0b56ec1100014a3e76	192005	1	practice	z	8	absent	absent	absent	no	present	0	1493
5a4aef0b56ec1100014a3e76	196095	1	practice	z	9	circle	local	RVF	yes	absent	0	2000
5a4aef0b56ec1100014a3e76	199392	1	practice	z	10	circle	global	RVF	yes	present	1	1064
5a4aef0b56ec1100014a3e76	202432	1	practice	z	11	square	global	RVF	yes	present	1	820
5a4aef0b56ec1100014a3e76	205381	1	practice	z	12	circle	global	RVF	yes	present	1	886
5a4aef0b56ec1100014a3e76	209462	1	practice	z	13	square	local	LVF	yes	absent	0	2000
5a4aef0b56ec1100014a3e76	212576	1	practice	z	14	circle	local	RVF	yes	present	1	964
5a4aef0b56ec1100014a3e76	216695	1	practice	z	15	absent	absent	absent	no	absent	1	2000
5a4aef0b56ec1100014a3e76	220023	1	practice	z	16	square	global	LVF	yes	present	1	1262
5a4aef0b56ec1100014a3e76	230483	2	main	z	1	square	global	LVF	yes	present	1	472
5a4aef0b56ec1100014a3e76	233148	2	main	z	2	circle	local	RVF	yes	present	1	854
5a4aef0b56ec1100014a3e76	237327	2	main	z	3	square	local	RVF	yes	absent	0	2000
5a4aef0b56ec1100014a3e76	239462	2	main	z	4	circle	local	RVF	yes	present	1	986
5a4aef0b56ec1100014a3e76	241970	2	main	z	5	square	local	RVF	yes	present	1	909
5a4aef0b56ec1100014a3e76	244693	2	main	z	6	circle	global	RVF	yes	present	1	966
5a4aef0b56ec1100014a3e76	247457	2	main	z	7	circle	global	LVF	yes	present	1	896
5a4aef0b56ec1100014a3e76	249959	2	main	z	8	circle	global	RVF	yes	present	1	748
5a4aef0b56ec1100014a3e76	252823	2	main	z	9	circle	local	RVF	yes	present	1	1012
5a4aef0b56ec1100014a3e76	256477	2	main	z	10	absent	absent	absent	no	absent	1	2000
5a4aef0b56ec1100014a3e76	258185	2	main	z	11	circle	global	LVF	yes	present	1	657
5a4aef0b56ec1100014a3e76	260506	2	main	z	12	circle	local	LVF	yes	present	1	712
5a4aef0b56ec1100014a3e76	264144	2	main	z	13	absent	absent	absent	no	absent	1	2000
5a4aef0b56ec1100014a3e76	267111	2	main	z	14	absent	absent	absent	no	absent	1	2000
5a4aef0b56ec1100014a3e76	269852	2	main	z	15	absent	absent	absent	no	present	0	1691
5a4aef0b56ec1100014a3e76	273077	2	main	z	16	square	global	LVF	yes	absent	0	2000
5a4aef0b56ec1100014a3e76	275163	2	main	z	17	square	global	LVF	yes	present	1	1020
5a4aef0b56ec1100014a3e76	278389	2	main	z	18	circle	local	LVF	yes	present	1	1012
5a4aef0b56ec1100014a3e76	280827	2	main	z	19	square	local	LVF	yes	present	1	966
5a4aef0b56ec1100014a3e76	284427	2	main	z	20	absent	absent	absent	no	absent	1	2000
5a4aef0b56ec1100014a3e76	286486	2	main	z	21	square	global	RVF	yes	present	1	975
5a4aef0b56ec1100014a3e76	289827	2	main	z	22	square	local	RVF	yes	absent	0	2000
5a4aef0b56ec1100014a3e76	292218	2	main	z	23	absent	absent	absent	no	present	0	1340
5a4aef0b56ec1100014a3e76	294444	2	main	z	24	square	local	RVF	yes	present	1	1050
5a4aef0b56ec1100014a3e76	296715	2	main	z	25	square	local	LVF	yes	present	1	971
5a4aef0b56ec1100014a3e76	299318	2	main	z	26	square	global	LVF	yes	present	1	891
5a4aef0b56ec1100014a3e76	301639	2	main	z	27	square	local	LVF	yes	present	1	928
5a4aef0b56ec1100014a3e76	304017	2	main	z	28	circle	global	RVF	yes	present	1	973
5a4aef0b56ec1100014a3e76	306785	2	main	z	29	circle	local	LVF	yes	present	1	1241
5a4aef0b56ec1100014a3e76	308865	2	main	z	30	square	global	RVF	yes	present	1	888
5a4aef0b56ec1100014a3e76	311102	2	main	z	31	circle	global	LVF	yes	present	1	908
5a4aef0b56ec1100014a3e76	313363	2	main	z	32	square	global	RVF	yes	present	1	952
5a4aef0b56ec1100014a3e76	315680	2	main	z	33	circle	global	RVF	yes	present	1	851
5a4aef0b56ec1100014a3e76	318784	2	main	z	34	square	local	LVF	yes	present	1	907
5a4aef0b56ec1100014a3e76	321353	2	main	z	35	circle	local	LVF	yes	present	1	859
5a4aef0b56ec1100014a3e76	324402	2	main	z	36	circle	global	LVF	yes	present	1	925
5a4aef0b56ec1100014a3e76	327659	2	main	z	37	circle	local	RVF	yes	present	1	865
5a4aef0b56ec1100014a3e76	329760	2	main	z	38	square	global	RVF	yes	present	1	732
5a4aef0b56ec1100014a3e76	333094	2	main	z	39	absent	absent	absent	no	absent	1	2000
5a4aef0b56ec1100014a3e76	336044	2	main	z	40	absent	absent	absent	no	absent	1	2000
5a4aef0b56ec1100014a3e76	337985	2	main	z	41	square	local	RVF	yes	present	1	908
5a4aef0b56ec1100014a3e76	340467	2	main	z	42	absent	absent	absent	no	present	0	1006
5a4aef0b56ec1100014a3e76	343661	2	main	z	43	square	global	LVF	yes	absent	0	2000
5a4aef0b56ec1100014a3e76	345709	2	main	z	44	circle	local	RVF	yes	present	1	1015
5a4aef0b56ec1100014a3e76	348769	2	main	z	45	square	local	LVF	yes	present	1	1042
5a4aef0b56ec1100014a3e76	351861	2	main	z	46	square	global	LVF	yes	present	1	1367
5a4aef0b56ec1100014a3e76	354258	2	main	z	47	circle	global	RVF	yes	present	1	1031
5a4aef0b56ec1100014a3e76	357694	2	main	z	48	absent	absent	absent	no	absent	1	2000
5a4aef0b56ec1100014a3e76	359179	2	main	z	49	circle	local	LVF	yes	present	1	467
5a4aef0b56ec1100014a3e76	361565	2	main	z	50	absent	absent	absent	no	present	0	988
5a4aef0b56ec1100014a3e76	364811	2	main	z	51	absent	absent	absent	no	absent	1	2000
5a4aef0b56ec1100014a3e76	367827	2	main	z	52	absent	absent	absent	no	absent	1	2000
5a4aef0b56ec1100014a3e76	369688	2	main	z	53	circle	global	RVF	yes	present	1	695
5a4aef0b56ec1100014a3e76	371804	2	main	z	54	circle	local	LVF	yes	present	1	561
5a4aef0b56ec1100014a3e76	374443	2	main	z	55	square	local	RVF	yes	present	1	1016
5a4aef0b56ec1100014a3e76	377091	2	main	z	56	circle	local	RVF	yes	present	1	997
5a4aef0b56ec1100014a3e76	380679	2	main	z	57	circle	global	RVF	yes	present	1	934
5a4aef0b56ec1100014a3e76	383409	2	main	z	58	circle	local	LVF	yes	present	1	965
5a4aef0b56ec1100014a3e76	386002	2	main	z	59	square	local	LVF	yes	present	1	975
5a4aef0b56ec1100014a3e76	388720	2	main	z	60	circle	global	LVF	yes	present	1	992
5a4aef0b56ec1100014a3e76	391509	2	main	z	61	square	local	RVF	yes	present	1	932
5a4aef0b56ec1100014a3e76	393841	2	main	z	62	square	global	LVF	yes	present	1	947
5a4aef0b56ec1100014a3e76	396086	2	main	z	63	circle	global	LVF	yes	present	1	909
5a4aef0b56ec1100014a3e76	398409	2	main	z	64	circle	local	LVF	yes	present	1	965
5a4aef0b56ec1100014a3e76	401790	2	main	z	65	square	global	LVF	yes	present	1	896
5a4aef0b56ec1100014a3e76	404148	2	main	z	66	circle	local	RVF	yes	present	1	887
5a4aef0b56ec1100014a3e76	406862	2	main	z	67	square	global	RVF	yes	present	1	885
5a4aef0b56ec1100014a3e76	409167	2	main	z	68	square	global	RVF	yes	present	1	956
5a4aef0b56ec1100014a3e76	412428	2	main	z	69	absent	absent	absent	no	absent	1	2000
5a4aef0b56ec1100014a3e76	414475	2	main	z	70	absent	absent	absent	no	present	0	848
5a4aef0b56ec1100014a3e76	416379	2	main	z	71	circle	global	RVF	yes	present	1	685
5a4aef0b56ec1100014a3e76	418903	2	main	z	72	square	local	RVF	yes	present	1	1043
5a4aef0b56ec1100014a3e76	421994	2	main	z	73	absent	absent	absent	no	absent	1	2000
5a4aef0b56ec1100014a3e76	423964	2	main	z	74	circle	local	RVF	yes	present	1	903
5a4aef0b56ec1100014a3e76	425968	2	main	z	75	square	global	RVF	yes	present	1	789
5a4aef0b56ec1100014a3e76	427877	2	main	z	76	square	local	LVF	yes	present	1	800
5a4aef0b56ec1100014a3e76	430086	2	main	z	77	square	local	LVF	yes	present	1	874
5a4aef0b56ec1100014a3e76	432138	2	main	z	78	circle	global	LVF	yes	present	1	878
5a4aef0b56ec1100014a3e76	434143	2	main	z	79	square	global	RVF	yes	present	1	916
5a4aef0b56ec1100014a3e76	436154	2	main	z	80	circle	global	LVF	yes	present	1	943
5a4aef0b56ec1100014a3e76	457889	3	practice	slash	1	circle	global	LVF	yes	present	1	477
5a4aef0b56ec1100014a3e76	460914	3	practice	slash	2	square	global	LVF	yes	present	1	703
5a4aef0b56ec1100014a3e76	463724	3	practice	slash	3	square	global	LVF	yes	present	1	712
5a4aef0b56ec1100014a3e76	466649	3	practice	slash	4	square	local	LVF	yes	present	1	737
5a4aef0b56ec1100014a3e76	470695	3	practice	slash	5	absent	absent	absent	no	absent	1	2000
5a4aef0b56ec1100014a3e76	473991	3	practice	slash	6	square	local	LVF	yes	present	1	797
5a4aef0b56ec1100014a3e76	477404	3	practice	slash	7	circle	local	RVF	yes	present	1	892
5a4aef0b56ec1100014a3e76	480414	3	practice	slash	8	circle	local	RVF	yes	present	1	836
5a4aef0b56ec1100014a3e76	483296	3	practice	slash	9	absent	absent	absent	no	present	0	717
5a4aef0b56ec1100014a3e76	487296	3	practice	slash	10	absent	absent	absent	no	absent	1	2000
5a4aef0b56ec1100014a3e76	490173	3	practice	slash	11	circle	global	LVF	yes	present	1	762
5a4aef0b56ec1100014a3e76	494412	3	practice	slash	12	absent	absent	absent	no	absent	1	2000
5a4aef0b56ec1100014a3e76	497219	3	practice	slash	13	square	global	RVF	yes	present	1	824
5a4aef0b56ec1100014a3e76	500144	3	practice	slash	14	circle	global	RVF	yes	present	1	732
5a4aef0b56ec1100014a3e76	502953	3	practice	slash	15	circle	global	RVF	yes	present	1	658
5a4aef0b56ec1100014a3e76	507062	3	practice	slash	16	circle	local	RVF	yes	absent	0	2000
5a4aef0b56ec1100014a3e76	517909	4	main	slash	1	circle	global	RVF	yes	present	1	465
5a4aef0b56ec1100014a3e76	519881	4	main	slash	2	square	global	RVF	yes	present	1	368
5a4aef0b56ec1100014a3e76	521562	4	main	slash	3	circle	global	RVF	yes	present	1	351
5a4aef0b56ec1100014a3e76	523302	4	main	slash	4	circle	global	RVF	yes	present	1	308
5a4aef0b56ec1100014a3e76	526995	4	main	slash	5	absent	absent	absent	no	absent	1	2000
5a4aef0b56ec1100014a3e76	528478	4	main	slash	6	square	global	LVF	yes	present	1	534
5a4aef0b56ec1100014a3e76	530167	4	main	slash	7	square	global	RVF	yes	present	1	357
5a4aef0b56ec1100014a3e76	531806	4	main	slash	8	circle	local	LVF	yes	present	1	362
5a4aef0b56ec1100014a3e76	533936	4	main	slash	9	absent	absent	absent	no	present	0	275
5a4aef0b56ec1100014a3e76	536128	4	main	slash	10	square	global	LVF	yes	present	1	534
5a4aef0b56ec1100014a3e76	538220	4	main	slash	11	absent	absent	absent	no	present	0	608
5a4aef0b56ec1100014a3e76	540476	4	main	slash	12	circle	local	LVF	yes	present	1	898
5a4aef0b56ec1100014a3e76	542123	4	main	slash	13	circle	global	LVF	yes	present	1	363
5a4aef0b56ec1100014a3e76	544063	4	main	slash	14	circle	local	RVF	yes	present	1	651
5a4aef0b56ec1100014a3e76	546100	4	main	slash	15	square	local	LVF	yes	present	1	672
5a4aef0b56ec1100014a3e76	548174	4	main	slash	16	circle	local	RVF	yes	present	1	579
5a4aef0b56ec1100014a3e76	549988	4	main	slash	17	circle	local	LVF	yes	present	1	477
5a4aef0b56ec1100014a3e76	551772	4	main	slash	18	square	local	LVF	yes	present	1	295
5a4aef0b56ec1100014a3e76	569839	4	main	slash	19	square	local	RVF	yes	present	1	445
5a4aef0b56ec1100014a3e76	571568	4	main	slash	20	circle	local	RVF	yes	present	1	524
5a4aef0b56ec1100014a3e76	573282	4	main	slash	21	circle	global	RVF	yes	present	1	367
5a4aef0b56ec1100014a3e76	575132	4	main	slash	22	absent	absent	absent	no	present	0	555
5a4aef0b56ec1100014a3e76	579077	4	main	slash	23	square	local	LVF	yes	absent	0	2000
5a4aef0b56ec1100014a3e76	580876	4	main	slash	24	square	local	RVF	yes	present	1	265
5a4aef0b56ec1100014a3e76	583798	4	main	slash	25	square	global	LVF	yes	present	1	1037
5a4aef0b56ec1100014a3e76	585386	4	main	slash	26	square	global	RVF	yes	present	1	309
5a4aef0b56ec1100014a3e76	587923	4	main	slash	27	square	local	LVF	yes	present	1	1046
5a4aef0b56ec1100014a3e76	590159	4	main	slash	28	absent	absent	absent	no	present	0	614
5a4aef0b56ec1100014a3e76	591963	4	main	slash	29	circle	global	LVF	yes	present	1	486
5a4aef0b56ec1100014a3e76	594007	4	main	slash	30	square	global	LVF	yes	present	1	512
5a4aef0b56ec1100014a3e76	595843	4	main	slash	31	circle	global	LVF	yes	present	1	383
5a4aef0b56ec1100014a3e76	597930	4	main	slash	32	circle	local	RVF	yes	present	1	587
5a4aef0b56ec1100014a3e76	599874	4	main	slash	33	circle	global	LVF	yes	present	1	597
5a4aef0b56ec1100014a3e76	602001	4	main	slash	34	absent	absent	absent	no	present	0	807
5a4aef0b56ec1100014a3e76	630144	4	main	slash	35	absent	absent	absent	no	absent	1	2000
5a4aef0b56ec1100014a3e76	632489	4	main	slash	36	absent	absent	absent	no	present	0	827
5a4aef0b56ec1100014a3e76	634260	4	main	slash	37	square	local	RVF	yes	present	1	567
5a4aef0b56ec1100014a3e76	636022	4	main	slash	38	square	global	RVF	yes	present	1	594
5a4aef0b56ec1100014a3e76	638012	4	main	slash	39	circle	local	LVF	yes	present	1	635
5a4aef0b56ec1100014a3e76	640719	4	main	slash	40	square	local	RVF	yes	present	1	625
5a4aef0b56ec1100014a3e76	642870	4	main	slash	41	absent	absent	absent	no	present	0	926
5a4aef0b56ec1100014a3e76	645252	4	main	slash	42	square	local	LVF	yes	present	1	908
5a4aef0b56ec1100014a3e76	647904	4	main	slash	43	absent	absent	absent	no	present	0	660
5a4aef0b56ec1100014a3e76	649912	4	main	slash	44	square	global	RVF	yes	present	1	600
5a4aef0b56ec1100014a3e76	652067	4	main	slash	45	circle	local	RVF	yes	present	1	840
5a4aef0b56ec1100014a3e76	653857	4	main	slash	46	square	global	RVF	yes	present	1	413
5a4aef0b56ec1100014a3e76	655793	4	main	slash	47	circle	global	LVF	yes	present	1	698
5a4aef0b56ec1100014a3e76	657500	4	main	slash	48	square	global	RVF	yes	present	1	489
5a4aef0b56ec1100014a3e76	659260	4	main	slash	49	square	global	RVF	yes	present	1	333
5a4aef0b56ec1100014a3e76	661748	4	main	slash	50	absent	absent	absent	no	present	0	254
5a4aef0b56ec1100014a3e76	664984	4	main	slash	51	circle	global	LVF	yes	present	1	440
5a4aef0b56ec1100014a3e76	666714	4	main	slash	52	circle	local	LVF	yes	present	1	453
5a4aef0b56ec1100014a3e76	669398	4	main	slash	53	square	local	LVF	yes	present	1	471
5a4aef0b56ec1100014a3e76	672900	4	main	slash	54	absent	absent	absent	no	present	0	590
5a4aef0b56ec1100014a3e76	676745	4	main	slash	55	circle	local	RVF	yes	absent	0	2000
5a4aef0b56ec1100014a3e76	679090	4	main	slash	56	circle	global	LVF	yes	present	1	396
5a4aef0b56ec1100014a3e76	681082	4	main	slash	57	circle	global	RVF	yes	present	1	453
5a4aef0b56ec1100014a3e76	684335	4	main	slash	58	circle	global	RVF	yes	present	1	741
5a4aef0b56ec1100014a3e76	688044	4	main	slash	59	absent	absent	absent	no	absent	1	2000
5a4aef0b56ec1100014a3e76	690386	4	main	slash	60	circle	global	RVF	yes	present	1	609
5a4aef0b56ec1100014a3e76	692298	4	main	slash	61	circle	local	RVF	yes	present	1	671
5a4aef0b56ec1100014a3e76	694570	4	main	slash	62	circle	local	LVF	yes	present	1	926
5a4aef0b56ec1100014a3e76	696443	4	main	slash	63	square	global	LVF	yes	present	1	699
5a4aef0b56ec1100014a3e76	699268	4	main	slash	64	square	global	LVF	yes	present	1	490
5a4aef0b56ec1100014a3e76	700992	4	main	slash	65	circle	local	LVF	yes	present	1	465
5a4aef0b56ec1100014a3e76	702802	4	main	slash	66	square	global	LVF	yes	present	1	624
5a4aef0b56ec1100014a3e76	705961	4	main	slash	67	square	local	LVF	yes	absent	0	2000
5a4aef0b56ec1100014a3e76	707606	4	main	slash	68	square	global	LVF	yes	present	1	312
5a4aef0b56ec1100014a3e76	709209	4	main	slash	69	circle	global	RVF	yes	present	1	398
5a4aef0b56ec1100014a3e76	711195	4	main	slash	70	square	local	RVF	yes	present	1	735
5a4aef0b56ec1100014a3e76	714527	4	main	slash	71	absent	absent	absent	no	absent	1	2000
5a4aef0b56ec1100014a3e76	719815	4	main	slash	72	circle	local	RVF	yes	present	1	521
5a4aef0b56ec1100014a3e76	722995	4	main	slash	73	absent	absent	absent	no	absent	1	2000
5a4aef0b56ec1100014a3e76	724448	4	main	slash	74	square	local	RVF	yes	present	1	421
5a4aef0b56ec1100014a3e76	726192	4	main	slash	75	square	local	RVF	yes	present	1	498
5a4aef0b56ec1100014a3e76	728079	4	main	slash	76	circle	global	LVF	yes	present	1	652
5a4aef0b56ec1100014a3e76	730884	4	main	slash	77	square	local	RVF	yes	present	1	1106
5a4aef0b56ec1100014a3e76	732849	4	main	slash	78	absent	absent	absent	no	present	0	788
5a4aef0b56ec1100014a3e76	734646	4	main	slash	79	square	local	LVF	yes	present	1	586
5a4aef0b56ec1100014a3e76	736355	4	main	slash	80	circle	local	LVF	yes	present	1	411
