subject	time_elapsed_ms	blocknum	block_type	block_response	trialnum	target	level	field	target_present	response	correct	rt
5ce203d24cf9960001797537	345316	1	practice	slash	1	square	global	RVF	yes	present	1	1657
5ce203d24cf9960001797537	353083	1	practice	slash	2	square	local	LVF	yes	present	1	622
5ce203d24cf9960001797537	359476	1	practice	slash	3	absent	absent	absent	no	absent	1	2000
5ce203d24cf9960001797537	363347	1	practice	slash	4	circle	local	RVF	yes	present	1	749
5ce203d24cf9960001797537	366772	1	practice	slash	5	circle	local	RVF	yes	present	1	611
5ce203d24cf9960001797537	372068	1	practice	slash	6	absent	absent	absent	no	absent	1	2000
5ce203d24cf9960001797537	377791	1	practice	slash	7	absent	absent	absent	no	absent	1	2000
5ce203d24cf9960001797537	381131	1	practice	slash	8	square	global	LVF	yes	present	1	806
5ce203d24cf9960001797537	385043	1	practice	slash	9	circle	local	RVF	yes	present	1	810
5ce203d24cf9960001797537	389627	1	practice	slash	10	square	local	LVF	yes	present	1	525
5ce203d24cf9960001797537	392812	1	practice	slash	11	circle	global	RVF	yes	present	1	414
5ce203d24cf9960001797537	397171	1	practice	slash	12	absent	absent	absent	no	absent	1	2000
5ce203d24cf9960001797537	401899	1	practice	slash	13	circle	global	LVF	yes	present	1	659
5ce203d24cf9960001797537	405051	1	practice	slash	14	circle	global	LVF	yes	present	1	690
5ce203d24cf9960001797537	408379	1	practice	slash	15	square	global	LVF	yes	present	1	363
5ce203d24cf9960001797537	411243	1	practice	slash	16	circle	global	RVF	yes	present	1	573
5ce203d24cf9960001797537	417343	2	main	slash	1	circle	local	RVF	yes	present	1	634
5ce203d24cf9960001797537	420459	2	main	slash	2	square	global	LVF	yes	present	1	513
5ce203d24cf9960001797537	423632	2	main	slash	3	square	local	RVF	yes	present	1	412
5ce203d24cf9960001797537	427824	2	main	slash	4	square	local	LVF	yes	present	1	1923
5ce203d24cf9960001797537	431595	2	main	slash	5	absent	absent	absent	no	absent	1	2000
5ce203d24cf9960001797537	433535	2	main	slash	6	circle	global	LVF	yes	present	1	553
5ce203d24cf9960001797537	437451	2	main	slash	7	absent	absent	absent	no	absent	1	2000
5ce203d24cf9960001797537	439200	2	main	slash	8	square	global	LVF	yes	present	1	615
5ce203d24cf9960001797537	443783	2	main	slash	9	square	global	RVF	yes	present	1	1664
5ce203d24cf9960001797537	446879	2	main	slash	10	square	global	RVF	yes	present	1	1559
5ce203d24cf9960001797537	448887	2	main	slash	11	circle	local	LVF	yes	present	1	499
5ce203d24cf9960001797537	452456	2	main	slash	12	absent	absent	absent	no	absent	1	2000
5ce203d24cf9960001797537	454408	2	main	slash	13	square	local	RVF	yes	present	1	843
5ce203d24cf9960001797537	456991	2	main	slash	14	circle	global	RVF	yes	present	1	840
5ce203d24cf9960001797537	460606	2	main	slash	15	absent	absent	absent	no	absent	1	2000
5ce203d24cf9960001797537	463112	2	main	slash	16	circle	local	LVF	yes	present	1	704
5ce203d24cf9960001797537	466902	2	main	slash	17	absent	absent	absent	no	absent	1	2000
5ce203d24cf9960001797537	469535	2	main	slash	18	circle	local	RVF	yes	present	1	766
5ce203d24cf9960001797537	474105	2	main	slash	19	square	local	RVF	yes	absent	0	2000
5ce203d24cf9960001797537	476320	2	main	slash	20	circle	local	RVF	yes	present	1	667
5ce203d24cf9960001797537	483290	2	main	slash	21	square	local	LVF	yes	present	1	887
5ce203d24cf9960001797537	487483	2	main	slash	22	square	global	RVF	yes	absent	0	2000
5ce203d24cf9960001797537	490511	2	main	slash	23	square	local	RVF	yes	absent	0	2000
5ce203d24cf9960001797537	493472	2	main	slash	24	absent	absent	absent	no	absent	1	2000
5ce203d24cf9960001797537	495383	2	main	slash	25	circle	global	RVF	yes	present	1	803
5ce203d24cf9960001797537	498263	2	main	slash	26	square	local	LVF	yes	present	1	776
5ce203d24cf9960001797537	500136	2	main	slash	27	circle	local	LVF	yes	present	1	500
5ce203d24cf9960001797537	504183	2	main	slash	28	absent	absent	absent	no	absent	1	2000
5ce203d24cf9960001797537	506800	2	main	slash	29	square	global	RVF	yes	present	1	708
5ce203d24cf9960001797537	509335	2	main	slash	30	square	local	LVF	yes	present	1	737
5ce203d24cf9960001797537	511623	2	main	slash	31	circle	local	LVF	yes	present	1	664
5ce203d24cf9960001797537	514023	2	main	slash	32	circle	global	LVF	yes	present	1	716
5ce203d24cf9960001797537	516488	2	main	slash	33	circle	global	LVF	yes	present	1	619
5ce203d24cf9960001797537	518168	2	main	slash	34	square	global	LVF	yes	present	1	432
5ce203d24cf9960001797537	521390	2	main	slash	35	absent	absent	absent	no	absent	1	2000
5ce203d24cf9960001797537	523615	2	main	slash	36	square	global	LVF	yes	present	1	504
5ce203d24cf9960001797537	526656	2	main	slash	37	circle	local	RVF	yes	present	1	743
5ce203d24cf9960001797537	529016	2	main	slash	38	circle	global	RVF	yes	present	1	609
5ce203d24cf9960001797537	530952	2	main	slash	39	circle	global	RVF	yes	present	1	491
5ce203d24cf9960001797537	533024	2	main	slash	40	circle	global	LVF	yes	present	1	482
5ce203d24cf9960001797537	535617	2	main	slash	41	square	global	LVF	yes	present	1	435
5ce203d24cf9960001797537	538136	2	main	slash	42	square	local	RVF	yes	present	1	485
5ce203d24cf9960001797537	540576	2	main	slash	43	circle	global	RVF	yes	present	1	644
5ce203d24cf9960001797537	542896	2	main	slash	44	square	global	LVF	yes	present	1	697
5ce203d24cf9960001797537	544944	2	main	slash	45	square	global	RVF	yes	present	1	464
5ce203d24cf9960001797537	546880	2	main	slash	46	circle	global	LVF	yes	present	1	399
5ce203d24cf9960001797537	549000	2	main	slash	47	absent	absent	absent	no	present	0	425
5ce203d24cf9960001797537	551352	2	main	slash	48	square	global	RVF	yes	present	1	816
5ce203d24cf9960001797537	553456	2	main	slash	49	circle	global	RVF	yes	present	1	426
5ce203d24cf9960001797537	557444	2	main	slash	50	absent	absent	absent	no	absent	1	2000
5ce203d24cf9960001797537	559888	2	main	slash	51	circle	local	LVF	yes	present	1	696
5ce203d24cf9960001797537	562312	2	main	slash	52	square	global	RVF	yes	present	1	452
5ce203d24cf9960001797537	567728	2	main	slash	53	absent	absent	absent	no	absent	1	2000
5ce203d24cf9960001797537	569240	2	main	slash	54	square	local	RVF	yes	present	1	471
5ce203d24cf9960001797537	571808	2	main	slash	55	square	local	LVF	yes	present	1	811
5ce203d24cf9960001797537	575317	2	main	slash	56	absent	absent	absent	no	absent	1	2000
5ce203d24cf9960001797537	578359	2	main	slash	57	absent	absent	absent	no	absent	1	2000
5ce203d24cf9960001797537	580240	2	main	slash	58	square	local	RVF	yes	present	1	880
5ce203d24cf9960001797537	583288	2	main	slash	59	circle	local	RVF	yes	present	1	433
5ce203d24cf9960001797537	586575	2	main	slash	60	absent	absent	absent	no	absent	1	2000
5ce203d24cf9960001797537	589470	2	main	slash	61	absent	absent	absent	no	absent	1	2000
5ce203d24cf9960001797537	591040	2	main	slash	62	circle	global	LVF	yes	present	1	635
5ce203d24cf9960001797537	593008	2	main	slash	63	square	global	LVF	yes	present	1	549
5ce203d24cf9960001797537	594640	2	main	slash	64	square	global	RVF	yes	present	1	435
5ce203d24cf9960001797537	597112	2	main	slash	65	square	local	LVF	yes	present	1	732
5ce203d24cf9960001797537	599488	2	main	slash	66	square	local	LVF	yes	present	1	880
5ce203d24cf9960001797537	601296	2	main	slash	67	square	local	RVF	yes	present	1	527
5ce203d24cf9960001797537	603408	2	main	slash	68	circle	global	RVF	yes	present	1	719
5ce203d24cf9960001797537	606280	2	main	slash	69	circle	global	LVF	yes	present	1	523
5ce203d24cf9960001797537	608784	2	main	slash	70	circle	local	RVF	yes	present	1	626
5ce203d24cf9960001797537	610426	2	main	slash	71	circle	global	LVF	yes	present	1	426
5ce203d24cf9960001797537	612248	2	main	slash	72	circle	local	RVF	yes	present	1	449
5ce203d24cf9960001797537	614080	2	main	slash	73	square	local	LVF	yes	present	1	587
5ce203d24cf9960001797537	616264	2	main	slash	74	circle	local	LVF	yes	present	1	423
5ce203d24cf9960001797537	618104	2	main	slash	75	square	global	LVF	yes	present	1	369
5ce203d24cf9960001797537	620200	2	main	slash	76	circle	local	RVF	yes	present	1	584
5ce203d24cf9960001797537	622024	2	main	slash	77	circle	local	LVF	yes	present	1	367
5ce203d24cf9960001797537	623775	2	main	slash	78	absent	absent	absent	no	present	0	292
5ce203d24cf9960001797537	626120	2	main	slash	79	circle	global	RVF	yes	present	1	542
5ce203d24cf9960001797537	627920	2	main	slash	80	circle	local	LVF	yes	present	1	368
5ce203d24cf9960001797537	659452	3	practice	z	1	circle	global	LVF	yes	present	1	430
5ce203d24cf9960001797537	661924	3	practice	z	2	circle	local	RVF	yes	present	1	221
5ce203d24cf9960001797537	664350	3	practice	z	3	square	local	LVF	yes	present	1	221
5ce203d24cf9960001797537	666916	3	practice	z	4	absent	absent	absent	no	present	0	238
5ce203d24cf9960001797537	669859	3	practice	z	5	square	global	LVF	yes	present	1	675
5ce203d24cf9960001797537	672436	3	practice	z	6	circle	global	RVF	yes	present	1	396
5ce203d24cf9960001797537	674787	3	practice	z	7	absent	absent	absent	no	present	0	334
5ce203d24cf9960001797537	677540	3	practice	z	8	circle	global	LVF	yes	present	1	565
5ce203d24cf9960001797537	680092	3	practice	z	9	square	global	RVF	yes	present	1	436
5ce203d24cf9960001797537	682427	3	practice	z	10	square	local	LVF	yes	present	1	371
5ce203d24cf9960001797537	684988	3	practice	z	11	circle	global	RVF	yes	present	1	503
5ce203d24cf9960001797537	687556	3	practice	z	12	circle	local	RVF	yes	present	1	417
5ce203d24cf9960001797537	690116	3	practice	z	13	circle	local	RVF	yes	present	1	389
5ce203d24cf9960001797537	692667	3	practice	z	14	absent	absent	absent	no	present	0	473
5ce203d24cf9960001797537	696889	3	practice	z	15	absent	absent	absent	no	absent	1	2000
5ce203d24cf9960001797537	699908	3	practice	z	16	square	global	LVF	yes	present	1	577
5ce203d24cf9960001797537	706808	4	main	z	1	circle	local	RVF	yes	present	1	1386
5ce203d24cf9960001797537	709992	4	main	z	2	square	global	RVF	yes	present	1	568
5ce203d24cf9960001797537	711928	4	main	z	3	absent	absent	absent	no	present	0	304
5ce203d24cf9960001797537	713920	4	main	z	4	square	local	RVF	yes	present	1	641
5ce203d24cf9960001797537	715627	4	main	z	5	square	global	LVF	yes	present	1	378
5ce203d24cf9960001797537	717952	4	main	z	6	square	local	RVF	yes	present	1	938
5ce203d24cf9960001797537	721067	4	main	z	7	absent	absent	absent	no	absent	1	2000
5ce203d24cf9960001797537	722496	4	main	z	8	absent	absent	absent	no	present	0	361
5ce203d24cf9960001797537	724440	4	main	z	9	circle	global	LVF	yes	present	1	677
5ce203d24cf9960001797537	726632	4	main	z	10	circle	local	LVF	yes	present	1	514
5ce203d24cf9960001797537	728752	4	main	z	11	circle	global	LVF	yes	present	1	747
5ce203d24cf9960001797537	730585	4	main	z	12	circle	global	RVF	yes	present	1	527
5ce203d24cf9960001797537	732152	4	main	z	13	square	local	LVF	yes	present	1	452
5ce203d24cf9960001797537	734008	4	main	z	14	circle	global	LVF	yes	present	1	388
5ce203d24cf9960001797537	736720	4	main	z	15	square	local	LVF	yes	present	1	1460
5ce203d24cf9960001797537	740048	4	main	z	16	absent	absent	absent	no	absent	1	2000
5ce203d24cf9960001797537	741904	4	main	z	17	square	global	RVF	yes	present	1	682
5ce203d24cf9960001797537	743532	4	main	z	18	square	global	LVF	yes	present	1	513
5ce203d24cf9960001797537	746597	4	main	z	19	absent	absent	absent	no	absent	1	2000
5ce203d24cf9960001797537	748208	4	main	z	20	circle	local	RVF	yes	present	1	422
5ce203d24cf9960001797537	749987	4	main	z	21	square	global	LVF	yes	present	1	512
5ce203d24cf9960001797537	751656	4	main	z	22	square	global	RVF	yes	present	1	576
5ce203d24cf9960001797537	753712	4	main	z	23	square	local	RVF	yes	present	1	952
5ce203d24cf9960001797537	757352	4	main	z	24	circle	local	LVF	yes	present	1	456
5ce203d24cf9960001797537	759568	4	main	z	25	circle	global	RVF	yes	present	1	1071
5ce203d24cf9960001797537	761984	4	main	z	26	circle	global	RVF	yes	present	1	660
5ce203d24cf9960001797537	763606	4	main	z	27	circle	local	RVF	yes	present	1	516
5ce203d24cf9960001797537	765864	4	main	z	28	square	local	LVF	yes	present	1	592
5ce203d24cf9960001797537	767456	4	main	z	29	square	local	RVF	yes	present	1	504
5ce203d24cf9960001797537	770700	4	main	z	30	absent	absent	absent	no	absent	1	2000
5ce203d24cf9960001797537	772488	4	main	z	31	circle	global	LVF	yes	present	1	559
5ce203d24cf9960001797537	774432	4	main	z	32	circle	global	RVF	yes	present	1	876
5ce203d24cf9960001797537	776456	4	main	z	33	circle	local	LVF	yes	present	1	872
5ce203d24cf9960001797537	779904	4	main	z	34	absent	absent	absent	no	absent	1	2000
5ce203d24cf9960001797537	781464	4	main	z	35	circle	local	LVF	yes	present	1	653
5ce203d24cf9960001797537	784532	4	main	z	36	absent	absent	absent	no	absent	1	2000
5ce203d24cf9960001797537	786624	4	main	z	37	circle	local	RVF	yes	present	1	571
5ce203d24cf9960001797537	789694	4	main	z	38	square	global	RVF	yes	absent	0	2000
5ce203d24cf9960001797537	791416	4	main	z	39	square	local	LVF	yes	present	1	668
5ce203d24cf9960001797537	793801	4	main	z	40	square	global	LVF	yes	present	1	1251
5ce203d24cf9960001797537	797164	4	main	z	41	absent	absent	absent	no	absent	1	2000
5ce203d24cf9960001797537	800245	4	main	z	42	absent	absent	absent	no	absent	1	2000
5ce203d24cf9960001797537	801640	4	main	z	43	circle	global	LVF	yes	present	1	421
5ce203d24cf9960001797537	803355	4	main	z	44	circle	global	RVF	yes	present	1	512
5ce203d24cf9960001797537	804784	4	main	z	45	absent	absent	absent	no	present	0	430
5ce203d24cf9960001797537	806784	4	main	z	46	circle	global	RVF	yes	present	1	603
5ce203d24cf9960001797537	809902	4	main	z	47	absent	absent	absent	no	absent	1	2000
5ce203d24cf9960001797537	812943	4	main	z	48	square	local	RVF	yes	absent	0	2000
5ce203d24cf9960001797537	814496	4	main	z	49	circle	local	LVF	yes	present	1	485
5ce203d24cf9960001797537	816304	4	main	z	50	square	global	LVF	yes	present	1	533
5ce203d24cf9960001797537	818074	4	main	z	51	circle	global	LVF	yes	present	1	555
5ce203d24cf9960001797537	819552	4	main	z	52	circle	global	RVF	yes	present	1	459
5ce203d24cf9960001797537	821214	4	main	z	53	square	global	LVF	yes	present	1	381
5ce203d24cf9960001797537	822776	4	main	z	54	square	global	LVF	yes	present	1	442
5ce203d24cf9960001797537	826109	4	main	z	55	absent	absent	absent	no	absent	1	2000
5ce203d24cf9960001797537	827800	4	main	z	56	circle	local	LVF	yes	present	1	544
5ce203d24cf9960001797537	829552	4	main	z	57	square	global	RVF	yes	present	1	669
5ce203d24cf9960001797537	831233	4	main	z	58	circle	local	RVF	yes	present	1	575
5ce203d24cf9960001797537	832752	4	main	z	59	circle	local	LVF	yes	present	1	481
5ce203d24cf9960001797537	834304	4	main	z	60	square	global	RVF	yes	present	1	352
5ce203d24cf9960001797537	835608	4	main	z	61	square	global	LVF	yes	present	1	202
5ce203d24cf9960001797537	837680	4	main	z	62	square	local	RVF	yes	present	1	113
5ce203d24cf9960001797537	839536	4	main	z	63	circle	global	LVF	yes	present	1	209
5ce203d24cf9960001797537	840968	4	main	z	64	circle	local	RVF	yes	present	1	227
5ce203d24cf9960001797537	842800	4	main	z	65	absent	absent	absent	no	present	0	258
5ce203d24cf9960001797537	845168	4	main	z	66	square	local	RVF	yes	present	1	705
5ce203d24cf9960001797537	846824	4	main	z	67	square	local	LVF	yes	present	1	574
5ce203d24cf9960001797537	848568	4	main	z	68	circle	local	RVF	yes	present	1	691
5ce203d24cf9960001797537	849920	4	main	z	69	square	global	RVF	yes	present	1	322
5ce203d24cf9960001797537	851968	4	main	z	70	circle	global	LVF	yes	present	1	836
5ce203d24cf9960001797537	855040	4	main	z	71	square	local	LVF	yes	absent	0	2000
5ce203d24cf9960001797537	856584	4	main	z	72	absent	absent	absent	no	present	0	316
5ce203d24cf9960001797537	859722	4	main	z	73	square	local	RVF	yes	absent	0	2000
5ce203d24cf9960001797537	861640	4	main	z	74	square	local	LVF	yes	present	1	784
5ce203d24cf9960001797537	863472	4	main	z	75	circle	global	RVF	yes	present	1	762
5ce203d24cf9960001797537	865128	4	main	z	76	square	local	LVF	yes	present	1	724
5ce203d24cf9960001797537	868178	4	main	z	77	absent	absent	absent	no	absent	1	2000
5ce203d24cf9960001797537	871313	4	main	z	78	circle	local	RVF	yes	absent	0	2000
5ce203d24cf9960001797537	873472	4	main	z	79	circle	local	LVF	yes	present	1	612
5ce203d24cf9960001797537	875768	4	main	z	80	square	global	RVF	yes	present	1	1200
