subject	time_elapsed_ms	blocknum	block_type	block_response	trialnum	target	level	field	target_present	response	correct	rt
5d0a7c784cf0d90018b049c6	173726	1	practice	z	1	square	global	LVF	yes	present	1	1475
5d0a7c784cf0d90018b049c6	179326	1	practice	z	2	circle	local	RVF	yes	present	1	923
5d0a7c784cf0d90018b049c6	184832	1	practice	z	3	absent	absent	absent	no	absent	1	2000
5d0a7c784cf0d90018b049c6	189037	1	practice	z	4	circle	global	RVF	yes	present	1	684
5d0a7c784cf0d90018b049c6	192925	1	practice	z	5	circle	global	LVF	yes	present	1	1021
5d0a7c784cf0d90018b049c6	198318	1	practice	z	6	absent	absent	absent	no	absent	1	2000
5d0a7c784cf0d90018b049c6	203103	1	practice	z	7	absent	absent	absent	no	absent	1	2000
5d0a7c784cf0d90018b049c6	207645	1	practice	z	8	absent	absent	absent	no	present	0	1524
5d0a7c784cf0d90018b049c6	211429	1	practice	z	9	circle	local	RVF	yes	present	1	1191
5d0a7c784cf0d90018b049c6	215173	1	practice	z	10	square	local	LVF	yes	present	1	1467
5d0a7c784cf0d90018b049c6	218846	1	practice	z	11	circle	global	LVF	yes	present	1	905
5d0a7c784cf0d90018b049c6	222877	1	practice	z	12	square	global	RVF	yes	present	1	1087
5d0a7c784cf0d90018b049c6	227773	1	practice	z	13	circle	local	RVF	yes	present	1	1216
5d0a7c784cf0d90018b049c6	231245	1	practice	z	14	square	global	LVF	yes	present	1	1020
5d0a7c784cf0d90018b049c6	235555	1	practice	z	15	square	local	LVF	yes	absent	0	2000
5d0a7c784cf0d90018b049c6	239150	1	practice	z	16	circle	global	RVF	yes	present	1	957
5d0a7c784cf0d90018b049c6	250269	2	main	z	1	circle	global	RVF	yes	present	1	925
5d0a7c784cf0d90018b049c6	253589	2	main	z	2	square	local	RVF	yes	present	1	1212
5d0a7c784cf0d90018b049c6	256943	2	main	z	3	absent	absent	absent	no	absent	1	2000
5d0a7c784cf0d90018b049c6	259125	2	main	z	4	circle	global	RVF	yes	present	1	897
5d0a7c784cf0d90018b049c6	262643	2	main	z	5	circle	local	RVF	yes	absent	0	2000
5d0a7c784cf0d90018b049c6	264677	2	main	z	6	square	global	LVF	yes	present	1	881
5d0a7c784cf0d90018b049c6	266717	2	main	z	7	square	global	RVF	yes	present	1	837
5d0a7c784cf0d90018b049c6	269744	2	main	z	8	absent	absent	absent	no	absent	1	2000
5d0a7c784cf0d90018b049c6	271901	2	main	z	9	circle	local	LVF	yes	present	1	1204
5d0a7c784cf0d90018b049c6	274333	2	main	z	10	circle	global	RVF	yes	present	1	1202
5d0a7c784cf0d90018b049c6	278112	2	main	z	11	square	local	RVF	yes	absent	0	2000
5d0a7c784cf0d90018b049c6	281062	2	main	z	12	square	local	RVF	yes	absent	0	2000
5d0a7c784cf0d90018b049c6	283269	2	main	z	13	circle	global	LVF	yes	present	1	1055
5d0a7c784cf0d90018b049c6	286045	2	main	z	14	absent	absent	absent	no	present	0	1246
5d0a7c784cf0d90018b049c6	288829	2	main	z	15	square	local	LVF	yes	absent	0	2000
5d0a7c784cf0d90018b049c6	291763	2	main	z	16	absent	absent	absent	no	absent	1	2000
5d0a7c784cf0d90018b049c6	293837	2	main	z	17	circle	local	RVF	yes	present	1	1054
5d0a7c784cf0d90018b049c6	297230	2	main	z	18	absent	absent	absent	no	absent	1	2000
5d0a7c784cf0d90018b049c6	299205	2	main	z	19	circle	local	RVF	yes	present	1	1005
5d0a7c784cf0d90018b049c6	301381	2	main	z	20	circle	local	LVF	yes	present	1	947
5d0a7c784cf0d90018b049c6	303581	2	main	z	21	circle	local	LVF	yes	present	1	1063
5d0a7c784cf0d90018b049c6	306515	2	main	z	22	square	local	LVF	yes	absent	0	2000
5d0a7c784cf0d90018b049c6	308733	2	main	z	23	square	local	LVF	yes	present	1	1266
5d0a7c784cf0d90018b049c6	311882	2	main	z	24	absent	absent	absent	no	absent	1	2000
5d0a7c784cf0d90018b049c6	313885	2	main	z	25	circle	local	RVF	yes	present	1	1050
5d0a7c784cf0d90018b049c6	315965	2	main	z	26	circle	global	LVF	yes	present	1	913
5d0a7c784cf0d90018b049c6	318597	2	main	z	27	square	global	RVF	yes	present	1	1444
5d0a7c784cf0d90018b049c6	321637	2	main	z	28	square	global	LVF	yes	present	1	950
5d0a7c784cf0d90018b049c6	323733	2	main	z	29	square	global	LVF	yes	present	1	1113
5d0a7c784cf0d90018b049c6	325765	2	main	z	30	square	global	RVF	yes	present	1	1061
5d0a7c784cf0d90018b049c6	328453	2	main	z	31	square	global	RVF	yes	present	1	1299
5d0a7c784cf0d90018b049c6	331952	2	main	z	32	absent	absent	absent	no	absent	1	2000
5d0a7c784cf0d90018b049c6	334149	2	main	z	33	square	local	LVF	yes	present	1	1111
5d0a7c784cf0d90018b049c6	336365	2	main	z	34	circle	global	LVF	yes	present	1	893
5d0a7c784cf0d90018b049c6	338357	2	main	z	35	square	global	LVF	yes	present	1	935
5d0a7c784cf0d90018b049c6	340309	2	main	z	36	circle	global	RVF	yes	present	1	954
5d0a7c784cf0d90018b049c6	342277	2	main	z	37	square	local	RVF	yes	present	1	955
5d0a7c784cf0d90018b049c6	344117	2	main	z	38	circle	local	LVF	yes	present	1	929
5d0a7c784cf0d90018b049c6	347019	2	main	z	39	absent	absent	absent	no	absent	1	2000
5d0a7c784cf0d90018b049c6	348717	2	main	z	40	circle	global	LVF	yes	present	1	727
5d0a7c784cf0d90018b049c6	351325	2	main	z	41	absent	absent	absent	no	present	0	1635
5d0a7c784cf0d90018b049c6	353093	2	main	z	42	square	global	LVF	yes	present	1	919
5d0a7c784cf0d90018b049c6	355938	2	main	z	43	absent	absent	absent	no	absent	1	2000
5d0a7c784cf0d90018b049c6	357949	2	main	z	44	square	local	LVF	yes	present	1	1008
5d0a7c784cf0d90018b049c6	360301	2	main	z	45	absent	absent	absent	no	present	0	1493
5d0a7c784cf0d90018b049c6	363197	2	main	z	46	circle	local	LVF	yes	present	1	906
5d0a7c784cf0d90018b049c6	365357	2	main	z	47	square	global	LVF	yes	present	1	1032
5d0a7c784cf0d90018b049c6	367413	2	main	z	48	square	local	RVF	yes	present	1	988
5d0a7c784cf0d90018b049c6	369669	2	main	z	49	circle	local	LVF	yes	present	1	1176
5d0a7c784cf0d90018b049c6	371557	2	main	z	50	circle	global	RVF	yes	present	1	898
5d0a7c784cf0d90018b049c6	373493	2	main	z	51	circle	global	LVF	yes	present	1	933
5d0a7c784cf0d90018b049c6	375285	2	main	z	52	square	global	LVF	yes	present	1	858
5d0a7c784cf0d90018b049c6	377085	2	main	z	53	square	local	RVF	yes	present	1	891
5d0a7c784cf0d90018b049c6	378893	2	main	z	54	square	local	RVF	yes	present	1	883
5d0a7c784cf0d90018b049c6	380653	2	main	z	55	circle	global	RVF	yes	present	1	810
5d0a7c784cf0d90018b049c6	382453	2	main	z	56	circle	local	RVF	yes	present	1	876
5d0a7c784cf0d90018b049c6	384277	2	main	z	57	square	global	RVF	yes	present	1	899
5d0a7c784cf0d90018b049c6	385981	2	main	z	58	circle	local	LVF	yes	present	1	753
5d0a7c784cf0d90018b049c6	388875	2	main	z	59	absent	absent	absent	no	absent	1	2000
5d0a7c784cf0d90018b049c6	393653	2	main	z	60	square	local	LVF	yes	present	1	874
5d0a7c784cf0d90018b049c6	395669	2	main	z	61	circle	global	LVF	yes	present	1	773
5d0a7c784cf0d90018b049c6	397557	2	main	z	62	circle	local	LVF	yes	present	1	878
5d0a7c784cf0d90018b049c6	399629	2	main	z	63	square	local	RVF	yes	present	1	1067
5d0a7c784cf0d90018b049c6	401901	2	main	z	64	square	local	LVF	yes	present	1	1321
5d0a7c784cf0d90018b049c6	405061	2	main	z	65	circle	global	RVF	yes	present	1	1098
5d0a7c784cf0d90018b049c6	407613	2	main	z	66	circle	local	RVF	yes	present	1	967
5d0a7c784cf0d90018b049c6	411028	2	main	z	67	absent	absent	absent	no	absent	1	2000
5d0a7c784cf0d90018b049c6	413229	2	main	z	68	square	local	LVF	yes	present	1	981
5d0a7c784cf0d90018b049c6	416529	2	main	z	69	absent	absent	absent	no	absent	1	2000
5d0a7c784cf0d90018b049c6	419077	2	main	z	70	circle	local	RVF	yes	present	1	1012
5d0a7c784cf0d90018b049c6	421421	2	main	z	71	square	global	LVF	yes	present	1	1056
5d0a7c784cf0d90018b049c6	423453	2	main	z	72	square	global	RVF	yes	present	1	954
5d0a7c784cf0d90018b049c6	425389	2	main	z	73	square	global	RVF	yes	present	1	823
5d0a7c784cf0d90018b049c6	427349	2	main	z	74	circle	global	LVF	yes	present	1	949
5d0a7c784cf0d90018b049c6	429301	2	main	z	75	circle	global	RVF	yes	present	1	951
5d0a7c784cf0d90018b049c6	431141	2	main	z	76	square	global	RVF	yes	present	1	891
5d0a7c784cf0d90018b049c6	433141	2	main	z	77	circle	local	RVF	yes	present	1	1058
5d0a7c784cf0d90018b049c6	434837	2	main	z	78	circle	global	LVF	yes	present	1	903
5d0a7c784cf0d90018b049c6	437782	2	main	z	79	absent	absent	absent	no	absent	1	2000
5d0a7c784cf0d90018b049c6	440765	2	main	z	80	absent	absent	absent	no	present	0	1830
5d0a7c784cf0d90018b049c6	465885	3	practice	slash	1	square	local	LVF	yes	absent	0	2000
5d0a7c784cf0d90018b049c6	470302	3	practice	slash	2	absent	absent	absent	no	present	0	1296
5d0a7c784cf0d90018b049c6	473357	3	practice	slash	3	circle	local	RVF	yes	present	1	786
5d0a7c784cf0d90018b049c6	476301	3	practice	slash	4	circle	global	RVF	yes	present	1	763
5d0a7c784cf0d90018b049c6	479342	3	practice	slash	5	circle	global	LVF	yes	present	1	935
5d0a7c784cf0d90018b049c6	482166	3	practice	slash	6	circle	global	RVF	yes	present	1	825
5d0a7c784cf0d90018b049c6	485053	3	practice	slash	7	circle	local	RVF	yes	present	1	863
5d0a7c784cf0d90018b049c6	488037	3	practice	slash	8	circle	global	LVF	yes	present	1	914
5d0a7c784cf0d90018b049c6	491333	3	practice	slash	9	circle	local	RVF	yes	present	1	893
5d0a7c784cf0d90018b049c6	495255	3	practice	slash	10	absent	absent	absent	no	absent	1	2000
5d0a7c784cf0d90018b049c6	498830	3	practice	slash	11	square	global	LVF	yes	present	1	1105
5d0a7c784cf0d90018b049c6	503073	3	practice	slash	12	absent	absent	absent	no	absent	1	2000
5d0a7c784cf0d90018b049c6	506757	3	practice	slash	13	square	global	RVF	yes	present	1	931
5d0a7c784cf0d90018b049c6	510053	3	practice	slash	14	square	global	LVF	yes	present	1	910
5d0a7c784cf0d90018b049c6	514291	3	practice	slash	15	absent	absent	absent	no	absent	1	2000
5d0a7c784cf0d90018b049c6	517309	3	practice	slash	16	square	local	LVF	yes	present	1	881
5d0a7c784cf0d90018b049c6	521429	4	main	slash	1	square	local	LVF	yes	present	1	801
5d0a7c784cf0d90018b049c6	523629	4	main	slash	2	circle	local	RVF	yes	present	1	935
5d0a7c784cf0d90018b049c6	525701	4	main	slash	3	square	global	LVF	yes	present	1	823
5d0a7c784cf0d90018b049c6	528117	4	main	slash	4	circle	global	RVF	yes	present	1	1288
5d0a7c784cf0d90018b049c6	531344	4	main	slash	5	absent	absent	absent	no	absent	1	2000
5d0a7c784cf0d90018b049c6	533101	4	main	slash	6	square	local	RVF	yes	present	1	855
5d0a7c784cf0d90018b049c6	536444	4	main	slash	7	absent	absent	absent	no	absent	1	2000
5d0a7c784cf0d90018b049c6	538629	4	main	slash	8	circle	local	LVF	yes	present	1	983
5d0a7c784cf0d90018b049c6	541911	4	main	slash	9	absent	absent	absent	no	absent	1	2000
5d0a7c784cf0d90018b049c6	544093	4	main	slash	10	absent	absent	absent	no	present	0	996
5d0a7c784cf0d90018b049c6	546173	4	main	slash	11	square	global	RVF	yes	present	1	859
5d0a7c784cf0d90018b049c6	548221	4	main	slash	12	circle	global	RVF	yes	present	1	807
5d0a7c784cf0d90018b049c6	549861	4	main	slash	13	circle	global	LVF	yes	present	1	612
5d0a7c784cf0d90018b049c6	551829	4	main	slash	14	square	local	RVF	yes	present	1	914
5d0a7c784cf0d90018b049c6	553589	4	main	slash	15	circle	local	LVF	yes	present	1	790
5d0a7c784cf0d90018b049c6	555285	4	main	slash	16	circle	global	LVF	yes	present	1	719
5d0a7c784cf0d90018b049c6	557821	4	main	slash	17	square	local	RVF	yes	present	1	1505
5d0a7c784cf0d90018b049c6	559533	4	main	slash	18	square	global	RVF	yes	present	1	701
5d0a7c784cf0d90018b049c6	562564	4	main	slash	19	absent	absent	absent	no	absent	1	2000
5d0a7c784cf0d90018b049c6	564365	4	main	slash	20	square	global	LVF	yes	present	1	848
5d0a7c784cf0d90018b049c6	566373	4	main	slash	21	square	local	LVF	yes	present	1	972
5d0a7c784cf0d90018b049c6	568317	4	main	slash	22	circle	local	RVF	yes	present	1	900
5d0a7c784cf0d90018b049c6	570469	4	main	slash	23	square	global	RVF	yes	present	1	1135
5d0a7c784cf0d90018b049c6	572381	4	main	slash	24	circle	global	RVF	yes	present	1	963
5d0a7c784cf0d90018b049c6	574357	4	main	slash	25	circle	local	RVF	yes	present	1	939
5d0a7c784cf0d90018b049c6	577332	4	main	slash	26	absent	absent	absent	no	absent	1	2000
5d0a7c784cf0d90018b049c6	579109	4	main	slash	27	square	global	RVF	yes	present	1	807
5d0a7c784cf0d90018b049c6	581013	4	main	slash	28	square	global	LVF	yes	present	1	894
5d0a7c784cf0d90018b049c6	582701	4	main	slash	29	circle	local	LVF	yes	present	1	682
5d0a7c784cf0d90018b049c6	584453	4	main	slash	30	square	global	LVF	yes	present	1	750
5d0a7c784cf0d90018b049c6	586237	4	main	slash	31	square	local	LVF	yes	present	1	801
5d0a7c784cf0d90018b049c6	588157	4	main	slash	32	circle	local	RVF	yes	present	1	955
5d0a7c784cf0d90018b049c6	589749	4	main	slash	33	circle	local	LVF	yes	present	1	663
5d0a7c784cf0d90018b049c6	591749	4	main	slash	34	square	local	LVF	yes	present	1	945
5d0a7c784cf0d90018b049c6	593509	4	main	slash	35	circle	global	RVF	yes	present	1	822
5d0a7c784cf0d90018b049c6	595205	4	main	slash	36	circle	global	LVF	yes	present	1	734
5d0a7c784cf0d90018b049c6	598185	4	main	slash	37	absent	absent	absent	no	absent	1	2000
5d0a7c784cf0d90018b049c6	601152	4	main	slash	38	absent	absent	absent	no	absent	1	2000
5d0a7c784cf0d90018b049c6	602965	4	main	slash	39	circle	global	LVF	yes	present	1	844
5d0a7c784cf0d90018b049c6	605229	4	main	slash	40	square	local	RVF	yes	present	1	1224
5d0a7c784cf0d90018b049c6	607245	4	main	slash	41	square	local	RVF	yes	present	1	1007
5d0a7c784cf0d90018b049c6	609189	4	main	slash	42	square	local	LVF	yes	present	1	917
5d0a7c784cf0d90018b049c6	611061	4	main	slash	43	circle	local	LVF	yes	present	1	905
5d0a7c784cf0d90018b049c6	612821	4	main	slash	44	circle	local	LVF	yes	present	1	848
5d0a7c784cf0d90018b049c6	614613	4	main	slash	45	circle	local	RVF	yes	present	1	857
5d0a7c784cf0d90018b049c6	616453	4	main	slash	46	square	global	RVF	yes	present	1	913
5d0a7c784cf0d90018b049c6	618125	4	main	slash	47	square	global	LVF	yes	present	1	768
5d0a7c784cf0d90018b049c6	620037	4	main	slash	48	circle	local	RVF	yes	present	1	946
5d0a7c784cf0d90018b049c6	621717	4	main	slash	49	circle	global	LVF	yes	present	1	826
5d0a7c784cf0d90018b049c6	623445	4	main	slash	50	circle	global	RVF	yes	present	1	804
5d0a7c784cf0d90018b049c6	625181	4	main	slash	51	square	local	LVF	yes	present	1	823
5d0a7c784cf0d90018b049c6	628123	4	main	slash	52	absent	absent	absent	no	absent	1	2000
5d0a7c784cf0d90018b049c6	631756	4	main	slash	53	absent	absent	absent	no	absent	1	2000
5d0a7c784cf0d90018b049c6	633853	4	main	slash	54	square	global	RVF	yes	present	1	810
5d0a7c784cf0d90018b049c6	635493	4	main	slash	55	square	global	LVF	yes	present	1	668
5d0a7c784cf0d90018b049c6	637149	4	main	slash	56	circle	global	RVF	yes	present	1	640
5d0a7c784cf0d90018b049c6	640090	4	main	slash	57	absent	absent	absent	no	absent	1	2000
5d0a7c784cf0d90018b049c6	643358	4	main	slash	58	absent	absent	absent	no	absent	1	2000
5d0a7c784cf0d90018b049c6	645389	4	main	slash	59	circle	global	RVF	yes	present	1	729
5d0a7c784cf0d90018b049c6	647101	4	main	slash	60	square	global	RVF	yes	present	1	707
5d0a7c784cf0d90018b049c6	648829	4	main	slash	61	circle	global	LVF	yes	present	1	785
5d0a7c784cf0d90018b049c6	650589	4	main	slash	62	square	local	RVF	yes	present	1	811
5d0a7c784cf0d90018b049c6	652381	4	main	slash	63	square	local	RVF	yes	present	1	836
5d0a7c784cf0d90018b049c6	654093	4	main	slash	64	circle	local	LVF	yes	present	1	781
5d0a7c784cf0d90018b049c6	655981	4	main	slash	65	absent	absent	absent	no	present	0	936
5d0a7c784cf0d90018b049c6	657789	4	main	slash	66	circle	local	LVF	yes	present	1	911
5d0a7c784cf0d90018b049c6	659629	4	main	slash	67	square	local	LVF	yes	present	1	917
5d0a7c784cf0d90018b049c6	661565	4	main	slash	68	square	local	LVF	yes	present	1	936
5d0a7c784cf0d90018b049c6	664494	4	main	slash	69	absent	absent	absent	no	absent	1	2000
5d0a7c784cf0d90018b049c6	666245	4	main	slash	70	circle	global	LVF	yes	present	1	815
5d0a7c784cf0d90018b049c6	668037	4	main	slash	71	absent	absent	absent	no	present	0	857
5d0a7c784cf0d90018b049c6	669901	4	main	slash	72	circle	local	RVF	yes	present	1	904
5d0a7c784cf0d90018b049c6	672827	4	main	slash	73	absent	absent	absent	no	absent	1	2000
5d0a7c784cf0d90018b049c6	674981	4	main	slash	74	circle	global	LVF	yes	present	1	950
5d0a7c784cf0d90018b049c6	676621	4	main	slash	75	square	global	LVF	yes	present	1	706
5d0a7c784cf0d90018b049c6	678437	4	main	slash	76	circle	local	RVF	yes	present	1	840
5d0a7c784cf0d90018b049c6	680077	4	main	slash	77	square	global	RVF	yes	present	1	679
5d0a7c784cf0d90018b049c6	681653	4	main	slash	78	square	global	LVF	yes	present	1	654
5d0a7c784cf0d90018b049c6	683205	4	main	slash	79	circle	global	RVF	yes	present	1	656
5d0a7c784cf0d90018b049c6	684805	4	main	slash	80	square	local	RVF	yes	present	1	656
