subject	time_elapsed_ms	blocknum	block_type	block_response	trialnum	target	level	field	target_present	response	correct	rt
5d53bffa147a7d00015aae5a	101823	1	practice	slash	1	circle	global	RVF	yes	present	1	619
5d53bffa147a7d00015aae5a	106838	1	practice	slash	2	circle	local	RVF	yes	absent	0	2000
5d53bffa147a7d00015aae5a	110303	1	practice	slash	3	square	global	RVF	yes	present	1	599
5d53bffa147a7d00015aae5a	114438	1	practice	slash	4	absent	absent	absent	no	absent	1	2000
5d53bffa147a7d00015aae5a	117407	1	practice	slash	5	square	global	LVF	yes	present	1	769
5d53bffa147a7d00015aae5a	121855	1	practice	slash	6	absent	absent	absent	no	present	0	1617
5d53bffa147a7d00015aae5a	126088	1	practice	slash	7	absent	absent	absent	no	absent	1	2000
5d53bffa147a7d00015aae5a	130138	1	practice	slash	8	square	local	LVF	yes	absent	0	2000
5d53bffa147a7d00015aae5a	132767	1	practice	slash	9	square	global	LVF	yes	present	1	629
5d53bffa147a7d00015aae5a	135703	1	practice	slash	10	circle	global	LVF	yes	present	1	699
5d53bffa147a7d00015aae5a	139055	1	practice	slash	11	square	local	LVF	yes	present	1	1217
5d53bffa147a7d00015aae5a	142063	1	practice	slash	12	circle	local	RVF	yes	present	1	925
5d53bffa147a7d00015aae5a	145000	1	practice	slash	13	circle	global	LVF	yes	present	1	678
5d53bffa147a7d00015aae5a	147911	1	practice	slash	14	circle	local	RVF	yes	present	1	757
5d53bffa147a7d00015aae5a	152055	1	practice	slash	15	absent	absent	absent	no	absent	1	2000
5d53bffa147a7d00015aae5a	154903	1	practice	slash	16	circle	global	RVF	yes	present	1	815
5d53bffa147a7d00015aae5a	167316	2	main	slash	1	square	global	RVF	yes	present	1	1415
5d53bffa147a7d00015aae5a	171869	2	main	slash	2	absent	absent	absent	no	absent	1	2000
5d53bffa147a7d00015aae5a	174952	2	main	slash	3	absent	absent	absent	no	absent	1	2000
5d53bffa147a7d00015aae5a	177860	2	main	slash	4	circle	local	LVF	yes	present	1	1859
5d53bffa147a7d00015aae5a	181292	2	main	slash	5	circle	local	LVF	yes	present	1	641
5d53bffa147a7d00015aae5a	183524	2	main	slash	6	square	global	LVF	yes	present	1	756
5d53bffa147a7d00015aae5a	185460	2	main	slash	7	circle	local	RVF	yes	present	1	725
5d53bffa147a7d00015aae5a	187484	2	main	slash	8	square	local	RVF	yes	present	1	833
5d53bffa147a7d00015aae5a	190719	2	main	slash	9	square	local	LVF	yes	absent	0	2000
5d53bffa147a7d00015aae5a	192860	2	main	slash	10	square	local	LVF	yes	present	1	1142
5d53bffa147a7d00015aae5a	195969	2	main	slash	11	absent	absent	absent	no	absent	1	2000
5d53bffa147a7d00015aae5a	197652	2	main	slash	12	circle	global	RVF	yes	present	1	651
5d53bffa147a7d00015aae5a	199780	2	main	slash	13	square	global	LVF	yes	present	1	729
5d53bffa147a7d00015aae5a	201717	2	main	slash	14	square	global	LVF	yes	present	1	581
5d53bffa147a7d00015aae5a	203925	2	main	slash	15	circle	global	RVF	yes	present	1	1023
5d53bffa147a7d00015aae5a	206340	2	main	slash	16	circle	global	LVF	yes	present	1	1289
5d53bffa147a7d00015aae5a	209285	2	main	slash	17	square	local	RVF	yes	absent	0	2000
5d53bffa147a7d00015aae5a	212402	2	main	slash	18	square	local	RVF	yes	absent	0	2000
5d53bffa147a7d00015aae5a	213917	2	main	slash	19	square	global	RVF	yes	present	1	548
5d53bffa147a7d00015aae5a	215900	2	main	slash	20	circle	local	LVF	yes	present	1	799
5d53bffa147a7d00015aae5a	217780	2	main	slash	21	circle	local	RVF	yes	present	1	829
5d53bffa147a7d00015aae5a	219884	2	main	slash	22	circle	local	RVF	yes	present	1	1083
5d53bffa147a7d00015aae5a	222116	2	main	slash	23	square	global	RVF	yes	present	1	965
5d53bffa147a7d00015aae5a	223957	2	main	slash	24	circle	global	LVF	yes	present	1	788
5d53bffa147a7d00015aae5a	227002	2	main	slash	25	square	local	LVF	yes	absent	0	2000
5d53bffa147a7d00015aae5a	228909	2	main	slash	26	circle	global	RVF	yes	present	1	857
5d53bffa147a7d00015aae5a	231869	2	main	slash	27	absent	absent	absent	no	absent	1	2000
5d53bffa147a7d00015aae5a	233708	2	main	slash	28	circle	global	LVF	yes	present	1	657
5d53bffa147a7d00015aae5a	237135	2	main	slash	29	absent	absent	absent	no	absent	1	2000
5d53bffa147a7d00015aae5a	238916	2	main	slash	30	square	global	LVF	yes	present	1	631
5d53bffa147a7d00015aae5a	242035	2	main	slash	31	circle	local	LVF	yes	absent	0	2000
5d53bffa147a7d00015aae5a	244053	2	main	slash	32	circle	global	LVF	yes	present	1	601
5d53bffa147a7d00015aae5a	245677	2	main	slash	33	circle	local	RVF	yes	present	1	517
5d53bffa147a7d00015aae5a	247412	2	main	slash	34	square	global	RVF	yes	present	1	594
5d53bffa147a7d00015aae5a	250419	2	main	slash	35	absent	absent	absent	no	absent	1	2000
5d53bffa147a7d00015aae5a	253452	2	main	slash	36	square	local	RVF	yes	absent	0	2000
5d53bffa147a7d00015aae5a	255124	2	main	slash	37	circle	global	RVF	yes	present	1	623
5d53bffa147a7d00015aae5a	257524	2	main	slash	38	square	local	LVF	yes	present	1	1306
5d53bffa147a7d00015aae5a	260452	2	main	slash	39	absent	absent	absent	no	absent	1	2000
5d53bffa147a7d00015aae5a	263602	2	main	slash	40	absent	absent	absent	no	absent	1	2000
5d53bffa147a7d00015aae5a	266586	2	main	slash	41	absent	absent	absent	no	absent	1	2000
5d53bffa147a7d00015aae5a	268788	2	main	slash	42	square	local	RVF	yes	present	1	1253
5d53bffa147a7d00015aae5a	270524	2	main	slash	43	square	global	LVF	yes	present	1	739
5d53bffa147a7d00015aae5a	272532	2	main	slash	44	square	local	LVF	yes	present	1	947
5d53bffa147a7d00015aae5a	274180	2	main	slash	45	circle	local	LVF	yes	present	1	729
5d53bffa147a7d00015aae5a	276101	2	main	slash	46	circle	local	LVF	yes	present	1	832
5d53bffa147a7d00015aae5a	279202	2	main	slash	47	circle	global	LVF	yes	absent	0	2000
5d53bffa147a7d00015aae5a	282169	2	main	slash	48	absent	absent	absent	no	absent	1	2000
5d53bffa147a7d00015aae5a	284260	2	main	slash	49	circle	global	LVF	yes	present	1	1075
5d53bffa147a7d00015aae5a	287402	2	main	slash	50	square	local	RVF	yes	absent	0	2000
5d53bffa147a7d00015aae5a	289564	2	main	slash	51	circle	local	LVF	yes	present	1	1012
5d53bffa147a7d00015aae5a	291509	2	main	slash	52	circle	global	RVF	yes	present	1	856
5d53bffa147a7d00015aae5a	293492	2	main	slash	53	circle	local	RVF	yes	present	1	974
5d53bffa147a7d00015aae5a	295748	2	main	slash	54	square	local	LVF	yes	present	1	1313
5d53bffa147a7d00015aae5a	297236	2	main	slash	55	circle	local	LVF	yes	present	1	668
5d53bffa147a7d00015aae5a	299028	2	main	slash	56	square	global	LVF	yes	present	1	843
5d53bffa147a7d00015aae5a	300949	2	main	slash	57	square	local	RVF	yes	present	1	963
5d53bffa147a7d00015aae5a	303802	2	main	slash	58	square	local	RVF	yes	absent	0	2000
5d53bffa147a7d00015aae5a	307252	2	main	slash	59	absent	absent	absent	no	absent	1	2000
5d53bffa147a7d00015aae5a	310252	2	main	slash	60	absent	absent	absent	no	absent	1	2000
5d53bffa147a7d00015aae5a	311876	2	main	slash	61	circle	global	LVF	yes	present	1	641
5d53bffa147a7d00015aae5a	313508	2	main	slash	62	circle	global	LVF	yes	present	1	673
5d53bffa147a7d00015aae5a	315596	2	main	slash	63	square	local	LVF	yes	present	1	1194
5d53bffa147a7d00015aae5a	318552	2	main	slash	64	square	global	RVF	yes	absent	0	2000
5d53bffa147a7d00015aae5a	320621	2	main	slash	65	square	global	LVF	yes	present	1	802
5d53bffa147a7d00015aae5a	323519	2	main	slash	66	absent	absent	absent	no	absent	1	2000
5d53bffa147a7d00015aae5a	325084	2	main	slash	67	square	global	LVF	yes	present	1	682
5d53bffa147a7d00015aae5a	327919	2	main	slash	68	square	global	RVF	yes	absent	0	2000
5d53bffa147a7d00015aae5a	329532	2	main	slash	69	circle	global	RVF	yes	present	1	614
5d53bffa147a7d00015aae5a	331525	2	main	slash	70	square	global	RVF	yes	present	1	1156
5d53bffa147a7d00015aae5a	332909	2	main	slash	71	square	global	RVF	yes	present	1	573
5d53bffa147a7d00015aae5a	335836	2	main	slash	72	absent	absent	absent	no	absent	1	2000
5d53bffa147a7d00015aae5a	337372	2	main	slash	73	circle	local	RVF	yes	present	1	554
5d53bffa147a7d00015aae5a	339052	2	main	slash	74	square	local	LVF	yes	present	1	834
5d53bffa147a7d00015aae5a	341886	2	main	slash	75	absent	absent	absent	no	absent	1	2000
5d53bffa147a7d00015aae5a	343476	2	main	slash	76	circle	global	RVF	yes	present	1	574
5d53bffa147a7d00015aae5a	344916	2	main	slash	77	circle	local	RVF	yes	present	1	614
5d53bffa147a7d00015aae5a	346900	2	main	slash	78	circle	global	RVF	yes	present	1	1148
5d53bffa147a7d00015aae5a	348469	2	main	slash	79	circle	local	RVF	yes	present	1	816
5d53bffa147a7d00015aae5a	351336	2	main	slash	80	absent	absent	absent	no	absent	1	2000
5d53bffa147a7d00015aae5a	371016	3	practice	z	1	square	global	RVF	yes	present	1	527
5d53bffa147a7d00015aae5a	373912	3	practice	z	2	circle	global	RVF	yes	present	1	573
5d53bffa147a7d00015aae5a	377905	3	practice	z	3	absent	absent	absent	no	absent	1	2000
5d53bffa147a7d00015aae5a	380687	3	practice	z	4	circle	global	LVF	yes	present	1	582
5d53bffa147a7d00015aae5a	383351	3	practice	z	5	circle	global	LVF	yes	present	1	680
5d53bffa147a7d00015aae5a	387289	3	practice	z	6	absent	absent	absent	no	absent	1	2000
5d53bffa147a7d00015aae5a	391522	3	practice	z	7	square	local	LVF	yes	absent	0	2000
5d53bffa147a7d00015aae5a	394280	3	practice	z	8	circle	local	RVF	yes	present	1	658
5d53bffa147a7d00015aae5a	396896	3	practice	z	9	square	global	LVF	yes	present	1	590
5d53bffa147a7d00015aae5a	400972	3	practice	z	10	absent	absent	absent	no	absent	1	2000
5d53bffa147a7d00015aae5a	403823	3	practice	z	11	circle	local	RVF	yes	present	1	652
5d53bffa147a7d00015aae5a	406455	3	practice	z	12	circle	local	RVF	yes	present	1	584
5d53bffa147a7d00015aae5a	409439	3	practice	z	13	square	local	LVF	yes	present	1	834
5d53bffa147a7d00015aae5a	412015	3	practice	z	14	circle	global	RVF	yes	present	1	610
5d53bffa147a7d00015aae5a	416172	3	practice	z	15	absent	absent	absent	no	absent	1	2000
5d53bffa147a7d00015aae5a	419480	3	practice	z	16	square	global	LVF	yes	present	1	808
5d53bffa147a7d00015aae5a	426136	4	main	z	1	absent	absent	absent	no	absent	1	2000
5d53bffa147a7d00015aae5a	429136	4	main	z	2	absent	absent	absent	no	absent	1	2000
5d53bffa147a7d00015aae5a	430764	4	main	z	3	square	global	RVF	yes	present	1	662
5d53bffa147a7d00015aae5a	433092	4	main	z	4	square	global	RVF	yes	present	1	1290
5d53bffa147a7d00015aae5a	434461	4	main	z	5	circle	global	LVF	yes	present	1	558
5d53bffa147a7d00015aae5a	436197	4	main	z	6	square	local	RVF	yes	present	1	878
5d53bffa147a7d00015aae5a	437620	4	main	z	7	circle	global	RVF	yes	present	1	652
5d53bffa147a7d00015aae5a	440453	4	main	z	8	square	global	RVF	yes	absent	0	2000
5d53bffa147a7d00015aae5a	442972	4	main	z	9	square	global	RVF	yes	present	1	854
5d53bffa147a7d00015aae5a	445819	4	main	z	10	absent	absent	absent	no	absent	1	2000
5d53bffa147a7d00015aae5a	447556	4	main	z	11	circle	local	LVF	yes	present	1	754
5d53bffa147a7d00015aae5a	449108	4	main	z	12	circle	global	LVF	yes	present	1	690
5d53bffa147a7d00015aae5a	450724	4	main	z	13	square	global	LVF	yes	present	1	806
5d53bffa147a7d00015aae5a	453519	4	main	z	14	square	local	LVF	yes	absent	0	2000
5d53bffa147a7d00015aae5a	455732	4	main	z	15	circle	global	LVF	yes	present	1	614
5d53bffa147a7d00015aae5a	457197	4	main	z	16	square	global	LVF	yes	present	1	578
5d53bffa147a7d00015aae5a	458644	4	main	z	17	circle	local	RVF	yes	present	1	592
5d53bffa147a7d00015aae5a	459940	4	main	z	18	circle	local	LVF	yes	present	1	455
5d53bffa147a7d00015aae5a	461300	4	main	z	19	circle	local	RVF	yes	present	1	532
5d53bffa147a7d00015aae5a	462597	4	main	z	20	circle	local	LVF	yes	present	1	461
5d53bffa147a7d00015aae5a	465419	4	main	z	21	absent	absent	absent	no	absent	1	2000
5d53bffa147a7d00015aae5a	466812	4	main	z	22	circle	local	RVF	yes	present	1	427
5d53bffa147a7d00015aae5a	468365	4	main	z	23	circle	global	RVF	yes	present	1	629
5d53bffa147a7d00015aae5a	471202	4	main	z	24	absent	absent	absent	no	absent	1	2000
5d53bffa147a7d00015aae5a	472711	4	main	z	25	square	global	LVF	yes	present	1	523
5d53bffa147a7d00015aae5a	474237	4	main	z	26	circle	local	RVF	yes	present	1	668
5d53bffa147a7d00015aae5a	477036	4	main	z	27	square	local	RVF	yes	absent	0	2000
5d53bffa147a7d00015aae5a	480219	4	main	z	28	square	local	LVF	yes	absent	0	2000
5d53bffa147a7d00015aae5a	481796	4	main	z	29	circle	global	LVF	yes	present	1	544
5d53bffa147a7d00015aae5a	483308	4	main	z	30	square	global	LVF	yes	present	1	706
5d53bffa147a7d00015aae5a	485100	4	main	z	31	square	local	RVF	yes	present	1	998
5d53bffa147a7d00015aae5a	487886	4	main	z	32	absent	absent	absent	no	absent	1	2000
5d53bffa147a7d00015aae5a	491028	4	main	z	33	square	local	LVF	yes	present	1	1393
5d53bffa147a7d00015aae5a	492396	4	main	z	34	circle	global	RVF	yes	present	1	611
5d53bffa147a7d00015aae5a	493595	4	main	z	35	circle	global	RVF	yes	present	1	386
5d53bffa147a7d00015aae5a	495044	4	main	z	36	square	local	RVF	yes	present	1	659
5d53bffa147a7d00015aae5a	496508	4	main	z	37	circle	local	LVF	yes	present	1	589
5d53bffa147a7d00015aae5a	499302	4	main	z	38	absent	absent	absent	no	absent	1	2000
5d53bffa147a7d00015aae5a	502286	4	main	z	39	absent	absent	absent	no	absent	1	2000
5d53bffa147a7d00015aae5a	503883	4	main	z	40	square	local	LVF	yes	present	1	507
5d53bffa147a7d00015aae5a	505260	4	main	z	41	square	local	LVF	yes	present	1	558
5d53bffa147a7d00015aae5a	508036	4	main	z	42	absent	absent	absent	no	absent	1	2000
5d53bffa147a7d00015aae5a	509845	4	main	z	43	circle	global	RVF	yes	present	1	459
5d53bffa147a7d00015aae5a	511077	4	main	z	44	circle	local	RVF	yes	present	1	458
5d53bffa147a7d00015aae5a	513869	4	main	z	45	absent	absent	absent	no	absent	1	2000
5d53bffa147a7d00015aae5a	515383	4	main	z	46	circle	global	LVF	yes	present	1	504
5d53bffa147a7d00015aae5a	518186	4	main	z	47	absent	absent	absent	no	absent	1	2000
5d53bffa147a7d00015aae5a	519692	4	main	z	48	circle	global	LVF	yes	present	1	424
5d53bffa147a7d00015aae5a	522469	4	main	z	49	square	local	LVF	yes	absent	0	2000
5d53bffa147a7d00015aae5a	524197	4	main	z	50	square	global	LVF	yes	present	1	461
5d53bffa147a7d00015aae5a	526101	4	main	z	51	square	local	RVF	yes	present	1	598
5d53bffa147a7d00015aae5a	527420	4	main	z	52	circle	local	LVF	yes	present	1	568
5d53bffa147a7d00015aae5a	530186	4	main	z	53	square	global	RVF	yes	absent	0	2000
5d53bffa147a7d00015aae5a	532412	4	main	z	54	circle	global	RVF	yes	present	1	993
5d53bffa147a7d00015aae5a	533780	4	main	z	55	circle	local	RVF	yes	present	1	611
5d53bffa147a7d00015aae5a	535020	4	main	z	56	circle	local	LVF	yes	present	1	451
5d53bffa147a7d00015aae5a	536853	4	main	z	57	circle	global	LVF	yes	present	1	1033
5d53bffa147a7d00015aae5a	538276	4	main	z	58	circle	local	LVF	yes	present	1	657
5d53bffa147a7d00015aae5a	541036	4	main	z	59	square	global	RVF	yes	absent	0	2000
5d53bffa147a7d00015aae5a	544886	4	main	z	60	absent	absent	absent	no	absent	1	2000
5d53bffa147a7d00015aae5a	546416	4	main	z	61	circle	local	RVF	yes	present	1	370
5d53bffa147a7d00015aae5a	548228	4	main	z	62	square	local	RVF	yes	present	1	676
5d53bffa147a7d00015aae5a	551036	4	main	z	63	absent	absent	absent	no	absent	1	2000
5d53bffa147a7d00015aae5a	554103	4	main	z	64	square	global	RVF	yes	absent	0	2000
5d53bffa147a7d00015aae5a	555780	4	main	z	65	square	local	RVF	yes	present	1	678
5d53bffa147a7d00015aae5a	557821	4	main	z	66	circle	global	RVF	yes	present	1	1218
5d53bffa147a7d00015aae5a	560636	4	main	z	67	square	global	RVF	yes	absent	0	2000
5d53bffa147a7d00015aae5a	562445	4	main	z	68	absent	absent	absent	no	present	0	625
5d53bffa147a7d00015aae5a	564373	4	main	z	69	square	local	RVF	yes	present	1	570
5d53bffa147a7d00015aae5a	565580	4	main	z	70	circle	local	LVF	yes	present	1	411
5d53bffa147a7d00015aae5a	567469	4	main	z	71	square	local	LVF	yes	present	1	1099
5d53bffa147a7d00015aae5a	568788	4	main	z	72	square	local	LVF	yes	present	1	569
5d53bffa147a7d00015aae5a	571586	4	main	z	73	absent	absent	absent	no	absent	1	2000
5d53bffa147a7d00015aae5a	573277	4	main	z	74	square	global	LVF	yes	present	1	624
5d53bffa147a7d00015aae5a	574925	4	main	z	75	square	global	LVF	yes	present	1	805
5d53bffa147a7d00015aae5a	576262	4	main	z	76	circle	global	RVF	yes	present	1	517
5d53bffa147a7d00015aae5a	578317	4	main	z	77	absent	absent	absent	no	present	0	1297
5d53bffa147a7d00015aae5a	579594	4	main	z	78	circle	local	RVF	yes	present	1	519
5d53bffa147a7d00015aae5a	580844	4	main	z	79	square	global	LVF	yes	present	1	475
5d53bffa147a7d00015aae5a	582077	4	main	z	80	circle	global	LVF	yes	present	1	441
