subject	time_elapsed_ms	blocknum	block_type	block_response	trialnum	target	level	field	target_present	response	correct	rt
5e26762aa8c1118a9d578c4d	254214	1	practice	z	1	circle	global	RVF	yes	absent	0	2000
5e26762aa8c1118a9d578c4d	257565	1	practice	z	2	square	global	RVF	yes	present	1	783
5e26762aa8c1118a9d578c4d	260623	1	practice	z	3	circle	global	RVF	yes	present	1	707
5e26762aa8c1118a9d578c4d	263779	1	practice	z	4	square	global	LVF	yes	present	1	897
5e26762aa8c1118a9d578c4d	266502	1	practice	z	5	circle	global	LVF	yes	present	1	653
5e26762aa8c1118a9d578c4d	270547	1	practice	z	6	absent	absent	absent	no	absent	1	2000
5e26762aa8c1118a9d578c4d	274746	1	practice	z	7	absent	absent	absent	no	absent	1	2000
5e26762aa8c1118a9d578c4d	277900	1	practice	z	8	circle	global	LVF	yes	present	1	933
5e26762aa8c1118a9d578c4d	281177	1	practice	z	9	square	local	LVF	yes	present	1	1077
5e26762aa8c1118a9d578c4d	284368	1	practice	z	10	square	local	LVF	yes	present	1	952
5e26762aa8c1118a9d578c4d	288380	1	practice	z	11	absent	absent	absent	no	absent	1	2000
5e26762aa8c1118a9d578c4d	291072	1	practice	z	12	square	global	LVF	yes	present	1	655
5e26762aa8c1118a9d578c4d	295030	1	practice	z	13	absent	absent	absent	no	absent	1	2000
5e26762aa8c1118a9d578c4d	297914	1	practice	z	14	circle	local	RVF	yes	present	1	731
5e26762aa8c1118a9d578c4d	300660	1	practice	z	15	circle	local	RVF	yes	present	1	694
5e26762aa8c1118a9d578c4d	304101	1	practice	z	16	circle	local	RVF	yes	present	1	651
5e26762aa8c1118a9d578c4d	315457	2	main	z	1	square	global	LVF	yes	present	1	1190
5e26762aa8c1118a9d578c4d	318083	2	main	z	2	circle	local	RVF	yes	present	1	801
5e26762aa8c1118a9d578c4d	320381	2	main	z	3	square	local	RVF	yes	present	1	816
5e26762aa8c1118a9d578c4d	322521	2	main	z	4	square	global	LVF	yes	present	1	972
5e26762aa8c1118a9d578c4d	325597	2	main	z	5	square	local	RVF	yes	absent	0	2000
5e26762aa8c1118a9d578c4d	327699	2	main	z	6	square	local	LVF	yes	present	1	817
5e26762aa8c1118a9d578c4d	329781	2	main	z	7	circle	local	RVF	yes	present	1	916
5e26762aa8c1118a9d578c4d	332963	2	main	z	8	absent	absent	absent	no	absent	1	2000
5e26762aa8c1118a9d578c4d	335035	2	main	z	9	circle	local	LVF	yes	present	1	754
5e26762aa8c1118a9d578c4d	337092	2	main	z	10	circle	global	LVF	yes	present	1	760
5e26762aa8c1118a9d578c4d	340229	2	main	z	11	absent	absent	absent	no	absent	1	2000
5e26762aa8c1118a9d578c4d	343213	2	main	z	12	absent	absent	absent	no	absent	1	2000
5e26762aa8c1118a9d578c4d	345019	2	main	z	13	circle	global	RVF	yes	present	1	704
5e26762aa8c1118a9d578c4d	347168	2	main	z	14	square	local	RVF	yes	present	1	902
5e26762aa8c1118a9d578c4d	349023	2	main	z	15	circle	local	RVF	yes	present	1	791
5e26762aa8c1118a9d578c4d	352147	2	main	z	16	absent	absent	absent	no	absent	1	2000
5e26762aa8c1118a9d578c4d	354240	2	main	z	17	circle	global	RVF	yes	present	1	892
5e26762aa8c1118a9d578c4d	356310	2	main	z	18	square	local	RVF	yes	present	1	894
5e26762aa8c1118a9d578c4d	358526	2	main	z	19	square	local	LVF	yes	present	1	1194
5e26762aa8c1118a9d578c4d	360351	2	main	z	20	circle	local	LVF	yes	present	1	836
5e26762aa8c1118a9d578c4d	361971	2	main	z	21	circle	global	RVF	yes	present	1	655
5e26762aa8c1118a9d578c4d	363638	2	main	z	22	circle	global	RVF	yes	present	1	639
5e26762aa8c1118a9d578c4d	365254	2	main	z	23	circle	global	LVF	yes	present	1	638
5e26762aa8c1118a9d578c4d	366973	2	main	z	24	square	global	LVF	yes	present	1	758
5e26762aa8c1118a9d578c4d	368552	2	main	z	25	square	global	LVF	yes	present	1	687
5e26762aa8c1118a9d578c4d	370098	2	main	z	26	square	global	RVF	yes	present	1	682
5e26762aa8c1118a9d578c4d	371643	2	main	z	27	square	global	RVF	yes	present	1	677
5e26762aa8c1118a9d578c4d	374529	2	main	z	28	absent	absent	absent	no	absent	1	2000
5e26762aa8c1118a9d578c4d	376359	2	main	z	29	circle	global	LVF	yes	present	1	627
5e26762aa8c1118a9d578c4d	377902	2	main	z	30	circle	local	RVF	yes	present	1	670
5e26762aa8c1118a9d578c4d	379623	2	main	z	31	square	local	LVF	yes	present	1	825
5e26762aa8c1118a9d578c4d	381191	2	main	z	32	square	local	LVF	yes	present	1	692
5e26762aa8c1118a9d578c4d	384080	2	main	z	33	absent	absent	absent	no	absent	1	2000
5e26762aa8c1118a9d578c4d	385823	2	main	z	34	circle	local	LVF	yes	present	1	559
5e26762aa8c1118a9d578c4d	387417	2	main	z	35	circle	local	LVF	yes	present	1	668
5e26762aa8c1118a9d578c4d	389034	2	main	z	36	square	global	RVF	yes	present	1	753
5e26762aa8c1118a9d578c4d	390691	2	main	z	37	absent	absent	absent	no	present	0	792
5e26762aa8c1118a9d578c4d	393546	2	main	z	38	absent	absent	absent	no	absent	1	2000
5e26762aa8c1118a9d578c4d	395187	2	main	z	39	circle	global	LVF	yes	present	1	422
5e26762aa8c1118a9d578c4d	396752	2	main	z	40	square	global	RVF	yes	present	1	621
5e26762aa8c1118a9d578c4d	398291	2	main	z	41	absent	absent	absent	no	present	0	726
5e26762aa8c1118a9d578c4d	399791	2	main	z	42	circle	local	RVF	yes	present	1	676
5e26762aa8c1118a9d578c4d	401356	2	main	z	43	square	global	RVF	yes	present	1	724
5e26762aa8c1118a9d578c4d	402777	2	main	z	44	square	local	RVF	yes	present	1	662
5e26762aa8c1118a9d578c4d	404238	2	main	z	45	circle	global	LVF	yes	present	1	640
5e26762aa8c1118a9d578c4d	405677	2	main	z	46	square	local	LVF	yes	present	1	612
5e26762aa8c1118a9d578c4d	407160	2	main	z	47	circle	global	LVF	yes	present	1	628
5e26762aa8c1118a9d578c4d	408591	2	main	z	48	square	local	LVF	yes	present	1	610
5e26762aa8c1118a9d578c4d	410016	2	main	z	49	square	local	LVF	yes	present	1	584
5e26762aa8c1118a9d578c4d	411441	2	main	z	50	circle	global	RVF	yes	present	1	576
5e26762aa8c1118a9d578c4d	412929	2	main	z	51	absent	absent	absent	no	present	0	664
5e26762aa8c1118a9d578c4d	415763	2	main	z	52	absent	absent	absent	no	absent	1	2000
5e26762aa8c1118a9d578c4d	419129	2	main	z	53	absent	absent	absent	no	absent	1	2000
5e26762aa8c1118a9d578c4d	422029	2	main	z	54	absent	absent	absent	no	absent	1	2000
5e26762aa8c1118a9d578c4d	423641	2	main	z	55	circle	global	RVF	yes	present	1	642
5e26762aa8c1118a9d578c4d	425667	2	main	z	56	square	global	RVF	yes	present	1	1119
5e26762aa8c1118a9d578c4d	427556	2	main	z	57	square	local	RVF	yes	present	1	741
5e26762aa8c1118a9d578c4d	429161	2	main	z	58	square	local	RVF	yes	present	1	696
5e26762aa8c1118a9d578c4d	430636	2	main	z	59	circle	local	RVF	yes	present	1	604
5e26762aa8c1118a9d578c4d	432024	2	main	z	60	circle	global	LVF	yes	present	1	542
5e26762aa8c1118a9d578c4d	433361	2	main	z	61	circle	local	RVF	yes	present	1	512
5e26762aa8c1118a9d578c4d	434715	2	main	z	62	square	global	RVF	yes	present	1	534
5e26762aa8c1118a9d578c4d	436050	2	main	z	63	circle	global	RVF	yes	present	1	536
5e26762aa8c1118a9d578c4d	437356	2	main	z	64	square	global	LVF	yes	present	1	507
5e26762aa8c1118a9d578c4d	438638	2	main	z	65	square	global	RVF	yes	present	1	506
5e26762aa8c1118a9d578c4d	439923	2	main	z	66	square	global	LVF	yes	present	1	508
5e26762aa8c1118a9d578c4d	441207	2	main	z	67	circle	global	RVF	yes	present	1	526
5e26762aa8c1118a9d578c4d	442515	2	main	z	68	circle	local	LVF	yes	present	1	518
5e26762aa8c1118a9d578c4d	443860	2	main	z	69	circle	global	LVF	yes	present	1	595
5e26762aa8c1118a9d578c4d	445188	2	main	z	70	absent	absent	absent	no	present	0	588
5e26762aa8c1118a9d578c4d	446890	2	main	z	71	square	global	LVF	yes	present	1	940
5e26762aa8c1118a9d578c4d	448811	2	main	z	72	square	local	LVF	yes	present	1	1197
5e26762aa8c1118a9d578c4d	450403	2	main	z	73	square	local	RVF	yes	present	1	870
5e26762aa8c1118a9d578c4d	451825	2	main	z	74	circle	local	LVF	yes	present	1	693
5e26762aa8c1118a9d578c4d	453192	2	main	z	75	circle	local	LVF	yes	present	1	627
5e26762aa8c1118a9d578c4d	454516	2	main	z	76	circle	local	LVF	yes	present	1	584
5e26762aa8c1118a9d578c4d	456006	2	main	z	77	square	global	LVF	yes	present	1	741
5e26762aa8c1118a9d578c4d	458746	2	main	z	78	absent	absent	absent	no	absent	1	2000
5e26762aa8c1118a9d578c4d	461729	2	main	z	79	absent	absent	absent	no	absent	1	2000
5e26762aa8c1118a9d578c4d	463310	2	main	z	80	circle	local	RVF	yes	present	1	612
5e26762aa8c1118a9d578c4d	486480	3	practice	slash	1	circle	local	RVF	yes	present	1	665
5e26762aa8c1118a9d578c4d	490813	3	practice	slash	2	absent	absent	absent	no	absent	1	2000
5e26762aa8c1118a9d578c4d	493605	3	practice	slash	3	square	global	LVF	yes	present	1	757
5e26762aa8c1118a9d578c4d	496301	3	practice	slash	4	circle	global	LVF	yes	present	1	635
5e26762aa8c1118a9d578c4d	499108	3	practice	slash	5	square	global	RVF	yes	present	1	644
5e26762aa8c1118a9d578c4d	503296	3	practice	slash	6	absent	absent	absent	no	absent	1	2000
5e26762aa8c1118a9d578c4d	506288	3	practice	slash	7	square	local	LVF	yes	present	1	990
5e26762aa8c1118a9d578c4d	509051	3	practice	slash	8	circle	local	RVF	yes	present	1	654
5e26762aa8c1118a9d578c4d	511847	3	practice	slash	9	circle	global	LVF	yes	present	1	649
5e26762aa8c1118a9d578c4d	515829	3	practice	slash	10	absent	absent	absent	no	absent	1	2000
5e26762aa8c1118a9d578c4d	518521	3	practice	slash	11	circle	global	RVF	yes	present	1	555
5e26762aa8c1118a9d578c4d	521459	3	practice	slash	12	circle	global	RVF	yes	present	1	611
5e26762aa8c1118a9d578c4d	524178	3	practice	slash	13	square	local	LVF	yes	present	1	697
5e26762aa8c1118a9d578c4d	526689	3	practice	slash	14	circle	local	RVF	yes	present	1	640
5e26762aa8c1118a9d578c4d	530679	3	practice	slash	15	absent	absent	absent	no	absent	1	2000
5e26762aa8c1118a9d578c4d	533529	3	practice	slash	16	square	global	LVF	yes	present	1	714
5e26762aa8c1118a9d578c4d	538678	4	main	slash	1	circle	local	LVF	yes	present	1	614
5e26762aa8c1118a9d578c4d	540609	4	main	slash	2	circle	local	RVF	yes	present	1	561
5e26762aa8c1118a9d578c4d	542221	4	main	slash	3	square	global	LVF	yes	present	1	590
5e26762aa8c1118a9d578c4d	544067	4	main	slash	4	square	global	LVF	yes	present	1	936
5e26762aa8c1118a9d578c4d	545740	4	main	slash	5	square	local	LVF	yes	present	1	792
5e26762aa8c1118a9d578c4d	548646	4	main	slash	6	absent	absent	absent	no	absent	1	2000
5e26762aa8c1118a9d578c4d	550242	4	main	slash	7	circle	global	LVF	yes	present	1	561
5e26762aa8c1118a9d578c4d	551844	4	main	slash	8	circle	local	RVF	yes	present	1	629
5e26762aa8c1118a9d578c4d	553391	4	main	slash	9	circle	global	RVF	yes	present	1	609
5e26762aa8c1118a9d578c4d	556362	4	main	slash	10	absent	absent	absent	no	absent	1	2000
5e26762aa8c1118a9d578c4d	557897	4	main	slash	11	square	global	RVF	yes	present	1	467
5e26762aa8c1118a9d578c4d	560896	4	main	slash	12	absent	absent	absent	no	absent	1	2000
5e26762aa8c1118a9d578c4d	562285	4	main	slash	13	circle	local	RVF	yes	present	1	471
5e26762aa8c1118a9d578c4d	563814	4	main	slash	14	square	global	RVF	yes	present	1	533
5e26762aa8c1118a9d578c4d	565524	4	main	slash	15	square	local	LVF	yes	present	1	759
5e26762aa8c1118a9d578c4d	566993	4	main	slash	16	circle	global	RVF	yes	present	1	578
5e26762aa8c1118a9d578c4d	569929	4	main	slash	17	absent	absent	absent	no	absent	1	2000
5e26762aa8c1118a9d578c4d	571603	4	main	slash	18	square	local	RVF	yes	present	1	505
5e26762aa8c1118a9d578c4d	573146	4	main	slash	19	square	global	LVF	yes	present	1	581
5e26762aa8c1118a9d578c4d	574624	4	main	slash	20	circle	local	LVF	yes	present	1	576
5e26762aa8c1118a9d578c4d	576123	4	main	slash	21	square	local	RVF	yes	present	1	558
5e26762aa8c1118a9d578c4d	579045	4	main	slash	22	absent	absent	absent	no	absent	1	2000
5e26762aa8c1118a9d578c4d	582246	4	main	slash	23	absent	absent	absent	no	absent	1	2000
5e26762aa8c1118a9d578c4d	585611	4	main	slash	24	absent	absent	absent	no	absent	1	2000
5e26762aa8c1118a9d578c4d	587055	4	main	slash	25	square	local	LVF	yes	present	1	441
5e26762aa8c1118a9d578c4d	588380	4	main	slash	26	square	global	LVF	yes	present	1	349
5e26762aa8c1118a9d578c4d	589774	4	main	slash	27	circle	local	LVF	yes	present	1	443
5e26762aa8c1118a9d578c4d	592629	4	main	slash	28	absent	absent	absent	no	absent	1	2000
5e26762aa8c1118a9d578c4d	593972	4	main	slash	29	circle	global	RVF	yes	present	1	424
5e26762aa8c1118a9d578c4d	595320	4	main	slash	30	circle	local	RVF	yes	present	1	455
5e26762aa8c1118a9d578c4d	596549	4	main	slash	31	circle	global	LVF	yes	present	1	401
5e26762aa8c1118a9d578c4d	597816	4	main	slash	32	square	local	RVF	yes	present	1	401
5e26762aa8c1118a9d578c4d	599006	4	main	slash	33	circle	global	LVF	yes	present	1	426
5e26762aa8c1118a9d578c4d	600248	4	main	slash	34	square	local	RVF	yes	present	1	450
5e26762aa8c1118a9d578c4d	601518	4	main	slash	35	circle	global	RVF	yes	present	1	504
5e26762aa8c1118a9d578c4d	602738	4	main	slash	36	square	global	RVF	yes	present	1	456
5e26762aa8c1118a9d578c4d	603969	4	main	slash	37	circle	global	LVF	yes	present	1	455
5e26762aa8c1118a9d578c4d	605151	4	main	slash	38	circle	local	LVF	yes	present	1	437
5e26762aa8c1118a9d578c4d	606321	4	main	slash	39	square	global	RVF	yes	present	1	423
5e26762aa8c1118a9d578c4d	607587	4	main	slash	40	square	local	LVF	yes	present	1	521
5e26762aa8c1118a9d578c4d	608786	4	main	slash	41	circle	global	RVF	yes	present	1	438
5e26762aa8c1118a9d578c4d	609938	4	main	slash	42	square	local	RVF	yes	present	1	392
5e26762aa8c1118a9d578c4d	612662	4	main	slash	43	absent	absent	absent	no	absent	1	2000
5e26762aa8c1118a9d578c4d	615745	4	main	slash	44	absent	absent	absent	no	absent	1	2000
5e26762aa8c1118a9d578c4d	617023	4	main	slash	45	circle	local	RVF	yes	present	1	409
5e26762aa8c1118a9d578c4d	618103	4	main	slash	46	square	global	RVF	yes	present	1	390
5e26762aa8c1118a9d578c4d	619206	4	main	slash	47	circle	global	LVF	yes	present	1	392
5e26762aa8c1118a9d578c4d	621911	4	main	slash	48	absent	absent	absent	no	absent	1	2000
5e26762aa8c1118a9d578c4d	623304	4	main	slash	49	circle	local	LVF	yes	present	1	440
5e26762aa8c1118a9d578c4d	626145	4	main	slash	50	absent	absent	absent	no	absent	1	2000
5e26762aa8c1118a9d578c4d	627453	4	main	slash	51	circle	local	LVF	yes	present	1	356
5e26762aa8c1118a9d578c4d	628547	4	main	slash	52	circle	global	LVF	yes	present	1	399
5e26762aa8c1118a9d578c4d	629649	4	main	slash	53	square	global	RVF	yes	present	1	403
5e26762aa8c1118a9d578c4d	630838	4	main	slash	54	square	global	RVF	yes	present	1	490
5e26762aa8c1118a9d578c4d	632074	4	main	slash	55	square	local	RVF	yes	present	1	543
5e26762aa8c1118a9d578c4d	633220	4	main	slash	56	circle	global	RVF	yes	present	1	457
5e26762aa8c1118a9d578c4d	634377	4	main	slash	57	square	global	LVF	yes	present	1	447
5e26762aa8c1118a9d578c4d	637079	4	main	slash	58	absent	absent	absent	no	absent	1	2000
5e26762aa8c1118a9d578c4d	638629	4	main	slash	59	square	local	LVF	yes	present	1	431
5e26762aa8c1118a9d578c4d	639800	4	main	slash	60	square	local	RVF	yes	present	1	454
5e26762aa8c1118a9d578c4d	640976	4	main	slash	61	square	local	LVF	yes	present	1	462
5e26762aa8c1118a9d578c4d	642127	4	main	slash	62	circle	local	LVF	yes	present	1	429
5e26762aa8c1118a9d578c4d	643304	4	main	slash	63	square	global	LVF	yes	present	1	473
5e26762aa8c1118a9d578c4d	644432	4	main	slash	64	circle	local	RVF	yes	present	1	435
5e26762aa8c1118a9d578c4d	647129	4	main	slash	65	absent	absent	absent	no	absent	1	2000
5e26762aa8c1118a9d578c4d	648741	4	main	slash	66	square	local	LVF	yes	present	1	293
5e26762aa8c1118a9d578c4d	651461	4	main	slash	67	absent	absent	absent	no	absent	1	2000
5e26762aa8c1118a9d578c4d	652662	4	main	slash	68	square	global	LVF	yes	present	1	314
5e26762aa8c1118a9d578c4d	653770	4	main	slash	69	circle	local	RVF	yes	present	1	422
5e26762aa8c1118a9d578c4d	656462	4	main	slash	70	absent	absent	absent	no	absent	1	2000
5e26762aa8c1118a9d578c4d	657984	4	main	slash	71	circle	global	LVF	yes	present	1	320
5e26762aa8c1118a9d578c4d	659099	4	main	slash	72	square	local	LVF	yes	present	1	452
5e26762aa8c1118a9d578c4d	660164	4	main	slash	73	circle	global	LVF	yes	present	1	384
5e26762aa8c1118a9d578c4d	661282	4	main	slash	74	circle	local	RVF	yes	present	1	419
5e26762aa8c1118a9d578c4d	662402	4	main	slash	75	circle	global	RVF	yes	present	1	405
5e26762aa8c1118a9d578c4d	663552	4	main	slash	76	square	local	RVF	yes	present	1	455
5e26762aa8c1118a9d578c4d	664779	4	main	slash	77	square	global	LVF	yes	present	1	532
5e26762aa8c1118a9d578c4d	665916	4	main	slash	78	square	global	RVF	yes	present	1	452
5e26762aa8c1118a9d578c4d	667076	4	main	slash	79	circle	local	LVF	yes	present	1	479
5e26762aa8c1118a9d578c4d	668114	4	main	slash	80	circle	global	RVF	yes	present	1	367
