subject	time_elapsed_ms	blocknum	block_type	block_response	trialnum	target	level	field	target_present	response	correct	rt
5e8cc937ee95da07853f938c	182039	1	practice	slash	1	square	global	LVF	yes	absent	0	2000
5e8cc937ee95da07853f938c	188365	1	practice	slash	2	absent	absent	absent	no	absent	1	2000
5e8cc937ee95da07853f938c	192139	1	practice	slash	3	square	local	LVF	yes	present	1	431
5e8cc937ee95da07853f938c	196928	1	practice	slash	4	square	local	LVF	yes	absent	0	2000
5e8cc937ee95da07853f938c	201418	1	practice	slash	5	absent	absent	absent	no	absent	1	2000
5e8cc937ee95da07853f938c	205819	1	practice	slash	6	circle	global	LVF	yes	present	1	801
5e8cc937ee95da07853f938c	209169	1	practice	slash	7	circle	global	RVF	yes	present	1	471
5e8cc937ee95da07853f938c	212610	1	practice	slash	8	circle	global	RVF	yes	present	1	361
5e8cc937ee95da07853f938c	215628	1	practice	slash	9	circle	local	RVF	yes	present	1	385
5e8cc937ee95da07853f938c	219019	1	practice	slash	10	circle	local	RVF	yes	present	1	841
5e8cc937ee95da07853f938c	221978	1	practice	slash	11	circle	global	LVF	yes	present	1	621
5e8cc937ee95da07853f938c	224809	1	practice	slash	12	absent	absent	absent	no	present	0	441
5e8cc937ee95da07853f938c	229099	1	practice	slash	13	absent	absent	absent	no	absent	1	2000
5e8cc937ee95da07853f938c	231849	1	practice	slash	14	circle	local	RVF	yes	present	1	511
5e8cc937ee95da07853f938c	234565	1	practice	slash	15	square	global	RVF	yes	present	1	372
5e8cc937ee95da07853f938c	237348	1	practice	slash	16	square	global	LVF	yes	present	1	431
5e8cc937ee95da07853f938c	248601	2	main	slash	1	square	local	LVF	yes	absent	0	2000
5e8cc937ee95da07853f938c	251247	2	main	slash	2	circle	global	RVF	yes	present	1	382
5e8cc937ee95da07853f938c	254267	2	main	slash	3	square	local	RVF	yes	present	1	681
5e8cc937ee95da07853f938c	257438	2	main	slash	4	square	local	LVF	yes	present	1	1011
5e8cc937ee95da07853f938c	259867	2	main	slash	5	absent	absent	absent	no	present	0	531
5e8cc937ee95da07853f938c	262287	2	main	slash	6	square	global	LVF	yes	present	1	631
5e8cc937ee95da07853f938c	265567	2	main	slash	7	absent	absent	absent	no	present	0	1611
5e8cc937ee95da07853f938c	267557	2	main	slash	8	circle	global	LVF	yes	present	1	581
5e8cc937ee95da07853f938c	270147	2	main	slash	9	square	local	RVF	yes	present	1	1001
5e8cc937ee95da07853f938c	272097	2	main	slash	10	circle	global	LVF	yes	present	1	451
5e8cc937ee95da07853f938c	274627	2	main	slash	11	square	local	LVF	yes	present	1	921
5e8cc937ee95da07853f938c	276627	2	main	slash	12	circle	local	RVF	yes	present	1	558
5e8cc937ee95da07853f938c	278728	2	main	slash	13	square	local	RVF	yes	present	1	511
5e8cc937ee95da07853f938c	282217	2	main	slash	14	absent	absent	absent	no	absent	1	2000
5e8cc937ee95da07853f938c	283904	2	main	slash	15	circle	local	RVF	yes	present	1	372
5e8cc937ee95da07853f938c	286418	2	main	slash	16	circle	global	RVF	yes	present	1	1061
5e8cc937ee95da07853f938c	288578	2	main	slash	17	square	global	RVF	yes	present	1	511
5e8cc937ee95da07853f938c	290807	2	main	slash	18	square	local	RVF	yes	present	1	681
5e8cc937ee95da07853f938c	293847	2	main	slash	19	square	global	LVF	yes	present	1	1521
5e8cc937ee95da07853f938c	297197	2	main	slash	20	absent	absent	absent	no	absent	1	2000
5e8cc937ee95da07853f938c	299097	2	main	slash	21	circle	local	LVF	yes	present	1	691
5e8cc937ee95da07853f938c	301177	2	main	slash	22	circle	global	LVF	yes	present	1	521
5e8cc937ee95da07853f938c	303177	2	main	slash	23	circle	local	RVF	yes	present	1	511
5e8cc937ee95da07853f938c	306697	2	main	slash	24	square	global	LVF	yes	absent	0	2000
5e8cc937ee95da07853f938c	308497	2	main	slash	25	square	global	RVF	yes	present	1	431
5e8cc937ee95da07853f938c	310287	2	main	slash	26	circle	global	RVF	yes	present	1	431
5e8cc937ee95da07853f938c	312347	2	main	slash	27	square	global	RVF	yes	present	1	691
5e8cc937ee95da07853f938c	314287	2	main	slash	28	circle	global	LVF	yes	present	1	561
5e8cc937ee95da07853f938c	317817	2	main	slash	29	absent	absent	absent	no	absent	1	2000
5e8cc937ee95da07853f938c	320967	2	main	slash	30	absent	absent	absent	no	absent	1	2000
5e8cc937ee95da07853f938c	322627	2	main	slash	31	circle	local	RVF	yes	present	1	421
5e8cc937ee95da07853f938c	324697	2	main	slash	32	circle	local	LVF	yes	present	1	531
5e8cc937ee95da07853f938c	326817	2	main	slash	33	circle	global	RVF	yes	present	1	591
5e8cc937ee95da07853f938c	328767	2	main	slash	34	square	local	LVF	yes	present	1	441
5e8cc937ee95da07853f938c	331197	2	main	slash	35	circle	local	LVF	yes	present	1	691
5e8cc937ee95da07853f938c	333057	2	main	slash	36	square	global	RVF	yes	present	1	401
5e8cc937ee95da07853f938c	334857	2	main	slash	37	circle	local	LVF	yes	present	1	421
5e8cc937ee95da07853f938c	337998	2	main	slash	38	absent	absent	absent	no	present	0	1691
5e8cc937ee95da07853f938c	341337	2	main	slash	39	absent	absent	absent	no	absent	1	2000
5e8cc937ee95da07853f938c	343047	2	main	slash	40	square	global	LVF	yes	present	1	401
5e8cc937ee95da07853f938c	345117	2	main	slash	41	absent	absent	absent	no	present	0	401
5e8cc937ee95da07853f938c	347317	2	main	slash	42	circle	local	LVF	yes	present	1	681
5e8cc937ee95da07853f938c	349367	2	main	slash	43	circle	local	LVF	yes	present	1	641
5e8cc937ee95da07853f938c	352017	2	main	slash	44	absent	absent	absent	no	present	0	1171
5e8cc937ee95da07853f938c	355547	2	main	slash	45	absent	absent	absent	no	absent	1	2000
5e8cc937ee95da07853f938c	357137	2	main	slash	46	square	global	RVF	yes	present	1	401
5e8cc937ee95da07853f938c	359048	2	main	slash	47	square	local	RVF	yes	present	1	465
5e8cc937ee95da07853f938c	361068	2	main	slash	48	circle	global	LVF	yes	present	1	531
5e8cc937ee95da07853f938c	362968	2	main	slash	49	square	local	RVF	yes	present	1	421
5e8cc937ee95da07853f938c	364968	2	main	slash	50	circle	global	LVF	yes	present	1	441
5e8cc937ee95da07853f938c	366938	2	main	slash	51	square	global	LVF	yes	present	1	571
5e8cc937ee95da07853f938c	368748	2	main	slash	52	circle	global	RVF	yes	present	1	421
5e8cc937ee95da07853f938c	370588	2	main	slash	53	square	global	RVF	yes	present	1	461
5e8cc937ee95da07853f938c	372278	2	main	slash	54	circle	global	RVF	yes	present	1	441
5e8cc937ee95da07853f938c	374028	2	main	slash	55	square	global	LVF	yes	present	1	511
5e8cc937ee95da07853f938c	377308	2	main	slash	56	absent	absent	absent	no	absent	1	2000
5e8cc937ee95da07853f938c	379328	2	main	slash	57	circle	global	LVF	yes	present	1	451
5e8cc937ee95da07853f938c	381518	2	main	slash	58	square	local	LVF	yes	present	1	791
5e8cc937ee95da07853f938c	383327	2	main	slash	59	circle	local	LVF	yes	present	1	421
5e8cc937ee95da07853f938c	385308	2	main	slash	60	circle	global	RVF	yes	present	1	441
5e8cc937ee95da07853f938c	387918	2	main	slash	61	circle	local	RVF	yes	present	1	1171
5e8cc937ee95da07853f938c	389929	2	main	slash	62	square	local	LVF	yes	present	1	781
5e8cc937ee95da07853f938c	392318	2	main	slash	63	square	local	LVF	yes	present	1	462
5e8cc937ee95da07853f938c	394428	2	main	slash	64	circle	local	RVF	yes	present	1	651
5e8cc937ee95da07853f938c	396037	2	main	slash	65	circle	local	RVF	yes	present	1	351
5e8cc937ee95da07853f938c	397737	2	main	slash	66	square	local	RVF	yes	present	1	361
5e8cc937ee95da07853f938c	399728	2	main	slash	67	absent	absent	absent	no	present	0	601
5e8cc937ee95da07853f938c	401657	2	main	slash	68	square	local	LVF	yes	present	1	491
5e8cc937ee95da07853f938c	403438	2	main	slash	69	square	global	RVF	yes	present	1	421
5e8cc937ee95da07853f938c	405108	2	main	slash	70	circle	global	LVF	yes	present	1	402
5e8cc937ee95da07853f938c	406879	2	main	slash	71	circle	global	RVF	yes	present	1	441
5e8cc937ee95da07853f938c	408518	2	main	slash	72	square	global	LVF	yes	present	1	351
5e8cc937ee95da07853f938c	410118	2	main	slash	73	square	local	RVF	yes	present	1	421
5e8cc937ee95da07853f938c	413487	2	main	slash	74	absent	absent	absent	no	absent	1	2000
5e8cc937ee95da07853f938c	415018	2	main	slash	75	square	global	LVF	yes	present	1	321
5e8cc937ee95da07853f938c	416658	2	main	slash	76	square	global	RVF	yes	present	1	301
5e8cc937ee95da07853f938c	418678	2	main	slash	77	absent	absent	absent	no	present	0	311
5e8cc937ee95da07853f938c	420644	2	main	slash	78	circle	local	RVF	yes	present	1	511
5e8cc937ee95da07853f938c	422448	2	main	slash	79	circle	local	LVF	yes	present	1	451
5e8cc937ee95da07853f938c	425717	2	main	slash	80	absent	absent	absent	no	absent	1	2000
5e8cc937ee95da07853f938c	448960	3	practice	z	1	square	global	LVF	yes	present	1	589
5e8cc937ee95da07853f938c	451580	3	practice	z	2	circle	local	RVF	yes	present	1	441
5e8cc937ee95da07853f938c	454420	3	practice	z	3	circle	global	LVF	yes	present	1	641
5e8cc937ee95da07853f938c	457110	3	practice	z	4	circle	local	RVF	yes	present	1	502
5e8cc937ee95da07853f938c	460552	3	practice	z	5	square	local	LVF	yes	present	1	1320
5e8cc937ee95da07853f938c	464540	3	practice	z	6	absent	absent	absent	no	absent	1	2000
5e8cc937ee95da07853f938c	467411	3	practice	z	7	square	global	LVF	yes	present	1	430
5e8cc937ee95da07853f938c	469951	3	practice	z	8	circle	local	RVF	yes	present	1	431
5e8cc937ee95da07853f938c	473900	3	practice	z	9	absent	absent	absent	no	absent	1	2000
5e8cc937ee95da07853f938c	476391	3	practice	z	10	absent	absent	absent	no	present	0	441
5e8cc937ee95da07853f938c	479252	3	practice	z	11	circle	global	LVF	yes	present	1	681
5e8cc937ee95da07853f938c	481791	3	practice	z	12	absent	absent	absent	no	present	0	431
5e8cc937ee95da07853f938c	485190	3	practice	z	13	square	global	RVF	yes	present	1	781
5e8cc937ee95da07853f938c	489211	3	practice	z	14	circle	global	RVF	yes	absent	0	2000
5e8cc937ee95da07853f938c	491792	3	practice	z	15	circle	global	RVF	yes	present	1	442
5e8cc937ee95da07853f938c	494491	3	practice	z	16	square	local	LVF	yes	present	1	641
5e8cc937ee95da07853f938c	500529	4	main	z	1	square	global	LVF	yes	present	1	1036
5e8cc937ee95da07853f938c	502699	4	main	z	2	circle	global	LVF	yes	present	1	761
5e8cc937ee95da07853f938c	504618	4	main	z	3	square	local	RVF	yes	present	1	542
5e8cc937ee95da07853f938c	506246	4	main	z	4	square	global	LVF	yes	present	1	371
5e8cc937ee95da07853f938c	509549	4	main	z	5	absent	absent	absent	no	absent	1	2000
5e8cc937ee95da07853f938c	511348	4	main	z	6	square	local	LVF	yes	present	1	610
5e8cc937ee95da07853f938c	513909	4	main	z	7	square	global	RVF	yes	present	1	1321
5e8cc937ee95da07853f938c	515418	4	main	z	8	circle	global	RVF	yes	present	1	401
5e8cc937ee95da07853f938c	517388	4	main	z	9	circle	local	LVF	yes	present	1	760
5e8cc937ee95da07853f938c	520491	4	main	z	10	absent	absent	absent	no	absent	1	2000
5e8cc937ee95da07853f938c	521985	4	main	z	11	circle	global	LVF	yes	present	1	371
5e8cc937ee95da07853f938c	523668	4	main	z	12	circle	local	RVF	yes	present	1	431
5e8cc937ee95da07853f938c	525518	4	main	z	13	absent	absent	absent	no	present	0	420
5e8cc937ee95da07853f938c	528868	4	main	z	14	circle	global	RVF	yes	absent	0	2000
5e8cc937ee95da07853f938c	530898	4	main	z	15	circle	local	RVF	yes	present	1	541
5e8cc937ee95da07853f938c	532448	4	main	z	16	circle	global	RVF	yes	present	1	471
5e8cc937ee95da07853f938c	534419	4	main	z	17	circle	local	RVF	yes	present	1	881
5e8cc937ee95da07853f938c	536058	4	main	z	18	circle	local	RVF	yes	present	1	450
5e8cc937ee95da07853f938c	537778	4	main	z	19	circle	local	LVF	yes	present	1	580
5e8cc937ee95da07853f938c	539419	4	main	z	20	circle	local	LVF	yes	present	1	471
5e8cc937ee95da07853f938c	541058	4	main	z	21	square	local	LVF	yes	present	1	450
5e8cc937ee95da07853f938c	542809	4	main	z	22	square	local	LVF	yes	present	1	461
5e8cc937ee95da07853f938c	545550	4	main	z	23	circle	global	RVF	yes	present	1	1541
5e8cc937ee95da07853f938c	546958	4	main	z	24	square	global	RVF	yes	present	1	350
5e8cc937ee95da07853f938c	548800	4	main	z	25	square	global	RVF	yes	present	1	750
5e8cc937ee95da07853f938c	550478	4	main	z	26	absent	absent	absent	no	present	0	361
5e8cc937ee95da07853f938c	552399	4	main	z	27	square	global	LVF	yes	present	1	521
5e8cc937ee95da07853f938c	553979	4	main	z	28	circle	local	LVF	yes	present	1	407
5e8cc937ee95da07853f938c	555924	4	main	z	29	square	local	RVF	yes	present	1	381
5e8cc937ee95da07853f938c	557579	4	main	z	30	square	local	LVF	yes	present	1	452
5e8cc937ee95da07853f938c	560819	4	main	z	31	absent	absent	absent	no	absent	1	2000
5e8cc937ee95da07853f938c	562539	4	main	z	32	square	local	RVF	yes	present	1	412
5e8cc937ee95da07853f938c	564131	4	main	z	33	circle	global	LVF	yes	present	1	381
5e8cc937ee95da07853f938c	565730	4	main	z	34	square	global	RVF	yes	present	1	363
5e8cc937ee95da07853f938c	567279	4	main	z	35	square	global	LVF	yes	present	1	422
5e8cc937ee95da07853f938c	568749	4	main	z	36	circle	global	LVF	yes	present	1	421
5e8cc937ee95da07853f938c	570240	4	main	z	37	square	local	RVF	yes	present	1	392
5e8cc937ee95da07853f938c	573599	4	main	z	38	absent	absent	absent	no	absent	1	2000
5e8cc937ee95da07853f938c	574899	4	main	z	39	absent	absent	absent	no	present	0	200
5e8cc937ee95da07853f938c	576590	4	main	z	40	absent	absent	absent	no	present	0	311
5e8cc937ee95da07853f938c	578570	4	main	z	41	circle	global	LVF	yes	present	1	640
5e8cc937ee95da07853f938c	580027	4	main	z	42	square	local	LVF	yes	present	1	381
5e8cc937ee95da07853f938c	581670	4	main	z	43	square	global	RVF	yes	present	1	531
5e8cc937ee95da07853f938c	583520	4	main	z	44	square	global	RVF	yes	present	1	641
5e8cc937ee95da07853f938c	585139	4	main	z	45	circle	global	LVF	yes	present	1	451
5e8cc937ee95da07853f938c	586866	4	main	z	46	absent	absent	absent	no	present	0	512
5e8cc937ee95da07853f938c	590230	4	main	z	47	absent	absent	absent	no	absent	1	2000
5e8cc937ee95da07853f938c	592150	4	main	z	48	absent	absent	absent	no	present	0	451
5e8cc937ee95da07853f938c	593749	4	main	z	49	circle	local	LVF	yes	present	1	451
5e8cc937ee95da07853f938c	595407	4	main	z	50	circle	global	LVF	yes	present	1	372
5e8cc937ee95da07853f938c	598519	4	main	z	51	absent	absent	absent	no	absent	1	2000
5e8cc937ee95da07853f938c	599959	4	main	z	52	absent	absent	absent	no	present	0	301
5e8cc937ee95da07853f938c	601809	4	main	z	53	circle	local	LVF	yes	present	1	620
5e8cc937ee95da07853f938c	603909	4	main	z	54	square	global	LVF	yes	present	1	771
5e8cc937ee95da07853f938c	605509	4	main	z	55	circle	global	RVF	yes	present	1	400
5e8cc937ee95da07853f938c	607149	4	main	z	56	circle	global	RVF	yes	present	1	481
5e8cc937ee95da07853f938c	608799	4	main	z	57	circle	local	RVF	yes	present	1	481
5e8cc937ee95da07853f938c	610329	4	main	z	58	square	global	RVF	yes	present	1	451
5e8cc937ee95da07853f938c	613469	4	main	z	59	absent	absent	absent	no	absent	1	2000
5e8cc937ee95da07853f938c	615089	4	main	z	60	circle	local	LVF	yes	present	1	450
5e8cc937ee95da07853f938c	616663	4	main	z	61	circle	local	RVF	yes	present	1	371
5e8cc937ee95da07853f938c	618799	4	main	z	62	circle	local	RVF	yes	present	1	390
5e8cc937ee95da07853f938c	620650	4	main	z	63	circle	local	RVF	yes	present	1	800
5e8cc937ee95da07853f938c	622119	4	main	z	64	square	global	RVF	yes	present	1	311
5e8cc937ee95da07853f938c	624810	4	main	z	65	square	global	LVF	yes	present	1	1361
5e8cc937ee95da07853f938c	626329	4	main	z	66	circle	local	LVF	yes	present	1	491
5e8cc937ee95da07853f938c	627889	4	main	z	67	circle	global	RVF	yes	present	1	461
5e8cc937ee95da07853f938c	629509	4	main	z	68	absent	absent	absent	no	present	0	411
5e8cc937ee95da07853f938c	632699	4	main	z	69	absent	absent	absent	no	absent	1	2000
5e8cc937ee95da07853f938c	634179	4	main	z	70	square	global	LVF	yes	present	1	361
5e8cc937ee95da07853f938c	635899	4	main	z	71	square	local	RVF	yes	present	1	430
5e8cc937ee95da07853f938c	637390	4	main	z	72	square	local	RVF	yes	present	1	361
5e8cc937ee95da07853f938c	638829	4	main	z	73	square	local	RVF	yes	present	1	411
5e8cc937ee95da07853f938c	640549	4	main	z	74	square	local	LVF	yes	present	1	767
5e8cc937ee95da07853f938c	641929	4	main	z	75	square	local	LVF	yes	present	1	390
5e8cc937ee95da07853f938c	644280	4	main	z	76	square	global	LVF	yes	present	1	1141
5e8cc937ee95da07853f938c	645659	4	main	z	77	circle	global	LVF	yes	present	1	481
5e8cc937ee95da07853f938c	646984	4	main	z	78	square	local	RVF	yes	present	1	381
5e8cc937ee95da07853f938c	649933	4	main	z	79	square	local	LVF	yes	absent	0	2000
5e8cc937ee95da07853f938c	651289	4	main	z	80	circle	global	RVF	yes	present	1	211
