subject	time_elapsed_ms	blocknum	block_type	block_response	trialnum	target	level	field	target_present	response	correct	rt
5f88dbd56a6aff03a935b5f8	242676	1	practice	z	1	circle	global	LVF	yes	present	1	672
5f88dbd56a6aff03a935b5f8	246796	1	practice	z	2	circle	local	RVF	yes	present	1	996
5f88dbd56a6aff03a935b5f8	251812	1	practice	z	3	square	global	LVF	yes	present	1	962
5f88dbd56a6aff03a935b5f8	255404	1	practice	z	4	circle	local	RVF	yes	present	1	908
5f88dbd56a6aff03a935b5f8	260158	1	practice	z	5	absent	absent	absent	no	absent	1	2000
5f88dbd56a6aff03a935b5f8	263947	1	practice	z	6	square	local	LVF	yes	present	1	1141
5f88dbd56a6aff03a935b5f8	268101	1	practice	z	7	absent	absent	absent	no	absent	1	2000
5f88dbd56a6aff03a935b5f8	271316	1	practice	z	8	square	global	LVF	yes	present	1	1034
5f88dbd56a6aff03a935b5f8	274435	1	practice	z	9	circle	global	RVF	yes	present	1	859
5f88dbd56a6aff03a935b5f8	278553	1	practice	z	10	absent	absent	absent	no	absent	1	2000
5f88dbd56a6aff03a935b5f8	281788	1	practice	z	11	circle	global	RVF	yes	present	1	1288
5f88dbd56a6aff03a935b5f8	284540	1	practice	z	12	circle	global	LVF	yes	present	1	645
5f88dbd56a6aff03a935b5f8	288671	1	practice	z	13	absent	absent	absent	no	absent	1	2000
5f88dbd56a6aff03a935b5f8	291276	1	practice	z	14	square	global	RVF	yes	present	1	709
5f88dbd56a6aff03a935b5f8	293595	1	practice	z	15	circle	local	RVF	yes	present	1	420
5f88dbd56a6aff03a935b5f8	297204	1	practice	z	16	square	local	LVF	yes	present	1	1603
5f88dbd56a6aff03a935b5f8	304986	2	main	z	1	circle	local	RVF	yes	present	1	653
5f88dbd56a6aff03a935b5f8	308757	2	main	z	2	circle	local	RVF	yes	absent	0	2000
5f88dbd56a6aff03a935b5f8	310602	2	main	z	3	square	global	RVF	yes	present	1	534
5f88dbd56a6aff03a935b5f8	312530	2	main	z	4	circle	global	LVF	yes	present	1	405
5f88dbd56a6aff03a935b5f8	314122	2	main	z	5	square	local	RVF	yes	present	1	292
5f88dbd56a6aff03a935b5f8	315938	2	main	z	6	circle	global	RVF	yes	present	1	385
5f88dbd56a6aff03a935b5f8	317594	2	main	z	7	circle	global	LVF	yes	present	1	386
5f88dbd56a6aff03a935b5f8	320498	2	main	z	8	circle	local	LVF	yes	present	1	630
5f88dbd56a6aff03a935b5f8	322247	2	main	z	9	square	global	LVF	yes	present	1	369
5f88dbd56a6aff03a935b5f8	324170	2	main	z	10	square	local	RVF	yes	present	1	623
5f88dbd56a6aff03a935b5f8	326514	2	main	z	11	circle	local	LVF	yes	present	1	358
5f88dbd56a6aff03a935b5f8	327978	2	main	z	12	circle	local	LVF	yes	present	1	301
5f88dbd56a6aff03a935b5f8	329690	2	main	z	13	circle	local	LVF	yes	present	1	441
5f88dbd56a6aff03a935b5f8	332922	2	main	z	14	absent	absent	absent	no	absent	1	2000
5f88dbd56a6aff03a935b5f8	334242	2	main	z	15	square	local	LVF	yes	present	1	327
5f88dbd56a6aff03a935b5f8	335787	2	main	z	16	absent	absent	absent	no	present	0	316
5f88dbd56a6aff03a935b5f8	337683	2	main	z	17	square	local	LVF	yes	present	1	640
5f88dbd56a6aff03a935b5f8	339435	2	main	z	18	circle	global	RVF	yes	present	1	385
5f88dbd56a6aff03a935b5f8	340971	2	main	z	19	square	global	LVF	yes	present	1	416
5f88dbd56a6aff03a935b5f8	343058	2	main	z	20	absent	absent	absent	no	present	0	1033
5f88dbd56a6aff03a935b5f8	346200	2	main	z	21	absent	absent	absent	no	absent	1	2000
5f88dbd56a6aff03a935b5f8	348370	2	main	z	22	circle	global	RVF	yes	present	1	675
5f88dbd56a6aff03a935b5f8	349826	2	main	z	23	square	global	LVF	yes	present	1	342
5f88dbd56a6aff03a935b5f8	351826	2	main	z	24	circle	local	RVF	yes	present	1	920
5f88dbd56a6aff03a935b5f8	353594	2	main	z	25	square	global	RVF	yes	present	1	564
5f88dbd56a6aff03a935b5f8	355466	2	main	z	26	circle	local	RVF	yes	present	1	464
5f88dbd56a6aff03a935b5f8	356922	2	main	z	27	square	local	LVF	yes	present	1	415
5f88dbd56a6aff03a935b5f8	358467	2	main	z	28	circle	global	LVF	yes	present	1	420
5f88dbd56a6aff03a935b5f8	361736	2	main	z	29	absent	absent	absent	no	absent	1	2000
5f88dbd56a6aff03a935b5f8	363098	2	main	z	30	circle	global	LVF	yes	present	1	437
5f88dbd56a6aff03a935b5f8	364682	2	main	z	31	square	local	LVF	yes	present	1	565
5f88dbd56a6aff03a935b5f8	366458	2	main	z	32	square	local	RVF	yes	present	1	552
5f88dbd56a6aff03a935b5f8	367986	2	main	z	33	circle	global	RVF	yes	present	1	525
5f88dbd56a6aff03a935b5f8	369418	2	main	z	34	square	global	RVF	yes	present	1	417
5f88dbd56a6aff03a935b5f8	372338	2	main	z	35	absent	absent	absent	no	absent	1	2000
5f88dbd56a6aff03a935b5f8	373754	2	main	z	36	square	global	RVF	yes	present	1	473
5f88dbd56a6aff03a935b5f8	375066	2	main	z	37	square	global	LVF	yes	present	1	413
5f88dbd56a6aff03a935b5f8	378091	2	main	z	38	absent	absent	absent	no	absent	1	2000
5f88dbd56a6aff03a935b5f8	381001	2	main	z	39	absent	absent	absent	no	absent	1	2000
5f88dbd56a6aff03a935b5f8	382306	2	main	z	40	square	local	RVF	yes	present	1	396
5f88dbd56a6aff03a935b5f8	383772	2	main	z	41	circle	local	LVF	yes	present	1	372
5f88dbd56a6aff03a935b5f8	385187	2	main	z	42	square	local	RVF	yes	present	1	517
5f88dbd56a6aff03a935b5f8	388125	2	main	z	43	absent	absent	absent	no	absent	1	2000
5f88dbd56a6aff03a935b5f8	392506	2	main	z	44	absent	absent	absent	no	absent	1	2000
5f88dbd56a6aff03a935b5f8	393874	2	main	z	45	absent	absent	absent	no	present	0	476
5f88dbd56a6aff03a935b5f8	395882	2	main	z	46	circle	global	RVF	yes	present	1	912
5f88dbd56a6aff03a935b5f8	398002	2	main	z	47	square	local	RVF	yes	present	1	975
5f88dbd56a6aff03a935b5f8	399362	2	main	z	48	square	local	LVF	yes	present	1	429
5f88dbd56a6aff03a935b5f8	400690	2	main	z	49	square	local	LVF	yes	present	1	434
5f88dbd56a6aff03a935b5f8	403577	2	main	z	50	absent	absent	absent	no	absent	1	2000
5f88dbd56a6aff03a935b5f8	404882	2	main	z	51	circle	global	RVF	yes	present	1	379
5f88dbd56a6aff03a935b5f8	406202	2	main	z	52	square	global	RVF	yes	present	1	444
5f88dbd56a6aff03a935b5f8	409062	2	main	z	53	absent	absent	absent	no	absent	1	2000
5f88dbd56a6aff03a935b5f8	412005	2	main	z	54	absent	absent	absent	no	absent	1	2000
5f88dbd56a6aff03a935b5f8	413410	2	main	z	55	circle	local	RVF	yes	present	1	495
5f88dbd56a6aff03a935b5f8	414650	2	main	z	56	circle	local	LVF	yes	present	1	380
5f88dbd56a6aff03a935b5f8	415922	2	main	z	57	square	local	RVF	yes	present	1	398
5f88dbd56a6aff03a935b5f8	417218	2	main	z	58	circle	global	RVF	yes	present	1	406
5f88dbd56a6aff03a935b5f8	418562	2	main	z	59	square	local	RVF	yes	present	1	463
5f88dbd56a6aff03a935b5f8	419786	2	main	z	60	square	global	RVF	yes	present	1	451
5f88dbd56a6aff03a935b5f8	420954	2	main	z	61	square	global	LVF	yes	present	1	430
5f88dbd56a6aff03a935b5f8	423677	2	main	z	62	absent	absent	absent	no	absent	1	2000
5f88dbd56a6aff03a935b5f8	425026	2	main	z	63	square	global	LVF	yes	present	1	422
5f88dbd56a6aff03a935b5f8	426234	2	main	z	64	square	global	RVF	yes	present	1	393
5f88dbd56a6aff03a935b5f8	427426	2	main	z	65	square	local	LVF	yes	present	1	363
5f88dbd56a6aff03a935b5f8	428562	2	main	z	66	square	global	LVF	yes	present	1	330
5f88dbd56a6aff03a935b5f8	429602	2	main	z	67	circle	global	LVF	yes	present	1	315
5f88dbd56a6aff03a935b5f8	430650	2	main	z	68	square	global	RVF	yes	present	1	344
5f88dbd56a6aff03a935b5f8	432066	2	main	z	69	circle	local	RVF	yes	present	1	689
5f88dbd56a6aff03a935b5f8	435183	2	main	z	70	absent	absent	absent	no	absent	1	2000
5f88dbd56a6aff03a935b5f8	436410	2	main	z	71	circle	global	LVF	yes	present	1	267
5f88dbd56a6aff03a935b5f8	437554	2	main	z	72	circle	local	RVF	yes	present	1	307
5f88dbd56a6aff03a935b5f8	438754	2	main	z	73	circle	local	RVF	yes	present	1	353
5f88dbd56a6aff03a935b5f8	439978	2	main	z	74	circle	global	RVF	yes	present	1	390
5f88dbd56a6aff03a935b5f8	441122	2	main	z	75	circle	global	LVF	yes	present	1	381
5f88dbd56a6aff03a935b5f8	442266	2	main	z	76	square	local	LVF	yes	present	1	404
5f88dbd56a6aff03a935b5f8	443338	2	main	z	77	circle	local	LVF	yes	present	1	339
5f88dbd56a6aff03a935b5f8	444442	2	main	z	78	square	global	LVF	yes	present	1	339
5f88dbd56a6aff03a935b5f8	445538	2	main	z	79	circle	local	LVF	yes	present	1	349
5f88dbd56a6aff03a935b5f8	446666	2	main	z	80	circle	global	LVF	yes	present	1	355
5f88dbd56a6aff03a935b5f8	462187	3	practice	slash	1	circle	local	RVF	yes	present	1	426
5f88dbd56a6aff03a935b5f8	464668	3	practice	slash	2	square	global	LVF	yes	present	1	381
5f88dbd56a6aff03a935b5f8	466915	3	practice	slash	3	circle	local	RVF	yes	present	1	338
5f88dbd56a6aff03a935b5f8	470801	3	practice	slash	4	absent	absent	absent	no	absent	1	2000
5f88dbd56a6aff03a935b5f8	473228	3	practice	slash	5	square	global	RVF	yes	present	1	498
5f88dbd56a6aff03a935b5f8	475923	3	practice	slash	6	square	local	LVF	yes	present	1	583
5f88dbd56a6aff03a935b5f8	478340	3	practice	slash	7	circle	global	LVF	yes	present	1	492
5f88dbd56a6aff03a935b5f8	480563	3	practice	slash	8	circle	global	RVF	yes	present	1	324
5f88dbd56a6aff03a935b5f8	482811	3	practice	slash	9	circle	global	LVF	yes	present	1	348
5f88dbd56a6aff03a935b5f8	485083	3	practice	slash	10	absent	absent	absent	no	present	0	396
5f88dbd56a6aff03a935b5f8	487507	3	practice	slash	11	square	local	LVF	yes	present	1	495
5f88dbd56a6aff03a935b5f8	489763	3	practice	slash	12	circle	local	RVF	yes	present	1	427
5f88dbd56a6aff03a935b5f8	492243	3	practice	slash	13	circle	global	RVF	yes	present	1	582
5f88dbd56a6aff03a935b5f8	494523	3	practice	slash	14	square	global	LVF	yes	present	1	437
5f88dbd56a6aff03a935b5f8	498360	3	practice	slash	15	absent	absent	absent	no	absent	1	2000
5f88dbd56a6aff03a935b5f8	502273	3	practice	slash	16	absent	absent	absent	no	absent	1	2000
5f88dbd56a6aff03a935b5f8	507259	4	main	slash	1	absent	absent	absent	no	absent	1	2000
5f88dbd56a6aff03a935b5f8	508578	4	main	slash	2	circle	local	RVF	yes	present	1	410
5f88dbd56a6aff03a935b5f8	510402	4	main	slash	3	circle	global	LVF	yes	present	1	410
5f88dbd56a6aff03a935b5f8	511874	4	main	slash	4	square	global	LVF	yes	present	1	310
5f88dbd56a6aff03a935b5f8	513218	4	main	slash	5	circle	local	LVF	yes	present	1	333
5f88dbd56a6aff03a935b5f8	514514	4	main	slash	6	square	global	LVF	yes	present	1	308
5f88dbd56a6aff03a935b5f8	517661	4	main	slash	7	absent	absent	absent	no	absent	1	2000
5f88dbd56a6aff03a935b5f8	519946	4	main	slash	8	square	local	LVF	yes	present	1	355
5f88dbd56a6aff03a935b5f8	521394	4	main	slash	9	square	local	RVF	yes	present	1	415
5f88dbd56a6aff03a935b5f8	522922	4	main	slash	10	square	global	RVF	yes	present	1	522
5f88dbd56a6aff03a935b5f8	525905	4	main	slash	11	absent	absent	absent	no	absent	1	2000
5f88dbd56a6aff03a935b5f8	527194	4	main	slash	12	circle	global	RVF	yes	present	1	379
5f88dbd56a6aff03a935b5f8	528514	4	main	slash	13	circle	global	RVF	yes	present	1	378
5f88dbd56a6aff03a935b5f8	529818	4	main	slash	14	circle	local	LVF	yes	present	1	394
5f88dbd56a6aff03a935b5f8	531146	4	main	slash	15	circle	global	LVF	yes	present	1	401
5f88dbd56a6aff03a935b5f8	533050	4	main	slash	16	circle	global	RVF	yes	present	1	365
5f88dbd56a6aff03a935b5f8	536023	4	main	slash	17	absent	absent	absent	no	absent	1	2000
5f88dbd56a6aff03a935b5f8	537642	4	main	slash	18	absent	absent	absent	no	present	0	408
5f88dbd56a6aff03a935b5f8	539442	4	main	slash	19	square	global	RVF	yes	present	1	553
5f88dbd56a6aff03a935b5f8	540778	4	main	slash	20	circle	local	LVF	yes	present	1	417
5f88dbd56a6aff03a935b5f8	542138	4	main	slash	21	circle	global	LVF	yes	present	1	439
5f88dbd56a6aff03a935b5f8	543466	4	main	slash	22	circle	global	LVF	yes	present	1	379
5f88dbd56a6aff03a935b5f8	545114	4	main	slash	23	square	local	RVF	yes	present	1	756
5f88dbd56a6aff03a935b5f8	546506	4	main	slash	24	circle	local	RVF	yes	present	1	409
5f88dbd56a6aff03a935b5f8	547786	4	main	slash	25	square	local	LVF	yes	present	1	385
5f88dbd56a6aff03a935b5f8	549186	4	main	slash	26	square	local	RVF	yes	present	1	414
5f88dbd56a6aff03a935b5f8	552077	4	main	slash	27	absent	absent	absent	no	absent	1	2000
5f88dbd56a6aff03a935b5f8	553434	4	main	slash	28	absent	absent	absent	no	present	0	447
5f88dbd56a6aff03a935b5f8	554738	4	main	slash	29	circle	local	LVF	yes	present	1	364
5f88dbd56a6aff03a935b5f8	555946	4	main	slash	30	square	global	LVF	yes	present	1	351
5f88dbd56a6aff03a935b5f8	558849	4	main	slash	31	absent	absent	absent	no	absent	1	2000
5f88dbd56a6aff03a935b5f8	560154	4	main	slash	32	square	global	LVF	yes	present	1	361
5f88dbd56a6aff03a935b5f8	561394	4	main	slash	33	square	global	RVF	yes	present	1	364
5f88dbd56a6aff03a935b5f8	562842	4	main	slash	34	square	local	LVF	yes	present	1	340
5f88dbd56a6aff03a935b5f8	564234	4	main	slash	35	square	global	RVF	yes	present	1	361
5f88dbd56a6aff03a935b5f8	565554	4	main	slash	36	square	local	LVF	yes	present	1	360
5f88dbd56a6aff03a935b5f8	570938	4	main	slash	37	circle	local	RVF	yes	present	1	392
5f88dbd56a6aff03a935b5f8	572306	4	main	slash	38	circle	global	RVF	yes	present	1	389
5f88dbd56a6aff03a935b5f8	573634	4	main	slash	39	square	local	RVF	yes	present	1	362
5f88dbd56a6aff03a935b5f8	574890	4	main	slash	40	circle	local	RVF	yes	present	1	414
5f88dbd56a6aff03a935b5f8	576186	4	main	slash	41	circle	local	LVF	yes	present	1	372
5f88dbd56a6aff03a935b5f8	577602	4	main	slash	42	square	global	LVF	yes	present	1	551
5f88dbd56a6aff03a935b5f8	579970	4	main	slash	43	square	global	RVF	yes	present	1	946
5f88dbd56a6aff03a935b5f8	581634	4	main	slash	44	square	local	LVF	yes	present	1	486
5f88dbd56a6aff03a935b5f8	584586	4	main	slash	45	absent	absent	absent	no	absent	1	2000
5f88dbd56a6aff03a935b5f8	586266	4	main	slash	46	circle	local	LVF	yes	present	1	519
5f88dbd56a6aff03a935b5f8	587866	4	main	slash	47	square	local	LVF	yes	present	1	597
5f88dbd56a6aff03a935b5f8	589258	4	main	slash	48	circle	local	RVF	yes	present	1	417
5f88dbd56a6aff03a935b5f8	590754	4	main	slash	49	circle	global	RVF	yes	present	1	609
5f88dbd56a6aff03a935b5f8	592170	4	main	slash	50	circle	local	RVF	yes	present	1	420
5f88dbd56a6aff03a935b5f8	595034	4	main	slash	51	circle	global	RVF	yes	present	1	1946
5f88dbd56a6aff03a935b5f8	596562	4	main	slash	52	square	global	LVF	yes	present	1	414
5f88dbd56a6aff03a935b5f8	597946	4	main	slash	53	square	global	RVF	yes	present	1	443
5f88dbd56a6aff03a935b5f8	599266	4	main	slash	54	square	global	RVF	yes	present	1	442
5f88dbd56a6aff03a935b5f8	600533	4	main	slash	55	square	global	LVF	yes	present	1	369
5f88dbd56a6aff03a935b5f8	603382	4	main	slash	56	absent	absent	absent	no	absent	1	2000
5f88dbd56a6aff03a935b5f8	606326	4	main	slash	57	absent	absent	absent	no	absent	1	2000
5f88dbd56a6aff03a935b5f8	607650	4	main	slash	58	circle	global	LVF	yes	present	1	397
5f88dbd56a6aff03a935b5f8	608882	4	main	slash	59	circle	global	LVF	yes	present	1	292
5f88dbd56a6aff03a935b5f8	610210	4	main	slash	60	square	local	LVF	yes	present	1	482
5f88dbd56a6aff03a935b5f8	611930	4	main	slash	61	absent	absent	absent	no	present	0	630
5f88dbd56a6aff03a935b5f8	613770	4	main	slash	62	circle	local	RVF	yes	present	1	497
5f88dbd56a6aff03a935b5f8	615082	4	main	slash	63	circle	local	RVF	yes	present	1	421
5f88dbd56a6aff03a935b5f8	616970	4	main	slash	64	circle	global	RVF	yes	present	1	971
5f88dbd56a6aff03a935b5f8	618426	4	main	slash	65	square	global	LVF	yes	present	1	471
5f88dbd56a6aff03a935b5f8	620234	4	main	slash	66	circle	global	RVF	yes	present	1	673
5f88dbd56a6aff03a935b5f8	621874	4	main	slash	67	square	local	RVF	yes	present	1	423
5f88dbd56a6aff03a935b5f8	623218	4	main	slash	68	square	local	LVF	yes	present	1	446
5f88dbd56a6aff03a935b5f8	624386	4	main	slash	69	square	local	RVF	yes	present	1	360
5f88dbd56a6aff03a935b5f8	625538	4	main	slash	70	square	local	RVF	yes	present	1	375
5f88dbd56a6aff03a935b5f8	626634	4	main	slash	71	square	global	RVF	yes	present	1	334
5f88dbd56a6aff03a935b5f8	627754	4	main	slash	72	circle	global	LVF	yes	present	1	350
5f88dbd56a6aff03a935b5f8	628834	4	main	slash	73	circle	global	LVF	yes	present	1	293
5f88dbd56a6aff03a935b5f8	629825	4	main	slash	74	absent	absent	absent	no	present	0	282
5f88dbd56a6aff03a935b5f8	633451	4	main	slash	75	absent	absent	absent	no	absent	1	2000
5f88dbd56a6aff03a935b5f8	636394	4	main	slash	76	absent	absent	absent	no	absent	1	2000
5f88dbd56a6aff03a935b5f8	637962	4	main	slash	77	square	local	RVF	yes	present	1	608
5f88dbd56a6aff03a935b5f8	639402	4	main	slash	78	absent	absent	absent	no	present	0	509
5f88dbd56a6aff03a935b5f8	641402	4	main	slash	79	circle	local	LVF	yes	present	1	570
5f88dbd56a6aff03a935b5f8	642769	4	main	slash	80	circle	local	LVF	yes	present	1	399
