subject	time_elapsed_ms	blocknum	block_type	block_response	trialnum	target	level	field	target_present	response	correct	rt
603032b2b88b07e8aceb10c4	138785	1	practice	slash	1	circle	global	RVF	yes	absent	0	2000
603032b2b88b07e8aceb10c4	142298	1	practice	slash	2	absent	absent	absent	no	present	0	547
603032b2b88b07e8aceb10c4	146985	1	practice	slash	3	square	local	LVF	yes	absent	0	2000
603032b2b88b07e8aceb10c4	149873	1	practice	slash	4	circle	local	RVF	yes	present	1	705
603032b2b88b07e8aceb10c4	153078	1	practice	slash	5	circle	global	RVF	yes	present	1	694
603032b2b88b07e8aceb10c4	158318	1	practice	slash	6	absent	absent	absent	no	absent	1	2000
603032b2b88b07e8aceb10c4	161368	1	practice	slash	7	square	local	LVF	yes	present	1	882
603032b2b88b07e8aceb10c4	164479	1	practice	slash	8	square	global	LVF	yes	present	1	561
603032b2b88b07e8aceb10c4	169601	1	practice	slash	9	absent	absent	absent	no	absent	1	2000
603032b2b88b07e8aceb10c4	172381	1	practice	slash	10	circle	global	LVF	yes	present	1	562
603032b2b88b07e8aceb10c4	176861	1	practice	slash	11	absent	absent	absent	no	present	0	742
603032b2b88b07e8aceb10c4	179463	1	practice	slash	12	square	global	LVF	yes	present	1	461
603032b2b88b07e8aceb10c4	182193	1	practice	slash	13	circle	local	RVF	yes	present	1	491
603032b2b88b07e8aceb10c4	185127	1	practice	slash	14	square	global	RVF	yes	present	1	675
603032b2b88b07e8aceb10c4	188571	1	practice	slash	15	circle	global	LVF	yes	present	1	568
603032b2b88b07e8aceb10c4	191679	1	practice	slash	16	circle	local	RVF	yes	present	1	575
603032b2b88b07e8aceb10c4	855522	2	main	slash	1	square	local	RVF	yes	absent	0	2000
603032b2b88b07e8aceb10c4	857600	2	main	slash	2	circle	global	LVF	yes	present	1	477
603032b2b88b07e8aceb10c4	859671	2	main	slash	3	circle	global	LVF	yes	present	1	372
603032b2b88b07e8aceb10c4	862311	2	main	slash	4	square	global	RVF	yes	present	1	1322
603032b2b88b07e8aceb10c4	864105	2	main	slash	5	circle	global	RVF	yes	present	1	511
603032b2b88b07e8aceb10c4	866144	2	main	slash	6	square	global	LVF	yes	present	1	621
603032b2b88b07e8aceb10c4	869456	2	main	slash	7	absent	absent	absent	no	absent	1	2000
603032b2b88b07e8aceb10c4	872506	2	main	slash	8	absent	absent	absent	no	absent	1	2000
603032b2b88b07e8aceb10c4	875169	2	main	slash	9	circle	local	RVF	yes	present	1	914
603032b2b88b07e8aceb10c4	878573	2	main	slash	10	absent	absent	absent	no	absent	1	2000
603032b2b88b07e8aceb10c4	881256	2	main	slash	11	circle	global	LVF	yes	present	1	483
603032b2b88b07e8aceb10c4	883759	2	main	slash	12	square	local	LVF	yes	present	1	587
603032b2b88b07e8aceb10c4	889540	2	main	slash	13	absent	absent	absent	no	absent	1	2000
603032b2b88b07e8aceb10c4	891612	2	main	slash	14	circle	global	LVF	yes	present	1	838
603032b2b88b07e8aceb10c4	895123	2	main	slash	15	square	global	LVF	yes	present	1	435
603032b2b88b07e8aceb10c4	897357	2	main	slash	16	circle	local	RVF	yes	present	1	401
603032b2b88b07e8aceb10c4	899989	2	main	slash	17	circle	local	LVF	yes	present	1	513
603032b2b88b07e8aceb10c4	903874	2	main	slash	18	absent	absent	absent	no	absent	1	2000
603032b2b88b07e8aceb10c4	906364	2	main	slash	19	circle	local	RVF	yes	present	1	558
603032b2b88b07e8aceb10c4	909339	2	main	slash	20	square	local	RVF	yes	present	1	500
603032b2b88b07e8aceb10c4	912873	2	main	slash	21	square	local	RVF	yes	present	1	699
603032b2b88b07e8aceb10c4	914619	2	main	slash	22	circle	local	RVF	yes	present	1	462
603032b2b88b07e8aceb10c4	917991	2	main	slash	23	absent	absent	absent	no	absent	1	2000
603032b2b88b07e8aceb10c4	920486	2	main	slash	24	circle	global	RVF	yes	present	1	580
603032b2b88b07e8aceb10c4	922315	2	main	slash	25	square	global	RVF	yes	present	1	474
603032b2b88b07e8aceb10c4	924250	2	main	slash	26	absent	absent	absent	no	present	0	609
603032b2b88b07e8aceb10c4	926035	2	main	slash	27	square	local	LVF	yes	present	1	429
603032b2b88b07e8aceb10c4	928101	2	main	slash	28	square	local	LVF	yes	present	1	610
603032b2b88b07e8aceb10c4	931164	2	main	slash	29	square	local	LVF	yes	present	1	723
603032b2b88b07e8aceb10c4	933675	2	main	slash	30	circle	local	LVF	yes	present	1	451
603032b2b88b07e8aceb10c4	935616	2	main	slash	31	circle	local	LVF	yes	present	1	491
603032b2b88b07e8aceb10c4	937578	2	main	slash	32	circle	global	RVF	yes	present	1	486
603032b2b88b07e8aceb10c4	940992	2	main	slash	33	absent	absent	absent	no	absent	1	2000
603032b2b88b07e8aceb10c4	943749	2	main	slash	34	square	local	RVF	yes	present	1	392
603032b2b88b07e8aceb10c4	945702	2	main	slash	35	square	global	RVF	yes	present	1	429
603032b2b88b07e8aceb10c4	947775	2	main	slash	36	circle	global	RVF	yes	present	1	380
603032b2b88b07e8aceb10c4	950331	2	main	slash	37	square	global	LVF	yes	present	1	570
603032b2b88b07e8aceb10c4	953287	2	main	slash	38	circle	local	LVF	yes	present	1	478
603032b2b88b07e8aceb10c4	955239	2	main	slash	39	square	global	LVF	yes	present	1	397
603032b2b88b07e8aceb10c4	957627	2	main	slash	40	square	global	RVF	yes	present	1	386
603032b2b88b07e8aceb10c4	959996	2	main	slash	41	circle	local	LVF	yes	present	1	404
603032b2b88b07e8aceb10c4	962125	2	main	slash	42	circle	local	RVF	yes	present	1	371
603032b2b88b07e8aceb10c4	964528	2	main	slash	43	circle	local	LVF	yes	present	1	635
603032b2b88b07e8aceb10c4	966564	2	main	slash	44	circle	global	LVF	yes	present	1	571
603032b2b88b07e8aceb10c4	968735	2	main	slash	45	square	local	LVF	yes	present	1	792
603032b2b88b07e8aceb10c4	970420	2	main	slash	46	circle	local	LVF	yes	present	1	412
603032b2b88b07e8aceb10c4	972252	2	main	slash	47	circle	global	LVF	yes	present	1	493
603032b2b88b07e8aceb10c4	974447	2	main	slash	48	square	local	RVF	yes	present	1	655
603032b2b88b07e8aceb10c4	976314	2	main	slash	49	circle	global	RVF	yes	present	1	522
603032b2b88b07e8aceb10c4	979943	2	main	slash	50	absent	absent	absent	no	absent	1	2000
603032b2b88b07e8aceb10c4	983260	2	main	slash	51	absent	absent	absent	no	absent	1	2000
603032b2b88b07e8aceb10c4	984592	2	main	slash	52	circle	local	RVF	yes	present	1	380
603032b2b88b07e8aceb10c4	986427	2	main	slash	53	circle	local	RVF	yes	present	1	375
603032b2b88b07e8aceb10c4	988117	2	main	slash	54	absent	absent	absent	no	present	0	358
603032b2b88b07e8aceb10c4	991626	2	main	slash	55	absent	absent	absent	no	absent	1	2000
603032b2b88b07e8aceb10c4	992943	2	main	slash	56	square	global	LVF	yes	present	1	382
603032b2b88b07e8aceb10c4	996477	2	main	slash	57	absent	absent	absent	no	absent	1	2000
603032b2b88b07e8aceb10c4	997867	2	main	slash	58	square	global	RVF	yes	present	1	407
603032b2b88b07e8aceb10c4	999759	2	main	slash	59	square	local	RVF	yes	present	1	399
603032b2b88b07e8aceb10c4	1003210	2	main	slash	60	square	local	LVF	yes	absent	0	2000
603032b2b88b07e8aceb10c4	1004718	2	main	slash	61	absent	absent	absent	no	present	0	392
603032b2b88b07e8aceb10c4	1006709	2	main	slash	62	circle	global	RVF	yes	present	1	381
603032b2b88b07e8aceb10c4	1009204	2	main	slash	63	square	global	LVF	yes	present	1	627
603032b2b88b07e8aceb10c4	1011395	2	main	slash	64	circle	local	LVF	yes	present	1	418
603032b2b88b07e8aceb10c4	1013633	2	main	slash	65	square	global	LVF	yes	present	1	407
603032b2b88b07e8aceb10c4	1017011	2	main	slash	66	square	global	LVF	yes	absent	0	2000
603032b2b88b07e8aceb10c4	1018248	2	main	slash	67	square	local	LVF	yes	present	1	522
603032b2b88b07e8aceb10c4	1020291	2	main	slash	68	square	global	RVF	yes	present	1	347
603032b2b88b07e8aceb10c4	1022458	2	main	slash	69	square	local	RVF	yes	present	1	430
603032b2b88b07e8aceb10c4	1024438	2	main	slash	70	square	global	RVF	yes	present	1	576
603032b2b88b07e8aceb10c4	1028958	2	main	slash	71	square	local	RVF	yes	present	1	314
603032b2b88b07e8aceb10c4	1034452	2	main	slash	72	circle	global	LVF	yes	present	1	323
603032b2b88b07e8aceb10c4	1042662	2	main	slash	73	absent	absent	absent	no	absent	1	2000
603032b2b88b07e8aceb10c4	1044647	2	main	slash	74	circle	global	RVF	yes	present	1	336
603032b2b88b07e8aceb10c4	1047781	2	main	slash	75	circle	global	LVF	yes	present	1	404
603032b2b88b07e8aceb10c4	1049928	2	main	slash	76	circle	global	RVF	yes	present	1	379
603032b2b88b07e8aceb10c4	1059012	2	main	slash	77	absent	absent	absent	no	absent	1	2000
603032b2b88b07e8aceb10c4	1061015	2	main	slash	78	circle	local	RVF	yes	present	1	469
603032b2b88b07e8aceb10c4	1065407	2	main	slash	79	square	global	RVF	yes	present	1	328
603032b2b88b07e8aceb10c4	1067804	2	main	slash	80	square	local	LVF	yes	present	1	341
603032b2b88b07e8aceb10c4	1091000	3	practice	z	1	circle	local	RVF	yes	absent	0	2000
603032b2b88b07e8aceb10c4	1093562	3	practice	z	2	absent	absent	absent	no	present	0	279
603032b2b88b07e8aceb10c4	1097918	3	practice	z	3	absent	absent	absent	no	absent	1	2000
603032b2b88b07e8aceb10c4	1102017	3	practice	z	4	absent	absent	absent	no	absent	1	2000
603032b2b88b07e8aceb10c4	1104666	3	practice	z	5	circle	global	LVF	yes	present	1	416
603032b2b88b07e8aceb10c4	1107450	3	practice	z	6	square	global	LVF	yes	present	1	433
603032b2b88b07e8aceb10c4	1111834	3	practice	z	7	absent	absent	absent	no	absent	1	2000
603032b2b88b07e8aceb10c4	1116628	3	practice	z	8	square	global	LVF	yes	present	1	361
603032b2b88b07e8aceb10c4	1119887	3	practice	z	9	circle	local	RVF	yes	present	1	353
603032b2b88b07e8aceb10c4	1125869	3	practice	z	10	circle	global	LVF	yes	present	1	319
603032b2b88b07e8aceb10c4	1129212	3	practice	z	11	circle	global	RVF	yes	present	1	311
603032b2b88b07e8aceb10c4	1131794	3	practice	z	12	circle	global	RVF	yes	present	1	310
603032b2b88b07e8aceb10c4	1135067	3	practice	z	13	circle	local	RVF	yes	present	1	513
603032b2b88b07e8aceb10c4	1137870	3	practice	z	14	square	local	LVF	yes	present	1	518
603032b2b88b07e8aceb10c4	1141206	3	practice	z	15	square	global	RVF	yes	present	1	288
603032b2b88b07e8aceb10c4	1144443	3	practice	z	16	square	local	LVF	yes	present	1	324
603032b2b88b07e8aceb10c4	1155721	4	main	z	1	circle	global	LVF	yes	present	1	440
603032b2b88b07e8aceb10c4	1160582	4	main	z	2	absent	absent	absent	no	absent	1	2000
603032b2b88b07e8aceb10c4	1162117	4	main	z	3	square	global	RVF	yes	present	1	335
603032b2b88b07e8aceb10c4	1165635	4	main	z	4	square	local	LVF	yes	present	1	485
603032b2b88b07e8aceb10c4	1168701	4	main	z	5	circle	local	RVF	yes	present	1	268
603032b2b88b07e8aceb10c4	1170534	4	main	z	6	circle	local	RVF	yes	present	1	319
603032b2b88b07e8aceb10c4	1172481	4	main	z	7	circle	global	RVF	yes	present	1	565
603032b2b88b07e8aceb10c4	1174501	4	main	z	8	circle	global	LVF	yes	present	1	285
603032b2b88b07e8aceb10c4	1177749	4	main	z	9	square	local	LVF	yes	absent	0	2000
603032b2b88b07e8aceb10c4	1179184	4	main	z	10	circle	global	RVF	yes	present	1	267
603032b2b88b07e8aceb10c4	1180810	4	main	z	11	circle	global	RVF	yes	present	1	311
603032b2b88b07e8aceb10c4	1182152	4	main	z	12	absent	absent	absent	no	present	0	302
603032b2b88b07e8aceb10c4	1184034	4	main	z	13	circle	local	RVF	yes	present	1	485
603032b2b88b07e8aceb10c4	1185528	4	main	z	14	circle	global	LVF	yes	present	1	429
603032b2b88b07e8aceb10c4	1188567	4	main	z	15	absent	absent	absent	no	absent	1	2000
603032b2b88b07e8aceb10c4	1189958	4	main	z	16	square	global	LVF	yes	present	1	309
603032b2b88b07e8aceb10c4	1193002	4	main	z	17	square	local	RVF	yes	present	1	1603
603032b2b88b07e8aceb10c4	1194856	4	main	z	18	absent	absent	absent	no	present	0	322
603032b2b88b07e8aceb10c4	1196964	4	main	z	19	square	global	RVF	yes	present	1	347
603032b2b88b07e8aceb10c4	1198995	4	main	z	20	square	local	RVF	yes	present	1	345
603032b2b88b07e8aceb10c4	1201698	4	main	z	21	circle	global	RVF	yes	present	1	348
603032b2b88b07e8aceb10c4	1203408	4	main	z	22	square	local	LVF	yes	present	1	358
603032b2b88b07e8aceb10c4	1206900	4	main	z	23	absent	absent	absent	no	absent	1	2000
603032b2b88b07e8aceb10c4	1208478	4	main	z	24	circle	local	LVF	yes	present	1	361
603032b2b88b07e8aceb10c4	1211073	4	main	z	25	square	local	RVF	yes	present	1	338
603032b2b88b07e8aceb10c4	1213883	4	main	z	26	square	global	RVF	yes	present	1	333
603032b2b88b07e8aceb10c4	1215838	4	main	z	27	circle	global	LVF	yes	present	1	404
603032b2b88b07e8aceb10c4	1217540	4	main	z	28	square	local	RVF	yes	present	1	255
603032b2b88b07e8aceb10c4	1219683	4	main	z	29	circle	local	LVF	yes	present	1	381
603032b2b88b07e8aceb10c4	1221749	4	main	z	30	circle	local	LVF	yes	present	1	314
603032b2b88b07e8aceb10c4	1223839	4	main	z	31	square	global	LVF	yes	present	1	255
603032b2b88b07e8aceb10c4	1225796	4	main	z	32	square	global	LVF	yes	present	1	345
603032b2b88b07e8aceb10c4	1228376	4	main	z	33	circle	local	RVF	yes	present	1	358
603032b2b88b07e8aceb10c4	1230448	4	main	z	34	square	global	RVF	yes	present	1	413
603032b2b88b07e8aceb10c4	1233096	4	main	z	35	square	local	LVF	yes	present	1	1412
603032b2b88b07e8aceb10c4	1234961	4	main	z	36	absent	absent	absent	no	present	0	393
603032b2b88b07e8aceb10c4	1238401	4	main	z	37	absent	absent	absent	no	absent	1	2000
603032b2b88b07e8aceb10c4	1239907	4	main	z	38	absent	absent	absent	no	present	0	322
603032b2b88b07e8aceb10c4	1241663	4	main	z	39	circle	local	LVF	yes	present	1	445
603032b2b88b07e8aceb10c4	1243663	4	main	z	40	square	global	LVF	yes	present	1	612
603032b2b88b07e8aceb10c4	1245338	4	main	z	41	circle	local	RVF	yes	present	1	385
603032b2b88b07e8aceb10c4	1246827	4	main	z	42	circle	global	RVF	yes	present	1	359
603032b2b88b07e8aceb10c4	1248200	4	main	z	43	circle	global	LVF	yes	present	1	332
603032b2b88b07e8aceb10c4	1251719	4	main	z	44	absent	absent	absent	no	absent	1	2000
603032b2b88b07e8aceb10c4	1253477	4	main	z	45	square	global	LVF	yes	present	1	325
603032b2b88b07e8aceb10c4	1255281	4	main	z	46	square	global	RVF	yes	present	1	329
603032b2b88b07e8aceb10c4	1257825	4	main	z	47	circle	local	RVF	yes	present	1	356
603032b2b88b07e8aceb10c4	1259923	4	main	z	48	square	global	RVF	yes	present	1	421
603032b2b88b07e8aceb10c4	1262196	4	main	z	49	square	local	LVF	yes	present	1	593
603032b2b88b07e8aceb10c4	1265919	4	main	z	50	absent	absent	absent	no	absent	1	2000
603032b2b88b07e8aceb10c4	1267672	4	main	z	51	circle	local	LVF	yes	present	1	320
603032b2b88b07e8aceb10c4	1269402	4	main	z	52	circle	local	LVF	yes	present	1	332
603032b2b88b07e8aceb10c4	1271356	4	main	z	53	circle	local	RVF	yes	present	1	303
603032b2b88b07e8aceb10c4	1273604	4	main	z	54	square	local	LVF	yes	present	1	434
603032b2b88b07e8aceb10c4	1275395	4	main	z	55	square	global	RVF	yes	present	1	342
603032b2b88b07e8aceb10c4	1277732	4	main	z	56	circle	global	LVF	yes	present	1	330
603032b2b88b07e8aceb10c4	1282720	4	main	z	57	absent	absent	absent	no	absent	1	2000
603032b2b88b07e8aceb10c4	1284447	4	main	z	58	absent	absent	absent	no	present	0	445
603032b2b88b07e8aceb10c4	1286270	4	main	z	59	square	global	LVF	yes	present	1	434
603032b2b88b07e8aceb10c4	1288531	4	main	z	60	square	local	RVF	yes	present	1	978
603032b2b88b07e8aceb10c4	1290232	4	main	z	61	circle	local	LVF	yes	present	1	478
603032b2b88b07e8aceb10c4	1292054	4	main	z	62	circle	global	RVF	yes	present	1	517
603032b2b88b07e8aceb10c4	1295270	4	main	z	63	absent	absent	absent	no	absent	1	2000
603032b2b88b07e8aceb10c4	1296819	4	main	z	64	circle	local	LVF	yes	present	1	381
603032b2b88b07e8aceb10c4	1300171	4	main	z	65	absent	absent	absent	no	absent	1	2000
603032b2b88b07e8aceb10c4	1301682	4	main	z	66	square	local	LVF	yes	present	1	396
603032b2b88b07e8aceb10c4	1305104	4	main	z	67	absent	absent	absent	no	absent	1	2000
603032b2b88b07e8aceb10c4	1306616	4	main	z	68	circle	global	LVF	yes	present	1	346
603032b2b88b07e8aceb10c4	1310188	4	main	z	69	absent	absent	absent	no	absent	1	2000
603032b2b88b07e8aceb10c4	1311640	4	main	z	70	square	local	LVF	yes	present	1	353
603032b2b88b07e8aceb10c4	1313666	4	main	z	71	circle	global	RVF	yes	present	1	579
603032b2b88b07e8aceb10c4	1315509	4	main	z	72	circle	local	RVF	yes	present	1	390
603032b2b88b07e8aceb10c4	1317350	4	main	z	73	circle	global	LVF	yes	present	1	429
603032b2b88b07e8aceb10c4	1318998	4	main	z	74	circle	global	RVF	yes	present	1	394
603032b2b88b07e8aceb10c4	1320612	4	main	z	75	square	global	LVF	yes	present	1	458
603032b2b88b07e8aceb10c4	1322174	4	main	z	76	square	local	RVF	yes	present	1	436
603032b2b88b07e8aceb10c4	1323891	4	main	z	77	square	global	LVF	yes	present	1	437
603032b2b88b07e8aceb10c4	1325520	4	main	z	78	square	local	RVF	yes	present	1	381
603032b2b88b07e8aceb10c4	1327237	4	main	z	79	square	global	RVF	yes	present	1	507
603032b2b88b07e8aceb10c4	1328812	4	main	z	80	square	local	RVF	yes	present	1	426
