subject	time_elapsed_ms	blocknum	block_type	block_response	trialnum	target	level	field	target_present	response	correct	rt
60fd592929e8016e53a167a6	238657	1	practice	z	1	square	local	LVF	yes	absent	0	2000
60fd592929e8016e53a167a6	246248	1	practice	z	2	circle	global	RVF	yes	present	1	1383
60fd592929e8016e53a167a6	250795	1	practice	z	3	circle	local	RVF	yes	absent	0	2000
60fd592929e8016e53a167a6	255156	1	practice	z	4	absent	absent	absent	no	absent	1	2000
60fd592929e8016e53a167a6	258152	1	practice	z	5	absent	absent	absent	no	present	0	650
60fd592929e8016e53a167a6	262400	1	practice	z	6	absent	absent	absent	no	absent	1	2000
60fd592929e8016e53a167a6	265637	1	practice	z	7	circle	global	RVF	yes	present	1	1008
60fd592929e8016e53a167a6	268915	1	practice	z	8	circle	global	LVF	yes	present	1	1056
60fd592929e8016e53a167a6	272397	1	practice	z	9	circle	local	RVF	yes	present	1	1425
60fd592929e8016e53a167a6	274955	1	practice	z	10	square	local	LVF	yes	present	1	536
60fd592929e8016e53a167a6	277578	1	practice	z	11	circle	local	RVF	yes	present	1	577
60fd592929e8016e53a167a6	280204	1	practice	z	12	square	global	RVF	yes	present	1	606
60fd592929e8016e53a167a6	283061	1	practice	z	13	circle	global	LVF	yes	present	1	815
60fd592929e8016e53a167a6	285695	1	practice	z	14	absent	absent	absent	no	present	0	636
60fd592929e8016e53a167a6	288338	1	practice	z	15	square	global	LVF	yes	present	1	582
60fd592929e8016e53a167a6	290773	1	practice	z	16	square	global	LVF	yes	present	1	383
60fd592929e8016e53a167a6	300553	2	main	z	1	square	local	LVF	yes	present	1	530
60fd592929e8016e53a167a6	302749	2	main	z	2	absent	absent	absent	no	present	0	627
60fd592929e8016e53a167a6	305854	2	main	z	3	absent	absent	absent	no	absent	1	2000
60fd592929e8016e53a167a6	309467	2	main	z	4	absent	absent	absent	no	absent	1	2000
60fd592929e8016e53a167a6	312597	2	main	z	5	absent	absent	absent	no	absent	1	2000
60fd592929e8016e53a167a6	314286	2	main	z	6	square	local	LVF	yes	present	1	658
60fd592929e8016e53a167a6	317709	2	main	z	7	absent	absent	absent	no	absent	1	2000
60fd592929e8016e53a167a6	319498	2	main	z	8	square	local	RVF	yes	present	1	724
60fd592929e8016e53a167a6	321901	2	main	z	9	square	global	RVF	yes	present	1	1148
60fd592929e8016e53a167a6	324066	2	main	z	10	circle	local	RVF	yes	present	1	948
60fd592929e8016e53a167a6	327216	2	main	z	11	absent	absent	absent	no	absent	1	2000
60fd592929e8016e53a167a6	329060	2	main	z	12	square	local	RVF	yes	present	1	697
60fd592929e8016e53a167a6	331130	2	main	z	13	circle	local	RVF	yes	present	1	969
60fd592929e8016e53a167a6	333275	2	main	z	14	square	global	LVF	yes	present	1	982
60fd592929e8016e53a167a6	335191	2	main	z	15	circle	local	RVF	yes	present	1	734
60fd592929e8016e53a167a6	337001	2	main	z	16	circle	global	RVF	yes	present	1	729
60fd592929e8016e53a167a6	338795	2	main	z	17	circle	local	LVF	yes	present	1	708
60fd592929e8016e53a167a6	340689	2	main	z	18	square	global	RVF	yes	present	1	804
60fd592929e8016e53a167a6	342221	2	main	z	19	circle	global	LVF	yes	present	1	488
60fd592929e8016e53a167a6	343779	2	main	z	20	circle	global	LVF	yes	present	1	500
60fd592929e8016e53a167a6	345334	2	main	z	21	square	local	RVF	yes	present	1	521
60fd592929e8016e53a167a6	346865	2	main	z	22	square	global	LVF	yes	present	1	515
60fd592929e8016e53a167a6	348398	2	main	z	23	square	local	RVF	yes	present	1	517
60fd592929e8016e53a167a6	350172	2	main	z	24	square	global	RVF	yes	present	1	746
60fd592929e8016e53a167a6	351863	2	main	z	25	absent	absent	absent	no	present	0	672
60fd592929e8016e53a167a6	353545	2	main	z	26	absent	absent	absent	no	present	0	706
60fd592929e8016e53a167a6	355219	2	main	z	27	circle	local	LVF	yes	present	1	632
60fd592929e8016e53a167a6	356948	2	main	z	28	circle	local	RVF	yes	present	1	679
60fd592929e8016e53a167a6	359967	2	main	z	29	circle	global	LVF	yes	absent	0	2000
60fd592929e8016e53a167a6	361592	2	main	z	30	square	global	LVF	yes	present	1	662
60fd592929e8016e53a167a6	363337	2	main	z	31	square	global	LVF	yes	present	1	741
60fd592929e8016e53a167a6	365335	2	main	z	32	circle	local	LVF	yes	present	1	924
60fd592929e8016e53a167a6	367281	2	main	z	33	circle	local	LVF	yes	present	1	955
60fd592929e8016e53a167a6	369097	2	main	z	34	circle	global	LVF	yes	present	1	840
60fd592929e8016e53a167a6	370662	2	main	z	35	square	global	RVF	yes	present	1	556
60fd592929e8016e53a167a6	372319	2	main	z	36	circle	global	RVF	yes	present	1	682
60fd592929e8016e53a167a6	373901	2	main	z	37	circle	global	RVF	yes	present	1	632
60fd592929e8016e53a167a6	375641	2	main	z	38	square	local	LVF	yes	present	1	757
60fd592929e8016e53a167a6	377337	2	main	z	39	circle	global	RVF	yes	present	1	755
60fd592929e8016e53a167a6	379016	2	main	z	40	square	local	LVF	yes	present	1	719
60fd592929e8016e53a167a6	380661	2	main	z	41	circle	global	RVF	yes	present	1	732
60fd592929e8016e53a167a6	382333	2	main	z	42	square	local	LVF	yes	present	1	722
60fd592929e8016e53a167a6	385293	2	main	z	43	absent	absent	absent	no	absent	1	2000
60fd592929e8016e53a167a6	387326	2	main	z	44	circle	local	RVF	yes	present	1	516
60fd592929e8016e53a167a6	388905	2	main	z	45	square	global	LVF	yes	present	1	567
60fd592929e8016e53a167a6	390686	2	main	z	46	square	local	RVF	yes	present	1	800
60fd592929e8016e53a167a6	392317	2	main	z	47	square	global	LVF	yes	present	1	682
60fd592929e8016e53a167a6	394017	2	main	z	48	circle	global	LVF	yes	present	1	684
60fd592929e8016e53a167a6	395717	2	main	z	49	absent	absent	absent	no	present	0	686
60fd592929e8016e53a167a6	397301	2	main	z	50	square	local	LVF	yes	present	1	605
60fd592929e8016e53a167a6	399009	2	main	z	51	absent	absent	absent	no	present	0	664
60fd592929e8016e53a167a6	400714	2	main	z	52	square	local	LVF	yes	present	1	704
60fd592929e8016e53a167a6	403725	2	main	z	53	absent	absent	absent	no	absent	1	2000
60fd592929e8016e53a167a6	405448	2	main	z	54	square	global	RVF	yes	present	1	743
60fd592929e8016e53a167a6	407297	2	main	z	55	absent	absent	absent	no	present	0	844
60fd592929e8016e53a167a6	409247	2	main	z	56	square	local	LVF	yes	present	1	962
60fd592929e8016e53a167a6	411104	2	main	z	57	circle	local	LVF	yes	present	1	871
60fd592929e8016e53a167a6	412844	2	main	z	58	square	local	RVF	yes	present	1	680
60fd592929e8016e53a167a6	414687	2	main	z	59	absent	absent	absent	no	present	0	824
60fd592929e8016e53a167a6	416346	2	main	z	60	circle	local	RVF	yes	present	1	702
60fd592929e8016e53a167a6	417894	2	main	z	61	square	global	LVF	yes	present	1	602
60fd592929e8016e53a167a6	419254	2	main	z	62	square	local	RVF	yes	present	1	429
60fd592929e8016e53a167a6	420648	2	main	z	63	circle	local	LVF	yes	present	1	442
60fd592929e8016e53a167a6	421995	2	main	z	64	square	global	RVF	yes	present	1	456
60fd592929e8016e53a167a6	423390	2	main	z	65	square	local	RVF	yes	present	1	453
60fd592929e8016e53a167a6	424840	2	main	z	66	absent	absent	absent	no	present	0	522
60fd592929e8016e53a167a6	427768	2	main	z	67	circle	global	RVF	yes	absent	0	2000
60fd592929e8016e53a167a6	429372	2	main	z	68	circle	local	LVF	yes	present	1	407
60fd592929e8016e53a167a6	431252	2	main	z	69	circle	global	LVF	yes	present	1	939
60fd592929e8016e53a167a6	432743	2	main	z	70	square	global	RVF	yes	present	1	598
60fd592929e8016e53a167a6	434130	2	main	z	71	circle	global	LVF	yes	present	1	454
60fd592929e8016e53a167a6	435479	2	main	z	72	absent	absent	absent	no	present	0	437
60fd592929e8016e53a167a6	436692	2	main	z	73	circle	local	LVF	yes	present	1	351
60fd592929e8016e53a167a6	437936	2	main	z	74	circle	local	RVF	yes	present	1	375
60fd592929e8016e53a167a6	439163	2	main	z	75	circle	global	RVF	yes	present	1	391
60fd592929e8016e53a167a6	440308	2	main	z	76	circle	global	RVF	yes	present	1	304
60fd592929e8016e53a167a6	441410	2	main	z	77	square	global	LVF	yes	present	1	291
60fd592929e8016e53a167a6	442450	2	main	z	78	circle	global	LVF	yes	present	1	283
60fd592929e8016e53a167a6	443599	2	main	z	79	square	global	RVF	yes	present	1	365
60fd592929e8016e53a167a6	446399	2	main	z	80	circle	local	RVF	yes	absent	0	2000
60fd592929e8016e53a167a6	467551	3	practice	slash	1	absent	absent	absent	no	present	0	636
60fd592929e8016e53a167a6	470773	3	practice	slash	2	circle	global	RVF	yes	present	1	363
60fd592929e8016e53a167a6	473021	3	practice	slash	3	square	local	LVF	yes	present	1	295
60fd592929e8016e53a167a6	475401	3	practice	slash	4	circle	global	LVF	yes	present	1	312
60fd592929e8016e53a167a6	477726	3	practice	slash	5	absent	absent	absent	no	present	0	406
60fd592929e8016e53a167a6	480245	3	practice	slash	6	square	global	LVF	yes	present	1	493
60fd592929e8016e53a167a6	482557	3	practice	slash	7	square	global	LVF	yes	present	1	408
60fd592929e8016e53a167a6	484989	3	practice	slash	8	circle	local	RVF	yes	present	1	493
60fd592929e8016e53a167a6	487614	3	practice	slash	9	square	local	LVF	yes	present	1	385
60fd592929e8016e53a167a6	489972	3	practice	slash	10	absent	absent	absent	no	present	0	370
60fd592929e8016e53a167a6	492510	3	practice	slash	11	circle	global	LVF	yes	present	1	570
60fd592929e8016e53a167a6	494873	3	practice	slash	12	square	global	RVF	yes	present	1	386
60fd592929e8016e53a167a6	497223	3	practice	slash	13	absent	absent	absent	no	present	0	405
60fd592929e8016e53a167a6	499666	3	practice	slash	14	circle	global	RVF	yes	present	1	401
60fd592929e8016e53a167a6	501941	3	practice	slash	15	circle	local	RVF	yes	present	1	328
60fd592929e8016e53a167a6	504427	3	practice	slash	16	circle	local	RVF	yes	present	1	550
60fd592929e8016e53a167a6	509202	4	main	slash	1	square	local	RVF	yes	present	1	765
60fd592929e8016e53a167a6	513426	4	main	slash	2	absent	absent	absent	no	present	0	627
60fd592929e8016e53a167a6	515256	4	main	slash	3	circle	global	LVF	yes	present	1	576
60fd592929e8016e53a167a6	517534	4	main	slash	4	square	global	RVF	yes	present	1	1089
60fd592929e8016e53a167a6	519428	4	main	slash	5	square	local	RVF	yes	present	1	485
60fd592929e8016e53a167a6	521337	4	main	slash	6	square	local	RVF	yes	present	1	696
60fd592929e8016e53a167a6	522996	4	main	slash	7	circle	global	RVF	yes	present	1	590
60fd592929e8016e53a167a6	527137	4	main	slash	8	absent	absent	absent	no	absent	1	2000
60fd592929e8016e53a167a6	528789	4	main	slash	9	circle	global	LVF	yes	present	1	422
60fd592929e8016e53a167a6	530357	4	main	slash	10	square	global	LVF	yes	present	1	541
60fd592929e8016e53a167a6	532108	4	main	slash	11	square	local	LVF	yes	present	1	694
60fd592929e8016e53a167a6	534217	4	main	slash	12	circle	local	RVF	yes	present	1	1071
60fd592929e8016e53a167a6	536478	4	main	slash	13	circle	global	LVF	yes	present	1	552
60fd592929e8016e53a167a6	538049	4	main	slash	14	absent	absent	absent	no	present	0	541
60fd592929e8016e53a167a6	539545	4	main	slash	15	circle	global	RVF	yes	present	1	455
60fd592929e8016e53a167a6	541026	4	main	slash	16	circle	global	RVF	yes	present	1	437
60fd592929e8016e53a167a6	542514	4	main	slash	17	square	local	LVF	yes	present	1	494
60fd592929e8016e53a167a6	544048	4	main	slash	18	square	local	LVF	yes	present	1	562
60fd592929e8016e53a167a6	547777	4	main	slash	19	circle	local	LVF	yes	present	1	329
60fd592929e8016e53a167a6	549258	4	main	slash	20	circle	global	RVF	yes	present	1	361
60fd592929e8016e53a167a6	550922	4	main	slash	21	square	local	RVF	yes	present	1	593
60fd592929e8016e53a167a6	552456	4	main	slash	22	circle	local	LVF	yes	present	1	429
60fd592929e8016e53a167a6	554006	4	main	slash	23	square	local	LVF	yes	present	1	463
60fd592929e8016e53a167a6	555511	4	main	slash	24	square	global	RVF	yes	present	1	453
60fd592929e8016e53a167a6	557103	4	main	slash	25	absent	absent	absent	no	present	0	504
60fd592929e8016e53a167a6	560321	4	main	slash	26	absent	absent	absent	no	absent	1	2000
60fd592929e8016e53a167a6	562052	4	main	slash	27	circle	global	LVF	yes	present	1	734
60fd592929e8016e53a167a6	563447	4	main	slash	28	square	global	RVF	yes	present	1	374
60fd592929e8016e53a167a6	564944	4	main	slash	29	circle	local	LVF	yes	present	1	429
60fd592929e8016e53a167a6	566518	4	main	slash	30	circle	local	RVF	yes	present	1	389
60fd592929e8016e53a167a6	568086	4	main	slash	31	square	global	LVF	yes	present	1	524
60fd592929e8016e53a167a6	569671	4	main	slash	32	circle	local	RVF	yes	present	1	544
60fd592929e8016e53a167a6	571092	4	main	slash	33	circle	local	RVF	yes	present	1	433
60fd592929e8016e53a167a6	574108	4	main	slash	34	absent	absent	absent	no	absent	1	2000
60fd592929e8016e53a167a6	575536	4	main	slash	35	square	global	RVF	yes	present	1	448
60fd592929e8016e53a167a6	576917	4	main	slash	36	square	global	LVF	yes	present	1	379
60fd592929e8016e53a167a6	579935	4	main	slash	37	absent	absent	absent	no	absent	1	2000
60fd592929e8016e53a167a6	581340	4	main	slash	38	square	global	LVF	yes	present	1	424
60fd592929e8016e53a167a6	582843	4	main	slash	39	absent	absent	absent	no	present	0	479
60fd592929e8016e53a167a6	584284	4	main	slash	40	circle	local	LVF	yes	present	1	388
60fd592929e8016e53a167a6	585692	4	main	slash	41	circle	global	RVF	yes	present	1	414
60fd592929e8016e53a167a6	587075	4	main	slash	42	square	global	LVF	yes	present	1	382
60fd592929e8016e53a167a6	588765	4	main	slash	43	absent	absent	absent	no	present	0	690
60fd592929e8016e53a167a6	590666	4	main	slash	44	absent	absent	absent	no	present	0	526
60fd592929e8016e53a167a6	592148	4	main	slash	45	circle	local	RVF	yes	present	1	460
60fd592929e8016e53a167a6	593721	4	main	slash	46	circle	local	LVF	yes	present	1	535
60fd592929e8016e53a167a6	595112	4	main	slash	47	square	global	LVF	yes	present	1	410
60fd592929e8016e53a167a6	596460	4	main	slash	48	square	local	LVF	yes	present	1	309
60fd592929e8016e53a167a6	597882	4	main	slash	49	square	local	RVF	yes	present	1	366
60fd592929e8016e53a167a6	599395	4	main	slash	50	square	global	RVF	yes	present	1	481
60fd592929e8016e53a167a6	602396	4	main	slash	51	absent	absent	absent	no	absent	1	2000
60fd592929e8016e53a167a6	603764	4	main	slash	52	square	global	LVF	yes	present	1	387
60fd592929e8016e53a167a6	605227	4	main	slash	53	absent	absent	absent	no	present	0	485
60fd592929e8016e53a167a6	606610	4	main	slash	54	circle	local	RVF	yes	present	1	319
60fd592929e8016e53a167a6	607980	4	main	slash	55	square	local	LVF	yes	present	1	407
60fd592929e8016e53a167a6	609319	4	main	slash	56	square	global	LVF	yes	present	1	298
60fd592929e8016e53a167a6	610634	4	main	slash	57	square	global	RVF	yes	present	1	281
60fd592929e8016e53a167a6	613636	4	main	slash	58	absent	absent	absent	no	absent	1	2000
60fd592929e8016e53a167a6	614986	4	main	slash	59	circle	local	RVF	yes	present	1	384
60fd592929e8016e53a167a6	616575	4	main	slash	60	circle	global	RVF	yes	present	1	527
60fd592929e8016e53a167a6	617943	4	main	slash	61	square	global	RVF	yes	present	1	398
60fd592929e8016e53a167a6	619309	4	main	slash	62	circle	global	RVF	yes	present	1	364
60fd592929e8016e53a167a6	620648	4	main	slash	63	circle	global	RVF	yes	present	1	355
60fd592929e8016e53a167a6	622154	4	main	slash	64	square	local	LVF	yes	present	1	529
60fd592929e8016e53a167a6	623521	4	main	slash	65	square	local	RVF	yes	present	1	371
60fd592929e8016e53a167a6	624972	4	main	slash	66	circle	local	LVF	yes	present	1	482
60fd592929e8016e53a167a6	626385	4	main	slash	67	circle	local	LVF	yes	present	1	377
60fd592929e8016e53a167a6	627751	4	main	slash	68	circle	global	LVF	yes	present	1	365
60fd592929e8016e53a167a6	629063	4	main	slash	69	square	local	RVF	yes	present	1	328
60fd592929e8016e53a167a6	630406	4	main	slash	70	circle	global	LVF	yes	present	1	290
60fd592929e8016e53a167a6	631747	4	main	slash	71	circle	local	RVF	yes	present	1	281
60fd592929e8016e53a167a6	633176	4	main	slash	72	square	local	LVF	yes	present	1	262
60fd592929e8016e53a167a6	634523	4	main	slash	73	circle	local	LVF	yes	present	1	276
60fd592929e8016e53a167a6	635910	4	main	slash	74	square	local	RVF	yes	present	1	265
60fd592929e8016e53a167a6	637297	4	main	slash	75	absent	absent	absent	no	present	0	236
60fd592929e8016e53a167a6	638715	4	main	slash	76	square	global	RVF	yes	present	1	223
60fd592929e8016e53a167a6	640135	4	main	slash	77	circle	global	LVF	yes	present	1	261
60fd592929e8016e53a167a6	641536	4	main	slash	78	absent	absent	absent	no	present	0	246
60fd592929e8016e53a167a6	643102	4	main	slash	79	absent	absent	absent	no	present	0	247
60fd592929e8016e53a167a6	644584	4	main	slash	80	circle	global	LVF	yes	present	1	247
