subject	time_elapsed_ms	blocknum	block_type	block_response	trialnum	target	level	field	target_present	response	correct	rt
610f7244c65ae4e57858a700	276370	1	practice	z	1	absent	absent	absent	no	absent	1	2000
610f7244c65ae4e57858a700	284847	1	practice	z	2	circle	global	RVF	yes	present	1	479
610f7244c65ae4e57858a700	288335	1	practice	z	3	square	global	LVF	yes	present	1	583
610f7244c65ae4e57858a700	293415	1	practice	z	4	square	local	LVF	yes	present	1	1013
610f7244c65ae4e57858a700	296365	1	practice	z	5	circle	local	RVF	yes	present	1	565
610f7244c65ae4e57858a700	300400	1	practice	z	6	absent	absent	absent	no	absent	1	2000
610f7244c65ae4e57858a700	303628	1	practice	z	7	square	local	LVF	yes	present	1	779
610f7244c65ae4e57858a700	306414	1	practice	z	8	circle	global	RVF	yes	present	1	682
610f7244c65ae4e57858a700	310732	1	practice	z	9	absent	absent	absent	no	absent	1	2000
610f7244c65ae4e57858a700	313846	1	practice	z	10	circle	local	RVF	yes	present	1	481
610f7244c65ae4e57858a700	316566	1	practice	z	11	square	global	LVF	yes	present	1	468
610f7244c65ae4e57858a700	319173	1	practice	z	12	circle	global	LVF	yes	present	1	359
610f7244c65ae4e57858a700	321732	1	practice	z	13	circle	local	RVF	yes	present	1	519
610f7244c65ae4e57858a700	324525	1	practice	z	14	circle	global	LVF	yes	present	1	813
610f7244c65ae4e57858a700	327208	1	practice	z	15	square	global	RVF	yes	present	1	545
610f7244c65ae4e57858a700	329974	1	practice	z	16	absent	absent	absent	no	present	0	594
610f7244c65ae4e57858a700	342697	2	main	z	1	square	local	RVF	yes	present	1	422
610f7244c65ae4e57858a700	344904	2	main	z	2	circle	global	LVF	yes	present	1	413
610f7244c65ae4e57858a700	346751	2	main	z	3	circle	local	RVF	yes	present	1	427
610f7244c65ae4e57858a700	348538	2	main	z	4	circle	local	LVF	yes	present	1	504
610f7244c65ae4e57858a700	351774	2	main	z	5	absent	absent	absent	no	absent	1	2000
610f7244c65ae4e57858a700	353329	2	main	z	6	square	global	LVF	yes	present	1	472
610f7244c65ae4e57858a700	356623	2	main	z	7	absent	absent	absent	no	absent	1	2000
610f7244c65ae4e57858a700	358168	2	main	z	8	circle	global	RVF	yes	present	1	445
610f7244c65ae4e57858a700	360139	2	main	z	9	square	local	LVF	yes	present	1	550
610f7244c65ae4e57858a700	362157	2	main	z	10	circle	global	RVF	yes	present	1	618
610f7244c65ae4e57858a700	365522	2	main	z	11	absent	absent	absent	no	absent	1	2000
610f7244c65ae4e57858a700	367133	2	main	z	12	square	global	RVF	yes	present	1	645
610f7244c65ae4e57858a700	368998	2	main	z	13	circle	global	RVF	yes	present	1	477
610f7244c65ae4e57858a700	370751	2	main	z	14	circle	local	LVF	yes	present	1	563
610f7244c65ae4e57858a700	374054	2	main	z	15	absent	absent	absent	no	absent	1	2000
610f7244c65ae4e57858a700	375422	2	main	z	16	circle	global	LVF	yes	present	1	402
610f7244c65ae4e57858a700	377121	2	main	z	17	square	global	LVF	yes	present	1	618
610f7244c65ae4e57858a700	378868	2	main	z	18	circle	local	RVF	yes	present	1	598
610f7244c65ae4e57858a700	380651	2	main	z	19	circle	local	RVF	yes	present	1	504
610f7244c65ae4e57858a700	382778	2	main	z	20	square	local	RVF	yes	present	1	842
610f7244c65ae4e57858a700	385919	2	main	z	21	absent	absent	absent	no	absent	1	2000
610f7244c65ae4e57858a700	389002	2	main	z	22	absent	absent	absent	no	absent	1	2000
610f7244c65ae4e57858a700	390349	2	main	z	23	circle	local	LVF	yes	present	1	397
610f7244c65ae4e57858a700	392049	2	main	z	24	square	global	LVF	yes	present	1	506
610f7244c65ae4e57858a700	393621	2	main	z	25	square	local	LVF	yes	present	1	470
610f7244c65ae4e57858a700	395226	2	main	z	26	square	local	RVF	yes	present	1	491
610f7244c65ae4e57858a700	396746	2	main	z	27	circle	global	LVF	yes	present	1	428
610f7244c65ae4e57858a700	399801	2	main	z	28	absent	absent	absent	no	absent	1	2000
610f7244c65ae4e57858a700	401111	2	main	z	29	circle	global	LVF	yes	present	1	344
610f7244c65ae4e57858a700	402564	2	main	z	30	circle	local	RVF	yes	present	1	373
610f7244c65ae4e57858a700	405633	2	main	z	31	circle	global	RVF	yes	absent	0	2000
610f7244c65ae4e57858a700	407585	2	main	z	32	square	global	LVF	yes	present	1	335
610f7244c65ae4e57858a700	409137	2	main	z	33	square	global	RVF	yes	present	1	487
610f7244c65ae4e57858a700	410768	2	main	z	34	square	global	RVF	yes	present	1	419
610f7244c65ae4e57858a700	412432	2	main	z	35	square	local	LVF	yes	present	1	533
610f7244c65ae4e57858a700	413958	2	main	z	36	absent	absent	absent	no	present	0	409
610f7244c65ae4e57858a700	415916	2	main	z	37	square	local	RVF	yes	present	1	701
610f7244c65ae4e57858a700	417778	2	main	z	38	square	global	RVF	yes	present	1	546
610f7244c65ae4e57858a700	419677	2	main	z	39	circle	local	LVF	yes	present	1	662
610f7244c65ae4e57858a700	421661	2	main	z	40	square	local	LVF	yes	present	1	814
610f7244c65ae4e57858a700	423411	2	main	z	41	circle	local	RVF	yes	present	1	463
610f7244c65ae4e57858a700	425011	2	main	z	42	circle	local	RVF	yes	present	1	506
610f7244c65ae4e57858a700	426574	2	main	z	43	absent	absent	absent	no	present	0	493
610f7244c65ae4e57858a700	428646	2	main	z	44	circle	local	RVF	yes	present	1	582
610f7244c65ae4e57858a700	430238	2	main	z	45	circle	global	RVF	yes	present	1	525
610f7244c65ae4e57858a700	431868	2	main	z	46	circle	local	LVF	yes	present	1	538
610f7244c65ae4e57858a700	434980	2	main	z	47	absent	absent	absent	no	absent	1	2000
610f7244c65ae4e57858a700	436775	2	main	z	48	square	global	LVF	yes	present	1	412
610f7244c65ae4e57858a700	438582	2	main	z	49	square	global	RVF	yes	present	1	586
610f7244c65ae4e57858a700	440431	2	main	z	50	square	global	RVF	yes	present	1	652
610f7244c65ae4e57858a700	442001	2	main	z	51	square	local	LVF	yes	present	1	406
610f7244c65ae4e57858a700	443664	2	main	z	52	square	local	LVF	yes	present	1	568
610f7244c65ae4e57858a700	445285	2	main	z	53	square	local	RVF	yes	present	1	473
610f7244c65ae4e57858a700	447043	2	main	z	54	circle	local	LVF	yes	present	1	614
610f7244c65ae4e57858a700	448756	2	main	z	55	circle	global	LVF	yes	present	1	561
610f7244c65ae4e57858a700	450434	2	main	z	56	circle	global	RVF	yes	present	1	590
610f7244c65ae4e57858a700	451899	2	main	z	57	square	global	LVF	yes	present	1	388
610f7244c65ae4e57858a700	453461	2	main	z	58	square	global	RVF	yes	present	1	516
610f7244c65ae4e57858a700	456444	2	main	z	59	absent	absent	absent	no	absent	1	2000
610f7244c65ae4e57858a700	457673	2	main	z	60	circle	global	LVF	yes	present	1	313
610f7244c65ae4e57858a700	460693	2	main	z	61	absent	absent	absent	no	absent	1	2000
610f7244c65ae4e57858a700	462236	2	main	z	62	circle	local	LVF	yes	present	1	493
610f7244c65ae4e57858a700	463993	2	main	z	63	circle	local	RVF	yes	present	1	600
610f7244c65ae4e57858a700	465665	2	main	z	64	square	local	RVF	yes	present	1	489
610f7244c65ae4e57858a700	467279	2	main	z	65	circle	global	RVF	yes	present	1	520
610f7244c65ae4e57858a700	468696	2	main	z	66	circle	local	LVF	yes	present	1	387
610f7244c65ae4e57858a700	470321	2	main	z	67	circle	global	LVF	yes	present	1	496
610f7244c65ae4e57858a700	473342	2	main	z	68	absent	absent	absent	no	absent	1	2000
610f7244c65ae4e57858a700	474549	2	main	z	69	square	global	LVF	yes	present	1	308
610f7244c65ae4e57858a700	475851	2	main	z	70	square	local	LVF	yes	present	1	310
610f7244c65ae4e57858a700	478941	2	main	z	71	absent	absent	absent	no	absent	1	2000
610f7244c65ae4e57858a700	480197	2	main	z	72	square	local	RVF	yes	present	1	323
610f7244c65ae4e57858a700	481915	2	main	z	73	circle	global	LVF	yes	present	1	591
610f7244c65ae4e57858a700	484990	2	main	z	74	absent	absent	absent	no	absent	1	2000
610f7244c65ae4e57858a700	486371	2	main	z	75	square	global	RVF	yes	present	1	448
610f7244c65ae4e57858a700	487891	2	main	z	76	square	global	LVF	yes	present	1	469
610f7244c65ae4e57858a700	489432	2	main	z	77	square	local	RVF	yes	present	1	526
610f7244c65ae4e57858a700	491131	2	main	z	78	square	local	LVF	yes	present	1	392
610f7244c65ae4e57858a700	492369	2	main	z	79	circle	global	RVF	yes	present	1	230
610f7244c65ae4e57858a700	495506	2	main	z	80	absent	absent	absent	no	absent	1	2000
610f7244c65ae4e57858a700	742575	3	practice	slash	1	square	global	RVF	yes	present	1	1665
610f7244c65ae4e57858a700	746357	3	practice	slash	2	circle	global	LVF	yes	present	1	1480
610f7244c65ae4e57858a700	749058	3	practice	slash	3	circle	local	RVF	yes	present	1	649
610f7244c65ae4e57858a700	753159	3	practice	slash	4	absent	absent	absent	no	absent	1	2000
610f7244c65ae4e57858a700	756009	3	practice	slash	5	circle	local	RVF	yes	present	1	400
610f7244c65ae4e57858a700	758899	3	practice	slash	6	square	global	LVF	yes	present	1	890
610f7244c65ae4e57858a700	761470	3	practice	slash	7	circle	global	RVF	yes	present	1	362
610f7244c65ae4e57858a700	763799	3	practice	slash	8	square	local	LVF	yes	present	1	425
610f7244c65ae4e57858a700	767724	3	practice	slash	9	absent	absent	absent	no	absent	1	2000
610f7244c65ae4e57858a700	770032	3	practice	slash	10	absent	absent	absent	no	present	0	426
610f7244c65ae4e57858a700	774074	3	practice	slash	11	absent	absent	absent	no	absent	1	2000
610f7244c65ae4e57858a700	776619	3	practice	slash	12	circle	global	RVF	yes	present	1	529
610f7244c65ae4e57858a700	779084	3	practice	slash	13	square	global	LVF	yes	present	1	462
610f7244c65ae4e57858a700	781569	3	practice	slash	14	circle	global	LVF	yes	present	1	413
610f7244c65ae4e57858a700	784066	3	practice	slash	15	circle	local	RVF	yes	present	1	395
610f7244c65ae4e57858a700	786665	3	practice	slash	16	square	local	LVF	yes	present	1	577
610f7244c65ae4e57858a700	790874	4	main	slash	1	square	global	LVF	yes	present	1	523
610f7244c65ae4e57858a700	792566	4	main	slash	2	circle	global	RVF	yes	present	1	398
610f7244c65ae4e57858a700	795818	4	main	slash	3	absent	absent	absent	no	absent	1	2000
610f7244c65ae4e57858a700	797061	4	main	slash	4	circle	local	RVF	yes	present	1	327
610f7244c65ae4e57858a700	798776	4	main	slash	5	square	local	LVF	yes	present	1	476
610f7244c65ae4e57858a700	800444	4	main	slash	6	square	local	RVF	yes	present	1	411
610f7244c65ae4e57858a700	801968	4	main	slash	7	circle	global	LVF	yes	present	1	386
610f7244c65ae4e57858a700	803909	4	main	slash	8	square	global	RVF	yes	present	1	843
610f7244c65ae4e57858a700	805624	4	main	slash	9	circle	local	RVF	yes	present	1	408
610f7244c65ae4e57858a700	807264	4	main	slash	10	square	global	RVF	yes	present	1	565
610f7244c65ae4e57858a700	810283	4	main	slash	11	absent	absent	absent	no	absent	1	2000
610f7244c65ae4e57858a700	811580	4	main	slash	12	circle	global	LVF	yes	present	1	331
610f7244c65ae4e57858a700	813145	4	main	slash	13	square	local	LVF	yes	present	1	504
610f7244c65ae4e57858a700	814695	4	main	slash	14	square	local	LVF	yes	present	1	330
610f7244c65ae4e57858a700	816273	4	main	slash	15	square	local	RVF	yes	present	1	491
610f7244c65ae4e57858a700	819331	4	main	slash	16	absent	absent	absent	no	absent	1	2000
610f7244c65ae4e57858a700	820677	4	main	slash	17	circle	local	RVF	yes	present	1	396
610f7244c65ae4e57858a700	822400	4	main	slash	18	square	local	RVF	yes	present	1	686
610f7244c65ae4e57858a700	823942	4	main	slash	19	square	global	RVF	yes	present	1	545
610f7244c65ae4e57858a700	826964	4	main	slash	20	absent	absent	absent	no	absent	1	2000
610f7244c65ae4e57858a700	828344	4	main	slash	21	square	global	LVF	yes	present	1	371
610f7244c65ae4e57858a700	831363	4	main	slash	22	absent	absent	absent	no	absent	1	2000
610f7244c65ae4e57858a700	832707	4	main	slash	23	circle	local	LVF	yes	present	1	428
610f7244c65ae4e57858a700	834230	4	main	slash	24	circle	local	RVF	yes	present	1	468
610f7244c65ae4e57858a700	835705	4	main	slash	25	square	local	LVF	yes	present	1	393
610f7244c65ae4e57858a700	837118	4	main	slash	26	circle	global	RVF	yes	present	1	406
610f7244c65ae4e57858a700	840145	4	main	slash	27	absent	absent	absent	no	absent	1	2000
610f7244c65ae4e57858a700	841468	4	main	slash	28	square	global	RVF	yes	present	1	358
610f7244c65ae4e57858a700	842893	4	main	slash	29	square	global	LVF	yes	present	1	332
610f7244c65ae4e57858a700	845911	4	main	slash	30	absent	absent	absent	no	absent	1	2000
610f7244c65ae4e57858a700	847310	4	main	slash	31	circle	global	RVF	yes	present	1	415
610f7244c65ae4e57858a700	848725	4	main	slash	32	circle	global	LVF	yes	present	1	375
610f7244c65ae4e57858a700	851760	4	main	slash	33	absent	absent	absent	no	absent	1	2000
610f7244c65ae4e57858a700	853006	4	main	slash	34	circle	global	LVF	yes	present	1	279
610f7244c65ae4e57858a700	854408	4	main	slash	35	circle	global	RVF	yes	present	1	382
610f7244c65ae4e57858a700	855749	4	main	slash	36	circle	local	LVF	yes	present	1	356
610f7244c65ae4e57858a700	857079	4	main	slash	37	square	local	RVF	yes	present	1	320
610f7244c65ae4e57858a700	858347	4	main	slash	38	circle	local	LVF	yes	present	1	288
610f7244c65ae4e57858a700	859638	4	main	slash	39	circle	local	LVF	yes	present	1	312
610f7244c65ae4e57858a700	860923	4	main	slash	40	square	global	LVF	yes	present	1	371
610f7244c65ae4e57858a700	862171	4	main	slash	41	circle	local	RVF	yes	present	1	279
610f7244c65ae4e57858a700	863587	4	main	slash	42	square	global	RVF	yes	present	1	278
610f7244c65ae4e57858a700	865023	4	main	slash	43	circle	global	RVF	yes	present	1	298
610f7244c65ae4e57858a700	866365	4	main	slash	44	square	local	LVF	yes	present	1	390
610f7244c65ae4e57858a700	867615	4	main	slash	45	circle	local	LVF	yes	present	1	290
610f7244c65ae4e57858a700	870575	4	main	slash	46	absent	absent	absent	no	absent	1	2000
610f7244c65ae4e57858a700	871888	4	main	slash	47	circle	global	LVF	yes	present	1	264
610f7244c65ae4e57858a700	873173	4	main	slash	48	circle	global	LVF	yes	present	1	315
610f7244c65ae4e57858a700	874712	4	main	slash	49	circle	global	RVF	yes	present	1	288
610f7244c65ae4e57858a700	875944	4	main	slash	50	circle	local	RVF	yes	present	1	287
610f7244c65ae4e57858a700	877235	4	main	slash	51	square	global	LVF	yes	present	1	261
610f7244c65ae4e57858a700	878444	4	main	slash	52	square	local	RVF	yes	present	1	271
610f7244c65ae4e57858a700	879638	4	main	slash	53	square	global	RVF	yes	present	1	265
610f7244c65ae4e57858a700	880991	4	main	slash	54	square	local	LVF	yes	present	1	300
610f7244c65ae4e57858a700	882236	4	main	slash	55	square	local	RVF	yes	present	1	346
610f7244c65ae4e57858a700	883479	4	main	slash	56	circle	local	RVF	yes	present	1	223
610f7244c65ae4e57858a700	884772	4	main	slash	57	square	global	LVF	yes	present	1	216
610f7244c65ae4e57858a700	886082	4	main	slash	58	absent	absent	absent	no	present	0	310
610f7244c65ae4e57858a700	889422	4	main	slash	59	circle	local	LVF	yes	present	1	966
610f7244c65ae4e57858a700	890980	4	main	slash	60	square	global	LVF	yes	present	1	359
610f7244c65ae4e57858a700	894089	4	main	slash	61	absent	absent	absent	no	absent	1	2000
610f7244c65ae4e57858a700	897155	4	main	slash	62	absent	absent	absent	no	absent	1	2000
610f7244c65ae4e57858a700	898448	4	main	slash	63	square	global	RVF	yes	present	1	360
610f7244c65ae4e57858a700	899898	4	main	slash	64	circle	local	LVF	yes	present	1	394
610f7244c65ae4e57858a700	901288	4	main	slash	65	circle	global	LVF	yes	present	1	351
610f7244c65ae4e57858a700	902619	4	main	slash	66	circle	global	RVF	yes	present	1	349
610f7244c65ae4e57858a700	903902	4	main	slash	67	square	global	RVF	yes	present	1	348
610f7244c65ae4e57858a700	905139	4	main	slash	68	square	global	LVF	yes	present	1	319
610f7244c65ae4e57858a700	906384	4	main	slash	69	square	local	RVF	yes	present	1	314
610f7244c65ae4e57858a700	907626	4	main	slash	70	circle	global	RVF	yes	present	1	289
610f7244c65ae4e57858a700	908919	4	main	slash	71	square	local	LVF	yes	present	1	366
610f7244c65ae4e57858a700	910127	4	main	slash	72	square	local	RVF	yes	present	1	291
610f7244c65ae4e57858a700	913019	4	main	slash	73	absent	absent	absent	no	absent	1	2000
610f7244c65ae4e57858a700	914367	4	main	slash	74	circle	global	LVF	yes	present	1	378
610f7244c65ae4e57858a700	917369	4	main	slash	75	absent	absent	absent	no	absent	1	2000
610f7244c65ae4e57858a700	918751	4	main	slash	76	circle	local	LVF	yes	present	1	366
610f7244c65ae4e57858a700	920146	4	main	slash	77	square	local	LVF	yes	present	1	445
610f7244c65ae4e57858a700	923102	4	main	slash	78	absent	absent	absent	no	absent	1	2000
610f7244c65ae4e57858a700	924362	4	main	slash	79	circle	local	RVF	yes	present	1	344
610f7244c65ae4e57858a700	925765	4	main	slash	80	absent	absent	absent	no	present	0	371
