subject	time_elapsed_ms	blocknum	block_type	block_response	trialnum	target	level	field	target_present	response	correct	rt
636bd30e14a5a0787697f56b	135232	1	practice	z	1	absent	absent	absent	no	absent	1	2000
636bd30e14a5a0787697f56b	139701	1	practice	z	2	circle	global	RVF	yes	present	1	1389
636bd30e14a5a0787697f56b	142481	1	practice	z	3	absent	absent	absent	no	present	0	402
636bd30e14a5a0787697f56b	146744	1	practice	z	4	absent	absent	absent	no	absent	1	2000
636bd30e14a5a0787697f56b	149548	1	practice	z	5	circle	local	RVF	yes	present	1	588
636bd30e14a5a0787697f56b	153942	1	practice	z	6	square	local	LVF	yes	absent	0	2000
636bd30e14a5a0787697f56b	156737	1	practice	z	7	circle	global	RVF	yes	present	1	713
636bd30e14a5a0787697f56b	161373	1	practice	z	8	absent	absent	absent	no	absent	1	2000
636bd30e14a5a0787697f56b	164102	1	practice	z	9	square	global	LVF	yes	present	1	646
636bd30e14a5a0787697f56b	167180	1	practice	z	10	circle	global	LVF	yes	present	1	826
636bd30e14a5a0787697f56b	170170	1	practice	z	11	circle	local	RVF	yes	present	1	701
636bd30e14a5a0787697f56b	173139	1	practice	z	12	circle	local	RVF	yes	present	1	821
636bd30e14a5a0787697f56b	175987	1	practice	z	13	circle	global	LVF	yes	present	1	803
636bd30e14a5a0787697f56b	178554	1	practice	z	14	square	global	RVF	yes	present	1	521
636bd30e14a5a0787697f56b	181174	1	practice	z	15	square	local	LVF	yes	present	1	460
636bd30e14a5a0787697f56b	183946	1	practice	z	16	square	global	LVF	yes	present	1	699
636bd30e14a5a0787697f56b	194172	2	main	z	1	square	global	LVF	yes	present	1	730
636bd30e14a5a0787697f56b	197027	2	main	z	2	circle	local	RVF	yes	present	1	669
636bd30e14a5a0787697f56b	199642	2	main	z	3	square	local	LVF	yes	present	1	868
636bd30e14a5a0787697f56b	201945	2	main	z	4	square	local	RVF	yes	present	1	888
636bd30e14a5a0787697f56b	204383	2	main	z	5	circle	local	LVF	yes	present	1	944
636bd30e14a5a0787697f56b	207738	2	main	z	6	absent	absent	absent	no	absent	1	2000
636bd30e14a5a0787697f56b	209776	2	main	z	7	square	local	LVF	yes	present	1	822
636bd30e14a5a0787697f56b	213386	2	main	z	8	absent	absent	absent	no	absent	1	2000
636bd30e14a5a0787697f56b	215780	2	main	z	9	circle	global	LVF	yes	present	1	828
636bd30e14a5a0787697f56b	218265	2	main	z	10	square	global	RVF	yes	present	1	1015
636bd30e14a5a0787697f56b	220732	2	main	z	11	square	global	RVF	yes	present	1	900
636bd30e14a5a0787697f56b	224216	2	main	z	12	absent	absent	absent	no	absent	1	2000
636bd30e14a5a0787697f56b	226138	2	main	z	13	square	local	RVF	yes	present	1	673
636bd30e14a5a0787697f56b	228394	2	main	z	14	circle	local	LVF	yes	present	1	713
636bd30e14a5a0787697f56b	230733	2	main	z	15	square	global	LVF	yes	present	1	953
636bd30e14a5a0787697f56b	234129	2	main	z	16	absent	absent	absent	no	absent	1	2000
636bd30e14a5a0787697f56b	236014	2	main	z	17	circle	local	RVF	yes	present	1	820
636bd30e14a5a0787697f56b	238263	2	main	z	18	square	global	LVF	yes	present	1	819
636bd30e14a5a0787697f56b	240799	2	main	z	19	square	local	RVF	yes	present	1	1006
636bd30e14a5a0787697f56b	242761	2	main	z	20	square	local	LVF	yes	present	1	602
636bd30e14a5a0787697f56b	245217	2	main	z	21	square	global	RVF	yes	present	1	875
636bd30e14a5a0787697f56b	247411	2	main	z	22	circle	local	RVF	yes	present	1	887
636bd30e14a5a0787697f56b	249692	2	main	z	23	circle	global	LVF	yes	present	1	868
636bd30e14a5a0787697f56b	251968	2	main	z	24	circle	global	LVF	yes	present	1	879
636bd30e14a5a0787697f56b	254354	2	main	z	25	circle	global	RVF	yes	present	1	916
636bd30e14a5a0787697f56b	257788	2	main	z	26	absent	absent	absent	no	absent	1	2000
636bd30e14a5a0787697f56b	259585	2	main	z	27	circle	global	LVF	yes	present	1	798
636bd30e14a5a0787697f56b	261932	2	main	z	28	circle	global	RVF	yes	present	1	946
636bd30e14a5a0787697f56b	264288	2	main	z	29	circle	global	RVF	yes	present	1	987
636bd30e14a5a0787697f56b	267701	2	main	z	30	absent	absent	absent	no	absent	1	2000
636bd30e14a5a0787697f56b	269280	2	main	z	31	square	global	LVF	yes	present	1	563
636bd30e14a5a0787697f56b	271665	2	main	z	32	circle	local	LVF	yes	present	1	915
636bd30e14a5a0787697f56b	275048	2	main	z	33	absent	absent	absent	no	absent	1	2000
636bd30e14a5a0787697f56b	277129	2	main	z	34	square	local	RVF	yes	present	1	881
636bd30e14a5a0787697f56b	279393	2	main	z	35	circle	local	LVF	yes	present	1	930
636bd30e14a5a0787697f56b	282863	2	main	z	36	absent	absent	absent	no	absent	1	2000
636bd30e14a5a0787697f56b	284923	2	main	z	37	square	local	LVF	yes	present	1	1046
636bd30e14a5a0787697f56b	287010	2	main	z	38	circle	local	RVF	yes	present	1	900
636bd30e14a5a0787697f56b	290218	2	main	z	39	square	global	RVF	yes	present	1	643
636bd30e14a5a0787697f56b	292139	2	main	z	40	circle	global	RVF	yes	present	1	529
636bd30e14a5a0787697f56b	294142	2	main	z	41	square	global	RVF	yes	present	1	550
636bd30e14a5a0787697f56b	295879	2	main	z	42	square	local	RVF	yes	present	1	405
636bd30e14a5a0787697f56b	297900	2	main	z	43	circle	global	RVF	yes	present	1	626
636bd30e14a5a0787697f56b	300241	2	main	z	44	circle	global	RVF	yes	present	1	1051
636bd30e14a5a0787697f56b	303322	2	main	z	45	absent	absent	absent	no	absent	1	2000
636bd30e14a5a0787697f56b	304926	2	main	z	46	square	local	RVF	yes	present	1	621
636bd30e14a5a0787697f56b	306805	2	main	z	47	circle	global	RVF	yes	present	1	668
636bd30e14a5a0787697f56b	308767	2	main	z	48	circle	global	LVF	yes	present	1	630
636bd30e14a5a0787697f56b	314335	2	main	z	49	absent	absent	absent	no	absent	1	2000
636bd30e14a5a0787697f56b	315796	2	main	z	50	circle	local	LVF	yes	present	1	462
636bd30e14a5a0787697f56b	317803	2	main	z	51	square	local	LVF	yes	present	1	704
636bd30e14a5a0787697f56b	319923	2	main	z	52	circle	local	RVF	yes	present	1	823
636bd30e14a5a0787697f56b	321921	2	main	z	53	circle	global	LVF	yes	present	1	872
636bd30e14a5a0787697f56b	323784	2	main	z	54	circle	global	RVF	yes	present	1	637
636bd30e14a5a0787697f56b	325705	2	main	z	55	circle	local	RVF	yes	present	1	641
636bd30e14a5a0787697f56b	327561	2	main	z	56	square	local	LVF	yes	present	1	597
636bd30e14a5a0787697f56b	329647	2	main	z	57	circle	local	LVF	yes	present	1	702
636bd30e14a5a0787697f56b	331481	2	main	z	58	circle	local	RVF	yes	present	1	669
636bd30e14a5a0787697f56b	333109	2	main	z	59	circle	local	LVF	yes	present	1	464
636bd30e14a5a0787697f56b	335013	2	main	z	60	square	global	RVF	yes	present	1	668
636bd30e14a5a0787697f56b	336784	2	main	z	61	circle	local	RVF	yes	present	1	574
636bd30e14a5a0787697f56b	339024	2	main	z	62	square	global	RVF	yes	present	1	747
636bd30e14a5a0787697f56b	342381	2	main	z	63	square	local	RVF	yes	present	1	556
636bd30e14a5a0787697f56b	344216	2	main	z	64	absent	absent	absent	no	present	0	475
636bd30e14a5a0787697f56b	347065	2	main	z	65	square	global	LVF	yes	present	1	1308
636bd30e14a5a0787697f56b	348716	2	main	z	66	square	local	RVF	yes	present	1	493
636bd30e14a5a0787697f56b	351906	2	main	z	67	absent	absent	absent	no	absent	1	2000
636bd30e14a5a0787697f56b	353512	2	main	z	68	square	global	RVF	yes	present	1	424
636bd30e14a5a0787697f56b	356167	2	main	z	69	square	global	LVF	yes	present	1	1113
636bd30e14a5a0787697f56b	358137	2	main	z	70	circle	global	LVF	yes	present	1	950
636bd30e14a5a0787697f56b	360323	2	main	z	71	square	global	LVF	yes	present	1	920
636bd30e14a5a0787697f56b	363469	2	main	z	72	absent	absent	absent	no	absent	1	2000
636bd30e14a5a0787697f56b	364906	2	main	z	73	square	local	LVF	yes	present	1	488
636bd30e14a5a0787697f56b	368284	2	main	z	74	absent	absent	absent	no	absent	1	2000
636bd30e14a5a0787697f56b	371283	2	main	z	75	absent	absent	absent	no	absent	1	2000
636bd30e14a5a0787697f56b	372897	2	main	z	76	circle	global	LVF	yes	present	1	665
636bd30e14a5a0787697f56b	374624	2	main	z	77	square	global	LVF	yes	present	1	593
636bd30e14a5a0787697f56b	376795	2	main	z	78	circle	local	LVF	yes	present	1	915
636bd30e14a5a0787697f56b	380196	2	main	z	79	absent	absent	absent	no	absent	1	2000
636bd30e14a5a0787697f56b	381909	2	main	z	80	square	local	LVF	yes	present	1	747
636bd30e14a5a0787697f56b	411225	3	practice	slash	1	circle	local	RVF	yes	present	1	387
636bd30e14a5a0787697f56b	414166	3	practice	slash	2	circle	local	RVF	yes	present	1	296
636bd30e14a5a0787697f56b	416988	3	practice	slash	3	circle	global	LVF	yes	present	1	552
636bd30e14a5a0787697f56b	420041	3	practice	slash	4	square	global	LVF	yes	present	1	973
636bd30e14a5a0787697f56b	422446	3	practice	slash	5	square	global	RVF	yes	present	1	462
636bd30e14a5a0787697f56b	426500	3	practice	slash	6	absent	absent	absent	no	absent	1	2000
636bd30e14a5a0787697f56b	430598	3	practice	slash	7	absent	absent	absent	no	absent	1	2000
636bd30e14a5a0787697f56b	434597	3	practice	slash	8	absent	absent	absent	no	absent	1	2000
636bd30e14a5a0787697f56b	437147	3	practice	slash	9	square	global	LVF	yes	present	1	551
636bd30e14a5a0787697f56b	439996	3	practice	slash	10	square	local	LVF	yes	present	1	784
636bd30e14a5a0787697f56b	442791	3	practice	slash	11	circle	local	RVF	yes	present	1	780
636bd30e14a5a0787697f56b	445544	3	practice	slash	12	circle	global	RVF	yes	present	1	717
636bd30e14a5a0787697f56b	448527	3	practice	slash	13	square	local	LVF	yes	present	1	985
636bd30e14a5a0787697f56b	451203	3	practice	slash	14	circle	global	RVF	yes	present	1	679
636bd30e14a5a0787697f56b	455157	3	practice	slash	15	absent	absent	absent	no	absent	1	2000
636bd30e14a5a0787697f56b	457724	3	practice	slash	16	circle	global	LVF	yes	present	1	519
636bd30e14a5a0787697f56b	473570	4	main	slash	1	circle	global	LVF	yes	present	1	622
636bd30e14a5a0787697f56b	475522	4	main	slash	2	square	global	LVF	yes	present	1	558
636bd30e14a5a0787697f56b	477950	4	main	slash	3	circle	local	LVF	yes	present	1	570
636bd30e14a5a0787697f56b	480017	4	main	slash	4	circle	local	LVF	yes	present	1	589
636bd30e14a5a0787697f56b	482099	4	main	slash	5	square	local	RVF	yes	present	1	654
636bd30e14a5a0787697f56b	484249	4	main	slash	6	square	local	LVF	yes	present	1	755
636bd30e14a5a0787697f56b	486681	4	main	slash	7	circle	global	RVF	yes	present	1	988
636bd30e14a5a0787697f56b	488461	4	main	slash	8	circle	local	LVF	yes	present	1	568
636bd30e14a5a0787697f56b	490641	4	main	slash	9	circle	local	RVF	yes	present	1	816
636bd30e14a5a0787697f56b	494041	4	main	slash	10	absent	absent	absent	no	absent	1	2000
636bd30e14a5a0787697f56b	495771	4	main	slash	11	circle	local	RVF	yes	present	1	564
636bd30e14a5a0787697f56b	499206	4	main	slash	12	absent	absent	absent	no	absent	1	2000
636bd30e14a5a0787697f56b	501035	4	main	slash	13	circle	global	RVF	yes	present	1	763
636bd30e14a5a0787697f56b	503172	4	main	slash	14	circle	local	RVF	yes	present	1	701
636bd30e14a5a0787697f56b	505189	4	main	slash	15	circle	local	LVF	yes	present	1	602
636bd30e14a5a0787697f56b	507685	4	main	slash	16	square	local	RVF	yes	present	1	1015
636bd30e14a5a0787697f56b	510919	4	main	slash	17	absent	absent	absent	no	absent	1	2000
636bd30e14a5a0787697f56b	512447	4	main	slash	18	square	local	LVF	yes	present	1	512
636bd30e14a5a0787697f56b	514252	4	main	slash	19	square	local	LVF	yes	present	1	551
636bd30e14a5a0787697f56b	517500	4	main	slash	20	absent	absent	absent	no	absent	1	2000
636bd30e14a5a0787697f56b	519199	4	main	slash	21	square	global	LVF	yes	present	1	583
636bd30e14a5a0787697f56b	520927	4	main	slash	22	circle	global	LVF	yes	present	1	562
636bd30e14a5a0787697f56b	523040	4	main	slash	23	square	global	RVF	yes	present	1	842
636bd30e14a5a0787697f56b	525227	4	main	slash	24	square	global	RVF	yes	present	1	797
636bd30e14a5a0787697f56b	527469	4	main	slash	25	square	global	LVF	yes	present	1	707
636bd30e14a5a0787697f56b	529679	4	main	slash	26	circle	global	LVF	yes	present	1	933
636bd30e14a5a0787697f56b	531690	4	main	slash	27	square	global	RVF	yes	present	1	778
636bd30e14a5a0787697f56b	534049	4	main	slash	28	square	global	RVF	yes	present	1	972
636bd30e14a5a0787697f56b	535985	4	main	slash	29	square	local	RVF	yes	present	1	675
636bd30e14a5a0787697f56b	538061	4	main	slash	30	square	local	RVF	yes	present	1	702
636bd30e14a5a0787697f56b	540371	4	main	slash	31	circle	global	LVF	yes	present	1	1029
636bd30e14a5a0787697f56b	543508	4	main	slash	32	absent	absent	absent	no	absent	1	2000
636bd30e14a5a0787697f56b	546623	4	main	slash	33	square	local	LVF	yes	absent	0	2000
636bd30e14a5a0787697f56b	549672	4	main	slash	34	absent	absent	absent	no	absent	1	2000
636bd30e14a5a0787697f56b	551425	4	main	slash	35	circle	global	RVF	yes	present	1	438
636bd30e14a5a0787697f56b	553347	4	main	slash	36	circle	local	RVF	yes	present	1	626
636bd30e14a5a0787697f56b	556670	4	main	slash	37	absent	absent	absent	no	absent	1	2000
636bd30e14a5a0787697f56b	558264	4	main	slash	38	square	global	LVF	yes	present	1	578
636bd30e14a5a0787697f56b	561452	4	main	slash	39	absent	absent	absent	no	absent	1	2000
636bd30e14a5a0787697f56b	562842	4	main	slash	40	circle	global	RVF	yes	present	1	441
636bd30e14a5a0787697f56b	564503	4	main	slash	41	circle	global	RVF	yes	present	1	519
636bd30e14a5a0787697f56b	567683	4	main	slash	42	absent	absent	absent	no	absent	1	2000
636bd30e14a5a0787697f56b	569515	4	main	slash	43	square	global	LVF	yes	present	1	816
636bd30e14a5a0787697f56b	572648	4	main	slash	44	absent	absent	absent	no	absent	1	2000
636bd30e14a5a0787697f56b	574046	4	main	slash	45	square	local	RVF	yes	present	1	432
636bd30e14a5a0787697f56b	576463	4	main	slash	46	square	global	LVF	yes	present	1	717
636bd30e14a5a0787697f56b	578202	4	main	slash	47	circle	global	LVF	yes	present	1	607
636bd30e14a5a0787697f56b	579794	4	main	slash	48	square	global	LVF	yes	present	1	466
636bd30e14a5a0787697f56b	581625	4	main	slash	49	square	global	RVF	yes	present	1	697
636bd30e14a5a0787697f56b	583251	4	main	slash	50	circle	global	RVF	yes	present	1	424
636bd30e14a5a0787697f56b	584940	4	main	slash	51	circle	global	RVF	yes	present	1	463
636bd30e14a5a0787697f56b	586633	4	main	slash	52	square	global	RVF	yes	present	1	490
636bd30e14a5a0787697f56b	588295	4	main	slash	53	square	global	LVF	yes	present	1	436
636bd30e14a5a0787697f56b	590203	4	main	slash	54	circle	local	RVF	yes	present	1	711
636bd30e14a5a0787697f56b	591983	4	main	slash	55	square	local	RVF	yes	present	1	593
636bd30e14a5a0787697f56b	593689	4	main	slash	56	circle	local	LVF	yes	present	1	450
636bd30e14a5a0787697f56b	595431	4	main	slash	57	absent	absent	absent	no	present	0	541
636bd30e14a5a0787697f56b	598077	4	main	slash	58	square	local	LVF	yes	present	1	1121
636bd30e14a5a0787697f56b	599953	4	main	slash	59	circle	local	LVF	yes	present	1	815
636bd30e14a5a0787697f56b	601930	4	main	slash	60	square	local	LVF	yes	present	1	876
636bd30e14a5a0787697f56b	604038	4	main	slash	61	circle	global	LVF	yes	present	1	1068
636bd30e14a5a0787697f56b	605926	4	main	slash	62	square	global	RVF	yes	present	1	873
636bd30e14a5a0787697f56b	608136	4	main	slash	63	circle	global	LVF	yes	present	1	1084
636bd30e14a5a0787697f56b	610294	4	main	slash	64	square	global	RVF	yes	present	1	1092
636bd30e14a5a0787697f56b	613318	4	main	slash	65	absent	absent	absent	no	absent	1	2000
636bd30e14a5a0787697f56b	614890	4	main	slash	66	circle	local	RVF	yes	present	1	540
636bd30e14a5a0787697f56b	616688	4	main	slash	67	circle	local	LVF	yes	present	1	605
636bd30e14a5a0787697f56b	618547	4	main	slash	68	square	local	LVF	yes	present	1	716
636bd30e14a5a0787697f56b	620601	4	main	slash	69	square	local	RVF	yes	present	1	770
636bd30e14a5a0787697f56b	622442	4	main	slash	70	circle	local	LVF	yes	present	1	611
636bd30e14a5a0787697f56b	625738	4	main	slash	71	square	local	LVF	yes	present	1	1975
636bd30e14a5a0787697f56b	627382	4	main	slash	72	circle	global	RVF	yes	present	1	586
636bd30e14a5a0787697f56b	630512	4	main	slash	73	absent	absent	absent	no	absent	1	2000
636bd30e14a5a0787697f56b	632106	4	main	slash	74	square	local	RVF	yes	present	1	579
636bd30e14a5a0787697f56b	635160	4	main	slash	75	absent	absent	absent	no	absent	1	2000
636bd30e14a5a0787697f56b	638193	4	main	slash	76	absent	absent	absent	no	absent	1	2000
636bd30e14a5a0787697f56b	640031	4	main	slash	77	circle	local	RVF	yes	present	1	573
636bd30e14a5a0787697f56b	643141	4	main	slash	78	absent	absent	absent	no	absent	1	2000
636bd30e14a5a0787697f56b	644620	4	main	slash	79	circle	local	RVF	yes	present	1	448
636bd30e14a5a0787697f56b	646695	4	main	slash	80	circle	global	LVF	yes	present	1	940
