subject	time_elapsed_ms	blocknum	block_type	block_response	trialnum	target	level	field	target_present	response	correct	rt
56279953ddff3c0005bcdba9	201634	1	practice	slash	1	square	global	RVF	yes	absent	0	2000
56279953ddff3c0005bcdba9	205096	1	practice	slash	2	circle	global	LVF	yes	present	1	635
56279953ddff3c0005bcdba9	208167	1	practice	slash	3	square	global	LVF	yes	present	1	675
56279953ddff3c0005bcdba9	211084	1	practice	slash	4	circle	global	LVF	yes	present	1	530
56279953ddff3c0005bcdba9	215383	1	practice	slash	5	absent	absent	absent	no	absent	1	2000
56279953ddff3c0005bcdba9	218676	1	practice	slash	6	absent	absent	absent	no	present	0	1163
56279953ddff3c0005bcdba9	221520	1	practice	slash	7	square	local	LVF	yes	present	1	728
56279953ddff3c0005bcdba9	225637	1	practice	slash	8	absent	absent	absent	no	absent	1	2000
56279953ddff3c0005bcdba9	228669	1	practice	slash	9	circle	local	RVF	yes	present	1	769
56279953ddff3c0005bcdba9	231750	1	practice	slash	10	circle	global	RVF	yes	present	1	872
56279953ddff3c0005bcdba9	235121	1	practice	slash	11	square	global	LVF	yes	present	1	1179
56279953ddff3c0005bcdba9	238261	1	practice	slash	12	square	local	LVF	yes	present	1	1006
56279953ddff3c0005bcdba9	242433	1	practice	slash	13	absent	absent	absent	no	absent	1	2000
56279953ddff3c0005bcdba9	245485	1	practice	slash	14	circle	local	RVF	yes	present	1	973
56279953ddff3c0005bcdba9	248927	1	practice	slash	15	circle	local	RVF	yes	present	1	1185
56279953ddff3c0005bcdba9	252172	1	practice	slash	16	circle	global	RVF	yes	present	1	1135
56279953ddff3c0005bcdba9	258549	2	main	slash	1	circle	global	RVF	yes	present	1	856
56279953ddff3c0005bcdba9	261396	2	main	slash	2	square	global	RVF	yes	present	1	724
56279953ddff3c0005bcdba9	264418	2	main	slash	3	square	global	RVF	yes	present	1	1132
56279953ddff3c0005bcdba9	267916	2	main	slash	4	absent	absent	absent	no	absent	1	2000
56279953ddff3c0005bcdba9	271162	2	main	slash	5	absent	absent	absent	no	absent	1	2000
56279953ddff3c0005bcdba9	273089	2	main	slash	6	circle	local	LVF	yes	present	1	846
56279953ddff3c0005bcdba9	275539	2	main	slash	7	square	local	LVF	yes	present	1	850
56279953ddff3c0005bcdba9	278078	2	main	slash	8	square	local	RVF	yes	present	1	843
56279953ddff3c0005bcdba9	280756	2	main	slash	9	circle	local	LVF	yes	present	1	974
56279953ddff3c0005bcdba9	283514	2	main	slash	10	circle	local	RVF	yes	present	1	952
56279953ddff3c0005bcdba9	286097	2	main	slash	11	circle	local	RVF	yes	present	1	1004
56279953ddff3c0005bcdba9	288672	2	main	slash	12	circle	global	LVF	yes	present	1	1067
56279953ddff3c0005bcdba9	292319	2	main	slash	13	absent	absent	absent	no	absent	1	2000
56279953ddff3c0005bcdba9	295448	2	main	slash	14	absent	absent	absent	no	absent	1	2000
56279953ddff3c0005bcdba9	298594	2	main	slash	15	absent	absent	absent	no	absent	1	2000
56279953ddff3c0005bcdba9	300613	2	main	slash	16	square	global	RVF	yes	present	1	889
56279953ddff3c0005bcdba9	302882	2	main	slash	17	circle	local	LVF	yes	present	1	911
56279953ddff3c0005bcdba9	305303	2	main	slash	18	absent	absent	absent	no	present	0	985
56279953ddff3c0005bcdba9	307677	2	main	slash	19	square	local	RVF	yes	present	1	960
56279953ddff3c0005bcdba9	309961	2	main	slash	20	circle	local	LVF	yes	present	1	832
56279953ddff3c0005bcdba9	312291	2	main	slash	21	circle	global	LVF	yes	present	1	932
56279953ddff3c0005bcdba9	314723	2	main	slash	22	circle	global	LVF	yes	present	1	900
56279953ddff3c0005bcdba9	317477	2	main	slash	23	circle	local	RVF	yes	present	1	1224
56279953ddff3c0005bcdba9	319950	2	main	slash	24	square	global	LVF	yes	present	1	951
56279953ddff3c0005bcdba9	322278	2	main	slash	25	circle	global	RVF	yes	present	1	748
56279953ddff3c0005bcdba9	324936	2	main	slash	26	square	global	LVF	yes	present	1	959
56279953ddff3c0005bcdba9	327643	2	main	slash	27	circle	global	RVF	yes	present	1	820
56279953ddff3c0005bcdba9	331187	2	main	slash	28	absent	absent	absent	no	absent	1	2000
56279953ddff3c0005bcdba9	333836	2	main	slash	29	square	local	LVF	yes	present	1	887
56279953ddff3c0005bcdba9	336770	2	main	slash	30	square	local	RVF	yes	present	1	1523
56279953ddff3c0005bcdba9	339058	2	main	slash	31	absent	absent	absent	no	present	0	915
56279953ddff3c0005bcdba9	342323	2	main	slash	32	circle	local	RVF	yes	absent	0	2000
56279953ddff3c0005bcdba9	345217	2	main	slash	33	circle	global	LVF	yes	present	1	699
56279953ddff3c0005bcdba9	347158	2	main	slash	34	square	local	LVF	yes	present	1	792
56279953ddff3c0005bcdba9	349480	2	main	slash	35	square	local	RVF	yes	present	1	1050
56279953ddff3c0005bcdba9	351613	2	main	slash	36	square	global	RVF	yes	present	1	868
56279953ddff3c0005bcdba9	353815	2	main	slash	37	square	global	LVF	yes	present	1	890
56279953ddff3c0005bcdba9	355922	2	main	slash	38	circle	global	RVF	yes	present	1	833
56279953ddff3c0005bcdba9	358076	2	main	slash	39	square	global	LVF	yes	present	1	939
56279953ddff3c0005bcdba9	360508	2	main	slash	40	square	local	LVF	yes	present	1	1108
56279953ddff3c0005bcdba9	363980	2	main	slash	41	absent	absent	absent	no	absent	1	2000
56279953ddff3c0005bcdba9	366030	2	main	slash	42	circle	local	RVF	yes	present	1	853
56279953ddff3c0005bcdba9	368333	2	main	slash	43	square	local	LVF	yes	present	1	943
56279953ddff3c0005bcdba9	370571	2	main	slash	44	square	global	RVF	yes	present	1	902
56279953ddff3c0005bcdba9	372838	2	main	slash	45	square	global	LVF	yes	present	1	786
56279953ddff3c0005bcdba9	376014	2	main	slash	46	circle	local	RVF	yes	absent	0	2000
56279953ddff3c0005bcdba9	377841	2	main	slash	47	circle	global	LVF	yes	present	1	730
56279953ddff3c0005bcdba9	380417	2	main	slash	48	circle	local	LVF	yes	present	1	1325
56279953ddff3c0005bcdba9	383672	2	main	slash	49	absent	absent	absent	no	absent	1	2000
56279953ddff3c0005bcdba9	385713	2	main	slash	50	square	global	RVF	yes	present	1	877
56279953ddff3c0005bcdba9	388982	2	main	slash	51	absent	absent	absent	no	absent	1	2000
56279953ddff3c0005bcdba9	391138	2	main	slash	52	circle	local	LVF	yes	present	1	1025
56279953ddff3c0005bcdba9	393628	2	main	slash	53	absent	absent	absent	no	present	0	920
56279953ddff3c0005bcdba9	395774	2	main	slash	54	circle	global	RVF	yes	present	1	919
56279953ddff3c0005bcdba9	397836	2	main	slash	55	circle	global	LVF	yes	present	1	866
56279953ddff3c0005bcdba9	399789	2	main	slash	56	square	local	LVF	yes	present	1	838
56279953ddff3c0005bcdba9	401776	2	main	slash	57	square	global	LVF	yes	present	1	828
56279953ddff3c0005bcdba9	404183	2	main	slash	58	circle	global	RVF	yes	present	1	1271
56279953ddff3c0005bcdba9	406352	2	main	slash	59	circle	global	LVF	yes	present	1	809
56279953ddff3c0005bcdba9	409507	2	main	slash	60	square	local	RVF	yes	absent	0	2000
56279953ddff3c0005bcdba9	411995	2	main	slash	61	square	local	LVF	yes	present	1	926
56279953ddff3c0005bcdba9	414216	2	main	slash	62	square	local	RVF	yes	present	1	983
56279953ddff3c0005bcdba9	417846	2	main	slash	63	circle	global	RVF	yes	absent	0	2000
56279953ddff3c0005bcdba9	419937	2	main	slash	64	square	local	LVF	yes	present	1	960
56279953ddff3c0005bcdba9	422087	2	main	slash	65	circle	local	RVF	yes	present	1	797
56279953ddff3c0005bcdba9	424078	2	main	slash	66	square	global	RVF	yes	present	1	774
56279953ddff3c0005bcdba9	425970	2	main	slash	67	square	local	RVF	yes	present	1	685
56279953ddff3c0005bcdba9	428041	2	main	slash	68	square	global	RVF	yes	present	1	859
56279953ddff3c0005bcdba9	429917	2	main	slash	69	circle	global	LVF	yes	present	1	704
56279953ddff3c0005bcdba9	432061	2	main	slash	70	absent	absent	absent	no	present	0	1018
56279953ddff3c0005bcdba9	434123	2	main	slash	71	square	global	LVF	yes	present	1	882
56279953ddff3c0005bcdba9	435973	2	main	slash	72	circle	local	RVF	yes	present	1	734
56279953ddff3c0005bcdba9	439070	2	main	slash	73	absent	absent	absent	no	absent	1	2000
56279953ddff3c0005bcdba9	442316	2	main	slash	74	circle	local	LVF	yes	absent	0	2000
56279953ddff3c0005bcdba9	444327	2	main	slash	75	circle	local	LVF	yes	present	1	766
56279953ddff3c0005bcdba9	447426	2	main	slash	76	absent	absent	absent	no	absent	1	2000
56279953ddff3c0005bcdba9	449192	2	main	slash	77	square	global	LVF	yes	present	1	703
56279953ddff3c0005bcdba9	450995	2	main	slash	78	circle	global	RVF	yes	present	1	742
56279953ddff3c0005bcdba9	454035	2	main	slash	79	absent	absent	absent	no	absent	1	2000
56279953ddff3c0005bcdba9	456000	2	main	slash	80	square	local	RVF	yes	present	1	853
56279953ddff3c0005bcdba9	479104	3	practice	z	1	circle	global	RVF	yes	present	1	449
56279953ddff3c0005bcdba9	482275	3	practice	z	2	square	local	LVF	yes	present	1	758
56279953ddff3c0005bcdba9	485187	3	practice	z	3	circle	global	LVF	yes	present	1	607
56279953ddff3c0005bcdba9	489343	3	practice	z	4	absent	absent	absent	no	absent	1	2000
56279953ddff3c0005bcdba9	492267	3	practice	z	5	square	global	RVF	yes	present	1	861
56279953ddff3c0005bcdba9	495169	3	practice	z	6	circle	local	RVF	yes	present	1	735
56279953ddff3c0005bcdba9	499215	3	practice	z	7	absent	absent	absent	no	absent	1	2000
56279953ddff3c0005bcdba9	502008	3	practice	z	8	circle	global	LVF	yes	present	1	666
56279953ddff3c0005bcdba9	506090	3	practice	z	9	circle	local	RVF	yes	absent	0	2000
56279953ddff3c0005bcdba9	509037	3	practice	z	10	square	global	LVF	yes	present	1	802
56279953ddff3c0005bcdba9	512025	3	practice	z	11	square	global	LVF	yes	present	1	843
56279953ddff3c0005bcdba9	516143	3	practice	z	12	absent	absent	absent	no	absent	1	2000
56279953ddff3c0005bcdba9	519085	3	practice	z	13	circle	global	RVF	yes	present	1	781
56279953ddff3c0005bcdba9	523134	3	practice	z	14	absent	absent	absent	no	absent	1	2000
56279953ddff3c0005bcdba9	526148	3	practice	z	15	square	local	LVF	yes	present	1	835
56279953ddff3c0005bcdba9	530209	3	practice	z	16	circle	local	RVF	yes	absent	0	2000
56279953ddff3c0005bcdba9	536063	4	main	z	1	square	global	LVF	yes	present	1	596
56279953ddff3c0005bcdba9	538102	4	main	z	2	square	local	LVF	yes	present	1	706
56279953ddff3c0005bcdba9	540203	4	main	z	3	circle	global	RVF	yes	present	1	710
56279953ddff3c0005bcdba9	542256	4	main	z	4	circle	local	RVF	yes	present	1	732
56279953ddff3c0005bcdba9	544141	4	main	z	5	circle	global	LVF	yes	present	1	637
56279953ddff3c0005bcdba9	546599	4	main	z	6	absent	absent	absent	no	present	0	1197
56279953ddff3c0005bcdba9	548593	4	main	z	7	square	local	LVF	yes	present	1	910
56279953ddff3c0005bcdba9	550383	4	main	z	8	square	local	RVF	yes	present	1	703
56279953ddff3c0005bcdba9	553645	4	main	z	9	absent	absent	absent	no	absent	1	2000
56279953ddff3c0005bcdba9	555434	4	main	z	10	circle	local	LVF	yes	present	1	744
56279953ddff3c0005bcdba9	557372	4	main	z	11	circle	global	RVF	yes	present	1	783
56279953ddff3c0005bcdba9	560519	4	main	z	12	absent	absent	absent	no	absent	1	2000
56279953ddff3c0005bcdba9	562242	4	main	z	13	square	global	RVF	yes	present	1	693
56279953ddff3c0005bcdba9	564104	4	main	z	14	circle	global	LVF	yes	present	1	674
56279953ddff3c0005bcdba9	567177	4	main	z	15	absent	absent	absent	no	absent	1	2000
56279953ddff3c0005bcdba9	568984	4	main	z	16	circle	local	LVF	yes	present	1	794
56279953ddff3c0005bcdba9	571290	4	main	z	17	circle	local	RVF	yes	present	1	1119
56279953ddff3c0005bcdba9	573410	4	main	z	18	circle	local	RVF	yes	present	1	892
56279953ddff3c0005bcdba9	575420	4	main	z	19	circle	local	RVF	yes	present	1	887
56279953ddff3c0005bcdba9	577617	4	main	z	20	square	local	RVF	yes	present	1	804
56279953ddff3c0005bcdba9	579604	4	main	z	21	square	local	RVF	yes	present	1	842
56279953ddff3c0005bcdba9	581548	4	main	z	22	square	global	LVF	yes	present	1	755
56279953ddff3c0005bcdba9	583358	4	main	z	23	square	local	LVF	yes	present	1	686
56279953ddff3c0005bcdba9	585301	4	main	z	24	square	local	RVF	yes	present	1	780
56279953ddff3c0005bcdba9	587187	4	main	z	25	circle	global	LVF	yes	present	1	769
56279953ddff3c0005bcdba9	590282	4	main	z	26	absent	absent	absent	no	absent	1	2000
56279953ddff3c0005bcdba9	592064	4	main	z	27	circle	global	RVF	yes	present	1	702
56279953ddff3c0005bcdba9	594083	4	main	z	28	square	global	RVF	yes	present	1	824
56279953ddff3c0005bcdba9	596015	4	main	z	29	absent	absent	absent	no	present	0	824
56279953ddff3c0005bcdba9	597921	4	main	z	30	square	global	RVF	yes	present	1	781
56279953ddff3c0005bcdba9	600058	4	main	z	31	circle	global	RVF	yes	present	1	1006
56279953ddff3c0005bcdba9	602047	4	main	z	32	square	global	LVF	yes	present	1	797
56279953ddff3c0005bcdba9	603929	4	main	z	33	square	global	LVF	yes	present	1	749
56279953ddff3c0005bcdba9	605877	4	main	z	34	circle	local	LVF	yes	present	1	766
56279953ddff3c0005bcdba9	607648	4	main	z	35	circle	local	LVF	yes	present	1	670
56279953ddff3c0005bcdba9	610773	4	main	z	36	absent	absent	absent	no	absent	1	2000
56279953ddff3c0005bcdba9	612748	4	main	z	37	square	global	RVF	yes	present	1	911
56279953ddff3c0005bcdba9	614649	4	main	z	38	square	local	LVF	yes	present	1	765
56279953ddff3c0005bcdba9	617698	4	main	z	39	absent	absent	absent	no	absent	1	2000
56279953ddff3c0005bcdba9	619670	4	main	z	40	circle	global	LVF	yes	present	1	661
56279953ddff3c0005bcdba9	621505	4	main	z	41	square	local	RVF	yes	present	1	763
56279953ddff3c0005bcdba9	623341	4	main	z	42	circle	local	RVF	yes	present	1	718
56279953ddff3c0005bcdba9	625103	4	main	z	43	square	local	RVF	yes	present	1	665
56279953ddff3c0005bcdba9	627001	4	main	z	44	square	global	LVF	yes	present	1	733
56279953ddff3c0005bcdba9	628816	4	main	z	45	circle	local	LVF	yes	present	1	717
56279953ddff3c0005bcdba9	630754	4	main	z	46	absent	absent	absent	no	present	0	890
56279953ddff3c0005bcdba9	632828	4	main	z	47	absent	absent	absent	no	present	0	917
56279953ddff3c0005bcdba9	634766	4	main	z	48	circle	local	LVF	yes	present	1	872
56279953ddff3c0005bcdba9	636492	4	main	z	49	square	local	RVF	yes	present	1	686
56279953ddff3c0005bcdba9	638303	4	main	z	50	square	global	RVF	yes	present	1	749
56279953ddff3c0005bcdba9	641351	4	main	z	51	absent	absent	absent	no	absent	1	2000
56279953ddff3c0005bcdba9	644426	4	main	z	52	absent	absent	absent	no	present	0	1744
56279953ddff3c0005bcdba9	646394	4	main	z	53	square	global	LVF	yes	present	1	751
56279953ddff3c0005bcdba9	648129	4	main	z	54	square	global	RVF	yes	present	1	704
56279953ddff3c0005bcdba9	649939	4	main	z	55	circle	local	RVF	yes	present	1	716
56279953ddff3c0005bcdba9	652634	4	main	z	56	circle	local	LVF	yes	present	1	1546
56279953ddff3c0005bcdba9	654786	4	main	z	57	square	global	RVF	yes	present	1	869
56279953ddff3c0005bcdba9	657881	4	main	z	58	absent	absent	absent	no	absent	1	2000
56279953ddff3c0005bcdba9	659949	4	main	z	59	square	local	LVF	yes	present	1	1022
56279953ddff3c0005bcdba9	662193	4	main	z	60	square	local	LVF	yes	present	1	1135
56279953ddff3c0005bcdba9	664186	4	main	z	61	square	global	LVF	yes	present	1	881
56279953ddff3c0005bcdba9	666137	4	main	z	62	circle	global	LVF	yes	present	1	801
56279953ddff3c0005bcdba9	667969	4	main	z	63	circle	local	RVF	yes	present	1	702
56279953ddff3c0005bcdba9	669871	4	main	z	64	circle	global	LVF	yes	present	1	740
56279953ddff3c0005bcdba9	671725	4	main	z	65	circle	local	LVF	yes	present	1	728
56279953ddff3c0005bcdba9	673603	4	main	z	66	circle	local	RVF	yes	present	1	726
56279953ddff3c0005bcdba9	675529	4	main	z	67	circle	global	LVF	yes	present	1	738
56279953ddff3c0005bcdba9	677570	4	main	z	68	absent	absent	absent	no	present	0	964
56279953ddff3c0005bcdba9	679471	4	main	z	69	square	local	LVF	yes	present	1	801
56279953ddff3c0005bcdba9	682292	4	main	z	70	square	global	LVF	yes	present	1	909
56279953ddff3c0005bcdba9	684855	4	main	z	71	circle	global	RVF	yes	present	1	958
56279953ddff3c0005bcdba9	686879	4	main	z	72	square	global	RVF	yes	present	1	785
56279953ddff3c0005bcdba9	689029	4	main	z	73	circle	global	RVF	yes	present	1	1020
56279953ddff3c0005bcdba9	690739	4	main	z	74	circle	global	RVF	yes	present	1	717
56279953ddff3c0005bcdba9	692845	4	main	z	75	square	local	LVF	yes	present	1	990
56279953ddff3c0005bcdba9	694925	4	main	z	76	square	local	RVF	yes	present	1	974
56279953ddff3c0005bcdba9	698081	4	main	z	77	absent	absent	absent	no	absent	1	2000
56279953ddff3c0005bcdba9	700142	4	main	z	78	absent	absent	absent	no	present	0	1030
56279953ddff3c0005bcdba9	701924	4	main	z	79	circle	global	RVF	yes	present	1	799
56279953ddff3c0005bcdba9	703889	4	main	z	80	circle	global	LVF	yes	present	1	915
