subject	time_elapsed_ms	blocknum	block_type	block_response	trialnum	target	level	field	target_present	response	correct	rt
5ec59e86c9569f5e8000717b	198410	1	practice	slash	1	square	local	LVF	yes	absent	0	2000
5ec59e86c9569f5e8000717b	202903	1	practice	slash	2	circle	local	RVF	yes	present	1	775
5ec59e86c9569f5e8000717b	205914	1	practice	slash	3	square	global	LVF	yes	present	1	553
5ec59e86c9569f5e8000717b	208821	1	practice	slash	4	circle	global	LVF	yes	present	1	593
5ec59e86c9569f5e8000717b	211824	1	practice	slash	5	absent	absent	absent	no	present	0	895
5ec59e86c9569f5e8000717b	214634	1	practice	slash	6	circle	local	RVF	yes	present	1	640
5ec59e86c9569f5e8000717b	218644	1	practice	slash	7	absent	absent	absent	no	absent	1	2000
5ec59e86c9569f5e8000717b	221404	1	practice	slash	8	square	global	RVF	yes	present	1	527
5ec59e86c9569f5e8000717b	224623	1	practice	slash	9	square	local	LVF	yes	present	1	1062
5ec59e86c9569f5e8000717b	227342	1	practice	slash	10	circle	global	RVF	yes	present	1	681
5ec59e86c9569f5e8000717b	230058	1	practice	slash	11	circle	global	RVF	yes	present	1	780
5ec59e86c9569f5e8000717b	233155	1	practice	slash	12	circle	global	LVF	yes	present	1	1144
5ec59e86c9569f5e8000717b	237128	1	practice	slash	13	absent	absent	absent	no	absent	1	2000
5ec59e86c9569f5e8000717b	241978	1	practice	slash	14	absent	absent	absent	no	absent	1	2000
5ec59e86c9569f5e8000717b	244868	1	practice	slash	15	square	global	LVF	yes	present	1	691
5ec59e86c9569f5e8000717b	247725	1	practice	slash	16	circle	local	RVF	yes	present	1	715
5ec59e86c9569f5e8000717b	258508	2	main	slash	1	absent	absent	absent	no	absent	1	2000
5ec59e86c9569f5e8000717b	260989	2	main	slash	2	circle	global	LVF	yes	present	1	680
5ec59e86c9569f5e8000717b	263546	2	main	slash	3	square	global	RVF	yes	present	1	554
5ec59e86c9569f5e8000717b	265700	2	main	slash	4	circle	global	RVF	yes	present	1	542
5ec59e86c9569f5e8000717b	267544	2	main	slash	5	square	global	RVF	yes	present	1	552
5ec59e86c9569f5e8000717b	270542	2	main	slash	6	absent	absent	absent	no	absent	1	2000
5ec59e86c9569f5e8000717b	271977	2	main	slash	7	square	global	RVF	yes	present	1	468
5ec59e86c9569f5e8000717b	273944	2	main	slash	8	square	local	RVF	yes	present	1	719
5ec59e86c9569f5e8000717b	277126	2	main	slash	9	absent	absent	absent	no	absent	1	2000
5ec59e86c9569f5e8000717b	278963	2	main	slash	10	square	global	LVF	yes	present	1	588
5ec59e86c9569f5e8000717b	282259	2	main	slash	11	square	local	LVF	yes	absent	0	2000
5ec59e86c9569f5e8000717b	285442	2	main	slash	12	absent	absent	absent	no	absent	1	2000
5ec59e86c9569f5e8000717b	287249	2	main	slash	13	circle	local	LVF	yes	present	1	708
5ec59e86c9569f5e8000717b	289102	2	main	slash	14	square	local	LVF	yes	present	1	711
5ec59e86c9569f5e8000717b	292192	2	main	slash	15	square	local	RVF	yes	absent	0	2000
5ec59e86c9569f5e8000717b	293961	2	main	slash	16	circle	local	RVF	yes	present	1	619
5ec59e86c9569f5e8000717b	296072	2	main	slash	17	circle	global	RVF	yes	present	1	947
5ec59e86c9569f5e8000717b	298087	2	main	slash	18	circle	local	LVF	yes	present	1	979
5ec59e86c9569f5e8000717b	301175	2	main	slash	19	absent	absent	absent	no	absent	1	2000
5ec59e86c9569f5e8000717b	303029	2	main	slash	20	circle	global	LVF	yes	present	1	688
5ec59e86c9569f5e8000717b	304739	2	main	slash	21	circle	global	RVF	yes	present	1	646
5ec59e86c9569f5e8000717b	306443	2	main	slash	22	square	global	LVF	yes	present	1	702
5ec59e86c9569f5e8000717b	308345	2	main	slash	23	square	global	RVF	yes	present	1	1004
5ec59e86c9569f5e8000717b	309982	2	main	slash	24	circle	local	RVF	yes	present	1	641
5ec59e86c9569f5e8000717b	311594	2	main	slash	25	circle	global	LVF	yes	present	1	635
5ec59e86c9569f5e8000717b	314475	2	main	slash	26	absent	absent	absent	no	absent	1	2000
5ec59e86c9569f5e8000717b	318341	2	main	slash	27	absent	absent	absent	no	absent	1	2000
5ec59e86c9569f5e8000717b	320122	2	main	slash	28	square	global	LVF	yes	present	1	764
5ec59e86c9569f5e8000717b	321812	2	main	slash	29	square	local	RVF	yes	present	1	554
5ec59e86c9569f5e8000717b	323397	2	main	slash	30	circle	local	RVF	yes	present	1	556
5ec59e86c9569f5e8000717b	324945	2	main	slash	31	circle	local	LVF	yes	present	1	621
5ec59e86c9569f5e8000717b	326602	2	main	slash	32	circle	local	RVF	yes	present	1	628
5ec59e86c9569f5e8000717b	328314	2	main	slash	33	square	global	LVF	yes	present	1	723
5ec59e86c9569f5e8000717b	329936	2	main	slash	34	circle	global	LVF	yes	present	1	661
5ec59e86c9569f5e8000717b	331505	2	main	slash	35	circle	global	RVF	yes	present	1	630
5ec59e86c9569f5e8000717b	334458	2	main	slash	36	absent	absent	absent	no	absent	1	2000
5ec59e86c9569f5e8000717b	337862	2	main	slash	37	square	local	RVF	yes	present	1	688
5ec59e86c9569f5e8000717b	339477	2	main	slash	38	circle	local	LVF	yes	present	1	649
5ec59e86c9569f5e8000717b	341129	2	main	slash	39	square	local	LVF	yes	present	1	687
5ec59e86c9569f5e8000717b	342842	2	main	slash	40	square	local	LVF	yes	present	1	734
5ec59e86c9569f5e8000717b	344470	2	main	slash	41	square	local	LVF	yes	present	1	695
5ec59e86c9569f5e8000717b	346149	2	main	slash	42	square	local	RVF	yes	present	1	658
5ec59e86c9569f5e8000717b	347801	2	main	slash	43	circle	local	RVF	yes	present	1	676
5ec59e86c9569f5e8000717b	350725	2	main	slash	44	absent	absent	absent	no	absent	1	2000
5ec59e86c9569f5e8000717b	353018	2	main	slash	45	square	local	RVF	yes	present	1	1094
5ec59e86c9569f5e8000717b	354961	2	main	slash	46	circle	global	RVF	yes	present	1	654
5ec59e86c9569f5e8000717b	357958	2	main	slash	47	absent	absent	absent	no	absent	1	2000
5ec59e86c9569f5e8000717b	361192	2	main	slash	48	absent	absent	absent	no	absent	1	2000
5ec59e86c9569f5e8000717b	363130	2	main	slash	49	circle	global	LVF	yes	present	1	640
5ec59e86c9569f5e8000717b	365160	2	main	slash	50	square	local	LVF	yes	present	1	1084
5ec59e86c9569f5e8000717b	366753	2	main	slash	51	square	global	RVF	yes	present	1	646
5ec59e86c9569f5e8000717b	368259	2	main	slash	52	circle	local	RVF	yes	present	1	635
5ec59e86c9569f5e8000717b	369878	2	main	slash	53	square	local	RVF	yes	present	1	704
5ec59e86c9569f5e8000717b	371527	2	main	slash	54	square	global	RVF	yes	present	1	736
5ec59e86c9569f5e8000717b	374407	2	main	slash	55	absent	absent	absent	no	absent	1	2000
5ec59e86c9569f5e8000717b	377624	2	main	slash	56	absent	absent	absent	no	absent	1	2000
5ec59e86c9569f5e8000717b	379358	2	main	slash	57	circle	local	RVF	yes	present	1	650
5ec59e86c9569f5e8000717b	381004	2	main	slash	58	circle	local	LVF	yes	present	1	730
5ec59e86c9569f5e8000717b	383098	2	main	slash	59	square	global	LVF	yes	present	1	1091
5ec59e86c9569f5e8000717b	385120	2	main	slash	60	circle	global	RVF	yes	present	1	978
5ec59e86c9569f5e8000717b	387513	2	main	slash	61	square	local	LVF	yes	present	1	1489
5ec59e86c9569f5e8000717b	389714	2	main	slash	62	square	local	RVF	yes	present	1	706
5ec59e86c9569f5e8000717b	392808	2	main	slash	63	absent	absent	absent	no	absent	1	2000
5ec59e86c9569f5e8000717b	394699	2	main	slash	64	circle	global	LVF	yes	present	1	626
5ec59e86c9569f5e8000717b	396295	2	main	slash	65	circle	local	RVF	yes	present	1	538
5ec59e86c9569f5e8000717b	397676	2	main	slash	66	square	global	RVF	yes	present	1	511
5ec59e86c9569f5e8000717b	399154	2	main	slash	67	square	global	LVF	yes	present	1	547
5ec59e86c9569f5e8000717b	400589	2	main	slash	68	circle	local	LVF	yes	present	1	599
5ec59e86c9569f5e8000717b	403424	2	main	slash	69	absent	absent	absent	no	absent	1	2000
5ec59e86c9569f5e8000717b	407685	2	main	slash	70	square	local	LVF	yes	present	1	695
5ec59e86c9569f5e8000717b	409435	2	main	slash	71	circle	global	LVF	yes	present	1	760
5ec59e86c9569f5e8000717b	411082	2	main	slash	72	circle	local	LVF	yes	present	1	659
5ec59e86c9569f5e8000717b	412647	2	main	slash	73	circle	global	RVF	yes	present	1	623
5ec59e86c9569f5e8000717b	415574	2	main	slash	74	absent	absent	absent	no	absent	1	2000
5ec59e86c9569f5e8000717b	421053	2	main	slash	75	square	global	LVF	yes	present	1	578
5ec59e86c9569f5e8000717b	422708	2	main	slash	76	circle	local	LVF	yes	present	1	652
5ec59e86c9569f5e8000717b	424087	2	main	slash	77	circle	global	RVF	yes	present	1	481
5ec59e86c9569f5e8000717b	425493	2	main	slash	78	square	global	RVF	yes	present	1	509
5ec59e86c9569f5e8000717b	426867	2	main	slash	79	circle	global	LVF	yes	present	1	544
5ec59e86c9569f5e8000717b	428697	2	main	slash	80	square	global	LVF	yes	present	1	1024
5ec59e86c9569f5e8000717b	452841	3	practice	z	1	absent	absent	absent	no	absent	1	2000
5ec59e86c9569f5e8000717b	455723	3	practice	z	2	square	global	RVF	yes	present	1	530
5ec59e86c9569f5e8000717b	458714	3	practice	z	3	circle	global	LVF	yes	present	1	539
5ec59e86c9569f5e8000717b	463275	3	practice	z	4	absent	absent	absent	no	absent	1	2000
5ec59e86c9569f5e8000717b	466416	3	practice	z	5	circle	global	RVF	yes	present	1	574
5ec59e86c9569f5e8000717b	469491	3	practice	z	6	square	local	LVF	yes	present	1	749
5ec59e86c9569f5e8000717b	472146	3	practice	z	7	square	global	LVF	yes	present	1	588
5ec59e86c9569f5e8000717b	474811	3	practice	z	8	circle	global	RVF	yes	present	1	536
5ec59e86c9569f5e8000717b	477802	3	practice	z	9	circle	local	RVF	yes	present	1	745
5ec59e86c9569f5e8000717b	480819	3	practice	z	10	square	local	LVF	yes	present	1	693
5ec59e86c9569f5e8000717b	483537	3	practice	z	11	circle	local	RVF	yes	present	1	546
5ec59e86c9569f5e8000717b	486610	3	practice	z	12	square	global	LVF	yes	present	1	536
5ec59e86c9569f5e8000717b	489249	3	practice	z	13	circle	local	RVF	yes	present	1	441
5ec59e86c9569f5e8000717b	493365	3	practice	z	14	circle	global	LVF	yes	present	1	524
5ec59e86c9569f5e8000717b	497540	3	practice	z	15	absent	absent	absent	no	absent	1	2000
5ec59e86c9569f5e8000717b	502240	3	practice	z	16	absent	absent	absent	no	absent	1	2000
5ec59e86c9569f5e8000717b	507607	4	main	z	1	absent	absent	absent	no	absent	1	2000
5ec59e86c9569f5e8000717b	510168	4	main	z	2	circle	local	RVF	yes	present	1	528
5ec59e86c9569f5e8000717b	512092	4	main	z	3	square	global	LVF	yes	present	1	487
5ec59e86c9569f5e8000717b	514364	4	main	z	4	circle	global	LVF	yes	present	1	442
5ec59e86c9569f5e8000717b	516541	4	main	z	5	square	local	RVF	yes	present	1	686
5ec59e86c9569f5e8000717b	518348	4	main	z	6	circle	global	LVF	yes	present	1	576
5ec59e86c9569f5e8000717b	520142	4	main	z	7	square	local	LVF	yes	present	1	553
5ec59e86c9569f5e8000717b	523089	4	main	z	8	absent	absent	absent	no	absent	1	2000
5ec59e86c9569f5e8000717b	524748	4	main	z	9	circle	local	RVF	yes	present	1	526
5ec59e86c9569f5e8000717b	526224	4	main	z	10	square	global	RVF	yes	present	1	499
5ec59e86c9569f5e8000717b	527785	4	main	z	11	circle	local	RVF	yes	present	1	644
5ec59e86c9569f5e8000717b	529326	4	main	z	12	circle	global	RVF	yes	present	1	537
5ec59e86c9569f5e8000717b	530775	4	main	z	13	circle	global	LVF	yes	present	1	552
5ec59e86c9569f5e8000717b	533656	4	main	z	14	absent	absent	absent	no	absent	1	2000
5ec59e86c9569f5e8000717b	535383	4	main	z	15	square	global	RVF	yes	present	1	660
5ec59e86c9569f5e8000717b	538805	4	main	z	16	absent	absent	absent	no	absent	1	2000
5ec59e86c9569f5e8000717b	542222	4	main	z	17	absent	absent	absent	no	absent	1	2000
5ec59e86c9569f5e8000717b	543824	4	main	z	18	circle	global	LVF	yes	present	1	515
5ec59e86c9569f5e8000717b	546789	4	main	z	19	absent	absent	absent	no	absent	1	2000
5ec59e86c9569f5e8000717b	549413	4	main	z	20	square	global	LVF	yes	present	1	925
5ec59e86c9569f5e8000717b	551159	4	main	z	21	square	global	LVF	yes	present	1	686
5ec59e86c9569f5e8000717b	553196	4	main	z	22	square	local	LVF	yes	present	1	1023
5ec59e86c9569f5e8000717b	555363	4	main	z	23	square	local	RVF	yes	present	1	1156
5ec59e86c9569f5e8000717b	558383	4	main	z	24	circle	local	LVF	yes	present	1	744
5ec59e86c9569f5e8000717b	560224	4	main	z	25	square	local	RVF	yes	present	1	669
5ec59e86c9569f5e8000717b	561694	4	main	z	26	circle	global	RVF	yes	present	1	639
5ec59e86c9569f5e8000717b	564622	4	main	z	27	absent	absent	absent	no	absent	1	2000
5ec59e86c9569f5e8000717b	568606	4	main	z	28	absent	absent	absent	no	absent	1	2000
5ec59e86c9569f5e8000717b	570386	4	main	z	29	circle	global	RVF	yes	present	1	598
5ec59e86c9569f5e8000717b	572250	4	main	z	30	square	global	RVF	yes	present	1	929
5ec59e86c9569f5e8000717b	574680	4	main	z	31	square	local	LVF	yes	present	1	709
5ec59e86c9569f5e8000717b	576419	4	main	z	32	circle	local	RVF	yes	present	1	747
5ec59e86c9569f5e8000717b	578054	4	main	z	33	circle	local	LVF	yes	present	1	583
5ec59e86c9569f5e8000717b	579676	4	main	z	34	square	local	LVF	yes	present	1	720
5ec59e86c9569f5e8000717b	581343	4	main	z	35	square	global	LVF	yes	present	1	638
5ec59e86c9569f5e8000717b	582719	4	main	z	36	circle	global	RVF	yes	present	1	463
5ec59e86c9569f5e8000717b	584094	4	main	z	37	square	global	RVF	yes	present	1	456
5ec59e86c9569f5e8000717b	585347	4	main	z	38	circle	local	LVF	yes	present	1	441
5ec59e86c9569f5e8000717b	586590	4	main	z	39	circle	local	LVF	yes	present	1	452
5ec59e86c9569f5e8000717b	587941	4	main	z	40	square	local	RVF	yes	present	1	520
5ec59e86c9569f5e8000717b	589623	4	main	z	41	square	local	LVF	yes	present	1	852
5ec59e86c9569f5e8000717b	591131	4	main	z	42	square	global	RVF	yes	present	1	593
5ec59e86c9569f5e8000717b	592514	4	main	z	43	absent	absent	absent	no	present	0	559
5ec59e86c9569f5e8000717b	594223	4	main	z	44	circle	global	RVF	yes	present	1	602
5ec59e86c9569f5e8000717b	595702	4	main	z	45	circle	global	RVF	yes	present	1	630
5ec59e86c9569f5e8000717b	598089	4	main	z	46	square	local	LVF	yes	present	1	1634
5ec59e86c9569f5e8000717b	600192	4	main	z	47	square	global	LVF	yes	present	1	737
5ec59e86c9569f5e8000717b	601993	4	main	z	48	circle	local	LVF	yes	present	1	970
5ec59e86c9569f5e8000717b	604107	4	main	z	49	circle	local	LVF	yes	present	1	585
5ec59e86c9569f5e8000717b	607022	4	main	z	50	absent	absent	absent	no	absent	1	2000
5ec59e86c9569f5e8000717b	609143	4	main	z	51	square	local	LVF	yes	present	1	539
5ec59e86c9569f5e8000717b	610790	4	main	z	52	square	local	RVF	yes	present	1	819
5ec59e86c9569f5e8000717b	613721	4	main	z	53	absent	absent	absent	no	absent	1	2000
5ec59e86c9569f5e8000717b	617157	4	main	z	54	circle	global	LVF	yes	present	1	508
5ec59e86c9569f5e8000717b	618426	4	main	z	55	square	global	RVF	yes	present	1	488
5ec59e86c9569f5e8000717b	619702	4	main	z	56	square	global	RVF	yes	present	1	497
5ec59e86c9569f5e8000717b	622504	4	main	z	57	absent	absent	absent	no	absent	1	2000
5ec59e86c9569f5e8000717b	624386	4	main	z	58	circle	local	LVF	yes	present	1	548
5ec59e86c9569f5e8000717b	625887	4	main	z	59	square	local	RVF	yes	present	1	683
5ec59e86c9569f5e8000717b	627353	4	main	z	60	square	local	RVF	yes	present	1	682
5ec59e86c9569f5e8000717b	628764	4	main	z	61	circle	local	RVF	yes	present	1	592
5ec59e86c9569f5e8000717b	630111	4	main	z	62	square	local	RVF	yes	present	1	590
5ec59e86c9569f5e8000717b	631414	4	main	z	63	circle	local	RVF	yes	present	1	527
5ec59e86c9569f5e8000717b	632841	4	main	z	64	circle	global	LVF	yes	present	1	620
5ec59e86c9569f5e8000717b	635621	4	main	z	65	absent	absent	absent	no	absent	1	2000
5ec59e86c9569f5e8000717b	639238	4	main	z	66	absent	absent	absent	no	absent	1	2000
5ec59e86c9569f5e8000717b	641038	4	main	z	67	square	global	LVF	yes	present	1	584
5ec59e86c9569f5e8000717b	643854	4	main	z	68	absent	absent	absent	no	absent	1	2000
5ec59e86c9569f5e8000717b	645620	4	main	z	69	circle	global	RVF	yes	present	1	565
5ec59e86c9569f5e8000717b	647025	4	main	z	70	circle	global	LVF	yes	present	1	538
5ec59e86c9569f5e8000717b	649838	4	main	z	71	absent	absent	absent	no	absent	1	2000
5ec59e86c9569f5e8000717b	651339	4	main	z	72	circle	global	RVF	yes	present	1	484
5ec59e86c9569f5e8000717b	652689	4	main	z	73	square	global	LVF	yes	present	1	514
5ec59e86c9569f5e8000717b	654041	4	main	z	74	circle	global	LVF	yes	present	1	537
5ec59e86c9569f5e8000717b	655334	4	main	z	75	square	global	LVF	yes	present	1	480
5ec59e86c9569f5e8000717b	656719	4	main	z	76	circle	local	RVF	yes	present	1	564
5ec59e86c9569f5e8000717b	658095	4	main	z	77	circle	local	RVF	yes	present	1	540
5ec59e86c9569f5e8000717b	659373	4	main	z	78	circle	local	LVF	yes	present	1	500
5ec59e86c9569f5e8000717b	660656	4	main	z	79	square	local	LVF	yes	present	1	468
5ec59e86c9569f5e8000717b	661916	4	main	z	80	square	global	RVF	yes	present	1	395
