subject	time_elapsed_ms	blocknum	block_type	block_response	trialnum	target	level	field	target_present	response	correct	rt
61fa92f15719bc09cb834b86	71779	1	practice	slash	1	circle	local	RVF	yes	present	1	1442
61fa92f15719bc09cb834b86	76977	1	practice	slash	2	circle	local	RVF	yes	present	1	1532
61fa92f15719bc09cb834b86	79999	1	practice	slash	3	square	local	LVF	yes	present	1	990
61fa92f15719bc09cb834b86	83083	1	practice	slash	4	square	global	LVF	yes	present	1	1026
61fa92f15719bc09cb834b86	86077	1	practice	slash	5	circle	global	LVF	yes	present	1	986
61fa92f15719bc09cb834b86	89242	1	practice	slash	6	absent	absent	absent	no	present	0	1128
61fa92f15719bc09cb834b86	91059	1	practice	slash	7	square	global	LVF	yes	present	1	80
61fa92f15719bc09cb834b86	92861	1	practice	slash	8	square	global	RVF	yes	present	1	17
61fa92f15719bc09cb834b86	94900	1	practice	slash	9	absent	absent	absent	no	present	0	291
61fa92f15719bc09cb834b86	96691	1	practice	slash	10	absent	absent	absent	no	present	0	56
61fa92f15719bc09cb834b86	98668	1	practice	slash	11	circle	local	RVF	yes	present	1	258
61fa92f15719bc09cb834b86	100571	1	practice	slash	12	circle	global	RVF	yes	present	1	137
61fa92f15719bc09cb834b86	102468	1	practice	slash	13	circle	global	RVF	yes	present	1	187
61fa92f15719bc09cb834b86	104322	1	practice	slash	14	absent	absent	absent	no	present	0	128
61fa92f15719bc09cb834b86	108039	1	practice	slash	15	square	local	LVF	yes	absent	0	2000
61fa92f15719bc09cb834b86	110360	1	practice	slash	16	circle	global	LVF	yes	present	1	292
61fa92f15719bc09cb834b86	112897	2	main	slash	1	circle	local	LVF	yes	present	1	364
61fa92f15719bc09cb834b86	114376	2	main	slash	2	circle	local	RVF	yes	present	1	232
61fa92f15719bc09cb834b86	116153	2	main	slash	3	square	local	RVF	yes	present	1	659
61fa92f15719bc09cb834b86	117483	2	main	slash	4	circle	global	RVF	yes	present	1	308
61fa92f15719bc09cb834b86	121689	2	main	slash	5	square	global	LVF	yes	present	1	873
61fa92f15719bc09cb834b86	125124	2	main	slash	6	absent	absent	absent	no	absent	1	2000
61fa92f15719bc09cb834b86	128432	2	main	slash	7	square	local	RVF	yes	absent	0	2000
61fa92f15719bc09cb834b86	130578	2	main	slash	8	square	global	LVF	yes	present	1	864
61fa92f15719bc09cb834b86	131865	2	main	slash	9	square	global	RVF	yes	present	1	71
61fa92f15719bc09cb834b86	132819	2	main	slash	10	circle	local	LVF	yes	present	1	132
61fa92f15719bc09cb834b86	133809	2	main	slash	11	absent	absent	absent	no	present	0	166
61fa92f15719bc09cb834b86	134849	2	main	slash	12	square	global	RVF	yes	present	1	214
61fa92f15719bc09cb834b86	136109	2	main	slash	13	square	global	LVF	yes	present	1	393
61fa92f15719bc09cb834b86	137314	2	main	slash	14	square	local	RVF	yes	present	1	296
61fa92f15719bc09cb834b86	138346	2	main	slash	15	circle	global	RVF	yes	present	1	244
61fa92f15719bc09cb834b86	139417	2	main	slash	16	square	global	RVF	yes	present	1	221
61fa92f15719bc09cb834b86	140673	2	main	slash	17	circle	local	RVF	yes	present	1	308
61fa92f15719bc09cb834b86	141631	2	main	slash	18	circle	global	LVF	yes	present	1	294
61fa92f15719bc09cb834b86	143132	2	main	slash	19	absent	absent	absent	no	present	0	363
61fa92f15719bc09cb834b86	146133	2	main	slash	20	square	local	RVF	yes	absent	0	2000
61fa92f15719bc09cb834b86	149107	2	main	slash	21	absent	absent	absent	no	absent	1	2000
61fa92f15719bc09cb834b86	152014	2	main	slash	22	square	local	LVF	yes	absent	0	2000
61fa92f15719bc09cb834b86	154758	2	main	slash	23	circle	local	LVF	yes	absent	0	2000
61fa92f15719bc09cb834b86	157631	2	main	slash	24	absent	absent	absent	no	absent	1	2000
61fa92f15719bc09cb834b86	160297	2	main	slash	25	square	global	LVF	yes	absent	0	2000
61fa92f15719bc09cb834b86	162978	2	main	slash	26	absent	absent	absent	no	absent	1	2000
61fa92f15719bc09cb834b86	166059	2	main	slash	27	circle	local	RVF	yes	absent	0	2000
61fa92f15719bc09cb834b86	169047	2	main	slash	28	circle	local	LVF	yes	absent	0	2000
61fa92f15719bc09cb834b86	173999	2	main	slash	29	square	local	LVF	yes	absent	0	2000
61fa92f15719bc09cb834b86	177358	2	main	slash	30	square	local	LVF	yes	absent	0	2000
61fa92f15719bc09cb834b86	181398	2	main	slash	31	square	local	LVF	yes	absent	0	2000
61fa92f15719bc09cb834b86	184733	2	main	slash	32	circle	local	RVF	yes	absent	0	2000
61fa92f15719bc09cb834b86	187649	2	main	slash	33	absent	absent	absent	no	absent	1	2000
61fa92f15719bc09cb834b86	190510	2	main	slash	34	square	global	RVF	yes	absent	0	2000
61fa92f15719bc09cb834b86	193176	2	main	slash	35	circle	global	LVF	yes	absent	0	2000
61fa92f15719bc09cb834b86	195867	2	main	slash	36	absent	absent	absent	no	absent	1	2000
61fa92f15719bc09cb834b86	198548	2	main	slash	37	circle	global	RVF	yes	absent	0	2000
61fa92f15719bc09cb834b86	201692	2	main	slash	38	circle	global	LVF	yes	absent	0	2000
61fa92f15719bc09cb834b86	204487	2	main	slash	39	circle	global	LVF	yes	absent	0	2000
61fa92f15719bc09cb834b86	207248	2	main	slash	40	circle	global	RVF	yes	absent	0	2000
61fa92f15719bc09cb834b86	210493	2	main	slash	41	square	global	RVF	yes	absent	0	2000
61fa92f15719bc09cb834b86	213666	2	main	slash	42	square	local	RVF	yes	absent	0	2000
61fa92f15719bc09cb834b86	216718	2	main	slash	43	circle	global	LVF	yes	absent	0	2000
61fa92f15719bc09cb834b86	220493	2	main	slash	44	circle	global	LVF	yes	absent	0	2000
61fa92f15719bc09cb834b86	223592	2	main	slash	45	circle	local	RVF	yes	absent	0	2000
61fa92f15719bc09cb834b86	226682	2	main	slash	46	circle	local	LVF	yes	absent	0	2000
61fa92f15719bc09cb834b86	229701	2	main	slash	47	absent	absent	absent	no	absent	1	2000
61fa92f15719bc09cb834b86	232804	2	main	slash	48	square	global	RVF	yes	absent	0	2000
61fa92f15719bc09cb834b86	235512	2	main	slash	49	absent	absent	absent	no	absent	1	2000
61fa92f15719bc09cb834b86	238177	2	main	slash	50	square	local	LVF	yes	absent	0	2000
61fa92f15719bc09cb834b86	240939	2	main	slash	51	circle	local	RVF	yes	absent	0	2000
61fa92f15719bc09cb834b86	243915	2	main	slash	52	square	global	LVF	yes	absent	0	2000
61fa92f15719bc09cb834b86	246792	2	main	slash	53	circle	global	RVF	yes	absent	0	2000
61fa92f15719bc09cb834b86	249730	2	main	slash	54	square	local	RVF	yes	absent	0	2000
61fa92f15719bc09cb834b86	252491	2	main	slash	55	absent	absent	absent	no	absent	1	2000
61fa92f15719bc09cb834b86	255525	2	main	slash	56	square	local	LVF	yes	absent	0	2000
61fa92f15719bc09cb834b86	258360	2	main	slash	57	square	global	LVF	yes	absent	0	2000
61fa92f15719bc09cb834b86	261904	2	main	slash	58	square	global	LVF	yes	absent	0	2000
61fa92f15719bc09cb834b86	264763	2	main	slash	59	circle	local	LVF	yes	absent	0	2000
61fa92f15719bc09cb834b86	268124	2	main	slash	60	square	global	RVF	yes	absent	0	2000
61fa92f15719bc09cb834b86	271099	2	main	slash	61	square	local	LVF	yes	absent	0	2000
61fa92f15719bc09cb834b86	274273	2	main	slash	62	absent	absent	absent	no	absent	1	2000
61fa92f15719bc09cb834b86	277141	2	main	slash	63	square	local	RVF	yes	absent	0	2000
61fa92f15719bc09cb834b86	279822	2	main	slash	64	square	global	LVF	yes	absent	0	2000
61fa92f15719bc09cb834b86	282650	2	main	slash	65	circle	local	RVF	yes	absent	0	2000
61fa92f15719bc09cb834b86	285344	2	main	slash	66	absent	absent	absent	no	absent	1	2000
61fa92f15719bc09cb834b86	288291	2	main	slash	67	circle	global	RVF	yes	absent	0	2000
61fa92f15719bc09cb834b86	291226	2	main	slash	68	circle	local	RVF	yes	absent	0	2000
61fa92f15719bc09cb834b86	293961	2	main	slash	69	square	local	LVF	yes	absent	0	2000
61fa92f15719bc09cb834b86	296790	2	main	slash	70	absent	absent	absent	no	absent	1	2000
61fa92f15719bc09cb834b86	300336	2	main	slash	71	circle	global	LVF	yes	absent	0	2000
61fa92f15719bc09cb834b86	303591	2	main	slash	72	square	global	RVF	yes	absent	0	2000
61fa92f15719bc09cb834b86	305467	2	main	slash	73	circle	global	RVF	yes	present	1	833
61fa92f15719bc09cb834b86	308741	2	main	slash	74	circle	global	LVF	yes	absent	0	2000
61fa92f15719bc09cb834b86	311869	2	main	slash	75	circle	local	LVF	yes	absent	0	2000
61fa92f15719bc09cb834b86	315141	2	main	slash	76	square	local	RVF	yes	absent	0	2000
61fa92f15719bc09cb834b86	319078	2	main	slash	77	absent	absent	absent	no	absent	1	2000
61fa92f15719bc09cb834b86	321876	2	main	slash	78	circle	global	RVF	yes	present	1	795
61fa92f15719bc09cb834b86	325883	2	main	slash	79	circle	local	LVF	yes	absent	0	2000
61fa92f15719bc09cb834b86	329348	2	main	slash	80	absent	absent	absent	no	absent	1	2000
61fa92f15719bc09cb834b86	352958	3	practice	z	1	circle	global	RVF	yes	present	1	788
61fa92f15719bc09cb834b86	357091	3	practice	z	2	absent	absent	absent	no	absent	1	2000
61fa92f15719bc09cb834b86	360972	3	practice	z	3	square	local	LVF	yes	absent	0	2000
61fa92f15719bc09cb834b86	367066	3	practice	z	4	circle	global	RVF	yes	present	1	1198
61fa92f15719bc09cb834b86	371490	3	practice	z	5	absent	absent	absent	no	absent	1	2000
61fa92f15719bc09cb834b86	374777	3	practice	z	6	circle	global	LVF	yes	present	1	914
61fa92f15719bc09cb834b86	376994	3	practice	z	7	square	global	LVF	yes	present	1	20
61fa92f15719bc09cb834b86	379402	3	practice	z	8	square	local	LVF	yes	present	1	523
61fa92f15719bc09cb834b86	381334	3	practice	z	9	circle	global	LVF	yes	present	1	88
61fa92f15719bc09cb834b86	383151	3	practice	z	10	circle	local	RVF	yes	present	1	102
61fa92f15719bc09cb834b86	385601	3	practice	z	11	circle	local	RVF	yes	present	1	117
61fa92f15719bc09cb834b86	387509	3	practice	z	12	circle	local	RVF	yes	present	1	187
61fa92f15719bc09cb834b86	389797	3	practice	z	13	square	global	RVF	yes	present	1	247
61fa92f15719bc09cb834b86	391837	3	practice	z	14	absent	absent	absent	no	present	0	81
61fa92f15719bc09cb834b86	395671	3	practice	z	15	absent	absent	absent	no	absent	1	2000
61fa92f15719bc09cb834b86	398898	3	practice	z	16	square	global	LVF	yes	present	1	644
61fa92f15719bc09cb834b86	403594	4	main	z	1	square	local	RVF	yes	present	1	5
61fa92f15719bc09cb834b86	404582	4	main	z	2	square	local	LVF	yes	present	1	97
61fa92f15719bc09cb834b86	405315	4	main	z	3	circle	global	LVF	yes	present	1	44
61fa92f15719bc09cb834b86	406113	4	main	z	4	square	local	LVF	yes	present	1	97
61fa92f15719bc09cb834b86	406905	4	main	z	5	square	global	LVF	yes	present	1	59
61fa92f15719bc09cb834b86	407686	4	main	z	6	absent	absent	absent	no	present	0	96
61fa92f15719bc09cb834b86	408516	4	main	z	7	absent	absent	absent	no	present	0	136
61fa92f15719bc09cb834b86	409618	4	main	z	8	circle	global	RVF	yes	present	1	173
61fa92f15719bc09cb834b86	412430	4	main	z	9	square	global	LVF	yes	absent	0	2000
61fa92f15719bc09cb834b86	415188	4	main	z	10	circle	local	LVF	yes	absent	0	2000
61fa92f15719bc09cb834b86	418099	4	main	z	11	absent	absent	absent	no	absent	1	2000
61fa92f15719bc09cb834b86	420849	4	main	z	12	circle	global	LVF	yes	absent	0	2000
61fa92f15719bc09cb834b86	424449	4	main	z	13	circle	local	LVF	yes	absent	0	2000
61fa92f15719bc09cb834b86	427223	4	main	z	14	circle	global	LVF	yes	absent	0	2000
61fa92f15719bc09cb834b86	430024	4	main	z	15	absent	absent	absent	no	absent	1	2000
61fa92f15719bc09cb834b86	432734	4	main	z	16	circle	global	RVF	yes	absent	0	2000
61fa92f15719bc09cb834b86	434377	4	main	z	17	circle	local	RVF	yes	present	1	734
61fa92f15719bc09cb834b86	435699	4	main	z	18	square	local	LVF	yes	present	1	195
61fa92f15719bc09cb834b86	436809	4	main	z	19	square	global	LVF	yes	present	1	341
61fa92f15719bc09cb834b86	438065	4	main	z	20	circle	local	RVF	yes	present	1	477
61fa92f15719bc09cb834b86	438917	4	main	z	21	square	local	RVF	yes	present	1	34
61fa92f15719bc09cb834b86	439875	4	main	z	22	circle	global	RVF	yes	present	1	187
61fa92f15719bc09cb834b86	441073	4	main	z	23	absent	absent	absent	no	present	0	364
61fa92f15719bc09cb834b86	442274	4	main	z	24	square	global	RVF	yes	present	1	390
61fa92f15719bc09cb834b86	443434	4	main	z	25	circle	global	RVF	yes	present	1	426
61fa92f15719bc09cb834b86	444889	4	main	z	26	absent	absent	absent	no	present	0	445
61fa92f15719bc09cb834b86	445825	4	main	z	27	circle	local	RVF	yes	present	1	7
61fa92f15719bc09cb834b86	447449	4	main	z	28	absent	absent	absent	no	present	0	337
61fa92f15719bc09cb834b86	448625	4	main	z	29	square	global	RVF	yes	present	1	526
61fa92f15719bc09cb834b86	450041	4	main	z	30	square	global	LVF	yes	present	1	475
61fa92f15719bc09cb834b86	453620	4	main	z	31	circle	local	LVF	yes	absent	0	2000
61fa92f15719bc09cb834b86	455572	4	main	z	32	circle	local	RVF	yes	present	1	658
61fa92f15719bc09cb834b86	457168	4	main	z	33	absent	absent	absent	no	present	0	636
61fa92f15719bc09cb834b86	458186	4	main	z	34	square	local	RVF	yes	present	1	5
61fa92f15719bc09cb834b86	460834	4	main	z	35	square	global	RVF	yes	present	1	1497
61fa92f15719bc09cb834b86	462203	4	main	z	36	square	global	RVF	yes	present	1	108
61fa92f15719bc09cb834b86	464049	4	main	z	37	square	local	RVF	yes	present	1	478
61fa92f15719bc09cb834b86	466681	4	main	z	38	square	local	LVF	yes	present	1	708
61fa92f15719bc09cb834b86	467707	4	main	z	39	circle	global	LVF	yes	present	1	243
61fa92f15719bc09cb834b86	469689	4	main	z	40	circle	local	LVF	yes	present	1	606
61fa92f15719bc09cb834b86	470759	4	main	z	41	circle	local	LVF	yes	present	1	208
61fa92f15719bc09cb834b86	473513	4	main	z	42	circle	local	RVF	yes	present	1	979
61fa92f15719bc09cb834b86	474801	4	main	z	43	circle	local	RVF	yes	present	1	391
61fa92f15719bc09cb834b86	476930	4	main	z	44	absent	absent	absent	no	present	0	1194
61fa92f15719bc09cb834b86	478713	4	main	z	45	square	global	LVF	yes	present	1	257
61fa92f15719bc09cb834b86	480098	4	main	z	46	circle	global	RVF	yes	present	1	41
61fa92f15719bc09cb834b86	481218	4	main	z	47	absent	absent	absent	no	present	0	254
61fa92f15719bc09cb834b86	482201	4	main	z	48	square	global	RVF	yes	present	1	143
61fa92f15719bc09cb834b86	483457	4	main	z	49	square	local	RVF	yes	present	1	292
61fa92f15719bc09cb834b86	484833	4	main	z	50	circle	global	LVF	yes	present	1	601
61fa92f15719bc09cb834b86	485839	4	main	z	51	circle	global	RVF	yes	present	1	152
61fa92f15719bc09cb834b86	486943	4	main	z	52	absent	absent	absent	no	present	0	248
61fa92f15719bc09cb834b86	488057	4	main	z	53	circle	local	RVF	yes	present	1	256
61fa92f15719bc09cb834b86	491166	4	main	z	54	square	local	RVF	yes	present	1	1559
61fa92f15719bc09cb834b86	491994	4	main	z	55	square	local	LVF	yes	present	1	141
61fa92f15719bc09cb834b86	493048	4	main	z	56	square	global	RVF	yes	present	1	318
61fa92f15719bc09cb834b86	494117	4	main	z	57	square	global	LVF	yes	present	1	386
61fa92f15719bc09cb834b86	495427	4	main	z	58	square	global	LVF	yes	present	1	442
61fa92f15719bc09cb834b86	497066	4	main	z	59	absent	absent	absent	no	present	0	735
61fa92f15719bc09cb834b86	498177	4	main	z	60	circle	global	RVF	yes	present	1	246
61fa92f15719bc09cb834b86	499498	4	main	z	61	circle	local	LVF	yes	present	1	277
61fa92f15719bc09cb834b86	500553	4	main	z	62	circle	global	LVF	yes	present	1	248
61fa92f15719bc09cb834b86	501940	4	main	z	63	circle	local	LVF	yes	present	1	78
61fa92f15719bc09cb834b86	503644	4	main	z	64	square	local	LVF	yes	present	1	496
61fa92f15719bc09cb834b86	505736	4	main	z	65	circle	global	RVF	yes	present	1	214
61fa92f15719bc09cb834b86	506816	4	main	z	66	absent	absent	absent	no	present	0	414
61fa92f15719bc09cb834b86	508059	4	main	z	67	square	global	RVF	yes	present	1	346
61fa92f15719bc09cb834b86	509068	4	main	z	68	circle	local	RVF	yes	present	1	122
61fa92f15719bc09cb834b86	510017	4	main	z	69	circle	global	LVF	yes	present	1	7
61fa92f15719bc09cb834b86	511677	4	main	z	70	square	local	RVF	yes	present	1	903
61fa92f15719bc09cb834b86	513434	4	main	z	71	square	local	RVF	yes	present	1	820
61fa92f15719bc09cb834b86	514630	4	main	z	72	square	local	LVF	yes	present	1	304
61fa92f15719bc09cb834b86	516466	4	main	z	73	absent	absent	absent	no	present	0	720
61fa92f15719bc09cb834b86	517753	4	main	z	74	circle	global	LVF	yes	present	1	536
61fa92f15719bc09cb834b86	520777	4	main	z	75	absent	absent	absent	no	absent	1	2000
61fa92f15719bc09cb834b86	521910	4	main	z	76	square	global	RVF	yes	present	1	344
61fa92f15719bc09cb834b86	523114	4	main	z	77	circle	local	LVF	yes	present	1	347
61fa92f15719bc09cb834b86	524684	4	main	z	78	square	local	LVF	yes	present	1	662
61fa92f15719bc09cb834b86	528609	4	main	z	79	square	global	LVF	yes	present	1	1586
61fa92f15719bc09cb834b86	529916	4	main	z	80	absent	absent	absent	no	present	0	345
