subject	time_elapsed_ms	blocknum	block_type	block_response	trialnum	target	level	field	target_present	response	correct	rt
62b45d115e44957543b4cabc	153397	1	practice	slash	1	circle	global	RVF	yes	absent	0	2000
62b45d115e44957543b4cabc	158644	1	practice	slash	2	absent	absent	absent	no	present	0	356
62b45d115e44957543b4cabc	162040	1	practice	slash	3	square	global	LVF	yes	present	1	937
62b45d115e44957543b4cabc	166432	1	practice	slash	4	square	local	LVF	yes	absent	0	2000
62b45d115e44957543b4cabc	169012	1	practice	slash	5	circle	global	RVF	yes	present	1	419
62b45d115e44957543b4cabc	174489	1	practice	slash	6	absent	absent	absent	no	absent	1	2000
62b45d115e44957543b4cabc	177507	1	practice	slash	7	circle	local	RVF	yes	present	1	473
62b45d115e44957543b4cabc	182485	1	practice	slash	8	circle	global	LVF	yes	present	1	640
62b45d115e44957543b4cabc	185737	1	practice	slash	9	circle	local	RVF	yes	present	1	479
62b45d115e44957543b4cabc	188706	1	practice	slash	10	square	global	RVF	yes	present	1	783
62b45d115e44957543b4cabc	192786	1	practice	slash	11	absent	absent	absent	no	absent	1	2000
62b45d115e44957543b4cabc	196914	1	practice	slash	12	square	local	LVF	yes	absent	0	2000
62b45d115e44957543b4cabc	199701	1	practice	slash	13	circle	local	RVF	yes	present	1	758
62b45d115e44957543b4cabc	202433	1	practice	slash	14	circle	global	LVF	yes	present	1	708
62b45d115e44957543b4cabc	206438	1	practice	slash	15	absent	absent	absent	no	absent	1	2000
62b45d115e44957543b4cabc	209287	1	practice	slash	16	square	global	LVF	yes	present	1	803
62b45d115e44957543b4cabc	223676	2	main	slash	1	circle	local	RVF	yes	present	1	994
62b45d115e44957543b4cabc	228145	2	main	slash	2	square	local	RVF	yes	absent	0	2000
62b45d115e44957543b4cabc	230572	2	main	slash	3	square	local	LVF	yes	present	1	697
62b45d115e44957543b4cabc	233076	2	main	slash	4	circle	global	RVF	yes	present	1	705
62b45d115e44957543b4cabc	236552	2	main	slash	5	absent	absent	absent	no	absent	1	2000
62b45d115e44957543b4cabc	239749	2	main	slash	6	absent	absent	absent	no	absent	1	2000
62b45d115e44957543b4cabc	242215	2	main	slash	7	square	global	LVF	yes	present	1	954
62b45d115e44957543b4cabc	244963	2	main	slash	8	square	global	RVF	yes	present	1	738
62b45d115e44957543b4cabc	247028	2	main	slash	9	square	global	LVF	yes	present	1	572
62b45d115e44957543b4cabc	250254	2	main	slash	10	absent	absent	absent	no	absent	1	2000
62b45d115e44957543b4cabc	251836	2	main	slash	11	circle	global	LVF	yes	present	1	419
62b45d115e44957543b4cabc	255282	2	main	slash	12	absent	absent	absent	no	absent	1	2000
62b45d115e44957543b4cabc	256864	2	main	slash	13	square	global	LVF	yes	present	1	453
62b45d115e44957543b4cabc	260193	2	main	slash	14	absent	absent	absent	no	absent	1	2000
62b45d115e44957543b4cabc	261563	2	main	slash	15	circle	local	LVF	yes	present	1	324
62b45d115e44957543b4cabc	263659	2	main	slash	16	square	local	LVF	yes	present	1	738
62b45d115e44957543b4cabc	265332	2	main	slash	17	circle	global	LVF	yes	present	1	530
62b45d115e44957543b4cabc	267012	2	main	slash	18	square	local	RVF	yes	present	1	596
62b45d115e44957543b4cabc	268802	2	main	slash	19	circle	local	RVF	yes	present	1	737
62b45d115e44957543b4cabc	271797	2	main	slash	20	absent	absent	absent	no	absent	1	2000
62b45d115e44957543b4cabc	274943	2	main	slash	21	absent	absent	absent	no	absent	1	2000
62b45d115e44957543b4cabc	276637	2	main	slash	22	square	local	RVF	yes	present	1	614
62b45d115e44957543b4cabc	278892	2	main	slash	23	square	local	RVF	yes	present	1	538
62b45d115e44957543b4cabc	280479	2	main	slash	24	circle	local	LVF	yes	present	1	527
62b45d115e44957543b4cabc	283567	2	main	slash	25	square	global	LVF	yes	absent	0	2000
62b45d115e44957543b4cabc	285322	2	main	slash	26	circle	local	RVF	yes	present	1	492
62b45d115e44957543b4cabc	286886	2	main	slash	27	square	local	LVF	yes	present	1	392
62b45d115e44957543b4cabc	289943	2	main	slash	28	square	global	RVF	yes	absent	0	2000
62b45d115e44957543b4cabc	291640	2	main	slash	29	circle	global	LVF	yes	present	1	383
62b45d115e44957543b4cabc	293304	2	main	slash	30	circle	global	RVF	yes	present	1	416
62b45d115e44957543b4cabc	294951	2	main	slash	31	square	local	LVF	yes	present	1	565
62b45d115e44957543b4cabc	297214	2	main	slash	32	square	global	RVF	yes	present	1	1180
62b45d115e44957543b4cabc	300299	2	main	slash	33	absent	absent	absent	no	absent	1	2000
62b45d115e44957543b4cabc	301641	2	main	slash	34	circle	local	LVF	yes	present	1	329
62b45d115e44957543b4cabc	303157	2	main	slash	35	square	global	RVF	yes	present	1	380
62b45d115e44957543b4cabc	306325	2	main	slash	36	circle	local	LVF	yes	absent	0	2000
62b45d115e44957543b4cabc	308021	2	main	slash	37	circle	global	LVF	yes	present	1	383
62b45d115e44957543b4cabc	309388	2	main	slash	38	circle	global	RVF	yes	present	1	401
62b45d115e44957543b4cabc	311482	2	main	slash	39	circle	local	RVF	yes	present	1	1080
62b45d115e44957543b4cabc	313656	2	main	slash	40	circle	global	RVF	yes	present	1	1090
62b45d115e44957543b4cabc	317463	2	main	slash	41	absent	absent	absent	no	absent	1	2000
62b45d115e44957543b4cabc	320594	2	main	slash	42	absent	absent	absent	no	absent	1	2000
62b45d115e44957543b4cabc	321961	2	main	slash	43	circle	global	LVF	yes	present	1	421
62b45d115e44957543b4cabc	324971	2	main	slash	44	absent	absent	absent	no	absent	1	2000
62b45d115e44957543b4cabc	326503	2	main	slash	45	square	global	RVF	yes	present	1	418
62b45d115e44957543b4cabc	329633	2	main	slash	46	absent	absent	absent	no	absent	1	2000
62b45d115e44957543b4cabc	331017	2	main	slash	47	circle	local	LVF	yes	present	1	454
62b45d115e44957543b4cabc	332406	2	main	slash	48	circle	global	RVF	yes	present	1	378
62b45d115e44957543b4cabc	333828	2	main	slash	49	square	local	LVF	yes	present	1	418
62b45d115e44957543b4cabc	335306	2	main	slash	50	square	global	LVF	yes	present	1	547
62b45d115e44957543b4cabc	336704	2	main	slash	51	circle	local	RVF	yes	present	1	431
62b45d115e44957543b4cabc	338035	2	main	slash	52	square	global	LVF	yes	present	1	413
62b45d115e44957543b4cabc	339370	2	main	slash	53	circle	local	RVF	yes	present	1	383
62b45d115e44957543b4cabc	340665	2	main	slash	54	square	global	RVF	yes	present	1	412
62b45d115e44957543b4cabc	343551	2	main	slash	55	circle	local	LVF	yes	absent	0	2000
62b45d115e44957543b4cabc	345245	2	main	slash	56	square	local	LVF	yes	present	1	664
62b45d115e44957543b4cabc	348247	2	main	slash	57	absent	absent	absent	no	absent	1	2000
62b45d115e44957543b4cabc	350077	2	main	slash	58	square	global	LVF	yes	present	1	568
62b45d115e44957543b4cabc	353157	2	main	slash	59	absent	absent	absent	no	absent	1	2000
62b45d115e44957543b4cabc	354837	2	main	slash	60	square	local	LVF	yes	present	1	617
62b45d115e44957543b4cabc	356237	2	main	slash	61	circle	global	LVF	yes	present	1	402
62b45d115e44957543b4cabc	357686	2	main	slash	62	circle	global	LVF	yes	present	1	436
62b45d115e44957543b4cabc	359158	2	main	slash	63	square	local	LVF	yes	present	1	492
62b45d115e44957543b4cabc	360662	2	main	slash	64	square	local	RVF	yes	present	1	531
62b45d115e44957543b4cabc	362079	2	main	slash	65	square	local	RVF	yes	present	1	467
62b45d115e44957543b4cabc	363739	2	main	slash	66	square	global	LVF	yes	present	1	662
62b45d115e44957543b4cabc	366659	2	main	slash	67	absent	absent	absent	no	absent	1	2000
62b45d115e44957543b4cabc	368391	2	main	slash	68	square	local	RVF	yes	present	1	419
62b45d115e44957543b4cabc	369869	2	main	slash	69	absent	absent	absent	no	present	0	499
62b45d115e44957543b4cabc	371598	2	main	slash	70	circle	global	LVF	yes	present	1	462
62b45d115e44957543b4cabc	373051	2	main	slash	71	circle	local	RVF	yes	present	1	584
62b45d115e44957543b4cabc	374431	2	main	slash	72	circle	local	RVF	yes	present	1	433
62b45d115e44957543b4cabc	375768	2	main	slash	73	circle	local	LVF	yes	present	1	421
62b45d115e44957543b4cabc	377054	2	main	slash	74	circle	local	LVF	yes	present	1	391
62b45d115e44957543b4cabc	378378	2	main	slash	75	circle	global	RVF	yes	present	1	400
62b45d115e44957543b4cabc	379856	2	main	slash	76	square	global	RVF	yes	present	1	430
62b45d115e44957543b4cabc	381169	2	main	slash	77	square	local	RVF	yes	present	1	411
62b45d115e44957543b4cabc	382604	2	main	slash	78	circle	global	RVF	yes	present	1	464
62b45d115e44957543b4cabc	383844	2	main	slash	79	circle	global	RVF	yes	present	1	389
62b45d115e44957543b4cabc	385099	2	main	slash	80	square	global	RVF	yes	present	1	395
62b45d115e44957543b4cabc	421065	3	practice	z	1	square	global	LVF	yes	present	1	365
62b45d115e44957543b4cabc	423813	3	practice	z	2	circle	global	LVF	yes	present	1	299
62b45d115e44957543b4cabc	426275	3	practice	z	3	square	global	LVF	yes	present	1	348
62b45d115e44957543b4cabc	428682	3	practice	z	4	circle	global	LVF	yes	present	1	341
62b45d115e44957543b4cabc	432789	3	practice	z	5	absent	absent	absent	no	absent	1	2000
62b45d115e44957543b4cabc	435241	3	practice	z	6	circle	global	RVF	yes	present	1	373
62b45d115e44957543b4cabc	437782	3	practice	z	7	absent	absent	absent	no	present	0	434
62b45d115e44957543b4cabc	440430	3	practice	z	8	circle	local	RVF	yes	present	1	534
62b45d115e44957543b4cabc	444460	3	practice	z	9	absent	absent	absent	no	absent	1	2000
62b45d115e44957543b4cabc	447223	3	practice	z	10	square	global	RVF	yes	present	1	584
62b45d115e44957543b4cabc	449892	3	practice	z	11	circle	local	RVF	yes	present	1	474
62b45d115e44957543b4cabc	452353	3	practice	z	12	square	local	LVF	yes	present	1	420
62b45d115e44957543b4cabc	454823	3	practice	z	13	circle	local	RVF	yes	present	1	426
62b45d115e44957543b4cabc	457334	3	practice	z	14	square	local	LVF	yes	present	1	408
62b45d115e44957543b4cabc	459912	3	practice	z	15	circle	global	RVF	yes	present	1	454
62b45d115e44957543b4cabc	462620	3	practice	z	16	absent	absent	absent	no	present	0	633
62b45d115e44957543b4cabc	470334	4	main	z	1	square	local	RVF	yes	present	1	556
62b45d115e44957543b4cabc	472277	4	main	z	2	absent	absent	absent	no	present	0	552
62b45d115e44957543b4cabc	475856	4	main	z	3	absent	absent	absent	no	absent	1	2000
62b45d115e44957543b4cabc	477393	4	main	z	4	circle	global	LVF	yes	present	1	391
62b45d115e44957543b4cabc	479124	4	main	z	5	square	local	LVF	yes	present	1	574
62b45d115e44957543b4cabc	480802	4	main	z	6	circle	local	LVF	yes	present	1	1003
62b45d115e44957543b4cabc	483032	4	main	z	7	circle	local	RVF	yes	present	1	419
62b45d115e44957543b4cabc	485159	4	main	z	8	circle	local	LVF	yes	present	1	415
62b45d115e44957543b4cabc	486886	4	main	z	9	circle	local	LVF	yes	present	1	361
62b45d115e44957543b4cabc	489005	4	main	z	10	square	global	LVF	yes	present	1	349
62b45d115e44957543b4cabc	491096	4	main	z	11	square	local	LVF	yes	present	1	526
62b45d115e44957543b4cabc	492840	4	main	z	12	circle	global	RVF	yes	present	1	370
62b45d115e44957543b4cabc	494597	4	main	z	13	circle	global	LVF	yes	present	1	430
62b45d115e44957543b4cabc	496434	4	main	z	14	circle	global	RVF	yes	present	1	486
62b45d115e44957543b4cabc	498209	4	main	z	15	circle	global	LVF	yes	present	1	413
62b45d115e44957543b4cabc	499876	4	main	z	16	square	global	RVF	yes	present	1	365
62b45d115e44957543b4cabc	501402	4	main	z	17	square	global	LVF	yes	present	1	293
62b45d115e44957543b4cabc	503068	4	main	z	18	square	local	RVF	yes	present	1	411
62b45d115e44957543b4cabc	504863	4	main	z	19	square	local	LVF	yes	present	1	541
62b45d115e44957543b4cabc	506456	4	main	z	20	circle	global	LVF	yes	present	1	419
62b45d115e44957543b4cabc	509619	4	main	z	21	absent	absent	absent	no	absent	1	2000
62b45d115e44957543b4cabc	512931	4	main	z	22	absent	absent	absent	no	absent	1	2000
62b45d115e44957543b4cabc	514648	4	main	z	23	square	global	RVF	yes	present	1	603
62b45d115e44957543b4cabc	517145	4	main	z	24	square	local	RVF	yes	present	1	1386
62b45d115e44957543b4cabc	519058	4	main	z	25	square	local	RVF	yes	present	1	635
62b45d115e44957543b4cabc	520549	4	main	z	26	circle	local	LVF	yes	present	1	394
62b45d115e44957543b4cabc	522683	4	main	z	27	square	global	LVF	yes	present	1	980
62b45d115e44957543b4cabc	524285	4	main	z	28	circle	global	RVF	yes	present	1	418
62b45d115e44957543b4cabc	525979	4	main	z	29	square	local	LVF	yes	present	1	647
62b45d115e44957543b4cabc	527702	4	main	z	30	square	global	RVF	yes	present	1	503
62b45d115e44957543b4cabc	529160	4	main	z	31	absent	absent	absent	no	present	0	431
62b45d115e44957543b4cabc	531153	4	main	z	32	circle	local	RVF	yes	present	1	477
62b45d115e44957543b4cabc	534241	4	main	z	33	absent	absent	absent	no	absent	1	2000
62b45d115e44957543b4cabc	537438	4	main	z	34	absent	absent	absent	no	absent	1	2000
62b45d115e44957543b4cabc	539009	4	main	z	35	square	global	RVF	yes	present	1	408
62b45d115e44957543b4cabc	540625	4	main	z	36	square	global	LVF	yes	present	1	442
62b45d115e44957543b4cabc	542287	4	main	z	37	circle	local	RVF	yes	present	1	440
62b45d115e44957543b4cabc	543705	4	main	z	38	circle	global	RVF	yes	present	1	459
62b45d115e44957543b4cabc	546644	4	main	z	39	absent	absent	absent	no	absent	1	2000
62b45d115e44957543b4cabc	548240	4	main	z	40	circle	local	RVF	yes	present	1	383
62b45d115e44957543b4cabc	549962	4	main	z	41	square	local	LVF	yes	present	1	673
62b45d115e44957543b4cabc	551436	4	main	z	42	square	local	LVF	yes	present	1	482
62b45d115e44957543b4cabc	552765	4	main	z	43	circle	global	LVF	yes	present	1	379
62b45d115e44957543b4cabc	554135	4	main	z	44	circle	global	RVF	yes	present	1	435
62b45d115e44957543b4cabc	555649	4	main	z	45	square	local	RVF	yes	present	1	584
62b45d115e44957543b4cabc	557030	4	main	z	46	square	local	RVF	yes	present	1	417
62b45d115e44957543b4cabc	559317	4	main	z	47	square	global	RVF	yes	present	1	1371
62b45d115e44957543b4cabc	560865	4	main	z	48	circle	global	LVF	yes	present	1	754
62b45d115e44957543b4cabc	562288	4	main	z	49	circle	local	RVF	yes	present	1	596
62b45d115e44957543b4cabc	563748	4	main	z	50	square	global	LVF	yes	present	1	374
62b45d115e44957543b4cabc	566855	4	main	z	51	absent	absent	absent	no	absent	1	2000
62b45d115e44957543b4cabc	569199	4	main	z	52	square	local	LVF	yes	present	1	1080
62b45d115e44957543b4cabc	570827	4	main	z	53	circle	local	RVF	yes	present	1	411
62b45d115e44957543b4cabc	572475	4	main	z	54	circle	local	LVF	yes	present	1	444
62b45d115e44957543b4cabc	575513	4	main	z	55	absent	absent	absent	no	absent	1	2000
62b45d115e44957543b4cabc	577843	4	main	z	56	absent	absent	absent	no	present	0	1284
62b45d115e44957543b4cabc	579960	4	main	z	57	circle	global	RVF	yes	present	1	720
62b45d115e44957543b4cabc	582871	4	main	z	58	absent	absent	absent	no	absent	1	2000
62b45d115e44957543b4cabc	585735	4	main	z	59	absent	absent	absent	no	absent	1	2000
62b45d115e44957543b4cabc	587001	4	main	z	60	circle	local	LVF	yes	present	1	453
62b45d115e44957543b4cabc	588573	4	main	z	61	square	local	RVF	yes	present	1	644
62b45d115e44957543b4cabc	589872	4	main	z	62	circle	local	RVF	yes	present	1	377
62b45d115e44957543b4cabc	591291	4	main	z	63	circle	local	RVF	yes	present	1	497
62b45d115e44957543b4cabc	593543	4	main	z	64	square	global	RVF	yes	present	1	1368
62b45d115e44957543b4cabc	595407	4	main	z	65	circle	global	RVF	yes	present	1	601
62b45d115e44957543b4cabc	597073	4	main	z	66	square	global	LVF	yes	present	1	686
62b45d115e44957543b4cabc	598365	4	main	z	67	circle	local	LVF	yes	present	1	413
62b45d115e44957543b4cabc	599874	4	main	z	68	circle	global	RVF	yes	present	1	606
62b45d115e44957543b4cabc	601322	4	main	z	69	square	global	LVF	yes	present	1	539
62b45d115e44957543b4cabc	603081	4	main	z	70	square	local	LVF	yes	present	1	917
62b45d115e44957543b4cabc	605946	4	main	z	71	absent	absent	absent	no	absent	1	2000
62b45d115e44957543b4cabc	609176	4	main	z	72	absent	absent	absent	no	absent	1	2000
62b45d115e44957543b4cabc	610703	4	main	z	73	square	global	LVF	yes	present	1	414
62b45d115e44957543b4cabc	611948	4	main	z	74	square	global	RVF	yes	present	1	411
62b45d115e44957543b4cabc	613135	4	main	z	75	square	global	RVF	yes	present	1	382
62b45d115e44957543b4cabc	614416	4	main	z	76	circle	global	LVF	yes	present	1	448
62b45d115e44957543b4cabc	617217	4	main	z	77	absent	absent	absent	no	absent	1	2000
62b45d115e44957543b4cabc	619280	4	main	z	78	square	local	RVF	yes	present	1	917
62b45d115e44957543b4cabc	620524	4	main	z	79	circle	local	LVF	yes	present	1	446
62b45d115e44957543b4cabc	621728	4	main	z	80	circle	global	LVF	yes	present	1	418
