build	computer.platform	date	time	timestamp	time_elapsed_ms	subject	group	session	blockcode	blocknum	trialcode	trialnum	stimulus_left	stimulus_right	stim_index	target_present	response	correct	latency	headphonecheck_countTestTrials	headphonecheck_index	headphonecheck_testSound	headphonecheck_correctResponse	stereocheck_countTestTrials	stereocheck_index	stereocheck_testSound	stereocheck_correctResponse	DL_index	DL_soundfile	DL_leftSound	DL_rightSound	DL_dualSound	DL_choice
6.6.1	win	2023-07-09	08:49:48	0	0	5bb21a6ed14ec100019840fb	2	1	headphonecheck_calibration	4	headphonecheck_calibrationIntro	1			0		calibrationButton	0	2218	0	0			0	0			1				0	
6.6.1	win	2023-07-09	08:49:48	0	0	5bb21a6ed14ec100019840fb	2	1	headphonecheck_testphase	5	test_collectResponse	3			0		third	0	1127	1	1	antiphase_hc_iso.wav	2	0	0			1				0	
6.6.1	win	2023-07-09	08:49:48	0	0	5bb21a6ed14ec100019840fb	2	1	headphonecheck_testphase	5	test_collectResponse	6			0		first	0	1165	2	6	antiphase_hc_ois.wav	3	0	0			1				0	
6.6.1	win	2023-07-09	08:49:48	0	0	5bb21a6ed14ec100019840fb	2	1	headphonecheck_testphase	5	test_collectResponse	9			0		first	0	1213	3	5	antiphase_hc_osi.wav	2	0	0			1				0	
6.6.1	win	2023-07-09	08:49:48	0	0	5bb21a6ed14ec100019840fb	2	1	headphonecheck_testphase	5	test_collectResponse	12			0		second	0	269	4	3	antiphase_hc_soi.wav	1	0	0			1				0	
6.6.1	win	2023-07-09	08:49:48	0	0	5bb21a6ed14ec100019840fb	2	1	headphonecheck_testphase	5	test_collectResponse	15			0		second	0	636	5	2	antiphase_hc_ios.wav	3	0	0			1				0	
6.6.1	win	2023-07-09	08:49:48	0	0	5bb21a6ed14ec100019840fb	2	1	headphonecheck_testphase	5	test_collectResponse	18			0		third	0	551	6	4	antiphase_hc_sio.wav	1	0	0			1				0	
6.6.1	win	2023-07-09	08:49:48	0	0	5bb21a6ed14ec100019840fb	2	1	stereocheck_calibration	7	stereocheck_calibrationIntro	1			0		stereocheck_calibrationButton	0	5033	6	4	antiphase_hc_sio.wav	1	0	0			1				0	
6.6.1	win	2023-07-09	08:49:48	0	0	5bb21a6ed14ec100019840fb	2	1	stereocheck_testphase	8	stereocheck_test_collectResponse	3			0		stereocheck_left	0	221	6	4	antiphase_hc_sio.wav	1	1	6	noise_calib_stim_RIGHT.wav	2	1				0	
6.6.1	win	2023-07-09	08:49:48	0	0	5bb21a6ed14ec100019840fb	2	1	stereocheck_testphase	8	stereocheck_test_collectResponse	6			0		stereocheck_left	0	500	6	4	antiphase_hc_sio.wav	1	2	5	noise_calib_stim_RIGHT.wav	2	1				0	
6.6.1	win	2023-07-09	08:49:48	0	0	5bb21a6ed14ec100019840fb	2	1	stereocheck_testphase	8	stereocheck_test_collectResponse	9			0		stereocheck_right	0	89	6	4	antiphase_hc_sio.wav	1	3	1	noise_calib_stim_LEFT.wav	1	1				0	
6.6.1	win	2023-07-09	08:49:48	0	0	5bb21a6ed14ec100019840fb	2	1	stereocheck_testphase	8	stereocheck_test_collectResponse	12			0		stereocheck_right	1	229	6	4	antiphase_hc_sio.wav	1	4	4	noise_calib_stim_RIGHT.wav	2	1				0	
6.6.1	win	2023-07-09	08:49:48	0	0	5bb21a6ed14ec100019840fb	2	1	stereocheck_testphase	8	stereocheck_test_collectResponse	15			0		stereocheck_right	0	36	6	4	antiphase_hc_sio.wav	1	5	3	noise_calib_stim_LEFT.wav	1	1				0	
6.6.1	win	2023-07-09	08:49:48	0	0	5bb21a6ed14ec100019840fb	2	1	stereocheck_testphase	8	stereocheck_test_collectResponse	18			0		stereocheck_right	0	423	6	4	antiphase_hc_sio.wav	1	6	2	noise_calib_stim_LEFT.wav	1	1				0	
6.6.1	win	2023-07-09	08:49:48	0	0	5bb21a6ed14ec100019840fb	2	1	DL_practice	11	DL_practice	2			0		ka	1	1398	6	4	antiphase_hc_sio.wav	1	6	2	noise_calib_stim_LEFT.wav	1	23	blb_dichoticlistening_ka-pa.mp3	ka	pa	1	left
6.6.1	win	2023-07-09	08:49:48	0	0	5bb21a6ed14ec100019840fb	2	1	DL_practice	11	DL_practice	3			0		ta	1	1339	6	4	antiphase_hc_sio.wav	1	6	2	noise_calib_stim_LEFT.wav	1	36	blb_dichoticlistening_ta-ta.mp3	ta	ta	0	left
6.6.1	win	2023-07-09	08:49:48	0	0	5bb21a6ed14ec100019840fb	2	1	DL_practice	11	DL_practice	4			0		pa	1	1169	6	4	antiphase_hc_sio.wav	1	6	2	noise_calib_stim_LEFT.wav	1	29	blb_dichoticlistening_pa-pa.mp3	pa	pa	0	left
6.6.1	win	2023-07-09	08:49:48	0	0	5bb21a6ed14ec100019840fb	2	1	DL_practice	11	DL_practice	5			0		da	1	1240	6	4	antiphase_hc_sio.wav	1	6	2	noise_calib_stim_LEFT.wav	1	8	blb_dichoticlistening_da-da.mp3	da	da	0	left
6.6.1	win	2023-07-09	08:49:48	0	0	5bb21a6ed14ec100019840fb	2	1	DL_practice	11	DL_practice	6			0		ba	1	1313	6	4	antiphase_hc_sio.wav	1	6	2	noise_calib_stim_LEFT.wav	1	7	blb_dichoticlistening_da-ba.mp3	da	ba	1	right
6.6.1	win	2023-07-09	08:49:48	0	0	5bb21a6ed14ec100019840fb	2	1	DL_practice	11	DL_practice	7			0		ba	1	1434	6	4	antiphase_hc_sio.wav	1	6	2	noise_calib_stim_LEFT.wav	1	1	blb_dichoticlistening_ba-ba.mp3	ba	ba	0	left
6.6.1	win	2023-07-09	08:49:48	0	0	5bb21a6ed14ec100019840fb	2	1	DL_practice	11	DL_practice	8			0		ga	1	649	6	4	antiphase_hc_sio.wav	1	6	2	noise_calib_stim_LEFT.wav	1	18	blb_dichoticlistening_ga-ta.mp3	ga	ta	1	left
6.6.1	win	2023-07-09	08:49:48	0	0	5bb21a6ed14ec100019840fb	2	1	DL_practice	11	DL_practice	9			0		ga	1	1040	6	4	antiphase_hc_sio.wav	1	6	2	noise_calib_stim_LEFT.wav	1	15	blb_dichoticlistening_ga-ga.mp3	ga	ga	0	left
6.6.1	win	2023-07-09	08:49:48	0	0	5bb21a6ed14ec100019840fb	2	1	DL_practice	11	DL_practice	10			0		ka	1	1100	6	4	antiphase_hc_sio.wav	1	6	2	noise_calib_stim_LEFT.wav	1	22	blb_dichoticlistening_ka-ka.mp3	ka	ka	0	left
6.6.1	win	2023-07-09	08:49:48	0	0	5bb21a6ed14ec100019840fb	2	1	DL_test	13	DL_test	1			0		ba	1	2834	6	4	antiphase_hc_sio.wav	1	6	2	noise_calib_stim_LEFT.wav	1	6	blb_dichoticlistening_ba-ta.mp3	ba	ta	1	left
6.6.1	win	2023-07-09	08:49:48	0	0	5bb21a6ed14ec100019840fb	2	1	DL_test	13	DL_test	2			0		ka	1	2825	6	4	antiphase_hc_sio.wav	1	6	2	noise_calib_stim_LEFT.wav	1	34	blb_dichoticlistening_ta-ka.mp3	ta	ka	1	right
6.6.1	win	2023-07-09	08:49:48	0	0	5bb21a6ed14ec100019840fb	2	1	DL_test	13	DL_test	3			0		da	1	1475	6	4	antiphase_hc_sio.wav	1	6	2	noise_calib_stim_LEFT.wav	1	9	blb_dichoticlistening_da-ga.mp3	da	ga	1	left
6.6.1	win	2023-07-09	08:49:48	0	0	5bb21a6ed14ec100019840fb	2	1	DL_test	13	DL_test	4			0		ga	1	1947	6	4	antiphase_hc_sio.wav	1	6	2	noise_calib_stim_LEFT.wav	1	18	blb_dichoticlistening_ga-ta.mp3	ga	ta	1	left
6.6.1	win	2023-07-09	08:49:48	0	0	5bb21a6ed14ec100019840fb	2	1	DL_test	13	DL_test	5			0		ka	1	1137	6	4	antiphase_hc_sio.wav	1	6	2	noise_calib_stim_LEFT.wav	1	22	blb_dichoticlistening_ka-ka.mp3	ka	ka	0	left
6.6.1	win	2023-07-09	08:49:48	0	0	5bb21a6ed14ec100019840fb	2	1	DL_test	13	DL_test	6			0		ba	1	2115	6	4	antiphase_hc_sio.wav	1	6	2	noise_calib_stim_LEFT.wav	1	5	blb_dichoticlistening_ba-pa.mp3	ba	pa	1	left
6.6.1	win	2023-07-09	08:49:48	0	0	5bb21a6ed14ec100019840fb	2	1	DL_test	13	DL_test	7			0		ba	1	1388	6	4	antiphase_hc_sio.wav	1	6	2	noise_calib_stim_LEFT.wav	1	7	blb_dichoticlistening_da-ba.mp3	da	ba	1	right
6.6.1	win	2023-07-09	08:49:48	0	0	5bb21a6ed14ec100019840fb	2	1	DL_test	13	DL_test	8			0		ka	1	1365	6	4	antiphase_hc_sio.wav	1	6	2	noise_calib_stim_LEFT.wav	1	23	blb_dichoticlistening_ka-pa.mp3	ka	pa	1	left
6.6.1	win	2023-07-09	08:49:48	0	0	5bb21a6ed14ec100019840fb	2	1	DL_test	13	DL_test	9			0		ba	1	2591	6	4	antiphase_hc_sio.wav	1	6	2	noise_calib_stim_LEFT.wav	1	25	blb_dichoticlistening_pa-ba.mp3	pa	ba	1	right
6.6.1	win	2023-07-09	08:49:48	0	0	5bb21a6ed14ec100019840fb	2	1	DL_test	13	DL_test	10			0		da	1	984	6	4	antiphase_hc_sio.wav	1	6	2	noise_calib_stim_LEFT.wav	1	26	blb_dichoticlistening_pa-da.mp3	pa	da	1	right
6.6.1	win	2023-07-09	08:49:48	0	0	5bb21a6ed14ec100019840fb	2	1	DL_test	13	DL_test	11			0		pa	1	1713	6	4	antiphase_hc_sio.wav	1	6	2	noise_calib_stim_LEFT.wav	1	29	blb_dichoticlistening_pa-pa.mp3	pa	pa	0	left
6.6.1	win	2023-07-09	08:49:48	0	0	5bb21a6ed14ec100019840fb	2	1	DL_test	13	DL_test	12			0		ga	1	1234	6	4	antiphase_hc_sio.wav	1	6	2	noise_calib_stim_LEFT.wav	1	16	blb_dichoticlistening_ga-ka.mp3	ga	ka	1	left
6.6.1	win	2023-07-09	08:49:48	0	0	5bb21a6ed14ec100019840fb	2	1	DL_test	13	DL_test	13			0		ga	1	3523	6	4	antiphase_hc_sio.wav	1	6	2	noise_calib_stim_LEFT.wav	1	14	blb_dichoticlistening_ga-da.mp3	ga	da	1	left
6.6.1	win	2023-07-09	08:49:48	0	0	5bb21a6ed14ec100019840fb	2	1	DL_test	13	DL_test	14			0		ga	0	1133	6	4	antiphase_hc_sio.wav	1	6	2	noise_calib_stim_LEFT.wav	1	20	blb_dichoticlistening_ka-da.mp3	ka	da	1	other
6.6.1	win	2023-07-09	08:49:48	0	0	5bb21a6ed14ec100019840fb	2	1	DL_test	13	DL_test	15			0		ka	1	1056	6	4	antiphase_hc_sio.wav	1	6	2	noise_calib_stim_LEFT.wav	1	24	blb_dichoticlistening_ka-ta.mp3	ka	ta	1	left
6.6.1	win	2023-07-09	08:49:48	0	0	5bb21a6ed14ec100019840fb	2	1	DL_test	13	DL_test	16			0		pa	1	958	6	4	antiphase_hc_sio.wav	1	6	2	noise_calib_stim_LEFT.wav	1	30	blb_dichoticlistening_pa-ta.mp3	pa	ta	1	left
6.6.1	win	2023-07-09	08:49:48	0	0	5bb21a6ed14ec100019840fb	2	1	DL_test	13	DL_test	17			0		ka	1	974	6	4	antiphase_hc_sio.wav	1	6	2	noise_calib_stim_LEFT.wav	1	28	blb_dichoticlistening_pa-ka.mp3	pa	ka	1	right
6.6.1	win	2023-07-09	08:49:48	0	0	5bb21a6ed14ec100019840fb	2	1	DL_test	13	DL_test	18			0		da	1	1264	6	4	antiphase_hc_sio.wav	1	6	2	noise_calib_stim_LEFT.wav	1	11	blb_dichoticlistening_da-pa.mp3	da	pa	1	left
6.6.1	win	2023-07-09	08:49:48	0	0	5bb21a6ed14ec100019840fb	2	1	DL_test	13	DL_test	19			0		ba	1	986	6	4	antiphase_hc_sio.wav	1	6	2	noise_calib_stim_LEFT.wav	1	3	blb_dichoticlistening_ba-ga.mp3	ba	ga	1	left
6.6.1	win	2023-07-09	08:49:48	0	0	5bb21a6ed14ec100019840fb	2	1	DL_test	13	DL_test	20			0		ta	1	1411	6	4	antiphase_hc_sio.wav	1	6	2	noise_calib_stim_LEFT.wav	1	36	blb_dichoticlistening_ta-ta.mp3	ta	ta	0	left
6.6.1	win	2023-07-09	08:49:48	0	0	5bb21a6ed14ec100019840fb	2	1	DL_test	13	DL_test	21			0		da	1	1306	6	4	antiphase_hc_sio.wav	1	6	2	noise_calib_stim_LEFT.wav	1	10	blb_dichoticlistening_da-ka.mp3	da	ka	1	left
6.6.1	win	2023-07-09	08:49:48	0	0	5bb21a6ed14ec100019840fb	2	1	DL_test	13	DL_test	22			0		ga	1	1161	6	4	antiphase_hc_sio.wav	1	6	2	noise_calib_stim_LEFT.wav	1	15	blb_dichoticlistening_ga-ga.mp3	ga	ga	0	left
6.6.1	win	2023-07-09	08:49:48	0	0	5bb21a6ed14ec100019840fb	2	1	DL_test	13	DL_test	23			0		da	1	1632	6	4	antiphase_hc_sio.wav	1	6	2	noise_calib_stim_LEFT.wav	1	32	blb_dichoticlistening_ta-da.mp3	ta	da	1	right
6.6.1	win	2023-07-09	08:49:48	0	0	5bb21a6ed14ec100019840fb	2	1	DL_test	13	DL_test	24			0		pa	0	1428	6	4	antiphase_hc_sio.wav	1	6	2	noise_calib_stim_LEFT.wav	1	31	blb_dichoticlistening_ta-ba.mp3	ta	ba	1	other
6.6.1	win	2023-07-09	08:49:48	0	0	5bb21a6ed14ec100019840fb	2	1	DL_test	13	DL_test	25			0		ga	1	1098	6	4	antiphase_hc_sio.wav	1	6	2	noise_calib_stim_LEFT.wav	1	33	blb_dichoticlistening_ta-ga.mp3	ta	ga	1	right
6.6.1	win	2023-07-09	08:49:48	0	0	5bb21a6ed14ec100019840fb	2	1	DL_test	13	DL_test	26			0		ga	1	648	6	4	antiphase_hc_sio.wav	1	6	2	noise_calib_stim_LEFT.wav	1	27	blb_dichoticlistening_pa-ga.mp3	pa	ga	1	right
6.6.1	win	2023-07-09	08:49:48	0	0	5bb21a6ed14ec100019840fb	2	1	DL_test	13	DL_test	27			0		ba	1	1835	6	4	antiphase_hc_sio.wav	1	6	2	noise_calib_stim_LEFT.wav	1	13	blb_dichoticlistening_ga-ba.mp3	ga	ba	1	right
6.6.1	win	2023-07-09	08:49:48	0	0	5bb21a6ed14ec100019840fb	2	1	DL_test	13	DL_test	28			0		da	1	1108	6	4	antiphase_hc_sio.wav	1	6	2	noise_calib_stim_LEFT.wav	1	12	blb_dichoticlistening_da-ta.mp3	da	ta	1	left
6.6.1	win	2023-07-09	08:49:48	0	0	5bb21a6ed14ec100019840fb	2	1	DL_test	13	DL_test	29			0		ga	1	1179	6	4	antiphase_hc_sio.wav	1	6	2	noise_calib_stim_LEFT.wav	1	17	blb_dichoticlistening_ga-pa.mp3	ga	pa	1	left
6.6.1	win	2023-07-09	08:49:48	0	0	5bb21a6ed14ec100019840fb	2	1	DL_test	13	DL_test	30			0		ta	1	1220	6	4	antiphase_hc_sio.wav	1	6	2	noise_calib_stim_LEFT.wav	1	35	blb_dichoticlistening_ta-pa.mp3	ta	pa	1	left
6.6.1	win	2023-07-09	08:49:48	0	0	5bb21a6ed14ec100019840fb	2	1	DL_test	13	DL_test	31			0		ba	1	1478	6	4	antiphase_hc_sio.wav	1	6	2	noise_calib_stim_LEFT.wav	1	1	blb_dichoticlistening_ba-ba.mp3	ba	ba	0	left
6.6.1	win	2023-07-09	08:49:48	0	0	5bb21a6ed14ec100019840fb	2	1	DL_test	13	DL_test	32			0		da	1	1045	6	4	antiphase_hc_sio.wav	1	6	2	noise_calib_stim_LEFT.wav	1	8	blb_dichoticlistening_da-da.mp3	da	da	0	left
6.6.1	win	2023-07-09	08:49:48	0	0	5bb21a6ed14ec100019840fb	2	1	DL_test	13	DL_test	33			0		ba	1	3586	6	4	antiphase_hc_sio.wav	1	6	2	noise_calib_stim_LEFT.wav	1	19	blb_dichoticlistening_ka-ba.mp3	ka	ba	1	right
6.6.1	win	2023-07-09	08:49:48	0	0	5bb21a6ed14ec100019840fb	2	1	DL_test	13	DL_test	34			0		ga	1	795	6	4	antiphase_hc_sio.wav	1	6	2	noise_calib_stim_LEFT.wav	1	21	blb_dichoticlistening_ka-ga.mp3	ka	ga	1	right
6.6.1	win	2023-07-09	08:49:48	0	0	5bb21a6ed14ec100019840fb	2	1	DL_test	13	DL_test	35			0		ba	1	1269	6	4	antiphase_hc_sio.wav	1	6	2	noise_calib_stim_LEFT.wav	1	4	blb_dichoticlistening_ba-ka.mp3	ba	ka	1	left
6.6.1	win	2023-07-09	08:49:48	0	0	5bb21a6ed14ec100019840fb	2	1	DL_test	13	DL_test	36			0		ba	1	1691	6	4	antiphase_hc_sio.wav	1	6	2	noise_calib_stim_LEFT.wav	1	2	blb_dichoticlistening_ba-da.mp3	ba	da	1	left
6.6.1	win	2023-07-09	08:49:48	0	0	5bb21a6ed14ec100019840fb	2	1	DL_test	14	DL_test	1			0		ba	0	1963	6	4	antiphase_hc_sio.wav	1	6	2	noise_calib_stim_LEFT.wav	1	23	blb_dichoticlistening_ka-pa.mp3	ka	pa	1	other
6.6.1	win	2023-07-09	08:49:48	0	0	5bb21a6ed14ec100019840fb	2	1	DL_test	14	DL_test	2			0		ba	1	918	6	4	antiphase_hc_sio.wav	1	6	2	noise_calib_stim_LEFT.wav	1	4	blb_dichoticlistening_ba-ka.mp3	ba	ka	1	left
6.6.1	win	2023-07-09	08:49:48	0	0	5bb21a6ed14ec100019840fb	2	1	DL_test	14	DL_test	3			0		ka	1	970	6	4	antiphase_hc_sio.wav	1	6	2	noise_calib_stim_LEFT.wav	1	22	blb_dichoticlistening_ka-ka.mp3	ka	ka	0	left
6.6.1	win	2023-07-09	08:49:48	0	0	5bb21a6ed14ec100019840fb	2	1	DL_test	14	DL_test	4			0		ba	1	1989	6	4	antiphase_hc_sio.wav	1	6	2	noise_calib_stim_LEFT.wav	1	13	blb_dichoticlistening_ga-ba.mp3	ga	ba	1	right
6.6.1	win	2023-07-09	08:49:48	0	0	5bb21a6ed14ec100019840fb	2	1	DL_test	14	DL_test	5			0		da	1	1071	6	4	antiphase_hc_sio.wav	1	6	2	noise_calib_stim_LEFT.wav	1	8	blb_dichoticlistening_da-da.mp3	da	da	0	left
6.6.1	win	2023-07-09	08:49:48	0	0	5bb21a6ed14ec100019840fb	2	1	DL_test	14	DL_test	6			0		ga	1	1437	6	4	antiphase_hc_sio.wav	1	6	2	noise_calib_stim_LEFT.wav	1	14	blb_dichoticlistening_ga-da.mp3	ga	da	1	left
6.6.1	win	2023-07-09	08:49:48	0	0	5bb21a6ed14ec100019840fb	2	1	DL_test	14	DL_test	7			0		pa	1	960	6	4	antiphase_hc_sio.wav	1	6	2	noise_calib_stim_LEFT.wav	1	29	blb_dichoticlistening_pa-pa.mp3	pa	pa	0	left
6.6.1	win	2023-07-09	08:49:48	0	0	5bb21a6ed14ec100019840fb	2	1	DL_test	14	DL_test	8			0		da	1	1002	6	4	antiphase_hc_sio.wav	1	6	2	noise_calib_stim_LEFT.wav	1	26	blb_dichoticlistening_pa-da.mp3	pa	da	1	right
6.6.1	win	2023-07-09	08:49:48	0	0	5bb21a6ed14ec100019840fb	2	1	DL_test	14	DL_test	9			0		ba	1	1091	6	4	antiphase_hc_sio.wav	1	6	2	noise_calib_stim_LEFT.wav	1	2	blb_dichoticlistening_ba-da.mp3	ba	da	1	left
6.6.1	win	2023-07-09	08:49:48	0	0	5bb21a6ed14ec100019840fb	2	1	DL_test	14	DL_test	10			0		da	1	983	6	4	antiphase_hc_sio.wav	1	6	2	noise_calib_stim_LEFT.wav	1	32	blb_dichoticlistening_ta-da.mp3	ta	da	1	right
6.6.1	win	2023-07-09	08:49:48	0	0	5bb21a6ed14ec100019840fb	2	1	DL_test	14	DL_test	11			0		ga	1	1381	6	4	antiphase_hc_sio.wav	1	6	2	noise_calib_stim_LEFT.wav	1	16	blb_dichoticlistening_ga-ka.mp3	ga	ka	1	left
6.6.1	win	2023-07-09	08:49:48	0	0	5bb21a6ed14ec100019840fb	2	1	DL_test	14	DL_test	12			0		ka	1	1100	6	4	antiphase_hc_sio.wav	1	6	2	noise_calib_stim_LEFT.wav	1	34	blb_dichoticlistening_ta-ka.mp3	ta	ka	1	right
6.6.1	win	2023-07-09	08:49:48	0	0	5bb21a6ed14ec100019840fb	2	1	DL_test	14	DL_test	13			0		ga	1	830	6	4	antiphase_hc_sio.wav	1	6	2	noise_calib_stim_LEFT.wav	1	27	blb_dichoticlistening_pa-ga.mp3	pa	ga	1	right
6.6.1	win	2023-07-09	08:49:48	0	0	5bb21a6ed14ec100019840fb	2	1	DL_test	14	DL_test	14			0		ga	1	1001	6	4	antiphase_hc_sio.wav	1	6	2	noise_calib_stim_LEFT.wav	1	9	blb_dichoticlistening_da-ga.mp3	da	ga	1	right
6.6.1	win	2023-07-09	08:49:48	0	0	5bb21a6ed14ec100019840fb	2	1	DL_test	14	DL_test	15			0		ga	1	608	6	4	antiphase_hc_sio.wav	1	6	2	noise_calib_stim_LEFT.wav	1	15	blb_dichoticlistening_ga-ga.mp3	ga	ga	0	left
6.6.1	win	2023-07-09	08:49:48	0	0	5bb21a6ed14ec100019840fb	2	1	DL_test	14	DL_test	16			0		pa	1	1401	6	4	antiphase_hc_sio.wav	1	6	2	noise_calib_stim_LEFT.wav	1	30	blb_dichoticlistening_pa-ta.mp3	pa	ta	1	left
6.6.1	win	2023-07-09	08:49:48	0	0	5bb21a6ed14ec100019840fb	2	1	DL_test	14	DL_test	17			0		ka	1	1246	6	4	antiphase_hc_sio.wav	1	6	2	noise_calib_stim_LEFT.wav	1	28	blb_dichoticlistening_pa-ka.mp3	pa	ka	1	right
6.6.1	win	2023-07-09	08:49:48	0	0	5bb21a6ed14ec100019840fb	2	1	DL_test	14	DL_test	18			0		ga	1	1172	6	4	antiphase_hc_sio.wav	1	6	2	noise_calib_stim_LEFT.wav	1	21	blb_dichoticlistening_ka-ga.mp3	ka	ga	1	right
6.6.1	win	2023-07-09	08:49:48	0	0	5bb21a6ed14ec100019840fb	2	1	DL_test	14	DL_test	19			0		ga	1	803	6	4	antiphase_hc_sio.wav	1	6	2	noise_calib_stim_LEFT.wav	1	18	blb_dichoticlistening_ga-ta.mp3	ga	ta	1	left
6.6.1	win	2023-07-09	08:49:48	0	0	5bb21a6ed14ec100019840fb	2	1	DL_test	14	DL_test	20			0		ka	1	2061	6	4	antiphase_hc_sio.wav	1	6	2	noise_calib_stim_LEFT.wav	1	19	blb_dichoticlistening_ka-ba.mp3	ka	ba	1	left
6.6.1	win	2023-07-09	08:49:48	0	0	5bb21a6ed14ec100019840fb	2	1	DL_test	14	DL_test	21			0		ba	1	1715	6	4	antiphase_hc_sio.wav	1	6	2	noise_calib_stim_LEFT.wav	1	5	blb_dichoticlistening_ba-pa.mp3	ba	pa	1	left
6.6.1	win	2023-07-09	08:49:48	0	0	5bb21a6ed14ec100019840fb	2	1	DL_test	14	DL_test	22			0		ba	1	871	6	4	antiphase_hc_sio.wav	1	6	2	noise_calib_stim_LEFT.wav	1	25	blb_dichoticlistening_pa-ba.mp3	pa	ba	1	right
6.6.1	win	2023-07-09	08:49:48	0	0	5bb21a6ed14ec100019840fb	2	1	DL_test	14	DL_test	23			0		ba	1	1115	6	4	antiphase_hc_sio.wav	1	6	2	noise_calib_stim_LEFT.wav	1	1	blb_dichoticlistening_ba-ba.mp3	ba	ba	0	left
6.6.1	win	2023-07-09	08:49:48	0	0	5bb21a6ed14ec100019840fb	2	1	DL_test	14	DL_test	24			0		ba	1	636	6	4	antiphase_hc_sio.wav	1	6	2	noise_calib_stim_LEFT.wav	1	3	blb_dichoticlistening_ba-ga.mp3	ba	ga	1	left
6.6.1	win	2023-07-09	08:49:48	0	0	5bb21a6ed14ec100019840fb	2	1	DL_test	14	DL_test	25			0		pa	0	1845	6	4	antiphase_hc_sio.wav	1	6	2	noise_calib_stim_LEFT.wav	1	31	blb_dichoticlistening_ta-ba.mp3	ta	ba	1	other
6.6.1	win	2023-07-09	08:49:48	0	0	5bb21a6ed14ec100019840fb	2	1	DL_test	14	DL_test	26			0		ba	1	1967	6	4	antiphase_hc_sio.wav	1	6	2	noise_calib_stim_LEFT.wav	1	6	blb_dichoticlistening_ba-ta.mp3	ba	ta	1	left
6.6.1	win	2023-07-09	08:49:48	0	0	5bb21a6ed14ec100019840fb	2	1	DL_test	14	DL_test	27			0		ta	1	1155	6	4	antiphase_hc_sio.wav	1	6	2	noise_calib_stim_LEFT.wav	1	36	blb_dichoticlistening_ta-ta.mp3	ta	ta	0	left
6.6.1	win	2023-07-09	08:49:48	0	0	5bb21a6ed14ec100019840fb	2	1	DL_test	14	DL_test	28			0		ga	1	1155	6	4	antiphase_hc_sio.wav	1	6	2	noise_calib_stim_LEFT.wav	1	17	blb_dichoticlistening_ga-pa.mp3	ga	pa	1	left
6.6.1	win	2023-07-09	08:49:48	0	0	5bb21a6ed14ec100019840fb	2	1	DL_test	14	DL_test	29			0		da	1	1199	6	4	antiphase_hc_sio.wav	1	6	2	noise_calib_stim_LEFT.wav	1	11	blb_dichoticlistening_da-pa.mp3	da	pa	1	left
6.6.1	win	2023-07-09	08:49:48	0	0	5bb21a6ed14ec100019840fb	2	1	DL_test	14	DL_test	30			0		ba	1	1247	6	4	antiphase_hc_sio.wav	1	6	2	noise_calib_stim_LEFT.wav	1	7	blb_dichoticlistening_da-ba.mp3	da	ba	1	right
6.6.1	win	2023-07-09	08:49:48	0	0	5bb21a6ed14ec100019840fb	2	1	DL_test	14	DL_test	31			0		ga	1	721	6	4	antiphase_hc_sio.wav	1	6	2	noise_calib_stim_LEFT.wav	1	33	blb_dichoticlistening_ta-ga.mp3	ta	ga	1	right
6.6.1	win	2023-07-09	08:49:48	0	0	5bb21a6ed14ec100019840fb	2	1	DL_test	14	DL_test	32			0		ta	1	1213	6	4	antiphase_hc_sio.wav	1	6	2	noise_calib_stim_LEFT.wav	1	35	blb_dichoticlistening_ta-pa.mp3	ta	pa	1	left
6.6.1	win	2023-07-09	08:49:48	0	0	5bb21a6ed14ec100019840fb	2	1	DL_test	14	DL_test	33			0		da	1	1131	6	4	antiphase_hc_sio.wav	1	6	2	noise_calib_stim_LEFT.wav	1	10	blb_dichoticlistening_da-ka.mp3	da	ka	1	left
6.6.1	win	2023-07-09	08:49:48	0	0	5bb21a6ed14ec100019840fb	2	1	DL_test	14	DL_test	34			0		ga	0	553	6	4	antiphase_hc_sio.wav	1	6	2	noise_calib_stim_LEFT.wav	1	24	blb_dichoticlistening_ka-ta.mp3	ka	ta	1	other
6.6.1	win	2023-07-09	08:49:48	0	0	5bb21a6ed14ec100019840fb	2	1	DL_test	14	DL_test	35			0		ka	1	1826	6	4	antiphase_hc_sio.wav	1	6	2	noise_calib_stim_LEFT.wav	1	20	blb_dichoticlistening_ka-da.mp3	ka	da	1	left
6.6.1	win	2023-07-09	08:49:48	0	0	5bb21a6ed14ec100019840fb	2	1	DL_test	14	DL_test	36			0		da	1	897	6	4	antiphase_hc_sio.wav	1	6	2	noise_calib_stim_LEFT.wav	1	12	blb_dichoticlistening_da-ta.mp3	da	ta	1	left
6.6.1	win	2023-07-09	08:49:48	0	0	5bb21a6ed14ec100019840fb	2	1	DL_test	15	DL_test	1			0		da	1	1102	6	4	antiphase_hc_sio.wav	1	6	2	noise_calib_stim_LEFT.wav	1	8	blb_dichoticlistening_da-da.mp3	da	da	0	left
6.6.1	win	2023-07-09	08:49:48	0	0	5bb21a6ed14ec100019840fb	2	1	DL_test	15	DL_test	2			0		ga	1	912	6	4	antiphase_hc_sio.wav	1	6	2	noise_calib_stim_LEFT.wav	1	9	blb_dichoticlistening_da-ga.mp3	da	ga	1	right
6.6.1	win	2023-07-09	08:49:48	0	0	5bb21a6ed14ec100019840fb	2	1	DL_test	15	DL_test	3			0		ga	1	990	6	4	antiphase_hc_sio.wav	1	6	2	noise_calib_stim_LEFT.wav	1	18	blb_dichoticlistening_ga-ta.mp3	ga	ta	1	left
6.6.1	win	2023-07-09	08:49:48	0	0	5bb21a6ed14ec100019840fb	2	1	DL_test	15	DL_test	4			0		ga	1	1216	6	4	antiphase_hc_sio.wav	1	6	2	noise_calib_stim_LEFT.wav	1	16	blb_dichoticlistening_ga-ka.mp3	ga	ka	1	left
6.6.1	win	2023-07-09	08:49:48	0	0	5bb21a6ed14ec100019840fb	2	1	DL_test	15	DL_test	5			0		pa	0	783	6	4	antiphase_hc_sio.wav	1	6	2	noise_calib_stim_LEFT.wav	1	19	blb_dichoticlistening_ka-ba.mp3	ka	ba	1	other
6.6.1	win	2023-07-09	08:49:48	0	0	5bb21a6ed14ec100019840fb	2	1	DL_test	15	DL_test	6			0		ka	1	1704	6	4	antiphase_hc_sio.wav	1	6	2	noise_calib_stim_LEFT.wav	1	10	blb_dichoticlistening_da-ka.mp3	da	ka	1	right
6.6.1	win	2023-07-09	08:49:48	0	0	5bb21a6ed14ec100019840fb	2	1	DL_test	15	DL_test	7			0		pa	0	2631	6	4	antiphase_hc_sio.wav	1	6	2	noise_calib_stim_LEFT.wav	1	4	blb_dichoticlistening_ba-ka.mp3	ba	ka	1	other
6.6.1	win	2023-07-09	08:49:48	0	0	5bb21a6ed14ec100019840fb	2	1	DL_test	15	DL_test	8			0		ba	1	1621	6	4	antiphase_hc_sio.wav	1	6	2	noise_calib_stim_LEFT.wav	1	2	blb_dichoticlistening_ba-da.mp3	ba	da	1	left
6.6.1	win	2023-07-09	08:49:48	0	0	5bb21a6ed14ec100019840fb	2	1	DL_test	15	DL_test	9			0		da	1	883	6	4	antiphase_hc_sio.wav	1	6	2	noise_calib_stim_LEFT.wav	1	12	blb_dichoticlistening_da-ta.mp3	da	ta	1	left
6.6.1	win	2023-07-09	08:49:48	0	0	5bb21a6ed14ec100019840fb	2	1	DL_test	15	DL_test	10			0		ka	1	1010	6	4	antiphase_hc_sio.wav	1	6	2	noise_calib_stim_LEFT.wav	1	34	blb_dichoticlistening_ta-ka.mp3	ta	ka	1	right
6.6.1	win	2023-07-09	08:49:48	0	0	5bb21a6ed14ec100019840fb	2	1	DL_test	15	DL_test	11			0		ga	1	1050	6	4	antiphase_hc_sio.wav	1	6	2	noise_calib_stim_LEFT.wav	1	17	blb_dichoticlistening_ga-pa.mp3	ga	pa	1	left
6.6.1	win	2023-07-09	08:49:48	0	0	5bb21a6ed14ec100019840fb	2	1	DL_test	15	DL_test	12			0		da	1	1733	6	4	antiphase_hc_sio.wav	1	6	2	noise_calib_stim_LEFT.wav	1	32	blb_dichoticlistening_ta-da.mp3	ta	da	1	right
6.6.1	win	2023-07-09	08:49:48	0	0	5bb21a6ed14ec100019840fb	2	1	DL_test	15	DL_test	13			0		pa	0	1374	6	4	antiphase_hc_sio.wav	1	6	2	noise_calib_stim_LEFT.wav	1	6	blb_dichoticlistening_ba-ta.mp3	ba	ta	1	other
6.6.1	win	2023-07-09	08:49:48	0	0	5bb21a6ed14ec100019840fb	2	1	DL_test	15	DL_test	14			0		ka	1	958	6	4	antiphase_hc_sio.wav	1	6	2	noise_calib_stim_LEFT.wav	1	22	blb_dichoticlistening_ka-ka.mp3	ka	ka	0	left
6.6.1	win	2023-07-09	08:49:48	0	0	5bb21a6ed14ec100019840fb	2	1	DL_test	15	DL_test	15			0		ga	1	771	6	4	antiphase_hc_sio.wav	1	6	2	noise_calib_stim_LEFT.wav	1	15	blb_dichoticlistening_ga-ga.mp3	ga	ga	0	left
6.6.1	win	2023-07-09	08:49:48	0	0	5bb21a6ed14ec100019840fb	2	1	DL_test	15	DL_test	16			0		ta	1	988	6	4	antiphase_hc_sio.wav	1	6	2	noise_calib_stim_LEFT.wav	1	36	blb_dichoticlistening_ta-ta.mp3	ta	ta	0	left
6.6.1	win	2023-07-09	08:49:48	0	0	5bb21a6ed14ec100019840fb	2	1	DL_test	15	DL_test	17			0		pa	0	1673	6	4	antiphase_hc_sio.wav	1	6	2	noise_calib_stim_LEFT.wav	1	31	blb_dichoticlistening_ta-ba.mp3	ta	ba	1	other
6.6.1	win	2023-07-09	08:49:48	0	0	5bb21a6ed14ec100019840fb	2	1	DL_test	15	DL_test	18			0		ba	1	1811	6	4	antiphase_hc_sio.wav	1	6	2	noise_calib_stim_LEFT.wav	1	13	blb_dichoticlistening_ga-ba.mp3	ga	ba	1	right
6.6.1	win	2023-07-09	08:49:48	0	0	5bb21a6ed14ec100019840fb	2	1	DL_test	15	DL_test	19			0		pa	1	1072	6	4	antiphase_hc_sio.wav	1	6	2	noise_calib_stim_LEFT.wav	1	30	blb_dichoticlistening_pa-ta.mp3	pa	ta	1	left
6.6.1	win	2023-07-09	08:49:48	0	0	5bb21a6ed14ec100019840fb	2	1	DL_test	15	DL_test	20			0		ka	1	1124	6	4	antiphase_hc_sio.wav	1	6	2	noise_calib_stim_LEFT.wav	1	28	blb_dichoticlistening_pa-ka.mp3	pa	ka	1	right
6.6.1	win	2023-07-09	08:49:48	0	0	5bb21a6ed14ec100019840fb	2	1	DL_test	15	DL_test	21			0		ka	1	1910	6	4	antiphase_hc_sio.wav	1	6	2	noise_calib_stim_LEFT.wav	1	20	blb_dichoticlistening_ka-da.mp3	ka	da	1	left
6.6.1	win	2023-07-09	08:49:48	0	0	5bb21a6ed14ec100019840fb	2	1	DL_test	15	DL_test	22			0		pa	0	2578	6	4	antiphase_hc_sio.wav	1	6	2	noise_calib_stim_LEFT.wav	1	1	blb_dichoticlistening_ba-ba.mp3	ba	ba	0	other
6.6.1	win	2023-07-09	08:49:48	0	0	5bb21a6ed14ec100019840fb	2	1	DL_test	15	DL_test	23			0		ga	1	1496	6	4	antiphase_hc_sio.wav	1	6	2	noise_calib_stim_LEFT.wav	1	14	blb_dichoticlistening_ga-da.mp3	ga	da	1	left
6.6.1	win	2023-07-09	08:49:48	0	0	5bb21a6ed14ec100019840fb	2	1	DL_test	15	DL_test	24			0		pa	1	1588	6	4	antiphase_hc_sio.wav	1	6	2	noise_calib_stim_LEFT.wav	1	25	blb_dichoticlistening_pa-ba.mp3	pa	ba	1	left
6.6.1	win	2023-07-09	08:49:48	0	0	5bb21a6ed14ec100019840fb	2	1	DL_test	15	DL_test	25			0		pa	1	767	6	4	antiphase_hc_sio.wav	1	6	2	noise_calib_stim_LEFT.wav	1	29	blb_dichoticlistening_pa-pa.mp3	pa	pa	0	left
6.6.1	win	2023-07-09	08:49:48	0	0	5bb21a6ed14ec100019840fb	2	1	DL_test	15	DL_test	26			0		ta	1	1783	6	4	antiphase_hc_sio.wav	1	6	2	noise_calib_stim_LEFT.wav	1	35	blb_dichoticlistening_ta-pa.mp3	ta	pa	1	left
6.6.1	win	2023-07-09	08:49:48	0	0	5bb21a6ed14ec100019840fb	2	1	DL_test	15	DL_test	27			0		ka	1	1039	6	4	antiphase_hc_sio.wav	1	6	2	noise_calib_stim_LEFT.wav	1	24	blb_dichoticlistening_ka-ta.mp3	ka	ta	1	left
6.6.1	win	2023-07-09	08:49:48	0	0	5bb21a6ed14ec100019840fb	2	1	DL_test	15	DL_test	28			0		ga	1	939	6	4	antiphase_hc_sio.wav	1	6	2	noise_calib_stim_LEFT.wav	1	33	blb_dichoticlistening_ta-ga.mp3	ta	ga	1	right
6.6.1	win	2023-07-09	08:49:48	0	0	5bb21a6ed14ec100019840fb	2	1	DL_test	15	DL_test	29			0		ga	1	635	6	4	antiphase_hc_sio.wav	1	6	2	noise_calib_stim_LEFT.wav	1	27	blb_dichoticlistening_pa-ga.mp3	pa	ga	1	right
6.6.1	win	2023-07-09	08:49:48	0	0	5bb21a6ed14ec100019840fb	2	1	DL_test	15	DL_test	30			0		ba	1	1355	6	4	antiphase_hc_sio.wav	1	6	2	noise_calib_stim_LEFT.wav	1	3	blb_dichoticlistening_ba-ga.mp3	ba	ga	1	left
6.6.1	win	2023-07-09	08:49:48	0	0	5bb21a6ed14ec100019840fb	2	1	DL_test	15	DL_test	31			0		ka	1	1067	6	4	antiphase_hc_sio.wav	1	6	2	noise_calib_stim_LEFT.wav	1	23	blb_dichoticlistening_ka-pa.mp3	ka	pa	1	left
6.6.1	win	2023-07-09	08:49:48	0	0	5bb21a6ed14ec100019840fb	2	1	DL_test	15	DL_test	32			0		da	1	1188	6	4	antiphase_hc_sio.wav	1	6	2	noise_calib_stim_LEFT.wav	1	26	blb_dichoticlistening_pa-da.mp3	pa	da	1	right
6.6.1	win	2023-07-09	08:49:48	0	0	5bb21a6ed14ec100019840fb	2	1	DL_test	15	DL_test	33			0		pa	1	1730	6	4	antiphase_hc_sio.wav	1	6	2	noise_calib_stim_LEFT.wav	1	11	blb_dichoticlistening_da-pa.mp3	da	pa	1	right
6.6.1	win	2023-07-09	08:49:48	0	0	5bb21a6ed14ec100019840fb	2	1	DL_test	15	DL_test	34			0		ka	1	1342	6	4	antiphase_hc_sio.wav	1	6	2	noise_calib_stim_LEFT.wav	1	21	blb_dichoticlistening_ka-ga.mp3	ka	ga	1	left
6.6.1	win	2023-07-09	08:49:48	0	0	5bb21a6ed14ec100019840fb	2	1	DL_test	15	DL_test	35			0		pa	1	2797	6	4	antiphase_hc_sio.wav	1	6	2	noise_calib_stim_LEFT.wav	1	5	blb_dichoticlistening_ba-pa.mp3	ba	pa	1	right
6.6.1	win	2023-07-09	08:49:48	0	0	5bb21a6ed14ec100019840fb	2	1	DL_test	15	DL_test	36			0		ba	1	1547	6	4	antiphase_hc_sio.wav	1	6	2	noise_calib_stim_LEFT.wav	1	7	blb_dichoticlistening_da-ba.mp3	da	ba	1	right
6.6.1	win	2023-07-09	08:49:48	0	0	5bb21a6ed14ec100019840fb	2	1	DL_test	16	DL_test	1			0		ka	1	950	6	4	antiphase_hc_sio.wav	1	6	2	noise_calib_stim_LEFT.wav	1	20	blb_dichoticlistening_ka-da.mp3	ka	da	1	left
6.6.1	win	2023-07-09	08:49:48	0	0	5bb21a6ed14ec100019840fb	2	1	DL_test	16	DL_test	2			0		ga	1	1786	6	4	antiphase_hc_sio.wav	1	6	2	noise_calib_stim_LEFT.wav	1	18	blb_dichoticlistening_ga-ta.mp3	ga	ta	1	left
6.6.1	win	2023-07-09	08:49:48	0	0	5bb21a6ed14ec100019840fb	2	1	DL_test	16	DL_test	3			0		ga	1	634	6	4	antiphase_hc_sio.wav	1	6	2	noise_calib_stim_LEFT.wav	1	15	blb_dichoticlistening_ga-ga.mp3	ga	ga	0	left
6.6.1	win	2023-07-09	08:49:48	0	0	5bb21a6ed14ec100019840fb	2	1	DL_test	16	DL_test	4			0		ka	1	2471	6	4	antiphase_hc_sio.wav	1	6	2	noise_calib_stim_LEFT.wav	1	23	blb_dichoticlistening_ka-pa.mp3	ka	pa	1	left
6.6.1	win	2023-07-09	08:49:48	0	0	5bb21a6ed14ec100019840fb	2	1	DL_test	16	DL_test	5			0		pa	0	974	6	4	antiphase_hc_sio.wav	1	6	2	noise_calib_stim_LEFT.wav	1	33	blb_dichoticlistening_ta-ga.mp3	ta	ga	1	other
6.6.1	win	2023-07-09	08:49:48	0	0	5bb21a6ed14ec100019840fb	2	1	DL_test	16	DL_test	6			0		ga	1	921	6	4	antiphase_hc_sio.wav	1	6	2	noise_calib_stim_LEFT.wav	1	27	blb_dichoticlistening_pa-ga.mp3	pa	ga	1	right
6.6.1	win	2023-07-09	08:49:48	0	0	5bb21a6ed14ec100019840fb	2	1	DL_test	16	DL_test	7			0		da	1	1562	6	4	antiphase_hc_sio.wav	1	6	2	noise_calib_stim_LEFT.wav	1	12	blb_dichoticlistening_da-ta.mp3	da	ta	1	left
6.6.1	win	2023-07-09	08:49:48	0	0	5bb21a6ed14ec100019840fb	2	1	DL_test	16	DL_test	8			0		ta	1	1156	6	4	antiphase_hc_sio.wav	1	6	2	noise_calib_stim_LEFT.wav	1	36	blb_dichoticlistening_ta-ta.mp3	ta	ta	0	left
6.6.1	win	2023-07-09	08:49:48	0	0	5bb21a6ed14ec100019840fb	2	1	DL_test	16	DL_test	9			0		ga	0	937	6	4	antiphase_hc_sio.wav	1	6	2	noise_calib_stim_LEFT.wav	1	26	blb_dichoticlistening_pa-da.mp3	pa	da	1	other
6.6.1	win	2023-07-09	08:49:48	0	0	5bb21a6ed14ec100019840fb	2	1	DL_test	16	DL_test	10			0		ga	0	705	6	4	antiphase_hc_sio.wav	1	6	2	noise_calib_stim_LEFT.wav	1	34	blb_dichoticlistening_ta-ka.mp3	ta	ka	1	other
6.6.1	win	2023-07-09	08:49:48	0	0	5bb21a6ed14ec100019840fb	2	1	DL_test	16	DL_test	11			0		da	1	1416	6	4	antiphase_hc_sio.wav	1	6	2	noise_calib_stim_LEFT.wav	1	11	blb_dichoticlistening_da-pa.mp3	da	pa	1	left
6.6.1	win	2023-07-09	08:49:48	0	0	5bb21a6ed14ec100019840fb	2	1	DL_test	16	DL_test	12			0		da	1	774	6	4	antiphase_hc_sio.wav	1	6	2	noise_calib_stim_LEFT.wav	1	8	blb_dichoticlistening_da-da.mp3	da	da	0	left
6.6.1	win	2023-07-09	08:49:48	0	0	5bb21a6ed14ec100019840fb	2	1	DL_test	16	DL_test	13			0		pa	1	1324	6	4	antiphase_hc_sio.wav	1	6	2	noise_calib_stim_LEFT.wav	1	30	blb_dichoticlistening_pa-ta.mp3	pa	ta	1	left
6.6.1	win	2023-07-09	08:49:48	0	0	5bb21a6ed14ec100019840fb	2	1	DL_test	16	DL_test	14			0		da	1	1386	6	4	antiphase_hc_sio.wav	1	6	2	noise_calib_stim_LEFT.wav	1	10	blb_dichoticlistening_da-ka.mp3	da	ka	1	left
6.6.1	win	2023-07-09	08:49:48	0	0	5bb21a6ed14ec100019840fb	2	1	DL_test	16	DL_test	15			0		pa	1	1391	6	4	antiphase_hc_sio.wav	1	6	2	noise_calib_stim_LEFT.wav	1	25	blb_dichoticlistening_pa-ba.mp3	pa	ba	1	left
6.6.1	win	2023-07-09	08:49:48	0	0	5bb21a6ed14ec100019840fb	2	1	DL_test	16	DL_test	16			0		pa	0	510	6	4	antiphase_hc_sio.wav	1	6	2	noise_calib_stim_LEFT.wav	1	6	blb_dichoticlistening_ba-ta.mp3	ba	ta	1	other
6.6.1	win	2023-07-09	08:49:48	0	0	5bb21a6ed14ec100019840fb	2	1	DL_test	16	DL_test	17			0		ga	1	2178	6	4	antiphase_hc_sio.wav	1	6	2	noise_calib_stim_LEFT.wav	1	9	blb_dichoticlistening_da-ga.mp3	da	ga	1	right
6.6.1	win	2023-07-09	08:49:48	0	0	5bb21a6ed14ec100019840fb	2	1	DL_test	16	DL_test	18			0		ga	1	926	6	4	antiphase_hc_sio.wav	1	6	2	noise_calib_stim_LEFT.wav	1	17	blb_dichoticlistening_ga-pa.mp3	ga	pa	1	left
6.6.1	win	2023-07-09	08:49:48	0	0	5bb21a6ed14ec100019840fb	2	1	DL_test	16	DL_test	19			0		pa	0	1199	6	4	antiphase_hc_sio.wav	1	6	2	noise_calib_stim_LEFT.wav	1	31	blb_dichoticlistening_ta-ba.mp3	ta	ba	1	other
6.6.1	win	2023-07-09	08:49:48	0	0	5bb21a6ed14ec100019840fb	2	1	DL_test	16	DL_test	20			0		pa	0	1852	6	4	antiphase_hc_sio.wav	1	6	2	noise_calib_stim_LEFT.wav	1	7	blb_dichoticlistening_da-ba.mp3	da	ba	1	other
6.6.1	win	2023-07-09	08:49:48	0	0	5bb21a6ed14ec100019840fb	2	1	DL_test	16	DL_test	21			0		ka	1	1397	6	4	antiphase_hc_sio.wav	1	6	2	noise_calib_stim_LEFT.wav	1	4	blb_dichoticlistening_ba-ka.mp3	ba	ka	1	right
6.6.1	win	2023-07-09	08:49:48	0	0	5bb21a6ed14ec100019840fb	2	1	DL_test	16	DL_test	22			0		pa	0	1650	6	4	antiphase_hc_sio.wav	1	6	2	noise_calib_stim_LEFT.wav	1	3	blb_dichoticlistening_ba-ga.mp3	ba	ga	1	other
6.6.1	win	2023-07-09	08:49:48	0	0	5bb21a6ed14ec100019840fb	2	1	DL_test	16	DL_test	23			0		ka	1	1107	6	4	antiphase_hc_sio.wav	1	6	2	noise_calib_stim_LEFT.wav	1	21	blb_dichoticlistening_ka-ga.mp3	ka	ga	1	left
6.6.1	win	2023-07-09	08:49:48	0	0	5bb21a6ed14ec100019840fb	2	1	DL_test	16	DL_test	24			0		ta	1	1360	6	4	antiphase_hc_sio.wav	1	6	2	noise_calib_stim_LEFT.wav	1	32	blb_dichoticlistening_ta-da.mp3	ta	da	1	left
6.6.1	win	2023-07-09	08:49:48	0	0	5bb21a6ed14ec100019840fb	2	1	DL_test	16	DL_test	25			0		ka	1	1310	6	4	antiphase_hc_sio.wav	1	6	2	noise_calib_stim_LEFT.wav	1	19	blb_dichoticlistening_ka-ba.mp3	ka	ba	1	left
6.6.1	win	2023-07-09	08:49:48	0	0	5bb21a6ed14ec100019840fb	2	1	DL_test	16	DL_test	26			0		ga	1	1692	6	4	antiphase_hc_sio.wav	1	6	2	noise_calib_stim_LEFT.wav	1	14	blb_dichoticlistening_ga-da.mp3	ga	da	1	left
6.6.1	win	2023-07-09	08:49:48	0	0	5bb21a6ed14ec100019840fb	2	1	DL_test	16	DL_test	27			0		ka	1	1148	6	4	antiphase_hc_sio.wav	1	6	2	noise_calib_stim_LEFT.wav	1	24	blb_dichoticlistening_ka-ta.mp3	ka	ta	1	left
6.6.1	win	2023-07-09	08:49:48	0	0	5bb21a6ed14ec100019840fb	2	1	DL_test	16	DL_test	28			0		ka	1	727	6	4	antiphase_hc_sio.wav	1	6	2	noise_calib_stim_LEFT.wav	1	28	blb_dichoticlistening_pa-ka.mp3	pa	ka	1	right
6.6.1	win	2023-07-09	08:49:48	0	0	5bb21a6ed14ec100019840fb	2	1	DL_test	16	DL_test	29			0		ba	1	1877	6	4	antiphase_hc_sio.wav	1	6	2	noise_calib_stim_LEFT.wav	1	1	blb_dichoticlistening_ba-ba.mp3	ba	ba	0	left
6.6.1	win	2023-07-09	08:49:48	0	0	5bb21a6ed14ec100019840fb	2	1	DL_test	16	DL_test	30			0		ta	1	1645	6	4	antiphase_hc_sio.wav	1	6	2	noise_calib_stim_LEFT.wav	1	35	blb_dichoticlistening_ta-pa.mp3	ta	pa	1	left
6.6.1	win	2023-07-09	08:49:48	0	0	5bb21a6ed14ec100019840fb	2	1	DL_test	16	DL_test	31			0		ka	1	1543	6	4	antiphase_hc_sio.wav	1	6	2	noise_calib_stim_LEFT.wav	1	16	blb_dichoticlistening_ga-ka.mp3	ga	ka	1	right
6.6.1	win	2023-07-09	08:49:48	0	0	5bb21a6ed14ec100019840fb	2	1	DL_test	16	DL_test	32			0		ka	1	694	6	4	antiphase_hc_sio.wav	1	6	2	noise_calib_stim_LEFT.wav	1	22	blb_dichoticlistening_ka-ka.mp3	ka	ka	0	left
6.6.1	win	2023-07-09	08:49:48	0	0	5bb21a6ed14ec100019840fb	2	1	DL_test	16	DL_test	33			0		ba	1	2003	6	4	antiphase_hc_sio.wav	1	6	2	noise_calib_stim_LEFT.wav	1	5	blb_dichoticlistening_ba-pa.mp3	ba	pa	1	left
6.6.1	win	2023-07-09	08:49:48	0	0	5bb21a6ed14ec100019840fb	2	1	DL_test	16	DL_test	34			0		ka	0	2353	6	4	antiphase_hc_sio.wav	1	6	2	noise_calib_stim_LEFT.wav	1	13	blb_dichoticlistening_ga-ba.mp3	ga	ba	1	other
6.6.1	win	2023-07-09	08:49:48	0	0	5bb21a6ed14ec100019840fb	2	1	DL_test	16	DL_test	35			0		pa	0	1119	6	4	antiphase_hc_sio.wav	1	6	2	noise_calib_stim_LEFT.wav	1	2	blb_dichoticlistening_ba-da.mp3	ba	da	1	other
6.6.1	win	2023-07-09	08:49:48	0	0	5bb21a6ed14ec100019840fb	2	1	DL_test	16	DL_test	36			0		pa	1	1027	6	4	antiphase_hc_sio.wav	1	6	2	noise_calib_stim_LEFT.wav	1	29	blb_dichoticlistening_pa-pa.mp3	pa	pa	0	left
6.6.1	win	2023-07-09	08:49:48	09:01:58	723896	5bb21a6ed14ec100019840fb	2	1	practice_z	22	practice_z	1	stimuli_distractor_trianglediamonds.svg	stimuli_distractor_diamondtriangles.svg	16	no	0	1	2000	6	4	antiphase_hc_sio.wav	1	6	2	noise_calib_stim_LEFT.wav	1	29	blb_dichoticlistening_pa-pa.mp3	pa	pa	0	left
6.6.1	win	2023-07-09	08:49:48	09:01:58	723896	5bb21a6ed14ec100019840fb	2	1	practice_z	22	advance_on_keypress_ZEE	2	stimuli_distractor_trianglediamonds.svg	stimuli_distractor_diamondtriangles.svg	16	no	57	0	1460	6	4	antiphase_hc_sio.wav	1	6	2	noise_calib_stim_LEFT.wav	1	29	blb_dichoticlistening_pa-pa.mp3	pa	pa	0	left
6.6.1	win	2023-07-09	08:49:48	09:02:02	728049	5bb21a6ed14ec100019840fb	2	1	practice_z	22	practice_z	3	stimuli_distractor_trianglediamonds.svg	stimuli_target_rectanglediamonds.svg	10	yes	44	1	1030	6	4	antiphase_hc_sio.wav	1	6	2	noise_calib_stim_LEFT.wav	1	29	blb_dichoticlistening_pa-pa.mp3	pa	pa	0	left
6.6.1	win	2023-07-09	08:49:48	09:02:02	728049	5bb21a6ed14ec100019840fb	2	1	practice_z	22	advance_on_keypress_ZEE	4	stimuli_distractor_trianglediamonds.svg	stimuli_target_rectanglediamonds.svg	10	yes	57	0	739	6	4	antiphase_hc_sio.wav	1	6	2	noise_calib_stim_LEFT.wav	1	29	blb_dichoticlistening_pa-pa.mp3	pa	pa	0	left
6.6.1	win	2023-07-09	08:49:48	09:02:05	730994	5bb21a6ed14ec100019840fb	2	1	practice_z	22	practice_z	5	stimuli_target_rectanglediamonds.svg	stimuli_distractor_diamondtriangles.svg	1	yes	44	1	555	6	4	antiphase_hc_sio.wav	1	6	2	noise_calib_stim_LEFT.wav	1	29	blb_dichoticlistening_pa-pa.mp3	pa	pa	0	left
6.6.1	win	2023-07-09	08:49:48	09:02:05	730994	5bb21a6ed14ec100019840fb	2	1	practice_z	22	advance_on_keypress_ZEE	6	stimuli_target_rectanglediamonds.svg	stimuli_distractor_diamondtriangles.svg	1	yes	57	0	723	6	4	antiphase_hc_sio.wav	1	6	2	noise_calib_stim_LEFT.wav	1	29	blb_dichoticlistening_pa-pa.mp3	pa	pa	0	left
6.6.1	win	2023-07-09	08:49:48	09:02:10	735361	5bb21a6ed14ec100019840fb	2	1	practice_z	22	practice_z	7	stimuli_distractor_diamondtriangles.svg	stimuli_distractor_trianglediamonds.svg	14	no	0	1	2000	6	4	antiphase_hc_sio.wav	1	6	2	noise_calib_stim_LEFT.wav	1	29	blb_dichoticlistening_pa-pa.mp3	pa	pa	0	left
6.6.1	win	2023-07-09	08:49:48	09:02:10	735361	5bb21a6ed14ec100019840fb	2	1	practice_z	22	advance_on_keypress_ZEE	8	stimuli_distractor_diamondtriangles.svg	stimuli_distractor_trianglediamonds.svg	14	no	57	0	630	6	4	antiphase_hc_sio.wav	1	6	2	noise_calib_stim_LEFT.wav	1	29	blb_dichoticlistening_pa-pa.mp3	pa	pa	0	left
6.6.1	win	2023-07-09	08:49:48	09:02:12	738196	5bb21a6ed14ec100019840fb	2	1	practice_z	22	practice_z	9	stimuli_target_squarediamonds.svg	stimuli_distractor_trianglediamonds.svg	5	yes	44	1	550	6	4	antiphase_hc_sio.wav	1	6	2	noise_calib_stim_LEFT.wav	1	29	blb_dichoticlistening_pa-pa.mp3	pa	pa	0	left
6.6.1	win	2023-07-09	08:49:48	09:02:12	738196	5bb21a6ed14ec100019840fb	2	1	practice_z	22	advance_on_keypress_ZEE	10	stimuli_target_squarediamonds.svg	stimuli_distractor_trianglediamonds.svg	5	yes	57	0	853	6	4	antiphase_hc_sio.wav	1	6	2	noise_calib_stim_LEFT.wav	1	29	blb_dichoticlistening_pa-pa.mp3	pa	pa	0	left
6.6.1	win	2023-07-09	08:49:48	09:02:17	742705	5bb21a6ed14ec100019840fb	2	1	practice_z	22	practice_z	11	stimuli_distractor_diamondtriangles.svg	stimuli_distractor_diamondtriangles.svg	13	no	0	1	2000	6	4	antiphase_hc_sio.wav	1	6	2	noise_calib_stim_LEFT.wav	1	29	blb_dichoticlistening_pa-pa.mp3	pa	pa	0	left
6.6.1	win	2023-07-09	08:49:48	09:02:17	742705	5bb21a6ed14ec100019840fb	2	1	practice_z	22	advance_on_keypress_ZEE	12	stimuli_distractor_diamondtriangles.svg	stimuli_distractor_diamondtriangles.svg	13	no	57	0	601	6	4	antiphase_hc_sio.wav	1	6	2	noise_calib_stim_LEFT.wav	1	29	blb_dichoticlistening_pa-pa.mp3	pa	pa	0	left
6.6.1	win	2023-07-09	08:49:48	09:02:21	746973	5bb21a6ed14ec100019840fb	2	1	practice_z	22	practice_z	13	stimuli_distractor_diamondtriangles.svg	stimuli_target_trianglerectangles.svg	9	yes	0	0	2000	6	4	antiphase_hc_sio.wav	1	6	2	noise_calib_stim_LEFT.wav	1	29	blb_dichoticlistening_pa-pa.mp3	pa	pa	0	left
6.6.1	win	2023-07-09	08:49:48	09:02:21	746973	5bb21a6ed14ec100019840fb	2	1	practice_z	22	advance_on_keypress_ZEE	14	stimuli_distractor_diamondtriangles.svg	stimuli_target_trianglerectangles.svg	9	yes	57	0	703	6	4	antiphase_hc_sio.wav	1	6	2	noise_calib_stim_LEFT.wav	1	29	blb_dichoticlistening_pa-pa.mp3	pa	pa	0	left
6.6.1	win	2023-07-09	08:49:48	09:02:24	750162	5bb21a6ed14ec100019840fb	2	1	practice_z	22	practice_z	15	stimuli_distractor_trianglediamonds.svg	stimuli_target_diamondrectangles.svg	12	yes	44	1	818	6	4	antiphase_hc_sio.wav	1	6	2	noise_calib_stim_LEFT.wav	1	29	blb_dichoticlistening_pa-pa.mp3	pa	pa	0	left
6.6.1	win	2023-07-09	08:49:48	09:02:24	750162	5bb21a6ed14ec100019840fb	2	1	practice_z	22	advance_on_keypress_ZEE	16	stimuli_distractor_trianglediamonds.svg	stimuli_target_diamondrectangles.svg	12	yes	57	0	521	6	4	antiphase_hc_sio.wav	1	6	2	noise_calib_stim_LEFT.wav	1	29	blb_dichoticlistening_pa-pa.mp3	pa	pa	0	left
6.6.1	win	2023-07-09	08:49:48	09:02:27	753309	5bb21a6ed14ec100019840fb	2	1	practice_z	22	practice_z	17	stimuli_target_rectanglediamonds.svg	stimuli_distractor_trianglediamonds.svg	4	yes	44	1	978	6	4	antiphase_hc_sio.wav	1	6	2	noise_calib_stim_LEFT.wav	1	29	blb_dichoticlistening_pa-pa.mp3	pa	pa	0	left
6.6.1	win	2023-07-09	08:49:48	09:02:27	753309	5bb21a6ed14ec100019840fb	2	1	practice_z	22	advance_on_keypress_ZEE	18	stimuli_target_rectanglediamonds.svg	stimuli_distractor_trianglediamonds.svg	4	yes	57	0	641	6	4	antiphase_hc_sio.wav	1	6	2	noise_calib_stim_LEFT.wav	1	29	blb_dichoticlistening_pa-pa.mp3	pa	pa	0	left
6.6.1	win	2023-07-09	08:49:48	09:02:32	757601	5bb21a6ed14ec100019840fb	2	1	practice_z	22	practice_z	19	stimuli_distractor_trianglediamonds.svg	stimuli_distractor_trianglediamonds.svg	15	no	0	1	2000	6	4	antiphase_hc_sio.wav	1	6	2	noise_calib_stim_LEFT.wav	1	29	blb_dichoticlistening_pa-pa.mp3	pa	pa	0	left
6.6.1	win	2023-07-09	08:49:48	09:02:32	757601	5bb21a6ed14ec100019840fb	2	1	practice_z	22	advance_on_keypress_ZEE	20	stimuli_distractor_trianglediamonds.svg	stimuli_distractor_trianglediamonds.svg	15	no	57	0	306	6	4	antiphase_hc_sio.wav	1	6	2	noise_calib_stim_LEFT.wav	1	29	blb_dichoticlistening_pa-pa.mp3	pa	pa	0	left
6.6.1	win	2023-07-09	08:49:48	09:02:34	760102	5bb21a6ed14ec100019840fb	2	1	practice_z	22	practice_z	21	stimuli_distractor_diamondtriangles.svg	stimuli_target_rectangletriangles.svg	7	yes	44	1	529	6	4	antiphase_hc_sio.wav	1	6	2	noise_calib_stim_LEFT.wav	1	29	blb_dichoticlistening_pa-pa.mp3	pa	pa	0	left
6.6.1	win	2023-07-09	08:49:48	09:02:34	760102	5bb21a6ed14ec100019840fb	2	1	practice_z	22	advance_on_keypress_ZEE	22	stimuli_distractor_diamondtriangles.svg	stimuli_target_rectangletriangles.svg	7	yes	57	0	3587	6	4	antiphase_hc_sio.wav	1	6	2	noise_calib_stim_LEFT.wav	1	29	blb_dichoticlistening_pa-pa.mp3	pa	pa	0	left
6.6.1	win	2023-07-09	08:49:48	09:02:40	766136	5bb21a6ed14ec100019840fb	2	1	practice_z	22	practice_z	23	stimuli_distractor_trianglediamonds.svg	stimuli_target_squarediamonds.svg	11	yes	44	1	790	6	4	antiphase_hc_sio.wav	1	6	2	noise_calib_stim_LEFT.wav	1	29	blb_dichoticlistening_pa-pa.mp3	pa	pa	0	left
6.6.1	win	2023-07-09	08:49:48	09:02:40	766136	5bb21a6ed14ec100019840fb	2	1	practice_z	22	advance_on_keypress_ZEE	24	stimuli_distractor_trianglediamonds.svg	stimuli_target_squarediamonds.svg	11	yes	57	0	528	6	4	antiphase_hc_sio.wav	1	6	2	noise_calib_stim_LEFT.wav	1	29	blb_dichoticlistening_pa-pa.mp3	pa	pa	0	left
6.6.1	win	2023-07-09	08:49:48	09:02:44	770317	5bb21a6ed14ec100019840fb	2	1	practice_z	22	practice_z	25	stimuli_target_diamondsquares.svg	stimuli_distractor_diamondtriangles.svg	3	yes	0	0	2000	6	4	antiphase_hc_sio.wav	1	6	2	noise_calib_stim_LEFT.wav	1	29	blb_dichoticlistening_pa-pa.mp3	pa	pa	0	left
6.6.1	win	2023-07-09	08:49:48	09:02:44	770317	5bb21a6ed14ec100019840fb	2	1	practice_z	22	advance_on_keypress_ZEE	26	stimuli_target_diamondsquares.svg	stimuli_distractor_diamondtriangles.svg	3	yes	57	0	315	6	4	antiphase_hc_sio.wav	1	6	2	noise_calib_stim_LEFT.wav	1	29	blb_dichoticlistening_pa-pa.mp3	pa	pa	0	left
6.6.1	win	2023-07-09	08:49:48	09:02:47	773122	5bb21a6ed14ec100019840fb	2	1	practice_z	22	practice_z	27	stimuli_target_squarediamonds.svg	stimuli_distractor_diamondtriangles.svg	2	yes	44	1	833	6	4	antiphase_hc_sio.wav	1	6	2	noise_calib_stim_LEFT.wav	1	29	blb_dichoticlistening_pa-pa.mp3	pa	pa	0	left
6.6.1	win	2023-07-09	08:49:48	09:02:47	773122	5bb21a6ed14ec100019840fb	2	1	practice_z	22	advance_on_keypress_ZEE	28	stimuli_target_squarediamonds.svg	stimuli_distractor_diamondtriangles.svg	2	yes	57	0	612	6	4	antiphase_hc_sio.wav	1	6	2	noise_calib_stim_LEFT.wav	1	29	blb_dichoticlistening_pa-pa.mp3	pa	pa	0	left
6.6.1	win	2023-07-09	08:49:48	09:02:51	776425	5bb21a6ed14ec100019840fb	2	1	practice_z	22	practice_z	29	stimuli_distractor_diamondtriangles.svg	stimuli_target_diamondrectangles.svg	8	yes	44	1	1034	6	4	antiphase_hc_sio.wav	1	6	2	noise_calib_stim_LEFT.wav	1	29	blb_dichoticlistening_pa-pa.mp3	pa	pa	0	left
6.6.1	win	2023-07-09	08:49:48	09:02:51	776425	5bb21a6ed14ec100019840fb	2	1	practice_z	22	advance_on_keypress_ZEE	30	stimuli_distractor_diamondtriangles.svg	stimuli_target_diamondrectangles.svg	8	yes	57	0	788	6	4	antiphase_hc_sio.wav	1	6	2	noise_calib_stim_LEFT.wav	1	29	blb_dichoticlistening_pa-pa.mp3	pa	pa	0	left
6.6.1	win	2023-07-09	08:49:48	09:02:54	779837	5bb21a6ed14ec100019840fb	2	1	practice_z	22	practice_z	31	stimuli_target_diamondsquares.svg	stimuli_distractor_trianglediamonds.svg	6	yes	44	1	975	6	4	antiphase_hc_sio.wav	1	6	2	noise_calib_stim_LEFT.wav	1	29	blb_dichoticlistening_pa-pa.mp3	pa	pa	0	left
6.6.1	win	2023-07-09	08:49:48	09:02:54	779837	5bb21a6ed14ec100019840fb	2	1	practice_z	22	advance_on_keypress_ZEE	32	stimuli_target_diamondsquares.svg	stimuli_distractor_trianglediamonds.svg	6	yes	57	0	974	6	4	antiphase_hc_sio.wav	1	6	2	noise_calib_stim_LEFT.wav	1	29	blb_dichoticlistening_pa-pa.mp3	pa	pa	0	left
6.6.1	win	2023-07-09	08:49:48	09:03:02	787916	5bb21a6ed14ec100019840fb	2	1	main_z	24	main_z	1	stimuli_target_diamondsquares.svg	stimuli_distractor_trianglediamonds.svg	20	yes	44	1	712	6	4	antiphase_hc_sio.wav	1	6	2	noise_calib_stim_LEFT.wav	1	29	blb_dichoticlistening_pa-pa.mp3	pa	pa	0	left
6.6.1	win	2023-07-09	08:49:48	09:03:02	787916	5bb21a6ed14ec100019840fb	2	1	main_z	24	advance_on_keypress_ZEE	2	stimuli_target_diamondsquares.svg	stimuli_distractor_trianglediamonds.svg	20	yes	57	0	1912	6	4	antiphase_hc_sio.wav	1	6	2	noise_calib_stim_LEFT.wav	1	29	blb_dichoticlistening_pa-pa.mp3	pa	pa	0	left
6.6.1	win	2023-07-09	08:49:48	09:03:05	791194	5bb21a6ed14ec100019840fb	2	1	main_z	24	main_z	3	stimuli_target_diamondsquares.svg	stimuli_distractor_diamondtriangles.svg	24	yes	44	1	703	6	4	antiphase_hc_sio.wav	1	6	2	noise_calib_stim_LEFT.wav	1	29	blb_dichoticlistening_pa-pa.mp3	pa	pa	0	left
6.6.1	win	2023-07-09	08:49:48	09:03:05	791194	5bb21a6ed14ec100019840fb	2	1	main_z	24	advance_on_keypress_ZEE	4	stimuli_target_diamondsquares.svg	stimuli_distractor_diamondtriangles.svg	24	yes	57	0	1944	6	4	antiphase_hc_sio.wav	1	6	2	noise_calib_stim_LEFT.wav	1	29	blb_dichoticlistening_pa-pa.mp3	pa	pa	0	left
6.6.1	win	2023-07-09	08:49:48	09:03:09	794386	5bb21a6ed14ec100019840fb	2	1	main_z	24	main_z	5	stimuli_distractor_trianglediamonds.svg	stimuli_target_squarediamonds.svg	12	yes	44	1	608	6	4	antiphase_hc_sio.wav	1	6	2	noise_calib_stim_LEFT.wav	1	29	blb_dichoticlistening_pa-pa.mp3	pa	pa	0	left
6.6.1	win	2023-07-09	08:49:48	09:03:09	794386	5bb21a6ed14ec100019840fb	2	1	main_z	24	advance_on_keypress_ZEE	6	stimuli_distractor_trianglediamonds.svg	stimuli_target_squarediamonds.svg	12	yes	57	0	2909	6	4	antiphase_hc_sio.wav	1	6	2	noise_calib_stim_LEFT.wav	1	29	blb_dichoticlistening_pa-pa.mp3	pa	pa	0	left
6.6.1	win	2023-07-09	08:49:48	09:03:13	798483	5bb21a6ed14ec100019840fb	2	1	main_z	24	main_z	7	stimuli_target_diamondrectangles.svg	stimuli_distractor_trianglediamonds.svg	19	yes	44	1	551	6	4	antiphase_hc_sio.wav	1	6	2	noise_calib_stim_LEFT.wav	1	29	blb_dichoticlistening_pa-pa.mp3	pa	pa	0	left
6.6.1	win	2023-07-09	08:49:48	09:03:13	798483	5bb21a6ed14ec100019840fb	2	1	main_z	24	advance_on_keypress_ZEE	8	stimuli_target_diamondrectangles.svg	stimuli_distractor_trianglediamonds.svg	19	yes	57	0	2003	6	4	antiphase_hc_sio.wav	1	6	2	noise_calib_stim_LEFT.wav	1	29	blb_dichoticlistening_pa-pa.mp3	pa	pa	0	left
6.6.1	win	2023-07-09	08:49:48	09:03:17	803136	5bb21a6ed14ec100019840fb	2	1	main_z	24	main_z	9	stimuli_distractor_trianglediamonds.svg	stimuli_target_trianglerectangles.svg	25	yes	0	0	2000	6	4	antiphase_hc_sio.wav	1	6	2	noise_calib_stim_LEFT.wav	1	29	blb_dichoticlistening_pa-pa.mp3	pa	pa	0	left
6.6.1	win	2023-07-09	08:49:48	09:03:17	803136	5bb21a6ed14ec100019840fb	2	1	main_z	24	advance_on_keypress_ZEE	10	stimuli_distractor_trianglediamonds.svg	stimuli_target_trianglerectangles.svg	25	yes	57	0	748	6	4	antiphase_hc_sio.wav	1	6	2	noise_calib_stim_LEFT.wav	1	29	blb_dichoticlistening_pa-pa.mp3	pa	pa	0	left
6.6.1	win	2023-07-09	08:49:48	09:03:21	806544	5bb21a6ed14ec100019840fb	2	1	main_z	24	main_z	11	stimuli_distractor_diamondtriangles.svg	stimuli_distractor_trianglediamonds.svg	37	no	0	1	2000	6	4	antiphase_hc_sio.wav	1	6	2	noise_calib_stim_LEFT.wav	1	29	blb_dichoticlistening_pa-pa.mp3	pa	pa	0	left
6.6.1	win	2023-07-09	08:49:48	09:03:21	806544	5bb21a6ed14ec100019840fb	2	1	main_z	24	advance_on_keypress_ZEE	12	stimuli_distractor_diamondtriangles.svg	stimuli_distractor_trianglediamonds.svg	37	no	57	0	5519	6	4	antiphase_hc_sio.wav	1	6	2	noise_calib_stim_LEFT.wav	1	29	blb_dichoticlistening_pa-pa.mp3	pa	pa	0	left
6.6.1	win	2023-07-09	08:49:48	09:03:29	814717	5bb21a6ed14ec100019840fb	2	1	main_z	24	main_z	13	stimuli_distractor_trianglediamonds.svg	stimuli_distractor_trianglediamonds.svg	34	no	0	1	2000	6	4	antiphase_hc_sio.wav	1	6	2	noise_calib_stim_LEFT.wav	1	29	blb_dichoticlistening_pa-pa.mp3	pa	pa	0	left
6.6.1	win	2023-07-09	08:49:48	09:03:29	814717	5bb21a6ed14ec100019840fb	2	1	main_z	24	advance_on_keypress_ZEE	14	stimuli_distractor_trianglediamonds.svg	stimuli_distractor_trianglediamonds.svg	34	no	57	0	1382	6	4	antiphase_hc_sio.wav	1	6	2	noise_calib_stim_LEFT.wav	1	29	blb_dichoticlistening_pa-pa.mp3	pa	pa	0	left
6.6.1	win	2023-07-09	08:49:48	09:03:32	817426	5bb21a6ed14ec100019840fb	2	1	main_z	24	main_z	15	stimuli_distractor_diamondtriangles.svg	stimuli_target_diamondsquares.svg	32	yes	44	1	672	6	4	antiphase_hc_sio.wav	1	6	2	noise_calib_stim_LEFT.wav	1	29	blb_dichoticlistening_pa-pa.mp3	pa	pa	0	left
6.6.1	win	2023-07-09	08:49:48	09:03:32	817426	5bb21a6ed14ec100019840fb	2	1	main_z	24	advance_on_keypress_ZEE	16	stimuli_distractor_diamondtriangles.svg	stimuli_target_diamondsquares.svg	32	yes	57	0	795	6	4	antiphase_hc_sio.wav	1	6	2	noise_calib_stim_LEFT.wav	1	29	blb_dichoticlistening_pa-pa.mp3	pa	pa	0	left
6.6.1	win	2023-07-09	08:49:48	09:03:34	819840	5bb21a6ed14ec100019840fb	2	1	main_z	24	main_z	17	stimuli_distractor_trianglediamonds.svg	stimuli_target_diamondrectangles.svg	27	yes	44	1	967	6	4	antiphase_hc_sio.wav	1	6	2	noise_calib_stim_LEFT.wav	1	29	blb_dichoticlistening_pa-pa.mp3	pa	pa	0	left
6.6.1	win	2023-07-09	08:49:48	09:03:34	819840	5bb21a6ed14ec100019840fb	2	1	main_z	24	advance_on_keypress_ZEE	18	stimuli_distractor_trianglediamonds.svg	stimuli_target_diamondrectangles.svg	27	yes	57	0	1026	6	4	antiphase_hc_sio.wav	1	6	2	noise_calib_stim_LEFT.wav	1	29	blb_dichoticlistening_pa-pa.mp3	pa	pa	0	left
6.6.1	win	2023-07-09	08:49:48	09:03:38	823510	5bb21a6ed14ec100019840fb	2	1	main_z	24	main_z	19	stimuli_distractor_diamondtriangles.svg	stimuli_distractor_trianglediamonds.svg	38	no	0	1	2000	6	4	antiphase_hc_sio.wav	1	6	2	noise_calib_stim_LEFT.wav	1	29	blb_dichoticlistening_pa-pa.mp3	pa	pa	0	left
6.6.1	win	2023-07-09	08:49:48	09:03:38	823510	5bb21a6ed14ec100019840fb	2	1	main_z	24	advance_on_keypress_ZEE	20	stimuli_distractor_diamondtriangles.svg	stimuli_distractor_trianglediamonds.svg	38	no	57	0	8274	6	4	antiphase_hc_sio.wav	1	6	2	noise_calib_stim_LEFT.wav	1	29	blb_dichoticlistening_pa-pa.mp3	pa	pa	0	left
6.6.1	win	2023-07-09	08:49:48	09:03:47	832995	5bb21a6ed14ec100019840fb	2	1	main_z	24	main_z	21	stimuli_distractor_diamondtriangles.svg	stimuli_target_rectangletriangles.svg	13	yes	44	1	556	6	4	antiphase_hc_sio.wav	1	6	2	noise_calib_stim_LEFT.wav	1	29	blb_dichoticlistening_pa-pa.mp3	pa	pa	0	left
6.6.1	win	2023-07-09	08:49:48	09:03:47	832995	5bb21a6ed14ec100019840fb	2	1	main_z	24	advance_on_keypress_ZEE	22	stimuli_distractor_diamondtriangles.svg	stimuli_target_rectangletriangles.svg	13	yes	57	0	9202	6	4	antiphase_hc_sio.wav	1	6	2	noise_calib_stim_LEFT.wav	1	29	blb_dichoticlistening_pa-pa.mp3	pa	pa	0	left
6.6.1	win	2023-07-09	08:49:48	09:03:58	844013	5bb21a6ed14ec100019840fb	2	1	main_z	24	main_z	23	stimuli_distractor_diamondtriangles.svg	stimuli_target_diamondrectangles.svg	31	yes	44	1	1178	6	4	antiphase_hc_sio.wav	1	6	2	noise_calib_stim_LEFT.wav	1	29	blb_dichoticlistening_pa-pa.mp3	pa	pa	0	left
6.6.1	win	2023-07-09	08:49:48	09:03:58	844013	5bb21a6ed14ec100019840fb	2	1	main_z	24	advance_on_keypress_ZEE	24	stimuli_distractor_diamondtriangles.svg	stimuli_target_diamondrectangles.svg	31	yes	Ctrl+'Q'	1	1766	6	4	antiphase_hc_sio.wav	1	6	2	noise_calib_stim_LEFT.wav	1	29	blb_dichoticlistening_pa-pa.mp3	pa	pa	0	left