build	computer.platform	date	time	timestamp	time_elapsed_ms	subject	group	session	blockcode	blocknum	trialcode	trialnum	stimulus_left	stimulus_right	stim_index	target_present	response	correct	latency	headphonecheck_countTestTrials	headphonecheck_index	headphonecheck_testSound	headphonecheck_correctResponse	stereocheck_countTestTrials	stereocheck_index	stereocheck_testSound	stereocheck_correctResponse	DL_index	DL_soundfile	DL_leftSound	DL_rightSound	DL_dualSound	DL_choice
6.6.1	win	2023-06-27	10:43:45	0	0	63d15a2dccce0705127190e3	2	1	headphonecheck_calibration	4	headphonecheck_calibrationIntro	1			0		calibrationButton	0	5670	0	0			0	0			1				0	
6.6.1	win	2023-06-27	10:43:45	0	0	63d15a2dccce0705127190e3	2	1	headphonecheck_testphase	5	test_collectResponse	3			0		second	1	5442	1	1	antiphase_hc_iso.wav	2	0	0			1				0	
6.6.1	win	2023-06-27	10:43:45	0	0	63d15a2dccce0705127190e3	2	1	headphonecheck_testphase	5	test_collectResponse	6			0		second	1	1542	2	5	antiphase_hc_osi.wav	2	0	0			1				0	
6.6.1	win	2023-06-27	10:43:45	0	0	63d15a2dccce0705127190e3	2	1	headphonecheck_testphase	5	test_collectResponse	9			0		first	1	1198	3	3	antiphase_hc_soi.wav	1	0	0			1				0	
6.6.1	win	2023-06-27	10:43:45	0	0	63d15a2dccce0705127190e3	2	1	headphonecheck_testphase	5	test_collectResponse	12			0		first	1	955	4	4	antiphase_hc_sio.wav	1	0	0			1				0	
6.6.1	win	2023-06-27	10:43:45	0	0	63d15a2dccce0705127190e3	2	1	headphonecheck_testphase	5	test_collectResponse	15			0		third	1	977	5	2	antiphase_hc_ios.wav	3	0	0			1				0	
6.6.1	win	2023-06-27	10:43:45	0	0	63d15a2dccce0705127190e3	2	1	headphonecheck_testphase	5	test_collectResponse	18			0		third	1	852	6	6	antiphase_hc_ois.wav	3	0	0			1				0	
6.6.1	win	2023-06-27	10:43:45	0	0	63d15a2dccce0705127190e3	2	1	stereocheck_calibration	7	stereocheck_calibrationIntro	1			0		stereocheck_calibrationButton	0	6745	6	6	antiphase_hc_ois.wav	3	0	0			1				0	
6.6.1	win	2023-06-27	10:43:45	0	0	63d15a2dccce0705127190e3	2	1	stereocheck_testphase	8	stereocheck_test_collectResponse	3			0		stereocheck_left	1	537	6	6	antiphase_hc_ois.wav	3	1	3	noise_calib_stim_LEFT.wav	1	1				0	
6.6.1	win	2023-06-27	10:43:45	0	0	63d15a2dccce0705127190e3	2	1	stereocheck_testphase	8	stereocheck_test_collectResponse	6			0		stereocheck_right	1	536	6	6	antiphase_hc_ois.wav	3	2	6	noise_calib_stim_RIGHT.wav	2	1				0	
6.6.1	win	2023-06-27	10:43:45	0	0	63d15a2dccce0705127190e3	2	1	stereocheck_testphase	8	stereocheck_test_collectResponse	9			0		stereocheck_right	1	428	6	6	antiphase_hc_ois.wav	3	3	5	noise_calib_stim_RIGHT.wav	2	1				0	
6.6.1	win	2023-06-27	10:43:45	0	0	63d15a2dccce0705127190e3	2	1	stereocheck_testphase	8	stereocheck_test_collectResponse	12			0		stereocheck_left	1	687	6	6	antiphase_hc_ois.wav	3	4	1	noise_calib_stim_LEFT.wav	1	1				0	
6.6.1	win	2023-06-27	10:43:45	0	0	63d15a2dccce0705127190e3	2	1	stereocheck_testphase	8	stereocheck_test_collectResponse	15			0		stereocheck_left	1	600	6	6	antiphase_hc_ois.wav	3	5	2	noise_calib_stim_LEFT.wav	1	1				0	
6.6.1	win	2023-06-27	10:43:45	0	0	63d15a2dccce0705127190e3	2	1	stereocheck_testphase	8	stereocheck_test_collectResponse	18			0		stereocheck_right	1	590	6	6	antiphase_hc_ois.wav	3	6	4	noise_calib_stim_RIGHT.wav	2	1				0	
6.6.1	win	2023-06-27	10:43:45	0	0	63d15a2dccce0705127190e3	2	1	DL_practice	11	DL_practice	2			0		ga	1	2825	6	6	antiphase_hc_ois.wav	3	6	4	noise_calib_stim_RIGHT.wav	2	18	blb_dichoticlistening_ga-ta.mp3	ga	ta	1	left
6.6.1	win	2023-06-27	10:43:45	0	0	63d15a2dccce0705127190e3	2	1	DL_practice	11	DL_practice	3			0		pa	1	1632	6	6	antiphase_hc_ois.wav	3	6	4	noise_calib_stim_RIGHT.wav	2	23	blb_dichoticlistening_ka-pa.mp3	ka	pa	1	right
6.6.1	win	2023-06-27	10:43:45	0	0	63d15a2dccce0705127190e3	2	1	DL_practice	11	DL_practice	4			0		ta	1	1706	6	6	antiphase_hc_ois.wav	3	6	4	noise_calib_stim_RIGHT.wav	2	36	blb_dichoticlistening_ta-ta.mp3	ta	ta	0	left
6.6.1	win	2023-06-27	10:43:45	0	0	63d15a2dccce0705127190e3	2	1	DL_practice	11	DL_practice	5			0		ga	1	1598	6	6	antiphase_hc_ois.wav	3	6	4	noise_calib_stim_RIGHT.wav	2	15	blb_dichoticlistening_ga-ga.mp3	ga	ga	0	left
6.6.1	win	2023-06-27	10:43:45	0	0	63d15a2dccce0705127190e3	2	1	DL_practice	11	DL_practice	6			0		ba	1	2525	6	6	antiphase_hc_ois.wav	3	6	4	noise_calib_stim_RIGHT.wav	2	7	blb_dichoticlistening_da-ba.mp3	da	ba	1	right
6.6.1	win	2023-06-27	10:43:45	0	0	63d15a2dccce0705127190e3	2	1	DL_practice	11	DL_practice	7			0		pa	1	1787	6	6	antiphase_hc_ois.wav	3	6	4	noise_calib_stim_RIGHT.wav	2	29	blb_dichoticlistening_pa-pa.mp3	pa	pa	0	left
6.6.1	win	2023-06-27	10:43:45	0	0	63d15a2dccce0705127190e3	2	1	DL_practice	11	DL_practice	8			0		ba	1	1678	6	6	antiphase_hc_ois.wav	3	6	4	noise_calib_stim_RIGHT.wav	2	1	blb_dichoticlistening_ba-ba.mp3	ba	ba	0	left
6.6.1	win	2023-06-27	10:43:45	0	0	63d15a2dccce0705127190e3	2	1	DL_practice	11	DL_practice	9			0		ka	1	1490	6	6	antiphase_hc_ois.wav	3	6	4	noise_calib_stim_RIGHT.wav	2	22	blb_dichoticlistening_ka-ka.mp3	ka	ka	0	left
6.6.1	win	2023-06-27	10:43:45	0	0	63d15a2dccce0705127190e3	2	1	DL_practice	11	DL_practice	10			0		da	1	1300	6	6	antiphase_hc_ois.wav	3	6	4	noise_calib_stim_RIGHT.wav	2	8	blb_dichoticlistening_da-da.mp3	da	da	0	left
6.6.1	win	2023-06-27	10:43:45	0	0	63d15a2dccce0705127190e3	2	1	DL_test	13	DL_test	1			0		pa	1	1351	6	6	antiphase_hc_ois.wav	3	6	4	noise_calib_stim_RIGHT.wav	2	5	blb_dichoticlistening_ba-pa.mp3	ba	pa	1	right
6.6.1	win	2023-06-27	10:43:45	0	0	63d15a2dccce0705127190e3	2	1	DL_test	13	DL_test	2			0		ba	1	1815	6	6	antiphase_hc_ois.wav	3	6	4	noise_calib_stim_RIGHT.wav	2	13	blb_dichoticlistening_ga-ba.mp3	ga	ba	1	right
6.6.1	win	2023-06-27	10:43:45	0	0	63d15a2dccce0705127190e3	2	1	DL_test	13	DL_test	3			0		ta	1	2067	6	6	antiphase_hc_ois.wav	3	6	4	noise_calib_stim_RIGHT.wav	2	32	blb_dichoticlistening_ta-da.mp3	ta	da	1	left
6.6.1	win	2023-06-27	10:43:45	0	0	63d15a2dccce0705127190e3	2	1	DL_test	13	DL_test	4			0		pa	0	1259	6	6	antiphase_hc_ois.wav	3	6	4	noise_calib_stim_RIGHT.wav	2	10	blb_dichoticlistening_da-ka.mp3	da	ka	1	other
6.6.1	win	2023-06-27	10:43:45	0	0	63d15a2dccce0705127190e3	2	1	DL_test	13	DL_test	5			0		pa	0	1751	6	6	antiphase_hc_ois.wav	3	6	4	noise_calib_stim_RIGHT.wav	2	19	blb_dichoticlistening_ka-ba.mp3	ka	ba	1	other
6.6.1	win	2023-06-27	10:43:45	0	0	63d15a2dccce0705127190e3	2	1	DL_test	13	DL_test	6			0		ba	1	1343	6	6	antiphase_hc_ois.wav	3	6	4	noise_calib_stim_RIGHT.wav	2	1	blb_dichoticlistening_ba-ba.mp3	ba	ba	0	left
6.6.1	win	2023-06-27	10:43:45	0	0	63d15a2dccce0705127190e3	2	1	DL_test	13	DL_test	7			0		pa	1	1766	6	6	antiphase_hc_ois.wav	3	6	4	noise_calib_stim_RIGHT.wav	2	11	blb_dichoticlistening_da-pa.mp3	da	pa	1	right
6.6.1	win	2023-06-27	10:43:45	0	0	63d15a2dccce0705127190e3	2	1	DL_test	13	DL_test	8			0		pa	1	1910	6	6	antiphase_hc_ois.wav	3	6	4	noise_calib_stim_RIGHT.wav	2	27	blb_dichoticlistening_pa-ga.mp3	pa	ga	1	left
6.6.1	win	2023-06-27	10:43:45	0	0	63d15a2dccce0705127190e3	2	1	DL_test	13	DL_test	9			0		pa	1	1529	6	6	antiphase_hc_ois.wav	3	6	4	noise_calib_stim_RIGHT.wav	2	25	blb_dichoticlistening_pa-ba.mp3	pa	ba	1	left
6.6.1	win	2023-06-27	10:43:45	0	0	63d15a2dccce0705127190e3	2	1	DL_test	13	DL_test	10			0		pa	1	1971	6	6	antiphase_hc_ois.wav	3	6	4	noise_calib_stim_RIGHT.wav	2	17	blb_dichoticlistening_ga-pa.mp3	ga	pa	1	right
6.6.1	win	2023-06-27	10:43:45	0	0	63d15a2dccce0705127190e3	2	1	DL_test	13	DL_test	11			0		ga	1	1141	6	6	antiphase_hc_ois.wav	3	6	4	noise_calib_stim_RIGHT.wav	2	15	blb_dichoticlistening_ga-ga.mp3	ga	ga	0	left
6.6.1	win	2023-06-27	10:43:45	0	0	63d15a2dccce0705127190e3	2	1	DL_test	13	DL_test	12			0		pa	1	1597	6	6	antiphase_hc_ois.wav	3	6	4	noise_calib_stim_RIGHT.wav	2	35	blb_dichoticlistening_ta-pa.mp3	ta	pa	1	right
6.6.1	win	2023-06-27	10:43:45	0	0	63d15a2dccce0705127190e3	2	1	DL_test	13	DL_test	13			0		pa	1	949	6	6	antiphase_hc_ois.wav	3	6	4	noise_calib_stim_RIGHT.wav	2	26	blb_dichoticlistening_pa-da.mp3	pa	da	1	left
6.6.1	win	2023-06-27	10:43:45	0	0	63d15a2dccce0705127190e3	2	1	DL_test	13	DL_test	14			0		pa	0	1116	6	6	antiphase_hc_ois.wav	3	6	4	noise_calib_stim_RIGHT.wav	2	6	blb_dichoticlistening_ba-ta.mp3	ba	ta	1	other
6.6.1	win	2023-06-27	10:43:45	0	0	63d15a2dccce0705127190e3	2	1	DL_test	13	DL_test	15			0		da	1	1273	6	6	antiphase_hc_ois.wav	3	6	4	noise_calib_stim_RIGHT.wav	2	8	blb_dichoticlistening_da-da.mp3	da	da	0	left
6.6.1	win	2023-06-27	10:43:45	0	0	63d15a2dccce0705127190e3	2	1	DL_test	13	DL_test	16			0		ka	1	1374	6	6	antiphase_hc_ois.wav	3	6	4	noise_calib_stim_RIGHT.wav	2	24	blb_dichoticlistening_ka-ta.mp3	ka	ta	1	left
6.6.1	win	2023-06-27	10:43:45	0	0	63d15a2dccce0705127190e3	2	1	DL_test	13	DL_test	17			0		da	1	1229	6	6	antiphase_hc_ois.wav	3	6	4	noise_calib_stim_RIGHT.wav	2	9	blb_dichoticlistening_da-ga.mp3	da	ga	1	left
6.6.1	win	2023-06-27	10:43:45	0	0	63d15a2dccce0705127190e3	2	1	DL_test	13	DL_test	18			0		ta	1	1479	6	6	antiphase_hc_ois.wav	3	6	4	noise_calib_stim_RIGHT.wav	2	36	blb_dichoticlistening_ta-ta.mp3	ta	ta	0	left
6.6.1	win	2023-06-27	10:43:45	0	0	63d15a2dccce0705127190e3	2	1	DL_test	13	DL_test	19			0		ka	1	1123	6	6	antiphase_hc_ois.wav	3	6	4	noise_calib_stim_RIGHT.wav	2	16	blb_dichoticlistening_ga-ka.mp3	ga	ka	1	right
6.6.1	win	2023-06-27	10:43:45	0	0	63d15a2dccce0705127190e3	2	1	DL_test	13	DL_test	20			0		ka	1	662	6	6	antiphase_hc_ois.wav	3	6	4	noise_calib_stim_RIGHT.wav	2	22	blb_dichoticlistening_ka-ka.mp3	ka	ka	0	left
6.6.1	win	2023-06-27	10:43:45	0	0	63d15a2dccce0705127190e3	2	1	DL_test	13	DL_test	21			0		ba	1	1331	6	6	antiphase_hc_ois.wav	3	6	4	noise_calib_stim_RIGHT.wav	2	3	blb_dichoticlistening_ba-ga.mp3	ba	ga	1	left
6.6.1	win	2023-06-27	10:43:45	0	0	63d15a2dccce0705127190e3	2	1	DL_test	13	DL_test	22			0		pa	1	1330	6	6	antiphase_hc_ois.wav	3	6	4	noise_calib_stim_RIGHT.wav	2	23	blb_dichoticlistening_ka-pa.mp3	ka	pa	1	right
6.6.1	win	2023-06-27	10:43:45	0	0	63d15a2dccce0705127190e3	2	1	DL_test	13	DL_test	23			0		pa	1	1038	6	6	antiphase_hc_ois.wav	3	6	4	noise_calib_stim_RIGHT.wav	2	28	blb_dichoticlistening_pa-ka.mp3	pa	ka	1	left
6.6.1	win	2023-06-27	10:43:45	0	0	63d15a2dccce0705127190e3	2	1	DL_test	13	DL_test	24			0		ga	1	1746	6	6	antiphase_hc_ois.wav	3	6	4	noise_calib_stim_RIGHT.wav	2	18	blb_dichoticlistening_ga-ta.mp3	ga	ta	1	left
6.6.1	win	2023-06-27	10:43:45	0	0	63d15a2dccce0705127190e3	2	1	DL_test	13	DL_test	25			0		ta	1	1339	6	6	antiphase_hc_ois.wav	3	6	4	noise_calib_stim_RIGHT.wav	2	31	blb_dichoticlistening_ta-ba.mp3	ta	ba	1	left
6.6.1	win	2023-06-27	10:43:45	0	0	63d15a2dccce0705127190e3	2	1	DL_test	13	DL_test	26			0		ka	1	1329	6	6	antiphase_hc_ois.wav	3	6	4	noise_calib_stim_RIGHT.wav	2	4	blb_dichoticlistening_ba-ka.mp3	ba	ka	1	right
6.6.1	win	2023-06-27	10:43:45	0	0	63d15a2dccce0705127190e3	2	1	DL_test	13	DL_test	27			0		ga	1	1165	6	6	antiphase_hc_ois.wav	3	6	4	noise_calib_stim_RIGHT.wav	2	14	blb_dichoticlistening_ga-da.mp3	ga	da	1	left
6.6.1	win	2023-06-27	10:43:45	0	0	63d15a2dccce0705127190e3	2	1	DL_test	13	DL_test	28			0		ba	1	1463	6	6	antiphase_hc_ois.wav	3	6	4	noise_calib_stim_RIGHT.wav	2	2	blb_dichoticlistening_ba-da.mp3	ba	da	1	left
6.6.1	win	2023-06-27	10:43:45	0	0	63d15a2dccce0705127190e3	2	1	DL_test	13	DL_test	29			0		ka	1	1130	6	6	antiphase_hc_ois.wav	3	6	4	noise_calib_stim_RIGHT.wav	2	21	blb_dichoticlistening_ka-ga.mp3	ka	ga	1	left
6.6.1	win	2023-06-27	10:43:45	0	0	63d15a2dccce0705127190e3	2	1	DL_test	13	DL_test	30			0		ta	1	1464	6	6	antiphase_hc_ois.wav	3	6	4	noise_calib_stim_RIGHT.wav	2	12	blb_dichoticlistening_da-ta.mp3	da	ta	1	right
6.6.1	win	2023-06-27	10:43:45	0	0	63d15a2dccce0705127190e3	2	1	DL_test	13	DL_test	31			0		da	1	1318	6	6	antiphase_hc_ois.wav	3	6	4	noise_calib_stim_RIGHT.wav	2	7	blb_dichoticlistening_da-ba.mp3	da	ba	1	left
6.6.1	win	2023-06-27	10:43:45	0	0	63d15a2dccce0705127190e3	2	1	DL_test	13	DL_test	32			0		pa	1	1412	6	6	antiphase_hc_ois.wav	3	6	4	noise_calib_stim_RIGHT.wav	2	30	blb_dichoticlistening_pa-ta.mp3	pa	ta	1	left
6.6.1	win	2023-06-27	10:43:45	0	0	63d15a2dccce0705127190e3	2	1	DL_test	13	DL_test	33			0		ta	1	1178	6	6	antiphase_hc_ois.wav	3	6	4	noise_calib_stim_RIGHT.wav	2	34	blb_dichoticlistening_ta-ka.mp3	ta	ka	1	left
6.6.1	win	2023-06-27	10:43:45	0	0	63d15a2dccce0705127190e3	2	1	DL_test	13	DL_test	34			0		ka	1	1022	6	6	antiphase_hc_ois.wav	3	6	4	noise_calib_stim_RIGHT.wav	2	20	blb_dichoticlistening_ka-da.mp3	ka	da	1	left
6.6.1	win	2023-06-27	10:43:45	0	0	63d15a2dccce0705127190e3	2	1	DL_test	13	DL_test	35			0		pa	1	1166	6	6	antiphase_hc_ois.wav	3	6	4	noise_calib_stim_RIGHT.wav	2	29	blb_dichoticlistening_pa-pa.mp3	pa	pa	0	left
6.6.1	win	2023-06-27	10:43:45	0	0	63d15a2dccce0705127190e3	2	1	DL_test	13	DL_test	36			0		ka	0	1659	6	6	antiphase_hc_ois.wav	3	6	4	noise_calib_stim_RIGHT.wav	2	33	blb_dichoticlistening_ta-ga.mp3	ta	ga	1	other
6.6.1	win	2023-06-27	10:43:45	0	0	63d15a2dccce0705127190e3	2	1	DL_test	14	DL_test	1			0		pa	0	1170	6	6	antiphase_hc_ois.wav	3	6	4	noise_calib_stim_RIGHT.wav	2	10	blb_dichoticlistening_da-ka.mp3	da	ka	1	other
6.6.1	win	2023-06-27	10:43:45	0	0	63d15a2dccce0705127190e3	2	1	DL_test	14	DL_test	2			0		pa	1	993	6	6	antiphase_hc_ois.wav	3	6	4	noise_calib_stim_RIGHT.wav	2	5	blb_dichoticlistening_ba-pa.mp3	ba	pa	1	right
6.6.1	win	2023-06-27	10:43:45	0	0	63d15a2dccce0705127190e3	2	1	DL_test	14	DL_test	3			0		ka	0	1301	6	6	antiphase_hc_ois.wav	3	6	4	noise_calib_stim_RIGHT.wav	2	27	blb_dichoticlistening_pa-ga.mp3	pa	ga	1	other
6.6.1	win	2023-06-27	10:43:45	0	0	63d15a2dccce0705127190e3	2	1	DL_test	14	DL_test	4			0		da	1	1213	6	6	antiphase_hc_ois.wav	3	6	4	noise_calib_stim_RIGHT.wav	2	7	blb_dichoticlistening_da-ba.mp3	da	ba	1	left
6.6.1	win	2023-06-27	10:43:45	0	0	63d15a2dccce0705127190e3	2	1	DL_test	14	DL_test	5			0		pa	0	1853	6	6	antiphase_hc_ois.wav	3	6	4	noise_calib_stim_RIGHT.wav	2	6	blb_dichoticlistening_ba-ta.mp3	ba	ta	1	other
6.6.1	win	2023-06-27	10:43:45	0	0	63d15a2dccce0705127190e3	2	1	DL_test	14	DL_test	6			0		ta	1	1070	6	6	antiphase_hc_ois.wav	3	6	4	noise_calib_stim_RIGHT.wav	2	32	blb_dichoticlistening_ta-da.mp3	ta	da	1	left
6.6.1	win	2023-06-27	10:43:45	0	0	63d15a2dccce0705127190e3	2	1	DL_test	14	DL_test	7			0		pa	1	1057	6	6	antiphase_hc_ois.wav	3	6	4	noise_calib_stim_RIGHT.wav	2	25	blb_dichoticlistening_pa-ba.mp3	pa	ba	1	left
6.6.1	win	2023-06-27	10:43:45	0	0	63d15a2dccce0705127190e3	2	1	DL_test	14	DL_test	8			0		pa	1	781	6	6	antiphase_hc_ois.wav	3	6	4	noise_calib_stim_RIGHT.wav	2	30	blb_dichoticlistening_pa-ta.mp3	pa	ta	1	left
6.6.1	win	2023-06-27	10:43:45	0	0	63d15a2dccce0705127190e3	2	1	DL_test	14	DL_test	9			0		ga	1	1054	6	6	antiphase_hc_ois.wav	3	6	4	noise_calib_stim_RIGHT.wav	2	14	blb_dichoticlistening_ga-da.mp3	ga	da	1	left
6.6.1	win	2023-06-27	10:43:45	0	0	63d15a2dccce0705127190e3	2	1	DL_test	14	DL_test	10			0		ka	1	1041	6	6	antiphase_hc_ois.wav	3	6	4	noise_calib_stim_RIGHT.wav	2	24	blb_dichoticlistening_ka-ta.mp3	ka	ta	1	left
6.6.1	win	2023-06-27	10:43:45	0	0	63d15a2dccce0705127190e3	2	1	DL_test	14	DL_test	11			0		pa	1	1115	6	6	antiphase_hc_ois.wav	3	6	4	noise_calib_stim_RIGHT.wav	2	35	blb_dichoticlistening_ta-pa.mp3	ta	pa	1	right
6.6.1	win	2023-06-27	10:43:45	0	0	63d15a2dccce0705127190e3	2	1	DL_test	14	DL_test	12			0		ka	1	1050	6	6	antiphase_hc_ois.wav	3	6	4	noise_calib_stim_RIGHT.wav	2	19	blb_dichoticlistening_ka-ba.mp3	ka	ba	1	left
6.6.1	win	2023-06-27	10:43:45	0	0	63d15a2dccce0705127190e3	2	1	DL_test	14	DL_test	13			0		pa	1	884	6	6	antiphase_hc_ois.wav	3	6	4	noise_calib_stim_RIGHT.wav	2	28	blb_dichoticlistening_pa-ka.mp3	pa	ka	1	left
6.6.1	win	2023-06-27	10:43:45	0	0	63d15a2dccce0705127190e3	2	1	DL_test	14	DL_test	14			0		ta	1	1070	6	6	antiphase_hc_ois.wav	3	6	4	noise_calib_stim_RIGHT.wav	2	31	blb_dichoticlistening_ta-ba.mp3	ta	ba	1	left
6.6.1	win	2023-06-27	10:43:45	0	0	63d15a2dccce0705127190e3	2	1	DL_test	14	DL_test	15			0		ga	1	1007	6	6	antiphase_hc_ois.wav	3	6	4	noise_calib_stim_RIGHT.wav	2	17	blb_dichoticlistening_ga-pa.mp3	ga	pa	1	left
6.6.1	win	2023-06-27	10:43:45	0	0	63d15a2dccce0705127190e3	2	1	DL_test	14	DL_test	16			0		ba	1	1751	6	6	antiphase_hc_ois.wav	3	6	4	noise_calib_stim_RIGHT.wav	2	3	blb_dichoticlistening_ba-ga.mp3	ba	ga	1	left
6.6.1	win	2023-06-27	10:43:45	0	0	63d15a2dccce0705127190e3	2	1	DL_test	14	DL_test	17			0		ka	1	1138	6	6	antiphase_hc_ois.wav	3	6	4	noise_calib_stim_RIGHT.wav	2	4	blb_dichoticlistening_ba-ka.mp3	ba	ka	1	right
6.6.1	win	2023-06-27	10:43:45	0	0	63d15a2dccce0705127190e3	2	1	DL_test	14	DL_test	18			0		ga	1	994	6	6	antiphase_hc_ois.wav	3	6	4	noise_calib_stim_RIGHT.wav	2	16	blb_dichoticlistening_ga-ka.mp3	ga	ka	1	left
6.6.1	win	2023-06-27	10:43:45	0	0	63d15a2dccce0705127190e3	2	1	DL_test	14	DL_test	19			0		ka	1	1249	6	6	antiphase_hc_ois.wav	3	6	4	noise_calib_stim_RIGHT.wav	2	21	blb_dichoticlistening_ka-ga.mp3	ka	ga	1	left
6.6.1	win	2023-06-27	10:43:45	0	0	63d15a2dccce0705127190e3	2	1	DL_test	14	DL_test	20			0		ba	1	1699	6	6	antiphase_hc_ois.wav	3	6	4	noise_calib_stim_RIGHT.wav	2	13	blb_dichoticlistening_ga-ba.mp3	ga	ba	1	right
6.6.1	win	2023-06-27	10:43:45	0	0	63d15a2dccce0705127190e3	2	1	DL_test	14	DL_test	21			0		ba	1	1103	6	6	antiphase_hc_ois.wav	3	6	4	noise_calib_stim_RIGHT.wav	2	1	blb_dichoticlistening_ba-ba.mp3	ba	ba	0	left
6.6.1	win	2023-06-27	10:43:45	0	0	63d15a2dccce0705127190e3	2	1	DL_test	14	DL_test	22			0		pa	1	1263	6	6	antiphase_hc_ois.wav	3	6	4	noise_calib_stim_RIGHT.wav	2	26	blb_dichoticlistening_pa-da.mp3	pa	da	1	left
6.6.1	win	2023-06-27	10:43:45	0	0	63d15a2dccce0705127190e3	2	1	DL_test	14	DL_test	23			0		ga	1	1174	6	6	antiphase_hc_ois.wav	3	6	4	noise_calib_stim_RIGHT.wav	2	9	blb_dichoticlistening_da-ga.mp3	da	ga	1	right
6.6.1	win	2023-06-27	10:43:45	0	0	63d15a2dccce0705127190e3	2	1	DL_test	14	DL_test	24			0		ka	1	843	6	6	antiphase_hc_ois.wav	3	6	4	noise_calib_stim_RIGHT.wav	2	22	blb_dichoticlistening_ka-ka.mp3	ka	ka	0	left
6.6.1	win	2023-06-27	10:43:45	0	0	63d15a2dccce0705127190e3	2	1	DL_test	14	DL_test	25			0		pa	1	967	6	6	antiphase_hc_ois.wav	3	6	4	noise_calib_stim_RIGHT.wav	2	23	blb_dichoticlistening_ka-pa.mp3	ka	pa	1	right
6.6.1	win	2023-06-27	10:43:45	0	0	63d15a2dccce0705127190e3	2	1	DL_test	14	DL_test	26			0		ga	1	972	6	6	antiphase_hc_ois.wav	3	6	4	noise_calib_stim_RIGHT.wav	2	18	blb_dichoticlistening_ga-ta.mp3	ga	ta	1	left
6.6.1	win	2023-06-27	10:43:45	0	0	63d15a2dccce0705127190e3	2	1	DL_test	14	DL_test	27			0		ba	1	1503	6	6	antiphase_hc_ois.wav	3	6	4	noise_calib_stim_RIGHT.wav	2	2	blb_dichoticlistening_ba-da.mp3	ba	da	1	left
6.6.1	win	2023-06-27	10:43:45	0	0	63d15a2dccce0705127190e3	2	1	DL_test	14	DL_test	28			0		da	1	986	6	6	antiphase_hc_ois.wav	3	6	4	noise_calib_stim_RIGHT.wav	2	8	blb_dichoticlistening_da-da.mp3	da	da	0	left
6.6.1	win	2023-06-27	10:43:45	0	0	63d15a2dccce0705127190e3	2	1	DL_test	14	DL_test	29			0		ka	1	1228	6	6	antiphase_hc_ois.wav	3	6	4	noise_calib_stim_RIGHT.wav	2	34	blb_dichoticlistening_ta-ka.mp3	ta	ka	1	right
6.6.1	win	2023-06-27	10:43:45	0	0	63d15a2dccce0705127190e3	2	1	DL_test	14	DL_test	30			0		ka	0	886	6	6	antiphase_hc_ois.wav	3	6	4	noise_calib_stim_RIGHT.wav	2	33	blb_dichoticlistening_ta-ga.mp3	ta	ga	1	other
6.6.1	win	2023-06-27	10:43:45	0	0	63d15a2dccce0705127190e3	2	1	DL_test	14	DL_test	31			0		ka	1	796	6	6	antiphase_hc_ois.wav	3	6	4	noise_calib_stim_RIGHT.wav	2	20	blb_dichoticlistening_ka-da.mp3	ka	da	1	left
6.6.1	win	2023-06-27	10:43:45	0	0	63d15a2dccce0705127190e3	2	1	DL_test	14	DL_test	32			0		ta	1	1071	6	6	antiphase_hc_ois.wav	3	6	4	noise_calib_stim_RIGHT.wav	2	12	blb_dichoticlistening_da-ta.mp3	da	ta	1	right
6.6.1	win	2023-06-27	10:43:45	0	0	63d15a2dccce0705127190e3	2	1	DL_test	14	DL_test	33			0		pa	1	1587	6	6	antiphase_hc_ois.wav	3	6	4	noise_calib_stim_RIGHT.wav	2	29	blb_dichoticlistening_pa-pa.mp3	pa	pa	0	left
6.6.1	win	2023-06-27	10:43:45	0	0	63d15a2dccce0705127190e3	2	1	DL_test	14	DL_test	34			0		ga	1	1085	6	6	antiphase_hc_ois.wav	3	6	4	noise_calib_stim_RIGHT.wav	2	15	blb_dichoticlistening_ga-ga.mp3	ga	ga	0	left
6.6.1	win	2023-06-27	10:43:45	0	0	63d15a2dccce0705127190e3	2	1	DL_test	14	DL_test	35			0		pa	1	1225	6	6	antiphase_hc_ois.wav	3	6	4	noise_calib_stim_RIGHT.wav	2	11	blb_dichoticlistening_da-pa.mp3	da	pa	1	right
6.6.1	win	2023-06-27	10:43:45	0	0	63d15a2dccce0705127190e3	2	1	DL_test	14	DL_test	36			0		ta	1	1169	6	6	antiphase_hc_ois.wav	3	6	4	noise_calib_stim_RIGHT.wav	2	36	blb_dichoticlistening_ta-ta.mp3	ta	ta	0	left
6.6.1	win	2023-06-27	10:43:45	0	0	63d15a2dccce0705127190e3	2	1	DL_test	15	DL_test	1			0		da	1	1003	6	6	antiphase_hc_ois.wav	3	6	4	noise_calib_stim_RIGHT.wav	2	8	blb_dichoticlistening_da-da.mp3	da	da	0	left
6.6.1	win	2023-06-27	10:43:45	0	0	63d15a2dccce0705127190e3	2	1	DL_test	15	DL_test	2			0		da	1	485	6	6	antiphase_hc_ois.wav	3	6	4	noise_calib_stim_RIGHT.wav	2	9	blb_dichoticlistening_da-ga.mp3	da	ga	1	left
6.6.1	win	2023-06-27	10:43:45	0	0	63d15a2dccce0705127190e3	2	1	DL_test	15	DL_test	3			0		ka	1	1065	6	6	antiphase_hc_ois.wav	3	6	4	noise_calib_stim_RIGHT.wav	2	19	blb_dichoticlistening_ka-ba.mp3	ka	ba	1	left
6.6.1	win	2023-06-27	10:43:45	0	0	63d15a2dccce0705127190e3	2	1	DL_test	15	DL_test	4			0		pa	1	1156	6	6	antiphase_hc_ois.wav	3	6	4	noise_calib_stim_RIGHT.wav	2	11	blb_dichoticlistening_da-pa.mp3	da	pa	1	right
6.6.1	win	2023-06-27	10:43:45	0	0	63d15a2dccce0705127190e3	2	1	DL_test	15	DL_test	5			0		pa	1	508	6	6	antiphase_hc_ois.wav	3	6	4	noise_calib_stim_RIGHT.wav	2	25	blb_dichoticlistening_pa-ba.mp3	pa	ba	1	left
6.6.1	win	2023-06-27	10:43:45	0	0	63d15a2dccce0705127190e3	2	1	DL_test	15	DL_test	6			0		ba	1	1387	6	6	antiphase_hc_ois.wav	3	6	4	noise_calib_stim_RIGHT.wav	2	1	blb_dichoticlistening_ba-ba.mp3	ba	ba	0	left
6.6.1	win	2023-06-27	10:43:45	0	0	63d15a2dccce0705127190e3	2	1	DL_test	15	DL_test	7			0		ka	0	1237	6	6	antiphase_hc_ois.wav	3	6	4	noise_calib_stim_RIGHT.wav	2	33	blb_dichoticlistening_ta-ga.mp3	ta	ga	1	other
6.6.1	win	2023-06-27	10:43:45	0	0	63d15a2dccce0705127190e3	2	1	DL_test	15	DL_test	8			0		pa	0	1804	6	6	antiphase_hc_ois.wav	3	6	4	noise_calib_stim_RIGHT.wav	2	31	blb_dichoticlistening_ta-ba.mp3	ta	ba	1	other
6.6.1	win	2023-06-27	10:43:45	0	0	63d15a2dccce0705127190e3	2	1	DL_test	15	DL_test	9			0		ba	1	1620	6	6	antiphase_hc_ois.wav	3	6	4	noise_calib_stim_RIGHT.wav	2	13	blb_dichoticlistening_ga-ba.mp3	ga	ba	1	right
6.6.1	win	2023-06-27	10:43:45	0	0	63d15a2dccce0705127190e3	2	1	DL_test	15	DL_test	10			0		ta	1	1260	6	6	antiphase_hc_ois.wav	3	6	4	noise_calib_stim_RIGHT.wav	2	32	blb_dichoticlistening_ta-da.mp3	ta	da	1	left
6.6.1	win	2023-06-27	10:43:45	0	0	63d15a2dccce0705127190e3	2	1	DL_test	15	DL_test	11			0		ka	1	1070	6	6	antiphase_hc_ois.wav	3	6	4	noise_calib_stim_RIGHT.wav	2	22	blb_dichoticlistening_ka-ka.mp3	ka	ka	0	left
6.6.1	win	2023-06-27	10:43:45	0	0	63d15a2dccce0705127190e3	2	1	DL_test	15	DL_test	12			0		pa	1	825	6	6	antiphase_hc_ois.wav	3	6	4	noise_calib_stim_RIGHT.wav	2	29	blb_dichoticlistening_pa-pa.mp3	pa	pa	0	left
6.6.1	win	2023-06-27	10:43:45	0	0	63d15a2dccce0705127190e3	2	1	DL_test	15	DL_test	13			0		ga	1	1342	6	6	antiphase_hc_ois.wav	3	6	4	noise_calib_stim_RIGHT.wav	2	18	blb_dichoticlistening_ga-ta.mp3	ga	ta	1	left
6.6.1	win	2023-06-27	10:43:45	0	0	63d15a2dccce0705127190e3	2	1	DL_test	15	DL_test	14			0		da	1	1251	6	6	antiphase_hc_ois.wav	3	6	4	noise_calib_stim_RIGHT.wav	2	7	blb_dichoticlistening_da-ba.mp3	da	ba	1	left
6.6.1	win	2023-06-27	10:43:45	0	0	63d15a2dccce0705127190e3	2	1	DL_test	15	DL_test	15			0		ka	1	999	6	6	antiphase_hc_ois.wav	3	6	4	noise_calib_stim_RIGHT.wav	2	34	blb_dichoticlistening_ta-ka.mp3	ta	ka	1	right
6.6.1	win	2023-06-27	10:43:45	0	0	63d15a2dccce0705127190e3	2	1	DL_test	15	DL_test	16			0		pa	1	829	6	6	antiphase_hc_ois.wav	3	6	4	noise_calib_stim_RIGHT.wav	2	30	blb_dichoticlistening_pa-ta.mp3	pa	ta	1	left
6.6.1	win	2023-06-27	10:43:45	0	0	63d15a2dccce0705127190e3	2	1	DL_test	15	DL_test	17			0		pa	1	769	6	6	antiphase_hc_ois.wav	3	6	4	noise_calib_stim_RIGHT.wav	2	23	blb_dichoticlistening_ka-pa.mp3	ka	pa	1	right
6.6.1	win	2023-06-27	10:43:45	0	0	63d15a2dccce0705127190e3	2	1	DL_test	15	DL_test	18			0		pa	1	570	6	6	antiphase_hc_ois.wav	3	6	4	noise_calib_stim_RIGHT.wav	2	28	blb_dichoticlistening_pa-ka.mp3	pa	ka	1	left
6.6.1	win	2023-06-27	10:43:45	0	0	63d15a2dccce0705127190e3	2	1	DL_test	15	DL_test	19			0		ga	1	1092	6	6	antiphase_hc_ois.wav	3	6	4	noise_calib_stim_RIGHT.wav	2	17	blb_dichoticlistening_ga-pa.mp3	ga	pa	1	left
6.6.1	win	2023-06-27	10:43:45	0	0	63d15a2dccce0705127190e3	2	1	DL_test	15	DL_test	20			0		da	1	1204	6	6	antiphase_hc_ois.wav	3	6	4	noise_calib_stim_RIGHT.wav	2	14	blb_dichoticlistening_ga-da.mp3	ga	da	1	right
6.6.1	win	2023-06-27	10:43:45	0	0	63d15a2dccce0705127190e3	2	1	DL_test	15	DL_test	21			0		ta	1	1005	6	6	antiphase_hc_ois.wav	3	6	4	noise_calib_stim_RIGHT.wav	2	12	blb_dichoticlistening_da-ta.mp3	da	ta	1	right
6.6.1	win	2023-06-27	10:43:45	0	0	63d15a2dccce0705127190e3	2	1	DL_test	15	DL_test	22			0		pa	0	1002	6	6	antiphase_hc_ois.wav	3	6	4	noise_calib_stim_RIGHT.wav	2	6	blb_dichoticlistening_ba-ta.mp3	ba	ta	1	other
6.6.1	win	2023-06-27	10:43:45	0	0	63d15a2dccce0705127190e3	2	1	DL_test	15	DL_test	23			0		ga	1	1294	6	6	antiphase_hc_ois.wav	3	6	4	noise_calib_stim_RIGHT.wav	2	16	blb_dichoticlistening_ga-ka.mp3	ga	ka	1	left
6.6.1	win	2023-06-27	10:43:45	0	0	63d15a2dccce0705127190e3	2	1	DL_test	15	DL_test	24			0		pa	0	1054	6	6	antiphase_hc_ois.wav	3	6	4	noise_calib_stim_RIGHT.wav	2	4	blb_dichoticlistening_ba-ka.mp3	ba	ka	1	other
6.6.1	win	2023-06-27	10:43:45	0	0	63d15a2dccce0705127190e3	2	1	DL_test	15	DL_test	25			0		ta	1	1013	6	6	antiphase_hc_ois.wav	3	6	4	noise_calib_stim_RIGHT.wav	2	36	blb_dichoticlistening_ta-ta.mp3	ta	ta	0	left
6.6.1	win	2023-06-27	10:43:45	0	0	63d15a2dccce0705127190e3	2	1	DL_test	15	DL_test	26			0		ta	1	804	6	6	antiphase_hc_ois.wav	3	6	4	noise_calib_stim_RIGHT.wav	2	35	blb_dichoticlistening_ta-pa.mp3	ta	pa	1	left
6.6.1	win	2023-06-27	10:43:45	0	0	63d15a2dccce0705127190e3	2	1	DL_test	15	DL_test	27			0		ka	1	1005	6	6	antiphase_hc_ois.wav	3	6	4	noise_calib_stim_RIGHT.wav	2	24	blb_dichoticlistening_ka-ta.mp3	ka	ta	1	left
6.6.1	win	2023-06-27	10:43:45	0	0	63d15a2dccce0705127190e3	2	1	DL_test	15	DL_test	28			0		pa	0	972	6	6	antiphase_hc_ois.wav	3	6	4	noise_calib_stim_RIGHT.wav	2	10	blb_dichoticlistening_da-ka.mp3	da	ka	1	other
6.6.1	win	2023-06-27	10:43:45	0	0	63d15a2dccce0705127190e3	2	1	DL_test	15	DL_test	29			0		pa	1	605	6	6	antiphase_hc_ois.wav	3	6	4	noise_calib_stim_RIGHT.wav	2	5	blb_dichoticlistening_ba-pa.mp3	ba	pa	1	right
6.6.1	win	2023-06-27	10:43:45	0	0	63d15a2dccce0705127190e3	2	1	DL_test	15	DL_test	30			0		ka	1	1166	6	6	antiphase_hc_ois.wav	3	6	4	noise_calib_stim_RIGHT.wav	2	21	blb_dichoticlistening_ka-ga.mp3	ka	ga	1	left
6.6.1	win	2023-06-27	10:43:45	0	0	63d15a2dccce0705127190e3	2	1	DL_test	15	DL_test	31			0		ba	1	1722	6	6	antiphase_hc_ois.wav	3	6	4	noise_calib_stim_RIGHT.wav	2	2	blb_dichoticlistening_ba-da.mp3	ba	da	1	left
6.6.1	win	2023-06-27	10:43:45	0	0	63d15a2dccce0705127190e3	2	1	DL_test	15	DL_test	32			0		pa	1	1252	6	6	antiphase_hc_ois.wav	3	6	4	noise_calib_stim_RIGHT.wav	2	26	blb_dichoticlistening_pa-da.mp3	pa	da	1	left
6.6.1	win	2023-06-27	10:43:45	0	0	63d15a2dccce0705127190e3	2	1	DL_test	15	DL_test	33			0		ka	1	792	6	6	antiphase_hc_ois.wav	3	6	4	noise_calib_stim_RIGHT.wav	2	20	blb_dichoticlistening_ka-da.mp3	ka	da	1	left
6.6.1	win	2023-06-27	10:43:45	0	0	63d15a2dccce0705127190e3	2	1	DL_test	15	DL_test	34			0		pa	1	973	6	6	antiphase_hc_ois.wav	3	6	4	noise_calib_stim_RIGHT.wav	2	27	blb_dichoticlistening_pa-ga.mp3	pa	ga	1	left
6.6.1	win	2023-06-27	10:43:45	0	0	63d15a2dccce0705127190e3	2	1	DL_test	15	DL_test	35			0		ga	1	1133	6	6	antiphase_hc_ois.wav	3	6	4	noise_calib_stim_RIGHT.wav	2	15	blb_dichoticlistening_ga-ga.mp3	ga	ga	0	left
6.6.1	win	2023-06-27	10:43:45	0	0	63d15a2dccce0705127190e3	2	1	DL_test	15	DL_test	36			0		ba	1	1821	6	6	antiphase_hc_ois.wav	3	6	4	noise_calib_stim_RIGHT.wav	2	3	blb_dichoticlistening_ba-ga.mp3	ba	ga	1	left
6.6.1	win	2023-06-27	10:43:45	0	0	63d15a2dccce0705127190e3	2	1	DL_test	16	DL_test	1			0		ta	1	1165	6	6	antiphase_hc_ois.wav	3	6	4	noise_calib_stim_RIGHT.wav	2	32	blb_dichoticlistening_ta-da.mp3	ta	da	1	left
6.6.1	win	2023-06-27	10:43:45	0	0	63d15a2dccce0705127190e3	2	1	DL_test	16	DL_test	2			0		pa	1	802	6	6	antiphase_hc_ois.wav	3	6	4	noise_calib_stim_RIGHT.wav	2	26	blb_dichoticlistening_pa-da.mp3	pa	da	1	left
6.6.1	win	2023-06-27	10:43:45	0	0	63d15a2dccce0705127190e3	2	1	DL_test	16	DL_test	3			0		ka	1	1101	6	6	antiphase_hc_ois.wav	3	6	4	noise_calib_stim_RIGHT.wav	2	16	blb_dichoticlistening_ga-ka.mp3	ga	ka	1	right
6.6.1	win	2023-06-27	10:43:45	0	0	63d15a2dccce0705127190e3	2	1	DL_test	16	DL_test	4			0		ga	1	822	6	6	antiphase_hc_ois.wav	3	6	4	noise_calib_stim_RIGHT.wav	2	14	blb_dichoticlistening_ga-da.mp3	ga	da	1	left
6.6.1	win	2023-06-27	10:43:45	0	0	63d15a2dccce0705127190e3	2	1	DL_test	16	DL_test	5			0		ga	1	1660	6	6	antiphase_hc_ois.wav	3	6	4	noise_calib_stim_RIGHT.wav	2	33	blb_dichoticlistening_ta-ga.mp3	ta	ga	1	right
6.6.1	win	2023-06-27	10:43:45	0	0	63d15a2dccce0705127190e3	2	1	DL_test	16	DL_test	6			0		pa	1	1310	6	6	antiphase_hc_ois.wav	3	6	4	noise_calib_stim_RIGHT.wav	2	27	blb_dichoticlistening_pa-ga.mp3	pa	ga	1	left
6.6.1	win	2023-06-27	10:43:45	0	0	63d15a2dccce0705127190e3	2	1	DL_test	16	DL_test	7			0		ga	1	1130	6	6	antiphase_hc_ois.wav	3	6	4	noise_calib_stim_RIGHT.wav	2	9	blb_dichoticlistening_da-ga.mp3	da	ga	1	right
6.6.1	win	2023-06-27	10:43:45	0	0	63d15a2dccce0705127190e3	2	1	DL_test	16	DL_test	8			0		ka	1	1355	6	6	antiphase_hc_ois.wav	3	6	4	noise_calib_stim_RIGHT.wav	2	34	blb_dichoticlistening_ta-ka.mp3	ta	ka	1	right
6.6.1	win	2023-06-27	10:43:45	0	0	63d15a2dccce0705127190e3	2	1	DL_test	16	DL_test	9			0		ba	1	1396	6	6	antiphase_hc_ois.wav	3	6	4	noise_calib_stim_RIGHT.wav	2	3	blb_dichoticlistening_ba-ga.mp3	ba	ga	1	left
6.6.1	win	2023-06-27	10:43:45	0	0	63d15a2dccce0705127190e3	2	1	DL_test	16	DL_test	10			0		da	1	1264	6	6	antiphase_hc_ois.wav	3	6	4	noise_calib_stim_RIGHT.wav	2	7	blb_dichoticlistening_da-ba.mp3	da	ba	1	left
6.6.1	win	2023-06-27	10:43:45	0	0	63d15a2dccce0705127190e3	2	1	DL_test	16	DL_test	11			0		ka	1	1301	6	6	antiphase_hc_ois.wav	3	6	4	noise_calib_stim_RIGHT.wav	2	23	blb_dichoticlistening_ka-pa.mp3	ka	pa	1	left
6.6.1	win	2023-06-27	10:43:45	0	0	63d15a2dccce0705127190e3	2	1	DL_test	16	DL_test	12			0		pa	1	1364	6	6	antiphase_hc_ois.wav	3	6	4	noise_calib_stim_RIGHT.wav	2	29	blb_dichoticlistening_pa-pa.mp3	pa	pa	0	left
6.6.1	win	2023-06-27	10:43:45	0	0	63d15a2dccce0705127190e3	2	1	DL_test	16	DL_test	13			0		ba	1	1786	6	6	antiphase_hc_ois.wav	3	6	4	noise_calib_stim_RIGHT.wav	2	1	blb_dichoticlistening_ba-ba.mp3	ba	ba	0	left
6.6.1	win	2023-06-27	10:43:45	0	0	63d15a2dccce0705127190e3	2	1	DL_test	16	DL_test	14			0		ka	1	1237	6	6	antiphase_hc_ois.wav	3	6	4	noise_calib_stim_RIGHT.wav	2	22	blb_dichoticlistening_ka-ka.mp3	ka	ka	0	left
6.6.1	win	2023-06-27	10:43:45	0	0	63d15a2dccce0705127190e3	2	1	DL_test	16	DL_test	15			0		pa	1	1128	6	6	antiphase_hc_ois.wav	3	6	4	noise_calib_stim_RIGHT.wav	2	5	blb_dichoticlistening_ba-pa.mp3	ba	pa	1	right
6.6.1	win	2023-06-27	10:43:45	0	0	63d15a2dccce0705127190e3	2	1	DL_test	16	DL_test	16			0		pa	1	1023	6	6	antiphase_hc_ois.wav	3	6	4	noise_calib_stim_RIGHT.wav	2	11	blb_dichoticlistening_da-pa.mp3	da	pa	1	right
6.6.1	win	2023-06-27	10:43:45	0	0	63d15a2dccce0705127190e3	2	1	DL_test	16	DL_test	17			0		da	1	1217	6	6	antiphase_hc_ois.wav	3	6	4	noise_calib_stim_RIGHT.wav	2	8	blb_dichoticlistening_da-da.mp3	da	da	0	left
6.6.1	win	2023-06-27	10:43:45	0	0	63d15a2dccce0705127190e3	2	1	DL_test	16	DL_test	18			0		ta	1	1186	6	6	antiphase_hc_ois.wav	3	6	4	noise_calib_stim_RIGHT.wav	2	36	blb_dichoticlistening_ta-ta.mp3	ta	ta	0	left
6.6.1	win	2023-06-27	10:43:45	0	0	63d15a2dccce0705127190e3	2	1	DL_test	16	DL_test	19			0		ta	1	769	6	6	antiphase_hc_ois.wav	3	6	4	noise_calib_stim_RIGHT.wav	2	35	blb_dichoticlistening_ta-pa.mp3	ta	pa	1	left
6.6.1	win	2023-06-27	10:43:45	0	0	63d15a2dccce0705127190e3	2	1	DL_test	16	DL_test	20			0		ta	1	893	6	6	antiphase_hc_ois.wav	3	6	4	noise_calib_stim_RIGHT.wav	2	6	blb_dichoticlistening_ba-ta.mp3	ba	ta	1	right
6.6.1	win	2023-06-27	10:43:45	0	0	63d15a2dccce0705127190e3	2	1	DL_test	16	DL_test	21			0		pa	1	1782	6	6	antiphase_hc_ois.wav	3	6	4	noise_calib_stim_RIGHT.wav	2	17	blb_dichoticlistening_ga-pa.mp3	ga	pa	1	right
6.6.1	win	2023-06-27	10:43:45	0	0	63d15a2dccce0705127190e3	2	1	DL_test	16	DL_test	22			0		ta	1	1065	6	6	antiphase_hc_ois.wav	3	6	4	noise_calib_stim_RIGHT.wav	2	31	blb_dichoticlistening_ta-ba.mp3	ta	ba	1	left
6.6.1	win	2023-06-27	10:43:45	0	0	63d15a2dccce0705127190e3	2	1	DL_test	16	DL_test	23			0		da	1	1666	6	6	antiphase_hc_ois.wav	3	6	4	noise_calib_stim_RIGHT.wav	2	10	blb_dichoticlistening_da-ka.mp3	da	ka	1	left
6.6.1	win	2023-06-27	10:43:45	0	0	63d15a2dccce0705127190e3	2	1	DL_test	16	DL_test	24			0		ka	1	1179	6	6	antiphase_hc_ois.wav	3	6	4	noise_calib_stim_RIGHT.wav	2	21	blb_dichoticlistening_ka-ga.mp3	ka	ga	1	left
6.6.1	win	2023-06-27	10:43:45	0	0	63d15a2dccce0705127190e3	2	1	DL_test	16	DL_test	25			0		da	1	1347	6	6	antiphase_hc_ois.wav	3	6	4	noise_calib_stim_RIGHT.wav	2	2	blb_dichoticlistening_ba-da.mp3	ba	da	1	right
6.6.1	win	2023-06-27	10:43:45	0	0	63d15a2dccce0705127190e3	2	1	DL_test	16	DL_test	26			0		ka	1	1075	6	6	antiphase_hc_ois.wav	3	6	4	noise_calib_stim_RIGHT.wav	2	20	blb_dichoticlistening_ka-da.mp3	ka	da	1	left
6.6.1	win	2023-06-27	10:43:45	0	0	63d15a2dccce0705127190e3	2	1	DL_test	16	DL_test	27			0		da	1	2150	6	6	antiphase_hc_ois.wav	3	6	4	noise_calib_stim_RIGHT.wav	2	12	blb_dichoticlistening_da-ta.mp3	da	ta	1	left
6.6.1	win	2023-06-27	10:43:45	0	0	63d15a2dccce0705127190e3	2	1	DL_test	16	DL_test	28			0		pa	1	939	6	6	antiphase_hc_ois.wav	3	6	4	noise_calib_stim_RIGHT.wav	2	28	blb_dichoticlistening_pa-ka.mp3	pa	ka	1	left
6.6.1	win	2023-06-27	10:43:45	0	0	63d15a2dccce0705127190e3	2	1	DL_test	16	DL_test	29			0		ga	1	1596	6	6	antiphase_hc_ois.wav	3	6	4	noise_calib_stim_RIGHT.wav	2	18	blb_dichoticlistening_ga-ta.mp3	ga	ta	1	left
6.6.1	win	2023-06-27	10:43:45	0	0	63d15a2dccce0705127190e3	2	1	DL_test	16	DL_test	30			0		ga	1	578	6	6	antiphase_hc_ois.wav	3	6	4	noise_calib_stim_RIGHT.wav	2	15	blb_dichoticlistening_ga-ga.mp3	ga	ga	0	left
6.6.1	win	2023-06-27	10:43:45	0	0	63d15a2dccce0705127190e3	2	1	DL_test	16	DL_test	31			0		ka	1	1502	6	6	antiphase_hc_ois.wav	3	6	4	noise_calib_stim_RIGHT.wav	2	19	blb_dichoticlistening_ka-ba.mp3	ka	ba	1	left
6.6.1	win	2023-06-27	10:43:45	0	0	63d15a2dccce0705127190e3	2	1	DL_test	16	DL_test	32			0		ka	1	1032	6	6	antiphase_hc_ois.wav	3	6	4	noise_calib_stim_RIGHT.wav	2	24	blb_dichoticlistening_ka-ta.mp3	ka	ta	1	left
6.6.1	win	2023-06-27	10:43:45	0	0	63d15a2dccce0705127190e3	2	1	DL_test	16	DL_test	33			0		pa	1	1147	6	6	antiphase_hc_ois.wav	3	6	4	noise_calib_stim_RIGHT.wav	2	30	blb_dichoticlistening_pa-ta.mp3	pa	ta	1	left
6.6.1	win	2023-06-27	10:43:45	0	0	63d15a2dccce0705127190e3	2	1	DL_test	16	DL_test	34			0		ga	1	1043	6	6	antiphase_hc_ois.wav	3	6	4	noise_calib_stim_RIGHT.wav	2	13	blb_dichoticlistening_ga-ba.mp3	ga	ba	1	left
6.6.1	win	2023-06-27	10:43:45	0	0	63d15a2dccce0705127190e3	2	1	DL_test	16	DL_test	35			0		pa	1	1139	6	6	antiphase_hc_ois.wav	3	6	4	noise_calib_stim_RIGHT.wav	2	25	blb_dichoticlistening_pa-ba.mp3	pa	ba	1	left
6.6.1	win	2023-06-27	10:43:45	0	0	63d15a2dccce0705127190e3	2	1	DL_test	16	DL_test	36			0		ka	1	1286	6	6	antiphase_hc_ois.wav	3	6	4	noise_calib_stim_RIGHT.wav	2	4	blb_dichoticlistening_ba-ka.mp3	ba	ka	1	right
6.6.1	win	2023-06-27	10:43:45	0	0	63d15a2dccce0705127190e3	2	1	practice_z	22					0		Ctrl+'Q'			6	6	antiphase_hc_ois.wav	3	6	4	noise_calib_stim_RIGHT.wav	2	4	blb_dichoticlistening_ba-ka.mp3	ba	ka	1	right