build	computer.platform	date	time	timestamp	time_elapsed_ms	subject	group	session	blockcode	blocknum	trialcode	trialnum	stimulus_left	stimulus_right	stim_index	target_present	response	correct	latency	headphonecheck_countTestTrials	headphonecheck_index	headphonecheck_testSound	headphonecheck_correctResponse	stereocheck_countTestTrials	stereocheck_index	stereocheck_testSound	stereocheck_correctResponse	DL_index	DL_soundfile	DL_leftSound	DL_rightSound	DL_dualSound	DL_choice
6.6.1	and	2023-06-02	06:23:58	0	0	5cb489ff0cd1ed0017465d19	2	1	headphonecheck_calibration	4	headphonecheck_calibrationIntro	1			0		calibrationButton	0	2773	0	0			0	0			1				0	
build	computer.platform	date	time	timestamp	time_elapsed_ms	subject	group	session	blockcode	blocknum	trialcode	trialnum	stimulus_left	stimulus_right	stim_index	target_present	response	correct	latency	headphonecheck_countTestTrials	headphonecheck_index	headphonecheck_testSound	headphonecheck_correctResponse	stereocheck_countTestTrials	stereocheck_index	stereocheck_testSound	stereocheck_correctResponse	DL_index	DL_soundfile	DL_leftSound	DL_rightSound	DL_dualSound	DL_choice
6.6.1	and	2023-06-02	06:23:58	0	0	5cb489ff0cd1ed0017465d19	2	1	headphonecheck_calibration	4	headphonecheck_calibrationIntro	1			0		calibrationButton	0	2773	0	0			0	0			1				0	
6.6.1	and	2023-06-02	06:23:58	0	0	5cb489ff0cd1ed0017465d19	2	1	headphonecheck_testphase	5	test_collectResponse	3			0		third	1	876	1	6	antiphase_hc_ois.wav	3	0	0			1				0	
build	computer.platform	date	time	timestamp	time_elapsed_ms	subject	group	session	blockcode	blocknum	trialcode	trialnum	stimulus_left	stimulus_right	stim_index	target_present	response	correct	latency	headphonecheck_countTestTrials	headphonecheck_index	headphonecheck_testSound	headphonecheck_correctResponse	stereocheck_countTestTrials	stereocheck_index	stereocheck_testSound	stereocheck_correctResponse	DL_index	DL_soundfile	DL_leftSound	DL_rightSound	DL_dualSound	DL_choice
6.6.1	and	2023-06-02	06:23:58	0	0	5cb489ff0cd1ed0017465d19	2	1	headphonecheck_calibration	4	headphonecheck_calibrationIntro	1			0		calibrationButton	0	2773	0	0			0	0			1				0	
6.6.1	and	2023-06-02	06:23:58	0	0	5cb489ff0cd1ed0017465d19	2	1	headphonecheck_testphase	5	test_collectResponse	3			0		third	1	876	1	6	antiphase_hc_ois.wav	3	0	0			1				0	
6.6.1	and	2023-06-02	06:23:58	0	0	5cb489ff0cd1ed0017465d19	2	1	headphonecheck_testphase	5	test_collectResponse	6			0		second	1	725	2	5	antiphase_hc_osi.wav	2	0	0			1				0	
build	computer.platform	date	time	timestamp	time_elapsed_ms	subject	group	session	blockcode	blocknum	trialcode	trialnum	stimulus_left	stimulus_right	stim_index	target_present	response	correct	latency	headphonecheck_countTestTrials	headphonecheck_index	headphonecheck_testSound	headphonecheck_correctResponse	stereocheck_countTestTrials	stereocheck_index	stereocheck_testSound	stereocheck_correctResponse	DL_index	DL_soundfile	DL_leftSound	DL_rightSound	DL_dualSound	DL_choice
6.6.1	and	2023-06-02	06:23:58	0	0	5cb489ff0cd1ed0017465d19	2	1	headphonecheck_calibration	4	headphonecheck_calibrationIntro	1			0		calibrationButton	0	2773	0	0			0	0			1				0	
6.6.1	and	2023-06-02	06:23:58	0	0	5cb489ff0cd1ed0017465d19	2	1	headphonecheck_testphase	5	test_collectResponse	3			0		third	1	876	1	6	antiphase_hc_ois.wav	3	0	0			1				0	
6.6.1	and	2023-06-02	06:23:58	0	0	5cb489ff0cd1ed0017465d19	2	1	headphonecheck_testphase	5	test_collectResponse	6			0		second	1	725	2	5	antiphase_hc_osi.wav	2	0	0			1				0	
6.6.1	and	2023-06-02	06:23:58	0	0	5cb489ff0cd1ed0017465d19	2	1	headphonecheck_testphase	5	test_collectResponse	9			0		third	1	718	3	2	antiphase_hc_ios.wav	3	0	0			1				0	
build	computer.platform	date	time	timestamp	time_elapsed_ms	subject	group	session	blockcode	blocknum	trialcode	trialnum	stimulus_left	stimulus_right	stim_index	target_present	response	correct	latency	headphonecheck_countTestTrials	headphonecheck_index	headphonecheck_testSound	headphonecheck_correctResponse	stereocheck_countTestTrials	stereocheck_index	stereocheck_testSound	stereocheck_correctResponse	DL_index	DL_soundfile	DL_leftSound	DL_rightSound	DL_dualSound	DL_choice
6.6.1	and	2023-06-02	06:23:58	0	0	5cb489ff0cd1ed0017465d19	2	1	headphonecheck_calibration	4	headphonecheck_calibrationIntro	1			0		calibrationButton	0	2773	0	0			0	0			1				0	
6.6.1	and	2023-06-02	06:23:58	0	0	5cb489ff0cd1ed0017465d19	2	1	headphonecheck_testphase	5	test_collectResponse	3			0		third	1	876	1	6	antiphase_hc_ois.wav	3	0	0			1				0	
6.6.1	and	2023-06-02	06:23:58	0	0	5cb489ff0cd1ed0017465d19	2	1	headphonecheck_testphase	5	test_collectResponse	6			0		second	1	725	2	5	antiphase_hc_osi.wav	2	0	0			1				0	
6.6.1	and	2023-06-02	06:23:58	0	0	5cb489ff0cd1ed0017465d19	2	1	headphonecheck_testphase	5	test_collectResponse	9			0		third	1	718	3	2	antiphase_hc_ios.wav	3	0	0			1				0	
6.6.1	and	2023-06-02	06:23:58	0	0	5cb489ff0cd1ed0017465d19	2	1	headphonecheck_testphase	5	test_collectResponse	12			0		second	1	890	4	1	antiphase_hc_iso.wav	2	0	0			1				0	
build	computer.platform	date	time	timestamp	time_elapsed_ms	subject	group	session	blockcode	blocknum	trialcode	trialnum	stimulus_left	stimulus_right	stim_index	target_present	response	correct	latency	headphonecheck_countTestTrials	headphonecheck_index	headphonecheck_testSound	headphonecheck_correctResponse	stereocheck_countTestTrials	stereocheck_index	stereocheck_testSound	stereocheck_correctResponse	DL_index	DL_soundfile	DL_leftSound	DL_rightSound	DL_dualSound	DL_choice
6.6.1	and	2023-06-02	06:23:58	0	0	5cb489ff0cd1ed0017465d19	2	1	headphonecheck_calibration	4	headphonecheck_calibrationIntro	1			0		calibrationButton	0	2773	0	0			0	0			1				0	
6.6.1	and	2023-06-02	06:23:58	0	0	5cb489ff0cd1ed0017465d19	2	1	headphonecheck_testphase	5	test_collectResponse	3			0		third	1	876	1	6	antiphase_hc_ois.wav	3	0	0			1				0	
6.6.1	and	2023-06-02	06:23:58	0	0	5cb489ff0cd1ed0017465d19	2	1	headphonecheck_testphase	5	test_collectResponse	6			0		second	1	725	2	5	antiphase_hc_osi.wav	2	0	0			1				0	
6.6.1	and	2023-06-02	06:23:58	0	0	5cb489ff0cd1ed0017465d19	2	1	headphonecheck_testphase	5	test_collectResponse	9			0		third	1	718	3	2	antiphase_hc_ios.wav	3	0	0			1				0	
6.6.1	and	2023-06-02	06:23:58	0	0	5cb489ff0cd1ed0017465d19	2	1	headphonecheck_testphase	5	test_collectResponse	12			0		second	1	890	4	1	antiphase_hc_iso.wav	2	0	0			1				0	
6.6.1	and	2023-06-02	06:23:58	0	0	5cb489ff0cd1ed0017465d19	2	1	headphonecheck_testphase	5	test_collectResponse	15			0		first	1	852	5	4	antiphase_hc_sio.wav	1	0	0			1				0	
build	computer.platform	date	time	timestamp	time_elapsed_ms	subject	group	session	blockcode	blocknum	trialcode	trialnum	stimulus_left	stimulus_right	stim_index	target_present	response	correct	latency	headphonecheck_countTestTrials	headphonecheck_index	headphonecheck_testSound	headphonecheck_correctResponse	stereocheck_countTestTrials	stereocheck_index	stereocheck_testSound	stereocheck_correctResponse	DL_index	DL_soundfile	DL_leftSound	DL_rightSound	DL_dualSound	DL_choice
6.6.1	and	2023-06-02	06:23:58	0	0	5cb489ff0cd1ed0017465d19	2	1	headphonecheck_calibration	4	headphonecheck_calibrationIntro	1			0		calibrationButton	0	2773	0	0			0	0			1				0	
6.6.1	and	2023-06-02	06:23:58	0	0	5cb489ff0cd1ed0017465d19	2	1	headphonecheck_testphase	5	test_collectResponse	3			0		third	1	876	1	6	antiphase_hc_ois.wav	3	0	0			1				0	
6.6.1	and	2023-06-02	06:23:58	0	0	5cb489ff0cd1ed0017465d19	2	1	headphonecheck_testphase	5	test_collectResponse	6			0		second	1	725	2	5	antiphase_hc_osi.wav	2	0	0			1				0	
6.6.1	and	2023-06-02	06:23:58	0	0	5cb489ff0cd1ed0017465d19	2	1	headphonecheck_testphase	5	test_collectResponse	9			0		third	1	718	3	2	antiphase_hc_ios.wav	3	0	0			1				0	
6.6.1	and	2023-06-02	06:23:58	0	0	5cb489ff0cd1ed0017465d19	2	1	headphonecheck_testphase	5	test_collectResponse	12			0		second	1	890	4	1	antiphase_hc_iso.wav	2	0	0			1				0	
6.6.1	and	2023-06-02	06:23:58	0	0	5cb489ff0cd1ed0017465d19	2	1	headphonecheck_testphase	5	test_collectResponse	15			0		first	1	852	5	4	antiphase_hc_sio.wav	1	0	0			1				0	
6.6.1	and	2023-06-02	06:23:58	0	0	5cb489ff0cd1ed0017465d19	2	1	headphonecheck_testphase	5	test_collectResponse	18			0		first	1	757	6	3	antiphase_hc_soi.wav	1	0	0			1				0	
build	computer.platform	date	time	timestamp	time_elapsed_ms	subject	group	session	blockcode	blocknum	trialcode	trialnum	stimulus_left	stimulus_right	stim_index	target_present	response	correct	latency	headphonecheck_countTestTrials	headphonecheck_index	headphonecheck_testSound	headphonecheck_correctResponse	stereocheck_countTestTrials	stereocheck_index	stereocheck_testSound	stereocheck_correctResponse	DL_index	DL_soundfile	DL_leftSound	DL_rightSound	DL_dualSound	DL_choice
6.6.1	and	2023-06-02	06:23:58	0	0	5cb489ff0cd1ed0017465d19	2	1	headphonecheck_calibration	4	headphonecheck_calibrationIntro	1			0		calibrationButton	0	2773	0	0			0	0			1				0	
6.6.1	and	2023-06-02	06:23:58	0	0	5cb489ff0cd1ed0017465d19	2	1	headphonecheck_testphase	5	test_collectResponse	3			0		third	1	876	1	6	antiphase_hc_ois.wav	3	0	0			1				0	
6.6.1	and	2023-06-02	06:23:58	0	0	5cb489ff0cd1ed0017465d19	2	1	headphonecheck_testphase	5	test_collectResponse	6			0		second	1	725	2	5	antiphase_hc_osi.wav	2	0	0			1				0	
6.6.1	and	2023-06-02	06:23:58	0	0	5cb489ff0cd1ed0017465d19	2	1	headphonecheck_testphase	5	test_collectResponse	9			0		third	1	718	3	2	antiphase_hc_ios.wav	3	0	0			1				0	
6.6.1	and	2023-06-02	06:23:58	0	0	5cb489ff0cd1ed0017465d19	2	1	headphonecheck_testphase	5	test_collectResponse	12			0		second	1	890	4	1	antiphase_hc_iso.wav	2	0	0			1				0	
6.6.1	and	2023-06-02	06:23:58	0	0	5cb489ff0cd1ed0017465d19	2	1	headphonecheck_testphase	5	test_collectResponse	15			0		first	1	852	5	4	antiphase_hc_sio.wav	1	0	0			1				0	
6.6.1	and	2023-06-02	06:23:58	0	0	5cb489ff0cd1ed0017465d19	2	1	headphonecheck_testphase	5	test_collectResponse	18			0		first	1	757	6	3	antiphase_hc_soi.wav	1	0	0			1				0	
6.6.1	and	2023-06-02	06:23:58	0	0	5cb489ff0cd1ed0017465d19	2	1	stereocheck_calibration	7	stereocheck_calibrationIntro	1			0		stereocheck_calibrationButton	0	5317	6	3	antiphase_hc_soi.wav	1	0	0			1				0	
build	computer.platform	date	time	timestamp	time_elapsed_ms	subject	group	session	blockcode	blocknum	trialcode	trialnum	stimulus_left	stimulus_right	stim_index	target_present	response	correct	latency	headphonecheck_countTestTrials	headphonecheck_index	headphonecheck_testSound	headphonecheck_correctResponse	stereocheck_countTestTrials	stereocheck_index	stereocheck_testSound	stereocheck_correctResponse	DL_index	DL_soundfile	DL_leftSound	DL_rightSound	DL_dualSound	DL_choice
6.6.1	and	2023-06-02	06:23:58	0	0	5cb489ff0cd1ed0017465d19	2	1	headphonecheck_calibration	4	headphonecheck_calibrationIntro	1			0		calibrationButton	0	2773	0	0			0	0			1				0	
build	computer.platform	date	time	timestamp	time_elapsed_ms	subject	group	session	blockcode	blocknum	trialcode	trialnum	stimulus_left	stimulus_right	stim_index	target_present	response	correct	latency	headphonecheck_countTestTrials	headphonecheck_index	headphonecheck_testSound	headphonecheck_correctResponse	stereocheck_countTestTrials	stereocheck_index	stereocheck_testSound	stereocheck_correctResponse	DL_index	DL_soundfile	DL_leftSound	DL_rightSound	DL_dualSound	DL_choice
6.6.1	and	2023-06-02	06:23:58	0	0	5cb489ff0cd1ed0017465d19	2	1	headphonecheck_calibration	4	headphonecheck_calibrationIntro	1			0		calibrationButton	0	2773	0	0			0	0			1				0	
6.6.1	and	2023-06-02	06:23:58	0	0	5cb489ff0cd1ed0017465d19	2	1	headphonecheck_testphase	5	test_collectResponse	3			0		third	1	876	1	6	antiphase_hc_ois.wav	3	0	0			1				0	
build	computer.platform	date	time	timestamp	time_elapsed_ms	subject	group	session	blockcode	blocknum	trialcode	trialnum	stimulus_left	stimulus_right	stim_index	target_present	response	correct	latency	headphonecheck_countTestTrials	headphonecheck_index	headphonecheck_testSound	headphonecheck_correctResponse	stereocheck_countTestTrials	stereocheck_index	stereocheck_testSound	stereocheck_correctResponse	DL_index	DL6.6.1	and	2023-06-02	06:23:58	0	0	5cb489ff0cd1ed0017465d19	2	1	stereocheck_testphase	8	stereocheck_test_collectResponse	3			0		stereocheck_right	1	331	6	3	antiphase_hc_soi.wav	1	1	4	noise_calib_stim_RIGHT.wav	2	1				0	
build	computer.platform	date	time	timestamp	time_elapsed_ms	subject	group	session	blockcode	blocknum	trialcode	trialnum	stimulus_left	stimulus_right	stim_index	target_present	response	correct	latency	headphonecheck_countTestTrials	headphonecheck_index	headphonecheck_testSound	headphonecheck_correctResponse	stereocheck_countTestTrials	stereocheck_index	stereocheck_testSound	stereocheck_correctResponse	DL_index	DL_soundfile	DL_leftSound	DL_rightSound	DL_dualSound	DL_choice
6.6.1	and	2023-06-02	06:23:58	0	0	5cb489ff0cd1ed0017465d19	2	1	headphonecheck_calibration	4	headphonecheck_calibrationIntro	1			0		calibrationButton	0	2773	0	0			0	0			1				0	
build	computer.platform	date	time	timestamp	time_elapsed_ms	subject	group	session	blockcode	blocknum	trialcode	trialnum	stimulus_left	stimulus_right	stim_index	target_present	response	correct	latency	headphonecheck_countTestTrials	headphonecheck_index	headphonecheck_testSound	headphonecheck_correctResponse	stereocheck_countTestTrials	stereocheck_index	stereocheck_testSound	stereocheck_correctResponse	DL_index	DL_soundfile	DL_leftSound	DL_rightSound	DL_dualSound	DL_choice
6.6.1	and	2023-06-02	06:23:58	0	0	5cb489ff0cd1ed0017465d19	2	1	headphonecheck_calibration	4	headphonecheck_calibrationIntro	1			0		calibrationButton	0	2773	0	0			0	0			1				0	
6.6.1	and	2023-06-02	06:23:58	0	0	5cb489ff0cd1ed0017465d19	2	1	headphonecheck_testphase	5	test_collectResponse	3			0		third	1	876	1	6	antiphase_hc_ois.wav	3	0	0			1				0	
build	computer.platform	date	time	timestamp	time_elapsed_ms	subject	group	session	blockcode	blocknum	trialcode	trialnum	stimulus_left	stimulus_right	stim_index	target_present	response	correct	latency	headphonecheck_countTestTrials	headphonecheck_index	headphonecheck_testSound	headphonecheck_correctResponse	stereocheck_countTestTrials	stereocheck_index	stereocheck_testSound	stereocheck_correctResponse	DL_index	DL6.6.1	and	2023-06-02	06:23:58	0	0	5cb489ff0cd1ed0017465d19	2	1	stereocheck_testphase	8	stereocheck_test_collectResponse	3			0		stereocheck_right	1	331	6	3	antiphase_hc_soi.wav	1	1	4	noise_calib_stim_RIGHT.wav	2	1				0	
6.6.1	and	2023-06-02	06:23:58	0	0	5cb489ff0cd1ed0017465d19	2	1	stereocheck_testphase	8	stereocheck_test_collectResponse	6			0		stereocheck_left	1	856	6	3	antiphase_hc_soi.wav	1	2	1	noise_calib_stim_LEFT.wav	1	1				0	
build	computer.platform	date	time	timestamp	time_elapsed_ms	subject	group	session	blockcode	blocknum	trialcode	trialnum	stimulus_left	stimulus_right	stim_index	target_present	response	correct	latency	headphonecheck_countTestTrials	headphonecheck_index	headphonecheck_testSound	headphonecheck_correctResponse	stereocheck_countTestTrials	stereocheck_index	stereocheck_testSound	stereocheck_correctResponse	DL_index	DL_soundfile	DL_leftSound	DL_rightSound	DL_dualSound	DL_choice
6.6.1	and	2023-06-02	06:23:58	0	0	5cb489ff0cd1ed0017465d19	2	1	headphonecheck_calibration	4	headphonecheck_calibrationIntro	1			0		calibrationButton	0	2773	0	0			0	0			1				0	
build	computer.platform	date	time	timestamp	time_elapsed_ms	subject	group	session	blockcode	blocknum	trialcode	trialnum	stimulus_left	stimulus_right	stim_index	target_present	response	correct	latency	headphonecheck_countTestTrials	headphonecheck_index	headphonecheck_testSound	headphonecheck_correctResponse	stereocheck_countTestTrials	stereocheck_index	stereocheck_testSound	stereocheck_correctResponse	DL_index	DL_soundfile	DL_leftSound	DL_rightSound	DL_dualSound	DL_choice
6.6.1	and	2023-06-02	06:23:58	0	0	5cb489ff0cd1ed0017465d19	2	1	headphonecheck_calibration	4	headphonecheck_calibrationIntro	1			0		calibrationButton	0	2773	0	0			0	0			1				0	
6.6.1	and	2023-06-02	06:23:58	0	0	5cb489ff0cd1ed0017465d19	2	1	headphonecheck_testphase	5	test_collectResponse	3			0		third	1	876	1	6	antiphase_hc_ois.wav	3	0	0			1				0	
build	computer.platform	date	time	timestamp	time_elapsed_ms	subject	group	session	blockcode	blocknum	trialcode	trialnum	stimulus_left	stimulus_right	stim_index	target_present	response	correct	latency	headphonecheck_countTestTrials	headphonecheck_index	headphonecheck_testSound	headphonecheck_correctResponse	stereocheck_countTestTrials	stereocheck_index	stereocheck_testSound	stereocheck_correctResponse	DL_index	DL6.6.1	and	2023-06-02	06:23:58	0	0	5cb489ff0cd1ed0017465d19	2	1	stereocheck_testphase	8	stereocheck_test_collectResponse	3			0		stereocheck_right	1	331	6	3	antiphase_hc_soi.wav	1	1	4	noise_calib_stim_RIGHT.wav	2	1				0	
6.6.1	and	2023-06-02	06:23:58	0	0	5cb489ff0cd1ed0017465d19	2	1	stereocheck_testphase	8	stereocheck_test_collectResponse	6			0		stereocheck_left	1	856	6	3	antiphase_hc_soi.wav	1	2	1	noise_calib_stim_LEFT.wav	1	1				0	
6.6.1	and	2023-06-02	06:23:58	0	0	5cb489ff0cd1ed0017465d19	2	1	stereocheck_testphase	8	stereocheck_test_collectResponse	9			0		stereocheck_right	1	1198	6	3	antiphase_hc_soi.wav	1	3	6	noise_calib_stim_RIGHT.wav	2	1				0	
build	computer.platform	date	time	timestamp	time_elapsed_ms	subject	group	session	blockcode	blocknum	trialcode	trialnum	stimulus_left	stimulus_right	stim_index	target_present	response	correct	latency	headphonecheck_countTestTrials	headphonecheck_index	headphonecheck_testSound	headphonecheck_correctResponse	stereocheck_countTestTrials	stereocheck_index	stereocheck_testSound	stereocheck_correctResponse	DL_index	DL_soundfile	DL_leftSound	DL_rightSound	DL_dualSound	DL_choice
6.6.1	and	2023-06-02	06:23:58	0	0	5cb489ff0cd1ed0017465d19	2	1	headphonecheck_calibration	4	headphonecheck_calibrationIntro	1			0		calibrationButton	0	2773	0	0			0	0			1				0	
build	computer.platform	date	time	timestamp	time_elapsed_ms	subject	group	session	blockcode	blocknum	trialcode	trialnum	stimulus_left	stimulus_right	stim_index	target_present	response	correct	latency	headphonecheck_countTestTrials	headphonecheck_index	headphonecheck_testSound	headphonecheck_correctResponse	stereocheck_countTestTrials	stereocheck_index	stereocheck_testSound	stereocheck_correctResponse	DL_index	DL_soundfile	DL_leftSound	DL_rightSound	DL_dualSound	DL_choice
6.6.1	and	2023-06-02	06:23:58	0	0	5cb489ff0cd1ed0017465d19	2	1	headphonecheck_calibration	4	headphonecheck_calibrationIntro	1			0		calibrationButton	0	2773	0	0			0	0			1				0	
6.6.1	and	2023-06-02	06:23:58	0	0	5cb489ff0cd1ed0017465d19	2	1	headphonecheck_testphase	5	test_collectResponse	3			0		third	1	876	1	6	antiphase_hc_ois.wav	3	0	0			1				0	
build	computer.platform	date	time	timestamp	time_elapsed_ms	subject	group	session	blockcode	blocknum	trialcode	trialnum	stimulus_left	stimulus_right	stim_index	target_present	response	correct	latency	headphonecheck_countTestTrials	headphonecheck_index	headphonecheck_testSound	headphonecheck_correctResponse	stereocheck_countTestTrials	stereocheck_index	stereocheck_testSound	stereocheck_correctResponse	DL_index	DL6.6.1	and	2023-06-02	06:23:58	0	0	5cb489ff0cd1ed0017465d19	2	1	stereocheck_testphase	8	stereocheck_test_collectResponse	3			0		stereocheck_right	1	331	6	3	antiphase_hc_soi.wav	1	1	4	noise_calib_stim_RIGHT.wav	2	1				0	
6.6.1	and	2023-06-02	06:23:58	0	0	5cb489ff0cd1ed0017465d19	2	1	stereocheck_testphase	8	stereocheck_test_collectResponse	6			0		stereocheck_left	1	856	6	3	antiphase_hc_soi.wav	1	2	1	noise_calib_stim_LEFT.wav	1	1				0	
6.6.1	and	2023-06-02	06:23:58	0	0	5cb489ff0cd1ed0017465d19	2	1	stereocheck_testphase	8	stereocheck_test_collectResponse	9			0		stereocheck_right	1	1198	6	3	antiphase_hc_soi.wav	1	3	6	noise_calib_stim_RIGHT.wav	2	1				0	
6.6.1	and	2023-06-02	06:23:58	0	0	5cb489ff0cd1ed0017465d19	2	1	stereocheck_testphase	8	stereocheck_test_collectResponse	12			0		stereocheck_left	1	498	6	3	antiphase_hc_soi.wav	1	4	2	noise_calib_stim_LEFT.wav	1	1				0	
build	computer.platform	date	time	timestamp	time_elapsed_ms	subject	group	session	blockcode	blocknum	trialcode	trialnum	stimulus_left	stimulus_right	stim_index	target_present	response	correct	latency	headphonecheck_countTestTrials	headphonecheck_index	headphonecheck_testSound	headphonecheck_correctResponse	stereocheck_countTestTrials	stereocheck_index	stereocheck_testSound	stereocheck_correctResponse	DL_index	DL_soundfile	DL_leftSound	DL_rightSound	DL_dualSound	DL_choice
6.6.1	and	2023-06-02	06:23:58	0	0	5cb489ff0cd1ed0017465d19	2	1	headphonecheck_calibration	4	headphonecheck_calibrationIntro	1			0		calibrationButton	0	2773	0	0			0	0			1				0	
build	computer.platform	date	time	timestamp	time_elapsed_ms	subject	group	session	blockcode	blocknum	trialcode	trialnum	stimulus_left	stimulus_right	stim_index	target_present	response	correct	latency	headphonecheck_countTestTrials	headphonecheck_index	headphonecheck_testSound	headphonecheck_correctResponse	stereocheck_countTestTrials	stereocheck_index	stereocheck_testSound	stereocheck_correctResponse	DL_index	DL_soundfile	DL_leftSound	DL_rightSound	DL_dualSound	DL_choice
6.6.1	and	2023-06-02	06:23:58	0	0	5cb489ff0cd1ed0017465d19	2	1	headphonecheck_calibration	4	headphonecheck_calibrationIntro	1			0		calibrationButton	0	2773	0	0			0	0			1				0	
6.6.1	and	2023-06-02	06:23:58	0	0	5cb489ff0cd1ed0017465d19	2	1	headphonecheck_testphase	5	test_collectResponse	3			0		third	1	876	1	6	antiphase_hc_ois.wav	3	0	0			1				0	
build	computer.platform	date	time	timestamp	time_elapsed_ms	subject	group	session	blockcode	blocknum	trialcode	trialnum	stimulus_left	stimulus_right	stim_index	target_present	response	correct	latency	headphonecheck_countTestTrials	headphonecheck_index	headphonecheck_testSound	headphonecheck_correctResponse	stereocheck_countTestTrials	stereocheck_index	stereocheck_testSound	stereocheck_correctResponse	DL_index	DL6.6.1	and	2023-06-02	06:23:58	0	0	5cb489ff0cd1ed0017465d19	2	1	stereocheck_testphase	8	stereocheck_test_collectResponse	3			0		stereocheck_right	1	331	6	3	antiphase_hc_soi.wav	1	1	4	noise_calib_stim_RIGHT.wav	2	1				0	
6.6.1	and	2023-06-02	06:23:58	0	0	5cb489ff0cd1ed0017465d19	2	1	stereocheck_testphase	8	stereocheck_test_collectResponse	6			0		stereocheck_left	1	856	6	3	antiphase_hc_soi.wav	1	2	1	noise_calib_stim_LEFT.wav	1	1				0	
6.6.1	and	2023-06-02	06:23:58	0	0	5cb489ff0cd1ed0017465d19	2	1	stereocheck_testphase	8	stereocheck_test_collectResponse	9			0		stereocheck_right	1	1198	6	3	antiphase_hc_soi.wav	1	3	6	noise_calib_stim_RIGHT.wav	2	1				0	
6.6.1	and	2023-06-02	06:23:58	0	0	5cb489ff0cd1ed0017465d19	2	1	stereocheck_testphase	8	stereocheck_test_collectResponse	12			0		stereocheck_left	1	498	6	3	antiphase_hc_soi.wav	1	4	2	noise_calib_stim_LEFT.wav	1	1				0	
6.6.1	and	2023-06-02	06:23:58	0	0	5cb489ff0cd1ed0017465d19	2	1	stereocheck_testphase	8	stereocheck_test_collectResponse	15			0		stereocheck_right	1	495	6	3	antiphase_hc_soi.wav	1	5	5	noise_calib_stim_RIGHT.wav	2	1				0	
build	computer.platform	date	time	timestamp	time_elapsed_ms	subject	group	session	blockcode	blocknum	trialcode	trialnum	stimulus_left	stimulus_right	stim_index	target_present	response	correct	latency	headphonecheck_countTestTrials	headphonecheck_index	headphonecheck_testSound	headphonecheck_correctResponse	stereocheck_countTestTrials	stereocheck_index	stereocheck_testSound	stereocheck_correctResponse	DL_index	DL_soundfile	DL_leftSound	DL_rightSound	DL_dualSound	DL_choice
6.6.1	and	2023-06-02	06:23:58	0	0	5cb489ff0cd1ed0017465d19	2	1	headphonecheck_calibration	4	headphonecheck_calibrationIntro	1			0		calibrationButton	0	2773	0	0			0	0			1				0	
build	computer.platform	date	time	timestamp	time_elapsed_ms	subject	group	session	blockcode	blocknum	trialcode	trialnum	stimulus_left	stimulus_right	stim_index	target_present	response	correct	latency	headphonecheck_countTestTrials	headphonecheck_index	headphonecheck_testSound	headphonecheck_correctResponse	stereocheck_countTestTrials	stereocheck_index	stereocheck_testSound	stereocheck_correctResponse	DL_index	DL_soundfile	DL_leftSound	DL_rightSound	DL_dualSound	DL_choice
6.6.1	and	2023-06-02	06:23:58	0	0	5cb489ff0cd1ed0017465d19	2	1	headphonecheck_calibration	4	headphonecheck_calibrationIntro	1			0		calibrationButton	0	2773	0	0			0	0			1				0	
6.6.1	and	2023-06-02	06:23:58	0	0	5cb489ff0cd1ed0017465d19	2	1	headphonecheck_testphase	5	test_collectResponse	3			0		third	1	876	1	6	antiphase_hc_ois.wav	3	0	0			1				0	
build	computer.platform	date	time	timestamp	time_elapsed_ms	subject	group	session	blockcode	blocknum	trialcode	trialnum	stimulus_left	stimulus_right	stim_index	target_present	response	correct	latency	headphonecheck_countTestTrials	headphonecheck_index	headphonecheck_testSound	headphonecheck_correctResponse	stereocheck_countTestTrials	stereocheck_index	stereocheck_testSound	stereocheck_correctResponse	DL_index	DL6.6.1	and	2023-06-02	06:23:58	0	0	5cb489ff0cd1ed0017465d19	2	1	stereocheck_testphase	8	stereocheck_test_collectResponse	3			0		stereocheck_right	1	331	6	3	antiphase_hc_soi.wav	1	1	4	noise_calib_stim_RIGHT.wav	2	1				0	
6.6.1	and	2023-06-02	06:23:58	0	0	5cb489ff0cd1ed0017465d19	2	1	stereocheck_testphase	8	stereocheck_test_collectResponse	6			0		stereocheck_left	1	856	6	3	antiphase_hc_soi.wav	1	2	1	noise_calib_stim_LEFT.wav	1	1				0	
6.6.1	and	2023-06-02	06:23:58	0	0	5cb489ff0cd1ed0017465d19	2	1	stereocheck_testphase	8	stereocheck_test_collectResponse	9			0		stereocheck_right	1	1198	6	3	antiphase_hc_soi.wav	1	3	6	noise_calib_stim_RIGHT.wav	2	1				0	
6.6.1	and	2023-06-02	06:23:58	0	0	5cb489ff0cd1ed0017465d19	2	1	stereocheck_testphase	8	stereocheck_test_collectResponse	12			0		stereocheck_left	1	498	6	3	antiphase_hc_soi.wav	1	4	2	noise_calib_stim_LEFT.wav	1	1				0	
6.6.1	and	2023-06-02	06:23:58	0	0	5cb489ff0cd1ed0017465d19	2	1	stereocheck_testphase	8	stereocheck_test_collectResponse	15			0		stereocheck_right	1	495	6	3	antiphase_hc_soi.wav	1	5	5	noise_calib_stim_RIGHT.wav	2	1				0	
6.6.1	and	2023-06-02	06:23:58	0	0	5cb489ff0cd1ed0017465d19	2	1	stereocheck_testphase	8	stereocheck_test_collectResponse	18			0		stereocheck_left	1	375	6	3	antiphase_hc_soi.wav	1	6	3	noise_calib_stim_LEFT.wav	1	1				0	
