build	computer.platform	date	time	timestamp	time_elapsed_ms	subject	group	session	blockcode	blocknum	trialcode	trialnum	stimulus_left	stimulus_right	stim_index	target_present	response	correct	latency	headphonecheck_countTestTrials	headphonecheck_index	headphonecheck_testSound	headphonecheck_correctResponse	stereocheck_countTestTrials	stereocheck_index	stereocheck_testSound	stereocheck_correctResponse	DL_index	DL_soundfile	DL_leftSound	DL_rightSound	DL_dualSound	DL_choice
6.6.1	win	2023-07-14	18:45:48	18:51:55	364115	60e46e6029128248ba4b9e5d	4	1	practice_z	5	practice_z	1	stimuli_distractor_trianglediamonds.svg	stimuli_distractor_diamondtriangles.svg	16	no	0	1	2000	0	0			0	0			1				0	
6.6.1	win	2023-07-14	18:45:48	18:51:55	364115	60e46e6029128248ba4b9e5d	4	1	practice_z	5	advance_on_keypress_ZEE	2	stimuli_distractor_trianglediamonds.svg	stimuli_distractor_diamondtriangles.svg	16	no	57	0	3226	0	0			0	0			1				0	
6.6.1	win	2023-07-14	18:45:48	18:52:02	370428	60e46e6029128248ba4b9e5d	4	1	practice_z	5	practice_z	3	stimuli_target_squarediamonds.svg	stimuli_distractor_trianglediamonds.svg	5	yes	44	1	1416	0	0			0	0			1				0	
6.6.1	win	2023-07-14	18:45:48	18:52:02	370428	60e46e6029128248ba4b9e5d	4	1	practice_z	5	advance_on_keypress_ZEE	4	stimuli_target_squarediamonds.svg	stimuli_distractor_trianglediamonds.svg	5	yes	57	0	1080	0	0			0	0			1				0	
6.6.1	win	2023-07-14	18:45:48	18:52:06	374669	60e46e6029128248ba4b9e5d	4	1	practice_z	5	practice_z	5	stimuli_distractor_trianglediamonds.svg	stimuli_target_rectanglediamonds.svg	10	yes	44	1	1507	0	0			0	0			1				0	
6.6.1	win	2023-07-14	18:45:48	18:52:06	374669	60e46e6029128248ba4b9e5d	4	1	practice_z	5	advance_on_keypress_ZEE	6	stimuli_distractor_trianglediamonds.svg	stimuli_target_rectanglediamonds.svg	10	yes	57	0	583	0	0			0	0			1				0	
6.6.1	win	2023-07-14	18:45:48	18:52:10	378397	60e46e6029128248ba4b9e5d	4	1	practice_z	5	practice_z	7	stimuli_distractor_trianglediamonds.svg	stimuli_target_squarediamonds.svg	11	yes	44	1	1487	0	0			0	0			1				0	
6.6.1	win	2023-07-14	18:45:48	18:52:10	378397	60e46e6029128248ba4b9e5d	4	1	practice_z	5	advance_on_keypress_ZEE	8	stimuli_distractor_trianglediamonds.svg	stimuli_target_squarediamonds.svg	11	yes	57	0	531	0	0			0	0			1				0	
6.6.1	win	2023-07-14	18:45:48	18:52:14	382576	60e46e6029128248ba4b9e5d	4	1	practice_z	5	practice_z	9	stimuli_distractor_trianglediamonds.svg	stimuli_distractor_trianglediamonds.svg	15	no	0	1	2000	0	0			0	0			1				0	
6.6.1	win	2023-07-14	18:45:48	18:52:14	382576	60e46e6029128248ba4b9e5d	4	1	practice_z	5	advance_on_keypress_ZEE	10	stimuli_distractor_trianglediamonds.svg	stimuli_distractor_trianglediamonds.svg	15	no	57	0	677	0	0			0	0			1				0	
6.6.1	win	2023-07-14	18:45:48	18:52:18	386907	60e46e6029128248ba4b9e5d	4	1	practice_z	5	practice_z	11	stimuli_distractor_trianglediamonds.svg	stimuli_target_diamondrectangles.svg	12	yes	0	0	2000	0	0			0	0			1				0	
6.6.1	win	2023-07-14	18:45:48	18:52:18	386907	60e46e6029128248ba4b9e5d	4	1	practice_z	5	advance_on_keypress_ZEE	12	stimuli_distractor_trianglediamonds.svg	stimuli_target_diamondrectangles.svg	12	yes	57	0	1394	0	0			0	0			1				0	
6.6.1	win	2023-07-14	18:45:48	18:52:22	391301	60e46e6029128248ba4b9e5d	4	1	practice_z	5	practice_z	13	stimuli_distractor_diamondtriangles.svg	stimuli_target_trianglerectangles.svg	9	yes	44	1	1345	0	0			0	0			1				0	
6.6.1	win	2023-07-14	18:45:48	18:52:22	391301	60e46e6029128248ba4b9e5d	4	1	practice_z	5	advance_on_keypress_ZEE	14	stimuli_distractor_diamondtriangles.svg	stimuli_target_trianglerectangles.svg	9	yes	57	0	778	0	0			0	0			1				0	
6.6.1	win	2023-07-14	18:45:48	18:52:26	394748	60e46e6029128248ba4b9e5d	4	1	practice_z	5	practice_z	15	stimuli_distractor_diamondtriangles.svg	stimuli_target_rectangletriangles.svg	7	yes	44	1	1010	0	0			0	0			1				0	
6.6.1	win	2023-07-14	18:45:48	18:52:26	394748	60e46e6029128248ba4b9e5d	4	1	practice_z	5	advance_on_keypress_ZEE	16	stimuli_distractor_diamondtriangles.svg	stimuli_target_rectangletriangles.svg	7	yes	57	0	442	0	0			0	0			1				0	
6.6.1	win	2023-07-14	18:45:48	18:52:29	397796	60e46e6029128248ba4b9e5d	4	1	practice_z	5	practice_z	17	stimuli_target_squarediamonds.svg	stimuli_distractor_diamondtriangles.svg	2	yes	44	1	959	0	0			0	0			1				0	
6.6.1	win	2023-07-14	18:45:48	18:52:29	397796	60e46e6029128248ba4b9e5d	4	1	practice_z	5	advance_on_keypress_ZEE	18	stimuli_target_squarediamonds.svg	stimuli_distractor_diamondtriangles.svg	2	yes	57	0	433	0	0			0	0			1				0	
6.6.1	win	2023-07-14	18:45:48	18:52:32	400908	60e46e6029128248ba4b9e5d	4	1	practice_z	5	practice_z	19	stimuli_distractor_diamondtriangles.svg	stimuli_distractor_trianglediamonds.svg	14	no	44	0	1023	0	0			0	0			1				0	
6.6.1	win	2023-07-14	18:45:48	18:52:32	400908	60e46e6029128248ba4b9e5d	4	1	practice_z	5	advance_on_keypress_ZEE	20	stimuli_distractor_diamondtriangles.svg	stimuli_distractor_trianglediamonds.svg	14	no	57	0	485	0	0			0	0			1				0	
6.6.1	win	2023-07-14	18:45:48	18:52:36	405034	60e46e6029128248ba4b9e5d	4	1	practice_z	5	practice_z	21	stimuli_target_diamondsquares.svg	stimuli_distractor_diamondtriangles.svg	3	yes	0	0	2000	0	0			0	0			1				0	
6.6.1	win	2023-07-14	18:45:48	18:52:36	405034	60e46e6029128248ba4b9e5d	4	1	practice_z	5	advance_on_keypress_ZEE	22	stimuli_target_diamondsquares.svg	stimuli_distractor_diamondtriangles.svg	3	yes	57	0	402	0	0			0	0			1				0	
6.6.1	win	2023-07-14	18:45:48	18:52:40	409083	60e46e6029128248ba4b9e5d	4	1	practice_z	5	practice_z	23	stimuli_target_diamondsquares.svg	stimuli_distractor_trianglediamonds.svg	6	yes	0	0	2000	0	0			0	0			1				0	
6.6.1	win	2023-07-14	18:45:48	18:52:40	409083	60e46e6029128248ba4b9e5d	4	1	practice_z	5	advance_on_keypress_ZEE	24	stimuli_target_diamondsquares.svg	stimuli_distractor_trianglediamonds.svg	6	yes	57	0	432	0	0			0	0			1				0	
6.6.1	win	2023-07-14	18:45:48	18:52:43	412219	60e46e6029128248ba4b9e5d	4	1	practice_z	5	practice_z	25	stimuli_distractor_diamondtriangles.svg	stimuli_distractor_diamondtriangles.svg	13	no	44	0	1055	0	0			0	0			1				0	
6.6.1	win	2023-07-14	18:45:48	18:52:43	412219	60e46e6029128248ba4b9e5d	4	1	practice_z	5	advance_on_keypress_ZEE	26	stimuli_distractor_diamondtriangles.svg	stimuli_distractor_diamondtriangles.svg	13	no	57	0	445	0	0			0	0			1				0	
6.6.1	win	2023-07-14	18:45:48	18:52:47	415492	60e46e6029128248ba4b9e5d	4	1	practice_z	5	practice_z	27	stimuli_target_rectanglediamonds.svg	stimuli_distractor_trianglediamonds.svg	4	yes	44	1	1177	0	0			0	0			1				0	
6.6.1	win	2023-07-14	18:45:48	18:52:47	415492	60e46e6029128248ba4b9e5d	4	1	practice_z	5	advance_on_keypress_ZEE	28	stimuli_target_rectanglediamonds.svg	stimuli_distractor_trianglediamonds.svg	4	yes	57	0	715	0	0			0	0			1				0	
6.6.1	win	2023-07-14	18:45:48	18:52:51	419864	60e46e6029128248ba4b9e5d	4	1	practice_z	5	practice_z	29	stimuli_distractor_diamondtriangles.svg	stimuli_target_diamondrectangles.svg	8	yes	0	0	2000	0	0			0	0			1				0	
6.6.1	win	2023-07-14	18:45:48	18:52:51	419864	60e46e6029128248ba4b9e5d	4	1	practice_z	5	advance_on_keypress_ZEE	30	stimuli_distractor_diamondtriangles.svg	stimuli_target_diamondrectangles.svg	8	yes	57	0	349	0	0			0	0			1				0	
6.6.1	win	2023-07-14	18:45:48	18:52:54	422756	60e46e6029128248ba4b9e5d	4	1	practice_z	5	practice_z	31	stimuli_target_rectanglediamonds.svg	stimuli_distractor_diamondtriangles.svg	1	yes	44	1	894	0	0			0	0			1				0	
6.6.1	win	2023-07-14	18:45:48	18:52:54	422756	60e46e6029128248ba4b9e5d	4	1	practice_z	5	advance_on_keypress_ZEE	32	stimuli_target_rectanglediamonds.svg	stimuli_distractor_diamondtriangles.svg	1	yes	57	0	393	0	0			0	0			1				0	
6.6.1	win	2023-07-14	18:45:48	18:53:08	436671	60e46e6029128248ba4b9e5d	4	1	main_z	7	main_z	1	stimuli_distractor_trianglediamonds.svg	stimuli_distractor_trianglediamonds.svg	33	no	0	1	2000	0	0			0	0			1				0	
6.6.1	win	2023-07-14	18:45:48	18:53:08	436671	60e46e6029128248ba4b9e5d	4	1	main_z	7	advance_on_keypress_ZEE	2	stimuli_distractor_trianglediamonds.svg	stimuli_distractor_trianglediamonds.svg	33	no	57	0	1410	0	0			0	0			1				0	
6.6.1	win	2023-07-14	18:45:48	18:53:11	439392	60e46e6029128248ba4b9e5d	4	1	main_z	7	main_z	3	stimuli_target_rectanglediamonds.svg	stimuli_distractor_diamondtriangles.svg	6	yes	44	1	655	0	0			0	0			1				0	
6.6.1	win	2023-07-14	18:45:48	18:53:11	439392	60e46e6029128248ba4b9e5d	4	1	main_z	7	advance_on_keypress_ZEE	4	stimuli_target_rectanglediamonds.svg	stimuli_distractor_diamondtriangles.svg	6	yes	57	0	806	0	0			0	0			1				0	
6.6.1	win	2023-07-14	18:45:48	18:53:13	441800	60e46e6029128248ba4b9e5d	4	1	main_z	7	main_z	5	stimuli_distractor_trianglediamonds.svg	stimuli_target_trianglerectangles.svg	25	yes	44	1	965	0	0			0	0			1				0	
6.6.1	win	2023-07-14	18:45:48	18:53:13	441800	60e46e6029128248ba4b9e5d	4	1	main_z	7	advance_on_keypress_ZEE	6	stimuli_distractor_trianglediamonds.svg	stimuli_target_trianglerectangles.svg	25	yes	57	0	510	0	0			0	0			1				0	
6.6.1	win	2023-07-14	18:45:48	18:53:16	444969	60e46e6029128248ba4b9e5d	4	1	main_z	7	main_z	7	stimuli_target_diamondrectangles.svg	stimuli_distractor_trianglediamonds.svg	19	yes	0	0	2000	0	0			0	0			1				0	
6.6.1	win	2023-07-14	18:45:48	18:53:16	444969	60e46e6029128248ba4b9e5d	4	1	main_z	7	advance_on_keypress_ZEE	8	stimuli_target_diamondrectangles.svg	stimuli_distractor_trianglediamonds.svg	19	yes	57	0	568	0	0			0	0			1				0	
6.6.1	win	2023-07-14	18:45:48	18:53:19	447976	60e46e6029128248ba4b9e5d	4	1	main_z	7	main_z	9	stimuli_distractor_diamondtriangles.svg	stimuli_target_diamondsquares.svg	32	yes	44	1	1793	0	0			0	0			1				0	
6.6.1	win	2023-07-14	18:45:48	18:53:19	447976	60e46e6029128248ba4b9e5d	4	1	main_z	7	advance_on_keypress_ZEE	10	stimuli_distractor_diamondtriangles.svg	stimuli_target_diamondsquares.svg	32	yes	57	0	681	0	0			0	0			1				0	
6.6.1	win	2023-07-14	18:45:48	18:53:22	450649	60e46e6029128248ba4b9e5d	4	1	main_z	7	main_z	11	stimuli_distractor_trianglediamonds.svg	stimuli_distractor_diamondtriangles.svg	35	no	44	0	1349	0	0			0	0			1				0	
6.6.1	win	2023-07-14	18:45:48	18:53:22	450649	60e46e6029128248ba4b9e5d	4	1	main_z	7	advance_on_keypress_ZEE	12	stimuli_distractor_trianglediamonds.svg	stimuli_distractor_diamondtriangles.svg	35	no	57	0	614	0	0			0	0			1				0	
6.6.1	win	2023-07-14	18:45:48	18:53:24	452761	60e46e6029128248ba4b9e5d	4	1	main_z	7	main_z	13	stimuli_distractor_trianglediamonds.svg	stimuli_target_squarediamonds.svg	12	yes	44	1	845	0	0			0	0			1				0	
6.6.1	win	2023-07-14	18:45:48	18:53:24	452761	60e46e6029128248ba4b9e5d	4	1	main_z	7	advance_on_keypress_ZEE	14	stimuli_distractor_trianglediamonds.svg	stimuli_target_squarediamonds.svg	12	yes	57	0	571	0	0			0	0			1				0	
6.6.1	win	2023-07-14	18:45:48	18:53:26	455152	60e46e6029128248ba4b9e5d	4	1	main_z	7	main_z	15	stimuli_distractor_trianglediamonds.svg	stimuli_target_diamondsquares.svg	28	yes	44	1	1170	0	0			0	0			1				0	
6.6.1	win	2023-07-14	18:45:48	18:53:26	455152	60e46e6029128248ba4b9e5d	4	1	main_z	7	advance_on_keypress_ZEE	16	stimuli_distractor_trianglediamonds.svg	stimuli_target_diamondsquares.svg	28	yes	57	0	668	0	0			0	0			1				0	
6.6.1	win	2023-07-14	18:45:48	18:53:30	458464	60e46e6029128248ba4b9e5d	4	1	main_z	7	main_z	17	stimuli_distractor_diamondtriangles.svg	stimuli_target_squaretriangles.svg	15	yes	0	0	2000	0	0			0	0			1				0	
6.6.1	win	2023-07-14	18:45:48	18:53:30	458464	60e46e6029128248ba4b9e5d	4	1	main_z	7	advance_on_keypress_ZEE	18	stimuli_distractor_diamondtriangles.svg	stimuli_target_squaretriangles.svg	15	yes	57	0	936	0	0			0	0			1				0	
6.6.1	win	2023-07-14	18:45:48	18:53:32	461129	60e46e6029128248ba4b9e5d	4	1	main_z	7	main_z	19	stimuli_distractor_trianglediamonds.svg	stimuli_target_rectangletriangles.svg	9	yes	44	1	1082	0	0			0	0			1				0	
6.6.1	win	2023-07-14	18:45:48	18:53:32	461129	60e46e6029128248ba4b9e5d	4	1	main_z	7	advance_on_keypress_ZEE	20	stimuli_distractor_trianglediamonds.svg	stimuli_target_rectangletriangles.svg	9	yes	57	0	591	0	0			0	0			1				0	
6.6.1	win	2023-07-14	18:45:48	18:53:35	463368	60e46e6029128248ba4b9e5d	4	1	main_z	7	main_z	21	stimuli_target_trianglerectangles.svg	stimuli_distractor_trianglediamonds.svg	17	yes	44	1	1006	0	0			0	0			1				0	
6.6.1	win	2023-07-14	18:45:48	18:53:35	463368	60e46e6029128248ba4b9e5d	4	1	main_z	7	advance_on_keypress_ZEE	22	stimuli_target_trianglerectangles.svg	stimuli_distractor_trianglediamonds.svg	17	yes	57	0	805	0	0			0	0			1				0	
6.6.1	win	2023-07-14	18:45:48	18:53:38	466811	60e46e6029128248ba4b9e5d	4	1	main_z	7	main_z	23	stimuli_distractor_diamondtriangles.svg	stimuli_distractor_trianglediamonds.svg	38	no	0	1	2000	0	0			0	0			1				0	
6.6.1	win	2023-07-14	18:45:48	18:53:38	466811	60e46e6029128248ba4b9e5d	4	1	main_z	7	advance_on_keypress_ZEE	24	stimuli_distractor_diamondtriangles.svg	stimuli_distractor_trianglediamonds.svg	38	no	57	0	309	0	0			0	0			1				0	
6.6.1	win	2023-07-14	18:45:48	18:53:40	468793	60e46e6029128248ba4b9e5d	4	1	main_z	7	main_z	25	stimuli_target_squaretriangles.svg	stimuli_distractor_diamondtriangles.svg	7	yes	44	1	1032	0	0			0	0			1				0	
6.6.1	win	2023-07-14	18:45:48	18:53:40	468793	60e46e6029128248ba4b9e5d	4	1	main_z	7	advance_on_keypress_ZEE	26	stimuli_target_squaretriangles.svg	stimuli_distractor_diamondtriangles.svg	7	yes	57	0	487	0	0			0	0			1				0	
6.6.1	win	2023-07-14	18:45:48	18:53:43	471927	60e46e6029128248ba4b9e5d	4	1	main_z	7	main_z	27	stimuli_target_diamondrectangles.svg	stimuli_distractor_diamondtriangles.svg	23	yes	0	0	2000	0	0			0	0			1				0	
6.6.1	win	2023-07-14	18:45:48	18:53:43	471927	60e46e6029128248ba4b9e5d	4	1	main_z	7	advance_on_keypress_ZEE	28	stimuli_target_diamondrectangles.svg	stimuli_distractor_diamondtriangles.svg	23	yes	57	0	698	0	0			0	0			1				0	
6.6.1	win	2023-07-14	18:45:48	18:53:45	473921	60e46e6029128248ba4b9e5d	4	1	main_z	7	main_z	29	stimuli_target_rectanglediamonds.svg	stimuli_distractor_trianglediamonds.svg	2	yes	44	1	645	0	0			0	0			1				0	
6.6.1	win	2023-07-14	18:45:48	18:53:45	473921	60e46e6029128248ba4b9e5d	4	1	main_z	7	advance_on_keypress_ZEE	30	stimuli_target_rectanglediamonds.svg	stimuli_distractor_trianglediamonds.svg	2	yes	57	0	587	0	0			0	0			1				0	
6.6.1	win	2023-07-14	18:45:48	18:53:48	477159	60e46e6029128248ba4b9e5d	4	1	main_z	7	main_z	31	stimuli_distractor_diamondtriangles.svg	stimuli_distractor_diamondtriangles.svg	39	no	0	1	2000	0	0			0	0			1				0	
6.6.1	win	2023-07-14	18:45:48	18:53:48	477159	60e46e6029128248ba4b9e5d	4	1	main_z	7	advance_on_keypress_ZEE	32	stimuli_distractor_diamondtriangles.svg	stimuli_distractor_diamondtriangles.svg	39	no	57	0	370	0	0			0	0			1				0	
6.6.1	win	2023-07-14	18:45:48	18:53:50	478961	60e46e6029128248ba4b9e5d	4	1	main_z	7	main_z	33	stimuli_distractor_trianglediamonds.svg	stimuli_target_trianglesquares.svg	26	yes	44	1	786	0	0			0	0			1				0	
6.6.1	win	2023-07-14	18:45:48	18:53:50	478961	60e46e6029128248ba4b9e5d	4	1	main_z	7	advance_on_keypress_ZEE	34	stimuli_distractor_trianglediamonds.svg	stimuli_target_trianglesquares.svg	26	yes	57	0	523	0	0			0	0			1				0	
6.6.1	win	2023-07-14	18:45:48	18:53:53	482124	60e46e6029128248ba4b9e5d	4	1	main_z	7	main_z	35	stimuli_target_diamondsquares.svg	stimuli_distractor_diamondtriangles.svg	24	yes	0	0	2000	0	0			0	0			1				0	
6.6.1	win	2023-07-14	18:45:48	18:53:53	482124	60e46e6029128248ba4b9e5d	4	1	main_z	7	advance_on_keypress_ZEE	36	stimuli_target_diamondsquares.svg	stimuli_distractor_diamondtriangles.svg	24	yes	57	0	517	0	0			0	0			1				0	
6.6.1	win	2023-07-14	18:45:48	18:53:55	483960	60e46e6029128248ba4b9e5d	4	1	main_z	7	main_z	37	stimuli_target_squarediamonds.svg	stimuli_distractor_trianglediamonds.svg	4	yes	44	1	672	0	0			0	0			1				0	
6.6.1	win	2023-07-14	18:45:48	18:53:55	483960	60e46e6029128248ba4b9e5d	4	1	main_z	7	advance_on_keypress_ZEE	38	stimuli_target_squarediamonds.svg	stimuli_distractor_trianglediamonds.svg	4	yes	57	0	357	0	0			0	0			1				0	
6.6.1	win	2023-07-14	18:45:48	18:53:57	485824	60e46e6029128248ba4b9e5d	4	1	main_z	7	main_z	39	stimuli_distractor_trianglediamonds.svg	stimuli_target_diamondrectangles.svg	27	yes	44	1	870	0	0			0	0			1				0	
6.6.1	win	2023-07-14	18:45:48	18:53:57	485824	60e46e6029128248ba4b9e5d	4	1	main_z	7	advance_on_keypress_ZEE	40	stimuli_distractor_trianglediamonds.svg	stimuli_target_diamondrectangles.svg	27	yes	57	0	354	0	0			0	0			1				0	
6.6.1	win	2023-07-14	18:45:48	18:53:59	487624	60e46e6029128248ba4b9e5d	4	1	main_z	7	main_z	41	stimuli_distractor_diamondtriangles.svg	stimuli_target_trianglerectangles.svg	29	yes	44	1	803	0	0			0	0			1				0	
6.6.1	win	2023-07-14	18:45:48	18:53:59	487624	60e46e6029128248ba4b9e5d	4	1	main_z	7	advance_on_keypress_ZEE	42	stimuli_distractor_diamondtriangles.svg	stimuli_target_trianglerectangles.svg	29	yes	57	0	347	0	0			0	0			1				0	
6.6.1	win	2023-07-14	18:45:48	18:54:02	490621	60e46e6029128248ba4b9e5d	4	1	main_z	7	main_z	43	stimuli_target_squarediamonds.svg	stimuli_distractor_diamondtriangles.svg	8	yes	0	0	2000	0	0			0	0			1				0	
6.6.1	win	2023-07-14	18:45:48	18:54:02	490621	60e46e6029128248ba4b9e5d	4	1	main_z	7	advance_on_keypress_ZEE	44	stimuli_target_squarediamonds.svg	stimuli_distractor_diamondtriangles.svg	8	yes	57	0	492	0	0			0	0			1				0	
6.6.1	win	2023-07-14	18:45:48	18:54:04	492680	60e46e6029128248ba4b9e5d	4	1	main_z	7	main_z	45	stimuli_target_rectangletriangles.svg	stimuli_distractor_diamondtriangles.svg	5	yes	44	1	926	0	0			0	0			1				0	
6.6.1	win	2023-07-14	18:45:48	18:54:04	492680	60e46e6029128248ba4b9e5d	4	1	main_z	7	advance_on_keypress_ZEE	46	stimuli_target_rectangletriangles.svg	stimuli_distractor_diamondtriangles.svg	5	yes	57	0	298	0	0			0	0			1				0	
6.6.1	win	2023-07-14	18:45:48	18:54:07	495636	60e46e6029128248ba4b9e5d	4	1	main_z	7	main_z	47	stimuli_distractor_diamondtriangles.svg	stimuli_distractor_diamondtriangles.svg	40	no	0	1	2000	0	0			0	0			1				0	
6.6.1	win	2023-07-14	18:45:48	18:54:07	495636	60e46e6029128248ba4b9e5d	4	1	main_z	7	advance_on_keypress_ZEE	48	stimuli_distractor_diamondtriangles.svg	stimuli_distractor_diamondtriangles.svg	40	no	57	0	349	0	0			0	0			1				0	
6.6.1	win	2023-07-14	18:45:48	18:54:08	497208	60e46e6029128248ba4b9e5d	4	1	main_z	7	main_z	49	stimuli_target_trianglesquares.svg	stimuli_distractor_trianglediamonds.svg	18	yes	44	1	573	0	0			0	0			1				0	
6.6.1	win	2023-07-14	18:45:48	18:54:08	497208	60e46e6029128248ba4b9e5d	4	1	main_z	7	advance_on_keypress_ZEE	50	stimuli_target_trianglesquares.svg	stimuli_distractor_trianglediamonds.svg	18	yes	57	0	342	0	0			0	0			1				0	
6.6.1	win	2023-07-14	18:45:48	18:54:10	498960	60e46e6029128248ba4b9e5d	4	1	main_z	7	main_z	51	stimuli_target_trianglesquares.svg	stimuli_distractor_diamondtriangles.svg	22	yes	44	1	776	0	0			0	0			1				0	
6.6.1	win	2023-07-14	18:45:48	18:54:10	498960	60e46e6029128248ba4b9e5d	4	1	main_z	7	advance_on_keypress_ZEE	52	stimuli_target_trianglesquares.svg	stimuli_distractor_diamondtriangles.svg	22	yes	57	0	409	0	0			0	0			1				0	
6.6.1	win	2023-07-14	18:45:48	18:54:13	502001	60e46e6029128248ba4b9e5d	4	1	main_z	7	main_z	53	stimuli_target_squaretriangles.svg	stimuli_distractor_trianglediamonds.svg	3	yes	0	0	2000	0	0			0	0			1				0	
6.6.1	win	2023-07-14	18:45:48	18:54:13	502001	60e46e6029128248ba4b9e5d	4	1	main_z	7	advance_on_keypress_ZEE	54	stimuli_target_squaretriangles.svg	stimuli_distractor_trianglediamonds.svg	3	yes	57	0	464	0	0			0	0			1				0	
6.6.1	win	2023-07-14	18:45:48	18:54:15	503871	60e46e6029128248ba4b9e5d	4	1	main_z	7	main_z	55	stimuli_distractor_diamondtriangles.svg	stimuli_target_diamondrectangles.svg	31	yes	44	1	755	0	0			0	0			1				0	
6.6.1	win	2023-07-14	18:45:48	18:54:15	503871	60e46e6029128248ba4b9e5d	4	1	main_z	7	advance_on_keypress_ZEE	56	stimuli_distractor_diamondtriangles.svg	stimuli_target_diamondrectangles.svg	31	yes	57	0	342	0	0			0	0			1				0	
6.6.1	win	2023-07-14	18:45:48	18:54:18	506865	60e46e6029128248ba4b9e5d	4	1	main_z	7	main_z	57	stimuli_distractor_trianglediamonds.svg	stimuli_target_squaretriangles.svg	11	yes	0	0	2000	0	0			0	0			1				0	
6.6.1	win	2023-07-14	18:45:48	18:54:18	506865	60e46e6029128248ba4b9e5d	4	1	main_z	7	advance_on_keypress_ZEE	58	stimuli_distractor_trianglediamonds.svg	stimuli_target_squaretriangles.svg	11	yes	57	0	359	0	0			0	0			1				0	
6.6.1	win	2023-07-14	18:45:48	18:54:21	509864	60e46e6029128248ba4b9e5d	4	1	main_z	7	main_z	59	stimuli_distractor_diamondtriangles.svg	stimuli_target_rectanglediamonds.svg	14	yes	0	0	2000	0	0			0	0			1				0	
6.6.1	win	2023-07-14	18:45:48	18:54:21	509864	60e46e6029128248ba4b9e5d	4	1	main_z	7	advance_on_keypress_ZEE	60	stimuli_distractor_diamondtriangles.svg	stimuli_target_rectanglediamonds.svg	14	yes	57	0	520	0	0			0	0			1				0	
6.6.1	win	2023-07-14	18:45:48	18:54:24	513030	60e46e6029128248ba4b9e5d	4	1	main_z	7	main_z	61	stimuli_distractor_diamondtriangles.svg	stimuli_distractor_trianglediamonds.svg	37	no	0	1	2000	0	0			0	0			1				0	
6.6.1	win	2023-07-14	18:45:48	18:54:24	513030	60e46e6029128248ba4b9e5d	4	1	main_z	7	advance_on_keypress_ZEE	62	stimuli_distractor_diamondtriangles.svg	stimuli_distractor_trianglediamonds.svg	37	no	57	0	362	0	0			0	0			1				0	
6.6.1	win	2023-07-14	18:45:48	18:54:26	514881	60e46e6029128248ba4b9e5d	4	1	main_z	7	main_z	63	stimuli_distractor_diamondtriangles.svg	stimuli_target_trianglesquares.svg	30	yes	44	1	834	0	0			0	0			1				0	
6.6.1	win	2023-07-14	18:45:48	18:54:26	514881	60e46e6029128248ba4b9e5d	4	1	main_z	7	advance_on_keypress_ZEE	64	stimuli_distractor_diamondtriangles.svg	stimuli_target_trianglesquares.svg	30	yes	57	0	569	0	0			0	0			1				0	
6.6.1	win	2023-07-14	18:45:48	18:54:29	518096	60e46e6029128248ba4b9e5d	4	1	main_z	7	main_z	65	stimuli_target_rectangletriangles.svg	stimuli_distractor_trianglediamonds.svg	1	yes	0	0	2000	0	0			0	0			1				0	
6.6.1	win	2023-07-14	18:45:48	18:54:29	518096	60e46e6029128248ba4b9e5d	4	1	main_z	7	advance_on_keypress_ZEE	66	stimuli_target_rectangletriangles.svg	stimuli_distractor_trianglediamonds.svg	1	yes	57	0	465	0	0			0	0			1				0	
6.6.1	win	2023-07-14	18:45:48	18:54:32	521211	60e46e6029128248ba4b9e5d	4	1	main_z	7	main_z	67	stimuli_distractor_trianglediamonds.svg	stimuli_distractor_trianglediamonds.svg	34	no	0	1	2000	0	0			0	0			1				0	
6.6.1	win	2023-07-14	18:45:48	18:54:32	521211	60e46e6029128248ba4b9e5d	4	1	main_z	7	advance_on_keypress_ZEE	68	stimuli_distractor_trianglediamonds.svg	stimuli_distractor_trianglediamonds.svg	34	no	57	0	389	0	0			0	0			1				0	
6.6.1	win	2023-07-14	18:45:48	18:54:34	523040	60e46e6029128248ba4b9e5d	4	1	main_z	7	main_z	69	stimuli_distractor_trianglediamonds.svg	stimuli_target_rectanglediamonds.svg	10	yes	44	1	797	0	0			0	0			1				0	
6.6.1	win	2023-07-14	18:45:48	18:54:34	523040	60e46e6029128248ba4b9e5d	4	1	main_z	7	advance_on_keypress_ZEE	70	stimuli_distractor_trianglediamonds.svg	stimuli_target_rectanglediamonds.svg	10	yes	57	0	317	0	0			0	0			1				0	
6.6.1	win	2023-07-14	18:45:48	18:54:36	524872	60e46e6029128248ba4b9e5d	4	1	main_z	7	main_z	71	stimuli_target_diamondsquares.svg	stimuli_distractor_trianglediamonds.svg	20	yes	44	1	863	0	0			0	0			1				0	
6.6.1	win	2023-07-14	18:45:48	18:54:36	524872	60e46e6029128248ba4b9e5d	4	1	main_z	7	advance_on_keypress_ZEE	72	stimuli_target_diamondsquares.svg	stimuli_distractor_trianglediamonds.svg	20	yes	57	0	404	0	0			0	0			1				0	
6.6.1	win	2023-07-14	18:45:48	18:54:39	527926	60e46e6029128248ba4b9e5d	4	1	main_z	7	main_z	73	stimuli_distractor_trianglediamonds.svg	stimuli_distractor_diamondtriangles.svg	36	no	0	1	2000	0	0			0	0			1				0	
6.6.1	win	2023-07-14	18:45:48	18:54:39	527926	60e46e6029128248ba4b9e5d	4	1	main_z	7	advance_on_keypress_ZEE	74	stimuli_distractor_trianglediamonds.svg	stimuli_distractor_diamondtriangles.svg	36	no	57	0	1139	0	0			0	0			1				0	
6.6.1	win	2023-07-14	18:45:48	18:54:43	531708	60e46e6029128248ba4b9e5d	4	1	main_z	7	main_z	75	stimuli_distractor_diamondtriangles.svg	stimuli_target_rectangletriangles.svg	13	yes	0	0	2000	0	0			0	0			1				0	
6.6.1	win	2023-07-14	18:45:48	18:54:43	531708	60e46e6029128248ba4b9e5d	4	1	main_z	7	advance_on_keypress_ZEE	76	stimuli_distractor_diamondtriangles.svg	stimuli_target_rectangletriangles.svg	13	yes	57	0	356	0	0			0	0			1				0	
6.6.1	win	2023-07-14	18:45:48	18:54:45	533464	60e46e6029128248ba4b9e5d	4	1	main_z	7	main_z	77	stimuli_target_trianglerectangles.svg	stimuli_distractor_diamondtriangles.svg	21	yes	44	1	758	0	0			0	0			1				0	
6.6.1	win	2023-07-14	18:45:48	18:54:45	533464	60e46e6029128248ba4b9e5d	4	1	main_z	7	advance_on_keypress_ZEE	78	stimuli_target_trianglerectangles.svg	stimuli_distractor_diamondtriangles.svg	21	yes	57	0	487	0	0			0	0			1				0	
6.6.1	win	2023-07-14	18:45:48	18:54:48	536591	60e46e6029128248ba4b9e5d	4	1	main_z	7	main_z	79	stimuli_distractor_diamondtriangles.svg	stimuli_target_squarediamonds.svg	16	yes	0	0	2000	0	0			0	0			1				0	
6.6.1	win	2023-07-14	18:45:48	18:54:48	536591	60e46e6029128248ba4b9e5d	4	1	main_z	7	advance_on_keypress_ZEE	80	stimuli_distractor_diamondtriangles.svg	stimuli_target_squarediamonds.svg	16	yes	Ctrl+'Q'	1	21254	0	0			0	0			1				0	