build	computer.platform	date	time	timestamp	time_elapsed_ms	subject	group	session	blockcode	blocknum	trialcode	trialnum	stimulus_left	stimulus_right	stim_index	target_present	response	correct	latency	headphonecheck_countTestTrials	headphonecheck_index	headphonecheck_testSound	headphonecheck_correctResponse	stereocheck_countTestTrials	stereocheck_index	stereocheck_testSound	stereocheck_correctResponse	DL_index	DL_soundfile	DL_leftSound	DL_rightSound	DL_dualSound	DL_choice
6.6.1	win	2023-07-15	15:50:26	15:52:11	100325	5d0e0c9c312297001a37d0ca	4	1	practice_z	5	practice_z	1	stimuli_distractor_diamondtriangles.svg	stimuli_distractor_trianglediamonds.svg	14	no	0	1	2000	0	0			0	0			1				0	
6.6.1	win	2023-07-15	15:50:26	15:52:11	100325	5d0e0c9c312297001a37d0ca	4	1	practice_z	5	advance_on_keypress_ZEE	2	stimuli_distractor_diamondtriangles.svg	stimuli_distractor_trianglediamonds.svg	14	no	57	0	983	0	0			0	0			1				0	
6.6.1	win	2023-07-15	15:50:26	15:52:16	104958	5d0e0c9c312297001a37d0ca	4	1	practice_z	5	practice_z	3	stimuli_distractor_trianglediamonds.svg	stimuli_distractor_diamondtriangles.svg	16	no	0	1	2000	0	0			0	0			1				0	
6.6.1	win	2023-07-15	15:50:26	15:52:16	104958	5d0e0c9c312297001a37d0ca	4	1	practice_z	5	advance_on_keypress_ZEE	4	stimuli_distractor_trianglediamonds.svg	stimuli_distractor_diamondtriangles.svg	16	no	57	0	572	0	0			0	0			1				0	
6.6.1	win	2023-07-15	15:50:26	15:52:19	108601	5d0e0c9c312297001a37d0ca	4	1	practice_z	5	practice_z	5	stimuli_target_rectanglediamonds.svg	stimuli_distractor_diamondtriangles.svg	1	yes	44	1	1426	0	0			0	0			1				0	
6.6.1	win	2023-07-15	15:50:26	15:52:19	108601	5d0e0c9c312297001a37d0ca	4	1	practice_z	5	advance_on_keypress_ZEE	6	stimuli_target_rectanglediamonds.svg	stimuli_distractor_diamondtriangles.svg	1	yes	57	0	1258	0	0			0	0			1				0	
6.6.1	win	2023-07-15	15:50:26	15:52:23	112458	5d0e0c9c312297001a37d0ca	4	1	practice_z	5	practice_z	7	stimuli_distractor_diamondtriangles.svg	stimuli_target_diamondrectangles.svg	8	yes	44	1	950	0	0			0	0			1				0	
6.6.1	win	2023-07-15	15:50:26	15:52:23	112458	5d0e0c9c312297001a37d0ca	4	1	practice_z	5	advance_on_keypress_ZEE	8	stimuli_distractor_diamondtriangles.svg	stimuli_target_diamondrectangles.svg	8	yes	57	0	636	0	0			0	0			1				0	
6.6.1	win	2023-07-15	15:50:26	15:52:27	116742	5d0e0c9c312297001a37d0ca	4	1	practice_z	5	practice_z	9	stimuli_distractor_trianglediamonds.svg	stimuli_distractor_trianglediamonds.svg	15	no	0	1	2000	0	0			0	0			1				0	
6.6.1	win	2023-07-15	15:50:26	15:52:27	116742	5d0e0c9c312297001a37d0ca	4	1	practice_z	5	advance_on_keypress_ZEE	10	stimuli_distractor_trianglediamonds.svg	stimuli_distractor_trianglediamonds.svg	15	no	57	0	516	0	0			0	0			1				0	
6.6.1	win	2023-07-15	15:50:26	15:52:31	119849	5d0e0c9c312297001a37d0ca	4	1	practice_z	5	practice_z	11	stimuli_target_diamondsquares.svg	stimuli_distractor_trianglediamonds.svg	6	yes	44	1	940	0	0			0	0			1				0	
6.6.1	win	2023-07-15	15:50:26	15:52:31	119849	5d0e0c9c312297001a37d0ca	4	1	practice_z	5	advance_on_keypress_ZEE	12	stimuli_target_diamondsquares.svg	stimuli_distractor_trianglediamonds.svg	6	yes	57	0	480	0	0			0	0			1				0	
6.6.1	win	2023-07-15	15:50:26	15:52:33	122771	5d0e0c9c312297001a37d0ca	4	1	practice_z	5	practice_z	13	stimuli_distractor_trianglediamonds.svg	stimuli_target_diamondrectangles.svg	12	yes	44	1	796	0	0			0	0			1				0	
6.6.1	win	2023-07-15	15:50:26	15:52:33	122771	5d0e0c9c312297001a37d0ca	4	1	practice_z	5	advance_on_keypress_ZEE	14	stimuli_distractor_trianglediamonds.svg	stimuli_target_diamondrectangles.svg	12	yes	57	0	462	0	0			0	0			1				0	
6.6.1	win	2023-07-15	15:50:26	15:52:37	125869	5d0e0c9c312297001a37d0ca	4	1	practice_z	5	practice_z	15	stimuli_target_squarediamonds.svg	stimuli_distractor_diamondtriangles.svg	2	yes	44	1	993	0	0			0	0			1				0	
6.6.1	win	2023-07-15	15:50:26	15:52:37	125869	5d0e0c9c312297001a37d0ca	4	1	practice_z	5	advance_on_keypress_ZEE	16	stimuli_target_squarediamonds.svg	stimuli_distractor_diamondtriangles.svg	2	yes	57	0	636	0	0			0	0			1				0	
6.6.1	win	2023-07-15	15:50:26	15:52:41	130142	5d0e0c9c312297001a37d0ca	4	1	practice_z	5	practice_z	17	stimuli_target_squarediamonds.svg	stimuli_distractor_trianglediamonds.svg	5	yes	0	0	2000	0	0			0	0			1				0	
6.6.1	win	2023-07-15	15:50:26	15:52:41	130142	5d0e0c9c312297001a37d0ca	4	1	practice_z	5	advance_on_keypress_ZEE	18	stimuli_target_squarediamonds.svg	stimuli_distractor_trianglediamonds.svg	5	yes	57	0	380	0	0			0	0			1				0	
6.6.1	win	2023-07-15	15:50:26	15:52:45	134176	5d0e0c9c312297001a37d0ca	4	1	practice_z	5	practice_z	19	stimuli_distractor_diamondtriangles.svg	stimuli_distractor_diamondtriangles.svg	13	no	0	1	2000	0	0			0	0			1				0	
6.6.1	win	2023-07-15	15:50:26	15:52:45	134176	5d0e0c9c312297001a37d0ca	4	1	practice_z	5	advance_on_keypress_ZEE	20	stimuli_distractor_diamondtriangles.svg	stimuli_distractor_diamondtriangles.svg	13	no	57	0	264	0	0			0	0			1				0	
6.6.1	win	2023-07-15	15:50:26	15:52:48	137105	5d0e0c9c312297001a37d0ca	4	1	practice_z	5	practice_z	21	stimuli_target_rectanglediamonds.svg	stimuli_distractor_trianglediamonds.svg	4	yes	44	1	1013	0	0			0	0			1				0	
6.6.1	win	2023-07-15	15:50:26	15:52:48	137105	5d0e0c9c312297001a37d0ca	4	1	practice_z	5	advance_on_keypress_ZEE	22	stimuli_target_rectanglediamonds.svg	stimuli_distractor_trianglediamonds.svg	4	yes	57	0	497	0	0			0	0			1				0	
6.6.1	win	2023-07-15	15:50:26	15:52:51	140069	5d0e0c9c312297001a37d0ca	4	1	practice_z	5	practice_z	23	stimuli_distractor_diamondtriangles.svg	stimuli_target_rectangletriangles.svg	7	yes	44	1	827	0	0			0	0			1				0	
6.6.1	win	2023-07-15	15:50:26	15:52:51	140069	5d0e0c9c312297001a37d0ca	4	1	practice_z	5	advance_on_keypress_ZEE	24	stimuli_distractor_diamondtriangles.svg	stimuli_target_rectangletriangles.svg	7	yes	57	0	274	0	0			0	0			1				0	
6.6.1	win	2023-07-15	15:50:26	15:52:53	142737	5d0e0c9c312297001a37d0ca	4	1	practice_z	5	practice_z	25	stimuli_distractor_diamondtriangles.svg	stimuli_target_trianglerectangles.svg	9	yes	44	1	761	0	0			0	0			1				0	
6.6.1	win	2023-07-15	15:50:26	15:52:53	142737	5d0e0c9c312297001a37d0ca	4	1	practice_z	5	advance_on_keypress_ZEE	26	stimuli_distractor_diamondtriangles.svg	stimuli_target_trianglerectangles.svg	9	yes	57	0	257	0	0			0	0			1				0	
6.6.1	win	2023-07-15	15:50:26	15:52:57	145909	5d0e0c9c312297001a37d0ca	4	1	practice_z	5	practice_z	27	stimuli_distractor_trianglediamonds.svg	stimuli_target_rectanglediamonds.svg	10	yes	44	1	1283	0	0			0	0			1				0	
6.6.1	win	2023-07-15	15:50:26	15:52:57	145909	5d0e0c9c312297001a37d0ca	4	1	practice_z	5	advance_on_keypress_ZEE	28	stimuli_distractor_trianglediamonds.svg	stimuli_target_rectanglediamonds.svg	10	yes	57	0	521	0	0			0	0			1				0	
6.6.1	win	2023-07-15	15:50:26	15:53:00	149331	5d0e0c9c312297001a37d0ca	4	1	practice_z	5	practice_z	29	stimuli_distractor_trianglediamonds.svg	stimuli_target_squarediamonds.svg	11	yes	44	1	1255	0	0			0	0			1				0	
6.6.1	win	2023-07-15	15:50:26	15:53:00	149331	5d0e0c9c312297001a37d0ca	4	1	practice_z	5	advance_on_keypress_ZEE	30	stimuli_distractor_trianglediamonds.svg	stimuli_target_squarediamonds.svg	11	yes	57	0	379	0	0			0	0			1				0	
6.6.1	win	2023-07-15	15:50:26	15:53:03	152176	5d0e0c9c312297001a37d0ca	4	1	practice_z	5	practice_z	31	stimuli_target_diamondsquares.svg	stimuli_distractor_diamondtriangles.svg	3	yes	44	1	833	0	0			0	0			1				0	
6.6.1	win	2023-07-15	15:50:26	15:53:03	152176	5d0e0c9c312297001a37d0ca	4	1	practice_z	5	advance_on_keypress_ZEE	32	stimuli_target_diamondsquares.svg	stimuli_distractor_diamondtriangles.svg	3	yes	57	0	319	0	0			0	0			1				0	
6.6.1	win	2023-07-15	15:50:26	15:53:09	158753	5d0e0c9c312297001a37d0ca	4	1	main_z	7	main_z	1	stimuli_target_rectanglediamonds.svg	stimuli_distractor_diamondtriangles.svg	6	yes	44	1	1011	0	0			0	0			1				0	
6.6.1	win	2023-07-15	15:50:26	15:53:09	158753	5d0e0c9c312297001a37d0ca	4	1	main_z	7	advance_on_keypress_ZEE	2	stimuli_target_rectanglediamonds.svg	stimuli_distractor_diamondtriangles.svg	6	yes	57	0	1054	0	0			0	0			1				0	
6.6.1	win	2023-07-15	15:50:26	15:53:12	161145	5d0e0c9c312297001a37d0ca	4	1	main_z	7	main_z	3	stimuli_target_trianglerectangles.svg	stimuli_distractor_diamondtriangles.svg	21	yes	44	1	686	0	0			0	0			1				0	
6.6.1	win	2023-07-15	15:50:26	15:53:12	161145	5d0e0c9c312297001a37d0ca	4	1	main_z	7	advance_on_keypress_ZEE	4	stimuli_target_trianglerectangles.svg	stimuli_distractor_diamondtriangles.svg	21	yes	57	0	1137	0	0			0	0			1				0	
6.6.1	win	2023-07-15	15:50:26	15:53:16	164926	5d0e0c9c312297001a37d0ca	4	1	main_z	7	main_z	5	stimuli_distractor_diamondtriangles.svg	stimuli_distractor_diamondtriangles.svg	40	no	0	1	2000	0	0			0	0			1				0	
6.6.1	win	2023-07-15	15:50:26	15:53:16	164926	5d0e0c9c312297001a37d0ca	4	1	main_z	7	advance_on_keypress_ZEE	6	stimuli_distractor_diamondtriangles.svg	stimuli_distractor_diamondtriangles.svg	40	no	57	0	513	0	0			0	0			1				0	
6.6.1	win	2023-07-15	15:50:26	15:53:17	166709	5d0e0c9c312297001a37d0ca	4	1	main_z	7	main_z	7	stimuli_distractor_trianglediamonds.svg	stimuli_target_diamondrectangles.svg	27	yes	44	1	633	0	0			0	0			1				0	
6.6.1	win	2023-07-15	15:50:26	15:53:17	166709	5d0e0c9c312297001a37d0ca	4	1	main_z	7	advance_on_keypress_ZEE	8	stimuli_distractor_trianglediamonds.svg	stimuli_target_diamondrectangles.svg	27	yes	57	0	821	0	0			0	0			1				0	
6.6.1	win	2023-07-15	15:50:26	15:53:19	168801	5d0e0c9c312297001a37d0ca	4	1	main_z	7	main_z	9	stimuli_distractor_trianglediamonds.svg	stimuli_target_trianglerectangles.svg	25	yes	44	1	625	0	0			0	0			1				0	
6.6.1	win	2023-07-15	15:50:26	15:53:19	168801	5d0e0c9c312297001a37d0ca	4	1	main_z	7	advance_on_keypress_ZEE	10	stimuli_distractor_trianglediamonds.svg	stimuli_target_trianglerectangles.svg	25	yes	57	0	605	0	0			0	0			1				0	
6.6.1	win	2023-07-15	15:50:26	15:53:21	170728	5d0e0c9c312297001a37d0ca	4	1	main_z	7	main_z	11	stimuli_distractor_diamondtriangles.svg	stimuli_target_diamondrectangles.svg	31	yes	44	1	685	0	0			0	0			1				0	
6.6.1	win	2023-07-15	15:50:26	15:53:21	170728	5d0e0c9c312297001a37d0ca	4	1	main_z	7	advance_on_keypress_ZEE	12	stimuli_distractor_diamondtriangles.svg	stimuli_target_diamondrectangles.svg	31	yes	57	0	320	0	0			0	0			1				0	
6.6.1	win	2023-07-15	15:50:26	15:53:23	172369	5d0e0c9c312297001a37d0ca	4	1	main_z	7	main_z	13	stimuli_target_trianglesquares.svg	stimuli_distractor_trianglediamonds.svg	18	yes	44	1	676	0	0			0	0			1				0	
6.6.1	win	2023-07-15	15:50:26	15:53:23	172369	5d0e0c9c312297001a37d0ca	4	1	main_z	7	advance_on_keypress_ZEE	14	stimuli_target_trianglesquares.svg	stimuli_distractor_trianglediamonds.svg	18	yes	57	0	275	0	0			0	0			1				0	
6.6.1	win	2023-07-15	15:50:26	15:53:25	174701	5d0e0c9c312297001a37d0ca	4	1	main_z	7	main_z	15	stimuli_target_squaretriangles.svg	stimuli_distractor_diamondtriangles.svg	7	yes	44	1	1425	0	0			0	0			1				0	
6.6.1	win	2023-07-15	15:50:26	15:53:25	174701	5d0e0c9c312297001a37d0ca	4	1	main_z	7	advance_on_keypress_ZEE	16	stimuli_target_squaretriangles.svg	stimuli_distractor_diamondtriangles.svg	7	yes	57	0	153	0	0			0	0			1				0	
6.6.1	win	2023-07-15	15:50:26	15:53:27	176392	5d0e0c9c312297001a37d0ca	4	1	main_z	7	main_z	17	stimuli_target_rectangletriangles.svg	stimuli_distractor_trianglediamonds.svg	1	yes	44	1	899	0	0			0	0			1				0	
6.6.1	win	2023-07-15	15:50:26	15:53:27	176392	5d0e0c9c312297001a37d0ca	4	1	main_z	7	advance_on_keypress_ZEE	18	stimuli_target_rectangletriangles.svg	stimuli_distractor_trianglediamonds.svg	1	yes	57	0	187	0	0			0	0			1				0	
6.6.1	win	2023-07-15	15:50:26	15:53:29	178110	5d0e0c9c312297001a37d0ca	4	1	main_z	7	main_z	19	stimuli_target_diamondrectangles.svg	stimuli_distractor_diamondtriangles.svg	23	yes	44	1	884	0	0			0	0			1				0	
6.6.1	win	2023-07-15	15:50:26	15:53:29	178110	5d0e0c9c312297001a37d0ca	4	1	main_z	7	advance_on_keypress_ZEE	20	stimuli_target_diamondrectangles.svg	stimuli_distractor_diamondtriangles.svg	23	yes	57	0	214	0	0			0	0			1				0	
6.6.1	win	2023-07-15	15:50:26	15:53:31	179992	5d0e0c9c312297001a37d0ca	4	1	main_z	7	main_z	21	stimuli_distractor_trianglediamonds.svg	stimuli_target_rectangletriangles.svg	9	yes	44	1	1031	0	0			0	0			1				0	
6.6.1	win	2023-07-15	15:50:26	15:53:31	179992	5d0e0c9c312297001a37d0ca	4	1	main_z	7	advance_on_keypress_ZEE	22	stimuli_distractor_trianglediamonds.svg	stimuli_target_rectangletriangles.svg	9	yes	57	0	212	0	0			0	0			1				0	
6.6.1	win	2023-07-15	15:50:26	15:53:33	181810	5d0e0c9c312297001a37d0ca	4	1	main_z	7	main_z	23	stimuli_distractor_trianglediamonds.svg	stimuli_target_rectanglediamonds.svg	10	yes	44	1	967	0	0			0	0			1				0	
6.6.1	win	2023-07-15	15:50:26	15:53:33	181810	5d0e0c9c312297001a37d0ca	4	1	main_z	7	advance_on_keypress_ZEE	24	stimuli_distractor_trianglediamonds.svg	stimuli_target_rectanglediamonds.svg	10	yes	57	0	210	0	0			0	0			1				0	
6.6.1	win	2023-07-15	15:50:26	15:53:35	184660	5d0e0c9c312297001a37d0ca	4	1	main_z	7	main_z	25	stimuli_distractor_trianglediamonds.svg	stimuli_distractor_trianglediamonds.svg	33	no	0	1	2000	0	0			0	0			1				0	
6.6.1	win	2023-07-15	15:50:26	15:53:35	184660	5d0e0c9c312297001a37d0ca	4	1	main_z	7	advance_on_keypress_ZEE	26	stimuli_distractor_trianglediamonds.svg	stimuli_distractor_trianglediamonds.svg	33	no	57	0	317	0	0			0	0			1				0	
6.6.1	win	2023-07-15	15:50:26	15:53:37	186323	5d0e0c9c312297001a37d0ca	4	1	main_z	7	main_z	27	stimuli_distractor_diamondtriangles.svg	stimuli_target_trianglesquares.svg	30	yes	44	1	696	0	0			0	0			1				0	
6.6.1	win	2023-07-15	15:50:26	15:53:37	186323	5d0e0c9c312297001a37d0ca	4	1	main_z	7	advance_on_keypress_ZEE	28	stimuli_distractor_diamondtriangles.svg	stimuli_target_trianglesquares.svg	30	yes	57	0	316	0	0			0	0			1				0	
6.6.1	win	2023-07-15	15:50:26	15:53:39	187956	5d0e0c9c312297001a37d0ca	4	1	main_z	7	main_z	29	stimuli_target_trianglesquares.svg	stimuli_distractor_diamondtriangles.svg	22	yes	44	1	679	0	0			0	0			1				0	
6.6.1	win	2023-07-15	15:50:26	15:53:39	187956	5d0e0c9c312297001a37d0ca	4	1	main_z	7	advance_on_keypress_ZEE	30	stimuli_target_trianglesquares.svg	stimuli_distractor_diamondtriangles.svg	22	yes	57	0	276	0	0			0	0			1				0	
6.6.1	win	2023-07-15	15:50:26	15:53:40	189582	5d0e0c9c312297001a37d0ca	4	1	main_z	7	main_z	31	stimuli_distractor_diamondtriangles.svg	stimuli_target_diamondsquares.svg	32	yes	44	1	722	0	0			0	0			1				0	
6.6.1	win	2023-07-15	15:50:26	15:53:40	189582	5d0e0c9c312297001a37d0ca	4	1	main_z	7	advance_on_keypress_ZEE	32	stimuli_distractor_diamondtriangles.svg	stimuli_target_diamondsquares.svg	32	yes	57	0	249	0	0			0	0			1				0	
6.6.1	win	2023-07-15	15:50:26	15:53:42	191350	5d0e0c9c312297001a37d0ca	4	1	main_z	7	main_z	33	stimuli_distractor_trianglediamonds.svg	stimuli_target_diamondsquares.svg	28	yes	44	1	873	0	0			0	0			1				0	
6.6.1	win	2023-07-15	15:50:26	15:53:42	191350	5d0e0c9c312297001a37d0ca	4	1	main_z	7	advance_on_keypress_ZEE	34	stimuli_distractor_trianglediamonds.svg	stimuli_target_diamondsquares.svg	28	yes	57	0	290	0	0			0	0			1				0	
6.6.1	win	2023-07-15	15:50:26	15:53:44	193199	5d0e0c9c312297001a37d0ca	4	1	main_z	7	main_z	35	stimuli_target_diamondsquares.svg	stimuli_distractor_diamondtriangles.svg	24	yes	44	1	922	0	0			0	0			1				0	
6.6.1	win	2023-07-15	15:50:26	15:53:44	193199	5d0e0c9c312297001a37d0ca	4	1	main_z	7	advance_on_keypress_ZEE	36	stimuli_target_diamondsquares.svg	stimuli_distractor_diamondtriangles.svg	24	yes	57	0	296	0	0			0	0			1				0	
6.6.1	win	2023-07-15	15:50:26	15:53:46	195452	5d0e0c9c312297001a37d0ca	4	1	main_z	7	main_z	37	stimuli_distractor_diamondtriangles.svg	stimuli_target_squaretriangles.svg	15	yes	44	1	1325	0	0			0	0			1				0	
6.6.1	win	2023-07-15	15:50:26	15:53:46	195452	5d0e0c9c312297001a37d0ca	4	1	main_z	7	advance_on_keypress_ZEE	38	stimuli_distractor_diamondtriangles.svg	stimuli_target_squaretriangles.svg	15	yes	57	0	163	0	0			0	0			1				0	
6.6.1	win	2023-07-15	15:50:26	15:53:48	197600	5d0e0c9c312297001a37d0ca	4	1	main_z	7	main_z	39	stimuli_distractor_diamondtriangles.svg	stimuli_target_trianglerectangles.svg	29	yes	44	1	1356	0	0			0	0			1				0	
6.6.1	win	2023-07-15	15:50:26	15:53:48	197600	5d0e0c9c312297001a37d0ca	4	1	main_z	7	advance_on_keypress_ZEE	40	stimuli_distractor_diamondtriangles.svg	stimuli_target_trianglerectangles.svg	29	yes	57	0	117	0	0			0	0			1				0	
6.6.1	win	2023-07-15	15:50:26	15:53:51	200361	5d0e0c9c312297001a37d0ca	4	1	main_z	7	main_z	41	stimuli_distractor_trianglediamonds.svg	stimuli_distractor_trianglediamonds.svg	34	no	0	1	2000	0	0			0	0			1				0	
6.6.1	win	2023-07-15	15:50:26	15:53:51	200361	5d0e0c9c312297001a37d0ca	4	1	main_z	7	advance_on_keypress_ZEE	42	stimuli_distractor_trianglediamonds.svg	stimuli_distractor_trianglediamonds.svg	34	no	57	0	291	0	0			0	0			1				0	
6.6.1	win	2023-07-15	15:50:26	15:53:53	201958	5d0e0c9c312297001a37d0ca	4	1	main_z	7	main_z	43	stimuli_target_diamondrectangles.svg	stimuli_distractor_trianglediamonds.svg	19	yes	44	1	664	0	0			0	0			1				0	
6.6.1	win	2023-07-15	15:50:26	15:53:53	201958	5d0e0c9c312297001a37d0ca	4	1	main_z	7	advance_on_keypress_ZEE	44	stimuli_target_diamondrectangles.svg	stimuli_distractor_trianglediamonds.svg	19	yes	57	0	172	0	0			0	0			1				0	
6.6.1	win	2023-07-15	15:50:26	15:53:55	203812	5d0e0c9c312297001a37d0ca	4	1	main_z	7	main_z	45	stimuli_target_rectanglediamonds.svg	stimuli_distractor_trianglediamonds.svg	2	yes	44	1	1035	0	0			0	0			1				0	
6.6.1	win	2023-07-15	15:50:26	15:53:55	203812	5d0e0c9c312297001a37d0ca	4	1	main_z	7	advance_on_keypress_ZEE	46	stimuli_target_rectanglediamonds.svg	stimuli_distractor_trianglediamonds.svg	2	yes	57	0	194	0	0			0	0			1				0	
6.6.1	win	2023-07-15	15:50:26	15:53:56	205521	5d0e0c9c312297001a37d0ca	4	1	main_z	7	main_z	47	stimuli_distractor_diamondtriangles.svg	stimuli_target_squarediamonds.svg	16	yes	44	1	877	0	0			0	0			1				0	
6.6.1	win	2023-07-15	15:50:26	15:53:56	205521	5d0e0c9c312297001a37d0ca	4	1	main_z	7	advance_on_keypress_ZEE	48	stimuli_distractor_diamondtriangles.svg	stimuli_target_squarediamonds.svg	16	yes	57	0	217	0	0			0	0			1				0	
6.6.1	win	2023-07-15	15:50:26	15:53:58	207169	5d0e0c9c312297001a37d0ca	4	1	main_z	7	main_z	49	stimuli_distractor_diamondtriangles.svg	stimuli_target_rectangletriangles.svg	13	yes	44	1	791	0	0			0	0			1				0	
6.6.1	win	2023-07-15	15:50:26	15:53:58	207169	5d0e0c9c312297001a37d0ca	4	1	main_z	7	advance_on_keypress_ZEE	50	stimuli_distractor_diamondtriangles.svg	stimuli_target_rectangletriangles.svg	13	yes	57	0	212	0	0			0	0			1				0	
6.6.1	win	2023-07-15	15:50:26	15:54:01	210011	5d0e0c9c312297001a37d0ca	4	1	main_z	7	main_z	51	stimuli_distractor_diamondtriangles.svg	stimuli_distractor_trianglediamonds.svg	38	no	0	1	2000	0	0			0	0			1				0	
6.6.1	win	2023-07-15	15:50:26	15:54:01	210011	5d0e0c9c312297001a37d0ca	4	1	main_z	7	advance_on_keypress_ZEE	52	stimuli_distractor_diamondtriangles.svg	stimuli_distractor_trianglediamonds.svg	38	no	57	0	450	0	0			0	0			1				0	
6.6.1	win	2023-07-15	15:50:26	15:54:02	211568	5d0e0c9c312297001a37d0ca	4	1	main_z	7	main_z	53	stimuli_target_squarediamonds.svg	stimuli_distractor_trianglediamonds.svg	4	yes	44	1	456	0	0			0	0			1				0	
6.6.1	win	2023-07-15	15:50:26	15:54:02	211568	5d0e0c9c312297001a37d0ca	4	1	main_z	7	advance_on_keypress_ZEE	54	stimuli_target_squarediamonds.svg	stimuli_distractor_trianglediamonds.svg	4	yes	57	0	840	0	0			0	0			1				0	
6.6.1	win	2023-07-15	15:50:26	15:54:04	213795	5d0e0c9c312297001a37d0ca	4	1	main_z	7	main_z	55	stimuli_target_squaretriangles.svg	stimuli_distractor_trianglediamonds.svg	3	yes	44	1	751	0	0			0	0			1				0	
6.6.1	win	2023-07-15	15:50:26	15:54:04	213795	5d0e0c9c312297001a37d0ca	4	1	main_z	7	advance_on_keypress_ZEE	56	stimuli_target_squaretriangles.svg	stimuli_distractor_trianglediamonds.svg	3	yes	57	0	285	0	0			0	0			1				0	
6.6.1	win	2023-07-15	15:50:26	15:54:07	216047	5d0e0c9c312297001a37d0ca	4	1	main_z	7	main_z	57	stimuli_distractor_trianglediamonds.svg	stimuli_target_trianglesquares.svg	26	yes	44	1	1319	0	0			0	0			1				0	
6.6.1	win	2023-07-15	15:50:26	15:54:07	216047	5d0e0c9c312297001a37d0ca	4	1	main_z	7	advance_on_keypress_ZEE	58	stimuli_distractor_trianglediamonds.svg	stimuli_target_trianglesquares.svg	26	yes	57	0	184	0	0			0	0			1				0	
6.6.1	win	2023-07-15	15:50:26	15:54:10	218878	5d0e0c9c312297001a37d0ca	4	1	main_z	7	main_z	59	stimuli_distractor_trianglediamonds.svg	stimuli_distractor_diamondtriangles.svg	36	no	0	1	2000	0	0			0	0			1				0	
6.6.1	win	2023-07-15	15:50:26	15:54:10	218878	5d0e0c9c312297001a37d0ca	4	1	main_z	7	advance_on_keypress_ZEE	60	stimuli_distractor_trianglediamonds.svg	stimuli_distractor_diamondtriangles.svg	36	no	57	0	640	0	0			0	0			1				0	
6.6.1	win	2023-07-15	15:50:26	15:54:12	220911	5d0e0c9c312297001a37d0ca	4	1	main_z	7	main_z	61	stimuli_distractor_trianglediamonds.svg	stimuli_distractor_diamondtriangles.svg	35	no	44	0	749	0	0			0	0			1				0	
6.6.1	win	2023-07-15	15:50:26	15:54:12	220911	5d0e0c9c312297001a37d0ca	4	1	main_z	7	advance_on_keypress_ZEE	62	stimuli_distractor_trianglediamonds.svg	stimuli_distractor_diamondtriangles.svg	35	no	57	0	723	0	0			0	0			1				0	
6.6.1	win	2023-07-15	15:50:26	15:54:14	223093	5d0e0c9c312297001a37d0ca	4	1	main_z	7	main_z	63	stimuli_target_squarediamonds.svg	stimuli_distractor_diamondtriangles.svg	8	yes	44	1	815	0	0			0	0			1				0	
6.6.1	win	2023-07-15	15:50:26	15:54:14	223093	5d0e0c9c312297001a37d0ca	4	1	main_z	7	advance_on_keypress_ZEE	64	stimuli_target_squarediamonds.svg	stimuli_distractor_diamondtriangles.svg	8	yes	57	0	710	0	0			0	0			1				0	
6.6.1	win	2023-07-15	15:50:26	15:54:17	226445	5d0e0c9c312297001a37d0ca	4	1	main_z	7	main_z	65	stimuli_distractor_diamondtriangles.svg	stimuli_distractor_diamondtriangles.svg	39	no	0	1	2000	0	0			0	0			1				0	
6.6.1	win	2023-07-15	15:50:26	15:54:17	226445	5d0e0c9c312297001a37d0ca	4	1	main_z	7	advance_on_keypress_ZEE	66	stimuli_distractor_diamondtriangles.svg	stimuli_distractor_diamondtriangles.svg	39	no	57	0	243	0	0			0	0			1				0	
6.6.1	win	2023-07-15	15:50:26	15:54:19	228206	5d0e0c9c312297001a37d0ca	4	1	main_z	7	main_z	67	stimuli_distractor_trianglediamonds.svg	stimuli_target_squaretriangles.svg	11	yes	44	1	878	0	0			0	0			1				0	
6.6.1	win	2023-07-15	15:50:26	15:54:19	228206	5d0e0c9c312297001a37d0ca	4	1	main_z	7	advance_on_keypress_ZEE	68	stimuli_distractor_trianglediamonds.svg	stimuli_target_squaretriangles.svg	11	yes	57	0	574	0	0			0	0			1				0	
6.6.1	win	2023-07-15	15:50:26	15:54:21	230455	5d0e0c9c312297001a37d0ca	4	1	main_z	7	main_z	69	stimuli_distractor_trianglediamonds.svg	stimuli_target_squarediamonds.svg	12	yes	44	1	1042	0	0			0	0			1				0	
6.6.1	win	2023-07-15	15:50:26	15:54:21	230455	5d0e0c9c312297001a37d0ca	4	1	main_z	7	advance_on_keypress_ZEE	70	stimuli_distractor_trianglediamonds.svg	stimuli_target_squarediamonds.svg	12	yes	57	0	387	0	0			0	0			1				0	
6.6.1	win	2023-07-15	15:50:26	15:54:23	232627	5d0e0c9c312297001a37d0ca	4	1	main_z	7	main_z	71	stimuli_target_diamondsquares.svg	stimuli_distractor_trianglediamonds.svg	20	yes	44	1	1149	0	0			0	0			1				0	
6.6.1	win	2023-07-15	15:50:26	15:54:23	232627	5d0e0c9c312297001a37d0ca	4	1	main_z	7	advance_on_keypress_ZEE	72	stimuli_target_diamondsquares.svg	stimuli_distractor_trianglediamonds.svg	20	yes	57	0	348	0	0			0	0			1				0	
6.6.1	win	2023-07-15	15:50:26	15:54:26	235629	5d0e0c9c312297001a37d0ca	4	1	main_z	7	main_z	73	stimuli_distractor_diamondtriangles.svg	stimuli_distractor_trianglediamonds.svg	37	no	0	1	2000	0	0			0	0			1				0	
6.6.1	win	2023-07-15	15:50:26	15:54:26	235629	5d0e0c9c312297001a37d0ca	4	1	main_z	7	advance_on_keypress_ZEE	74	stimuli_distractor_diamondtriangles.svg	stimuli_distractor_trianglediamonds.svg	37	no	57	0	722	0	0			0	0			1				0	
6.6.1	win	2023-07-15	15:50:26	15:54:29	237881	5d0e0c9c312297001a37d0ca	4	1	main_z	7	main_z	75	stimuli_target_trianglerectangles.svg	stimuli_distractor_trianglediamonds.svg	17	yes	44	1	885	0	0			0	0			1				0	
6.6.1	win	2023-07-15	15:50:26	15:54:29	237881	5d0e0c9c312297001a37d0ca	4	1	main_z	7	advance_on_keypress_ZEE	76	stimuli_target_trianglerectangles.svg	stimuli_distractor_trianglediamonds.svg	17	yes	57	0	185	0	0			0	0			1				0	
6.6.1	win	2023-07-15	15:50:26	15:54:30	239789	5d0e0c9c312297001a37d0ca	4	1	main_z	7	main_z	77	stimuli_target_rectangletriangles.svg	stimuli_distractor_diamondtriangles.svg	5	yes	44	1	1077	0	0			0	0			1				0	
6.6.1	win	2023-07-15	15:50:26	15:54:30	239789	5d0e0c9c312297001a37d0ca	4	1	main_z	7	advance_on_keypress_ZEE	78	stimuli_target_rectangletriangles.svg	stimuli_distractor_diamondtriangles.svg	5	yes	57	0	192	0	0			0	0			1				0	
6.6.1	win	2023-07-15	15:50:26	15:54:33	242044	5d0e0c9c312297001a37d0ca	4	1	main_z	7	main_z	79	stimuli_distractor_diamondtriangles.svg	stimuli_target_rectanglediamonds.svg	14	yes	44	1	1432	0	0			0	0			1				0	
6.6.1	win	2023-07-15	15:50:26	15:54:33	242044	5d0e0c9c312297001a37d0ca	4	1	main_z	7	advance_on_keypress_ZEE	80	stimuli_distractor_diamondtriangles.svg	stimuli_target_rectanglediamonds.svg	14	yes	57	0	193	0	0			0	0			1				0	
6.6.1	win	2023-07-15	15:50:26	15:54:36	244879	5d0e0c9c312297001a37d0ca	4	1	main_z	7	main_z	81	stimuli_distractor_trianglediamonds.svg	stimuli_distractor_trianglediamonds.svg	34	no	0	1	2000	0	0			0	0			1				0	
6.6.1	win	2023-07-15	15:50:26	15:54:36	244879	5d0e0c9c312297001a37d0ca	4	1	main_z	7	advance_on_keypress_ZEE	82	stimuli_distractor_trianglediamonds.svg	stimuli_distractor_trianglediamonds.svg	34	no	57	0	492	0	0			0	0			1				0	
6.6.1	win	2023-07-15	15:50:26	15:54:38	246951	5d0e0c9c312297001a37d0ca	4	1	main_z	7	main_z	83	stimuli_target_trianglerectangles.svg	stimuli_distractor_diamondtriangles.svg	21	yes	44	1	938	0	0			0	0			1				0	
6.6.1	win	2023-07-15	15:50:26	15:54:38	246951	5d0e0c9c312297001a37d0ca	4	1	main_z	7	advance_on_keypress_ZEE	84	stimuli_target_trianglerectangles.svg	stimuli_distractor_diamondtriangles.svg	21	yes	57	0	172	0	0			0	0			1				0	
6.6.1	win	2023-07-15	15:50:26	15:54:39	248534	5d0e0c9c312297001a37d0ca	4	1	main_z	7	main_z	85	stimuli_distractor_trianglediamonds.svg	stimuli_target_trianglesquares.svg	26	yes	44	1	770	0	0			0	0			1				0	
6.6.1	win	2023-07-15	15:50:26	15:54:39	248534	5d0e0c9c312297001a37d0ca	4	1	main_z	7	advance_on_keypress_ZEE	86	stimuli_distractor_trianglediamonds.svg	stimuli_target_trianglesquares.svg	26	yes	57	0	224	0	0			0	0			1				0	
6.6.1	win	2023-07-15	15:50:26	15:54:41	250093	5d0e0c9c312297001a37d0ca	4	1	main_z	7	main_z	87	stimuli_target_trianglerectangles.svg	stimuli_distractor_trianglediamonds.svg	17	yes	44	1	697	0	0			0	0			1				0	
6.6.1	win	2023-07-15	15:50:26	15:54:41	250093	5d0e0c9c312297001a37d0ca	4	1	main_z	7	advance_on_keypress_ZEE	88	stimuli_target_trianglerectangles.svg	stimuli_distractor_trianglediamonds.svg	17	yes	57	0	245	0	0			0	0			1				0	
6.6.1	win	2023-07-15	15:50:26	15:54:43	252045	5d0e0c9c312297001a37d0ca	4	1	main_z	7	main_z	89	stimuli_distractor_diamondtriangles.svg	stimuli_target_rectanglediamonds.svg	14	yes	44	1	1081	0	0			0	0			1				0	
6.6.1	win	2023-07-15	15:50:26	15:54:43	252045	5d0e0c9c312297001a37d0ca	4	1	main_z	7	advance_on_keypress_ZEE	90	stimuli_distractor_diamondtriangles.svg	stimuli_target_rectanglediamonds.svg	14	yes	57	0	194	0	0			0	0			1				0	
6.6.1	win	2023-07-15	15:50:26	15:54:44	253629	5d0e0c9c312297001a37d0ca	4	1	main_z	7	main_z	91	stimuli_distractor_diamondtriangles.svg	stimuli_target_diamondrectangles.svg	31	yes	44	1	749	0	0			0	0			1				0	
6.6.1	win	2023-07-15	15:50:26	15:54:44	253629	5d0e0c9c312297001a37d0ca	4	1	main_z	7	advance_on_keypress_ZEE	92	stimuli_distractor_diamondtriangles.svg	stimuli_target_diamondrectangles.svg	31	yes	57	0	236	0	0			0	0			1				0	
6.6.1	win	2023-07-15	15:50:26	15:54:47	256513	5d0e0c9c312297001a37d0ca	4	1	main_z	7	main_z	93	stimuli_distractor_diamondtriangles.svg	stimuli_target_squaretriangles.svg	15	yes	0	0	2000	0	0			0	0			1				0	
6.6.1	win	2023-07-15	15:50:26	15:54:47	256513	5d0e0c9c312297001a37d0ca	4	1	main_z	7	advance_on_keypress_ZEE	94	stimuli_distractor_diamondtriangles.svg	stimuli_target_squaretriangles.svg	15	yes	57	0	475	0	0			0	0			1				0	
6.6.1	win	2023-07-15	15:50:26	15:54:50	259630	5d0e0c9c312297001a37d0ca	4	1	main_z	7	main_z	95	stimuli_distractor_diamondtriangles.svg	stimuli_distractor_diamondtriangles.svg	40	no	0	1	2000	0	0			0	0			1				0	
6.6.1	win	2023-07-15	15:50:26	15:54:50	259630	5d0e0c9c312297001a37d0ca	4	1	main_z	7	advance_on_keypress_ZEE	96	stimuli_distractor_diamondtriangles.svg	stimuli_distractor_diamondtriangles.svg	40	no	57	0	239	0	0			0	0			1				0	
6.6.1	win	2023-07-15	15:50:26	15:54:52	261548	5d0e0c9c312297001a37d0ca	4	1	main_z	7	main_z	97	stimuli_target_diamondrectangles.svg	stimuli_distractor_trianglediamonds.svg	19	yes	44	1	1034	0	0			0	0			1				0	
6.6.1	win	2023-07-15	15:50:26	15:54:52	261548	5d0e0c9c312297001a37d0ca	4	1	main_z	7	advance_on_keypress_ZEE	98	stimuli_target_diamondrectangles.svg	stimuli_distractor_trianglediamonds.svg	19	yes	57	0	204	0	0			0	0			1				0	
6.6.1	win	2023-07-15	15:50:26	15:54:54	263292	5d0e0c9c312297001a37d0ca	4	1	main_z	7	main_z	99	stimuli_target_rectanglediamonds.svg	stimuli_distractor_diamondtriangles.svg	6	yes	44	1	895	0	0			0	0			1				0	
6.6.1	win	2023-07-15	15:50:26	15:54:54	263292	5d0e0c9c312297001a37d0ca	4	1	main_z	7	advance_on_keypress_ZEE	100	stimuli_target_rectanglediamonds.svg	stimuli_distractor_diamondtriangles.svg	6	yes	57	0	206	0	0			0	0			1				0	
6.6.1	win	2023-07-15	15:50:26	15:54:56	265379	5d0e0c9c312297001a37d0ca	4	1	main_z	7	main_z	101	stimuli_target_rectangletriangles.svg	stimuli_distractor_diamondtriangles.svg	5	yes	44	1	1248	0	0			0	0			1				0	
6.6.1	win	2023-07-15	15:50:26	15:54:56	265379	5d0e0c9c312297001a37d0ca	4	1	main_z	7	advance_on_keypress_ZEE	102	stimuli_target_rectangletriangles.svg	stimuli_distractor_diamondtriangles.svg	5	yes	57	0	167	0	0			0	0			1				0	
6.6.1	win	2023-07-15	15:50:26	15:54:58	267069	5d0e0c9c312297001a37d0ca	4	1	main_z	7	main_z	103	stimuli_target_diamondrectangles.svg	stimuli_distractor_diamondtriangles.svg	23	yes	44	1	871	0	0			0	0			1				0	
6.6.1	win	2023-07-15	15:50:26	15:54:58	267069	5d0e0c9c312297001a37d0ca	4	1	main_z	7	advance_on_keypress_ZEE	104	stimuli_target_diamondrectangles.svg	stimuli_distractor_diamondtriangles.svg	23	yes	57	0	200	0	0			0	0			1				0	
6.6.1	win	2023-07-15	15:50:26	15:55:00	268805	5d0e0c9c312297001a37d0ca	4	1	main_z	7	main_z	105	stimuli_target_squaretriangles.svg	stimuli_distractor_trianglediamonds.svg	3	yes	44	1	892	0	0			0	0			1				0	
6.6.1	win	2023-07-15	15:50:26	15:55:00	268805	5d0e0c9c312297001a37d0ca	4	1	main_z	7	advance_on_keypress_ZEE	106	stimuli_target_squaretriangles.svg	stimuli_distractor_trianglediamonds.svg	3	yes	57	0	205	0	0			0	0			1				0	
6.6.1	win	2023-07-15	15:50:26	15:55:01	270593	5d0e0c9c312297001a37d0ca	4	1	main_z	7	main_z	107	stimuli_distractor_trianglediamonds.svg	stimuli_target_rectanglediamonds.svg	10	yes	44	1	945	0	0			0	0			1				0	
6.6.1	win	2023-07-15	15:50:26	15:55:01	270593	5d0e0c9c312297001a37d0ca	4	1	main_z	7	advance_on_keypress_ZEE	108	stimuli_distractor_trianglediamonds.svg	stimuli_target_rectanglediamonds.svg	10	yes	57	0	188	0	0			0	0			1				0	
6.6.1	win	2023-07-15	15:50:26	15:55:03	272340	5d0e0c9c312297001a37d0ca	4	1	main_z	7	main_z	109	stimuli_distractor_trianglediamonds.svg	stimuli_target_diamondsquares.svg	28	yes	44	1	927	0	0			0	0			1				0	
6.6.1	win	2023-07-15	15:50:26	15:55:03	272340	5d0e0c9c312297001a37d0ca	4	1	main_z	7	advance_on_keypress_ZEE	110	stimuli_distractor_trianglediamonds.svg	stimuli_target_diamondsquares.svg	28	yes	57	0	164	0	0			0	0			1				0	
6.6.1	win	2023-07-15	15:50:26	15:55:05	274231	5d0e0c9c312297001a37d0ca	4	1	main_z	7	main_z	111	stimuli_distractor_diamondtriangles.svg	stimuli_target_trianglerectangles.svg	29	yes	44	1	1083	0	0			0	0			1				0	
6.6.1	win	2023-07-15	15:50:26	15:55:05	274231	5d0e0c9c312297001a37d0ca	4	1	main_z	7	advance_on_keypress_ZEE	112	stimuli_distractor_diamondtriangles.svg	stimuli_target_trianglerectangles.svg	29	yes	57	0	246	0	0			0	0			1				0	
6.6.1	win	2023-07-15	15:50:26	15:55:07	276206	5d0e0c9c312297001a37d0ca	4	1	main_z	7	main_z	113	stimuli_distractor_diamondtriangles.svg	stimuli_distractor_trianglediamonds.svg	37	no	44	0	1091	0	0			0	0			1				0	
6.6.1	win	2023-07-15	15:50:26	15:55:07	276206	5d0e0c9c312297001a37d0ca	4	1	main_z	7	advance_on_keypress_ZEE	114	stimuli_distractor_diamondtriangles.svg	stimuli_distractor_trianglediamonds.svg	37	no	57	0	215	0	0			0	0			1				0	
6.6.1	win	2023-07-15	15:50:26	15:55:09	278172	5d0e0c9c312297001a37d0ca	4	1	main_z	7	main_z	115	stimuli_distractor_diamondtriangles.svg	stimuli_target_rectangletriangles.svg	13	yes	44	1	1107	0	0			0	0			1				0	
6.6.1	win	2023-07-15	15:50:26	15:55:09	278172	5d0e0c9c312297001a37d0ca	4	1	main_z	7	advance_on_keypress_ZEE	116	stimuli_distractor_diamondtriangles.svg	stimuli_target_rectangletriangles.svg	13	yes	57	0	264	0	0			0	0			1				0	
6.6.1	win	2023-07-15	15:50:26	15:55:11	279997	5d0e0c9c312297001a37d0ca	4	1	main_z	7	main_z	117	stimuli_target_diamondsquares.svg	stimuli_distractor_diamondtriangles.svg	24	yes	44	1	932	0	0			0	0			1				0	
6.6.1	win	2023-07-15	15:50:26	15:55:11	279997	5d0e0c9c312297001a37d0ca	4	1	main_z	7	advance_on_keypress_ZEE	118	stimuli_target_diamondsquares.svg	stimuli_distractor_diamondtriangles.svg	24	yes	57	0	219	0	0			0	0			1				0	
6.6.1	win	2023-07-15	15:50:26	15:55:12	281676	5d0e0c9c312297001a37d0ca	4	1	main_z	7	main_z	119	stimuli_target_trianglesquares.svg	stimuli_distractor_trianglediamonds.svg	18	yes	44	1	811	0	0			0	0			1				0	
6.6.1	win	2023-07-15	15:50:26	15:55:12	281676	5d0e0c9c312297001a37d0ca	4	1	main_z	7	advance_on_keypress_ZEE	120	stimuli_target_trianglesquares.svg	stimuli_distractor_trianglediamonds.svg	18	yes	57	0	238	0	0			0	0			1				0	
6.6.1	win	2023-07-15	15:50:26	15:55:14	283738	5d0e0c9c312297001a37d0ca	4	1	main_z	7	main_z	121	stimuli_target_rectanglediamonds.svg	stimuli_distractor_trianglediamonds.svg	2	yes	44	1	1190	0	0			0	0			1				0	
6.6.1	win	2023-07-15	15:50:26	15:55:14	283738	5d0e0c9c312297001a37d0ca	4	1	main_z	7	advance_on_keypress_ZEE	122	stimuli_target_rectanglediamonds.svg	stimuli_distractor_trianglediamonds.svg	2	yes	57	0	184	0	0			0	0			1				0	
6.6.1	win	2023-07-15	15:50:26	15:55:17	286065	5d0e0c9c312297001a37d0ca	4	1	main_z	7	main_z	123	stimuli_distractor_trianglediamonds.svg	stimuli_target_diamondrectangles.svg	27	yes	44	1	1500	0	0			0	0			1				0	
6.6.1	win	2023-07-15	15:50:26	15:55:17	286065	5d0e0c9c312297001a37d0ca	4	1	main_z	7	advance_on_keypress_ZEE	124	stimuli_distractor_trianglediamonds.svg	stimuli_target_diamondrectangles.svg	27	yes	57	0	154	0	0			0	0			1				0	
6.6.1	win	2023-07-15	15:50:26	15:55:20	288865	5d0e0c9c312297001a37d0ca	4	1	main_z	7	main_z	125	stimuli_distractor_diamondtriangles.svg	stimuli_distractor_diamondtriangles.svg	39	no	0	1	2000	0	0			0	0			1				0	
6.6.1	win	2023-07-15	15:50:26	15:55:20	288865	5d0e0c9c312297001a37d0ca	4	1	main_z	7	advance_on_keypress_ZEE	126	stimuli_distractor_diamondtriangles.svg	stimuli_distractor_diamondtriangles.svg	39	no	57	0	288	0	0			0	0			1				0	
6.6.1	win	2023-07-15	15:50:26	15:55:21	290544	5d0e0c9c312297001a37d0ca	4	1	main_z	7	main_z	127	stimuli_target_squaretriangles.svg	stimuli_distractor_diamondtriangles.svg	7	yes	44	1	746	0	0			0	0			1				0	
6.6.1	win	2023-07-15	15:50:26	15:55:21	290544	5d0e0c9c312297001a37d0ca	4	1	main_z	7	advance_on_keypress_ZEE	128	stimuli_target_squaretriangles.svg	stimuli_distractor_diamondtriangles.svg	7	yes	57	0	288	0	0			0	0			1				0	
6.6.1	win	2023-07-15	15:50:26	15:55:23	292125	5d0e0c9c312297001a37d0ca	4	1	main_z	7	main_z	129	stimuli_distractor_diamondtriangles.svg	stimuli_target_diamondsquares.svg	32	yes	44	1	660	0	0			0	0			1				0	
6.6.1	win	2023-07-15	15:50:26	15:55:23	292125	5d0e0c9c312297001a37d0ca	4	1	main_z	7	advance_on_keypress_ZEE	130	stimuli_distractor_diamondtriangles.svg	stimuli_target_diamondsquares.svg	32	yes	57	0	141	0	0			0	0			1				0	
6.6.1	win	2023-07-15	15:50:26	15:55:25	293803	5d0e0c9c312297001a37d0ca	4	1	main_z	7	main_z	131	stimuli_target_squarediamonds.svg	stimuli_distractor_diamondtriangles.svg	8	yes	44	1	904	0	0			0	0			1				0	
6.6.1	win	2023-07-15	15:50:26	15:55:25	293803	5d0e0c9c312297001a37d0ca	4	1	main_z	7	advance_on_keypress_ZEE	132	stimuli_target_squarediamonds.svg	stimuli_distractor_diamondtriangles.svg	8	yes	57	0	146	0	0			0	0			1				0	
6.6.1	win	2023-07-15	15:50:26	15:55:27	296582	5d0e0c9c312297001a37d0ca	4	1	main_z	7	main_z	133	stimuli_distractor_trianglediamonds.svg	stimuli_distractor_trianglediamonds.svg	33	no	0	1	2000	0	0			0	0			1				0	
6.6.1	win	2023-07-15	15:50:26	15:55:27	296582	5d0e0c9c312297001a37d0ca	4	1	main_z	7	advance_on_keypress_ZEE	134	stimuli_distractor_trianglediamonds.svg	stimuli_distractor_trianglediamonds.svg	33	no	57	0	291	0	0			0	0			1				0	
6.6.1	win	2023-07-15	15:50:26	15:55:29	298223	5d0e0c9c312297001a37d0ca	4	1	main_z	7	main_z	135	stimuli_distractor_trianglediamonds.svg	stimuli_target_trianglerectangles.svg	25	yes	44	1	707	0	0			0	0			1				0	
6.6.1	win	2023-07-15	15:50:26	15:55:29	298223	5d0e0c9c312297001a37d0ca	4	1	main_z	7	advance_on_keypress_ZEE	136	stimuli_distractor_trianglediamonds.svg	stimuli_target_trianglerectangles.svg	25	yes	57	0	151	0	0			0	0			1				0	
6.6.1	win	2023-07-15	15:50:26	15:55:31	300348	5d0e0c9c312297001a37d0ca	4	1	main_z	7	main_z	137	stimuli_distractor_trianglediamonds.svg	stimuli_target_rectangletriangles.svg	9	yes	44	1	1332	0	0			0	0			1				0	
6.6.1	win	2023-07-15	15:50:26	15:55:31	300348	5d0e0c9c312297001a37d0ca	4	1	main_z	7	advance_on_keypress_ZEE	138	stimuli_distractor_trianglediamonds.svg	stimuli_target_rectangletriangles.svg	9	yes	57	0	133	0	0			0	0			1				0	
6.6.1	win	2023-07-15	15:50:26	15:55:34	303132	5d0e0c9c312297001a37d0ca	4	1	main_z	7	main_z	139	stimuli_distractor_trianglediamonds.svg	stimuli_distractor_diamondtriangles.svg	36	no	0	1	2000	0	0			0	0			1				0	
6.6.1	win	2023-07-15	15:50:26	15:55:34	303132	5d0e0c9c312297001a37d0ca	4	1	main_z	7	advance_on_keypress_ZEE	140	stimuli_distractor_trianglediamonds.svg	stimuli_distractor_diamondtriangles.svg	36	no	57	0	568	0	0			0	0			1				0	
6.6.1	win	2023-07-15	15:50:26	15:55:37	306349	5d0e0c9c312297001a37d0ca	4	1	main_z	7	main_z	141	stimuli_distractor_trianglediamonds.svg	stimuli_distractor_diamondtriangles.svg	35	no	0	1	2000	0	0			0	0			1				0	
6.6.1	win	2023-07-15	15:50:26	15:55:37	306349	5d0e0c9c312297001a37d0ca	4	1	main_z	7	advance_on_keypress_ZEE	142	stimuli_distractor_trianglediamonds.svg	stimuli_distractor_diamondtriangles.svg	35	no	57	0	285	0	0			0	0			1				0	
6.6.1	win	2023-07-15	15:50:26	15:55:39	308224	5d0e0c9c312297001a37d0ca	4	1	main_z	7	main_z	143	stimuli_target_diamondsquares.svg	stimuli_distractor_trianglediamonds.svg	20	yes	44	1	941	0	0			0	0			1				0	
6.6.1	win	2023-07-15	15:50:26	15:55:39	308224	5d0e0c9c312297001a37d0ca	4	1	main_z	7	advance_on_keypress_ZEE	144	stimuli_target_diamondsquares.svg	stimuli_distractor_trianglediamonds.svg	20	yes	57	0	153	0	0			0	0			1				0	
6.6.1	win	2023-07-15	15:50:26	15:55:40	309751	5d0e0c9c312297001a37d0ca	4	1	main_z	7	main_z	145	stimuli_distractor_trianglediamonds.svg	stimuli_target_squaretriangles.svg	11	yes	44	1	735	0	0			0	0			1				0	
6.6.1	win	2023-07-15	15:50:26	15:55:40	309751	5d0e0c9c312297001a37d0ca	4	1	main_z	7	advance_on_keypress_ZEE	146	stimuli_distractor_trianglediamonds.svg	stimuli_target_squaretriangles.svg	11	yes	57	0	199	0	0			0	0			1				0	
6.6.1	win	2023-07-15	15:50:26	15:55:42	311082	5d0e0c9c312297001a37d0ca	4	1	main_z	7	main_z	147	stimuli_target_squarediamonds.svg	stimuli_distractor_trianglediamonds.svg	4	yes	44	1	483	0	0			0	0			1				0	
6.6.1	win	2023-07-15	15:50:26	15:55:42	311082	5d0e0c9c312297001a37d0ca	4	1	main_z	7	advance_on_keypress_ZEE	148	stimuli_target_squarediamonds.svg	stimuli_distractor_trianglediamonds.svg	4	yes	57	0	187	0	0			0	0			1				0	
6.6.1	win	2023-07-15	15:50:26	15:55:43	312478	5d0e0c9c312297001a37d0ca	4	1	main_z	7	main_z	149	stimuli_distractor_diamondtriangles.svg	stimuli_target_trianglesquares.svg	30	yes	44	1	563	0	0			0	0			1				0	
6.6.1	win	2023-07-15	15:50:26	15:55:43	312478	5d0e0c9c312297001a37d0ca	4	1	main_z	7	advance_on_keypress_ZEE	150	stimuli_distractor_diamondtriangles.svg	stimuli_target_trianglesquares.svg	30	yes	57	0	230	0	0			0	0			1				0	
6.6.1	win	2023-07-15	15:50:26	15:55:45	313948	5d0e0c9c312297001a37d0ca	4	1	main_z	7	main_z	151	stimuli_distractor_diamondtriangles.svg	stimuli_target_squarediamonds.svg	16	yes	44	1	615	0	0			0	0			1				0	
6.6.1	win	2023-07-15	15:50:26	15:55:45	313948	5d0e0c9c312297001a37d0ca	4	1	main_z	7	advance_on_keypress_ZEE	152	stimuli_distractor_diamondtriangles.svg	stimuli_target_squarediamonds.svg	16	yes	57	0	141	0	0			0	0			1				0	
6.6.1	win	2023-07-15	15:50:26	15:55:47	315881	5d0e0c9c312297001a37d0ca	4	1	main_z	7	main_z	153	stimuli_target_trianglesquares.svg	stimuli_distractor_diamondtriangles.svg	22	yes	44	1	1148	0	0			0	0			1				0	
6.6.1	win	2023-07-15	15:50:26	15:55:47	315881	5d0e0c9c312297001a37d0ca	4	1	main_z	7	advance_on_keypress_ZEE	154	stimuli_target_trianglesquares.svg	stimuli_distractor_diamondtriangles.svg	22	yes	57	0	79	0	0			0	0			1				0	
6.6.1	win	2023-07-15	15:50:26	15:55:49	318599	5d0e0c9c312297001a37d0ca	4	1	main_z	7	main_z	155	stimuli_distractor_trianglediamonds.svg	stimuli_target_squarediamonds.svg	12	yes	0	0	2000	0	0			0	0			1				0	
6.6.1	win	2023-07-15	15:50:26	15:55:49	318599	5d0e0c9c312297001a37d0ca	4	1	main_z	7	advance_on_keypress_ZEE	156	stimuli_distractor_trianglediamonds.svg	stimuli_target_squarediamonds.svg	12	yes	57	0	270	0	0			0	0			1				0	
6.6.1	win	2023-07-15	15:50:26	15:55:51	319989	5d0e0c9c312297001a37d0ca	4	1	main_z	7	main_z	157	stimuli_target_rectangletriangles.svg	stimuli_distractor_trianglediamonds.svg	1	yes	44	1	472	0	0			0	0			1				0	
6.6.1	win	2023-07-15	15:50:26	15:55:51	319989	5d0e0c9c312297001a37d0ca	4	1	main_z	7	advance_on_keypress_ZEE	158	stimuli_target_rectangletriangles.svg	stimuli_distractor_trianglediamonds.svg	1	yes	57	0	147	0	0			0	0			1				0	
6.6.1	win	2023-07-15	15:50:26	15:55:53	322142	5d0e0c9c312297001a37d0ca	4	1	main_z	7	main_z	159	stimuli_distractor_diamondtriangles.svg	stimuli_distractor_trianglediamonds.svg	38	no	44	0	1359	0	0			0	0			1				0	
6.6.1	win	2023-07-15	15:50:26	15:55:53	322142	5d0e0c9c312297001a37d0ca	4	1	main_z	7	advance_on_keypress_ZEE	160	stimuli_distractor_diamondtriangles.svg	stimuli_distractor_trianglediamonds.svg	38	no	57	0	121	0	0			0	0			1				0	
6.6.1	win	2023-07-15	15:50:26	15:56:43	372230	5d0e0c9c312297001a37d0ca	4	1	practice_slash	9	practice_slash	1	stimuli_distractor_diamondtriangles.svg	stimuli_target_diamondrectangles.svg	8	yes	53	1	1029	0	0			0	0			1				0	
6.6.1	win	2023-07-15	15:50:26	15:56:43	372230	5d0e0c9c312297001a37d0ca	4	1	practice_slash	9	advance_on_keypress_SLASH	2	stimuli_distractor_diamondtriangles.svg	stimuli_target_diamondrectangles.svg	8	yes	57	0	773	0	0			0	0			1				0	
6.6.1	win	2023-07-15	15:50:26	15:56:46	375097	5d0e0c9c312297001a37d0ca	4	1	practice_slash	9	practice_slash	3	stimuli_distractor_trianglediamonds.svg	stimuli_target_rectanglediamonds.svg	10	yes	53	1	446	0	0			0	0			1				0	
6.6.1	win	2023-07-15	15:50:26	15:56:46	375097	5d0e0c9c312297001a37d0ca	4	1	practice_slash	9	advance_on_keypress_SLASH	4	stimuli_distractor_trianglediamonds.svg	stimuli_target_rectanglediamonds.svg	10	yes	57	0	444	0	0			0	0			1				0	
6.6.1	win	2023-07-15	15:50:26	15:56:48	377577	5d0e0c9c312297001a37d0ca	4	1	practice_slash	9	practice_slash	5	stimuli_distractor_diamondtriangles.svg	stimuli_target_rectangletriangles.svg	7	yes	53	1	409	0	0			0	0			1				0	
6.6.1	win	2023-07-15	15:50:26	15:56:48	377577	5d0e0c9c312297001a37d0ca	4	1	practice_slash	9	advance_on_keypress_SLASH	6	stimuli_distractor_diamondtriangles.svg	stimuli_target_rectangletriangles.svg	7	yes	57	0	406	0	0			0	0			1				0	
6.6.1	win	2023-07-15	15:50:26	15:56:52	381618	5d0e0c9c312297001a37d0ca	4	1	practice_slash	9	practice_slash	7	stimuli_distractor_diamondtriangles.svg	stimuli_distractor_diamondtriangles.svg	13	no	0	1	2000	0	0			0	0			1				0	
6.6.1	win	2023-07-15	15:50:26	15:56:52	381618	5d0e0c9c312297001a37d0ca	4	1	practice_slash	9	advance_on_keypress_SLASH	8	stimuli_distractor_diamondtriangles.svg	stimuli_distractor_diamondtriangles.svg	13	no	57	0	363	0	0			0	0			1				0	
6.6.1	win	2023-07-15	15:50:26	15:56:55	384112	5d0e0c9c312297001a37d0ca	4	1	practice_slash	9	practice_slash	9	stimuli_distractor_trianglediamonds.svg	stimuli_target_diamondrectangles.svg	12	yes	53	1	494	0	0			0	0			1				0	
6.6.1	win	2023-07-15	15:50:26	15:56:55	384112	5d0e0c9c312297001a37d0ca	4	1	practice_slash	9	advance_on_keypress_SLASH	10	stimuli_distractor_trianglediamonds.svg	stimuli_target_diamondrectangles.svg	12	yes	57	0	675	0	0			0	0			1				0	
6.6.1	win	2023-07-15	15:50:26	15:56:58	386901	5d0e0c9c312297001a37d0ca	4	1	practice_slash	9	practice_slash	11	stimuli_target_squarediamonds.svg	stimuli_distractor_trianglediamonds.svg	5	yes	53	1	483	0	0			0	0			1				0	
6.6.1	win	2023-07-15	15:50:26	15:56:58	386901	5d0e0c9c312297001a37d0ca	4	1	practice_slash	9	advance_on_keypress_SLASH	12	stimuli_target_squarediamonds.svg	stimuli_distractor_trianglediamonds.svg	5	yes	57	0	287	0	0			0	0			1				0	
6.6.1	win	2023-07-15	15:50:26	15:57:00	389218	5d0e0c9c312297001a37d0ca	4	1	practice_slash	9	practice_slash	13	stimuli_target_rectanglediamonds.svg	stimuli_distractor_trianglediamonds.svg	4	yes	53	1	368	0	0			0	0			1				0	
6.6.1	win	2023-07-15	15:50:26	15:57:00	389218	5d0e0c9c312297001a37d0ca	4	1	practice_slash	9	advance_on_keypress_SLASH	14	stimuli_target_rectanglediamonds.svg	stimuli_distractor_trianglediamonds.svg	4	yes	57	0	299	0	0			0	0			1				0	
6.6.1	win	2023-07-15	15:50:26	15:57:04	393168	5d0e0c9c312297001a37d0ca	4	1	practice_slash	9	practice_slash	15	stimuli_distractor_trianglediamonds.svg	stimuli_distractor_trianglediamonds.svg	15	no	0	1	2000	0	0			0	0			1				0	
6.6.1	win	2023-07-15	15:50:26	15:57:04	393168	5d0e0c9c312297001a37d0ca	4	1	practice_slash	9	advance_on_keypress_SLASH	16	stimuli_distractor_trianglediamonds.svg	stimuli_distractor_trianglediamonds.svg	15	no	57	0	329	0	0			0	0			1				0	
6.6.1	win	2023-07-15	15:50:26	15:57:06	395624	5d0e0c9c312297001a37d0ca	4	1	practice_slash	9	practice_slash	17	stimuli_target_diamondsquares.svg	stimuli_distractor_diamondtriangles.svg	3	yes	53	1	489	0	0			0	0			1				0	
6.6.1	win	2023-07-15	15:50:26	15:57:06	395624	5d0e0c9c312297001a37d0ca	4	1	practice_slash	9	advance_on_keypress_SLASH	18	stimuli_target_diamondsquares.svg	stimuli_distractor_diamondtriangles.svg	3	yes	57	0	447	0	0			0	0			1				0	
6.6.1	win	2023-07-15	15:50:26	15:57:10	398968	5d0e0c9c312297001a37d0ca	4	1	practice_slash	9	practice_slash	19	stimuli_distractor_diamondtriangles.svg	stimuli_distractor_trianglediamonds.svg	14	no	53	0	1266	0	0			0	0			1				0	
6.6.1	win	2023-07-15	15:50:26	15:57:10	398968	5d0e0c9c312297001a37d0ca	4	1	practice_slash	9	advance_on_keypress_SLASH	20	stimuli_distractor_diamondtriangles.svg	stimuli_distractor_trianglediamonds.svg	14	no	57	0	435	0	0			0	0			1				0	
6.6.1	win	2023-07-15	15:50:26	15:57:14	403052	5d0e0c9c312297001a37d0ca	4	1	practice_slash	9	practice_slash	21	stimuli_distractor_trianglediamonds.svg	stimuli_distractor_diamondtriangles.svg	16	no	0	1	2000	0	0			0	0			1				0	
6.6.1	win	2023-07-15	15:50:26	15:57:14	403052	5d0e0c9c312297001a37d0ca	4	1	practice_slash	9	advance_on_keypress_SLASH	22	stimuli_distractor_trianglediamonds.svg	stimuli_distractor_diamondtriangles.svg	16	no	57	0	192	0	0			0	0			1				0	
6.6.1	win	2023-07-15	15:50:26	15:57:16	405692	5d0e0c9c312297001a37d0ca	4	1	practice_slash	9	practice_slash	23	stimuli_target_squarediamonds.svg	stimuli_distractor_diamondtriangles.svg	2	yes	53	1	806	0	0			0	0			1				0	
6.6.1	win	2023-07-15	15:50:26	15:57:16	405692	5d0e0c9c312297001a37d0ca	4	1	practice_slash	9	advance_on_keypress_SLASH	24	stimuli_target_squarediamonds.svg	stimuli_distractor_diamondtriangles.svg	2	yes	57	0	420	0	0			0	0			1				0	
6.6.1	win	2023-07-15	15:50:26	15:57:19	408462	5d0e0c9c312297001a37d0ca	4	1	practice_slash	9	practice_slash	25	stimuli_distractor_diamondtriangles.svg	stimuli_target_trianglerectangles.svg	9	yes	53	1	709	0	0			0	0			1				0	
6.6.1	win	2023-07-15	15:50:26	15:57:19	408462	5d0e0c9c312297001a37d0ca	4	1	practice_slash	9	advance_on_keypress_SLASH	26	stimuli_distractor_diamondtriangles.svg	stimuli_target_trianglerectangles.svg	9	yes	57	0	486	0	0			0	0			1				0	
6.6.1	win	2023-07-15	15:50:26	15:57:22	411040	5d0e0c9c312297001a37d0ca	4	1	practice_slash	9	practice_slash	27	stimuli_target_diamondsquares.svg	stimuli_distractor_trianglediamonds.svg	6	yes	53	1	454	0	0			0	0			1				0	
6.6.1	win	2023-07-15	15:50:26	15:57:22	411040	5d0e0c9c312297001a37d0ca	4	1	practice_slash	9	advance_on_keypress_SLASH	28	stimuli_target_diamondsquares.svg	stimuli_distractor_trianglediamonds.svg	6	yes	57	0	375	0	0			0	0			1				0	
6.6.1	win	2023-07-15	15:50:26	15:57:24	413694	5d0e0c9c312297001a37d0ca	4	1	practice_slash	9	practice_slash	29	stimuli_target_rectanglediamonds.svg	stimuli_distractor_diamondtriangles.svg	1	yes	53	1	640	0	0			0	0			1				0	
6.6.1	win	2023-07-15	15:50:26	15:57:24	413694	5d0e0c9c312297001a37d0ca	4	1	practice_slash	9	advance_on_keypress_SLASH	30	stimuli_target_rectanglediamonds.svg	stimuli_distractor_diamondtriangles.svg	1	yes	57	0	452	0	0			0	0			1				0	
6.6.1	win	2023-07-15	15:50:26	15:57:27	416641	5d0e0c9c312297001a37d0ca	4	1	practice_slash	9	practice_slash	31	stimuli_distractor_trianglediamonds.svg	stimuli_target_squarediamonds.svg	11	yes	53	1	854	0	0			0	0			1				0	
6.6.1	win	2023-07-15	15:50:26	15:57:27	416641	5d0e0c9c312297001a37d0ca	4	1	practice_slash	9	advance_on_keypress_SLASH	32	stimuli_distractor_trianglediamonds.svg	stimuli_target_squarediamonds.svg	11	yes	57	0	330	0	0			0	0			1				0	
6.6.1	win	2023-07-15	15:50:26	15:57:32	420976	5d0e0c9c312297001a37d0ca	4	1	main_slash	11	main_slash	1	stimuli_distractor_diamondtriangles.svg	stimuli_target_diamondsquares.svg	32	yes	53	1	673	0	0			0	0			1				0	
6.6.1	win	2023-07-15	15:50:26	15:57:32	420976	5d0e0c9c312297001a37d0ca	4	1	main_slash	11	advance_on_keypress_SLASH	2	stimuli_distractor_diamondtriangles.svg	stimuli_target_diamondsquares.svg	32	yes	57	0	712	0	0			0	0			1				0	
6.6.1	win	2023-07-15	15:50:26	15:57:34	423429	5d0e0c9c312297001a37d0ca	4	1	main_slash	11	main_slash	3	stimuli_target_diamondrectangles.svg	stimuli_distractor_trianglediamonds.svg	19	yes	53	1	1108	0	0			0	0			1				0	
6.6.1	win	2023-07-15	15:50:26	15:57:34	423429	5d0e0c9c312297001a37d0ca	4	1	main_slash	11	advance_on_keypress_SLASH	4	stimuli_target_diamondrectangles.svg	stimuli_distractor_trianglediamonds.svg	19	yes	57	0	169	0	0			0	0			1				0	
6.6.1	win	2023-07-15	15:50:26	15:57:37	426237	5d0e0c9c312297001a37d0ca	4	1	main_slash	11	main_slash	5	stimuli_distractor_trianglediamonds.svg	stimuli_distractor_trianglediamonds.svg	33	no	0	1	2000	0	0			0	0			1				0	
6.6.1	win	2023-07-15	15:50:26	15:57:37	426237	5d0e0c9c312297001a37d0ca	4	1	main_slash	11	advance_on_keypress_SLASH	6	stimuli_distractor_trianglediamonds.svg	stimuli_distractor_trianglediamonds.svg	33	no	57	0	313	0	0			0	0			1				0	
6.6.1	win	2023-07-15	15:50:26	15:57:38	427743	5d0e0c9c312297001a37d0ca	4	1	main_slash	11	main_slash	7	stimuli_target_squarediamonds.svg	stimuli_distractor_diamondtriangles.svg	8	yes	53	1	556	0	0			0	0			1				0	
6.6.1	win	2023-07-15	15:50:26	15:57:38	427743	5d0e0c9c312297001a37d0ca	4	1	main_slash	11	advance_on_keypress_SLASH	8	stimuli_target_squarediamonds.svg	stimuli_distractor_diamondtriangles.svg	8	yes	57	0	247	0	0			0	0			1				0	
6.6.1	win	2023-07-15	15:50:26	15:57:40	429211	5d0e0c9c312297001a37d0ca	4	1	main_slash	11	main_slash	9	stimuli_distractor_diamondtriangles.svg	stimuli_target_rectangletriangles.svg	13	yes	53	1	591	0	0			0	0			1				0	
6.6.1	win	2023-07-15	15:50:26	15:57:40	429211	5d0e0c9c312297001a37d0ca	4	1	main_slash	11	advance_on_keypress_SLASH	10	stimuli_distractor_diamondtriangles.svg	stimuli_target_rectangletriangles.svg	13	yes	57	0	227	0	0			0	0			1				0	
6.6.1	win	2023-07-15	15:50:26	15:57:42	430863	5d0e0c9c312297001a37d0ca	4	1	main_slash	11	main_slash	11	stimuli_distractor_trianglediamonds.svg	stimuli_target_trianglesquares.svg	26	yes	53	1	793	0	0			0	0			1				0	
6.6.1	win	2023-07-15	15:50:26	15:57:42	430863	5d0e0c9c312297001a37d0ca	4	1	main_slash	11	advance_on_keypress_SLASH	12	stimuli_distractor_trianglediamonds.svg	stimuli_target_trianglesquares.svg	26	yes	57	0	205	0	0			0	0			1				0	
6.6.1	win	2023-07-15	15:50:26	15:57:43	432332	5d0e0c9c312297001a37d0ca	4	1	main_slash	11	main_slash	13	stimuli_target_trianglerectangles.svg	stimuli_distractor_diamondtriangles.svg	21	yes	53	1	628	0	0			0	0			1				0	
6.6.1	win	2023-07-15	15:50:26	15:57:43	432332	5d0e0c9c312297001a37d0ca	4	1	main_slash	11	advance_on_keypress_SLASH	14	stimuli_target_trianglerectangles.svg	stimuli_distractor_diamondtriangles.svg	21	yes	57	0	222	0	0			0	0			1				0	
6.6.1	win	2023-07-15	15:50:26	15:57:45	433861	5d0e0c9c312297001a37d0ca	4	1	main_slash	11	main_slash	15	stimuli_distractor_diamondtriangles.svg	stimuli_target_squarediamonds.svg	16	yes	53	1	674	0	0			0	0			1				0	
6.6.1	win	2023-07-15	15:50:26	15:57:45	433861	5d0e0c9c312297001a37d0ca	4	1	main_slash	11	advance_on_keypress_SLASH	16	stimuli_distractor_diamondtriangles.svg	stimuli_target_squarediamonds.svg	16	yes	57	0	211	0	0			0	0			1				0	
6.6.1	win	2023-07-15	15:50:26	15:57:46	435355	5d0e0c9c312297001a37d0ca	4	1	main_slash	11	main_slash	17	stimuli_target_rectanglediamonds.svg	stimuli_distractor_trianglediamonds.svg	2	yes	53	1	651	0	0			0	0			1				0	
6.6.1	win	2023-07-15	15:50:26	15:57:46	435355	5d0e0c9c312297001a37d0ca	4	1	main_slash	11	advance_on_keypress_SLASH	18	stimuli_target_rectanglediamonds.svg	stimuli_distractor_trianglediamonds.svg	2	yes	57	0	207	0	0			0	0			1				0	
6.6.1	win	2023-07-15	15:50:26	15:57:48	436905	5d0e0c9c312297001a37d0ca	4	1	main_slash	11	main_slash	19	stimuli_target_rectangletriangles.svg	stimuli_distractor_trianglediamonds.svg	1	yes	53	1	701	0	0			0	0			1				0	
6.6.1	win	2023-07-15	15:50:26	15:57:48	436905	5d0e0c9c312297001a37d0ca	4	1	main_slash	11	advance_on_keypress_SLASH	20	stimuli_target_rectangletriangles.svg	stimuli_distractor_trianglediamonds.svg	1	yes	57	0	268	0	0			0	0			1				0	
6.6.1	win	2023-07-15	15:50:26	15:57:49	438710	5d0e0c9c312297001a37d0ca	4	1	main_slash	11	main_slash	21	stimuli_target_trianglesquares.svg	stimuli_distractor_trianglediamonds.svg	18	yes	53	1	889	0	0			0	0			1				0	
6.6.1	win	2023-07-15	15:50:26	15:57:49	438710	5d0e0c9c312297001a37d0ca	4	1	main_slash	11	advance_on_keypress_SLASH	22	stimuli_target_trianglesquares.svg	stimuli_distractor_trianglediamonds.svg	18	yes	57	0	180	0	0			0	0			1				0	
6.6.1	win	2023-07-15	15:50:26	15:57:52	441521	5d0e0c9c312297001a37d0ca	4	1	main_slash	11	main_slash	23	stimuli_distractor_diamondtriangles.svg	stimuli_distractor_diamondtriangles.svg	40	no	0	1	2000	0	0			0	0			1				0	
6.6.1	win	2023-07-15	15:50:26	15:57:52	441521	5d0e0c9c312297001a37d0ca	4	1	main_slash	11	advance_on_keypress_SLASH	24	stimuli_distractor_diamondtriangles.svg	stimuli_distractor_diamondtriangles.svg	40	no	57	0	261	0	0			0	0			1				0	
6.6.1	win	2023-07-15	15:50:26	15:57:55	444421	5d0e0c9c312297001a37d0ca	4	1	main_slash	11	main_slash	25	stimuli_distractor_diamondtriangles.svg	stimuli_distractor_trianglediamonds.svg	38	no	0	1	2000	0	0			0	0			1				0	
6.6.1	win	2023-07-15	15:50:26	15:57:55	444421	5d0e0c9c312297001a37d0ca	4	1	main_slash	11	advance_on_keypress_SLASH	26	stimuli_distractor_diamondtriangles.svg	stimuli_distractor_trianglediamonds.svg	38	no	57	0	316	0	0			0	0			1				0	
6.6.1	win	2023-07-15	15:50:26	15:57:57	446146	5d0e0c9c312297001a37d0ca	4	1	main_slash	11	main_slash	27	stimuli_distractor_diamondtriangles.svg	stimuli_target_trianglerectangles.svg	29	yes	53	1	758	0	0			0	0			1				0	
6.6.1	win	2023-07-15	15:50:26	15:57:57	446146	5d0e0c9c312297001a37d0ca	4	1	main_slash	11	advance_on_keypress_SLASH	28	stimuli_distractor_diamondtriangles.svg	stimuli_target_trianglerectangles.svg	29	yes	57	0	203	0	0			0	0			1				0	
6.6.1	win	2023-07-15	15:50:26	15:57:58	447504	5d0e0c9c312297001a37d0ca	4	1	main_slash	11	main_slash	29	stimuli_target_trianglesquares.svg	stimuli_distractor_diamondtriangles.svg	22	yes	53	1	513	0	0			0	0			1				0	
6.6.1	win	2023-07-15	15:50:26	15:57:58	447504	5d0e0c9c312297001a37d0ca	4	1	main_slash	11	advance_on_keypress_SLASH	30	stimuli_target_trianglesquares.svg	stimuli_distractor_diamondtriangles.svg	22	yes	57	0	153	0	0			0	0			1				0	
6.6.1	win	2023-07-15	15:50:26	15:57:59	448736	5d0e0c9c312297001a37d0ca	4	1	main_slash	11	main_slash	31	stimuli_target_trianglerectangles.svg	stimuli_distractor_trianglediamonds.svg	17	yes	53	1	432	0	0			0	0			1				0	
6.6.1	win	2023-07-15	15:50:26	15:57:59	448736	5d0e0c9c312297001a37d0ca	4	1	main_slash	11	advance_on_keypress_SLASH	32	stimuli_target_trianglerectangles.svg	stimuli_distractor_trianglediamonds.svg	17	yes	57	0	107	0	0			0	0			1				0	
6.6.1	win	2023-07-15	15:50:26	15:58:01	449871	5d0e0c9c312297001a37d0ca	4	1	main_slash	11	main_slash	33	stimuli_distractor_trianglediamonds.svg	stimuli_target_rectangletriangles.svg	9	yes	53	1	370	0	0			0	0			1				0	
6.6.1	win	2023-07-15	15:50:26	15:58:01	449871	5d0e0c9c312297001a37d0ca	4	1	main_slash	11	advance_on_keypress_SLASH	34	stimuli_distractor_trianglediamonds.svg	stimuli_target_rectangletriangles.svg	9	yes	57	0	168	0	0			0	0			1				0	
6.6.1	win	2023-07-15	15:50:26	15:58:02	451020	5d0e0c9c312297001a37d0ca	4	1	main_slash	11	main_slash	35	stimuli_distractor_trianglediamonds.svg	stimuli_target_squaretriangles.svg	11	yes	53	1	332	0	0			0	0			1				0	
6.6.1	win	2023-07-15	15:50:26	15:58:02	451020	5d0e0c9c312297001a37d0ca	4	1	main_slash	11	advance_on_keypress_SLASH	36	stimuli_distractor_trianglediamonds.svg	stimuli_target_squaretriangles.svg	11	yes	57	0	96	0	0			0	0			1				0	
6.6.1	win	2023-07-15	15:50:26	15:58:03	452138	5d0e0c9c312297001a37d0ca	4	1	main_slash	11	main_slash	37	stimuli_distractor_diamondtriangles.svg	stimuli_target_rectanglediamonds.svg	14	yes	53	1	375	0	0			0	0			1				0	
6.6.1	win	2023-07-15	15:50:26	15:58:03	452138	5d0e0c9c312297001a37d0ca	4	1	main_slash	11	advance_on_keypress_SLASH	38	stimuli_distractor_diamondtriangles.svg	stimuli_target_rectanglediamonds.svg	14	yes	57	0	113	0	0			0	0			1				0	
6.6.1	win	2023-07-15	15:50:26	15:58:04	453345	5d0e0c9c312297001a37d0ca	4	1	main_slash	11	main_slash	39	stimuli_distractor_trianglediamonds.svg	stimuli_target_diamondrectangles.svg	27	yes	53	1	457	0	0			0	0			1				0	
6.6.1	win	2023-07-15	15:50:26	15:58:04	453345	5d0e0c9c312297001a37d0ca	4	1	main_slash	11	advance_on_keypress_SLASH	40	stimuli_distractor_trianglediamonds.svg	stimuli_target_diamondrectangles.svg	27	yes	57	0	111	0	0			0	0			1				0	
6.6.1	win	2023-07-15	15:50:26	15:58:05	454368	5d0e0c9c312297001a37d0ca	4	1	main_slash	11	main_slash	41	stimuli_target_rectangletriangles.svg	stimuli_distractor_diamondtriangles.svg	5	yes	53	1	280	0	0			0	0			1				0	
6.6.1	win	2023-07-15	15:50:26	15:58:05	454368	5d0e0c9c312297001a37d0ca	4	1	main_slash	11	advance_on_keypress_SLASH	42	stimuli_target_rectangletriangles.svg	stimuli_distractor_diamondtriangles.svg	5	yes	57	0	139	0	0			0	0			1				0	
6.6.1	win	2023-07-15	15:50:26	15:58:06	455416	5d0e0c9c312297001a37d0ca	4	1	main_slash	11	main_slash	43	stimuli_target_rectanglediamonds.svg	stimuli_distractor_diamondtriangles.svg	6	yes	53	1	278	0	0			0	0			1				0	
6.6.1	win	2023-07-15	15:50:26	15:58:06	455416	5d0e0c9c312297001a37d0ca	4	1	main_slash	11	advance_on_keypress_SLASH	44	stimuli_target_rectanglediamonds.svg	stimuli_distractor_diamondtriangles.svg	6	yes	57	0	95	0	0			0	0			1				0	
6.6.1	win	2023-07-15	15:50:26	15:58:07	456680	5d0e0c9c312297001a37d0ca	4	1	main_slash	11	main_slash	45	stimuli_distractor_trianglediamonds.svg	stimuli_target_rectanglediamonds.svg	10	yes	53	1	542	0	0			0	0			1				0	
6.6.1	win	2023-07-15	15:50:26	15:58:07	456680	5d0e0c9c312297001a37d0ca	4	1	main_slash	11	advance_on_keypress_SLASH	46	stimuli_distractor_trianglediamonds.svg	stimuli_target_rectanglediamonds.svg	10	yes	57	0	82	0	0			0	0			1				0	
6.6.1	win	2023-07-15	15:50:26	15:58:09	457807	5d0e0c9c312297001a37d0ca	4	1	main_slash	11	main_slash	47	stimuli_distractor_trianglediamonds.svg	stimuli_target_squarediamonds.svg	12	yes	53	1	402	0	0			0	0			1				0	
6.6.1	win	2023-07-15	15:50:26	15:58:09	457807	5d0e0c9c312297001a37d0ca	4	1	main_slash	11	advance_on_keypress_SLASH	48	stimuli_distractor_trianglediamonds.svg	stimuli_target_squarediamonds.svg	12	yes	57	0	82	0	0			0	0			1				0	
6.6.1	win	2023-07-15	15:50:26	15:58:10	458905	5d0e0c9c312297001a37d0ca	4	1	main_slash	11	main_slash	49	stimuli_target_diamondsquares.svg	stimuli_distractor_diamondtriangles.svg	24	yes	53	1	367	0	0			0	0			1				0	
6.6.1	win	2023-07-15	15:50:26	15:58:10	458905	5d0e0c9c312297001a37d0ca	4	1	main_slash	11	advance_on_keypress_SLASH	50	stimuli_target_diamondsquares.svg	stimuli_distractor_diamondtriangles.svg	24	yes	57	0	89	0	0			0	0			1				0	
6.6.1	win	2023-07-15	15:50:26	15:58:12	461639	5d0e0c9c312297001a37d0ca	4	1	main_slash	11	main_slash	51	stimuli_distractor_trianglediamonds.svg	stimuli_distractor_trianglediamonds.svg	34	no	0	1	2000	0	0			0	0			1				0	
6.6.1	win	2023-07-15	15:50:26	15:58:12	461639	5d0e0c9c312297001a37d0ca	4	1	main_slash	11	advance_on_keypress_SLASH	52	stimuli_distractor_trianglediamonds.svg	stimuli_distractor_trianglediamonds.svg	34	no	57	0	679	0	0			0	0			1				0	
6.6.1	win	2023-07-15	15:50:26	15:58:16	464955	5d0e0c9c312297001a37d0ca	4	1	main_slash	11	main_slash	53	stimuli_distractor_diamondtriangles.svg	stimuli_distractor_diamondtriangles.svg	39	no	0	1	2000	0	0			0	0			1				0	
6.6.1	win	2023-07-15	15:50:26	15:58:16	464955	5d0e0c9c312297001a37d0ca	4	1	main_slash	11	advance_on_keypress_SLASH	54	stimuli_distractor_diamondtriangles.svg	stimuli_distractor_diamondtriangles.svg	39	no	57	0	431	0	0			0	0			1				0	
6.6.1	win	2023-07-15	15:50:26	15:58:18	467160	5d0e0c9c312297001a37d0ca	4	1	main_slash	11	main_slash	55	stimuli_distractor_diamondtriangles.svg	stimuli_distractor_trianglediamonds.svg	37	no	53	0	1121	0	0			0	0			1				0	
6.6.1	win	2023-07-15	15:50:26	15:58:18	467160	5d0e0c9c312297001a37d0ca	4	1	main_slash	11	advance_on_keypress_SLASH	56	stimuli_distractor_diamondtriangles.svg	stimuli_distractor_trianglediamonds.svg	37	no	57	0	95	0	0			0	0			1				0	
6.6.1	win	2023-07-15	15:50:26	15:58:19	468272	5d0e0c9c312297001a37d0ca	4	1	main_slash	11	main_slash	57	stimuli_target_diamondrectangles.svg	stimuli_distractor_diamondtriangles.svg	23	yes	53	1	377	0	0			0	0			1				0	
6.6.1	win	2023-07-15	15:50:26	15:58:19	468272	5d0e0c9c312297001a37d0ca	4	1	main_slash	11	advance_on_keypress_SLASH	58	stimuli_target_diamondrectangles.svg	stimuli_distractor_diamondtriangles.svg	23	yes	57	0	76	0	0			0	0			1				0	
6.6.1	win	2023-07-15	15:50:26	15:58:20	469351	5d0e0c9c312297001a37d0ca	4	1	main_slash	11	main_slash	59	stimuli_distractor_trianglediamonds.svg	stimuli_target_diamondsquares.svg	28	yes	53	1	362	0	0			0	0			1				0	
6.6.1	win	2023-07-15	15:50:26	15:58:20	469351	5d0e0c9c312297001a37d0ca	4	1	main_slash	11	advance_on_keypress_SLASH	60	stimuli_distractor_trianglediamonds.svg	stimuli_target_diamondsquares.svg	28	yes	57	0	98	0	0			0	0			1				0	
6.6.1	win	2023-07-15	15:50:26	15:58:21	470418	5d0e0c9c312297001a37d0ca	4	1	main_slash	11	main_slash	61	stimuli_target_squarediamonds.svg	stimuli_distractor_trianglediamonds.svg	4	yes	53	1	329	0	0			0	0			1				0	
6.6.1	win	2023-07-15	15:50:26	15:58:21	470418	5d0e0c9c312297001a37d0ca	4	1	main_slash	11	advance_on_keypress_SLASH	62	stimuli_target_squarediamonds.svg	stimuli_distractor_trianglediamonds.svg	4	yes	57	0	81	0	0			0	0			1				0	
6.6.1	win	2023-07-15	15:50:26	15:58:22	471374	5d0e0c9c312297001a37d0ca	4	1	main_slash	11	main_slash	63	stimuli_distractor_trianglediamonds.svg	stimuli_distractor_diamondtriangles.svg	36	no	53	0	235	0	0			0	0			1				0	
6.6.1	win	2023-07-15	15:50:26	15:58:22	471374	5d0e0c9c312297001a37d0ca	4	1	main_slash	11	advance_on_keypress_SLASH	64	stimuli_distractor_trianglediamonds.svg	stimuli_distractor_diamondtriangles.svg	36	no	57	0	55	0	0			0	0			1				0	
6.6.1	win	2023-07-15	15:50:26	15:58:23	472685	5d0e0c9c312297001a37d0ca	4	1	main_slash	11	main_slash	65	stimuli_distractor_diamondtriangles.svg	stimuli_target_diamondrectangles.svg	31	yes	53	1	613	0	0			0	0			1				0	
6.6.1	win	2023-07-15	15:50:26	15:58:23	472685	5d0e0c9c312297001a37d0ca	4	1	main_slash	11	advance_on_keypress_SLASH	66	stimuli_distractor_diamondtriangles.svg	stimuli_target_diamondrectangles.svg	31	yes	57	0	94	0	0			0	0			1				0	
6.6.1	win	2023-07-15	15:50:26	15:58:25	473830	5d0e0c9c312297001a37d0ca	4	1	main_slash	11	main_slash	67	stimuli_distractor_diamondtriangles.svg	stimuli_target_trianglesquares.svg	30	yes	53	1	425	0	0			0	0			1				0	
6.6.1	win	2023-07-15	15:50:26	15:58:25	473830	5d0e0c9c312297001a37d0ca	4	1	main_slash	11	advance_on_keypress_SLASH	68	stimuli_distractor_diamondtriangles.svg	stimuli_target_trianglesquares.svg	30	yes	57	0	86	0	0			0	0			1				0	
6.6.1	win	2023-07-15	15:50:26	15:58:26	474912	5d0e0c9c312297001a37d0ca	4	1	main_slash	11	main_slash	69	stimuli_distractor_trianglediamonds.svg	stimuli_target_trianglerectangles.svg	25	yes	53	1	357	0	0			0	0			1				0	
6.6.1	win	2023-07-15	15:50:26	15:58:26	474912	5d0e0c9c312297001a37d0ca	4	1	main_slash	11	advance_on_keypress_SLASH	70	stimuli_distractor_trianglediamonds.svg	stimuli_target_trianglerectangles.svg	25	yes	57	0	995	0	0			0	0			1				0	
6.6.1	win	2023-07-15	15:50:26	15:58:28	476953	5d0e0c9c312297001a37d0ca	4	1	main_slash	11	main_slash	71	stimuli_distractor_diamondtriangles.svg	stimuli_target_squaretriangles.svg	15	yes	53	1	414	0	0			0	0			1				0	
6.6.1	win	2023-07-15	15:50:26	15:58:28	476953	5d0e0c9c312297001a37d0ca	4	1	main_slash	11	advance_on_keypress_SLASH	72	stimuli_distractor_diamondtriangles.svg	stimuli_target_squaretriangles.svg	15	yes	57	0	84	0	0			0	0			1				0	
6.6.1	win	2023-07-15	15:50:26	15:58:30	479673	5d0e0c9c312297001a37d0ca	4	1	main_slash	11	main_slash	73	stimuli_distractor_trianglediamonds.svg	stimuli_distractor_diamondtriangles.svg	35	no	0	1	2000	0	0			0	0			1				0	
6.6.1	win	2023-07-15	15:50:26	15:58:30	479673	5d0e0c9c312297001a37d0ca	4	1	main_slash	11	advance_on_keypress_SLASH	74	stimuli_distractor_trianglediamonds.svg	stimuli_distractor_diamondtriangles.svg	35	no	57	0	499	0	0			0	0			1				0	
6.6.1	win	2023-07-15	15:50:26	15:58:32	481339	5d0e0c9c312297001a37d0ca	4	1	main_slash	11	main_slash	75	stimuli_target_squaretriangles.svg	stimuli_distractor_diamondtriangles.svg	7	yes	53	1	516	0	0			0	0			1				0	
6.6.1	win	2023-07-15	15:50:26	15:58:32	481339	5d0e0c9c312297001a37d0ca	4	1	main_slash	11	advance_on_keypress_SLASH	76	stimuli_target_squaretriangles.svg	stimuli_distractor_diamondtriangles.svg	7	yes	57	0	88	0	0			0	0			1				0	
6.6.1	win	2023-07-15	15:50:26	15:58:33	482557	5d0e0c9c312297001a37d0ca	4	1	main_slash	11	main_slash	77	stimuli_target_diamondsquares.svg	stimuli_distractor_trianglediamonds.svg	20	yes	53	1	485	0	0			0	0			1				0	
6.6.1	win	2023-07-15	15:50:26	15:58:33	482557	5d0e0c9c312297001a37d0ca	4	1	main_slash	11	advance_on_keypress_SLASH	78	stimuli_target_diamondsquares.svg	stimuli_distractor_trianglediamonds.svg	20	yes	57	0	1053	0	0			0	0			1				0	
6.6.1	win	2023-07-15	15:50:26	15:58:37	486256	5d0e0c9c312297001a37d0ca	4	1	main_slash	11	main_slash	79	stimuli_target_squaretriangles.svg	stimuli_distractor_trianglediamonds.svg	3	yes	0	0	2000	0	0			0	0			1				0	
6.6.1	win	2023-07-15	15:50:26	15:58:37	486256	5d0e0c9c312297001a37d0ca	4	1	main_slash	11	advance_on_keypress_SLASH	80	stimuli_target_squaretriangles.svg	stimuli_distractor_trianglediamonds.svg	3	yes	57	0	567	0	0			0	0			1				0	
6.6.1	win	2023-07-15	15:50:26	15:58:39	487856	5d0e0c9c312297001a37d0ca	4	1	main_slash	11	main_slash	81	stimuli_distractor_diamondtriangles.svg	stimuli_target_diamondrectangles.svg	31	yes	53	1	370	0	0			0	0			1				0	
6.6.1	win	2023-07-15	15:50:26	15:58:39	487856	5d0e0c9c312297001a37d0ca	4	1	main_slash	11	advance_on_keypress_SLASH	82	stimuli_distractor_diamondtriangles.svg	stimuli_target_diamondrectangles.svg	31	yes	57	0	86	0	0			0	0			1				0	
6.6.1	win	2023-07-15	15:50:26	15:58:40	489542	5d0e0c9c312297001a37d0ca	4	1	main_slash	11	main_slash	83	stimuli_target_squaretriangles.svg	stimuli_distractor_trianglediamonds.svg	3	yes	53	1	953	0	0			0	0			1				0	
6.6.1	win	2023-07-15	15:50:26	15:58:40	489542	5d0e0c9c312297001a37d0ca	4	1	main_slash	11	advance_on_keypress_SLASH	84	stimuli_target_squaretriangles.svg	stimuli_distractor_trianglediamonds.svg	3	yes	57	0	107	0	0			0	0			1				0	
6.6.1	win	2023-07-15	15:50:26	15:58:42	490883	5d0e0c9c312297001a37d0ca	4	1	main_slash	11	main_slash	85	stimuli_distractor_trianglediamonds.svg	stimuli_target_trianglerectangles.svg	25	yes	53	1	594	0	0			0	0			1				0	
6.6.1	win	2023-07-15	15:50:26	15:58:42	490883	5d0e0c9c312297001a37d0ca	4	1	main_slash	11	advance_on_keypress_SLASH	86	stimuli_distractor_trianglediamonds.svg	stimuli_target_trianglerectangles.svg	25	yes	57	0	122	0	0			0	0			1				0	
6.6.1	win	2023-07-15	15:50:26	15:58:44	493640	5d0e0c9c312297001a37d0ca	4	1	main_slash	11	main_slash	87	stimuli_distractor_trianglediamonds.svg	stimuli_distractor_diamondtriangles.svg	36	no	0	1	2000	0	0			0	0			1				0	
6.6.1	win	2023-07-15	15:50:26	15:58:44	493640	5d0e0c9c312297001a37d0ca	4	1	main_slash	11	advance_on_keypress_SLASH	88	stimuli_distractor_trianglediamonds.svg	stimuli_distractor_diamondtriangles.svg	36	no	57	0	270	0	0			0	0			1				0	
6.6.1	win	2023-07-15	15:50:26	15:58:46	495079	5d0e0c9c312297001a37d0ca	4	1	main_slash	11	main_slash	89	stimuli_target_rectangletriangles.svg	stimuli_distractor_trianglediamonds.svg	1	yes	53	1	523	0	0			0	0			1				0	
6.6.1	win	2023-07-15	15:50:26	15:58:46	495079	5d0e0c9c312297001a37d0ca	4	1	main_slash	11	advance_on_keypress_SLASH	90	stimuli_target_rectangletriangles.svg	stimuli_distractor_trianglediamonds.svg	1	yes	57	0	135	0	0			0	0			1				0	
6.6.1	win	2023-07-15	15:50:26	15:58:47	496248	5d0e0c9c312297001a37d0ca	4	1	main_slash	11	main_slash	91	stimuli_distractor_trianglediamonds.svg	stimuli_target_trianglesquares.svg	26	yes	53	1	392	0	0			0	0			1				0	
6.6.1	win	2023-07-15	15:50:26	15:58:47	496248	5d0e0c9c312297001a37d0ca	4	1	main_slash	11	advance_on_keypress_SLASH	92	stimuli_distractor_trianglediamonds.svg	stimuli_target_trianglesquares.svg	26	yes	57	0	115	0	0			0	0			1				0	
6.6.1	win	2023-07-15	15:50:26	15:58:48	497345	5d0e0c9c312297001a37d0ca	4	1	main_slash	11	main_slash	93	stimuli_target_trianglesquares.svg	stimuli_distractor_trianglediamonds.svg	18	yes	53	1	339	0	0			0	0			1				0	
6.6.1	win	2023-07-15	15:50:26	15:58:48	497345	5d0e0c9c312297001a37d0ca	4	1	main_slash	11	advance_on_keypress_SLASH	94	stimuli_target_trianglesquares.svg	stimuli_distractor_trianglediamonds.svg	18	yes	57	0	97	0	0			0	0			1				0	
6.6.1	win	2023-07-15	15:50:26	15:58:49	498373	5d0e0c9c312297001a37d0ca	4	1	main_slash	11	main_slash	95	stimuli_distractor_trianglediamonds.svg	stimuli_target_diamondrectangles.svg	27	yes	53	1	300	0	0			0	0			1				0	
6.6.1	win	2023-07-15	15:50:26	15:58:49	498373	5d0e0c9c312297001a37d0ca	4	1	main_slash	11	advance_on_keypress_SLASH	96	stimuli_distractor_trianglediamonds.svg	stimuli_target_diamondrectangles.svg	27	yes	57	0	113	0	0			0	0			1				0	
6.6.1	win	2023-07-15	15:50:26	15:58:50	499343	5d0e0c9c312297001a37d0ca	4	1	main_slash	11	main_slash	97	stimuli_distractor_trianglediamonds.svg	stimuli_distractor_trianglediamonds.svg	33	no	53	0	219	0	0			0	0			1				0	
6.6.1	win	2023-07-15	15:50:26	15:58:50	499343	5d0e0c9c312297001a37d0ca	4	1	main_slash	11	advance_on_keypress_SLASH	98	stimuli_distractor_trianglediamonds.svg	stimuli_distractor_trianglediamonds.svg	33	no	57	0	76	0	0			0	0			1				0	
6.6.1	win	2023-07-15	15:50:26	15:58:51	500555	5d0e0c9c312297001a37d0ca	4	1	main_slash	11	main_slash	99	stimuli_distractor_diamondtriangles.svg	stimuli_target_rectanglediamonds.svg	14	yes	53	1	498	0	0			0	0			1				0	
6.6.1	win	2023-07-15	15:50:26	15:58:51	500555	5d0e0c9c312297001a37d0ca	4	1	main_slash	11	advance_on_keypress_SLASH	100	stimuli_distractor_diamondtriangles.svg	stimuli_target_rectanglediamonds.svg	14	yes	57	0	106	0	0			0	0			1				0	
6.6.1	win	2023-07-15	15:50:26	15:58:52	501731	5d0e0c9c312297001a37d0ca	4	1	main_slash	11	main_slash	101	stimuli_distractor_trianglediamonds.svg	stimuli_target_squarediamonds.svg	12	yes	53	1	424	0	0			0	0			1				0	
6.6.1	win	2023-07-15	15:50:26	15:58:52	501731	5d0e0c9c312297001a37d0ca	4	1	main_slash	11	advance_on_keypress_SLASH	102	stimuli_distractor_trianglediamonds.svg	stimuli_target_squarediamonds.svg	12	yes	57	0	105	0	0			0	0			1				0	
6.6.1	win	2023-07-15	15:50:26	15:58:54	502927	5d0e0c9c312297001a37d0ca	4	1	main_slash	11	main_slash	103	stimuli_target_squaretriangles.svg	stimuli_distractor_diamondtriangles.svg	7	yes	53	1	453	0	0			0	0			1				0	
6.6.1	win	2023-07-15	15:50:26	15:58:54	502927	5d0e0c9c312297001a37d0ca	4	1	main_slash	11	advance_on_keypress_SLASH	104	stimuli_target_squaretriangles.svg	stimuli_distractor_diamondtriangles.svg	7	yes	57	0	95	0	0			0	0			1				0	
6.6.1	win	2023-07-15	15:50:26	15:58:55	504040	5d0e0c9c312297001a37d0ca	4	1	main_slash	11	main_slash	105	stimuli_distractor_diamondtriangles.svg	stimuli_target_squarediamonds.svg	16	yes	53	1	372	0	0			0	0			1				0	
6.6.1	win	2023-07-15	15:50:26	15:58:55	504040	5d0e0c9c312297001a37d0ca	4	1	main_slash	11	advance_on_keypress_SLASH	106	stimuli_distractor_diamondtriangles.svg	stimuli_target_squarediamonds.svg	16	yes	57	0	130	0	0			0	0			1				0	
6.6.1	win	2023-07-15	15:50:26	15:58:56	505138	5d0e0c9c312297001a37d0ca	4	1	main_slash	11	main_slash	107	stimuli_distractor_diamondtriangles.svg	stimuli_target_squaretriangles.svg	15	yes	53	1	331	0	0			0	0			1				0	
6.6.1	win	2023-07-15	15:50:26	15:58:56	505138	5d0e0c9c312297001a37d0ca	4	1	main_slash	11	advance_on_keypress_SLASH	108	stimuli_distractor_diamondtriangles.svg	stimuli_target_squaretriangles.svg	15	yes	57	0	133	0	0			0	0			1				0	
6.6.1	win	2023-07-15	15:50:26	15:58:57	506240	5d0e0c9c312297001a37d0ca	4	1	main_slash	11	main_slash	109	stimuli_distractor_trianglediamonds.svg	stimuli_target_rectanglediamonds.svg	10	yes	53	1	333	0	0			0	0			1				0	
6.6.1	win	2023-07-15	15:50:26	15:58:57	506240	5d0e0c9c312297001a37d0ca	4	1	main_slash	11	advance_on_keypress_SLASH	110	stimuli_distractor_trianglediamonds.svg	stimuli_target_rectanglediamonds.svg	10	yes	57	0	186	0	0			0	0			1				0	
6.6.1	win	2023-07-15	15:50:26	15:58:58	507457	5d0e0c9c312297001a37d0ca	4	1	main_slash	11	main_slash	111	stimuli_target_trianglerectangles.svg	stimuli_distractor_diamondtriangles.svg	21	yes	53	1	375	0	0			0	0			1				0	
6.6.1	win	2023-07-15	15:50:26	15:58:58	507457	5d0e0c9c312297001a37d0ca	4	1	main_slash	11	advance_on_keypress_SLASH	112	stimuli_target_trianglerectangles.svg	stimuli_distractor_diamondtriangles.svg	21	yes	57	0	746	0	0			0	0			1				0	
6.6.1	win	2023-07-15	15:50:26	15:59:02	510841	5d0e0c9c312297001a37d0ca	4	1	main_slash	11	main_slash	113	stimuli_distractor_diamondtriangles.svg	stimuli_distractor_trianglediamonds.svg	38	no	0	1	2000	0	0			0	0			1				0	
6.6.1	win	2023-07-15	15:50:26	15:59:02	510841	5d0e0c9c312297001a37d0ca	4	1	main_slash	11	advance_on_keypress_SLASH	114	stimuli_distractor_diamondtriangles.svg	stimuli_distractor_trianglediamonds.svg	38	no	57	0	796	0	0			0	0			1				0	
6.6.1	win	2023-07-15	15:50:26	15:59:05	514274	5d0e0c9c312297001a37d0ca	4	1	main_slash	11	main_slash	115	stimuli_distractor_diamondtriangles.svg	stimuli_distractor_diamondtriangles.svg	39	no	0	1	2000	0	0			0	0			1				0	
6.6.1	win	2023-07-15	15:50:26	15:59:05	514274	5d0e0c9c312297001a37d0ca	4	1	main_slash	11	advance_on_keypress_SLASH	116	stimuli_distractor_diamondtriangles.svg	stimuli_distractor_diamondtriangles.svg	39	no	57	0	218	0	0			0	0			1				0	
6.6.1	win	2023-07-15	15:50:26	15:59:06	515696	5d0e0c9c312297001a37d0ca	4	1	main_slash	11	main_slash	117	stimuli_target_trianglerectangles.svg	stimuli_distractor_trianglediamonds.svg	17	yes	53	1	555	0	0			0	0			1				0	
6.6.1	win	2023-07-15	15:50:26	15:59:06	515696	5d0e0c9c312297001a37d0ca	4	1	main_slash	11	advance_on_keypress_SLASH	118	stimuli_target_trianglerectangles.svg	stimuli_distractor_trianglediamonds.svg	17	yes	57	0	108	0	0			0	0			1				0	
6.6.1	win	2023-07-15	15:50:26	15:59:08	516900	5d0e0c9c312297001a37d0ca	4	1	main_slash	11	main_slash	119	stimuli_distractor_diamondtriangles.svg	stimuli_target_trianglesquares.svg	30	yes	53	1	459	0	0			0	0			1				0	
6.6.1	win	2023-07-15	15:50:26	15:59:08	516900	5d0e0c9c312297001a37d0ca	4	1	main_slash	11	advance_on_keypress_SLASH	120	stimuli_distractor_diamondtriangles.svg	stimuli_target_trianglesquares.svg	30	yes	57	0	126	0	0			0	0			1				0	
6.6.1	win	2023-07-15	15:50:26	15:59:09	518006	5d0e0c9c312297001a37d0ca	4	1	main_slash	11	main_slash	121	stimuli_distractor_trianglediamonds.svg	stimuli_distractor_trianglediamonds.svg	34	no	53	0	348	0	0			0	0			1				0	
6.6.1	win	2023-07-15	15:50:26	15:59:09	518006	5d0e0c9c312297001a37d0ca	4	1	main_slash	11	advance_on_keypress_SLASH	122	stimuli_distractor_trianglediamonds.svg	stimuli_distractor_trianglediamonds.svg	34	no	57	0	1722	0	0			0	0			1				0	
6.6.1	win	2023-07-15	15:50:26	15:59:12	521078	5d0e0c9c312297001a37d0ca	4	1	main_slash	11	main_slash	123	stimuli_target_rectangletriangles.svg	stimuli_distractor_diamondtriangles.svg	5	yes	53	1	703	0	0			0	0			1				0	
6.6.1	win	2023-07-15	15:50:26	15:59:12	521078	5d0e0c9c312297001a37d0ca	4	1	main_slash	11	advance_on_keypress_SLASH	124	stimuli_target_rectangletriangles.svg	stimuli_distractor_diamondtriangles.svg	5	yes	57	0	155	0	0			0	0			1				0	
6.6.1	win	2023-07-15	15:50:26	15:59:13	522312	5d0e0c9c312297001a37d0ca	4	1	main_slash	11	main_slash	125	stimuli_distractor_trianglediamonds.svg	stimuli_target_squaretriangles.svg	11	yes	53	1	437	0	0			0	0			1				0	
6.6.1	win	2023-07-15	15:50:26	15:59:13	522312	5d0e0c9c312297001a37d0ca	4	1	main_slash	11	advance_on_keypress_SLASH	126	stimuli_distractor_trianglediamonds.svg	stimuli_target_squaretriangles.svg	11	yes	57	0	92	0	0			0	0			1				0	
6.6.1	win	2023-07-15	15:50:26	15:59:14	523445	5d0e0c9c312297001a37d0ca	4	1	main_slash	11	main_slash	127	stimuli_distractor_diamondtriangles.svg	stimuli_target_diamondsquares.svg	32	yes	53	1	404	0	0			0	0			1				0	
6.6.1	win	2023-07-15	15:50:26	15:59:14	523445	5d0e0c9c312297001a37d0ca	4	1	main_slash	11	advance_on_keypress_SLASH	128	stimuli_distractor_diamondtriangles.svg	stimuli_target_diamondsquares.svg	32	yes	57	0	143	0	0			0	0			1				0	
6.6.1	win	2023-07-15	15:50:26	15:59:15	524665	5d0e0c9c312297001a37d0ca	4	1	main_slash	11	main_slash	129	stimuli_target_diamondrectangles.svg	stimuli_distractor_trianglediamonds.svg	19	yes	53	1	441	0	0			0	0			1				0	
6.6.1	win	2023-07-15	15:50:26	15:59:15	524665	5d0e0c9c312297001a37d0ca	4	1	main_slash	11	advance_on_keypress_SLASH	130	stimuli_target_diamondrectangles.svg	stimuli_distractor_trianglediamonds.svg	19	yes	57	0	131	0	0			0	0			1				0	
6.6.1	win	2023-07-15	15:50:26	15:59:17	525837	5d0e0c9c312297001a37d0ca	4	1	main_slash	11	main_slash	131	stimuli_distractor_diamondtriangles.svg	stimuli_target_rectangletriangles.svg	13	yes	53	1	396	0	0			0	0			1				0	
6.6.1	win	2023-07-15	15:50:26	15:59:17	525837	5d0e0c9c312297001a37d0ca	4	1	main_slash	11	advance_on_keypress_SLASH	132	stimuli_distractor_diamondtriangles.svg	stimuli_target_rectangletriangles.svg	13	yes	57	0	129	0	0			0	0			1				0	
6.6.1	win	2023-07-15	15:50:26	15:59:18	527029	5d0e0c9c312297001a37d0ca	4	1	main_slash	11	main_slash	133	stimuli_target_trianglesquares.svg	stimuli_distractor_diamondtriangles.svg	22	yes	53	1	437	0	0			0	0			1				0	
6.6.1	win	2023-07-15	15:50:26	15:59:18	527029	5d0e0c9c312297001a37d0ca	4	1	main_slash	11	advance_on_keypress_SLASH	134	stimuli_target_trianglesquares.svg	stimuli_distractor_diamondtriangles.svg	22	yes	57	0	84	0	0			0	0			1				0	
6.6.1	win	2023-07-15	15:50:26	15:59:19	528194	5d0e0c9c312297001a37d0ca	4	1	main_slash	11	main_slash	135	stimuli_distractor_trianglediamonds.svg	stimuli_target_rectangletriangles.svg	9	yes	53	1	435	0	0			0	0			1				0	
6.6.1	win	2023-07-15	15:50:26	15:59:19	528194	5d0e0c9c312297001a37d0ca	4	1	main_slash	11	advance_on_keypress_SLASH	136	stimuli_distractor_trianglediamonds.svg	stimuli_target_rectangletriangles.svg	9	yes	57	0	65	0	0			0	0			1				0	
6.6.1	win	2023-07-15	15:50:26	15:59:20	529360	5d0e0c9c312297001a37d0ca	4	1	main_slash	11	main_slash	137	stimuli_target_squarediamonds.svg	stimuli_distractor_trianglediamonds.svg	4	yes	53	1	451	0	0			0	0			1				0	
6.6.1	win	2023-07-15	15:50:26	15:59:20	529360	5d0e0c9c312297001a37d0ca	4	1	main_slash	11	advance_on_keypress_SLASH	138	stimuli_target_squarediamonds.svg	stimuli_distractor_trianglediamonds.svg	4	yes	57	0	98	0	0			0	0			1				0	
6.6.1	win	2023-07-15	15:50:26	15:59:21	530519	5d0e0c9c312297001a37d0ca	4	1	main_slash	11	main_slash	139	stimuli_target_rectanglediamonds.svg	stimuli_distractor_trianglediamonds.svg	2	yes	53	1	410	0	0			0	0			1				0	
6.6.1	win	2023-07-15	15:50:26	15:59:21	530519	5d0e0c9c312297001a37d0ca	4	1	main_slash	11	advance_on_keypress_SLASH	140	stimuli_target_rectanglediamonds.svg	stimuli_distractor_trianglediamonds.svg	2	yes	57	0	145	0	0			0	0			1				0	
6.6.1	win	2023-07-15	15:50:26	15:59:23	531956	5d0e0c9c312297001a37d0ca	4	1	main_slash	11	main_slash	141	stimuli_distractor_diamondtriangles.svg	stimuli_target_trianglerectangles.svg	29	yes	53	1	664	0	0			0	0			1				0	
6.6.1	win	2023-07-15	15:50:26	15:59:23	531956	5d0e0c9c312297001a37d0ca	4	1	main_slash	11	advance_on_keypress_SLASH	142	stimuli_distractor_diamondtriangles.svg	stimuli_target_trianglerectangles.svg	29	yes	57	0	100	0	0			0	0			1				0	
6.6.1	win	2023-07-15	15:50:26	15:59:24	533166	5d0e0c9c312297001a37d0ca	4	1	main_slash	11	main_slash	143	stimuli_target_rectanglediamonds.svg	stimuli_distractor_diamondtriangles.svg	6	yes	53	1	458	0	0			0	0			1				0	
6.6.1	win	2023-07-15	15:50:26	15:59:24	533166	5d0e0c9c312297001a37d0ca	4	1	main_slash	11	advance_on_keypress_SLASH	144	stimuli_target_rectanglediamonds.svg	stimuli_distractor_diamondtriangles.svg	6	yes	57	0	104	0	0			0	0			1				0	
6.6.1	win	2023-07-15	15:50:26	15:59:25	534443	5d0e0c9c312297001a37d0ca	4	1	main_slash	11	main_slash	145	stimuli_distractor_diamondtriangles.svg	stimuli_distractor_trianglediamonds.svg	37	no	53	0	535	0	0			0	0			1				0	
6.6.1	win	2023-07-15	15:50:26	15:59:25	534443	5d0e0c9c312297001a37d0ca	4	1	main_slash	11	advance_on_keypress_SLASH	146	stimuli_distractor_diamondtriangles.svg	stimuli_distractor_trianglediamonds.svg	37	no	57	0	99	0	0			0	0			1				0	
6.6.1	win	2023-07-15	15:50:26	15:59:27	535949	5d0e0c9c312297001a37d0ca	4	1	main_slash	11	main_slash	147	stimuli_target_diamondsquares.svg	stimuli_distractor_diamondtriangles.svg	24	yes	53	1	757	0	0			0	0			1				0	
6.6.1	win	2023-07-15	15:50:26	15:59:27	535949	5d0e0c9c312297001a37d0ca	4	1	main_slash	11	advance_on_keypress_SLASH	148	stimuli_target_diamondsquares.svg	stimuli_distractor_diamondtriangles.svg	24	yes	57	0	100	0	0			0	0			1				0	
6.6.1	win	2023-07-15	15:50:26	15:59:29	538692	5d0e0c9c312297001a37d0ca	4	1	main_slash	11	main_slash	149	stimuli_distractor_diamondtriangles.svg	stimuli_distractor_diamondtriangles.svg	40	no	0	1	2000	0	0			0	0			1				0	
6.6.1	win	2023-07-15	15:50:26	15:59:29	538692	5d0e0c9c312297001a37d0ca	4	1	main_slash	11	advance_on_keypress_SLASH	150	stimuli_distractor_diamondtriangles.svg	stimuli_distractor_diamondtriangles.svg	40	no	57	0	233	0	0			0	0			1				0	
6.6.1	win	2023-07-15	15:50:26	15:59:31	540091	5d0e0c9c312297001a37d0ca	4	1	main_slash	11	main_slash	151	stimuli_distractor_trianglediamonds.svg	stimuli_target_diamondsquares.svg	28	yes	53	1	504	0	0			0	0			1				0	
6.6.1	win	2023-07-15	15:50:26	15:59:31	540091	5d0e0c9c312297001a37d0ca	4	1	main_slash	11	advance_on_keypress_SLASH	152	stimuli_distractor_trianglediamonds.svg	stimuli_target_diamondsquares.svg	28	yes	57	0	77	0	0			0	0			1				0	
6.6.1	win	2023-07-15	15:50:26	15:59:32	541222	5d0e0c9c312297001a37d0ca	4	1	main_slash	11	main_slash	153	stimuli_target_diamondrectangles.svg	stimuli_distractor_diamondtriangles.svg	23	yes	53	1	414	0	0			0	0			1				0	
6.6.1	win	2023-07-15	15:50:26	15:59:32	541222	5d0e0c9c312297001a37d0ca	4	1	main_slash	11	advance_on_keypress_SLASH	154	stimuli_target_diamondrectangles.svg	stimuli_distractor_diamondtriangles.svg	23	yes	57	0	115	0	0			0	0			1				0	
6.6.1	win	2023-07-15	15:50:26	15:59:34	543041	5d0e0c9c312297001a37d0ca	4	1	main_slash	11	main_slash	155	stimuli_distractor_trianglediamonds.svg	stimuli_distractor_diamondtriangles.svg	35	no	53	0	1065	0	0			0	0			1				0	
6.6.1	win	2023-07-15	15:50:26	15:59:34	543041	5d0e0c9c312297001a37d0ca	4	1	main_slash	11	advance_on_keypress_SLASH	156	stimuli_distractor_trianglediamonds.svg	stimuli_distractor_diamondtriangles.svg	35	no	57	0	63	0	0			0	0			1				0	
6.6.1	win	2023-07-15	15:50:26	15:59:35	544671	5d0e0c9c312297001a37d0ca	4	1	main_slash	11	main_slash	157	stimuli_target_diamondsquares.svg	stimuli_distractor_trianglediamonds.svg	20	yes	53	1	928	0	0			0	0			1				0	
6.6.1	win	2023-07-15	15:50:26	15:59:35	544671	5d0e0c9c312297001a37d0ca	4	1	main_slash	11	advance_on_keypress_SLASH	158	stimuli_target_diamondsquares.svg	stimuli_distractor_trianglediamonds.svg	20	yes	57	0	75	0	0			0	0			1				0	
6.6.1	win	2023-07-15	15:50:26	15:59:37	546415	5d0e0c9c312297001a37d0ca	4	1	main_slash	11	main_slash	159	stimuli_target_squarediamonds.svg	stimuli_distractor_diamondtriangles.svg	8	yes	53	1	1039	0	0			0	0			1				0	
6.6.1	win	2023-07-15	15:50:26	15:59:37	546415	5d0e0c9c312297001a37d0ca	4	1	main_slash	11	advance_on_keypress_SLASH	160	stimuli_target_squarediamonds.svg	stimuli_distractor_diamondtriangles.svg	8	yes	57	0	107	0	0			0	0			1				0	
6.6.1	win	2023-07-15	15:50:26	15:59:37	546415	5d0e0c9c312297001a37d0ca	4	1	headphonecheck_calibration	14	headphonecheck_calibrationIntro	1	stimuli_target_squarediamonds.svg	stimuli_distractor_diamondtriangles.svg	8	yes	calibrationButton	0	6401	0	0			0	0			1				0	
6.6.1	win	2023-07-15	15:50:26	15:59:37	546415	5d0e0c9c312297001a37d0ca	4	1	headphonecheck_testphase	15	test_collectResponse	3	stimuli_target_squarediamonds.svg	stimuli_distractor_diamondtriangles.svg	8	yes	second	0	1352	1	3	antiphase_hc_soi.wav	1	0	0			1				0	
6.6.1	win	2023-07-15	15:50:26	15:59:37	546415	5d0e0c9c312297001a37d0ca	4	1	headphonecheck_testphase	15	test_collectResponse	6	stimuli_target_squarediamonds.svg	stimuli_distractor_diamondtriangles.svg	8	yes	third	0	360	2	5	antiphase_hc_osi.wav	2	0	0			1				0	
6.6.1	win	2023-07-15	15:50:26	15:59:37	546415	5d0e0c9c312297001a37d0ca	4	1	headphonecheck_testphase	15	test_collectResponse	9	stimuli_target_squarediamonds.svg	stimuli_distractor_diamondtriangles.svg	8	yes	first	0	807	3	2	antiphase_hc_ios.wav	3	0	0			1				0	
6.6.1	win	2023-07-15	15:50:26	15:59:37	546415	5d0e0c9c312297001a37d0ca	4	1	headphonecheck_testphase	15	test_collectResponse	12	stimuli_target_squarediamonds.svg	stimuli_distractor_diamondtriangles.svg	8	yes	second	0	409	4	6	antiphase_hc_ois.wav	3	0	0			1				0	
6.6.1	win	2023-07-15	15:50:26	15:59:37	546415	5d0e0c9c312297001a37d0ca	4	1	headphonecheck_testphase	15	test_collectResponse	15	stimuli_target_squarediamonds.svg	stimuli_distractor_diamondtriangles.svg	8	yes	Ctrl+'Q'	1	13178	5	1	antiphase_hc_iso.wav	2	0	0			1				0	