build	computer.platform	date	time	timestamp	time_elapsed_ms	subject	group	session	blockcode	blocknum	trialcode	trialnum	stimulus_left	stimulus_right	stim_index	target_present	response	correct	latency	headphonecheck_countTestTrials	headphonecheck_index	headphonecheck_testSound	headphonecheck_correctResponse	stereocheck_countTestTrials	stereocheck_index	stereocheck_testSound	stereocheck_correctResponse	DL_index	DL_soundfile	DL_leftSound	DL_rightSound	DL_dualSound	DL_choice
6.6.1	win	2023-07-17	15:51:16	0	0	5d24df75a80a600019d97b2e	1	1	headphonecheck_calibration	4	headphonecheck_calibrationIntro	1			0		calibrationButton	0	3737	0	0			0	0			1				0	
6.6.1	win	2023-07-17	15:51:16	0	0	5d24df75a80a600019d97b2e	1	1	headphonecheck_testphase	5	test_collectResponse	3			0		first	0	10565	1	5	antiphase_hc_osi.wav	2	0	0			1				0	
6.6.1	win	2023-07-17	15:51:16	0	0	5d24df75a80a600019d97b2e	1	1	headphonecheck_testphase	5	test_collectResponse	6			0		first	0	1343	2	1	antiphase_hc_iso.wav	2	0	0			1				0	
6.6.1	win	2023-07-17	15:51:16	0	0	5d24df75a80a600019d97b2e	1	1	headphonecheck_testphase	5	test_collectResponse	9			0		first	0	511	3	6	antiphase_hc_ois.wav	3	0	0			1				0	
6.6.1	win	2023-07-17	15:51:16	0	0	5d24df75a80a600019d97b2e	1	1	headphonecheck_testphase	5	test_collectResponse	12			0		second	0	233	4	2	antiphase_hc_ios.wav	3	0	0			1				0	
6.6.1	win	2023-07-17	15:51:16	0	0	5d24df75a80a600019d97b2e	1	1	headphonecheck_testphase	5	test_collectResponse	15			0		second	0	385	5	3	antiphase_hc_soi.wav	1	0	0			1				0	
6.6.1	win	2023-07-17	15:51:16	0	0	5d24df75a80a600019d97b2e	1	1	headphonecheck_testphase	5	test_collectResponse	18			0		third	0	822	6	4	antiphase_hc_sio.wav	1	0	0			1				0	
6.6.1	win	2023-07-17	15:51:16	0	0	5d24df75a80a600019d97b2e	1	1	stereocheck_calibration	7	stereocheck_calibrationIntro	1			0		stereocheck_calibrationButton	0	3888	6	4	antiphase_hc_sio.wav	1	0	0			1				0	
6.6.1	win	2023-07-17	15:51:16	0	0	5d24df75a80a600019d97b2e	1	1	stereocheck_testphase	8	stereocheck_test_collectResponse	3			0		stereocheck_right	1	548	6	4	antiphase_hc_sio.wav	1	1	6	noise_calib_stim_RIGHT.wav	2	1				0	
6.6.1	win	2023-07-17	15:51:16	0	0	5d24df75a80a600019d97b2e	1	1	stereocheck_testphase	8	stereocheck_test_collectResponse	6			0		stereocheck_right	1	583	6	4	antiphase_hc_sio.wav	1	2	5	noise_calib_stim_RIGHT.wav	2	1				0	
6.6.1	win	2023-07-17	15:51:16	0	0	5d24df75a80a600019d97b2e	1	1	stereocheck_testphase	8	stereocheck_test_collectResponse	9			0		stereocheck_left	1	290	6	4	antiphase_hc_sio.wav	1	3	2	noise_calib_stim_LEFT.wav	1	1				0	
6.6.1	win	2023-07-17	15:51:16	0	0	5d24df75a80a600019d97b2e	1	1	stereocheck_testphase	8	stereocheck_test_collectResponse	12			0		stereocheck_right	1	258	6	4	antiphase_hc_sio.wav	1	4	4	noise_calib_stim_RIGHT.wav	2	1				0	
6.6.1	win	2023-07-17	15:51:16	0	0	5d24df75a80a600019d97b2e	1	1	stereocheck_testphase	8	stereocheck_test_collectResponse	15			0		stereocheck_left	1	244	6	4	antiphase_hc_sio.wav	1	5	3	noise_calib_stim_LEFT.wav	1	1				0	
6.6.1	win	2023-07-17	15:51:16	0	0	5d24df75a80a600019d97b2e	1	1	stereocheck_testphase	8	stereocheck_test_collectResponse	18			0		stereocheck_left	1	257	6	4	antiphase_hc_sio.wav	1	6	1	noise_calib_stim_LEFT.wav	1	1				0	
6.6.1	win	2023-07-17	15:51:16	0	0	5d24df75a80a600019d97b2e	1	1	DL_practice	11	DL_practice	2			0		ba	1	1604	6	4	antiphase_hc_sio.wav	1	6	1	noise_calib_stim_LEFT.wav	1	7	blb_dichoticlistening_da-ba.mp3	da	ba	1	right
6.6.1	win	2023-07-17	15:51:16	0	0	5d24df75a80a600019d97b2e	1	1	DL_practice	11	DL_practice	3			0		ga	1	854	6	4	antiphase_hc_sio.wav	1	6	1	noise_calib_stim_LEFT.wav	1	15	blb_dichoticlistening_ga-ga.mp3	ga	ga	0	left
6.6.1	win	2023-07-17	15:51:16	0	0	5d24df75a80a600019d97b2e	1	1	DL_practice	11	DL_practice	4			0		pa	1	1035	6	4	antiphase_hc_sio.wav	1	6	1	noise_calib_stim_LEFT.wav	1	29	blb_dichoticlistening_pa-pa.mp3	pa	pa	0	left
6.6.1	win	2023-07-17	15:51:16	0	0	5d24df75a80a600019d97b2e	1	1	DL_practice	11	DL_practice	5			0		da	1	1136	6	4	antiphase_hc_sio.wav	1	6	1	noise_calib_stim_LEFT.wav	1	8	blb_dichoticlistening_da-da.mp3	da	da	0	left
6.6.1	win	2023-07-17	15:51:16	0	0	5d24df75a80a600019d97b2e	1	1	DL_practice	11	DL_practice	6			0		ka	1	776	6	4	antiphase_hc_sio.wav	1	6	1	noise_calib_stim_LEFT.wav	1	23	blb_dichoticlistening_ka-pa.mp3	ka	pa	1	left
6.6.1	win	2023-07-17	15:51:16	0	0	5d24df75a80a600019d97b2e	1	1	DL_practice	11	DL_practice	7			0		ka	1	805	6	4	antiphase_hc_sio.wav	1	6	1	noise_calib_stim_LEFT.wav	1	22	blb_dichoticlistening_ka-ka.mp3	ka	ka	0	left
6.6.1	win	2023-07-17	15:51:16	0	0	5d24df75a80a600019d97b2e	1	1	DL_practice	11	DL_practice	8			0		pa	0	823	6	4	antiphase_hc_sio.wav	1	6	1	noise_calib_stim_LEFT.wav	1	1	blb_dichoticlistening_ba-ba.mp3	ba	ba	0	other
6.6.1	win	2023-07-17	15:51:16	0	0	5d24df75a80a600019d97b2e	1	1	DL_practice	11	DL_practice	9			0		ta	1	816	6	4	antiphase_hc_sio.wav	1	6	1	noise_calib_stim_LEFT.wav	1	36	blb_dichoticlistening_ta-ta.mp3	ta	ta	0	left
6.6.1	win	2023-07-17	15:51:16	0	0	5d24df75a80a600019d97b2e	1	1	DL_practice	11	DL_practice	10			0		ga	1	726	6	4	antiphase_hc_sio.wav	1	6	1	noise_calib_stim_LEFT.wav	1	18	blb_dichoticlistening_ga-ta.mp3	ga	ta	1	left
6.6.1	win	2023-07-17	15:51:16	0	0	5d24df75a80a600019d97b2e	1	1	DL_test	13	DL_test	1			0		ga	1	803	6	4	antiphase_hc_sio.wav	1	6	1	noise_calib_stim_LEFT.wav	1	17	blb_dichoticlistening_ga-pa.mp3	ga	pa	1	left
6.6.1	win	2023-07-17	15:51:16	0	0	5d24df75a80a600019d97b2e	1	1	DL_test	13	DL_test	2			0		ka	1	693	6	4	antiphase_hc_sio.wav	1	6	1	noise_calib_stim_LEFT.wav	1	34	blb_dichoticlistening_ta-ka.mp3	ta	ka	1	right
6.6.1	win	2023-07-17	15:51:16	0	0	5d24df75a80a600019d97b2e	1	1	DL_test	13	DL_test	3			0		ga	1	1005	6	4	antiphase_hc_sio.wav	1	6	1	noise_calib_stim_LEFT.wav	1	33	blb_dichoticlistening_ta-ga.mp3	ta	ga	1	right
6.6.1	win	2023-07-17	15:51:16	0	0	5d24df75a80a600019d97b2e	1	1	DL_test	13	DL_test	4			0		ka	1	758	6	4	antiphase_hc_sio.wav	1	6	1	noise_calib_stim_LEFT.wav	1	24	blb_dichoticlistening_ka-ta.mp3	ka	ta	1	left
6.6.1	win	2023-07-17	15:51:16	0	0	5d24df75a80a600019d97b2e	1	1	DL_test	13	DL_test	5			0		da	1	1150	6	4	antiphase_hc_sio.wav	1	6	1	noise_calib_stim_LEFT.wav	1	11	blb_dichoticlistening_da-pa.mp3	da	pa	1	left
6.6.1	win	2023-07-17	15:51:16	0	0	5d24df75a80a600019d97b2e	1	1	DL_test	13	DL_test	6			0		pa	0	880	6	4	antiphase_hc_sio.wav	1	6	1	noise_calib_stim_LEFT.wav	1	4	blb_dichoticlistening_ba-ka.mp3	ba	ka	1	other
6.6.1	win	2023-07-17	15:51:16	0	0	5d24df75a80a600019d97b2e	1	1	DL_test	13	DL_test	7			0		ta	1	869	6	4	antiphase_hc_sio.wav	1	6	1	noise_calib_stim_LEFT.wav	1	36	blb_dichoticlistening_ta-ta.mp3	ta	ta	0	left
6.6.1	win	2023-07-17	15:51:16	0	0	5d24df75a80a600019d97b2e	1	1	DL_test	13	DL_test	8			0		ba	1	1804	6	4	antiphase_hc_sio.wav	1	6	1	noise_calib_stim_LEFT.wav	1	13	blb_dichoticlistening_ga-ba.mp3	ga	ba	1	right
6.6.1	win	2023-07-17	15:51:16	0	0	5d24df75a80a600019d97b2e	1	1	DL_test	13	DL_test	9			0		ga	1	1070	6	4	antiphase_hc_sio.wav	1	6	1	noise_calib_stim_LEFT.wav	1	15	blb_dichoticlistening_ga-ga.mp3	ga	ga	0	left
6.6.1	win	2023-07-17	15:51:16	0	0	5d24df75a80a600019d97b2e	1	1	DL_test	13	DL_test	10			0		pa	0	882	6	4	antiphase_hc_sio.wav	1	6	1	noise_calib_stim_LEFT.wav	1	6	blb_dichoticlistening_ba-ta.mp3	ba	ta	1	other
6.6.1	win	2023-07-17	15:51:16	0	0	5d24df75a80a600019d97b2e	1	1	DL_test	13	DL_test	11			0		ta	1	1273	6	4	antiphase_hc_sio.wav	1	6	1	noise_calib_stim_LEFT.wav	1	30	blb_dichoticlistening_pa-ta.mp3	pa	ta	1	right
6.6.1	win	2023-07-17	15:51:16	0	0	5d24df75a80a600019d97b2e	1	1	DL_test	13	DL_test	12			0		da	1	1237	6	4	antiphase_hc_sio.wav	1	6	1	noise_calib_stim_LEFT.wav	1	12	blb_dichoticlistening_da-ta.mp3	da	ta	1	left
6.6.1	win	2023-07-17	15:51:16	0	0	5d24df75a80a600019d97b2e	1	1	DL_test	13	DL_test	13			0		pa	0	1115	6	4	antiphase_hc_sio.wav	1	6	1	noise_calib_stim_LEFT.wav	1	31	blb_dichoticlistening_ta-ba.mp3	ta	ba	1	other
6.6.1	win	2023-07-17	15:51:16	0	0	5d24df75a80a600019d97b2e	1	1	DL_test	13	DL_test	14			0		pa	0	1274	6	4	antiphase_hc_sio.wav	1	6	1	noise_calib_stim_LEFT.wav	1	3	blb_dichoticlistening_ba-ga.mp3	ba	ga	1	other
6.6.1	win	2023-07-17	15:51:16	0	0	5d24df75a80a600019d97b2e	1	1	DL_test	13	DL_test	15			0		ka	1	870	6	4	antiphase_hc_sio.wav	1	6	1	noise_calib_stim_LEFT.wav	1	23	blb_dichoticlistening_ka-pa.mp3	ka	pa	1	left
6.6.1	win	2023-07-17	15:51:16	0	0	5d24df75a80a600019d97b2e	1	1	DL_test	13	DL_test	16			0		da	1	867	6	4	antiphase_hc_sio.wav	1	6	1	noise_calib_stim_LEFT.wav	1	32	blb_dichoticlistening_ta-da.mp3	ta	da	1	right
6.6.1	win	2023-07-17	15:51:16	0	0	5d24df75a80a600019d97b2e	1	1	DL_test	13	DL_test	17			0		pa	0	1161	6	4	antiphase_hc_sio.wav	1	6	1	noise_calib_stim_LEFT.wav	1	7	blb_dichoticlistening_da-ba.mp3	da	ba	1	other
6.6.1	win	2023-07-17	15:51:16	0	0	5d24df75a80a600019d97b2e	1	1	DL_test	13	DL_test	18			0		pa	1	920	6	4	antiphase_hc_sio.wav	1	6	1	noise_calib_stim_LEFT.wav	1	5	blb_dichoticlistening_ba-pa.mp3	ba	pa	1	right
6.6.1	win	2023-07-17	15:51:16	0	0	5d24df75a80a600019d97b2e	1	1	DL_test	13	DL_test	19			0		ta	1	1682	6	4	antiphase_hc_sio.wav	1	6	1	noise_calib_stim_LEFT.wav	1	35	blb_dichoticlistening_ta-pa.mp3	ta	pa	1	left
6.6.1	win	2023-07-17	15:51:16	0	0	5d24df75a80a600019d97b2e	1	1	DL_test	13	DL_test	20			0		ga	0	772	6	4	antiphase_hc_sio.wav	1	6	1	noise_calib_stim_LEFT.wav	1	20	blb_dichoticlistening_ka-da.mp3	ka	da	1	other
6.6.1	win	2023-07-17	15:51:16	0	0	5d24df75a80a600019d97b2e	1	1	DL_test	13	DL_test	21			0		ka	1	847	6	4	antiphase_hc_sio.wav	1	6	1	noise_calib_stim_LEFT.wav	1	28	blb_dichoticlistening_pa-ka.mp3	pa	ka	1	right
6.6.1	win	2023-07-17	15:51:16	0	0	5d24df75a80a600019d97b2e	1	1	DL_test	13	DL_test	22			0		da	1	1028	6	4	antiphase_hc_sio.wav	1	6	1	noise_calib_stim_LEFT.wav	1	14	blb_dichoticlistening_ga-da.mp3	ga	da	1	right
6.6.1	win	2023-07-17	15:51:16	0	0	5d24df75a80a600019d97b2e	1	1	DL_test	13	DL_test	23			0		ga	1	827	6	4	antiphase_hc_sio.wav	1	6	1	noise_calib_stim_LEFT.wav	1	21	blb_dichoticlistening_ka-ga.mp3	ka	ga	1	right
6.6.1	win	2023-07-17	15:51:16	0	0	5d24df75a80a600019d97b2e	1	1	DL_test	13	DL_test	24			0		da	1	1170	6	4	antiphase_hc_sio.wav	1	6	1	noise_calib_stim_LEFT.wav	1	8	blb_dichoticlistening_da-da.mp3	da	da	0	left
6.6.1	win	2023-07-17	15:51:16	0	0	5d24df75a80a600019d97b2e	1	1	DL_test	13	DL_test	25			0		ga	1	814	6	4	antiphase_hc_sio.wav	1	6	1	noise_calib_stim_LEFT.wav	1	27	blb_dichoticlistening_pa-ga.mp3	pa	ga	1	right
6.6.1	win	2023-07-17	15:51:16	0	0	5d24df75a80a600019d97b2e	1	1	DL_test	13	DL_test	26			0		ga	0	2883	6	4	antiphase_hc_sio.wav	1	6	1	noise_calib_stim_LEFT.wav	1	10	blb_dichoticlistening_da-ka.mp3	da	ka	1	other
6.6.1	win	2023-07-17	15:51:16	0	0	5d24df75a80a600019d97b2e	1	1	DL_test	13	DL_test	27			0		pa	0	862	6	4	antiphase_hc_sio.wav	1	6	1	noise_calib_stim_LEFT.wav	1	1	blb_dichoticlistening_ba-ba.mp3	ba	ba	0	other
6.6.1	win	2023-07-17	15:51:16	0	0	5d24df75a80a600019d97b2e	1	1	DL_test	13	DL_test	28			0		pa	1	503	6	4	antiphase_hc_sio.wav	1	6	1	noise_calib_stim_LEFT.wav	1	25	blb_dichoticlistening_pa-ba.mp3	pa	ba	1	left
6.6.1	win	2023-07-17	15:51:16	0	0	5d24df75a80a600019d97b2e	1	1	DL_test	13	DL_test	29			0		ga	1	1055	6	4	antiphase_hc_sio.wav	1	6	1	noise_calib_stim_LEFT.wav	1	9	blb_dichoticlistening_da-ga.mp3	da	ga	1	right
6.6.1	win	2023-07-17	15:51:16	0	0	5d24df75a80a600019d97b2e	1	1	DL_test	13	DL_test	30			0		ka	0	938	6	4	antiphase_hc_sio.wav	1	6	1	noise_calib_stim_LEFT.wav	1	26	blb_dichoticlistening_pa-da.mp3	pa	da	1	other
6.6.1	win	2023-07-17	15:51:16	0	0	5d24df75a80a600019d97b2e	1	1	DL_test	13	DL_test	31			0		ga	1	896	6	4	antiphase_hc_sio.wav	1	6	1	noise_calib_stim_LEFT.wav	1	16	blb_dichoticlistening_ga-ka.mp3	ga	ka	1	left
6.6.1	win	2023-07-17	15:51:16	0	0	5d24df75a80a600019d97b2e	1	1	DL_test	13	DL_test	32			0		ka	1	1317	6	4	antiphase_hc_sio.wav	1	6	1	noise_calib_stim_LEFT.wav	1	22	blb_dichoticlistening_ka-ka.mp3	ka	ka	0	left
6.6.1	win	2023-07-17	15:51:16	0	0	5d24df75a80a600019d97b2e	1	1	DL_test	13	DL_test	33			0		ba	1	2353	6	4	antiphase_hc_sio.wav	1	6	1	noise_calib_stim_LEFT.wav	1	2	blb_dichoticlistening_ba-da.mp3	ba	da	1	left
6.6.1	win	2023-07-17	15:51:16	0	0	5d24df75a80a600019d97b2e	1	1	DL_test	13	DL_test	34			0		ga	1	697	6	4	antiphase_hc_sio.wav	1	6	1	noise_calib_stim_LEFT.wav	1	18	blb_dichoticlistening_ga-ta.mp3	ga	ta	1	left
6.6.1	win	2023-07-17	15:51:16	0	0	5d24df75a80a600019d97b2e	1	1	DL_test	13	DL_test	35			0		pa	0	951	6	4	antiphase_hc_sio.wav	1	6	1	noise_calib_stim_LEFT.wav	1	19	blb_dichoticlistening_ka-ba.mp3	ka	ba	1	other
6.6.1	win	2023-07-17	15:51:16	0	0	5d24df75a80a600019d97b2e	1	1	DL_test	13	DL_test	36			0		pa	1	648	6	4	antiphase_hc_sio.wav	1	6	1	noise_calib_stim_LEFT.wav	1	29	blb_dichoticlistening_pa-pa.mp3	pa	pa	0	left
6.6.1	win	2023-07-17	15:51:16	0	0	5d24df75a80a600019d97b2e	1	1	DL_test	14	DL_test	1			0		ga	0	1598	6	4	antiphase_hc_sio.wav	1	6	1	noise_calib_stim_LEFT.wav	1	12	blb_dichoticlistening_da-ta.mp3	da	ta	1	other
6.6.1	win	2023-07-17	15:51:16	0	0	5d24df75a80a600019d97b2e	1	1	DL_test	14	DL_test	2			0		pa	0	931	6	4	antiphase_hc_sio.wav	1	6	1	noise_calib_stim_LEFT.wav	1	3	blb_dichoticlistening_ba-ga.mp3	ba	ga	1	other
6.6.1	win	2023-07-17	15:51:16	0	0	5d24df75a80a600019d97b2e	1	1	DL_test	14	DL_test	3			0		ga	1	772	6	4	antiphase_hc_sio.wav	1	6	1	noise_calib_stim_LEFT.wav	1	21	blb_dichoticlistening_ka-ga.mp3	ka	ga	1	right
6.6.1	win	2023-07-17	15:51:16	0	0	5d24df75a80a600019d97b2e	1	1	DL_test	14	DL_test	4			0		pa	0	918	6	4	antiphase_hc_sio.wav	1	6	1	noise_calib_stim_LEFT.wav	1	6	blb_dichoticlistening_ba-ta.mp3	ba	ta	1	other
6.6.1	win	2023-07-17	15:51:16	0	0	5d24df75a80a600019d97b2e	1	1	DL_test	14	DL_test	5			0		ka	1	1011	6	4	antiphase_hc_sio.wav	1	6	1	noise_calib_stim_LEFT.wav	1	22	blb_dichoticlistening_ka-ka.mp3	ka	ka	0	left
6.6.1	win	2023-07-17	15:51:16	0	0	5d24df75a80a600019d97b2e	1	1	DL_test	14	DL_test	6			0		ga	1	905	6	4	antiphase_hc_sio.wav	1	6	1	noise_calib_stim_LEFT.wav	1	9	blb_dichoticlistening_da-ga.mp3	da	ga	1	right
6.6.1	win	2023-07-17	15:51:16	0	0	5d24df75a80a600019d97b2e	1	1	DL_test	14	DL_test	7			0		ka	1	1073	6	4	antiphase_hc_sio.wav	1	6	1	noise_calib_stim_LEFT.wav	1	28	blb_dichoticlistening_pa-ka.mp3	pa	ka	1	right
6.6.1	win	2023-07-17	15:51:16	0	0	5d24df75a80a600019d97b2e	1	1	DL_test	14	DL_test	8			0		ga	1	628	6	4	antiphase_hc_sio.wav	1	6	1	noise_calib_stim_LEFT.wav	1	33	blb_dichoticlistening_ta-ga.mp3	ta	ga	1	right
6.6.1	win	2023-07-17	15:51:16	0	0	5d24df75a80a600019d97b2e	1	1	DL_test	14	DL_test	9			0		pa	1	650	6	4	antiphase_hc_sio.wav	1	6	1	noise_calib_stim_LEFT.wav	1	5	blb_dichoticlistening_ba-pa.mp3	ba	pa	1	right
6.6.1	win	2023-07-17	15:51:16	0	0	5d24df75a80a600019d97b2e	1	1	DL_test	14	DL_test	10			0		ga	1	1145	6	4	antiphase_hc_sio.wav	1	6	1	noise_calib_stim_LEFT.wav	1	14	blb_dichoticlistening_ga-da.mp3	ga	da	1	left
6.6.1	win	2023-07-17	15:51:16	0	0	5d24df75a80a600019d97b2e	1	1	DL_test	14	DL_test	11			0		da	1	528	6	4	antiphase_hc_sio.wav	1	6	1	noise_calib_stim_LEFT.wav	1	8	blb_dichoticlistening_da-da.mp3	da	da	0	left
6.6.1	win	2023-07-17	15:51:16	0	0	5d24df75a80a600019d97b2e	1	1	DL_test	14	DL_test	12			0		pa	1	933	6	4	antiphase_hc_sio.wav	1	6	1	noise_calib_stim_LEFT.wav	1	25	blb_dichoticlistening_pa-ba.mp3	pa	ba	1	left
6.6.1	win	2023-07-17	15:51:16	0	0	5d24df75a80a600019d97b2e	1	1	DL_test	14	DL_test	13			0		ta	1	1371	6	4	antiphase_hc_sio.wav	1	6	1	noise_calib_stim_LEFT.wav	1	35	blb_dichoticlistening_ta-pa.mp3	ta	pa	1	left
6.6.1	win	2023-07-17	15:51:16	0	0	5d24df75a80a600019d97b2e	1	1	DL_test	14	DL_test	14			0		pa	0	952	6	4	antiphase_hc_sio.wav	1	6	1	noise_calib_stim_LEFT.wav	1	2	blb_dichoticlistening_ba-da.mp3	ba	da	1	other
6.6.1	win	2023-07-17	15:51:16	0	0	5d24df75a80a600019d97b2e	1	1	DL_test	14	DL_test	15			0		ga	1	762	6	4	antiphase_hc_sio.wav	1	6	1	noise_calib_stim_LEFT.wav	1	18	blb_dichoticlistening_ga-ta.mp3	ga	ta	1	left
6.6.1	win	2023-07-17	15:51:16	0	0	5d24df75a80a600019d97b2e	1	1	DL_test	14	DL_test	16			0		pa	1	1150	6	4	antiphase_hc_sio.wav	1	6	1	noise_calib_stim_LEFT.wav	1	30	blb_dichoticlistening_pa-ta.mp3	pa	ta	1	left
6.6.1	win	2023-07-17	15:51:16	0	0	5d24df75a80a600019d97b2e	1	1	DL_test	14	DL_test	17			0		da	1	1469	6	4	antiphase_hc_sio.wav	1	6	1	noise_calib_stim_LEFT.wav	1	11	blb_dichoticlistening_da-pa.mp3	da	pa	1	left
6.6.1	win	2023-07-17	15:51:16	0	0	5d24df75a80a600019d97b2e	1	1	DL_test	14	DL_test	18			0		pa	1	941	6	4	antiphase_hc_sio.wav	1	6	1	noise_calib_stim_LEFT.wav	1	29	blb_dichoticlistening_pa-pa.mp3	pa	pa	0	left
6.6.1	win	2023-07-17	15:51:16	0	0	5d24df75a80a600019d97b2e	1	1	DL_test	14	DL_test	19			0		ta	1	1862	6	4	antiphase_hc_sio.wav	1	6	1	noise_calib_stim_LEFT.wav	1	36	blb_dichoticlistening_ta-ta.mp3	ta	ta	0	left
6.6.1	win	2023-07-17	15:51:16	0	0	5d24df75a80a600019d97b2e	1	1	DL_test	14	DL_test	20			0		pa	1	791	6	4	antiphase_hc_sio.wav	1	6	1	noise_calib_stim_LEFT.wav	1	23	blb_dichoticlistening_ka-pa.mp3	ka	pa	1	right
6.6.1	win	2023-07-17	15:51:16	0	0	5d24df75a80a600019d97b2e	1	1	DL_test	14	DL_test	21			0		da	1	1331	6	4	antiphase_hc_sio.wav	1	6	1	noise_calib_stim_LEFT.wav	1	26	blb_dichoticlistening_pa-da.mp3	pa	da	1	right
6.6.1	win	2023-07-17	15:51:16	0	0	5d24df75a80a600019d97b2e	1	1	DL_test	14	DL_test	22			0		pa	0	1121	6	4	antiphase_hc_sio.wav	1	6	1	noise_calib_stim_LEFT.wav	1	7	blb_dichoticlistening_da-ba.mp3	da	ba	1	other
6.6.1	win	2023-07-17	15:51:16	0	0	5d24df75a80a600019d97b2e	1	1	DL_test	14	DL_test	23			0		ga	0	696	6	4	antiphase_hc_sio.wav	1	6	1	noise_calib_stim_LEFT.wav	1	20	blb_dichoticlistening_ka-da.mp3	ka	da	1	other
6.6.1	win	2023-07-17	15:51:16	0	0	5d24df75a80a600019d97b2e	1	1	DL_test	14	DL_test	24			0		pa	0	780	6	4	antiphase_hc_sio.wav	1	6	1	noise_calib_stim_LEFT.wav	1	31	blb_dichoticlistening_ta-ba.mp3	ta	ba	1	other
6.6.1	win	2023-07-17	15:51:16	0	0	5d24df75a80a600019d97b2e	1	1	DL_test	14	DL_test	25			0		pa	0	674	6	4	antiphase_hc_sio.wav	1	6	1	noise_calib_stim_LEFT.wav	1	13	blb_dichoticlistening_ga-ba.mp3	ga	ba	1	other
6.6.1	win	2023-07-17	15:51:16	0	0	5d24df75a80a600019d97b2e	1	1	DL_test	14	DL_test	26			0		ga	1	694	6	4	antiphase_hc_sio.wav	1	6	1	noise_calib_stim_LEFT.wav	1	27	blb_dichoticlistening_pa-ga.mp3	pa	ga	1	right
6.6.1	win	2023-07-17	15:51:16	0	0	5d24df75a80a600019d97b2e	1	1	DL_test	14	DL_test	27			0		ka	1	761	6	4	antiphase_hc_sio.wav	1	6	1	noise_calib_stim_LEFT.wav	1	34	blb_dichoticlistening_ta-ka.mp3	ta	ka	1	right
6.6.1	win	2023-07-17	15:51:16	0	0	5d24df75a80a600019d97b2e	1	1	DL_test	14	DL_test	28			0		ga	1	714	6	4	antiphase_hc_sio.wav	1	6	1	noise_calib_stim_LEFT.wav	1	15	blb_dichoticlistening_ga-ga.mp3	ga	ga	0	left
6.6.1	win	2023-07-17	15:51:16	0	0	5d24df75a80a600019d97b2e	1	1	DL_test	14	DL_test	29			0		pa	0	862	6	4	antiphase_hc_sio.wav	1	6	1	noise_calib_stim_LEFT.wav	1	4	blb_dichoticlistening_ba-ka.mp3	ba	ka	1	other
6.6.1	win	2023-07-17	15:51:16	0	0	5d24df75a80a600019d97b2e	1	1	DL_test	14	DL_test	30			0		da	1	787	6	4	antiphase_hc_sio.wav	1	6	1	noise_calib_stim_LEFT.wav	1	10	blb_dichoticlistening_da-ka.mp3	da	ka	1	left
6.6.1	win	2023-07-17	15:51:16	0	0	5d24df75a80a600019d97b2e	1	1	DL_test	14	DL_test	31			0		ka	1	834	6	4	antiphase_hc_sio.wav	1	6	1	noise_calib_stim_LEFT.wav	1	24	blb_dichoticlistening_ka-ta.mp3	ka	ta	1	left
6.6.1	win	2023-07-17	15:51:16	0	0	5d24df75a80a600019d97b2e	1	1	DL_test	14	DL_test	32			0		da	1	984	6	4	antiphase_hc_sio.wav	1	6	1	noise_calib_stim_LEFT.wav	1	32	blb_dichoticlistening_ta-da.mp3	ta	da	1	right
6.6.1	win	2023-07-17	15:51:16	0	0	5d24df75a80a600019d97b2e	1	1	DL_test	14	DL_test	33			0		ga	1	613	6	4	antiphase_hc_sio.wav	1	6	1	noise_calib_stim_LEFT.wav	1	16	blb_dichoticlistening_ga-ka.mp3	ga	ka	1	left
6.6.1	win	2023-07-17	15:51:16	0	0	5d24df75a80a600019d97b2e	1	1	DL_test	14	DL_test	34			0		pa	0	656	6	4	antiphase_hc_sio.wav	1	6	1	noise_calib_stim_LEFT.wav	1	1	blb_dichoticlistening_ba-ba.mp3	ba	ba	0	other
6.6.1	win	2023-07-17	15:51:16	0	0	5d24df75a80a600019d97b2e	1	1	DL_test	14	DL_test	35			0		pa	0	1527	6	4	antiphase_hc_sio.wav	1	6	1	noise_calib_stim_LEFT.wav	1	19	blb_dichoticlistening_ka-ba.mp3	ka	ba	1	other
6.6.1	win	2023-07-17	15:51:16	0	0	5d24df75a80a600019d97b2e	1	1	DL_test	14	DL_test	36			0		ga	1	906	6	4	antiphase_hc_sio.wav	1	6	1	noise_calib_stim_LEFT.wav	1	17	blb_dichoticlistening_ga-pa.mp3	ga	pa	1	left
6.6.1	win	2023-07-17	15:51:16	0	0	5d24df75a80a600019d97b2e	1	1	DL_test	15	DL_test	1			0		ta	0	1457	6	4	antiphase_hc_sio.wav	1	6	1	noise_calib_stim_LEFT.wav	1	7	blb_dichoticlistening_da-ba.mp3	da	ba	1	other
6.6.1	win	2023-07-17	15:51:16	0	0	5d24df75a80a600019d97b2e	1	1	DL_test	15	DL_test	2			0		pa	1	1028	6	4	antiphase_hc_sio.wav	1	6	1	noise_calib_stim_LEFT.wav	1	30	blb_dichoticlistening_pa-ta.mp3	pa	ta	1	left
6.6.1	win	2023-07-17	15:51:16	0	0	5d24df75a80a600019d97b2e	1	1	DL_test	15	DL_test	3			0		ka	1	883	6	4	antiphase_hc_sio.wav	1	6	1	noise_calib_stim_LEFT.wav	1	22	blb_dichoticlistening_ka-ka.mp3	ka	ka	0	left
6.6.1	win	2023-07-17	15:51:16	0	0	5d24df75a80a600019d97b2e	1	1	DL_test	15	DL_test	4			0		da	0	747	6	4	antiphase_hc_sio.wav	1	6	1	noise_calib_stim_LEFT.wav	1	3	blb_dichoticlistening_ba-ga.mp3	ba	ga	1	other
6.6.1	win	2023-07-17	15:51:16	0	0	5d24df75a80a600019d97b2e	1	1	DL_test	15	DL_test	5			0		pa	0	807	6	4	antiphase_hc_sio.wav	1	6	1	noise_calib_stim_LEFT.wav	1	19	blb_dichoticlistening_ka-ba.mp3	ka	ba	1	other
6.6.1	win	2023-07-17	15:51:16	0	0	5d24df75a80a600019d97b2e	1	1	DL_test	15	DL_test	6			0		pa	1	779	6	4	antiphase_hc_sio.wav	1	6	1	noise_calib_stim_LEFT.wav	1	5	blb_dichoticlistening_ba-pa.mp3	ba	pa	1	right
6.6.1	win	2023-07-17	15:51:16	0	0	5d24df75a80a600019d97b2e	1	1	DL_test	15	DL_test	7			0		ga	1	689	6	4	antiphase_hc_sio.wav	1	6	1	noise_calib_stim_LEFT.wav	1	17	blb_dichoticlistening_ga-pa.mp3	ga	pa	1	left
6.6.1	win	2023-07-17	15:51:16	0	0	5d24df75a80a600019d97b2e	1	1	DL_test	15	DL_test	8			0		ga	1	784	6	4	antiphase_hc_sio.wav	1	6	1	noise_calib_stim_LEFT.wav	1	15	blb_dichoticlistening_ga-ga.mp3	ga	ga	0	left
6.6.1	win	2023-07-17	15:51:16	0	0	5d24df75a80a600019d97b2e	1	1	DL_test	15	DL_test	9			0		ta	1	1131	6	4	antiphase_hc_sio.wav	1	6	1	noise_calib_stim_LEFT.wav	1	35	blb_dichoticlistening_ta-pa.mp3	ta	pa	1	left
6.6.1	win	2023-07-17	15:51:16	0	0	5d24df75a80a600019d97b2e	1	1	DL_test	15	DL_test	10			0		ka	1	919	6	4	antiphase_hc_sio.wav	1	6	1	noise_calib_stim_LEFT.wav	1	23	blb_dichoticlistening_ka-pa.mp3	ka	pa	1	left
6.6.1	win	2023-07-17	15:51:16	0	0	5d24df75a80a600019d97b2e	1	1	DL_test	15	DL_test	11			0		pa	0	807	6	4	antiphase_hc_sio.wav	1	6	1	noise_calib_stim_LEFT.wav	1	4	blb_dichoticlistening_ba-ka.mp3	ba	ka	1	other
6.6.1	win	2023-07-17	15:51:16	0	0	5d24df75a80a600019d97b2e	1	1	DL_test	15	DL_test	12			0		da	1	1008	6	4	antiphase_hc_sio.wav	1	6	1	noise_calib_stim_LEFT.wav	1	12	blb_dichoticlistening_da-ta.mp3	da	ta	1	left
6.6.1	win	2023-07-17	15:51:16	0	0	5d24df75a80a600019d97b2e	1	1	DL_test	15	DL_test	13			0		ka	1	823	6	4	antiphase_hc_sio.wav	1	6	1	noise_calib_stim_LEFT.wav	1	34	blb_dichoticlistening_ta-ka.mp3	ta	ka	1	right
6.6.1	win	2023-07-17	15:51:16	0	0	5d24df75a80a600019d97b2e	1	1	DL_test	15	DL_test	14			0		da	1	879	6	4	antiphase_hc_sio.wav	1	6	1	noise_calib_stim_LEFT.wav	1	9	blb_dichoticlistening_da-ga.mp3	da	ga	1	left
6.6.1	win	2023-07-17	15:51:16	0	0	5d24df75a80a600019d97b2e	1	1	DL_test	15	DL_test	15			0		ga	0	1584	6	4	antiphase_hc_sio.wav	1	6	1	noise_calib_stim_LEFT.wav	1	26	blb_dichoticlistening_pa-da.mp3	pa	da	1	other
6.6.1	win	2023-07-17	15:51:16	0	0	5d24df75a80a600019d97b2e	1	1	DL_test	15	DL_test	16			0		ka	1	1150	6	4	antiphase_hc_sio.wav	1	6	1	noise_calib_stim_LEFT.wav	1	10	blb_dichoticlistening_da-ka.mp3	da	ka	1	right
6.6.1	win	2023-07-17	15:51:16	0	0	5d24df75a80a600019d97b2e	1	1	DL_test	15	DL_test	17			0		ga	1	1597	6	4	antiphase_hc_sio.wav	1	6	1	noise_calib_stim_LEFT.wav	1	18	blb_dichoticlistening_ga-ta.mp3	ga	ta	1	left
6.6.1	win	2023-07-17	15:51:16	0	0	5d24df75a80a600019d97b2e	1	1	DL_test	15	DL_test	18			0		pa	0	1166	6	4	antiphase_hc_sio.wav	1	6	1	noise_calib_stim_LEFT.wav	1	31	blb_dichoticlistening_ta-ba.mp3	ta	ba	1	other
6.6.1	win	2023-07-17	15:51:16	0	0	5d24df75a80a600019d97b2e	1	1	DL_test	15	DL_test	19			0		ga	1	887	6	4	antiphase_hc_sio.wav	1	6	1	noise_calib_stim_LEFT.wav	1	33	blb_dichoticlistening_ta-ga.mp3	ta	ga	1	right
6.6.1	win	2023-07-17	15:51:16	0	0	5d24df75a80a600019d97b2e	1	1	DL_test	15	DL_test	20			0		ka	1	627	6	4	antiphase_hc_sio.wav	1	6	1	noise_calib_stim_LEFT.wav	1	24	blb_dichoticlistening_ka-ta.mp3	ka	ta	1	left
6.6.1	win	2023-07-17	15:51:16	0	0	5d24df75a80a600019d97b2e	1	1	DL_test	15	DL_test	21			0		pa	1	934	6	4	antiphase_hc_sio.wav	1	6	1	noise_calib_stim_LEFT.wav	1	29	blb_dichoticlistening_pa-pa.mp3	pa	pa	0	left
6.6.1	win	2023-07-17	15:51:16	0	0	5d24df75a80a600019d97b2e	1	1	DL_test	15	DL_test	22			0		ga	1	662	6	4	antiphase_hc_sio.wav	1	6	1	noise_calib_stim_LEFT.wav	1	21	blb_dichoticlistening_ka-ga.mp3	ka	ga	1	right
6.6.1	win	2023-07-17	15:51:16	0	0	5d24df75a80a600019d97b2e	1	1	DL_test	15	DL_test	23			0		da	1	818	6	4	antiphase_hc_sio.wav	1	6	1	noise_calib_stim_LEFT.wav	1	8	blb_dichoticlistening_da-da.mp3	da	da	0	left
6.6.1	win	2023-07-17	15:51:16	0	0	5d24df75a80a600019d97b2e	1	1	DL_test	15	DL_test	24			0		ta	1	897	6	4	antiphase_hc_sio.wav	1	6	1	noise_calib_stim_LEFT.wav	1	36	blb_dichoticlistening_ta-ta.mp3	ta	ta	0	left
6.6.1	win	2023-07-17	15:51:16	0	0	5d24df75a80a600019d97b2e	1	1	DL_test	15	DL_test	25			0		pa	1	1034	6	4	antiphase_hc_sio.wav	1	6	1	noise_calib_stim_LEFT.wav	1	25	blb_dichoticlistening_pa-ba.mp3	pa	ba	1	left
6.6.1	win	2023-07-17	15:51:16	0	0	5d24df75a80a600019d97b2e	1	1	DL_test	15	DL_test	26			0		pa	0	917	6	4	antiphase_hc_sio.wav	1	6	1	noise_calib_stim_LEFT.wav	1	6	blb_dichoticlistening_ba-ta.mp3	ba	ta	1	other
6.6.1	win	2023-07-17	15:51:16	0	0	5d24df75a80a600019d97b2e	1	1	DL_test	15	DL_test	27			0		ga	1	669	6	4	antiphase_hc_sio.wav	1	6	1	noise_calib_stim_LEFT.wav	1	16	blb_dichoticlistening_ga-ka.mp3	ga	ka	1	left
6.6.1	win	2023-07-17	15:51:16	0	0	5d24df75a80a600019d97b2e	1	1	DL_test	15	DL_test	28			0		da	1	944	6	4	antiphase_hc_sio.wav	1	6	1	noise_calib_stim_LEFT.wav	1	14	blb_dichoticlistening_ga-da.mp3	ga	da	1	right
6.6.1	win	2023-07-17	15:51:16	0	0	5d24df75a80a600019d97b2e	1	1	DL_test	15	DL_test	29			0		ka	0	568	6	4	antiphase_hc_sio.wav	1	6	1	noise_calib_stim_LEFT.wav	1	11	blb_dichoticlistening_da-pa.mp3	da	pa	1	other
6.6.1	win	2023-07-17	15:51:16	0	0	5d24df75a80a600019d97b2e	1	1	DL_test	15	DL_test	30			0		pa	0	817	6	4	antiphase_hc_sio.wav	1	6	1	noise_calib_stim_LEFT.wav	1	13	blb_dichoticlistening_ga-ba.mp3	ga	ba	1	other
6.6.1	win	2023-07-17	15:51:16	0	0	5d24df75a80a600019d97b2e	1	1	DL_test	15	DL_test	31			0		pa	0	847	6	4	antiphase_hc_sio.wav	1	6	1	noise_calib_stim_LEFT.wav	1	2	blb_dichoticlistening_ba-da.mp3	ba	da	1	other
6.6.1	win	2023-07-17	15:51:16	0	0	5d24df75a80a600019d97b2e	1	1	DL_test	15	DL_test	32			0		ka	1	637	6	4	antiphase_hc_sio.wav	1	6	1	noise_calib_stim_LEFT.wav	1	20	blb_dichoticlistening_ka-da.mp3	ka	da	1	left
6.6.1	win	2023-07-17	15:51:16	0	0	5d24df75a80a600019d97b2e	1	1	DL_test	15	DL_test	33			0		ga	1	726	6	4	antiphase_hc_sio.wav	1	6	1	noise_calib_stim_LEFT.wav	1	27	blb_dichoticlistening_pa-ga.mp3	pa	ga	1	right
6.6.1	win	2023-07-17	15:51:16	0	0	5d24df75a80a600019d97b2e	1	1	DL_test	15	DL_test	34			0		pa	0	1226	6	4	antiphase_hc_sio.wav	1	6	1	noise_calib_stim_LEFT.wav	1	1	blb_dichoticlistening_ba-ba.mp3	ba	ba	0	other
6.6.1	win	2023-07-17	15:51:16	0	0	5d24df75a80a600019d97b2e	1	1	DL_test	15	DL_test	35			0		ka	1	783	6	4	antiphase_hc_sio.wav	1	6	1	noise_calib_stim_LEFT.wav	1	28	blb_dichoticlistening_pa-ka.mp3	pa	ka	1	right
6.6.1	win	2023-07-17	15:51:16	0	0	5d24df75a80a600019d97b2e	1	1	DL_test	15	DL_test	36			0		da	1	912	6	4	antiphase_hc_sio.wav	1	6	1	noise_calib_stim_LEFT.wav	1	32	blb_dichoticlistening_ta-da.mp3	ta	da	1	right
6.6.1	win	2023-07-17	15:51:16	0	0	5d24df75a80a600019d97b2e	1	1	DL_test	16	DL_test	1			0		da	1	1475	6	4	antiphase_hc_sio.wav	1	6	1	noise_calib_stim_LEFT.wav	1	11	blb_dichoticlistening_da-pa.mp3	da	pa	1	left
6.6.1	win	2023-07-17	15:51:16	0	0	5d24df75a80a600019d97b2e	1	1	DL_test	16	DL_test	2			0		ga	0	927	6	4	antiphase_hc_sio.wav	1	6	1	noise_calib_stim_LEFT.wav	1	12	blb_dichoticlistening_da-ta.mp3	da	ta	1	other
6.6.1	win	2023-07-17	15:51:16	0	0	5d24df75a80a600019d97b2e	1	1	DL_test	16	DL_test	3			0		pa	1	596	6	4	antiphase_hc_sio.wav	1	6	1	noise_calib_stim_LEFT.wav	1	5	blb_dichoticlistening_ba-pa.mp3	ba	pa	1	right
6.6.1	win	2023-07-17	15:51:16	0	0	5d24df75a80a600019d97b2e	1	1	DL_test	16	DL_test	4			0		ga	1	1153	6	4	antiphase_hc_sio.wav	1	6	1	noise_calib_stim_LEFT.wav	1	15	blb_dichoticlistening_ga-ga.mp3	ga	ga	0	left
6.6.1	win	2023-07-17	15:51:16	0	0	5d24df75a80a600019d97b2e	1	1	DL_test	16	DL_test	5			0		pa	0	1137	6	4	antiphase_hc_sio.wav	1	6	1	noise_calib_stim_LEFT.wav	1	3	blb_dichoticlistening_ba-ga.mp3	ba	ga	1	other
6.6.1	win	2023-07-17	15:51:16	0	0	5d24df75a80a600019d97b2e	1	1	DL_test	16	DL_test	6			0		ta	1	879	6	4	antiphase_hc_sio.wav	1	6	1	noise_calib_stim_LEFT.wav	1	35	blb_dichoticlistening_ta-pa.mp3	ta	pa	1	left
6.6.1	win	2023-07-17	15:51:16	0	0	5d24df75a80a600019d97b2e	1	1	DL_test	16	DL_test	7			0		ga	0	1045	6	4	antiphase_hc_sio.wav	1	6	1	noise_calib_stim_LEFT.wav	1	10	blb_dichoticlistening_da-ka.mp3	da	ka	1	other
6.6.1	win	2023-07-17	15:51:16	0	0	5d24df75a80a600019d97b2e	1	1	DL_test	16	DL_test	8			0		ka	0	1035	6	4	antiphase_hc_sio.wav	1	6	1	noise_calib_stim_LEFT.wav	1	9	blb_dichoticlistening_da-ga.mp3	da	ga	1	other
6.6.1	win	2023-07-17	15:51:16	0	0	5d24df75a80a600019d97b2e	1	1	DL_test	16	DL_test	9			0		pa	0	704	6	4	antiphase_hc_sio.wav	1	6	1	noise_calib_stim_LEFT.wav	1	19	blb_dichoticlistening_ka-ba.mp3	ka	ba	1	other
6.6.1	win	2023-07-17	15:51:16	0	0	5d24df75a80a600019d97b2e	1	1	DL_test	16	DL_test	10			0		ka	1	981	6	4	antiphase_hc_sio.wav	1	6	1	noise_calib_stim_LEFT.wav	1	34	blb_dichoticlistening_ta-ka.mp3	ta	ka	1	right
6.6.1	win	2023-07-17	15:51:16	0	0	5d24df75a80a600019d97b2e	1	1	DL_test	16	DL_test	11			0		ga	1	695	6	4	antiphase_hc_sio.wav	1	6	1	noise_calib_stim_LEFT.wav	1	27	blb_dichoticlistening_pa-ga.mp3	pa	ga	1	right
6.6.1	win	2023-07-17	15:51:16	0	0	5d24df75a80a600019d97b2e	1	1	DL_test	16	DL_test	12			0		da	1	1236	6	4	antiphase_hc_sio.wav	1	6	1	noise_calib_stim_LEFT.wav	1	7	blb_dichoticlistening_da-ba.mp3	da	ba	1	left
6.6.1	win	2023-07-17	15:51:16	0	0	5d24df75a80a600019d97b2e	1	1	DL_test	16	DL_test	13			0		pa	0	484	6	4	antiphase_hc_sio.wav	1	6	1	noise_calib_stim_LEFT.wav	1	1	blb_dichoticlistening_ba-ba.mp3	ba	ba	0	other
6.6.1	win	2023-07-17	15:51:16	0	0	5d24df75a80a600019d97b2e	1	1	DL_test	16	DL_test	14			0		ta	1	1003	6	4	antiphase_hc_sio.wav	1	6	1	noise_calib_stim_LEFT.wav	1	36	blb_dichoticlistening_ta-ta.mp3	ta	ta	0	left
6.6.1	win	2023-07-17	15:51:16	0	0	5d24df75a80a600019d97b2e	1	1	DL_test	16	DL_test	15			0		ga	0	739	6	4	antiphase_hc_sio.wav	1	6	1	noise_calib_stim_LEFT.wav	1	32	blb_dichoticlistening_ta-da.mp3	ta	da	1	other
6.6.1	win	2023-07-17	15:51:16	0	0	5d24df75a80a600019d97b2e	1	1	DL_test	16	DL_test	16			0		da	0	1253	6	4	antiphase_hc_sio.wav	1	6	1	noise_calib_stim_LEFT.wav	1	18	blb_dichoticlistening_ga-ta.mp3	ga	ta	1	other
6.6.1	win	2023-07-17	15:51:16	0	0	5d24df75a80a600019d97b2e	1	1	DL_test	16	DL_test	17			0		ga	1	606	6	4	antiphase_hc_sio.wav	1	6	1	noise_calib_stim_LEFT.wav	1	21	blb_dichoticlistening_ka-ga.mp3	ka	ga	1	right
6.6.1	win	2023-07-17	15:51:16	0	0	5d24df75a80a600019d97b2e	1	1	DL_test	16	DL_test	18			0		ka	1	754	6	4	antiphase_hc_sio.wav	1	6	1	noise_calib_stim_LEFT.wav	1	23	blb_dichoticlistening_ka-pa.mp3	ka	pa	1	left
6.6.1	win	2023-07-17	15:51:16	0	0	5d24df75a80a600019d97b2e	1	1	DL_test	16	DL_test	19			0		ta	0	1392	6	4	antiphase_hc_sio.wav	1	6	1	noise_calib_stim_LEFT.wav	1	8	blb_dichoticlistening_da-da.mp3	da	da	0	other
6.6.1	win	2023-07-17	15:51:16	0	0	5d24df75a80a600019d97b2e	1	1	DL_test	16	DL_test	20			0		ka	1	732	6	4	antiphase_hc_sio.wav	1	6	1	noise_calib_stim_LEFT.wav	1	22	blb_dichoticlistening_ka-ka.mp3	ka	ka	0	left
6.6.1	win	2023-07-17	15:51:16	0	0	5d24df75a80a600019d97b2e	1	1	DL_test	16	DL_test	21			0		pa	1	1301	6	4	antiphase_hc_sio.wav	1	6	1	noise_calib_stim_LEFT.wav	1	25	blb_dichoticlistening_pa-ba.mp3	pa	ba	1	left
6.6.1	win	2023-07-17	15:51:16	0	0	5d24df75a80a600019d97b2e	1	1	DL_test	16	DL_test	22			0		ka	1	753	6	4	antiphase_hc_sio.wav	1	6	1	noise_calib_stim_LEFT.wav	1	24	blb_dichoticlistening_ka-ta.mp3	ka	ta	1	left
6.6.1	win	2023-07-17	15:51:16	0	0	5d24df75a80a600019d97b2e	1	1	DL_test	16	DL_test	23			0		ba	1	1602	6	4	antiphase_hc_sio.wav	1	6	1	noise_calib_stim_LEFT.wav	1	13	blb_dichoticlistening_ga-ba.mp3	ga	ba	1	right
6.6.1	win	2023-07-17	15:51:16	0	0	5d24df75a80a600019d97b2e	1	1	DL_test	16	DL_test	24			0		pa	1	1306	6	4	antiphase_hc_sio.wav	1	6	1	noise_calib_stim_LEFT.wav	1	29	blb_dichoticlistening_pa-pa.mp3	pa	pa	0	left
6.6.1	win	2023-07-17	15:51:16	0	0	5d24df75a80a600019d97b2e	1	1	DL_test	16	DL_test	25			0		da	1	1169	6	4	antiphase_hc_sio.wav	1	6	1	noise_calib_stim_LEFT.wav	1	2	blb_dichoticlistening_ba-da.mp3	ba	da	1	right
6.6.1	win	2023-07-17	15:51:16	0	0	5d24df75a80a600019d97b2e	1	1	DL_test	16	DL_test	26			0		ga	0	1243	6	4	antiphase_hc_sio.wav	1	6	1	noise_calib_stim_LEFT.wav	1	26	blb_dichoticlistening_pa-da.mp3	pa	da	1	other
6.6.1	win	2023-07-17	15:51:16	0	0	5d24df75a80a600019d97b2e	1	1	DL_test	16	DL_test	27			0		ga	1	843	6	4	antiphase_hc_sio.wav	1	6	1	noise_calib_stim_LEFT.wav	1	14	blb_dichoticlistening_ga-da.mp3	ga	da	1	left
6.6.1	win	2023-07-17	15:51:16	0	0	5d24df75a80a600019d97b2e	1	1	DL_test	16	DL_test	28			0		pa	0	683	6	4	antiphase_hc_sio.wav	1	6	1	noise_calib_stim_LEFT.wav	1	6	blb_dichoticlistening_ba-ta.mp3	ba	ta	1	other
6.6.1	win	2023-07-17	15:51:16	0	0	5d24df75a80a600019d97b2e	1	1	DL_test	16	DL_test	29			0		ga	1	1494	6	4	antiphase_hc_sio.wav	1	6	1	noise_calib_stim_LEFT.wav	1	17	blb_dichoticlistening_ga-pa.mp3	ga	pa	1	left
6.6.1	win	2023-07-17	15:51:16	0	0	5d24df75a80a600019d97b2e	1	1	DL_test	16	DL_test	30			0		ga	1	2329	6	4	antiphase_hc_sio.wav	1	6	1	noise_calib_stim_LEFT.wav	1	16	blb_dichoticlistening_ga-ka.mp3	ga	ka	1	left
6.6.1	win	2023-07-17	15:51:16	0	0	5d24df75a80a600019d97b2e	1	1	DL_test	16	DL_test	31			0		pa	1	954	6	4	antiphase_hc_sio.wav	1	6	1	noise_calib_stim_LEFT.wav	1	30	blb_dichoticlistening_pa-ta.mp3	pa	ta	1	left
6.6.1	win	2023-07-17	15:51:16	0	0	5d24df75a80a600019d97b2e	1	1	DL_test	16	DL_test	32			0		ka	1	1441	6	4	antiphase_hc_sio.wav	1	6	1	noise_calib_stim_LEFT.wav	1	28	blb_dichoticlistening_pa-ka.mp3	pa	ka	1	right
6.6.1	win	2023-07-17	15:51:16	0	0	5d24df75a80a600019d97b2e	1	1	DL_test	16	DL_test	33			0		ga	0	1291	6	4	antiphase_hc_sio.wav	1	6	1	noise_calib_stim_LEFT.wav	1	20	blb_dichoticlistening_ka-da.mp3	ka	da	1	other
6.6.1	win	2023-07-17	15:51:16	0	0	5d24df75a80a600019d97b2e	1	1	DL_test	16	DL_test	34			0		pa	0	825	6	4	antiphase_hc_sio.wav	1	6	1	noise_calib_stim_LEFT.wav	1	31	blb_dichoticlistening_ta-ba.mp3	ta	ba	1	other
6.6.1	win	2023-07-17	15:51:16	0	0	5d24df75a80a600019d97b2e	1	1	DL_test	16	DL_test	35			0		pa	0	1511	6	4	antiphase_hc_sio.wav	1	6	1	noise_calib_stim_LEFT.wav	1	4	blb_dichoticlistening_ba-ka.mp3	ba	ka	1	other
6.6.1	win	2023-07-17	15:51:16	0	0	5d24df75a80a600019d97b2e	1	1	DL_test	16	DL_test	36			0		ga	1	853	6	4	antiphase_hc_sio.wav	1	6	1	noise_calib_stim_LEFT.wav	1	33	blb_dichoticlistening_ta-ga.mp3	ta	ga	1	right
6.6.1	win	2023-07-17	15:51:16	16:10:09	1128461	5d24df75a80a600019d97b2e	1	1	practice_slash	22	practice_slash	1	stimuli_distractor_diamondtriangles.svg	stimuli_distractor_trianglediamonds.svg	14	no	53	0	1712	6	4	antiphase_hc_sio.wav	1	6	1	noise_calib_stim_LEFT.wav	1	33	blb_dichoticlistening_ta-ga.mp3	ta	ga	1	right
6.6.1	win	2023-07-17	15:51:16	16:10:09	1128461	5d24df75a80a600019d97b2e	1	1	practice_slash	22	advance_on_keypress_SLASH	2	stimuli_distractor_diamondtriangles.svg	stimuli_distractor_trianglediamonds.svg	14	no	57	0	714	6	4	antiphase_hc_sio.wav	1	6	1	noise_calib_stim_LEFT.wav	1	33	blb_dichoticlistening_ta-ga.mp3	ta	ga	1	right
6.6.1	win	2023-07-17	15:51:16	16:10:12	1131821	5d24df75a80a600019d97b2e	1	1	practice_slash	22	practice_slash	3	stimuli_distractor_diamondtriangles.svg	stimuli_target_diamondrectangles.svg	8	yes	53	1	990	6	4	antiphase_hc_sio.wav	1	6	1	noise_calib_stim_LEFT.wav	1	33	blb_dichoticlistening_ta-ga.mp3	ta	ga	1	right
6.6.1	win	2023-07-17	15:51:16	16:10:12	1131821	5d24df75a80a600019d97b2e	1	1	practice_slash	22	advance_on_keypress_SLASH	4	stimuli_distractor_diamondtriangles.svg	stimuli_target_diamondrectangles.svg	8	yes	57	0	1469	6	4	antiphase_hc_sio.wav	1	6	1	noise_calib_stim_LEFT.wav	1	33	blb_dichoticlistening_ta-ga.mp3	ta	ga	1	right
6.6.1	win	2023-07-17	15:51:16	16:10:18	1136932	5d24df75a80a600019d97b2e	1	1	practice_slash	22	practice_slash	5	stimuli_distractor_diamondtriangles.svg	stimuli_distractor_diamondtriangles.svg	13	no	0	1	2000	6	4	antiphase_hc_sio.wav	1	6	1	noise_calib_stim_LEFT.wav	1	33	blb_dichoticlistening_ta-ga.mp3	ta	ga	1	right
6.6.1	win	2023-07-17	15:51:16	16:10:18	1136932	5d24df75a80a600019d97b2e	1	1	practice_slash	22	advance_on_keypress_SLASH	6	stimuli_distractor_diamondtriangles.svg	stimuli_distractor_diamondtriangles.svg	13	no	57	0	1584	6	4	antiphase_hc_sio.wav	1	6	1	noise_calib_stim_LEFT.wav	1	33	blb_dichoticlistening_ta-ga.mp3	ta	ga	1	right
6.6.1	win	2023-07-17	15:51:16	16:10:22	1141308	5d24df75a80a600019d97b2e	1	1	practice_slash	22	practice_slash	7	stimuli_distractor_trianglediamonds.svg	stimuli_target_rectanglediamonds.svg	10	yes	53	1	1143	6	4	antiphase_hc_sio.wav	1	6	1	noise_calib_stim_LEFT.wav	1	33	blb_dichoticlistening_ta-ga.mp3	ta	ga	1	right
6.6.1	win	2023-07-17	15:51:16	16:10:22	1141308	5d24df75a80a600019d97b2e	1	1	practice_slash	22	advance_on_keypress_SLASH	8	stimuli_distractor_trianglediamonds.svg	stimuli_target_rectanglediamonds.svg	10	yes	57	0	1441	6	4	antiphase_hc_sio.wav	1	6	1	noise_calib_stim_LEFT.wav	1	33	blb_dichoticlistening_ta-ga.mp3	ta	ga	1	right
6.6.1	win	2023-07-17	15:51:16	16:10:26	1145436	5d24df75a80a600019d97b2e	1	1	practice_slash	22	practice_slash	9	stimuli_distractor_diamondtriangles.svg	stimuli_target_trianglerectangles.svg	9	yes	53	1	1055	6	4	antiphase_hc_sio.wav	1	6	1	noise_calib_stim_LEFT.wav	1	33	blb_dichoticlistening_ta-ga.mp3	ta	ga	1	right
6.6.1	win	2023-07-17	15:51:16	16:10:26	1145436	5d24df75a80a600019d97b2e	1	1	practice_slash	22	advance_on_keypress_SLASH	10	stimuli_distractor_diamondtriangles.svg	stimuli_target_trianglerectangles.svg	9	yes	57	0	942	6	4	antiphase_hc_sio.wav	1	6	1	noise_calib_stim_LEFT.wav	1	33	blb_dichoticlistening_ta-ga.mp3	ta	ga	1	right
6.6.1	win	2023-07-17	15:51:16	16:10:31	1150015	5d24df75a80a600019d97b2e	1	1	practice_slash	22	practice_slash	11	stimuli_distractor_trianglediamonds.svg	stimuli_distractor_trianglediamonds.svg	15	no	0	1	2000	6	4	antiphase_hc_sio.wav	1	6	1	noise_calib_stim_LEFT.wav	1	33	blb_dichoticlistening_ta-ga.mp3	ta	ga	1	right
6.6.1	win	2023-07-17	15:51:16	16:10:31	1150015	5d24df75a80a600019d97b2e	1	1	practice_slash	22	advance_on_keypress_SLASH	12	stimuli_distractor_trianglediamonds.svg	stimuli_distractor_trianglediamonds.svg	15	no	57	0	590	6	4	antiphase_hc_sio.wav	1	6	1	noise_calib_stim_LEFT.wav	1	33	blb_dichoticlistening_ta-ga.mp3	ta	ga	1	right
6.6.1	win	2023-07-17	15:51:16	16:10:34	1153140	5d24df75a80a600019d97b2e	1	1	practice_slash	22	practice_slash	13	stimuli_target_squarediamonds.svg	stimuli_distractor_diamondtriangles.svg	2	yes	53	1	892	6	4	antiphase_hc_sio.wav	1	6	1	noise_calib_stim_LEFT.wav	1	33	blb_dichoticlistening_ta-ga.mp3	ta	ga	1	right
6.6.1	win	2023-07-17	15:51:16	16:10:34	1153140	5d24df75a80a600019d97b2e	1	1	practice_slash	22	advance_on_keypress_SLASH	14	stimuli_target_squarediamonds.svg	stimuli_distractor_diamondtriangles.svg	2	yes	57	0	561	6	4	antiphase_hc_sio.wav	1	6	1	noise_calib_stim_LEFT.wav	1	33	blb_dichoticlistening_ta-ga.mp3	ta	ga	1	right
6.6.1	win	2023-07-17	15:51:16	16:10:37	1156380	5d24df75a80a600019d97b2e	1	1	practice_slash	22	practice_slash	15	stimuli_target_diamondsquares.svg	stimuli_distractor_trianglediamonds.svg	6	yes	53	1	1049	6	4	antiphase_hc_sio.wav	1	6	1	noise_calib_stim_LEFT.wav	1	33	blb_dichoticlistening_ta-ga.mp3	ta	ga	1	right
6.6.1	win	2023-07-17	15:51:16	16:10:37	1156380	5d24df75a80a600019d97b2e	1	1	practice_slash	22	advance_on_keypress_SLASH	16	stimuli_target_diamondsquares.svg	stimuli_distractor_trianglediamonds.svg	6	yes	57	0	678	6	4	antiphase_hc_sio.wav	1	6	1	noise_calib_stim_LEFT.wav	1	33	blb_dichoticlistening_ta-ga.mp3	ta	ga	1	right
6.6.1	win	2023-07-17	15:51:16	16:10:40	1159549	5d24df75a80a600019d97b2e	1	1	practice_slash	22	practice_slash	17	stimuli_target_rectanglediamonds.svg	stimuli_distractor_trianglediamonds.svg	4	yes	53	1	851	6	4	antiphase_hc_sio.wav	1	6	1	noise_calib_stim_LEFT.wav	1	33	blb_dichoticlistening_ta-ga.mp3	ta	ga	1	right
6.6.1	win	2023-07-17	15:51:16	16:10:40	1159549	5d24df75a80a600019d97b2e	1	1	practice_slash	22	advance_on_keypress_SLASH	18	stimuli_target_rectanglediamonds.svg	stimuli_distractor_trianglediamonds.svg	4	yes	57	0	512	6	4	antiphase_hc_sio.wav	1	6	1	noise_calib_stim_LEFT.wav	1	33	blb_dichoticlistening_ta-ga.mp3	ta	ga	1	right
6.6.1	win	2023-07-17	15:51:16	16:10:43	1162468	5d24df75a80a600019d97b2e	1	1	practice_slash	22	practice_slash	19	stimuli_distractor_diamondtriangles.svg	stimuli_target_rectangletriangles.svg	7	yes	53	1	753	6	4	antiphase_hc_sio.wav	1	6	1	noise_calib_stim_LEFT.wav	1	33	blb_dichoticlistening_ta-ga.mp3	ta	ga	1	right
6.6.1	win	2023-07-17	15:51:16	16:10:43	1162468	5d24df75a80a600019d97b2e	1	1	practice_slash	22	advance_on_keypress_SLASH	20	stimuli_distractor_diamondtriangles.svg	stimuli_target_rectangletriangles.svg	7	yes	57	0	499	6	4	antiphase_hc_sio.wav	1	6	1	noise_calib_stim_LEFT.wav	1	33	blb_dichoticlistening_ta-ga.mp3	ta	ga	1	right
6.6.1	win	2023-07-17	15:51:16	16:10:46	1165533	5d24df75a80a600019d97b2e	1	1	practice_slash	22	practice_slash	21	stimuli_target_squarediamonds.svg	stimuli_distractor_trianglediamonds.svg	5	yes	53	1	917	6	4	antiphase_hc_sio.wav	1	6	1	noise_calib_stim_LEFT.wav	1	33	blb_dichoticlistening_ta-ga.mp3	ta	ga	1	right
6.6.1	win	2023-07-17	15:51:16	16:10:46	1165533	5d24df75a80a600019d97b2e	1	1	practice_slash	22	advance_on_keypress_SLASH	22	stimuli_target_squarediamonds.svg	stimuli_distractor_trianglediamonds.svg	5	yes	57	0	368	6	4	antiphase_hc_sio.wav	1	6	1	noise_calib_stim_LEFT.wav	1	33	blb_dichoticlistening_ta-ga.mp3	ta	ga	1	right
6.6.1	win	2023-07-17	15:51:16	16:10:49	1168515	5d24df75a80a600019d97b2e	1	1	practice_slash	22	practice_slash	23	stimuli_distractor_trianglediamonds.svg	stimuli_target_squarediamonds.svg	11	yes	53	1	968	6	4	antiphase_hc_sio.wav	1	6	1	noise_calib_stim_LEFT.wav	1	33	blb_dichoticlistening_ta-ga.mp3	ta	ga	1	right
6.6.1	win	2023-07-17	15:51:16	16:10:49	1168515	5d24df75a80a600019d97b2e	1	1	practice_slash	22	advance_on_keypress_SLASH	24	stimuli_distractor_trianglediamonds.svg	stimuli_target_squarediamonds.svg	11	yes	57	0	289	6	4	antiphase_hc_sio.wav	1	6	1	noise_calib_stim_LEFT.wav	1	33	blb_dichoticlistening_ta-ga.mp3	ta	ga	1	right
6.6.1	win	2023-07-17	15:51:16	16:10:53	1172448	5d24df75a80a600019d97b2e	1	1	practice_slash	22	practice_slash	25	stimuli_target_diamondsquares.svg	stimuli_distractor_diamondtriangles.svg	3	yes	0	0	2000	6	4	antiphase_hc_sio.wav	1	6	1	noise_calib_stim_LEFT.wav	1	33	blb_dichoticlistening_ta-ga.mp3	ta	ga	1	right
6.6.1	win	2023-07-17	15:51:16	16:10:53	1172448	5d24df75a80a600019d97b2e	1	1	practice_slash	22	advance_on_keypress_SLASH	26	stimuli_target_diamondsquares.svg	stimuli_distractor_diamondtriangles.svg	3	yes	57	0	467	6	4	antiphase_hc_sio.wav	1	6	1	noise_calib_stim_LEFT.wav	1	33	blb_dichoticlistening_ta-ga.mp3	ta	ga	1	right
6.6.1	win	2023-07-17	15:51:16	16:10:56	1175461	5d24df75a80a600019d97b2e	1	1	practice_slash	22	practice_slash	27	stimuli_distractor_trianglediamonds.svg	stimuli_distractor_diamondtriangles.svg	16	no	53	0	896	6	4	antiphase_hc_sio.wav	1	6	1	noise_calib_stim_LEFT.wav	1	33	blb_dichoticlistening_ta-ga.mp3	ta	ga	1	right
6.6.1	win	2023-07-17	15:51:16	16:10:56	1175461	5d24df75a80a600019d97b2e	1	1	practice_slash	22	advance_on_keypress_SLASH	28	stimuli_distractor_trianglediamonds.svg	stimuli_distractor_diamondtriangles.svg	16	no	57	0	2307	6	4	antiphase_hc_sio.wav	1	6	1	noise_calib_stim_LEFT.wav	1	33	blb_dichoticlistening_ta-ga.mp3	ta	ga	1	right
6.6.1	win	2023-07-17	15:51:16	16:11:01	1180164	5d24df75a80a600019d97b2e	1	1	practice_slash	22	practice_slash	29	stimuli_distractor_trianglediamonds.svg	stimuli_target_diamondrectangles.svg	12	yes	53	1	749	6	4	antiphase_hc_sio.wav	1	6	1	noise_calib_stim_LEFT.wav	1	33	blb_dichoticlistening_ta-ga.mp3	ta	ga	1	right
6.6.1	win	2023-07-17	15:51:16	16:11:01	1180164	5d24df75a80a600019d97b2e	1	1	practice_slash	22	advance_on_keypress_SLASH	30	stimuli_distractor_trianglediamonds.svg	stimuli_target_diamondrectangles.svg	12	yes	57	0	544	6	4	antiphase_hc_sio.wav	1	6	1	noise_calib_stim_LEFT.wav	1	33	blb_dichoticlistening_ta-ga.mp3	ta	ga	1	right
6.6.1	win	2023-07-17	15:51:16	16:11:04	1183340	5d24df75a80a600019d97b2e	1	1	practice_slash	22	practice_slash	31	stimuli_target_rectanglediamonds.svg	stimuli_distractor_diamondtriangles.svg	1	yes	53	1	992	6	4	antiphase_hc_sio.wav	1	6	1	noise_calib_stim_LEFT.wav	1	33	blb_dichoticlistening_ta-ga.mp3	ta	ga	1	right
6.6.1	win	2023-07-17	15:51:16	16:11:04	1183340	5d24df75a80a600019d97b2e	1	1	practice_slash	22	advance_on_keypress_SLASH	32	stimuli_target_rectanglediamonds.svg	stimuli_distractor_diamondtriangles.svg	1	yes	57	0	457	6	4	antiphase_hc_sio.wav	1	6	1	noise_calib_stim_LEFT.wav	1	33	blb_dichoticlistening_ta-ga.mp3	ta	ga	1	right
6.6.1	win	2023-07-17	15:51:16	16:11:04	1183340	5d24df75a80a600019d97b2e	1	1	inst_11_SLASH_main1	23			stimuli_target_rectanglediamonds.svg	stimuli_distractor_diamondtriangles.svg	1	yes	Ctrl+'Q'			6	4	antiphase_hc_sio.wav	1	6	1	noise_calib_stim_LEFT.wav	1	33	blb_dichoticlistening_ta-ga.mp3	ta	ga	1	right