build	computer.platform	date	time	timestamp	time_elapsed_ms	subject	group	session	blockcode	blocknum	trialcode	trialnum	stimulus_left	stimulus_right	stim_index	target_present	response	correct	latency	headphonecheck_countTestTrials	headphonecheck_index	headphonecheck_testSound	headphonecheck_correctResponse	stereocheck_countTestTrials	stereocheck_index	stereocheck_testSound	stereocheck_correctResponse	DL_index	DL_soundfile	DL_leftSound	DL_rightSound	DL_dualSound	DL_choice
6.6.1	win	2023-07-12	21:26:36	0	0	5dded98ea4aa26f899702668	2	1	headphonecheck_calibration	4	headphonecheck_calibrationIntro	1			0		calibrationButton	0	14874	0	0			0	0			1				0	
6.6.1	win	2023-07-12	21:26:36	0	0	5dded98ea4aa26f899702668	2	1	headphonecheck_testphase	5	test_collectResponse	3			0		third	1	1120	1	2	antiphase_hc_ios.wav	3	0	0			1				0	
6.6.1	win	2023-07-12	21:26:36	0	0	5dded98ea4aa26f899702668	2	1	headphonecheck_testphase	5	test_collectResponse	6			0		first	0	851	2	6	antiphase_hc_ois.wav	3	0	0			1				0	
6.6.1	win	2023-07-12	21:26:36	0	0	5dded98ea4aa26f899702668	2	1	headphonecheck_testphase	5	test_collectResponse	9			0		third	0	370	3	5	antiphase_hc_osi.wav	2	0	0			1				0	
6.6.1	win	2023-07-12	21:26:36	0	0	5dded98ea4aa26f899702668	2	1	headphonecheck_testphase	5	test_collectResponse	12			0		first	1	6868	4	3	antiphase_hc_soi.wav	1	0	0			1				0	
6.6.1	win	2023-07-12	21:26:36	0	0	5dded98ea4aa26f899702668	2	1	headphonecheck_testphase	5	test_collectResponse	15			0		third	0	276	5	1	antiphase_hc_iso.wav	2	0	0			1				0	
6.6.1	win	2023-07-12	21:26:36	0	0	5dded98ea4aa26f899702668	2	1	headphonecheck_testphase	5	test_collectResponse	18			0		third	0	338	6	4	antiphase_hc_sio.wav	1	0	0			1				0	
6.6.1	win	2023-07-12	21:26:36	0	0	5dded98ea4aa26f899702668	2	1	stereocheck_calibration	7	stereocheck_calibrationIntro	1			0		stereocheck_calibrationButton	0	3780	6	4	antiphase_hc_sio.wav	1	0	0			1				0	
6.6.1	win	2023-07-12	21:26:36	0	0	5dded98ea4aa26f899702668	2	1	stereocheck_testphase	8	stereocheck_test_collectResponse	3			0		stereocheck_left	1	1023	6	4	antiphase_hc_sio.wav	1	1	3	noise_calib_stim_LEFT.wav	1	1				0	
6.6.1	win	2023-07-12	21:26:36	0	0	5dded98ea4aa26f899702668	2	1	stereocheck_testphase	8	stereocheck_test_collectResponse	6			0		stereocheck_left	1	435	6	4	antiphase_hc_sio.wav	1	2	1	noise_calib_stim_LEFT.wav	1	1				0	
6.6.1	win	2023-07-12	21:26:36	0	0	5dded98ea4aa26f899702668	2	1	stereocheck_testphase	8	stereocheck_test_collectResponse	9			0		stereocheck_right	1	765	6	4	antiphase_hc_sio.wav	1	3	6	noise_calib_stim_RIGHT.wav	2	1				0	
6.6.1	win	2023-07-12	21:26:36	0	0	5dded98ea4aa26f899702668	2	1	stereocheck_testphase	8	stereocheck_test_collectResponse	12			0		stereocheck_right	1	331	6	4	antiphase_hc_sio.wav	1	4	4	noise_calib_stim_RIGHT.wav	2	1				0	
6.6.1	win	2023-07-12	21:26:36	0	0	5dded98ea4aa26f899702668	2	1	stereocheck_testphase	8	stereocheck_test_collectResponse	15			0		stereocheck_left	1	359	6	4	antiphase_hc_sio.wav	1	5	2	noise_calib_stim_LEFT.wav	1	1				0	
6.6.1	win	2023-07-12	21:26:36	0	0	5dded98ea4aa26f899702668	2	1	stereocheck_testphase	8	stereocheck_test_collectResponse	18			0		stereocheck_right	1	429	6	4	antiphase_hc_sio.wav	1	6	5	noise_calib_stim_RIGHT.wav	2	1				0	
6.6.1	win	2023-07-12	21:26:36	0	0	5dded98ea4aa26f899702668	2	1	DL_practice	11	DL_practice	2			0		ga	1	1108	6	4	antiphase_hc_sio.wav	1	6	5	noise_calib_stim_RIGHT.wav	2	15	blb_dichoticlistening_ga-ga.mp3	ga	ga	0	left
6.6.1	win	2023-07-12	21:26:36	0	0	5dded98ea4aa26f899702668	2	1	DL_practice	11	DL_practice	3			0		ba	1	1554	6	4	antiphase_hc_sio.wav	1	6	5	noise_calib_stim_RIGHT.wav	2	1	blb_dichoticlistening_ba-ba.mp3	ba	ba	0	left
6.6.1	win	2023-07-12	21:26:36	0	0	5dded98ea4aa26f899702668	2	1	DL_practice	11	DL_practice	4			0		ka	1	921	6	4	antiphase_hc_sio.wav	1	6	5	noise_calib_stim_RIGHT.wav	2	22	blb_dichoticlistening_ka-ka.mp3	ka	ka	0	left
6.6.1	win	2023-07-12	21:26:36	0	0	5dded98ea4aa26f899702668	2	1	DL_practice	11	DL_practice	5			0		ga	1	1047	6	4	antiphase_hc_sio.wav	1	6	5	noise_calib_stim_RIGHT.wav	2	18	blb_dichoticlistening_ga-ta.mp3	ga	ta	1	left
6.6.1	win	2023-07-12	21:26:36	0	0	5dded98ea4aa26f899702668	2	1	DL_practice	11	DL_practice	6			0		pa	1	1091	6	4	antiphase_hc_sio.wav	1	6	5	noise_calib_stim_RIGHT.wav	2	29	blb_dichoticlistening_pa-pa.mp3	pa	pa	0	left
6.6.1	win	2023-07-12	21:26:36	0	0	5dded98ea4aa26f899702668	2	1	DL_practice	11	DL_practice	7			0		ka	1	1132	6	4	antiphase_hc_sio.wav	1	6	5	noise_calib_stim_RIGHT.wav	2	23	blb_dichoticlistening_ka-pa.mp3	ka	pa	1	left
6.6.1	win	2023-07-12	21:26:36	0	0	5dded98ea4aa26f899702668	2	1	DL_practice	11	DL_practice	8			0		ta	1	1188	6	4	antiphase_hc_sio.wav	1	6	5	noise_calib_stim_RIGHT.wav	2	36	blb_dichoticlistening_ta-ta.mp3	ta	ta	0	left
6.6.1	win	2023-07-12	21:26:36	0	0	5dded98ea4aa26f899702668	2	1	DL_practice	11	DL_practice	9			0		ba	1	1153	6	4	antiphase_hc_sio.wav	1	6	5	noise_calib_stim_RIGHT.wav	2	7	blb_dichoticlistening_da-ba.mp3	da	ba	1	right
6.6.1	win	2023-07-12	21:26:36	0	0	5dded98ea4aa26f899702668	2	1	DL_practice	11	DL_practice	10			0		da	1	1248	6	4	antiphase_hc_sio.wav	1	6	5	noise_calib_stim_RIGHT.wav	2	8	blb_dichoticlistening_da-da.mp3	da	da	0	left
6.6.1	win	2023-07-12	21:26:36	0	0	5dded98ea4aa26f899702668	2	1	DL_test	13	DL_test	1			0		ga	1	987	6	4	antiphase_hc_sio.wav	1	6	5	noise_calib_stim_RIGHT.wav	2	14	blb_dichoticlistening_ga-da.mp3	ga	da	1	left
6.6.1	win	2023-07-12	21:26:36	0	0	5dded98ea4aa26f899702668	2	1	DL_test	13	DL_test	2			0		ga	1	1331	6	4	antiphase_hc_sio.wav	1	6	5	noise_calib_stim_RIGHT.wav	2	33	blb_dichoticlistening_ta-ga.mp3	ta	ga	1	right
6.6.1	win	2023-07-12	21:26:36	0	0	5dded98ea4aa26f899702668	2	1	DL_test	13	DL_test	3			0		pa	1	1067	6	4	antiphase_hc_sio.wav	1	6	5	noise_calib_stim_RIGHT.wav	2	29	blb_dichoticlistening_pa-pa.mp3	pa	pa	0	left
6.6.1	win	2023-07-12	21:26:36	0	0	5dded98ea4aa26f899702668	2	1	DL_test	13	DL_test	4			0		pa	0	1681	6	4	antiphase_hc_sio.wav	1	6	5	noise_calib_stim_RIGHT.wav	2	6	blb_dichoticlistening_ba-ta.mp3	ba	ta	1	other
6.6.1	win	2023-07-12	21:26:36	0	0	5dded98ea4aa26f899702668	2	1	DL_test	13	DL_test	5			0		ba	1	1359	6	4	antiphase_hc_sio.wav	1	6	5	noise_calib_stim_RIGHT.wav	2	2	blb_dichoticlistening_ba-da.mp3	ba	da	1	left
6.6.1	win	2023-07-12	21:26:36	0	0	5dded98ea4aa26f899702668	2	1	DL_test	13	DL_test	6			0		ka	1	965	6	4	antiphase_hc_sio.wav	1	6	5	noise_calib_stim_RIGHT.wav	2	28	blb_dichoticlistening_pa-ka.mp3	pa	ka	1	right
6.6.1	win	2023-07-12	21:26:36	0	0	5dded98ea4aa26f899702668	2	1	DL_test	13	DL_test	7			0		ta	1	1049	6	4	antiphase_hc_sio.wav	1	6	5	noise_calib_stim_RIGHT.wav	2	30	blb_dichoticlistening_pa-ta.mp3	pa	ta	1	right
6.6.1	win	2023-07-12	21:26:36	0	0	5dded98ea4aa26f899702668	2	1	DL_test	13	DL_test	8			0		ga	1	1257	6	4	antiphase_hc_sio.wav	1	6	5	noise_calib_stim_RIGHT.wav	2	21	blb_dichoticlistening_ka-ga.mp3	ka	ga	1	right
6.6.1	win	2023-07-12	21:26:36	0	0	5dded98ea4aa26f899702668	2	1	DL_test	13	DL_test	9			0		da	1	1292	6	4	antiphase_hc_sio.wav	1	6	5	noise_calib_stim_RIGHT.wav	2	26	blb_dichoticlistening_pa-da.mp3	pa	da	1	right
6.6.1	win	2023-07-12	21:26:36	0	0	5dded98ea4aa26f899702668	2	1	DL_test	13	DL_test	10			0		pa	1	1853	6	4	antiphase_hc_sio.wav	1	6	5	noise_calib_stim_RIGHT.wav	2	5	blb_dichoticlistening_ba-pa.mp3	ba	pa	1	right
6.6.1	win	2023-07-12	21:26:36	0	0	5dded98ea4aa26f899702668	2	1	DL_test	13	DL_test	11			0		ba	1	1844	6	4	antiphase_hc_sio.wav	1	6	5	noise_calib_stim_RIGHT.wav	2	19	blb_dichoticlistening_ka-ba.mp3	ka	ba	1	right
6.6.1	win	2023-07-12	21:26:36	0	0	5dded98ea4aa26f899702668	2	1	DL_test	13	DL_test	12			0		ga	0	884	6	4	antiphase_hc_sio.wav	1	6	5	noise_calib_stim_RIGHT.wav	2	20	blb_dichoticlistening_ka-da.mp3	ka	da	1	other
6.6.1	win	2023-07-12	21:26:36	0	0	5dded98ea4aa26f899702668	2	1	DL_test	13	DL_test	13			0		da	1	1109	6	4	antiphase_hc_sio.wav	1	6	5	noise_calib_stim_RIGHT.wav	2	12	blb_dichoticlistening_da-ta.mp3	da	ta	1	left
6.6.1	win	2023-07-12	21:26:36	0	0	5dded98ea4aa26f899702668	2	1	DL_test	13	DL_test	14			0		da	1	1312	6	4	antiphase_hc_sio.wav	1	6	5	noise_calib_stim_RIGHT.wav	2	8	blb_dichoticlistening_da-da.mp3	da	da	0	left
6.6.1	win	2023-07-12	21:26:36	0	0	5dded98ea4aa26f899702668	2	1	DL_test	13	DL_test	15			0		pa	1	1831	6	4	antiphase_hc_sio.wav	1	6	5	noise_calib_stim_RIGHT.wav	2	11	blb_dichoticlistening_da-pa.mp3	da	pa	1	right
6.6.1	win	2023-07-12	21:26:36	0	0	5dded98ea4aa26f899702668	2	1	DL_test	13	DL_test	16			0		ba	1	1253	6	4	antiphase_hc_sio.wav	1	6	5	noise_calib_stim_RIGHT.wav	2	3	blb_dichoticlistening_ba-ga.mp3	ba	ga	1	left
6.6.1	win	2023-07-12	21:26:36	0	0	5dded98ea4aa26f899702668	2	1	DL_test	13	DL_test	17			0		da	1	1627	6	4	antiphase_hc_sio.wav	1	6	5	noise_calib_stim_RIGHT.wav	2	10	blb_dichoticlistening_da-ka.mp3	da	ka	1	left
6.6.1	win	2023-07-12	21:26:36	0	0	5dded98ea4aa26f899702668	2	1	DL_test	13	DL_test	18			0		ba	1	1309	6	4	antiphase_hc_sio.wav	1	6	5	noise_calib_stim_RIGHT.wav	2	31	blb_dichoticlistening_ta-ba.mp3	ta	ba	1	right
6.6.1	win	2023-07-12	21:26:36	0	0	5dded98ea4aa26f899702668	2	1	DL_test	13	DL_test	19			0		ta	1	1164	6	4	antiphase_hc_sio.wav	1	6	5	noise_calib_stim_RIGHT.wav	2	35	blb_dichoticlistening_ta-pa.mp3	ta	pa	1	left
6.6.1	win	2023-07-12	21:26:36	0	0	5dded98ea4aa26f899702668	2	1	DL_test	13	DL_test	20			0		ka	1	935	6	4	antiphase_hc_sio.wav	1	6	5	noise_calib_stim_RIGHT.wav	2	22	blb_dichoticlistening_ka-ka.mp3	ka	ka	0	left
6.6.1	win	2023-07-12	21:26:36	0	0	5dded98ea4aa26f899702668	2	1	DL_test	13	DL_test	21			0		ta	1	1327	6	4	antiphase_hc_sio.wav	1	6	5	noise_calib_stim_RIGHT.wav	2	36	blb_dichoticlistening_ta-ta.mp3	ta	ta	0	left
6.6.1	win	2023-07-12	21:26:36	0	0	5dded98ea4aa26f899702668	2	1	DL_test	13	DL_test	22			0		ba	1	1033	6	4	antiphase_hc_sio.wav	1	6	5	noise_calib_stim_RIGHT.wav	2	7	blb_dichoticlistening_da-ba.mp3	da	ba	1	right
6.6.1	win	2023-07-12	21:26:36	0	0	5dded98ea4aa26f899702668	2	1	DL_test	13	DL_test	23			0		ba	1	982	6	4	antiphase_hc_sio.wav	1	6	5	noise_calib_stim_RIGHT.wav	2	13	blb_dichoticlistening_ga-ba.mp3	ga	ba	1	right
6.6.1	win	2023-07-12	21:26:36	0	0	5dded98ea4aa26f899702668	2	1	DL_test	13	DL_test	24			0		ga	1	860	6	4	antiphase_hc_sio.wav	1	6	5	noise_calib_stim_RIGHT.wav	2	18	blb_dichoticlistening_ga-ta.mp3	ga	ta	1	left
6.6.1	win	2023-07-12	21:26:36	0	0	5dded98ea4aa26f899702668	2	1	DL_test	13	DL_test	25			0		da	1	1025	6	4	antiphase_hc_sio.wav	1	6	5	noise_calib_stim_RIGHT.wav	2	32	blb_dichoticlistening_ta-da.mp3	ta	da	1	right
6.6.1	win	2023-07-12	21:26:36	0	0	5dded98ea4aa26f899702668	2	1	DL_test	13	DL_test	26			0		ka	1	854	6	4	antiphase_hc_sio.wav	1	6	5	noise_calib_stim_RIGHT.wav	2	34	blb_dichoticlistening_ta-ka.mp3	ta	ka	1	right
6.6.1	win	2023-07-12	21:26:36	0	0	5dded98ea4aa26f899702668	2	1	DL_test	13	DL_test	27			0		ga	1	1071	6	4	antiphase_hc_sio.wav	1	6	5	noise_calib_stim_RIGHT.wav	2	16	blb_dichoticlistening_ga-ka.mp3	ga	ka	1	left
6.6.1	win	2023-07-12	21:26:36	0	0	5dded98ea4aa26f899702668	2	1	DL_test	13	DL_test	28			0		ka	1	991	6	4	antiphase_hc_sio.wav	1	6	5	noise_calib_stim_RIGHT.wav	2	23	blb_dichoticlistening_ka-pa.mp3	ka	pa	1	left
6.6.1	win	2023-07-12	21:26:36	0	0	5dded98ea4aa26f899702668	2	1	DL_test	13	DL_test	29			0		ga	1	1070	6	4	antiphase_hc_sio.wav	1	6	5	noise_calib_stim_RIGHT.wav	2	27	blb_dichoticlistening_pa-ga.mp3	pa	ga	1	right
6.6.1	win	2023-07-12	21:26:36	0	0	5dded98ea4aa26f899702668	2	1	DL_test	13	DL_test	30			0		ka	1	828	6	4	antiphase_hc_sio.wav	1	6	5	noise_calib_stim_RIGHT.wav	2	24	blb_dichoticlistening_ka-ta.mp3	ka	ta	1	left
6.6.1	win	2023-07-12	21:26:36	0	0	5dded98ea4aa26f899702668	2	1	DL_test	13	DL_test	31			0		ba	1	1582	6	4	antiphase_hc_sio.wav	1	6	5	noise_calib_stim_RIGHT.wav	2	4	blb_dichoticlistening_ba-ka.mp3	ba	ka	1	left
6.6.1	win	2023-07-12	21:26:36	0	0	5dded98ea4aa26f899702668	2	1	DL_test	13	DL_test	32			0		ga	1	967	6	4	antiphase_hc_sio.wav	1	6	5	noise_calib_stim_RIGHT.wav	2	15	blb_dichoticlistening_ga-ga.mp3	ga	ga	0	left
6.6.1	win	2023-07-12	21:26:36	0	0	5dded98ea4aa26f899702668	2	1	DL_test	13	DL_test	33			0		pa	1	1472	6	4	antiphase_hc_sio.wav	1	6	5	noise_calib_stim_RIGHT.wav	2	25	blb_dichoticlistening_pa-ba.mp3	pa	ba	1	left
6.6.1	win	2023-07-12	21:26:36	0	0	5dded98ea4aa26f899702668	2	1	DL_test	13	DL_test	34			0		ba	1	1409	6	4	antiphase_hc_sio.wav	1	6	5	noise_calib_stim_RIGHT.wav	2	1	blb_dichoticlistening_ba-ba.mp3	ba	ba	0	left
6.6.1	win	2023-07-12	21:26:36	0	0	5dded98ea4aa26f899702668	2	1	DL_test	13	DL_test	35			0		ga	1	1138	6	4	antiphase_hc_sio.wav	1	6	5	noise_calib_stim_RIGHT.wav	2	9	blb_dichoticlistening_da-ga.mp3	da	ga	1	right
6.6.1	win	2023-07-12	21:26:36	0	0	5dded98ea4aa26f899702668	2	1	DL_test	13	DL_test	36			0		ga	1	1291	6	4	antiphase_hc_sio.wav	1	6	5	noise_calib_stim_RIGHT.wav	2	17	blb_dichoticlistening_ga-pa.mp3	ga	pa	1	left
6.6.1	win	2023-07-12	21:26:36	0	0	5dded98ea4aa26f899702668	2	1	DL_test	14	DL_test	1			0		ta	1	1489	6	4	antiphase_hc_sio.wav	1	6	5	noise_calib_stim_RIGHT.wav	2	30	blb_dichoticlistening_pa-ta.mp3	pa	ta	1	right
6.6.1	win	2023-07-12	21:26:36	0	0	5dded98ea4aa26f899702668	2	1	DL_test	14	DL_test	2			0		ga	0	949	6	4	antiphase_hc_sio.wav	1	6	5	noise_calib_stim_RIGHT.wav	2	20	blb_dichoticlistening_ka-da.mp3	ka	da	1	other
6.6.1	win	2023-07-12	21:26:36	0	0	5dded98ea4aa26f899702668	2	1	DL_test	14	DL_test	3			0		ga	1	906	6	4	antiphase_hc_sio.wav	1	6	5	noise_calib_stim_RIGHT.wav	2	27	blb_dichoticlistening_pa-ga.mp3	pa	ga	1	right
6.6.1	win	2023-07-12	21:26:36	0	0	5dded98ea4aa26f899702668	2	1	DL_test	14	DL_test	4			0		da	1	1406	6	4	antiphase_hc_sio.wav	1	6	5	noise_calib_stim_RIGHT.wav	2	11	blb_dichoticlistening_da-pa.mp3	da	pa	1	left
6.6.1	win	2023-07-12	21:26:36	0	0	5dded98ea4aa26f899702668	2	1	DL_test	14	DL_test	5			0		ga	1	1133	6	4	antiphase_hc_sio.wav	1	6	5	noise_calib_stim_RIGHT.wav	2	9	blb_dichoticlistening_da-ga.mp3	da	ga	1	right
6.6.1	win	2023-07-12	21:26:36	0	0	5dded98ea4aa26f899702668	2	1	DL_test	14	DL_test	6			0		da	1	1183	6	4	antiphase_hc_sio.wav	1	6	5	noise_calib_stim_RIGHT.wav	2	12	blb_dichoticlistening_da-ta.mp3	da	ta	1	left
6.6.1	win	2023-07-12	21:26:36	0	0	5dded98ea4aa26f899702668	2	1	DL_test	14	DL_test	7			0		ka	1	985	6	4	antiphase_hc_sio.wav	1	6	5	noise_calib_stim_RIGHT.wav	2	24	blb_dichoticlistening_ka-ta.mp3	ka	ta	1	left
6.6.1	win	2023-07-12	21:26:36	0	0	5dded98ea4aa26f899702668	2	1	DL_test	14	DL_test	8			0		ka	1	856	6	4	antiphase_hc_sio.wav	1	6	5	noise_calib_stim_RIGHT.wav	2	22	blb_dichoticlistening_ka-ka.mp3	ka	ka	0	left
6.6.1	win	2023-07-12	21:26:36	0	0	5dded98ea4aa26f899702668	2	1	DL_test	14	DL_test	9			0		pa	1	2009	6	4	antiphase_hc_sio.wav	1	6	5	noise_calib_stim_RIGHT.wav	2	5	blb_dichoticlistening_ba-pa.mp3	ba	pa	1	right
6.6.1	win	2023-07-12	21:26:36	0	0	5dded98ea4aa26f899702668	2	1	DL_test	14	DL_test	10			0		pa	0	1517	6	4	antiphase_hc_sio.wav	1	6	5	noise_calib_stim_RIGHT.wav	2	19	blb_dichoticlistening_ka-ba.mp3	ka	ba	1	other
6.6.1	win	2023-07-12	21:26:36	0	0	5dded98ea4aa26f899702668	2	1	DL_test	14	DL_test	11			0		ka	1	918	6	4	antiphase_hc_sio.wav	1	6	5	noise_calib_stim_RIGHT.wav	2	28	blb_dichoticlistening_pa-ka.mp3	pa	ka	1	right
6.6.1	win	2023-07-12	21:26:36	0	0	5dded98ea4aa26f899702668	2	1	DL_test	14	DL_test	12			0		ga	1	1153	6	4	antiphase_hc_sio.wav	1	6	5	noise_calib_stim_RIGHT.wav	2	17	blb_dichoticlistening_ga-pa.mp3	ga	pa	1	left
6.6.1	win	2023-07-12	21:26:36	0	0	5dded98ea4aa26f899702668	2	1	DL_test	14	DL_test	13			0		ga	1	999	6	4	antiphase_hc_sio.wav	1	6	5	noise_calib_stim_RIGHT.wav	2	33	blb_dichoticlistening_ta-ga.mp3	ta	ga	1	right
6.6.1	win	2023-07-12	21:26:36	0	0	5dded98ea4aa26f899702668	2	1	DL_test	14	DL_test	14			0		ba	1	952	6	4	antiphase_hc_sio.wav	1	6	5	noise_calib_stim_RIGHT.wav	2	7	blb_dichoticlistening_da-ba.mp3	da	ba	1	right
6.6.1	win	2023-07-12	21:26:36	0	0	5dded98ea4aa26f899702668	2	1	DL_test	14	DL_test	15			0		ba	1	997	6	4	antiphase_hc_sio.wav	1	6	5	noise_calib_stim_RIGHT.wav	2	3	blb_dichoticlistening_ba-ga.mp3	ba	ga	1	left
6.6.1	win	2023-07-12	21:26:36	0	0	5dded98ea4aa26f899702668	2	1	DL_test	14	DL_test	16			0		da	1	950	6	4	antiphase_hc_sio.wav	1	6	5	noise_calib_stim_RIGHT.wav	2	26	blb_dichoticlistening_pa-da.mp3	pa	da	1	right
6.6.1	win	2023-07-12	21:26:36	0	0	5dded98ea4aa26f899702668	2	1	DL_test	14	DL_test	17			0		ga	1	966	6	4	antiphase_hc_sio.wav	1	6	5	noise_calib_stim_RIGHT.wav	2	21	blb_dichoticlistening_ka-ga.mp3	ka	ga	1	right
6.6.1	win	2023-07-12	21:26:36	0	0	5dded98ea4aa26f899702668	2	1	DL_test	14	DL_test	18			0		ta	1	1551	6	4	antiphase_hc_sio.wav	1	6	5	noise_calib_stim_RIGHT.wav	2	36	blb_dichoticlistening_ta-ta.mp3	ta	ta	0	left
6.6.1	win	2023-07-12	21:26:36	0	0	5dded98ea4aa26f899702668	2	1	DL_test	14	DL_test	19			0		ka	1	1037	6	4	antiphase_hc_sio.wav	1	6	5	noise_calib_stim_RIGHT.wav	2	4	blb_dichoticlistening_ba-ka.mp3	ba	ka	1	right
6.6.1	win	2023-07-12	21:26:36	0	0	5dded98ea4aa26f899702668	2	1	DL_test	14	DL_test	20			0		ga	1	882	6	4	antiphase_hc_sio.wav	1	6	5	noise_calib_stim_RIGHT.wav	2	15	blb_dichoticlistening_ga-ga.mp3	ga	ga	0	left
6.6.1	win	2023-07-12	21:26:36	0	0	5dded98ea4aa26f899702668	2	1	DL_test	14	DL_test	21			0		ka	1	967	6	4	antiphase_hc_sio.wav	1	6	5	noise_calib_stim_RIGHT.wav	2	34	blb_dichoticlistening_ta-ka.mp3	ta	ka	1	right
6.6.1	win	2023-07-12	21:26:36	0	0	5dded98ea4aa26f899702668	2	1	DL_test	14	DL_test	22			0		ta	1	1389	6	4	antiphase_hc_sio.wav	1	6	5	noise_calib_stim_RIGHT.wav	2	35	blb_dichoticlistening_ta-pa.mp3	ta	pa	1	left
6.6.1	win	2023-07-12	21:26:36	0	0	5dded98ea4aa26f899702668	2	1	DL_test	14	DL_test	23			0		da	1	1049	6	4	antiphase_hc_sio.wav	1	6	5	noise_calib_stim_RIGHT.wav	2	8	blb_dichoticlistening_da-da.mp3	da	da	0	left
6.6.1	win	2023-07-12	21:26:36	0	0	5dded98ea4aa26f899702668	2	1	DL_test	14	DL_test	24			0		pa	0	1675	6	4	antiphase_hc_sio.wav	1	6	5	noise_calib_stim_RIGHT.wav	2	10	blb_dichoticlistening_da-ka.mp3	da	ka	1	other
6.6.1	win	2023-07-12	21:26:36	0	0	5dded98ea4aa26f899702668	2	1	DL_test	14	DL_test	25			0		ga	1	1037	6	4	antiphase_hc_sio.wav	1	6	5	noise_calib_stim_RIGHT.wav	2	18	blb_dichoticlistening_ga-ta.mp3	ga	ta	1	left
6.6.1	win	2023-07-12	21:26:36	0	0	5dded98ea4aa26f899702668	2	1	DL_test	14	DL_test	26			0		ta	1	1655	6	4	antiphase_hc_sio.wav	1	6	5	noise_calib_stim_RIGHT.wav	2	6	blb_dichoticlistening_ba-ta.mp3	ba	ta	1	right
6.6.1	win	2023-07-12	21:26:36	0	0	5dded98ea4aa26f899702668	2	1	DL_test	14	DL_test	27			0		ka	1	978	6	4	antiphase_hc_sio.wav	1	6	5	noise_calib_stim_RIGHT.wav	2	23	blb_dichoticlistening_ka-pa.mp3	ka	pa	1	left
6.6.1	win	2023-07-12	21:26:36	0	0	5dded98ea4aa26f899702668	2	1	DL_test	14	DL_test	28			0		ba	1	1217	6	4	antiphase_hc_sio.wav	1	6	5	noise_calib_stim_RIGHT.wav	2	2	blb_dichoticlistening_ba-da.mp3	ba	da	1	left
6.6.1	win	2023-07-12	21:26:36	0	0	5dded98ea4aa26f899702668	2	1	DL_test	14	DL_test	29			0		pa	1	1339	6	4	antiphase_hc_sio.wav	1	6	5	noise_calib_stim_RIGHT.wav	2	29	blb_dichoticlistening_pa-pa.mp3	pa	pa	0	left
6.6.1	win	2023-07-12	21:26:36	0	0	5dded98ea4aa26f899702668	2	1	DL_test	14	DL_test	30			0		ga	1	937	6	4	antiphase_hc_sio.wav	1	6	5	noise_calib_stim_RIGHT.wav	2	14	blb_dichoticlistening_ga-da.mp3	ga	da	1	left
6.6.1	win	2023-07-12	21:26:36	0	0	5dded98ea4aa26f899702668	2	1	DL_test	14	DL_test	31			0		da	1	952	6	4	antiphase_hc_sio.wav	1	6	5	noise_calib_stim_RIGHT.wav	2	32	blb_dichoticlistening_ta-da.mp3	ta	da	1	right
6.6.1	win	2023-07-12	21:26:36	0	0	5dded98ea4aa26f899702668	2	1	DL_test	14	DL_test	32			0		ga	1	1138	6	4	antiphase_hc_sio.wav	1	6	5	noise_calib_stim_RIGHT.wav	2	16	blb_dichoticlistening_ga-ka.mp3	ga	ka	1	left
6.6.1	win	2023-07-12	21:26:36	0	0	5dded98ea4aa26f899702668	2	1	DL_test	14	DL_test	33			0		ba	1	1217	6	4	antiphase_hc_sio.wav	1	6	5	noise_calib_stim_RIGHT.wav	2	13	blb_dichoticlistening_ga-ba.mp3	ga	ba	1	right
6.6.1	win	2023-07-12	21:26:36	0	0	5dded98ea4aa26f899702668	2	1	DL_test	14	DL_test	34			0		ba	1	1301	6	4	antiphase_hc_sio.wav	1	6	5	noise_calib_stim_RIGHT.wav	2	1	blb_dichoticlistening_ba-ba.mp3	ba	ba	0	left
6.6.1	win	2023-07-12	21:26:36	0	0	5dded98ea4aa26f899702668	2	1	DL_test	14	DL_test	35			0		pa	1	1132	6	4	antiphase_hc_sio.wav	1	6	5	noise_calib_stim_RIGHT.wav	2	25	blb_dichoticlistening_pa-ba.mp3	pa	ba	1	left
6.6.1	win	2023-07-12	21:26:36	0	0	5dded98ea4aa26f899702668	2	1	DL_test	14	DL_test	36			0		pa	0	1189	6	4	antiphase_hc_sio.wav	1	6	5	noise_calib_stim_RIGHT.wav	2	31	blb_dichoticlistening_ta-ba.mp3	ta	ba	1	other
6.6.1	win	2023-07-12	21:26:36	0	0	5dded98ea4aa26f899702668	2	1	DL_test	15	DL_test	1			0		ga	1	1066	6	4	antiphase_hc_sio.wav	1	6	5	noise_calib_stim_RIGHT.wav	2	16	blb_dichoticlistening_ga-ka.mp3	ga	ka	1	left
6.6.1	win	2023-07-12	21:26:36	0	0	5dded98ea4aa26f899702668	2	1	DL_test	15	DL_test	2			0		da	1	1421	6	4	antiphase_hc_sio.wav	1	6	5	noise_calib_stim_RIGHT.wav	2	12	blb_dichoticlistening_da-ta.mp3	da	ta	1	left
6.6.1	win	2023-07-12	21:26:36	0	0	5dded98ea4aa26f899702668	2	1	DL_test	15	DL_test	3			0		da	1	1385	6	4	antiphase_hc_sio.wav	1	6	5	noise_calib_stim_RIGHT.wav	2	32	blb_dichoticlistening_ta-da.mp3	ta	da	1	right
6.6.1	win	2023-07-12	21:26:36	0	0	5dded98ea4aa26f899702668	2	1	DL_test	15	DL_test	4			0		ka	1	1258	6	4	antiphase_hc_sio.wav	1	6	5	noise_calib_stim_RIGHT.wav	2	24	blb_dichoticlistening_ka-ta.mp3	ka	ta	1	left
6.6.1	win	2023-07-12	21:26:36	0	0	5dded98ea4aa26f899702668	2	1	DL_test	15	DL_test	5			0		ga	1	1087	6	4	antiphase_hc_sio.wav	1	6	5	noise_calib_stim_RIGHT.wav	2	33	blb_dichoticlistening_ta-ga.mp3	ta	ga	1	right
6.6.1	win	2023-07-12	21:26:36	0	0	5dded98ea4aa26f899702668	2	1	DL_test	15	DL_test	6			0		ba	1	1458	6	4	antiphase_hc_sio.wav	1	6	5	noise_calib_stim_RIGHT.wav	2	3	blb_dichoticlistening_ba-ga.mp3	ba	ga	1	left
6.6.1	win	2023-07-12	21:26:36	0	0	5dded98ea4aa26f899702668	2	1	DL_test	15	DL_test	7			0		ta	1	1578	6	4	antiphase_hc_sio.wav	1	6	5	noise_calib_stim_RIGHT.wav	2	36	blb_dichoticlistening_ta-ta.mp3	ta	ta	0	left
6.6.1	win	2023-07-12	21:26:36	0	0	5dded98ea4aa26f899702668	2	1	DL_test	15	DL_test	8			0		da	1	1213	6	4	antiphase_hc_sio.wav	1	6	5	noise_calib_stim_RIGHT.wav	2	11	blb_dichoticlistening_da-pa.mp3	da	pa	1	left
6.6.1	win	2023-07-12	21:26:36	0	0	5dded98ea4aa26f899702668	2	1	DL_test	15	DL_test	9			0		ga	1	949	6	4	antiphase_hc_sio.wav	1	6	5	noise_calib_stim_RIGHT.wav	2	27	blb_dichoticlistening_pa-ga.mp3	pa	ga	1	right
6.6.1	win	2023-07-12	21:26:36	0	0	5dded98ea4aa26f899702668	2	1	DL_test	15	DL_test	10			0		ga	1	731	6	4	antiphase_hc_sio.wav	1	6	5	noise_calib_stim_RIGHT.wav	2	21	blb_dichoticlistening_ka-ga.mp3	ka	ga	1	right
6.6.1	win	2023-07-12	21:26:36	0	0	5dded98ea4aa26f899702668	2	1	DL_test	15	DL_test	11			0		ga	1	806	6	4	antiphase_hc_sio.wav	1	6	5	noise_calib_stim_RIGHT.wav	2	9	blb_dichoticlistening_da-ga.mp3	da	ga	1	right
6.6.1	win	2023-07-12	21:26:36	0	0	5dded98ea4aa26f899702668	2	1	DL_test	15	DL_test	12			0		ga	1	777	6	4	antiphase_hc_sio.wav	1	6	5	noise_calib_stim_RIGHT.wav	2	17	blb_dichoticlistening_ga-pa.mp3	ga	pa	1	left
6.6.1	win	2023-07-12	21:26:36	0	0	5dded98ea4aa26f899702668	2	1	DL_test	15	DL_test	13			0		pa	1	1091	6	4	antiphase_hc_sio.wav	1	6	5	noise_calib_stim_RIGHT.wav	2	29	blb_dichoticlistening_pa-pa.mp3	pa	pa	0	left
6.6.1	win	2023-07-12	21:26:36	0	0	5dded98ea4aa26f899702668	2	1	DL_test	15	DL_test	14			0		ga	1	1337	6	4	antiphase_hc_sio.wav	1	6	5	noise_calib_stim_RIGHT.wav	2	15	blb_dichoticlistening_ga-ga.mp3	ga	ga	0	left
6.6.1	win	2023-07-12	21:26:36	0	0	5dded98ea4aa26f899702668	2	1	DL_test	15	DL_test	15			0		da	1	986	6	4	antiphase_hc_sio.wav	1	6	5	noise_calib_stim_RIGHT.wav	2	10	blb_dichoticlistening_da-ka.mp3	da	ka	1	left
6.6.1	win	2023-07-12	21:26:36	0	0	5dded98ea4aa26f899702668	2	1	DL_test	15	DL_test	16			0		ka	1	946	6	4	antiphase_hc_sio.wav	1	6	5	noise_calib_stim_RIGHT.wav	2	22	blb_dichoticlistening_ka-ka.mp3	ka	ka	0	left
6.6.1	win	2023-07-12	21:26:36	0	0	5dded98ea4aa26f899702668	2	1	DL_test	15	DL_test	17			0		ba	1	1447	6	4	antiphase_hc_sio.wav	1	6	5	noise_calib_stim_RIGHT.wav	2	13	blb_dichoticlistening_ga-ba.mp3	ga	ba	1	right
6.6.1	win	2023-07-12	21:26:36	0	0	5dded98ea4aa26f899702668	2	1	DL_test	15	DL_test	18			0		ka	1	1316	6	4	antiphase_hc_sio.wav	1	6	5	noise_calib_stim_RIGHT.wav	2	20	blb_dichoticlistening_ka-da.mp3	ka	da	1	left
6.6.1	win	2023-07-12	21:26:36	0	0	5dded98ea4aa26f899702668	2	1	DL_test	15	DL_test	19			0		ka	1	853	6	4	antiphase_hc_sio.wav	1	6	5	noise_calib_stim_RIGHT.wav	2	28	blb_dichoticlistening_pa-ka.mp3	pa	ka	1	right
6.6.1	win	2023-07-12	21:26:36	0	0	5dded98ea4aa26f899702668	2	1	DL_test	15	DL_test	20			0		ta	1	2080	6	4	antiphase_hc_sio.wav	1	6	5	noise_calib_stim_RIGHT.wav	2	35	blb_dichoticlistening_ta-pa.mp3	ta	pa	1	left
6.6.1	win	2023-07-12	21:26:36	0	0	5dded98ea4aa26f899702668	2	1	DL_test	15	DL_test	21			0		ba	1	994	6	4	antiphase_hc_sio.wav	1	6	5	noise_calib_stim_RIGHT.wav	2	2	blb_dichoticlistening_ba-da.mp3	ba	da	1	left
6.6.1	win	2023-07-12	21:26:36	0	0	5dded98ea4aa26f899702668	2	1	DL_test	15	DL_test	22			0		ga	1	1160	6	4	antiphase_hc_sio.wav	1	6	5	noise_calib_stim_RIGHT.wav	2	14	blb_dichoticlistening_ga-da.mp3	ga	da	1	left
6.6.1	win	2023-07-12	21:26:36	0	0	5dded98ea4aa26f899702668	2	1	DL_test	15	DL_test	23			0		ka	1	1402	6	4	antiphase_hc_sio.wav	1	6	5	noise_calib_stim_RIGHT.wav	2	4	blb_dichoticlistening_ba-ka.mp3	ba	ka	1	right
6.6.1	win	2023-07-12	21:26:36	0	0	5dded98ea4aa26f899702668	2	1	DL_test	15	DL_test	24			0		ba	1	1196	6	4	antiphase_hc_sio.wav	1	6	5	noise_calib_stim_RIGHT.wav	2	1	blb_dichoticlistening_ba-ba.mp3	ba	ba	0	left
6.6.1	win	2023-07-12	21:26:36	0	0	5dded98ea4aa26f899702668	2	1	DL_test	15	DL_test	25			0		ta	1	1352	6	4	antiphase_hc_sio.wav	1	6	5	noise_calib_stim_RIGHT.wav	2	6	blb_dichoticlistening_ba-ta.mp3	ba	ta	1	right
6.6.1	win	2023-07-12	21:26:36	0	0	5dded98ea4aa26f899702668	2	1	DL_test	15	DL_test	26			0		pa	1	1422	6	4	antiphase_hc_sio.wav	1	6	5	noise_calib_stim_RIGHT.wav	2	5	blb_dichoticlistening_ba-pa.mp3	ba	pa	1	right
6.6.1	win	2023-07-12	21:26:36	0	0	5dded98ea4aa26f899702668	2	1	DL_test	15	DL_test	27			0		ga	0	1217	6	4	antiphase_hc_sio.wav	1	6	5	noise_calib_stim_RIGHT.wav	2	26	blb_dichoticlistening_pa-da.mp3	pa	da	1	other
6.6.1	win	2023-07-12	21:26:36	0	0	5dded98ea4aa26f899702668	2	1	DL_test	15	DL_test	28			0		da	1	1455	6	4	antiphase_hc_sio.wav	1	6	5	noise_calib_stim_RIGHT.wav	2	8	blb_dichoticlistening_da-da.mp3	da	da	0	left
6.6.1	win	2023-07-12	21:26:36	0	0	5dded98ea4aa26f899702668	2	1	DL_test	15	DL_test	29			0		ka	1	950	6	4	antiphase_hc_sio.wav	1	6	5	noise_calib_stim_RIGHT.wav	2	23	blb_dichoticlistening_ka-pa.mp3	ka	pa	1	left
6.6.1	win	2023-07-12	21:26:36	0	0	5dded98ea4aa26f899702668	2	1	DL_test	15	DL_test	30			0		ba	1	1305	6	4	antiphase_hc_sio.wav	1	6	5	noise_calib_stim_RIGHT.wav	2	31	blb_dichoticlistening_ta-ba.mp3	ta	ba	1	right
6.6.1	win	2023-07-12	21:26:36	0	0	5dded98ea4aa26f899702668	2	1	DL_test	15	DL_test	31			0		ba	1	1386	6	4	antiphase_hc_sio.wav	1	6	5	noise_calib_stim_RIGHT.wav	2	25	blb_dichoticlistening_pa-ba.mp3	pa	ba	1	right
6.6.1	win	2023-07-12	21:26:36	0	0	5dded98ea4aa26f899702668	2	1	DL_test	15	DL_test	32			0		ba	1	1481	6	4	antiphase_hc_sio.wav	1	6	5	noise_calib_stim_RIGHT.wav	2	7	blb_dichoticlistening_da-ba.mp3	da	ba	1	right
6.6.1	win	2023-07-12	21:26:36	0	0	5dded98ea4aa26f899702668	2	1	DL_test	15	DL_test	33			0		ta	1	1271	6	4	antiphase_hc_sio.wav	1	6	5	noise_calib_stim_RIGHT.wav	2	30	blb_dichoticlistening_pa-ta.mp3	pa	ta	1	right
6.6.1	win	2023-07-12	21:26:36	0	0	5dded98ea4aa26f899702668	2	1	DL_test	15	DL_test	34			0		ka	1	932	6	4	antiphase_hc_sio.wav	1	6	5	noise_calib_stim_RIGHT.wav	2	34	blb_dichoticlistening_ta-ka.mp3	ta	ka	1	right
6.6.1	win	2023-07-12	21:26:36	0	0	5dded98ea4aa26f899702668	2	1	DL_test	15	DL_test	35			0		ka	1	1278	6	4	antiphase_hc_sio.wav	1	6	5	noise_calib_stim_RIGHT.wav	2	19	blb_dichoticlistening_ka-ba.mp3	ka	ba	1	left
6.6.1	win	2023-07-12	21:26:36	0	0	5dded98ea4aa26f899702668	2	1	DL_test	15	DL_test	36			0		ga	1	879	6	4	antiphase_hc_sio.wav	1	6	5	noise_calib_stim_RIGHT.wav	2	18	blb_dichoticlistening_ga-ta.mp3	ga	ta	1	left
6.6.1	win	2023-07-12	21:26:36	0	0	5dded98ea4aa26f899702668	2	1	DL_test	16	DL_test	1			0		ba	1	1833	6	4	antiphase_hc_sio.wav	1	6	5	noise_calib_stim_RIGHT.wav	2	31	blb_dichoticlistening_ta-ba.mp3	ta	ba	1	right
6.6.1	win	2023-07-12	21:26:36	0	0	5dded98ea4aa26f899702668	2	1	DL_test	16	DL_test	2			0		ta	1	1032	6	4	antiphase_hc_sio.wav	1	6	5	noise_calib_stim_RIGHT.wav	2	36	blb_dichoticlistening_ta-ta.mp3	ta	ta	0	left
6.6.1	win	2023-07-12	21:26:36	0	0	5dded98ea4aa26f899702668	2	1	DL_test	16	DL_test	3			0		ga	1	936	6	4	antiphase_hc_sio.wav	1	6	5	noise_calib_stim_RIGHT.wav	2	33	blb_dichoticlistening_ta-ga.mp3	ta	ga	1	right
6.6.1	win	2023-07-12	21:26:36	0	0	5dded98ea4aa26f899702668	2	1	DL_test	16	DL_test	4			0		ba	1	1519	6	4	antiphase_hc_sio.wav	1	6	5	noise_calib_stim_RIGHT.wav	2	1	blb_dichoticlistening_ba-ba.mp3	ba	ba	0	left
6.6.1	win	2023-07-12	21:26:36	0	0	5dded98ea4aa26f899702668	2	1	DL_test	16	DL_test	5			0		ga	1	1127	6	4	antiphase_hc_sio.wav	1	6	5	noise_calib_stim_RIGHT.wav	2	3	blb_dichoticlistening_ba-ga.mp3	ba	ga	1	right
6.6.1	win	2023-07-12	21:26:36	0	0	5dded98ea4aa26f899702668	2	1	DL_test	16	DL_test	6			0		ga	1	1111	6	4	antiphase_hc_sio.wav	1	6	5	noise_calib_stim_RIGHT.wav	2	14	blb_dichoticlistening_ga-da.mp3	ga	da	1	left
6.6.1	win	2023-07-12	21:26:36	0	0	5dded98ea4aa26f899702668	2	1	DL_test	16	DL_test	7			0		ka	1	1107	6	4	antiphase_hc_sio.wav	1	6	5	noise_calib_stim_RIGHT.wav	2	21	blb_dichoticlistening_ka-ga.mp3	ka	ga	1	left
6.6.1	win	2023-07-12	21:26:36	0	0	5dded98ea4aa26f899702668	2	1	DL_test	16	DL_test	8			0		ba	1	1244	6	4	antiphase_hc_sio.wav	1	6	5	noise_calib_stim_RIGHT.wav	2	13	blb_dichoticlistening_ga-ba.mp3	ga	ba	1	right
6.6.1	win	2023-07-12	21:26:36	0	0	5dded98ea4aa26f899702668	2	1	DL_test	16	DL_test	9			0		pa	1	1356	6	4	antiphase_hc_sio.wav	1	6	5	noise_calib_stim_RIGHT.wav	2	29	blb_dichoticlistening_pa-pa.mp3	pa	pa	0	left
6.6.1	win	2023-07-12	21:26:36	0	0	5dded98ea4aa26f899702668	2	1	DL_test	16	DL_test	10			0		ga	1	912	6	4	antiphase_hc_sio.wav	1	6	5	noise_calib_stim_RIGHT.wav	2	15	blb_dichoticlistening_ga-ga.mp3	ga	ga	0	left
6.6.1	win	2023-07-12	21:26:36	0	0	5dded98ea4aa26f899702668	2	1	DL_test	16	DL_test	11			0		ga	0	1148	6	4	antiphase_hc_sio.wav	1	6	5	noise_calib_stim_RIGHT.wav	2	20	blb_dichoticlistening_ka-da.mp3	ka	da	1	other
6.6.1	win	2023-07-12	21:26:36	0	0	5dded98ea4aa26f899702668	2	1	DL_test	16	DL_test	12			0		da	1	1014	6	4	antiphase_hc_sio.wav	1	6	5	noise_calib_stim_RIGHT.wav	2	26	blb_dichoticlistening_pa-da.mp3	pa	da	1	right
6.6.1	win	2023-07-12	21:26:36	0	0	5dded98ea4aa26f899702668	2	1	DL_test	16	DL_test	13			0		ba	1	938	6	4	antiphase_hc_sio.wav	1	6	5	noise_calib_stim_RIGHT.wav	2	7	blb_dichoticlistening_da-ba.mp3	da	ba	1	right
6.6.1	win	2023-07-12	21:26:36	0	0	5dded98ea4aa26f899702668	2	1	DL_test	16	DL_test	14			0		ka	1	1270	6	4	antiphase_hc_sio.wav	1	6	5	noise_calib_stim_RIGHT.wav	2	34	blb_dichoticlistening_ta-ka.mp3	ta	ka	1	right
6.6.1	win	2023-07-12	21:26:36	0	0	5dded98ea4aa26f899702668	2	1	DL_test	16	DL_test	15			0		ka	1	996	6	4	antiphase_hc_sio.wav	1	6	5	noise_calib_stim_RIGHT.wav	2	24	blb_dichoticlistening_ka-ta.mp3	ka	ta	1	left
6.6.1	win	2023-07-12	21:26:36	0	0	5dded98ea4aa26f899702668	2	1	DL_test	16	DL_test	16			0		da	1	1177	6	4	antiphase_hc_sio.wav	1	6	5	noise_calib_stim_RIGHT.wav	2	10	blb_dichoticlistening_da-ka.mp3	da	ka	1	left
6.6.1	win	2023-07-12	21:26:36	0	0	5dded98ea4aa26f899702668	2	1	DL_test	16	DL_test	17			0		ta	0	1761	6	4	antiphase_hc_sio.wav	1	6	5	noise_calib_stim_RIGHT.wav	2	11	blb_dichoticlistening_da-pa.mp3	da	pa	1	other
6.6.1	win	2023-07-12	21:26:36	0	0	5dded98ea4aa26f899702668	2	1	DL_test	16	DL_test	18			0		pa	1	1864	6	4	antiphase_hc_sio.wav	1	6	5	noise_calib_stim_RIGHT.wav	2	25	blb_dichoticlistening_pa-ba.mp3	pa	ba	1	left
6.6.1	win	2023-07-12	21:26:36	0	0	5dded98ea4aa26f899702668	2	1	DL_test	16	DL_test	19			0		ta	1	1420	6	4	antiphase_hc_sio.wav	1	6	5	noise_calib_stim_RIGHT.wav	2	35	blb_dichoticlistening_ta-pa.mp3	ta	pa	1	left
6.6.1	win	2023-07-12	21:26:36	0	0	5dded98ea4aa26f899702668	2	1	DL_test	16	DL_test	20			0		da	1	1273	6	4	antiphase_hc_sio.wav	1	6	5	noise_calib_stim_RIGHT.wav	2	8	blb_dichoticlistening_da-da.mp3	da	da	0	left
6.6.1	win	2023-07-12	21:26:36	0	0	5dded98ea4aa26f899702668	2	1	DL_test	16	DL_test	21			0		da	1	987	6	4	antiphase_hc_sio.wav	1	6	5	noise_calib_stim_RIGHT.wav	2	32	blb_dichoticlistening_ta-da.mp3	ta	da	1	right
6.6.1	win	2023-07-12	21:26:36	0	0	5dded98ea4aa26f899702668	2	1	DL_test	16	DL_test	22			0		ka	1	1095	6	4	antiphase_hc_sio.wav	1	6	5	noise_calib_stim_RIGHT.wav	2	16	blb_dichoticlistening_ga-ka.mp3	ga	ka	1	right
6.6.1	win	2023-07-12	21:26:36	0	0	5dded98ea4aa26f899702668	2	1	DL_test	16	DL_test	23			0		ka	0	1587	6	4	antiphase_hc_sio.wav	1	6	5	noise_calib_stim_RIGHT.wav	2	6	blb_dichoticlistening_ba-ta.mp3	ba	ta	1	other
6.6.1	win	2023-07-12	21:26:36	0	0	5dded98ea4aa26f899702668	2	1	DL_test	16	DL_test	24			0		ta	1	1525	6	4	antiphase_hc_sio.wav	1	6	5	noise_calib_stim_RIGHT.wav	2	30	blb_dichoticlistening_pa-ta.mp3	pa	ta	1	right
6.6.1	win	2023-07-12	21:26:36	0	0	5dded98ea4aa26f899702668	2	1	DL_test	16	DL_test	25			0		pa	1	1392	6	4	antiphase_hc_sio.wav	1	6	5	noise_calib_stim_RIGHT.wav	2	5	blb_dichoticlistening_ba-pa.mp3	ba	pa	1	right
6.6.1	win	2023-07-12	21:26:36	0	0	5dded98ea4aa26f899702668	2	1	DL_test	16	DL_test	26			0		ka	1	1598	6	4	antiphase_hc_sio.wav	1	6	5	noise_calib_stim_RIGHT.wav	2	22	blb_dichoticlistening_ka-ka.mp3	ka	ka	0	left
6.6.1	win	2023-07-12	21:26:36	0	0	5dded98ea4aa26f899702668	2	1	DL_test	16	DL_test	27			0		ba	1	1295	6	4	antiphase_hc_sio.wav	1	6	5	noise_calib_stim_RIGHT.wav	2	2	blb_dichoticlistening_ba-da.mp3	ba	da	1	left
6.6.1	win	2023-07-12	21:26:36	0	0	5dded98ea4aa26f899702668	2	1	DL_test	16	DL_test	28			0		ka	1	1715	6	4	antiphase_hc_sio.wav	1	6	5	noise_calib_stim_RIGHT.wav	2	19	blb_dichoticlistening_ka-ba.mp3	ka	ba	1	left
6.6.1	win	2023-07-12	21:26:36	0	0	5dded98ea4aa26f899702668	2	1	DL_test	16	DL_test	29			0		ga	1	1093	6	4	antiphase_hc_sio.wav	1	6	5	noise_calib_stim_RIGHT.wav	2	9	blb_dichoticlistening_da-ga.mp3	da	ga	1	right
6.6.1	win	2023-07-12	21:26:36	0	0	5dded98ea4aa26f899702668	2	1	DL_test	16	DL_test	30			0		ta	1	1448	6	4	antiphase_hc_sio.wav	1	6	5	noise_calib_stim_RIGHT.wav	2	12	blb_dichoticlistening_da-ta.mp3	da	ta	1	right
6.6.1	win	2023-07-12	21:26:36	0	0	5dded98ea4aa26f899702668	2	1	DL_test	16	DL_test	31			0		ga	1	1459	6	4	antiphase_hc_sio.wav	1	6	5	noise_calib_stim_RIGHT.wav	2	27	blb_dichoticlistening_pa-ga.mp3	pa	ga	1	right
6.6.1	win	2023-07-12	21:26:36	0	0	5dded98ea4aa26f899702668	2	1	DL_test	16	DL_test	32			0		ga	1	1138	6	4	antiphase_hc_sio.wav	1	6	5	noise_calib_stim_RIGHT.wav	2	18	blb_dichoticlistening_ga-ta.mp3	ga	ta	1	left
6.6.1	win	2023-07-12	21:26:36	0	0	5dded98ea4aa26f899702668	2	1	DL_test	16	DL_test	33			0		ga	1	944	6	4	antiphase_hc_sio.wav	1	6	5	noise_calib_stim_RIGHT.wav	2	17	blb_dichoticlistening_ga-pa.mp3	ga	pa	1	left
6.6.1	win	2023-07-12	21:26:36	0	0	5dded98ea4aa26f899702668	2	1	DL_test	16	DL_test	34			0		ka	1	1447	6	4	antiphase_hc_sio.wav	1	6	5	noise_calib_stim_RIGHT.wav	2	23	blb_dichoticlistening_ka-pa.mp3	ka	pa	1	left
6.6.1	win	2023-07-12	21:26:36	0	0	5dded98ea4aa26f899702668	2	1	DL_test	16	DL_test	35			0		ka	1	925	6	4	antiphase_hc_sio.wav	1	6	5	noise_calib_stim_RIGHT.wav	2	4	blb_dichoticlistening_ba-ka.mp3	ba	ka	1	right
6.6.1	win	2023-07-12	21:26:36	0	0	5dded98ea4aa26f899702668	2	1	DL_test	16	DL_test	36			0		ka	1	704	6	4	antiphase_hc_sio.wav	1	6	5	noise_calib_stim_RIGHT.wav	2	28	blb_dichoticlistening_pa-ka.mp3	pa	ka	1	right
6.6.1	win	2023-07-12	21:26:36	0	0	5dded98ea4aa26f899702668	2	1	inst_halfway	19					0		Ctrl+'Q'			6	4	antiphase_hc_sio.wav	1	6	5	noise_calib_stim_RIGHT.wav	2	28	blb_dichoticlistening_pa-ka.mp3	pa	ka	1	right