build	computer.platform	date	time	timestamp	time_elapsed_ms	subject	group	session	blockcode	blocknum	trialcode	trialnum	stimulus_left	stimulus_right	stim_index	target_present	response	correct	latency	headphonecheck_countTestTrials	headphonecheck_index	headphonecheck_testSound	headphonecheck_correctResponse	stereocheck_countTestTrials	stereocheck_index	stereocheck_testSound	stereocheck_correctResponse	DL_index	DL_soundfile	DL_leftSound	DL_rightSound	DL_dualSound	DL_choice
6.6.0	win	2023-06-02	07:11:33	0	0	62c8c2d71e87b86722f0215b	2	1	headphonecheck_calibration	4	headphonecheck_calibrationIntro	1			0		calibrationButton	0	1828	0	0			0	0			1				0	
6.6.0	win	2023-06-02	07:11:33	0	0	62c8c2d71e87b86722f0215b	2	1	headphonecheck_testphase	5	test_collectResponse	3			0		second	1	1364	1	5	antiphase_hc_osi.wav	2	0	0			1				0	
6.6.0	win	2023-06-02	07:11:33	0	0	62c8c2d71e87b86722f0215b	2	1	headphonecheck_testphase	5	test_collectResponse	6			0		third	1	532	2	6	antiphase_hc_ois.wav	3	0	0			1				0	
6.6.0	win	2023-06-02	07:11:33	0	0	62c8c2d71e87b86722f0215b	2	1	headphonecheck_testphase	5	test_collectResponse	9			0		second	1	259	3	1	antiphase_hc_iso.wav	2	0	0			1				0	
6.6.0	win	2023-06-02	07:11:33	0	0	62c8c2d71e87b86722f0215b	2	1	headphonecheck_testphase	5	test_collectResponse	12			0		third	1	582	4	2	antiphase_hc_ios.wav	3	0	0			1				0	
6.6.0	win	2023-06-02	07:11:33	0	0	62c8c2d71e87b86722f0215b	2	1	headphonecheck_testphase	5	test_collectResponse	15			0		first	1	406	5	3	antiphase_hc_soi.wav	1	0	0			1				0	
6.6.0	win	2023-06-02	07:11:33	0	0	62c8c2d71e87b86722f0215b	2	1	headphonecheck_testphase	5	test_collectResponse	18			0		first	1	469	6	4	antiphase_hc_sio.wav	1	0	0			1				0	
6.6.0	win	2023-06-02	07:11:33	0	0	62c8c2d71e87b86722f0215b	2	1	stereocheck_calibration	7	stereocheck_calibrationIntro	1			0		stereocheck_calibrationButton	0	4720	6	4	antiphase_hc_sio.wav	1	0	0			1				0	
6.6.0	win	2023-06-02	07:11:33	0	0	62c8c2d71e87b86722f0215b	2	1	stereocheck_testphase	8	stereocheck_test_collectResponse	3			0		stereocheck_left	1	470	6	4	antiphase_hc_sio.wav	1	1	1	noise_calib_stim_LEFT.wav	1	1				0	
6.6.0	win	2023-06-02	07:11:33	0	0	62c8c2d71e87b86722f0215b	2	1	stereocheck_testphase	8	stereocheck_test_collectResponse	6			0		stereocheck_right	1	271	6	4	antiphase_hc_sio.wav	1	2	5	noise_calib_stim_RIGHT.wav	2	1				0	
6.6.0	win	2023-06-02	07:11:33	0	0	62c8c2d71e87b86722f0215b	2	1	stereocheck_testphase	8	stereocheck_test_collectResponse	9			0		stereocheck_right	1	427	6	4	antiphase_hc_sio.wav	1	3	4	noise_calib_stim_RIGHT.wav	2	1				0	
6.6.0	win	2023-06-02	07:11:33	0	0	62c8c2d71e87b86722f0215b	2	1	stereocheck_testphase	8	stereocheck_test_collectResponse	12			0		stereocheck_left	1	298	6	4	antiphase_hc_sio.wav	1	4	2	noise_calib_stim_LEFT.wav	1	1				0	
6.6.0	win	2023-06-02	07:11:33	0	0	62c8c2d71e87b86722f0215b	2	1	stereocheck_testphase	8	stereocheck_test_collectResponse	15			0		stereocheck_right	1	41	6	4	antiphase_hc_sio.wav	1	5	6	noise_calib_stim_RIGHT.wav	2	1				0	
6.6.0	win	2023-06-02	07:11:33	0	0	62c8c2d71e87b86722f0215b	2	1	stereocheck_testphase	8	stereocheck_test_collectResponse	18			0		stereocheck_left	1	245	6	4	antiphase_hc_sio.wav	1	6	3	noise_calib_stim_LEFT.wav	1	1				0	
6.6.0	win	2023-06-02	07:11:33	0	0	62c8c2d71e87b86722f0215b	2	1	DL_practice	11	DL_practice	2			0		ka	0	3413	6	4	antiphase_hc_sio.wav	1	6	3	noise_calib_stim_LEFT.wav	1	29	blb_dichoticlistening_pa-pa.mp3	pa	pa	0	other
6.6.0	win	2023-06-02	07:11:33	0	0	62c8c2d71e87b86722f0215b	2	1	DL_practice	11	DL_practice	3			0		ka	0	1169	6	4	antiphase_hc_sio.wav	1	6	3	noise_calib_stim_LEFT.wav	1	36	blb_dichoticlistening_ta-ta.mp3	ta	ta	0	other
6.6.0	win	2023-06-02	07:11:33	0	0	62c8c2d71e87b86722f0215b	2	1	DL_practice	11	DL_practice	4			0		ka	0	1473	6	4	antiphase_hc_sio.wav	1	6	3	noise_calib_stim_LEFT.wav	1	15	blb_dichoticlistening_ga-ga.mp3	ga	ga	0	other
6.6.0	win	2023-06-02	07:11:33	0	0	62c8c2d71e87b86722f0215b	2	1	DL_practice	11	DL_practice	5			0		ta	0	2998	6	4	antiphase_hc_sio.wav	1	6	3	noise_calib_stim_LEFT.wav	1	7	blb_dichoticlistening_da-ba.mp3	da	ba	1	other
6.6.0	win	2023-06-02	07:11:33	0	0	62c8c2d71e87b86722f0215b	2	1	DL_practice	11	DL_practice	6			0		ka	1	1475	6	4	antiphase_hc_sio.wav	1	6	3	noise_calib_stim_LEFT.wav	1	22	blb_dichoticlistening_ka-ka.mp3	ka	ka	0	left
6.6.0	win	2023-06-02	07:11:33	0	0	62c8c2d71e87b86722f0215b	2	1	DL_practice	11	DL_practice	7			0		ka	0	1862	6	4	antiphase_hc_sio.wav	1	6	3	noise_calib_stim_LEFT.wav	1	8	blb_dichoticlistening_da-da.mp3	da	da	0	other
6.6.0	win	2023-06-02	07:11:33	0	0	62c8c2d71e87b86722f0215b	2	1	DL_practice	11	DL_practice	8			0		ta	0	2290	6	4	antiphase_hc_sio.wav	1	6	3	noise_calib_stim_LEFT.wav	1	1	blb_dichoticlistening_ba-ba.mp3	ba	ba	0	other
6.6.0	win	2023-06-02	07:11:33	0	0	62c8c2d71e87b86722f0215b	2	1	DL_practice	11	DL_practice	9			0		ka	0	1501	6	4	antiphase_hc_sio.wav	1	6	3	noise_calib_stim_LEFT.wav	1	18	blb_dichoticlistening_ga-ta.mp3	ga	ta	1	other
6.6.0	win	2023-06-02	07:11:33	0	0	62c8c2d71e87b86722f0215b	2	1	DL_practice	11	DL_practice	10			0		ka	1	2047	6	4	antiphase_hc_sio.wav	1	6	3	noise_calib_stim_LEFT.wav	1	23	blb_dichoticlistening_ka-pa.mp3	ka	pa	1	left
6.6.0	win	2023-06-02	07:11:33	0	0	62c8c2d71e87b86722f0215b	2	1	DL_test	13	DL_test	1			0		ga	0	3431	6	4	antiphase_hc_sio.wav	1	6	3	noise_calib_stim_LEFT.wav	1	7	blb_dichoticlistening_da-ba.mp3	da	ba	1	other
6.6.0	win	2023-06-02	07:11:33	0	0	62c8c2d71e87b86722f0215b	2	1	DL_test	13	DL_test	2			0		ka	0	1267	6	4	antiphase_hc_sio.wav	1	6	3	noise_calib_stim_LEFT.wav	1	9	blb_dichoticlistening_da-ga.mp3	da	ga	1	other
6.6.0	win	2023-06-02	07:11:33	0	0	62c8c2d71e87b86722f0215b	2	1	DL_test	13	DL_test	3			0		ka	0	2086	6	4	antiphase_hc_sio.wav	1	6	3	noise_calib_stim_LEFT.wav	1	11	blb_dichoticlistening_da-pa.mp3	da	pa	1	other
6.6.0	win	2023-06-02	07:11:33	0	0	62c8c2d71e87b86722f0215b	2	1	DL_test	13	DL_test	4			0		ka	0	1529	6	4	antiphase_hc_sio.wav	1	6	3	noise_calib_stim_LEFT.wav	1	36	blb_dichoticlistening_ta-ta.mp3	ta	ta	0	other
6.6.0	win	2023-06-02	07:11:33	0	0	62c8c2d71e87b86722f0215b	2	1	DL_test	13	DL_test	5			0		ka	0	1362	6	4	antiphase_hc_sio.wav	1	6	3	noise_calib_stim_LEFT.wav	1	12	blb_dichoticlistening_da-ta.mp3	da	ta	1	other
6.6.0	win	2023-06-02	07:11:33	0	0	62c8c2d71e87b86722f0215b	2	1	DL_test	13	DL_test	6			0		ka	1	1955	6	4	antiphase_hc_sio.wav	1	6	3	noise_calib_stim_LEFT.wav	1	10	blb_dichoticlistening_da-ka.mp3	da	ka	1	right
6.6.0	win	2023-06-02	07:11:33	0	0	62c8c2d71e87b86722f0215b	2	1	DL_test	13	DL_test	7			0		ka	0	1330	6	4	antiphase_hc_sio.wav	1	6	3	noise_calib_stim_LEFT.wav	1	17	blb_dichoticlistening_ga-pa.mp3	ga	pa	1	other
6.6.0	win	2023-06-02	07:11:33	0	0	62c8c2d71e87b86722f0215b	2	1	DL_test	13	DL_test	8			0		ka	0	1485	6	4	antiphase_hc_sio.wav	1	6	3	noise_calib_stim_LEFT.wav	1	26	blb_dichoticlistening_pa-da.mp3	pa	da	1	other
6.6.0	win	2023-06-02	07:11:33	0	0	62c8c2d71e87b86722f0215b	2	1	DL_test	13	DL_test	9			0		ka	1	911	6	4	antiphase_hc_sio.wav	1	6	3	noise_calib_stim_LEFT.wav	1	4	blb_dichoticlistening_ba-ka.mp3	ba	ka	1	right
6.6.0	win	2023-06-02	07:11:33	0	0	62c8c2d71e87b86722f0215b	2	1	DL_test	13	DL_test	10			0		ka	0	1521	6	4	antiphase_hc_sio.wav	1	6	3	noise_calib_stim_LEFT.wav	1	27	blb_dichoticlistening_pa-ga.mp3	pa	ga	1	other
6.6.0	win	2023-06-02	07:11:33	0	0	62c8c2d71e87b86722f0215b	2	1	DL_test	13	DL_test	11			0		ka	0	1506	6	4	antiphase_hc_sio.wav	1	6	3	noise_calib_stim_LEFT.wav	1	13	blb_dichoticlistening_ga-ba.mp3	ga	ba	1	other
6.6.0	win	2023-06-02	07:11:33	0	0	62c8c2d71e87b86722f0215b	2	1	DL_test	13	DL_test	12			0		ka	0	892	6	4	antiphase_hc_sio.wav	1	6	3	noise_calib_stim_LEFT.wav	1	33	blb_dichoticlistening_ta-ga.mp3	ta	ga	1	other
6.6.0	win	2023-06-02	07:11:33	0	0	62c8c2d71e87b86722f0215b	2	1	DL_test	13	DL_test	13			0		ka	1	1471	6	4	antiphase_hc_sio.wav	1	6	3	noise_calib_stim_LEFT.wav	1	19	blb_dichoticlistening_ka-ba.mp3	ka	ba	1	left
6.6.0	win	2023-06-02	07:11:33	0	0	62c8c2d71e87b86722f0215b	2	1	DL_test	13	DL_test	14			0		ka	0	978	6	4	antiphase_hc_sio.wav	1	6	3	noise_calib_stim_LEFT.wav	1	29	blb_dichoticlistening_pa-pa.mp3	pa	pa	0	other
6.6.0	win	2023-06-02	07:11:33	0	0	62c8c2d71e87b86722f0215b	2	1	DL_test	13	DL_test	15			0		ka	0	2122	6	4	antiphase_hc_sio.wav	1	6	3	noise_calib_stim_LEFT.wav	1	8	blb_dichoticlistening_da-da.mp3	da	da	0	other
6.6.0	win	2023-06-02	07:11:33	0	0	62c8c2d71e87b86722f0215b	2	1	DL_test	13	DL_test	16			0		ka	1	931	6	4	antiphase_hc_sio.wav	1	6	3	noise_calib_stim_LEFT.wav	1	21	blb_dichoticlistening_ka-ga.mp3	ka	ga	1	left
6.6.0	win	2023-06-02	07:11:33	0	0	62c8c2d71e87b86722f0215b	2	1	DL_test	13	DL_test	17			0		ka	1	1316	6	4	antiphase_hc_sio.wav	1	6	3	noise_calib_stim_LEFT.wav	1	22	blb_dichoticlistening_ka-ka.mp3	ka	ka	0	left
6.6.0	win	2023-06-02	07:11:33	0	0	62c8c2d71e87b86722f0215b	2	1	DL_test	13	DL_test	18			0		ka	0	934	6	4	antiphase_hc_sio.wav	1	6	3	noise_calib_stim_LEFT.wav	1	15	blb_dichoticlistening_ga-ga.mp3	ga	ga	0	other
6.6.0	win	2023-06-02	07:11:33	0	0	62c8c2d71e87b86722f0215b	2	1	DL_test	13	DL_test	19			0		ka	0	1272	6	4	antiphase_hc_sio.wav	1	6	3	noise_calib_stim_LEFT.wav	1	30	blb_dichoticlistening_pa-ta.mp3	pa	ta	1	other
6.6.0	win	2023-06-02	07:11:33	0	0	62c8c2d71e87b86722f0215b	2	1	DL_test	13	DL_test	20			0		ka	0	1203	6	4	antiphase_hc_sio.wav	1	6	3	noise_calib_stim_LEFT.wav	1	32	blb_dichoticlistening_ta-da.mp3	ta	da	1	other
6.6.0	win	2023-06-02	07:11:33	0	0	62c8c2d71e87b86722f0215b	2	1	DL_test	13	DL_test	21			0		ka	1	2145	6	4	antiphase_hc_sio.wav	1	6	3	noise_calib_stim_LEFT.wav	1	23	blb_dichoticlistening_ka-pa.mp3	ka	pa	1	left
6.6.0	win	2023-06-02	07:11:33	0	0	62c8c2d71e87b86722f0215b	2	1	DL_test	13	DL_test	22			0		ka	0	914	6	4	antiphase_hc_sio.wav	1	6	3	noise_calib_stim_LEFT.wav	1	5	blb_dichoticlistening_ba-pa.mp3	ba	pa	1	other
6.6.0	win	2023-06-02	07:11:33	0	0	62c8c2d71e87b86722f0215b	2	1	DL_test	13	DL_test	23			0		ka	1	917	6	4	antiphase_hc_sio.wav	1	6	3	noise_calib_stim_LEFT.wav	1	28	blb_dichoticlistening_pa-ka.mp3	pa	ka	1	right
6.6.0	win	2023-06-02	07:11:33	0	0	62c8c2d71e87b86722f0215b	2	1	DL_test	13	DL_test	24			0		ka	0	630	6	4	antiphase_hc_sio.wav	1	6	3	noise_calib_stim_LEFT.wav	1	18	blb_dichoticlistening_ga-ta.mp3	ga	ta	1	other
6.6.0	win	2023-06-02	07:11:33	0	0	62c8c2d71e87b86722f0215b	2	1	DL_test	13	DL_test	25			0		ka	0	683	6	4	antiphase_hc_sio.wav	1	6	3	noise_calib_stim_LEFT.wav	1	6	blb_dichoticlistening_ba-ta.mp3	ba	ta	1	other
6.6.0	win	2023-06-02	07:11:33	0	0	62c8c2d71e87b86722f0215b	2	1	DL_test	13	DL_test	26			0		ga	0	3062	6	4	antiphase_hc_sio.wav	1	6	3	noise_calib_stim_LEFT.wav	1	20	blb_dichoticlistening_ka-da.mp3	ka	da	1	other
6.6.0	win	2023-06-02	07:11:33	0	0	62c8c2d71e87b86722f0215b	2	1	DL_test	13	DL_test	27			0		ka	0	1747	6	4	antiphase_hc_sio.wav	1	6	3	noise_calib_stim_LEFT.wav	1	31	blb_dichoticlistening_ta-ba.mp3	ta	ba	1	other
6.6.0	win	2023-06-02	07:11:33	0	0	62c8c2d71e87b86722f0215b	2	1	DL_test	13	DL_test	28			0		ka	0	1388	6	4	antiphase_hc_sio.wav	1	6	3	noise_calib_stim_LEFT.wav	1	14	blb_dichoticlistening_ga-da.mp3	ga	da	1	other
6.6.0	win	2023-06-02	07:11:33	0	0	62c8c2d71e87b86722f0215b	2	1	DL_test	13	DL_test	29			0		ka	0	954	6	4	antiphase_hc_sio.wav	1	6	3	noise_calib_stim_LEFT.wav	1	2	blb_dichoticlistening_ba-da.mp3	ba	da	1	other
6.6.0	win	2023-06-02	07:11:33	0	0	62c8c2d71e87b86722f0215b	2	1	DL_test	13	DL_test	30			0		da	0	3322	6	4	antiphase_hc_sio.wav	1	6	3	noise_calib_stim_LEFT.wav	1	1	blb_dichoticlistening_ba-ba.mp3	ba	ba	0	other
6.6.0	win	2023-06-02	07:11:33	0	0	62c8c2d71e87b86722f0215b	2	1	DL_test	13	DL_test	31			0		ka	1	891	6	4	antiphase_hc_sio.wav	1	6	3	noise_calib_stim_LEFT.wav	1	16	blb_dichoticlistening_ga-ka.mp3	ga	ka	1	right
6.6.0	win	2023-06-02	07:11:33	0	0	62c8c2d71e87b86722f0215b	2	1	DL_test	13	DL_test	32			0		ka	0	1302	6	4	antiphase_hc_sio.wav	1	6	3	noise_calib_stim_LEFT.wav	1	25	blb_dichoticlistening_pa-ba.mp3	pa	ba	1	other
6.6.0	win	2023-06-02	07:11:33	0	0	62c8c2d71e87b86722f0215b	2	1	DL_test	13	DL_test	33			0		ka	1	856	6	4	antiphase_hc_sio.wav	1	6	3	noise_calib_stim_LEFT.wav	1	34	blb_dichoticlistening_ta-ka.mp3	ta	ka	1	right
6.6.0	win	2023-06-02	07:11:33	0	0	62c8c2d71e87b86722f0215b	2	1	DL_test	13	DL_test	34			0		ka	0	1228	6	4	antiphase_hc_sio.wav	1	6	3	noise_calib_stim_LEFT.wav	1	3	blb_dichoticlistening_ba-ga.mp3	ba	ga	1	other
6.6.0	win	2023-06-02	07:11:33	0	0	62c8c2d71e87b86722f0215b	2	1	DL_test	13	DL_test	35			0		ka	0	1512	6	4	antiphase_hc_sio.wav	1	6	3	noise_calib_stim_LEFT.wav	1	35	blb_dichoticlistening_ta-pa.mp3	ta	pa	1	other
6.6.0	win	2023-06-02	07:11:33	0	0	62c8c2d71e87b86722f0215b	2	1	DL_test	13	DL_test	36			0		ka	1	802	6	4	antiphase_hc_sio.wav	1	6	3	noise_calib_stim_LEFT.wav	1	24	blb_dichoticlistening_ka-ta.mp3	ka	ta	1	left
6.6.0	win	2023-06-02	07:11:33	0	0	62c8c2d71e87b86722f0215b	2	1	DL_test	14	DL_test	1			0		ka	0	1219	6	4	antiphase_hc_sio.wav	1	6	3	noise_calib_stim_LEFT.wav	1	14	blb_dichoticlistening_ga-da.mp3	ga	da	1	other
6.6.0	win	2023-06-02	07:11:33	0	0	62c8c2d71e87b86722f0215b	2	1	DL_test	14	DL_test	2			0		ka	0	1176	6	4	antiphase_hc_sio.wav	1	6	3	noise_calib_stim_LEFT.wav	1	6	blb_dichoticlistening_ba-ta.mp3	ba	ta	1	other
6.6.0	win	2023-06-02	07:11:33	0	0	62c8c2d71e87b86722f0215b	2	1	DL_test	14	DL_test	3			0		ka	0	1025	6	4	antiphase_hc_sio.wav	1	6	3	noise_calib_stim_LEFT.wav	1	35	blb_dichoticlistening_ta-pa.mp3	ta	pa	1	other
6.6.0	win	2023-06-02	07:11:33	0	0	62c8c2d71e87b86722f0215b	2	1	DL_test	14	DL_test	4			0		pa	0	1390	6	4	antiphase_hc_sio.wav	1	6	3	noise_calib_stim_LEFT.wav	1	2	blb_dichoticlistening_ba-da.mp3	ba	da	1	other
6.6.0	win	2023-06-02	07:11:33	0	0	62c8c2d71e87b86722f0215b	2	1	DL_test	14	DL_test	5			0		ka	1	740	6	4	antiphase_hc_sio.wav	1	6	3	noise_calib_stim_LEFT.wav	1	16	blb_dichoticlistening_ga-ka.mp3	ga	ka	1	right
6.6.0	win	2023-06-02	07:11:33	0	0	62c8c2d71e87b86722f0215b	2	1	DL_test	14	DL_test	6			0		ka	0	2013	6	4	antiphase_hc_sio.wav	1	6	3	noise_calib_stim_LEFT.wav	1	33	blb_dichoticlistening_ta-ga.mp3	ta	ga	1	other
6.6.0	win	2023-06-02	07:11:33	0	0	62c8c2d71e87b86722f0215b	2	1	DL_test	14	DL_test	7			0		ka	1	2450	6	4	antiphase_hc_sio.wav	1	6	3	noise_calib_stim_LEFT.wav	1	19	blb_dichoticlistening_ka-ba.mp3	ka	ba	1	left
6.6.0	win	2023-06-02	07:11:33	0	0	62c8c2d71e87b86722f0215b	2	1	DL_test	14	DL_test	8			0		ka	0	894	6	4	antiphase_hc_sio.wav	1	6	3	noise_calib_stim_LEFT.wav	1	32	blb_dichoticlistening_ta-da.mp3	ta	da	1	other
6.6.0	win	2023-06-02	07:11:33	0	0	62c8c2d71e87b86722f0215b	2	1	DL_test	14	DL_test	9			0		ka	0	2537	6	4	antiphase_hc_sio.wav	1	6	3	noise_calib_stim_LEFT.wav	1	8	blb_dichoticlistening_da-da.mp3	da	da	0	other
6.6.0	win	2023-06-02	07:11:33	0	0	62c8c2d71e87b86722f0215b	2	1	DL_test	14	DL_test	10			0		ka	1	1050	6	4	antiphase_hc_sio.wav	1	6	3	noise_calib_stim_LEFT.wav	1	34	blb_dichoticlistening_ta-ka.mp3	ta	ka	1	right
6.6.0	win	2023-06-02	07:11:33	0	0	62c8c2d71e87b86722f0215b	2	1	DL_test	14	DL_test	11			0		ka	0	1494	6	4	antiphase_hc_sio.wav	1	6	3	noise_calib_stim_LEFT.wav	1	30	blb_dichoticlistening_pa-ta.mp3	pa	ta	1	other
6.6.0	win	2023-06-02	07:11:33	0	0	62c8c2d71e87b86722f0215b	2	1	DL_test	14	DL_test	12			0		ka	0	873	6	4	antiphase_hc_sio.wav	1	6	3	noise_calib_stim_LEFT.wav	1	31	blb_dichoticlistening_ta-ba.mp3	ta	ba	1	other
6.6.0	win	2023-06-02	07:11:33	0	0	62c8c2d71e87b86722f0215b	2	1	DL_test	14	DL_test	13			0		ka	0	1724	6	4	antiphase_hc_sio.wav	1	6	3	noise_calib_stim_LEFT.wav	1	13	blb_dichoticlistening_ga-ba.mp3	ga	ba	1	other
6.6.0	win	2023-06-02	07:11:33	0	0	62c8c2d71e87b86722f0215b	2	1	DL_test	14	DL_test	14			0		ka	0	1150	6	4	antiphase_hc_sio.wav	1	6	3	noise_calib_stim_LEFT.wav	1	26	blb_dichoticlistening_pa-da.mp3	pa	da	1	other
6.6.0	win	2023-06-02	07:11:33	0	0	62c8c2d71e87b86722f0215b	2	1	DL_test	14	DL_test	15			0		ka	1	2078	6	4	antiphase_hc_sio.wav	1	6	3	noise_calib_stim_LEFT.wav	1	20	blb_dichoticlistening_ka-da.mp3	ka	da	1	left
6.6.0	win	2023-06-02	07:11:33	0	0	62c8c2d71e87b86722f0215b	2	1	DL_test	14	DL_test	16			0		ka	1	906	6	4	antiphase_hc_sio.wav	1	6	3	noise_calib_stim_LEFT.wav	1	28	blb_dichoticlistening_pa-ka.mp3	pa	ka	1	right
6.6.0	win	2023-06-02	07:11:33	0	0	62c8c2d71e87b86722f0215b	2	1	DL_test	14	DL_test	17			0		ka	0	1013	6	4	antiphase_hc_sio.wav	1	6	3	noise_calib_stim_LEFT.wav	1	11	blb_dichoticlistening_da-pa.mp3	da	pa	1	other
6.6.0	win	2023-06-02	07:11:33	0	0	62c8c2d71e87b86722f0215b	2	1	DL_test	14	DL_test	18			0		ka	0	2250	6	4	antiphase_hc_sio.wav	1	6	3	noise_calib_stim_LEFT.wav	1	15	blb_dichoticlistening_ga-ga.mp3	ga	ga	0	other
6.6.0	win	2023-06-02	07:11:33	0	0	62c8c2d71e87b86722f0215b	2	1	DL_test	14	DL_test	19			0		ga	1	2582	6	4	antiphase_hc_sio.wav	1	6	3	noise_calib_stim_LEFT.wav	1	3	blb_dichoticlistening_ba-ga.mp3	ba	ga	1	right
6.6.0	win	2023-06-02	07:11:33	0	0	62c8c2d71e87b86722f0215b	2	1	DL_test	14	DL_test	20			0		ka	0	1190	6	4	antiphase_hc_sio.wav	1	6	3	noise_calib_stim_LEFT.wav	1	9	blb_dichoticlistening_da-ga.mp3	da	ga	1	other
6.6.0	win	2023-06-02	07:11:33	0	0	62c8c2d71e87b86722f0215b	2	1	DL_test	14	DL_test	21			0		ka	0	732	6	4	antiphase_hc_sio.wav	1	6	3	noise_calib_stim_LEFT.wav	1	12	blb_dichoticlistening_da-ta.mp3	da	ta	1	other
6.6.0	win	2023-06-02	07:11:33	0	0	62c8c2d71e87b86722f0215b	2	1	DL_test	14	DL_test	22			0		pa	1	1390	6	4	antiphase_hc_sio.wav	1	6	3	noise_calib_stim_LEFT.wav	1	5	blb_dichoticlistening_ba-pa.mp3	ba	pa	1	right
6.6.0	win	2023-06-02	07:11:33	0	0	62c8c2d71e87b86722f0215b	2	1	DL_test	14	DL_test	23			0		pa	1	996	6	4	antiphase_hc_sio.wav	1	6	3	noise_calib_stim_LEFT.wav	1	17	blb_dichoticlistening_ga-pa.mp3	ga	pa	1	right
6.6.0	win	2023-06-02	07:11:33	0	0	62c8c2d71e87b86722f0215b	2	1	DL_test	14	DL_test	24			0		pa	1	564	6	4	antiphase_hc_sio.wav	1	6	3	noise_calib_stim_LEFT.wav	1	25	blb_dichoticlistening_pa-ba.mp3	pa	ba	1	left
6.6.0	win	2023-06-02	07:11:33	0	0	62c8c2d71e87b86722f0215b	2	1	DL_test	14	DL_test	25			0		ka	1	963	6	4	antiphase_hc_sio.wav	1	6	3	noise_calib_stim_LEFT.wav	1	21	blb_dichoticlistening_ka-ga.mp3	ka	ga	1	left
6.6.0	win	2023-06-02	07:11:33	0	0	62c8c2d71e87b86722f0215b	2	1	DL_test	14	DL_test	26			0		ka	1	1060	6	4	antiphase_hc_sio.wav	1	6	3	noise_calib_stim_LEFT.wav	1	4	blb_dichoticlistening_ba-ka.mp3	ba	ka	1	right
6.6.0	win	2023-06-02	07:11:33	0	0	62c8c2d71e87b86722f0215b	2	1	DL_test	14	DL_test	27			0		ka	0	1151	6	4	antiphase_hc_sio.wav	1	6	3	noise_calib_stim_LEFT.wav	1	29	blb_dichoticlistening_pa-pa.mp3	pa	pa	0	other
6.6.0	win	2023-06-02	07:11:33	0	0	62c8c2d71e87b86722f0215b	2	1	DL_test	14	DL_test	28			0		ka	1	751	6	4	antiphase_hc_sio.wav	1	6	3	noise_calib_stim_LEFT.wav	1	10	blb_dichoticlistening_da-ka.mp3	da	ka	1	right
6.6.0	win	2023-06-02	07:11:33	0	0	62c8c2d71e87b86722f0215b	2	1	DL_test	14	DL_test	29			0		pa	1	1056	6	4	antiphase_hc_sio.wav	1	6	3	noise_calib_stim_LEFT.wav	1	23	blb_dichoticlistening_ka-pa.mp3	ka	pa	1	right
6.6.0	win	2023-06-02	07:11:33	0	0	62c8c2d71e87b86722f0215b	2	1	DL_test	14	DL_test	30			0		ka	0	770	6	4	antiphase_hc_sio.wav	1	6	3	noise_calib_stim_LEFT.wav	1	36	blb_dichoticlistening_ta-ta.mp3	ta	ta	0	other
6.6.0	win	2023-06-02	07:11:33	0	0	62c8c2d71e87b86722f0215b	2	1	DL_test	14	DL_test	31			0		ka	1	737	6	4	antiphase_hc_sio.wav	1	6	3	noise_calib_stim_LEFT.wav	1	24	blb_dichoticlistening_ka-ta.mp3	ka	ta	1	left
6.6.0	win	2023-06-02	07:11:33	0	0	62c8c2d71e87b86722f0215b	2	1	DL_test	14	DL_test	32			0		ka	0	1042	6	4	antiphase_hc_sio.wav	1	6	3	noise_calib_stim_LEFT.wav	1	7	blb_dichoticlistening_da-ba.mp3	da	ba	1	other
6.6.0	win	2023-06-02	07:11:33	0	0	62c8c2d71e87b86722f0215b	2	1	DL_test	14	DL_test	33			0		pa	1	774	6	4	antiphase_hc_sio.wav	1	6	3	noise_calib_stim_LEFT.wav	1	27	blb_dichoticlistening_pa-ga.mp3	pa	ga	1	left
6.6.0	win	2023-06-02	07:11:33	0	0	62c8c2d71e87b86722f0215b	2	1	DL_test	14	DL_test	34			0		pa	0	566	6	4	antiphase_hc_sio.wav	1	6	3	noise_calib_stim_LEFT.wav	1	1	blb_dichoticlistening_ba-ba.mp3	ba	ba	0	other
6.6.0	win	2023-06-02	07:11:33	0	0	62c8c2d71e87b86722f0215b	2	1	DL_test	14	DL_test	35			0		ka	0	1406	6	4	antiphase_hc_sio.wav	1	6	3	noise_calib_stim_LEFT.wav	1	18	blb_dichoticlistening_ga-ta.mp3	ga	ta	1	other
6.6.0	win	2023-06-02	07:11:33	0	0	62c8c2d71e87b86722f0215b	2	1	DL_test	14	DL_test	36			0		ka	1	916	6	4	antiphase_hc_sio.wav	1	6	3	noise_calib_stim_LEFT.wav	1	22	blb_dichoticlistening_ka-ka.mp3	ka	ka	0	left
6.6.0	win	2023-06-02	07:11:33	0	0	62c8c2d71e87b86722f0215b	2	1	DL_test	15	DL_test	1			0		ka	0	926	6	4	antiphase_hc_sio.wav	1	6	3	noise_calib_stim_LEFT.wav	1	1	blb_dichoticlistening_ba-ba.mp3	ba	ba	0	other
6.6.0	win	2023-06-02	07:11:33	0	0	62c8c2d71e87b86722f0215b	2	1	DL_test	15	DL_test	2			0		ka	1	727	6	4	antiphase_hc_sio.wav	1	6	3	noise_calib_stim_LEFT.wav	1	22	blb_dichoticlistening_ka-ka.mp3	ka	ka	0	left
6.6.0	win	2023-06-02	07:11:33	0	0	62c8c2d71e87b86722f0215b	2	1	DL_test	15	DL_test	3			0		ka	0	617	6	4	antiphase_hc_sio.wav	1	6	3	noise_calib_stim_LEFT.wav	1	12	blb_dichoticlistening_da-ta.mp3	da	ta	1	other
6.6.0	win	2023-06-02	07:11:33	0	0	62c8c2d71e87b86722f0215b	2	1	DL_test	15	DL_test	4			0		ka	0	830	6	4	antiphase_hc_sio.wav	1	6	3	noise_calib_stim_LEFT.wav	1	33	blb_dichoticlistening_ta-ga.mp3	ta	ga	1	other
6.6.0	win	2023-06-02	07:11:33	0	0	62c8c2d71e87b86722f0215b	2	1	DL_test	15	DL_test	5			0		pa	0	941	6	4	antiphase_hc_sio.wav	1	6	3	noise_calib_stim_LEFT.wav	1	14	blb_dichoticlistening_ga-da.mp3	ga	da	1	other
6.6.0	win	2023-06-02	07:11:33	0	0	62c8c2d71e87b86722f0215b	2	1	DL_test	15	DL_test	6			0		ka	1	653	6	4	antiphase_hc_sio.wav	1	6	3	noise_calib_stim_LEFT.wav	1	19	blb_dichoticlistening_ka-ba.mp3	ka	ba	1	left
6.6.0	win	2023-06-02	07:11:33	0	0	62c8c2d71e87b86722f0215b	2	1	DL_test	15	DL_test	7			0		pa	0	1081	6	4	antiphase_hc_sio.wav	1	6	3	noise_calib_stim_LEFT.wav	1	7	blb_dichoticlistening_da-ba.mp3	da	ba	1	other
6.6.0	win	2023-06-02	07:11:33	0	0	62c8c2d71e87b86722f0215b	2	1	DL_test	15	DL_test	8			0		ka	0	940	6	4	antiphase_hc_sio.wav	1	6	3	noise_calib_stim_LEFT.wav	1	35	blb_dichoticlistening_ta-pa.mp3	ta	pa	1	other
6.6.0	win	2023-06-02	07:11:33	0	0	62c8c2d71e87b86722f0215b	2	1	DL_test	15	DL_test	9			0		ka	1	653	6	4	antiphase_hc_sio.wav	1	6	3	noise_calib_stim_LEFT.wav	1	21	blb_dichoticlistening_ka-ga.mp3	ka	ga	1	left
6.6.0	win	2023-06-02	07:11:33	0	0	62c8c2d71e87b86722f0215b	2	1	DL_test	15	DL_test	10			0		ga	1	1081	6	4	antiphase_hc_sio.wav	1	6	3	noise_calib_stim_LEFT.wav	1	15	blb_dichoticlistening_ga-ga.mp3	ga	ga	0	left
6.6.0	win	2023-06-02	07:11:33	0	0	62c8c2d71e87b86722f0215b	2	1	DL_test	15	DL_test	11			0		ga	1	1172	6	4	antiphase_hc_sio.wav	1	6	3	noise_calib_stim_LEFT.wav	1	3	blb_dichoticlistening_ba-ga.mp3	ba	ga	1	right
6.6.0	win	2023-06-02	07:11:33	0	0	62c8c2d71e87b86722f0215b	2	1	DL_test	15	DL_test	12			0		ka	0	1092	6	4	antiphase_hc_sio.wav	1	6	3	noise_calib_stim_LEFT.wav	1	32	blb_dichoticlistening_ta-da.mp3	ta	da	1	other
6.6.0	win	2023-06-02	07:11:33	0	0	62c8c2d71e87b86722f0215b	2	1	DL_test	15	DL_test	13			0		ka	1	806	6	4	antiphase_hc_sio.wav	1	6	3	noise_calib_stim_LEFT.wav	1	4	blb_dichoticlistening_ba-ka.mp3	ba	ka	1	right
6.6.0	win	2023-06-02	07:11:33	0	0	62c8c2d71e87b86722f0215b	2	1	DL_test	15	DL_test	14			0		pa	0	884	6	4	antiphase_hc_sio.wav	1	6	3	noise_calib_stim_LEFT.wav	1	13	blb_dichoticlistening_ga-ba.mp3	ga	ba	1	other
6.6.0	win	2023-06-02	07:11:33	0	0	62c8c2d71e87b86722f0215b	2	1	DL_test	15	DL_test	15			0		ka	0	1048	6	4	antiphase_hc_sio.wav	1	6	3	noise_calib_stim_LEFT.wav	1	8	blb_dichoticlistening_da-da.mp3	da	da	0	other
6.6.0	win	2023-06-02	07:11:33	0	0	62c8c2d71e87b86722f0215b	2	1	DL_test	15	DL_test	16			0		ka	1	741	6	4	antiphase_hc_sio.wav	1	6	3	noise_calib_stim_LEFT.wav	1	23	blb_dichoticlistening_ka-pa.mp3	ka	pa	1	left
6.6.0	win	2023-06-02	07:11:33	0	0	62c8c2d71e87b86722f0215b	2	1	DL_test	15	DL_test	17			0		ka	1	741	6	4	antiphase_hc_sio.wav	1	6	3	noise_calib_stim_LEFT.wav	1	34	blb_dichoticlistening_ta-ka.mp3	ta	ka	1	right
6.6.0	win	2023-06-02	07:11:33	0	0	62c8c2d71e87b86722f0215b	2	1	DL_test	15	DL_test	18			0		pa	1	966	6	4	antiphase_hc_sio.wav	1	6	3	noise_calib_stim_LEFT.wav	1	25	blb_dichoticlistening_pa-ba.mp3	pa	ba	1	left
6.6.0	win	2023-06-02	07:11:33	0	0	62c8c2d71e87b86722f0215b	2	1	DL_test	15	DL_test	19			0		pa	1	727	6	4	antiphase_hc_sio.wav	1	6	3	noise_calib_stim_LEFT.wav	1	30	blb_dichoticlistening_pa-ta.mp3	pa	ta	1	left
6.6.0	win	2023-06-02	07:11:33	0	0	62c8c2d71e87b86722f0215b	2	1	DL_test	15	DL_test	20			0		pa	1	719	6	4	antiphase_hc_sio.wav	1	6	3	noise_calib_stim_LEFT.wav	1	29	blb_dichoticlistening_pa-pa.mp3	pa	pa	0	left
6.6.0	win	2023-06-02	07:11:33	0	0	62c8c2d71e87b86722f0215b	2	1	DL_test	15	DL_test	21			0		pa	1	1920	6	4	antiphase_hc_sio.wav	1	6	3	noise_calib_stim_LEFT.wav	1	11	blb_dichoticlistening_da-pa.mp3	da	pa	1	right
6.6.0	win	2023-06-02	07:11:33	0	0	62c8c2d71e87b86722f0215b	2	1	DL_test	15	DL_test	22			0		ta	0	1369	6	4	antiphase_hc_sio.wav	1	6	3	noise_calib_stim_LEFT.wav	1	28	blb_dichoticlistening_pa-ka.mp3	pa	ka	1	other
6.6.0	win	2023-06-02	07:11:33	0	0	62c8c2d71e87b86722f0215b	2	1	DL_test	15	DL_test	23			0		ka	0	761	6	4	antiphase_hc_sio.wav	1	6	3	noise_calib_stim_LEFT.wav	1	36	blb_dichoticlistening_ta-ta.mp3	ta	ta	0	other
6.6.0	win	2023-06-02	07:11:33	0	0	62c8c2d71e87b86722f0215b	2	1	DL_test	15	DL_test	24			0		pa	1	945	6	4	antiphase_hc_sio.wav	1	6	3	noise_calib_stim_LEFT.wav	1	5	blb_dichoticlistening_ba-pa.mp3	ba	pa	1	right
6.6.0	win	2023-06-02	07:11:33	0	0	62c8c2d71e87b86722f0215b	2	1	DL_test	15	DL_test	25			0		pa	0	835	6	4	antiphase_hc_sio.wav	1	6	3	noise_calib_stim_LEFT.wav	1	9	blb_dichoticlistening_da-ga.mp3	da	ga	1	other
6.6.0	win	2023-06-02	07:11:33	0	0	62c8c2d71e87b86722f0215b	2	1	DL_test	15	DL_test	26			0		ta	0	1103	6	4	antiphase_hc_sio.wav	1	6	3	noise_calib_stim_LEFT.wav	1	10	blb_dichoticlistening_da-ka.mp3	da	ka	1	other
6.6.0	win	2023-06-02	07:11:33	0	0	62c8c2d71e87b86722f0215b	2	1	DL_test	15	DL_test	27			0		ka	0	665	6	4	antiphase_hc_sio.wav	1	6	3	noise_calib_stim_LEFT.wav	1	6	blb_dichoticlistening_ba-ta.mp3	ba	ta	1	other
6.6.0	win	2023-06-02	07:11:33	0	0	62c8c2d71e87b86722f0215b	2	1	DL_test	15	DL_test	28			0		ka	0	1501	6	4	antiphase_hc_sio.wav	1	6	3	noise_calib_stim_LEFT.wav	1	17	blb_dichoticlistening_ga-pa.mp3	ga	pa	1	other
6.6.0	win	2023-06-02	07:11:33	0	0	62c8c2d71e87b86722f0215b	2	1	DL_test	15	DL_test	29			0		ka	0	981	6	4	antiphase_hc_sio.wav	1	6	3	noise_calib_stim_LEFT.wav	1	31	blb_dichoticlistening_ta-ba.mp3	ta	ba	1	other
6.6.0	win	2023-06-02	07:11:33	0	0	62c8c2d71e87b86722f0215b	2	1	DL_test	15	DL_test	30			0		pa	1	1045	6	4	antiphase_hc_sio.wav	1	6	3	noise_calib_stim_LEFT.wav	1	27	blb_dichoticlistening_pa-ga.mp3	pa	ga	1	left
6.6.0	win	2023-06-02	07:11:33	0	0	62c8c2d71e87b86722f0215b	2	1	DL_test	15	DL_test	31			0		ka	1	1322	6	4	antiphase_hc_sio.wav	1	6	3	noise_calib_stim_LEFT.wav	1	16	blb_dichoticlistening_ga-ka.mp3	ga	ka	1	right
6.6.0	win	2023-06-02	07:11:33	0	0	62c8c2d71e87b86722f0215b	2	1	DL_test	15	DL_test	32			0		ka	1	691	6	4	antiphase_hc_sio.wav	1	6	3	noise_calib_stim_LEFT.wav	1	20	blb_dichoticlistening_ka-da.mp3	ka	da	1	left
6.6.0	win	2023-06-02	07:11:33	0	0	62c8c2d71e87b86722f0215b	2	1	DL_test	15	DL_test	33			0		ka	1	894	6	4	antiphase_hc_sio.wav	1	6	3	noise_calib_stim_LEFT.wav	1	24	blb_dichoticlistening_ka-ta.mp3	ka	ta	1	left
6.6.0	win	2023-06-02	07:11:33	0	0	62c8c2d71e87b86722f0215b	2	1	DL_test	15	DL_test	34			0		ka	0	1009	6	4	antiphase_hc_sio.wav	1	6	3	noise_calib_stim_LEFT.wav	1	18	blb_dichoticlistening_ga-ta.mp3	ga	ta	1	other
6.6.0	win	2023-06-02	07:11:33	0	0	62c8c2d71e87b86722f0215b	2	1	DL_test	15	DL_test	35			0		ta	0	1110	6	4	antiphase_hc_sio.wav	1	6	3	noise_calib_stim_LEFT.wav	1	2	blb_dichoticlistening_ba-da.mp3	ba	da	1	other
6.6.0	win	2023-06-02	07:11:33	0	0	62c8c2d71e87b86722f0215b	2	1	DL_test	15	DL_test	36			0		pa	1	808	6	4	antiphase_hc_sio.wav	1	6	3	noise_calib_stim_LEFT.wav	1	26	blb_dichoticlistening_pa-da.mp3	pa	da	1	left
6.6.0	win	2023-06-02	07:11:33	0	0	62c8c2d71e87b86722f0215b	2	1	DL_test	16	DL_test	1			0		ka	1	864	6	4	antiphase_hc_sio.wav	1	6	3	noise_calib_stim_LEFT.wav	1	21	blb_dichoticlistening_ka-ga.mp3	ka	ga	1	left
6.6.0	win	2023-06-02	07:11:33	0	0	62c8c2d71e87b86722f0215b	2	1	DL_test	16	DL_test	2			0		pa	0	1083	6	4	antiphase_hc_sio.wav	1	6	3	noise_calib_stim_LEFT.wav	1	31	blb_dichoticlistening_ta-ba.mp3	ta	ba	1	other
6.6.0	win	2023-06-02	07:11:33	0	0	62c8c2d71e87b86722f0215b	2	1	DL_test	16	DL_test	3			0		ta	1	758	6	4	antiphase_hc_sio.wav	1	6	3	noise_calib_stim_LEFT.wav	1	12	blb_dichoticlistening_da-ta.mp3	da	ta	1	right
6.6.0	win	2023-06-02	07:11:33	0	0	62c8c2d71e87b86722f0215b	2	1	DL_test	16	DL_test	4			0		ka	0	765	6	4	antiphase_hc_sio.wav	1	6	3	noise_calib_stim_LEFT.wav	1	27	blb_dichoticlistening_pa-ga.mp3	pa	ga	1	other
6.6.0	win	2023-06-02	07:11:33	0	0	62c8c2d71e87b86722f0215b	2	1	DL_test	16	DL_test	5			0		ga	1	677	6	4	antiphase_hc_sio.wav	1	6	3	noise_calib_stim_LEFT.wav	1	9	blb_dichoticlistening_da-ga.mp3	da	ga	1	right
6.6.0	win	2023-06-02	07:11:33	0	0	62c8c2d71e87b86722f0215b	2	1	DL_test	16	DL_test	6			0		ta	0	1321	6	4	antiphase_hc_sio.wav	1	6	3	noise_calib_stim_LEFT.wav	1	10	blb_dichoticlistening_da-ka.mp3	da	ka	1	other
6.6.0	win	2023-06-02	07:11:33	0	0	62c8c2d71e87b86722f0215b	2	1	DL_test	16	DL_test	7			0		ka	0	1121	6	4	antiphase_hc_sio.wav	1	6	3	noise_calib_stim_LEFT.wav	1	32	blb_dichoticlistening_ta-da.mp3	ta	da	1	other
6.6.0	win	2023-06-02	07:11:33	0	0	62c8c2d71e87b86722f0215b	2	1	DL_test	16	DL_test	8			0		ka	0	1660	6	4	antiphase_hc_sio.wav	1	6	3	noise_calib_stim_LEFT.wav	1	29	blb_dichoticlistening_pa-pa.mp3	pa	pa	0	other
6.6.0	win	2023-06-02	07:11:33	0	0	62c8c2d71e87b86722f0215b	2	1	DL_test	16	DL_test	9			0		ka	1	847	6	4	antiphase_hc_sio.wav	1	6	3	noise_calib_stim_LEFT.wav	1	23	blb_dichoticlistening_ka-pa.mp3	ka	pa	1	left
6.6.0	win	2023-06-02	07:11:33	0	0	62c8c2d71e87b86722f0215b	2	1	DL_test	16	DL_test	10			0		ka	0	907	6	4	antiphase_hc_sio.wav	1	6	3	noise_calib_stim_LEFT.wav	1	7	blb_dichoticlistening_da-ba.mp3	da	ba	1	other
6.6.0	win	2023-06-02	07:11:33	0	0	62c8c2d71e87b86722f0215b	2	1	DL_test	16	DL_test	11			0		ka	0	918	6	4	antiphase_hc_sio.wav	1	6	3	noise_calib_stim_LEFT.wav	1	18	blb_dichoticlistening_ga-ta.mp3	ga	ta	1	other
6.6.0	win	2023-06-02	07:11:33	0	0	62c8c2d71e87b86722f0215b	2	1	DL_test	16	DL_test	12			0		ka	1	679	6	4	antiphase_hc_sio.wav	1	6	3	noise_calib_stim_LEFT.wav	1	34	blb_dichoticlistening_ta-ka.mp3	ta	ka	1	right
6.6.0	win	2023-06-02	07:11:33	0	0	62c8c2d71e87b86722f0215b	2	1	DL_test	16	DL_test	13			0		ka	1	1987	6	4	antiphase_hc_sio.wav	1	6	3	noise_calib_stim_LEFT.wav	1	16	blb_dichoticlistening_ga-ka.mp3	ga	ka	1	right
6.6.0	win	2023-06-02	07:11:33	0	0	62c8c2d71e87b86722f0215b	2	1	DL_test	16	DL_test	14			0		pa	0	746	6	4	antiphase_hc_sio.wav	1	6	3	noise_calib_stim_LEFT.wav	1	6	blb_dichoticlistening_ba-ta.mp3	ba	ta	1	other
6.6.0	win	2023-06-02	07:11:33	0	0	62c8c2d71e87b86722f0215b	2	1	DL_test	16	DL_test	15			0		pa	0	826	6	4	antiphase_hc_sio.wav	1	6	3	noise_calib_stim_LEFT.wav	1	1	blb_dichoticlistening_ba-ba.mp3	ba	ba	0	other
6.6.0	win	2023-06-02	07:11:33	0	0	62c8c2d71e87b86722f0215b	2	1	DL_test	16	DL_test	16			0		pa	0	640	6	4	antiphase_hc_sio.wav	1	6	3	noise_calib_stim_LEFT.wav	1	13	blb_dichoticlistening_ga-ba.mp3	ga	ba	1	other
6.6.0	win	2023-06-02	07:11:33	0	0	62c8c2d71e87b86722f0215b	2	1	DL_test	16	DL_test	17			0		ga	1	1404	6	4	antiphase_hc_sio.wav	1	6	3	noise_calib_stim_LEFT.wav	1	14	blb_dichoticlistening_ga-da.mp3	ga	da	1	left
6.6.0	win	2023-06-02	07:11:33	0	0	62c8c2d71e87b86722f0215b	2	1	DL_test	16	DL_test	18			0		pa	0	1331	6	4	antiphase_hc_sio.wav	1	6	3	noise_calib_stim_LEFT.wav	1	3	blb_dichoticlistening_ba-ga.mp3	ba	ga	1	other
6.6.0	win	2023-06-02	07:11:33	0	0	62c8c2d71e87b86722f0215b	2	1	DL_test	16	DL_test	19			0		ka	1	3423	6	4	antiphase_hc_sio.wav	1	6	3	noise_calib_stim_LEFT.wav	1	20	blb_dichoticlistening_ka-da.mp3	ka	da	1	left
6.6.0	win	2023-06-02	07:11:33	0	0	62c8c2d71e87b86722f0215b	2	1	DL_test	16	DL_test	20			0		ka	1	1928	6	4	antiphase_hc_sio.wav	1	6	3	noise_calib_stim_LEFT.wav	1	24	blb_dichoticlistening_ka-ta.mp3	ka	ta	1	left
6.6.0	win	2023-06-02	07:11:33	0	0	62c8c2d71e87b86722f0215b	2	1	DL_test	16	DL_test	21			0		ka	1	1289	6	4	antiphase_hc_sio.wav	1	6	3	noise_calib_stim_LEFT.wav	1	28	blb_dichoticlistening_pa-ka.mp3	pa	ka	1	right
6.6.0	win	2023-06-02	07:11:33	0	0	62c8c2d71e87b86722f0215b	2	1	DL_test	16	DL_test	22			0		ka	0	2012	6	4	antiphase_hc_sio.wav	1	6	3	noise_calib_stim_LEFT.wav	1	8	blb_dichoticlistening_da-da.mp3	da	da	0	other
6.6.0	win	2023-06-02	07:11:33	0	0	62c8c2d71e87b86722f0215b	2	1	DL_test	16	DL_test	23			0		ka	0	850	6	4	antiphase_hc_sio.wav	1	6	3	noise_calib_stim_LEFT.wav	1	33	blb_dichoticlistening_ta-ga.mp3	ta	ga	1	other
6.6.0	win	2023-06-02	07:11:33	0	0	62c8c2d71e87b86722f0215b	2	1	DL_test	16	DL_test	24			0		pa	0	1000	6	4	antiphase_hc_sio.wav	1	6	3	noise_calib_stim_LEFT.wav	1	2	blb_dichoticlistening_ba-da.mp3	ba	da	1	other
6.6.0	win	2023-06-02	07:11:33	0	0	62c8c2d71e87b86722f0215b	2	1	DL_test	16	DL_test	25			0		ka	0	2245	6	4	antiphase_hc_sio.wav	1	6	3	noise_calib_stim_LEFT.wav	1	15	blb_dichoticlistening_ga-ga.mp3	ga	ga	0	other
6.6.0	win	2023-06-02	07:11:33	0	0	62c8c2d71e87b86722f0215b	2	1	DL_test	16	DL_test	26			0		ta	1	4378	6	4	antiphase_hc_sio.wav	1	6	3	noise_calib_stim_LEFT.wav	1	30	blb_dichoticlistening_pa-ta.mp3	pa	ta	1	right
6.6.0	win	2023-06-02	07:11:33	0	0	62c8c2d71e87b86722f0215b	2	1	DL_test	16	DL_test	27			0		ka	1	1353	6	4	antiphase_hc_sio.wav	1	6	3	noise_calib_stim_LEFT.wav	1	19	blb_dichoticlistening_ka-ba.mp3	ka	ba	1	left
6.6.0	win	2023-06-02	07:11:33	0	0	62c8c2d71e87b86722f0215b	2	1	DL_test	16	DL_test	28			0		pa	1	1025	6	4	antiphase_hc_sio.wav	1	6	3	noise_calib_stim_LEFT.wav	1	25	blb_dichoticlistening_pa-ba.mp3	pa	ba	1	left
6.6.0	win	2023-06-02	07:11:33	0	0	62c8c2d71e87b86722f0215b	2	1	DL_test	16	DL_test	29			0		ka	1	1117	6	4	antiphase_hc_sio.wav	1	6	3	noise_calib_stim_LEFT.wav	1	4	blb_dichoticlistening_ba-ka.mp3	ba	ka	1	right
6.6.0	win	2023-06-02	07:11:33	0	0	62c8c2d71e87b86722f0215b	2	1	DL_test	16	DL_test	30			0		ta	0	1239	6	4	antiphase_hc_sio.wav	1	6	3	noise_calib_stim_LEFT.wav	1	5	blb_dichoticlistening_ba-pa.mp3	ba	pa	1	other
6.6.0	win	2023-06-02	07:11:33	0	0	62c8c2d71e87b86722f0215b	2	1	DL_test	16	DL_test	31			0		pa	1	1027	6	4	antiphase_hc_sio.wav	1	6	3	noise_calib_stim_LEFT.wav	1	17	blb_dichoticlistening_ga-pa.mp3	ga	pa	1	right
6.6.0	win	2023-06-02	07:11:33	0	0	62c8c2d71e87b86722f0215b	2	1	DL_test	16	DL_test	32			0		ta	1	1425	6	4	antiphase_hc_sio.wav	1	6	3	noise_calib_stim_LEFT.wav	1	35	blb_dichoticlistening_ta-pa.mp3	ta	pa	1	left
6.6.0	win	2023-06-02	07:11:33	0	0	62c8c2d71e87b86722f0215b	2	1	DL_test	16	DL_test	33			0		ka	1	910	6	4	antiphase_hc_sio.wav	1	6	3	noise_calib_stim_LEFT.wav	1	22	blb_dichoticlistening_ka-ka.mp3	ka	ka	0	left
6.6.0	win	2023-06-02	07:11:33	0	0	62c8c2d71e87b86722f0215b	2	1	DL_test	16	DL_test	34			0		ka	0	1720	6	4	antiphase_hc_sio.wav	1	6	3	noise_calib_stim_LEFT.wav	1	26	blb_dichoticlistening_pa-da.mp3	pa	da	1	other
6.6.0	win	2023-06-02	07:11:33	0	0	62c8c2d71e87b86722f0215b	2	1	DL_test	16	DL_test	35			0		pa	1	1041	6	4	antiphase_hc_sio.wav	1	6	3	noise_calib_stim_LEFT.wav	1	11	blb_dichoticlistening_da-pa.mp3	da	pa	1	right
6.6.0	win	2023-06-02	07:11:33	0	0	62c8c2d71e87b86722f0215b	2	1	DL_test	16	DL_test	36			0		ka	0	1110	6	4	antiphase_hc_sio.wav	1	6	3	noise_calib_stim_LEFT.wav	1	36	blb_dichoticlistening_ta-ta.mp3	ta	ta	0	other
6.6.0	win	2023-06-02	07:11:33	07:22:36	659994	62c8c2d71e87b86722f0215b	2	1	practice_z	22	practice_z	1	stimuli_distractor_trianglediamonds.svg	stimuli_target_diamondrectangles.svg	12	yes	0	0	2000	6	4	antiphase_hc_sio.wav	1	6	3	noise_calib_stim_LEFT.wav	1	36	blb_dichoticlistening_ta-ta.mp3	ta	ta	0	other
6.6.0	win	2023-06-02	07:11:33	07:22:36	659994	62c8c2d71e87b86722f0215b	2	1	practice_z	22	advance_on_keypress_ZEE	2	stimuli_distractor_trianglediamonds.svg	stimuli_target_diamondrectangles.svg	12	yes	57	0	900	6	4	antiphase_hc_sio.wav	1	6	3	noise_calib_stim_LEFT.wav	1	36	blb_dichoticlistening_ta-ta.mp3	ta	ta	0	other
6.6.0	win	2023-06-02	07:11:33	07:22:39	663375	62c8c2d71e87b86722f0215b	2	1	practice_z	22	practice_z	3	stimuli_target_squarediamonds.svg	stimuli_distractor_diamondtriangles.svg	2	yes	44	1	831	6	4	antiphase_hc_sio.wav	1	6	3	noise_calib_stim_LEFT.wav	1	36	blb_dichoticlistening_ta-ta.mp3	ta	ta	0	other
6.6.0	win	2023-06-02	07:11:33	07:22:39	663375	62c8c2d71e87b86722f0215b	2	1	practice_z	22	advance_on_keypress_ZEE	4	stimuli_target_squarediamonds.svg	stimuli_distractor_diamondtriangles.svg	2	yes	57	0	525	6	4	antiphase_hc_sio.wav	1	6	3	noise_calib_stim_LEFT.wav	1	36	blb_dichoticlistening_ta-ta.mp3	ta	ta	0	other
6.6.0	win	2023-06-02	07:11:33	07:22:43	666959	62c8c2d71e87b86722f0215b	2	1	practice_z	22	practice_z	5	stimuli_target_diamondsquares.svg	stimuli_distractor_trianglediamonds.svg	6	yes	44	1	1415	6	4	antiphase_hc_sio.wav	1	6	3	noise_calib_stim_LEFT.wav	1	36	blb_dichoticlistening_ta-ta.mp3	ta	ta	0	other
6.6.0	win	2023-06-02	07:11:33	07:22:43	666959	62c8c2d71e87b86722f0215b	2	1	practice_z	22	advance_on_keypress_ZEE	6	stimuli_target_diamondsquares.svg	stimuli_distractor_trianglediamonds.svg	6	yes	57	0	1118	6	4	antiphase_hc_sio.wav	1	6	3	noise_calib_stim_LEFT.wav	1	36	blb_dichoticlistening_ta-ta.mp3	ta	ta	0	other
6.6.0	win	2023-06-02	07:11:33	07:22:46	670335	62c8c2d71e87b86722f0215b	2	1	practice_z	22	practice_z	7	stimuli_distractor_trianglediamonds.svg	stimuli_target_squarediamonds.svg	11	yes	44	1	608	6	4	antiphase_hc_sio.wav	1	6	3	noise_calib_stim_LEFT.wav	1	36	blb_dichoticlistening_ta-ta.mp3	ta	ta	0	other
6.6.0	win	2023-06-02	07:11:33	07:22:46	670335	62c8c2d71e87b86722f0215b	2	1	practice_z	22	advance_on_keypress_ZEE	8	stimuli_distractor_trianglediamonds.svg	stimuli_target_squarediamonds.svg	11	yes	57	0	799	6	4	antiphase_hc_sio.wav	1	6	3	noise_calib_stim_LEFT.wav	1	36	blb_dichoticlistening_ta-ta.mp3	ta	ta	0	other
6.6.0	win	2023-06-02	07:11:33	07:22:50	674777	62c8c2d71e87b86722f0215b	2	1	practice_z	22	practice_z	9	stimuli_distractor_trianglediamonds.svg	stimuli_distractor_diamondtriangles.svg	16	no	0	1	2000	6	4	antiphase_hc_sio.wav	1	6	3	noise_calib_stim_LEFT.wav	1	36	blb_dichoticlistening_ta-ta.mp3	ta	ta	0	other
6.6.0	win	2023-06-02	07:11:33	07:22:50	674777	62c8c2d71e87b86722f0215b	2	1	practice_z	22	advance_on_keypress_ZEE	10	stimuli_distractor_trianglediamonds.svg	stimuli_distractor_diamondtriangles.svg	16	no	57	0	1957	6	4	antiphase_hc_sio.wav	1	6	3	noise_calib_stim_LEFT.wav	1	36	blb_dichoticlistening_ta-ta.mp3	ta	ta	0	other
6.6.0	win	2023-06-02	07:11:33	07:22:55	679135	62c8c2d71e87b86722f0215b	2	1	practice_z	22	practice_z	11	stimuli_distractor_diamondtriangles.svg	stimuli_target_rectangletriangles.svg	7	yes	44	1	758	6	4	antiphase_hc_sio.wav	1	6	3	noise_calib_stim_LEFT.wav	1	36	blb_dichoticlistening_ta-ta.mp3	ta	ta	0	other
6.6.0	win	2023-06-02	07:11:33	07:22:55	679135	62c8c2d71e87b86722f0215b	2	1	practice_z	22	advance_on_keypress_ZEE	12	stimuli_distractor_diamondtriangles.svg	stimuli_target_rectangletriangles.svg	7	yes	57	0	752	6	4	antiphase_hc_sio.wav	1	6	3	noise_calib_stim_LEFT.wav	1	36	blb_dichoticlistening_ta-ta.mp3	ta	ta	0	other
6.6.0	win	2023-06-02	07:11:33	07:22:58	682048	62c8c2d71e87b86722f0215b	2	1	practice_z	22	practice_z	13	stimuli_distractor_trianglediamonds.svg	stimuli_target_rectanglediamonds.svg	10	yes	44	1	519	6	4	antiphase_hc_sio.wav	1	6	3	noise_calib_stim_LEFT.wav	1	36	blb_dichoticlistening_ta-ta.mp3	ta	ta	0	other
6.6.0	win	2023-06-02	07:11:33	07:22:58	682048	62c8c2d71e87b86722f0215b	2	1	practice_z	22	advance_on_keypress_ZEE	14	stimuli_distractor_trianglediamonds.svg	stimuli_target_rectanglediamonds.svg	10	yes	57	0	626	6	4	antiphase_hc_sio.wav	1	6	3	noise_calib_stim_LEFT.wav	1	36	blb_dichoticlistening_ta-ta.mp3	ta	ta	0	other
6.6.0	win	2023-06-02	07:11:33	07:23:02	686310	62c8c2d71e87b86722f0215b	2	1	practice_z	22	practice_z	15	stimuli_distractor_diamondtriangles.svg	stimuli_distractor_trianglediamonds.svg	14	no	0	1	2000	6	4	antiphase_hc_sio.wav	1	6	3	noise_calib_stim_LEFT.wav	1	36	blb_dichoticlistening_ta-ta.mp3	ta	ta	0	other
6.6.0	win	2023-06-02	07:11:33	07:23:02	686310	62c8c2d71e87b86722f0215b	2	1	practice_z	22	advance_on_keypress_ZEE	16	stimuli_distractor_diamondtriangles.svg	stimuli_distractor_trianglediamonds.svg	14	no	57	0	920	6	4	antiphase_hc_sio.wav	1	6	3	noise_calib_stim_LEFT.wav	1	36	blb_dichoticlistening_ta-ta.mp3	ta	ta	0	other
6.6.0	win	2023-06-02	07:11:33	07:23:06	690877	62c8c2d71e87b86722f0215b	2	1	practice_z	22	practice_z	17	stimuli_distractor_diamondtriangles.svg	stimuli_distractor_diamondtriangles.svg	13	no	0	1	2000	6	4	antiphase_hc_sio.wav	1	6	3	noise_calib_stim_LEFT.wav	1	36	blb_dichoticlistening_ta-ta.mp3	ta	ta	0	other
6.6.0	win	2023-06-02	07:11:33	07:23:06	690877	62c8c2d71e87b86722f0215b	2	1	practice_z	22	advance_on_keypress_ZEE	18	stimuli_distractor_diamondtriangles.svg	stimuli_distractor_diamondtriangles.svg	13	no	57	0	513	6	4	antiphase_hc_sio.wav	1	6	3	noise_calib_stim_LEFT.wav	1	36	blb_dichoticlistening_ta-ta.mp3	ta	ta	0	other
6.6.0	win	2023-06-02	07:11:33	07:23:10	694199	62c8c2d71e87b86722f0215b	2	1	practice_z	22	practice_z	19	stimuli_distractor_diamondtriangles.svg	stimuli_target_diamondrectangles.svg	8	yes	44	1	1155	6	4	antiphase_hc_sio.wav	1	6	3	noise_calib_stim_LEFT.wav	1	36	blb_dichoticlistening_ta-ta.mp3	ta	ta	0	other
6.6.0	win	2023-06-02	07:11:33	07:23:10	694199	62c8c2d71e87b86722f0215b	2	1	practice_z	22	advance_on_keypress_ZEE	20	stimuli_distractor_diamondtriangles.svg	stimuli_target_diamondrectangles.svg	8	yes	57	0	564	6	4	antiphase_hc_sio.wav	1	6	3	noise_calib_stim_LEFT.wav	1	36	blb_dichoticlistening_ta-ta.mp3	ta	ta	0	other
6.6.0	win	2023-06-02	07:11:33	07:23:14	698411	62c8c2d71e87b86722f0215b	2	1	practice_z	22	practice_z	21	stimuli_distractor_trianglediamonds.svg	stimuli_distractor_trianglediamonds.svg	15	no	0	1	2000	6	4	antiphase_hc_sio.wav	1	6	3	noise_calib_stim_LEFT.wav	1	36	blb_dichoticlistening_ta-ta.mp3	ta	ta	0	other
6.6.0	win	2023-06-02	07:11:33	07:23:14	698411	62c8c2d71e87b86722f0215b	2	1	practice_z	22	advance_on_keypress_ZEE	22	stimuli_distractor_trianglediamonds.svg	stimuli_distractor_trianglediamonds.svg	15	no	57	0	596	6	4	antiphase_hc_sio.wav	1	6	3	noise_calib_stim_LEFT.wav	1	36	blb_dichoticlistening_ta-ta.mp3	ta	ta	0	other
6.6.0	win	2023-06-02	07:11:33	07:23:17	701608	62c8c2d71e87b86722f0215b	2	1	practice_z	22	practice_z	23	stimuli_target_rectanglediamonds.svg	stimuli_distractor_diamondtriangles.svg	1	yes	44	1	946	6	4	antiphase_hc_sio.wav	1	6	3	noise_calib_stim_LEFT.wav	1	36	blb_dichoticlistening_ta-ta.mp3	ta	ta	0	other
6.6.0	win	2023-06-02	07:11:33	07:23:17	701608	62c8c2d71e87b86722f0215b	2	1	practice_z	22	advance_on_keypress_ZEE	24	stimuli_target_rectanglediamonds.svg	stimuli_distractor_diamondtriangles.svg	1	yes	57	0	540	6	4	antiphase_hc_sio.wav	1	6	3	noise_calib_stim_LEFT.wav	1	36	blb_dichoticlistening_ta-ta.mp3	ta	ta	0	other
6.6.0	win	2023-06-02	07:11:33	07:23:20	704663	62c8c2d71e87b86722f0215b	2	1	practice_z	22	practice_z	25	stimuli_target_rectanglediamonds.svg	stimuli_distractor_trianglediamonds.svg	4	yes	44	1	869	6	4	antiphase_hc_sio.wav	1	6	3	noise_calib_stim_LEFT.wav	1	36	blb_dichoticlistening_ta-ta.mp3	ta	ta	0	other
6.6.0	win	2023-06-02	07:11:33	07:23:20	704663	62c8c2d71e87b86722f0215b	2	1	practice_z	22	advance_on_keypress_ZEE	26	stimuli_target_rectanglediamonds.svg	stimuli_distractor_trianglediamonds.svg	4	yes	57	0	610	6	4	antiphase_hc_sio.wav	1	6	3	noise_calib_stim_LEFT.wav	1	36	blb_dichoticlistening_ta-ta.mp3	ta	ta	0	other
6.6.0	win	2023-06-02	07:11:33	07:23:23	707895	62c8c2d71e87b86722f0215b	2	1	practice_z	22	practice_z	27	stimuli_target_diamondsquares.svg	stimuli_distractor_diamondtriangles.svg	3	yes	44	1	984	6	4	antiphase_hc_sio.wav	1	6	3	noise_calib_stim_LEFT.wav	1	36	blb_dichoticlistening_ta-ta.mp3	ta	ta	0	other
6.6.0	win	2023-06-02	07:11:33	07:23:23	707895	62c8c2d71e87b86722f0215b	2	1	practice_z	22	advance_on_keypress_ZEE	28	stimuli_target_diamondsquares.svg	stimuli_distractor_diamondtriangles.svg	3	yes	57	0	592	6	4	antiphase_hc_sio.wav	1	6	3	noise_calib_stim_LEFT.wav	1	36	blb_dichoticlistening_ta-ta.mp3	ta	ta	0	other
6.6.0	win	2023-06-02	07:11:33	07:23:26	710903	62c8c2d71e87b86722f0215b	2	1	practice_z	22	practice_z	29	stimuli_target_squarediamonds.svg	stimuli_distractor_trianglediamonds.svg	5	yes	44	1	775	6	4	antiphase_hc_sio.wav	1	6	3	noise_calib_stim_LEFT.wav	1	36	blb_dichoticlistening_ta-ta.mp3	ta	ta	0	other
6.6.0	win	2023-06-02	07:11:33	07:23:26	710903	62c8c2d71e87b86722f0215b	2	1	practice_z	22	advance_on_keypress_ZEE	30	stimuli_target_squarediamonds.svg	stimuli_distractor_trianglediamonds.svg	5	yes	57	0	672	6	4	antiphase_hc_sio.wav	1	6	3	noise_calib_stim_LEFT.wav	1	36	blb_dichoticlistening_ta-ta.mp3	ta	ta	0	other
6.6.0	win	2023-06-02	07:11:33	07:23:29	713832	62c8c2d71e87b86722f0215b	2	1	practice_z	22	practice_z	31	stimuli_distractor_diamondtriangles.svg	stimuli_target_trianglerectangles.svg	9	yes	44	1	620	6	4	antiphase_hc_sio.wav	1	6	3	noise_calib_stim_LEFT.wav	1	36	blb_dichoticlistening_ta-ta.mp3	ta	ta	0	other
6.6.0	win	2023-06-02	07:11:33	07:23:29	713832	62c8c2d71e87b86722f0215b	2	1	practice_z	22	advance_on_keypress_ZEE	32	stimuli_distractor_diamondtriangles.svg	stimuli_target_trianglerectangles.svg	9	yes	57	0	403	6	4	antiphase_hc_sio.wav	1	6	3	noise_calib_stim_LEFT.wav	1	36	blb_dichoticlistening_ta-ta.mp3	ta	ta	0	other
6.6.0	win	2023-06-02	07:11:33	07:23:37	721589	62c8c2d71e87b86722f0215b	2	1	main_z	24	main_z	1	stimuli_distractor_diamondtriangles.svg	stimuli_target_trianglesquares.svg	30	yes	44	1	813	6	4	antiphase_hc_sio.wav	1	6	3	noise_calib_stim_LEFT.wav	1	36	blb_dichoticlistening_ta-ta.mp3	ta	ta	0	other
6.6.0	win	2023-06-02	07:11:33	07:23:37	721589	62c8c2d71e87b86722f0215b	2	1	main_z	24	advance_on_keypress_ZEE	2	stimuli_distractor_diamondtriangles.svg	stimuli_target_trianglesquares.svg	30	yes	57	0	844	6	4	antiphase_hc_sio.wav	1	6	3	noise_calib_stim_LEFT.wav	1	36	blb_dichoticlistening_ta-ta.mp3	ta	ta	0	other
6.6.0	win	2023-06-02	07:11:33	07:23:41	725075	62c8c2d71e87b86722f0215b	2	1	main_z	24	main_z	3	stimuli_distractor_trianglediamonds.svg	stimuli_distractor_diamondtriangles.svg	35	no	0	1	2000	6	4	antiphase_hc_sio.wav	1	6	3	noise_calib_stim_LEFT.wav	1	36	blb_dichoticlistening_ta-ta.mp3	ta	ta	0	other
6.6.0	win	2023-06-02	07:11:33	07:23:41	725075	62c8c2d71e87b86722f0215b	2	1	main_z	24	advance_on_keypress_ZEE	4	stimuli_distractor_trianglediamonds.svg	stimuli_distractor_diamondtriangles.svg	35	no	57	0	153	6	4	antiphase_hc_sio.wav	1	6	3	noise_calib_stim_LEFT.wav	1	36	blb_dichoticlistening_ta-ta.mp3	ta	ta	0	other
6.6.0	win	2023-06-02	07:11:33	07:23:42	726677	62c8c2d71e87b86722f0215b	2	1	main_z	24	main_z	5	stimuli_distractor_trianglediamonds.svg	stimuli_target_squaretriangles.svg	11	yes	44	1	802	6	4	antiphase_hc_sio.wav	1	6	3	noise_calib_stim_LEFT.wav	1	36	blb_dichoticlistening_ta-ta.mp3	ta	ta	0	other
6.6.0	win	2023-06-02	07:11:33	07:23:42	726677	62c8c2d71e87b86722f0215b	2	1	main_z	24	advance_on_keypress_ZEE	6	stimuli_distractor_trianglediamonds.svg	stimuli_target_squaretriangles.svg	11	yes	57	0	753	6	4	antiphase_hc_sio.wav	1	6	3	noise_calib_stim_LEFT.wav	1	36	blb_dichoticlistening_ta-ta.mp3	ta	ta	0	other
6.6.0	win	2023-06-02	07:11:33	07:23:45	729117	62c8c2d71e87b86722f0215b	2	1	main_z	24	main_z	7	stimuli_distractor_diamondtriangles.svg	stimuli_target_rectangletriangles.svg	13	yes	44	1	1042	6	4	antiphase_hc_sio.wav	1	6	3	noise_calib_stim_LEFT.wav	1	36	blb_dichoticlistening_ta-ta.mp3	ta	ta	0	other
6.6.0	win	2023-06-02	07:11:33	07:23:45	729117	62c8c2d71e87b86722f0215b	2	1	main_z	24	advance_on_keypress_ZEE	8	stimuli_distractor_diamondtriangles.svg	stimuli_target_rectangletriangles.svg	13	yes	57	0	832	6	4	antiphase_hc_sio.wav	1	6	3	noise_calib_stim_LEFT.wav	1	36	blb_dichoticlistening_ta-ta.mp3	ta	ta	0	other
6.6.0	win	2023-06-02	07:11:33	07:23:47	731205	62c8c2d71e87b86722f0215b	2	1	main_z	24	main_z	9	stimuli_distractor_trianglediamonds.svg	stimuli_target_trianglerectangles.svg	25	yes	44	1	613	6	4	antiphase_hc_sio.wav	1	6	3	noise_calib_stim_LEFT.wav	1	36	blb_dichoticlistening_ta-ta.mp3	ta	ta	0	other
6.6.0	win	2023-06-02	07:11:33	07:23:47	731205	62c8c2d71e87b86722f0215b	2	1	main_z	24	advance_on_keypress_ZEE	10	stimuli_distractor_trianglediamonds.svg	stimuli_target_trianglerectangles.svg	25	yes	57	0	1107	6	4	antiphase_hc_sio.wav	1	6	3	noise_calib_stim_LEFT.wav	1	36	blb_dichoticlistening_ta-ta.mp3	ta	ta	0	other
6.6.0	win	2023-06-02	07:11:33	07:23:49	733565	62c8c2d71e87b86722f0215b	2	1	main_z	24	main_z	11	stimuli_target_squaretriangles.svg	stimuli_distractor_diamondtriangles.svg	7	yes	44	1	606	6	4	antiphase_hc_sio.wav	1	6	3	noise_calib_stim_LEFT.wav	1	36	blb_dichoticlistening_ta-ta.mp3	ta	ta	0	other
6.6.0	win	2023-06-02	07:11:33	07:23:49	733565	62c8c2d71e87b86722f0215b	2	1	main_z	24	advance_on_keypress_ZEE	12	stimuli_target_squaretriangles.svg	stimuli_distractor_diamondtriangles.svg	7	yes	57	0	1254	6	4	antiphase_hc_sio.wav	1	6	3	noise_calib_stim_LEFT.wav	1	36	blb_dichoticlistening_ta-ta.mp3	ta	ta	0	other
6.6.0	win	2023-06-02	07:11:33	07:23:52	736125	62c8c2d71e87b86722f0215b	2	1	main_z	24	main_z	13	stimuli_target_rectanglediamonds.svg	stimuli_distractor_trianglediamonds.svg	2	yes	44	1	666	6	4	antiphase_hc_sio.wav	1	6	3	noise_calib_stim_LEFT.wav	1	36	blb_dichoticlistening_ta-ta.mp3	ta	ta	0	other
6.6.0	win	2023-06-02	07:11:33	07:23:52	736125	62c8c2d71e87b86722f0215b	2	1	main_z	24	advance_on_keypress_ZEE	14	stimuli_target_rectanglediamonds.svg	stimuli_distractor_trianglediamonds.svg	2	yes	57	0	1079	6	4	antiphase_hc_sio.wav	1	6	3	noise_calib_stim_LEFT.wav	1	36	blb_dichoticlistening_ta-ta.mp3	ta	ta	0	other
6.6.0	win	2023-06-02	07:11:33	07:23:54	738341	62c8c2d71e87b86722f0215b	2	1	main_z	24	main_z	15	stimuli_distractor_diamondtriangles.svg	stimuli_target_trianglerectangles.svg	29	yes	44	1	482	6	4	antiphase_hc_sio.wav	1	6	3	noise_calib_stim_LEFT.wav	1	36	blb_dichoticlistening_ta-ta.mp3	ta	ta	0	other
6.6.0	win	2023-06-02	07:11:33	07:23:54	738341	62c8c2d71e87b86722f0215b	2	1	main_z	24	advance_on_keypress_ZEE	16	stimuli_distractor_diamondtriangles.svg	stimuli_target_trianglerectangles.svg	29	yes	57	0	566	6	4	antiphase_hc_sio.wav	1	6	3	noise_calib_stim_LEFT.wav	1	36	blb_dichoticlistening_ta-ta.mp3	ta	ta	0	other
6.6.0	win	2023-06-02	07:11:33	07:23:56	740189	62c8c2d71e87b86722f0215b	2	1	main_z	24	main_z	17	stimuli_distractor_trianglediamonds.svg	stimuli_target_diamondrectangles.svg	27	yes	44	1	630	6	4	antiphase_hc_sio.wav	1	6	3	noise_calib_stim_LEFT.wav	1	36	blb_dichoticlistening_ta-ta.mp3	ta	ta	0	other
6.6.0	win	2023-06-02	07:11:33	07:23:56	740189	62c8c2d71e87b86722f0215b	2	1	main_z	24	advance_on_keypress_ZEE	18	stimuli_distractor_trianglediamonds.svg	stimuli_target_diamondrectangles.svg	27	yes	57	0	684	6	4	antiphase_hc_sio.wav	1	6	3	noise_calib_stim_LEFT.wav	1	36	blb_dichoticlistening_ta-ta.mp3	ta	ta	0	other
6.6.0	win	2023-06-02	07:11:33	07:23:59	743525	62c8c2d71e87b86722f0215b	2	1	main_z	24	main_z	19	stimuli_distractor_diamondtriangles.svg	stimuli_target_rectanglediamonds.svg	14	yes	0	0	2000	6	4	antiphase_hc_sio.wav	1	6	3	noise_calib_stim_LEFT.wav	1	36	blb_dichoticlistening_ta-ta.mp3	ta	ta	0	other
6.6.0	win	2023-06-02	07:11:33	07:23:59	743525	62c8c2d71e87b86722f0215b	2	1	main_z	24	advance_on_keypress_ZEE	20	stimuli_distractor_diamondtriangles.svg	stimuli_target_rectanglediamonds.svg	14	yes	57	0	103	6	4	antiphase_hc_sio.wav	1	6	3	noise_calib_stim_LEFT.wav	1	36	blb_dichoticlistening_ta-ta.mp3	ta	ta	0	other
6.6.0	win	2023-06-02	07:11:33	07:24:00	744925	62c8c2d71e87b86722f0215b	2	1	main_z	24	main_z	21	stimuli_distractor_trianglediamonds.svg	stimuli_target_squarediamonds.svg	12	yes	44	1	649	6	4	antiphase_hc_sio.wav	1	6	3	noise_calib_stim_LEFT.wav	1	36	blb_dichoticlistening_ta-ta.mp3	ta	ta	0	other
6.6.0	win	2023-06-02	07:11:33	07:24:00	744925	62c8c2d71e87b86722f0215b	2	1	main_z	24	advance_on_keypress_ZEE	22	stimuli_distractor_trianglediamonds.svg	stimuli_target_squarediamonds.svg	12	yes	57	0	535	6	4	antiphase_hc_sio.wav	1	6	3	noise_calib_stim_LEFT.wav	1	36	blb_dichoticlistening_ta-ta.mp3	ta	ta	0	other
6.6.0	win	2023-06-02	07:11:33	07:24:02	746797	62c8c2d71e87b86722f0215b	2	1	main_z	24	main_z	23	stimuli_distractor_diamondtriangles.svg	stimuli_target_diamondsquares.svg	32	yes	44	1	688	6	4	antiphase_hc_sio.wav	1	6	3	noise_calib_stim_LEFT.wav	1	36	blb_dichoticlistening_ta-ta.mp3	ta	ta	0	other
6.6.0	win	2023-06-02	07:11:33	07:24:02	746797	62c8c2d71e87b86722f0215b	2	1	main_z	24	advance_on_keypress_ZEE	24	stimuli_distractor_diamondtriangles.svg	stimuli_target_diamondsquares.svg	32	yes	57	0	652	6	4	antiphase_hc_sio.wav	1	6	3	noise_calib_stim_LEFT.wav	1	36	blb_dichoticlistening_ta-ta.mp3	ta	ta	0	other
6.6.0	win	2023-06-02	07:11:33	07:24:06	750092	62c8c2d71e87b86722f0215b	2	1	main_z	24	main_z	25	stimuli_distractor_trianglediamonds.svg	stimuli_distractor_trianglediamonds.svg	34	no	0	1	2000	6	4	antiphase_hc_sio.wav	1	6	3	noise_calib_stim_LEFT.wav	1	36	blb_dichoticlistening_ta-ta.mp3	ta	ta	0	other
6.6.0	win	2023-06-02	07:11:33	07:24:06	750092	62c8c2d71e87b86722f0215b	2	1	main_z	24	advance_on_keypress_ZEE	26	stimuli_distractor_trianglediamonds.svg	stimuli_distractor_trianglediamonds.svg	34	no	57	0	544	6	4	antiphase_hc_sio.wav	1	6	3	noise_calib_stim_LEFT.wav	1	36	blb_dichoticlistening_ta-ta.mp3	ta	ta	0	other
6.6.0	win	2023-06-02	07:11:33	07:24:07	751733	62c8c2d71e87b86722f0215b	2	1	main_z	24	main_z	27	stimuli_target_rectangletriangles.svg	stimuli_distractor_diamondtriangles.svg	5	yes	44	1	457	6	4	antiphase_hc_sio.wav	1	6	3	noise_calib_stim_LEFT.wav	1	36	blb_dichoticlistening_ta-ta.mp3	ta	ta	0	other
6.6.0	win	2023-06-02	07:11:33	07:24:07	751733	62c8c2d71e87b86722f0215b	2	1	main_z	24	advance_on_keypress_ZEE	28	stimuli_target_rectangletriangles.svg	stimuli_distractor_diamondtriangles.svg	5	yes	57	0	623	6	4	antiphase_hc_sio.wav	1	6	3	noise_calib_stim_LEFT.wav	1	36	blb_dichoticlistening_ta-ta.mp3	ta	ta	0	other
6.6.0	win	2023-06-02	07:11:33	07:24:09	753533	62c8c2d71e87b86722f0215b	2	1	main_z	24	main_z	29	stimuli_distractor_diamondtriangles.svg	stimuli_target_squarediamonds.svg	16	yes	44	1	541	6	4	antiphase_hc_sio.wav	1	6	3	noise_calib_stim_LEFT.wav	1	36	blb_dichoticlistening_ta-ta.mp3	ta	ta	0	other
6.6.0	win	2023-06-02	07:11:33	07:24:09	753533	62c8c2d71e87b86722f0215b	2	1	main_z	24	advance_on_keypress_ZEE	30	stimuli_distractor_diamondtriangles.svg	stimuli_target_squarediamonds.svg	16	yes	57	0	815	6	4	antiphase_hc_sio.wav	1	6	3	noise_calib_stim_LEFT.wav	1	36	blb_dichoticlistening_ta-ta.mp3	ta	ta	0	other
6.6.0	win	2023-06-02	07:11:33	07:24:11	755413	62c8c2d71e87b86722f0215b	2	1	main_z	24	main_z	31	stimuli_target_squarediamonds.svg	stimuli_distractor_trianglediamonds.svg	4	yes	44	1	421	6	4	antiphase_hc_sio.wav	1	6	3	noise_calib_stim_LEFT.wav	1	36	blb_dichoticlistening_ta-ta.mp3	ta	ta	0	other
6.6.0	win	2023-06-02	07:11:33	07:24:11	755413	62c8c2d71e87b86722f0215b	2	1	main_z	24	advance_on_keypress_ZEE	32	stimuli_target_squarediamonds.svg	stimuli_distractor_trianglediamonds.svg	4	yes	57	0	700	6	4	antiphase_hc_sio.wav	1	6	3	noise_calib_stim_LEFT.wav	1	36	blb_dichoticlistening_ta-ta.mp3	ta	ta	0	other
6.6.0	win	2023-06-02	07:11:33	07:24:13	757143	62c8c2d71e87b86722f0215b	2	1	main_z	24	main_z	33	stimuli_target_rectangletriangles.svg	stimuli_distractor_trianglediamonds.svg	1	yes	44	1	382	6	4	antiphase_hc_sio.wav	1	6	3	noise_calib_stim_LEFT.wav	1	36	blb_dichoticlistening_ta-ta.mp3	ta	ta	0	other
6.6.0	win	2023-06-02	07:11:33	07:24:13	757143	62c8c2d71e87b86722f0215b	2	1	main_z	24	advance_on_keypress_ZEE	34	stimuli_target_rectangletriangles.svg	stimuli_distractor_trianglediamonds.svg	1	yes	57	0	646	6	4	antiphase_hc_sio.wav	1	6	3	noise_calib_stim_LEFT.wav	1	36	blb_dichoticlistening_ta-ta.mp3	ta	ta	0	other
6.6.0	win	2023-06-02	07:11:33	07:24:14	758805	62c8c2d71e87b86722f0215b	2	1	main_z	24	main_z	35	stimuli_target_squarediamonds.svg	stimuli_distractor_diamondtriangles.svg	8	yes	44	1	363	6	4	antiphase_hc_sio.wav	1	6	3	noise_calib_stim_LEFT.wav	1	36	blb_dichoticlistening_ta-ta.mp3	ta	ta	0	other
6.6.0	win	2023-06-02	07:11:33	07:24:14	758805	62c8c2d71e87b86722f0215b	2	1	main_z	24	advance_on_keypress_ZEE	36	stimuli_target_squarediamonds.svg	stimuli_distractor_diamondtriangles.svg	8	yes	57	0	691	6	4	antiphase_hc_sio.wav	1	6	3	noise_calib_stim_LEFT.wav	1	36	blb_dichoticlistening_ta-ta.mp3	ta	ta	0	other
6.6.0	win	2023-06-02	07:11:33	07:24:16	760613	62c8c2d71e87b86722f0215b	2	1	main_z	24	main_z	37	stimuli_target_trianglerectangles.svg	stimuli_distractor_trianglediamonds.svg	17	yes	44	1	471	6	4	antiphase_hc_sio.wav	1	6	3	noise_calib_stim_LEFT.wav	1	36	blb_dichoticlistening_ta-ta.mp3	ta	ta	0	other
6.6.0	win	2023-06-02	07:11:33	07:24:16	760613	62c8c2d71e87b86722f0215b	2	1	main_z	24	advance_on_keypress_ZEE	38	stimuli_target_trianglerectangles.svg	stimuli_distractor_trianglediamonds.svg	17	yes	57	0	715	6	4	antiphase_hc_sio.wav	1	6	3	noise_calib_stim_LEFT.wav	1	36	blb_dichoticlistening_ta-ta.mp3	ta	ta	0	other
6.6.0	win	2023-06-02	07:11:33	07:24:18	762341	62c8c2d71e87b86722f0215b	2	1	main_z	24	main_z	39	stimuli_target_trianglerectangles.svg	stimuli_distractor_diamondtriangles.svg	21	yes	44	1	365	6	4	antiphase_hc_sio.wav	1	6	3	noise_calib_stim_LEFT.wav	1	36	blb_dichoticlistening_ta-ta.mp3	ta	ta	0	other
6.6.0	win	2023-06-02	07:11:33	07:24:18	762341	62c8c2d71e87b86722f0215b	2	1	main_z	24	advance_on_keypress_ZEE	40	stimuli_target_trianglerectangles.svg	stimuli_distractor_diamondtriangles.svg	21	yes	57	0	878	6	4	antiphase_hc_sio.wav	1	6	3	noise_calib_stim_LEFT.wav	1	36	blb_dichoticlistening_ta-ta.mp3	ta	ta	0	other
6.6.0	win	2023-06-02	07:11:33	07:24:20	764245	62c8c2d71e87b86722f0215b	2	1	main_z	24	main_z	41	stimuli_target_diamondsquares.svg	stimuli_distractor_diamondtriangles.svg	24	yes	44	1	386	6	4	antiphase_hc_sio.wav	1	6	3	noise_calib_stim_LEFT.wav	1	36	blb_dichoticlistening_ta-ta.mp3	ta	ta	0	other
6.6.0	win	2023-06-02	07:11:33	07:24:20	764245	62c8c2d71e87b86722f0215b	2	1	main_z	24	advance_on_keypress_ZEE	42	stimuli_target_diamondsquares.svg	stimuli_distractor_diamondtriangles.svg	24	yes	57	0	730	6	4	antiphase_hc_sio.wav	1	6	3	noise_calib_stim_LEFT.wav	1	36	blb_dichoticlistening_ta-ta.mp3	ta	ta	0	other
6.6.0	win	2023-06-02	07:11:33	07:24:22	766061	62c8c2d71e87b86722f0215b	2	1	main_z	24	main_z	43	stimuli_target_diamondrectangles.svg	stimuli_distractor_trianglediamonds.svg	19	yes	44	1	435	6	4	antiphase_hc_sio.wav	1	6	3	noise_calib_stim_LEFT.wav	1	36	blb_dichoticlistening_ta-ta.mp3	ta	ta	0	other
6.6.0	win	2023-06-02	07:11:33	07:24:22	766061	62c8c2d71e87b86722f0215b	2	1	main_z	24	advance_on_keypress_ZEE	44	stimuli_target_diamondrectangles.svg	stimuli_distractor_trianglediamonds.svg	19	yes	57	0	753	6	4	antiphase_hc_sio.wav	1	6	3	noise_calib_stim_LEFT.wav	1	36	blb_dichoticlistening_ta-ta.mp3	ta	ta	0	other
6.6.0	win	2023-06-02	07:11:33	07:24:23	767781	62c8c2d71e87b86722f0215b	2	1	main_z	24	main_z	45	stimuli_distractor_diamondtriangles.svg	stimuli_distractor_trianglediamonds.svg	37	no	44	0	322	6	4	antiphase_hc_sio.wav	1	6	3	noise_calib_stim_LEFT.wav	1	36	blb_dichoticlistening_ta-ta.mp3	ta	ta	0	other
6.6.0	win	2023-06-02	07:11:33	07:24:23	767781	62c8c2d71e87b86722f0215b	2	1	main_z	24	advance_on_keypress_ZEE	46	stimuli_distractor_diamondtriangles.svg	stimuli_distractor_trianglediamonds.svg	37	no	57	0	957	6	4	antiphase_hc_sio.wav	1	6	3	noise_calib_stim_LEFT.wav	1	36	blb_dichoticlistening_ta-ta.mp3	ta	ta	0	other
6.6.0	win	2023-06-02	07:11:33	07:24:27	771375	62c8c2d71e87b86722f0215b	2	1	main_z	24	main_z	47	stimuli_distractor_trianglediamonds.svg	stimuli_distractor_diamondtriangles.svg	36	no	0	1	2000	6	4	antiphase_hc_sio.wav	1	6	3	noise_calib_stim_LEFT.wav	1	36	blb_dichoticlistening_ta-ta.mp3	ta	ta	0	other
6.6.0	win	2023-06-02	07:11:33	07:24:27	771375	62c8c2d71e87b86722f0215b	2	1	main_z	24	advance_on_keypress_ZEE	48	stimuli_distractor_trianglediamonds.svg	stimuli_distractor_diamondtriangles.svg	36	no	57	0	461	6	4	antiphase_hc_sio.wav	1	6	3	noise_calib_stim_LEFT.wav	1	36	blb_dichoticlistening_ta-ta.mp3	ta	ta	0	other
6.6.0	win	2023-06-02	07:11:33	07:24:28	772877	62c8c2d71e87b86722f0215b	2	1	main_z	24	main_z	49	stimuli_distractor_trianglediamonds.svg	stimuli_target_diamondsquares.svg	28	yes	44	1	401	6	4	antiphase_hc_sio.wav	1	6	3	noise_calib_stim_LEFT.wav	1	36	blb_dichoticlistening_ta-ta.mp3	ta	ta	0	other
6.6.0	win	2023-06-02	07:11:33	07:24:28	772877	62c8c2d71e87b86722f0215b	2	1	main_z	24	advance_on_keypress_ZEE	50	stimuli_distractor_trianglediamonds.svg	stimuli_target_diamondsquares.svg	28	yes	57	0	609	6	4	antiphase_hc_sio.wav	1	6	3	noise_calib_stim_LEFT.wav	1	36	blb_dichoticlistening_ta-ta.mp3	ta	ta	0	other
6.6.0	win	2023-06-02	07:11:33	07:24:32	776125	62c8c2d71e87b86722f0215b	2	1	main_z	24	main_z	51	stimuli_distractor_diamondtriangles.svg	stimuli_distractor_diamondtriangles.svg	39	no	0	1	2000	6	4	antiphase_hc_sio.wav	1	6	3	noise_calib_stim_LEFT.wav	1	36	blb_dichoticlistening_ta-ta.mp3	ta	ta	0	other
6.6.0	win	2023-06-02	07:11:33	07:24:32	776125	62c8c2d71e87b86722f0215b	2	1	main_z	24	advance_on_keypress_ZEE	52	stimuli_distractor_diamondtriangles.svg	stimuli_distractor_diamondtriangles.svg	39	no	57	0	727	6	4	antiphase_hc_sio.wav	1	6	3	noise_calib_stim_LEFT.wav	1	36	blb_dichoticlistening_ta-ta.mp3	ta	ta	0	other
6.6.0	win	2023-06-02	07:11:33	07:24:34	777989	62c8c2d71e87b86722f0215b	2	1	main_z	24	main_z	53	stimuli_distractor_diamondtriangles.svg	stimuli_target_squaretriangles.svg	15	yes	44	1	497	6	4	antiphase_hc_sio.wav	1	6	3	noise_calib_stim_LEFT.wav	1	36	blb_dichoticlistening_ta-ta.mp3	ta	ta	0	other
6.6.0	win	2023-06-02	07:11:33	07:24:34	777989	62c8c2d71e87b86722f0215b	2	1	main_z	24	advance_on_keypress_ZEE	54	stimuli_distractor_diamondtriangles.svg	stimuli_target_squaretriangles.svg	15	yes	57	0	708	6	4	antiphase_hc_sio.wav	1	6	3	noise_calib_stim_LEFT.wav	1	36	blb_dichoticlistening_ta-ta.mp3	ta	ta	0	other
6.6.0	win	2023-06-02	07:11:33	07:24:36	780205	62c8c2d71e87b86722f0215b	2	1	main_z	24	main_z	55	stimuli_target_trianglesquares.svg	stimuli_distractor_diamondtriangles.svg	22	yes	44	1	863	6	4	antiphase_hc_sio.wav	1	6	3	noise_calib_stim_LEFT.wav	1	36	blb_dichoticlistening_ta-ta.mp3	ta	ta	0	other
6.6.0	win	2023-06-02	07:11:33	07:24:36	780205	62c8c2d71e87b86722f0215b	2	1	main_z	24	advance_on_keypress_ZEE	56	stimuli_target_trianglesquares.svg	stimuli_distractor_diamondtriangles.svg	22	yes	57	0	723	6	4	antiphase_hc_sio.wav	1	6	3	noise_calib_stim_LEFT.wav	1	36	blb_dichoticlistening_ta-ta.mp3	ta	ta	0	other
6.6.0	win	2023-06-02	07:11:33	07:24:39	783575	62c8c2d71e87b86722f0215b	2	1	main_z	24	main_z	57	stimuli_distractor_diamondtriangles.svg	stimuli_distractor_trianglediamonds.svg	38	no	0	1	2000	6	4	antiphase_hc_sio.wav	1	6	3	noise_calib_stim_LEFT.wav	1	36	blb_dichoticlistening_ta-ta.mp3	ta	ta	0	other
6.6.0	win	2023-06-02	07:11:33	07:24:39	783575	62c8c2d71e87b86722f0215b	2	1	main_z	24	advance_on_keypress_ZEE	58	stimuli_distractor_diamondtriangles.svg	stimuli_distractor_trianglediamonds.svg	38	no	57	0	557	6	4	antiphase_hc_sio.wav	1	6	3	noise_calib_stim_LEFT.wav	1	36	blb_dichoticlistening_ta-ta.mp3	ta	ta	0	other
6.6.0	win	2023-06-02	07:11:33	07:24:41	785290	62c8c2d71e87b86722f0215b	2	1	main_z	24	main_z	59	stimuli_distractor_trianglediamonds.svg	stimuli_target_trianglesquares.svg	26	yes	44	1	509	6	4	antiphase_hc_sio.wav	1	6	3	noise_calib_stim_LEFT.wav	1	36	blb_dichoticlistening_ta-ta.mp3	ta	ta	0	other
6.6.0	win	2023-06-02	07:11:33	07:24:41	785290	62c8c2d71e87b86722f0215b	2	1	main_z	24	advance_on_keypress_ZEE	60	stimuli_distractor_trianglediamonds.svg	stimuli_target_trianglesquares.svg	26	yes	57	0	608	6	4	antiphase_hc_sio.wav	1	6	3	noise_calib_stim_LEFT.wav	1	36	blb_dichoticlistening_ta-ta.mp3	ta	ta	0	other
6.6.0	win	2023-06-02	07:11:33	07:24:44	788542	62c8c2d71e87b86722f0215b	2	1	main_z	24	main_z	61	stimuli_distractor_diamondtriangles.svg	stimuli_distractor_diamondtriangles.svg	40	no	0	1	2000	6	4	antiphase_hc_sio.wav	1	6	3	noise_calib_stim_LEFT.wav	1	36	blb_dichoticlistening_ta-ta.mp3	ta	ta	0	other
6.6.0	win	2023-06-02	07:11:33	07:24:44	788542	62c8c2d71e87b86722f0215b	2	1	main_z	24	advance_on_keypress_ZEE	62	stimuli_distractor_diamondtriangles.svg	stimuli_distractor_diamondtriangles.svg	40	no	57	0	598	6	4	antiphase_hc_sio.wav	1	6	3	noise_calib_stim_LEFT.wav	1	36	blb_dichoticlistening_ta-ta.mp3	ta	ta	0	other
6.6.0	win	2023-06-02	07:11:33	07:24:46	790229	62c8c2d71e87b86722f0215b	2	1	main_z	24	main_z	63	stimuli_target_squaretriangles.svg	stimuli_distractor_trianglediamonds.svg	3	yes	44	1	437	6	4	antiphase_hc_sio.wav	1	6	3	noise_calib_stim_LEFT.wav	1	36	blb_dichoticlistening_ta-ta.mp3	ta	ta	0	other
6.6.0	win	2023-06-02	07:11:33	07:24:46	790229	62c8c2d71e87b86722f0215b	2	1	main_z	24	advance_on_keypress_ZEE	64	stimuli_target_squaretriangles.svg	stimuli_distractor_trianglediamonds.svg	3	yes	57	0	635	6	4	antiphase_hc_sio.wav	1	6	3	noise_calib_stim_LEFT.wav	1	36	blb_dichoticlistening_ta-ta.mp3	ta	ta	0	other
6.6.0	win	2023-06-02	07:11:33	07:24:48	792077	62c8c2d71e87b86722f0215b	2	1	main_z	24	main_z	65	stimuli_target_diamondsquares.svg	stimuli_distractor_trianglediamonds.svg	20	yes	44	1	568	6	4	antiphase_hc_sio.wav	1	6	3	noise_calib_stim_LEFT.wav	1	36	blb_dichoticlistening_ta-ta.mp3	ta	ta	0	other
6.6.0	win	2023-06-02	07:11:33	07:24:48	792077	62c8c2d71e87b86722f0215b	2	1	main_z	24	advance_on_keypress_ZEE	66	stimuli_target_diamondsquares.svg	stimuli_distractor_trianglediamonds.svg	20	yes	57	0	633	6	4	antiphase_hc_sio.wav	1	6	3	noise_calib_stim_LEFT.wav	1	36	blb_dichoticlistening_ta-ta.mp3	ta	ta	0	other
6.6.0	win	2023-06-02	07:11:33	07:24:51	795359	62c8c2d71e87b86722f0215b	2	1	main_z	24	main_z	67	stimuli_target_diamondrectangles.svg	stimuli_distractor_diamondtriangles.svg	23	yes	0	0	2000	6	4	antiphase_hc_sio.wav	1	6	3	noise_calib_stim_LEFT.wav	1	36	blb_dichoticlistening_ta-ta.mp3	ta	ta	0	other
6.6.0	win	2023-06-02	07:11:33	07:24:51	795359	62c8c2d71e87b86722f0215b	2	1	main_z	24	advance_on_keypress_ZEE	68	stimuli_target_diamondrectangles.svg	stimuli_distractor_diamondtriangles.svg	23	yes	57	0	429	6	4	antiphase_hc_sio.wav	1	6	3	noise_calib_stim_LEFT.wav	1	36	blb_dichoticlistening_ta-ta.mp3	ta	ta	0	other
6.6.0	win	2023-06-02	07:11:33	07:24:52	796861	62c8c2d71e87b86722f0215b	2	1	main_z	24	main_z	69	stimuli_target_trianglesquares.svg	stimuli_distractor_trianglediamonds.svg	18	yes	44	1	419	6	4	antiphase_hc_sio.wav	1	6	3	noise_calib_stim_LEFT.wav	1	36	blb_dichoticlistening_ta-ta.mp3	ta	ta	0	other
6.6.0	win	2023-06-02	07:11:33	07:24:52	796861	62c8c2d71e87b86722f0215b	2	1	main_z	24	advance_on_keypress_ZEE	70	stimuli_target_trianglesquares.svg	stimuli_distractor_trianglediamonds.svg	18	yes	57	0	609	6	4	antiphase_hc_sio.wav	1	6	3	noise_calib_stim_LEFT.wav	1	36	blb_dichoticlistening_ta-ta.mp3	ta	ta	0	other
6.6.0	win	2023-06-02	07:11:33	07:24:54	798645	62c8c2d71e87b86722f0215b	2	1	main_z	24	main_z	71	stimuli_distractor_diamondtriangles.svg	stimuli_target_diamondrectangles.svg	31	yes	44	1	536	6	4	antiphase_hc_sio.wav	1	6	3	noise_calib_stim_LEFT.wav	1	36	blb_dichoticlistening_ta-ta.mp3	ta	ta	0	other
6.6.0	win	2023-06-02	07:11:33	07:24:54	798645	62c8c2d71e87b86722f0215b	2	1	main_z	24	advance_on_keypress_ZEE	72	stimuli_distractor_diamondtriangles.svg	stimuli_target_diamondrectangles.svg	31	yes	57	0	34	6	4	antiphase_hc_sio.wav	1	6	3	noise_calib_stim_LEFT.wav	1	36	blb_dichoticlistening_ta-ta.mp3	ta	ta	0	other
6.6.0	win	2023-06-02	07:11:33	07:24:55	799917	62c8c2d71e87b86722f0215b	2	1	main_z	24	main_z	73	stimuli_target_rectanglediamonds.svg	stimuli_distractor_diamondtriangles.svg	6	yes	44	1	591	6	4	antiphase_hc_sio.wav	1	6	3	noise_calib_stim_LEFT.wav	1	36	blb_dichoticlistening_ta-ta.mp3	ta	ta	0	other
6.6.0	win	2023-06-02	07:11:33	07:24:55	799917	62c8c2d71e87b86722f0215b	2	1	main_z	24	advance_on_keypress_ZEE	74	stimuli_target_rectanglediamonds.svg	stimuli_distractor_diamondtriangles.svg	6	yes	57	0	592	6	4	antiphase_hc_sio.wav	1	6	3	noise_calib_stim_LEFT.wav	1	36	blb_dichoticlistening_ta-ta.mp3	ta	ta	0	other
6.6.0	win	2023-06-02	07:11:33	07:24:57	801693	62c8c2d71e87b86722f0215b	2	1	main_z	24	main_z	75	stimuli_distractor_trianglediamonds.svg	stimuli_target_rectangletriangles.svg	9	yes	44	1	551	6	4	antiphase_hc_sio.wav	1	6	3	noise_calib_stim_LEFT.wav	1	36	blb_dichoticlistening_ta-ta.mp3	ta	ta	0	other
6.6.0	win	2023-06-02	07:11:33	07:24:57	801693	62c8c2d71e87b86722f0215b	2	1	main_z	24	advance_on_keypress_ZEE	76	stimuli_distractor_trianglediamonds.svg	stimuli_target_rectangletriangles.svg	9	yes	57	0	520	6	4	antiphase_hc_sio.wav	1	6	3	noise_calib_stim_LEFT.wav	1	36	blb_dichoticlistening_ta-ta.mp3	ta	ta	0	other
6.6.0	win	2023-06-02	07:11:33	07:24:59	803293	62c8c2d71e87b86722f0215b	2	1	main_z	24	main_z	77	stimuli_distractor_trianglediamonds.svg	stimuli_target_rectanglediamonds.svg	10	yes	44	1	434	6	4	antiphase_hc_sio.wav	1	6	3	noise_calib_stim_LEFT.wav	1	36	blb_dichoticlistening_ta-ta.mp3	ta	ta	0	other
6.6.0	win	2023-06-02	07:11:33	07:24:59	803293	62c8c2d71e87b86722f0215b	2	1	main_z	24	advance_on_keypress_ZEE	78	stimuli_distractor_trianglediamonds.svg	stimuli_target_rectanglediamonds.svg	10	yes	57	0	600	6	4	antiphase_hc_sio.wav	1	6	3	noise_calib_stim_LEFT.wav	1	36	blb_dichoticlistening_ta-ta.mp3	ta	ta	0	other
6.6.0	win	2023-06-02	07:11:33	07:25:02	806542	62c8c2d71e87b86722f0215b	2	1	main_z	24	main_z	79	stimuli_distractor_trianglediamonds.svg	stimuli_distractor_trianglediamonds.svg	33	no	0	1	2000	6	4	antiphase_hc_sio.wav	1	6	3	noise_calib_stim_LEFT.wav	1	36	blb_dichoticlistening_ta-ta.mp3	ta	ta	0	other
6.6.0	win	2023-06-02	07:11:33	07:25:02	806542	62c8c2d71e87b86722f0215b	2	1	main_z	24	advance_on_keypress_ZEE	80	stimuli_distractor_trianglediamonds.svg	stimuli_distractor_trianglediamonds.svg	33	no	57	0	630	6	4	antiphase_hc_sio.wav	1	6	3	noise_calib_stim_LEFT.wav	1	36	blb_dichoticlistening_ta-ta.mp3	ta	ta	0	other
6.6.0	win	2023-06-02	07:11:33	07:25:04	808237	62c8c2d71e87b86722f0215b	2	1	main_z	24	main_z	81	stimuli_distractor_diamondtriangles.svg	stimuli_target_trianglerectangles.svg	29	yes	44	1	411	6	4	antiphase_hc_sio.wav	1	6	3	noise_calib_stim_LEFT.wav	1	36	blb_dichoticlistening_ta-ta.mp3	ta	ta	0	other
6.6.0	win	2023-06-02	07:11:33	07:25:04	808237	62c8c2d71e87b86722f0215b	2	1	main_z	24	advance_on_keypress_ZEE	82	stimuli_distractor_diamondtriangles.svg	stimuli_target_trianglerectangles.svg	29	yes	57	0	603	6	4	antiphase_hc_sio.wav	1	6	3	noise_calib_stim_LEFT.wav	1	36	blb_dichoticlistening_ta-ta.mp3	ta	ta	0	other
6.6.0	win	2023-06-02	07:11:33	07:25:06	810014	62c8c2d71e87b86722f0215b	2	1	main_z	24	main_z	83	stimuli_distractor_trianglediamonds.svg	stimuli_target_trianglerectangles.svg	25	yes	44	1	537	6	4	antiphase_hc_sio.wav	1	6	3	noise_calib_stim_LEFT.wav	1	36	blb_dichoticlistening_ta-ta.mp3	ta	ta	0	other
6.6.0	win	2023-06-02	07:11:33	07:25:06	810014	62c8c2d71e87b86722f0215b	2	1	main_z	24	advance_on_keypress_ZEE	84	stimuli_distractor_trianglediamonds.svg	stimuli_target_trianglerectangles.svg	25	yes	57	0	611	6	4	antiphase_hc_sio.wav	1	6	3	noise_calib_stim_LEFT.wav	1	36	blb_dichoticlistening_ta-ta.mp3	ta	ta	0	other
6.6.0	win	2023-06-02	07:11:33	07:25:09	813259	62c8c2d71e87b86722f0215b	2	1	main_z	24	main_z	85	stimuli_distractor_diamondtriangles.svg	stimuli_distractor_trianglediamonds.svg	38	no	0	1	2000	6	4	antiphase_hc_sio.wav	1	6	3	noise_calib_stim_LEFT.wav	1	36	blb_dichoticlistening_ta-ta.mp3	ta	ta	0	other
6.6.0	win	2023-06-02	07:11:33	07:25:09	813259	62c8c2d71e87b86722f0215b	2	1	main_z	24	advance_on_keypress_ZEE	86	stimuli_distractor_diamondtriangles.svg	stimuli_distractor_trianglediamonds.svg	38	no	57	0	473	6	4	antiphase_hc_sio.wav	1	6	3	noise_calib_stim_LEFT.wav	1	36	blb_dichoticlistening_ta-ta.mp3	ta	ta	0	other
6.6.0	win	2023-06-02	07:11:33	07:25:11	814965	62c8c2d71e87b86722f0215b	2	1	main_z	24	main_z	87	stimuli_distractor_trianglediamonds.svg	stimuli_target_rectangletriangles.svg	9	yes	44	1	589	6	4	antiphase_hc_sio.wav	1	6	3	noise_calib_stim_LEFT.wav	1	36	blb_dichoticlistening_ta-ta.mp3	ta	ta	0	other
6.6.0	win	2023-06-02	07:11:33	07:25:11	814965	62c8c2d71e87b86722f0215b	2	1	main_z	24	advance_on_keypress_ZEE	88	stimuli_distractor_trianglediamonds.svg	stimuli_target_rectangletriangles.svg	9	yes	57	0	629	6	4	antiphase_hc_sio.wav	1	6	3	noise_calib_stim_LEFT.wav	1	36	blb_dichoticlistening_ta-ta.mp3	ta	ta	0	other
6.6.0	win	2023-06-02	07:11:33	07:25:12	816701	62c8c2d71e87b86722f0215b	2	1	main_z	24	main_z	89	stimuli_target_rectangletriangles.svg	stimuli_distractor_diamondtriangles.svg	5	yes	44	1	459	6	4	antiphase_hc_sio.wav	1	6	3	noise_calib_stim_LEFT.wav	1	36	blb_dichoticlistening_ta-ta.mp3	ta	ta	0	other
6.6.0	win	2023-06-02	07:11:33	07:25:12	816701	62c8c2d71e87b86722f0215b	2	1	main_z	24	advance_on_keypress_ZEE	90	stimuli_target_rectangletriangles.svg	stimuli_distractor_diamondtriangles.svg	5	yes	57	0	656	6	4	antiphase_hc_sio.wav	1	6	3	noise_calib_stim_LEFT.wav	1	36	blb_dichoticlistening_ta-ta.mp3	ta	ta	0	other
6.6.0	win	2023-06-02	07:11:33	07:25:16	819992	62c8c2d71e87b86722f0215b	2	1	main_z	24	main_z	91	stimuli_distractor_trianglediamonds.svg	stimuli_distractor_diamondtriangles.svg	36	no	0	1	2000	6	4	antiphase_hc_sio.wav	1	6	3	noise_calib_stim_LEFT.wav	1	36	blb_dichoticlistening_ta-ta.mp3	ta	ta	0	other
6.6.0	win	2023-06-02	07:11:33	07:25:16	819992	62c8c2d71e87b86722f0215b	2	1	main_z	24	advance_on_keypress_ZEE	92	stimuli_distractor_trianglediamonds.svg	stimuli_distractor_diamondtriangles.svg	36	no	57	0	580	6	4	antiphase_hc_sio.wav	1	6	3	noise_calib_stim_LEFT.wav	1	36	blb_dichoticlistening_ta-ta.mp3	ta	ta	0	other
6.6.0	win	2023-06-02	07:11:33	07:25:17	821677	62c8c2d71e87b86722f0215b	2	1	main_z	24	main_z	93	stimuli_distractor_trianglediamonds.svg	stimuli_target_rectanglediamonds.svg	10	yes	44	1	451	6	4	antiphase_hc_sio.wav	1	6	3	noise_calib_stim_LEFT.wav	1	36	blb_dichoticlistening_ta-ta.mp3	ta	ta	0	other
6.6.0	win	2023-06-02	07:11:33	07:25:17	821677	62c8c2d71e87b86722f0215b	2	1	main_z	24	advance_on_keypress_ZEE	94	stimuli_distractor_trianglediamonds.svg	stimuli_target_rectanglediamonds.svg	10	yes	57	0	609	6	4	antiphase_hc_sio.wav	1	6	3	noise_calib_stim_LEFT.wav	1	36	blb_dichoticlistening_ta-ta.mp3	ta	ta	0	other
6.6.0	win	2023-06-02	07:11:33	07:25:19	823405	62c8c2d71e87b86722f0215b	2	1	main_z	24	main_z	95	stimuli_target_squarediamonds.svg	stimuli_distractor_diamondtriangles.svg	8	yes	44	1	479	6	4	antiphase_hc_sio.wav	1	6	3	noise_calib_stim_LEFT.wav	1	36	blb_dichoticlistening_ta-ta.mp3	ta	ta	0	other
6.6.0	win	2023-06-02	07:11:33	07:25:19	823405	62c8c2d71e87b86722f0215b	2	1	main_z	24	advance_on_keypress_ZEE	96	stimuli_target_squarediamonds.svg	stimuli_distractor_diamondtriangles.svg	8	yes	57	0	587	6	4	antiphase_hc_sio.wav	1	6	3	noise_calib_stim_LEFT.wav	1	36	blb_dichoticlistening_ta-ta.mp3	ta	ta	0	other
6.6.0	win	2023-06-02	07:11:33	07:25:21	825101	62c8c2d71e87b86722f0215b	2	1	main_z	24	main_z	97	stimuli_distractor_diamondtriangles.svg	stimuli_target_rectanglediamonds.svg	14	yes	44	1	459	6	4	antiphase_hc_sio.wav	1	6	3	noise_calib_stim_LEFT.wav	1	36	blb_dichoticlistening_ta-ta.mp3	ta	ta	0	other
6.6.0	win	2023-06-02	07:11:33	07:25:21	825101	62c8c2d71e87b86722f0215b	2	1	main_z	24	advance_on_keypress_ZEE	98	stimuli_distractor_diamondtriangles.svg	stimuli_target_rectanglediamonds.svg	14	yes	57	0	648	6	4	antiphase_hc_sio.wav	1	6	3	noise_calib_stim_LEFT.wav	1	36	blb_dichoticlistening_ta-ta.mp3	ta	ta	0	other
6.6.0	win	2023-06-02	07:11:33	07:25:24	828392	62c8c2d71e87b86722f0215b	2	1	main_z	24	main_z	99	stimuli_target_trianglerectangles.svg	stimuli_distractor_trianglediamonds.svg	17	yes	0	0	2000	6	4	antiphase_hc_sio.wav	1	6	3	noise_calib_stim_LEFT.wav	1	36	blb_dichoticlistening_ta-ta.mp3	ta	ta	0	other
6.6.0	win	2023-06-02	07:11:33	07:25:24	828392	62c8c2d71e87b86722f0215b	2	1	main_z	24	advance_on_keypress_ZEE	100	stimuli_target_trianglerectangles.svg	stimuli_distractor_trianglediamonds.svg	17	yes	57	0	652	6	4	antiphase_hc_sio.wav	1	6	3	noise_calib_stim_LEFT.wav	1	36	blb_dichoticlistening_ta-ta.mp3	ta	ta	0	other
6.6.0	win	2023-06-02	07:11:33	07:25:26	830157	62c8c2d71e87b86722f0215b	2	1	main_z	24	main_z	101	stimuli_target_rectanglediamonds.svg	stimuli_distractor_trianglediamonds.svg	2	yes	44	1	465	6	4	antiphase_hc_sio.wav	1	6	3	noise_calib_stim_LEFT.wav	1	36	blb_dichoticlistening_ta-ta.mp3	ta	ta	0	other
6.6.0	win	2023-06-02	07:11:33	07:25:26	830157	62c8c2d71e87b86722f0215b	2	1	main_z	24	advance_on_keypress_ZEE	102	stimuli_target_rectanglediamonds.svg	stimuli_distractor_trianglediamonds.svg	2	yes	57	0	637	6	4	antiphase_hc_sio.wav	1	6	3	noise_calib_stim_LEFT.wav	1	36	blb_dichoticlistening_ta-ta.mp3	ta	ta	0	other
6.6.0	win	2023-06-02	07:11:33	07:25:29	833442	62c8c2d71e87b86722f0215b	2	1	main_z	24	main_z	103	stimuli_distractor_diamondtriangles.svg	stimuli_target_diamondsquares.svg	32	yes	0	0	2000	6	4	antiphase_hc_sio.wav	1	6	3	noise_calib_stim_LEFT.wav	1	36	blb_dichoticlistening_ta-ta.mp3	ta	ta	0	other
6.6.0	win	2023-06-02	07:11:33	07:25:29	833442	62c8c2d71e87b86722f0215b	2	1	main_z	24	advance_on_keypress_ZEE	104	stimuli_distractor_diamondtriangles.svg	stimuli_target_diamondsquares.svg	32	yes	57	0	514	6	4	antiphase_hc_sio.wav	1	6	3	noise_calib_stim_LEFT.wav	1	36	blb_dichoticlistening_ta-ta.mp3	ta	ta	0	other
6.6.0	win	2023-06-02	07:11:33	07:25:31	835069	62c8c2d71e87b86722f0215b	2	1	main_z	24	main_z	105	stimuli_target_diamondrectangles.svg	stimuli_distractor_diamondtriangles.svg	23	yes	44	1	460	6	4	antiphase_hc_sio.wav	1	6	3	noise_calib_stim_LEFT.wav	1	36	blb_dichoticlistening_ta-ta.mp3	ta	ta	0	other
6.6.0	win	2023-06-02	07:11:33	07:25:31	835069	62c8c2d71e87b86722f0215b	2	1	main_z	24	advance_on_keypress_ZEE	106	stimuli_target_diamondrectangles.svg	stimuli_distractor_diamondtriangles.svg	23	yes	57	0	553	6	4	antiphase_hc_sio.wav	1	6	3	noise_calib_stim_LEFT.wav	1	36	blb_dichoticlistening_ta-ta.mp3	ta	ta	0	other
6.6.0	win	2023-06-02	07:11:33	07:25:32	836909	62c8c2d71e87b86722f0215b	2	1	main_z	24	main_z	107	stimuli_distractor_trianglediamonds.svg	stimuli_distractor_trianglediamonds.svg	33	no	44	0	650	6	4	antiphase_hc_sio.wav	1	6	3	noise_calib_stim_LEFT.wav	1	36	blb_dichoticlistening_ta-ta.mp3	ta	ta	0	other
6.6.0	win	2023-06-02	07:11:33	07:25:32	836909	62c8c2d71e87b86722f0215b	2	1	main_z	24	advance_on_keypress_ZEE	108	stimuli_distractor_trianglediamonds.svg	stimuli_distractor_trianglediamonds.svg	33	no	57	0	583	6	4	antiphase_hc_sio.wav	1	6	3	noise_calib_stim_LEFT.wav	1	36	blb_dichoticlistening_ta-ta.mp3	ta	ta	0	other
6.6.0	win	2023-06-02	07:11:33	07:25:34	838637	62c8c2d71e87b86722f0215b	2	1	main_z	24	main_z	109	stimuli_distractor_trianglediamonds.svg	stimuli_target_trianglesquares.svg	26	yes	44	1	495	6	4	antiphase_hc_sio.wav	1	6	3	noise_calib_stim_LEFT.wav	1	36	blb_dichoticlistening_ta-ta.mp3	ta	ta	0	other
6.6.0	win	2023-06-02	07:11:33	07:25:34	838637	62c8c2d71e87b86722f0215b	2	1	main_z	24	advance_on_keypress_ZEE	110	stimuli_distractor_trianglediamonds.svg	stimuli_target_trianglesquares.svg	26	yes	57	0	595	6	4	antiphase_hc_sio.wav	1	6	3	noise_calib_stim_LEFT.wav	1	36	blb_dichoticlistening_ta-ta.mp3	ta	ta	0	other
6.6.0	win	2023-06-02	07:11:33	07:25:37	841859	62c8c2d71e87b86722f0215b	2	1	main_z	24	main_z	111	stimuli_distractor_trianglediamonds.svg	stimuli_distractor_trianglediamonds.svg	34	no	0	1	2000	6	4	antiphase_hc_sio.wav	1	6	3	noise_calib_stim_LEFT.wav	1	36	blb_dichoticlistening_ta-ta.mp3	ta	ta	0	other
6.6.0	win	2023-06-02	07:11:33	07:25:37	841859	62c8c2d71e87b86722f0215b	2	1	main_z	24	advance_on_keypress_ZEE	112	stimuli_distractor_trianglediamonds.svg	stimuli_distractor_trianglediamonds.svg	34	no	57	0	1137	6	4	antiphase_hc_sio.wav	1	6	3	noise_calib_stim_LEFT.wav	1	36	blb_dichoticlistening_ta-ta.mp3	ta	ta	0	other
6.6.0	win	2023-06-02	07:11:33	07:25:40	844045	62c8c2d71e87b86722f0215b	2	1	main_z	24	main_z	113	stimuli_target_squaretriangles.svg	stimuli_distractor_diamondtriangles.svg	7	yes	44	1	403	6	4	antiphase_hc_sio.wav	1	6	3	noise_calib_stim_LEFT.wav	1	36	blb_dichoticlistening_ta-ta.mp3	ta	ta	0	other
6.6.0	win	2023-06-02	07:11:33	07:25:40	844045	62c8c2d71e87b86722f0215b	2	1	main_z	24	advance_on_keypress_ZEE	114	stimuli_target_squaretriangles.svg	stimuli_distractor_diamondtriangles.svg	7	yes	57	0	554	6	4	antiphase_hc_sio.wav	1	6	3	noise_calib_stim_LEFT.wav	1	36	blb_dichoticlistening_ta-ta.mp3	ta	ta	0	other
6.6.0	win	2023-06-02	07:11:33	07:25:42	846125	62c8c2d71e87b86722f0215b	2	1	main_z	24	main_z	115	stimuli_distractor_diamondtriangles.svg	stimuli_target_diamondrectangles.svg	31	yes	44	1	883	6	4	antiphase_hc_sio.wav	1	6	3	noise_calib_stim_LEFT.wav	1	36	blb_dichoticlistening_ta-ta.mp3	ta	ta	0	other
6.6.0	win	2023-06-02	07:11:33	07:25:42	846125	62c8c2d71e87b86722f0215b	2	1	main_z	24	advance_on_keypress_ZEE	116	stimuli_distractor_diamondtriangles.svg	stimuli_target_diamondrectangles.svg	31	yes	57	0	791	6	4	antiphase_hc_sio.wav	1	6	3	noise_calib_stim_LEFT.wav	1	36	blb_dichoticlistening_ta-ta.mp3	ta	ta	0	other
6.6.0	win	2023-06-02	07:11:33	07:25:45	849559	62c8c2d71e87b86722f0215b	2	1	main_z	24	main_z	117	stimuli_distractor_diamondtriangles.svg	stimuli_target_squarediamonds.svg	16	yes	0	0	2000	6	4	antiphase_hc_sio.wav	1	6	3	noise_calib_stim_LEFT.wav	1	36	blb_dichoticlistening_ta-ta.mp3	ta	ta	0	other
6.6.0	win	2023-06-02	07:11:33	07:25:45	849559	62c8c2d71e87b86722f0215b	2	1	main_z	24	advance_on_keypress_ZEE	118	stimuli_distractor_diamondtriangles.svg	stimuli_target_squarediamonds.svg	16	yes	57	0	221	6	4	antiphase_hc_sio.wav	1	6	3	noise_calib_stim_LEFT.wav	1	36	blb_dichoticlistening_ta-ta.mp3	ta	ta	0	other
6.6.0	win	2023-06-02	07:11:33	07:25:46	850861	62c8c2d71e87b86722f0215b	2	1	main_z	24	main_z	119	stimuli_target_rectanglediamonds.svg	stimuli_distractor_diamondtriangles.svg	6	yes	44	1	435	6	4	antiphase_hc_sio.wav	1	6	3	noise_calib_stim_LEFT.wav	1	36	blb_dichoticlistening_ta-ta.mp3	ta	ta	0	other
6.6.0	win	2023-06-02	07:11:33	07:25:46	850861	62c8c2d71e87b86722f0215b	2	1	main_z	24	advance_on_keypress_ZEE	120	stimuli_target_rectanglediamonds.svg	stimuli_distractor_diamondtriangles.svg	6	yes	57	0	601	6	4	antiphase_hc_sio.wav	1	6	3	noise_calib_stim_LEFT.wav	1	36	blb_dichoticlistening_ta-ta.mp3	ta	ta	0	other
6.6.0	win	2023-06-02	07:11:33	07:25:48	852677	62c8c2d71e87b86722f0215b	2	1	main_z	24	main_z	121	stimuli_target_trianglesquares.svg	stimuli_distractor_trianglediamonds.svg	18	yes	44	1	568	6	4	antiphase_hc_sio.wav	1	6	3	noise_calib_stim_LEFT.wav	1	36	blb_dichoticlistening_ta-ta.mp3	ta	ta	0	other
6.6.0	win	2023-06-02	07:11:33	07:25:48	852677	62c8c2d71e87b86722f0215b	2	1	main_z	24	advance_on_keypress_ZEE	122	stimuli_target_trianglesquares.svg	stimuli_distractor_trianglediamonds.svg	18	yes	57	0	625	6	4	antiphase_hc_sio.wav	1	6	3	noise_calib_stim_LEFT.wav	1	36	blb_dichoticlistening_ta-ta.mp3	ta	ta	0	other
6.6.0	win	2023-06-02	07:11:33	07:25:50	854549	62c8c2d71e87b86722f0215b	2	1	main_z	24	main_z	123	stimuli_target_squarediamonds.svg	stimuli_distractor_trianglediamonds.svg	4	yes	44	1	607	6	4	antiphase_hc_sio.wav	1	6	3	noise_calib_stim_LEFT.wav	1	36	blb_dichoticlistening_ta-ta.mp3	ta	ta	0	other
6.6.0	win	2023-06-02	07:11:33	07:25:50	854549	62c8c2d71e87b86722f0215b	2	1	main_z	24	advance_on_keypress_ZEE	124	stimuli_target_squarediamonds.svg	stimuli_distractor_trianglediamonds.svg	4	yes	57	0	678	6	4	antiphase_hc_sio.wav	1	6	3	noise_calib_stim_LEFT.wav	1	36	blb_dichoticlistening_ta-ta.mp3	ta	ta	0	other
6.6.0	win	2023-06-02	07:11:33	07:25:52	856461	62c8c2d71e87b86722f0215b	2	1	main_z	24	main_z	125	stimuli_distractor_diamondtriangles.svg	stimuli_target_rectangletriangles.svg	13	yes	44	1	602	6	4	antiphase_hc_sio.wav	1	6	3	noise_calib_stim_LEFT.wav	1	36	blb_dichoticlistening_ta-ta.mp3	ta	ta	0	other
6.6.0	win	2023-06-02	07:11:33	07:25:52	856461	62c8c2d71e87b86722f0215b	2	1	main_z	24	advance_on_keypress_ZEE	126	stimuli_distractor_diamondtriangles.svg	stimuli_target_rectangletriangles.svg	13	yes	57	0	657	6	4	antiphase_hc_sio.wav	1	6	3	noise_calib_stim_LEFT.wav	1	36	blb_dichoticlistening_ta-ta.mp3	ta	ta	0	other
6.6.0	win	2023-06-02	07:11:33	07:25:55	859759	62c8c2d71e87b86722f0215b	2	1	main_z	24	main_z	127	stimuli_distractor_diamondtriangles.svg	stimuli_distractor_trianglediamonds.svg	37	no	0	1	2000	6	4	antiphase_hc_sio.wav	1	6	3	noise_calib_stim_LEFT.wav	1	36	blb_dichoticlistening_ta-ta.mp3	ta	ta	0	other
6.6.0	win	2023-06-02	07:11:33	07:25:55	859759	62c8c2d71e87b86722f0215b	2	1	main_z	24	advance_on_keypress_ZEE	128	stimuli_distractor_diamondtriangles.svg	stimuli_distractor_trianglediamonds.svg	37	no	57	0	533	6	4	antiphase_hc_sio.wav	1	6	3	noise_calib_stim_LEFT.wav	1	36	blb_dichoticlistening_ta-ta.mp3	ta	ta	0	other
6.6.0	win	2023-06-02	07:11:33	07:25:57	861421	62c8c2d71e87b86722f0215b	2	1	main_z	24	main_z	129	stimuli_target_diamondsquares.svg	stimuli_distractor_trianglediamonds.svg	20	yes	44	1	479	6	4	antiphase_hc_sio.wav	1	6	3	noise_calib_stim_LEFT.wav	1	36	blb_dichoticlistening_ta-ta.mp3	ta	ta	0	other
6.6.0	win	2023-06-02	07:11:33	07:25:57	861421	62c8c2d71e87b86722f0215b	2	1	main_z	24	advance_on_keypress_ZEE	130	stimuli_target_diamondsquares.svg	stimuli_distractor_trianglediamonds.svg	20	yes	57	0	611	6	4	antiphase_hc_sio.wav	1	6	3	noise_calib_stim_LEFT.wav	1	36	blb_dichoticlistening_ta-ta.mp3	ta	ta	0	other
6.6.0	win	2023-06-02	07:11:33	07:25:59	863213	62c8c2d71e87b86722f0215b	2	1	main_z	24	main_z	131	stimuli_distractor_diamondtriangles.svg	stimuli_target_trianglesquares.svg	30	yes	44	1	537	6	4	antiphase_hc_sio.wav	1	6	3	noise_calib_stim_LEFT.wav	1	36	blb_dichoticlistening_ta-ta.mp3	ta	ta	0	other
6.6.0	win	2023-06-02	07:11:33	07:25:59	863213	62c8c2d71e87b86722f0215b	2	1	main_z	24	advance_on_keypress_ZEE	132	stimuli_distractor_diamondtriangles.svg	stimuli_target_trianglesquares.svg	30	yes	57	0	579	6	4	antiphase_hc_sio.wav	1	6	3	noise_calib_stim_LEFT.wav	1	36	blb_dichoticlistening_ta-ta.mp3	ta	ta	0	other
6.6.0	win	2023-06-02	07:11:33	07:26:01	864989	62c8c2d71e87b86722f0215b	2	1	main_z	24	main_z	133	stimuli_distractor_trianglediamonds.svg	stimuli_target_diamondsquares.svg	28	yes	44	1	547	6	4	antiphase_hc_sio.wav	1	6	3	noise_calib_stim_LEFT.wav	1	36	blb_dichoticlistening_ta-ta.mp3	ta	ta	0	other
6.6.0	win	2023-06-02	07:11:33	07:26:01	864989	62c8c2d71e87b86722f0215b	2	1	main_z	24	advance_on_keypress_ZEE	134	stimuli_distractor_trianglediamonds.svg	stimuli_target_diamondsquares.svg	28	yes	57	0	604	6	4	antiphase_hc_sio.wav	1	6	3	noise_calib_stim_LEFT.wav	1	36	blb_dichoticlistening_ta-ta.mp3	ta	ta	0	other
6.6.0	win	2023-06-02	07:11:33	07:26:04	868242	62c8c2d71e87b86722f0215b	2	1	main_z	24	main_z	135	stimuli_distractor_diamondtriangles.svg	stimuli_distractor_diamondtriangles.svg	39	no	0	1	2000	6	4	antiphase_hc_sio.wav	1	6	3	noise_calib_stim_LEFT.wav	1	36	blb_dichoticlistening_ta-ta.mp3	ta	ta	0	other
6.6.0	win	2023-06-02	07:11:33	07:26:04	868242	62c8c2d71e87b86722f0215b	2	1	main_z	24	advance_on_keypress_ZEE	136	stimuli_distractor_diamondtriangles.svg	stimuli_distractor_diamondtriangles.svg	39	no	57	0	570	6	4	antiphase_hc_sio.wav	1	6	3	noise_calib_stim_LEFT.wav	1	36	blb_dichoticlistening_ta-ta.mp3	ta	ta	0	other
6.6.0	win	2023-06-02	07:11:33	07:26:06	869941	62c8c2d71e87b86722f0215b	2	1	main_z	24	main_z	137	stimuli_target_trianglesquares.svg	stimuli_distractor_diamondtriangles.svg	22	yes	44	1	482	6	4	antiphase_hc_sio.wav	1	6	3	noise_calib_stim_LEFT.wav	1	36	blb_dichoticlistening_ta-ta.mp3	ta	ta	0	other
6.6.0	win	2023-06-02	07:11:33	07:26:06	869941	62c8c2d71e87b86722f0215b	2	1	main_z	24	advance_on_keypress_ZEE	138	stimuli_target_trianglesquares.svg	stimuli_distractor_diamondtriangles.svg	22	yes	57	0	567	6	4	antiphase_hc_sio.wav	1	6	3	noise_calib_stim_LEFT.wav	1	36	blb_dichoticlistening_ta-ta.mp3	ta	ta	0	other
6.6.0	win	2023-06-02	07:11:33	07:26:07	871885	62c8c2d71e87b86722f0215b	2	1	main_z	24	main_z	139	stimuli_target_diamondrectangles.svg	stimuli_distractor_trianglediamonds.svg	19	yes	44	1	726	6	4	antiphase_hc_sio.wav	1	6	3	noise_calib_stim_LEFT.wav	1	36	blb_dichoticlistening_ta-ta.mp3	ta	ta	0	other
6.6.0	win	2023-06-02	07:11:33	07:26:07	871885	62c8c2d71e87b86722f0215b	2	1	main_z	24	advance_on_keypress_ZEE	140	stimuli_target_diamondrectangles.svg	stimuli_distractor_trianglediamonds.svg	19	yes	57	0	625	6	4	antiphase_hc_sio.wav	1	6	3	noise_calib_stim_LEFT.wav	1	36	blb_dichoticlistening_ta-ta.mp3	ta	ta	0	other
6.6.0	win	2023-06-02	07:11:33	07:26:09	873717	62c8c2d71e87b86722f0215b	2	1	main_z	24	main_z	141	stimuli_target_diamondsquares.svg	stimuli_distractor_diamondtriangles.svg	24	yes	44	1	575	6	4	antiphase_hc_sio.wav	1	6	3	noise_calib_stim_LEFT.wav	1	36	blb_dichoticlistening_ta-ta.mp3	ta	ta	0	other
6.6.0	win	2023-06-02	07:11:33	07:26:09	873717	62c8c2d71e87b86722f0215b	2	1	main_z	24	advance_on_keypress_ZEE	142	stimuli_target_diamondsquares.svg	stimuli_distractor_diamondtriangles.svg	24	yes	57	0	543	6	4	antiphase_hc_sio.wav	1	6	3	noise_calib_stim_LEFT.wav	1	36	blb_dichoticlistening_ta-ta.mp3	ta	ta	0	other
6.6.0	win	2023-06-02	07:11:33	07:26:12	876892	62c8c2d71e87b86722f0215b	2	1	main_z	24	main_z	143	stimuli_target_trianglerectangles.svg	stimuli_distractor_diamondtriangles.svg	21	yes	0	0	2000	6	4	antiphase_hc_sio.wav	1	6	3	noise_calib_stim_LEFT.wav	1	36	blb_dichoticlistening_ta-ta.mp3	ta	ta	0	other
6.6.0	win	2023-06-02	07:11:33	07:26:12	876892	62c8c2d71e87b86722f0215b	2	1	main_z	24	advance_on_keypress_ZEE	144	stimuli_target_trianglerectangles.svg	stimuli_distractor_diamondtriangles.svg	21	yes	57	0	672	6	4	antiphase_hc_sio.wav	1	6	3	noise_calib_stim_LEFT.wav	1	36	blb_dichoticlistening_ta-ta.mp3	ta	ta	0	other
6.6.0	win	2023-06-02	07:11:33	07:26:14	878723	62c8c2d71e87b86722f0215b	2	1	main_z	24	main_z	145	stimuli_target_rectangletriangles.svg	stimuli_distractor_trianglediamonds.svg	1	yes	44	1	504	6	4	antiphase_hc_sio.wav	1	6	3	noise_calib_stim_LEFT.wav	1	36	blb_dichoticlistening_ta-ta.mp3	ta	ta	0	other
6.6.0	win	2023-06-02	07:11:33	07:26:14	878723	62c8c2d71e87b86722f0215b	2	1	main_z	24	advance_on_keypress_ZEE	146	stimuli_target_rectangletriangles.svg	stimuli_distractor_trianglediamonds.svg	1	yes	57	0	512	6	4	antiphase_hc_sio.wav	1	6	3	noise_calib_stim_LEFT.wav	1	36	blb_dichoticlistening_ta-ta.mp3	ta	ta	0	other
6.6.0	win	2023-06-02	07:11:33	07:26:16	880469	62c8c2d71e87b86722f0215b	2	1	main_z	24	main_z	147	stimuli_distractor_trianglediamonds.svg	stimuli_target_squarediamonds.svg	12	yes	44	1	593	6	4	antiphase_hc_sio.wav	1	6	3	noise_calib_stim_LEFT.wav	1	36	blb_dichoticlistening_ta-ta.mp3	ta	ta	0	other
6.6.0	win	2023-06-02	07:11:33	07:26:16	880469	62c8c2d71e87b86722f0215b	2	1	main_z	24	advance_on_keypress_ZEE	148	stimuli_distractor_trianglediamonds.svg	stimuli_target_squarediamonds.svg	12	yes	57	0	889	6	4	antiphase_hc_sio.wav	1	6	3	noise_calib_stim_LEFT.wav	1	36	blb_dichoticlistening_ta-ta.mp3	ta	ta	0	other
6.6.0	win	2023-06-02	07:11:33	07:26:18	882781	62c8c2d71e87b86722f0215b	2	1	main_z	24	main_z	149	stimuli_target_squaretriangles.svg	stimuli_distractor_trianglediamonds.svg	3	yes	44	1	789	6	4	antiphase_hc_sio.wav	1	6	3	noise_calib_stim_LEFT.wav	1	36	blb_dichoticlistening_ta-ta.mp3	ta	ta	0	other
6.6.0	win	2023-06-02	07:11:33	07:26:18	882781	62c8c2d71e87b86722f0215b	2	1	main_z	24	advance_on_keypress_ZEE	150	stimuli_target_squaretriangles.svg	stimuli_distractor_trianglediamonds.svg	3	yes	57	0	581	6	4	antiphase_hc_sio.wav	1	6	3	noise_calib_stim_LEFT.wav	1	36	blb_dichoticlistening_ta-ta.mp3	ta	ta	0	other
6.6.0	win	2023-06-02	07:11:33	07:26:21	885053	62c8c2d71e87b86722f0215b	2	1	main_z	24	main_z	151	stimuli_distractor_trianglediamonds.svg	stimuli_target_diamondrectangles.svg	27	yes	44	1	1044	6	4	antiphase_hc_sio.wav	1	6	3	noise_calib_stim_LEFT.wav	1	36	blb_dichoticlistening_ta-ta.mp3	ta	ta	0	other
6.6.0	win	2023-06-02	07:11:33	07:26:21	885053	62c8c2d71e87b86722f0215b	2	1	main_z	24	advance_on_keypress_ZEE	152	stimuli_distractor_trianglediamonds.svg	stimuli_target_diamondrectangles.svg	27	yes	57	0	658	6	4	antiphase_hc_sio.wav	1	6	3	noise_calib_stim_LEFT.wav	1	36	blb_dichoticlistening_ta-ta.mp3	ta	ta	0	other
6.6.0	win	2023-06-02	07:11:33	07:26:23	886949	62c8c2d71e87b86722f0215b	2	1	main_z	24	main_z	153	stimuli_distractor_diamondtriangles.svg	stimuli_target_squaretriangles.svg	15	yes	44	1	607	6	4	antiphase_hc_sio.wav	1	6	3	noise_calib_stim_LEFT.wav	1	36	blb_dichoticlistening_ta-ta.mp3	ta	ta	0	other
6.6.0	win	2023-06-02	07:11:33	07:26:23	886949	62c8c2d71e87b86722f0215b	2	1	main_z	24	advance_on_keypress_ZEE	154	stimuli_distractor_diamondtriangles.svg	stimuli_target_squaretriangles.svg	15	yes	57	0	550	6	4	antiphase_hc_sio.wav	1	6	3	noise_calib_stim_LEFT.wav	1	36	blb_dichoticlistening_ta-ta.mp3	ta	ta	0	other
6.6.0	win	2023-06-02	07:11:33	07:26:26	890142	62c8c2d71e87b86722f0215b	2	1	main_z	24	main_z	155	stimuli_distractor_trianglediamonds.svg	stimuli_distractor_diamondtriangles.svg	35	no	0	1	2000	6	4	antiphase_hc_sio.wav	1	6	3	noise_calib_stim_LEFT.wav	1	36	blb_dichoticlistening_ta-ta.mp3	ta	ta	0	other
6.6.0	win	2023-06-02	07:11:33	07:26:26	890142	62c8c2d71e87b86722f0215b	2	1	main_z	24	advance_on_keypress_ZEE	156	stimuli_distractor_trianglediamonds.svg	stimuli_distractor_diamondtriangles.svg	35	no	57	0	510	6	4	antiphase_hc_sio.wav	1	6	3	noise_calib_stim_LEFT.wav	1	36	blb_dichoticlistening_ta-ta.mp3	ta	ta	0	other
6.6.0	win	2023-06-02	07:11:33	07:26:29	893292	62c8c2d71e87b86722f0215b	2	1	main_z	24	main_z	157	stimuli_distractor_diamondtriangles.svg	stimuli_distractor_diamondtriangles.svg	40	no	0	1	2000	6	4	antiphase_hc_sio.wav	1	6	3	noise_calib_stim_LEFT.wav	1	36	blb_dichoticlistening_ta-ta.mp3	ta	ta	0	other
6.6.0	win	2023-06-02	07:11:33	07:26:29	893292	62c8c2d71e87b86722f0215b	2	1	main_z	24	advance_on_keypress_ZEE	158	stimuli_distractor_diamondtriangles.svg	stimuli_distractor_diamondtriangles.svg	40	no	57	0	464	6	4	antiphase_hc_sio.wav	1	6	3	noise_calib_stim_LEFT.wav	1	36	blb_dichoticlistening_ta-ta.mp3	ta	ta	0	other
6.6.0	win	2023-06-02	07:11:33	07:26:31	894949	62c8c2d71e87b86722f0215b	2	1	main_z	24	main_z	159	stimuli_distractor_trianglediamonds.svg	stimuli_target_squaretriangles.svg	11	yes	44	1	540	6	4	antiphase_hc_sio.wav	1	6	3	noise_calib_stim_LEFT.wav	1	36	blb_dichoticlistening_ta-ta.mp3	ta	ta	0	other
6.6.0	win	2023-06-02	07:11:33	07:26:31	894949	62c8c2d71e87b86722f0215b	2	1	main_z	24	advance_on_keypress_ZEE	160	stimuli_distractor_trianglediamonds.svg	stimuli_target_squaretriangles.svg	11	yes	57	0	462	6	4	antiphase_hc_sio.wav	1	6	3	noise_calib_stim_LEFT.wav	1	36	blb_dichoticlistening_ta-ta.mp3	ta	ta	0	other
6.6.0	win	2023-06-02	07:11:33	07:26:31	894949	62c8c2d71e87b86722f0215b	2	1	inst_12_ZEE_practice2	25			stimuli_distractor_trianglediamonds.svg	stimuli_target_squaretriangles.svg	11	yes	Ctrl+'Q'			6	4	antiphase_hc_sio.wav	1	6	3	noise_calib_stim_LEFT.wav	1	36	blb_dichoticlistening_ta-ta.mp3	ta	ta	0	other