build	computer.platform	date	time	timestamp	time_elapsed_ms	subject	group	session	blockcode	blocknum	trialcode	trialnum	stimulus_left	stimulus_right	stim_index	target_present	response	correct	latency	headphonecheck_countTestTrials	headphonecheck_index	headphonecheck_testSound	headphonecheck_correctResponse	stereocheck_countTestTrials	stereocheck_index	stereocheck_testSound	stereocheck_correctResponse	DL_index	DL_soundfile	DL_leftSound	DL_rightSound	DL_dualSound	DL_choice
6.6.1	win	2023-06-26	23:24:24	0	0	5be9b18df5c1060001085048	2	2	headphonecheck_calibration	4	headphonecheck_calibrationIntro	1			0		calibrationButton	0	1918	0	0			0	0			1				0	
6.6.1	win	2023-06-26	23:24:24	0	0	5be9b18df5c1060001085048	2	2	headphonecheck_testphase	5	test_collectResponse	3			0		third	1	539	1	2	antiphase_hc_ios.wav	3	0	0			1				0	
6.6.1	win	2023-06-26	23:24:24	0	0	5be9b18df5c1060001085048	2	2	headphonecheck_testphase	5	test_collectResponse	6			0		second	1	173	2	1	antiphase_hc_iso.wav	2	0	0			1				0	
6.6.1	win	2023-06-26	23:24:24	0	0	5be9b18df5c1060001085048	2	2	headphonecheck_testphase	5	test_collectResponse	9			0		first	1	113	3	3	antiphase_hc_soi.wav	1	0	0			1				0	
6.6.1	win	2023-06-26	23:24:24	0	0	5be9b18df5c1060001085048	2	2	headphonecheck_testphase	5	test_collectResponse	12			0		third	1	238	4	6	antiphase_hc_ois.wav	3	0	0			1				0	
6.6.1	win	2023-06-26	23:24:24	0	0	5be9b18df5c1060001085048	2	2	headphonecheck_testphase	5	test_collectResponse	15			0		first	1	93	5	4	antiphase_hc_sio.wav	1	0	0			1				0	
6.6.1	win	2023-06-26	23:24:24	0	0	5be9b18df5c1060001085048	2	2	headphonecheck_testphase	5	test_collectResponse	18			0		second	1	138	6	5	antiphase_hc_osi.wav	2	0	0			1				0	
6.6.1	win	2023-06-26	23:24:24	0	0	5be9b18df5c1060001085048	2	2	stereocheck_calibration	7	stereocheck_calibrationIntro	1			0		stereocheck_calibrationButton	0	1134	6	5	antiphase_hc_osi.wav	2	0	0			1				0	
6.6.1	win	2023-06-26	23:24:24	0	0	5be9b18df5c1060001085048	2	2	stereocheck_testphase	8	stereocheck_test_collectResponse	3			0		stereocheck_right	0	5238	6	5	antiphase_hc_osi.wav	2	1	1	noise_calib_stim_LEFT.wav	1	1				0	
6.6.1	win	2023-06-26	23:24:24	0	0	5be9b18df5c1060001085048	2	2	stereocheck_testphase	8	stereocheck_test_collectResponse	6			0		stereocheck_right	0	4158	6	5	antiphase_hc_osi.wav	2	2	2	noise_calib_stim_LEFT.wav	1	1				0	
6.6.1	win	2023-06-26	23:24:24	0	0	5be9b18df5c1060001085048	2	2	stereocheck_testphase	8	stereocheck_test_collectResponse	9			0		stereocheck_left	0	5831	6	5	antiphase_hc_osi.wav	2	3	4	noise_calib_stim_RIGHT.wav	2	1				0	
6.6.1	win	2023-06-26	23:24:24	0	0	5be9b18df5c1060001085048	2	2	stereocheck_testphase	8	stereocheck_test_collectResponse	12			0		stereocheck_left	0	1975	6	5	antiphase_hc_osi.wav	2	4	5	noise_calib_stim_RIGHT.wav	2	1				0	
6.6.1	win	2023-06-26	23:24:24	0	0	5be9b18df5c1060001085048	2	2	stereocheck_testphase	8	stereocheck_test_collectResponse	15			0		stereocheck_left	0	2922	6	5	antiphase_hc_osi.wav	2	5	6	noise_calib_stim_RIGHT.wav	2	1				0	
6.6.1	win	2023-06-26	23:24:24	0	0	5be9b18df5c1060001085048	2	2	stereocheck_testphase	8	stereocheck_test_collectResponse	18			0		stereocheck_left	1	19	6	5	antiphase_hc_osi.wav	2	6	3	noise_calib_stim_LEFT.wav	1	1				0	
6.6.1	win	2023-06-26	23:24:24	0	0	5be9b18df5c1060001085048	2	2	DL_practice	11	DL_practice	2			0		pa	1	2215	6	5	antiphase_hc_osi.wav	2	6	3	noise_calib_stim_LEFT.wav	1	29	blb_dichoticlistening_pa-pa.mp3	pa	pa	0	left
6.6.1	win	2023-06-26	23:24:24	0	0	5be9b18df5c1060001085048	2	2	DL_practice	11	DL_practice	3			0		ka	0	1260	6	5	antiphase_hc_osi.wav	2	6	3	noise_calib_stim_LEFT.wav	1	18	blb_dichoticlistening_ga-ta.mp3	ga	ta	1	other
6.6.1	win	2023-06-26	23:24:24	0	0	5be9b18df5c1060001085048	2	2	DL_practice	11	DL_practice	4			0		ka	1	773	6	5	antiphase_hc_osi.wav	2	6	3	noise_calib_stim_LEFT.wav	1	22	blb_dichoticlistening_ka-ka.mp3	ka	ka	0	left
6.6.1	win	2023-06-26	23:24:24	0	0	5be9b18df5c1060001085048	2	2	DL_practice	11	DL_practice	5			0		ka	0	819	6	5	antiphase_hc_osi.wav	2	6	3	noise_calib_stim_LEFT.wav	1	36	blb_dichoticlistening_ta-ta.mp3	ta	ta	0	other
6.6.1	win	2023-06-26	23:24:24	0	0	5be9b18df5c1060001085048	2	2	DL_practice	11	DL_practice	6			0		da	0	1242	6	5	antiphase_hc_osi.wav	2	6	3	noise_calib_stim_LEFT.wav	1	15	blb_dichoticlistening_ga-ga.mp3	ga	ga	0	other
6.6.1	win	2023-06-26	23:24:24	0	0	5be9b18df5c1060001085048	2	2	DL_practice	11	DL_practice	7			0		da	1	934	6	5	antiphase_hc_osi.wav	2	6	3	noise_calib_stim_LEFT.wav	1	7	blb_dichoticlistening_da-ba.mp3	da	ba	1	left
6.6.1	win	2023-06-26	23:24:24	0	0	5be9b18df5c1060001085048	2	2	DL_practice	11	DL_practice	8			0		ba	1	1181	6	5	antiphase_hc_osi.wav	2	6	3	noise_calib_stim_LEFT.wav	1	1	blb_dichoticlistening_ba-ba.mp3	ba	ba	0	left
6.6.1	win	2023-06-26	23:24:24	0	0	5be9b18df5c1060001085048	2	2	DL_practice	11	DL_practice	9			0		da	1	1061	6	5	antiphase_hc_osi.wav	2	6	3	noise_calib_stim_LEFT.wav	1	8	blb_dichoticlistening_da-da.mp3	da	da	0	left
6.6.1	win	2023-06-26	23:24:24	0	0	5be9b18df5c1060001085048	2	2	DL_practice	11	DL_practice	10			0		ka	1	1245	6	5	antiphase_hc_osi.wav	2	6	3	noise_calib_stim_LEFT.wav	1	23	blb_dichoticlistening_ka-pa.mp3	ka	pa	1	left
6.6.1	win	2023-06-26	23:24:24	0	0	5be9b18df5c1060001085048	2	2	DL_test	13	DL_test	1			0		ka	0	2088	6	5	antiphase_hc_osi.wav	2	6	3	noise_calib_stim_LEFT.wav	1	31	blb_dichoticlistening_ta-ba.mp3	ta	ba	1	other
6.6.1	win	2023-06-26	23:24:24	0	0	5be9b18df5c1060001085048	2	2	DL_test	13	DL_test	2			0		da	1	1134	6	5	antiphase_hc_osi.wav	2	6	3	noise_calib_stim_LEFT.wav	1	32	blb_dichoticlistening_ta-da.mp3	ta	da	1	right
6.6.1	win	2023-06-26	23:24:24	0	0	5be9b18df5c1060001085048	2	2	DL_test	13	DL_test	3			0		ka	1	1728	6	5	antiphase_hc_osi.wav	2	6	3	noise_calib_stim_LEFT.wav	1	16	blb_dichoticlistening_ga-ka.mp3	ga	ka	1	right
6.6.1	win	2023-06-26	23:24:24	0	0	5be9b18df5c1060001085048	2	2	DL_test	13	DL_test	4			0		ga	1	860	6	5	antiphase_hc_osi.wav	2	6	3	noise_calib_stim_LEFT.wav	1	15	blb_dichoticlistening_ga-ga.mp3	ga	ga	0	left
6.6.1	win	2023-06-26	23:24:24	0	0	5be9b18df5c1060001085048	2	2	DL_test	13	DL_test	5			0		da	0	1435	6	5	antiphase_hc_osi.wav	2	6	3	noise_calib_stim_LEFT.wav	1	13	blb_dichoticlistening_ga-ba.mp3	ga	ba	1	other
6.6.1	win	2023-06-26	23:24:24	0	0	5be9b18df5c1060001085048	2	2	DL_test	13	DL_test	6			0		ka	1	1974	6	5	antiphase_hc_osi.wav	2	6	3	noise_calib_stim_LEFT.wav	1	22	blb_dichoticlistening_ka-ka.mp3	ka	ka	0	left
6.6.1	win	2023-06-26	23:24:24	0	0	5be9b18df5c1060001085048	2	2	DL_test	13	DL_test	7			0		da	1	1176	6	5	antiphase_hc_osi.wav	2	6	3	noise_calib_stim_LEFT.wav	1	14	blb_dichoticlistening_ga-da.mp3	ga	da	1	right
6.6.1	win	2023-06-26	23:24:24	0	0	5be9b18df5c1060001085048	2	2	DL_test	13	DL_test	8			0		da	1	752	6	5	antiphase_hc_osi.wav	2	6	3	noise_calib_stim_LEFT.wav	1	8	blb_dichoticlistening_da-da.mp3	da	da	0	left
6.6.1	win	2023-06-26	23:24:24	0	0	5be9b18df5c1060001085048	2	2	DL_test	13	DL_test	9			0		ga	0	1188	6	5	antiphase_hc_osi.wav	2	6	3	noise_calib_stim_LEFT.wav	1	20	blb_dichoticlistening_ka-da.mp3	ka	da	1	other
6.6.1	win	2023-06-26	23:24:24	0	0	5be9b18df5c1060001085048	2	2	DL_test	13	DL_test	10			0		ba	1	2070	6	5	antiphase_hc_osi.wav	2	6	3	noise_calib_stim_LEFT.wav	1	3	blb_dichoticlistening_ba-ga.mp3	ba	ga	1	left
6.6.1	win	2023-06-26	23:24:24	0	0	5be9b18df5c1060001085048	2	2	DL_test	13	DL_test	11			0		pa	1	1885	6	5	antiphase_hc_osi.wav	2	6	3	noise_calib_stim_LEFT.wav	1	5	blb_dichoticlistening_ba-pa.mp3	ba	pa	1	right
6.6.1	win	2023-06-26	23:24:24	0	0	5be9b18df5c1060001085048	2	2	DL_test	13	DL_test	12			0		ka	1	1161	6	5	antiphase_hc_osi.wav	2	6	3	noise_calib_stim_LEFT.wav	1	23	blb_dichoticlistening_ka-pa.mp3	ka	pa	1	left
6.6.1	win	2023-06-26	23:24:24	0	0	5be9b18df5c1060001085048	2	2	DL_test	13	DL_test	13			0		ta	0	2188	6	5	antiphase_hc_osi.wav	2	6	3	noise_calib_stim_LEFT.wav	1	11	blb_dichoticlistening_da-pa.mp3	da	pa	1	other
6.6.1	win	2023-06-26	23:24:24	0	0	5be9b18df5c1060001085048	2	2	DL_test	13	DL_test	14			0		ka	0	2741	6	5	antiphase_hc_osi.wav	2	6	3	noise_calib_stim_LEFT.wav	1	26	blb_dichoticlistening_pa-da.mp3	pa	da	1	other
6.6.1	win	2023-06-26	23:24:24	0	0	5be9b18df5c1060001085048	2	2	DL_test	13	DL_test	15			0		ga	1	2222	6	5	antiphase_hc_osi.wav	2	6	3	noise_calib_stim_LEFT.wav	1	33	blb_dichoticlistening_ta-ga.mp3	ta	ga	1	right
6.6.1	win	2023-06-26	23:24:24	0	0	5be9b18df5c1060001085048	2	2	DL_test	13	DL_test	16			0		da	1	1298	6	5	antiphase_hc_osi.wav	2	6	3	noise_calib_stim_LEFT.wav	1	9	blb_dichoticlistening_da-ga.mp3	da	ga	1	left
6.6.1	win	2023-06-26	23:24:24	0	0	5be9b18df5c1060001085048	2	2	DL_test	13	DL_test	17			0		da	1	974	6	5	antiphase_hc_osi.wav	2	6	3	noise_calib_stim_LEFT.wav	1	2	blb_dichoticlistening_ba-da.mp3	ba	da	1	right
6.6.1	win	2023-06-26	23:24:24	0	0	5be9b18df5c1060001085048	2	2	DL_test	13	DL_test	18			0		ka	1	1645	6	5	antiphase_hc_osi.wav	2	6	3	noise_calib_stim_LEFT.wav	1	24	blb_dichoticlistening_ka-ta.mp3	ka	ta	1	left
6.6.1	win	2023-06-26	23:24:24	0	0	5be9b18df5c1060001085048	2	2	DL_test	13	DL_test	19			0		ka	1	1173	6	5	antiphase_hc_osi.wav	2	6	3	noise_calib_stim_LEFT.wav	1	19	blb_dichoticlistening_ka-ba.mp3	ka	ba	1	left
6.6.1	win	2023-06-26	23:24:24	0	0	5be9b18df5c1060001085048	2	2	DL_test	13	DL_test	20			0		ka	0	995	6	5	antiphase_hc_osi.wav	2	6	3	noise_calib_stim_LEFT.wav	1	12	blb_dichoticlistening_da-ta.mp3	da	ta	1	other
6.6.1	win	2023-06-26	23:24:24	0	0	5be9b18df5c1060001085048	2	2	DL_test	13	DL_test	21			0		ta	1	1993	6	5	antiphase_hc_osi.wav	2	6	3	noise_calib_stim_LEFT.wav	1	36	blb_dichoticlistening_ta-ta.mp3	ta	ta	0	left
6.6.1	win	2023-06-26	23:24:24	0	0	5be9b18df5c1060001085048	2	2	DL_test	13	DL_test	22			0		da	1	1478	6	5	antiphase_hc_osi.wav	2	6	3	noise_calib_stim_LEFT.wav	1	7	blb_dichoticlistening_da-ba.mp3	da	ba	1	left
6.6.1	win	2023-06-26	23:24:24	0	0	5be9b18df5c1060001085048	2	2	DL_test	13	DL_test	23			0		ta	1	2034	6	5	antiphase_hc_osi.wav	2	6	3	noise_calib_stim_LEFT.wav	1	30	blb_dichoticlistening_pa-ta.mp3	pa	ta	1	right
6.6.1	win	2023-06-26	23:24:24	0	0	5be9b18df5c1060001085048	2	2	DL_test	13	DL_test	24			0		pa	1	2289	6	5	antiphase_hc_osi.wav	2	6	3	noise_calib_stim_LEFT.wav	1	29	blb_dichoticlistening_pa-pa.mp3	pa	pa	0	left
6.6.1	win	2023-06-26	23:24:24	0	0	5be9b18df5c1060001085048	2	2	DL_test	13	DL_test	25			0		ga	1	1593	6	5	antiphase_hc_osi.wav	2	6	3	noise_calib_stim_LEFT.wav	1	27	blb_dichoticlistening_pa-ga.mp3	pa	ga	1	right
6.6.1	win	2023-06-26	23:24:24	0	0	5be9b18df5c1060001085048	2	2	DL_test	13	DL_test	26			0		pa	1	1546	6	5	antiphase_hc_osi.wav	2	6	3	noise_calib_stim_LEFT.wav	1	17	blb_dichoticlistening_ga-pa.mp3	ga	pa	1	right
6.6.1	win	2023-06-26	23:24:24	0	0	5be9b18df5c1060001085048	2	2	DL_test	13	DL_test	27			0		ta	0	1971	6	5	antiphase_hc_osi.wav	2	6	3	noise_calib_stim_LEFT.wav	1	10	blb_dichoticlistening_da-ka.mp3	da	ka	1	other
6.6.1	win	2023-06-26	23:24:24	0	0	5be9b18df5c1060001085048	2	2	DL_test	13	DL_test	28			0		ka	0	1091	6	5	antiphase_hc_osi.wav	2	6	3	noise_calib_stim_LEFT.wav	1	18	blb_dichoticlistening_ga-ta.mp3	ga	ta	1	other
6.6.1	win	2023-06-26	23:24:24	0	0	5be9b18df5c1060001085048	2	2	DL_test	13	DL_test	29			0		ga	1	1177	6	5	antiphase_hc_osi.wav	2	6	3	noise_calib_stim_LEFT.wav	1	21	blb_dichoticlistening_ka-ga.mp3	ka	ga	1	right
6.6.1	win	2023-06-26	23:24:24	0	0	5be9b18df5c1060001085048	2	2	DL_test	13	DL_test	30			0		ka	1	1599	6	5	antiphase_hc_osi.wav	2	6	3	noise_calib_stim_LEFT.wav	1	4	blb_dichoticlistening_ba-ka.mp3	ba	ka	1	right
6.6.1	win	2023-06-26	23:24:24	0	0	5be9b18df5c1060001085048	2	2	DL_test	13	DL_test	31			0		ga	0	1260	6	5	antiphase_hc_osi.wav	2	6	3	noise_calib_stim_LEFT.wav	1	35	blb_dichoticlistening_ta-pa.mp3	ta	pa	1	other
6.6.1	win	2023-06-26	23:24:24	0	0	5be9b18df5c1060001085048	2	2	DL_test	13	DL_test	32			0		ba	1	1599	6	5	antiphase_hc_osi.wav	2	6	3	noise_calib_stim_LEFT.wav	1	1	blb_dichoticlistening_ba-ba.mp3	ba	ba	0	left
6.6.1	win	2023-06-26	23:24:24	0	0	5be9b18df5c1060001085048	2	2	DL_test	13	DL_test	33			0		pa	1	1585	6	5	antiphase_hc_osi.wav	2	6	3	noise_calib_stim_LEFT.wav	1	25	blb_dichoticlistening_pa-ba.mp3	pa	ba	1	left
6.6.1	win	2023-06-26	23:24:24	0	0	5be9b18df5c1060001085048	2	2	DL_test	13	DL_test	34			0		ka	1	1991	6	5	antiphase_hc_osi.wav	2	6	3	noise_calib_stim_LEFT.wav	1	28	blb_dichoticlistening_pa-ka.mp3	pa	ka	1	right
6.6.1	win	2023-06-26	23:24:24	0	0	5be9b18df5c1060001085048	2	2	DL_test	13	DL_test	35			0		ka	1	1513	6	5	antiphase_hc_osi.wav	2	6	3	noise_calib_stim_LEFT.wav	1	34	blb_dichoticlistening_ta-ka.mp3	ta	ka	1	right
6.6.1	win	2023-06-26	23:24:24	0	0	5be9b18df5c1060001085048	2	2	DL_test	13	DL_test	36			0		ka	0	841	6	5	antiphase_hc_osi.wav	2	6	3	noise_calib_stim_LEFT.wav	1	6	blb_dichoticlistening_ba-ta.mp3	ba	ta	1	other
6.6.1	win	2023-06-26	23:24:24	0	0	5be9b18df5c1060001085048	2	2	DL_test	14	DL_test	1			0		pa	1	1602	6	5	antiphase_hc_osi.wav	2	6	3	noise_calib_stim_LEFT.wav	1	25	blb_dichoticlistening_pa-ba.mp3	pa	ba	1	left
6.6.1	win	2023-06-26	23:24:24	0	0	5be9b18df5c1060001085048	2	2	DL_test	14	DL_test	2			0		da	0	1538	6	5	antiphase_hc_osi.wav	2	6	3	noise_calib_stim_LEFT.wav	1	13	blb_dichoticlistening_ga-ba.mp3	ga	ba	1	other
6.6.1	win	2023-06-26	23:24:24	0	0	5be9b18df5c1060001085048	2	2	DL_test	14	DL_test	3			0		pa	1	1407	6	5	antiphase_hc_osi.wav	2	6	3	noise_calib_stim_LEFT.wav	1	5	blb_dichoticlistening_ba-pa.mp3	ba	pa	1	right
6.6.1	win	2023-06-26	23:24:24	0	0	5be9b18df5c1060001085048	2	2	DL_test	14	DL_test	4			0		da	1	1553	6	5	antiphase_hc_osi.wav	2	6	3	noise_calib_stim_LEFT.wav	1	8	blb_dichoticlistening_da-da.mp3	da	da	0	left
6.6.1	win	2023-06-26	23:24:24	0	0	5be9b18df5c1060001085048	2	2	DL_test	14	DL_test	5			0		pa	1	1473	6	5	antiphase_hc_osi.wav	2	6	3	noise_calib_stim_LEFT.wav	1	26	blb_dichoticlistening_pa-da.mp3	pa	da	1	left
6.6.1	win	2023-06-26	23:24:24	0	0	5be9b18df5c1060001085048	2	2	DL_test	14	DL_test	6			0		ka	0	1307	6	5	antiphase_hc_osi.wav	2	6	3	noise_calib_stim_LEFT.wav	1	18	blb_dichoticlistening_ga-ta.mp3	ga	ta	1	other
6.6.1	win	2023-06-26	23:24:24	0	0	5be9b18df5c1060001085048	2	2	DL_test	14	DL_test	7			0		pa	1	2123	6	5	antiphase_hc_osi.wav	2	6	3	noise_calib_stim_LEFT.wav	1	27	blb_dichoticlistening_pa-ga.mp3	pa	ga	1	left
6.6.1	win	2023-06-26	23:24:24	0	0	5be9b18df5c1060001085048	2	2	DL_test	14	DL_test	8			0		da	0	1669	6	5	antiphase_hc_osi.wav	2	6	3	noise_calib_stim_LEFT.wav	1	3	blb_dichoticlistening_ba-ga.mp3	ba	ga	1	other
6.6.1	win	2023-06-26	23:24:24	0	0	5be9b18df5c1060001085048	2	2	DL_test	14	DL_test	9			0		da	1	804	6	5	antiphase_hc_osi.wav	2	6	3	noise_calib_stim_LEFT.wav	1	14	blb_dichoticlistening_ga-da.mp3	ga	da	1	right
6.6.1	win	2023-06-26	23:24:24	0	0	5be9b18df5c1060001085048	2	2	DL_test	14	DL_test	10			0		ga	1	1306	6	5	antiphase_hc_osi.wav	2	6	3	noise_calib_stim_LEFT.wav	1	15	blb_dichoticlistening_ga-ga.mp3	ga	ga	0	left
6.6.1	win	2023-06-26	23:24:24	0	0	5be9b18df5c1060001085048	2	2	DL_test	14	DL_test	11			0		pa	1	1937	6	5	antiphase_hc_osi.wav	2	6	3	noise_calib_stim_LEFT.wav	1	35	blb_dichoticlistening_ta-pa.mp3	ta	pa	1	right
6.6.1	win	2023-06-26	23:24:24	0	0	5be9b18df5c1060001085048	2	2	DL_test	14	DL_test	12			0		ka	1	1224	6	5	antiphase_hc_osi.wav	2	6	3	noise_calib_stim_LEFT.wav	1	24	blb_dichoticlistening_ka-ta.mp3	ka	ta	1	left
6.6.1	win	2023-06-26	23:24:24	0	0	5be9b18df5c1060001085048	2	2	DL_test	14	DL_test	13			0		ga	1	1677	6	5	antiphase_hc_osi.wav	2	6	3	noise_calib_stim_LEFT.wav	1	17	blb_dichoticlistening_ga-pa.mp3	ga	pa	1	left
6.6.1	win	2023-06-26	23:24:24	0	0	5be9b18df5c1060001085048	2	2	DL_test	14	DL_test	14			0		pa	0	2391	6	5	antiphase_hc_osi.wav	2	6	3	noise_calib_stim_LEFT.wav	1	33	blb_dichoticlistening_ta-ga.mp3	ta	ga	1	other
6.6.1	win	2023-06-26	23:24:24	0	0	5be9b18df5c1060001085048	2	2	DL_test	14	DL_test	15			0		ka	0	1320	6	5	antiphase_hc_osi.wav	2	6	3	noise_calib_stim_LEFT.wav	1	6	blb_dichoticlistening_ba-ta.mp3	ba	ta	1	other
6.6.1	win	2023-06-26	23:24:24	0	0	5be9b18df5c1060001085048	2	2	DL_test	14	DL_test	16			0		ka	1	947	6	5	antiphase_hc_osi.wav	2	6	3	noise_calib_stim_LEFT.wav	1	19	blb_dichoticlistening_ka-ba.mp3	ka	ba	1	left
6.6.1	win	2023-06-26	23:24:24	0	0	5be9b18df5c1060001085048	2	2	DL_test	14	DL_test	17			0		ka	1	813	6	5	antiphase_hc_osi.wav	2	6	3	noise_calib_stim_LEFT.wav	1	20	blb_dichoticlistening_ka-da.mp3	ka	da	1	left
6.6.1	win	2023-06-26	23:24:24	0	0	5be9b18df5c1060001085048	2	2	DL_test	14	DL_test	18			0		pa	1	2274	6	5	antiphase_hc_osi.wav	2	6	3	noise_calib_stim_LEFT.wav	1	29	blb_dichoticlistening_pa-pa.mp3	pa	pa	0	left
6.6.1	win	2023-06-26	23:24:24	0	0	5be9b18df5c1060001085048	2	2	DL_test	14	DL_test	19			0		ka	1	1117	6	5	antiphase_hc_osi.wav	2	6	3	noise_calib_stim_LEFT.wav	1	4	blb_dichoticlistening_ba-ka.mp3	ba	ka	1	right
6.6.1	win	2023-06-26	23:24:24	0	0	5be9b18df5c1060001085048	2	2	DL_test	14	DL_test	20			0		ta	1	2074	6	5	antiphase_hc_osi.wav	2	6	3	noise_calib_stim_LEFT.wav	1	32	blb_dichoticlistening_ta-da.mp3	ta	da	1	left
6.6.1	win	2023-06-26	23:24:24	0	0	5be9b18df5c1060001085048	2	2	DL_test	14	DL_test	21			0		ta	1	896	6	5	antiphase_hc_osi.wav	2	6	3	noise_calib_stim_LEFT.wav	1	36	blb_dichoticlistening_ta-ta.mp3	ta	ta	0	left
6.6.1	win	2023-06-26	23:24:24	0	0	5be9b18df5c1060001085048	2	2	DL_test	14	DL_test	22			0		ka	1	1822	6	5	antiphase_hc_osi.wav	2	6	3	noise_calib_stim_LEFT.wav	1	16	blb_dichoticlistening_ga-ka.mp3	ga	ka	1	right
6.6.1	win	2023-06-26	23:24:24	0	0	5be9b18df5c1060001085048	2	2	DL_test	14	DL_test	23			0		ka	0	1173	6	5	antiphase_hc_osi.wav	2	6	3	noise_calib_stim_LEFT.wav	1	12	blb_dichoticlistening_da-ta.mp3	da	ta	1	other
6.6.1	win	2023-06-26	23:24:24	0	0	5be9b18df5c1060001085048	2	2	DL_test	14	DL_test	24			0		ka	1	841	6	5	antiphase_hc_osi.wav	2	6	3	noise_calib_stim_LEFT.wav	1	34	blb_dichoticlistening_ta-ka.mp3	ta	ka	1	right
6.6.1	win	2023-06-26	23:24:24	0	0	5be9b18df5c1060001085048	2	2	DL_test	14	DL_test	25			0		pa	0	1192	6	5	antiphase_hc_osi.wav	2	6	3	noise_calib_stim_LEFT.wav	1	31	blb_dichoticlistening_ta-ba.mp3	ta	ba	1	other
6.6.1	win	2023-06-26	23:24:24	0	0	5be9b18df5c1060001085048	2	2	DL_test	14	DL_test	26			0		pa	1	913	6	5	antiphase_hc_osi.wav	2	6	3	noise_calib_stim_LEFT.wav	1	11	blb_dichoticlistening_da-pa.mp3	da	pa	1	right
6.6.1	win	2023-06-26	23:24:24	0	0	5be9b18df5c1060001085048	2	2	DL_test	14	DL_test	27			0		ka	1	1460	6	5	antiphase_hc_osi.wav	2	6	3	noise_calib_stim_LEFT.wav	1	21	blb_dichoticlistening_ka-ga.mp3	ka	ga	1	left
6.6.1	win	2023-06-26	23:24:24	0	0	5be9b18df5c1060001085048	2	2	DL_test	14	DL_test	28			0		da	1	1457	6	5	antiphase_hc_osi.wav	2	6	3	noise_calib_stim_LEFT.wav	1	2	blb_dichoticlistening_ba-da.mp3	ba	da	1	right
6.6.1	win	2023-06-26	23:24:24	0	0	5be9b18df5c1060001085048	2	2	DL_test	14	DL_test	29			0		ta	1	1856	6	5	antiphase_hc_osi.wav	2	6	3	noise_calib_stim_LEFT.wav	1	30	blb_dichoticlistening_pa-ta.mp3	pa	ta	1	right
6.6.1	win	2023-06-26	23:24:24	0	0	5be9b18df5c1060001085048	2	2	DL_test	14	DL_test	30			0		da	1	1886	6	5	antiphase_hc_osi.wav	2	6	3	noise_calib_stim_LEFT.wav	1	7	blb_dichoticlistening_da-ba.mp3	da	ba	1	left
6.6.1	win	2023-06-26	23:24:24	0	0	5be9b18df5c1060001085048	2	2	DL_test	14	DL_test	31			0		ka	1	1127	6	5	antiphase_hc_osi.wav	2	6	3	noise_calib_stim_LEFT.wav	1	22	blb_dichoticlistening_ka-ka.mp3	ka	ka	0	left
6.6.1	win	2023-06-26	23:24:24	0	0	5be9b18df5c1060001085048	2	2	DL_test	14	DL_test	32			0		ka	1	1285	6	5	antiphase_hc_osi.wav	2	6	3	noise_calib_stim_LEFT.wav	1	23	blb_dichoticlistening_ka-pa.mp3	ka	pa	1	left
6.6.1	win	2023-06-26	23:24:24	0	0	5be9b18df5c1060001085048	2	2	DL_test	14	DL_test	33			0		ka	1	1034	6	5	antiphase_hc_osi.wav	2	6	3	noise_calib_stim_LEFT.wav	1	28	blb_dichoticlistening_pa-ka.mp3	pa	ka	1	right
6.6.1	win	2023-06-26	23:24:24	0	0	5be9b18df5c1060001085048	2	2	DL_test	14	DL_test	34			0		da	1	1281	6	5	antiphase_hc_osi.wav	2	6	3	noise_calib_stim_LEFT.wav	1	9	blb_dichoticlistening_da-ga.mp3	da	ga	1	left
6.6.1	win	2023-06-26	23:24:24	0	0	5be9b18df5c1060001085048	2	2	DL_test	14	DL_test	35			0		ta	0	1711	6	5	antiphase_hc_osi.wav	2	6	3	noise_calib_stim_LEFT.wav	1	10	blb_dichoticlistening_da-ka.mp3	da	ka	1	other
6.6.1	win	2023-06-26	23:24:24	0	0	5be9b18df5c1060001085048	2	2	DL_test	14	DL_test	36			0		ba	1	1323	6	5	antiphase_hc_osi.wav	2	6	3	noise_calib_stim_LEFT.wav	1	1	blb_dichoticlistening_ba-ba.mp3	ba	ba	0	left
6.6.1	win	2023-06-26	23:24:24	0	0	5be9b18df5c1060001085048	2	2	DL_test	15	DL_test	1			0		ta	1	2130	6	5	antiphase_hc_osi.wav	2	6	3	noise_calib_stim_LEFT.wav	1	31	blb_dichoticlistening_ta-ba.mp3	ta	ba	1	left
6.6.1	win	2023-06-26	23:24:24	0	0	5be9b18df5c1060001085048	2	2	DL_test	15	DL_test	2			0		ba	1	2007	6	5	antiphase_hc_osi.wav	2	6	3	noise_calib_stim_LEFT.wav	1	1	blb_dichoticlistening_ba-ba.mp3	ba	ba	0	left
6.6.1	win	2023-06-26	23:24:24	0	0	5be9b18df5c1060001085048	2	2	DL_test	15	DL_test	3			0		ka	0	1454	6	5	antiphase_hc_osi.wav	2	6	3	noise_calib_stim_LEFT.wav	1	6	blb_dichoticlistening_ba-ta.mp3	ba	ta	1	other
6.6.1	win	2023-06-26	23:24:24	0	0	5be9b18df5c1060001085048	2	2	DL_test	15	DL_test	4			0		ta	1	1977	6	5	antiphase_hc_osi.wav	2	6	3	noise_calib_stim_LEFT.wav	1	30	blb_dichoticlistening_pa-ta.mp3	pa	ta	1	right
6.6.1	win	2023-06-26	23:24:24	0	0	5be9b18df5c1060001085048	2	2	DL_test	15	DL_test	5			0		da	1	1555	6	5	antiphase_hc_osi.wav	2	6	3	noise_calib_stim_LEFT.wav	1	14	blb_dichoticlistening_ga-da.mp3	ga	da	1	right
6.6.1	win	2023-06-26	23:24:24	0	0	5be9b18df5c1060001085048	2	2	DL_test	15	DL_test	6			0		ga	0	1184	6	5	antiphase_hc_osi.wav	2	6	3	noise_calib_stim_LEFT.wav	1	19	blb_dichoticlistening_ka-ba.mp3	ka	ba	1	other
6.6.1	win	2023-06-26	23:24:24	0	0	5be9b18df5c1060001085048	2	2	DL_test	15	DL_test	7			0		da	1	1323	6	5	antiphase_hc_osi.wav	2	6	3	noise_calib_stim_LEFT.wav	1	8	blb_dichoticlistening_da-da.mp3	da	da	0	left
6.6.1	win	2023-06-26	23:24:24	0	0	5be9b18df5c1060001085048	2	2	DL_test	15	DL_test	8			0		ka	0	1461	6	5	antiphase_hc_osi.wav	2	6	3	noise_calib_stim_LEFT.wav	1	36	blb_dichoticlistening_ta-ta.mp3	ta	ta	0	other
6.6.1	win	2023-06-26	23:24:24	0	0	5be9b18df5c1060001085048	2	2	DL_test	15	DL_test	9			0		ka	0	1376	6	5	antiphase_hc_osi.wav	2	6	3	noise_calib_stim_LEFT.wav	1	18	blb_dichoticlistening_ga-ta.mp3	ga	ta	1	other
6.6.1	win	2023-06-26	23:24:24	0	0	5be9b18df5c1060001085048	2	2	DL_test	15	DL_test	10			0		da	0	1121	6	5	antiphase_hc_osi.wav	2	6	3	noise_calib_stim_LEFT.wav	1	13	blb_dichoticlistening_ga-ba.mp3	ga	ba	1	other
6.6.1	win	2023-06-26	23:24:24	0	0	5be9b18df5c1060001085048	2	2	DL_test	15	DL_test	11			0		ka	1	1173	6	5	antiphase_hc_osi.wav	2	6	3	noise_calib_stim_LEFT.wav	1	34	blb_dichoticlistening_ta-ka.mp3	ta	ka	1	right
6.6.1	win	2023-06-26	23:24:24	0	0	5be9b18df5c1060001085048	2	2	DL_test	15	DL_test	12			0		ka	1	1226	6	5	antiphase_hc_osi.wav	2	6	3	noise_calib_stim_LEFT.wav	1	21	blb_dichoticlistening_ka-ga.mp3	ka	ga	1	left
6.6.1	win	2023-06-26	23:24:24	0	0	5be9b18df5c1060001085048	2	2	DL_test	15	DL_test	13			0		ta	0	2249	6	5	antiphase_hc_osi.wav	2	6	3	noise_calib_stim_LEFT.wav	1	28	blb_dichoticlistening_pa-ka.mp3	pa	ka	1	other
6.6.1	win	2023-06-26	23:24:24	0	0	5be9b18df5c1060001085048	2	2	DL_test	15	DL_test	14			0		ka	1	1501	6	5	antiphase_hc_osi.wav	2	6	3	noise_calib_stim_LEFT.wav	1	22	blb_dichoticlistening_ka-ka.mp3	ka	ka	0	left
6.6.1	win	2023-06-26	23:24:24	0	0	5be9b18df5c1060001085048	2	2	DL_test	15	DL_test	15			0		ta	1	1434	6	5	antiphase_hc_osi.wav	2	6	3	noise_calib_stim_LEFT.wav	1	32	blb_dichoticlistening_ta-da.mp3	ta	da	1	left
6.6.1	win	2023-06-26	23:24:24	0	0	5be9b18df5c1060001085048	2	2	DL_test	15	DL_test	16			0		pa	1	1909	6	5	antiphase_hc_osi.wav	2	6	3	noise_calib_stim_LEFT.wav	1	25	blb_dichoticlistening_pa-ba.mp3	pa	ba	1	left
6.6.1	win	2023-06-26	23:24:24	0	0	5be9b18df5c1060001085048	2	2	DL_test	15	DL_test	17			0		ka	1	1467	6	5	antiphase_hc_osi.wav	2	6	3	noise_calib_stim_LEFT.wav	1	23	blb_dichoticlistening_ka-pa.mp3	ka	pa	1	left
6.6.1	win	2023-06-26	23:24:24	0	0	5be9b18df5c1060001085048	2	2	DL_test	15	DL_test	18			0		ka	1	2889	6	5	antiphase_hc_osi.wav	2	6	3	noise_calib_stim_LEFT.wav	1	24	blb_dichoticlistening_ka-ta.mp3	ka	ta	1	left
6.6.1	win	2023-06-26	23:24:24	0	0	5be9b18df5c1060001085048	2	2	DL_test	15	DL_test	19			0		da	1	1643	6	5	antiphase_hc_osi.wav	2	6	3	noise_calib_stim_LEFT.wav	1	7	blb_dichoticlistening_da-ba.mp3	da	ba	1	left
6.6.1	win	2023-06-26	23:24:24	0	0	5be9b18df5c1060001085048	2	2	DL_test	15	DL_test	20			0		pa	1	1850	6	5	antiphase_hc_osi.wav	2	6	3	noise_calib_stim_LEFT.wav	1	27	blb_dichoticlistening_pa-ga.mp3	pa	ga	1	left
6.6.1	win	2023-06-26	23:24:24	0	0	5be9b18df5c1060001085048	2	2	DL_test	15	DL_test	21			0		ka	0	1535	6	5	antiphase_hc_osi.wav	2	6	3	noise_calib_stim_LEFT.wav	1	3	blb_dichoticlistening_ba-ga.mp3	ba	ga	1	other
6.6.1	win	2023-06-26	23:24:24	0	0	5be9b18df5c1060001085048	2	2	DL_test	15	DL_test	22			0		ga	0	1334	6	5	antiphase_hc_osi.wav	2	6	3	noise_calib_stim_LEFT.wav	1	20	blb_dichoticlistening_ka-da.mp3	ka	da	1	other
6.6.1	win	2023-06-26	23:24:24	0	0	5be9b18df5c1060001085048	2	2	DL_test	15	DL_test	23			0		pa	0	2000	6	5	antiphase_hc_osi.wav	2	6	3	noise_calib_stim_LEFT.wav	1	33	blb_dichoticlistening_ta-ga.mp3	ta	ga	1	other
6.6.1	win	2023-06-26	23:24:24	0	0	5be9b18df5c1060001085048	2	2	DL_test	15	DL_test	24			0		da	1	1393	6	5	antiphase_hc_osi.wav	2	6	3	noise_calib_stim_LEFT.wav	1	9	blb_dichoticlistening_da-ga.mp3	da	ga	1	left
6.6.1	win	2023-06-26	23:24:24	0	0	5be9b18df5c1060001085048	2	2	DL_test	15	DL_test	25			0		ka	1	1617	6	5	antiphase_hc_osi.wav	2	6	3	noise_calib_stim_LEFT.wav	1	4	blb_dichoticlistening_ba-ka.mp3	ba	ka	1	right
6.6.1	win	2023-06-26	23:24:24	0	0	5be9b18df5c1060001085048	2	2	DL_test	15	DL_test	26			0		ka	1	922	6	5	antiphase_hc_osi.wav	2	6	3	noise_calib_stim_LEFT.wav	1	16	blb_dichoticlistening_ga-ka.mp3	ga	ka	1	right
6.6.1	win	2023-06-26	23:24:24	0	0	5be9b18df5c1060001085048	2	2	DL_test	15	DL_test	27			0		ka	1	1539	6	5	antiphase_hc_osi.wav	2	6	3	noise_calib_stim_LEFT.wav	1	10	blb_dichoticlistening_da-ka.mp3	da	ka	1	right
6.6.1	win	2023-06-26	23:24:24	0	0	5be9b18df5c1060001085048	2	2	DL_test	15	DL_test	28			0		pa	1	2203	6	5	antiphase_hc_osi.wav	2	6	3	noise_calib_stim_LEFT.wav	1	5	blb_dichoticlistening_ba-pa.mp3	ba	pa	1	right
6.6.1	win	2023-06-26	23:24:24	0	0	5be9b18df5c1060001085048	2	2	DL_test	15	DL_test	29			0		pa	1	837	6	5	antiphase_hc_osi.wav	2	6	3	noise_calib_stim_LEFT.wav	1	35	blb_dichoticlistening_ta-pa.mp3	ta	pa	1	right
6.6.1	win	2023-06-26	23:24:24	0	0	5be9b18df5c1060001085048	2	2	DL_test	15	DL_test	30			0		ta	1	957	6	5	antiphase_hc_osi.wav	2	6	3	noise_calib_stim_LEFT.wav	1	12	blb_dichoticlistening_da-ta.mp3	da	ta	1	right
6.6.1	win	2023-06-26	23:24:24	0	0	5be9b18df5c1060001085048	2	2	DL_test	15	DL_test	31			0		pa	1	1020	6	5	antiphase_hc_osi.wav	2	6	3	noise_calib_stim_LEFT.wav	1	29	blb_dichoticlistening_pa-pa.mp3	pa	pa	0	left
6.6.1	win	2023-06-26	23:24:24	0	0	5be9b18df5c1060001085048	2	2	DL_test	15	DL_test	32			0		ta	0	959	6	5	antiphase_hc_osi.wav	2	6	3	noise_calib_stim_LEFT.wav	1	11	blb_dichoticlistening_da-pa.mp3	da	pa	1	other
6.6.1	win	2023-06-26	23:24:24	0	0	5be9b18df5c1060001085048	2	2	DL_test	15	DL_test	33			0		da	1	1853	6	5	antiphase_hc_osi.wav	2	6	3	noise_calib_stim_LEFT.wav	1	2	blb_dichoticlistening_ba-da.mp3	ba	da	1	right
6.6.1	win	2023-06-26	23:24:24	0	0	5be9b18df5c1060001085048	2	2	DL_test	15	DL_test	34			0		ta	0	1640	6	5	antiphase_hc_osi.wav	2	6	3	noise_calib_stim_LEFT.wav	1	26	blb_dichoticlistening_pa-da.mp3	pa	da	1	other
6.6.1	win	2023-06-26	23:24:24	0	0	5be9b18df5c1060001085048	2	2	DL_test	15	DL_test	35			0		ga	1	1222	6	5	antiphase_hc_osi.wav	2	6	3	noise_calib_stim_LEFT.wav	1	15	blb_dichoticlistening_ga-ga.mp3	ga	ga	0	left
6.6.1	win	2023-06-26	23:24:24	0	0	5be9b18df5c1060001085048	2	2	DL_test	15	DL_test	36			0		pa	1	2110	6	5	antiphase_hc_osi.wav	2	6	3	noise_calib_stim_LEFT.wav	1	17	blb_dichoticlistening_ga-pa.mp3	ga	pa	1	right
6.6.1	win	2023-06-26	23:24:24	0	0	5be9b18df5c1060001085048	2	2	DL_test	16	DL_test	1			0		ta	1	1946	6	5	antiphase_hc_osi.wav	2	6	3	noise_calib_stim_LEFT.wav	1	36	blb_dichoticlistening_ta-ta.mp3	ta	ta	0	left
6.6.1	win	2023-06-26	23:24:24	0	0	5be9b18df5c1060001085048	2	2	DL_test	16	DL_test	2			0		ka	0	1583	6	5	antiphase_hc_osi.wav	2	6	3	noise_calib_stim_LEFT.wav	1	6	blb_dichoticlistening_ba-ta.mp3	ba	ta	1	other
6.6.1	win	2023-06-26	23:24:24	0	0	5be9b18df5c1060001085048	2	2	DL_test	16	DL_test	3			0		da	1	1342	6	5	antiphase_hc_osi.wav	2	6	3	noise_calib_stim_LEFT.wav	1	2	blb_dichoticlistening_ba-da.mp3	ba	da	1	right
6.6.1	win	2023-06-26	23:24:24	0	0	5be9b18df5c1060001085048	2	2	DL_test	16	DL_test	4			0		ka	1	2347	6	5	antiphase_hc_osi.wav	2	6	3	noise_calib_stim_LEFT.wav	1	34	blb_dichoticlistening_ta-ka.mp3	ta	ka	1	right
6.6.1	win	2023-06-26	23:24:24	0	0	5be9b18df5c1060001085048	2	2	DL_test	16	DL_test	5			0		ta	1	2799	6	5	antiphase_hc_osi.wav	2	6	3	noise_calib_stim_LEFT.wav	1	32	blb_dichoticlistening_ta-da.mp3	ta	da	1	left
6.6.1	win	2023-06-26	23:24:24	0	0	5be9b18df5c1060001085048	2	2	DL_test	16	DL_test	6			0		ka	1	1453	6	5	antiphase_hc_osi.wav	2	6	3	noise_calib_stim_LEFT.wav	1	24	blb_dichoticlistening_ka-ta.mp3	ka	ta	1	left
6.6.1	win	2023-06-26	23:24:24	0	0	5be9b18df5c1060001085048	2	2	DL_test	16	DL_test	7			0		ta	1	2199	6	5	antiphase_hc_osi.wav	2	6	3	noise_calib_stim_LEFT.wav	1	12	blb_dichoticlistening_da-ta.mp3	da	ta	1	right
6.6.1	win	2023-06-26	23:24:24	0	0	5be9b18df5c1060001085048	2	2	DL_test	16	DL_test	8			0		pa	1	1972	6	5	antiphase_hc_osi.wav	2	6	3	noise_calib_stim_LEFT.wav	1	35	blb_dichoticlistening_ta-pa.mp3	ta	pa	1	right
6.6.1	win	2023-06-26	23:24:24	0	0	5be9b18df5c1060001085048	2	2	DL_test	16	DL_test	9			0		pa	1	960	6	5	antiphase_hc_osi.wav	2	6	3	noise_calib_stim_LEFT.wav	1	27	blb_dichoticlistening_pa-ga.mp3	pa	ga	1	left
6.6.1	win	2023-06-26	23:24:24	0	0	5be9b18df5c1060001085048	2	2	DL_test	16	DL_test	10			0		ka	1	1176	6	5	antiphase_hc_osi.wav	2	6	3	noise_calib_stim_LEFT.wav	1	21	blb_dichoticlistening_ka-ga.mp3	ka	ga	1	left
6.6.1	win	2023-06-26	23:24:24	0	0	5be9b18df5c1060001085048	2	2	DL_test	16	DL_test	11			0		ta	1	1998	6	5	antiphase_hc_osi.wav	2	6	3	noise_calib_stim_LEFT.wav	1	33	blb_dichoticlistening_ta-ga.mp3	ta	ga	1	left
6.6.1	win	2023-06-26	23:24:24	0	0	5be9b18df5c1060001085048	2	2	DL_test	16	DL_test	12			0		da	1	1610	6	5	antiphase_hc_osi.wav	2	6	3	noise_calib_stim_LEFT.wav	1	7	blb_dichoticlistening_da-ba.mp3	da	ba	1	left
6.6.1	win	2023-06-26	23:24:24	0	0	5be9b18df5c1060001085048	2	2	DL_test	16	DL_test	13			0		da	1	2501	6	5	antiphase_hc_osi.wav	2	6	3	noise_calib_stim_LEFT.wav	1	8	blb_dichoticlistening_da-da.mp3	da	da	0	left
6.6.1	win	2023-06-26	23:24:24	0	0	5be9b18df5c1060001085048	2	2	DL_test	16	DL_test	14			0		ka	1	1454	6	5	antiphase_hc_osi.wav	2	6	3	noise_calib_stim_LEFT.wav	1	19	blb_dichoticlistening_ka-ba.mp3	ka	ba	1	left
6.6.1	win	2023-06-26	23:24:24	0	0	5be9b18df5c1060001085048	2	2	DL_test	16	DL_test	15			0		da	1	1408	6	5	antiphase_hc_osi.wav	2	6	3	noise_calib_stim_LEFT.wav	1	9	blb_dichoticlistening_da-ga.mp3	da	ga	1	left
6.6.1	win	2023-06-26	23:24:24	0	0	5be9b18df5c1060001085048	2	2	DL_test	16	DL_test	16			0		ka	0	1637	6	5	antiphase_hc_osi.wav	2	6	3	noise_calib_stim_LEFT.wav	1	18	blb_dichoticlistening_ga-ta.mp3	ga	ta	1	other
6.6.1	win	2023-06-26	23:24:24	0	0	5be9b18df5c1060001085048	2	2	DL_test	16	DL_test	17			0		ka	1	1524	6	5	antiphase_hc_osi.wav	2	6	3	noise_calib_stim_LEFT.wav	1	16	blb_dichoticlistening_ga-ka.mp3	ga	ka	1	right
6.6.1	win	2023-06-26	23:24:24	0	0	5be9b18df5c1060001085048	2	2	DL_test	16	DL_test	18			0		pa	0	1949	6	5	antiphase_hc_osi.wav	2	6	3	noise_calib_stim_LEFT.wav	1	10	blb_dichoticlistening_da-ka.mp3	da	ka	1	other
6.6.1	win	2023-06-26	23:24:24	0	0	5be9b18df5c1060001085048	2	2	DL_test	16	DL_test	19			0		pa	1	812	6	5	antiphase_hc_osi.wav	2	6	3	noise_calib_stim_LEFT.wav	1	29	blb_dichoticlistening_pa-pa.mp3	pa	pa	0	left
6.6.1	win	2023-06-26	23:24:24	0	0	5be9b18df5c1060001085048	2	2	DL_test	16	DL_test	20			0		ta	1	2079	6	5	antiphase_hc_osi.wav	2	6	3	noise_calib_stim_LEFT.wav	1	30	blb_dichoticlistening_pa-ta.mp3	pa	ta	1	right
6.6.1	win	2023-06-26	23:24:24	0	0	5be9b18df5c1060001085048	2	2	DL_test	16	DL_test	21			0		ka	1	1508	6	5	antiphase_hc_osi.wav	2	6	3	noise_calib_stim_LEFT.wav	1	23	blb_dichoticlistening_ka-pa.mp3	ka	pa	1	left
6.6.1	win	2023-06-26	23:24:24	0	0	5be9b18df5c1060001085048	2	2	DL_test	16	DL_test	22			0		pa	1	1472	6	5	antiphase_hc_osi.wav	2	6	3	noise_calib_stim_LEFT.wav	1	25	blb_dichoticlistening_pa-ba.mp3	pa	ba	1	left
6.6.1	win	2023-06-26	23:24:24	0	0	5be9b18df5c1060001085048	2	2	DL_test	16	DL_test	23			0		ga	1	1408	6	5	antiphase_hc_osi.wav	2	6	3	noise_calib_stim_LEFT.wav	1	15	blb_dichoticlistening_ga-ga.mp3	ga	ga	0	left
6.6.1	win	2023-06-26	23:24:24	0	0	5be9b18df5c1060001085048	2	2	DL_test	16	DL_test	24			0		ta	0	2000	6	5	antiphase_hc_osi.wav	2	6	3	noise_calib_stim_LEFT.wav	1	28	blb_dichoticlistening_pa-ka.mp3	pa	ka	1	other
6.6.1	win	2023-06-26	23:24:24	0	0	5be9b18df5c1060001085048	2	2	DL_test	16	DL_test	25			0		ta	0	1766	6	5	antiphase_hc_osi.wav	2	6	3	noise_calib_stim_LEFT.wav	1	17	blb_dichoticlistening_ga-pa.mp3	ga	pa	1	other
6.6.1	win	2023-06-26	23:24:24	0	0	5be9b18df5c1060001085048	2	2	DL_test	16	DL_test	26			0		ka	1	1561	6	5	antiphase_hc_osi.wav	2	6	3	noise_calib_stim_LEFT.wav	1	20	blb_dichoticlistening_ka-da.mp3	ka	da	1	left
6.6.1	win	2023-06-26	23:24:24	0	0	5be9b18df5c1060001085048	2	2	DL_test	16	DL_test	27			0		ka	1	2013	6	5	antiphase_hc_osi.wav	2	6	3	noise_calib_stim_LEFT.wav	1	22	blb_dichoticlistening_ka-ka.mp3	ka	ka	0	left
6.6.1	win	2023-06-26	23:24:24	0	0	5be9b18df5c1060001085048	2	2	DL_test	16	DL_test	28			0		ba	1	2486	6	5	antiphase_hc_osi.wav	2	6	3	noise_calib_stim_LEFT.wav	1	1	blb_dichoticlistening_ba-ba.mp3	ba	ba	0	left
6.6.1	win	2023-06-26	23:24:24	0	0	5be9b18df5c1060001085048	2	2	DL_test	16	DL_test	29			0		pa	1	2058	6	5	antiphase_hc_osi.wav	2	6	3	noise_calib_stim_LEFT.wav	1	26	blb_dichoticlistening_pa-da.mp3	pa	da	1	left
6.6.1	win	2023-06-26	23:24:24	0	0	5be9b18df5c1060001085048	2	2	DL_test	16	DL_test	30			0		pa	1	872	6	5	antiphase_hc_osi.wav	2	6	3	noise_calib_stim_LEFT.wav	1	5	blb_dichoticlistening_ba-pa.mp3	ba	pa	1	right
6.6.1	win	2023-06-26	23:24:24	0	0	5be9b18df5c1060001085048	2	2	DL_test	16	DL_test	31			0		ka	1	2616	6	5	antiphase_hc_osi.wav	2	6	3	noise_calib_stim_LEFT.wav	1	4	blb_dichoticlistening_ba-ka.mp3	ba	ka	1	right
6.6.1	win	2023-06-26	23:24:24	0	0	5be9b18df5c1060001085048	2	2	DL_test	16	DL_test	32			0		ta	0	1911	6	5	antiphase_hc_osi.wav	2	6	3	noise_calib_stim_LEFT.wav	1	11	blb_dichoticlistening_da-pa.mp3	da	pa	1	other
6.6.1	win	2023-06-26	23:24:24	0	0	5be9b18df5c1060001085048	2	2	DL_test	16	DL_test	33			0		pa	0	1455	6	5	antiphase_hc_osi.wav	2	6	3	noise_calib_stim_LEFT.wav	1	31	blb_dichoticlistening_ta-ba.mp3	ta	ba	1	other
6.6.1	win	2023-06-26	23:24:24	0	0	5be9b18df5c1060001085048	2	2	DL_test	16	DL_test	34			0		da	0	1722	6	5	antiphase_hc_osi.wav	2	6	3	noise_calib_stim_LEFT.wav	1	3	blb_dichoticlistening_ba-ga.mp3	ba	ga	1	other
6.6.1	win	2023-06-26	23:24:24	0	0	5be9b18df5c1060001085048	2	2	DL_test	16	DL_test	35			0		da	0	1297	6	5	antiphase_hc_osi.wav	2	6	3	noise_calib_stim_LEFT.wav	1	13	blb_dichoticlistening_ga-ba.mp3	ga	ba	1	other
6.6.1	win	2023-06-26	23:24:24	0	0	5be9b18df5c1060001085048	2	2	DL_test	16	DL_test	36			0		da	1	994	6	5	antiphase_hc_osi.wav	2	6	3	noise_calib_stim_LEFT.wav	1	14	blb_dichoticlistening_ga-da.mp3	ga	da	1	right
6.6.1	win	2023-06-26	23:24:24	23:34:00	570494	5be9b18df5c1060001085048	2	2	practice_z	22	practice_z	1	stimuli_distractor_diamondtriangles.svg	stimuli_target_diamondrectangles.svg	8	yes	0	0	2000	6	5	antiphase_hc_osi.wav	2	6	3	noise_calib_stim_LEFT.wav	1	14	blb_dichoticlistening_ga-da.mp3	ga	da	1	right
6.6.1	win	2023-06-26	23:24:24	23:34:00	570494	5be9b18df5c1060001085048	2	2	practice_z	22	advance_on_keypress_ZEE	2	stimuli_distractor_diamondtriangles.svg	stimuli_target_diamondrectangles.svg	8	yes	57	0	1914	6	5	antiphase_hc_osi.wav	2	6	3	noise_calib_stim_LEFT.wav	1	14	blb_dichoticlistening_ga-da.mp3	ga	da	1	right
6.6.1	win	2023-06-26	23:24:24	23:34:04	575055	5be9b18df5c1060001085048	2	2	practice_z	22	practice_z	3	stimuli_distractor_trianglediamonds.svg	stimuli_distractor_diamondtriangles.svg	16	no	44	0	998	6	5	antiphase_hc_osi.wav	2	6	3	noise_calib_stim_LEFT.wav	1	14	blb_dichoticlistening_ga-da.mp3	ga	da	1	right
6.6.1	win	2023-06-26	23:24:24	23:34:04	575055	5be9b18df5c1060001085048	2	2	practice_z	22	advance_on_keypress_ZEE	4	stimuli_distractor_trianglediamonds.svg	stimuli_distractor_diamondtriangles.svg	16	no	57	0	880	6	5	antiphase_hc_osi.wav	2	6	3	noise_calib_stim_LEFT.wav	1	14	blb_dichoticlistening_ga-da.mp3	ga	da	1	right
6.6.1	win	2023-06-26	23:24:24	23:34:07	578262	5be9b18df5c1060001085048	2	2	practice_z	22	practice_z	5	stimuli_distractor_trianglediamonds.svg	stimuli_distractor_trianglediamonds.svg	15	no	44	0	676	6	5	antiphase_hc_osi.wav	2	6	3	noise_calib_stim_LEFT.wav	1	14	blb_dichoticlistening_ga-da.mp3	ga	da	1	right
6.6.1	win	2023-06-26	23:24:24	23:34:07	578262	5be9b18df5c1060001085048	2	2	practice_z	22	advance_on_keypress_ZEE	6	stimuli_distractor_trianglediamonds.svg	stimuli_distractor_trianglediamonds.svg	15	no	57	0	2546	6	5	antiphase_hc_osi.wav	2	6	3	noise_calib_stim_LEFT.wav	1	14	blb_dichoticlistening_ga-da.mp3	ga	da	1	right
6.6.1	win	2023-06-26	23:24:24	23:34:12	582742	5be9b18df5c1060001085048	2	2	practice_z	22	practice_z	7	stimuli_distractor_diamondtriangles.svg	stimuli_distractor_diamondtriangles.svg	13	no	44	0	277	6	5	antiphase_hc_osi.wav	2	6	3	noise_calib_stim_LEFT.wav	1	14	blb_dichoticlistening_ga-da.mp3	ga	da	1	right
6.6.1	win	2023-06-26	23:24:24	23:34:12	582742	5be9b18df5c1060001085048	2	2	practice_z	22	advance_on_keypress_ZEE	8	stimuli_distractor_diamondtriangles.svg	stimuli_distractor_diamondtriangles.svg	13	no	57	0	170	6	5	antiphase_hc_osi.wav	2	6	3	noise_calib_stim_LEFT.wav	1	14	blb_dichoticlistening_ga-da.mp3	ga	da	1	right
6.6.1	win	2023-06-26	23:24:24	23:34:14	584911	5be9b18df5c1060001085048	2	2	practice_z	22	practice_z	9	stimuli_target_rectanglediamonds.svg	stimuli_distractor_trianglediamonds.svg	4	yes	44	1	346	6	5	antiphase_hc_osi.wav	2	6	3	noise_calib_stim_LEFT.wav	1	14	blb_dichoticlistening_ga-da.mp3	ga	da	1	right
6.6.1	win	2023-06-26	23:24:24	23:34:14	584911	5be9b18df5c1060001085048	2	2	practice_z	22	advance_on_keypress_ZEE	10	stimuli_target_rectanglediamonds.svg	stimuli_distractor_trianglediamonds.svg	4	yes	57	0	1013	6	5	antiphase_hc_osi.wav	2	6	3	noise_calib_stim_LEFT.wav	1	14	blb_dichoticlistening_ga-da.mp3	ga	da	1	right
6.6.1	win	2023-06-26	23:24:24	23:34:17	587847	5be9b18df5c1060001085048	2	2	practice_z	22	practice_z	11	stimuli_distractor_diamondtriangles.svg	stimuli_distractor_trianglediamonds.svg	14	no	44	0	268	6	5	antiphase_hc_osi.wav	2	6	3	noise_calib_stim_LEFT.wav	1	14	blb_dichoticlistening_ga-da.mp3	ga	da	1	right
6.6.1	win	2023-06-26	23:24:24	23:34:17	587847	5be9b18df5c1060001085048	2	2	practice_z	22	advance_on_keypress_ZEE	12	stimuli_distractor_diamondtriangles.svg	stimuli_distractor_trianglediamonds.svg	14	no	57	0	803	6	5	antiphase_hc_osi.wav	2	6	3	noise_calib_stim_LEFT.wav	1	14	blb_dichoticlistening_ga-da.mp3	ga	da	1	right
6.6.1	win	2023-06-26	23:24:24	23:34:20	590591	5be9b18df5c1060001085048	2	2	practice_z	22	practice_z	13	stimuli_distractor_diamondtriangles.svg	stimuli_target_rectangletriangles.svg	7	yes	44	1	299	6	5	antiphase_hc_osi.wav	2	6	3	noise_calib_stim_LEFT.wav	1	14	blb_dichoticlistening_ga-da.mp3	ga	da	1	right
6.6.1	win	2023-06-26	23:24:24	23:34:20	590591	5be9b18df5c1060001085048	2	2	practice_z	22	advance_on_keypress_ZEE	14	stimuli_distractor_diamondtriangles.svg	stimuli_target_rectangletriangles.svg	7	yes	57	0	1368	6	5	antiphase_hc_osi.wav	2	6	3	noise_calib_stim_LEFT.wav	1	14	blb_dichoticlistening_ga-da.mp3	ga	da	1	right
6.6.1	win	2023-06-26	23:24:24	23:34:23	593935	5be9b18df5c1060001085048	2	2	practice_z	22	practice_z	15	stimuli_distractor_trianglediamonds.svg	stimuli_target_rectanglediamonds.svg	10	yes	44	1	328	6	5	antiphase_hc_osi.wav	2	6	3	noise_calib_stim_LEFT.wav	1	14	blb_dichoticlistening_ga-da.mp3	ga	da	1	right
6.6.1	win	2023-06-26	23:24:24	23:34:23	593935	5be9b18df5c1060001085048	2	2	practice_z	22	advance_on_keypress_ZEE	16	stimuli_distractor_trianglediamonds.svg	stimuli_target_rectanglediamonds.svg	10	yes	57	0	501	6	5	antiphase_hc_osi.wav	2	6	3	noise_calib_stim_LEFT.wav	1	14	blb_dichoticlistening_ga-da.mp3	ga	da	1	right
6.6.1	win	2023-06-26	23:24:24	23:34:26	596359	5be9b18df5c1060001085048	2	2	practice_z	22	practice_z	17	stimuli_distractor_diamondtriangles.svg	stimuli_target_trianglerectangles.svg	9	yes	44	1	271	6	5	antiphase_hc_osi.wav	2	6	3	noise_calib_stim_LEFT.wav	1	14	blb_dichoticlistening_ga-da.mp3	ga	da	1	right
6.6.1	win	2023-06-26	23:24:24	23:34:26	596359	5be9b18df5c1060001085048	2	2	practice_z	22	advance_on_keypress_ZEE	18	stimuli_distractor_diamondtriangles.svg	stimuli_target_trianglerectangles.svg	9	yes	57	0	245	6	5	antiphase_hc_osi.wav	2	6	3	noise_calib_stim_LEFT.wav	1	14	blb_dichoticlistening_ga-da.mp3	ga	da	1	right
6.6.1	win	2023-06-26	23:24:24	23:34:28	598550	5be9b18df5c1060001085048	2	2	practice_z	22	practice_z	19	stimuli_target_squarediamonds.svg	stimuli_distractor_trianglediamonds.svg	5	yes	44	1	298	6	5	antiphase_hc_osi.wav	2	6	3	noise_calib_stim_LEFT.wav	1	14	blb_dichoticlistening_ga-da.mp3	ga	da	1	right
6.6.1	win	2023-06-26	23:24:24	23:34:28	598550	5be9b18df5c1060001085048	2	2	practice_z	22	advance_on_keypress_ZEE	20	stimuli_target_squarediamonds.svg	stimuli_distractor_trianglediamonds.svg	5	yes	57	0	152	6	5	antiphase_hc_osi.wav	2	6	3	noise_calib_stim_LEFT.wav	1	14	blb_dichoticlistening_ga-da.mp3	ga	da	1	right
6.6.1	win	2023-06-26	23:24:24	23:34:30	600663	5be9b18df5c1060001085048	2	2	practice_z	22	practice_z	21	stimuli_target_rectanglediamonds.svg	stimuli_distractor_diamondtriangles.svg	1	yes	44	1	312	6	5	antiphase_hc_osi.wav	2	6	3	noise_calib_stim_LEFT.wav	1	14	blb_dichoticlistening_ga-da.mp3	ga	da	1	right
6.6.1	win	2023-06-26	23:24:24	23:34:30	600663	5be9b18df5c1060001085048	2	2	practice_z	22	advance_on_keypress_ZEE	22	stimuli_target_rectanglediamonds.svg	stimuli_distractor_diamondtriangles.svg	1	yes	57	0	196	6	5	antiphase_hc_osi.wav	2	6	3	noise_calib_stim_LEFT.wav	1	14	blb_dichoticlistening_ga-da.mp3	ga	da	1	right
6.6.1	win	2023-06-26	23:24:24	23:34:33	603743	5be9b18df5c1060001085048	2	2	practice_z	22	practice_z	23	stimuli_target_diamondsquares.svg	stimuli_distractor_trianglediamonds.svg	6	yes	44	1	1227	6	5	antiphase_hc_osi.wav	2	6	3	noise_calib_stim_LEFT.wav	1	14	blb_dichoticlistening_ga-da.mp3	ga	da	1	right
6.6.1	win	2023-06-26	23:24:24	23:34:33	603743	5be9b18df5c1060001085048	2	2	practice_z	22	advance_on_keypress_ZEE	24	stimuli_target_diamondsquares.svg	stimuli_distractor_trianglediamonds.svg	6	yes	57	0	516	6	5	antiphase_hc_osi.wav	2	6	3	noise_calib_stim_LEFT.wav	1	14	blb_dichoticlistening_ga-da.mp3	ga	da	1	right
6.6.1	win	2023-06-26	23:24:24	23:34:35	606230	5be9b18df5c1060001085048	2	2	practice_z	22	practice_z	25	stimuli_distractor_trianglediamonds.svg	stimuli_target_squarediamonds.svg	11	yes	44	1	318	6	5	antiphase_hc_osi.wav	2	6	3	noise_calib_stim_LEFT.wav	1	14	blb_dichoticlistening_ga-da.mp3	ga	da	1	right
6.6.1	win	2023-06-26	23:24:24	23:34:35	606230	5be9b18df5c1060001085048	2	2	practice_z	22	advance_on_keypress_ZEE	26	stimuli_distractor_trianglediamonds.svg	stimuli_target_squarediamonds.svg	11	yes	57	0	1186	6	5	antiphase_hc_osi.wav	2	6	3	noise_calib_stim_LEFT.wav	1	14	blb_dichoticlistening_ga-da.mp3	ga	da	1	right
6.6.1	win	2023-06-26	23:24:24	23:34:39	609703	5be9b18df5c1060001085048	2	2	practice_z	22	practice_z	27	stimuli_target_diamondsquares.svg	stimuli_distractor_diamondtriangles.svg	3	yes	44	1	643	6	5	antiphase_hc_osi.wav	2	6	3	noise_calib_stim_LEFT.wav	1	14	blb_dichoticlistening_ga-da.mp3	ga	da	1	right
6.6.1	win	2023-06-26	23:24:24	23:34:39	609703	5be9b18df5c1060001085048	2	2	practice_z	22	advance_on_keypress_ZEE	28	stimuli_target_diamondsquares.svg	stimuli_distractor_diamondtriangles.svg	3	yes	57	0	1507	6	5	antiphase_hc_osi.wav	2	6	3	noise_calib_stim_LEFT.wav	1	14	blb_dichoticlistening_ga-da.mp3	ga	da	1	right
6.6.1	win	2023-06-26	23:24:24	23:34:43	613447	5be9b18df5c1060001085048	2	2	practice_z	22	practice_z	29	stimuli_distractor_trianglediamonds.svg	stimuli_target_diamondrectangles.svg	12	yes	44	1	590	6	5	antiphase_hc_osi.wav	2	6	3	noise_calib_stim_LEFT.wav	1	14	blb_dichoticlistening_ga-da.mp3	ga	da	1	right
6.6.1	win	2023-06-26	23:24:24	23:34:43	613447	5be9b18df5c1060001085048	2	2	practice_z	22	advance_on_keypress_ZEE	30	stimuli_distractor_trianglediamonds.svg	stimuli_target_diamondrectangles.svg	12	yes	57	0	696	6	5	antiphase_hc_osi.wav	2	6	3	noise_calib_stim_LEFT.wav	1	14	blb_dichoticlistening_ga-da.mp3	ga	da	1	right
6.6.1	win	2023-06-26	23:24:24	23:34:45	616103	5be9b18df5c1060001085048	2	2	practice_z	22	practice_z	31	stimuli_target_squarediamonds.svg	stimuli_distractor_diamondtriangles.svg	2	yes	44	1	300	6	5	antiphase_hc_osi.wav	2	6	3	noise_calib_stim_LEFT.wav	1	14	blb_dichoticlistening_ga-da.mp3	ga	da	1	right
6.6.1	win	2023-06-26	23:24:24	23:34:45	616103	5be9b18df5c1060001085048	2	2	practice_z	22	advance_on_keypress_ZEE	32	stimuli_target_squarediamonds.svg	stimuli_distractor_diamondtriangles.svg	2	yes	57	0	1296	6	5	antiphase_hc_osi.wav	2	6	3	noise_calib_stim_LEFT.wav	1	14	blb_dichoticlistening_ga-da.mp3	ga	da	1	right
6.6.1	win	2023-06-26	23:24:24	23:34:54	624428	5be9b18df5c1060001085048	2	2	main_z	24	main_z	1	stimuli_distractor_trianglediamonds.svg	stimuli_distractor_trianglediamonds.svg	33	no	44	0	968	6	5	antiphase_hc_osi.wav	2	6	3	noise_calib_stim_LEFT.wav	1	14	blb_dichoticlistening_ga-da.mp3	ga	da	1	right
6.6.1	win	2023-06-26	23:24:24	23:34:54	624428	5be9b18df5c1060001085048	2	2	main_z	24	advance_on_keypress_ZEE	2	stimuli_distractor_trianglediamonds.svg	stimuli_distractor_trianglediamonds.svg	33	no	57	0	842	6	5	antiphase_hc_osi.wav	2	6	3	noise_calib_stim_LEFT.wav	1	14	blb_dichoticlistening_ga-da.mp3	ga	da	1	right
6.6.1	win	2023-06-26	23:24:24	23:34:55	626260	5be9b18df5c1060001085048	2	2	main_z	24	main_z	3	stimuli_target_squarediamonds.svg	stimuli_distractor_trianglediamonds.svg	4	yes	44	1	352	6	5	antiphase_hc_osi.wav	2	6	3	noise_calib_stim_LEFT.wav	1	14	blb_dichoticlistening_ga-da.mp3	ga	da	1	right
6.6.1	win	2023-06-26	23:24:24	23:34:55	626260	5be9b18df5c1060001085048	2	2	main_z	24	advance_on_keypress_ZEE	4	stimuli_target_squarediamonds.svg	stimuli_distractor_trianglediamonds.svg	4	yes	57	0	594	6	5	antiphase_hc_osi.wav	2	6	3	noise_calib_stim_LEFT.wav	1	14	blb_dichoticlistening_ga-da.mp3	ga	da	1	right
6.6.1	win	2023-06-26	23:24:24	23:34:57	627684	5be9b18df5c1060001085048	2	2	main_z	24	main_z	5	stimuli_distractor_trianglediamonds.svg	stimuli_distractor_trianglediamonds.svg	34	no	44	0	194	6	5	antiphase_hc_osi.wav	2	6	3	noise_calib_stim_LEFT.wav	1	14	blb_dichoticlistening_ga-da.mp3	ga	da	1	right
6.6.1	win	2023-06-26	23:24:24	23:34:57	627684	5be9b18df5c1060001085048	2	2	main_z	24	advance_on_keypress_ZEE	6	stimuli_distractor_trianglediamonds.svg	stimuli_distractor_trianglediamonds.svg	34	no	57	0	620	6	5	antiphase_hc_osi.wav	2	6	3	noise_calib_stim_LEFT.wav	1	14	blb_dichoticlistening_ga-da.mp3	ga	da	1	right
6.6.1	win	2023-06-26	23:24:24	23:34:59	629356	5be9b18df5c1060001085048	2	2	main_z	24	main_z	7	stimuli_target_trianglerectangles.svg	stimuli_distractor_trianglediamonds.svg	17	yes	44	1	417	6	5	antiphase_hc_osi.wav	2	6	3	noise_calib_stim_LEFT.wav	1	14	blb_dichoticlistening_ga-da.mp3	ga	da	1	right
6.6.1	win	2023-06-26	23:24:24	23:34:59	629356	5be9b18df5c1060001085048	2	2	main_z	24	advance_on_keypress_ZEE	8	stimuli_target_trianglerectangles.svg	stimuli_distractor_trianglediamonds.svg	17	yes	57	0	729	6	5	antiphase_hc_osi.wav	2	6	3	noise_calib_stim_LEFT.wav	1	14	blb_dichoticlistening_ga-da.mp3	ga	da	1	right
6.6.1	win	2023-06-26	23:24:24	23:35:00	631052	5be9b18df5c1060001085048	2	2	main_z	24	main_z	9	stimuli_distractor_diamondtriangles.svg	stimuli_target_trianglesquares.svg	30	yes	44	1	315	6	5	antiphase_hc_osi.wav	2	6	3	noise_calib_stim_LEFT.wav	1	14	blb_dichoticlistening_ga-da.mp3	ga	da	1	right
6.6.1	win	2023-06-26	23:24:24	23:35:00	631052	5be9b18df5c1060001085048	2	2	main_z	24	advance_on_keypress_ZEE	10	stimuli_distractor_diamondtriangles.svg	stimuli_target_trianglesquares.svg	30	yes	57	0	3078	6	5	antiphase_hc_osi.wav	2	6	3	noise_calib_stim_LEFT.wav	1	14	blb_dichoticlistening_ga-da.mp3	ga	da	1	right
6.6.1	win	2023-06-26	23:24:24	23:35:04	635164	5be9b18df5c1060001085048	2	2	main_z	24	main_z	11	stimuli_target_trianglerectangles.svg	stimuli_distractor_diamondtriangles.svg	21	yes	44	1	380	6	5	antiphase_hc_osi.wav	2	6	3	noise_calib_stim_LEFT.wav	1	14	blb_dichoticlistening_ga-da.mp3	ga	da	1	right
6.6.1	win	2023-06-26	23:24:24	23:35:04	635164	5be9b18df5c1060001085048	2	2	main_z	24	advance_on_keypress_ZEE	12	stimuli_target_trianglerectangles.svg	stimuli_distractor_diamondtriangles.svg	21	yes	57	0	1701	6	5	antiphase_hc_osi.wav	2	6	3	noise_calib_stim_LEFT.wav	1	14	blb_dichoticlistening_ga-da.mp3	ga	da	1	right
6.6.1	win	2023-06-26	23:24:24	23:35:07	637836	5be9b18df5c1060001085048	2	2	main_z	24	main_z	13	stimuli_target_diamondsquares.svg	stimuli_distractor_trianglediamonds.svg	20	yes	44	1	321	6	5	antiphase_hc_osi.wav	2	6	3	noise_calib_stim_LEFT.wav	1	14	blb_dichoticlistening_ga-da.mp3	ga	da	1	right
6.6.1	win	2023-06-26	23:24:24	23:35:07	637836	5be9b18df5c1060001085048	2	2	main_z	24	advance_on_keypress_ZEE	14	stimuli_target_diamondsquares.svg	stimuli_distractor_trianglediamonds.svg	20	yes	57	0	694	6	5	antiphase_hc_osi.wav	2	6	3	noise_calib_stim_LEFT.wav	1	14	blb_dichoticlistening_ga-da.mp3	ga	da	1	right
6.6.1	win	2023-06-26	23:24:24	23:35:09	640132	5be9b18df5c1060001085048	2	2	main_z	24	main_z	15	stimuli_target_diamondrectangles.svg	stimuli_distractor_diamondtriangles.svg	23	yes	44	1	969	6	5	antiphase_hc_osi.wav	2	6	3	noise_calib_stim_LEFT.wav	1	14	blb_dichoticlistening_ga-da.mp3	ga	da	1	right
6.6.1	win	2023-06-26	23:24:24	23:35:09	640132	5be9b18df5c1060001085048	2	2	main_z	24	advance_on_keypress_ZEE	16	stimuli_target_diamondrectangles.svg	stimuli_distractor_diamondtriangles.svg	23	yes	57	0	723	6	5	antiphase_hc_osi.wav	2	6	3	noise_calib_stim_LEFT.wav	1	14	blb_dichoticlistening_ga-da.mp3	ga	da	1	right
6.6.1	win	2023-06-26	23:24:24	23:35:11	641732	5be9b18df5c1060001085048	2	2	main_z	24	main_z	17	stimuli_target_rectangletriangles.svg	stimuli_distractor_diamondtriangles.svg	5	yes	44	1	239	6	5	antiphase_hc_osi.wav	2	6	3	noise_calib_stim_LEFT.wav	1	14	blb_dichoticlistening_ga-da.mp3	ga	da	1	right
6.6.1	win	2023-06-26	23:24:24	23:35:11	641732	5be9b18df5c1060001085048	2	2	main_z	24	advance_on_keypress_ZEE	18	stimuli_target_rectangletriangles.svg	stimuli_distractor_diamondtriangles.svg	5	yes	57	0	869	6	5	antiphase_hc_osi.wav	2	6	3	noise_calib_stim_LEFT.wav	1	14	blb_dichoticlistening_ga-da.mp3	ga	da	1	right
6.6.1	win	2023-06-26	23:24:24	23:35:13	643623	5be9b18df5c1060001085048	2	2	main_z	24	main_z	19	stimuli_target_rectanglediamonds.svg	stimuli_distractor_diamondtriangles.svg	6	yes	44	1	378	6	5	antiphase_hc_osi.wav	2	6	3	noise_calib_stim_LEFT.wav	1	14	blb_dichoticlistening_ga-da.mp3	ga	da	1	right
6.6.1	win	2023-06-26	23:24:24	23:35:13	643623	5be9b18df5c1060001085048	2	2	main_z	24	advance_on_keypress_ZEE	20	stimuli_target_rectanglediamonds.svg	stimuli_distractor_diamondtriangles.svg	6	yes	57	0	883	6	5	antiphase_hc_osi.wav	2	6	3	noise_calib_stim_LEFT.wav	1	14	blb_dichoticlistening_ga-da.mp3	ga	da	1	right
6.6.1	win	2023-06-26	23:24:24	23:35:15	645524	5be9b18df5c1060001085048	2	2	main_z	24	main_z	21	stimuli_target_diamondsquares.svg	stimuli_distractor_diamondtriangles.svg	24	yes	44	1	366	6	5	antiphase_hc_osi.wav	2	6	3	noise_calib_stim_LEFT.wav	1	14	blb_dichoticlistening_ga-da.mp3	ga	da	1	right
6.6.1	win	2023-06-26	23:24:24	23:35:15	645524	5be9b18df5c1060001085048	2	2	main_z	24	advance_on_keypress_ZEE	22	stimuli_target_diamondsquares.svg	stimuli_distractor_diamondtriangles.svg	24	yes	57	0	624	6	5	antiphase_hc_osi.wav	2	6	3	noise_calib_stim_LEFT.wav	1	14	blb_dichoticlistening_ga-da.mp3	ga	da	1	right
6.6.1	win	2023-06-26	23:24:24	23:35:16	647124	5be9b18df5c1060001085048	2	2	main_z	24	main_z	23	stimuli_distractor_trianglediamonds.svg	stimuli_target_rectanglediamonds.svg	10	yes	44	1	334	6	5	antiphase_hc_osi.wav	2	6	3	noise_calib_stim_LEFT.wav	1	14	blb_dichoticlistening_ga-da.mp3	ga	da	1	right
6.6.1	win	2023-06-26	23:24:24	23:35:16	647124	5be9b18df5c1060001085048	2	2	main_z	24	advance_on_keypress_ZEE	24	stimuli_distractor_trianglediamonds.svg	stimuli_target_rectanglediamonds.svg	10	yes	57	0	977	6	5	antiphase_hc_osi.wav	2	6	3	noise_calib_stim_LEFT.wav	1	14	blb_dichoticlistening_ga-da.mp3	ga	da	1	right
6.6.1	win	2023-06-26	23:24:24	23:35:18	649100	5be9b18df5c1060001085048	2	2	main_z	24	main_z	25	stimuli_distractor_trianglediamonds.svg	stimuli_target_diamondrectangles.svg	27	yes	44	1	363	6	5	antiphase_hc_osi.wav	2	6	3	noise_calib_stim_LEFT.wav	1	14	blb_dichoticlistening_ga-da.mp3	ga	da	1	right
6.6.1	win	2023-06-26	23:24:24	23:35:18	649100	5be9b18df5c1060001085048	2	2	main_z	24	advance_on_keypress_ZEE	26	stimuli_distractor_trianglediamonds.svg	stimuli_target_diamondrectangles.svg	27	yes	57	0	1347	6	5	antiphase_hc_osi.wav	2	6	3	noise_calib_stim_LEFT.wav	1	14	blb_dichoticlistening_ga-da.mp3	ga	da	1	right
6.6.1	win	2023-06-26	23:24:24	23:35:21	651452	5be9b18df5c1060001085048	2	2	main_z	24	main_z	27	stimuli_distractor_diamondtriangles.svg	stimuli_distractor_diamondtriangles.svg	40	no	44	0	349	6	5	antiphase_hc_osi.wav	2	6	3	noise_calib_stim_LEFT.wav	1	14	blb_dichoticlistening_ga-da.mp3	ga	da	1	right
6.6.1	win	2023-06-26	23:24:24	23:35:21	651452	5be9b18df5c1060001085048	2	2	main_z	24	advance_on_keypress_ZEE	28	stimuli_distractor_diamondtriangles.svg	stimuli_distractor_diamondtriangles.svg	40	no	57	0	487	6	5	antiphase_hc_osi.wav	2	6	3	noise_calib_stim_LEFT.wav	1	14	blb_dichoticlistening_ga-da.mp3	ga	da	1	right
6.6.1	win	2023-06-26	23:24:24	23:35:23	653676	5be9b18df5c1060001085048	2	2	main_z	24	main_z	29	stimuli_distractor_diamondtriangles.svg	stimuli_target_trianglerectangles.svg	29	yes	44	1	1091	6	5	antiphase_hc_osi.wav	2	6	3	noise_calib_stim_LEFT.wav	1	14	blb_dichoticlistening_ga-da.mp3	ga	da	1	right
6.6.1	win	2023-06-26	23:24:24	23:35:23	653676	5be9b18df5c1060001085048	2	2	main_z	24	advance_on_keypress_ZEE	30	stimuli_distractor_diamondtriangles.svg	stimuli_target_trianglerectangles.svg	29	yes	57	0	1777	6	5	antiphase_hc_osi.wav	2	6	3	noise_calib_stim_LEFT.wav	1	14	blb_dichoticlistening_ga-da.mp3	ga	da	1	right
6.6.1	win	2023-06-26	23:24:24	23:35:26	656532	5be9b18df5c1060001085048	2	2	main_z	24	main_z	31	stimuli_distractor_trianglediamonds.svg	stimuli_target_rectangletriangles.svg	9	yes	44	1	433	6	5	antiphase_hc_osi.wav	2	6	3	noise_calib_stim_LEFT.wav	1	14	blb_dichoticlistening_ga-da.mp3	ga	da	1	right
6.6.1	win	2023-06-26	23:24:24	23:35:26	656532	5be9b18df5c1060001085048	2	2	main_z	24	advance_on_keypress_ZEE	32	stimuli_distractor_trianglediamonds.svg	stimuli_target_rectangletriangles.svg	9	yes	57	0	536	6	5	antiphase_hc_osi.wav	2	6	3	noise_calib_stim_LEFT.wav	1	14	blb_dichoticlistening_ga-da.mp3	ga	da	1	right
6.6.1	win	2023-06-26	23:24:24	23:35:27	658094	5be9b18df5c1060001085048	2	2	main_z	24	main_z	33	stimuli_distractor_trianglediamonds.svg	stimuli_distractor_diamondtriangles.svg	35	no	44	0	371	6	5	antiphase_hc_osi.wav	2	6	3	noise_calib_stim_LEFT.wav	1	14	blb_dichoticlistening_ga-da.mp3	ga	da	1	right
6.6.1	win	2023-06-26	23:24:24	23:35:27	658094	5be9b18df5c1060001085048	2	2	main_z	24	advance_on_keypress_ZEE	34	stimuli_distractor_trianglediamonds.svg	stimuli_distractor_diamondtriangles.svg	35	no	57	0	435	6	5	antiphase_hc_osi.wav	2	6	3	noise_calib_stim_LEFT.wav	1	14	blb_dichoticlistening_ga-da.mp3	ga	da	1	right
6.6.1	win	2023-06-26	23:24:24	23:35:29	659828	5be9b18df5c1060001085048	2	2	main_z	24	main_z	35	stimuli_target_trianglesquares.svg	stimuli_distractor_trianglediamonds.svg	18	yes	44	1	649	6	5	antiphase_hc_osi.wav	2	6	3	noise_calib_stim_LEFT.wav	1	14	blb_dichoticlistening_ga-da.mp3	ga	da	1	right
6.6.1	win	2023-06-26	23:24:24	23:35:29	659828	5be9b18df5c1060001085048	2	2	main_z	24	advance_on_keypress_ZEE	36	stimuli_target_trianglesquares.svg	stimuli_distractor_trianglediamonds.svg	18	yes	57	0	4927	6	5	antiphase_hc_osi.wav	2	6	3	noise_calib_stim_LEFT.wav	1	14	blb_dichoticlistening_ga-da.mp3	ga	da	1	right
6.6.1	win	2023-06-26	23:24:24	23:35:35	665692	5be9b18df5c1060001085048	2	2	main_z	24	main_z	37	stimuli_distractor_trianglediamonds.svg	stimuli_target_squaretriangles.svg	11	yes	44	1	285	6	5	antiphase_hc_osi.wav	2	6	3	noise_calib_stim_LEFT.wav	1	14	blb_dichoticlistening_ga-da.mp3	ga	da	1	right
6.6.1	win	2023-06-26	23:24:24	23:35:35	665692	5be9b18df5c1060001085048	2	2	main_z	24	advance_on_keypress_ZEE	38	stimuli_distractor_trianglediamonds.svg	stimuli_target_squaretriangles.svg	11	yes	57	0	978	6	5	antiphase_hc_osi.wav	2	6	3	noise_calib_stim_LEFT.wav	1	14	blb_dichoticlistening_ga-da.mp3	ga	da	1	right
6.6.1	win	2023-06-26	23:24:24	23:35:37	667556	5be9b18df5c1060001085048	2	2	main_z	24	main_z	39	stimuli_distractor_diamondtriangles.svg	stimuli_target_diamondrectangles.svg	31	yes	44	1	235	6	5	antiphase_hc_osi.wav	2	6	3	noise_calib_stim_LEFT.wav	1	14	blb_dichoticlistening_ga-da.mp3	ga	da	1	right
6.6.1	win	2023-06-26	23:24:24	23:35:37	667556	5be9b18df5c1060001085048	2	2	main_z	24	advance_on_keypress_ZEE	40	stimuli_distractor_diamondtriangles.svg	stimuli_target_diamondrectangles.svg	31	yes	57	0	441	6	5	antiphase_hc_osi.wav	2	6	3	noise_calib_stim_LEFT.wav	1	14	blb_dichoticlistening_ga-da.mp3	ga	da	1	right
6.6.1	win	2023-06-26	23:24:24	23:35:38	668900	5be9b18df5c1060001085048	2	2	main_z	24	main_z	41	stimuli_target_trianglesquares.svg	stimuli_distractor_diamondtriangles.svg	22	yes	44	1	263	6	5	antiphase_hc_osi.wav	2	6	3	noise_calib_stim_LEFT.wav	1	14	blb_dichoticlistening_ga-da.mp3	ga	da	1	right
6.6.1	win	2023-06-26	23:24:24	23:35:38	668900	5be9b18df5c1060001085048	2	2	main_z	24	advance_on_keypress_ZEE	42	stimuli_target_trianglesquares.svg	stimuli_distractor_diamondtriangles.svg	22	yes	57	0	468	6	5	antiphase_hc_osi.wav	2	6	3	noise_calib_stim_LEFT.wav	1	14	blb_dichoticlistening_ga-da.mp3	ga	da	1	right
6.6.1	win	2023-06-26	23:24:24	23:35:40	671156	5be9b18df5c1060001085048	2	2	main_z	24	main_z	43	stimuli_distractor_diamondtriangles.svg	stimuli_distractor_diamondtriangles.svg	39	no	44	0	1137	6	5	antiphase_hc_osi.wav	2	6	3	noise_calib_stim_LEFT.wav	1	14	blb_dichoticlistening_ga-da.mp3	ga	da	1	right
6.6.1	win	2023-06-26	23:24:24	23:35:40	671156	5be9b18df5c1060001085048	2	2	main_z	24	advance_on_keypress_ZEE	44	stimuli_distractor_diamondtriangles.svg	stimuli_distractor_diamondtriangles.svg	39	no	57	0	604	6	5	antiphase_hc_osi.wav	2	6	3	noise_calib_stim_LEFT.wav	1	14	blb_dichoticlistening_ga-da.mp3	ga	da	1	right
6.6.1	win	2023-06-26	23:24:24	23:35:42	672644	5be9b18df5c1060001085048	2	2	main_z	24	main_z	45	stimuli_distractor_trianglediamonds.svg	stimuli_target_trianglesquares.svg	26	yes	44	1	244	6	5	antiphase_hc_osi.wav	2	6	3	noise_calib_stim_LEFT.wav	1	14	blb_dichoticlistening_ga-da.mp3	ga	da	1	right
6.6.1	win	2023-06-26	23:24:24	23:35:42	672644	5be9b18df5c1060001085048	2	2	main_z	24	advance_on_keypress_ZEE	46	stimuli_distractor_trianglediamonds.svg	stimuli_target_trianglesquares.svg	26	yes	57	0	1075	6	5	antiphase_hc_osi.wav	2	6	3	noise_calib_stim_LEFT.wav	1	14	blb_dichoticlistening_ga-da.mp3	ga	da	1	right
6.6.1	win	2023-06-26	23:24:24	23:35:44	674596	5be9b18df5c1060001085048	2	2	main_z	24	main_z	47	stimuli_distractor_trianglediamonds.svg	stimuli_target_trianglerectangles.svg	25	yes	44	1	247	6	5	antiphase_hc_osi.wav	2	6	3	noise_calib_stim_LEFT.wav	1	14	blb_dichoticlistening_ga-da.mp3	ga	da	1	right
6.6.1	win	2023-06-26	23:24:24	23:35:44	674596	5be9b18df5c1060001085048	2	2	main_z	24	advance_on_keypress_ZEE	48	stimuli_distractor_trianglediamonds.svg	stimuli_target_trianglerectangles.svg	25	yes	57	0	678	6	5	antiphase_hc_osi.wav	2	6	3	noise_calib_stim_LEFT.wav	1	14	blb_dichoticlistening_ga-da.mp3	ga	da	1	right
6.6.1	win	2023-06-26	23:24:24	23:35:45	676260	5be9b18df5c1060001085048	2	2	main_z	24	main_z	49	stimuli_distractor_diamondtriangles.svg	stimuli_target_rectangletriangles.svg	13	yes	44	1	346	6	5	antiphase_hc_osi.wav	2	6	3	noise_calib_stim_LEFT.wav	1	14	blb_dichoticlistening_ga-da.mp3	ga	da	1	right
6.6.1	win	2023-06-26	23:24:24	23:35:45	676260	5be9b18df5c1060001085048	2	2	main_z	24	advance_on_keypress_ZEE	50	stimuli_distractor_diamondtriangles.svg	stimuli_target_rectangletriangles.svg	13	yes	57	0	645	6	5	antiphase_hc_osi.wav	2	6	3	noise_calib_stim_LEFT.wav	1	14	blb_dichoticlistening_ga-da.mp3	ga	da	1	right
6.6.1	win	2023-06-26	23:24:24	23:35:47	677916	5be9b18df5c1060001085048	2	2	main_z	24	main_z	51	stimuli_target_squaretriangles.svg	stimuli_distractor_diamondtriangles.svg	7	yes	44	1	353	6	5	antiphase_hc_osi.wav	2	6	3	noise_calib_stim_LEFT.wav	1	14	blb_dichoticlistening_ga-da.mp3	ga	da	1	right
6.6.1	win	2023-06-26	23:24:24	23:35:47	677916	5be9b18df5c1060001085048	2	2	main_z	24	advance_on_keypress_ZEE	52	stimuli_target_squaretriangles.svg	stimuli_distractor_diamondtriangles.svg	7	yes	57	0	1595	6	5	antiphase_hc_osi.wav	2	6	3	noise_calib_stim_LEFT.wav	1	14	blb_dichoticlistening_ga-da.mp3	ga	da	1	right
6.6.1	win	2023-06-26	23:24:24	23:35:49	680308	5be9b18df5c1060001085048	2	2	main_z	24	main_z	53	stimuli_target_squarediamonds.svg	stimuli_distractor_diamondtriangles.svg	8	yes	44	1	147	6	5	antiphase_hc_osi.wav	2	6	3	noise_calib_stim_LEFT.wav	1	14	blb_dichoticlistening_ga-da.mp3	ga	da	1	right
6.6.1	win	2023-06-26	23:24:24	23:35:49	680308	5be9b18df5c1060001085048	2	2	main_z	24	advance_on_keypress_ZEE	54	stimuli_target_squarediamonds.svg	stimuli_distractor_diamondtriangles.svg	8	yes	57	0	1141	6	5	antiphase_hc_osi.wav	2	6	3	noise_calib_stim_LEFT.wav	1	14	blb_dichoticlistening_ga-da.mp3	ga	da	1	right
6.6.1	win	2023-06-26	23:24:24	23:35:52	682804	5be9b18df5c1060001085048	2	2	main_z	24	main_z	55	stimuli_distractor_diamondtriangles.svg	stimuli_target_squaretriangles.svg	15	yes	44	1	696	6	5	antiphase_hc_osi.wav	2	6	3	noise_calib_stim_LEFT.wav	1	14	blb_dichoticlistening_ga-da.mp3	ga	da	1	right
6.6.1	win	2023-06-26	23:24:24	23:35:52	682804	5be9b18df5c1060001085048	2	2	main_z	24	advance_on_keypress_ZEE	56	stimuli_distractor_diamondtriangles.svg	stimuli_target_squaretriangles.svg	15	yes	57	0	73731	6	5	antiphase_hc_osi.wav	2	6	3	noise_calib_stim_LEFT.wav	1	14	blb_dichoticlistening_ga-da.mp3	ga	da	1	right
6.6.1	win	2023-06-26	23:24:24	23:37:08	758764	5be9b18df5c1060001085048	2	2	main_z	24	main_z	57	stimuli_distractor_trianglediamonds.svg	stimuli_target_squarediamonds.svg	12	yes	44	1	1570	6	5	antiphase_hc_osi.wav	2	6	3	noise_calib_stim_LEFT.wav	1	14	blb_dichoticlistening_ga-da.mp3	ga	da	1	right
6.6.1	win	2023-06-26	23:24:24	23:37:08	758764	5be9b18df5c1060001085048	2	2	main_z	24	advance_on_keypress_ZEE	58	stimuli_distractor_trianglediamonds.svg	stimuli_target_squarediamonds.svg	12	yes	57	0	205	6	5	antiphase_hc_osi.wav	2	6	3	noise_calib_stim_LEFT.wav	1	14	blb_dichoticlistening_ga-da.mp3	ga	da	1	right
6.6.1	win	2023-06-26	23:24:24	23:37:09	759724	5be9b18df5c1060001085048	2	2	main_z	24	main_z	59	stimuli_distractor_trianglediamonds.svg	stimuli_distractor_diamondtriangles.svg	36	no	44	0	116	6	5	antiphase_hc_osi.wav	2	6	3	noise_calib_stim_LEFT.wav	1	14	blb_dichoticlistening_ga-da.mp3	ga	da	1	right
6.6.1	win	2023-06-26	23:24:24	23:37:09	759724	5be9b18df5c1060001085048	2	2	main_z	24	advance_on_keypress_ZEE	60	stimuli_distractor_trianglediamonds.svg	stimuli_distractor_diamondtriangles.svg	36	no	57	0	687	6	5	antiphase_hc_osi.wav	2	6	3	noise_calib_stim_LEFT.wav	1	14	blb_dichoticlistening_ga-da.mp3	ga	da	1	right
6.6.1	win	2023-06-26	23:24:24	23:37:11	761508	5be9b18df5c1060001085048	2	2	main_z	24	main_z	61	stimuli_distractor_diamondtriangles.svg	stimuli_target_diamondsquares.svg	32	yes	44	1	451	6	5	antiphase_hc_osi.wav	2	6	3	noise_calib_stim_LEFT.wav	1	14	blb_dichoticlistening_ga-da.mp3	ga	da	1	right
6.6.1	win	2023-06-26	23:24:24	23:37:11	761508	5be9b18df5c1060001085048	2	2	main_z	24	advance_on_keypress_ZEE	62	stimuli_distractor_diamondtriangles.svg	stimuli_target_diamondsquares.svg	32	yes	57	0	210	6	5	antiphase_hc_osi.wav	2	6	3	noise_calib_stim_LEFT.wav	1	14	blb_dichoticlistening_ga-da.mp3	ga	da	1	right
6.6.1	win	2023-06-26	23:24:24	23:37:12	762492	5be9b18df5c1060001085048	2	2	main_z	24	main_z	63	stimuli_target_rectangletriangles.svg	stimuli_distractor_trianglediamonds.svg	1	yes	44	1	136	6	5	antiphase_hc_osi.wav	2	6	3	noise_calib_stim_LEFT.wav	1	14	blb_dichoticlistening_ga-da.mp3	ga	da	1	right
6.6.1	win	2023-06-26	23:24:24	23:37:12	762492	5be9b18df5c1060001085048	2	2	main_z	24	advance_on_keypress_ZEE	64	stimuli_target_rectangletriangles.svg	stimuli_distractor_trianglediamonds.svg	1	yes	57	0	187	6	5	antiphase_hc_osi.wav	2	6	3	noise_calib_stim_LEFT.wav	1	14	blb_dichoticlistening_ga-da.mp3	ga	da	1	right
6.6.1	win	2023-06-26	23:24:24	23:37:13	763396	5be9b18df5c1060001085048	2	2	main_z	24	main_z	65	stimuli_distractor_trianglediamonds.svg	stimuli_target_diamondsquares.svg	28	yes	44	1	75	6	5	antiphase_hc_osi.wav	2	6	3	noise_calib_stim_LEFT.wav	1	14	blb_dichoticlistening_ga-da.mp3	ga	da	1	right
6.6.1	win	2023-06-26	23:24:24	23:37:13	763396	5be9b18df5c1060001085048	2	2	main_z	24	advance_on_keypress_ZEE	66	stimuli_distractor_trianglediamonds.svg	stimuli_target_diamondsquares.svg	28	yes	57	0	217	6	5	antiphase_hc_osi.wav	2	6	3	noise_calib_stim_LEFT.wav	1	14	blb_dichoticlistening_ga-da.mp3	ga	da	1	right
6.6.1	win	2023-06-26	23:24:24	23:37:14	764596	5be9b18df5c1060001085048	2	2	main_z	24	main_z	67	stimuli_distractor_diamondtriangles.svg	stimuli_distractor_trianglediamonds.svg	37	no	44	0	342	6	5	antiphase_hc_osi.wav	2	6	3	noise_calib_stim_LEFT.wav	1	14	blb_dichoticlistening_ga-da.mp3	ga	da	1	right
6.6.1	win	2023-06-26	23:24:24	23:37:14	764596	5be9b18df5c1060001085048	2	2	main_z	24	advance_on_keypress_ZEE	68	stimuli_distractor_diamondtriangles.svg	stimuli_distractor_trianglediamonds.svg	37	no	57	0	593	6	5	antiphase_hc_osi.wav	2	6	3	noise_calib_stim_LEFT.wav	1	14	blb_dichoticlistening_ga-da.mp3	ga	da	1	right
6.6.1	win	2023-06-26	23:24:24	23:37:15	766140	5be9b18df5c1060001085048	2	2	main_z	24	main_z	69	stimuli_target_squaretriangles.svg	stimuli_distractor_trianglediamonds.svg	3	yes	44	1	321	6	5	antiphase_hc_osi.wav	2	6	3	noise_calib_stim_LEFT.wav	1	14	blb_dichoticlistening_ga-da.mp3	ga	da	1	right
6.6.1	win	2023-06-26	23:24:24	23:37:15	766140	5be9b18df5c1060001085048	2	2	main_z	24	advance_on_keypress_ZEE	70	stimuli_target_squaretriangles.svg	stimuli_distractor_trianglediamonds.svg	3	yes	57	0	684	6	5	antiphase_hc_osi.wav	2	6	3	noise_calib_stim_LEFT.wav	1	14	blb_dichoticlistening_ga-da.mp3	ga	da	1	right
6.6.1	win	2023-06-26	23:24:24	23:37:17	767636	5be9b18df5c1060001085048	2	2	main_z	24	main_z	71	stimuli_target_diamondrectangles.svg	stimuli_distractor_trianglediamonds.svg	19	yes	44	1	169	6	5	antiphase_hc_osi.wav	2	6	3	noise_calib_stim_LEFT.wav	1	14	blb_dichoticlistening_ga-da.mp3	ga	da	1	right
6.6.1	win	2023-06-26	23:24:24	23:37:17	767636	5be9b18df5c1060001085048	2	2	main_z	24	advance_on_keypress_ZEE	72	stimuli_target_diamondrectangles.svg	stimuli_distractor_trianglediamonds.svg	19	yes	57	0	873	6	5	antiphase_hc_osi.wav	2	6	3	noise_calib_stim_LEFT.wav	1	14	blb_dichoticlistening_ga-da.mp3	ga	da	1	right
6.6.1	win	2023-06-26	23:24:24	23:37:19	769924	5be9b18df5c1060001085048	2	2	main_z	24	main_z	73	stimuli_distractor_diamondtriangles.svg	stimuli_distractor_trianglediamonds.svg	38	no	44	0	775	6	5	antiphase_hc_osi.wav	2	6	3	noise_calib_stim_LEFT.wav	1	14	blb_dichoticlistening_ga-da.mp3	ga	da	1	right
6.6.1	win	2023-06-26	23:24:24	23:37:19	769924	5be9b18df5c1060001085048	2	2	main_z	24	advance_on_keypress_ZEE	74	stimuli_distractor_diamondtriangles.svg	stimuli_distractor_trianglediamonds.svg	38	no	57	0	825	6	5	antiphase_hc_osi.wav	2	6	3	noise_calib_stim_LEFT.wav	1	14	blb_dichoticlistening_ga-da.mp3	ga	da	1	right
6.6.1	win	2023-06-26	23:24:24	23:37:21	772132	5be9b18df5c1060001085048	2	2	main_z	24	main_z	75	stimuli_distractor_diamondtriangles.svg	stimuli_target_rectanglediamonds.svg	14	yes	44	1	751	6	5	antiphase_hc_osi.wav	2	6	3	noise_calib_stim_LEFT.wav	1	14	blb_dichoticlistening_ga-da.mp3	ga	da	1	right
6.6.1	win	2023-06-26	23:24:24	23:37:21	772132	5be9b18df5c1060001085048	2	2	main_z	24	advance_on_keypress_ZEE	76	stimuli_distractor_diamondtriangles.svg	stimuli_target_rectanglediamonds.svg	14	yes	57	0	841	6	5	antiphase_hc_osi.wav	2	6	3	noise_calib_stim_LEFT.wav	1	14	blb_dichoticlistening_ga-da.mp3	ga	da	1	right
6.6.1	win	2023-06-26	23:24:24	23:37:23	773780	5be9b18df5c1060001085048	2	2	main_z	24	main_z	77	stimuli_target_rectanglediamonds.svg	stimuli_distractor_trianglediamonds.svg	2	yes	44	1	168	6	5	antiphase_hc_osi.wav	2	6	3	noise_calib_stim_LEFT.wav	1	14	blb_dichoticlistening_ga-da.mp3	ga	da	1	right
6.6.1	win	2023-06-26	23:24:24	23:37:23	773780	5be9b18df5c1060001085048	2	2	main_z	24	advance_on_keypress_ZEE	78	stimuli_target_rectanglediamonds.svg	stimuli_distractor_trianglediamonds.svg	2	yes	57	0	817	6	5	antiphase_hc_osi.wav	2	6	3	noise_calib_stim_LEFT.wav	1	14	blb_dichoticlistening_ga-da.mp3	ga	da	1	right
6.6.1	win	2023-06-26	23:24:24	23:37:25	775524	5be9b18df5c1060001085048	2	2	main_z	24	main_z	79	stimuli_distractor_diamondtriangles.svg	stimuli_target_squarediamonds.svg	16	yes	44	1	280	6	5	antiphase_hc_osi.wav	2	6	3	noise_calib_stim_LEFT.wav	1	14	blb_dichoticlistening_ga-da.mp3	ga	da	1	right
6.6.1	win	2023-06-26	23:24:24	23:37:25	775524	5be9b18df5c1060001085048	2	2	main_z	24	advance_on_keypress_ZEE	80	stimuli_distractor_diamondtriangles.svg	stimuli_target_squarediamonds.svg	16	yes	57	0	117	6	5	antiphase_hc_osi.wav	2	6	3	noise_calib_stim_LEFT.wav	1	14	blb_dichoticlistening_ga-da.mp3	ga	da	1	right
6.6.1	win	2023-06-26	23:24:24	23:37:26	776356	5be9b18df5c1060001085048	2	2	main_z	24	main_z	81	stimuli_distractor_trianglediamonds.svg	stimuli_target_trianglesquares.svg	26	yes	44	1	63	6	5	antiphase_hc_osi.wav	2	6	3	noise_calib_stim_LEFT.wav	1	14	blb_dichoticlistening_ga-da.mp3	ga	da	1	right
6.6.1	win	2023-06-26	23:24:24	23:37:26	776356	5be9b18df5c1060001085048	2	2	main_z	24	advance_on_keypress_ZEE	82	stimuli_distractor_trianglediamonds.svg	stimuli_target_trianglesquares.svg	26	yes	57	0	244	6	5	antiphase_hc_osi.wav	2	6	3	noise_calib_stim_LEFT.wav	1	14	blb_dichoticlistening_ga-da.mp3	ga	da	1	right
6.6.1	win	2023-06-26	23:24:24	23:37:27	777532	5be9b18df5c1060001085048	2	2	main_z	24	main_z	83	stimuli_distractor_trianglediamonds.svg	stimuli_distractor_diamondtriangles.svg	35	no	44	0	273	6	5	antiphase_hc_osi.wav	2	6	3	noise_calib_stim_LEFT.wav	1	14	blb_dichoticlistening_ga-da.mp3	ga	da	1	right
6.6.1	win	2023-06-26	23:24:24	23:37:27	777532	5be9b18df5c1060001085048	2	2	main_z	24	advance_on_keypress_ZEE	84	stimuli_distractor_trianglediamonds.svg	stimuli_distractor_diamondtriangles.svg	35	no	57	0	166	6	5	antiphase_hc_osi.wav	2	6	3	noise_calib_stim_LEFT.wav	1	14	blb_dichoticlistening_ga-da.mp3	ga	da	1	right
6.6.1	win	2023-06-26	23:24:24	23:37:30	780342	5be9b18df5c1060001085048	2	2	main_z	24	main_z	85	stimuli_distractor_diamondtriangles.svg	stimuli_target_trianglesquares.svg	30	yes	0	0	2000	6	5	antiphase_hc_osi.wav	2	6	3	noise_calib_stim_LEFT.wav	1	14	blb_dichoticlistening_ga-da.mp3	ga	da	1	right
6.6.1	win	2023-06-26	23:24:24	23:37:30	780342	5be9b18df5c1060001085048	2	2	main_z	24	advance_on_keypress_ZEE	86	stimuli_distractor_diamondtriangles.svg	stimuli_target_trianglesquares.svg	30	yes	57	0	5152	6	5	antiphase_hc_osi.wav	2	6	3	noise_calib_stim_LEFT.wav	1	14	blb_dichoticlistening_ga-da.mp3	ga	da	1	right
6.6.1	win	2023-06-26	23:24:24	23:37:36	786444	5be9b18df5c1060001085048	2	2	main_z	24	main_z	87	stimuli_target_trianglerectangles.svg	stimuli_distractor_trianglediamonds.svg	17	yes	44	1	310	6	5	antiphase_hc_osi.wav	2	6	3	noise_calib_stim_LEFT.wav	1	14	blb_dichoticlistening_ga-da.mp3	ga	da	1	right
6.6.1	win	2023-06-26	23:24:24	23:37:36	786444	5be9b18df5c1060001085048	2	2	main_z	24	advance_on_keypress_ZEE	88	stimuli_target_trianglerectangles.svg	stimuli_distractor_trianglediamonds.svg	17	yes	57	0	2457	6	5	antiphase_hc_osi.wav	2	6	3	noise_calib_stim_LEFT.wav	1	14	blb_dichoticlistening_ga-da.mp3	ga	da	1	right
6.6.1	win	2023-06-26	23:24:24	23:37:39	790268	5be9b18df5c1060001085048	2	2	main_z	24	main_z	89	stimuli_distractor_diamondtriangles.svg	stimuli_distractor_trianglediamonds.svg	37	no	44	0	736	6	5	antiphase_hc_osi.wav	2	6	3	noise_calib_stim_LEFT.wav	1	14	blb_dichoticlistening_ga-da.mp3	ga	da	1	right
6.6.1	win	2023-06-26	23:24:24	23:37:39	790268	5be9b18df5c1060001085048	2	2	main_z	24	advance_on_keypress_ZEE	90	stimuli_distractor_diamondtriangles.svg	stimuli_distractor_trianglediamonds.svg	37	no	57	0	3483	6	5	antiphase_hc_osi.wav	2	6	3	noise_calib_stim_LEFT.wav	1	14	blb_dichoticlistening_ga-da.mp3	ga	da	1	right
6.6.1	win	2023-06-26	23:24:24	23:37:44	794756	5be9b18df5c1060001085048	2	2	main_z	24	main_z	91	stimuli_distractor_diamondtriangles.svg	stimuli_distractor_diamondtriangles.svg	40	no	44	0	361	6	5	antiphase_hc_osi.wav	2	6	3	noise_calib_stim_LEFT.wav	1	14	blb_dichoticlistening_ga-da.mp3	ga	da	1	right
6.6.1	win	2023-06-26	23:24:24	23:37:44	794756	5be9b18df5c1060001085048	2	2	main_z	24	advance_on_keypress_ZEE	92	stimuli_distractor_diamondtriangles.svg	stimuli_distractor_diamondtriangles.svg	40	no	57	0	3755	6	5	antiphase_hc_osi.wav	2	6	3	noise_calib_stim_LEFT.wav	1	14	blb_dichoticlistening_ga-da.mp3	ga	da	1	right
6.6.1	win	2023-06-26	23:24:24	23:37:49	799508	5be9b18df5c1060001085048	2	2	main_z	24	main_z	93	stimuli_distractor_trianglediamonds.svg	stimuli_distractor_trianglediamonds.svg	34	no	44	0	351	6	5	antiphase_hc_osi.wav	2	6	3	noise_calib_stim_LEFT.wav	1	14	blb_dichoticlistening_ga-da.mp3	ga	da	1	right
6.6.1	win	2023-06-26	23:24:24	23:37:49	799508	5be9b18df5c1060001085048	2	2	main_z	24	advance_on_keypress_ZEE	94	stimuli_distractor_trianglediamonds.svg	stimuli_distractor_trianglediamonds.svg	34	no	57	0	1217	6	5	antiphase_hc_osi.wav	2	6	3	noise_calib_stim_LEFT.wav	1	14	blb_dichoticlistening_ga-da.mp3	ga	da	1	right
6.6.1	win	2023-06-26	23:24:24	23:37:52	802340	5be9b18df5c1060001085048	2	2	main_z	24	main_z	95	stimuli_distractor_trianglediamonds.svg	stimuli_distractor_trianglediamonds.svg	33	no	44	0	968	6	5	antiphase_hc_osi.wav	2	6	3	noise_calib_stim_LEFT.wav	1	14	blb_dichoticlistening_ga-da.mp3	ga	da	1	right
6.6.1	win	2023-06-26	23:24:24	23:37:52	802340	5be9b18df5c1060001085048	2	2	main_z	24	advance_on_keypress_ZEE	96	stimuli_distractor_trianglediamonds.svg	stimuli_distractor_trianglediamonds.svg	33	no	57	0	1059	6	5	antiphase_hc_osi.wav	2	6	3	noise_calib_stim_LEFT.wav	1	14	blb_dichoticlistening_ga-da.mp3	ga	da	1	right
6.6.1	win	2023-06-26	23:24:24	23:37:54	804484	5be9b18df5c1060001085048	2	2	main_z	24	main_z	97	stimuli_distractor_trianglediamonds.svg	stimuli_target_rectangletriangles.svg	9	yes	44	1	448	6	5	antiphase_hc_osi.wav	2	6	3	noise_calib_stim_LEFT.wav	1	14	blb_dichoticlistening_ga-da.mp3	ga	da	1	right
6.6.1	win	2023-06-26	23:24:24	23:37:54	804484	5be9b18df5c1060001085048	2	2	main_z	24	advance_on_keypress_ZEE	98	stimuli_distractor_trianglediamonds.svg	stimuli_target_rectangletriangles.svg	9	yes	57	0	942	6	5	antiphase_hc_osi.wav	2	6	3	noise_calib_stim_LEFT.wav	1	14	blb_dichoticlistening_ga-da.mp3	ga	da	1	right
6.6.1	win	2023-06-26	23:24:24	23:37:55	806316	5be9b18df5c1060001085048	2	2	main_z	24	main_z	99	stimuli_target_diamondsquares.svg	stimuli_distractor_trianglediamonds.svg	20	yes	44	1	248	6	5	antiphase_hc_osi.wav	2	6	3	noise_calib_stim_LEFT.wav	1	14	blb_dichoticlistening_ga-da.mp3	ga	da	1	right
6.6.1	win	2023-06-26	23:24:24	23:37:55	806316	5be9b18df5c1060001085048	2	2	main_z	24	advance_on_keypress_ZEE	100	stimuli_target_diamondsquares.svg	stimuli_distractor_trianglediamonds.svg	20	yes	57	0	759	6	5	antiphase_hc_osi.wav	2	6	3	noise_calib_stim_LEFT.wav	1	14	blb_dichoticlistening_ga-da.mp3	ga	da	1	right
6.6.1	win	2023-06-26	23:24:24	23:37:57	807964	5be9b18df5c1060001085048	2	2	main_z	24	main_z	101	stimuli_target_squaretriangles.svg	stimuli_distractor_trianglediamonds.svg	3	yes	44	1	248	6	5	antiphase_hc_osi.wav	2	6	3	noise_calib_stim_LEFT.wav	1	14	blb_dichoticlistening_ga-da.mp3	ga	da	1	right
6.6.1	win	2023-06-26	23:24:24	23:37:57	807964	5be9b18df5c1060001085048	2	2	main_z	24	advance_on_keypress_ZEE	102	stimuli_target_squaretriangles.svg	stimuli_distractor_trianglediamonds.svg	3	yes	57	0	2286	6	5	antiphase_hc_osi.wav	2	6	3	noise_calib_stim_LEFT.wav	1	14	blb_dichoticlistening_ga-da.mp3	ga	da	1	right
6.6.1	win	2023-06-26	23:24:24	23:38:01	811436	5be9b18df5c1060001085048	2	2	main_z	24	main_z	103	stimuli_target_squarediamonds.svg	stimuli_distractor_trianglediamonds.svg	4	yes	44	1	540	6	5	antiphase_hc_osi.wav	2	6	3	noise_calib_stim_LEFT.wav	1	14	blb_dichoticlistening_ga-da.mp3	ga	da	1	right
6.6.1	win	2023-06-26	23:24:24	23:38:01	811436	5be9b18df5c1060001085048	2	2	main_z	24	advance_on_keypress_ZEE	104	stimuli_target_squarediamonds.svg	stimuli_distractor_trianglediamonds.svg	4	yes	57	0	4798	6	5	antiphase_hc_osi.wav	2	6	3	noise_calib_stim_LEFT.wav	1	14	blb_dichoticlistening_ga-da.mp3	ga	da	1	right
6.6.1	win	2023-06-26	23:24:24	23:38:07	817644	5be9b18df5c1060001085048	2	2	main_z	24	main_z	105	stimuli_distractor_diamondtriangles.svg	stimuli_target_rectangletriangles.svg	13	yes	44	1	769	6	5	antiphase_hc_osi.wav	2	6	3	noise_calib_stim_LEFT.wav	1	14	blb_dichoticlistening_ga-da.mp3	ga	da	1	right
6.6.1	win	2023-06-26	23:24:24	23:38:07	817644	5be9b18df5c1060001085048	2	2	main_z	24	advance_on_keypress_ZEE	106	stimuli_distractor_diamondtriangles.svg	stimuli_target_rectangletriangles.svg	13	yes	57	0	827	6	5	antiphase_hc_osi.wav	2	6	3	noise_calib_stim_LEFT.wav	1	14	blb_dichoticlistening_ga-da.mp3	ga	da	1	right
6.6.1	win	2023-06-26	23:24:24	23:38:09	819396	5be9b18df5c1060001085048	2	2	main_z	24	main_z	107	stimuli_target_rectanglediamonds.svg	stimuli_distractor_diamondtriangles.svg	6	yes	44	1	290	6	5	antiphase_hc_osi.wav	2	6	3	noise_calib_stim_LEFT.wav	1	14	blb_dichoticlistening_ga-da.mp3	ga	da	1	right
6.6.1	win	2023-06-26	23:24:24	23:38:09	819396	5be9b18df5c1060001085048	2	2	main_z	24	advance_on_keypress_ZEE	108	stimuli_target_rectanglediamonds.svg	stimuli_distractor_diamondtriangles.svg	6	yes	57	0	727	6	5	antiphase_hc_osi.wav	2	6	3	noise_calib_stim_LEFT.wav	1	14	blb_dichoticlistening_ga-da.mp3	ga	da	1	right
6.6.1	win	2023-06-26	23:24:24	23:38:10	821020	5be9b18df5c1060001085048	2	2	main_z	24	main_z	109	stimuli_target_trianglesquares.svg	stimuli_distractor_trianglediamonds.svg	18	yes	44	1	265	6	5	antiphase_hc_osi.wav	2	6	3	noise_calib_stim_LEFT.wav	1	14	blb_dichoticlistening_ga-da.mp3	ga	da	1	right
6.6.1	win	2023-06-26	23:24:24	23:38:10	821020	5be9b18df5c1060001085048	2	2	main_z	24	advance_on_keypress_ZEE	110	stimuli_target_trianglesquares.svg	stimuli_distractor_trianglediamonds.svg	18	yes	57	0	615	6	5	antiphase_hc_osi.wav	2	6	3	noise_calib_stim_LEFT.wav	1	14	blb_dichoticlistening_ga-da.mp3	ga	da	1	right
6.6.1	win	2023-06-26	23:24:24	23:38:12	823180	5be9b18df5c1060001085048	2	2	main_z	24	main_z	111	stimuli_target_trianglerectangles.svg	stimuli_distractor_diamondtriangles.svg	21	yes	44	1	893	6	5	antiphase_hc_osi.wav	2	6	3	noise_calib_stim_LEFT.wav	1	14	blb_dichoticlistening_ga-da.mp3	ga	da	1	right
6.6.1	win	2023-06-26	23:24:24	23:38:12	823180	5be9b18df5c1060001085048	2	2	main_z	24	advance_on_keypress_ZEE	112	stimuli_target_trianglerectangles.svg	stimuli_distractor_diamondtriangles.svg	21	yes	57	0	746	6	5	antiphase_hc_osi.wav	2	6	3	noise_calib_stim_LEFT.wav	1	14	blb_dichoticlistening_ga-da.mp3	ga	da	1	right
6.6.1	win	2023-06-26	23:24:24	23:38:14	825276	5be9b18df5c1060001085048	2	2	main_z	24	main_z	113	stimuli_target_diamondrectangles.svg	stimuli_distractor_diamondtriangles.svg	23	yes	44	1	691	6	5	antiphase_hc_osi.wav	2	6	3	noise_calib_stim_LEFT.wav	1	14	blb_dichoticlistening_ga-da.mp3	ga	da	1	right
6.6.1	win	2023-06-26	23:24:24	23:38:14	825276	5be9b18df5c1060001085048	2	2	main_z	24	advance_on_keypress_ZEE	114	stimuli_target_diamondrectangles.svg	stimuli_distractor_diamondtriangles.svg	23	yes	57	0	672	6	5	antiphase_hc_osi.wav	2	6	3	noise_calib_stim_LEFT.wav	1	14	blb_dichoticlistening_ga-da.mp3	ga	da	1	right
6.6.1	win	2023-06-26	23:24:24	23:38:16	826964	5be9b18df5c1060001085048	2	2	main_z	24	main_z	115	stimuli_distractor_trianglediamonds.svg	stimuli_target_squarediamonds.svg	12	yes	44	1	375	6	5	antiphase_hc_osi.wav	2	6	3	noise_calib_stim_LEFT.wav	1	14	blb_dichoticlistening_ga-da.mp3	ga	da	1	right
6.6.1	win	2023-06-26	23:24:24	23:38:16	826964	5be9b18df5c1060001085048	2	2	main_z	24	advance_on_keypress_ZEE	116	stimuli_distractor_trianglediamonds.svg	stimuli_target_squarediamonds.svg	12	yes	57	0	420	6	5	antiphase_hc_osi.wav	2	6	3	noise_calib_stim_LEFT.wav	1	14	blb_dichoticlistening_ga-da.mp3	ga	da	1	right
6.6.1	win	2023-06-26	23:24:24	23:38:18	828956	5be9b18df5c1060001085048	2	2	main_z	24	main_z	117	stimuli_distractor_trianglediamonds.svg	stimuli_target_rectanglediamonds.svg	10	yes	44	1	275	6	5	antiphase_hc_osi.wav	2	6	3	noise_calib_stim_LEFT.wav	1	14	blb_dichoticlistening_ga-da.mp3	ga	da	1	right
6.6.1	win	2023-06-26	23:24:24	23:38:18	828956	5be9b18df5c1060001085048	2	2	main_z	24	advance_on_keypress_ZEE	118	stimuli_distractor_trianglediamonds.svg	stimuli_target_rectanglediamonds.svg	10	yes	57	0	464	6	5	antiphase_hc_osi.wav	2	6	3	noise_calib_stim_LEFT.wav	1	14	blb_dichoticlistening_ga-da.mp3	ga	da	1	right
6.6.1	win	2023-06-26	23:24:24	23:38:19	830308	5be9b18df5c1060001085048	2	2	main_z	24	main_z	119	stimuli_distractor_diamondtriangles.svg	stimuli_target_squarediamonds.svg	16	yes	44	1	245	6	5	antiphase_hc_osi.wav	2	6	3	noise_calib_stim_LEFT.wav	1	14	blb_dichoticlistening_ga-da.mp3	ga	da	1	right
6.6.1	win	2023-06-26	23:24:24	23:38:19	830308	5be9b18df5c1060001085048	2	2	main_z	24	advance_on_keypress_ZEE	120	stimuli_distractor_diamondtriangles.svg	stimuli_target_squarediamonds.svg	16	yes	57	0	435	6	5	antiphase_hc_osi.wav	2	6	3	noise_calib_stim_LEFT.wav	1	14	blb_dichoticlistening_ga-da.mp3	ga	da	1	right
6.6.1	win	2023-06-26	23:24:24	23:38:21	831724	5be9b18df5c1060001085048	2	2	main_z	24	main_z	121	stimuli_distractor_trianglediamonds.svg	stimuli_target_diamondrectangles.svg	27	yes	44	1	328	6	5	antiphase_hc_osi.wav	2	6	3	noise_calib_stim_LEFT.wav	1	14	blb_dichoticlistening_ga-da.mp3	ga	da	1	right
6.6.1	win	2023-06-26	23:24:24	23:38:21	831724	5be9b18df5c1060001085048	2	2	main_z	24	advance_on_keypress_ZEE	122	stimuli_distractor_trianglediamonds.svg	stimuli_target_diamondrectangles.svg	27	yes	57	0	283	6	5	antiphase_hc_osi.wav	2	6	3	noise_calib_stim_LEFT.wav	1	14	blb_dichoticlistening_ga-da.mp3	ga	da	1	right
6.6.1	win	2023-06-26	23:24:24	23:38:22	833108	5be9b18df5c1060001085048	2	2	main_z	24	main_z	123	stimuli_target_rectangletriangles.svg	stimuli_distractor_trianglediamonds.svg	1	yes	44	1	447	6	5	antiphase_hc_osi.wav	2	6	3	noise_calib_stim_LEFT.wav	1	14	blb_dichoticlistening_ga-da.mp3	ga	da	1	right
6.6.1	win	2023-06-26	23:24:24	23:38:22	833108	5be9b18df5c1060001085048	2	2	main_z	24	advance_on_keypress_ZEE	124	stimuli_target_rectangletriangles.svg	stimuli_distractor_trianglediamonds.svg	1	yes	57	0	493	6	5	antiphase_hc_osi.wav	2	6	3	noise_calib_stim_LEFT.wav	1	14	blb_dichoticlistening_ga-da.mp3	ga	da	1	right
6.6.1	win	2023-06-26	23:24:24	23:38:24	834516	5be9b18df5c1060001085048	2	2	main_z	24	main_z	125	stimuli_distractor_diamondtriangles.svg	stimuli_target_rectanglediamonds.svg	14	yes	44	1	256	6	5	antiphase_hc_osi.wav	2	6	3	noise_calib_stim_LEFT.wav	1	14	blb_dichoticlistening_ga-da.mp3	ga	da	1	right
6.6.1	win	2023-06-26	23:24:24	23:38:24	834516	5be9b18df5c1060001085048	2	2	main_z	24	advance_on_keypress_ZEE	126	stimuli_distractor_diamondtriangles.svg	stimuli_target_rectanglediamonds.svg	14	yes	57	0	326	6	5	antiphase_hc_osi.wav	2	6	3	noise_calib_stim_LEFT.wav	1	14	blb_dichoticlistening_ga-da.mp3	ga	da	1	right
6.6.1	win	2023-06-26	23:24:24	23:38:25	835764	5be9b18df5c1060001085048	2	2	main_z	24	main_z	127	stimuli_distractor_diamondtriangles.svg	stimuli_distractor_trianglediamonds.svg	38	no	44	0	288	6	5	antiphase_hc_osi.wav	2	6	3	noise_calib_stim_LEFT.wav	1	14	blb_dichoticlistening_ga-da.mp3	ga	da	1	right
6.6.1	win	2023-06-26	23:24:24	23:38:25	835764	5be9b18df5c1060001085048	2	2	main_z	24	advance_on_keypress_ZEE	128	stimuli_distractor_diamondtriangles.svg	stimuli_distractor_trianglediamonds.svg	38	no	57	0	446	6	5	antiphase_hc_osi.wav	2	6	3	noise_calib_stim_LEFT.wav	1	14	blb_dichoticlistening_ga-da.mp3	ga	da	1	right
6.6.1	win	2023-06-26	23:24:24	23:38:27	837580	5be9b18df5c1060001085048	2	2	main_z	24	main_z	129	stimuli_distractor_trianglediamonds.svg	stimuli_target_squaretriangles.svg	11	yes	44	1	723	6	5	antiphase_hc_osi.wav	2	6	3	noise_calib_stim_LEFT.wav	1	14	blb_dichoticlistening_ga-da.mp3	ga	da	1	right
6.6.1	win	2023-06-26	23:24:24	23:38:27	837580	5be9b18df5c1060001085048	2	2	main_z	24	advance_on_keypress_ZEE	130	stimuli_distractor_trianglediamonds.svg	stimuli_target_squaretriangles.svg	11	yes	57	0	542	6	5	antiphase_hc_osi.wav	2	6	3	noise_calib_stim_LEFT.wav	1	14	blb_dichoticlistening_ga-da.mp3	ga	da	1	right
6.6.1	win	2023-06-26	23:24:24	23:38:28	839052	5be9b18df5c1060001085048	2	2	main_z	24	main_z	131	stimuli_target_diamondrectangles.svg	stimuli_distractor_trianglediamonds.svg	19	yes	44	1	280	6	5	antiphase_hc_osi.wav	2	6	3	noise_calib_stim_LEFT.wav	1	14	blb_dichoticlistening_ga-da.mp3	ga	da	1	right
6.6.1	win	2023-06-26	23:24:24	23:38:28	839052	5be9b18df5c1060001085048	2	2	main_z	24	advance_on_keypress_ZEE	132	stimuli_target_diamondrectangles.svg	stimuli_distractor_trianglediamonds.svg	19	yes	57	0	348	6	5	antiphase_hc_osi.wav	2	6	3	noise_calib_stim_LEFT.wav	1	14	blb_dichoticlistening_ga-da.mp3	ga	da	1	right
6.6.1	win	2023-06-26	23:24:24	23:38:30	840434	5be9b18df5c1060001085048	2	2	main_z	24	main_z	133	stimuli_distractor_diamondtriangles.svg	stimuli_target_trianglerectangles.svg	29	yes	44	1	374	6	5	antiphase_hc_osi.wav	2	6	3	noise_calib_stim_LEFT.wav	1	14	blb_dichoticlistening_ga-da.mp3	ga	da	1	right
6.6.1	win	2023-06-26	23:24:24	23:38:30	840434	5be9b18df5c1060001085048	2	2	main_z	24	advance_on_keypress_ZEE	134	stimuli_distractor_diamondtriangles.svg	stimuli_target_trianglerectangles.svg	29	yes	57	0	374	6	5	antiphase_hc_osi.wav	2	6	3	noise_calib_stim_LEFT.wav	1	14	blb_dichoticlistening_ga-da.mp3	ga	da	1	right
6.6.1	win	2023-06-26	23:24:24	23:38:31	841708	5be9b18df5c1060001085048	2	2	main_z	24	main_z	135	stimuli_target_trianglesquares.svg	stimuli_distractor_diamondtriangles.svg	22	yes	44	1	255	6	5	antiphase_hc_osi.wav	2	6	3	noise_calib_stim_LEFT.wav	1	14	blb_dichoticlistening_ga-da.mp3	ga	da	1	right
6.6.1	win	2023-06-26	23:24:24	23:38:31	841708	5be9b18df5c1060001085048	2	2	main_z	24	advance_on_keypress_ZEE	136	stimuli_target_trianglesquares.svg	stimuli_distractor_diamondtriangles.svg	22	yes	57	0	333	6	5	antiphase_hc_osi.wav	2	6	3	noise_calib_stim_LEFT.wav	1	14	blb_dichoticlistening_ga-da.mp3	ga	da	1	right
6.6.1	win	2023-06-26	23:24:24	23:38:32	843076	5be9b18df5c1060001085048	2	2	main_z	24	main_z	137	stimuli_target_rectangletriangles.svg	stimuli_distractor_diamondtriangles.svg	5	yes	44	1	390	6	5	antiphase_hc_osi.wav	2	6	3	noise_calib_stim_LEFT.wav	1	14	blb_dichoticlistening_ga-da.mp3	ga	da	1	right
6.6.1	win	2023-06-26	23:24:24	23:38:32	843076	5be9b18df5c1060001085048	2	2	main_z	24	advance_on_keypress_ZEE	138	stimuli_target_rectangletriangles.svg	stimuli_distractor_diamondtriangles.svg	5	yes	57	0	303	6	5	antiphase_hc_osi.wav	2	6	3	noise_calib_stim_LEFT.wav	1	14	blb_dichoticlistening_ga-da.mp3	ga	da	1	right
6.6.1	win	2023-06-26	23:24:24	23:38:34	844660	5be9b18df5c1060001085048	2	2	main_z	24	main_z	139	stimuli_distractor_diamondtriangles.svg	stimuli_distractor_diamondtriangles.svg	39	no	44	0	642	6	5	antiphase_hc_osi.wav	2	6	3	noise_calib_stim_LEFT.wav	1	14	blb_dichoticlistening_ga-da.mp3	ga	da	1	right
6.6.1	win	2023-06-26	23:24:24	23:38:34	844660	5be9b18df5c1060001085048	2	2	main_z	24	advance_on_keypress_ZEE	140	stimuli_distractor_diamondtriangles.svg	stimuli_distractor_diamondtriangles.svg	39	no	57	0	305	6	5	antiphase_hc_osi.wav	2	6	3	noise_calib_stim_LEFT.wav	1	14	blb_dichoticlistening_ga-da.mp3	ga	da	1	right
6.6.1	win	2023-06-26	23:24:24	23:38:35	846244	5be9b18df5c1060001085048	2	2	main_z	24	main_z	141	stimuli_distractor_diamondtriangles.svg	stimuli_target_diamondrectangles.svg	31	yes	44	1	627	6	5	antiphase_hc_osi.wav	2	6	3	noise_calib_stim_LEFT.wav	1	14	blb_dichoticlistening_ga-da.mp3	ga	da	1	right
6.6.1	win	2023-06-26	23:24:24	23:38:35	846244	5be9b18df5c1060001085048	2	2	main_z	24	advance_on_keypress_ZEE	142	stimuli_distractor_diamondtriangles.svg	stimuli_target_diamondrectangles.svg	31	yes	57	0	179	6	5	antiphase_hc_osi.wav	2	6	3	noise_calib_stim_LEFT.wav	1	14	blb_dichoticlistening_ga-da.mp3	ga	da	1	right
6.6.1	win	2023-06-26	23:24:24	23:38:37	847612	5be9b18df5c1060001085048	2	2	main_z	24	main_z	143	stimuli_target_squarediamonds.svg	stimuli_distractor_diamondtriangles.svg	8	yes	44	1	530	6	5	antiphase_hc_osi.wav	2	6	3	noise_calib_stim_LEFT.wav	1	14	blb_dichoticlistening_ga-da.mp3	ga	da	1	right
6.6.1	win	2023-06-26	23:24:24	23:38:37	847612	5be9b18df5c1060001085048	2	2	main_z	24	advance_on_keypress_ZEE	144	stimuli_target_squarediamonds.svg	stimuli_distractor_diamondtriangles.svg	8	yes	57	0	166	6	5	antiphase_hc_osi.wav	2	6	3	noise_calib_stim_LEFT.wav	1	14	blb_dichoticlistening_ga-da.mp3	ga	da	1	right
6.6.1	win	2023-06-26	23:24:24	23:38:38	848868	5be9b18df5c1060001085048	2	2	main_z	24	main_z	145	stimuli_distractor_trianglediamonds.svg	stimuli_distractor_diamondtriangles.svg	36	no	44	0	438	6	5	antiphase_hc_osi.wav	2	6	3	noise_calib_stim_LEFT.wav	1	14	blb_dichoticlistening_ga-da.mp3	ga	da	1	right
6.6.1	win	2023-06-26	23:24:24	23:38:38	848868	5be9b18df5c1060001085048	2	2	main_z	24	advance_on_keypress_ZEE	146	stimuli_distractor_trianglediamonds.svg	stimuli_distractor_diamondtriangles.svg	36	no	57	0	157	6	5	antiphase_hc_osi.wav	2	6	3	noise_calib_stim_LEFT.wav	1	14	blb_dichoticlistening_ga-da.mp3	ga	da	1	right
6.6.1	win	2023-06-26	23:24:24	23:38:39	850020	5be9b18df5c1060001085048	2	2	main_z	24	main_z	147	stimuli_distractor_diamondtriangles.svg	stimuli_target_diamondsquares.svg	32	yes	44	1	358	6	5	antiphase_hc_osi.wav	2	6	3	noise_calib_stim_LEFT.wav	1	14	blb_dichoticlistening_ga-da.mp3	ga	da	1	right
6.6.1	win	2023-06-26	23:24:24	23:38:39	850020	5be9b18df5c1060001085048	2	2	main_z	24	advance_on_keypress_ZEE	148	stimuli_distractor_diamondtriangles.svg	stimuli_target_diamondsquares.svg	32	yes	57	0	191	6	5	antiphase_hc_osi.wav	2	6	3	noise_calib_stim_LEFT.wav	1	14	blb_dichoticlistening_ga-da.mp3	ga	da	1	right
6.6.1	win	2023-06-26	23:24:24	23:38:42	852845	5be9b18df5c1060001085048	2	2	main_z	24	main_z	149	stimuli_distractor_diamondtriangles.svg	stimuli_target_squaretriangles.svg	15	yes	0	0	2000	6	5	antiphase_hc_osi.wav	2	6	3	noise_calib_stim_LEFT.wav	1	14	blb_dichoticlistening_ga-da.mp3	ga	da	1	right
6.6.1	win	2023-06-26	23:24:24	23:38:42	852845	5be9b18df5c1060001085048	2	2	main_z	24	advance_on_keypress_ZEE	150	stimuli_distractor_diamondtriangles.svg	stimuli_target_squaretriangles.svg	15	yes	57	0	6600	6	5	antiphase_hc_osi.wav	2	6	3	noise_calib_stim_LEFT.wav	1	14	blb_dichoticlistening_ga-da.mp3	ga	da	1	right
6.6.1	win	2023-06-26	23:24:24	23:38:50	860668	5be9b18df5c1060001085048	2	2	main_z	24	main_z	151	stimuli_target_squaretriangles.svg	stimuli_distractor_diamondtriangles.svg	7	yes	44	1	581	6	5	antiphase_hc_osi.wav	2	6	3	noise_calib_stim_LEFT.wav	1	14	blb_dichoticlistening_ga-da.mp3	ga	da	1	right
6.6.1	win	2023-06-26	23:24:24	23:38:50	860668	5be9b18df5c1060001085048	2	2	main_z	24	advance_on_keypress_ZEE	152	stimuli_target_squaretriangles.svg	stimuli_distractor_diamondtriangles.svg	7	yes	57	0	862	6	5	antiphase_hc_osi.wav	2	6	3	noise_calib_stim_LEFT.wav	1	14	blb_dichoticlistening_ga-da.mp3	ga	da	1	right
6.6.1	win	2023-06-26	23:24:24	23:38:52	862452	5be9b18df5c1060001085048	2	2	main_z	24	main_z	153	stimuli_target_rectanglediamonds.svg	stimuli_distractor_trianglediamonds.svg	2	yes	44	1	267	6	5	antiphase_hc_osi.wav	2	6	3	noise_calib_stim_LEFT.wav	1	14	blb_dichoticlistening_ga-da.mp3	ga	da	1	right
6.6.1	win	2023-06-26	23:24:24	23:38:52	862452	5be9b18df5c1060001085048	2	2	main_z	24	advance_on_keypress_ZEE	154	stimuli_target_rectanglediamonds.svg	stimuli_distractor_trianglediamonds.svg	2	yes	57	0	693	6	5	antiphase_hc_osi.wav	2	6	3	noise_calib_stim_LEFT.wav	1	14	blb_dichoticlistening_ga-da.mp3	ga	da	1	right
6.6.1	win	2023-06-26	23:24:24	23:38:54	864780	5be9b18df5c1060001085048	2	2	main_z	24	main_z	155	stimuli_distractor_trianglediamonds.svg	stimuli_target_trianglerectangles.svg	25	yes	44	1	280	6	5	antiphase_hc_osi.wav	2	6	3	noise_calib_stim_LEFT.wav	1	14	blb_dichoticlistening_ga-da.mp3	ga	da	1	right
6.6.1	win	2023-06-26	23:24:24	23:38:54	864780	5be9b18df5c1060001085048	2	2	main_z	24	advance_on_keypress_ZEE	156	stimuli_distractor_trianglediamonds.svg	stimuli_target_trianglerectangles.svg	25	yes	57	0	581	6	5	antiphase_hc_osi.wav	2	6	3	noise_calib_stim_LEFT.wav	1	14	blb_dichoticlistening_ga-da.mp3	ga	da	1	right
6.6.1	win	2023-06-26	23:24:24	23:38:56	866980	5be9b18df5c1060001085048	2	2	main_z	24	main_z	157	stimuli_distractor_trianglediamonds.svg	stimuli_target_diamondsquares.svg	28	yes	44	1	965	6	5	antiphase_hc_osi.wav	2	6	3	noise_calib_stim_LEFT.wav	1	14	blb_dichoticlistening_ga-da.mp3	ga	da	1	right
6.6.1	win	2023-06-26	23:24:24	23:38:56	866980	5be9b18df5c1060001085048	2	2	main_z	24	advance_on_keypress_ZEE	158	stimuli_distractor_trianglediamonds.svg	stimuli_target_diamondsquares.svg	28	yes	57	0	775	6	5	antiphase_hc_osi.wav	2	6	3	noise_calib_stim_LEFT.wav	1	14	blb_dichoticlistening_ga-da.mp3	ga	da	1	right
6.6.1	win	2023-06-26	23:24:24	23:38:58	869076	5be9b18df5c1060001085048	2	2	main_z	24	main_z	159	stimuli_target_diamondsquares.svg	stimuli_distractor_diamondtriangles.svg	24	yes	44	1	679	6	5	antiphase_hc_osi.wav	2	6	3	noise_calib_stim_LEFT.wav	1	14	blb_dichoticlistening_ga-da.mp3	ga	da	1	right
6.6.1	win	2023-06-26	23:24:24	23:38:58	869076	5be9b18df5c1060001085048	2	2	main_z	24	advance_on_keypress_ZEE	160	stimuli_target_diamondsquares.svg	stimuli_distractor_diamondtriangles.svg	24	yes	57	0	573	6	5	antiphase_hc_osi.wav	2	6	3	noise_calib_stim_LEFT.wav	1	14	blb_dichoticlistening_ga-da.mp3	ga	da	1	right
6.6.1	win	2023-06-26	23:24:24	23:38:58	869076	5be9b18df5c1060001085048	2	2	inst_12_ZEE_practice2	25			stimuli_target_diamondsquares.svg	stimuli_distractor_diamondtriangles.svg	24	yes	Ctrl+'Q'			6	5	antiphase_hc_osi.wav	2	6	3	noise_calib_stim_LEFT.wav	1	14	blb_dichoticlistening_ga-da.mp3	ga	da	1	right