build	computer.platform	date	time	timestamp	time_elapsed_ms	subject	group	session	blockcode	blocknum	trialcode	trialnum	stimulus_left	stimulus_right	stim_index	target_present	response	correct	latency	headphonecheck_countTestTrials	headphonecheck_index	headphonecheck_testSound	headphonecheck_correctResponse	stereocheck_countTestTrials	stereocheck_index	stereocheck_testSound	stereocheck_correctResponse	DL_index	DL_soundfile	DL_leftSound	DL_rightSound	DL_dualSound	DL_choice
6.6.1	win	2023-06-27	19:10:21	0	0	63e51bcabf370d509e9a93b0	1	1	headphonecheck_calibration	4	headphonecheck_calibrationIntro	1			0		calibrationButton	0	1410	0	0			0	0			1				0	
6.6.1	win	2023-06-27	19:10:21	0	0	63e51bcabf370d509e9a93b0	1	1	headphonecheck_testphase	5	test_collectResponse	3			0		first	0	11701	1	6	antiphase_hc_ois.wav	3	0	0			1				0	
6.6.1	win	2023-06-27	19:10:21	0	0	63e51bcabf370d509e9a93b0	1	1	headphonecheck_testphase	5	test_collectResponse	6			0		first	0	1273	2	1	antiphase_hc_iso.wav	2	0	0			1				0	
6.6.1	win	2023-06-27	19:10:21	0	0	63e51bcabf370d509e9a93b0	1	1	headphonecheck_testphase	5	test_collectResponse	9			0		third	1	2015	3	2	antiphase_hc_ios.wav	3	0	0			1				0	
6.6.1	win	2023-06-27	19:10:21	0	0	63e51bcabf370d509e9a93b0	1	1	headphonecheck_testphase	5	test_collectResponse	12			0		second	0	1320	4	4	antiphase_hc_sio.wav	1	0	0			1				0	
6.6.1	win	2023-06-27	19:10:21	0	0	63e51bcabf370d509e9a93b0	1	1	headphonecheck_testphase	5	test_collectResponse	15			0		first	0	871	5	5	antiphase_hc_osi.wav	2	0	0			1				0	
6.6.1	win	2023-06-27	19:10:21	0	0	63e51bcabf370d509e9a93b0	1	1	headphonecheck_testphase	5	test_collectResponse	18			0		first	1	998	6	3	antiphase_hc_soi.wav	1	0	0			1				0	
6.6.1	win	2023-06-27	19:10:21	0	0	63e51bcabf370d509e9a93b0	1	1	stereocheck_calibration	7	stereocheck_calibrationIntro	1			0		stereocheck_calibrationButton	0	2502	6	3	antiphase_hc_soi.wav	1	0	0			1				0	
6.6.1	win	2023-06-27	19:10:21	0	0	63e51bcabf370d509e9a93b0	1	1	stereocheck_testphase	8	stereocheck_test_collectResponse	3			0		stereocheck_right	1	366	6	3	antiphase_hc_soi.wav	1	1	5	noise_calib_stim_RIGHT.wav	2	1				0	
6.6.1	win	2023-06-27	19:10:21	0	0	63e51bcabf370d509e9a93b0	1	1	stereocheck_testphase	8	stereocheck_test_collectResponse	6			0		stereocheck_right	0	589	6	3	antiphase_hc_soi.wav	1	2	1	noise_calib_stim_LEFT.wav	1	1				0	
6.6.1	win	2023-06-27	19:10:21	0	0	63e51bcabf370d509e9a93b0	1	1	stereocheck_testphase	8	stereocheck_test_collectResponse	9			0		stereocheck_right	0	302	6	3	antiphase_hc_soi.wav	1	3	2	noise_calib_stim_LEFT.wav	1	1				0	
6.6.1	win	2023-06-27	19:10:21	0	0	63e51bcabf370d509e9a93b0	1	1	stereocheck_testphase	8	stereocheck_test_collectResponse	12			0		stereocheck_right	1	347	6	3	antiphase_hc_soi.wav	1	4	4	noise_calib_stim_RIGHT.wav	2	1				0	
6.6.1	win	2023-06-27	19:10:21	0	0	63e51bcabf370d509e9a93b0	1	1	stereocheck_testphase	8	stereocheck_test_collectResponse	15			0		stereocheck_right	0	263	6	3	antiphase_hc_soi.wav	1	5	3	noise_calib_stim_LEFT.wav	1	1				0	
6.6.1	win	2023-06-27	19:10:21	0	0	63e51bcabf370d509e9a93b0	1	1	stereocheck_testphase	8	stereocheck_test_collectResponse	18			0		stereocheck_right	1	289	6	3	antiphase_hc_soi.wav	1	6	6	noise_calib_stim_RIGHT.wav	2	1				0	
6.6.1	win	2023-06-27	19:10:21	0	0	63e51bcabf370d509e9a93b0	1	1	DL_practice	11	DL_practice	2			0		pa	1	1622	6	3	antiphase_hc_soi.wav	1	6	6	noise_calib_stim_RIGHT.wav	2	29	blb_dichoticlistening_pa-pa.mp3	pa	pa	0	left
6.6.1	win	2023-06-27	19:10:21	0	0	63e51bcabf370d509e9a93b0	1	1	DL_practice	11	DL_practice	3			0		ta	1	908	6	3	antiphase_hc_soi.wav	1	6	6	noise_calib_stim_RIGHT.wav	2	36	blb_dichoticlistening_ta-ta.mp3	ta	ta	0	left
6.6.1	win	2023-06-27	19:10:21	0	0	63e51bcabf370d509e9a93b0	1	1	DL_practice	11	DL_practice	4			0		ka	1	802	6	3	antiphase_hc_soi.wav	1	6	6	noise_calib_stim_RIGHT.wav	2	22	blb_dichoticlistening_ka-ka.mp3	ka	ka	0	left
6.6.1	win	2023-06-27	19:10:21	0	0	63e51bcabf370d509e9a93b0	1	1	DL_practice	11	DL_practice	5			0		ga	1	777	6	3	antiphase_hc_soi.wav	1	6	6	noise_calib_stim_RIGHT.wav	2	15	blb_dichoticlistening_ga-ga.mp3	ga	ga	0	left
6.6.1	win	2023-06-27	19:10:21	0	0	63e51bcabf370d509e9a93b0	1	1	DL_practice	11	DL_practice	6			0		da	1	683	6	3	antiphase_hc_soi.wav	1	6	6	noise_calib_stim_RIGHT.wav	2	8	blb_dichoticlistening_da-da.mp3	da	da	0	left
6.6.1	win	2023-06-27	19:10:21	0	0	63e51bcabf370d509e9a93b0	1	1	DL_practice	11	DL_practice	7			0		ga	1	984	6	3	antiphase_hc_soi.wav	1	6	6	noise_calib_stim_RIGHT.wav	2	18	blb_dichoticlistening_ga-ta.mp3	ga	ta	1	left
6.6.1	win	2023-06-27	19:10:21	0	0	63e51bcabf370d509e9a93b0	1	1	DL_practice	11	DL_practice	8			0		ba	1	1115	6	3	antiphase_hc_soi.wav	1	6	6	noise_calib_stim_RIGHT.wav	2	1	blb_dichoticlistening_ba-ba.mp3	ba	ba	0	left
6.6.1	win	2023-06-27	19:10:21	0	0	63e51bcabf370d509e9a93b0	1	1	DL_practice	11	DL_practice	9			0		ka	1	939	6	3	antiphase_hc_soi.wav	1	6	6	noise_calib_stim_RIGHT.wav	2	23	blb_dichoticlistening_ka-pa.mp3	ka	pa	1	left
6.6.1	win	2023-06-27	19:10:21	0	0	63e51bcabf370d509e9a93b0	1	1	DL_practice	11	DL_practice	10			0		ba	1	1443	6	3	antiphase_hc_soi.wav	1	6	6	noise_calib_stim_RIGHT.wav	2	7	blb_dichoticlistening_da-ba.mp3	da	ba	1	right
6.6.1	win	2023-06-27	19:10:21	0	0	63e51bcabf370d509e9a93b0	1	1	DL_test	13	DL_test	1			0		da	1	900	6	3	antiphase_hc_soi.wav	1	6	6	noise_calib_stim_RIGHT.wav	2	26	blb_dichoticlistening_pa-da.mp3	pa	da	1	right
6.6.1	win	2023-06-27	19:10:21	0	0	63e51bcabf370d509e9a93b0	1	1	DL_test	13	DL_test	2			0		ba	1	1020	6	3	antiphase_hc_soi.wav	1	6	6	noise_calib_stim_RIGHT.wav	2	3	blb_dichoticlistening_ba-ga.mp3	ba	ga	1	left
6.6.1	win	2023-06-27	19:10:21	0	0	63e51bcabf370d509e9a93b0	1	1	DL_test	13	DL_test	3			0		ba	1	726	6	3	antiphase_hc_soi.wav	1	6	6	noise_calib_stim_RIGHT.wav	2	13	blb_dichoticlistening_ga-ba.mp3	ga	ba	1	right
6.6.1	win	2023-06-27	19:10:21	0	0	63e51bcabf370d509e9a93b0	1	1	DL_test	13	DL_test	4			0		ta	1	2713	6	3	antiphase_hc_soi.wav	1	6	6	noise_calib_stim_RIGHT.wav	2	36	blb_dichoticlistening_ta-ta.mp3	ta	ta	0	left
6.6.1	win	2023-06-27	19:10:21	0	0	63e51bcabf370d509e9a93b0	1	1	DL_test	13	DL_test	5			0		da	1	1886	6	3	antiphase_hc_soi.wav	1	6	6	noise_calib_stim_RIGHT.wav	2	32	blb_dichoticlistening_ta-da.mp3	ta	da	1	right
6.6.1	win	2023-06-27	19:10:21	0	0	63e51bcabf370d509e9a93b0	1	1	DL_test	13	DL_test	6			0		ga	1	1230	6	3	antiphase_hc_soi.wav	1	6	6	noise_calib_stim_RIGHT.wav	2	18	blb_dichoticlistening_ga-ta.mp3	ga	ta	1	left
6.6.1	win	2023-06-27	19:10:21	0	0	63e51bcabf370d509e9a93b0	1	1	DL_test	13	DL_test	7			0		ga	1	977	6	3	antiphase_hc_soi.wav	1	6	6	noise_calib_stim_RIGHT.wav	2	15	blb_dichoticlistening_ga-ga.mp3	ga	ga	0	left
6.6.1	win	2023-06-27	19:10:21	0	0	63e51bcabf370d509e9a93b0	1	1	DL_test	13	DL_test	8			0		ga	1	679	6	3	antiphase_hc_soi.wav	1	6	6	noise_calib_stim_RIGHT.wav	2	21	blb_dichoticlistening_ka-ga.mp3	ka	ga	1	right
6.6.1	win	2023-06-27	19:10:21	0	0	63e51bcabf370d509e9a93b0	1	1	DL_test	13	DL_test	9			0		ga	1	565	6	3	antiphase_hc_soi.wav	1	6	6	noise_calib_stim_RIGHT.wav	2	16	blb_dichoticlistening_ga-ka.mp3	ga	ka	1	left
6.6.1	win	2023-06-27	19:10:21	0	0	63e51bcabf370d509e9a93b0	1	1	DL_test	13	DL_test	10			0		pa	1	1498	6	3	antiphase_hc_soi.wav	1	6	6	noise_calib_stim_RIGHT.wav	2	29	blb_dichoticlistening_pa-pa.mp3	pa	pa	0	left
6.6.1	win	2023-06-27	19:10:21	0	0	63e51bcabf370d509e9a93b0	1	1	DL_test	13	DL_test	11			0		ga	1	1182	6	3	antiphase_hc_soi.wav	1	6	6	noise_calib_stim_RIGHT.wav	2	33	blb_dichoticlistening_ta-ga.mp3	ta	ga	1	right
6.6.1	win	2023-06-27	19:10:21	0	0	63e51bcabf370d509e9a93b0	1	1	DL_test	13	DL_test	12			0		ta	1	1850	6	3	antiphase_hc_soi.wav	1	6	6	noise_calib_stim_RIGHT.wav	2	35	blb_dichoticlistening_ta-pa.mp3	ta	pa	1	left
6.6.1	win	2023-06-27	19:10:21	0	0	63e51bcabf370d509e9a93b0	1	1	DL_test	13	DL_test	13			0		ga	1	1664	6	3	antiphase_hc_soi.wav	1	6	6	noise_calib_stim_RIGHT.wav	2	17	blb_dichoticlistening_ga-pa.mp3	ga	pa	1	left
6.6.1	win	2023-06-27	19:10:21	0	0	63e51bcabf370d509e9a93b0	1	1	DL_test	13	DL_test	14			0		ta	1	2169	6	3	antiphase_hc_soi.wav	1	6	6	noise_calib_stim_RIGHT.wav	2	30	blb_dichoticlistening_pa-ta.mp3	pa	ta	1	right
6.6.1	win	2023-06-27	19:10:21	0	0	63e51bcabf370d509e9a93b0	1	1	DL_test	13	DL_test	15			0		ba	1	1323	6	3	antiphase_hc_soi.wav	1	6	6	noise_calib_stim_RIGHT.wav	2	1	blb_dichoticlistening_ba-ba.mp3	ba	ba	0	left
6.6.1	win	2023-06-27	19:10:21	0	0	63e51bcabf370d509e9a93b0	1	1	DL_test	13	DL_test	16			0		ga	1	1760	6	3	antiphase_hc_soi.wav	1	6	6	noise_calib_stim_RIGHT.wav	2	9	blb_dichoticlistening_da-ga.mp3	da	ga	1	right
6.6.1	win	2023-06-27	19:10:21	0	0	63e51bcabf370d509e9a93b0	1	1	DL_test	13	DL_test	17			0		ba	1	1876	6	3	antiphase_hc_soi.wav	1	6	6	noise_calib_stim_RIGHT.wav	2	7	blb_dichoticlistening_da-ba.mp3	da	ba	1	right
6.6.1	win	2023-06-27	19:10:21	0	0	63e51bcabf370d509e9a93b0	1	1	DL_test	13	DL_test	18			0		ka	1	1256	6	3	antiphase_hc_soi.wav	1	6	6	noise_calib_stim_RIGHT.wav	2	24	blb_dichoticlistening_ka-ta.mp3	ka	ta	1	left
6.6.1	win	2023-06-27	19:10:21	0	0	63e51bcabf370d509e9a93b0	1	1	DL_test	13	DL_test	19			0		da	1	1106	6	3	antiphase_hc_soi.wav	1	6	6	noise_calib_stim_RIGHT.wav	2	11	blb_dichoticlistening_da-pa.mp3	da	pa	1	left
6.6.1	win	2023-06-27	19:10:21	0	0	63e51bcabf370d509e9a93b0	1	1	DL_test	13	DL_test	20			0		da	1	1048	6	3	antiphase_hc_soi.wav	1	6	6	noise_calib_stim_RIGHT.wav	2	10	blb_dichoticlistening_da-ka.mp3	da	ka	1	left
6.6.1	win	2023-06-27	19:10:21	0	0	63e51bcabf370d509e9a93b0	1	1	DL_test	13	DL_test	21			0		ka	1	1342	6	3	antiphase_hc_soi.wav	1	6	6	noise_calib_stim_RIGHT.wav	2	28	blb_dichoticlistening_pa-ka.mp3	pa	ka	1	right
6.6.1	win	2023-06-27	19:10:21	0	0	63e51bcabf370d509e9a93b0	1	1	DL_test	13	DL_test	22			0		ga	1	1372	6	3	antiphase_hc_soi.wav	1	6	6	noise_calib_stim_RIGHT.wav	2	27	blb_dichoticlistening_pa-ga.mp3	pa	ga	1	right
6.6.1	win	2023-06-27	19:10:21	0	0	63e51bcabf370d509e9a93b0	1	1	DL_test	13	DL_test	23			0		da	1	2223	6	3	antiphase_hc_soi.wav	1	6	6	noise_calib_stim_RIGHT.wav	2	12	blb_dichoticlistening_da-ta.mp3	da	ta	1	left
6.6.1	win	2023-06-27	19:10:21	0	0	63e51bcabf370d509e9a93b0	1	1	DL_test	13	DL_test	24			0		ga	0	2084	6	3	antiphase_hc_soi.wav	1	6	6	noise_calib_stim_RIGHT.wav	2	20	blb_dichoticlistening_ka-da.mp3	ka	da	1	other
6.6.1	win	2023-06-27	19:10:21	0	0	63e51bcabf370d509e9a93b0	1	1	DL_test	13	DL_test	25			0		pa	0	2689	6	3	antiphase_hc_soi.wav	1	6	6	noise_calib_stim_RIGHT.wav	2	31	blb_dichoticlistening_ta-ba.mp3	ta	ba	1	other
6.6.1	win	2023-06-27	19:10:21	0	0	63e51bcabf370d509e9a93b0	1	1	DL_test	13	DL_test	26			0		pa	1	1529	6	3	antiphase_hc_soi.wav	1	6	6	noise_calib_stim_RIGHT.wav	2	25	blb_dichoticlistening_pa-ba.mp3	pa	ba	1	left
6.6.1	win	2023-06-27	19:10:21	0	0	63e51bcabf370d509e9a93b0	1	1	DL_test	13	DL_test	27			0		pa	0	1396	6	3	antiphase_hc_soi.wav	1	6	6	noise_calib_stim_RIGHT.wav	2	4	blb_dichoticlistening_ba-ka.mp3	ba	ka	1	other
6.6.1	win	2023-06-27	19:10:21	0	0	63e51bcabf370d509e9a93b0	1	1	DL_test	13	DL_test	28			0		ba	1	1275	6	3	antiphase_hc_soi.wav	1	6	6	noise_calib_stim_RIGHT.wav	2	2	blb_dichoticlistening_ba-da.mp3	ba	da	1	left
6.6.1	win	2023-06-27	19:10:21	0	0	63e51bcabf370d509e9a93b0	1	1	DL_test	13	DL_test	29			0		ga	1	755	6	3	antiphase_hc_soi.wav	1	6	6	noise_calib_stim_RIGHT.wav	2	14	blb_dichoticlistening_ga-da.mp3	ga	da	1	left
6.6.1	win	2023-06-27	19:10:21	0	0	63e51bcabf370d509e9a93b0	1	1	DL_test	13	DL_test	30			0		ka	1	818	6	3	antiphase_hc_soi.wav	1	6	6	noise_calib_stim_RIGHT.wav	2	23	blb_dichoticlistening_ka-pa.mp3	ka	pa	1	left
6.6.1	win	2023-06-27	19:10:21	0	0	63e51bcabf370d509e9a93b0	1	1	DL_test	13	DL_test	31			0		ka	1	928	6	3	antiphase_hc_soi.wav	1	6	6	noise_calib_stim_RIGHT.wav	2	22	blb_dichoticlistening_ka-ka.mp3	ka	ka	0	left
6.6.1	win	2023-06-27	19:10:21	0	0	63e51bcabf370d509e9a93b0	1	1	DL_test	13	DL_test	32			0		ka	1	653	6	3	antiphase_hc_soi.wav	1	6	6	noise_calib_stim_RIGHT.wav	2	34	blb_dichoticlistening_ta-ka.mp3	ta	ka	1	right
6.6.1	win	2023-06-27	19:10:21	0	0	63e51bcabf370d509e9a93b0	1	1	DL_test	13	DL_test	33			0		pa	1	1445	6	3	antiphase_hc_soi.wav	1	6	6	noise_calib_stim_RIGHT.wav	2	5	blb_dichoticlistening_ba-pa.mp3	ba	pa	1	right
6.6.1	win	2023-06-27	19:10:21	0	0	63e51bcabf370d509e9a93b0	1	1	DL_test	13	DL_test	34			0		da	1	1436	6	3	antiphase_hc_soi.wav	1	6	6	noise_calib_stim_RIGHT.wav	2	8	blb_dichoticlistening_da-da.mp3	da	da	0	left
6.6.1	win	2023-06-27	19:10:21	0	0	63e51bcabf370d509e9a93b0	1	1	DL_test	13	DL_test	35			0		ka	1	1733	6	3	antiphase_hc_soi.wav	1	6	6	noise_calib_stim_RIGHT.wav	2	19	blb_dichoticlistening_ka-ba.mp3	ka	ba	1	left
6.6.1	win	2023-06-27	19:10:21	0	0	63e51bcabf370d509e9a93b0	1	1	DL_test	13	DL_test	36			0		ba	1	2345	6	3	antiphase_hc_soi.wav	1	6	6	noise_calib_stim_RIGHT.wav	2	6	blb_dichoticlistening_ba-ta.mp3	ba	ta	1	left
6.6.1	win	2023-06-27	19:10:21	0	0	63e51bcabf370d509e9a93b0	1	1	DL_test	14	DL_test	1			0		ka	0	1333	6	3	antiphase_hc_soi.wav	1	6	6	noise_calib_stim_RIGHT.wav	2	26	blb_dichoticlistening_pa-da.mp3	pa	da	1	other
6.6.1	win	2023-06-27	19:10:21	0	0	63e51bcabf370d509e9a93b0	1	1	DL_test	14	DL_test	2			0		ba	1	2007	6	3	antiphase_hc_soi.wav	1	6	6	noise_calib_stim_RIGHT.wav	2	2	blb_dichoticlistening_ba-da.mp3	ba	da	1	left
6.6.1	win	2023-06-27	19:10:21	0	0	63e51bcabf370d509e9a93b0	1	1	DL_test	14	DL_test	3			0		ga	1	613	6	3	antiphase_hc_soi.wav	1	6	6	noise_calib_stim_RIGHT.wav	2	14	blb_dichoticlistening_ga-da.mp3	ga	da	1	left
6.6.1	win	2023-06-27	19:10:21	0	0	63e51bcabf370d509e9a93b0	1	1	DL_test	14	DL_test	4			0		ga	1	630	6	3	antiphase_hc_soi.wav	1	6	6	noise_calib_stim_RIGHT.wav	2	18	blb_dichoticlistening_ga-ta.mp3	ga	ta	1	left
6.6.1	win	2023-06-27	19:10:21	0	0	63e51bcabf370d509e9a93b0	1	1	DL_test	14	DL_test	5			0		pa	1	1109	6	3	antiphase_hc_soi.wav	1	6	6	noise_calib_stim_RIGHT.wav	2	29	blb_dichoticlistening_pa-pa.mp3	pa	pa	0	left
6.6.1	win	2023-06-27	19:10:21	0	0	63e51bcabf370d509e9a93b0	1	1	DL_test	14	DL_test	6			0		pa	1	1160	6	3	antiphase_hc_soi.wav	1	6	6	noise_calib_stim_RIGHT.wav	2	25	blb_dichoticlistening_pa-ba.mp3	pa	ba	1	left
6.6.1	win	2023-06-27	19:10:21	0	0	63e51bcabf370d509e9a93b0	1	1	DL_test	14	DL_test	7			0		da	1	1190	6	3	antiphase_hc_soi.wav	1	6	6	noise_calib_stim_RIGHT.wav	2	10	blb_dichoticlistening_da-ka.mp3	da	ka	1	left
6.6.1	win	2023-06-27	19:10:21	0	0	63e51bcabf370d509e9a93b0	1	1	DL_test	14	DL_test	8			0		ka	1	820	6	3	antiphase_hc_soi.wav	1	6	6	noise_calib_stim_RIGHT.wav	2	24	blb_dichoticlistening_ka-ta.mp3	ka	ta	1	left
6.6.1	win	2023-06-27	19:10:21	0	0	63e51bcabf370d509e9a93b0	1	1	DL_test	14	DL_test	9			0		ka	0	788	6	3	antiphase_hc_soi.wav	1	6	6	noise_calib_stim_RIGHT.wav	2	35	blb_dichoticlistening_ta-pa.mp3	ta	pa	1	other
6.6.1	win	2023-06-27	19:10:21	0	0	63e51bcabf370d509e9a93b0	1	1	DL_test	14	DL_test	10			0		ka	0	913	6	3	antiphase_hc_soi.wav	1	6	6	noise_calib_stim_RIGHT.wav	2	33	blb_dichoticlistening_ta-ga.mp3	ta	ga	1	other
6.6.1	win	2023-06-27	19:10:21	0	0	63e51bcabf370d509e9a93b0	1	1	DL_test	14	DL_test	11			0		ba	1	1286	6	3	antiphase_hc_soi.wav	1	6	6	noise_calib_stim_RIGHT.wav	2	1	blb_dichoticlistening_ba-ba.mp3	ba	ba	0	left
6.6.1	win	2023-06-27	19:10:21	0	0	63e51bcabf370d509e9a93b0	1	1	DL_test	14	DL_test	12			0		ba	1	985	6	3	antiphase_hc_soi.wav	1	6	6	noise_calib_stim_RIGHT.wav	2	4	blb_dichoticlistening_ba-ka.mp3	ba	ka	1	left
6.6.1	win	2023-06-27	19:10:21	0	0	63e51bcabf370d509e9a93b0	1	1	DL_test	14	DL_test	13			0		ga	0	910	6	3	antiphase_hc_soi.wav	1	6	6	noise_calib_stim_RIGHT.wav	2	5	blb_dichoticlistening_ba-pa.mp3	ba	pa	1	other
6.6.1	win	2023-06-27	19:10:21	0	0	63e51bcabf370d509e9a93b0	1	1	DL_test	14	DL_test	14			0		ta	1	1726	6	3	antiphase_hc_soi.wav	1	6	6	noise_calib_stim_RIGHT.wav	2	30	blb_dichoticlistening_pa-ta.mp3	pa	ta	1	right
6.6.1	win	2023-06-27	19:10:21	0	0	63e51bcabf370d509e9a93b0	1	1	DL_test	14	DL_test	15			0		ga	1	1122	6	3	antiphase_hc_soi.wav	1	6	6	noise_calib_stim_RIGHT.wav	2	15	blb_dichoticlistening_ga-ga.mp3	ga	ga	0	left
6.6.1	win	2023-06-27	19:10:21	0	0	63e51bcabf370d509e9a93b0	1	1	DL_test	14	DL_test	16			0		ga	0	1976	6	3	antiphase_hc_soi.wav	1	6	6	noise_calib_stim_RIGHT.wav	2	11	blb_dichoticlistening_da-pa.mp3	da	pa	1	other
6.6.1	win	2023-06-27	19:10:21	0	0	63e51bcabf370d509e9a93b0	1	1	DL_test	14	DL_test	17			0		ga	0	748	6	3	antiphase_hc_soi.wav	1	6	6	noise_calib_stim_RIGHT.wav	2	8	blb_dichoticlistening_da-da.mp3	da	da	0	other
6.6.1	win	2023-06-27	19:10:21	0	0	63e51bcabf370d509e9a93b0	1	1	DL_test	14	DL_test	18			0		ga	1	1271	6	3	antiphase_hc_soi.wav	1	6	6	noise_calib_stim_RIGHT.wav	2	9	blb_dichoticlistening_da-ga.mp3	da	ga	1	right
6.6.1	win	2023-06-27	19:10:21	0	0	63e51bcabf370d509e9a93b0	1	1	DL_test	14	DL_test	19			0		ka	1	1306	6	3	antiphase_hc_soi.wav	1	6	6	noise_calib_stim_RIGHT.wav	2	22	blb_dichoticlistening_ka-ka.mp3	ka	ka	0	left
6.6.1	win	2023-06-27	19:10:21	0	0	63e51bcabf370d509e9a93b0	1	1	DL_test	14	DL_test	20			0		ba	1	2033	6	3	antiphase_hc_soi.wav	1	6	6	noise_calib_stim_RIGHT.wav	2	13	blb_dichoticlistening_ga-ba.mp3	ga	ba	1	right
6.6.1	win	2023-06-27	19:10:21	0	0	63e51bcabf370d509e9a93b0	1	1	DL_test	14	DL_test	21			0		ta	1	1631	6	3	antiphase_hc_soi.wav	1	6	6	noise_calib_stim_RIGHT.wav	2	34	blb_dichoticlistening_ta-ka.mp3	ta	ka	1	left
6.6.1	win	2023-06-27	19:10:21	0	0	63e51bcabf370d509e9a93b0	1	1	DL_test	14	DL_test	22			0		da	1	1109	6	3	antiphase_hc_soi.wav	1	6	6	noise_calib_stim_RIGHT.wav	2	32	blb_dichoticlistening_ta-da.mp3	ta	da	1	right
6.6.1	win	2023-06-27	19:10:21	0	0	63e51bcabf370d509e9a93b0	1	1	DL_test	14	DL_test	23			0		ga	0	1386	6	3	antiphase_hc_soi.wav	1	6	6	noise_calib_stim_RIGHT.wav	2	12	blb_dichoticlistening_da-ta.mp3	da	ta	1	other
6.6.1	win	2023-06-27	19:10:21	0	0	63e51bcabf370d509e9a93b0	1	1	DL_test	14	DL_test	24			0		ka	1	2142	6	3	antiphase_hc_soi.wav	1	6	6	noise_calib_stim_RIGHT.wav	2	21	blb_dichoticlistening_ka-ga.mp3	ka	ga	1	left
6.6.1	win	2023-06-27	19:10:21	0	0	63e51bcabf370d509e9a93b0	1	1	DL_test	14	DL_test	25			0		ga	1	1161	6	3	antiphase_hc_soi.wav	1	6	6	noise_calib_stim_RIGHT.wav	2	17	blb_dichoticlistening_ga-pa.mp3	ga	pa	1	left
6.6.1	win	2023-06-27	19:10:21	0	0	63e51bcabf370d509e9a93b0	1	1	DL_test	14	DL_test	26			0		ta	0	7931	6	3	antiphase_hc_soi.wav	1	6	6	noise_calib_stim_RIGHT.wav	2	28	blb_dichoticlistening_pa-ka.mp3	pa	ka	1	other
6.6.1	win	2023-06-27	19:10:21	0	0	63e51bcabf370d509e9a93b0	1	1	DL_test	14	DL_test	27			0		ta	1	1056	6	3	antiphase_hc_soi.wav	1	6	6	noise_calib_stim_RIGHT.wav	2	36	blb_dichoticlistening_ta-ta.mp3	ta	ta	0	left
6.6.1	win	2023-06-27	19:10:21	0	0	63e51bcabf370d509e9a93b0	1	1	DL_test	14	DL_test	28			0		ba	1	1610	6	3	antiphase_hc_soi.wav	1	6	6	noise_calib_stim_RIGHT.wav	2	6	blb_dichoticlistening_ba-ta.mp3	ba	ta	1	left
6.6.1	win	2023-06-27	19:10:21	0	0	63e51bcabf370d509e9a93b0	1	1	DL_test	14	DL_test	29			0		ga	1	1378	6	3	antiphase_hc_soi.wav	1	6	6	noise_calib_stim_RIGHT.wav	2	27	blb_dichoticlistening_pa-ga.mp3	pa	ga	1	right
6.6.1	win	2023-06-27	19:10:21	0	0	63e51bcabf370d509e9a93b0	1	1	DL_test	14	DL_test	30			0		ga	0	3258	6	3	antiphase_hc_soi.wav	1	6	6	noise_calib_stim_RIGHT.wav	2	19	blb_dichoticlistening_ka-ba.mp3	ka	ba	1	other
6.6.1	win	2023-06-27	19:10:21	0	0	63e51bcabf370d509e9a93b0	1	1	DL_test	14	DL_test	31			0		ga	0	851	6	3	antiphase_hc_soi.wav	1	6	6	noise_calib_stim_RIGHT.wav	2	20	blb_dichoticlistening_ka-da.mp3	ka	da	1	other
6.6.1	win	2023-06-27	19:10:21	0	0	63e51bcabf370d509e9a93b0	1	1	DL_test	14	DL_test	32			0		da	1	1434	6	3	antiphase_hc_soi.wav	1	6	6	noise_calib_stim_RIGHT.wav	2	7	blb_dichoticlistening_da-ba.mp3	da	ba	1	left
6.6.1	win	2023-06-27	19:10:21	0	0	63e51bcabf370d509e9a93b0	1	1	DL_test	14	DL_test	33			0		da	0	1200	6	3	antiphase_hc_soi.wav	1	6	6	noise_calib_stim_RIGHT.wav	2	31	blb_dichoticlistening_ta-ba.mp3	ta	ba	1	other
6.6.1	win	2023-06-27	19:10:21	0	0	63e51bcabf370d509e9a93b0	1	1	DL_test	14	DL_test	34			0		ba	1	822	6	3	antiphase_hc_soi.wav	1	6	6	noise_calib_stim_RIGHT.wav	2	3	blb_dichoticlistening_ba-ga.mp3	ba	ga	1	left
6.6.1	win	2023-06-27	19:10:21	0	0	63e51bcabf370d509e9a93b0	1	1	DL_test	14	DL_test	35			0		ka	1	1421	6	3	antiphase_hc_soi.wav	1	6	6	noise_calib_stim_RIGHT.wav	2	23	blb_dichoticlistening_ka-pa.mp3	ka	pa	1	left
6.6.1	win	2023-06-27	19:10:21	0	0	63e51bcabf370d509e9a93b0	1	1	DL_test	14	DL_test	36			0		da	0	4004	6	3	antiphase_hc_soi.wav	1	6	6	noise_calib_stim_RIGHT.wav	2	16	blb_dichoticlistening_ga-ka.mp3	ga	ka	1	other
6.6.1	win	2023-06-27	19:10:21	0	0	63e51bcabf370d509e9a93b0	1	1	DL_test	15	DL_test	1			0		ba	1	1232	6	3	antiphase_hc_soi.wav	1	6	6	noise_calib_stim_RIGHT.wav	2	3	blb_dichoticlistening_ba-ga.mp3	ba	ga	1	left
6.6.1	win	2023-06-27	19:10:21	0	0	63e51bcabf370d509e9a93b0	1	1	DL_test	15	DL_test	2			0		ka	1	1047	6	3	antiphase_hc_soi.wav	1	6	6	noise_calib_stim_RIGHT.wav	2	23	blb_dichoticlistening_ka-pa.mp3	ka	pa	1	left
6.6.1	win	2023-06-27	19:10:21	0	0	63e51bcabf370d509e9a93b0	1	1	DL_test	15	DL_test	3			0		ka	1	1036	6	3	antiphase_hc_soi.wav	1	6	6	noise_calib_stim_RIGHT.wav	2	4	blb_dichoticlistening_ba-ka.mp3	ba	ka	1	right
6.6.1	win	2023-06-27	19:10:21	0	0	63e51bcabf370d509e9a93b0	1	1	DL_test	15	DL_test	4			0		ka	1	629	6	3	antiphase_hc_soi.wav	1	6	6	noise_calib_stim_RIGHT.wav	2	34	blb_dichoticlistening_ta-ka.mp3	ta	ka	1	right
6.6.1	win	2023-06-27	19:10:21	0	0	63e51bcabf370d509e9a93b0	1	1	DL_test	15	DL_test	5			0		ta	1	1051	6	3	antiphase_hc_soi.wav	1	6	6	noise_calib_stim_RIGHT.wav	2	36	blb_dichoticlistening_ta-ta.mp3	ta	ta	0	left
6.6.1	win	2023-06-27	19:10:21	0	0	63e51bcabf370d509e9a93b0	1	1	DL_test	15	DL_test	6			0		ga	1	889	6	3	antiphase_hc_soi.wav	1	6	6	noise_calib_stim_RIGHT.wav	2	18	blb_dichoticlistening_ga-ta.mp3	ga	ta	1	left
6.6.1	win	2023-06-27	19:10:21	0	0	63e51bcabf370d509e9a93b0	1	1	DL_test	15	DL_test	7			0		da	1	1356	6	3	antiphase_hc_soi.wav	1	6	6	noise_calib_stim_RIGHT.wav	2	12	blb_dichoticlistening_da-ta.mp3	da	ta	1	left
6.6.1	win	2023-06-27	19:10:21	0	0	63e51bcabf370d509e9a93b0	1	1	DL_test	15	DL_test	8			0		ga	1	668	6	3	antiphase_hc_soi.wav	1	6	6	noise_calib_stim_RIGHT.wav	2	14	blb_dichoticlistening_ga-da.mp3	ga	da	1	left
6.6.1	win	2023-06-27	19:10:21	0	0	63e51bcabf370d509e9a93b0	1	1	DL_test	15	DL_test	9			0		ba	1	2196	6	3	antiphase_hc_soi.wav	1	6	6	noise_calib_stim_RIGHT.wav	2	6	blb_dichoticlistening_ba-ta.mp3	ba	ta	1	left
6.6.1	win	2023-06-27	19:10:21	0	0	63e51bcabf370d509e9a93b0	1	1	DL_test	15	DL_test	10			0		ba	1	2126	6	3	antiphase_hc_soi.wav	1	6	6	noise_calib_stim_RIGHT.wav	2	1	blb_dichoticlistening_ba-ba.mp3	ba	ba	0	left
6.6.1	win	2023-06-27	19:10:21	0	0	63e51bcabf370d509e9a93b0	1	1	DL_test	15	DL_test	11			0		ka	1	1358	6	3	antiphase_hc_soi.wav	1	6	6	noise_calib_stim_RIGHT.wav	2	19	blb_dichoticlistening_ka-ba.mp3	ka	ba	1	left
6.6.1	win	2023-06-27	19:10:21	0	0	63e51bcabf370d509e9a93b0	1	1	DL_test	15	DL_test	12			0		ka	1	2157	6	3	antiphase_hc_soi.wav	1	6	6	noise_calib_stim_RIGHT.wav	2	28	blb_dichoticlistening_pa-ka.mp3	pa	ka	1	right
6.6.1	win	2023-06-27	19:10:21	0	0	63e51bcabf370d509e9a93b0	1	1	DL_test	15	DL_test	13			0		ga	1	858	6	3	antiphase_hc_soi.wav	1	6	6	noise_calib_stim_RIGHT.wav	2	9	blb_dichoticlistening_da-ga.mp3	da	ga	1	right
6.6.1	win	2023-06-27	19:10:21	0	0	63e51bcabf370d509e9a93b0	1	1	DL_test	15	DL_test	14			0		pa	1	1160	6	3	antiphase_hc_soi.wav	1	6	6	noise_calib_stim_RIGHT.wav	2	5	blb_dichoticlistening_ba-pa.mp3	ba	pa	1	right
6.6.1	win	2023-06-27	19:10:21	0	0	63e51bcabf370d509e9a93b0	1	1	DL_test	15	DL_test	15			0		ba	1	1829	6	3	antiphase_hc_soi.wav	1	6	6	noise_calib_stim_RIGHT.wav	2	7	blb_dichoticlistening_da-ba.mp3	da	ba	1	right
6.6.1	win	2023-06-27	19:10:21	0	0	63e51bcabf370d509e9a93b0	1	1	DL_test	15	DL_test	16			0		ga	1	817	6	3	antiphase_hc_soi.wav	1	6	6	noise_calib_stim_RIGHT.wav	2	21	blb_dichoticlistening_ka-ga.mp3	ka	ga	1	right
6.6.1	win	2023-06-27	19:10:21	0	0	63e51bcabf370d509e9a93b0	1	1	DL_test	15	DL_test	17			0		ta	1	1330	6	3	antiphase_hc_soi.wav	1	6	6	noise_calib_stim_RIGHT.wav	2	31	blb_dichoticlistening_ta-ba.mp3	ta	ba	1	left
6.6.1	win	2023-06-27	19:10:21	0	0	63e51bcabf370d509e9a93b0	1	1	DL_test	15	DL_test	18			0		ga	1	782	6	3	antiphase_hc_soi.wav	1	6	6	noise_calib_stim_RIGHT.wav	2	27	blb_dichoticlistening_pa-ga.mp3	pa	ga	1	right
6.6.1	win	2023-06-27	19:10:21	0	0	63e51bcabf370d509e9a93b0	1	1	DL_test	15	DL_test	19			0		ga	1	1423	6	3	antiphase_hc_soi.wav	1	6	6	noise_calib_stim_RIGHT.wav	2	33	blb_dichoticlistening_ta-ga.mp3	ta	ga	1	right
6.6.1	win	2023-06-27	19:10:21	0	0	63e51bcabf370d509e9a93b0	1	1	DL_test	15	DL_test	20			0		ga	0	1102	6	3	antiphase_hc_soi.wav	1	6	6	noise_calib_stim_RIGHT.wav	2	11	blb_dichoticlistening_da-pa.mp3	da	pa	1	other
6.6.1	win	2023-06-27	19:10:21	0	0	63e51bcabf370d509e9a93b0	1	1	DL_test	15	DL_test	21			0		pa	0	1812	6	3	antiphase_hc_soi.wav	1	6	6	noise_calib_stim_RIGHT.wav	2	13	blb_dichoticlistening_ga-ba.mp3	ga	ba	1	other
6.6.1	win	2023-06-27	19:10:21	0	0	63e51bcabf370d509e9a93b0	1	1	DL_test	15	DL_test	22			0		ga	0	881	6	3	antiphase_hc_soi.wav	1	6	6	noise_calib_stim_RIGHT.wav	2	26	blb_dichoticlistening_pa-da.mp3	pa	da	1	other
6.6.1	win	2023-06-27	19:10:21	0	0	63e51bcabf370d509e9a93b0	1	1	DL_test	15	DL_test	23			0		ga	0	576	6	3	antiphase_hc_soi.wav	1	6	6	noise_calib_stim_RIGHT.wav	2	10	blb_dichoticlistening_da-ka.mp3	da	ka	1	other
6.6.1	win	2023-06-27	19:10:21	0	0	63e51bcabf370d509e9a93b0	1	1	DL_test	15	DL_test	24			0		ba	1	1707	6	3	antiphase_hc_soi.wav	1	6	6	noise_calib_stim_RIGHT.wav	2	25	blb_dichoticlistening_pa-ba.mp3	pa	ba	1	right
6.6.1	win	2023-06-27	19:10:21	0	0	63e51bcabf370d509e9a93b0	1	1	DL_test	15	DL_test	25			0		ka	1	990	6	3	antiphase_hc_soi.wav	1	6	6	noise_calib_stim_RIGHT.wav	2	22	blb_dichoticlistening_ka-ka.mp3	ka	ka	0	left
6.6.1	win	2023-06-27	19:10:21	0	0	63e51bcabf370d509e9a93b0	1	1	DL_test	15	DL_test	26			0		da	1	678	6	3	antiphase_hc_soi.wav	1	6	6	noise_calib_stim_RIGHT.wav	2	8	blb_dichoticlistening_da-da.mp3	da	da	0	left
6.6.1	win	2023-06-27	19:10:21	0	0	63e51bcabf370d509e9a93b0	1	1	DL_test	15	DL_test	27			0		ta	1	1050	6	3	antiphase_hc_soi.wav	1	6	6	noise_calib_stim_RIGHT.wav	2	30	blb_dichoticlistening_pa-ta.mp3	pa	ta	1	right
6.6.1	win	2023-06-27	19:10:21	0	0	63e51bcabf370d509e9a93b0	1	1	DL_test	15	DL_test	28			0		ga	0	871	6	3	antiphase_hc_soi.wav	1	6	6	noise_calib_stim_RIGHT.wav	2	20	blb_dichoticlistening_ka-da.mp3	ka	da	1	other
6.6.1	win	2023-06-27	19:10:21	0	0	63e51bcabf370d509e9a93b0	1	1	DL_test	15	DL_test	29			0		da	1	1287	6	3	antiphase_hc_soi.wav	1	6	6	noise_calib_stim_RIGHT.wav	2	32	blb_dichoticlistening_ta-da.mp3	ta	da	1	right
6.6.1	win	2023-06-27	19:10:21	0	0	63e51bcabf370d509e9a93b0	1	1	DL_test	15	DL_test	30			0		ta	1	2359	6	3	antiphase_hc_soi.wav	1	6	6	noise_calib_stim_RIGHT.wav	2	35	blb_dichoticlistening_ta-pa.mp3	ta	pa	1	left
6.6.1	win	2023-06-27	19:10:21	0	0	63e51bcabf370d509e9a93b0	1	1	DL_test	15	DL_test	31			0		ga	1	775	6	3	antiphase_hc_soi.wav	1	6	6	noise_calib_stim_RIGHT.wav	2	17	blb_dichoticlistening_ga-pa.mp3	ga	pa	1	left
6.6.1	win	2023-06-27	19:10:21	0	0	63e51bcabf370d509e9a93b0	1	1	DL_test	15	DL_test	32			0		ga	1	982	6	3	antiphase_hc_soi.wav	1	6	6	noise_calib_stim_RIGHT.wav	2	16	blb_dichoticlistening_ga-ka.mp3	ga	ka	1	left
6.6.1	win	2023-06-27	19:10:21	0	0	63e51bcabf370d509e9a93b0	1	1	DL_test	15	DL_test	33			0		ba	1	1835	6	3	antiphase_hc_soi.wav	1	6	6	noise_calib_stim_RIGHT.wav	2	2	blb_dichoticlistening_ba-da.mp3	ba	da	1	left
6.6.1	win	2023-06-27	19:10:21	0	0	63e51bcabf370d509e9a93b0	1	1	DL_test	15	DL_test	34			0		ka	1	967	6	3	antiphase_hc_soi.wav	1	6	6	noise_calib_stim_RIGHT.wav	2	24	blb_dichoticlistening_ka-ta.mp3	ka	ta	1	left
6.6.1	win	2023-06-27	19:10:21	0	0	63e51bcabf370d509e9a93b0	1	1	DL_test	15	DL_test	35			0		pa	1	1048	6	3	antiphase_hc_soi.wav	1	6	6	noise_calib_stim_RIGHT.wav	2	29	blb_dichoticlistening_pa-pa.mp3	pa	pa	0	left
6.6.1	win	2023-06-27	19:10:21	0	0	63e51bcabf370d509e9a93b0	1	1	DL_test	15	DL_test	36			0		ka	0	1046	6	3	antiphase_hc_soi.wav	1	6	6	noise_calib_stim_RIGHT.wav	2	15	blb_dichoticlistening_ga-ga.mp3	ga	ga	0	other
6.6.1	win	2023-06-27	19:10:21	0	0	63e51bcabf370d509e9a93b0	1	1	DL_test	16	DL_test	1			0		da	1	830	6	3	antiphase_hc_soi.wav	1	6	6	noise_calib_stim_RIGHT.wav	2	10	blb_dichoticlistening_da-ka.mp3	da	ka	1	left
6.6.1	win	2023-06-27	19:10:21	0	0	63e51bcabf370d509e9a93b0	1	1	DL_test	16	DL_test	2			0		ka	1	744	6	3	antiphase_hc_soi.wav	1	6	6	noise_calib_stim_RIGHT.wav	2	24	blb_dichoticlistening_ka-ta.mp3	ka	ta	1	left
6.6.1	win	2023-06-27	19:10:21	0	0	63e51bcabf370d509e9a93b0	1	1	DL_test	16	DL_test	3			0		ga	1	588	6	3	antiphase_hc_soi.wav	1	6	6	noise_calib_stim_RIGHT.wav	2	16	blb_dichoticlistening_ga-ka.mp3	ga	ka	1	left
6.6.1	win	2023-06-27	19:10:21	0	0	63e51bcabf370d509e9a93b0	1	1	DL_test	16	DL_test	4			0		da	1	1035	6	3	antiphase_hc_soi.wav	1	6	6	noise_calib_stim_RIGHT.wav	2	32	blb_dichoticlistening_ta-da.mp3	ta	da	1	right
6.6.1	win	2023-06-27	19:10:21	0	0	63e51bcabf370d509e9a93b0	1	1	DL_test	16	DL_test	5			0		ka	1	956	6	3	antiphase_hc_soi.wav	1	6	6	noise_calib_stim_RIGHT.wav	2	23	blb_dichoticlistening_ka-pa.mp3	ka	pa	1	left
6.6.1	win	2023-06-27	19:10:21	0	0	63e51bcabf370d509e9a93b0	1	1	DL_test	16	DL_test	6			0		ba	1	1966	6	3	antiphase_hc_soi.wav	1	6	6	noise_calib_stim_RIGHT.wav	2	3	blb_dichoticlistening_ba-ga.mp3	ba	ga	1	left
6.6.1	win	2023-06-27	19:10:21	0	0	63e51bcabf370d509e9a93b0	1	1	DL_test	16	DL_test	7			0		ga	0	784	6	3	antiphase_hc_soi.wav	1	6	6	noise_calib_stim_RIGHT.wav	2	20	blb_dichoticlistening_ka-da.mp3	ka	da	1	other
6.6.1	win	2023-06-27	19:10:21	0	0	63e51bcabf370d509e9a93b0	1	1	DL_test	16	DL_test	8			0		ga	0	692	6	3	antiphase_hc_soi.wav	1	6	6	noise_calib_stim_RIGHT.wav	2	11	blb_dichoticlistening_da-pa.mp3	da	pa	1	other
6.6.1	win	2023-06-27	19:10:21	0	0	63e51bcabf370d509e9a93b0	1	1	DL_test	16	DL_test	9			0		da	0	1302	6	3	antiphase_hc_soi.wav	1	6	6	noise_calib_stim_RIGHT.wav	2	6	blb_dichoticlistening_ba-ta.mp3	ba	ta	1	other
6.6.1	win	2023-06-27	19:10:21	0	0	63e51bcabf370d509e9a93b0	1	1	DL_test	16	DL_test	10			0		ga	1	984	6	3	antiphase_hc_soi.wav	1	6	6	noise_calib_stim_RIGHT.wav	2	33	blb_dichoticlistening_ta-ga.mp3	ta	ga	1	right
6.6.1	win	2023-06-27	19:10:21	0	0	63e51bcabf370d509e9a93b0	1	1	DL_test	16	DL_test	11			0		ga	1	626	6	3	antiphase_hc_soi.wav	1	6	6	noise_calib_stim_RIGHT.wav	2	9	blb_dichoticlistening_da-ga.mp3	da	ga	1	right
6.6.1	win	2023-06-27	19:10:21	0	0	63e51bcabf370d509e9a93b0	1	1	DL_test	16	DL_test	12			0		da	1	888	6	3	antiphase_hc_soi.wav	1	6	6	noise_calib_stim_RIGHT.wav	2	8	blb_dichoticlistening_da-da.mp3	da	da	0	left
6.6.1	win	2023-06-27	19:10:21	0	0	63e51bcabf370d509e9a93b0	1	1	DL_test	16	DL_test	13			0		ta	1	997	6	3	antiphase_hc_soi.wav	1	6	6	noise_calib_stim_RIGHT.wav	2	30	blb_dichoticlistening_pa-ta.mp3	pa	ta	1	right
6.6.1	win	2023-06-27	19:10:21	0	0	63e51bcabf370d509e9a93b0	1	1	DL_test	16	DL_test	14			0		ba	1	914	6	3	antiphase_hc_soi.wav	1	6	6	noise_calib_stim_RIGHT.wav	2	2	blb_dichoticlistening_ba-da.mp3	ba	da	1	left
6.6.1	win	2023-06-27	19:10:21	0	0	63e51bcabf370d509e9a93b0	1	1	DL_test	16	DL_test	15			0		ba	1	924	6	3	antiphase_hc_soi.wav	1	6	6	noise_calib_stim_RIGHT.wav	2	7	blb_dichoticlistening_da-ba.mp3	da	ba	1	right
6.6.1	win	2023-06-27	19:10:21	0	0	63e51bcabf370d509e9a93b0	1	1	DL_test	16	DL_test	16			0		ga	1	829	6	3	antiphase_hc_soi.wav	1	6	6	noise_calib_stim_RIGHT.wav	2	15	blb_dichoticlistening_ga-ga.mp3	ga	ga	0	left
6.6.1	win	2023-06-27	19:10:21	0	0	63e51bcabf370d509e9a93b0	1	1	DL_test	16	DL_test	17			0		da	0	742	6	3	antiphase_hc_soi.wav	1	6	6	noise_calib_stim_RIGHT.wav	2	18	blb_dichoticlistening_ga-ta.mp3	ga	ta	1	other
6.6.1	win	2023-06-27	19:10:21	0	0	63e51bcabf370d509e9a93b0	1	1	DL_test	16	DL_test	18			0		pa	1	869	6	3	antiphase_hc_soi.wav	1	6	6	noise_calib_stim_RIGHT.wav	2	29	blb_dichoticlistening_pa-pa.mp3	pa	pa	0	left
6.6.1	win	2023-06-27	19:10:21	0	0	63e51bcabf370d509e9a93b0	1	1	DL_test	16	DL_test	19			0		ba	1	1604	6	3	antiphase_hc_soi.wav	1	6	6	noise_calib_stim_RIGHT.wav	2	1	blb_dichoticlistening_ba-ba.mp3	ba	ba	0	left
6.6.1	win	2023-06-27	19:10:21	0	0	63e51bcabf370d509e9a93b0	1	1	DL_test	16	DL_test	20			0		ga	0	808	6	3	antiphase_hc_soi.wav	1	6	6	noise_calib_stim_RIGHT.wav	2	12	blb_dichoticlistening_da-ta.mp3	da	ta	1	other
6.6.1	win	2023-06-27	19:10:21	0	0	63e51bcabf370d509e9a93b0	1	1	DL_test	16	DL_test	21			0		ta	1	1292	6	3	antiphase_hc_soi.wav	1	6	6	noise_calib_stim_RIGHT.wav	2	36	blb_dichoticlistening_ta-ta.mp3	ta	ta	0	left
6.6.1	win	2023-06-27	19:10:21	0	0	63e51bcabf370d509e9a93b0	1	1	DL_test	16	DL_test	22			0		ba	1	1039	6	3	antiphase_hc_soi.wav	1	6	6	noise_calib_stim_RIGHT.wav	2	31	blb_dichoticlistening_ta-ba.mp3	ta	ba	1	right
6.6.1	win	2023-06-27	19:10:21	0	0	63e51bcabf370d509e9a93b0	1	1	DL_test	16	DL_test	23			0		ga	1	855	6	3	antiphase_hc_soi.wav	1	6	6	noise_calib_stim_RIGHT.wav	2	21	blb_dichoticlistening_ka-ga.mp3	ka	ga	1	right
6.6.1	win	2023-06-27	19:10:21	0	0	63e51bcabf370d509e9a93b0	1	1	DL_test	16	DL_test	24			0		ba	1	1798	6	3	antiphase_hc_soi.wav	1	6	6	noise_calib_stim_RIGHT.wav	2	13	blb_dichoticlistening_ga-ba.mp3	ga	ba	1	right
6.6.1	win	2023-06-27	19:10:21	0	0	63e51bcabf370d509e9a93b0	1	1	DL_test	16	DL_test	25			0		pa	1	1431	6	3	antiphase_hc_soi.wav	1	6	6	noise_calib_stim_RIGHT.wav	2	25	blb_dichoticlistening_pa-ba.mp3	pa	ba	1	left
6.6.1	win	2023-06-27	19:10:21	0	0	63e51bcabf370d509e9a93b0	1	1	DL_test	16	DL_test	26			0		ka	1	1141	6	3	antiphase_hc_soi.wav	1	6	6	noise_calib_stim_RIGHT.wav	2	28	blb_dichoticlistening_pa-ka.mp3	pa	ka	1	right
6.6.1	win	2023-06-27	19:10:21	0	0	63e51bcabf370d509e9a93b0	1	1	DL_test	16	DL_test	27			0		ga	0	1319	6	3	antiphase_hc_soi.wav	1	6	6	noise_calib_stim_RIGHT.wav	2	35	blb_dichoticlistening_ta-pa.mp3	ta	pa	1	other
6.6.1	win	2023-06-27	19:10:21	0	0	63e51bcabf370d509e9a93b0	1	1	DL_test	16	DL_test	28			0		ta	0	1886	6	3	antiphase_hc_soi.wav	1	6	6	noise_calib_stim_RIGHT.wav	2	5	blb_dichoticlistening_ba-pa.mp3	ba	pa	1	other
6.6.1	win	2023-06-27	19:10:21	0	0	63e51bcabf370d509e9a93b0	1	1	DL_test	16	DL_test	29			0		ka	1	1024	6	3	antiphase_hc_soi.wav	1	6	6	noise_calib_stim_RIGHT.wav	2	34	blb_dichoticlistening_ta-ka.mp3	ta	ka	1	right
6.6.1	win	2023-06-27	19:10:21	0	0	63e51bcabf370d509e9a93b0	1	1	DL_test	16	DL_test	30			0		ga	1	990	6	3	antiphase_hc_soi.wav	1	6	6	noise_calib_stim_RIGHT.wav	2	17	blb_dichoticlistening_ga-pa.mp3	ga	pa	1	left
6.6.1	win	2023-06-27	19:10:21	0	0	63e51bcabf370d509e9a93b0	1	1	DL_test	16	DL_test	31			0		pa	0	1478	6	3	antiphase_hc_soi.wav	1	6	6	noise_calib_stim_RIGHT.wav	2	4	blb_dichoticlistening_ba-ka.mp3	ba	ka	1	other
6.6.1	win	2023-06-27	19:10:21	0	0	63e51bcabf370d509e9a93b0	1	1	DL_test	16	DL_test	32			0		ga	1	815	6	3	antiphase_hc_soi.wav	1	6	6	noise_calib_stim_RIGHT.wav	2	14	blb_dichoticlistening_ga-da.mp3	ga	da	1	left
6.6.1	win	2023-06-27	19:10:21	0	0	63e51bcabf370d509e9a93b0	1	1	DL_test	16	DL_test	33			0		ga	0	727	6	3	antiphase_hc_soi.wav	1	6	6	noise_calib_stim_RIGHT.wav	2	26	blb_dichoticlistening_pa-da.mp3	pa	da	1	other
6.6.1	win	2023-06-27	19:10:21	0	0	63e51bcabf370d509e9a93b0	1	1	DL_test	16	DL_test	34			0		ba	1	1811	6	3	antiphase_hc_soi.wav	1	6	6	noise_calib_stim_RIGHT.wav	2	19	blb_dichoticlistening_ka-ba.mp3	ka	ba	1	right
6.6.1	win	2023-06-27	19:10:21	0	0	63e51bcabf370d509e9a93b0	1	1	DL_test	16	DL_test	35			0		ga	1	1060	6	3	antiphase_hc_soi.wav	1	6	6	noise_calib_stim_RIGHT.wav	2	27	blb_dichoticlistening_pa-ga.mp3	pa	ga	1	right
6.6.1	win	2023-06-27	19:10:21	0	0	63e51bcabf370d509e9a93b0	1	1	DL_test	16	DL_test	36			0		ka	1	804	6	3	antiphase_hc_soi.wav	1	6	6	noise_calib_stim_RIGHT.wav	2	22	blb_dichoticlistening_ka-ka.mp3	ka	ka	0	left
6.6.1	win	2023-06-27	19:10:21	0	0	63e51bcabf370d509e9a93b0	1	1	practice_slash	22					0		Ctrl+'Q'			6	3	antiphase_hc_soi.wav	1	6	6	noise_calib_stim_RIGHT.wav	2	22	blb_dichoticlistening_ka-ka.mp3	ka	ka	0	left