build	computer.platform	date	time	timestamp	time_elapsed_ms	subject	group	session	blockcode	blocknum	trialcode	trialnum	stimulus_left	stimulus_right	stim_index	target_present	response	correct	latency	headphonecheck_countTestTrials	headphonecheck_index	headphonecheck_testSound	headphonecheck_correctResponse	stereocheck_countTestTrials	stereocheck_index	stereocheck_testSound	stereocheck_correctResponse	DL_index	DL_soundfile	DL_leftSound	DL_rightSound	DL_dualSound	DL_choice
6.6.1	mac	2023-07-12	16:03:40	16:06:15	151240	5bc9ed7f3d893f0001bee4b6	3	1	practice_slash	5	practice_slash	1	stimuli_distractor_diamondtriangles.svg	stimuli_distractor_diamondtriangles.svg	13	no	53	0	1119	0	0			0	0			1				0	
6.6.1	mac	2023-07-12	16:03:40	16:06:15	151240	5bc9ed7f3d893f0001bee4b6	3	1	practice_slash	5	advance_on_keypress_SLASH	2	stimuli_distractor_diamondtriangles.svg	stimuli_distractor_diamondtriangles.svg	13	no	57	0	1217	0	0			0	0			1				0	
6.6.1	mac	2023-07-12	16:03:40	16:06:18	154461	5bc9ed7f3d893f0001bee4b6	3	1	practice_slash	5	practice_slash	3	stimuli_target_squarediamonds.svg	stimuli_distractor_diamondtriangles.svg	2	yes	53	1	370	0	0			0	0			1				0	
6.6.1	mac	2023-07-12	16:03:40	16:06:18	154461	5bc9ed7f3d893f0001bee4b6	3	1	practice_slash	5	advance_on_keypress_SLASH	4	stimuli_target_squarediamonds.svg	stimuli_distractor_diamondtriangles.svg	2	yes	57	0	787	0	0			0	0			1				0	
6.6.1	mac	2023-07-12	16:03:40	16:06:21	157297	5bc9ed7f3d893f0001bee4b6	3	1	practice_slash	5	practice_slash	5	stimuli_distractor_trianglediamonds.svg	stimuli_target_squarediamonds.svg	11	yes	53	1	420	0	0			0	0			1				0	
6.6.1	mac	2023-07-12	16:03:40	16:06:21	157297	5bc9ed7f3d893f0001bee4b6	3	1	practice_slash	5	advance_on_keypress_SLASH	6	stimuli_distractor_trianglediamonds.svg	stimuli_target_squarediamonds.svg	11	yes	57	0	441	0	0			0	0			1				0	
6.6.1	mac	2023-07-12	16:03:40	16:06:24	159893	5bc9ed7f3d893f0001bee4b6	3	1	practice_slash	5	practice_slash	7	stimuli_target_diamondsquares.svg	stimuli_distractor_trianglediamonds.svg	6	yes	53	1	515	0	0			0	0			1				0	
6.6.1	mac	2023-07-12	16:03:40	16:06:24	159893	5bc9ed7f3d893f0001bee4b6	3	1	practice_slash	5	advance_on_keypress_SLASH	8	stimuli_target_diamondsquares.svg	stimuli_distractor_trianglediamonds.svg	6	yes	57	0	343	0	0			0	0			1				0	
6.6.1	mac	2023-07-12	16:03:40	16:06:26	162201	5bc9ed7f3d893f0001bee4b6	3	1	practice_slash	5	practice_slash	9	stimuli_distractor_trianglediamonds.svg	stimuli_target_diamondrectangles.svg	12	yes	53	1	337	0	0			0	0			1				0	
6.6.1	mac	2023-07-12	16:03:40	16:06:26	162201	5bc9ed7f3d893f0001bee4b6	3	1	practice_slash	5	advance_on_keypress_SLASH	10	stimuli_distractor_trianglediamonds.svg	stimuli_target_diamondrectangles.svg	12	yes	57	0	369	0	0			0	0			1				0	
6.6.1	mac	2023-07-12	16:03:40	16:06:29	164578	5bc9ed7f3d893f0001bee4b6	3	1	practice_slash	5	practice_slash	11	stimuli_distractor_diamondtriangles.svg	stimuli_distractor_trianglediamonds.svg	14	no	53	0	380	0	0			0	0			1				0	
6.6.1	mac	2023-07-12	16:03:40	16:06:29	164578	5bc9ed7f3d893f0001bee4b6	3	1	practice_slash	5	advance_on_keypress_SLASH	12	stimuli_distractor_diamondtriangles.svg	stimuli_distractor_trianglediamonds.svg	14	no	57	0	326	0	0			0	0			1				0	
6.6.1	mac	2023-07-12	16:03:40	16:06:31	167003	5bc9ed7f3d893f0001bee4b6	3	1	practice_slash	5	practice_slash	13	stimuli_distractor_diamondtriangles.svg	stimuli_target_trianglerectangles.svg	9	yes	53	1	456	0	0			0	0			1				0	
6.6.1	mac	2023-07-12	16:03:40	16:06:31	167003	5bc9ed7f3d893f0001bee4b6	3	1	practice_slash	5	advance_on_keypress_SLASH	14	stimuli_distractor_diamondtriangles.svg	stimuli_target_trianglerectangles.svg	9	yes	57	0	281	0	0			0	0			1				0	
6.6.1	mac	2023-07-12	16:03:40	16:06:34	169513	5bc9ed7f3d893f0001bee4b6	3	1	practice_slash	5	practice_slash	15	stimuli_target_rectanglediamonds.svg	stimuli_distractor_trianglediamonds.svg	4	yes	53	1	591	0	0			0	0			1				0	
6.6.1	mac	2023-07-12	16:03:40	16:06:34	169513	5bc9ed7f3d893f0001bee4b6	3	1	practice_slash	5	advance_on_keypress_SLASH	16	stimuli_target_rectanglediamonds.svg	stimuli_distractor_trianglediamonds.svg	4	yes	57	0	367	0	0			0	0			1				0	
6.6.1	mac	2023-07-12	16:03:40	16:06:36	171957	5bc9ed7f3d893f0001bee4b6	3	1	practice_slash	5	practice_slash	17	stimuli_distractor_trianglediamonds.svg	stimuli_target_rectanglediamonds.svg	10	yes	53	1	439	0	0			0	0			1				0	
6.6.1	mac	2023-07-12	16:03:40	16:06:36	171957	5bc9ed7f3d893f0001bee4b6	3	1	practice_slash	5	advance_on_keypress_SLASH	18	stimuli_distractor_trianglediamonds.svg	stimuli_target_rectanglediamonds.svg	10	yes	57	0	339	0	0			0	0			1				0	
6.6.1	mac	2023-07-12	16:03:40	16:06:38	174329	5bc9ed7f3d893f0001bee4b6	3	1	practice_slash	5	practice_slash	19	stimuli_target_diamondsquares.svg	stimuli_distractor_diamondtriangles.svg	3	yes	53	1	407	0	0			0	0			1				0	
6.6.1	mac	2023-07-12	16:03:40	16:06:38	174329	5bc9ed7f3d893f0001bee4b6	3	1	practice_slash	5	advance_on_keypress_SLASH	20	stimuli_target_diamondsquares.svg	stimuli_distractor_diamondtriangles.svg	3	yes	57	0	372	0	0			0	0			1				0	
6.6.1	mac	2023-07-12	16:03:40	16:06:42	178338	5bc9ed7f3d893f0001bee4b6	3	1	practice_slash	5	practice_slash	21	stimuli_distractor_trianglediamonds.svg	stimuli_distractor_diamondtriangles.svg	16	no	0	1	2000	0	0			0	0			1				0	
6.6.1	mac	2023-07-12	16:03:40	16:06:42	178338	5bc9ed7f3d893f0001bee4b6	3	1	practice_slash	5	advance_on_keypress_SLASH	22	stimuli_distractor_trianglediamonds.svg	stimuli_distractor_diamondtriangles.svg	16	no	57	0	1031	0	0			0	0			1				0	
6.6.1	mac	2023-07-12	16:03:40	16:06:45	181406	5bc9ed7f3d893f0001bee4b6	3	1	practice_slash	5	practice_slash	23	stimuli_distractor_diamondtriangles.svg	stimuli_target_rectangletriangles.svg	7	yes	53	1	398	0	0			0	0			1				0	
6.6.1	mac	2023-07-12	16:03:40	16:06:45	181406	5bc9ed7f3d893f0001bee4b6	3	1	practice_slash	5	advance_on_keypress_SLASH	24	stimuli_distractor_diamondtriangles.svg	stimuli_target_rectangletriangles.svg	7	yes	57	0	348	0	0			0	0			1				0	
6.6.1	mac	2023-07-12	16:03:40	16:06:48	183693	5bc9ed7f3d893f0001bee4b6	3	1	practice_slash	5	practice_slash	25	stimuli_target_squarediamonds.svg	stimuli_distractor_trianglediamonds.svg	5	yes	53	1	297	0	0			0	0			1				0	
6.6.1	mac	2023-07-12	16:03:40	16:06:48	183693	5bc9ed7f3d893f0001bee4b6	3	1	practice_slash	5	advance_on_keypress_SLASH	26	stimuli_target_squarediamonds.svg	stimuli_distractor_trianglediamonds.svg	5	yes	57	0	307	0	0			0	0			1				0	
6.6.1	mac	2023-07-12	16:03:40	16:06:50	185876	5bc9ed7f3d893f0001bee4b6	3	1	practice_slash	5	practice_slash	27	stimuli_distractor_diamondtriangles.svg	stimuli_target_diamondrectangles.svg	8	yes	53	1	245	0	0			0	0			1				0	
6.6.1	mac	2023-07-12	16:03:40	16:06:50	185876	5bc9ed7f3d893f0001bee4b6	3	1	practice_slash	5	advance_on_keypress_SLASH	28	stimuli_distractor_diamondtriangles.svg	stimuli_target_diamondrectangles.svg	8	yes	57	0	280	0	0			0	0			1				0	
6.6.1	mac	2023-07-12	16:03:40	16:06:52	188078	5bc9ed7f3d893f0001bee4b6	3	1	practice_slash	5	practice_slash	29	stimuli_distractor_trianglediamonds.svg	stimuli_distractor_trianglediamonds.svg	15	no	53	0	277	0	0			0	0			1				0	
6.6.1	mac	2023-07-12	16:03:40	16:06:52	188078	5bc9ed7f3d893f0001bee4b6	3	1	practice_slash	5	advance_on_keypress_SLASH	30	stimuli_distractor_trianglediamonds.svg	stimuli_distractor_trianglediamonds.svg	15	no	57	0	333	0	0			0	0			1				0	
6.6.1	mac	2023-07-12	16:03:40	16:06:55	190600	5bc9ed7f3d893f0001bee4b6	3	1	practice_slash	5	practice_slash	31	stimuli_target_rectanglediamonds.svg	stimuli_distractor_diamondtriangles.svg	1	yes	53	1	550	0	0			0	0			1				0	
6.6.1	mac	2023-07-12	16:03:40	16:06:55	190600	5bc9ed7f3d893f0001bee4b6	3	1	practice_slash	5	advance_on_keypress_SLASH	32	stimuli_target_rectanglediamonds.svg	stimuli_distractor_diamondtriangles.svg	1	yes	57	0	427	0	0			0	0			1				0	
6.6.1	mac	2023-07-12	16:03:40	16:07:03	199317	5bc9ed7f3d893f0001bee4b6	3	1	main_slash	7	main_slash	1	stimuli_distractor_trianglediamonds.svg	stimuli_target_trianglesquares.svg	26	yes	53	1	513	0	0			0	0			1				0	
6.6.1	mac	2023-07-12	16:03:40	16:07:03	199317	5bc9ed7f3d893f0001bee4b6	3	1	main_slash	7	advance_on_keypress_SLASH	2	stimuli_distractor_trianglediamonds.svg	stimuli_target_trianglesquares.svg	26	yes	57	0	2161	0	0			0	0			1				0	
6.6.1	mac	2023-07-12	16:03:40	16:07:06	202470	5bc9ed7f3d893f0001bee4b6	3	1	main_slash	7	main_slash	3	stimuli_target_rectangletriangles.svg	stimuli_distractor_diamondtriangles.svg	5	yes	53	1	362	0	0			0	0			1				0	
6.6.1	mac	2023-07-12	16:03:40	16:07:06	202470	5bc9ed7f3d893f0001bee4b6	3	1	main_slash	7	advance_on_keypress_SLASH	4	stimuli_target_rectangletriangles.svg	stimuli_distractor_diamondtriangles.svg	5	yes	57	0	1482	0	0			0	0			1				0	
6.6.1	mac	2023-07-12	16:03:40	16:07:09	204891	5bc9ed7f3d893f0001bee4b6	3	1	main_slash	7	main_slash	5	stimuli_distractor_diamondtriangles.svg	stimuli_target_diamondrectangles.svg	31	yes	53	1	299	0	0			0	0			1				0	
6.6.1	mac	2023-07-12	16:03:40	16:07:09	204891	5bc9ed7f3d893f0001bee4b6	3	1	main_slash	7	advance_on_keypress_SLASH	6	stimuli_distractor_diamondtriangles.svg	stimuli_target_diamondrectangles.svg	31	yes	57	0	1043	0	0			0	0			1				0	
6.6.1	mac	2023-07-12	16:03:40	16:07:11	207096	5bc9ed7f3d893f0001bee4b6	3	1	main_slash	7	main_slash	7	stimuli_target_squaretriangles.svg	stimuli_distractor_trianglediamonds.svg	3	yes	53	1	536	0	0			0	0			1				0	
6.6.1	mac	2023-07-12	16:03:40	16:07:11	207096	5bc9ed7f3d893f0001bee4b6	3	1	main_slash	7	advance_on_keypress_SLASH	8	stimuli_target_squaretriangles.svg	stimuli_distractor_trianglediamonds.svg	3	yes	57	0	851	0	0			0	0			1				0	
6.6.1	mac	2023-07-12	16:03:40	16:07:15	210595	5bc9ed7f3d893f0001bee4b6	3	1	main_slash	7	main_slash	9	stimuli_distractor_diamondtriangles.svg	stimuli_distractor_diamondtriangles.svg	40	no	0	1	2000	0	0			0	0			1				0	
6.6.1	mac	2023-07-12	16:03:40	16:07:15	210595	5bc9ed7f3d893f0001bee4b6	3	1	main_slash	7	advance_on_keypress_SLASH	10	stimuli_distractor_diamondtriangles.svg	stimuli_distractor_diamondtriangles.svg	40	no	57	0	461	0	0			0	0			1				0	
6.6.1	mac	2023-07-12	16:03:40	16:07:16	212135	5bc9ed7f3d893f0001bee4b6	3	1	main_slash	7	main_slash	11	stimuli_target_trianglerectangles.svg	stimuli_distractor_diamondtriangles.svg	21	yes	53	1	437	0	0			0	0			1				0	
6.6.1	mac	2023-07-12	16:03:40	16:07:16	212135	5bc9ed7f3d893f0001bee4b6	3	1	main_slash	7	advance_on_keypress_SLASH	12	stimuli_target_trianglerectangles.svg	stimuli_distractor_diamondtriangles.svg	21	yes	57	0	1112	0	0			0	0			1				0	
6.6.1	mac	2023-07-12	16:03:40	16:07:20	215881	5bc9ed7f3d893f0001bee4b6	3	1	main_slash	7	main_slash	13	stimuli_distractor_diamondtriangles.svg	stimuli_distractor_diamondtriangles.svg	39	no	0	1	2000	0	0			0	0			1				0	
6.6.1	mac	2023-07-12	16:03:40	16:07:20	215881	5bc9ed7f3d893f0001bee4b6	3	1	main_slash	7	advance_on_keypress_SLASH	14	stimuli_distractor_diamondtriangles.svg	stimuli_distractor_diamondtriangles.svg	39	no	57	0	919	0	0			0	0			1				0	
6.6.1	mac	2023-07-12	16:03:40	16:07:22	218001	5bc9ed7f3d893f0001bee4b6	3	1	main_slash	7	main_slash	15	stimuli_distractor_trianglediamonds.svg	stimuli_distractor_diamondtriangles.svg	36	no	53	0	566	0	0			0	0			1				0	
6.6.1	mac	2023-07-12	16:03:40	16:07:22	218001	5bc9ed7f3d893f0001bee4b6	3	1	main_slash	7	advance_on_keypress_SLASH	16	stimuli_distractor_trianglediamonds.svg	stimuli_distractor_diamondtriangles.svg	36	no	57	0	1026	0	0			0	0			1				0	
6.6.1	mac	2023-07-12	16:03:40	16:07:24	220249	5bc9ed7f3d893f0001bee4b6	3	1	main_slash	7	main_slash	17	stimuli_target_rectanglediamonds.svg	stimuli_distractor_diamondtriangles.svg	6	yes	53	1	582	0	0			0	0			1				0	
6.6.1	mac	2023-07-12	16:03:40	16:07:24	220249	5bc9ed7f3d893f0001bee4b6	3	1	main_slash	7	advance_on_keypress_SLASH	18	stimuli_target_rectanglediamonds.svg	stimuli_distractor_diamondtriangles.svg	6	yes	57	0	930	0	0			0	0			1				0	
6.6.1	mac	2023-07-12	16:03:40	16:07:27	222558	5bc9ed7f3d893f0001bee4b6	3	1	main_slash	7	main_slash	19	stimuli_target_trianglesquares.svg	stimuli_distractor_diamondtriangles.svg	22	yes	53	1	737	0	0			0	0			1				0	
6.6.1	mac	2023-07-12	16:03:40	16:07:27	222558	5bc9ed7f3d893f0001bee4b6	3	1	main_slash	7	advance_on_keypress_SLASH	20	stimuli_target_trianglesquares.svg	stimuli_distractor_diamondtriangles.svg	22	yes	57	0	629	0	0			0	0			1				0	
6.6.1	mac	2023-07-12	16:03:40	16:07:28	224319	5bc9ed7f3d893f0001bee4b6	3	1	main_slash	7	main_slash	21	stimuli_target_squarediamonds.svg	stimuli_distractor_diamondtriangles.svg	8	yes	53	1	497	0	0			0	0			1				0	
6.6.1	mac	2023-07-12	16:03:40	16:07:28	224319	5bc9ed7f3d893f0001bee4b6	3	1	main_slash	7	advance_on_keypress_SLASH	22	stimuli_target_squarediamonds.svg	stimuli_distractor_diamondtriangles.svg	8	yes	57	0	861	0	0			0	0			1				0	
6.6.1	mac	2023-07-12	16:03:40	16:07:30	226241	5bc9ed7f3d893f0001bee4b6	3	1	main_slash	7	main_slash	23	stimuli_target_trianglerectangles.svg	stimuli_distractor_trianglediamonds.svg	17	yes	53	1	422	0	0			0	0			1				0	
6.6.1	mac	2023-07-12	16:03:40	16:07:30	226241	5bc9ed7f3d893f0001bee4b6	3	1	main_slash	7	advance_on_keypress_SLASH	24	stimuli_target_trianglerectangles.svg	stimuli_distractor_trianglediamonds.svg	17	yes	57	0	897	0	0			0	0			1				0	
6.6.1	mac	2023-07-12	16:03:40	16:07:32	228174	5bc9ed7f3d893f0001bee4b6	3	1	main_slash	7	main_slash	25	stimuli_target_diamondsquares.svg	stimuli_distractor_trianglediamonds.svg	20	yes	53	1	398	0	0			0	0			1				0	
6.6.1	mac	2023-07-12	16:03:40	16:07:32	228174	5bc9ed7f3d893f0001bee4b6	3	1	main_slash	7	advance_on_keypress_SLASH	26	stimuli_target_diamondsquares.svg	stimuli_distractor_trianglediamonds.svg	20	yes	57	0	827	0	0			0	0			1				0	
6.6.1	mac	2023-07-12	16:03:40	16:07:36	231641	5bc9ed7f3d893f0001bee4b6	3	1	main_slash	7	main_slash	27	stimuli_distractor_diamondtriangles.svg	stimuli_distractor_trianglediamonds.svg	38	no	0	1	2000	0	0			0	0			1				0	
6.6.1	mac	2023-07-12	16:03:40	16:07:36	231641	5bc9ed7f3d893f0001bee4b6	3	1	main_slash	7	advance_on_keypress_SLASH	28	stimuli_distractor_diamondtriangles.svg	stimuli_distractor_trianglediamonds.svg	38	no	57	0	339	0	0			0	0			1				0	
6.6.1	mac	2023-07-12	16:03:40	16:07:37	233097	5bc9ed7f3d893f0001bee4b6	3	1	main_slash	7	main_slash	29	stimuli_distractor_trianglediamonds.svg	stimuli_target_diamondsquares.svg	28	yes	53	1	483	0	0			0	0			1				0	
6.6.1	mac	2023-07-12	16:03:40	16:07:37	233097	5bc9ed7f3d893f0001bee4b6	3	1	main_slash	7	advance_on_keypress_SLASH	30	stimuli_distractor_trianglediamonds.svg	stimuli_target_diamondsquares.svg	28	yes	57	0	1058	0	0			0	0			1				0	
6.6.1	mac	2023-07-12	16:03:40	16:07:39	235286	5bc9ed7f3d893f0001bee4b6	3	1	main_slash	7	main_slash	31	stimuli_distractor_trianglediamonds.svg	stimuli_distractor_diamondtriangles.svg	35	no	53	0	507	0	0			0	0			1				0	
6.6.1	mac	2023-07-12	16:03:40	16:07:39	235286	5bc9ed7f3d893f0001bee4b6	3	1	main_slash	7	advance_on_keypress_SLASH	32	stimuli_distractor_trianglediamonds.svg	stimuli_distractor_diamondtriangles.svg	35	no	57	0	1017	0	0			0	0			1				0	
6.6.1	mac	2023-07-12	16:03:40	16:07:41	237431	5bc9ed7f3d893f0001bee4b6	3	1	main_slash	7	main_slash	33	stimuli_distractor_trianglediamonds.svg	stimuli_target_rectanglediamonds.svg	10	yes	53	1	497	0	0			0	0			1				0	
6.6.1	mac	2023-07-12	16:03:40	16:07:41	237431	5bc9ed7f3d893f0001bee4b6	3	1	main_slash	7	advance_on_keypress_SLASH	34	stimuli_distractor_trianglediamonds.svg	stimuli_target_rectanglediamonds.svg	10	yes	57	0	822	0	0			0	0			1				0	
6.6.1	mac	2023-07-12	16:03:40	16:07:43	239333	5bc9ed7f3d893f0001bee4b6	3	1	main_slash	7	main_slash	35	stimuli_distractor_diamondtriangles.svg	stimuli_target_squarediamonds.svg	16	yes	53	1	451	0	0			0	0			1				0	
6.6.1	mac	2023-07-12	16:03:40	16:07:43	239333	5bc9ed7f3d893f0001bee4b6	3	1	main_slash	7	advance_on_keypress_SLASH	36	stimuli_distractor_diamondtriangles.svg	stimuli_target_squarediamonds.svg	16	yes	57	0	1518	0	0			0	0			1				0	
6.6.1	mac	2023-07-12	16:03:40	16:07:46	241839	5bc9ed7f3d893f0001bee4b6	3	1	main_slash	7	main_slash	37	stimuli_distractor_diamondtriangles.svg	stimuli_target_rectanglediamonds.svg	14	yes	53	1	353	0	0			0	0			1				0	
6.6.1	mac	2023-07-12	16:03:40	16:07:46	241839	5bc9ed7f3d893f0001bee4b6	3	1	main_slash	7	advance_on_keypress_SLASH	38	stimuli_distractor_diamondtriangles.svg	stimuli_target_rectanglediamonds.svg	14	yes	57	0	869	0	0			0	0			1				0	
6.6.1	mac	2023-07-12	16:03:40	16:07:49	245335	5bc9ed7f3d893f0001bee4b6	3	1	main_slash	7	main_slash	39	stimuli_distractor_trianglediamonds.svg	stimuli_distractor_trianglediamonds.svg	34	no	0	1	2000	0	0			0	0			1				0	
6.6.1	mac	2023-07-12	16:03:40	16:07:49	245335	5bc9ed7f3d893f0001bee4b6	3	1	main_slash	7	advance_on_keypress_SLASH	40	stimuli_distractor_trianglediamonds.svg	stimuli_distractor_trianglediamonds.svg	34	no	57	0	1958	0	0			0	0			1				0	
6.6.1	mac	2023-07-12	16:03:40	16:07:52	248390	5bc9ed7f3d893f0001bee4b6	3	1	main_slash	7	main_slash	41	stimuli_target_trianglesquares.svg	stimuli_distractor_trianglediamonds.svg	18	yes	53	1	466	0	0			0	0			1				0	
6.6.1	mac	2023-07-12	16:03:40	16:07:52	248390	5bc9ed7f3d893f0001bee4b6	3	1	main_slash	7	advance_on_keypress_SLASH	42	stimuli_target_trianglesquares.svg	stimuli_distractor_trianglediamonds.svg	18	yes	57	0	1124	0	0			0	0			1				0	
6.6.1	mac	2023-07-12	16:03:40	16:07:55	250542	5bc9ed7f3d893f0001bee4b6	3	1	main_slash	7	main_slash	43	stimuli_distractor_diamondtriangles.svg	stimuli_target_diamondsquares.svg	32	yes	53	1	404	0	0			0	0			1				0	
6.6.1	mac	2023-07-12	16:03:40	16:07:55	250542	5bc9ed7f3d893f0001bee4b6	3	1	main_slash	7	advance_on_keypress_SLASH	44	stimuli_distractor_diamondtriangles.svg	stimuli_target_diamondsquares.svg	32	yes	57	0	1092	0	0			0	0			1				0	
6.6.1	mac	2023-07-12	16:03:40	16:07:57	252753	5bc9ed7f3d893f0001bee4b6	3	1	main_slash	7	main_slash	45	stimuli_distractor_diamondtriangles.svg	stimuli_target_rectangletriangles.svg	13	yes	53	1	492	0	0			0	0			1				0	
6.6.1	mac	2023-07-12	16:03:40	16:07:57	252753	5bc9ed7f3d893f0001bee4b6	3	1	main_slash	7	advance_on_keypress_SLASH	46	stimuli_distractor_diamondtriangles.svg	stimuli_target_rectangletriangles.svg	13	yes	57	0	986	0	0			0	0			1				0	
6.6.1	mac	2023-07-12	16:03:40	16:07:59	254786	5bc9ed7f3d893f0001bee4b6	3	1	main_slash	7	main_slash	47	stimuli_distractor_trianglediamonds.svg	stimuli_target_rectangletriangles.svg	9	yes	53	1	410	0	0			0	0			1				0	
6.6.1	mac	2023-07-12	16:03:40	16:07:59	254786	5bc9ed7f3d893f0001bee4b6	3	1	main_slash	7	advance_on_keypress_SLASH	48	stimuli_distractor_trianglediamonds.svg	stimuli_target_rectangletriangles.svg	9	yes	57	0	1118	0	0			0	0			1				0	
6.6.1	mac	2023-07-12	16:03:40	16:08:01	256971	5bc9ed7f3d893f0001bee4b6	3	1	main_slash	7	main_slash	49	stimuli_target_diamondrectangles.svg	stimuli_distractor_diamondtriangles.svg	23	yes	53	1	424	0	0			0	0			1				0	
6.6.1	mac	2023-07-12	16:03:40	16:08:01	256971	5bc9ed7f3d893f0001bee4b6	3	1	main_slash	7	advance_on_keypress_SLASH	50	stimuli_target_diamondrectangles.svg	stimuli_distractor_diamondtriangles.svg	23	yes	57	0	878	0	0			0	0			1				0	
6.6.1	mac	2023-07-12	16:03:40	16:08:03	258858	5bc9ed7f3d893f0001bee4b6	3	1	main_slash	7	main_slash	51	stimuli_distractor_diamondtriangles.svg	stimuli_target_squaretriangles.svg	15	yes	53	1	376	0	0			0	0			1				0	
6.6.1	mac	2023-07-12	16:03:40	16:08:03	258858	5bc9ed7f3d893f0001bee4b6	3	1	main_slash	7	advance_on_keypress_SLASH	52	stimuli_distractor_diamondtriangles.svg	stimuli_target_squaretriangles.svg	15	yes	57	0	1577	0	0			0	0			1				0	
6.6.1	mac	2023-07-12	16:03:40	16:08:06	261479	5bc9ed7f3d893f0001bee4b6	3	1	main_slash	7	main_slash	53	stimuli_distractor_trianglediamonds.svg	stimuli_target_squaretriangles.svg	11	yes	53	1	412	0	0			0	0			1				0	
6.6.1	mac	2023-07-12	16:03:40	16:08:06	261479	5bc9ed7f3d893f0001bee4b6	3	1	main_slash	7	advance_on_keypress_SLASH	54	stimuli_distractor_trianglediamonds.svg	stimuli_target_squaretriangles.svg	11	yes	57	0	1516	0	0			0	0			1				0	
6.6.1	mac	2023-07-12	16:03:40	16:08:08	264083	5bc9ed7f3d893f0001bee4b6	3	1	main_slash	7	main_slash	55	stimuli_distractor_trianglediamonds.svg	stimuli_target_diamondrectangles.svg	27	yes	53	1	450	0	0			0	0			1				0	
6.6.1	mac	2023-07-12	16:03:40	16:08:08	264083	5bc9ed7f3d893f0001bee4b6	3	1	main_slash	7	advance_on_keypress_SLASH	56	stimuli_distractor_trianglediamonds.svg	stimuli_target_diamondrectangles.svg	27	yes	57	0	964	0	0			0	0			1				0	
6.6.1	mac	2023-07-12	16:03:40	16:08:11	266558	5bc9ed7f3d893f0001bee4b6	3	1	main_slash	7	main_slash	57	stimuli_distractor_trianglediamonds.svg	stimuli_target_squarediamonds.svg	12	yes	53	1	872	0	0			0	0			1				0	
6.6.1	mac	2023-07-12	16:03:40	16:08:11	266558	5bc9ed7f3d893f0001bee4b6	3	1	main_slash	7	advance_on_keypress_SLASH	58	stimuli_distractor_trianglediamonds.svg	stimuli_target_squarediamonds.svg	12	yes	57	0	776	0	0			0	0			1				0	
6.6.1	mac	2023-07-12	16:03:40	16:08:13	268578	5bc9ed7f3d893f0001bee4b6	3	1	main_slash	7	main_slash	59	stimuli_distractor_diamondtriangles.svg	stimuli_target_trianglerectangles.svg	29	yes	53	1	605	0	0			0	0			1				0	
6.6.1	mac	2023-07-12	16:03:40	16:08:13	268578	5bc9ed7f3d893f0001bee4b6	3	1	main_slash	7	advance_on_keypress_SLASH	60	stimuli_distractor_diamondtriangles.svg	stimuli_target_trianglerectangles.svg	29	yes	57	0	1090	0	0			0	0			1				0	
6.6.1	mac	2023-07-12	16:03:40	16:08:15	270714	5bc9ed7f3d893f0001bee4b6	3	1	main_slash	7	main_slash	61	stimuli_target_diamondsquares.svg	stimuli_distractor_diamondtriangles.svg	24	yes	53	1	429	0	0			0	0			1				0	
6.6.1	mac	2023-07-12	16:03:40	16:08:15	270714	5bc9ed7f3d893f0001bee4b6	3	1	main_slash	7	advance_on_keypress_SLASH	62	stimuli_target_diamondsquares.svg	stimuli_distractor_diamondtriangles.svg	24	yes	57	0	1219	0	0			0	0			1				0	
6.6.1	mac	2023-07-12	16:03:40	16:08:17	273191	5bc9ed7f3d893f0001bee4b6	3	1	main_slash	7	main_slash	63	stimuli_distractor_trianglediamonds.svg	stimuli_target_trianglerectangles.svg	25	yes	53	1	614	0	0			0	0			1				0	
6.6.1	mac	2023-07-12	16:03:40	16:08:17	273191	5bc9ed7f3d893f0001bee4b6	3	1	main_slash	7	advance_on_keypress_SLASH	64	stimuli_distractor_trianglediamonds.svg	stimuli_target_trianglerectangles.svg	25	yes	57	0	760	0	0			0	0			1				0	
6.6.1	mac	2023-07-12	16:03:40	16:08:21	276591	5bc9ed7f3d893f0001bee4b6	3	1	main_slash	7	main_slash	65	stimuli_distractor_trianglediamonds.svg	stimuli_distractor_trianglediamonds.svg	33	no	0	1	2000	0	0			0	0			1				0	
6.6.1	mac	2023-07-12	16:03:40	16:08:21	276591	5bc9ed7f3d893f0001bee4b6	3	1	main_slash	7	advance_on_keypress_SLASH	66	stimuli_distractor_trianglediamonds.svg	stimuli_distractor_trianglediamonds.svg	33	no	57	0	1582	0	0			0	0			1				0	
6.6.1	mac	2023-07-12	16:03:40	16:08:25	280812	5bc9ed7f3d893f0001bee4b6	3	1	main_slash	7	main_slash	67	stimuli_distractor_diamondtriangles.svg	stimuli_distractor_trianglediamonds.svg	37	no	0	1	2000	0	0			0	0			1				0	
6.6.1	mac	2023-07-12	16:03:40	16:08:25	280812	5bc9ed7f3d893f0001bee4b6	3	1	main_slash	7	advance_on_keypress_SLASH	68	stimuli_distractor_diamondtriangles.svg	stimuli_distractor_trianglediamonds.svg	37	no	57	0	629	0	0			0	0			1				0	
6.6.1	mac	2023-07-12	16:03:40	16:08:27	282534	5bc9ed7f3d893f0001bee4b6	3	1	main_slash	7	main_slash	69	stimuli_distractor_diamondtriangles.svg	stimuli_target_trianglesquares.svg	30	yes	53	1	453	0	0			0	0			1				0	
6.6.1	mac	2023-07-12	16:03:40	16:08:27	282534	5bc9ed7f3d893f0001bee4b6	3	1	main_slash	7	advance_on_keypress_SLASH	70	stimuli_distractor_diamondtriangles.svg	stimuli_target_trianglesquares.svg	30	yes	57	0	1059	0	0			0	0			1				0	
6.6.1	mac	2023-07-12	16:03:40	16:08:29	284605	5bc9ed7f3d893f0001bee4b6	3	1	main_slash	7	main_slash	71	stimuli_target_rectanglediamonds.svg	stimuli_distractor_trianglediamonds.svg	2	yes	53	1	372	0	0			0	0			1				0	
6.6.1	mac	2023-07-12	16:03:40	16:08:29	284605	5bc9ed7f3d893f0001bee4b6	3	1	main_slash	7	advance_on_keypress_SLASH	72	stimuli_target_rectanglediamonds.svg	stimuli_distractor_trianglediamonds.svg	2	yes	57	0	907	0	0			0	0			1				0	
6.6.1	mac	2023-07-12	16:03:40	16:08:31	286691	5bc9ed7f3d893f0001bee4b6	3	1	main_slash	7	main_slash	73	stimuli_target_diamondrectangles.svg	stimuli_distractor_trianglediamonds.svg	19	yes	53	1	555	0	0			0	0			1				0	
6.6.1	mac	2023-07-12	16:03:40	16:08:31	286691	5bc9ed7f3d893f0001bee4b6	3	1	main_slash	7	advance_on_keypress_SLASH	74	stimuli_target_diamondrectangles.svg	stimuli_distractor_trianglediamonds.svg	19	yes	57	0	730	0	0			0	0			1				0	
6.6.1	mac	2023-07-12	16:03:40	16:08:32	288437	5bc9ed7f3d893f0001bee4b6	3	1	main_slash	7	main_slash	75	stimuli_target_rectangletriangles.svg	stimuli_distractor_trianglediamonds.svg	1	yes	53	1	383	0	0			0	0			1				0	
6.6.1	mac	2023-07-12	16:03:40	16:08:32	288437	5bc9ed7f3d893f0001bee4b6	3	1	main_slash	7	advance_on_keypress_SLASH	76	stimuli_target_rectangletriangles.svg	stimuli_distractor_trianglediamonds.svg	1	yes	57	0	1238	0	0			0	0			1				0	
6.6.1	mac	2023-07-12	16:03:40	16:08:35	290688	5bc9ed7f3d893f0001bee4b6	3	1	main_slash	7	main_slash	77	stimuli_target_squarediamonds.svg	stimuli_distractor_trianglediamonds.svg	4	yes	53	1	388	0	0			0	0			1				0	
6.6.1	mac	2023-07-12	16:03:40	16:08:35	290688	5bc9ed7f3d893f0001bee4b6	3	1	main_slash	7	advance_on_keypress_SLASH	78	stimuli_target_squarediamonds.svg	stimuli_distractor_trianglediamonds.svg	4	yes	57	0	785	0	0			0	0			1				0	
6.6.1	mac	2023-07-12	16:03:40	16:08:36	292450	5bc9ed7f3d893f0001bee4b6	3	1	main_slash	7	main_slash	79	stimuli_target_squaretriangles.svg	stimuli_distractor_diamondtriangles.svg	7	yes	53	1	342	0	0			0	0			1				0	
6.6.1	mac	2023-07-12	16:03:40	16:08:36	292450	5bc9ed7f3d893f0001bee4b6	3	1	main_slash	7	advance_on_keypress_SLASH	80	stimuli_target_squaretriangles.svg	stimuli_distractor_diamondtriangles.svg	7	yes	57	0	1107	0	0			0	0			1				0	
6.6.1	mac	2023-07-12	16:03:40	16:08:40	296191	5bc9ed7f3d893f0001bee4b6	3	1	main_slash	7	main_slash	81	stimuli_distractor_trianglediamonds.svg	stimuli_distractor_trianglediamonds.svg	34	no	0	1	2000	0	0			0	0			1				0	
6.6.1	mac	2023-07-12	16:03:40	16:08:40	296191	5bc9ed7f3d893f0001bee4b6	3	1	main_slash	7	advance_on_keypress_SLASH	82	stimuli_distractor_trianglediamonds.svg	stimuli_distractor_trianglediamonds.svg	34	no	57	0	970	0	0			0	0			1				0	
6.6.1	mac	2023-07-12	16:03:40	16:08:42	298460	5bc9ed7f3d893f0001bee4b6	3	1	main_slash	7	main_slash	83	stimuli_target_rectangletriangles.svg	stimuli_distractor_trianglediamonds.svg	1	yes	53	1	666	0	0			0	0			1				0	
6.6.1	mac	2023-07-12	16:03:40	16:08:42	298460	5bc9ed7f3d893f0001bee4b6	3	1	main_slash	7	advance_on_keypress_SLASH	84	stimuli_target_rectangletriangles.svg	stimuli_distractor_trianglediamonds.svg	1	yes	57	0	812	0	0			0	0			1				0	
6.6.1	mac	2023-07-12	16:03:40	16:08:46	301911	5bc9ed7f3d893f0001bee4b6	3	1	main_slash	7	main_slash	85	stimuli_distractor_diamondtriangles.svg	stimuli_distractor_diamondtriangles.svg	40	no	0	1	2000	0	0			0	0			1				0	
6.6.1	mac	2023-07-12	16:03:40	16:08:46	301911	5bc9ed7f3d893f0001bee4b6	3	1	main_slash	7	advance_on_keypress_SLASH	86	stimuli_distractor_diamondtriangles.svg	stimuli_distractor_diamondtriangles.svg	40	no	57	0	679	0	0			0	0			1				0	
6.6.1	mac	2023-07-12	16:03:40	16:08:48	303636	5bc9ed7f3d893f0001bee4b6	3	1	main_slash	7	main_slash	87	stimuli_target_squaretriangles.svg	stimuli_distractor_trianglediamonds.svg	3	yes	53	1	408	0	0			0	0			1				0	
6.6.1	mac	2023-07-12	16:03:40	16:08:48	303636	5bc9ed7f3d893f0001bee4b6	3	1	main_slash	7	advance_on_keypress_SLASH	88	stimuli_target_squaretriangles.svg	stimuli_distractor_trianglediamonds.svg	3	yes	57	0	1364	0	0			0	0			1				0	
6.6.1	mac	2023-07-12	16:03:40	16:08:50	306048	5bc9ed7f3d893f0001bee4b6	3	1	main_slash	7	main_slash	89	stimuli_distractor_trianglediamonds.svg	stimuli_target_trianglerectangles.svg	25	yes	53	1	421	0	0			0	0			1				0	
6.6.1	mac	2023-07-12	16:03:40	16:08:50	306048	5bc9ed7f3d893f0001bee4b6	3	1	main_slash	7	advance_on_keypress_SLASH	90	stimuli_distractor_trianglediamonds.svg	stimuli_target_trianglerectangles.svg	25	yes	57	0	1093	0	0			0	0			1				0	
6.6.1	mac	2023-07-12	16:03:40	16:08:52	308175	5bc9ed7f3d893f0001bee4b6	3	1	main_slash	7	main_slash	91	stimuli_distractor_diamondtriangles.svg	stimuli_target_rectangletriangles.svg	13	yes	53	1	395	0	0			0	0			1				0	
6.6.1	mac	2023-07-12	16:03:40	16:08:52	308175	5bc9ed7f3d893f0001bee4b6	3	1	main_slash	7	advance_on_keypress_SLASH	92	stimuli_distractor_diamondtriangles.svg	stimuli_target_rectangletriangles.svg	13	yes	57	0	1197	0	0			0	0			1				0	
6.6.1	mac	2023-07-12	16:03:40	16:08:54	310402	5bc9ed7f3d893f0001bee4b6	3	1	main_slash	7	main_slash	93	stimuli_target_squarediamonds.svg	stimuli_distractor_trianglediamonds.svg	4	yes	53	1	389	0	0			0	0			1				0	
6.6.1	mac	2023-07-12	16:03:40	16:08:54	310402	5bc9ed7f3d893f0001bee4b6	3	1	main_slash	7	advance_on_keypress_SLASH	94	stimuli_target_squarediamonds.svg	stimuli_distractor_trianglediamonds.svg	4	yes	57	0	1460	0	0			0	0			1				0	
6.6.1	mac	2023-07-12	16:03:40	16:08:57	312883	5bc9ed7f3d893f0001bee4b6	3	1	main_slash	7	main_slash	95	stimuli_distractor_trianglediamonds.svg	stimuli_target_rectanglediamonds.svg	10	yes	53	1	378	0	0			0	0			1				0	
6.6.1	mac	2023-07-12	16:03:40	16:08:57	312883	5bc9ed7f3d893f0001bee4b6	3	1	main_slash	7	advance_on_keypress_SLASH	96	stimuli_distractor_trianglediamonds.svg	stimuli_target_rectanglediamonds.svg	10	yes	57	0	1181	0	0			0	0			1				0	
6.6.1	mac	2023-07-12	16:03:40	16:08:59	315196	5bc9ed7f3d893f0001bee4b6	3	1	main_slash	7	main_slash	97	stimuli_target_trianglesquares.svg	stimuli_distractor_trianglediamonds.svg	18	yes	53	1	490	0	0			0	0			1				0	
6.6.1	mac	2023-07-12	16:03:40	16:08:59	315196	5bc9ed7f3d893f0001bee4b6	3	1	main_slash	7	advance_on_keypress_SLASH	98	stimuli_target_trianglesquares.svg	stimuli_distractor_trianglediamonds.svg	18	yes	57	0	969	0	0			0	0			1				0	
6.6.1	mac	2023-07-12	16:03:40	16:09:01	317115	5bc9ed7f3d893f0001bee4b6	3	1	main_slash	7	main_slash	99	stimuli_distractor_trianglediamonds.svg	stimuli_target_trianglesquares.svg	26	yes	53	1	307	0	0			0	0			1				0	
6.6.1	mac	2023-07-12	16:03:40	16:09:01	317115	5bc9ed7f3d893f0001bee4b6	3	1	main_slash	7	advance_on_keypress_SLASH	100	stimuli_distractor_trianglediamonds.svg	stimuli_target_trianglesquares.svg	26	yes	57	0	1051	0	0			0	0			1				0	
6.6.1	mac	2023-07-12	16:03:40	16:09:03	319173	5bc9ed7f3d893f0001bee4b6	3	1	main_slash	7	main_slash	101	stimuli_target_squaretriangles.svg	stimuli_distractor_diamondtriangles.svg	7	yes	53	1	365	0	0			0	0			1				0	
6.6.1	mac	2023-07-12	16:03:40	16:09:03	319173	5bc9ed7f3d893f0001bee4b6	3	1	main_slash	7	advance_on_keypress_SLASH	102	stimuli_target_squaretriangles.svg	stimuli_distractor_diamondtriangles.svg	7	yes	57	0	944	0	0			0	0			1				0	
6.6.1	mac	2023-07-12	16:03:40	16:09:05	321056	5bc9ed7f3d893f0001bee4b6	3	1	main_slash	7	main_slash	103	stimuli_distractor_trianglediamonds.svg	stimuli_target_squarediamonds.svg	12	yes	53	1	298	0	0			0	0			1				0	
6.6.1	mac	2023-07-12	16:03:40	16:09:05	321056	5bc9ed7f3d893f0001bee4b6	3	1	main_slash	7	advance_on_keypress_SLASH	104	stimuli_distractor_trianglediamonds.svg	stimuli_target_squarediamonds.svg	12	yes	57	0	1083	0	0			0	0			1				0	
6.6.1	mac	2023-07-12	16:03:40	16:09:07	323151	5bc9ed7f3d893f0001bee4b6	3	1	main_slash	7	main_slash	105	stimuli_distractor_trianglediamonds.svg	stimuli_distractor_diamondtriangles.svg	35	no	53	0	373	0	0			0	0			1				0	
6.6.1	mac	2023-07-12	16:03:40	16:09:07	323151	5bc9ed7f3d893f0001bee4b6	3	1	main_slash	7	advance_on_keypress_SLASH	106	stimuli_distractor_trianglediamonds.svg	stimuli_distractor_diamondtriangles.svg	35	no	57	0	1747	0	0			0	0			1				0	
6.6.1	mac	2023-07-12	16:03:40	16:09:10	326150	5bc9ed7f3d893f0001bee4b6	3	1	main_slash	7	main_slash	107	stimuli_target_rectanglediamonds.svg	stimuli_distractor_diamondtriangles.svg	6	yes	53	1	606	0	0			0	0			1				0	
6.6.1	mac	2023-07-12	16:03:40	16:09:10	326150	5bc9ed7f3d893f0001bee4b6	3	1	main_slash	7	advance_on_keypress_SLASH	108	stimuli_target_rectanglediamonds.svg	stimuli_distractor_diamondtriangles.svg	6	yes	57	0	811	0	0			0	0			1				0	
6.6.1	mac	2023-07-12	16:03:40	16:09:12	328263	5bc9ed7f3d893f0001bee4b6	3	1	main_slash	7	main_slash	109	stimuli_target_trianglesquares.svg	stimuli_distractor_diamondtriangles.svg	22	yes	53	1	666	0	0			0	0			1				0	
6.6.1	mac	2023-07-12	16:03:40	16:09:12	328263	5bc9ed7f3d893f0001bee4b6	3	1	main_slash	7	advance_on_keypress_SLASH	110	stimuli_target_trianglesquares.svg	stimuli_distractor_diamondtriangles.svg	22	yes	57	0	773	0	0			0	0			1				0	
6.6.1	mac	2023-07-12	16:03:40	16:09:15	330531	5bc9ed7f3d893f0001bee4b6	3	1	main_slash	7	main_slash	111	stimuli_target_diamondrectangles.svg	stimuli_distractor_trianglediamonds.svg	19	yes	53	1	866	0	0			0	0			1				0	
6.6.1	mac	2023-07-12	16:03:40	16:09:15	330531	5bc9ed7f3d893f0001bee4b6	3	1	main_slash	7	advance_on_keypress_SLASH	112	stimuli_target_diamondrectangles.svg	stimuli_distractor_trianglediamonds.svg	19	yes	57	0	687	0	0			0	0			1				0	
6.6.1	mac	2023-07-12	16:03:40	16:09:16	332200	5bc9ed7f3d893f0001bee4b6	3	1	main_slash	7	main_slash	113	stimuli_distractor_diamondtriangles.svg	stimuli_target_diamondrectangles.svg	31	yes	53	1	349	0	0			0	0			1				0	
6.6.1	mac	2023-07-12	16:03:40	16:09:16	332200	5bc9ed7f3d893f0001bee4b6	3	1	main_slash	7	advance_on_keypress_SLASH	114	stimuli_distractor_diamondtriangles.svg	stimuli_target_diamondrectangles.svg	31	yes	57	0	809	0	0			0	0			1				0	
6.6.1	mac	2023-07-12	16:03:40	16:09:18	334007	5bc9ed7f3d893f0001bee4b6	3	1	main_slash	7	main_slash	115	stimuli_distractor_diamondtriangles.svg	stimuli_target_diamondsquares.svg	32	yes	53	1	355	0	0			0	0			1				0	
6.6.1	mac	2023-07-12	16:03:40	16:09:18	334007	5bc9ed7f3d893f0001bee4b6	3	1	main_slash	7	advance_on_keypress_SLASH	116	stimuli_distractor_diamondtriangles.svg	stimuli_target_diamondsquares.svg	32	yes	57	0	777	0	0			0	0			1				0	
6.6.1	mac	2023-07-12	16:03:40	16:09:20	335817	5bc9ed7f3d893f0001bee4b6	3	1	main_slash	7	main_slash	117	stimuli_target_rectanglediamonds.svg	stimuli_distractor_trianglediamonds.svg	2	yes	53	1	399	0	0			0	0			1				0	
6.6.1	mac	2023-07-12	16:03:40	16:09:20	335817	5bc9ed7f3d893f0001bee4b6	3	1	main_slash	7	advance_on_keypress_SLASH	118	stimuli_target_rectanglediamonds.svg	stimuli_distractor_trianglediamonds.svg	2	yes	57	0	714	0	0			0	0			1				0	
6.6.1	mac	2023-07-12	16:03:40	16:09:22	337854	5bc9ed7f3d893f0001bee4b6	3	1	main_slash	7	main_slash	119	stimuli_target_diamondsquares.svg	stimuli_distractor_trianglediamonds.svg	20	yes	53	1	683	0	0			0	0			1				0	
6.6.1	mac	2023-07-12	16:03:40	16:09:22	337854	5bc9ed7f3d893f0001bee4b6	3	1	main_slash	7	advance_on_keypress_SLASH	120	stimuli_target_diamondsquares.svg	stimuli_distractor_trianglediamonds.svg	20	yes	57	0	594	0	0			0	0			1				0	
6.6.1	mac	2023-07-12	16:03:40	16:09:24	339814	5bc9ed7f3d893f0001bee4b6	3	1	main_slash	7	main_slash	121	stimuli_target_trianglerectangles.svg	stimuli_distractor_diamondtriangles.svg	21	yes	53	1	727	0	0			0	0			1				0	
6.6.1	mac	2023-07-12	16:03:40	16:09:24	339814	5bc9ed7f3d893f0001bee4b6	3	1	main_slash	7	advance_on_keypress_SLASH	122	stimuli_target_trianglerectangles.svg	stimuli_distractor_diamondtriangles.svg	21	yes	57	0	363	0	0			0	0			1				0	
6.6.1	mac	2023-07-12	16:03:40	16:09:25	341362	5bc9ed7f3d893f0001bee4b6	3	1	main_slash	7	main_slash	123	stimuli_target_diamondrectangles.svg	stimuli_distractor_diamondtriangles.svg	23	yes	53	1	543	0	0			0	0			1				0	
6.6.1	mac	2023-07-12	16:03:40	16:09:25	341362	5bc9ed7f3d893f0001bee4b6	3	1	main_slash	7	advance_on_keypress_SLASH	124	stimuli_target_diamondrectangles.svg	stimuli_distractor_diamondtriangles.svg	23	yes	57	0	641	0	0			0	0			1				0	
6.6.1	mac	2023-07-12	16:03:40	16:09:29	344641	5bc9ed7f3d893f0001bee4b6	3	1	main_slash	7	main_slash	125	stimuli_distractor_trianglediamonds.svg	stimuli_distractor_trianglediamonds.svg	33	no	0	1	2000	0	0			0	0			1				0	
6.6.1	mac	2023-07-12	16:03:40	16:09:29	344641	5bc9ed7f3d893f0001bee4b6	3	1	main_slash	7	advance_on_keypress_SLASH	126	stimuli_distractor_trianglediamonds.svg	stimuli_distractor_trianglediamonds.svg	33	no	57	0	1292	0	0			0	0			1				0	
6.6.1	mac	2023-07-12	16:03:40	16:09:31	346943	5bc9ed7f3d893f0001bee4b6	3	1	main_slash	7	main_slash	127	stimuli_distractor_diamondtriangles.svg	stimuli_distractor_trianglediamonds.svg	38	no	53	0	377	0	0			0	0			1				0	
6.6.1	mac	2023-07-12	16:03:40	16:09:31	346943	5bc9ed7f3d893f0001bee4b6	3	1	main_slash	7	advance_on_keypress_SLASH	128	stimuli_distractor_diamondtriangles.svg	stimuli_distractor_trianglediamonds.svg	38	no	57	0	1857	0	0			0	0			1				0	
6.6.1	mac	2023-07-12	16:03:40	16:09:34	349781	5bc9ed7f3d893f0001bee4b6	3	1	main_slash	7	main_slash	129	stimuli_distractor_diamondtriangles.svg	stimuli_target_rectanglediamonds.svg	14	yes	53	1	352	0	0			0	0			1				0	
6.6.1	mac	2023-07-12	16:03:40	16:09:34	349781	5bc9ed7f3d893f0001bee4b6	3	1	main_slash	7	advance_on_keypress_SLASH	130	stimuli_distractor_diamondtriangles.svg	stimuli_target_rectanglediamonds.svg	14	yes	57	0	1248	0	0			0	0			1				0	
6.6.1	mac	2023-07-12	16:03:40	16:09:36	352060	5bc9ed7f3d893f0001bee4b6	3	1	main_slash	7	main_slash	131	stimuli_target_rectangletriangles.svg	stimuli_distractor_diamondtriangles.svg	5	yes	53	1	390	0	0			0	0			1				0	
6.6.1	mac	2023-07-12	16:03:40	16:09:36	352060	5bc9ed7f3d893f0001bee4b6	3	1	main_slash	7	advance_on_keypress_SLASH	132	stimuli_target_rectangletriangles.svg	stimuli_distractor_diamondtriangles.svg	5	yes	57	0	783	0	0			0	0			1				0	
6.6.1	mac	2023-07-12	16:03:40	16:09:40	355481	5bc9ed7f3d893f0001bee4b6	3	1	main_slash	7	main_slash	133	stimuli_distractor_diamondtriangles.svg	stimuli_distractor_diamondtriangles.svg	39	no	0	1	2000	0	0			0	0			1				0	
6.6.1	mac	2023-07-12	16:03:40	16:09:40	355481	5bc9ed7f3d893f0001bee4b6	3	1	main_slash	7	advance_on_keypress_SLASH	134	stimuli_distractor_diamondtriangles.svg	stimuli_distractor_diamondtriangles.svg	39	no	57	0	624	0	0			0	0			1				0	
6.6.1	mac	2023-07-12	16:03:40	16:09:41	357212	5bc9ed7f3d893f0001bee4b6	3	1	main_slash	7	main_slash	135	stimuli_target_diamondsquares.svg	stimuli_distractor_diamondtriangles.svg	24	yes	53	1	475	0	0			0	0			1				0	
6.6.1	mac	2023-07-12	16:03:40	16:09:41	357212	5bc9ed7f3d893f0001bee4b6	3	1	main_slash	7	advance_on_keypress_SLASH	136	stimuli_target_diamondsquares.svg	stimuli_distractor_diamondtriangles.svg	24	yes	57	0	675	0	0			0	0			1				0	
6.6.1	mac	2023-07-12	16:03:40	16:09:43	358935	5bc9ed7f3d893f0001bee4b6	3	1	main_slash	7	main_slash	137	stimuli_distractor_diamondtriangles.svg	stimuli_target_squarediamonds.svg	16	yes	53	1	402	0	0			0	0			1				0	
6.6.1	mac	2023-07-12	16:03:40	16:09:43	358935	5bc9ed7f3d893f0001bee4b6	3	1	main_slash	7	advance_on_keypress_SLASH	138	stimuli_distractor_diamondtriangles.svg	stimuli_target_squarediamonds.svg	16	yes	57	0	951	0	0			0	0			1				0	
6.6.1	mac	2023-07-12	16:03:40	16:09:45	361104	5bc9ed7f3d893f0001bee4b6	3	1	main_slash	7	main_slash	139	stimuli_distractor_diamondtriangles.svg	stimuli_target_trianglerectangles.svg	29	yes	53	1	587	0	0			0	0			1				0	
6.6.1	mac	2023-07-12	16:03:40	16:09:45	361104	5bc9ed7f3d893f0001bee4b6	3	1	main_slash	7	advance_on_keypress_SLASH	140	stimuli_distractor_diamondtriangles.svg	stimuli_target_trianglerectangles.svg	29	yes	57	0	629	0	0			0	0			1				0	
6.6.1	mac	2023-07-12	16:03:40	16:09:47	362886	5bc9ed7f3d893f0001bee4b6	3	1	main_slash	7	main_slash	141	stimuli_distractor_trianglediamonds.svg	stimuli_distractor_diamondtriangles.svg	36	no	53	0	513	0	0			0	0			1				0	
6.6.1	mac	2023-07-12	16:03:40	16:09:47	362886	5bc9ed7f3d893f0001bee4b6	3	1	main_slash	7	advance_on_keypress_SLASH	142	stimuli_distractor_trianglediamonds.svg	stimuli_distractor_diamondtriangles.svg	36	no	57	0	986	0	0			0	0			1				0	
6.6.1	mac	2023-07-12	16:03:40	16:09:49	365160	5bc9ed7f3d893f0001bee4b6	3	1	main_slash	7	main_slash	143	stimuli_target_trianglerectangles.svg	stimuli_distractor_trianglediamonds.svg	17	yes	53	1	653	0	0			0	0			1				0	
6.6.1	mac	2023-07-12	16:03:40	16:09:49	365160	5bc9ed7f3d893f0001bee4b6	3	1	main_slash	7	advance_on_keypress_SLASH	144	stimuli_target_trianglerectangles.svg	stimuli_distractor_trianglediamonds.svg	17	yes	57	0	657	0	0			0	0			1				0	
6.6.1	mac	2023-07-12	16:03:40	16:09:51	366823	5bc9ed7f3d893f0001bee4b6	3	1	main_slash	7	main_slash	145	stimuli_distractor_trianglediamonds.svg	stimuli_target_rectangletriangles.svg	9	yes	53	1	377	0	0			0	0			1				0	
6.6.1	mac	2023-07-12	16:03:40	16:09:51	366823	5bc9ed7f3d893f0001bee4b6	3	1	main_slash	7	advance_on_keypress_SLASH	146	stimuli_distractor_trianglediamonds.svg	stimuli_target_rectangletriangles.svg	9	yes	57	0	1024	0	0			0	0			1				0	
6.6.1	mac	2023-07-12	16:03:40	16:09:53	368793	5bc9ed7f3d893f0001bee4b6	3	1	main_slash	7	main_slash	147	stimuli_distractor_trianglediamonds.svg	stimuli_target_squaretriangles.svg	11	yes	53	1	316	0	0			0	0			1				0	
6.6.1	mac	2023-07-12	16:03:40	16:09:53	368793	5bc9ed7f3d893f0001bee4b6	3	1	main_slash	7	advance_on_keypress_SLASH	148	stimuli_distractor_trianglediamonds.svg	stimuli_target_squaretriangles.svg	11	yes	57	0	867	0	0			0	0			1				0	
6.6.1	mac	2023-07-12	16:03:40	16:09:55	370686	5bc9ed7f3d893f0001bee4b6	3	1	main_slash	7	main_slash	149	stimuli_distractor_diamondtriangles.svg	stimuli_target_trianglesquares.svg	30	yes	53	1	394	0	0			0	0			1				0	
6.6.1	mac	2023-07-12	16:03:40	16:09:55	370686	5bc9ed7f3d893f0001bee4b6	3	1	main_slash	7	advance_on_keypress_SLASH	150	stimuli_distractor_diamondtriangles.svg	stimuli_target_trianglesquares.svg	30	yes	57	0	784	0	0			0	0			1				0	
6.6.1	mac	2023-07-12	16:03:40	16:09:57	372551	5bc9ed7f3d893f0001bee4b6	3	1	main_slash	7	main_slash	151	stimuli_target_squarediamonds.svg	stimuli_distractor_diamondtriangles.svg	8	yes	53	1	441	0	0			0	0			1				0	
6.6.1	mac	2023-07-12	16:03:40	16:09:57	372551	5bc9ed7f3d893f0001bee4b6	3	1	main_slash	7	advance_on_keypress_SLASH	152	stimuli_target_squarediamonds.svg	stimuli_distractor_diamondtriangles.svg	8	yes	57	0	557	0	0			0	0			1				0	
6.6.1	mac	2023-07-12	16:03:40	16:09:58	374276	5bc9ed7f3d893f0001bee4b6	3	1	main_slash	7	main_slash	153	stimuli_distractor_trianglediamonds.svg	stimuli_target_diamondsquares.svg	28	yes	53	1	532	0	0			0	0			1				0	
6.6.1	mac	2023-07-12	16:03:40	16:09:58	374276	5bc9ed7f3d893f0001bee4b6	3	1	main_slash	7	advance_on_keypress_SLASH	154	stimuli_distractor_trianglediamonds.svg	stimuli_target_diamondsquares.svg	28	yes	57	0	472	0	0			0	0			1				0	
6.6.1	mac	2023-07-12	16:03:40	16:10:00	375882	5bc9ed7f3d893f0001bee4b6	3	1	main_slash	7	main_slash	155	stimuli_distractor_trianglediamonds.svg	stimuli_target_diamondrectangles.svg	27	yes	53	1	504	0	0			0	0			1				0	
6.6.1	mac	2023-07-12	16:03:40	16:10:00	375882	5bc9ed7f3d893f0001bee4b6	3	1	main_slash	7	advance_on_keypress_SLASH	156	stimuli_distractor_trianglediamonds.svg	stimuli_target_diamondrectangles.svg	27	yes	57	0	438	0	0			0	0			1				0	
6.6.1	mac	2023-07-12	16:03:40	16:10:01	377353	5bc9ed7f3d893f0001bee4b6	3	1	main_slash	7	main_slash	157	stimuli_distractor_diamondtriangles.svg	stimuli_target_squaretriangles.svg	15	yes	53	1	405	0	0			0	0			1				0	
6.6.1	mac	2023-07-12	16:03:40	16:10:01	377353	5bc9ed7f3d893f0001bee4b6	3	1	main_slash	7	advance_on_keypress_SLASH	158	stimuli_distractor_diamondtriangles.svg	stimuli_target_squaretriangles.svg	15	yes	57	0	664	0	0			0	0			1				0	
6.6.1	mac	2023-07-12	16:03:40	16:10:03	379124	5bc9ed7f3d893f0001bee4b6	3	1	main_slash	7	main_slash	159	stimuli_distractor_diamondtriangles.svg	stimuli_distractor_trianglediamonds.svg	37	no	53	0	472	0	0			0	0			1				0	
6.6.1	mac	2023-07-12	16:03:40	16:10:03	379124	5bc9ed7f3d893f0001bee4b6	3	1	main_slash	7	advance_on_keypress_SLASH	160	stimuli_distractor_diamondtriangles.svg	stimuli_distractor_trianglediamonds.svg	37	no	57	0	864	0	0			0	0			1				0	
6.6.1	mac	2023-07-12	16:03:40	16:10:26	401696	5bc9ed7f3d893f0001bee4b6	3	1	practice_z	9	practice_z	1	stimuli_target_diamondsquares.svg	stimuli_distractor_diamondtriangles.svg	3	yes	44	1	585	0	0			0	0			1				0	
6.6.1	mac	2023-07-12	16:03:40	16:10:26	401696	5bc9ed7f3d893f0001bee4b6	3	1	practice_z	9	advance_on_keypress_ZEE	2	stimuli_target_diamondsquares.svg	stimuli_distractor_diamondtriangles.svg	3	yes	57	0	678	0	0			0	0			1				0	
6.6.1	mac	2023-07-12	16:03:40	16:10:28	404361	5bc9ed7f3d893f0001bee4b6	3	1	practice_z	9	practice_z	3	stimuli_target_squarediamonds.svg	stimuli_distractor_trianglediamonds.svg	5	yes	44	1	343	0	0			0	0			1				0	
6.6.1	mac	2023-07-12	16:03:40	16:10:28	404361	5bc9ed7f3d893f0001bee4b6	3	1	practice_z	9	advance_on_keypress_ZEE	4	stimuli_target_squarediamonds.svg	stimuli_distractor_trianglediamonds.svg	5	yes	57	0	533	0	0			0	0			1				0	
6.6.1	mac	2023-07-12	16:03:40	16:10:33	408534	5bc9ed7f3d893f0001bee4b6	3	1	practice_z	9	practice_z	5	stimuli_distractor_trianglediamonds.svg	stimuli_distractor_diamondtriangles.svg	16	no	0	1	2000	0	0			0	0			1				0	
6.6.1	mac	2023-07-12	16:03:40	16:10:33	408534	5bc9ed7f3d893f0001bee4b6	3	1	practice_z	9	advance_on_keypress_ZEE	6	stimuli_distractor_trianglediamonds.svg	stimuli_distractor_diamondtriangles.svg	16	no	57	0	575	0	0			0	0			1				0	
6.6.1	mac	2023-07-12	16:03:40	16:10:36	411958	5bc9ed7f3d893f0001bee4b6	3	1	practice_z	9	practice_z	7	stimuli_distractor_diamondtriangles.svg	stimuli_target_rectangletriangles.svg	7	yes	44	1	1203	0	0			0	0			1				0	
6.6.1	mac	2023-07-12	16:03:40	16:10:36	411958	5bc9ed7f3d893f0001bee4b6	3	1	practice_z	9	advance_on_keypress_ZEE	8	stimuli_distractor_diamondtriangles.svg	stimuli_target_rectangletriangles.svg	7	yes	57	0	592	0	0			0	0			1				0	
6.6.1	mac	2023-07-12	16:03:40	16:10:39	414615	5bc9ed7f3d893f0001bee4b6	3	1	practice_z	9	practice_z	9	stimuli_distractor_trianglediamonds.svg	stimuli_target_rectanglediamonds.svg	10	yes	44	1	426	0	0			0	0			1				0	
6.6.1	mac	2023-07-12	16:03:40	16:10:39	414615	5bc9ed7f3d893f0001bee4b6	3	1	practice_z	9	advance_on_keypress_ZEE	10	stimuli_distractor_trianglediamonds.svg	stimuli_target_rectanglediamonds.svg	10	yes	57	0	916	0	0			0	0			1				0	
6.6.1	mac	2023-07-12	16:03:40	16:10:43	419177	5bc9ed7f3d893f0001bee4b6	3	1	practice_z	9	practice_z	11	stimuli_distractor_diamondtriangles.svg	stimuli_distractor_diamondtriangles.svg	13	no	0	1	2000	0	0			0	0			1				0	
6.6.1	mac	2023-07-12	16:03:40	16:10:43	419177	5bc9ed7f3d893f0001bee4b6	3	1	practice_z	9	advance_on_keypress_ZEE	12	stimuli_distractor_diamondtriangles.svg	stimuli_distractor_diamondtriangles.svg	13	no	57	0	565	0	0			0	0			1				0	
6.6.1	mac	2023-07-12	16:03:40	16:10:46	421790	5bc9ed7f3d893f0001bee4b6	3	1	practice_z	9	practice_z	13	stimuli_target_rectanglediamonds.svg	stimuli_distractor_trianglediamonds.svg	4	yes	44	1	413	0	0			0	0			1				0	
6.6.1	mac	2023-07-12	16:03:40	16:10:46	421790	5bc9ed7f3d893f0001bee4b6	3	1	practice_z	9	advance_on_keypress_ZEE	14	stimuli_target_rectanglediamonds.svg	stimuli_distractor_trianglediamonds.svg	4	yes	57	0	559	0	0			0	0			1				0	
6.6.1	mac	2023-07-12	16:03:40	16:10:50	425996	5bc9ed7f3d893f0001bee4b6	3	1	practice_z	9	practice_z	15	stimuli_distractor_trianglediamonds.svg	stimuli_distractor_trianglediamonds.svg	15	no	0	1	2000	0	0			0	0			1				0	
6.6.1	mac	2023-07-12	16:03:40	16:10:50	425996	5bc9ed7f3d893f0001bee4b6	3	1	practice_z	9	advance_on_keypress_ZEE	16	stimuli_distractor_trianglediamonds.svg	stimuli_distractor_trianglediamonds.svg	15	no	57	0	484	0	0			0	0			1				0	
6.6.1	mac	2023-07-12	16:03:40	16:10:53	428702	5bc9ed7f3d893f0001bee4b6	3	1	practice_z	9	practice_z	17	stimuli_distractor_trianglediamonds.svg	stimuli_target_diamondrectangles.svg	12	yes	44	1	587	0	0			0	0			1				0	
6.6.1	mac	2023-07-12	16:03:40	16:10:53	428702	5bc9ed7f3d893f0001bee4b6	3	1	practice_z	9	advance_on_keypress_ZEE	18	stimuli_distractor_trianglediamonds.svg	stimuli_target_diamondrectangles.svg	12	yes	57	0	453	0	0			0	0			1				0	
6.6.1	mac	2023-07-12	16:03:40	16:10:55	431382	5bc9ed7f3d893f0001bee4b6	3	1	practice_z	9	practice_z	19	stimuli_distractor_diamondtriangles.svg	stimuli_target_trianglerectangles.svg	9	yes	44	1	597	0	0			0	0			1				0	
6.6.1	mac	2023-07-12	16:03:40	16:10:55	431382	5bc9ed7f3d893f0001bee4b6	3	1	practice_z	9	advance_on_keypress_ZEE	20	stimuli_distractor_diamondtriangles.svg	stimuli_target_trianglerectangles.svg	9	yes	57	0	490	0	0			0	0			1				0	
6.6.1	mac	2023-07-12	16:03:40	16:10:58	433889	5bc9ed7f3d893f0001bee4b6	3	1	practice_z	9	practice_z	21	stimuli_target_squarediamonds.svg	stimuli_distractor_diamondtriangles.svg	2	yes	44	1	387	0	0			0	0			1				0	
6.6.1	mac	2023-07-12	16:03:40	16:10:58	433889	5bc9ed7f3d893f0001bee4b6	3	1	practice_z	9	advance_on_keypress_ZEE	22	stimuli_target_squarediamonds.svg	stimuli_distractor_diamondtriangles.svg	2	yes	57	0	459	0	0			0	0			1				0	
6.6.1	mac	2023-07-12	16:03:40	16:11:00	436391	5bc9ed7f3d893f0001bee4b6	3	1	practice_z	9	practice_z	23	stimuli_distractor_trianglediamonds.svg	stimuli_target_squarediamonds.svg	11	yes	44	1	404	0	0			0	0			1				0	
6.6.1	mac	2023-07-12	16:03:40	16:11:00	436391	5bc9ed7f3d893f0001bee4b6	3	1	practice_z	9	advance_on_keypress_ZEE	24	stimuli_distractor_trianglediamonds.svg	stimuli_target_squarediamonds.svg	11	yes	57	0	448	0	0			0	0			1				0	
6.6.1	mac	2023-07-12	16:03:40	16:11:03	438848	5bc9ed7f3d893f0001bee4b6	3	1	practice_z	9	practice_z	25	stimuli_target_diamondsquares.svg	stimuli_distractor_trianglediamonds.svg	6	yes	44	1	373	0	0			0	0			1				0	
6.6.1	mac	2023-07-12	16:03:40	16:11:03	438848	5bc9ed7f3d893f0001bee4b6	3	1	practice_z	9	advance_on_keypress_ZEE	26	stimuli_target_diamondsquares.svg	stimuli_distractor_trianglediamonds.svg	6	yes	57	0	393	0	0			0	0			1				0	
6.6.1	mac	2023-07-12	16:03:40	16:11:06	441564	5bc9ed7f3d893f0001bee4b6	3	1	practice_z	9	practice_z	27	stimuli_distractor_diamondtriangles.svg	stimuli_target_diamondrectangles.svg	8	yes	44	1	673	0	0			0	0			1				0	
6.6.1	mac	2023-07-12	16:03:40	16:11:06	441564	5bc9ed7f3d893f0001bee4b6	3	1	practice_z	9	advance_on_keypress_ZEE	28	stimuli_distractor_diamondtriangles.svg	stimuli_target_diamondrectangles.svg	8	yes	57	0	335	0	0			0	0			1				0	
6.6.1	mac	2023-07-12	16:03:40	16:11:08	443955	5bc9ed7f3d893f0001bee4b6	3	1	practice_z	9	practice_z	29	stimuli_distractor_diamondtriangles.svg	stimuli_distractor_trianglediamonds.svg	14	no	44	0	414	0	0			0	0			1				0	
6.6.1	mac	2023-07-12	16:03:40	16:11:08	443955	5bc9ed7f3d893f0001bee4b6	3	1	practice_z	9	advance_on_keypress_ZEE	30	stimuli_distractor_diamondtriangles.svg	stimuli_distractor_trianglediamonds.svg	14	no	57	0	1103	0	0			0	0			1				0	
6.6.1	mac	2023-07-12	16:03:40	16:11:11	447316	5bc9ed7f3d893f0001bee4b6	3	1	practice_z	9	practice_z	31	stimuli_target_rectanglediamonds.svg	stimuli_distractor_diamondtriangles.svg	1	yes	44	1	624	0	0			0	0			1				0	
6.6.1	mac	2023-07-12	16:03:40	16:11:11	447316	5bc9ed7f3d893f0001bee4b6	3	1	practice_z	9	advance_on_keypress_ZEE	32	stimuli_target_rectanglediamonds.svg	stimuli_distractor_diamondtriangles.svg	1	yes	57	0	419	0	0			0	0			1				0	
6.6.1	mac	2023-07-12	16:03:40	16:11:16	451528	5bc9ed7f3d893f0001bee4b6	3	1	main_z	11	main_z	1	stimuli_target_trianglesquares.svg	stimuli_distractor_diamondtriangles.svg	22	yes	44	1	536	0	0			0	0			1				0	
6.6.1	mac	2023-07-12	16:03:40	16:11:16	451528	5bc9ed7f3d893f0001bee4b6	3	1	main_z	11	advance_on_keypress_ZEE	2	stimuli_target_trianglesquares.svg	stimuli_distractor_diamondtriangles.svg	22	yes	57	0	1666	0	0			0	0			1				0	
6.6.1	mac	2023-07-12	16:03:40	16:11:18	454224	5bc9ed7f3d893f0001bee4b6	3	1	main_z	11	main_z	3	stimuli_target_diamondrectangles.svg	stimuli_distractor_trianglediamonds.svg	19	yes	44	1	392	0	0			0	0			1				0	
6.6.1	mac	2023-07-12	16:03:40	16:11:18	454224	5bc9ed7f3d893f0001bee4b6	3	1	main_z	11	advance_on_keypress_ZEE	4	stimuli_target_diamondrectangles.svg	stimuli_distractor_trianglediamonds.svg	19	yes	57	0	1586	0	0			0	0			1				0	
6.6.1	mac	2023-07-12	16:03:40	16:11:22	457895	5bc9ed7f3d893f0001bee4b6	3	1	main_z	11	main_z	5	stimuli_distractor_diamondtriangles.svg	stimuli_target_squaretriangles.svg	15	yes	44	1	1442	0	0			0	0			1				0	
6.6.1	mac	2023-07-12	16:03:40	16:11:22	457895	5bc9ed7f3d893f0001bee4b6	3	1	main_z	11	advance_on_keypress_ZEE	6	stimuli_distractor_diamondtriangles.svg	stimuli_target_squaretriangles.svg	15	yes	57	0	682	0	0			0	0			1				0	
6.6.1	mac	2023-07-12	16:03:40	16:11:24	459680	5bc9ed7f3d893f0001bee4b6	3	1	main_z	11	main_z	7	stimuli_distractor_trianglediamonds.svg	stimuli_target_trianglerectangles.svg	25	yes	44	1	459	0	0			0	0			1				0	
6.6.1	mac	2023-07-12	16:03:40	16:11:24	459680	5bc9ed7f3d893f0001bee4b6	3	1	main_z	11	advance_on_keypress_ZEE	8	stimuli_distractor_trianglediamonds.svg	stimuli_target_trianglerectangles.svg	25	yes	57	0	742	0	0			0	0			1				0	
6.6.1	mac	2023-07-12	16:03:40	16:11:25	461445	5bc9ed7f3d893f0001bee4b6	3	1	main_z	11	main_z	9	stimuli_target_trianglesquares.svg	stimuli_distractor_trianglediamonds.svg	18	yes	44	1	391	0	0			0	0			1				0	
6.6.1	mac	2023-07-12	16:03:40	16:11:25	461445	5bc9ed7f3d893f0001bee4b6	3	1	main_z	11	advance_on_keypress_ZEE	10	stimuli_target_trianglesquares.svg	stimuli_distractor_trianglediamonds.svg	18	yes	57	0	643	0	0			0	0			1				0	
6.6.1	mac	2023-07-12	16:03:40	16:11:27	463115	5bc9ed7f3d893f0001bee4b6	3	1	main_z	11	main_z	11	stimuli_distractor_trianglediamonds.svg	stimuli_target_squaretriangles.svg	11	yes	44	1	395	0	0			0	0			1				0	
6.6.1	mac	2023-07-12	16:03:40	16:11:27	463115	5bc9ed7f3d893f0001bee4b6	3	1	main_z	11	advance_on_keypress_ZEE	12	stimuli_distractor_trianglediamonds.svg	stimuli_target_squaretriangles.svg	11	yes	57	0	587	0	0			0	0			1				0	
6.6.1	mac	2023-07-12	16:03:40	16:11:29	464743	5bc9ed7f3d893f0001bee4b6	3	1	main_z	11	main_z	13	stimuli_distractor_trianglediamonds.svg	stimuli_target_squarediamonds.svg	12	yes	44	1	404	0	0			0	0			1				0	
6.6.1	mac	2023-07-12	16:03:40	16:11:29	464743	5bc9ed7f3d893f0001bee4b6	3	1	main_z	11	advance_on_keypress_ZEE	14	stimuli_distractor_trianglediamonds.svg	stimuli_target_squarediamonds.svg	12	yes	57	0	486	0	0			0	0			1				0	
6.6.1	mac	2023-07-12	16:03:40	16:11:30	466309	5bc9ed7f3d893f0001bee4b6	3	1	main_z	11	main_z	15	stimuli_target_rectanglediamonds.svg	stimuli_distractor_trianglediamonds.svg	2	yes	44	1	437	0	0			0	0			1				0	
6.6.1	mac	2023-07-12	16:03:40	16:11:30	466309	5bc9ed7f3d893f0001bee4b6	3	1	main_z	11	advance_on_keypress_ZEE	16	stimuli_target_rectanglediamonds.svg	stimuli_distractor_trianglediamonds.svg	2	yes	57	0	413	0	0			0	0			1				0	
6.6.1	mac	2023-07-12	16:03:40	16:11:32	467709	5bc9ed7f3d893f0001bee4b6	3	1	main_z	11	main_z	17	stimuli_target_rectangletriangles.svg	stimuli_distractor_trianglediamonds.svg	1	yes	44	1	348	0	0			0	0			1				0	
6.6.1	mac	2023-07-12	16:03:40	16:11:32	467709	5bc9ed7f3d893f0001bee4b6	3	1	main_z	11	advance_on_keypress_ZEE	18	stimuli_target_rectangletriangles.svg	stimuli_distractor_trianglediamonds.svg	1	yes	57	0	810	0	0			0	0			1				0	
6.6.1	mac	2023-07-12	16:03:40	16:11:34	469510	5bc9ed7f3d893f0001bee4b6	3	1	main_z	11	main_z	19	stimuli_target_rectanglediamonds.svg	stimuli_distractor_diamondtriangles.svg	6	yes	44	1	350	0	0			0	0			1				0	
6.6.1	mac	2023-07-12	16:03:40	16:11:34	469510	5bc9ed7f3d893f0001bee4b6	3	1	main_z	11	advance_on_keypress_ZEE	20	stimuli_target_rectanglediamonds.svg	stimuli_distractor_diamondtriangles.svg	6	yes	57	0	429	0	0			0	0			1				0	
6.6.1	mac	2023-07-12	16:03:40	16:11:35	471251	5bc9ed7f3d893f0001bee4b6	3	1	main_z	11	main_z	21	stimuli_target_diamondrectangles.svg	stimuli_distractor_diamondtriangles.svg	23	yes	44	1	674	0	0			0	0			1				0	
6.6.1	mac	2023-07-12	16:03:40	16:11:35	471251	5bc9ed7f3d893f0001bee4b6	3	1	main_z	11	advance_on_keypress_ZEE	22	stimuli_target_diamondrectangles.svg	stimuli_distractor_diamondtriangles.svg	23	yes	57	0	365	0	0			0	0			1				0	
6.6.1	mac	2023-07-12	16:03:40	16:11:37	472615	5bc9ed7f3d893f0001bee4b6	3	1	main_z	11	main_z	23	stimuli_distractor_trianglediamonds.svg	stimuli_distractor_diamondtriangles.svg	35	no	44	0	367	0	0			0	0			1				0	
6.6.1	mac	2023-07-12	16:03:40	16:11:37	472615	5bc9ed7f3d893f0001bee4b6	3	1	main_z	11	advance_on_keypress_ZEE	24	stimuli_distractor_trianglediamonds.svg	stimuli_distractor_diamondtriangles.svg	35	no	57	0	391	0	0			0	0			1				0	
6.6.1	mac	2023-07-12	16:03:40	16:11:38	474206	5bc9ed7f3d893f0001bee4b6	3	1	main_z	11	main_z	25	stimuli_distractor_trianglediamonds.svg	stimuli_target_rectangletriangles.svg	9	yes	44	1	577	0	0			0	0			1				0	
6.6.1	mac	2023-07-12	16:03:40	16:11:38	474206	5bc9ed7f3d893f0001bee4b6	3	1	main_z	11	advance_on_keypress_ZEE	26	stimuli_distractor_trianglediamonds.svg	stimuli_target_rectangletriangles.svg	9	yes	57	0	3460	0	0			0	0			1				0	
6.6.1	mac	2023-07-12	16:03:40	16:11:43	478725	5bc9ed7f3d893f0001bee4b6	3	1	main_z	11	main_z	27	stimuli_target_rectangletriangles.svg	stimuli_distractor_diamondtriangles.svg	5	yes	44	1	425	0	0			0	0			1				0	
6.6.1	mac	2023-07-12	16:03:40	16:11:43	478725	5bc9ed7f3d893f0001bee4b6	3	1	main_z	11	advance_on_keypress_ZEE	28	stimuli_target_rectangletriangles.svg	stimuli_distractor_diamondtriangles.svg	5	yes	57	0	2187	0	0			0	0			1				0	
6.6.1	mac	2023-07-12	16:03:40	16:11:46	481985	5bc9ed7f3d893f0001bee4b6	3	1	main_z	11	main_z	29	stimuli_target_diamondsquares.svg	stimuli_distractor_diamondtriangles.svg	24	yes	44	1	433	0	0			0	0			1				0	
6.6.1	mac	2023-07-12	16:03:40	16:11:46	481985	5bc9ed7f3d893f0001bee4b6	3	1	main_z	11	advance_on_keypress_ZEE	30	stimuli_target_diamondsquares.svg	stimuli_distractor_diamondtriangles.svg	24	yes	57	0	1801	0	0			0	0			1				0	
6.6.1	mac	2023-07-12	16:03:40	16:11:49	484841	5bc9ed7f3d893f0001bee4b6	3	1	main_z	11	main_z	31	stimuli_distractor_diamondtriangles.svg	stimuli_target_rectangletriangles.svg	13	yes	44	1	423	0	0			0	0			1				0	
6.6.1	mac	2023-07-12	16:03:40	16:11:49	484841	5bc9ed7f3d893f0001bee4b6	3	1	main_z	11	advance_on_keypress_ZEE	32	stimuli_distractor_diamondtriangles.svg	stimuli_target_rectangletriangles.svg	13	yes	57	0	808	0	0			0	0			1				0	
6.6.1	mac	2023-07-12	16:03:40	16:11:51	486725	5bc9ed7f3d893f0001bee4b6	3	1	main_z	11	main_z	33	stimuli_distractor_trianglediamonds.svg	stimuli_target_rectanglediamonds.svg	10	yes	44	1	436	0	0			0	0			1				0	
6.6.1	mac	2023-07-12	16:03:40	16:11:51	486725	5bc9ed7f3d893f0001bee4b6	3	1	main_z	11	advance_on_keypress_ZEE	34	stimuli_distractor_trianglediamonds.svg	stimuli_target_rectanglediamonds.svg	10	yes	57	0	756	0	0			0	0			1				0	
6.6.1	mac	2023-07-12	16:03:40	16:11:53	488485	5bc9ed7f3d893f0001bee4b6	3	1	main_z	11	main_z	35	stimuli_distractor_trianglediamonds.svg	stimuli_distractor_trianglediamonds.svg	33	no	44	0	361	0	0			0	0			1				0	
6.6.1	mac	2023-07-12	16:03:40	16:11:53	488485	5bc9ed7f3d893f0001bee4b6	3	1	main_z	11	advance_on_keypress_ZEE	36	stimuli_distractor_trianglediamonds.svg	stimuli_distractor_trianglediamonds.svg	33	no	57	0	1567	0	0			0	0			1				0	
6.6.1	mac	2023-07-12	16:03:40	16:11:55	491195	5bc9ed7f3d893f0001bee4b6	3	1	main_z	11	main_z	37	stimuli_distractor_trianglediamonds.svg	stimuli_target_diamondsquares.svg	28	yes	44	1	504	0	0			0	0			1				0	
6.6.1	mac	2023-07-12	16:03:40	16:11:55	491195	5bc9ed7f3d893f0001bee4b6	3	1	main_z	11	advance_on_keypress_ZEE	38	stimuli_distractor_trianglediamonds.svg	stimuli_target_diamondsquares.svg	28	yes	57	0	1209	0	0			0	0			1				0	
6.6.1	mac	2023-07-12	16:03:40	16:11:58	493472	5bc9ed7f3d893f0001bee4b6	3	1	main_z	11	main_z	39	stimuli_target_squaretriangles.svg	stimuli_distractor_diamondtriangles.svg	7	yes	44	1	429	0	0			0	0			1				0	
6.6.1	mac	2023-07-12	16:03:40	16:11:58	493472	5bc9ed7f3d893f0001bee4b6	3	1	main_z	11	advance_on_keypress_ZEE	40	stimuli_target_squaretriangles.svg	stimuli_distractor_diamondtriangles.svg	7	yes	57	0	936	0	0			0	0			1				0	
6.6.1	mac	2023-07-12	16:03:40	16:12:01	497044	5bc9ed7f3d893f0001bee4b6	3	1	main_z	11	main_z	41	stimuli_distractor_diamondtriangles.svg	stimuli_distractor_trianglediamonds.svg	38	no	0	1	2000	0	0			0	0			1				0	
6.6.1	mac	2023-07-12	16:03:40	16:12:01	497044	5bc9ed7f3d893f0001bee4b6	3	1	main_z	11	advance_on_keypress_ZEE	42	stimuli_distractor_diamondtriangles.svg	stimuli_distractor_trianglediamonds.svg	38	no	57	0	464	0	0			0	0			1				0	
6.6.1	mac	2023-07-12	16:03:40	16:12:03	498698	5bc9ed7f3d893f0001bee4b6	3	1	main_z	11	main_z	43	stimuli_distractor_trianglediamonds.svg	stimuli_target_trianglesquares.svg	26	yes	44	1	553	0	0			0	0			1				0	
6.6.1	mac	2023-07-12	16:03:40	16:12:03	498698	5bc9ed7f3d893f0001bee4b6	3	1	main_z	11	advance_on_keypress_ZEE	44	stimuli_distractor_trianglediamonds.svg	stimuli_target_trianglesquares.svg	26	yes	57	0	989	0	0			0	0			1				0	
6.6.1	mac	2023-07-12	16:03:40	16:12:05	500784	5bc9ed7f3d893f0001bee4b6	3	1	main_z	11	main_z	45	stimuli_distractor_diamondtriangles.svg	stimuli_target_rectanglediamonds.svg	14	yes	44	1	455	0	0			0	0			1				0	
6.6.1	mac	2023-07-12	16:03:40	16:12:05	500784	5bc9ed7f3d893f0001bee4b6	3	1	main_z	11	advance_on_keypress_ZEE	46	stimuli_distractor_diamondtriangles.svg	stimuli_target_rectanglediamonds.svg	14	yes	57	0	720	0	0			0	0			1				0	
6.6.1	mac	2023-07-12	16:03:40	16:12:07	502738	5bc9ed7f3d893f0001bee4b6	3	1	main_z	11	main_z	47	stimuli_target_trianglerectangles.svg	stimuli_distractor_trianglediamonds.svg	17	yes	44	1	603	0	0			0	0			1				0	
6.6.1	mac	2023-07-12	16:03:40	16:12:07	502738	5bc9ed7f3d893f0001bee4b6	3	1	main_z	11	advance_on_keypress_ZEE	48	stimuli_target_trianglerectangles.svg	stimuli_distractor_trianglediamonds.svg	17	yes	57	0	989	0	0			0	0			1				0	
6.6.1	mac	2023-07-12	16:03:40	16:12:10	506350	5bc9ed7f3d893f0001bee4b6	3	1	main_z	11	main_z	49	stimuli_distractor_diamondtriangles.svg	stimuli_distractor_diamondtriangles.svg	39	no	0	1	2000	0	0			0	0			1				0	
6.6.1	mac	2023-07-12	16:03:40	16:12:10	506350	5bc9ed7f3d893f0001bee4b6	3	1	main_z	11	advance_on_keypress_ZEE	50	stimuli_distractor_diamondtriangles.svg	stimuli_distractor_diamondtriangles.svg	39	no	57	0	435	0	0			0	0			1				0	
6.6.1	mac	2023-07-12	16:03:40	16:12:12	507831	5bc9ed7f3d893f0001bee4b6	3	1	main_z	11	main_z	51	stimuli_target_squaretriangles.svg	stimuli_distractor_trianglediamonds.svg	3	yes	44	1	411	0	0			0	0			1				0	
6.6.1	mac	2023-07-12	16:03:40	16:12:12	507831	5bc9ed7f3d893f0001bee4b6	3	1	main_z	11	advance_on_keypress_ZEE	52	stimuli_target_squaretriangles.svg	stimuli_distractor_trianglediamonds.svg	3	yes	57	0	1112	0	0			0	0			1				0	
6.6.1	mac	2023-07-12	16:03:40	16:12:14	510317	5bc9ed7f3d893f0001bee4b6	3	1	main_z	11	main_z	53	stimuli_distractor_trianglediamonds.svg	stimuli_distractor_diamondtriangles.svg	36	no	44	0	730	0	0			0	0			1				0	
6.6.1	mac	2023-07-12	16:03:40	16:12:14	510317	5bc9ed7f3d893f0001bee4b6	3	1	main_z	11	advance_on_keypress_ZEE	54	stimuli_distractor_trianglediamonds.svg	stimuli_distractor_diamondtriangles.svg	36	no	57	0	1276	0	0			0	0			1				0	
6.6.1	mac	2023-07-12	16:03:40	16:12:17	512861	5bc9ed7f3d893f0001bee4b6	3	1	main_z	11	main_z	55	stimuli_target_diamondsquares.svg	stimuli_distractor_trianglediamonds.svg	20	yes	44	1	636	0	0			0	0			1				0	
6.6.1	mac	2023-07-12	16:03:40	16:12:17	512861	5bc9ed7f3d893f0001bee4b6	3	1	main_z	11	advance_on_keypress_ZEE	56	stimuli_target_diamondsquares.svg	stimuli_distractor_trianglediamonds.svg	20	yes	57	0	1573	0	0			0	0			1				0	
6.6.1	mac	2023-07-12	16:03:40	16:12:20	515541	5bc9ed7f3d893f0001bee4b6	3	1	main_z	11	main_z	57	stimuli_distractor_diamondtriangles.svg	stimuli_target_diamondrectangles.svg	31	yes	44	1	482	0	0			0	0			1				0	
6.6.1	mac	2023-07-12	16:03:40	16:12:20	515541	5bc9ed7f3d893f0001bee4b6	3	1	main_z	11	advance_on_keypress_ZEE	58	stimuli_distractor_diamondtriangles.svg	stimuli_target_diamondrectangles.svg	31	yes	57	0	2261	0	0			0	0			1				0	
6.6.1	mac	2023-07-12	16:03:40	16:12:23	518920	5bc9ed7f3d893f0001bee4b6	3	1	main_z	11	main_z	59	stimuli_distractor_trianglediamonds.svg	stimuli_target_diamondrectangles.svg	27	yes	44	1	476	0	0			0	0			1				0	
6.6.1	mac	2023-07-12	16:03:40	16:12:23	518920	5bc9ed7f3d893f0001bee4b6	3	1	main_z	11	advance_on_keypress_ZEE	60	stimuli_distractor_trianglediamonds.svg	stimuli_target_diamondrectangles.svg	27	yes	57	0	1448	0	0			0	0			1				0	
6.6.1	mac	2023-07-12	16:03:40	16:12:27	523010	5bc9ed7f3d893f0001bee4b6	3	1	main_z	11	main_z	61	stimuli_distractor_diamondtriangles.svg	stimuli_distractor_trianglediamonds.svg	37	no	0	1	2000	0	0			0	0			1				0	
6.6.1	mac	2023-07-12	16:03:40	16:12:27	523010	5bc9ed7f3d893f0001bee4b6	3	1	main_z	11	advance_on_keypress_ZEE	62	stimuli_distractor_diamondtriangles.svg	stimuli_distractor_trianglediamonds.svg	37	no	57	0	409	0	0			0	0			1				0	
6.6.1	mac	2023-07-12	16:03:40	16:12:30	526064	5bc9ed7f3d893f0001bee4b6	3	1	main_z	11	main_z	63	stimuli_distractor_trianglediamonds.svg	stimuli_distractor_trianglediamonds.svg	34	no	0	1	2000	0	0			0	0			1				0	
6.6.1	mac	2023-07-12	16:03:40	16:12:30	526064	5bc9ed7f3d893f0001bee4b6	3	1	main_z	11	advance_on_keypress_ZEE	64	stimuli_distractor_trianglediamonds.svg	stimuli_distractor_trianglediamonds.svg	34	no	57	0	785	0	0			0	0			1				0	
6.6.1	mac	2023-07-12	16:03:40	16:12:33	529009	5bc9ed7f3d893f0001bee4b6	3	1	main_z	11	main_z	65	stimuli_distractor_diamondtriangles.svg	stimuli_target_squarediamonds.svg	16	yes	44	1	1523	0	0			0	0			1				0	
6.6.1	mac	2023-07-12	16:03:40	16:12:33	529009	5bc9ed7f3d893f0001bee4b6	3	1	main_z	11	advance_on_keypress_ZEE	66	stimuli_distractor_diamondtriangles.svg	stimuli_target_squarediamonds.svg	16	yes	57	0	891	0	0			0	0			1				0	
6.6.1	mac	2023-07-12	16:03:40	16:12:35	531324	5bc9ed7f3d893f0001bee4b6	3	1	main_z	11	main_z	67	stimuli_distractor_diamondtriangles.svg	stimuli_target_trianglesquares.svg	30	yes	44	1	789	0	0			0	0			1				0	
6.6.1	mac	2023-07-12	16:03:40	16:12:35	531324	5bc9ed7f3d893f0001bee4b6	3	1	main_z	11	advance_on_keypress_ZEE	68	stimuli_distractor_diamondtriangles.svg	stimuli_target_trianglesquares.svg	30	yes	57	0	1204	0	0			0	0			1				0	
6.6.1	mac	2023-07-12	16:03:40	16:12:38	533706	5bc9ed7f3d893f0001bee4b6	3	1	main_z	11	main_z	69	stimuli_target_trianglerectangles.svg	stimuli_distractor_diamondtriangles.svg	21	yes	44	1	553	0	0			0	0			1				0	
6.6.1	mac	2023-07-12	16:03:40	16:12:38	533706	5bc9ed7f3d893f0001bee4b6	3	1	main_z	11	advance_on_keypress_ZEE	70	stimuli_target_trianglerectangles.svg	stimuli_distractor_diamondtriangles.svg	21	yes	57	0	753	0	0			0	0			1				0	
6.6.1	mac	2023-07-12	16:03:40	16:12:40	535597	5bc9ed7f3d893f0001bee4b6	3	1	main_z	11	main_z	71	stimuli_distractor_diamondtriangles.svg	stimuli_target_diamondsquares.svg	32	yes	44	1	492	0	0			0	0			1				0	
6.6.1	mac	2023-07-12	16:03:40	16:12:40	535597	5bc9ed7f3d893f0001bee4b6	3	1	main_z	11	advance_on_keypress_ZEE	72	stimuli_distractor_diamondtriangles.svg	stimuli_target_diamondsquares.svg	32	yes	57	0	1129	0	0			0	0			1				0	
6.6.1	mac	2023-07-12	16:03:40	16:12:43	539358	5bc9ed7f3d893f0001bee4b6	3	1	main_z	11	main_z	73	stimuli_distractor_diamondtriangles.svg	stimuli_distractor_diamondtriangles.svg	40	no	0	1	2000	0	0			0	0			1				0	
6.6.1	mac	2023-07-12	16:03:40	16:12:43	539358	5bc9ed7f3d893f0001bee4b6	3	1	main_z	11	advance_on_keypress_ZEE	74	stimuli_distractor_diamondtriangles.svg	stimuli_distractor_diamondtriangles.svg	40	no	57	0	1933	0	0			0	0			1				0	
6.6.1	mac	2023-07-12	16:03:40	16:12:46	542403	5bc9ed7f3d893f0001bee4b6	3	1	main_z	11	main_z	75	stimuli_distractor_diamondtriangles.svg	stimuli_target_trianglerectangles.svg	29	yes	44	1	473	0	0			0	0			1				0	
6.6.1	mac	2023-07-12	16:03:40	16:12:46	542403	5bc9ed7f3d893f0001bee4b6	3	1	main_z	11	advance_on_keypress_ZEE	76	stimuli_distractor_diamondtriangles.svg	stimuli_target_trianglerectangles.svg	29	yes	57	0	1253	0	0			0	0			1				0	
6.6.1	mac	2023-07-12	16:03:40	16:12:49	544779	5bc9ed7f3d893f0001bee4b6	3	1	main_z	11	main_z	77	stimuli_target_squarediamonds.svg	stimuli_distractor_trianglediamonds.svg	4	yes	44	1	500	0	0			0	0			1				0	
6.6.1	mac	2023-07-12	16:03:40	16:12:49	544779	5bc9ed7f3d893f0001bee4b6	3	1	main_z	11	advance_on_keypress_ZEE	78	stimuli_target_squarediamonds.svg	stimuli_distractor_trianglediamonds.svg	4	yes	57	0	698	0	0			0	0			1				0	
6.6.1	mac	2023-07-12	16:03:40	16:12:51	546548	5bc9ed7f3d893f0001bee4b6	3	1	main_z	11	main_z	79	stimuli_target_squarediamonds.svg	stimuli_distractor_diamondtriangles.svg	8	yes	44	1	436	0	0			0	0			1				0	
6.6.1	mac	2023-07-12	16:03:40	16:12:51	546548	5bc9ed7f3d893f0001bee4b6	3	1	main_z	11	advance_on_keypress_ZEE	80	stimuli_target_squarediamonds.svg	stimuli_distractor_diamondtriangles.svg	8	yes	57	0	504	0	0			0	0			1				0	
6.6.1	mac	2023-07-12	16:03:40	16:12:52	548097	5bc9ed7f3d893f0001bee4b6	3	1	main_z	11	main_z	81	stimuli_target_squaretriangles.svg	stimuli_distractor_diamondtriangles.svg	7	yes	44	1	415	0	0			0	0			1				0	
6.6.1	mac	2023-07-12	16:03:40	16:12:52	548097	5bc9ed7f3d893f0001bee4b6	3	1	main_z	11	advance_on_keypress_ZEE	82	stimuli_target_squaretriangles.svg	stimuli_distractor_diamondtriangles.svg	7	yes	57	0	363	0	0			0	0			1				0	
6.6.1	mac	2023-07-12	16:03:40	16:12:54	549467	5bc9ed7f3d893f0001bee4b6	3	1	main_z	11	main_z	83	stimuli_target_rectangletriangles.svg	stimuli_distractor_trianglediamonds.svg	1	yes	44	1	366	0	0			0	0			1				0	
6.6.1	mac	2023-07-12	16:03:40	16:12:54	549467	5bc9ed7f3d893f0001bee4b6	3	1	main_z	11	advance_on_keypress_ZEE	84	stimuli_target_rectangletriangles.svg	stimuli_distractor_trianglediamonds.svg	1	yes	57	0	350	0	0			0	0			1				0	
6.6.1	mac	2023-07-12	16:03:40	16:12:55	550844	5bc9ed7f3d893f0001bee4b6	3	1	main_z	11	main_z	85	stimuli_target_trianglesquares.svg	stimuli_distractor_diamondtriangles.svg	22	yes	44	1	377	0	0			0	0			1				0	
6.6.1	mac	2023-07-12	16:03:40	16:12:55	550844	5bc9ed7f3d893f0001bee4b6	3	1	main_z	11	advance_on_keypress_ZEE	86	stimuli_target_trianglesquares.svg	stimuli_distractor_diamondtriangles.svg	22	yes	57	0	1195	0	0			0	0			1				0	
6.6.1	mac	2023-07-12	16:03:40	16:12:57	553120	5bc9ed7f3d893f0001bee4b6	3	1	main_z	11	main_z	87	stimuli_target_rectangletriangles.svg	stimuli_distractor_diamondtriangles.svg	5	yes	44	1	435	0	0			0	0			1				0	
6.6.1	mac	2023-07-12	16:03:40	16:12:57	553120	5bc9ed7f3d893f0001bee4b6	3	1	main_z	11	advance_on_keypress_ZEE	88	stimuli_target_rectangletriangles.svg	stimuli_distractor_diamondtriangles.svg	5	yes	57	0	627	0	0			0	0			1				0	
6.6.1	mac	2023-07-12	16:03:40	16:13:00	556386	5bc9ed7f3d893f0001bee4b6	3	1	main_z	11	main_z	89	stimuli_distractor_trianglediamonds.svg	stimuli_distractor_diamondtriangles.svg	36	no	0	1	2000	0	0			0	0			1				0	
6.6.1	mac	2023-07-12	16:03:40	16:13:00	556386	5bc9ed7f3d893f0001bee4b6	3	1	main_z	11	advance_on_keypress_ZEE	90	stimuli_distractor_trianglediamonds.svg	stimuli_distractor_diamondtriangles.svg	36	no	57	0	901	0	0			0	0			1				0	
6.6.1	mac	2023-07-12	16:03:40	16:13:02	558346	5bc9ed7f3d893f0001bee4b6	3	1	main_z	11	main_z	91	stimuli_target_trianglesquares.svg	stimuli_distractor_trianglediamonds.svg	18	yes	44	1	424	0	0			0	0			1				0	
6.6.1	mac	2023-07-12	16:03:40	16:13:02	558346	5bc9ed7f3d893f0001bee4b6	3	1	main_z	11	advance_on_keypress_ZEE	92	stimuli_target_trianglesquares.svg	stimuli_distractor_trianglediamonds.svg	18	yes	57	0	543	0	0			0	0			1				0	
6.6.1	mac	2023-07-12	16:03:40	16:13:04	560067	5bc9ed7f3d893f0001bee4b6	3	1	main_z	11	main_z	93	stimuli_distractor_trianglediamonds.svg	stimuli_target_diamondrectangles.svg	27	yes	44	1	546	0	0			0	0			1				0	
6.6.1	mac	2023-07-12	16:03:40	16:13:04	560067	5bc9ed7f3d893f0001bee4b6	3	1	main_z	11	advance_on_keypress_ZEE	94	stimuli_distractor_trianglediamonds.svg	stimuli_target_diamondrectangles.svg	27	yes	57	0	968	0	0			0	0			1				0	
6.6.1	mac	2023-07-12	16:03:40	16:13:08	563676	5bc9ed7f3d893f0001bee4b6	3	1	main_z	11	main_z	95	stimuli_distractor_diamondtriangles.svg	stimuli_distractor_trianglediamonds.svg	38	no	0	1	2000	0	0			0	0			1				0	
6.6.1	mac	2023-07-12	16:03:40	16:13:08	563676	5bc9ed7f3d893f0001bee4b6	3	1	main_z	11	advance_on_keypress_ZEE	96	stimuli_distractor_diamondtriangles.svg	stimuli_distractor_trianglediamonds.svg	38	no	57	0	318	0	0			0	0			1				0	
6.6.1	mac	2023-07-12	16:03:40	16:13:11	566625	5bc9ed7f3d893f0001bee4b6	3	1	main_z	11	main_z	97	stimuli_distractor_diamondtriangles.svg	stimuli_distractor_diamondtriangles.svg	39	no	0	1	2000	0	0			0	0			1				0	
6.6.1	mac	2023-07-12	16:03:40	16:13:11	566625	5bc9ed7f3d893f0001bee4b6	3	1	main_z	11	advance_on_keypress_ZEE	98	stimuli_distractor_diamondtriangles.svg	stimuli_distractor_diamondtriangles.svg	39	no	57	0	611	0	0			0	0			1				0	
6.6.1	mac	2023-07-12	16:03:40	16:13:12	568406	5bc9ed7f3d893f0001bee4b6	3	1	main_z	11	main_z	99	stimuli_distractor_trianglediamonds.svg	stimuli_target_diamondsquares.svg	28	yes	44	1	528	0	0			0	0			1				0	
6.6.1	mac	2023-07-12	16:03:40	16:13:12	568406	5bc9ed7f3d893f0001bee4b6	3	1	main_z	11	advance_on_keypress_ZEE	100	stimuli_distractor_trianglediamonds.svg	stimuli_target_diamondsquares.svg	28	yes	57	0	851	0	0			0	0			1				0	
6.6.1	mac	2023-07-12	16:03:40	16:13:15	571192	5bc9ed7f3d893f0001bee4b6	3	1	main_z	11	main_z	101	stimuli_distractor_diamondtriangles.svg	stimuli_target_squaretriangles.svg	15	yes	44	1	1295	0	0			0	0			1				0	
6.6.1	mac	2023-07-12	16:03:40	16:13:15	571192	5bc9ed7f3d893f0001bee4b6	3	1	main_z	11	advance_on_keypress_ZEE	102	stimuli_distractor_diamondtriangles.svg	stimuli_target_squaretriangles.svg	15	yes	57	0	523	0	0			0	0			1				0	
6.6.1	mac	2023-07-12	16:03:40	16:13:18	574350	5bc9ed7f3d893f0001bee4b6	3	1	main_z	11	main_z	103	stimuli_distractor_diamondtriangles.svg	stimuli_distractor_trianglediamonds.svg	37	no	0	1	2000	0	0			0	0			1				0	
6.6.1	mac	2023-07-12	16:03:40	16:13:18	574350	5bc9ed7f3d893f0001bee4b6	3	1	main_z	11	advance_on_keypress_ZEE	104	stimuli_distractor_diamondtriangles.svg	stimuli_distractor_trianglediamonds.svg	37	no	57	0	439	0	0			0	0			1				0	
6.6.1	mac	2023-07-12	16:03:40	16:13:20	576128	5bc9ed7f3d893f0001bee4b6	3	1	main_z	11	main_z	105	stimuli_target_trianglerectangles.svg	stimuli_distractor_diamondtriangles.svg	21	yes	44	1	711	0	0			0	0			1				0	
6.6.1	mac	2023-07-12	16:03:40	16:13:20	576128	5bc9ed7f3d893f0001bee4b6	3	1	main_z	11	advance_on_keypress_ZEE	106	stimuli_target_trianglerectangles.svg	stimuli_distractor_diamondtriangles.svg	21	yes	57	0	614	0	0			0	0			1				0	
6.6.1	mac	2023-07-12	16:03:40	16:13:22	577857	5bc9ed7f3d893f0001bee4b6	3	1	main_z	11	main_z	107	stimuli_distractor_diamondtriangles.svg	stimuli_target_trianglerectangles.svg	29	yes	44	1	470	0	0			0	0			1				0	
6.6.1	mac	2023-07-12	16:03:40	16:13:22	577857	5bc9ed7f3d893f0001bee4b6	3	1	main_z	11	advance_on_keypress_ZEE	108	stimuli_distractor_diamondtriangles.svg	stimuli_target_trianglerectangles.svg	29	yes	57	0	798	0	0			0	0			1				0	
6.6.1	mac	2023-07-12	16:03:40	16:13:24	579827	5bc9ed7f3d893f0001bee4b6	3	1	main_z	11	main_z	109	stimuli_target_diamondrectangles.svg	stimuli_distractor_trianglediamonds.svg	19	yes	44	1	542	0	0			0	0			1				0	
6.6.1	mac	2023-07-12	16:03:40	16:13:24	579827	5bc9ed7f3d893f0001bee4b6	3	1	main_z	11	advance_on_keypress_ZEE	110	stimuli_target_diamondrectangles.svg	stimuli_distractor_trianglediamonds.svg	19	yes	57	0	643	0	0			0	0			1				0	
6.6.1	mac	2023-07-12	16:03:40	16:13:27	583102	5bc9ed7f3d893f0001bee4b6	3	1	main_z	11	main_z	111	stimuli_distractor_diamondtriangles.svg	stimuli_distractor_diamondtriangles.svg	40	no	0	1	2000	0	0			0	0			1				0	
6.6.1	mac	2023-07-12	16:03:40	16:13:27	583102	5bc9ed7f3d893f0001bee4b6	3	1	main_z	11	advance_on_keypress_ZEE	112	stimuli_distractor_diamondtriangles.svg	stimuli_distractor_diamondtriangles.svg	40	no	57	0	1040	0	0			0	0			1				0	
6.6.1	mac	2023-07-12	16:03:40	16:13:29	585337	5bc9ed7f3d893f0001bee4b6	3	1	main_z	11	main_z	113	stimuli_distractor_trianglediamonds.svg	stimuli_target_squaretriangles.svg	11	yes	44	1	564	0	0			0	0			1				0	
6.6.1	mac	2023-07-12	16:03:40	16:13:29	585337	5bc9ed7f3d893f0001bee4b6	3	1	main_z	11	advance_on_keypress_ZEE	114	stimuli_distractor_trianglediamonds.svg	stimuli_target_squaretriangles.svg	11	yes	57	0	552	0	0			0	0			1				0	
6.6.1	mac	2023-07-12	16:03:40	16:13:31	587014	5bc9ed7f3d893f0001bee4b6	3	1	main_z	11	main_z	115	stimuli_distractor_diamondtriangles.svg	stimuli_target_rectangletriangles.svg	13	yes	44	1	486	0	0			0	0			1				0	
6.6.1	mac	2023-07-12	16:03:40	16:13:31	587014	5bc9ed7f3d893f0001bee4b6	3	1	main_z	11	advance_on_keypress_ZEE	116	stimuli_distractor_diamondtriangles.svg	stimuli_target_rectangletriangles.svg	13	yes	57	0	560	0	0			0	0			1				0	
6.6.1	mac	2023-07-12	16:03:40	16:13:33	588914	5bc9ed7f3d893f0001bee4b6	3	1	main_z	11	main_z	117	stimuli_distractor_diamondtriangles.svg	stimuli_target_diamondrectangles.svg	31	yes	44	1	703	0	0			0	0			1				0	
6.6.1	mac	2023-07-12	16:03:40	16:13:33	588914	5bc9ed7f3d893f0001bee4b6	3	1	main_z	11	advance_on_keypress_ZEE	118	stimuli_distractor_diamondtriangles.svg	stimuli_target_diamondrectangles.svg	31	yes	57	0	491	0	0			0	0			1				0	
6.6.1	mac	2023-07-12	16:03:40	16:13:35	591198	5bc9ed7f3d893f0001bee4b6	3	1	main_z	11	main_z	119	stimuli_distractor_trianglediamonds.svg	stimuli_target_rectanglediamonds.svg	10	yes	44	1	1169	0	0			0	0			1				0	
6.6.1	mac	2023-07-12	16:03:40	16:13:35	591198	5bc9ed7f3d893f0001bee4b6	3	1	main_z	11	advance_on_keypress_ZEE	120	stimuli_distractor_trianglediamonds.svg	stimuli_target_rectanglediamonds.svg	10	yes	57	0	477	0	0			0	0			1				0	
6.6.1	mac	2023-07-12	16:03:40	16:13:37	593063	5bc9ed7f3d893f0001bee4b6	3	1	main_z	11	main_z	121	stimuli_target_diamondsquares.svg	stimuli_distractor_trianglediamonds.svg	20	yes	44	1	748	0	0			0	0			1				0	
6.6.1	mac	2023-07-12	16:03:40	16:13:37	593063	5bc9ed7f3d893f0001bee4b6	3	1	main_z	11	advance_on_keypress_ZEE	122	stimuli_target_diamondsquares.svg	stimuli_distractor_trianglediamonds.svg	20	yes	57	0	384	0	0			0	0			1				0	
6.6.1	mac	2023-07-12	16:03:40	16:13:40	596081	5bc9ed7f3d893f0001bee4b6	3	1	main_z	11	main_z	123	stimuli_distractor_trianglediamonds.svg	stimuli_distractor_trianglediamonds.svg	33	no	0	1	2000	0	0			0	0			1				0	
6.6.1	mac	2023-07-12	16:03:40	16:13:40	596081	5bc9ed7f3d893f0001bee4b6	3	1	main_z	11	advance_on_keypress_ZEE	124	stimuli_distractor_trianglediamonds.svg	stimuli_distractor_trianglediamonds.svg	33	no	57	0	362	0	0			0	0			1				0	
6.6.1	mac	2023-07-12	16:03:40	16:13:43	599084	5bc9ed7f3d893f0001bee4b6	3	1	main_z	11	main_z	125	stimuli_distractor_trianglediamonds.svg	stimuli_distractor_trianglediamonds.svg	34	no	0	1	2000	0	0			0	0			1				0	
6.6.1	mac	2023-07-12	16:03:40	16:13:43	599084	5bc9ed7f3d893f0001bee4b6	3	1	main_z	11	advance_on_keypress_ZEE	126	stimuli_distractor_trianglediamonds.svg	stimuli_distractor_trianglediamonds.svg	34	no	57	0	589	0	0			0	0			1				0	
6.6.1	mac	2023-07-12	16:03:40	16:13:45	600853	5bc9ed7f3d893f0001bee4b6	3	1	main_z	11	main_z	127	stimuli_target_rectanglediamonds.svg	stimuli_distractor_trianglediamonds.svg	2	yes	44	1	537	0	0			0	0			1				0	
6.6.1	mac	2023-07-12	16:03:40	16:13:45	600853	5bc9ed7f3d893f0001bee4b6	3	1	main_z	11	advance_on_keypress_ZEE	128	stimuli_target_rectanglediamonds.svg	stimuli_distractor_trianglediamonds.svg	2	yes	57	0	680	0	0			0	0			1				0	
6.6.1	mac	2023-07-12	16:03:40	16:13:47	602706	5bc9ed7f3d893f0001bee4b6	3	1	main_z	11	main_z	129	stimuli_target_diamondsquares.svg	stimuli_distractor_diamondtriangles.svg	24	yes	44	1	535	0	0			0	0			1				0	
6.6.1	mac	2023-07-12	16:03:40	16:13:47	602706	5bc9ed7f3d893f0001bee4b6	3	1	main_z	11	advance_on_keypress_ZEE	130	stimuli_target_diamondsquares.svg	stimuli_distractor_diamondtriangles.svg	24	yes	57	0	490	0	0			0	0			1				0	
6.6.1	mac	2023-07-12	16:03:40	16:13:48	604243	5bc9ed7f3d893f0001bee4b6	3	1	main_z	11	main_z	131	stimuli_distractor_trianglediamonds.svg	stimuli_target_squarediamonds.svg	12	yes	44	1	422	0	0			0	0			1				0	
6.6.1	mac	2023-07-12	16:03:40	16:13:48	604243	5bc9ed7f3d893f0001bee4b6	3	1	main_z	11	advance_on_keypress_ZEE	132	stimuli_distractor_trianglediamonds.svg	stimuli_target_squarediamonds.svg	12	yes	57	0	1037	0	0			0	0			1				0	
6.6.1	mac	2023-07-12	16:03:40	16:13:50	606262	5bc9ed7f3d893f0001bee4b6	3	1	main_z	11	main_z	133	stimuli_target_squarediamonds.svg	stimuli_distractor_diamondtriangles.svg	8	yes	44	1	339	0	0			0	0			1				0	
6.6.1	mac	2023-07-12	16:03:40	16:13:50	606262	5bc9ed7f3d893f0001bee4b6	3	1	main_z	11	advance_on_keypress_ZEE	134	stimuli_target_squarediamonds.svg	stimuli_distractor_diamondtriangles.svg	8	yes	57	0	424	0	0			0	0			1				0	
6.6.1	mac	2023-07-12	16:03:40	16:13:52	607866	5bc9ed7f3d893f0001bee4b6	3	1	main_z	11	main_z	135	stimuli_distractor_trianglediamonds.svg	stimuli_target_trianglerectangles.svg	25	yes	44	1	559	0	0			0	0			1				0	
6.6.1	mac	2023-07-12	16:03:40	16:13:52	607866	5bc9ed7f3d893f0001bee4b6	3	1	main_z	11	advance_on_keypress_ZEE	136	stimuli_distractor_trianglediamonds.svg	stimuli_target_trianglerectangles.svg	25	yes	57	0	574	0	0			0	0			1				0	
6.6.1	mac	2023-07-12	16:03:40	16:13:54	609465	5bc9ed7f3d893f0001bee4b6	3	1	main_z	11	main_z	137	stimuli_distractor_diamondtriangles.svg	stimuli_target_squarediamonds.svg	16	yes	44	1	390	0	0			0	0			1				0	
6.6.1	mac	2023-07-12	16:03:40	16:13:54	609465	5bc9ed7f3d893f0001bee4b6	3	1	main_z	11	advance_on_keypress_ZEE	138	stimuli_distractor_diamondtriangles.svg	stimuli_target_squarediamonds.svg	16	yes	57	0	516	0	0			0	0			1				0	
6.6.1	mac	2023-07-12	16:03:40	16:13:55	610993	5bc9ed7f3d893f0001bee4b6	3	1	main_z	11	main_z	139	stimuli_target_diamondrectangles.svg	stimuli_distractor_diamondtriangles.svg	23	yes	44	1	384	0	0			0	0			1				0	
6.6.1	mac	2023-07-12	16:03:40	16:13:55	610993	5bc9ed7f3d893f0001bee4b6	3	1	main_z	11	advance_on_keypress_ZEE	140	stimuli_target_diamondrectangles.svg	stimuli_distractor_diamondtriangles.svg	23	yes	57	0	400	0	0			0	0			1				0	
6.6.1	mac	2023-07-12	16:03:40	16:13:56	612395	5bc9ed7f3d893f0001bee4b6	3	1	main_z	11	main_z	141	stimuli_distractor_diamondtriangles.svg	stimuli_target_trianglesquares.svg	30	yes	44	1	364	0	0			0	0			1				0	
6.6.1	mac	2023-07-12	16:03:40	16:13:56	612395	5bc9ed7f3d893f0001bee4b6	3	1	main_z	11	advance_on_keypress_ZEE	142	stimuli_distractor_diamondtriangles.svg	stimuli_target_trianglesquares.svg	30	yes	57	0	383	0	0			0	0			1				0	
6.6.1	mac	2023-07-12	16:03:40	16:13:58	613787	5bc9ed7f3d893f0001bee4b6	3	1	main_z	11	main_z	143	stimuli_target_squarediamonds.svg	stimuli_distractor_trianglediamonds.svg	4	yes	44	1	373	0	0			0	0			1				0	
6.6.1	mac	2023-07-12	16:03:40	16:13:58	613787	5bc9ed7f3d893f0001bee4b6	3	1	main_z	11	advance_on_keypress_ZEE	144	stimuli_target_squarediamonds.svg	stimuli_distractor_trianglediamonds.svg	4	yes	57	0	305	0	0			0	0			1				0	
6.6.1	mac	2023-07-12	16:03:40	16:13:59	615118	5bc9ed7f3d893f0001bee4b6	3	1	main_z	11	main_z	145	stimuli_distractor_diamondtriangles.svg	stimuli_target_diamondsquares.svg	32	yes	44	1	370	0	0			0	0			1				0	
6.6.1	mac	2023-07-12	16:03:40	16:13:59	615118	5bc9ed7f3d893f0001bee4b6	3	1	main_z	11	advance_on_keypress_ZEE	146	stimuli_distractor_diamondtriangles.svg	stimuli_target_diamondsquares.svg	32	yes	57	0	1399	0	0			0	0			1				0	
6.6.1	mac	2023-07-12	16:03:40	16:14:02	617510	5bc9ed7f3d893f0001bee4b6	3	1	main_z	11	main_z	147	stimuli_distractor_trianglediamonds.svg	stimuli_target_trianglesquares.svg	26	yes	44	1	360	0	0			0	0			1				0	
6.6.1	mac	2023-07-12	16:03:40	16:14:02	617510	5bc9ed7f3d893f0001bee4b6	3	1	main_z	11	advance_on_keypress_ZEE	148	stimuli_distractor_trianglediamonds.svg	stimuli_target_trianglesquares.svg	26	yes	57	0	336	0	0			0	0			1				0	
6.6.1	mac	2023-07-12	16:03:40	16:14:03	618810	5bc9ed7f3d893f0001bee4b6	3	1	main_z	11	main_z	149	stimuli_target_rectanglediamonds.svg	stimuli_distractor_diamondtriangles.svg	6	yes	44	1	327	0	0			0	0			1				0	
6.6.1	mac	2023-07-12	16:03:40	16:14:03	618810	5bc9ed7f3d893f0001bee4b6	3	1	main_z	11	advance_on_keypress_ZEE	150	stimuli_target_rectanglediamonds.svg	stimuli_distractor_diamondtriangles.svg	6	yes	57	0	348	0	0			0	0			1				0	
6.6.1	mac	2023-07-12	16:03:40	16:14:04	620086	5bc9ed7f3d893f0001bee4b6	3	1	main_z	11	main_z	151	stimuli_distractor_diamondtriangles.svg	stimuli_target_rectanglediamonds.svg	14	yes	44	1	287	0	0			0	0			1				0	
6.6.1	mac	2023-07-12	16:03:40	16:14:04	620086	5bc9ed7f3d893f0001bee4b6	3	1	main_z	11	advance_on_keypress_ZEE	152	stimuli_distractor_diamondtriangles.svg	stimuli_target_rectanglediamonds.svg	14	yes	57	0	352	0	0			0	0			1				0	
6.6.1	mac	2023-07-12	16:03:40	16:14:05	621388	5bc9ed7f3d893f0001bee4b6	3	1	main_z	11	main_z	153	stimuli_distractor_trianglediamonds.svg	stimuli_distractor_diamondtriangles.svg	35	no	44	0	322	0	0			0	0			1				0	
6.6.1	mac	2023-07-12	16:03:40	16:14:05	621388	5bc9ed7f3d893f0001bee4b6	3	1	main_z	11	advance_on_keypress_ZEE	154	stimuli_distractor_trianglediamonds.svg	stimuli_distractor_diamondtriangles.svg	35	no	57	0	373	0	0			0	0			1				0	
6.6.1	mac	2023-07-12	16:03:40	16:14:07	622852	5bc9ed7f3d893f0001bee4b6	3	1	main_z	11	main_z	155	stimuli_target_squaretriangles.svg	stimuli_distractor_trianglediamonds.svg	3	yes	44	1	465	0	0			0	0			1				0	
6.6.1	mac	2023-07-12	16:03:40	16:14:07	622852	5bc9ed7f3d893f0001bee4b6	3	1	main_z	11	advance_on_keypress_ZEE	156	stimuli_target_squaretriangles.svg	stimuli_distractor_trianglediamonds.svg	3	yes	57	0	1475	0	0			0	0			1				0	
6.6.1	mac	2023-07-12	16:03:40	16:14:09	625310	5bc9ed7f3d893f0001bee4b6	3	1	main_z	11	main_z	157	stimuli_target_trianglerectangles.svg	stimuli_distractor_trianglediamonds.svg	17	yes	44	1	357	0	0			0	0			1				0	
6.6.1	mac	2023-07-12	16:03:40	16:14:09	625310	5bc9ed7f3d893f0001bee4b6	3	1	main_z	11	advance_on_keypress_ZEE	158	stimuli_target_trianglerectangles.svg	stimuli_distractor_trianglediamonds.svg	17	yes	57	0	1732	0	0			0	0			1				0	
6.6.1	mac	2023-07-12	16:03:40	16:14:12	627996	5bc9ed7f3d893f0001bee4b6	3	1	main_z	11	main_z	159	stimuli_distractor_trianglediamonds.svg	stimuli_target_rectangletriangles.svg	9	yes	44	1	321	0	0			0	0			1				0	
6.6.1	mac	2023-07-12	16:03:40	16:14:12	627996	5bc9ed7f3d893f0001bee4b6	3	1	main_z	11	advance_on_keypress_ZEE	160	stimuli_distractor_trianglediamonds.svg	stimuli_target_rectangletriangles.svg	9	yes	57	0	1314	0	0			0	0			1				0	
6.6.1	mac	2023-07-12	16:03:40	16:14:12	627996	5bc9ed7f3d893f0001bee4b6	3	1	headphonecheck_intro	13	generalIntro	1	stimuli_distractor_trianglediamonds.svg	stimuli_target_rectangletriangles.svg	9	yes	Ctrl+'Q'	1	53826	0	0			0	0			1				0	