build	computer.platform	date	time	timestamp	time_elapsed_ms	subject	group	session	blockcode	blocknum	trialcode	trialnum	stimulus_left	stimulus_right	stim_index	target_present	response	correct	latency	headphonecheck_countTestTrials	headphonecheck_index	headphonecheck_testSound	headphonecheck_correctResponse	stereocheck_countTestTrials	stereocheck_index	stereocheck_testSound	stereocheck_correctResponse	DL_index	DL_soundfile	DL_leftSound	DL_rightSound	DL_dualSound	DL_choice
6.6.1	win	2023-07-08	19:01:09	19:04:34	201236	61193152f8e8156f6723e801	4	1	practice_z	5	practice_z	1	stimuli_distractor_diamondtriangles.svg	stimuli_target_trianglerectangles.svg	9	yes	0	0	2000	0	0			0	0			1				0	
6.6.1	win	2023-07-08	19:01:09	19:04:34	201236	61193152f8e8156f6723e801	4	1	practice_z	5	advance_on_keypress_ZEE	2	stimuli_distractor_diamondtriangles.svg	stimuli_target_trianglerectangles.svg	9	yes	57	0	1413	0	0			0	0			1				0	
6.6.1	win	2023-07-08	19:01:09	19:04:38	205273	61193152f8e8156f6723e801	4	1	practice_z	5	practice_z	3	stimuli_distractor_trianglediamonds.svg	stimuli_target_squarediamonds.svg	11	yes	44	1	965	0	0			0	0			1				0	
6.6.1	win	2023-07-08	19:01:09	19:04:38	205273	61193152f8e8156f6723e801	4	1	practice_z	5	advance_on_keypress_ZEE	4	stimuli_distractor_trianglediamonds.svg	stimuli_target_squarediamonds.svg	11	yes	57	0	1114	0	0			0	0			1				0	
6.6.1	win	2023-07-08	19:01:09	19:04:42	208541	61193152f8e8156f6723e801	4	1	practice_z	5	practice_z	5	stimuli_target_squarediamonds.svg	stimuli_distractor_diamondtriangles.svg	2	yes	44	1	530	0	0			0	0			1				0	
6.6.1	win	2023-07-08	19:01:09	19:04:42	208541	61193152f8e8156f6723e801	4	1	practice_z	5	advance_on_keypress_ZEE	6	stimuli_target_squarediamonds.svg	stimuli_distractor_diamondtriangles.svg	2	yes	57	0	715	0	0			0	0			1				0	
6.6.1	win	2023-07-08	19:01:09	19:04:46	212898	61193152f8e8156f6723e801	4	1	practice_z	5	practice_z	7	stimuli_distractor_diamondtriangles.svg	stimuli_distractor_trianglediamonds.svg	14	no	0	1	2000	0	0			0	0			1				0	
6.6.1	win	2023-07-08	19:01:09	19:04:46	212898	61193152f8e8156f6723e801	4	1	practice_z	5	advance_on_keypress_ZEE	8	stimuli_distractor_diamondtriangles.svg	stimuli_distractor_trianglediamonds.svg	14	no	57	0	650	0	0			0	0			1				0	
6.6.1	win	2023-07-08	19:01:09	19:04:49	216280	61193152f8e8156f6723e801	4	1	practice_z	5	practice_z	9	stimuli_distractor_trianglediamonds.svg	stimuli_target_diamondrectangles.svg	12	yes	44	1	1094	0	0			0	0			1				0	
6.6.1	win	2023-07-08	19:01:09	19:04:49	216280	61193152f8e8156f6723e801	4	1	practice_z	5	advance_on_keypress_ZEE	10	stimuli_distractor_trianglediamonds.svg	stimuli_target_diamondrectangles.svg	12	yes	57	0	1077	0	0			0	0			1				0	
6.6.1	win	2023-07-08	19:01:09	19:04:54	220990	61193152f8e8156f6723e801	4	1	practice_z	5	practice_z	11	stimuli_distractor_trianglediamonds.svg	stimuli_distractor_trianglediamonds.svg	15	no	0	1	2000	0	0			0	0			1				0	
6.6.1	win	2023-07-08	19:01:09	19:04:54	220990	61193152f8e8156f6723e801	4	1	practice_z	5	advance_on_keypress_ZEE	12	stimuli_distractor_trianglediamonds.svg	stimuli_distractor_trianglediamonds.svg	15	no	57	0	335	0	0			0	0			1				0	
6.6.1	win	2023-07-08	19:01:09	19:04:58	224962	61193152f8e8156f6723e801	4	1	practice_z	5	practice_z	13	stimuli_distractor_diamondtriangles.svg	stimuli_distractor_diamondtriangles.svg	13	no	0	1	2000	0	0			0	0			1				0	
6.6.1	win	2023-07-08	19:01:09	19:04:58	224962	61193152f8e8156f6723e801	4	1	practice_z	5	advance_on_keypress_ZEE	14	stimuli_distractor_diamondtriangles.svg	stimuli_distractor_diamondtriangles.svg	13	no	57	0	752	0	0			0	0			1				0	
6.6.1	win	2023-07-08	19:01:09	19:05:01	228305	61193152f8e8156f6723e801	4	1	practice_z	5	practice_z	15	stimuli_distractor_trianglediamonds.svg	stimuli_target_rectanglediamonds.svg	10	yes	44	1	954	0	0			0	0			1				0	
6.6.1	win	2023-07-08	19:01:09	19:05:01	228305	61193152f8e8156f6723e801	4	1	practice_z	5	advance_on_keypress_ZEE	16	stimuli_distractor_trianglediamonds.svg	stimuli_target_rectanglediamonds.svg	10	yes	57	0	701	0	0			0	0			1				0	
6.6.1	win	2023-07-08	19:01:09	19:05:06	232654	61193152f8e8156f6723e801	4	1	practice_z	5	practice_z	17	stimuli_distractor_trianglediamonds.svg	stimuli_distractor_diamondtriangles.svg	16	no	0	1	2000	0	0			0	0			1				0	
6.6.1	win	2023-07-08	19:01:09	19:05:06	232654	61193152f8e8156f6723e801	4	1	practice_z	5	advance_on_keypress_ZEE	18	stimuli_distractor_trianglediamonds.svg	stimuli_distractor_diamondtriangles.svg	16	no	57	0	591	0	0			0	0			1				0	
6.6.1	win	2023-07-08	19:01:09	19:05:09	236140	61193152f8e8156f6723e801	4	1	practice_z	5	practice_z	19	stimuli_target_rectanglediamonds.svg	stimuli_distractor_trianglediamonds.svg	4	yes	44	1	1249	0	0			0	0			1				0	
6.6.1	win	2023-07-08	19:01:09	19:05:09	236140	61193152f8e8156f6723e801	4	1	practice_z	5	advance_on_keypress_ZEE	20	stimuli_target_rectanglediamonds.svg	stimuli_distractor_trianglediamonds.svg	4	yes	57	0	551	0	0			0	0			1				0	
6.6.1	win	2023-07-08	19:01:09	19:05:12	239410	61193152f8e8156f6723e801	4	1	practice_z	5	practice_z	21	stimuli_distractor_diamondtriangles.svg	stimuli_target_diamondrectangles.svg	8	yes	44	1	1082	0	0			0	0			1				0	
6.6.1	win	2023-07-08	19:01:09	19:05:12	239410	61193152f8e8156f6723e801	4	1	practice_z	5	advance_on_keypress_ZEE	22	stimuli_distractor_diamondtriangles.svg	stimuli_target_diamondrectangles.svg	8	yes	57	0	461	0	0			0	0			1				0	
6.6.1	win	2023-07-08	19:01:09	19:05:15	242426	61193152f8e8156f6723e801	4	1	practice_z	5	practice_z	23	stimuli_target_diamondsquares.svg	stimuli_distractor_diamondtriangles.svg	3	yes	44	1	928	0	0			0	0			1				0	
6.6.1	win	2023-07-08	19:01:09	19:05:15	242426	61193152f8e8156f6723e801	4	1	practice_z	5	advance_on_keypress_ZEE	24	stimuli_target_diamondsquares.svg	stimuli_distractor_diamondtriangles.svg	3	yes	57	0	399	0	0			0	0			1				0	
6.6.1	win	2023-07-08	19:01:09	19:05:18	245483	61193152f8e8156f6723e801	4	1	practice_z	5	practice_z	25	stimuli_target_diamondsquares.svg	stimuli_distractor_trianglediamonds.svg	6	yes	44	1	1015	0	0			0	0			1				0	
6.6.1	win	2023-07-08	19:01:09	19:05:18	245483	61193152f8e8156f6723e801	4	1	practice_z	5	advance_on_keypress_ZEE	26	stimuli_target_diamondsquares.svg	stimuli_distractor_trianglediamonds.svg	6	yes	57	0	378	0	0			0	0			1				0	
6.6.1	win	2023-07-08	19:01:09	19:05:21	248392	61193152f8e8156f6723e801	4	1	practice_z	5	practice_z	27	stimuli_target_squarediamonds.svg	stimuli_distractor_trianglediamonds.svg	5	yes	44	1	904	0	0			0	0			1				0	
6.6.1	win	2023-07-08	19:01:09	19:05:21	248392	61193152f8e8156f6723e801	4	1	practice_z	5	advance_on_keypress_ZEE	28	stimuli_target_squarediamonds.svg	stimuli_distractor_trianglediamonds.svg	5	yes	57	0	295	0	0			0	0			1				0	
6.6.1	win	2023-07-08	19:01:09	19:05:24	250843	61193152f8e8156f6723e801	4	1	practice_z	5	practice_z	29	stimuli_distractor_diamondtriangles.svg	stimuli_target_rectangletriangles.svg	7	yes	44	1	514	0	0			0	0			1				0	
6.6.1	win	2023-07-08	19:01:09	19:05:24	250843	61193152f8e8156f6723e801	4	1	practice_z	5	advance_on_keypress_ZEE	30	stimuli_distractor_diamondtriangles.svg	stimuli_target_rectangletriangles.svg	7	yes	57	0	323	0	0			0	0			1				0	
6.6.1	win	2023-07-08	19:01:09	19:05:26	253278	61193152f8e8156f6723e801	4	1	practice_z	5	practice_z	31	stimuli_target_rectanglediamonds.svg	stimuli_distractor_diamondtriangles.svg	1	yes	44	1	466	0	0			0	0			1				0	
6.6.1	win	2023-07-08	19:01:09	19:05:26	253278	61193152f8e8156f6723e801	4	1	practice_z	5	advance_on_keypress_ZEE	32	stimuli_target_rectanglediamonds.svg	stimuli_distractor_diamondtriangles.svg	1	yes	57	0	226	0	0			0	0			1				0	
6.6.1	win	2023-07-08	19:01:09	19:05:38	264939	61193152f8e8156f6723e801	4	1	main_z	7	main_z	1	stimuli_distractor_diamondtriangles.svg	stimuli_target_rectanglediamonds.svg	14	yes	44	1	464	0	0			0	0			1				0	
6.6.1	win	2023-07-08	19:01:09	19:05:38	264939	61193152f8e8156f6723e801	4	1	main_z	7	advance_on_keypress_ZEE	2	stimuli_distractor_diamondtriangles.svg	stimuli_target_rectanglediamonds.svg	14	yes	57	0	452	0	0			0	0			1				0	
6.6.1	win	2023-07-08	19:01:09	19:05:41	268043	61193152f8e8156f6723e801	4	1	main_z	7	main_z	3	stimuli_distractor_trianglediamonds.svg	stimuli_distractor_trianglediamonds.svg	34	no	0	1	2000	0	0			0	0			1				0	
6.6.1	win	2023-07-08	19:01:09	19:05:41	268043	61193152f8e8156f6723e801	4	1	main_z	7	advance_on_keypress_ZEE	4	stimuli_distractor_trianglediamonds.svg	stimuli_distractor_trianglediamonds.svg	34	no	57	0	735	0	0			0	0			1				0	
6.6.1	win	2023-07-08	19:01:09	19:05:43	270140	61193152f8e8156f6723e801	4	1	main_z	7	main_z	5	stimuli_target_squarediamonds.svg	stimuli_distractor_trianglediamonds.svg	4	yes	44	1	726	0	0			0	0			1				0	
6.6.1	win	2023-07-08	19:01:09	19:05:43	270140	61193152f8e8156f6723e801	4	1	main_z	7	advance_on_keypress_ZEE	6	stimuli_target_squarediamonds.svg	stimuli_distractor_trianglediamonds.svg	4	yes	57	0	557	0	0			0	0			1				0	
6.6.1	win	2023-07-08	19:01:09	19:05:46	273332	61193152f8e8156f6723e801	4	1	main_z	7	main_z	7	stimuli_distractor_trianglediamonds.svg	stimuli_distractor_diamondtriangles.svg	36	no	0	1	2000	0	0			0	0			1				0	
6.6.1	win	2023-07-08	19:01:09	19:05:46	273332	61193152f8e8156f6723e801	4	1	main_z	7	advance_on_keypress_ZEE	8	stimuli_distractor_trianglediamonds.svg	stimuli_distractor_diamondtriangles.svg	36	no	57	0	368	0	0			0	0			1				0	
6.6.1	win	2023-07-08	19:01:09	19:05:48	275332	61193152f8e8156f6723e801	4	1	main_z	7	main_z	9	stimuli_distractor_trianglediamonds.svg	stimuli_target_trianglesquares.svg	26	yes	44	1	996	0	0			0	0			1				0	
6.6.1	win	2023-07-08	19:01:09	19:05:48	275332	61193152f8e8156f6723e801	4	1	main_z	7	advance_on_keypress_ZEE	10	stimuli_distractor_trianglediamonds.svg	stimuli_target_trianglesquares.svg	26	yes	57	0	464	0	0			0	0			1				0	
6.6.1	win	2023-07-08	19:01:09	19:05:51	278421	61193152f8e8156f6723e801	4	1	main_z	7	main_z	11	stimuli_target_rectangletriangles.svg	stimuli_distractor_trianglediamonds.svg	1	yes	0	0	2000	0	0			0	0			1				0	
6.6.1	win	2023-07-08	19:01:09	19:05:51	278421	61193152f8e8156f6723e801	4	1	main_z	7	advance_on_keypress_ZEE	12	stimuli_target_rectangletriangles.svg	stimuli_distractor_trianglediamonds.svg	1	yes	57	0	341	0	0			0	0			1				0	
6.6.1	win	2023-07-08	19:01:09	19:05:54	281391	61193152f8e8156f6723e801	4	1	main_z	7	main_z	13	stimuli_distractor_diamondtriangles.svg	stimuli_distractor_diamondtriangles.svg	39	no	0	1	2000	0	0			0	0			1				0	
6.6.1	win	2023-07-08	19:01:09	19:05:54	281391	61193152f8e8156f6723e801	4	1	main_z	7	advance_on_keypress_ZEE	14	stimuli_distractor_diamondtriangles.svg	stimuli_distractor_diamondtriangles.svg	39	no	57	0	308	0	0			0	0			1				0	
6.6.1	win	2023-07-08	19:01:09	19:05:56	283500	61193152f8e8156f6723e801	4	1	main_z	7	main_z	15	stimuli_distractor_diamondtriangles.svg	stimuli_target_diamondrectangles.svg	31	yes	44	1	1156	0	0			0	0			1				0	
6.6.1	win	2023-07-08	19:01:09	19:05:56	283500	61193152f8e8156f6723e801	4	1	main_z	7	advance_on_keypress_ZEE	16	stimuli_distractor_diamondtriangles.svg	stimuli_target_diamondrectangles.svg	31	yes	57	0	415	0	0			0	0			1				0	
6.6.1	win	2023-07-08	19:01:09	19:05:58	285271	61193152f8e8156f6723e801	4	1	main_z	7	main_z	17	stimuli_target_diamondrectangles.svg	stimuli_distractor_trianglediamonds.svg	19	yes	44	1	707	0	0			0	0			1				0	
6.6.1	win	2023-07-08	19:01:09	19:05:58	285271	61193152f8e8156f6723e801	4	1	main_z	7	advance_on_keypress_ZEE	18	stimuli_target_diamondrectangles.svg	stimuli_distractor_trianglediamonds.svg	19	yes	57	0	328	0	0			0	0			1				0	
6.6.1	win	2023-07-08	19:01:09	19:06:00	287001	61193152f8e8156f6723e801	4	1	main_z	7	main_z	19	stimuli_distractor_trianglediamonds.svg	stimuli_target_trianglerectangles.svg	25	yes	44	1	769	0	0			0	0			1				0	
6.6.1	win	2023-07-08	19:01:09	19:06:00	287001	61193152f8e8156f6723e801	4	1	main_z	7	advance_on_keypress_ZEE	20	stimuli_distractor_trianglediamonds.svg	stimuli_target_trianglerectangles.svg	25	yes	57	0	169	0	0			0	0			1				0	
6.6.1	win	2023-07-08	19:01:09	19:06:02	288596	61193152f8e8156f6723e801	4	1	main_z	7	main_z	21	stimuli_distractor_diamondtriangles.svg	stimuli_target_rectangletriangles.svg	13	yes	44	1	779	0	0			0	0			1				0	
6.6.1	win	2023-07-08	19:01:09	19:06:02	288596	61193152f8e8156f6723e801	4	1	main_z	7	advance_on_keypress_ZEE	22	stimuli_distractor_diamondtriangles.svg	stimuli_target_rectangletriangles.svg	13	yes	57	0	257	0	0			0	0			1				0	
6.6.1	win	2023-07-08	19:01:09	19:06:03	290135	61193152f8e8156f6723e801	4	1	main_z	7	main_z	23	stimuli_target_squaretriangles.svg	stimuli_distractor_diamondtriangles.svg	7	yes	44	1	649	0	0			0	0			1				0	
6.6.1	win	2023-07-08	19:01:09	19:06:03	290135	61193152f8e8156f6723e801	4	1	main_z	7	advance_on_keypress_ZEE	24	stimuli_target_squaretriangles.svg	stimuli_distractor_diamondtriangles.svg	7	yes	57	0	178	0	0			0	0			1				0	
6.6.1	win	2023-07-08	19:01:09	19:06:06	292954	61193152f8e8156f6723e801	4	1	main_z	7	main_z	25	stimuli_distractor_diamondtriangles.svg	stimuli_distractor_trianglediamonds.svg	38	no	0	1	2000	0	0			0	0			1				0	
6.6.1	win	2023-07-08	19:01:09	19:06:06	292954	61193152f8e8156f6723e801	4	1	main_z	7	advance_on_keypress_ZEE	26	stimuli_distractor_diamondtriangles.svg	stimuli_distractor_trianglediamonds.svg	38	no	57	0	241	0	0			0	0			1				0	
6.6.1	win	2023-07-08	19:01:09	19:06:09	295824	61193152f8e8156f6723e801	4	1	main_z	7	main_z	27	stimuli_distractor_diamondtriangles.svg	stimuli_distractor_diamondtriangles.svg	40	no	0	1	2000	0	0			0	0			1				0	
6.6.1	win	2023-07-08	19:01:09	19:06:09	295824	61193152f8e8156f6723e801	4	1	main_z	7	advance_on_keypress_ZEE	28	stimuli_distractor_diamondtriangles.svg	stimuli_distractor_diamondtriangles.svg	40	no	57	0	614	0	0			0	0			1				0	
6.6.1	win	2023-07-08	19:01:09	19:06:11	297897	61193152f8e8156f6723e801	4	1	main_z	7	main_z	29	stimuli_distractor_trianglediamonds.svg	stimuli_target_diamondrectangles.svg	27	yes	44	1	837	0	0			0	0			1				0	
6.6.1	win	2023-07-08	19:01:09	19:06:11	297897	61193152f8e8156f6723e801	4	1	main_z	7	advance_on_keypress_ZEE	30	stimuli_distractor_trianglediamonds.svg	stimuli_target_diamondrectangles.svg	27	yes	57	0	363	0	0			0	0			1				0	
6.6.1	win	2023-07-08	19:01:09	19:06:14	300896	61193152f8e8156f6723e801	4	1	main_z	7	main_z	31	stimuli_distractor_diamondtriangles.svg	stimuli_target_squaretriangles.svg	15	yes	0	0	2000	0	0			0	0			1				0	
6.6.1	win	2023-07-08	19:01:09	19:06:14	300896	61193152f8e8156f6723e801	4	1	main_z	7	advance_on_keypress_ZEE	32	stimuli_distractor_diamondtriangles.svg	stimuli_target_squaretriangles.svg	15	yes	57	0	382	0	0			0	0			1				0	
6.6.1	win	2023-07-08	19:01:09	19:06:16	302642	61193152f8e8156f6723e801	4	1	main_z	7	main_z	33	stimuli_target_trianglerectangles.svg	stimuli_distractor_diamondtriangles.svg	21	yes	44	1	726	0	0			0	0			1				0	
6.6.1	win	2023-07-08	19:01:09	19:06:16	302642	61193152f8e8156f6723e801	4	1	main_z	7	advance_on_keypress_ZEE	34	stimuli_target_trianglerectangles.svg	stimuli_distractor_diamondtriangles.svg	21	yes	57	0	316	0	0			0	0			1				0	
6.6.1	win	2023-07-08	19:01:09	19:06:19	305601	61193152f8e8156f6723e801	4	1	main_z	7	main_z	35	stimuli_distractor_trianglediamonds.svg	stimuli_distractor_diamondtriangles.svg	35	no	0	1	2000	0	0			0	0			1				0	
6.6.1	win	2023-07-08	19:01:09	19:06:19	305601	61193152f8e8156f6723e801	4	1	main_z	7	advance_on_keypress_ZEE	36	stimuli_distractor_trianglediamonds.svg	stimuli_distractor_diamondtriangles.svg	35	no	57	0	361	0	0			0	0			1				0	
6.6.1	win	2023-07-08	19:01:09	19:06:20	307267	61193152f8e8156f6723e801	4	1	main_z	7	main_z	37	stimuli_target_trianglerectangles.svg	stimuli_distractor_trianglediamonds.svg	17	yes	44	1	679	0	0			0	0			1				0	
6.6.1	win	2023-07-08	19:01:09	19:06:20	307267	61193152f8e8156f6723e801	4	1	main_z	7	advance_on_keypress_ZEE	38	stimuli_target_trianglerectangles.svg	stimuli_distractor_trianglediamonds.svg	17	yes	57	0	301	0	0			0	0			1				0	
6.6.1	win	2023-07-08	19:01:09	19:06:22	308945	61193152f8e8156f6723e801	4	1	main_z	7	main_z	39	stimuli_target_diamondsquares.svg	stimuli_distractor_diamondtriangles.svg	24	yes	44	1	739	0	0			0	0			1				0	
6.6.1	win	2023-07-08	19:01:09	19:06:22	308945	61193152f8e8156f6723e801	4	1	main_z	7	advance_on_keypress_ZEE	40	stimuli_target_diamondsquares.svg	stimuli_distractor_diamondtriangles.svg	24	yes	57	0	206	0	0			0	0			1				0	
6.6.1	win	2023-07-08	19:01:09	19:06:23	310501	61193152f8e8156f6723e801	4	1	main_z	7	main_z	41	stimuli_target_diamondsquares.svg	stimuli_distractor_trianglediamonds.svg	20	yes	44	1	710	0	0			0	0			1				0	
6.6.1	win	2023-07-08	19:01:09	19:06:23	310501	61193152f8e8156f6723e801	4	1	main_z	7	advance_on_keypress_ZEE	42	stimuli_target_diamondsquares.svg	stimuli_distractor_trianglediamonds.svg	20	yes	57	0	194	0	0			0	0			1				0	
6.6.1	win	2023-07-08	19:01:09	19:06:25	312048	61193152f8e8156f6723e801	4	1	main_z	7	main_z	43	stimuli_distractor_diamondtriangles.svg	stimuli_target_trianglerectangles.svg	29	yes	44	1	722	0	0			0	0			1				0	
6.6.1	win	2023-07-08	19:01:09	19:06:25	312048	61193152f8e8156f6723e801	4	1	main_z	7	advance_on_keypress_ZEE	44	stimuli_distractor_diamondtriangles.svg	stimuli_target_trianglerectangles.svg	29	yes	57	0	158	0	0			0	0			1				0	
6.6.1	win	2023-07-08	19:01:09	19:06:27	313635	61193152f8e8156f6723e801	4	1	main_z	7	main_z	45	stimuli_distractor_diamondtriangles.svg	stimuli_distractor_trianglediamonds.svg	37	no	44	0	790	0	0			0	0			1				0	
6.6.1	win	2023-07-08	19:01:09	19:06:27	313635	61193152f8e8156f6723e801	4	1	main_z	7	advance_on_keypress_ZEE	46	stimuli_distractor_diamondtriangles.svg	stimuli_distractor_trianglediamonds.svg	37	no	57	0	93	0	0			0	0			1				0	
6.6.1	win	2023-07-08	19:01:09	19:06:28	315418	61193152f8e8156f6723e801	4	1	main_z	7	main_z	47	stimuli_distractor_trianglediamonds.svg	stimuli_target_squaretriangles.svg	11	yes	44	1	1055	0	0			0	0			1				0	
6.6.1	win	2023-07-08	19:01:09	19:06:28	315418	61193152f8e8156f6723e801	4	1	main_z	7	advance_on_keypress_ZEE	48	stimuli_distractor_trianglediamonds.svg	stimuli_target_squaretriangles.svg	11	yes	57	0	236	0	0			0	0			1				0	
6.6.1	win	2023-07-08	19:01:09	19:06:30	316974	61193152f8e8156f6723e801	4	1	main_z	7	main_z	49	stimuli_distractor_diamondtriangles.svg	stimuli_target_squarediamonds.svg	16	yes	44	1	675	0	0			0	0			1				0	
6.6.1	win	2023-07-08	19:01:09	19:06:30	316974	61193152f8e8156f6723e801	4	1	main_z	7	advance_on_keypress_ZEE	50	stimuli_distractor_diamondtriangles.svg	stimuli_target_squarediamonds.svg	16	yes	57	0	241	0	0			0	0			1				0	
6.6.1	win	2023-07-08	19:01:09	19:06:32	318726	61193152f8e8156f6723e801	4	1	main_z	7	main_z	51	stimuli_distractor_diamondtriangles.svg	stimuli_target_diamondsquares.svg	32	yes	44	1	875	0	0			0	0			1				0	
6.6.1	win	2023-07-08	19:01:09	19:06:32	318726	61193152f8e8156f6723e801	4	1	main_z	7	advance_on_keypress_ZEE	52	stimuli_distractor_diamondtriangles.svg	stimuli_target_diamondsquares.svg	32	yes	57	0	177	0	0			0	0			1				0	
6.6.1	win	2023-07-08	19:01:09	19:06:35	321536	61193152f8e8156f6723e801	4	1	main_z	7	main_z	53	stimuli_distractor_trianglediamonds.svg	stimuli_distractor_trianglediamonds.svg	33	no	0	1	2000	0	0			0	0			1				0	
6.6.1	win	2023-07-08	19:01:09	19:06:35	321536	61193152f8e8156f6723e801	4	1	main_z	7	advance_on_keypress_ZEE	54	stimuli_distractor_trianglediamonds.svg	stimuli_distractor_trianglediamonds.svg	33	no	57	0	427	0	0			0	0			1				0	
6.6.1	win	2023-07-08	19:01:09	19:06:36	323287	61193152f8e8156f6723e801	4	1	main_z	7	main_z	55	stimuli_distractor_trianglediamonds.svg	stimuli_target_diamondsquares.svg	28	yes	44	1	698	0	0			0	0			1				0	
6.6.1	win	2023-07-08	19:01:09	19:06:36	323287	61193152f8e8156f6723e801	4	1	main_z	7	advance_on_keypress_ZEE	56	stimuli_distractor_trianglediamonds.svg	stimuli_target_diamondsquares.svg	28	yes	57	0	273	0	0			0	0			1				0	
6.6.1	win	2023-07-08	19:01:09	19:06:38	324901	61193152f8e8156f6723e801	4	1	main_z	7	main_z	57	stimuli_target_trianglesquares.svg	stimuli_distractor_trianglediamonds.svg	18	yes	44	1	710	0	0			0	0			1				0	
6.6.1	win	2023-07-08	19:01:09	19:06:38	324901	61193152f8e8156f6723e801	4	1	main_z	7	advance_on_keypress_ZEE	58	stimuli_target_trianglesquares.svg	stimuli_distractor_trianglediamonds.svg	18	yes	57	0	188	0	0			0	0			1				0	
6.6.1	win	2023-07-08	19:01:09	19:06:40	326733	61193152f8e8156f6723e801	4	1	main_z	7	main_z	59	stimuli_target_rectanglediamonds.svg	stimuli_distractor_diamondtriangles.svg	6	yes	44	1	1007	0	0			0	0			1				0	
6.6.1	win	2023-07-08	19:01:09	19:06:40	326733	61193152f8e8156f6723e801	4	1	main_z	7	advance_on_keypress_ZEE	60	stimuli_target_rectanglediamonds.svg	stimuli_distractor_diamondtriangles.svg	6	yes	57	0	76	0	0			0	0			1				0	
6.6.1	win	2023-07-08	19:01:09	19:06:42	328541	61193152f8e8156f6723e801	4	1	main_z	7	main_z	61	stimuli_target_rectangletriangles.svg	stimuli_distractor_diamondtriangles.svg	5	yes	44	1	1097	0	0			0	0			1				0	
6.6.1	win	2023-07-08	19:01:09	19:06:42	328541	61193152f8e8156f6723e801	4	1	main_z	7	advance_on_keypress_ZEE	62	stimuli_target_rectangletriangles.svg	stimuli_distractor_diamondtriangles.svg	5	yes	57	0	141	0	0			0	0			1				0	
6.6.1	win	2023-07-08	19:01:09	19:06:43	330142	61193152f8e8156f6723e801	4	1	main_z	7	main_z	63	stimuli_target_squarediamonds.svg	stimuli_distractor_diamondtriangles.svg	8	yes	44	1	829	0	0			0	0			1				0	
6.6.1	win	2023-07-08	19:01:09	19:06:43	330142	61193152f8e8156f6723e801	4	1	main_z	7	advance_on_keypress_ZEE	64	stimuli_target_squarediamonds.svg	stimuli_distractor_diamondtriangles.svg	8	yes	57	0	146	0	0			0	0			1				0	
6.6.1	win	2023-07-08	19:01:09	19:06:45	331897	61193152f8e8156f6723e801	4	1	main_z	7	main_z	65	stimuli_target_squaretriangles.svg	stimuli_distractor_trianglediamonds.svg	3	yes	44	1	982	0	0			0	0			1				0	
6.6.1	win	2023-07-08	19:01:09	19:06:45	331897	61193152f8e8156f6723e801	4	1	main_z	7	advance_on_keypress_ZEE	66	stimuli_target_squaretriangles.svg	stimuli_distractor_trianglediamonds.svg	3	yes	57	0	100	0	0			0	0			1				0	
6.6.1	win	2023-07-08	19:01:09	19:06:46	333385	61193152f8e8156f6723e801	4	1	main_z	7	main_z	67	stimuli_distractor_trianglediamonds.svg	stimuli_target_squarediamonds.svg	12	yes	44	1	752	0	0			0	0			1				0	
6.6.1	win	2023-07-08	19:01:09	19:06:46	333385	61193152f8e8156f6723e801	4	1	main_z	7	advance_on_keypress_ZEE	68	stimuli_distractor_trianglediamonds.svg	stimuli_target_squarediamonds.svg	12	yes	57	0	130	0	0			0	0			1				0	
6.6.1	win	2023-07-08	19:01:09	19:06:48	335034	61193152f8e8156f6723e801	4	1	main_z	7	main_z	69	stimuli_distractor_trianglediamonds.svg	stimuli_target_rectangletriangles.svg	9	yes	44	1	881	0	0			0	0			1				0	
6.6.1	win	2023-07-08	19:01:09	19:06:48	335034	61193152f8e8156f6723e801	4	1	main_z	7	advance_on_keypress_ZEE	70	stimuli_distractor_trianglediamonds.svg	stimuli_target_rectangletriangles.svg	9	yes	57	0	65	0	0			0	0			1				0	
6.6.1	win	2023-07-08	19:01:09	19:06:49	336475	61193152f8e8156f6723e801	4	1	main_z	7	main_z	71	stimuli_distractor_diamondtriangles.svg	stimuli_target_trianglesquares.svg	30	yes	44	1	721	0	0			0	0			1				0	
6.6.1	win	2023-07-08	19:01:09	19:06:49	336475	61193152f8e8156f6723e801	4	1	main_z	7	advance_on_keypress_ZEE	72	stimuli_distractor_diamondtriangles.svg	stimuli_target_trianglesquares.svg	30	yes	57	0	116	0	0			0	0			1				0	
6.6.1	win	2023-07-08	19:01:09	19:06:52	338850	61193152f8e8156f6723e801	4	1	main_z	7	main_z	73	stimuli_distractor_trianglediamonds.svg	stimuli_target_rectanglediamonds.svg	10	yes	44	1	1612	0	0			0	0			1				0	
6.6.1	win	2023-07-08	19:01:09	19:06:52	338850	61193152f8e8156f6723e801	4	1	main_z	7	advance_on_keypress_ZEE	74	stimuli_distractor_trianglediamonds.svg	stimuli_target_rectanglediamonds.svg	10	yes	57	0	92	0	0			0	0			1				0	
6.6.1	win	2023-07-08	19:01:09	19:06:53	340121	61193152f8e8156f6723e801	4	1	main_z	7	main_z	75	stimuli_target_trianglesquares.svg	stimuli_distractor_diamondtriangles.svg	22	yes	44	1	547	0	0			0	0			1				0	
6.6.1	win	2023-07-08	19:01:09	19:06:53	340121	61193152f8e8156f6723e801	4	1	main_z	7	advance_on_keypress_ZEE	76	stimuli_target_trianglesquares.svg	stimuli_distractor_diamondtriangles.svg	22	yes	57	0	153	0	0			0	0			1				0	
6.6.1	win	2023-07-08	19:01:09	19:06:54	341427	61193152f8e8156f6723e801	4	1	main_z	7	main_z	77	stimuli_target_diamondrectangles.svg	stimuli_distractor_diamondtriangles.svg	23	yes	44	1	512	0	0			0	0			1				0	
6.6.1	win	2023-07-08	19:01:09	19:06:54	341427	61193152f8e8156f6723e801	4	1	main_z	7	advance_on_keypress_ZEE	78	stimuli_target_diamondrectangles.svg	stimuli_distractor_diamondtriangles.svg	23	yes	57	0	65	0	0			0	0			1				0	
6.6.1	win	2023-07-08	19:01:09	19:06:57	344009	61193152f8e8156f6723e801	4	1	main_z	7	main_z	79	stimuli_target_rectanglediamonds.svg	stimuli_distractor_trianglediamonds.svg	2	yes	44	1	1865	0	0			0	0			1				0	
6.6.1	win	2023-07-08	19:01:09	19:06:57	344009	61193152f8e8156f6723e801	4	1	main_z	7	advance_on_keypress_ZEE	80	stimuli_target_rectanglediamonds.svg	stimuli_distractor_trianglediamonds.svg	2	yes	57	0	66	0	0			0	0			1				0	
6.6.1	win	2023-07-08	19:01:09	19:07:00	346713	61193152f8e8156f6723e801	4	1	main_z	7	main_z	81	stimuli_distractor_diamondtriangles.svg	stimuli_distractor_diamondtriangles.svg	39	no	0	1	2000	0	0			0	0			1				0	
6.6.1	win	2023-07-08	19:01:09	19:07:00	346713	61193152f8e8156f6723e801	4	1	main_z	7	advance_on_keypress_ZEE	82	stimuli_distractor_diamondtriangles.svg	stimuli_distractor_diamondtriangles.svg	39	no	57	0	388	0	0			0	0			1				0	
6.6.1	win	2023-07-08	19:01:09	19:07:02	348527	61193152f8e8156f6723e801	4	1	main_z	7	main_z	83	stimuli_target_diamondrectangles.svg	stimuli_distractor_trianglediamonds.svg	19	yes	44	1	777	0	0			0	0			1				0	
6.6.1	win	2023-07-08	19:01:09	19:07:02	348527	61193152f8e8156f6723e801	4	1	main_z	7	advance_on_keypress_ZEE	84	stimuli_target_diamondrectangles.svg	stimuli_distractor_trianglediamonds.svg	19	yes	57	0	41	0	0			0	0			1				0	
6.6.1	win	2023-07-08	19:01:09	19:07:03	350138	61193152f8e8156f6723e801	4	1	main_z	7	main_z	85	stimuli_distractor_trianglediamonds.svg	stimuli_target_squarediamonds.svg	12	yes	44	1	937	0	0			0	0			1				0	
6.6.1	win	2023-07-08	19:01:09	19:07:03	350138	61193152f8e8156f6723e801	4	1	main_z	7	advance_on_keypress_ZEE	86	stimuli_distractor_trianglediamonds.svg	stimuli_target_squarediamonds.svg	12	yes	57	0	55	0	0			0	0			1				0	
6.6.1	win	2023-07-08	19:01:09	19:07:05	351636	61193152f8e8156f6723e801	4	1	main_z	7	main_z	87	stimuli_distractor_trianglediamonds.svg	stimuli_target_diamondsquares.svg	28	yes	44	1	798	0	0			0	0			1				0	
6.6.1	win	2023-07-08	19:01:09	19:07:05	351636	61193152f8e8156f6723e801	4	1	main_z	7	advance_on_keypress_ZEE	88	stimuli_distractor_trianglediamonds.svg	stimuli_target_diamondsquares.svg	28	yes	57	0	45	0	0			0	0			1				0	
6.6.1	win	2023-07-08	19:01:09	19:07:06	353079	61193152f8e8156f6723e801	4	1	main_z	7	main_z	89	stimuli_distractor_diamondtriangles.svg	stimuli_target_trianglerectangles.svg	29	yes	44	1	757	0	0			0	0			1				0	
6.6.1	win	2023-07-08	19:01:09	19:07:06	353079	61193152f8e8156f6723e801	4	1	main_z	7	advance_on_keypress_ZEE	90	stimuli_distractor_diamondtriangles.svg	stimuli_target_trianglerectangles.svg	29	yes	57	0	44	0	0			0	0			1				0	
6.6.1	win	2023-07-08	19:01:09	19:07:09	355757	61193152f8e8156f6723e801	4	1	main_z	7	main_z	91	stimuli_distractor_trianglediamonds.svg	stimuli_distractor_diamondtriangles.svg	35	no	0	1	2000	0	0			0	0			1				0	
6.6.1	win	2023-07-08	19:01:09	19:07:09	355757	61193152f8e8156f6723e801	4	1	main_z	7	advance_on_keypress_ZEE	92	stimuli_distractor_trianglediamonds.svg	stimuli_distractor_diamondtriangles.svg	35	no	57	0	382	0	0			0	0			1				0	
6.6.1	win	2023-07-08	19:01:09	19:07:10	357487	61193152f8e8156f6723e801	4	1	main_z	7	main_z	93	stimuli_distractor_diamondtriangles.svg	stimuli_target_rectanglediamonds.svg	14	yes	44	1	694	0	0			0	0			1				0	
6.6.1	win	2023-07-08	19:01:09	19:07:10	357487	61193152f8e8156f6723e801	4	1	main_z	7	advance_on_keypress_ZEE	94	stimuli_distractor_diamondtriangles.svg	stimuli_target_rectanglediamonds.svg	14	yes	57	0	67	0	0			0	0			1				0	
6.6.1	win	2023-07-08	19:01:09	19:07:12	358850	61193152f8e8156f6723e801	4	1	main_z	7	main_z	95	stimuli_target_trianglesquares.svg	stimuli_distractor_trianglediamonds.svg	18	yes	44	1	655	0	0			0	0			1				0	
6.6.1	win	2023-07-08	19:01:09	19:07:12	358850	61193152f8e8156f6723e801	4	1	main_z	7	advance_on_keypress_ZEE	96	stimuli_target_trianglesquares.svg	stimuli_distractor_trianglediamonds.svg	18	yes	57	0	72	0	0			0	0			1				0	
6.6.1	win	2023-07-08	19:01:09	19:07:13	360250	61193152f8e8156f6723e801	4	1	main_z	7	main_z	97	stimuli_target_rectangletriangles.svg	stimuli_distractor_trianglediamonds.svg	1	yes	44	1	686	0	0			0	0			1				0	
6.6.1	win	2023-07-08	19:01:09	19:07:13	360250	61193152f8e8156f6723e801	4	1	main_z	7	advance_on_keypress_ZEE	98	stimuli_target_rectangletriangles.svg	stimuli_distractor_trianglediamonds.svg	1	yes	57	0	55	0	0			0	0			1				0	
6.6.1	win	2023-07-08	19:01:09	19:07:15	361597	61193152f8e8156f6723e801	4	1	main_z	7	main_z	99	stimuli_distractor_diamondtriangles.svg	stimuli_target_diamondrectangles.svg	31	yes	44	1	649	0	0			0	0			1				0	
6.6.1	win	2023-07-08	19:01:09	19:07:15	361597	61193152f8e8156f6723e801	4	1	main_z	7	advance_on_keypress_ZEE	100	stimuli_distractor_diamondtriangles.svg	stimuli_target_diamondrectangles.svg	31	yes	57	0	35	0	0			0	0			1				0	
6.6.1	win	2023-07-08	19:01:09	19:07:16	363009	61193152f8e8156f6723e801	4	1	main_z	7	main_z	101	stimuli_target_trianglesquares.svg	stimuli_distractor_diamondtriangles.svg	22	yes	44	1	726	0	0			0	0			1				0	
6.6.1	win	2023-07-08	19:01:09	19:07:16	363009	61193152f8e8156f6723e801	4	1	main_z	7	advance_on_keypress_ZEE	102	stimuli_target_trianglesquares.svg	stimuli_distractor_diamondtriangles.svg	22	yes	57	0	73	0	0			0	0			1				0	
6.6.1	win	2023-07-08	19:01:09	19:07:17	364450	61193152f8e8156f6723e801	4	1	main_z	7	main_z	103	stimuli_target_diamondsquares.svg	stimuli_distractor_trianglediamonds.svg	20	yes	44	1	732	0	0			0	0			1				0	
6.6.1	win	2023-07-08	19:01:09	19:07:17	364450	61193152f8e8156f6723e801	4	1	main_z	7	advance_on_keypress_ZEE	104	stimuli_target_diamondsquares.svg	stimuli_distractor_trianglediamonds.svg	20	yes	57	0	30	0	0			0	0			1				0	
6.6.1	win	2023-07-08	19:01:09	19:07:19	366205	61193152f8e8156f6723e801	4	1	main_z	7	main_z	105	stimuli_target_squarediamonds.svg	stimuli_distractor_trianglediamonds.svg	4	yes	44	1	1069	0	0			0	0			1				0	
6.6.1	win	2023-07-08	19:01:09	19:07:19	366205	61193152f8e8156f6723e801	4	1	main_z	7	advance_on_keypress_ZEE	106	stimuli_target_squarediamonds.svg	stimuli_distractor_trianglediamonds.svg	4	yes	57	0	76	0	0			0	0			1				0	
6.6.1	win	2023-07-08	19:01:09	19:07:21	367854	61193152f8e8156f6723e801	4	1	main_z	7	main_z	107	stimuli_target_squaretriangles.svg	stimuli_distractor_trianglediamonds.svg	3	yes	44	1	933	0	0			0	0			1				0	
6.6.1	win	2023-07-08	19:01:09	19:07:21	367854	61193152f8e8156f6723e801	4	1	main_z	7	advance_on_keypress_ZEE	108	stimuli_target_squaretriangles.svg	stimuli_distractor_trianglediamonds.svg	3	yes	57	0	56	0	0			0	0			1				0	
6.6.1	win	2023-07-08	19:01:09	19:07:22	369345	61193152f8e8156f6723e801	4	1	main_z	7	main_z	109	stimuli_distractor_trianglediamonds.svg	stimuli_target_trianglerectangles.svg	25	yes	44	1	789	0	0			0	0			1				0	
6.6.1	win	2023-07-08	19:01:09	19:07:22	369345	61193152f8e8156f6723e801	4	1	main_z	7	advance_on_keypress_ZEE	110	stimuli_distractor_trianglediamonds.svg	stimuli_target_trianglerectangles.svg	25	yes	57	0	118	0	0			0	0			1				0	
6.6.1	win	2023-07-08	19:01:09	19:07:24	371134	61193152f8e8156f6723e801	4	1	main_z	7	main_z	111	stimuli_distractor_diamondtriangles.svg	stimuli_target_rectangletriangles.svg	13	yes	44	1	1026	0	0			0	0			1				0	
6.6.1	win	2023-07-08	19:01:09	19:07:24	371134	61193152f8e8156f6723e801	4	1	main_z	7	advance_on_keypress_ZEE	112	stimuli_distractor_diamondtriangles.svg	stimuli_target_rectangletriangles.svg	13	yes	57	0	73	0	0			0	0			1				0	
6.6.1	win	2023-07-08	19:01:09	19:07:26	372709	61193152f8e8156f6723e801	4	1	main_z	7	main_z	113	stimuli_distractor_diamondtriangles.svg	stimuli_target_trianglesquares.svg	30	yes	44	1	866	0	0			0	0			1				0	
6.6.1	win	2023-07-08	19:01:09	19:07:26	372709	61193152f8e8156f6723e801	4	1	main_z	7	advance_on_keypress_ZEE	114	stimuli_distractor_diamondtriangles.svg	stimuli_target_trianglesquares.svg	30	yes	57	0	84	0	0			0	0			1				0	
6.6.1	win	2023-07-08	19:01:09	19:07:27	374285	61193152f8e8156f6723e801	4	1	main_z	7	main_z	115	stimuli_distractor_trianglediamonds.svg	stimuli_target_squaretriangles.svg	11	yes	44	1	840	0	0			0	0			1				0	
6.6.1	win	2023-07-08	19:01:09	19:07:27	374285	61193152f8e8156f6723e801	4	1	main_z	7	advance_on_keypress_ZEE	116	stimuli_distractor_trianglediamonds.svg	stimuli_target_squaretriangles.svg	11	yes	57	0	91	0	0			0	0			1				0	
6.6.1	win	2023-07-08	19:01:09	19:07:30	377014	61193152f8e8156f6723e801	4	1	main_z	7	main_z	117	stimuli_distractor_trianglediamonds.svg	stimuli_distractor_trianglediamonds.svg	33	no	0	1	2000	0	0			0	0			1				0	
6.6.1	win	2023-07-08	19:01:09	19:07:30	377014	61193152f8e8156f6723e801	4	1	main_z	7	advance_on_keypress_ZEE	118	stimuli_distractor_trianglediamonds.svg	stimuli_distractor_trianglediamonds.svg	33	no	57	0	333	0	0			0	0			1				0	
6.6.1	win	2023-07-08	19:01:09	19:07:32	378747	61193152f8e8156f6723e801	4	1	main_z	7	main_z	119	stimuli_target_squarediamonds.svg	stimuli_distractor_diamondtriangles.svg	8	yes	44	1	747	0	0			0	0			1				0	
6.6.1	win	2023-07-08	19:01:09	19:07:32	378747	61193152f8e8156f6723e801	4	1	main_z	7	advance_on_keypress_ZEE	120	stimuli_target_squarediamonds.svg	stimuli_distractor_diamondtriangles.svg	8	yes	57	0	81	0	0			0	0			1				0	
6.6.1	win	2023-07-08	19:01:09	19:07:34	381468	61193152f8e8156f6723e801	4	1	main_z	7	main_z	121	stimuli_distractor_trianglediamonds.svg	stimuli_distractor_trianglediamonds.svg	34	no	0	1	2000	0	0			0	0			1				0	
6.6.1	win	2023-07-08	19:01:09	19:07:34	381468	61193152f8e8156f6723e801	4	1	main_z	7	advance_on_keypress_ZEE	122	stimuli_distractor_trianglediamonds.svg	stimuli_distractor_trianglediamonds.svg	34	no	57	0	414	0	0			0	0			1				0	
6.6.1	win	2023-07-08	19:01:09	19:07:38	384538	61193152f8e8156f6723e801	4	1	main_z	7	main_z	123	stimuli_distractor_trianglediamonds.svg	stimuli_distractor_diamondtriangles.svg	36	no	0	1	2000	0	0			0	0			1				0	
6.6.1	win	2023-07-08	19:01:09	19:07:38	384538	61193152f8e8156f6723e801	4	1	main_z	7	advance_on_keypress_ZEE	124	stimuli_distractor_trianglediamonds.svg	stimuli_distractor_diamondtriangles.svg	36	no	57	0	345	0	0			0	0			1				0	
6.6.1	win	2023-07-08	19:01:09	19:07:41	387508	61193152f8e8156f6723e801	4	1	main_z	7	main_z	125	stimuli_distractor_diamondtriangles.svg	stimuli_distractor_trianglediamonds.svg	37	no	0	1	2000	0	0			0	0			1				0	
6.6.1	win	2023-07-08	19:01:09	19:07:41	387508	61193152f8e8156f6723e801	4	1	main_z	7	advance_on_keypress_ZEE	126	stimuli_distractor_diamondtriangles.svg	stimuli_distractor_trianglediamonds.svg	37	no	57	0	226	0	0			0	0			1				0	
6.6.1	win	2023-07-08	19:01:09	19:07:43	390378	61193152f8e8156f6723e801	4	1	main_z	7	main_z	127	stimuli_distractor_diamondtriangles.svg	stimuli_distractor_diamondtriangles.svg	40	no	0	1	2000	0	0			0	0			1				0	
6.6.1	win	2023-07-08	19:01:09	19:07:43	390378	61193152f8e8156f6723e801	4	1	main_z	7	advance_on_keypress_ZEE	128	stimuli_distractor_diamondtriangles.svg	stimuli_distractor_diamondtriangles.svg	40	no	57	0	369	0	0			0	0			1				0	
6.6.1	win	2023-07-08	19:01:09	19:07:45	392288	61193152f8e8156f6723e801	4	1	main_z	7	main_z	129	stimuli_distractor_trianglediamonds.svg	stimuli_target_rectangletriangles.svg	9	yes	44	1	907	0	0			0	0			1				0	
6.6.1	win	2023-07-08	19:01:09	19:07:45	392288	61193152f8e8156f6723e801	4	1	main_z	7	advance_on_keypress_ZEE	130	stimuli_distractor_trianglediamonds.svg	stimuli_target_rectangletriangles.svg	9	yes	57	0	97	0	0			0	0			1				0	
6.6.1	win	2023-07-08	19:01:09	19:07:47	393790	61193152f8e8156f6723e801	4	1	main_z	7	main_z	131	stimuli_target_rectangletriangles.svg	stimuli_distractor_diamondtriangles.svg	5	yes	44	1	757	0	0			0	0			1				0	
6.6.1	win	2023-07-08	19:01:09	19:07:47	393790	61193152f8e8156f6723e801	4	1	main_z	7	advance_on_keypress_ZEE	132	stimuli_target_rectangletriangles.svg	stimuli_distractor_diamondtriangles.svg	5	yes	57	0	93	0	0			0	0			1				0	
6.6.1	win	2023-07-08	19:01:09	19:07:48	395257	61193152f8e8156f6723e801	4	1	main_z	7	main_z	133	stimuli_target_diamondrectangles.svg	stimuli_distractor_diamondtriangles.svg	23	yes	44	1	739	0	0			0	0			1				0	
6.6.1	win	2023-07-08	19:01:09	19:07:48	395257	61193152f8e8156f6723e801	4	1	main_z	7	advance_on_keypress_ZEE	134	stimuli_target_diamondrectangles.svg	stimuli_distractor_diamondtriangles.svg	23	yes	57	0	121	0	0			0	0			1				0	
6.6.1	win	2023-07-08	19:01:09	19:07:50	396827	61193152f8e8156f6723e801	4	1	main_z	7	main_z	135	stimuli_distractor_diamondtriangles.svg	stimuli_target_squaretriangles.svg	15	yes	44	1	807	0	0			0	0			1				0	
6.6.1	win	2023-07-08	19:01:09	19:07:50	396827	61193152f8e8156f6723e801	4	1	main_z	7	advance_on_keypress_ZEE	136	stimuli_distractor_diamondtriangles.svg	stimuli_target_squaretriangles.svg	15	yes	57	0	131	0	0			0	0			1				0	
6.6.1	win	2023-07-08	19:01:09	19:07:51	398470	61193152f8e8156f6723e801	4	1	main_z	7	main_z	137	stimuli_distractor_diamondtriangles.svg	stimuli_target_squarediamonds.svg	16	yes	44	1	882	0	0			0	0			1				0	
6.6.1	win	2023-07-08	19:01:09	19:07:51	398470	61193152f8e8156f6723e801	4	1	main_z	7	advance_on_keypress_ZEE	138	stimuli_distractor_diamondtriangles.svg	stimuli_target_squarediamonds.svg	16	yes	57	0	159	0	0			0	0			1				0	
6.6.1	win	2023-07-08	19:01:09	19:07:54	401257	61193152f8e8156f6723e801	4	1	main_z	7	main_z	139	stimuli_distractor_diamondtriangles.svg	stimuli_distractor_trianglediamonds.svg	38	no	0	1	2000	0	0			0	0			1				0	
6.6.1	win	2023-07-08	19:01:09	19:07:54	401257	61193152f8e8156f6723e801	4	1	main_z	7	advance_on_keypress_ZEE	140	stimuli_distractor_diamondtriangles.svg	stimuli_distractor_trianglediamonds.svg	38	no	57	0	537	0	0			0	0			1				0	
6.6.1	win	2023-07-08	19:01:09	19:07:56	403367	61193152f8e8156f6723e801	4	1	main_z	7	main_z	141	stimuli_distractor_trianglediamonds.svg	stimuli_target_rectanglediamonds.svg	10	yes	44	1	940	0	0			0	0			1				0	
6.6.1	win	2023-07-08	19:01:09	19:07:56	403367	61193152f8e8156f6723e801	4	1	main_z	7	advance_on_keypress_ZEE	142	stimuli_distractor_trianglediamonds.svg	stimuli_target_rectanglediamonds.svg	10	yes	57	0	97	0	0			0	0			1				0	
6.6.1	win	2023-07-08	19:01:09	19:07:58	405003	61193152f8e8156f6723e801	4	1	main_z	7	main_z	143	stimuli_target_squaretriangles.svg	stimuli_distractor_diamondtriangles.svg	7	yes	44	1	908	0	0			0	0			1				0	
6.6.1	win	2023-07-08	19:01:09	19:07:58	405003	61193152f8e8156f6723e801	4	1	main_z	7	advance_on_keypress_ZEE	144	stimuli_target_squaretriangles.svg	stimuli_distractor_diamondtriangles.svg	7	yes	57	0	136	0	0			0	0			1				0	
6.6.1	win	2023-07-08	19:01:09	19:08:00	406593	61193152f8e8156f6723e801	4	1	main_z	7	main_z	145	stimuli_distractor_trianglediamonds.svg	stimuli_target_trianglesquares.svg	26	yes	44	1	812	0	0			0	0			1				0	
6.6.1	win	2023-07-08	19:01:09	19:08:00	406593	61193152f8e8156f6723e801	4	1	main_z	7	advance_on_keypress_ZEE	146	stimuli_distractor_trianglediamonds.svg	stimuli_target_trianglesquares.svg	26	yes	57	0	151	0	0			0	0			1				0	
6.6.1	win	2023-07-08	19:01:09	19:08:01	408374	61193152f8e8156f6723e801	4	1	main_z	7	main_z	147	stimuli_target_rectanglediamonds.svg	stimuli_distractor_diamondtriangles.svg	6	yes	44	1	992	0	0			0	0			1				0	
6.6.1	win	2023-07-08	19:01:09	19:08:01	408374	61193152f8e8156f6723e801	4	1	main_z	7	advance_on_keypress_ZEE	148	stimuli_target_rectanglediamonds.svg	stimuli_distractor_diamondtriangles.svg	6	yes	57	0	86	0	0			0	0			1				0	
6.6.1	win	2023-07-08	19:01:09	19:08:03	409977	61193152f8e8156f6723e801	4	1	main_z	7	main_z	149	stimuli_distractor_trianglediamonds.svg	stimuli_target_diamondrectangles.svg	27	yes	44	1	876	0	0			0	0			1				0	
6.6.1	win	2023-07-08	19:01:09	19:08:03	409977	61193152f8e8156f6723e801	4	1	main_z	7	advance_on_keypress_ZEE	150	stimuli_distractor_trianglediamonds.svg	stimuli_target_diamondrectangles.svg	27	yes	57	0	139	0	0			0	0			1				0	
6.6.1	win	2023-07-08	19:01:09	19:08:05	411777	61193152f8e8156f6723e801	4	1	main_z	7	main_z	151	stimuli_target_trianglerectangles.svg	stimuli_distractor_trianglediamonds.svg	17	yes	44	1	1024	0	0			0	0			1				0	
6.6.1	win	2023-07-08	19:01:09	19:08:05	411777	61193152f8e8156f6723e801	4	1	main_z	7	advance_on_keypress_ZEE	152	stimuli_target_trianglerectangles.svg	stimuli_distractor_trianglediamonds.svg	17	yes	57	0	16	0	0			0	0			1				0	
6.6.1	win	2023-07-08	19:01:09	19:08:06	413337	61193152f8e8156f6723e801	4	1	main_z	7	main_z	153	stimuli_target_rectanglediamonds.svg	stimuli_distractor_trianglediamonds.svg	2	yes	44	1	899	0	0			0	0			1				0	
6.6.1	win	2023-07-08	19:01:09	19:08:06	413337	61193152f8e8156f6723e801	4	1	main_z	7	advance_on_keypress_ZEE	154	stimuli_target_rectanglediamonds.svg	stimuli_distractor_trianglediamonds.svg	2	yes	57	0	297	0	0			0	0			1				0	
6.6.1	win	2023-07-08	19:01:09	19:08:08	415092	61193152f8e8156f6723e801	4	1	main_z	7	main_z	155	stimuli_target_trianglerectangles.svg	stimuli_distractor_diamondtriangles.svg	21	yes	44	1	819	0	0			0	0			1				0	
6.6.1	win	2023-07-08	19:01:09	19:08:08	415092	61193152f8e8156f6723e801	4	1	main_z	7	advance_on_keypress_ZEE	156	stimuli_target_trianglerectangles.svg	stimuli_distractor_diamondtriangles.svg	21	yes	57	0	279	0	0			0	0			1				0	
6.6.1	win	2023-07-08	19:01:09	19:08:10	416872	61193152f8e8156f6723e801	4	1	main_z	7	main_z	157	stimuli_target_diamondsquares.svg	stimuli_distractor_diamondtriangles.svg	24	yes	44	1	863	0	0			0	0			1				0	
6.6.1	win	2023-07-08	19:01:09	19:08:10	416872	61193152f8e8156f6723e801	4	1	main_z	7	advance_on_keypress_ZEE	158	stimuli_target_diamondsquares.svg	stimuli_distractor_diamondtriangles.svg	24	yes	57	0	305	0	0			0	0			1				0	
6.6.1	win	2023-07-08	19:01:09	19:08:12	418683	61193152f8e8156f6723e801	4	1	main_z	7	main_z	159	stimuli_distractor_diamondtriangles.svg	stimuli_target_diamondsquares.svg	32	yes	44	1	872	0	0			0	0			1				0	
6.6.1	win	2023-07-08	19:01:09	19:08:12	418683	61193152f8e8156f6723e801	4	1	main_z	7	advance_on_keypress_ZEE	160	stimuli_distractor_diamondtriangles.svg	stimuli_target_diamondsquares.svg	32	yes	57	0	152	0	0			0	0			1				0	
6.6.1	win	2023-07-08	19:01:09	19:08:47	453703	61193152f8e8156f6723e801	4	1	practice_slash	9	practice_slash	1	stimuli_target_rectanglediamonds.svg	stimuli_distractor_diamondtriangles.svg	1	yes	53	1	838	0	0			0	0			1				0	
6.6.1	win	2023-07-08	19:01:09	19:08:47	453703	61193152f8e8156f6723e801	4	1	practice_slash	9	advance_on_keypress_SLASH	2	stimuli_target_rectanglediamonds.svg	stimuli_distractor_diamondtriangles.svg	1	yes	57	0	495	0	0			0	0			1				0	
6.6.1	win	2023-07-08	19:01:09	19:08:51	457835	61193152f8e8156f6723e801	4	1	practice_slash	9	practice_slash	3	stimuli_distractor_diamondtriangles.svg	stimuli_distractor_diamondtriangles.svg	13	no	0	1	2000	0	0			0	0			1				0	
6.6.1	win	2023-07-08	19:01:09	19:08:51	457835	61193152f8e8156f6723e801	4	1	practice_slash	9	advance_on_keypress_SLASH	4	stimuli_distractor_diamondtriangles.svg	stimuli_distractor_diamondtriangles.svg	13	no	57	0	479	0	0			0	0			1				0	
6.6.1	win	2023-07-08	19:01:09	19:08:54	460832	61193152f8e8156f6723e801	4	1	practice_slash	9	practice_slash	5	stimuli_distractor_diamondtriangles.svg	stimuli_target_diamondrectangles.svg	8	yes	53	1	892	0	0			0	0			1				0	
6.6.1	win	2023-07-08	19:01:09	19:08:54	460832	61193152f8e8156f6723e801	4	1	practice_slash	9	advance_on_keypress_SLASH	6	stimuli_distractor_diamondtriangles.svg	stimuli_target_diamondrectangles.svg	8	yes	57	0	471	0	0			0	0			1				0	
6.6.1	win	2023-07-08	19:01:09	19:08:58	464944	61193152f8e8156f6723e801	4	1	practice_slash	9	practice_slash	7	stimuli_distractor_diamondtriangles.svg	stimuli_distractor_trianglediamonds.svg	14	no	0	1	2000	0	0			0	0			1				0	
6.6.1	win	2023-07-08	19:01:09	19:08:58	464944	61193152f8e8156f6723e801	4	1	practice_slash	9	advance_on_keypress_SLASH	8	stimuli_distractor_diamondtriangles.svg	stimuli_distractor_trianglediamonds.svg	14	no	57	0	413	0	0			0	0			1				0	
6.6.1	win	2023-07-08	19:01:09	19:09:01	467881	61193152f8e8156f6723e801	4	1	practice_slash	9	practice_slash	9	stimuli_target_diamondsquares.svg	stimuli_distractor_trianglediamonds.svg	6	yes	53	1	884	0	0			0	0			1				0	
6.6.1	win	2023-07-08	19:01:09	19:09:01	467881	61193152f8e8156f6723e801	4	1	practice_slash	9	advance_on_keypress_SLASH	10	stimuli_target_diamondsquares.svg	stimuli_distractor_trianglediamonds.svg	6	yes	57	0	314	0	0			0	0			1				0	
6.6.1	win	2023-07-08	19:01:09	19:09:03	470501	61193152f8e8156f6723e801	4	1	practice_slash	9	practice_slash	11	stimuli_target_diamondsquares.svg	stimuli_distractor_diamondtriangles.svg	3	yes	53	1	651	0	0			0	0			1				0	
6.6.1	win	2023-07-08	19:01:09	19:09:03	470501	61193152f8e8156f6723e801	4	1	practice_slash	9	advance_on_keypress_SLASH	12	stimuli_target_diamondsquares.svg	stimuli_distractor_diamondtriangles.svg	3	yes	57	0	298	0	0			0	0			1				0	
6.6.1	win	2023-07-08	19:01:09	19:09:06	473217	61193152f8e8156f6723e801	4	1	practice_slash	9	practice_slash	13	stimuli_target_rectanglediamonds.svg	stimuli_distractor_trianglediamonds.svg	4	yes	53	1	764	0	0			0	0			1				0	
6.6.1	win	2023-07-08	19:01:09	19:09:06	473217	61193152f8e8156f6723e801	4	1	practice_slash	9	advance_on_keypress_SLASH	14	stimuli_target_rectanglediamonds.svg	stimuli_distractor_trianglediamonds.svg	4	yes	57	0	270	0	0			0	0			1				0	
6.6.1	win	2023-07-08	19:01:09	19:09:09	475788	61193152f8e8156f6723e801	4	1	practice_slash	9	practice_slash	15	stimuli_target_squarediamonds.svg	stimuli_distractor_diamondtriangles.svg	2	yes	53	1	664	0	0			0	0			1				0	
6.6.1	win	2023-07-08	19:01:09	19:09:09	475788	61193152f8e8156f6723e801	4	1	practice_slash	9	advance_on_keypress_SLASH	16	stimuli_target_squarediamonds.svg	stimuli_distractor_diamondtriangles.svg	2	yes	57	0	338	0	0			0	0			1				0	
6.6.1	win	2023-07-08	19:01:09	19:09:13	479759	61193152f8e8156f6723e801	4	1	practice_slash	9	practice_slash	17	stimuli_distractor_trianglediamonds.svg	stimuli_distractor_diamondtriangles.svg	16	no	0	1	2000	0	0			0	0			1				0	
6.6.1	win	2023-07-08	19:01:09	19:09:13	479759	61193152f8e8156f6723e801	4	1	practice_slash	9	advance_on_keypress_SLASH	18	stimuli_distractor_trianglediamonds.svg	stimuli_distractor_diamondtriangles.svg	16	no	57	0	477	0	0			0	0			1				0	
6.6.1	win	2023-07-08	19:01:09	19:09:16	482715	61193152f8e8156f6723e801	4	1	practice_slash	9	practice_slash	19	stimuli_distractor_diamondtriangles.svg	stimuli_target_rectangletriangles.svg	7	yes	53	1	851	0	0			0	0			1				0	
6.6.1	win	2023-07-08	19:01:09	19:09:16	482715	61193152f8e8156f6723e801	4	1	practice_slash	9	advance_on_keypress_SLASH	20	stimuli_distractor_diamondtriangles.svg	stimuli_target_rectangletriangles.svg	7	yes	57	0	457	0	0			0	0			1				0	
6.6.1	win	2023-07-08	19:01:09	19:09:18	485474	61193152f8e8156f6723e801	4	1	practice_slash	9	practice_slash	21	stimuli_distractor_trianglediamonds.svg	stimuli_target_rectanglediamonds.svg	10	yes	53	1	656	0	0			0	0			1				0	
6.6.1	win	2023-07-08	19:01:09	19:09:18	485474	61193152f8e8156f6723e801	4	1	practice_slash	9	advance_on_keypress_SLASH	22	stimuli_distractor_trianglediamonds.svg	stimuli_target_rectanglediamonds.svg	10	yes	57	0	425	0	0			0	0			1				0	
6.6.1	win	2023-07-08	19:01:09	19:09:21	488213	61193152f8e8156f6723e801	4	1	practice_slash	9	practice_slash	23	stimuli_distractor_trianglediamonds.svg	stimuli_target_squarediamonds.svg	11	yes	53	1	675	0	0			0	0			1				0	
6.6.1	win	2023-07-08	19:01:09	19:09:21	488213	61193152f8e8156f6723e801	4	1	practice_slash	9	advance_on_keypress_SLASH	24	stimuli_distractor_trianglediamonds.svg	stimuli_target_squarediamonds.svg	11	yes	57	0	346	0	0			0	0			1				0	
6.6.1	win	2023-07-08	19:01:09	19:09:24	490982	61193152f8e8156f6723e801	4	1	practice_slash	9	practice_slash	25	stimuli_distractor_trianglediamonds.svg	stimuli_target_diamondrectangles.svg	12	yes	53	1	792	0	0			0	0			1				0	
6.6.1	win	2023-07-08	19:01:09	19:09:24	490982	61193152f8e8156f6723e801	4	1	practice_slash	9	advance_on_keypress_SLASH	26	stimuli_distractor_trianglediamonds.svg	stimuli_target_diamondrectangles.svg	12	yes	57	0	329	0	0			0	0			1				0	
6.6.1	win	2023-07-08	19:01:09	19:09:27	493855	61193152f8e8156f6723e801	4	1	practice_slash	9	practice_slash	27	stimuli_distractor_diamondtriangles.svg	stimuli_target_trianglerectangles.svg	9	yes	53	1	912	0	0			0	0			1				0	
6.6.1	win	2023-07-08	19:01:09	19:09:27	493855	61193152f8e8156f6723e801	4	1	practice_slash	9	advance_on_keypress_SLASH	28	stimuli_distractor_diamondtriangles.svg	stimuli_target_trianglerectangles.svg	9	yes	57	0	236	0	0			0	0			1				0	
6.6.1	win	2023-07-08	19:01:09	19:09:29	496457	61193152f8e8156f6723e801	4	1	practice_slash	9	practice_slash	29	stimuli_target_squarediamonds.svg	stimuli_distractor_trianglediamonds.svg	5	yes	53	1	727	0	0			0	0			1				0	
6.6.1	win	2023-07-08	19:01:09	19:09:29	496457	61193152f8e8156f6723e801	4	1	practice_slash	9	advance_on_keypress_SLASH	30	stimuli_target_squarediamonds.svg	stimuli_distractor_trianglediamonds.svg	5	yes	57	0	451	0	0			0	0			1				0	
6.6.1	win	2023-07-08	19:01:09	19:09:32	499358	61193152f8e8156f6723e801	4	1	practice_slash	9	practice_slash	31	stimuli_distractor_trianglediamonds.svg	stimuli_distractor_trianglediamonds.svg	15	no	53	0	808	0	0			0	0			1				0	
6.6.1	win	2023-07-08	19:01:09	19:09:32	499358	61193152f8e8156f6723e801	4	1	practice_slash	9	advance_on_keypress_SLASH	32	stimuli_distractor_trianglediamonds.svg	stimuli_distractor_trianglediamonds.svg	15	no	57	0	324	0	0			0	0			1				0	
6.6.1	win	2023-07-08	19:01:09	19:09:39	505872	61193152f8e8156f6723e801	4	1	main_slash	11	main_slash	1	stimuli_distractor_trianglediamonds.svg	stimuli_target_diamondrectangles.svg	27	yes	53	1	615	0	0			0	0			1				0	
6.6.1	win	2023-07-08	19:01:09	19:09:39	505872	61193152f8e8156f6723e801	4	1	main_slash	11	advance_on_keypress_SLASH	2	stimuli_distractor_trianglediamonds.svg	stimuli_target_diamondrectangles.svg	27	yes	57	0	346	0	0			0	0			1				0	
6.6.1	win	2023-07-08	19:01:09	19:09:40	507395	61193152f8e8156f6723e801	4	1	main_slash	11	main_slash	3	stimuli_target_rectanglediamonds.svg	stimuli_distractor_trianglediamonds.svg	2	yes	53	1	536	0	0			0	0			1				0	
6.6.1	win	2023-07-08	19:01:09	19:09:40	507395	61193152f8e8156f6723e801	4	1	main_slash	11	advance_on_keypress_SLASH	4	stimuli_target_rectanglediamonds.svg	stimuli_distractor_trianglediamonds.svg	2	yes	57	0	364	0	0			0	0			1				0	
6.6.1	win	2023-07-08	19:01:09	19:09:43	510411	61193152f8e8156f6723e801	4	1	main_slash	11	main_slash	5	stimuli_distractor_diamondtriangles.svg	stimuli_distractor_diamondtriangles.svg	40	no	0	1	2000	0	0			0	0			1				0	
6.6.1	win	2023-07-08	19:01:09	19:09:43	510411	61193152f8e8156f6723e801	4	1	main_slash	11	advance_on_keypress_SLASH	6	stimuli_distractor_diamondtriangles.svg	stimuli_distractor_diamondtriangles.svg	40	no	57	0	306	0	0			0	0			1				0	
6.6.1	win	2023-07-08	19:01:09	19:09:45	511791	61193152f8e8156f6723e801	4	1	main_slash	11	main_slash	7	stimuli_target_trianglesquares.svg	stimuli_distractor_trianglediamonds.svg	18	yes	53	1	427	0	0			0	0			1				0	
6.6.1	win	2023-07-08	19:01:09	19:09:45	511791	61193152f8e8156f6723e801	4	1	main_slash	11	advance_on_keypress_SLASH	8	stimuli_target_trianglesquares.svg	stimuli_distractor_trianglediamonds.svg	18	yes	57	0	410	0	0			0	0			1				0	
6.6.1	win	2023-07-08	19:01:09	19:09:46	513504	61193152f8e8156f6723e801	4	1	main_slash	11	main_slash	9	stimuli_target_diamondsquares.svg	stimuli_distractor_diamondtriangles.svg	24	yes	53	1	672	0	0			0	0			1				0	
6.6.1	win	2023-07-08	19:01:09	19:09:46	513504	61193152f8e8156f6723e801	4	1	main_slash	11	advance_on_keypress_SLASH	10	stimuli_target_diamondsquares.svg	stimuli_distractor_diamondtriangles.svg	24	yes	57	0	306	0	0			0	0			1				0	
6.6.1	win	2023-07-08	19:01:09	19:09:48	515444	61193152f8e8156f6723e801	4	1	main_slash	11	main_slash	11	stimuli_distractor_trianglediamonds.svg	stimuli_target_trianglesquares.svg	26	yes	53	1	993	0	0			0	0			1				0	
6.6.1	win	2023-07-08	19:01:09	19:09:48	515444	61193152f8e8156f6723e801	4	1	main_slash	11	advance_on_keypress_SLASH	12	stimuli_distractor_trianglediamonds.svg	stimuli_target_trianglesquares.svg	26	yes	57	0	188	0	0			0	0			1				0	
6.6.1	win	2023-07-08	19:01:09	19:09:50	517096	61193152f8e8156f6723e801	4	1	main_slash	11	main_slash	13	stimuli_distractor_trianglediamonds.svg	stimuli_target_squaretriangles.svg	11	yes	53	1	827	0	0			0	0			1				0	
6.6.1	win	2023-07-08	19:01:09	19:09:50	517096	61193152f8e8156f6723e801	4	1	main_slash	11	advance_on_keypress_SLASH	14	stimuli_distractor_trianglediamonds.svg	stimuli_target_squaretriangles.svg	11	yes	57	0	201	0	0			0	0			1				0	
6.6.1	win	2023-07-08	19:01:09	19:09:52	518780	61193152f8e8156f6723e801	4	1	main_slash	11	main_slash	15	stimuli_distractor_trianglediamonds.svg	stimuli_target_rectangletriangles.svg	9	yes	53	1	842	0	0			0	0			1				0	
6.6.1	win	2023-07-08	19:01:09	19:09:52	518780	61193152f8e8156f6723e801	4	1	main_slash	11	advance_on_keypress_SLASH	16	stimuli_distractor_trianglediamonds.svg	stimuli_target_rectangletriangles.svg	9	yes	57	0	163	0	0			0	0			1				0	
6.6.1	win	2023-07-08	19:01:09	19:09:53	520459	61193152f8e8156f6723e801	4	1	main_slash	11	main_slash	17	stimuli_target_squaretriangles.svg	stimuli_distractor_trianglediamonds.svg	3	yes	53	1	886	0	0			0	0			1				0	
6.6.1	win	2023-07-08	19:01:09	19:09:53	520459	61193152f8e8156f6723e801	4	1	main_slash	11	advance_on_keypress_SLASH	18	stimuli_target_squaretriangles.svg	stimuli_distractor_trianglediamonds.svg	3	yes	57	0	98	0	0			0	0			1				0	
6.6.1	win	2023-07-08	19:01:09	19:09:55	522159	61193152f8e8156f6723e801	4	1	main_slash	11	main_slash	19	stimuli_target_trianglerectangles.svg	stimuli_distractor_trianglediamonds.svg	17	yes	53	1	951	0	0			0	0			1				0	
6.6.1	win	2023-07-08	19:01:09	19:09:55	522159	61193152f8e8156f6723e801	4	1	main_slash	11	advance_on_keypress_SLASH	20	stimuli_target_trianglerectangles.svg	stimuli_distractor_trianglediamonds.svg	17	yes	57	0	42	0	0			0	0			1				0	
6.6.1	win	2023-07-08	19:01:09	19:09:57	523775	61193152f8e8156f6723e801	4	1	main_slash	11	main_slash	21	stimuli_distractor_diamondtriangles.svg	stimuli_target_trianglerectangles.svg	29	yes	53	1	932	0	0			0	0			1				0	
6.6.1	win	2023-07-08	19:01:09	19:09:57	523775	61193152f8e8156f6723e801	4	1	main_slash	11	advance_on_keypress_SLASH	22	stimuli_distractor_diamondtriangles.svg	stimuli_target_trianglerectangles.svg	29	yes	57	0	50	0	0			0	0			1				0	
6.6.1	win	2023-07-08	19:01:09	19:09:58	525315	61193152f8e8156f6723e801	4	1	main_slash	11	main_slash	23	stimuli_distractor_trianglediamonds.svg	stimuli_target_rectanglediamonds.svg	10	yes	53	1	853	0	0			0	0			1				0	
6.6.1	win	2023-07-08	19:01:09	19:09:58	525315	61193152f8e8156f6723e801	4	1	main_slash	11	advance_on_keypress_SLASH	24	stimuli_distractor_trianglediamonds.svg	stimuli_target_rectanglediamonds.svg	10	yes	57	0	67	0	0			0	0			1				0	
6.6.1	win	2023-07-08	19:01:09	19:10:00	526938	61193152f8e8156f6723e801	4	1	main_slash	11	main_slash	25	stimuli_distractor_trianglediamonds.svg	stimuli_target_trianglerectangles.svg	25	yes	53	1	908	0	0			0	0			1				0	
6.6.1	win	2023-07-08	19:01:09	19:10:00	526938	61193152f8e8156f6723e801	4	1	main_slash	11	advance_on_keypress_SLASH	26	stimuli_distractor_trianglediamonds.svg	stimuli_target_trianglerectangles.svg	25	yes	57	0	72	0	0			0	0			1				0	
6.6.1	win	2023-07-08	19:01:09	19:10:01	528457	61193152f8e8156f6723e801	4	1	main_slash	11	main_slash	27	stimuli_distractor_diamondtriangles.svg	stimuli_target_squaretriangles.svg	15	yes	53	1	809	0	0			0	0			1				0	
6.6.1	win	2023-07-08	19:01:09	19:10:01	528457	61193152f8e8156f6723e801	4	1	main_slash	11	advance_on_keypress_SLASH	28	stimuli_distractor_diamondtriangles.svg	stimuli_target_squaretriangles.svg	15	yes	57	0	249	0	0			0	0			1				0	
6.6.1	win	2023-07-08	19:01:09	19:10:03	530382	61193152f8e8156f6723e801	4	1	main_slash	11	main_slash	29	stimuli_target_squaretriangles.svg	stimuli_distractor_diamondtriangles.svg	7	yes	53	1	1032	0	0			0	0			1				0	
6.6.1	win	2023-07-08	19:01:09	19:10:03	530382	61193152f8e8156f6723e801	4	1	main_slash	11	advance_on_keypress_SLASH	30	stimuli_target_squaretriangles.svg	stimuli_distractor_diamondtriangles.svg	7	yes	57	0	100	0	0			0	0			1				0	
6.6.1	win	2023-07-08	19:01:09	19:10:05	532041	61193152f8e8156f6723e801	4	1	main_slash	11	main_slash	31	stimuli_target_rectangletriangles.svg	stimuli_distractor_diamondtriangles.svg	5	yes	53	1	905	0	0			0	0			1				0	
6.6.1	win	2023-07-08	19:01:09	19:10:05	532041	61193152f8e8156f6723e801	4	1	main_slash	11	advance_on_keypress_SLASH	32	stimuli_target_rectangletriangles.svg	stimuli_distractor_diamondtriangles.svg	5	yes	57	0	36	0	0			0	0			1				0	
6.6.1	win	2023-07-08	19:01:09	19:10:07	533680	61193152f8e8156f6723e801	4	1	main_slash	11	main_slash	33	stimuli_distractor_trianglediamonds.svg	stimuli_target_diamondsquares.svg	28	yes	53	1	959	0	0			0	0			1				0	
6.6.1	win	2023-07-08	19:01:09	19:10:07	533680	61193152f8e8156f6723e801	4	1	main_slash	11	advance_on_keypress_SLASH	34	stimuli_distractor_trianglediamonds.svg	stimuli_target_diamondsquares.svg	28	yes	57	0	50	0	0			0	0			1				0	
6.6.1	win	2023-07-08	19:01:09	19:10:08	535317	61193152f8e8156f6723e801	4	1	main_slash	11	main_slash	35	stimuli_target_diamondrectangles.svg	stimuli_distractor_trianglediamonds.svg	19	yes	53	1	943	0	0			0	0			1				0	
6.6.1	win	2023-07-08	19:01:09	19:10:08	535317	61193152f8e8156f6723e801	4	1	main_slash	11	advance_on_keypress_SLASH	36	stimuli_target_diamondrectangles.svg	stimuli_distractor_trianglediamonds.svg	19	yes	57	0	63	0	0			0	0			1				0	
6.6.1	win	2023-07-08	19:01:09	19:10:10	537319	61193152f8e8156f6723e801	4	1	main_slash	11	main_slash	37	stimuli_target_rectanglediamonds.svg	stimuli_distractor_diamondtriangles.svg	6	yes	53	1	1311	0	0			0	0			1				0	
6.6.1	win	2023-07-08	19:01:09	19:10:10	537319	61193152f8e8156f6723e801	4	1	main_slash	11	advance_on_keypress_SLASH	38	stimuli_target_rectanglediamonds.svg	stimuli_distractor_diamondtriangles.svg	6	yes	57	0	189	0	0			0	0			1				0	
6.6.1	win	2023-07-08	19:01:09	19:10:12	539023	61193152f8e8156f6723e801	4	1	main_slash	11	main_slash	39	stimuli_target_squarediamonds.svg	stimuli_distractor_diamondtriangles.svg	8	yes	53	1	880	0	0			0	0			1				0	
6.6.1	win	2023-07-08	19:01:09	19:10:12	539023	61193152f8e8156f6723e801	4	1	main_slash	11	advance_on_keypress_SLASH	40	stimuli_target_squarediamonds.svg	stimuli_distractor_diamondtriangles.svg	8	yes	57	0	234	0	0			0	0			1				0	
6.6.1	win	2023-07-08	19:01:09	19:10:14	540798	61193152f8e8156f6723e801	4	1	main_slash	11	main_slash	41	stimuli_target_trianglerectangles.svg	stimuli_distractor_diamondtriangles.svg	21	yes	53	1	903	0	0			0	0			1				0	
6.6.1	win	2023-07-08	19:01:09	19:10:14	540798	61193152f8e8156f6723e801	4	1	main_slash	11	advance_on_keypress_SLASH	42	stimuli_target_trianglerectangles.svg	stimuli_distractor_diamondtriangles.svg	21	yes	57	0	175	0	0			0	0			1				0	
6.6.1	win	2023-07-08	19:01:09	19:10:17	543614	61193152f8e8156f6723e801	4	1	main_slash	11	main_slash	43	stimuli_distractor_trianglediamonds.svg	stimuli_distractor_diamondtriangles.svg	35	no	0	1	2000	0	0			0	0			1				0	
6.6.1	win	2023-07-08	19:01:09	19:10:17	543614	61193152f8e8156f6723e801	4	1	main_slash	11	advance_on_keypress_SLASH	44	stimuli_distractor_trianglediamonds.svg	stimuli_distractor_diamondtriangles.svg	35	no	57	0	498	0	0			0	0			1				0	
6.6.1	win	2023-07-08	19:01:09	19:10:19	545660	61193152f8e8156f6723e801	4	1	main_slash	11	main_slash	45	stimuli_distractor_diamondtriangles.svg	stimuli_target_diamondsquares.svg	32	yes	53	1	910	0	0			0	0			1				0	
6.6.1	win	2023-07-08	19:01:09	19:10:19	545660	61193152f8e8156f6723e801	4	1	main_slash	11	advance_on_keypress_SLASH	46	stimuli_distractor_diamondtriangles.svg	stimuli_target_diamondsquares.svg	32	yes	57	0	206	0	0			0	0			1				0	
6.6.1	win	2023-07-08	19:01:09	19:10:20	547468	61193152f8e8156f6723e801	4	1	main_slash	11	main_slash	47	stimuli_distractor_diamondtriangles.svg	stimuli_target_trianglesquares.svg	30	yes	53	1	965	0	0			0	0			1				0	
6.6.1	win	2023-07-08	19:01:09	19:10:20	547468	61193152f8e8156f6723e801	4	1	main_slash	11	advance_on_keypress_SLASH	48	stimuli_distractor_diamondtriangles.svg	stimuli_target_trianglesquares.svg	30	yes	57	0	159	0	0			0	0			1				0	
6.6.1	win	2023-07-08	19:01:09	19:10:22	549228	61193152f8e8156f6723e801	4	1	main_slash	11	main_slash	49	stimuli_target_trianglesquares.svg	stimuli_distractor_diamondtriangles.svg	22	yes	53	1	956	0	0			0	0			1				0	
6.6.1	win	2023-07-08	19:01:09	19:10:22	549228	61193152f8e8156f6723e801	4	1	main_slash	11	advance_on_keypress_SLASH	50	stimuli_target_trianglesquares.svg	stimuli_distractor_diamondtriangles.svg	22	yes	57	0	155	0	0			0	0			1				0	
6.6.1	win	2023-07-08	19:01:09	19:10:25	552023	61193152f8e8156f6723e801	4	1	main_slash	11	main_slash	51	stimuli_distractor_trianglediamonds.svg	stimuli_distractor_trianglediamonds.svg	34	no	0	1	2000	0	0			0	0			1				0	
6.6.1	win	2023-07-08	19:01:09	19:10:25	552023	61193152f8e8156f6723e801	4	1	main_slash	11	advance_on_keypress_SLASH	52	stimuli_distractor_trianglediamonds.svg	stimuli_distractor_trianglediamonds.svg	34	no	57	0	298	0	0			0	0			1				0	
6.6.1	win	2023-07-08	19:01:09	19:10:27	553922	61193152f8e8156f6723e801	4	1	main_slash	11	main_slash	53	stimuli_target_rectangletriangles.svg	stimuli_distractor_trianglediamonds.svg	1	yes	53	1	946	0	0			0	0			1				0	
6.6.1	win	2023-07-08	19:01:09	19:10:27	553922	61193152f8e8156f6723e801	4	1	main_slash	11	advance_on_keypress_SLASH	54	stimuli_target_rectangletriangles.svg	stimuli_distractor_trianglediamonds.svg	1	yes	57	0	82	0	0			0	0			1				0	
6.6.1	win	2023-07-08	19:01:09	19:10:29	555528	61193152f8e8156f6723e801	4	1	main_slash	11	main_slash	55	stimuli_target_diamondrectangles.svg	stimuli_distractor_diamondtriangles.svg	23	yes	53	1	883	0	0			0	0			1				0	
6.6.1	win	2023-07-08	19:01:09	19:10:29	555528	61193152f8e8156f6723e801	4	1	main_slash	11	advance_on_keypress_SLASH	56	stimuli_target_diamondrectangles.svg	stimuli_distractor_diamondtriangles.svg	23	yes	57	0	154	0	0			0	0			1				0	
6.6.1	win	2023-07-08	19:01:09	19:10:31	558330	61193152f8e8156f6723e801	4	1	main_slash	11	main_slash	57	stimuli_distractor_diamondtriangles.svg	stimuli_distractor_trianglediamonds.svg	38	no	0	1	2000	0	0			0	0			1				0	
6.6.1	win	2023-07-08	19:01:09	19:10:31	558330	61193152f8e8156f6723e801	4	1	main_slash	11	advance_on_keypress_SLASH	58	stimuli_distractor_diamondtriangles.svg	stimuli_distractor_trianglediamonds.svg	38	no	57	0	303	0	0			0	0			1				0	
6.6.1	win	2023-07-08	19:01:09	19:10:33	560125	61193152f8e8156f6723e801	4	1	main_slash	11	main_slash	59	stimuli_target_squarediamonds.svg	stimuli_distractor_trianglediamonds.svg	4	yes	53	1	842	0	0			0	0			1				0	
6.6.1	win	2023-07-08	19:01:09	19:10:33	560125	61193152f8e8156f6723e801	4	1	main_slash	11	advance_on_keypress_SLASH	60	stimuli_target_squarediamonds.svg	stimuli_distractor_trianglediamonds.svg	4	yes	57	0	184	0	0			0	0			1				0	
6.6.1	win	2023-07-08	19:01:09	19:10:36	562952	61193152f8e8156f6723e801	4	1	main_slash	11	main_slash	61	stimuli_distractor_diamondtriangles.svg	stimuli_distractor_trianglediamonds.svg	37	no	0	1	2000	0	0			0	0			1				0	
6.6.1	win	2023-07-08	19:01:09	19:10:36	562952	61193152f8e8156f6723e801	4	1	main_slash	11	advance_on_keypress_SLASH	62	stimuli_distractor_diamondtriangles.svg	stimuli_distractor_trianglediamonds.svg	37	no	57	0	541	0	0			0	0			1				0	
6.6.1	win	2023-07-08	19:01:09	19:10:38	565002	61193152f8e8156f6723e801	4	1	main_slash	11	main_slash	63	stimuli_distractor_trianglediamonds.svg	stimuli_target_squarediamonds.svg	12	yes	53	1	880	0	0			0	0			1				0	
6.6.1	win	2023-07-08	19:01:09	19:10:38	565002	61193152f8e8156f6723e801	4	1	main_slash	11	advance_on_keypress_SLASH	64	stimuli_distractor_trianglediamonds.svg	stimuli_target_squarediamonds.svg	12	yes	57	0	179	0	0			0	0			1				0	
6.6.1	win	2023-07-08	19:01:09	19:10:40	566568	61193152f8e8156f6723e801	4	1	main_slash	11	main_slash	65	stimuli_distractor_diamondtriangles.svg	stimuli_target_rectangletriangles.svg	13	yes	53	1	761	0	0			0	0			1				0	
6.6.1	win	2023-07-08	19:01:09	19:10:40	566568	61193152f8e8156f6723e801	4	1	main_slash	11	advance_on_keypress_SLASH	66	stimuli_distractor_diamondtriangles.svg	stimuli_target_rectangletriangles.svg	13	yes	57	0	214	0	0			0	0			1				0	
6.6.1	win	2023-07-08	19:01:09	19:10:42	569409	61193152f8e8156f6723e801	4	1	main_slash	11	main_slash	67	stimuli_distractor_diamondtriangles.svg	stimuli_target_diamondrectangles.svg	31	yes	0	0	2000	0	0			0	0			1				0	
6.6.1	win	2023-07-08	19:01:09	19:10:42	569409	61193152f8e8156f6723e801	4	1	main_slash	11	advance_on_keypress_SLASH	68	stimuli_distractor_diamondtriangles.svg	stimuli_target_diamondrectangles.svg	31	yes	57	0	757	0	0			0	0			1				0	
6.6.1	win	2023-07-08	19:01:09	19:10:46	572813	61193152f8e8156f6723e801	4	1	main_slash	11	main_slash	69	stimuli_distractor_trianglediamonds.svg	stimuli_distractor_trianglediamonds.svg	33	no	0	1	2000	0	0			0	0			1				0	
6.6.1	win	2023-07-08	19:01:09	19:10:46	572813	61193152f8e8156f6723e801	4	1	main_slash	11	advance_on_keypress_SLASH	70	stimuli_distractor_trianglediamonds.svg	stimuli_distractor_trianglediamonds.svg	33	no	57	0	250	0	0			0	0			1				0	
6.6.1	win	2023-07-08	19:01:09	19:10:48	574551	61193152f8e8156f6723e801	4	1	main_slash	11	main_slash	71	stimuli_target_diamondsquares.svg	stimuli_distractor_trianglediamonds.svg	20	yes	53	1	852	0	0			0	0			1				0	
6.6.1	win	2023-07-08	19:01:09	19:10:48	574551	61193152f8e8156f6723e801	4	1	main_slash	11	advance_on_keypress_SLASH	72	stimuli_target_diamondsquares.svg	stimuli_distractor_trianglediamonds.svg	20	yes	57	0	154	0	0			0	0			1				0	
6.6.1	win	2023-07-08	19:01:09	19:10:50	577351	61193152f8e8156f6723e801	4	1	main_slash	11	main_slash	73	stimuli_distractor_diamondtriangles.svg	stimuli_distractor_diamondtriangles.svg	39	no	0	1	2000	0	0			0	0			1				0	
6.6.1	win	2023-07-08	19:01:09	19:10:50	577351	61193152f8e8156f6723e801	4	1	main_slash	11	advance_on_keypress_SLASH	74	stimuli_distractor_diamondtriangles.svg	stimuli_distractor_diamondtriangles.svg	39	no	57	0	183	0	0			0	0			1				0	
6.6.1	win	2023-07-08	19:01:09	19:10:52	579133	61193152f8e8156f6723e801	4	1	main_slash	11	main_slash	75	stimuli_distractor_diamondtriangles.svg	stimuli_target_rectanglediamonds.svg	14	yes	53	1	945	0	0			0	0			1				0	
6.6.1	win	2023-07-08	19:01:09	19:10:52	579133	61193152f8e8156f6723e801	4	1	main_slash	11	advance_on_keypress_SLASH	76	stimuli_distractor_diamondtriangles.svg	stimuli_target_rectanglediamonds.svg	14	yes	57	0	362	0	0			0	0			1				0	
6.6.1	win	2023-07-08	19:01:09	19:10:54	580971	61193152f8e8156f6723e801	4	1	main_slash	11	main_slash	77	stimuli_distractor_diamondtriangles.svg	stimuli_target_squarediamonds.svg	16	yes	53	1	848	0	0			0	0			1				0	
6.6.1	win	2023-07-08	19:01:09	19:10:54	580971	61193152f8e8156f6723e801	4	1	main_slash	11	advance_on_keypress_SLASH	78	stimuli_distractor_diamondtriangles.svg	stimuli_target_squarediamonds.svg	16	yes	57	0	203	0	0			0	0			1				0	
6.6.1	win	2023-07-08	19:01:09	19:10:57	583809	61193152f8e8156f6723e801	4	1	main_slash	11	main_slash	79	stimuli_distractor_trianglediamonds.svg	stimuli_distractor_diamondtriangles.svg	36	no	0	1	2000	0	0			0	0			1				0	
6.6.1	win	2023-07-08	19:01:09	19:10:57	583809	61193152f8e8156f6723e801	4	1	main_slash	11	advance_on_keypress_SLASH	80	stimuli_distractor_trianglediamonds.svg	stimuli_distractor_diamondtriangles.svg	36	no	57	0	243	0	0			0	0			1				0	
6.6.1	win	2023-07-08	19:01:09	19:10:59	585623	61193152f8e8156f6723e801	4	1	main_slash	11	main_slash	81	stimuli_distractor_diamondtriangles.svg	stimuli_target_trianglerectangles.svg	29	yes	53	1	928	0	0			0	0			1				0	
6.6.1	win	2023-07-08	19:01:09	19:10:59	585623	61193152f8e8156f6723e801	4	1	main_slash	11	advance_on_keypress_SLASH	82	stimuli_distractor_diamondtriangles.svg	stimuli_target_trianglerectangles.svg	29	yes	57	0	143	0	0			0	0			1				0	
6.6.1	win	2023-07-08	19:01:09	19:11:00	587248	61193152f8e8156f6723e801	4	1	main_slash	11	main_slash	83	stimuli_distractor_trianglediamonds.svg	stimuli_target_rectanglediamonds.svg	10	yes	53	1	851	0	0			0	0			1				0	
6.6.1	win	2023-07-08	19:01:09	19:11:00	587248	61193152f8e8156f6723e801	4	1	main_slash	11	advance_on_keypress_SLASH	84	stimuli_distractor_trianglediamonds.svg	stimuli_target_rectanglediamonds.svg	10	yes	57	0	114	0	0			0	0			1				0	
6.6.1	win	2023-07-08	19:01:09	19:11:02	588871	61193152f8e8156f6723e801	4	1	main_slash	11	main_slash	85	stimuli_target_squarediamonds.svg	stimuli_distractor_diamondtriangles.svg	8	yes	53	1	874	0	0			0	0			1				0	
6.6.1	win	2023-07-08	19:01:09	19:11:02	588871	61193152f8e8156f6723e801	4	1	main_slash	11	advance_on_keypress_SLASH	86	stimuli_target_squarediamonds.svg	stimuli_distractor_diamondtriangles.svg	8	yes	57	0	103	0	0			0	0			1				0	
6.6.1	win	2023-07-08	19:01:09	19:11:03	590433	61193152f8e8156f6723e801	4	1	main_slash	11	main_slash	87	stimuli_target_squaretriangles.svg	stimuli_distractor_trianglediamonds.svg	3	yes	53	1	816	0	0			0	0			1				0	
6.6.1	win	2023-07-08	19:01:09	19:11:03	590433	61193152f8e8156f6723e801	4	1	main_slash	11	advance_on_keypress_SLASH	88	stimuli_target_squaretriangles.svg	stimuli_distractor_trianglediamonds.svg	3	yes	57	0	112	0	0			0	0			1				0	
6.6.1	win	2023-07-08	19:01:09	19:11:05	591933	61193152f8e8156f6723e801	4	1	main_slash	11	main_slash	89	stimuli_target_squarediamonds.svg	stimuli_distractor_trianglediamonds.svg	4	yes	53	1	748	0	0			0	0			1				0	
6.6.1	win	2023-07-08	19:01:09	19:11:05	591933	61193152f8e8156f6723e801	4	1	main_slash	11	advance_on_keypress_SLASH	90	stimuli_target_squarediamonds.svg	stimuli_distractor_trianglediamonds.svg	4	yes	57	0	236	0	0			0	0			1				0	
6.6.1	win	2023-07-08	19:01:09	19:11:07	593641	61193152f8e8156f6723e801	4	1	main_slash	11	main_slash	91	stimuli_target_diamondsquares.svg	stimuli_distractor_trianglediamonds.svg	20	yes	53	1	837	0	0			0	0			1				0	
6.6.1	win	2023-07-08	19:01:09	19:11:07	593641	61193152f8e8156f6723e801	4	1	main_slash	11	advance_on_keypress_SLASH	92	stimuli_target_diamondsquares.svg	stimuli_distractor_trianglediamonds.svg	20	yes	57	0	122	0	0			0	0			1				0	
6.6.1	win	2023-07-08	19:01:09	19:11:08	595317	61193152f8e8156f6723e801	4	1	main_slash	11	main_slash	93	stimuli_target_diamondsquares.svg	stimuli_distractor_diamondtriangles.svg	24	yes	53	1	912	0	0			0	0			1				0	
6.6.1	win	2023-07-08	19:01:09	19:11:08	595317	61193152f8e8156f6723e801	4	1	main_slash	11	advance_on_keypress_SLASH	94	stimuli_target_diamondsquares.svg	stimuli_distractor_diamondtriangles.svg	24	yes	57	0	134	0	0			0	0			1				0	
6.6.1	win	2023-07-08	19:01:09	19:11:10	596960	61193152f8e8156f6723e801	4	1	main_slash	11	main_slash	95	stimuli_distractor_diamondtriangles.svg	stimuli_target_diamondrectangles.svg	31	yes	53	1	869	0	0			0	0			1				0	
6.6.1	win	2023-07-08	19:01:09	19:11:10	596960	61193152f8e8156f6723e801	4	1	main_slash	11	advance_on_keypress_SLASH	96	stimuli_distractor_diamondtriangles.svg	stimuli_target_diamondrectangles.svg	31	yes	57	0	82	0	0			0	0			1				0	
6.6.1	win	2023-07-08	19:01:09	19:11:12	598538	61193152f8e8156f6723e801	4	1	main_slash	11	main_slash	97	stimuli_target_diamondrectangles.svg	stimuli_distractor_diamondtriangles.svg	23	yes	53	1	846	0	0			0	0			1				0	
6.6.1	win	2023-07-08	19:01:09	19:11:12	598538	61193152f8e8156f6723e801	4	1	main_slash	11	advance_on_keypress_SLASH	98	stimuli_target_diamondrectangles.svg	stimuli_distractor_diamondtriangles.svg	23	yes	57	0	123	0	0			0	0			1				0	
6.6.1	win	2023-07-08	19:01:09	19:11:13	600166	61193152f8e8156f6723e801	4	1	main_slash	11	main_slash	99	stimuli_distractor_diamondtriangles.svg	stimuli_distractor_trianglediamonds.svg	37	no	53	0	872	0	0			0	0			1				0	
6.6.1	win	2023-07-08	19:01:09	19:11:13	600166	61193152f8e8156f6723e801	4	1	main_slash	11	advance_on_keypress_SLASH	100	stimuli_distractor_diamondtriangles.svg	stimuli_distractor_trianglediamonds.svg	37	no	57	0	97	0	0			0	0			1				0	
6.6.1	win	2023-07-08	19:01:09	19:11:15	601822	61193152f8e8156f6723e801	4	1	main_slash	11	main_slash	101	stimuli_distractor_diamondtriangles.svg	stimuli_target_trianglesquares.svg	30	yes	53	1	926	0	0			0	0			1				0	
6.6.1	win	2023-07-08	19:01:09	19:11:15	601822	61193152f8e8156f6723e801	4	1	main_slash	11	advance_on_keypress_SLASH	102	stimuli_distractor_diamondtriangles.svg	stimuli_target_trianglesquares.svg	30	yes	57	0	72	0	0			0	0			1				0	
6.6.1	win	2023-07-08	19:01:09	19:11:17	603539	61193152f8e8156f6723e801	4	1	main_slash	11	main_slash	103	stimuli_distractor_trianglediamonds.svg	stimuli_target_trianglesquares.svg	26	yes	53	1	1008	0	0			0	0			1				0	
6.6.1	win	2023-07-08	19:01:09	19:11:17	603539	61193152f8e8156f6723e801	4	1	main_slash	11	advance_on_keypress_SLASH	104	stimuli_distractor_trianglediamonds.svg	stimuli_target_trianglesquares.svg	26	yes	57	0	99	0	0			0	0			1				0	
6.6.1	win	2023-07-08	19:01:09	19:11:19	606283	61193152f8e8156f6723e801	4	1	main_slash	11	main_slash	105	stimuli_distractor_trianglediamonds.svg	stimuli_distractor_trianglediamonds.svg	33	no	0	1	2000	0	0			0	0			1				0	
6.6.1	win	2023-07-08	19:01:09	19:11:19	606283	61193152f8e8156f6723e801	4	1	main_slash	11	advance_on_keypress_SLASH	106	stimuli_distractor_trianglediamonds.svg	stimuli_distractor_trianglediamonds.svg	33	no	57	0	61	0	0			0	0			1				0	
6.6.1	win	2023-07-08	19:01:09	19:11:22	608986	61193152f8e8156f6723e801	4	1	main_slash	11	main_slash	107	stimuli_distractor_diamondtriangles.svg	stimuli_distractor_trianglediamonds.svg	38	no	0	1	2000	0	0			0	0			1				0	
6.6.1	win	2023-07-08	19:01:09	19:11:22	608986	61193152f8e8156f6723e801	4	1	main_slash	11	advance_on_keypress_SLASH	108	stimuli_distractor_diamondtriangles.svg	stimuli_distractor_trianglediamonds.svg	38	no	57	0	361	0	0			0	0			1				0	
6.6.1	win	2023-07-08	19:01:09	19:11:24	610823	61193152f8e8156f6723e801	4	1	main_slash	11	main_slash	109	stimuli_distractor_trianglediamonds.svg	stimuli_target_squarediamonds.svg	12	yes	53	1	834	0	0			0	0			1				0	
6.6.1	win	2023-07-08	19:01:09	19:11:24	610823	61193152f8e8156f6723e801	4	1	main_slash	11	advance_on_keypress_SLASH	110	stimuli_distractor_trianglediamonds.svg	stimuli_target_squarediamonds.svg	12	yes	57	0	58	0	0			0	0			1				0	
6.6.1	win	2023-07-08	19:01:09	19:11:25	612376	61193152f8e8156f6723e801	4	1	main_slash	11	main_slash	111	stimuli_target_trianglesquares.svg	stimuli_distractor_trianglediamonds.svg	18	yes	53	1	852	0	0			0	0			1				0	
6.6.1	win	2023-07-08	19:01:09	19:11:25	612376	61193152f8e8156f6723e801	4	1	main_slash	11	advance_on_keypress_SLASH	112	stimuli_target_trianglesquares.svg	stimuli_distractor_trianglediamonds.svg	18	yes	57	0	54	0	0			0	0			1				0	
6.6.1	win	2023-07-08	19:01:09	19:11:27	613872	61193152f8e8156f6723e801	4	1	main_slash	11	main_slash	113	stimuli_target_trianglerectangles.svg	stimuli_distractor_trianglediamonds.svg	17	yes	53	1	796	0	0			0	0			1				0	
6.6.1	win	2023-07-08	19:01:09	19:11:27	613872	61193152f8e8156f6723e801	4	1	main_slash	11	advance_on_keypress_SLASH	114	stimuli_target_trianglerectangles.svg	stimuli_distractor_trianglediamonds.svg	17	yes	57	0	38	0	0			0	0			1				0	
6.6.1	win	2023-07-08	19:01:09	19:11:28	615421	61193152f8e8156f6723e801	4	1	main_slash	11	main_slash	115	stimuli_distractor_diamondtriangles.svg	stimuli_target_squaretriangles.svg	15	yes	53	1	877	0	0			0	0			1				0	
6.6.1	win	2023-07-08	19:01:09	19:11:28	615421	61193152f8e8156f6723e801	4	1	main_slash	11	advance_on_keypress_SLASH	116	stimuli_distractor_diamondtriangles.svg	stimuli_target_squaretriangles.svg	15	yes	57	0	72	0	0			0	0			1				0	
6.6.1	win	2023-07-08	19:01:09	19:11:30	616983	61193152f8e8156f6723e801	4	1	main_slash	11	main_slash	117	stimuli_target_squaretriangles.svg	stimuli_distractor_diamondtriangles.svg	7	yes	53	1	854	0	0			0	0			1				0	
6.6.1	win	2023-07-08	19:01:09	19:11:30	616983	61193152f8e8156f6723e801	4	1	main_slash	11	advance_on_keypress_SLASH	118	stimuli_target_squaretriangles.svg	stimuli_distractor_diamondtriangles.svg	7	yes	57	0	55	0	0			0	0			1				0	
6.6.1	win	2023-07-08	19:01:09	19:11:31	618506	61193152f8e8156f6723e801	4	1	main_slash	11	main_slash	119	stimuli_target_trianglerectangles.svg	stimuli_distractor_diamondtriangles.svg	21	yes	53	1	825	0	0			0	0			1				0	
6.6.1	win	2023-07-08	19:01:09	19:11:31	618506	61193152f8e8156f6723e801	4	1	main_slash	11	advance_on_keypress_SLASH	120	stimuli_target_trianglerectangles.svg	stimuli_distractor_diamondtriangles.svg	21	yes	57	0	77	0	0			0	0			1				0	
6.6.1	win	2023-07-08	19:01:09	19:11:33	620084	61193152f8e8156f6723e801	4	1	main_slash	11	main_slash	121	stimuli_distractor_diamondtriangles.svg	stimuli_target_rectanglediamonds.svg	14	yes	53	1	868	0	0			0	0			1				0	
6.6.1	win	2023-07-08	19:01:09	19:11:33	620084	61193152f8e8156f6723e801	4	1	main_slash	11	advance_on_keypress_SLASH	122	stimuli_distractor_diamondtriangles.svg	stimuli_target_rectanglediamonds.svg	14	yes	57	0	38	0	0			0	0			1				0	
6.6.1	win	2023-07-08	19:01:09	19:11:35	621599	61193152f8e8156f6723e801	4	1	main_slash	11	main_slash	123	stimuli_distractor_trianglediamonds.svg	stimuli_target_diamondsquares.svg	28	yes	53	1	831	0	0			0	0			1				0	
6.6.1	win	2023-07-08	19:01:09	19:11:35	621599	61193152f8e8156f6723e801	4	1	main_slash	11	advance_on_keypress_SLASH	124	stimuli_distractor_trianglediamonds.svg	stimuli_target_diamondsquares.svg	28	yes	57	0	44	0	0			0	0			1				0	
6.6.1	win	2023-07-08	19:01:09	19:11:36	623081	61193152f8e8156f6723e801	4	1	main_slash	11	main_slash	125	stimuli_distractor_diamondtriangles.svg	stimuli_target_rectangletriangles.svg	13	yes	53	1	812	0	0			0	0			1				0	
6.6.1	win	2023-07-08	19:01:09	19:11:36	623081	61193152f8e8156f6723e801	4	1	main_slash	11	advance_on_keypress_SLASH	126	stimuli_distractor_diamondtriangles.svg	stimuli_target_rectangletriangles.svg	13	yes	57	0	37	0	0			0	0			1				0	
6.6.1	win	2023-07-08	19:01:09	19:11:38	624540	61193152f8e8156f6723e801	4	1	main_slash	11	main_slash	127	stimuli_distractor_trianglediamonds.svg	stimuli_target_rectangletriangles.svg	9	yes	53	1	786	0	0			0	0			1				0	
6.6.1	win	2023-07-08	19:01:09	19:11:38	624540	61193152f8e8156f6723e801	4	1	main_slash	11	advance_on_keypress_SLASH	128	stimuli_distractor_trianglediamonds.svg	stimuli_target_rectangletriangles.svg	9	yes	57	0	54	0	0			0	0			1				0	
6.6.1	win	2023-07-08	19:01:09	19:11:40	627240	61193152f8e8156f6723e801	4	1	main_slash	11	main_slash	129	stimuli_distractor_trianglediamonds.svg	stimuli_distractor_diamondtriangles.svg	36	no	0	1	2000	0	0			0	0			1				0	
6.6.1	win	2023-07-08	19:01:09	19:11:40	627240	61193152f8e8156f6723e801	4	1	main_slash	11	advance_on_keypress_SLASH	130	stimuli_distractor_trianglediamonds.svg	stimuli_distractor_diamondtriangles.svg	36	no	57	0	356	0	0			0	0			1				0	
6.6.1	win	2023-07-08	19:01:09	19:11:43	630226	61193152f8e8156f6723e801	4	1	main_slash	11	main_slash	131	stimuli_distractor_trianglediamonds.svg	stimuli_distractor_trianglediamonds.svg	34	no	0	1	2000	0	0			0	0			1				0	
6.6.1	win	2023-07-08	19:01:09	19:11:43	630226	61193152f8e8156f6723e801	4	1	main_slash	11	advance_on_keypress_SLASH	132	stimuli_distractor_trianglediamonds.svg	stimuli_distractor_trianglediamonds.svg	34	no	57	0	284	0	0			0	0			1				0	
6.6.1	win	2023-07-08	19:01:09	19:11:45	631962	61193152f8e8156f6723e801	4	1	main_slash	11	main_slash	133	stimuli_distractor_trianglediamonds.svg	stimuli_target_squaretriangles.svg	11	yes	53	1	816	0	0			0	0			1				0	
6.6.1	win	2023-07-08	19:01:09	19:11:45	631962	61193152f8e8156f6723e801	4	1	main_slash	11	advance_on_keypress_SLASH	134	stimuli_distractor_trianglediamonds.svg	stimuli_target_squaretriangles.svg	11	yes	57	0	175	0	0			0	0			1				0	
6.6.1	win	2023-07-08	19:01:09	19:11:47	633607	61193152f8e8156f6723e801	4	1	main_slash	11	main_slash	135	stimuli_target_rectangletriangles.svg	stimuli_distractor_trianglediamonds.svg	1	yes	53	1	826	0	0			0	0			1				0	
6.6.1	win	2023-07-08	19:01:09	19:11:47	633607	61193152f8e8156f6723e801	4	1	main_slash	11	advance_on_keypress_SLASH	136	stimuli_target_rectangletriangles.svg	stimuli_distractor_trianglediamonds.svg	1	yes	57	0	107	0	0			0	0			1				0	
6.6.1	win	2023-07-08	19:01:09	19:11:49	636350	61193152f8e8156f6723e801	4	1	main_slash	11	main_slash	137	stimuli_distractor_diamondtriangles.svg	stimuli_distractor_diamondtriangles.svg	39	no	0	1	2000	0	0			0	0			1				0	
6.6.1	win	2023-07-08	19:01:09	19:11:49	636350	61193152f8e8156f6723e801	4	1	main_slash	11	advance_on_keypress_SLASH	138	stimuli_distractor_diamondtriangles.svg	stimuli_distractor_diamondtriangles.svg	39	no	57	0	252	0	0			0	0			1				0	
6.6.1	win	2023-07-08	19:01:09	19:11:51	638052	61193152f8e8156f6723e801	4	1	main_slash	11	main_slash	139	stimuli_distractor_diamondtriangles.svg	stimuli_target_diamondsquares.svg	32	yes	53	1	816	0	0			0	0			1				0	
6.6.1	win	2023-07-08	19:01:09	19:11:51	638052	61193152f8e8156f6723e801	4	1	main_slash	11	advance_on_keypress_SLASH	140	stimuli_distractor_diamondtriangles.svg	stimuli_target_diamondsquares.svg	32	yes	57	0	84	0	0			0	0			1				0	
6.6.1	win	2023-07-08	19:01:09	19:11:53	639695	61193152f8e8156f6723e801	4	1	main_slash	11	main_slash	141	stimuli_target_trianglesquares.svg	stimuli_distractor_diamondtriangles.svg	22	yes	53	1	906	0	0			0	0			1				0	
6.6.1	win	2023-07-08	19:01:09	19:11:53	639695	61193152f8e8156f6723e801	4	1	main_slash	11	advance_on_keypress_SLASH	142	stimuli_target_trianglesquares.svg	stimuli_distractor_diamondtriangles.svg	22	yes	57	0	49	0	0			0	0			1				0	
6.6.1	win	2023-07-08	19:01:09	19:11:54	641295	61193152f8e8156f6723e801	4	1	main_slash	11	main_slash	143	stimuli_target_rectanglediamonds.svg	stimuli_distractor_trianglediamonds.svg	2	yes	53	1	906	0	0			0	0			1				0	
6.6.1	win	2023-07-08	19:01:09	19:11:54	641295	61193152f8e8156f6723e801	4	1	main_slash	11	advance_on_keypress_SLASH	144	stimuli_target_rectanglediamonds.svg	stimuli_distractor_trianglediamonds.svg	2	yes	57	0	30	0	0			0	0			1				0	
6.6.1	win	2023-07-08	19:01:09	19:11:57	643958	61193152f8e8156f6723e801	4	1	main_slash	11	main_slash	145	stimuli_distractor_trianglediamonds.svg	stimuli_distractor_diamondtriangles.svg	35	no	0	1	2000	0	0			0	0			1				0	
6.6.1	win	2023-07-08	19:01:09	19:11:57	643958	61193152f8e8156f6723e801	4	1	main_slash	11	advance_on_keypress_SLASH	146	stimuli_distractor_trianglediamonds.svg	stimuli_distractor_diamondtriangles.svg	35	no	57	0	266	0	0			0	0			1				0	
6.6.1	win	2023-07-08	19:01:09	19:11:59	645668	61193152f8e8156f6723e801	4	1	main_slash	11	main_slash	147	stimuli_distractor_trianglediamonds.svg	stimuli_target_diamondrectangles.svg	27	yes	53	1	807	0	0			0	0			1				0	
6.6.1	win	2023-07-08	19:01:09	19:11:59	645668	61193152f8e8156f6723e801	4	1	main_slash	11	advance_on_keypress_SLASH	148	stimuli_distractor_trianglediamonds.svg	stimuli_target_diamondrectangles.svg	27	yes	57	0	92	0	0			0	0			1				0	
6.6.1	win	2023-07-08	19:01:09	19:12:00	647421	61193152f8e8156f6723e801	4	1	main_slash	11	main_slash	149	stimuli_target_diamondrectangles.svg	stimuli_distractor_trianglediamonds.svg	19	yes	53	1	1025	0	0			0	0			1				0	
6.6.1	win	2023-07-08	19:01:09	19:12:00	647421	61193152f8e8156f6723e801	4	1	main_slash	11	advance_on_keypress_SLASH	150	stimuli_target_diamondrectangles.svg	stimuli_distractor_trianglediamonds.svg	19	yes	57	0	43	0	0			0	0			1				0	
6.6.1	win	2023-07-08	19:01:09	19:12:02	648932	61193152f8e8156f6723e801	4	1	main_slash	11	main_slash	151	stimuli_target_rectanglediamonds.svg	stimuli_distractor_diamondtriangles.svg	6	yes	53	1	834	0	0			0	0			1				0	
6.6.1	win	2023-07-08	19:01:09	19:12:02	648932	61193152f8e8156f6723e801	4	1	main_slash	11	advance_on_keypress_SLASH	152	stimuli_target_rectanglediamonds.svg	stimuli_distractor_diamondtriangles.svg	6	yes	57	0	15	0	0			0	0			1				0	
6.6.1	win	2023-07-08	19:01:09	19:12:05	651600	61193152f8e8156f6723e801	4	1	main_slash	11	main_slash	153	stimuli_distractor_diamondtriangles.svg	stimuli_target_squarediamonds.svg	16	yes	0	0	2000	0	0			0	0			1				0	
6.6.1	win	2023-07-08	19:01:09	19:12:05	651600	61193152f8e8156f6723e801	4	1	main_slash	11	advance_on_keypress_SLASH	154	stimuli_distractor_diamondtriangles.svg	stimuli_target_squarediamonds.svg	16	yes	57	0	376	0	0			0	0			1				0	
6.6.1	win	2023-07-08	19:01:09	19:12:07	653587	61193152f8e8156f6723e801	4	1	main_slash	11	main_slash	155	stimuli_target_rectangletriangles.svg	stimuli_distractor_diamondtriangles.svg	5	yes	53	1	984	0	0			0	0			1				0	
6.6.1	win	2023-07-08	19:01:09	19:12:07	653587	61193152f8e8156f6723e801	4	1	main_slash	11	advance_on_keypress_SLASH	156	stimuli_target_rectangletriangles.svg	stimuli_distractor_diamondtriangles.svg	5	yes	57	0	117	0	0			0	0			1				0	
6.6.1	win	2023-07-08	19:01:09	19:12:09	656355	61193152f8e8156f6723e801	4	1	main_slash	11	main_slash	157	stimuli_distractor_diamondtriangles.svg	stimuli_distractor_diamondtriangles.svg	40	no	0	1	2000	0	0			0	0			1				0	
6.6.1	win	2023-07-08	19:01:09	19:12:09	656355	61193152f8e8156f6723e801	4	1	main_slash	11	advance_on_keypress_SLASH	158	stimuli_distractor_diamondtriangles.svg	stimuli_distractor_diamondtriangles.svg	40	no	57	0	310	0	0			0	0			1				0	
6.6.1	win	2023-07-08	19:01:09	19:12:12	659308	61193152f8e8156f6723e801	4	1	main_slash	11	main_slash	159	stimuli_distractor_trianglediamonds.svg	stimuli_target_trianglerectangles.svg	25	yes	0	0	2000	0	0			0	0			1				0	
6.6.1	win	2023-07-08	19:01:09	19:12:12	659308	61193152f8e8156f6723e801	4	1	main_slash	11	advance_on_keypress_SLASH	160	stimuli_distractor_trianglediamonds.svg	stimuli_target_trianglerectangles.svg	25	yes	57	0	22	0	0			0	0			1				0	
6.6.1	win	2023-07-08	19:01:09	19:12:12	659308	61193152f8e8156f6723e801	4	1	headphonecheck_calibration	14	headphonecheck_calibrationIntro	1	stimuli_distractor_trianglediamonds.svg	stimuli_target_trianglerectangles.svg	25	yes	calibrationButton	0	7233	0	0			0	0			1				0	
6.6.1	win	2023-07-08	19:01:09	19:12:12	659308	61193152f8e8156f6723e801	4	1	headphonecheck_testphase	15	test_collectResponse	3	stimuli_distractor_trianglediamonds.svg	stimuli_target_trianglerectangles.svg	25	yes	Ctrl+'Q'	1	60769	1	2	antiphase_hc_ios.wav	3	0	0			1				0	