build	computer.platform	date	time	timestamp	time_elapsed_ms	subject	group	session	blockcode	blocknum	trialcode	trialnum	stimulus_left	stimulus_right	stim_index	target_present	response	correct	latency	headphonecheck_countTestTrials	headphonecheck_index	headphonecheck_testSound	headphonecheck_correctResponse	stereocheck_countTestTrials	stereocheck_index	stereocheck_testSound	stereocheck_correctResponse	DL_index	DL_soundfile	DL_leftSound	DL_rightSound	DL_dualSound	DL_choice
6.6.1	win	2023-06-27	21:29:17	21:33:34	247840	59098fbcc3338c000105a042	3	1	practice_slash	5	practice_slash	1	stimuli_target_diamondsquares.svg	stimuli_distractor_trianglediamonds.svg	6	yes	0	0	2000	0	0			0	0			1				0	
6.6.1	win	2023-06-27	21:29:17	21:33:34	247840	59098fbcc3338c000105a042	3	1	practice_slash	5	advance_on_keypress_SLASH	2	stimuli_target_diamondsquares.svg	stimuli_distractor_trianglediamonds.svg	6	yes	57	0	6513	0	0			0	0			1				0	
6.6.1	win	2023-06-27	21:29:17	21:33:44	258057	59098fbcc3338c000105a042	3	1	practice_slash	5	practice_slash	3	stimuli_distractor_trianglediamonds.svg	stimuli_target_squarediamonds.svg	11	yes	0	0	2000	0	0			0	0			1				0	
6.6.1	win	2023-06-27	21:29:17	21:33:44	258057	59098fbcc3338c000105a042	3	1	practice_slash	5	advance_on_keypress_SLASH	4	stimuli_distractor_trianglediamonds.svg	stimuli_target_squarediamonds.svg	11	yes	57	0	1790	0	0			0	0			1				0	
6.6.1	win	2023-06-27	21:29:17	21:33:50	263540	59098fbcc3338c000105a042	3	1	practice_slash	5	practice_slash	5	stimuli_distractor_trianglediamonds.svg	stimuli_distractor_diamondtriangles.svg	16	no	0	1	2000	0	0			0	0			1				0	
6.6.1	win	2023-06-27	21:29:17	21:33:50	263540	59098fbcc3338c000105a042	3	1	practice_slash	5	advance_on_keypress_SLASH	6	stimuli_distractor_trianglediamonds.svg	stimuli_distractor_diamondtriangles.svg	16	no	57	0	2931	0	0			0	0			1				0	
6.6.1	win	2023-06-27	21:29:17	21:33:57	270178	59098fbcc3338c000105a042	3	1	practice_slash	5	practice_slash	7	stimuli_target_rectanglediamonds.svg	stimuli_distractor_diamondtriangles.svg	1	yes	0	0	2000	0	0			0	0			1				0	
6.6.1	win	2023-06-27	21:29:17	21:33:57	270178	59098fbcc3338c000105a042	3	1	practice_slash	5	advance_on_keypress_SLASH	8	stimuli_target_rectanglediamonds.svg	stimuli_distractor_diamondtriangles.svg	1	yes	57	0	1239	0	0			0	0			1				0	
6.6.1	win	2023-06-27	21:29:17	21:34:01	275108	59098fbcc3338c000105a042	3	1	practice_slash	5	practice_slash	9	stimuli_distractor_trianglediamonds.svg	stimuli_distractor_trianglediamonds.svg	15	no	0	1	2000	0	0			0	0			1				0	
6.6.1	win	2023-06-27	21:29:17	21:34:01	275108	59098fbcc3338c000105a042	3	1	practice_slash	5	advance_on_keypress_SLASH	10	stimuli_distractor_trianglediamonds.svg	stimuli_distractor_trianglediamonds.svg	15	no	57	0	598	0	0			0	0			1				0	
6.6.1	win	2023-06-27	21:29:17	21:34:06	279408	59098fbcc3338c000105a042	3	1	practice_slash	5	practice_slash	11	stimuli_distractor_diamondtriangles.svg	stimuli_target_rectangletriangles.svg	7	yes	0	0	2000	0	0			0	0			1				0	
6.6.1	win	2023-06-27	21:29:17	21:34:06	279408	59098fbcc3338c000105a042	3	1	practice_slash	5	advance_on_keypress_SLASH	12	stimuli_distractor_diamondtriangles.svg	stimuli_target_rectangletriangles.svg	7	yes	57	0	684	0	0			0	0			1				0	
6.6.1	win	2023-06-27	21:29:17	21:34:10	283791	59098fbcc3338c000105a042	3	1	practice_slash	5	practice_slash	13	stimuli_distractor_trianglediamonds.svg	stimuli_target_diamondrectangles.svg	12	yes	0	0	2000	0	0			0	0			1				0	
6.6.1	win	2023-06-27	21:29:17	21:34:10	283791	59098fbcc3338c000105a042	3	1	practice_slash	5	advance_on_keypress_SLASH	14	stimuli_distractor_trianglediamonds.svg	stimuli_target_diamondrectangles.svg	12	yes	57	0	1237	0	0			0	0			1				0	
6.6.1	win	2023-06-27	21:29:17	21:34:15	288723	59098fbcc3338c000105a042	3	1	practice_slash	5	practice_slash	15	stimuli_distractor_diamondtriangles.svg	stimuli_target_diamondrectangles.svg	8	yes	0	0	2000	0	0			0	0			1				0	
6.6.1	win	2023-06-27	21:29:17	21:34:15	288723	59098fbcc3338c000105a042	3	1	practice_slash	5	advance_on_keypress_SLASH	16	stimuli_distractor_diamondtriangles.svg	stimuli_target_diamondrectangles.svg	8	yes	57	0	1283	0	0			0	0			1				0	
6.6.1	win	2023-06-27	21:29:17	21:34:20	293708	59098fbcc3338c000105a042	3	1	practice_slash	5	practice_slash	17	stimuli_target_diamondsquares.svg	stimuli_distractor_diamondtriangles.svg	3	yes	0	0	2000	0	0			0	0			1				0	
6.6.1	win	2023-06-27	21:29:17	21:34:20	293708	59098fbcc3338c000105a042	3	1	practice_slash	5	advance_on_keypress_SLASH	18	stimuli_target_diamondsquares.svg	stimuli_distractor_diamondtriangles.svg	3	yes	57	0	572	0	0			0	0			1				0	
6.6.1	win	2023-06-27	21:29:17	21:34:24	297973	59098fbcc3338c000105a042	3	1	practice_slash	5	practice_slash	19	stimuli_target_rectanglediamonds.svg	stimuli_distractor_trianglediamonds.svg	4	yes	0	0	2000	0	0			0	0			1				0	
6.6.1	win	2023-06-27	21:29:17	21:34:24	297973	59098fbcc3338c000105a042	3	1	practice_slash	5	advance_on_keypress_SLASH	20	stimuli_target_rectanglediamonds.svg	stimuli_distractor_trianglediamonds.svg	4	yes	57	0	623	0	0			0	0			1				0	
6.6.1	win	2023-06-27	21:29:17	21:34:29	302291	59098fbcc3338c000105a042	3	1	practice_slash	5	practice_slash	21	stimuli_target_squarediamonds.svg	stimuli_distractor_diamondtriangles.svg	2	yes	0	0	2000	0	0			0	0			1				0	
6.6.1	win	2023-06-27	21:29:17	21:34:29	302291	59098fbcc3338c000105a042	3	1	practice_slash	5	advance_on_keypress_SLASH	22	stimuli_target_squarediamonds.svg	stimuli_distractor_diamondtriangles.svg	2	yes	57	0	563	0	0			0	0			1				0	
6.6.1	win	2023-06-27	21:29:17	21:34:33	306557	59098fbcc3338c000105a042	3	1	practice_slash	5	practice_slash	23	stimuli_distractor_diamondtriangles.svg	stimuli_distractor_trianglediamonds.svg	14	no	0	1	2000	0	0			0	0			1				0	
6.6.1	win	2023-06-27	21:29:17	21:34:33	306557	59098fbcc3338c000105a042	3	1	practice_slash	5	advance_on_keypress_SLASH	24	stimuli_distractor_diamondtriangles.svg	stimuli_distractor_trianglediamonds.svg	14	no	57	0	435	0	0			0	0			1				0	
6.6.1	win	2023-06-27	21:29:17	21:34:37	310689	59098fbcc3338c000105a042	3	1	practice_slash	5	practice_slash	25	stimuli_distractor_diamondtriangles.svg	stimuli_target_trianglerectangles.svg	9	yes	0	0	2000	0	0			0	0			1				0	
6.6.1	win	2023-06-27	21:29:17	21:34:37	310689	59098fbcc3338c000105a042	3	1	practice_slash	5	advance_on_keypress_SLASH	26	stimuli_distractor_diamondtriangles.svg	stimuli_target_trianglerectangles.svg	9	yes	57	0	3336	0	0			0	0			1				0	
6.6.1	win	2023-06-27	21:29:17	21:34:44	317724	59098fbcc3338c000105a042	3	1	practice_slash	5	practice_slash	27	stimuli_distractor_trianglediamonds.svg	stimuli_target_rectanglediamonds.svg	10	yes	0	0	2000	0	0			0	0			1				0	
6.6.1	win	2023-06-27	21:29:17	21:34:44	317724	59098fbcc3338c000105a042	3	1	practice_slash	5	advance_on_keypress_SLASH	28	stimuli_distractor_trianglediamonds.svg	stimuli_target_rectanglediamonds.svg	10	yes	57	0	1383	0	0			0	0			1				0	
6.6.1	win	2023-06-27	21:29:17	21:34:49	322808	59098fbcc3338c000105a042	3	1	practice_slash	5	practice_slash	29	stimuli_target_squarediamonds.svg	stimuli_distractor_trianglediamonds.svg	5	yes	0	0	2000	0	0			0	0			1				0	
6.6.1	win	2023-06-27	21:29:17	21:34:49	322808	59098fbcc3338c000105a042	3	1	practice_slash	5	advance_on_keypress_SLASH	30	stimuli_target_squarediamonds.svg	stimuli_distractor_trianglediamonds.svg	5	yes	57	0	652	0	0			0	0			1				0	
6.6.1	win	2023-06-27	21:29:17	21:34:54	327156	59098fbcc3338c000105a042	3	1	practice_slash	5	practice_slash	31	stimuli_distractor_diamondtriangles.svg	stimuli_distractor_diamondtriangles.svg	13	no	0	1	2000	0	0			0	0			1				0	
6.6.1	win	2023-06-27	21:29:17	21:34:54	327156	59098fbcc3338c000105a042	3	1	practice_slash	5	advance_on_keypress_SLASH	32	stimuli_distractor_diamondtriangles.svg	stimuli_distractor_diamondtriangles.svg	13	no	57	0	7660	0	0			0	0			1				0	
6.6.1	win	2023-06-27	21:29:17	21:35:56	389132	59098fbcc3338c000105a042	3	1	main_slash	7	main_slash	1	stimuli_target_diamondrectangles.svg	stimuli_distractor_trianglediamonds.svg	19	yes	8	1	698	0	0			0	0			1				0	
6.6.1	win	2023-06-27	21:29:17	21:35:56	389132	59098fbcc3338c000105a042	3	1	main_slash	7	advance_on_keypress_SLASH	2	stimuli_target_diamondrectangles.svg	stimuli_distractor_trianglediamonds.svg	19	yes	57	0	3598	0	0			0	0			1				0	
6.6.1	win	2023-06-27	21:29:17	21:36:02	395418	59098fbcc3338c000105a042	3	1	main_slash	7	main_slash	3	stimuli_target_squarediamonds.svg	stimuli_distractor_diamondtriangles.svg	8	yes	0	0	2000	0	0			0	0			1				0	
6.6.1	win	2023-06-27	21:29:17	21:36:02	395418	59098fbcc3338c000105a042	3	1	main_slash	7	advance_on_keypress_SLASH	4	stimuli_target_squarediamonds.svg	stimuli_distractor_diamondtriangles.svg	8	yes	57	0	1903	0	0			0	0			1				0	
6.6.1	win	2023-06-27	21:29:17	21:36:07	400018	59098fbcc3338c000105a042	3	1	main_slash	7	main_slash	5	stimuli_target_squaretriangles.svg	stimuli_distractor_diamondtriangles.svg	7	yes	0	0	2000	0	0			0	0			1				0	
6.6.1	win	2023-06-27	21:29:17	21:36:07	400018	59098fbcc3338c000105a042	3	1	main_slash	7	advance_on_keypress_SLASH	6	stimuli_target_squaretriangles.svg	stimuli_distractor_diamondtriangles.svg	7	yes	57	0	914	0	0			0	0			1				0	
6.6.1	win	2023-06-27	21:29:17	21:36:10	403617	59098fbcc3338c000105a042	3	1	main_slash	7	main_slash	7	stimuli_target_trianglesquares.svg	stimuli_distractor_diamondtriangles.svg	22	yes	0	0	2000	0	0			0	0			1				0	
6.6.1	win	2023-06-27	21:29:17	21:36:10	403617	59098fbcc3338c000105a042	3	1	main_slash	7	advance_on_keypress_SLASH	8	stimuli_target_trianglesquares.svg	stimuli_distractor_diamondtriangles.svg	22	yes	57	0	702	0	0			0	0			1				0	
6.6.1	win	2023-06-27	21:29:17	21:36:14	406984	59098fbcc3338c000105a042	3	1	main_slash	7	main_slash	9	stimuli_target_rectangletriangles.svg	stimuli_distractor_trianglediamonds.svg	1	yes	0	0	2000	0	0			0	0			1				0	
6.6.1	win	2023-06-27	21:29:17	21:36:14	406984	59098fbcc3338c000105a042	3	1	main_slash	7	advance_on_keypress_SLASH	10	stimuli_target_rectangletriangles.svg	stimuli_distractor_trianglediamonds.svg	1	yes	57	0	2206	0	0			0	0			1				0	
6.6.1	win	2023-06-27	21:29:17	21:36:18	411883	59098fbcc3338c000105a042	3	1	main_slash	7	main_slash	11	stimuli_distractor_trianglediamonds.svg	stimuli_target_trianglerectangles.svg	25	yes	0	0	2000	0	0			0	0			1				0	
6.6.1	win	2023-06-27	21:29:17	21:36:18	411883	59098fbcc3338c000105a042	3	1	main_slash	7	advance_on_keypress_SLASH	12	stimuli_distractor_trianglediamonds.svg	stimuli_target_trianglerectangles.svg	25	yes	57	0	510	0	0			0	0			1				0	
6.6.1	win	2023-06-27	21:29:17	21:36:22	415067	59098fbcc3338c000105a042	3	1	main_slash	7	main_slash	13	stimuli_target_squarediamonds.svg	stimuli_distractor_trianglediamonds.svg	4	yes	0	0	2000	0	0			0	0			1				0	
6.6.1	win	2023-06-27	21:29:17	21:36:22	415067	59098fbcc3338c000105a042	3	1	main_slash	7	advance_on_keypress_SLASH	14	stimuli_target_squarediamonds.svg	stimuli_distractor_trianglediamonds.svg	4	yes	57	0	801	0	0			0	0			1				0	
6.6.1	win	2023-06-27	21:29:17	21:36:25	418550	59098fbcc3338c000105a042	3	1	main_slash	7	main_slash	15	stimuli_distractor_diamondtriangles.svg	stimuli_target_rectanglediamonds.svg	14	yes	0	0	2000	0	0			0	0			1				0	
6.6.1	win	2023-06-27	21:29:17	21:36:25	418550	59098fbcc3338c000105a042	3	1	main_slash	7	advance_on_keypress_SLASH	16	stimuli_distractor_diamondtriangles.svg	stimuli_target_rectanglediamonds.svg	14	yes	57	0	608	0	0			0	0			1				0	
6.6.1	win	2023-06-27	21:29:17	21:36:28	421851	59098fbcc3338c000105a042	3	1	main_slash	7	main_slash	17	stimuli_target_squaretriangles.svg	stimuli_distractor_trianglediamonds.svg	3	yes	0	0	2000	0	0			0	0			1				0	
6.6.1	win	2023-06-27	21:29:17	21:36:28	421851	59098fbcc3338c000105a042	3	1	main_slash	7	advance_on_keypress_SLASH	18	stimuli_target_squaretriangles.svg	stimuli_distractor_trianglediamonds.svg	3	yes	57	0	8	0	0			0	0			1				0	
6.6.1	win	2023-06-27	21:29:17	21:36:31	424567	59098fbcc3338c000105a042	3	1	main_slash	7	main_slash	19	stimuli_distractor_trianglediamonds.svg	stimuli_target_rectangletriangles.svg	9	yes	0	0	2000	0	0			0	0			1				0	
6.6.1	win	2023-06-27	21:29:17	21:36:31	424567	59098fbcc3338c000105a042	3	1	main_slash	7	advance_on_keypress_SLASH	20	stimuli_distractor_trianglediamonds.svg	stimuli_target_rectangletriangles.svg	9	yes	57	0	557	0	0			0	0			1				0	
6.6.1	win	2023-06-27	21:29:17	21:36:34	427817	59098fbcc3338c000105a042	3	1	main_slash	7	main_slash	21	stimuli_distractor_diamondtriangles.svg	stimuli_target_trianglerectangles.svg	29	yes	0	0	2000	0	0			0	0			1				0	
6.6.1	win	2023-06-27	21:29:17	21:36:34	427817	59098fbcc3338c000105a042	3	1	main_slash	7	advance_on_keypress_SLASH	22	stimuli_distractor_diamondtriangles.svg	stimuli_target_trianglerectangles.svg	29	yes	57	0	733	0	0			0	0			1				0	
6.6.1	win	2023-06-27	21:29:17	21:36:38	431234	59098fbcc3338c000105a042	3	1	main_slash	7	main_slash	23	stimuli_target_rectangletriangles.svg	stimuli_distractor_diamondtriangles.svg	5	yes	0	0	2000	0	0			0	0			1				0	
6.6.1	win	2023-06-27	21:29:17	21:36:38	431234	59098fbcc3338c000105a042	3	1	main_slash	7	advance_on_keypress_SLASH	24	stimuli_target_rectangletriangles.svg	stimuli_distractor_diamondtriangles.svg	5	yes	57	0	1266	0	0			0	0			1				0	
6.6.1	win	2023-06-27	21:29:17	21:36:42	435184	59098fbcc3338c000105a042	3	1	main_slash	7	main_slash	25	stimuli_distractor_diamondtriangles.svg	stimuli_distractor_trianglediamonds.svg	38	no	0	1	2000	0	0			0	0			1				0	
6.6.1	win	2023-06-27	21:29:17	21:36:42	435184	59098fbcc3338c000105a042	3	1	main_slash	7	advance_on_keypress_SLASH	26	stimuli_distractor_diamondtriangles.svg	stimuli_distractor_trianglediamonds.svg	38	no	57	0	1076	0	0			0	0			1				0	
6.6.1	win	2023-06-27	21:29:17	21:36:46	438950	59098fbcc3338c000105a042	3	1	main_slash	7	main_slash	27	stimuli_target_trianglerectangles.svg	stimuli_distractor_trianglediamonds.svg	17	yes	0	0	2000	0	0			0	0			1				0	
6.6.1	win	2023-06-27	21:29:17	21:36:46	438950	59098fbcc3338c000105a042	3	1	main_slash	7	advance_on_keypress_SLASH	28	stimuli_target_trianglerectangles.svg	stimuli_distractor_trianglediamonds.svg	17	yes	57	0	1122	0	0			0	0			1				0	
6.6.1	win	2023-06-27	21:29:17	21:36:49	442756	59098fbcc3338c000105a042	3	1	main_slash	7	main_slash	29	stimuli_distractor_trianglediamonds.svg	stimuli_target_trianglesquares.svg	26	yes	0	0	2000	0	0			0	0			1				0	
6.6.1	win	2023-06-27	21:29:17	21:36:49	442756	59098fbcc3338c000105a042	3	1	main_slash	7	advance_on_keypress_SLASH	30	stimuli_distractor_trianglediamonds.svg	stimuli_target_trianglesquares.svg	26	yes	57	0	1144	0	0			0	0			1				0	
6.6.1	win	2023-06-27	21:29:17	21:36:53	446583	59098fbcc3338c000105a042	3	1	main_slash	7	main_slash	31	stimuli_distractor_trianglediamonds.svg	stimuli_distractor_trianglediamonds.svg	34	no	0	1	2000	0	0			0	0			1				0	
6.6.1	win	2023-06-27	21:29:17	21:36:53	446583	59098fbcc3338c000105a042	3	1	main_slash	7	advance_on_keypress_SLASH	32	stimuli_distractor_trianglediamonds.svg	stimuli_distractor_trianglediamonds.svg	34	no	57	0	770	0	0			0	0			1				0	
6.6.1	win	2023-06-27	21:29:17	21:36:57	450017	59098fbcc3338c000105a042	3	1	main_slash	7	main_slash	33	stimuli_target_diamondsquares.svg	stimuli_distractor_diamondtriangles.svg	24	yes	0	0	2000	0	0			0	0			1				0	
6.6.1	win	2023-06-27	21:29:17	21:36:57	450017	59098fbcc3338c000105a042	3	1	main_slash	7	advance_on_keypress_SLASH	34	stimuli_target_diamondsquares.svg	stimuli_distractor_diamondtriangles.svg	24	yes	57	0	2097	0	0			0	0			1				0	
6.6.1	win	2023-06-27	21:29:17	21:37:00	453355	59098fbcc3338c000105a042	3	1	main_slash	7	main_slash	35	stimuli_distractor_diamondtriangles.svg	stimuli_distractor_diamondtriangles.svg	40	no	8	0	535	0	0			0	0			1				0	
6.6.1	win	2023-06-27	21:29:17	21:37:00	453355	59098fbcc3338c000105a042	3	1	main_slash	7	advance_on_keypress_SLASH	36	stimuli_distractor_diamondtriangles.svg	stimuli_distractor_diamondtriangles.svg	40	no	57	0	1004	0	0			0	0			1				0	
6.6.1	win	2023-06-27	21:29:17	21:37:04	457052	59098fbcc3338c000105a042	3	1	main_slash	7	main_slash	37	stimuli_target_trianglerectangles.svg	stimuli_distractor_diamondtriangles.svg	21	yes	0	0	2000	0	0			0	0			1				0	
6.6.1	win	2023-06-27	21:29:17	21:37:04	457052	59098fbcc3338c000105a042	3	1	main_slash	7	advance_on_keypress_SLASH	38	stimuli_target_trianglerectangles.svg	stimuli_distractor_diamondtriangles.svg	21	yes	57	0	664	0	0			0	0			1				0	
6.6.1	win	2023-06-27	21:29:17	21:37:07	460400	59098fbcc3338c000105a042	3	1	main_slash	7	main_slash	39	stimuli_distractor_trianglediamonds.svg	stimuli_distractor_trianglediamonds.svg	33	no	0	1	2000	0	0			0	0			1				0	
6.6.1	win	2023-06-27	21:29:17	21:37:07	460400	59098fbcc3338c000105a042	3	1	main_slash	7	advance_on_keypress_SLASH	40	stimuli_distractor_trianglediamonds.svg	stimuli_distractor_trianglediamonds.svg	33	no	57	0	832	0	0			0	0			1				0	
6.6.1	win	2023-06-27	21:29:17	21:37:10	463900	59098fbcc3338c000105a042	3	1	main_slash	7	main_slash	41	stimuli_target_diamondsquares.svg	stimuli_distractor_trianglediamonds.svg	20	yes	0	0	2000	0	0			0	0			1				0	
6.6.1	win	2023-06-27	21:29:17	21:37:10	463900	59098fbcc3338c000105a042	3	1	main_slash	7	advance_on_keypress_SLASH	42	stimuli_target_diamondsquares.svg	stimuli_distractor_trianglediamonds.svg	20	yes	57	0	437	0	0			0	0			1				0	
6.6.1	win	2023-06-27	21:29:17	21:37:14	467016	59098fbcc3338c000105a042	3	1	main_slash	7	main_slash	43	stimuli_distractor_diamondtriangles.svg	stimuli_target_diamondrectangles.svg	31	yes	0	0	2000	0	0			0	0			1				0	
6.6.1	win	2023-06-27	21:29:17	21:37:14	467016	59098fbcc3338c000105a042	3	1	main_slash	7	advance_on_keypress_SLASH	44	stimuli_distractor_diamondtriangles.svg	stimuli_target_diamondrectangles.svg	31	yes	57	0	458	0	0			0	0			1				0	
6.6.1	win	2023-06-27	21:29:17	21:37:17	470150	59098fbcc3338c000105a042	3	1	main_slash	7	main_slash	45	stimuli_distractor_trianglediamonds.svg	stimuli_distractor_diamondtriangles.svg	36	no	0	1	2000	0	0			0	0			1				0	
6.6.1	win	2023-06-27	21:29:17	21:37:17	470150	59098fbcc3338c000105a042	3	1	main_slash	7	advance_on_keypress_SLASH	46	stimuli_distractor_trianglediamonds.svg	stimuli_distractor_diamondtriangles.svg	36	no	57	0	597	0	0			0	0			1				0	
6.6.1	win	2023-06-27	21:29:17	21:37:20	473416	59098fbcc3338c000105a042	3	1	main_slash	7	main_slash	47	stimuli_distractor_diamondtriangles.svg	stimuli_target_rectangletriangles.svg	13	yes	0	0	2000	0	0			0	0			1				0	
6.6.1	win	2023-06-27	21:29:17	21:37:20	473416	59098fbcc3338c000105a042	3	1	main_slash	7	advance_on_keypress_SLASH	48	stimuli_distractor_diamondtriangles.svg	stimuli_target_rectangletriangles.svg	13	yes	57	0	597	0	0			0	0			1				0	
6.6.1	win	2023-06-27	21:29:17	21:37:23	476682	59098fbcc3338c000105a042	3	1	main_slash	7	main_slash	49	stimuli_target_diamondrectangles.svg	stimuli_distractor_diamondtriangles.svg	23	yes	0	0	2000	0	0			0	0			1				0	
6.6.1	win	2023-06-27	21:29:17	21:37:23	476682	59098fbcc3338c000105a042	3	1	main_slash	7	advance_on_keypress_SLASH	50	stimuli_target_diamondrectangles.svg	stimuli_distractor_diamondtriangles.svg	23	yes	57	0	1026	0	0			0	0			1				0	
6.6.1	win	2023-06-27	21:29:17	21:37:27	480382	59098fbcc3338c000105a042	3	1	main_slash	7	main_slash	51	stimuli_distractor_diamondtriangles.svg	stimuli_target_squarediamonds.svg	16	yes	0	0	2000	0	0			0	0			1				0	
6.6.1	win	2023-06-27	21:29:17	21:37:27	480382	59098fbcc3338c000105a042	3	1	main_slash	7	advance_on_keypress_SLASH	52	stimuli_distractor_diamondtriangles.svg	stimuli_target_squarediamonds.svg	16	yes	57	0	978	0	0			0	0			1				0	
6.6.1	win	2023-06-27	21:29:17	21:37:31	484032	59098fbcc3338c000105a042	3	1	main_slash	7	main_slash	53	stimuli_distractor_trianglediamonds.svg	stimuli_target_diamondsquares.svg	28	yes	0	0	2000	0	0			0	0			1				0	
6.6.1	win	2023-06-27	21:29:17	21:37:31	484032	59098fbcc3338c000105a042	3	1	main_slash	7	advance_on_keypress_SLASH	54	stimuli_distractor_trianglediamonds.svg	stimuli_target_diamondsquares.svg	28	yes	57	0	699	0	0			0	0			1				0	
6.6.1	win	2023-06-27	21:29:17	21:37:34	487399	59098fbcc3338c000105a042	3	1	main_slash	7	main_slash	55	stimuli_target_rectanglediamonds.svg	stimuli_distractor_diamondtriangles.svg	6	yes	0	0	2000	0	0			0	0			1				0	
6.6.1	win	2023-06-27	21:29:17	21:37:34	487399	59098fbcc3338c000105a042	3	1	main_slash	7	advance_on_keypress_SLASH	56	stimuli_target_rectanglediamonds.svg	stimuli_distractor_diamondtriangles.svg	6	yes	57	0	553	0	0			0	0			1				0	
6.6.1	win	2023-06-27	21:29:17	21:37:37	490615	59098fbcc3338c000105a042	3	1	main_slash	7	main_slash	57	stimuli_distractor_trianglediamonds.svg	stimuli_target_diamondrectangles.svg	27	yes	0	0	2000	0	0			0	0			1				0	
6.6.1	win	2023-06-27	21:29:17	21:37:37	490615	59098fbcc3338c000105a042	3	1	main_slash	7	advance_on_keypress_SLASH	58	stimuli_distractor_trianglediamonds.svg	stimuli_target_diamondrectangles.svg	27	yes	57	0	508	0	0			0	0			1				0	
6.6.1	win	2023-06-27	21:29:17	21:37:40	493799	59098fbcc3338c000105a042	3	1	main_slash	7	main_slash	59	stimuli_distractor_diamondtriangles.svg	stimuli_target_squaretriangles.svg	15	yes	0	0	2000	0	0			0	0			1				0	
6.6.1	win	2023-06-27	21:29:17	21:37:40	493799	59098fbcc3338c000105a042	3	1	main_slash	7	advance_on_keypress_SLASH	60	stimuli_distractor_diamondtriangles.svg	stimuli_target_squaretriangles.svg	15	yes	57	0	1918	0	0			0	0			1				0	
6.6.1	win	2023-06-27	21:29:17	21:37:45	498382	59098fbcc3338c000105a042	3	1	main_slash	7	main_slash	61	stimuli_distractor_diamondtriangles.svg	stimuli_distractor_trianglediamonds.svg	37	no	0	1	2000	0	0			0	0			1				0	
6.6.1	win	2023-06-27	21:29:17	21:37:45	498382	59098fbcc3338c000105a042	3	1	main_slash	7	advance_on_keypress_SLASH	62	stimuli_distractor_diamondtriangles.svg	stimuli_distractor_trianglediamonds.svg	37	no	57	0	652	0	0			0	0			1				0	
6.6.1	win	2023-06-27	21:29:17	21:37:48	501699	59098fbcc3338c000105a042	3	1	main_slash	7	main_slash	63	stimuli_distractor_diamondtriangles.svg	stimuli_target_trianglesquares.svg	30	yes	0	0	2000	0	0			0	0			1				0	
6.6.1	win	2023-06-27	21:29:17	21:37:48	501699	59098fbcc3338c000105a042	3	1	main_slash	7	advance_on_keypress_SLASH	64	stimuli_distractor_diamondtriangles.svg	stimuli_target_trianglesquares.svg	30	yes	57	0	509	0	0			0	0			1				0	
6.6.1	win	2023-06-27	21:29:17	21:37:51	504899	59098fbcc3338c000105a042	3	1	main_slash	7	main_slash	65	stimuli_distractor_diamondtriangles.svg	stimuli_target_diamondsquares.svg	32	yes	0	0	2000	0	0			0	0			1				0	
6.6.1	win	2023-06-27	21:29:17	21:37:51	504899	59098fbcc3338c000105a042	3	1	main_slash	7	advance_on_keypress_SLASH	66	stimuli_distractor_diamondtriangles.svg	stimuli_target_diamondsquares.svg	32	yes	57	0	473	0	0			0	0			1				0	
6.6.1	win	2023-06-27	21:29:17	21:37:55	508049	59098fbcc3338c000105a042	3	1	main_slash	7	main_slash	67	stimuli_distractor_trianglediamonds.svg	stimuli_target_rectanglediamonds.svg	10	yes	0	0	2000	0	0			0	0			1				0	
6.6.1	win	2023-06-27	21:29:17	21:37:55	508049	59098fbcc3338c000105a042	3	1	main_slash	7	advance_on_keypress_SLASH	68	stimuli_distractor_trianglediamonds.svg	stimuli_target_rectanglediamonds.svg	10	yes	57	0	1039	0	0			0	0			1				0	
6.6.1	win	2023-06-27	21:29:17	21:37:58	511749	59098fbcc3338c000105a042	3	1	main_slash	7	main_slash	69	stimuli_target_rectanglediamonds.svg	stimuli_distractor_trianglediamonds.svg	2	yes	0	0	2000	0	0			0	0			1				0	
6.6.1	win	2023-06-27	21:29:17	21:37:58	511749	59098fbcc3338c000105a042	3	1	main_slash	7	advance_on_keypress_SLASH	70	stimuli_target_rectanglediamonds.svg	stimuli_distractor_trianglediamonds.svg	2	yes	57	0	665	0	0			0	0			1				0	
6.6.1	win	2023-06-27	21:29:17	21:38:02	515082	59098fbcc3338c000105a042	3	1	main_slash	7	main_slash	71	stimuli_distractor_trianglediamonds.svg	stimuli_distractor_diamondtriangles.svg	35	no	0	1	2000	0	0			0	0			1				0	
6.6.1	win	2023-06-27	21:29:17	21:38:02	515082	59098fbcc3338c000105a042	3	1	main_slash	7	advance_on_keypress_SLASH	72	stimuli_distractor_trianglediamonds.svg	stimuli_distractor_diamondtriangles.svg	35	no	57	0	559	0	0			0	0			1				0	
6.6.1	win	2023-06-27	21:29:17	21:38:05	518316	59098fbcc3338c000105a042	3	1	main_slash	7	main_slash	73	stimuli_distractor_trianglediamonds.svg	stimuli_target_squarediamonds.svg	12	yes	0	0	2000	0	0			0	0			1				0	
6.6.1	win	2023-06-27	21:29:17	21:38:05	518316	59098fbcc3338c000105a042	3	1	main_slash	7	advance_on_keypress_SLASH	74	stimuli_distractor_trianglediamonds.svg	stimuli_target_squarediamonds.svg	12	yes	57	0	536	0	0			0	0			1				0	
6.6.1	win	2023-06-27	21:29:17	21:38:08	521516	59098fbcc3338c000105a042	3	1	main_slash	7	main_slash	75	stimuli_distractor_trianglediamonds.svg	stimuli_target_squaretriangles.svg	11	yes	0	0	2000	0	0			0	0			1				0	
6.6.1	win	2023-06-27	21:29:17	21:38:08	521516	59098fbcc3338c000105a042	3	1	main_slash	7	advance_on_keypress_SLASH	76	stimuli_distractor_trianglediamonds.svg	stimuli_target_squaretriangles.svg	11	yes	57	0	498	0	0			0	0			1				0	
6.6.1	win	2023-06-27	21:29:17	21:38:11	524682	59098fbcc3338c000105a042	3	1	main_slash	7	main_slash	77	stimuli_target_trianglesquares.svg	stimuli_distractor_trianglediamonds.svg	18	yes	0	0	2000	0	0			0	0			1				0	
6.6.1	win	2023-06-27	21:29:17	21:38:11	524682	59098fbcc3338c000105a042	3	1	main_slash	7	advance_on_keypress_SLASH	78	stimuli_target_trianglesquares.svg	stimuli_distractor_trianglediamonds.svg	18	yes	57	0	579	0	0			0	0			1				0	
6.6.1	win	2023-06-27	21:29:17	21:38:14	527933	59098fbcc3338c000105a042	3	1	main_slash	7	main_slash	79	stimuli_distractor_diamondtriangles.svg	stimuli_distractor_diamondtriangles.svg	39	no	0	1	2000	0	0			0	0			1				0	
6.6.1	win	2023-06-27	21:29:17	21:38:14	527933	59098fbcc3338c000105a042	3	1	main_slash	7	advance_on_keypress_SLASH	80	stimuli_distractor_diamondtriangles.svg	stimuli_distractor_diamondtriangles.svg	39	no	57	0	635	0	0			0	0			1				0	
6.6.1	win	2023-06-27	21:29:17	21:38:18	531232	59098fbcc3338c000105a042	3	1	main_slash	7	main_slash	81	stimuli_target_rectangletriangles.svg	stimuli_distractor_diamondtriangles.svg	5	yes	0	0	2000	0	0			0	0			1				0	
6.6.1	win	2023-06-27	21:29:17	21:38:18	531232	59098fbcc3338c000105a042	3	1	main_slash	7	advance_on_keypress_SLASH	82	stimuli_target_rectangletriangles.svg	stimuli_distractor_diamondtriangles.svg	5	yes	57	0	432	0	0			0	0			1				0	
6.6.1	win	2023-06-27	21:29:17	21:38:21	534332	59098fbcc3338c000105a042	3	1	main_slash	7	main_slash	83	stimuli_distractor_trianglediamonds.svg	stimuli_target_rectangletriangles.svg	9	yes	0	0	2000	0	0			0	0			1				0	
6.6.1	win	2023-06-27	21:29:17	21:38:21	534332	59098fbcc3338c000105a042	3	1	main_slash	7	advance_on_keypress_SLASH	84	stimuli_distractor_trianglediamonds.svg	stimuli_target_rectangletriangles.svg	9	yes	57	0	458	0	0			0	0			1				0	
6.6.1	win	2023-06-27	21:29:17	21:38:24	537466	59098fbcc3338c000105a042	3	1	main_slash	7	main_slash	85	stimuli_distractor_diamondtriangles.svg	stimuli_distractor_trianglediamonds.svg	37	no	0	1	2000	0	0			0	0			1				0	
6.6.1	win	2023-06-27	21:29:17	21:38:24	537466	59098fbcc3338c000105a042	3	1	main_slash	7	advance_on_keypress_SLASH	86	stimuli_distractor_diamondtriangles.svg	stimuli_distractor_trianglediamonds.svg	37	no	57	0	492	0	0			0	0			1				0	
6.6.1	win	2023-06-27	21:29:17	21:38:27	540632	59098fbcc3338c000105a042	3	1	main_slash	7	main_slash	87	stimuli_target_diamondrectangles.svg	stimuli_distractor_diamondtriangles.svg	23	yes	0	0	2000	0	0			0	0			1				0	
6.6.1	win	2023-06-27	21:29:17	21:38:27	540632	59098fbcc3338c000105a042	3	1	main_slash	7	advance_on_keypress_SLASH	88	stimuli_target_diamondrectangles.svg	stimuli_distractor_diamondtriangles.svg	23	yes	57	0	487	0	0			0	0			1				0	
6.6.1	win	2023-06-27	21:29:17	21:38:30	543782	59098fbcc3338c000105a042	3	1	main_slash	7	main_slash	89	stimuli_distractor_diamondtriangles.svg	stimuli_target_squaretriangles.svg	15	yes	0	0	2000	0	0			0	0			1				0	
6.6.1	win	2023-06-27	21:29:17	21:38:30	543782	59098fbcc3338c000105a042	3	1	main_slash	7	advance_on_keypress_SLASH	90	stimuli_distractor_diamondtriangles.svg	stimuli_target_squaretriangles.svg	15	yes	57	0	593	0	0			0	0			1				0	
6.6.1	win	2023-06-27	21:29:17	21:38:34	547049	59098fbcc3338c000105a042	3	1	main_slash	7	main_slash	91	stimuli_target_diamondsquares.svg	stimuli_distractor_diamondtriangles.svg	24	yes	0	0	2000	0	0			0	0			1				0	
6.6.1	win	2023-06-27	21:29:17	21:38:34	547049	59098fbcc3338c000105a042	3	1	main_slash	7	advance_on_keypress_SLASH	92	stimuli_target_diamondsquares.svg	stimuli_distractor_diamondtriangles.svg	24	yes	57	0	513	0	0			0	0			1				0	
6.6.1	win	2023-06-27	21:29:17	21:38:37	550232	59098fbcc3338c000105a042	3	1	main_slash	7	main_slash	93	stimuli_distractor_trianglediamonds.svg	stimuli_distractor_trianglediamonds.svg	33	no	0	1	2000	0	0			0	0			1				0	
6.6.1	win	2023-06-27	21:29:17	21:38:37	550232	59098fbcc3338c000105a042	3	1	main_slash	7	advance_on_keypress_SLASH	94	stimuli_distractor_trianglediamonds.svg	stimuli_distractor_trianglediamonds.svg	33	no	57	0	475	0	0			0	0			1				0	
6.6.1	win	2023-06-27	21:29:17	21:38:40	553382	59098fbcc3338c000105a042	3	1	main_slash	7	main_slash	95	stimuli_target_trianglesquares.svg	stimuli_distractor_diamondtriangles.svg	22	yes	0	0	2000	0	0			0	0			1				0	
6.6.1	win	2023-06-27	21:29:17	21:38:40	553382	59098fbcc3338c000105a042	3	1	main_slash	7	advance_on_keypress_SLASH	96	stimuli_target_trianglesquares.svg	stimuli_distractor_diamondtriangles.svg	22	yes	57	0	342	0	0			0	0			1				0	
6.6.1	win	2023-06-27	21:29:17	21:38:43	556399	59098fbcc3338c000105a042	3	1	main_slash	7	main_slash	97	stimuli_distractor_diamondtriangles.svg	stimuli_target_rectanglediamonds.svg	14	yes	0	0	2000	0	0			0	0			1				0	
6.6.1	win	2023-06-27	21:29:17	21:38:43	556399	59098fbcc3338c000105a042	3	1	main_slash	7	advance_on_keypress_SLASH	98	stimuli_distractor_diamondtriangles.svg	stimuli_target_rectanglediamonds.svg	14	yes	57	0	706	0	0			0	0			1				0	
6.6.1	win	2023-06-27	21:29:17	21:38:46	559782	59098fbcc3338c000105a042	3	1	main_slash	7	main_slash	99	stimuli_distractor_diamondtriangles.svg	stimuli_distractor_trianglediamonds.svg	38	no	0	1	2000	0	0			0	0			1				0	
6.6.1	win	2023-06-27	21:29:17	21:38:46	559782	59098fbcc3338c000105a042	3	1	main_slash	7	advance_on_keypress_SLASH	100	stimuli_distractor_diamondtriangles.svg	stimuli_distractor_trianglediamonds.svg	38	no	57	0	1042	0	0			0	0			1				0	
6.6.1	win	2023-06-27	21:29:17	21:38:50	563499	59098fbcc3338c000105a042	3	1	main_slash	7	main_slash	101	stimuli_target_trianglesquares.svg	stimuli_distractor_trianglediamonds.svg	18	yes	0	0	2000	0	0			0	0			1				0	
6.6.1	win	2023-06-27	21:29:17	21:38:50	563499	59098fbcc3338c000105a042	3	1	main_slash	7	advance_on_keypress_SLASH	102	stimuli_target_trianglesquares.svg	stimuli_distractor_trianglediamonds.svg	18	yes	57	0	732	0	0			0	0			1				0	
6.6.1	win	2023-06-27	21:29:17	21:38:53	566899	59098fbcc3338c000105a042	3	1	main_slash	7	main_slash	103	stimuli_distractor_trianglediamonds.svg	stimuli_target_squaretriangles.svg	11	yes	0	0	2000	0	0			0	0			1				0	
6.6.1	win	2023-06-27	21:29:17	21:38:53	566899	59098fbcc3338c000105a042	3	1	main_slash	7	advance_on_keypress_SLASH	104	stimuli_distractor_trianglediamonds.svg	stimuli_target_squaretriangles.svg	11	yes	57	0	458	0	0			0	0			1				0	
6.6.1	win	2023-06-27	21:29:17	21:38:57	570032	59098fbcc3338c000105a042	3	1	main_slash	7	main_slash	105	stimuli_target_rectangletriangles.svg	stimuli_distractor_trianglediamonds.svg	1	yes	0	0	2000	0	0			0	0			1				0	
6.6.1	win	2023-06-27	21:29:17	21:38:57	570032	59098fbcc3338c000105a042	3	1	main_slash	7	advance_on_keypress_SLASH	106	stimuli_target_rectangletriangles.svg	stimuli_distractor_trianglediamonds.svg	1	yes	57	0	390	0	0			0	0			1				0	
6.6.1	win	2023-06-27	21:29:17	21:39:00	573099	59098fbcc3338c000105a042	3	1	main_slash	7	main_slash	107	stimuli_distractor_trianglediamonds.svg	stimuli_target_squarediamonds.svg	12	yes	0	0	2000	0	0			0	0			1				0	
6.6.1	win	2023-06-27	21:29:17	21:39:00	573099	59098fbcc3338c000105a042	3	1	main_slash	7	advance_on_keypress_SLASH	108	stimuli_distractor_trianglediamonds.svg	stimuli_target_squarediamonds.svg	12	yes	57	0	466	0	0			0	0			1				0	
6.6.1	win	2023-06-27	21:29:17	21:39:03	576232	59098fbcc3338c000105a042	3	1	main_slash	7	main_slash	109	stimuli_target_squaretriangles.svg	stimuli_distractor_diamondtriangles.svg	7	yes	0	0	2000	0	0			0	0			1				0	
6.6.1	win	2023-06-27	21:29:17	21:39:03	576232	59098fbcc3338c000105a042	3	1	main_slash	7	advance_on_keypress_SLASH	110	stimuli_target_squaretriangles.svg	stimuli_distractor_diamondtriangles.svg	7	yes	57	0	403	0	0			0	0			1				0	
6.6.1	win	2023-06-27	21:29:17	21:39:06	579299	59098fbcc3338c000105a042	3	1	main_slash	7	main_slash	111	stimuli_target_squarediamonds.svg	stimuli_distractor_trianglediamonds.svg	4	yes	0	0	2000	0	0			0	0			1				0	
6.6.1	win	2023-06-27	21:29:17	21:39:06	579299	59098fbcc3338c000105a042	3	1	main_slash	7	advance_on_keypress_SLASH	112	stimuli_target_squarediamonds.svg	stimuli_distractor_trianglediamonds.svg	4	yes	57	0	429	0	0			0	0			1				0	
6.6.1	win	2023-06-27	21:29:17	21:39:09	582399	59098fbcc3338c000105a042	3	1	main_slash	7	main_slash	113	stimuli_distractor_trianglediamonds.svg	stimuli_distractor_diamondtriangles.svg	35	no	0	1	2000	0	0			0	0			1				0	
6.6.1	win	2023-06-27	21:29:17	21:39:09	582399	59098fbcc3338c000105a042	3	1	main_slash	7	advance_on_keypress_SLASH	114	stimuli_distractor_trianglediamonds.svg	stimuli_distractor_diamondtriangles.svg	35	no	57	0	605	0	0			0	0			1				0	
6.6.1	win	2023-06-27	21:29:17	21:39:12	585666	59098fbcc3338c000105a042	3	1	main_slash	7	main_slash	115	stimuli_distractor_trianglediamonds.svg	stimuli_target_rectanglediamonds.svg	10	yes	0	0	2000	0	0			0	0			1				0	
6.6.1	win	2023-06-27	21:29:17	21:39:12	585666	59098fbcc3338c000105a042	3	1	main_slash	7	advance_on_keypress_SLASH	116	stimuli_distractor_trianglediamonds.svg	stimuli_target_rectanglediamonds.svg	10	yes	57	0	444	0	0			0	0			1				0	
6.6.1	win	2023-06-27	21:29:17	21:39:15	588782	59098fbcc3338c000105a042	3	1	main_slash	7	main_slash	117	stimuli_distractor_trianglediamonds.svg	stimuli_distractor_diamondtriangles.svg	36	no	0	1	2000	0	0			0	0			1				0	
6.6.1	win	2023-06-27	21:29:17	21:39:15	588782	59098fbcc3338c000105a042	3	1	main_slash	7	advance_on_keypress_SLASH	118	stimuli_distractor_trianglediamonds.svg	stimuli_distractor_diamondtriangles.svg	36	no	57	0	709	0	0			0	0			1				0	
6.6.1	win	2023-06-27	21:29:17	21:39:19	592166	59098fbcc3338c000105a042	3	1	main_slash	7	main_slash	119	stimuli_distractor_diamondtriangles.svg	stimuli_distractor_diamondtriangles.svg	40	no	0	1	2000	0	0			0	0			1				0	
6.6.1	win	2023-06-27	21:29:17	21:39:19	592166	59098fbcc3338c000105a042	3	1	main_slash	7	advance_on_keypress_SLASH	120	stimuli_distractor_diamondtriangles.svg	stimuli_distractor_diamondtriangles.svg	40	no	57	0	481	0	0			0	0			1				0	
6.6.1	win	2023-06-27	21:29:17	21:39:22	595316	59098fbcc3338c000105a042	3	1	main_slash	7	main_slash	121	stimuli_target_trianglerectangles.svg	stimuli_distractor_diamondtriangles.svg	21	yes	0	0	2000	0	0			0	0			1				0	
6.6.1	win	2023-06-27	21:29:17	21:39:22	595316	59098fbcc3338c000105a042	3	1	main_slash	7	advance_on_keypress_SLASH	122	stimuli_target_trianglerectangles.svg	stimuli_distractor_diamondtriangles.svg	21	yes	57	0	513	0	0			0	0			1				0	
6.6.1	win	2023-06-27	21:29:17	21:39:25	598499	59098fbcc3338c000105a042	3	1	main_slash	7	main_slash	123	stimuli_target_squaretriangles.svg	stimuli_distractor_trianglediamonds.svg	3	yes	0	0	2000	0	0			0	0			1				0	
6.6.1	win	2023-06-27	21:29:17	21:39:25	598499	59098fbcc3338c000105a042	3	1	main_slash	7	advance_on_keypress_SLASH	124	stimuli_target_squaretriangles.svg	stimuli_distractor_trianglediamonds.svg	3	yes	57	0	619	0	0			0	0			1				0	
6.6.1	win	2023-06-27	21:29:17	21:39:28	601783	59098fbcc3338c000105a042	3	1	main_slash	7	main_slash	125	stimuli_target_diamondrectangles.svg	stimuli_distractor_trianglediamonds.svg	19	yes	0	0	2000	0	0			0	0			1				0	
6.6.1	win	2023-06-27	21:29:17	21:39:28	601783	59098fbcc3338c000105a042	3	1	main_slash	7	advance_on_keypress_SLASH	126	stimuli_target_diamondrectangles.svg	stimuli_distractor_trianglediamonds.svg	19	yes	57	0	507	0	0			0	0			1				0	
6.6.1	win	2023-06-27	21:29:17	21:39:32	604966	59098fbcc3338c000105a042	3	1	main_slash	7	main_slash	127	stimuli_distractor_diamondtriangles.svg	stimuli_distractor_diamondtriangles.svg	39	no	0	1	2000	0	0			0	0			1				0	
6.6.1	win	2023-06-27	21:29:17	21:39:32	604966	59098fbcc3338c000105a042	3	1	main_slash	7	advance_on_keypress_SLASH	128	stimuli_distractor_diamondtriangles.svg	stimuli_distractor_diamondtriangles.svg	39	no	57	0	729	0	0			0	0			1				0	
6.6.1	win	2023-06-27	21:29:17	21:39:35	608366	59098fbcc3338c000105a042	3	1	main_slash	7	main_slash	129	stimuli_distractor_diamondtriangles.svg	stimuli_target_diamondrectangles.svg	31	yes	0	0	2000	0	0			0	0			1				0	
6.6.1	win	2023-06-27	21:29:17	21:39:35	608366	59098fbcc3338c000105a042	3	1	main_slash	7	advance_on_keypress_SLASH	130	stimuli_distractor_diamondtriangles.svg	stimuli_target_diamondrectangles.svg	31	yes	57	0	490	0	0			0	0			1				0	
6.6.1	win	2023-06-27	21:29:17	21:39:38	611532	59098fbcc3338c000105a042	3	1	main_slash	7	main_slash	131	stimuli_distractor_trianglediamonds.svg	stimuli_target_trianglerectangles.svg	25	yes	0	0	2000	0	0			0	0			1				0	
6.6.1	win	2023-06-27	21:29:17	21:39:38	611532	59098fbcc3338c000105a042	3	1	main_slash	7	advance_on_keypress_SLASH	132	stimuli_distractor_trianglediamonds.svg	stimuli_target_trianglerectangles.svg	25	yes	57	0	724	0	0			0	0			1				0	
6.6.1	win	2023-06-27	21:29:17	21:39:42	614933	59098fbcc3338c000105a042	3	1	main_slash	7	main_slash	133	stimuli_distractor_diamondtriangles.svg	stimuli_target_trianglerectangles.svg	29	yes	0	0	2000	0	0			0	0			1				0	
6.6.1	win	2023-06-27	21:29:17	21:39:42	614933	59098fbcc3338c000105a042	3	1	main_slash	7	advance_on_keypress_SLASH	134	stimuli_distractor_diamondtriangles.svg	stimuli_target_trianglerectangles.svg	29	yes	57	0	829	0	0			0	0			1				0	
6.6.1	win	2023-06-27	21:29:17	21:39:45	618434	59098fbcc3338c000105a042	3	1	main_slash	7	main_slash	135	stimuli_distractor_diamondtriangles.svg	stimuli_target_rectangletriangles.svg	13	yes	0	0	2000	0	0			0	0			1				0	
6.6.1	win	2023-06-27	21:29:17	21:39:45	618434	59098fbcc3338c000105a042	3	1	main_slash	7	advance_on_keypress_SLASH	136	stimuli_distractor_diamondtriangles.svg	stimuli_target_rectangletriangles.svg	13	yes	57	0	501	0	0			0	0			1				0	
6.6.1	win	2023-06-27	21:29:17	21:39:48	621599	59098fbcc3338c000105a042	3	1	main_slash	7	main_slash	137	stimuli_target_diamondsquares.svg	stimuli_distractor_trianglediamonds.svg	20	yes	0	0	2000	0	0			0	0			1				0	
6.6.1	win	2023-06-27	21:29:17	21:39:48	621599	59098fbcc3338c000105a042	3	1	main_slash	7	advance_on_keypress_SLASH	138	stimuli_target_diamondsquares.svg	stimuli_distractor_trianglediamonds.svg	20	yes	57	0	645	0	0			0	0			1				0	
6.6.1	win	2023-06-27	21:29:17	21:39:51	624916	59098fbcc3338c000105a042	3	1	main_slash	7	main_slash	139	stimuli_distractor_diamondtriangles.svg	stimuli_target_squarediamonds.svg	16	yes	0	0	2000	0	0			0	0			1				0	
6.6.1	win	2023-06-27	21:29:17	21:39:51	624916	59098fbcc3338c000105a042	3	1	main_slash	7	advance_on_keypress_SLASH	140	stimuli_distractor_diamondtriangles.svg	stimuli_target_squarediamonds.svg	16	yes	57	0	727	0	0			0	0			1				0	
6.6.1	win	2023-06-27	21:29:17	21:39:55	628316	59098fbcc3338c000105a042	3	1	main_slash	7	main_slash	141	stimuli_target_rectanglediamonds.svg	stimuli_distractor_trianglediamonds.svg	2	yes	0	0	2000	0	0			0	0			1				0	
6.6.1	win	2023-06-27	21:29:17	21:39:55	628316	59098fbcc3338c000105a042	3	1	main_slash	7	advance_on_keypress_SLASH	142	stimuli_target_rectanglediamonds.svg	stimuli_distractor_trianglediamonds.svg	2	yes	57	0	539	0	0			0	0			1				0	
6.6.1	win	2023-06-27	21:29:17	21:39:58	631516	59098fbcc3338c000105a042	3	1	main_slash	7	main_slash	143	stimuli_target_rectanglediamonds.svg	stimuli_distractor_diamondtriangles.svg	6	yes	0	0	2000	0	0			0	0			1				0	
6.6.1	win	2023-06-27	21:29:17	21:39:58	631516	59098fbcc3338c000105a042	3	1	main_slash	7	advance_on_keypress_SLASH	144	stimuli_target_rectanglediamonds.svg	stimuli_distractor_diamondtriangles.svg	6	yes	57	0	638	0	0			0	0			1				0	
6.6.1	win	2023-06-27	21:29:17	21:40:01	634816	59098fbcc3338c000105a042	3	1	main_slash	7	main_slash	145	stimuli_distractor_trianglediamonds.svg	stimuli_target_trianglesquares.svg	26	yes	0	0	2000	0	0			0	0			1				0	
6.6.1	win	2023-06-27	21:29:17	21:40:01	634816	59098fbcc3338c000105a042	3	1	main_slash	7	advance_on_keypress_SLASH	146	stimuli_distractor_trianglediamonds.svg	stimuli_target_trianglesquares.svg	26	yes	57	0	689	0	0			0	0			1				0	
6.6.1	win	2023-06-27	21:29:17	21:40:05	638166	59098fbcc3338c000105a042	3	1	main_slash	7	main_slash	147	stimuli_distractor_trianglediamonds.svg	stimuli_target_diamondrectangles.svg	27	yes	0	0	2000	0	0			0	0			1				0	
6.6.1	win	2023-06-27	21:29:17	21:40:05	638166	59098fbcc3338c000105a042	3	1	main_slash	7	advance_on_keypress_SLASH	148	stimuli_distractor_trianglediamonds.svg	stimuli_target_diamondrectangles.svg	27	yes	57	0	699	0	0			0	0			1				0	
6.6.1	win	2023-06-27	21:29:17	21:40:08	641532	59098fbcc3338c000105a042	3	1	main_slash	7	main_slash	149	stimuli_distractor_trianglediamonds.svg	stimuli_target_diamondsquares.svg	28	yes	0	0	2000	0	0			0	0			1				0	
6.6.1	win	2023-06-27	21:29:17	21:40:08	641532	59098fbcc3338c000105a042	3	1	main_slash	7	advance_on_keypress_SLASH	150	stimuli_distractor_trianglediamonds.svg	stimuli_target_diamondsquares.svg	28	yes	57	0	1391	0	0			0	0			1				0	
6.6.1	win	2023-06-27	21:29:17	21:40:12	645599	59098fbcc3338c000105a042	3	1	main_slash	7	main_slash	151	stimuli_target_squarediamonds.svg	stimuli_distractor_diamondtriangles.svg	8	yes	0	0	2000	0	0			0	0			1				0	
6.6.1	win	2023-06-27	21:29:17	21:40:12	645599	59098fbcc3338c000105a042	3	1	main_slash	7	advance_on_keypress_SLASH	152	stimuli_target_squarediamonds.svg	stimuli_distractor_diamondtriangles.svg	8	yes	57	0	5043	0	0			0	0			1				0	
6.6.1	win	2023-06-27	21:29:17	21:40:20	653316	59098fbcc3338c000105a042	3	1	main_slash	7	main_slash	153	stimuli_distractor_diamondtriangles.svg	stimuli_target_trianglesquares.svg	30	yes	0	0	2000	0	0			0	0			1				0	
6.6.1	win	2023-06-27	21:29:17	21:40:20	653316	59098fbcc3338c000105a042	3	1	main_slash	7	advance_on_keypress_SLASH	154	stimuli_distractor_diamondtriangles.svg	stimuli_target_trianglesquares.svg	30	yes	57	0	626	0	0			0	0			1				0	
6.6.1	win	2023-06-27	21:29:17	21:40:23	656616	59098fbcc3338c000105a042	3	1	main_slash	7	main_slash	155	stimuli_target_trianglerectangles.svg	stimuli_distractor_trianglediamonds.svg	17	yes	0	0	2000	0	0			0	0			1				0	
6.6.1	win	2023-06-27	21:29:17	21:40:23	656616	59098fbcc3338c000105a042	3	1	main_slash	7	advance_on_keypress_SLASH	156	stimuli_target_trianglerectangles.svg	stimuli_distractor_trianglediamonds.svg	17	yes	57	0	409	0	0			0	0			1				0	
6.6.1	win	2023-06-27	21:29:17	21:40:26	659699	59098fbcc3338c000105a042	3	1	main_slash	7	main_slash	157	stimuli_distractor_trianglediamonds.svg	stimuli_distractor_trianglediamonds.svg	34	no	0	1	2000	0	0			0	0			1				0	
6.6.1	win	2023-06-27	21:29:17	21:40:26	659699	59098fbcc3338c000105a042	3	1	main_slash	7	advance_on_keypress_SLASH	158	stimuli_distractor_trianglediamonds.svg	stimuli_distractor_trianglediamonds.svg	34	no	57	0	321	0	0			0	0			1				0	
6.6.1	win	2023-06-27	21:29:17	21:40:29	662683	59098fbcc3338c000105a042	3	1	main_slash	7	main_slash	159	stimuli_distractor_diamondtriangles.svg	stimuli_target_diamondsquares.svg	32	yes	0	0	2000	0	0			0	0			1				0	
6.6.1	win	2023-06-27	21:29:17	21:40:29	662683	59098fbcc3338c000105a042	3	1	main_slash	7	advance_on_keypress_SLASH	160	stimuli_distractor_diamondtriangles.svg	stimuli_target_diamondsquares.svg	32	yes	57	0	473	0	0			0	0			1				0	
6.6.1	win	2023-06-27	21:29:17	21:41:06	699568	59098fbcc3338c000105a042	3	1	practice_z	9	practice_z	1	stimuli_distractor_diamondtriangles.svg	stimuli_target_diamondrectangles.svg	8	yes	44	1	480	0	0			0	0			1				0	
6.6.1	win	2023-06-27	21:29:17	21:41:06	699568	59098fbcc3338c000105a042	3	1	practice_z	9	advance_on_keypress_ZEE	2	stimuli_distractor_diamondtriangles.svg	stimuli_target_diamondrectangles.svg	8	yes	57	0	1161	0	0			0	0			1				0	
6.6.1	win	2023-06-27	21:29:17	21:41:09	702828	59098fbcc3338c000105a042	3	1	practice_z	9	practice_z	3	stimuli_distractor_diamondtriangles.svg	stimuli_target_trianglerectangles.svg	9	yes	44	1	423	0	0			0	0			1				0	
6.6.1	win	2023-06-27	21:29:17	21:41:09	702828	59098fbcc3338c000105a042	3	1	practice_z	9	advance_on_keypress_ZEE	4	stimuli_distractor_diamondtriangles.svg	stimuli_target_trianglerectangles.svg	9	yes	57	0	2795	0	0			0	0			1				0	
6.6.1	win	2023-06-27	21:29:17	21:41:14	707658	59098fbcc3338c000105a042	3	1	practice_z	9	practice_z	5	stimuli_target_squarediamonds.svg	stimuli_distractor_trianglediamonds.svg	5	yes	44	1	354	0	0			0	0			1				0	
6.6.1	win	2023-06-27	21:29:17	21:41:14	707658	59098fbcc3338c000105a042	3	1	practice_z	9	advance_on_keypress_ZEE	6	stimuli_target_squarediamonds.svg	stimuli_distractor_trianglediamonds.svg	5	yes	57	0	869	0	0			0	0			1				0	
6.6.1	win	2023-06-27	21:29:17	21:41:17	710616	59098fbcc3338c000105a042	3	1	practice_z	9	practice_z	7	stimuli_target_diamondsquares.svg	stimuli_distractor_trianglediamonds.svg	6	yes	44	1	394	0	0			0	0			1				0	
6.6.1	win	2023-06-27	21:29:17	21:41:17	710616	59098fbcc3338c000105a042	3	1	practice_z	9	advance_on_keypress_ZEE	8	stimuli_target_diamondsquares.svg	stimuli_distractor_trianglediamonds.svg	6	yes	57	0	531	0	0			0	0			1				0	
6.6.1	win	2023-06-27	21:29:17	21:41:21	714838	59098fbcc3338c000105a042	3	1	practice_z	9	practice_z	9	stimuli_distractor_diamondtriangles.svg	stimuli_distractor_diamondtriangles.svg	13	no	0	1	2000	0	0			0	0			1				0	
6.6.1	win	2023-06-27	21:29:17	21:41:21	714838	59098fbcc3338c000105a042	3	1	practice_z	9	advance_on_keypress_ZEE	10	stimuli_distractor_diamondtriangles.svg	stimuli_distractor_diamondtriangles.svg	13	no	57	0	523	0	0			0	0			1				0	
6.6.1	win	2023-06-27	21:29:17	21:41:24	717496	59098fbcc3338c000105a042	3	1	practice_z	9	practice_z	11	stimuli_distractor_trianglediamonds.svg	stimuli_target_rectanglediamonds.svg	10	yes	44	1	458	0	0			0	0			1				0	
6.6.1	win	2023-06-27	21:29:17	21:41:24	717496	59098fbcc3338c000105a042	3	1	practice_z	9	advance_on_keypress_ZEE	12	stimuli_distractor_trianglediamonds.svg	stimuli_target_rectanglediamonds.svg	10	yes	57	0	593	0	0			0	0			1				0	
6.6.1	win	2023-06-27	21:29:17	21:41:28	721771	59098fbcc3338c000105a042	3	1	practice_z	9	practice_z	13	stimuli_distractor_diamondtriangles.svg	stimuli_distractor_trianglediamonds.svg	14	no	0	1	2000	0	0			0	0			1				0	
6.6.1	win	2023-06-27	21:29:17	21:41:28	721771	59098fbcc3338c000105a042	3	1	practice_z	9	advance_on_keypress_ZEE	14	stimuli_distractor_diamondtriangles.svg	stimuli_distractor_trianglediamonds.svg	14	no	57	0	534	0	0			0	0			1				0	
6.6.1	win	2023-06-27	21:29:17	21:41:31	724336	59098fbcc3338c000105a042	3	1	practice_z	9	practice_z	15	stimuli_distractor_diamondtriangles.svg	stimuli_target_rectangletriangles.svg	7	yes	44	1	348	0	0			0	0			1				0	
6.6.1	win	2023-06-27	21:29:17	21:41:31	724336	59098fbcc3338c000105a042	3	1	practice_z	9	advance_on_keypress_ZEE	16	stimuli_distractor_diamondtriangles.svg	stimuli_target_rectangletriangles.svg	7	yes	57	0	515	0	0			0	0			1				0	
6.6.1	win	2023-06-27	21:29:17	21:41:34	726993	59098fbcc3338c000105a042	3	1	practice_z	9	practice_z	17	stimuli_target_squarediamonds.svg	stimuli_distractor_diamondtriangles.svg	2	yes	44	1	454	0	0			0	0			1				0	
6.6.1	win	2023-06-27	21:29:17	21:41:34	726993	59098fbcc3338c000105a042	3	1	practice_z	9	advance_on_keypress_ZEE	18	stimuli_target_squarediamonds.svg	stimuli_distractor_diamondtriangles.svg	2	yes	57	0	480	0	0			0	0			1				0	
6.6.1	win	2023-06-27	21:29:17	21:41:36	729515	59098fbcc3338c000105a042	3	1	practice_z	9	practice_z	19	stimuli_target_rectanglediamonds.svg	stimuli_distractor_diamondtriangles.svg	1	yes	44	1	361	0	0			0	0			1				0	
6.6.1	win	2023-06-27	21:29:17	21:41:36	729515	59098fbcc3338c000105a042	3	1	practice_z	9	advance_on_keypress_ZEE	20	stimuli_target_rectanglediamonds.svg	stimuli_distractor_diamondtriangles.svg	1	yes	57	0	412	0	0			0	0			1				0	
6.6.1	win	2023-06-27	21:29:17	21:41:39	732073	59098fbcc3338c000105a042	3	1	practice_z	9	practice_z	21	stimuli_target_diamondsquares.svg	stimuli_distractor_diamondtriangles.svg	3	yes	44	1	468	0	0			0	0			1				0	
6.6.1	win	2023-06-27	21:29:17	21:41:39	732073	59098fbcc3338c000105a042	3	1	practice_z	9	advance_on_keypress_ZEE	22	stimuli_target_diamondsquares.svg	stimuli_distractor_diamondtriangles.svg	3	yes	57	0	494	0	0			0	0			1				0	
6.6.1	win	2023-06-27	21:29:17	21:41:42	735130	59098fbcc3338c000105a042	3	1	practice_z	9	practice_z	23	stimuli_distractor_trianglediamonds.svg	stimuli_target_squarediamonds.svg	11	yes	44	1	892	0	0			0	0			1				0	
6.6.1	win	2023-06-27	21:29:17	21:41:42	735130	59098fbcc3338c000105a042	3	1	practice_z	9	advance_on_keypress_ZEE	24	stimuli_distractor_trianglediamonds.svg	stimuli_target_squarediamonds.svg	11	yes	57	0	489	0	0			0	0			1				0	
6.6.1	win	2023-06-27	21:29:17	21:41:45	738186	59098fbcc3338c000105a042	3	1	practice_z	9	practice_z	25	stimuli_distractor_trianglediamonds.svg	stimuli_distractor_diamondtriangles.svg	16	no	44	0	881	0	0			0	0			1				0	
6.6.1	win	2023-06-27	21:29:17	21:41:45	738186	59098fbcc3338c000105a042	3	1	practice_z	9	advance_on_keypress_ZEE	26	stimuli_distractor_trianglediamonds.svg	stimuli_distractor_diamondtriangles.svg	16	no	57	0	484	0	0			0	0			1				0	
6.6.1	win	2023-06-27	21:29:17	21:41:49	742354	59098fbcc3338c000105a042	3	1	practice_z	9	practice_z	27	stimuli_distractor_trianglediamonds.svg	stimuli_distractor_trianglediamonds.svg	15	no	0	1	2000	0	0			0	0			1				0	
6.6.1	win	2023-06-27	21:29:17	21:41:49	742354	59098fbcc3338c000105a042	3	1	practice_z	9	advance_on_keypress_ZEE	28	stimuli_distractor_trianglediamonds.svg	stimuli_distractor_trianglediamonds.svg	15	no	57	0	521	0	0			0	0			1				0	
6.6.1	win	2023-06-27	21:29:17	21:41:52	745083	59098fbcc3338c000105a042	3	1	practice_z	9	practice_z	29	stimuli_target_rectanglediamonds.svg	stimuli_distractor_trianglediamonds.svg	4	yes	44	1	509	0	0			0	0			1				0	
6.6.1	win	2023-06-27	21:29:17	21:41:52	745083	59098fbcc3338c000105a042	3	1	practice_z	9	advance_on_keypress_ZEE	30	stimuli_target_rectanglediamonds.svg	stimuli_distractor_trianglediamonds.svg	4	yes	57	0	464	0	0			0	0			1				0	
6.6.1	win	2023-06-27	21:29:17	21:41:54	747783	59098fbcc3338c000105a042	3	1	practice_z	9	practice_z	31	stimuli_distractor_trianglediamonds.svg	stimuli_target_diamondrectangles.svg	12	yes	44	1	560	0	0			0	0			1				0	
6.6.1	win	2023-06-27	21:29:17	21:41:54	747783	59098fbcc3338c000105a042	3	1	practice_z	9	advance_on_keypress_ZEE	32	stimuli_distractor_trianglediamonds.svg	stimuli_target_diamondrectangles.svg	12	yes	57	0	526	0	0			0	0			1				0	
6.6.1	win	2023-06-27	21:29:17	21:42:04	757396	59098fbcc3338c000105a042	3	1	main_z	11	main_z	1	stimuli_distractor_diamondtriangles.svg	stimuli_target_diamondrectangles.svg	31	yes	44	1	497	0	0			0	0			1				0	
6.6.1	win	2023-06-27	21:29:17	21:42:04	757396	59098fbcc3338c000105a042	3	1	main_z	11	advance_on_keypress_ZEE	2	stimuli_distractor_diamondtriangles.svg	stimuli_target_diamondrectangles.svg	31	yes	57	0	1069	0	0			0	0			1				0	
6.6.1	win	2023-06-27	21:29:17	21:42:06	759580	59098fbcc3338c000105a042	3	1	main_z	11	main_z	3	stimuli_distractor_diamondtriangles.svg	stimuli_target_diamondsquares.svg	32	yes	44	1	446	0	0			0	0			1				0	
6.6.1	win	2023-06-27	21:29:17	21:42:06	759580	59098fbcc3338c000105a042	3	1	main_z	11	advance_on_keypress_ZEE	4	stimuli_distractor_diamondtriangles.svg	stimuli_target_diamondsquares.svg	32	yes	57	0	967	0	0			0	0			1				0	
6.6.1	win	2023-06-27	21:29:17	21:42:08	761713	59098fbcc3338c000105a042	3	1	main_z	11	main_z	5	stimuli_target_squaretriangles.svg	stimuli_distractor_trianglediamonds.svg	3	yes	44	1	497	0	0			0	0			1				0	
6.6.1	win	2023-06-27	21:29:17	21:42:08	761713	59098fbcc3338c000105a042	3	1	main_z	11	advance_on_keypress_ZEE	6	stimuli_target_squaretriangles.svg	stimuli_distractor_trianglediamonds.svg	3	yes	57	0	1091	0	0			0	0			1				0	
6.6.1	win	2023-06-27	21:29:17	21:42:11	764032	59098fbcc3338c000105a042	3	1	main_z	11	main_z	7	stimuli_distractor_trianglediamonds.svg	stimuli_target_rectanglediamonds.svg	10	yes	44	1	548	0	0			0	0			1				0	
6.6.1	win	2023-06-27	21:29:17	21:42:11	764032	59098fbcc3338c000105a042	3	1	main_z	11	advance_on_keypress_ZEE	8	stimuli_distractor_trianglediamonds.svg	stimuli_target_rectanglediamonds.svg	10	yes	57	0	763	0	0			0	0			1				0	
6.6.1	win	2023-06-27	21:29:17	21:42:12	765892	59098fbcc3338c000105a042	3	1	main_z	11	main_z	9	stimuli_distractor_diamondtriangles.svg	stimuli_target_squaretriangles.svg	15	yes	44	1	425	0	0			0	0			1				0	
6.6.1	win	2023-06-27	21:29:17	21:42:12	765892	59098fbcc3338c000105a042	3	1	main_z	11	advance_on_keypress_ZEE	10	stimuli_distractor_diamondtriangles.svg	stimuli_target_squaretriangles.svg	15	yes	57	0	751	0	0			0	0			1				0	
6.6.1	win	2023-06-27	21:29:17	21:42:15	768070	59098fbcc3338c000105a042	3	1	main_z	11	main_z	11	stimuli_target_diamondrectangles.svg	stimuli_distractor_trianglediamonds.svg	19	yes	44	1	753	0	0			0	0			1				0	
6.6.1	win	2023-06-27	21:29:17	21:42:15	768070	59098fbcc3338c000105a042	3	1	main_z	11	advance_on_keypress_ZEE	12	stimuli_target_diamondrectangles.svg	stimuli_distractor_trianglediamonds.svg	19	yes	57	0	1212	0	0			0	0			1				0	
6.6.1	win	2023-06-27	21:29:17	21:42:17	770443	59098fbcc3338c000105a042	3	1	main_z	11	main_z	13	stimuli_distractor_diamondtriangles.svg	stimuli_target_trianglesquares.svg	30	yes	44	1	494	0	0			0	0			1				0	
6.6.1	win	2023-06-27	21:29:17	21:42:17	770443	59098fbcc3338c000105a042	3	1	main_z	11	advance_on_keypress_ZEE	14	stimuli_distractor_diamondtriangles.svg	stimuli_target_trianglesquares.svg	30	yes	57	0	862	0	0			0	0			1				0	
6.6.1	win	2023-06-27	21:29:17	21:42:19	772392	59098fbcc3338c000105a042	3	1	main_z	11	main_z	15	stimuli_target_diamondsquares.svg	stimuli_distractor_trianglediamonds.svg	20	yes	44	1	409	0	0			0	0			1				0	
6.6.1	win	2023-06-27	21:29:17	21:42:19	772392	59098fbcc3338c000105a042	3	1	main_z	11	advance_on_keypress_ZEE	16	stimuli_target_diamondsquares.svg	stimuli_distractor_trianglediamonds.svg	20	yes	57	0	1281	0	0			0	0			1				0	
6.6.1	win	2023-06-27	21:29:17	21:42:21	774766	59098fbcc3338c000105a042	3	1	main_z	11	main_z	17	stimuli_distractor_trianglediamonds.svg	stimuli_target_trianglesquares.svg	26	yes	44	1	416	0	0			0	0			1				0	
6.6.1	win	2023-06-27	21:29:17	21:42:21	774766	59098fbcc3338c000105a042	3	1	main_z	11	advance_on_keypress_ZEE	18	stimuli_distractor_trianglediamonds.svg	stimuli_target_trianglesquares.svg	26	yes	57	0	1601	0	0			0	0			1				0	
6.6.1	win	2023-06-27	21:29:17	21:42:24	777532	59098fbcc3338c000105a042	3	1	main_z	11	main_z	19	stimuli_distractor_diamondtriangles.svg	stimuli_target_trianglerectangles.svg	29	yes	44	1	499	0	0			0	0			1				0	
6.6.1	win	2023-06-27	21:29:17	21:42:24	777532	59098fbcc3338c000105a042	3	1	main_z	11	advance_on_keypress_ZEE	20	stimuli_distractor_diamondtriangles.svg	stimuli_target_trianglerectangles.svg	29	yes	57	0	2414	0	0			0	0			1				0	
6.6.1	win	2023-06-27	21:29:17	21:42:28	781011	59098fbcc3338c000105a042	3	1	main_z	11	main_z	21	stimuli_target_rectangletriangles.svg	stimuli_distractor_trianglediamonds.svg	1	yes	44	1	376	0	0			0	0			1				0	
6.6.1	win	2023-06-27	21:29:17	21:42:28	781011	59098fbcc3338c000105a042	3	1	main_z	11	advance_on_keypress_ZEE	22	stimuli_target_rectangletriangles.svg	stimuli_distractor_trianglediamonds.svg	1	yes	57	0	1394	0	0			0	0			1				0	
6.6.1	win	2023-06-27	21:29:17	21:42:32	785083	59098fbcc3338c000105a042	3	1	main_z	11	main_z	23	stimuli_distractor_trianglediamonds.svg	stimuli_distractor_trianglediamonds.svg	33	no	0	1	2000	0	0			0	0			1				0	
6.6.1	win	2023-06-27	21:29:17	21:42:32	785083	59098fbcc3338c000105a042	3	1	main_z	11	advance_on_keypress_ZEE	24	stimuli_distractor_trianglediamonds.svg	stimuli_distractor_trianglediamonds.svg	33	no	57	0	587	0	0			0	0			1				0	
6.6.1	win	2023-06-27	21:29:17	21:42:34	786959	59098fbcc3338c000105a042	3	1	main_z	11	main_z	25	stimuli_distractor_trianglediamonds.svg	stimuli_target_rectangletriangles.svg	9	yes	44	1	626	0	0			0	0			1				0	
6.6.1	win	2023-06-27	21:29:17	21:42:34	786959	59098fbcc3338c000105a042	3	1	main_z	11	advance_on_keypress_ZEE	26	stimuli_distractor_trianglediamonds.svg	stimuli_target_rectangletriangles.svg	9	yes	57	0	818	0	0			0	0			1				0	
6.6.1	win	2023-06-27	21:29:17	21:42:36	788978	59098fbcc3338c000105a042	3	1	main_z	11	main_z	27	stimuli_target_trianglerectangles.svg	stimuli_distractor_diamondtriangles.svg	21	yes	44	1	515	0	0			0	0			1				0	
6.6.1	win	2023-06-27	21:29:17	21:42:36	788978	59098fbcc3338c000105a042	3	1	main_z	11	advance_on_keypress_ZEE	28	stimuli_target_trianglerectangles.svg	stimuli_distractor_diamondtriangles.svg	21	yes	57	0	730	0	0			0	0			1				0	
6.6.1	win	2023-06-27	21:29:17	21:42:37	790794	59098fbcc3338c000105a042	3	1	main_z	11	main_z	29	stimuli_target_rectanglediamonds.svg	stimuli_distractor_trianglediamonds.svg	2	yes	44	1	411	0	0			0	0			1				0	
6.6.1	win	2023-06-27	21:29:17	21:42:37	790794	59098fbcc3338c000105a042	3	1	main_z	11	advance_on_keypress_ZEE	30	stimuli_target_rectanglediamonds.svg	stimuli_distractor_trianglediamonds.svg	2	yes	57	0	713	0	0			0	0			1				0	
6.6.1	win	2023-06-27	21:29:17	21:42:41	794183	59098fbcc3338c000105a042	3	1	main_z	11	main_z	31	stimuli_distractor_diamondtriangles.svg	stimuli_distractor_diamondtriangles.svg	39	no	0	1	2000	0	0			0	0			1				0	
6.6.1	win	2023-06-27	21:29:17	21:42:41	794183	59098fbcc3338c000105a042	3	1	main_z	11	advance_on_keypress_ZEE	32	stimuli_distractor_diamondtriangles.svg	stimuli_distractor_diamondtriangles.svg	39	no	57	0	601	0	0			0	0			1				0	
6.6.1	win	2023-06-27	21:29:17	21:42:43	795978	59098fbcc3338c000105a042	3	1	main_z	11	main_z	33	stimuli_distractor_trianglediamonds.svg	stimuli_distractor_diamondtriangles.svg	35	no	44	0	509	0	0			0	0			1				0	
6.6.1	win	2023-06-27	21:29:17	21:42:43	795978	59098fbcc3338c000105a042	3	1	main_z	11	advance_on_keypress_ZEE	34	stimuli_distractor_trianglediamonds.svg	stimuli_distractor_diamondtriangles.svg	35	no	57	0	1053	0	0			0	0			1				0	
6.6.1	win	2023-06-27	21:29:17	21:42:45	798196	59098fbcc3338c000105a042	3	1	main_z	11	main_z	35	stimuli_target_diamondrectangles.svg	stimuli_distractor_diamondtriangles.svg	23	yes	44	1	497	0	0			0	0			1				0	
6.6.1	win	2023-06-27	21:29:17	21:42:45	798196	59098fbcc3338c000105a042	3	1	main_z	11	advance_on_keypress_ZEE	36	stimuli_target_diamondrectangles.svg	stimuli_distractor_diamondtriangles.svg	23	yes	57	0	607	0	0			0	0			1				0	
6.6.1	win	2023-06-27	21:29:17	21:42:47	800256	59098fbcc3338c000105a042	3	1	main_z	11	main_z	37	stimuli_target_rectangletriangles.svg	stimuli_distractor_diamondtriangles.svg	5	yes	44	1	790	0	0			0	0			1				0	
6.6.1	win	2023-06-27	21:29:17	21:42:47	800256	59098fbcc3338c000105a042	3	1	main_z	11	advance_on_keypress_ZEE	38	stimuli_target_rectangletriangles.svg	stimuli_distractor_diamondtriangles.svg	5	yes	57	0	555	0	0			0	0			1				0	
6.6.1	win	2023-06-27	21:29:17	21:42:49	802568	59098fbcc3338c000105a042	3	1	main_z	11	main_z	39	stimuli_distractor_trianglediamonds.svg	stimuli_distractor_diamondtriangles.svg	36	no	44	0	1102	0	0			0	0			1				0	
6.6.1	win	2023-06-27	21:29:17	21:42:49	802568	59098fbcc3338c000105a042	3	1	main_z	11	advance_on_keypress_ZEE	40	stimuli_distractor_trianglediamonds.svg	stimuli_distractor_diamondtriangles.svg	36	no	57	0	507	0	0			0	0			1				0	
6.6.1	win	2023-06-27	21:29:17	21:42:51	804388	59098fbcc3338c000105a042	3	1	main_z	11	main_z	41	stimuli_distractor_diamondtriangles.svg	stimuli_target_rectanglediamonds.svg	14	yes	44	1	639	0	0			0	0			1				0	
6.6.1	win	2023-06-27	21:29:17	21:42:51	804388	59098fbcc3338c000105a042	3	1	main_z	11	advance_on_keypress_ZEE	42	stimuli_distractor_diamondtriangles.svg	stimuli_target_rectanglediamonds.svg	14	yes	57	0	545	0	0			0	0			1				0	
6.6.1	win	2023-06-27	21:29:17	21:42:53	806088	59098fbcc3338c000105a042	3	1	main_z	11	main_z	43	stimuli_target_diamondsquares.svg	stimuli_distractor_diamondtriangles.svg	24	yes	44	1	489	0	0			0	0			1				0	
6.6.1	win	2023-06-27	21:29:17	21:42:53	806088	59098fbcc3338c000105a042	3	1	main_z	11	advance_on_keypress_ZEE	44	stimuli_target_diamondsquares.svg	stimuli_distractor_diamondtriangles.svg	24	yes	57	0	580	0	0			0	0			1				0	
6.6.1	win	2023-06-27	21:29:17	21:42:55	808052	59098fbcc3338c000105a042	3	1	main_z	11	main_z	45	stimuli_distractor_diamondtriangles.svg	stimuli_target_rectangletriangles.svg	13	yes	44	1	719	0	0			0	0			1				0	
6.6.1	win	2023-06-27	21:29:17	21:42:55	808052	59098fbcc3338c000105a042	3	1	main_z	11	advance_on_keypress_ZEE	46	stimuli_distractor_diamondtriangles.svg	stimuli_target_rectangletriangles.svg	13	yes	57	0	477	0	0			0	0			1				0	
6.6.1	win	2023-06-27	21:29:17	21:42:56	809662	59098fbcc3338c000105a042	3	1	main_z	11	main_z	47	stimuli_distractor_trianglediamonds.svg	stimuli_target_diamondsquares.svg	28	yes	44	1	463	0	0			0	0			1				0	
6.6.1	win	2023-06-27	21:29:17	21:42:56	809662	59098fbcc3338c000105a042	3	1	main_z	11	advance_on_keypress_ZEE	48	stimuli_distractor_trianglediamonds.svg	stimuli_target_diamondsquares.svg	28	yes	57	0	646	0	0			0	0			1				0	
6.6.1	win	2023-06-27	21:29:17	21:42:59	812115	59098fbcc3338c000105a042	3	1	main_z	11	main_z	49	stimuli_distractor_diamondtriangles.svg	stimuli_distractor_trianglediamonds.svg	38	no	44	0	1132	0	0			0	0			1				0	
6.6.1	win	2023-06-27	21:29:17	21:42:59	812115	59098fbcc3338c000105a042	3	1	main_z	11	advance_on_keypress_ZEE	50	stimuli_distractor_diamondtriangles.svg	stimuli_distractor_trianglediamonds.svg	38	no	57	0	584	0	0			0	0			1				0	
6.6.1	win	2023-06-27	21:29:17	21:43:02	815366	59098fbcc3338c000105a042	3	1	main_z	11	main_z	51	stimuli_distractor_diamondtriangles.svg	stimuli_distractor_trianglediamonds.svg	37	no	0	1	2000	0	0			0	0			1				0	
6.6.1	win	2023-06-27	21:29:17	21:43:02	815366	59098fbcc3338c000105a042	3	1	main_z	11	advance_on_keypress_ZEE	52	stimuli_distractor_diamondtriangles.svg	stimuli_distractor_trianglediamonds.svg	37	no	57	0	549	0	0			0	0			1				0	
6.6.1	win	2023-06-27	21:29:17	21:43:04	817230	59098fbcc3338c000105a042	3	1	main_z	11	main_z	53	stimuli_distractor_trianglediamonds.svg	stimuli_target_squaretriangles.svg	11	yes	44	1	647	0	0			0	0			1				0	
6.6.1	win	2023-06-27	21:29:17	21:43:04	817230	59098fbcc3338c000105a042	3	1	main_z	11	advance_on_keypress_ZEE	54	stimuli_distractor_trianglediamonds.svg	stimuli_target_squaretriangles.svg	11	yes	57	0	482	0	0			0	0			1				0	
6.6.1	win	2023-06-27	21:29:17	21:43:05	818855	59098fbcc3338c000105a042	3	1	main_z	11	main_z	55	stimuli_target_trianglesquares.svg	stimuli_distractor_trianglediamonds.svg	18	yes	44	1	472	0	0			0	0			1				0	
6.6.1	win	2023-06-27	21:29:17	21:43:05	818855	59098fbcc3338c000105a042	3	1	main_z	11	advance_on_keypress_ZEE	56	stimuli_target_trianglesquares.svg	stimuli_distractor_trianglediamonds.svg	18	yes	57	0	3167	0	0			0	0			1				0	
6.6.1	win	2023-06-27	21:29:17	21:43:10	823103	59098fbcc3338c000105a042	3	1	main_z	11	main_z	57	stimuli_distractor_trianglediamonds.svg	stimuli_target_squarediamonds.svg	12	yes	44	1	420	0	0			0	0			1				0	
6.6.1	win	2023-06-27	21:29:17	21:43:10	823103	59098fbcc3338c000105a042	3	1	main_z	11	advance_on_keypress_ZEE	58	stimuli_distractor_trianglediamonds.svg	stimuli_target_squarediamonds.svg	12	yes	57	0	498	0	0			0	0			1				0	
6.6.1	win	2023-06-27	21:29:17	21:43:11	824698	59098fbcc3338c000105a042	3	1	main_z	11	main_z	59	stimuli_target_trianglesquares.svg	stimuli_distractor_diamondtriangles.svg	22	yes	44	1	432	0	0			0	0			1				0	
6.6.1	win	2023-06-27	21:29:17	21:43:11	824698	59098fbcc3338c000105a042	3	1	main_z	11	advance_on_keypress_ZEE	60	stimuli_target_trianglesquares.svg	stimuli_distractor_diamondtriangles.svg	22	yes	57	0	458	0	0			0	0			1				0	
6.6.1	win	2023-06-27	21:29:17	21:43:13	826178	59098fbcc3338c000105a042	3	1	main_z	11	main_z	61	stimuli_target_squaretriangles.svg	stimuli_distractor_diamondtriangles.svg	7	yes	44	1	345	0	0			0	0			1				0	
6.6.1	win	2023-06-27	21:29:17	21:43:13	826178	59098fbcc3338c000105a042	3	1	main_z	11	advance_on_keypress_ZEE	62	stimuli_target_squaretriangles.svg	stimuli_distractor_diamondtriangles.svg	7	yes	57	0	461	0	0			0	0			1				0	
6.6.1	win	2023-06-27	21:29:17	21:43:16	829316	59098fbcc3338c000105a042	3	1	main_z	11	main_z	63	stimuli_distractor_trianglediamonds.svg	stimuli_distractor_trianglediamonds.svg	34	no	0	1	2000	0	0			0	0			1				0	
6.6.1	win	2023-06-27	21:29:17	21:43:16	829316	59098fbcc3338c000105a042	3	1	main_z	11	advance_on_keypress_ZEE	64	stimuli_distractor_trianglediamonds.svg	stimuli_distractor_trianglediamonds.svg	34	no	57	0	509	0	0			0	0			1				0	
6.6.1	win	2023-06-27	21:29:17	21:43:17	830931	59098fbcc3338c000105a042	3	1	main_z	11	main_z	65	stimuli_target_rectanglediamonds.svg	stimuli_distractor_diamondtriangles.svg	6	yes	44	1	431	0	0			0	0			1				0	
6.6.1	win	2023-06-27	21:29:17	21:43:17	830931	59098fbcc3338c000105a042	3	1	main_z	11	advance_on_keypress_ZEE	66	stimuli_target_rectanglediamonds.svg	stimuli_distractor_diamondtriangles.svg	6	yes	57	0	816	0	0			0	0			1				0	
6.6.1	win	2023-06-27	21:29:17	21:43:20	832944	59098fbcc3338c000105a042	3	1	main_z	11	main_z	67	stimuli_distractor_trianglediamonds.svg	stimuli_target_trianglerectangles.svg	25	yes	44	1	508	0	0			0	0			1				0	
6.6.1	win	2023-06-27	21:29:17	21:43:20	832944	59098fbcc3338c000105a042	3	1	main_z	11	advance_on_keypress_ZEE	68	stimuli_distractor_trianglediamonds.svg	stimuli_target_trianglerectangles.svg	25	yes	57	0	638	0	0			0	0			1				0	
6.6.1	win	2023-06-27	21:29:17	21:43:21	834684	59098fbcc3338c000105a042	3	1	main_z	11	main_z	69	stimuli_distractor_trianglediamonds.svg	stimuli_target_diamondrectangles.svg	27	yes	44	1	434	0	0			0	0			1				0	
6.6.1	win	2023-06-27	21:29:17	21:43:21	834684	59098fbcc3338c000105a042	3	1	main_z	11	advance_on_keypress_ZEE	70	stimuli_distractor_trianglediamonds.svg	stimuli_target_diamondrectangles.svg	27	yes	57	0	525	0	0			0	0			1				0	
6.6.1	win	2023-06-27	21:29:17	21:43:24	837883	59098fbcc3338c000105a042	3	1	main_z	11	main_z	71	stimuli_distractor_diamondtriangles.svg	stimuli_distractor_diamondtriangles.svg	40	no	0	1	2000	0	0			0	0			1				0	
6.6.1	win	2023-06-27	21:29:17	21:43:24	837883	59098fbcc3338c000105a042	3	1	main_z	11	advance_on_keypress_ZEE	72	stimuli_distractor_diamondtriangles.svg	stimuli_distractor_diamondtriangles.svg	40	no	57	0	352	0	0			0	0			1				0	
6.6.1	win	2023-06-27	21:29:17	21:43:26	839355	59098fbcc3338c000105a042	3	1	main_z	11	main_z	73	stimuli_target_squarediamonds.svg	stimuli_distractor_diamondtriangles.svg	8	yes	44	1	455	0	0			0	0			1				0	
6.6.1	win	2023-06-27	21:29:17	21:43:26	839355	59098fbcc3338c000105a042	3	1	main_z	11	advance_on_keypress_ZEE	74	stimuli_target_squarediamonds.svg	stimuli_distractor_diamondtriangles.svg	8	yes	57	0	550	0	0			0	0			1				0	
6.6.1	win	2023-06-27	21:29:17	21:43:28	840995	59098fbcc3338c000105a042	3	1	main_z	11	main_z	75	stimuli_distractor_diamondtriangles.svg	stimuli_target_squarediamonds.svg	16	yes	44	1	429	0	0			0	0			1				0	
6.6.1	win	2023-06-27	21:29:17	21:43:28	840995	59098fbcc3338c000105a042	3	1	main_z	11	advance_on_keypress_ZEE	76	stimuli_distractor_diamondtriangles.svg	stimuli_target_squarediamonds.svg	16	yes	57	0	435	0	0			0	0			1				0	
6.6.1	win	2023-06-27	21:29:17	21:43:29	842516	59098fbcc3338c000105a042	3	1	main_z	11	main_z	77	stimuli_target_squarediamonds.svg	stimuli_distractor_trianglediamonds.svg	4	yes	44	1	416	0	0			0	0			1				0	
6.6.1	win	2023-06-27	21:29:17	21:43:29	842516	59098fbcc3338c000105a042	3	1	main_z	11	advance_on_keypress_ZEE	78	stimuli_target_squarediamonds.svg	stimuli_distractor_trianglediamonds.svg	4	yes	57	0	365	0	0			0	0			1				0	
6.6.1	win	2023-06-27	21:29:17	21:43:31	844031	59098fbcc3338c000105a042	3	1	main_z	11	main_z	79	stimuli_target_trianglerectangles.svg	stimuli_distractor_trianglediamonds.svg	17	yes	44	1	482	0	0			0	0			1				0	
6.6.1	win	2023-06-27	21:29:17	21:43:31	844031	59098fbcc3338c000105a042	3	1	main_z	11	advance_on_keypress_ZEE	80	stimuli_target_trianglerectangles.svg	stimuli_distractor_trianglediamonds.svg	17	yes	57	0	329	0	0			0	0			1				0	
6.6.1	win	2023-06-27	21:29:17	21:43:33	846409	59098fbcc3338c000105a042	3	1	main_z	11	main_z	81	stimuli_distractor_diamondtriangles.svg	stimuli_distractor_trianglediamonds.svg	37	no	44	0	1376	0	0			0	0			1				0	
6.6.1	win	2023-06-27	21:29:17	21:43:33	846409	59098fbcc3338c000105a042	3	1	main_z	11	advance_on_keypress_ZEE	82	stimuli_distractor_diamondtriangles.svg	stimuli_distractor_trianglediamonds.svg	37	no	57	0	788	0	0			0	0			1				0	
6.6.1	win	2023-06-27	21:29:17	21:43:35	848245	59098fbcc3338c000105a042	3	1	main_z	11	main_z	83	stimuli_target_rectanglediamonds.svg	stimuli_distractor_trianglediamonds.svg	2	yes	44	1	385	0	0			0	0			1				0	
6.6.1	win	2023-06-27	21:29:17	21:43:35	848245	59098fbcc3338c000105a042	3	1	main_z	11	advance_on_keypress_ZEE	84	stimuli_target_rectanglediamonds.svg	stimuli_distractor_trianglediamonds.svg	2	yes	57	0	409	0	0			0	0			1				0	
6.6.1	win	2023-06-27	21:29:17	21:43:36	849861	59098fbcc3338c000105a042	3	1	main_z	11	main_z	85	stimuli_target_trianglerectangles.svg	stimuli_distractor_trianglediamonds.svg	17	yes	44	1	525	0	0			0	0			1				0	
6.6.1	win	2023-06-27	21:29:17	21:43:36	849861	59098fbcc3338c000105a042	3	1	main_z	11	advance_on_keypress_ZEE	86	stimuli_target_trianglerectangles.svg	stimuli_distractor_trianglediamonds.svg	17	yes	57	0	393	0	0			0	0			1				0	
6.6.1	win	2023-06-27	21:29:17	21:43:38	851369	59098fbcc3338c000105a042	3	1	main_z	11	main_z	87	stimuli_target_squaretriangles.svg	stimuli_distractor_diamondtriangles.svg	7	yes	44	1	436	0	0			0	0			1				0	
6.6.1	win	2023-06-27	21:29:17	21:43:38	851369	59098fbcc3338c000105a042	3	1	main_z	11	advance_on_keypress_ZEE	88	stimuli_target_squaretriangles.svg	stimuli_distractor_diamondtriangles.svg	7	yes	57	0	843	0	0			0	0			1				0	
6.6.1	win	2023-06-27	21:29:17	21:43:41	854884	59098fbcc3338c000105a042	3	1	main_z	11	main_z	89	stimuli_distractor_trianglediamonds.svg	stimuli_distractor_diamondtriangles.svg	36	no	0	1	2000	0	0			0	0			1				0	
6.6.1	win	2023-06-27	21:29:17	21:43:41	854884	59098fbcc3338c000105a042	3	1	main_z	11	advance_on_keypress_ZEE	90	stimuli_distractor_trianglediamonds.svg	stimuli_distractor_diamondtriangles.svg	36	no	57	0	486	0	0			0	0			1				0	
6.6.1	win	2023-06-27	21:29:17	21:43:43	856570	59098fbcc3338c000105a042	3	1	main_z	11	main_z	91	stimuli_distractor_diamondtriangles.svg	stimuli_target_squaretriangles.svg	15	yes	44	1	536	0	0			0	0			1				0	
6.6.1	win	2023-06-27	21:29:17	21:43:43	856570	59098fbcc3338c000105a042	3	1	main_z	11	advance_on_keypress_ZEE	92	stimuli_distractor_diamondtriangles.svg	stimuli_target_squaretriangles.svg	15	yes	57	0	633	0	0			0	0			1				0	
6.6.1	win	2023-06-27	21:29:17	21:43:45	858474	59098fbcc3338c000105a042	3	1	main_z	11	main_z	93	stimuli_distractor_trianglediamonds.svg	stimuli_target_diamondrectangles.svg	27	yes	44	1	608	0	0			0	0			1				0	
6.6.1	win	2023-06-27	21:29:17	21:43:45	858474	59098fbcc3338c000105a042	3	1	main_z	11	advance_on_keypress_ZEE	94	stimuli_distractor_trianglediamonds.svg	stimuli_target_diamondrectangles.svg	27	yes	57	0	635	0	0			0	0			1				0	
6.6.1	win	2023-06-27	21:29:17	21:43:48	861783	59098fbcc3338c000105a042	3	1	main_z	11	main_z	95	stimuli_distractor_trianglediamonds.svg	stimuli_distractor_trianglediamonds.svg	33	no	0	1	2000	0	0			0	0			1				0	
6.6.1	win	2023-06-27	21:29:17	21:43:48	861783	59098fbcc3338c000105a042	3	1	main_z	11	advance_on_keypress_ZEE	96	stimuli_distractor_trianglediamonds.svg	stimuli_distractor_trianglediamonds.svg	33	no	57	0	421	0	0			0	0			1				0	
6.6.1	win	2023-06-27	21:29:17	21:43:50	863329	59098fbcc3338c000105a042	3	1	main_z	11	main_z	97	stimuli_target_trianglesquares.svg	stimuli_distractor_diamondtriangles.svg	22	yes	44	1	462	0	0			0	0			1				0	
6.6.1	win	2023-06-27	21:29:17	21:43:50	863329	59098fbcc3338c000105a042	3	1	main_z	11	advance_on_keypress_ZEE	98	stimuli_target_trianglesquares.svg	stimuli_distractor_diamondtriangles.svg	22	yes	57	0	531	0	0			0	0			1				0	
6.6.1	win	2023-06-27	21:29:17	21:43:52	865677	59098fbcc3338c000105a042	3	1	main_z	11	main_z	99	stimuli_distractor_diamondtriangles.svg	stimuli_distractor_trianglediamonds.svg	38	no	44	0	1144	0	0			0	0			1				0	
6.6.1	win	2023-06-27	21:29:17	21:43:52	865677	59098fbcc3338c000105a042	3	1	main_z	11	advance_on_keypress_ZEE	100	stimuli_distractor_diamondtriangles.svg	stimuli_distractor_trianglediamonds.svg	38	no	57	0	793	0	0			0	0			1				0	
6.6.1	win	2023-06-27	21:29:17	21:43:54	867636	59098fbcc3338c000105a042	3	1	main_z	11	main_z	101	stimuli_target_squarediamonds.svg	stimuli_distractor_diamondtriangles.svg	8	yes	44	1	487	0	0			0	0			1				0	
6.6.1	win	2023-06-27	21:29:17	21:43:54	867636	59098fbcc3338c000105a042	3	1	main_z	11	advance_on_keypress_ZEE	102	stimuli_target_squarediamonds.svg	stimuli_distractor_diamondtriangles.svg	8	yes	57	0	3036	0	0			0	0			1				0	
6.6.1	win	2023-06-27	21:29:17	21:43:58	871804	59098fbcc3338c000105a042	3	1	main_z	11	main_z	103	stimuli_target_squaretriangles.svg	stimuli_distractor_trianglediamonds.svg	3	yes	44	1	471	0	0			0	0			1				0	
6.6.1	win	2023-06-27	21:29:17	21:43:58	871804	59098fbcc3338c000105a042	3	1	main_z	11	advance_on_keypress_ZEE	104	stimuli_target_squaretriangles.svg	stimuli_distractor_trianglediamonds.svg	3	yes	57	0	588	0	0			0	0			1				0	
6.6.1	win	2023-06-27	21:29:17	21:44:00	873534	59098fbcc3338c000105a042	3	1	main_z	11	main_z	105	stimuli_target_diamondrectangles.svg	stimuli_distractor_diamondtriangles.svg	23	yes	44	1	484	0	0			0	0			1				0	
6.6.1	win	2023-06-27	21:29:17	21:44:00	873534	59098fbcc3338c000105a042	3	1	main_z	11	advance_on_keypress_ZEE	106	stimuli_target_diamondrectangles.svg	stimuli_distractor_diamondtriangles.svg	23	yes	57	0	496	0	0			0	0			1				0	
6.6.1	win	2023-06-27	21:29:17	21:44:02	875114	59098fbcc3338c000105a042	3	1	main_z	11	main_z	107	stimuli_target_trianglerectangles.svg	stimuli_distractor_diamondtriangles.svg	21	yes	44	1	415	0	0			0	0			1				0	
6.6.1	win	2023-06-27	21:29:17	21:44:02	875114	59098fbcc3338c000105a042	3	1	main_z	11	advance_on_keypress_ZEE	108	stimuli_target_trianglerectangles.svg	stimuli_distractor_diamondtriangles.svg	21	yes	57	0	533	0	0			0	0			1				0	
6.6.1	win	2023-06-27	21:29:17	21:44:03	876804	59098fbcc3338c000105a042	3	1	main_z	11	main_z	109	stimuli_target_diamondrectangles.svg	stimuli_distractor_trianglediamonds.svg	19	yes	44	1	488	0	0			0	0			1				0	
6.6.1	win	2023-06-27	21:29:17	21:44:03	876804	59098fbcc3338c000105a042	3	1	main_z	11	advance_on_keypress_ZEE	110	stimuli_target_diamondrectangles.svg	stimuli_distractor_trianglediamonds.svg	19	yes	57	0	540	0	0			0	0			1				0	
6.6.1	win	2023-06-27	21:29:17	21:44:05	878420	59098fbcc3338c000105a042	3	1	main_z	11	main_z	111	stimuli_distractor_trianglediamonds.svg	stimuli_target_rectanglediamonds.svg	10	yes	44	1	420	0	0			0	0			1				0	
6.6.1	win	2023-06-27	21:29:17	21:44:05	878420	59098fbcc3338c000105a042	3	1	main_z	11	advance_on_keypress_ZEE	112	stimuli_distractor_trianglediamonds.svg	stimuli_target_rectanglediamonds.svg	10	yes	57	0	444	0	0			0	0			1				0	
6.6.1	win	2023-06-27	21:29:17	21:44:08	881533	59098fbcc3338c000105a042	3	1	main_z	11	main_z	113	stimuli_distractor_trianglediamonds.svg	stimuli_distractor_trianglediamonds.svg	34	no	0	1	2000	0	0			0	0			1				0	
6.6.1	win	2023-06-27	21:29:17	21:44:08	881533	59098fbcc3338c000105a042	3	1	main_z	11	advance_on_keypress_ZEE	114	stimuli_distractor_trianglediamonds.svg	stimuli_distractor_trianglediamonds.svg	34	no	57	0	473	0	0			0	0			1				0	
6.6.1	win	2023-06-27	21:29:17	21:44:11	884666	59098fbcc3338c000105a042	3	1	main_z	11	main_z	115	stimuli_distractor_trianglediamonds.svg	stimuli_distractor_diamondtriangles.svg	35	no	0	1	2000	0	0			0	0			1				0	
6.6.1	win	2023-06-27	21:29:17	21:44:11	884666	59098fbcc3338c000105a042	3	1	main_z	11	advance_on_keypress_ZEE	116	stimuli_distractor_trianglediamonds.svg	stimuli_distractor_diamondtriangles.svg	35	no	57	0	431	0	0			0	0			1				0	
6.6.1	win	2023-06-27	21:29:17	21:44:13	886193	59098fbcc3338c000105a042	3	1	main_z	11	main_z	117	stimuli_distractor_trianglediamonds.svg	stimuli_target_diamondsquares.svg	28	yes	44	1	427	0	0			0	0			1				0	
6.6.1	win	2023-06-27	21:29:17	21:44:13	886193	59098fbcc3338c000105a042	3	1	main_z	11	advance_on_keypress_ZEE	118	stimuli_distractor_trianglediamonds.svg	stimuli_target_diamondsquares.svg	28	yes	57	0	502	0	0			0	0			1				0	
6.6.1	win	2023-06-27	21:29:17	21:44:14	887769	59098fbcc3338c000105a042	3	1	main_z	11	main_z	119	stimuli_target_trianglesquares.svg	stimuli_distractor_trianglediamonds.svg	18	yes	44	1	402	0	0			0	0			1				0	
6.6.1	win	2023-06-27	21:29:17	21:44:14	887769	59098fbcc3338c000105a042	3	1	main_z	11	advance_on_keypress_ZEE	120	stimuli_target_trianglesquares.svg	stimuli_distractor_trianglediamonds.svg	18	yes	57	0	546	0	0			0	0			1				0	
6.6.1	win	2023-06-27	21:29:17	21:44:16	889378	59098fbcc3338c000105a042	3	1	main_z	11	main_z	121	stimuli_target_rectangletriangles.svg	stimuli_distractor_trianglediamonds.svg	1	yes	44	1	389	0	0			0	0			1				0	
6.6.1	win	2023-06-27	21:29:17	21:44:16	889378	59098fbcc3338c000105a042	3	1	main_z	11	advance_on_keypress_ZEE	122	stimuli_target_rectangletriangles.svg	stimuli_distractor_trianglediamonds.svg	1	yes	57	0	490	0	0			0	0			1				0	
6.6.1	win	2023-06-27	21:29:17	21:44:18	890948	59098fbcc3338c000105a042	3	1	main_z	11	main_z	123	stimuli_target_rectangletriangles.svg	stimuli_distractor_diamondtriangles.svg	5	yes	44	1	415	0	0			0	0			1				0	
6.6.1	win	2023-06-27	21:29:17	21:44:18	890948	59098fbcc3338c000105a042	3	1	main_z	11	advance_on_keypress_ZEE	124	stimuli_target_rectangletriangles.svg	stimuli_distractor_diamondtriangles.svg	5	yes	57	0	428	0	0			0	0			1				0	
6.6.1	win	2023-06-27	21:29:17	21:44:19	892479	59098fbcc3338c000105a042	3	1	main_z	11	main_z	125	stimuli_distractor_diamondtriangles.svg	stimuli_target_diamondsquares.svg	32	yes	44	1	429	0	0			0	0			1				0	
6.6.1	win	2023-06-27	21:29:17	21:44:19	892479	59098fbcc3338c000105a042	3	1	main_z	11	advance_on_keypress_ZEE	126	stimuli_distractor_diamondtriangles.svg	stimuli_target_diamondsquares.svg	32	yes	57	0	690	0	0			0	0			1				0	
6.6.1	win	2023-06-27	21:29:17	21:44:21	894293	59098fbcc3338c000105a042	3	1	main_z	11	main_z	127	stimuli_distractor_trianglediamonds.svg	stimuli_target_trianglerectangles.svg	25	yes	44	1	460	0	0			0	0			1				0	
6.6.1	win	2023-06-27	21:29:17	21:44:21	894293	59098fbcc3338c000105a042	3	1	main_z	11	advance_on_keypress_ZEE	128	stimuli_distractor_trianglediamonds.svg	stimuli_target_trianglerectangles.svg	25	yes	57	0	479	0	0			0	0			1				0	
6.6.1	win	2023-06-27	21:29:17	21:44:22	895913	59098fbcc3338c000105a042	3	1	main_z	11	main_z	129	stimuli_distractor_diamondtriangles.svg	stimuli_target_trianglerectangles.svg	29	yes	44	1	464	0	0			0	0			1				0	
6.6.1	win	2023-06-27	21:29:17	21:44:22	895913	59098fbcc3338c000105a042	3	1	main_z	11	advance_on_keypress_ZEE	130	stimuli_distractor_diamondtriangles.svg	stimuli_target_trianglerectangles.svg	29	yes	57	0	498	0	0			0	0			1				0	
6.6.1	win	2023-06-27	21:29:17	21:44:24	897434	59098fbcc3338c000105a042	3	1	main_z	11	main_z	131	stimuli_distractor_diamondtriangles.svg	stimuli_target_trianglesquares.svg	30	yes	44	1	351	0	0			0	0			1				0	
6.6.1	win	2023-06-27	21:29:17	21:44:24	897434	59098fbcc3338c000105a042	3	1	main_z	11	advance_on_keypress_ZEE	132	stimuli_distractor_diamondtriangles.svg	stimuli_target_trianglesquares.svg	30	yes	57	0	496	0	0			0	0			1				0	
6.6.1	win	2023-06-27	21:29:17	21:44:26	899044	59098fbcc3338c000105a042	3	1	main_z	11	main_z	133	stimuli_target_diamondsquares.svg	stimuli_distractor_trianglediamonds.svg	20	yes	44	1	445	0	0			0	0			1				0	
6.6.1	win	2023-06-27	21:29:17	21:44:26	899044	59098fbcc3338c000105a042	3	1	main_z	11	advance_on_keypress_ZEE	134	stimuli_target_diamondsquares.svg	stimuli_distractor_trianglediamonds.svg	20	yes	57	0	495	0	0			0	0			1				0	
6.6.1	win	2023-06-27	21:29:17	21:44:27	900655	59098fbcc3338c000105a042	3	1	main_z	11	main_z	135	stimuli_distractor_trianglediamonds.svg	stimuli_target_squaretriangles.svg	11	yes	44	1	438	0	0			0	0			1				0	
6.6.1	win	2023-06-27	21:29:17	21:44:27	900655	59098fbcc3338c000105a042	3	1	main_z	11	advance_on_keypress_ZEE	136	stimuli_distractor_trianglediamonds.svg	stimuli_target_squaretriangles.svg	11	yes	57	0	405	0	0			0	0			1				0	
6.6.1	win	2023-06-27	21:29:17	21:44:29	902111	59098fbcc3338c000105a042	3	1	main_z	11	main_z	137	stimuli_target_squarediamonds.svg	stimuli_distractor_trianglediamonds.svg	4	yes	44	1	380	0	0			0	0			1				0	
6.6.1	win	2023-06-27	21:29:17	21:44:29	902111	59098fbcc3338c000105a042	3	1	main_z	11	advance_on_keypress_ZEE	138	stimuli_target_squarediamonds.svg	stimuli_distractor_trianglediamonds.svg	4	yes	57	0	2588	0	0			0	0			1				0	
6.6.1	win	2023-06-27	21:29:17	21:44:32	905790	59098fbcc3338c000105a042	3	1	main_z	11	main_z	139	stimuli_distractor_diamondtriangles.svg	stimuli_target_rectanglediamonds.svg	14	yes	44	1	423	0	0			0	0			1				0	
6.6.1	win	2023-06-27	21:29:17	21:44:32	905790	59098fbcc3338c000105a042	3	1	main_z	11	advance_on_keypress_ZEE	140	stimuli_distractor_diamondtriangles.svg	stimuli_target_rectanglediamonds.svg	14	yes	57	0	442	0	0			0	0			1				0	
6.6.1	win	2023-06-27	21:29:17	21:44:34	907295	59098fbcc3338c000105a042	3	1	main_z	11	main_z	141	stimuli_distractor_diamondtriangles.svg	stimuli_target_rectangletriangles.svg	13	yes	44	1	381	0	0			0	0			1				0	
6.6.1	win	2023-06-27	21:29:17	21:44:34	907295	59098fbcc3338c000105a042	3	1	main_z	11	advance_on_keypress_ZEE	142	stimuli_distractor_diamondtriangles.svg	stimuli_target_rectangletriangles.svg	13	yes	57	0	350	0	0			0	0			1				0	
6.6.1	win	2023-06-27	21:29:17	21:44:35	908801	59098fbcc3338c000105a042	3	1	main_z	11	main_z	143	stimuli_target_diamondsquares.svg	stimuli_distractor_diamondtriangles.svg	24	yes	44	1	484	0	0			0	0			1				0	
6.6.1	win	2023-06-27	21:29:17	21:44:35	908801	59098fbcc3338c000105a042	3	1	main_z	11	advance_on_keypress_ZEE	144	stimuli_target_diamondsquares.svg	stimuli_distractor_diamondtriangles.svg	24	yes	57	0	919	0	0			0	0			1				0	
6.6.1	win	2023-06-27	21:29:17	21:44:37	910778	59098fbcc3338c000105a042	3	1	main_z	11	main_z	145	stimuli_target_rectanglediamonds.svg	stimuli_distractor_diamondtriangles.svg	6	yes	44	1	386	0	0			0	0			1				0	
6.6.1	win	2023-06-27	21:29:17	21:44:37	910778	59098fbcc3338c000105a042	3	1	main_z	11	advance_on_keypress_ZEE	146	stimuli_target_rectanglediamonds.svg	stimuli_distractor_diamondtriangles.svg	6	yes	57	0	522	0	0			0	0			1				0	
6.6.1	win	2023-06-27	21:29:17	21:44:39	912361	59098fbcc3338c000105a042	3	1	main_z	11	main_z	147	stimuli_distractor_trianglediamonds.svg	stimuli_target_rectangletriangles.svg	9	yes	44	1	389	0	0			0	0			1				0	
6.6.1	win	2023-06-27	21:29:17	21:44:39	912361	59098fbcc3338c000105a042	3	1	main_z	11	advance_on_keypress_ZEE	148	stimuli_distractor_trianglediamonds.svg	stimuli_target_rectangletriangles.svg	9	yes	57	0	394	0	0			0	0			1				0	
6.6.1	win	2023-06-27	21:29:17	21:44:40	913766	59098fbcc3338c000105a042	3	1	main_z	11	main_z	149	stimuli_distractor_diamondtriangles.svg	stimuli_distractor_diamondtriangles.svg	40	no	44	0	333	0	0			0	0			1				0	
6.6.1	win	2023-06-27	21:29:17	21:44:40	913766	59098fbcc3338c000105a042	3	1	main_z	11	advance_on_keypress_ZEE	150	stimuli_distractor_diamondtriangles.svg	stimuli_distractor_diamondtriangles.svg	40	no	57	0	988	0	0			0	0			1				0	
6.6.1	win	2023-06-27	21:29:17	21:44:43	915945	59098fbcc3338c000105a042	3	1	main_z	11	main_z	151	stimuli_distractor_diamondtriangles.svg	stimuli_target_diamondrectangles.svg	31	yes	44	1	519	0	0			0	0			1				0	
6.6.1	win	2023-06-27	21:29:17	21:44:43	915945	59098fbcc3338c000105a042	3	1	main_z	11	advance_on_keypress_ZEE	152	stimuli_distractor_diamondtriangles.svg	stimuli_target_diamondrectangles.svg	31	yes	57	0	455	0	0			0	0			1				0	
6.6.1	win	2023-06-27	21:29:17	21:44:44	917620	59098fbcc3338c000105a042	3	1	main_z	11	main_z	153	stimuli_distractor_diamondtriangles.svg	stimuli_target_squarediamonds.svg	16	yes	44	1	553	0	0			0	0			1				0	
6.6.1	win	2023-06-27	21:29:17	21:44:44	917620	59098fbcc3338c000105a042	3	1	main_z	11	advance_on_keypress_ZEE	154	stimuli_distractor_diamondtriangles.svg	stimuli_target_squarediamonds.svg	16	yes	57	0	478	0	0			0	0			1				0	
6.6.1	win	2023-06-27	21:29:17	21:44:46	919161	59098fbcc3338c000105a042	3	1	main_z	11	main_z	155	stimuli_distractor_trianglediamonds.svg	stimuli_target_squarediamonds.svg	12	yes	44	1	374	0	0			0	0			1				0	
6.6.1	win	2023-06-27	21:29:17	21:44:46	919161	59098fbcc3338c000105a042	3	1	main_z	11	advance_on_keypress_ZEE	156	stimuli_distractor_trianglediamonds.svg	stimuli_target_squarediamonds.svg	12	yes	57	0	669	0	0			0	0			1				0	
6.6.1	win	2023-06-27	21:29:17	21:44:49	922500	59098fbcc3338c000105a042	3	1	main_z	11	main_z	157	stimuli_distractor_diamondtriangles.svg	stimuli_distractor_diamondtriangles.svg	39	no	0	1	2000	0	0			0	0			1				0	
6.6.1	win	2023-06-27	21:29:17	21:44:49	922500	59098fbcc3338c000105a042	3	1	main_z	11	advance_on_keypress_ZEE	158	stimuli_distractor_diamondtriangles.svg	stimuli_distractor_diamondtriangles.svg	39	no	57	0	490	0	0			0	0			1				0	
6.6.1	win	2023-06-27	21:29:17	21:44:51	924106	59098fbcc3338c000105a042	3	1	main_z	11	main_z	159	stimuli_distractor_trianglediamonds.svg	stimuli_target_trianglesquares.svg	26	yes	44	1	439	0	0			0	0			1				0	
6.6.1	win	2023-06-27	21:29:17	21:44:51	924106	59098fbcc3338c000105a042	3	1	main_z	11	advance_on_keypress_ZEE	160	stimuli_distractor_trianglediamonds.svg	stimuli_target_trianglesquares.svg	26	yes	57	0	580	0	0			0	0			1				0	
6.6.1	win	2023-06-27	21:29:17	21:44:51	924106	59098fbcc3338c000105a042	3	1	headphonecheck_calibration	14	headphonecheck_calibrationIntro	1	stimuli_distractor_trianglediamonds.svg	stimuli_target_trianglesquares.svg	26	yes	calibrationButton	0	6296	0	0			0	0			1				0	
6.6.1	win	2023-06-27	21:29:17	21:44:51	924106	59098fbcc3338c000105a042	3	1	headphonecheck_testphase	15	test_collectResponse	3	stimuli_distractor_trianglediamonds.svg	stimuli_target_trianglesquares.svg	26	yes	third	1	1554	1	6	antiphase_hc_ois.wav	3	0	0			1				0	
6.6.1	win	2023-06-27	21:29:17	21:44:51	924106	59098fbcc3338c000105a042	3	1	headphonecheck_testphase	15	test_collectResponse	6	stimuli_distractor_trianglediamonds.svg	stimuli_target_trianglesquares.svg	26	yes	second	1	902	2	5	antiphase_hc_osi.wav	2	0	0			1				0	
6.6.1	win	2023-06-27	21:29:17	21:44:51	924106	59098fbcc3338c000105a042	3	1	headphonecheck_testphase	15	test_collectResponse	9	stimuli_distractor_trianglediamonds.svg	stimuli_target_trianglesquares.svg	26	yes	first	1	833	3	3	antiphase_hc_soi.wav	1	0	0			1				0	
6.6.1	win	2023-06-27	21:29:17	21:44:51	924106	59098fbcc3338c000105a042	3	1	headphonecheck_testphase	15	test_collectResponse	12	stimuli_distractor_trianglediamonds.svg	stimuli_target_trianglesquares.svg	26	yes	first	1	499	4	4	antiphase_hc_sio.wav	1	0	0			1				0	
6.6.1	win	2023-06-27	21:29:17	21:44:51	924106	59098fbcc3338c000105a042	3	1	headphonecheck_testphase	15	test_collectResponse	15	stimuli_distractor_trianglediamonds.svg	stimuli_target_trianglesquares.svg	26	yes	second	1	536	5	1	antiphase_hc_iso.wav	2	0	0			1				0	
6.6.1	win	2023-06-27	21:29:17	21:44:51	924106	59098fbcc3338c000105a042	3	1	headphonecheck_testphase	15	test_collectResponse	18	stimuli_distractor_trianglediamonds.svg	stimuli_target_trianglesquares.svg	26	yes	third	1	806	6	2	antiphase_hc_ios.wav	3	0	0			1				0	
6.6.1	win	2023-06-27	21:29:17	21:44:51	924106	59098fbcc3338c000105a042	3	1	stereocheck_calibration	17	stereocheck_calibrationIntro	1	stimuli_distractor_trianglediamonds.svg	stimuli_target_trianglesquares.svg	26	yes	stereocheck_calibrationButton	0	7712	6	2	antiphase_hc_ios.wav	3	0	0			1				0	
6.6.1	win	2023-06-27	21:29:17	21:44:51	924106	59098fbcc3338c000105a042	3	1	stereocheck_testphase	18	stereocheck_test_collectResponse	3	stimuli_distractor_trianglediamonds.svg	stimuli_target_trianglesquares.svg	26	yes	stereocheck_right	1	4633	6	2	antiphase_hc_ios.wav	3	1	5	noise_calib_stim_RIGHT.wav	2	1				0	
6.6.1	win	2023-06-27	21:29:17	21:44:51	924106	59098fbcc3338c000105a042	3	1	stereocheck_testphase	18	stereocheck_test_collectResponse	6	stimuli_distractor_trianglediamonds.svg	stimuli_target_trianglesquares.svg	26	yes	stereocheck_right	1	239	6	2	antiphase_hc_ios.wav	3	2	4	noise_calib_stim_RIGHT.wav	2	1				0	
6.6.1	win	2023-06-27	21:29:17	21:44:51	924106	59098fbcc3338c000105a042	3	1	stereocheck_testphase	18	stereocheck_test_collectResponse	9	stimuli_distractor_trianglediamonds.svg	stimuli_target_trianglesquares.svg	26	yes	stereocheck_left	1	684	6	2	antiphase_hc_ios.wav	3	3	2	noise_calib_stim_LEFT.wav	1	1				0	
6.6.1	win	2023-06-27	21:29:17	21:44:51	924106	59098fbcc3338c000105a042	3	1	stereocheck_testphase	18	stereocheck_test_collectResponse	12	stimuli_distractor_trianglediamonds.svg	stimuli_target_trianglesquares.svg	26	yes	stereocheck_left	1	439	6	2	antiphase_hc_ios.wav	3	4	3	noise_calib_stim_LEFT.wav	1	1				0	
6.6.1	win	2023-06-27	21:29:17	21:44:51	924106	59098fbcc3338c000105a042	3	1	stereocheck_testphase	18	stereocheck_test_collectResponse	15	stimuli_distractor_trianglediamonds.svg	stimuli_target_trianglesquares.svg	26	yes	stereocheck_right	1	692	6	2	antiphase_hc_ios.wav	3	5	6	noise_calib_stim_RIGHT.wav	2	1				0	
6.6.1	win	2023-06-27	21:29:17	21:44:51	924106	59098fbcc3338c000105a042	3	1	stereocheck_testphase	18	stereocheck_test_collectResponse	18	stimuli_distractor_trianglediamonds.svg	stimuli_target_trianglesquares.svg	26	yes	stereocheck_left	1	220	6	2	antiphase_hc_ios.wav	3	6	1	noise_calib_stim_LEFT.wav	1	1				0	
6.6.1	win	2023-06-27	21:29:17	21:44:51	924106	59098fbcc3338c000105a042	3	1	DL_practice	21	DL_practice	2	stimuli_distractor_trianglediamonds.svg	stimuli_target_trianglesquares.svg	26	yes	ka	1	1172	6	2	antiphase_hc_ios.wav	3	6	1	noise_calib_stim_LEFT.wav	1	22	blb_dichoticlistening_ka-ka.mp3	ka	ka	0	left
6.6.1	win	2023-06-27	21:29:17	21:44:51	924106	59098fbcc3338c000105a042	3	1	DL_practice	21	DL_practice	3	stimuli_distractor_trianglediamonds.svg	stimuli_target_trianglesquares.svg	26	yes	pa	1	1710	6	2	antiphase_hc_ios.wav	3	6	1	noise_calib_stim_LEFT.wav	1	29	blb_dichoticlistening_pa-pa.mp3	pa	pa	0	left
6.6.1	win	2023-06-27	21:29:17	21:44:51	924106	59098fbcc3338c000105a042	3	1	DL_practice	21	DL_practice	4	stimuli_distractor_trianglediamonds.svg	stimuli_target_trianglesquares.svg	26	yes	ta	0	1508	6	2	antiphase_hc_ios.wav	3	6	1	noise_calib_stim_LEFT.wav	1	23	blb_dichoticlistening_ka-pa.mp3	ka	pa	1	other
6.6.1	win	2023-06-27	21:29:17	21:44:51	924106	59098fbcc3338c000105a042	3	1	DL_practice	21	DL_practice	5	stimuli_distractor_trianglediamonds.svg	stimuli_target_trianglesquares.svg	26	yes	ga	1	1228	6	2	antiphase_hc_ios.wav	3	6	1	noise_calib_stim_LEFT.wav	1	18	blb_dichoticlistening_ga-ta.mp3	ga	ta	1	left
6.6.1	win	2023-06-27	21:29:17	21:44:51	924106	59098fbcc3338c000105a042	3	1	DL_practice	21	DL_practice	6	stimuli_distractor_trianglediamonds.svg	stimuli_target_trianglesquares.svg	26	yes	da	1	1005	6	2	antiphase_hc_ios.wav	3	6	1	noise_calib_stim_LEFT.wav	1	8	blb_dichoticlistening_da-da.mp3	da	da	0	left
6.6.1	win	2023-06-27	21:29:17	21:44:51	924106	59098fbcc3338c000105a042	3	1	DL_practice	21	DL_practice	7	stimuli_distractor_trianglediamonds.svg	stimuli_target_trianglesquares.svg	26	yes	pa	0	1516	6	2	antiphase_hc_ios.wav	3	6	1	noise_calib_stim_LEFT.wav	1	1	blb_dichoticlistening_ba-ba.mp3	ba	ba	0	other
6.6.1	win	2023-06-27	21:29:17	21:44:51	924106	59098fbcc3338c000105a042	3	1	DL_practice	21	DL_practice	8	stimuli_distractor_trianglediamonds.svg	stimuli_target_trianglesquares.svg	26	yes	ta	1	1009	6	2	antiphase_hc_ios.wav	3	6	1	noise_calib_stim_LEFT.wav	1	36	blb_dichoticlistening_ta-ta.mp3	ta	ta	0	left
6.6.1	win	2023-06-27	21:29:17	21:44:51	924106	59098fbcc3338c000105a042	3	1	DL_practice	21	DL_practice	9	stimuli_distractor_trianglediamonds.svg	stimuli_target_trianglesquares.svg	26	yes	ga	1	1074	6	2	antiphase_hc_ios.wav	3	6	1	noise_calib_stim_LEFT.wav	1	15	blb_dichoticlistening_ga-ga.mp3	ga	ga	0	left
6.6.1	win	2023-06-27	21:29:17	21:44:51	924106	59098fbcc3338c000105a042	3	1	DL_practice	21	DL_practice	10	stimuli_distractor_trianglediamonds.svg	stimuli_target_trianglesquares.svg	26	yes	ba	1	1735	6	2	antiphase_hc_ios.wav	3	6	1	noise_calib_stim_LEFT.wav	1	7	blb_dichoticlistening_da-ba.mp3	da	ba	1	right
6.6.1	win	2023-06-27	21:29:17	21:44:51	924106	59098fbcc3338c000105a042	3	1	DL_test	23	DL_test	1	stimuli_distractor_trianglediamonds.svg	stimuli_target_trianglesquares.svg	26	yes	ga	1	1074	6	2	antiphase_hc_ios.wav	3	6	1	noise_calib_stim_LEFT.wav	1	9	blb_dichoticlistening_da-ga.mp3	da	ga	1	right
6.6.1	win	2023-06-27	21:29:17	21:44:51	924106	59098fbcc3338c000105a042	3	1	DL_test	23	DL_test	2	stimuli_distractor_trianglediamonds.svg	stimuli_target_trianglesquares.svg	26	yes	ba	1	3318	6	2	antiphase_hc_ios.wav	3	6	1	noise_calib_stim_LEFT.wav	1	13	blb_dichoticlistening_ga-ba.mp3	ga	ba	1	right
6.6.1	win	2023-06-27	21:29:17	21:44:51	924106	59098fbcc3338c000105a042	3	1	DL_test	23	DL_test	3	stimuli_distractor_trianglediamonds.svg	stimuli_target_trianglesquares.svg	26	yes	ka	1	1200	6	2	antiphase_hc_ios.wav	3	6	1	noise_calib_stim_LEFT.wav	1	16	blb_dichoticlistening_ga-ka.mp3	ga	ka	1	right
6.6.1	win	2023-06-27	21:29:17	21:44:51	924106	59098fbcc3338c000105a042	3	1	DL_test	23	DL_test	4	stimuli_distractor_trianglediamonds.svg	stimuli_target_trianglesquares.svg	26	yes	pa	1	2347	6	2	antiphase_hc_ios.wav	3	6	1	noise_calib_stim_LEFT.wav	1	5	blb_dichoticlistening_ba-pa.mp3	ba	pa	1	right
6.6.1	win	2023-06-27	21:29:17	21:44:51	924106	59098fbcc3338c000105a042	3	1	DL_test	23	DL_test	5	stimuli_distractor_trianglediamonds.svg	stimuli_target_trianglesquares.svg	26	yes	ka	0	1224	6	2	antiphase_hc_ios.wav	3	6	1	noise_calib_stim_LEFT.wav	1	32	blb_dichoticlistening_ta-da.mp3	ta	da	1	other
6.6.1	win	2023-06-27	21:29:17	21:44:51	924106	59098fbcc3338c000105a042	3	1	DL_test	23	DL_test	6	stimuli_distractor_trianglediamonds.svg	stimuli_target_trianglesquares.svg	26	yes	ta	0	2644	6	2	antiphase_hc_ios.wav	3	6	1	noise_calib_stim_LEFT.wav	1	2	blb_dichoticlistening_ba-da.mp3	ba	da	1	other
6.6.1	win	2023-06-27	21:29:17	21:44:51	924106	59098fbcc3338c000105a042	3	1	DL_test	23	DL_test	7	stimuli_distractor_trianglediamonds.svg	stimuli_target_trianglesquares.svg	26	yes	ga	0	1262	6	2	antiphase_hc_ios.wav	3	6	1	noise_calib_stim_LEFT.wav	1	20	blb_dichoticlistening_ka-da.mp3	ka	da	1	other
6.6.1	win	2023-06-27	21:29:17	21:44:51	924106	59098fbcc3338c000105a042	3	1	DL_test	23	DL_test	8	stimuli_distractor_trianglediamonds.svg	stimuli_target_trianglesquares.svg	26	yes	pa	0	1698	6	2	antiphase_hc_ios.wav	3	6	1	noise_calib_stim_LEFT.wav	1	1	blb_dichoticlistening_ba-ba.mp3	ba	ba	0	other
6.6.1	win	2023-06-27	21:29:17	21:44:51	924106	59098fbcc3338c000105a042	3	1	DL_test	23	DL_test	9	stimuli_distractor_trianglediamonds.svg	stimuli_target_trianglesquares.svg	26	yes	pa	0	1184	6	2	antiphase_hc_ios.wav	3	6	1	noise_calib_stim_LEFT.wav	1	7	blb_dichoticlistening_da-ba.mp3	da	ba	1	other
6.6.1	win	2023-06-27	21:29:17	21:44:51	924106	59098fbcc3338c000105a042	3	1	DL_test	23	DL_test	10	stimuli_distractor_trianglediamonds.svg	stimuli_target_trianglesquares.svg	26	yes	ka	1	1125	6	2	antiphase_hc_ios.wav	3	6	1	noise_calib_stim_LEFT.wav	1	34	blb_dichoticlistening_ta-ka.mp3	ta	ka	1	right
6.6.1	win	2023-06-27	21:29:17	21:44:51	924106	59098fbcc3338c000105a042	3	1	DL_test	23	DL_test	11	stimuli_distractor_trianglediamonds.svg	stimuli_target_trianglesquares.svg	26	yes	ka	0	836	6	2	antiphase_hc_ios.wav	3	6	1	noise_calib_stim_LEFT.wav	1	33	blb_dichoticlistening_ta-ga.mp3	ta	ga	1	other
6.6.1	win	2023-06-27	21:29:17	21:44:51	924106	59098fbcc3338c000105a042	3	1	DL_test	23	DL_test	12	stimuli_distractor_trianglediamonds.svg	stimuli_target_trianglesquares.svg	26	yes	ka	0	715	6	2	antiphase_hc_ios.wav	3	6	1	noise_calib_stim_LEFT.wav	1	12	blb_dichoticlistening_da-ta.mp3	da	ta	1	other
6.6.1	win	2023-06-27	21:29:17	21:44:51	924106	59098fbcc3338c000105a042	3	1	DL_test	23	DL_test	13	stimuli_distractor_trianglediamonds.svg	stimuli_target_trianglesquares.svg	26	yes	pa	0	1305	6	2	antiphase_hc_ios.wav	3	6	1	noise_calib_stim_LEFT.wav	1	31	blb_dichoticlistening_ta-ba.mp3	ta	ba	1	other
6.6.1	win	2023-06-27	21:29:17	21:44:51	924106	59098fbcc3338c000105a042	3	1	DL_test	23	DL_test	14	stimuli_distractor_trianglediamonds.svg	stimuli_target_trianglesquares.svg	26	yes	ta	1	1657	6	2	antiphase_hc_ios.wav	3	6	1	noise_calib_stim_LEFT.wav	1	24	blb_dichoticlistening_ka-ta.mp3	ka	ta	1	right
6.6.1	win	2023-06-27	21:29:17	21:44:51	924106	59098fbcc3338c000105a042	3	1	DL_test	23	DL_test	15	stimuli_distractor_trianglediamonds.svg	stimuli_target_trianglesquares.svg	26	yes	ka	1	1489	6	2	antiphase_hc_ios.wav	3	6	1	noise_calib_stim_LEFT.wav	1	23	blb_dichoticlistening_ka-pa.mp3	ka	pa	1	left
6.6.1	win	2023-06-27	21:29:17	21:44:51	924106	59098fbcc3338c000105a042	3	1	DL_test	23	DL_test	16	stimuli_distractor_trianglediamonds.svg	stimuli_target_trianglesquares.svg	26	yes	ka	1	851	6	2	antiphase_hc_ios.wav	3	6	1	noise_calib_stim_LEFT.wav	1	28	blb_dichoticlistening_pa-ka.mp3	pa	ka	1	right
6.6.1	win	2023-06-27	21:29:17	21:44:51	924106	59098fbcc3338c000105a042	3	1	DL_test	23	DL_test	17	stimuli_distractor_trianglediamonds.svg	stimuli_target_trianglesquares.svg	26	yes	ka	0	1028	6	2	antiphase_hc_ios.wav	3	6	1	noise_calib_stim_LEFT.wav	1	35	blb_dichoticlistening_ta-pa.mp3	ta	pa	1	other
6.6.1	win	2023-06-27	21:29:17	21:44:51	924106	59098fbcc3338c000105a042	3	1	DL_test	23	DL_test	18	stimuli_distractor_trianglediamonds.svg	stimuli_target_trianglesquares.svg	26	yes	ga	1	1060	6	2	antiphase_hc_ios.wav	3	6	1	noise_calib_stim_LEFT.wav	1	15	blb_dichoticlistening_ga-ga.mp3	ga	ga	0	left
6.6.1	win	2023-06-27	21:29:17	21:44:51	924106	59098fbcc3338c000105a042	3	1	DL_test	23	DL_test	19	stimuli_distractor_trianglediamonds.svg	stimuli_target_trianglesquares.svg	26	yes	ga	0	2624	6	2	antiphase_hc_ios.wav	3	6	1	noise_calib_stim_LEFT.wav	1	11	blb_dichoticlistening_da-pa.mp3	da	pa	1	other
6.6.1	win	2023-06-27	21:29:17	21:44:51	924106	59098fbcc3338c000105a042	3	1	DL_test	23	DL_test	20	stimuli_distractor_trianglediamonds.svg	stimuli_target_trianglesquares.svg	26	yes	pa	0	2092	6	2	antiphase_hc_ios.wav	3	6	1	noise_calib_stim_LEFT.wav	1	19	blb_dichoticlistening_ka-ba.mp3	ka	ba	1	other
6.6.1	win	2023-06-27	21:29:17	21:44:51	924106	59098fbcc3338c000105a042	3	1	DL_test	23	DL_test	21	stimuli_distractor_trianglediamonds.svg	stimuli_target_trianglesquares.svg	26	yes	pa	1	1105	6	2	antiphase_hc_ios.wav	3	6	1	noise_calib_stim_LEFT.wav	1	29	blb_dichoticlistening_pa-pa.mp3	pa	pa	0	left
6.6.1	win	2023-06-27	21:29:17	21:44:51	924106	59098fbcc3338c000105a042	3	1	DL_test	23	DL_test	22	stimuli_distractor_trianglediamonds.svg	stimuli_target_trianglesquares.svg	26	yes	pa	0	1168	6	2	antiphase_hc_ios.wav	3	6	1	noise_calib_stim_LEFT.wav	1	4	blb_dichoticlistening_ba-ka.mp3	ba	ka	1	other
6.6.1	win	2023-06-27	21:29:17	21:44:51	924106	59098fbcc3338c000105a042	3	1	DL_test	23	DL_test	23	stimuli_distractor_trianglediamonds.svg	stimuli_target_trianglesquares.svg	26	yes	ka	0	1104	6	2	antiphase_hc_ios.wav	3	6	1	noise_calib_stim_LEFT.wav	1	18	blb_dichoticlistening_ga-ta.mp3	ga	ta	1	other
6.6.1	win	2023-06-27	21:29:17	21:44:51	924106	59098fbcc3338c000105a042	3	1	DL_test	23	DL_test	24	stimuli_distractor_trianglediamonds.svg	stimuli_target_trianglesquares.svg	26	yes	ga	0	1934	6	2	antiphase_hc_ios.wav	3	6	1	noise_calib_stim_LEFT.wav	1	26	blb_dichoticlistening_pa-da.mp3	pa	da	1	other
6.6.1	win	2023-06-27	21:29:17	21:44:51	924106	59098fbcc3338c000105a042	3	1	DL_test	23	DL_test	25	stimuli_distractor_trianglediamonds.svg	stimuli_target_trianglesquares.svg	26	yes	da	1	1200	6	2	antiphase_hc_ios.wav	3	6	1	noise_calib_stim_LEFT.wav	1	8	blb_dichoticlistening_da-da.mp3	da	da	0	left
6.6.1	win	2023-06-27	21:29:17	21:44:51	924106	59098fbcc3338c000105a042	3	1	DL_test	23	DL_test	26	stimuli_distractor_trianglediamonds.svg	stimuli_target_trianglesquares.svg	26	yes	ta	1	1250	6	2	antiphase_hc_ios.wav	3	6	1	noise_calib_stim_LEFT.wav	1	30	blb_dichoticlistening_pa-ta.mp3	pa	ta	1	right
