build	computer.platform	date	time	timestamp	time_elapsed_ms	subject	group	session	blockcode	blocknum	trialcode	trialnum	stimulus_left	stimulus_right	stim_index	target_present	response	correct	latency	headphonecheck_countTestTrials	headphonecheck_index	headphonecheck_testSound	headphonecheck_correctResponse	stereocheck_countTestTrials	stereocheck_index	stereocheck_testSound	stereocheck_correctResponse	DL_index	DL_soundfile	DL_leftSound	DL_rightSound	DL_dualSound	DL_choice
6.6.0	mac	2023-05-10	16:28:56	16:29:41	41573	1	4	3	practice_z	5	practice_z	1	stimuli_distractor_diamondtriangles.svg	stimuli_target_diamondrectangles.svg	8	yes	44	1	1253	0	0			0	0			1				0	
6.6.0	mac	2023-05-10	16:28:56	16:29:41	41573	1	4	3	practice_z	5	advance_on_keypress_ZEE	2	stimuli_distractor_diamondtriangles.svg	stimuli_target_diamondrectangles.svg	8	yes	57	0	495	0	0			0	0			1				0	
6.6.0	mac	2023-05-10	16:28:56	16:29:44	43716	1	4	3	practice_z	5	practice_z	3	stimuli_distractor_diamondtriangles.svg	stimuli_distractor_diamondtriangles.svg	13	no	44	0	9	0	0			0	0			1				0	
6.6.0	mac	2023-05-10	16:28:56	16:29:44	43716	1	4	3	practice_z	5	advance_on_keypress_ZEE	4	stimuli_distractor_diamondtriangles.svg	stimuli_distractor_diamondtriangles.svg	13	no	57	0	329	0	0			0	0			1				0	
6.6.0	mac	2023-05-10	16:28:56	16:29:46	45909	1	4	3	practice_z	5	practice_z	5	stimuli_distractor_trianglediamonds.svg	stimuli_distractor_trianglediamonds.svg	15	no	44	0	50	0	0			0	0			1				0	
6.6.0	mac	2023-05-10	16:28:56	16:29:46	45909	1	4	3	practice_z	5	advance_on_keypress_ZEE	6	stimuli_distractor_trianglediamonds.svg	stimuli_distractor_trianglediamonds.svg	15	no	57	0	438	0	0			0	0			1				0	
6.6.0	mac	2023-05-10	16:28:56	16:29:48	48061	1	4	3	practice_z	5	practice_z	7	stimuli_distractor_diamondtriangles.svg	stimuli_target_rectangletriangles.svg	7	yes	44	1	84	0	0			0	0			1				0	
6.6.0	mac	2023-05-10	16:28:56	16:29:48	48061	1	4	3	practice_z	5	advance_on_keypress_ZEE	8	stimuli_distractor_diamondtriangles.svg	stimuli_target_rectangletriangles.svg	7	yes	57	0	319	0	0			0	0			1				0	
6.6.0	mac	2023-05-10	16:28:56	16:29:50	50325	1	4	3	practice_z	5	practice_z	9	stimuli_distractor_diamondtriangles.svg	stimuli_distractor_trianglediamonds.svg	14	no	44	0	313	0	0			0	0			1				0	
6.6.0	mac	2023-05-10	16:28:56	16:29:50	50325	1	4	3	practice_z	5	advance_on_keypress_ZEE	10	stimuli_distractor_diamondtriangles.svg	stimuli_distractor_trianglediamonds.svg	14	no	57	0	227	0	0			0	0			1				0	
6.6.0	mac	2023-05-10	16:28:56	16:29:52	52533	1	4	3	practice_z	5	practice_z	11	stimuli_distractor_trianglediamonds.svg	stimuli_target_rectanglediamonds.svg	10	yes	44	1	352	0	0			0	0			1				0	
6.6.0	mac	2023-05-10	16:28:56	16:29:52	52533	1	4	3	practice_z	5	advance_on_keypress_ZEE	12	stimuli_distractor_trianglediamonds.svg	stimuli_target_rectanglediamonds.svg	10	yes	57	0	616	0	0			0	0			1				0	
6.6.0	mac	2023-05-10	16:28:56	16:29:55	55005	1	4	3	practice_z	5	practice_z	13	stimuli_target_diamondsquares.svg	stimuli_distractor_trianglediamonds.svg	6	yes	44	1	207	0	0			0	0			1				0	
6.6.0	mac	2023-05-10	16:28:56	16:29:55	55005	1	4	3	practice_z	5	advance_on_keypress_ZEE	14	stimuli_target_diamondsquares.svg	stimuli_distractor_trianglediamonds.svg	6	yes	57	0	356	0	0			0	0			1				0	
6.6.0	mac	2023-05-10	16:28:56	16:29:57	57269	1	4	3	practice_z	5	practice_z	15	stimuli_distractor_trianglediamonds.svg	stimuli_distractor_diamondtriangles.svg	16	no	44	0	285	0	0			0	0			1				0	
6.6.0	mac	2023-05-10	16:28:56	16:29:57	57269	1	4	3	practice_z	5	advance_on_keypress_ZEE	16	stimuli_distractor_trianglediamonds.svg	stimuli_distractor_diamondtriangles.svg	16	no	57	0	287	0	0			0	0			1				0	
6.6.0	mac	2023-05-10	16:28:56	16:29:59	59453	1	4	3	practice_z	5	practice_z	17	stimuli_target_diamondsquares.svg	stimuli_distractor_diamondtriangles.svg	3	yes	44	1	267	0	0			0	0			1				0	
6.6.0	mac	2023-05-10	16:28:56	16:29:59	59453	1	4	3	practice_z	5	advance_on_keypress_ZEE	18	stimuli_target_diamondsquares.svg	stimuli_distractor_diamondtriangles.svg	3	yes	57	0	438	0	0			0	0			1				0	
6.6.0	mac	2023-05-10	16:28:56	16:30:02	61732	1	4	3	practice_z	5	practice_z	19	stimuli_distractor_diamondtriangles.svg	stimuli_target_trianglerectangles.svg	9	yes	44	1	212	0	0			0	0			1				0	
6.6.0	mac	2023-05-10	16:28:56	16:30:02	61732	1	4	3	practice_z	5	advance_on_keypress_ZEE	20	stimuli_distractor_diamondtriangles.svg	stimuli_target_trianglerectangles.svg	9	yes	57	0	296	0	0			0	0			1				0	
6.6.0	mac	2023-05-10	16:28:56	16:30:04	63917	1	4	3	practice_z	5	practice_z	21	stimuli_distractor_trianglediamonds.svg	stimuli_target_diamondrectangles.svg	12	yes	44	1	260	0	0			0	0			1				0	
6.6.0	mac	2023-05-10	16:28:56	16:30:04	63917	1	4	3	practice_z	5	advance_on_keypress_ZEE	22	stimuli_distractor_trianglediamonds.svg	stimuli_target_diamondrectangles.svg	12	yes	57	0	161	0	0			0	0			1				0	
6.6.0	mac	2023-05-10	16:28:56	16:30:06	65941	1	4	3	practice_z	5	practice_z	23	stimuli_target_squarediamonds.svg	stimuli_distractor_trianglediamonds.svg	5	yes	44	1	233	0	0			0	0			1				0	
6.6.0	mac	2023-05-10	16:28:56	16:30:06	65941	1	4	3	practice_z	5	advance_on_keypress_ZEE	24	stimuli_target_squarediamonds.svg	stimuli_distractor_trianglediamonds.svg	5	yes	57	0	261	0	0			0	0			1				0	
6.6.0	mac	2023-05-10	16:28:56	16:30:08	68101	1	4	3	practice_z	5	practice_z	25	stimuli_target_squarediamonds.svg	stimuli_distractor_diamondtriangles.svg	2	yes	44	1	275	0	0			0	0			1				0	
6.6.0	mac	2023-05-10	16:28:56	16:30:08	68101	1	4	3	practice_z	5	advance_on_keypress_ZEE	26	stimuli_target_squarediamonds.svg	stimuli_distractor_diamondtriangles.svg	2	yes	57	0	142	0	0			0	0			1				0	
6.6.0	mac	2023-05-10	16:28:56	16:30:10	70149	1	4	3	practice_z	5	practice_z	27	stimuli_target_rectanglediamonds.svg	stimuli_distractor_trianglediamonds.svg	4	yes	44	1	288	0	0			0	0			1				0	
6.6.0	mac	2023-05-10	16:28:56	16:30:10	70149	1	4	3	practice_z	5	advance_on_keypress_ZEE	28	stimuli_target_rectanglediamonds.svg	stimuli_distractor_trianglediamonds.svg	4	yes	57	0	155	0	0			0	0			1				0	
6.6.0	mac	2023-05-10	16:28:56	16:30:12	72013	1	4	3	practice_z	5	practice_z	29	stimuli_target_rectanglediamonds.svg	stimuli_distractor_diamondtriangles.svg	1	yes	44	1	83	0	0			0	0			1				0	
6.6.0	mac	2023-05-10	16:28:56	16:30:12	72013	1	4	3	practice_z	5	advance_on_keypress_ZEE	30	stimuli_target_rectanglediamonds.svg	stimuli_distractor_diamondtriangles.svg	1	yes	57	0	325	0	0			0	0			1				0	
6.6.0	mac	2023-05-10	16:28:56	16:30:14	74140	1	4	3	practice_z	5	practice_z	31	stimuli_distractor_trianglediamonds.svg	stimuli_target_squarediamonds.svg	11	yes	44	1	176	0	0			0	0			1				0	
6.6.0	mac	2023-05-10	16:28:56	16:30:14	74140	1	4	3	practice_z	5	advance_on_keypress_ZEE	32	stimuli_distractor_trianglediamonds.svg	stimuli_target_squarediamonds.svg	11	yes	57	0	48	0	0			0	0			1				0	
6.6.0	mac	2023-05-10	16:28:56	16:30:16	76468	1	4	3	main_z	7	main_z	1	stimuli_target_trianglerectangles.svg	stimuli_distractor_trianglediamonds.svg	17	yes	44	1	302	0	0			0	0			1				0	
6.6.0	mac	2023-05-10	16:28:56	16:30:16	76468	1	4	3	main_z	7	advance_on_keypress_ZEE	2	stimuli_target_trianglerectangles.svg	stimuli_distractor_trianglediamonds.svg	17	yes	57	0	185	0	0			0	0			1				0	
6.6.0	mac	2023-05-10	16:28:56	16:30:17	77532	1	4	3	main_z	7	main_z	3	stimuli_target_trianglerectangles.svg	stimuli_distractor_diamondtriangles.svg	21	yes	44	1	248	0	0			0	0			1				0	
6.6.0	mac	2023-05-10	16:28:56	16:30:17	77532	1	4	3	main_z	7	advance_on_keypress_ZEE	4	stimuli_target_trianglerectangles.svg	stimuli_distractor_diamondtriangles.svg	21	yes	57	0	124	0	0			0	0			1				0	
6.6.0	mac	2023-05-10	16:28:56	16:30:18	78524	1	4	3	main_z	7	main_z	5	stimuli_target_rectanglediamonds.svg	stimuli_distractor_diamondtriangles.svg	6	yes	44	1	240	0	0			0	0			1				0	
6.6.0	mac	2023-05-10	16:28:56	16:30:18	78524	1	4	3	main_z	7	advance_on_keypress_ZEE	6	stimuli_target_rectanglediamonds.svg	stimuli_distractor_diamondtriangles.svg	6	yes	57	0	164	0	0			0	0			1				0	
6.6.0	mac	2023-05-10	16:28:56	16:30:19	79548	1	4	3	main_z	7	main_z	7	stimuli_distractor_trianglediamonds.svg	stimuli_target_squarediamonds.svg	12	yes	44	1	229	0	0			0	0			1				0	
6.6.0	mac	2023-05-10	16:28:56	16:30:19	79548	1	4	3	main_z	7	advance_on_keypress_ZEE	8	stimuli_distractor_trianglediamonds.svg	stimuli_target_squarediamonds.svg	12	yes	57	0	105	0	0			0	0			1				0	
6.6.0	mac	2023-05-10	16:28:56	16:30:20	80588	1	4	3	main_z	7	main_z	9	stimuli_distractor_trianglediamonds.svg	stimuli_target_rectangletriangles.svg	9	yes	44	1	201	0	0			0	0			1				0	
6.6.0	mac	2023-05-10	16:28:56	16:30:20	80588	1	4	3	main_z	7	advance_on_keypress_ZEE	10	stimuli_distractor_trianglediamonds.svg	stimuli_target_rectangletriangles.svg	9	yes	57	0	144	0	0			0	0			1				0	
6.6.0	mac	2023-05-10	16:28:56	16:30:21	81604	1	4	3	main_z	7	main_z	11	stimuli_target_diamondrectangles.svg	stimuli_distractor_diamondtriangles.svg	23	yes	44	1	250	0	0			0	0			1				0	
6.6.0	mac	2023-05-10	16:28:56	16:30:21	81604	1	4	3	main_z	7	advance_on_keypress_ZEE	12	stimuli_target_diamondrectangles.svg	stimuli_distractor_diamondtriangles.svg	23	yes	57	0	127	0	0			0	0			1				0	
6.6.0	mac	2023-05-10	16:28:56	16:30:22	82604	1	4	3	main_z	7	main_z	13	stimuli_distractor_trianglediamonds.svg	stimuli_distractor_diamondtriangles.svg	36	no	44	0	249	0	0			0	0			1				0	
6.6.0	mac	2023-05-10	16:28:56	16:30:22	82604	1	4	3	main_z	7	advance_on_keypress_ZEE	14	stimuli_distractor_trianglediamonds.svg	stimuli_distractor_diamondtriangles.svg	36	no	57	0	134	0	0			0	0			1				0	
6.6.0	mac	2023-05-10	16:28:56	16:30:24	83652	1	4	3	main_z	7	main_z	15	stimuli_distractor_diamondtriangles.svg	stimuli_distractor_trianglediamonds.svg	38	no	44	0	279	0	0			0	0			1				0	
6.6.0	mac	2023-05-10	16:28:56	16:30:24	83652	1	4	3	main_z	7	advance_on_keypress_ZEE	16	stimuli_distractor_diamondtriangles.svg	stimuli_distractor_trianglediamonds.svg	38	no	57	0	140	0	0			0	0			1				0	
6.6.0	mac	2023-05-10	16:28:56	16:30:25	84708	1	4	3	main_z	7	main_z	17	stimuli_target_squarediamonds.svg	stimuli_distractor_diamondtriangles.svg	8	yes	44	1	302	0	0			0	0			1				0	
6.6.0	mac	2023-05-10	16:28:56	16:30:25	84708	1	4	3	main_z	7	advance_on_keypress_ZEE	18	stimuli_target_squarediamonds.svg	stimuli_distractor_diamondtriangles.svg	8	yes	57	0	144	0	0			0	0			1				0	
6.6.0	mac	2023-05-10	16:28:56	16:30:25	85628	1	4	3	main_z	7	main_z	19	stimuli_distractor_diamondtriangles.svg	stimuli_target_squarediamonds.svg	16	yes	44	1	154	0	0			0	0			1				0	
6.6.0	mac	2023-05-10	16:28:56	16:30:25	85628	1	4	3	main_z	7	advance_on_keypress_ZEE	20	stimuli_distractor_diamondtriangles.svg	stimuli_target_squarediamonds.svg	16	yes	57	0	699	0	0			0	0			1				0	
6.6.0	mac	2023-05-10	16:28:56	16:30:27	87341	1	4	3	main_z	7	main_z	21	stimuli_target_trianglesquares.svg	stimuli_distractor_trianglediamonds.svg	18	yes	44	1	381	0	0			0	0			1				0	
6.6.0	mac	2023-05-10	16:28:56	16:30:27	87341	1	4	3	main_z	7	advance_on_keypress_ZEE	22	stimuli_target_trianglesquares.svg	stimuli_distractor_trianglediamonds.svg	18	yes	57	0	317	0	0			0	0			1				0	
6.6.0	mac	2023-05-10	16:28:56	16:30:29	88724	1	4	3	main_z	7	main_z	23	stimuli_distractor_diamondtriangles.svg	stimuli_target_trianglesquares.svg	30	yes	44	1	431	0	0			0	0			1				0	
6.6.0	mac	2023-05-10	16:28:56	16:30:29	88724	1	4	3	main_z	7	advance_on_keypress_ZEE	24	stimuli_distractor_diamondtriangles.svg	stimuli_target_trianglesquares.svg	30	yes	57	0	356	0	0			0	0			1				0	
6.6.0	mac	2023-05-10	16:28:56	16:30:30	89996	1	4	3	main_z	7	main_z	25	stimuli_target_diamondrectangles.svg	stimuli_distractor_trianglediamonds.svg	19	yes	44	1	285	0	0			0	0			1				0	
6.6.0	mac	2023-05-10	16:28:56	16:30:30	89996	1	4	3	main_z	7	advance_on_keypress_ZEE	26	stimuli_target_diamondrectangles.svg	stimuli_distractor_trianglediamonds.svg	19	yes	57	0	136	0	0			0	0			1				0	
6.6.0	mac	2023-05-10	16:28:56	16:30:31	91348	1	4	3	main_z	7	main_z	27	stimuli_distractor_trianglediamonds.svg	stimuli_target_rectanglediamonds.svg	10	yes	44	1	252	0	0			0	0			1				0	
6.6.0	mac	2023-05-10	16:28:56	16:30:31	91348	1	4	3	main_z	7	advance_on_keypress_ZEE	28	stimuli_distractor_trianglediamonds.svg	stimuli_target_rectanglediamonds.svg	10	yes	57	0	145	0	0			0	0			1				0	
6.6.0	mac	2023-05-10	16:28:56	16:30:34	94113	1	4	3	main_z	7	main_z	29	stimuli_distractor_diamondtriangles.svg	stimuli_target_diamondsquares.svg	32	yes	0	0	2000	0	0			0	0			1				0	
6.6.0	mac	2023-05-10	16:28:56	16:30:34	94113	1	4	3	main_z	7	advance_on_keypress_ZEE	30	stimuli_distractor_diamondtriangles.svg	stimuli_target_diamondsquares.svg	32	yes	57	0	48552	0	0			0	0			1				0	
6.6.0	mac	2023-05-10	16:28:56	16:31:23	143564	1	4	3	main_z	7	main_z	31	stimuli_target_squaretriangles.svg	stimuli_distractor_trianglediamonds.svg	3	yes	44	1	259	0	0			0	0			1				0	
6.6.0	mac	2023-05-10	16:28:56	16:31:23	143564	1	4	3	main_z	7	advance_on_keypress_ZEE	32	stimuli_target_squaretriangles.svg	stimuli_distractor_trianglediamonds.svg	3	yes	57	0	368	0	0			0	0			1				0	
6.6.0	mac	2023-05-10	16:28:56	16:31:25	144796	1	4	3	main_z	7	main_z	33	stimuli_distractor_diamondtriangles.svg	stimuli_target_rectanglediamonds.svg	14	yes	44	1	239	0	0			0	0			1				0	
6.6.0	mac	2023-05-10	16:28:56	16:31:25	144796	1	4	3	main_z	7	advance_on_keypress_ZEE	34	stimuli_distractor_diamondtriangles.svg	stimuli_target_rectanglediamonds.svg	14	yes	57	0	301	0	0			0	0			1				0	
6.6.0	mac	2023-05-10	16:28:56	16:31:26	146012	1	4	3	main_z	7	main_z	35	stimuli_target_rectanglediamonds.svg	stimuli_distractor_trianglediamonds.svg	2	yes	44	1	288	0	0			0	0			1				0	
6.6.0	mac	2023-05-10	16:28:56	16:31:26	146012	1	4	3	main_z	7	advance_on_keypress_ZEE	36	stimuli_target_rectanglediamonds.svg	stimuli_distractor_trianglediamonds.svg	2	yes	57	0	323	0	0			0	0			1				0	
6.6.0	mac	2023-05-10	16:28:56	16:31:27	147212	1	4	3	main_z	7	main_z	37	stimuli_target_diamondsquares.svg	stimuli_distractor_diamondtriangles.svg	24	yes	44	1	253	0	0			0	0			1				0	
6.6.0	mac	2023-05-10	16:28:56	16:31:27	147212	1	4	3	main_z	7	advance_on_keypress_ZEE	38	stimuli_target_diamondsquares.svg	stimuli_distractor_diamondtriangles.svg	24	yes	57	0	227	0	0			0	0			1				0	
6.6.0	mac	2023-05-10	16:28:56	16:31:28	148332	1	4	3	main_z	7	main_z	39	stimuli_target_rectangletriangles.svg	stimuli_distractor_diamondtriangles.svg	5	yes	44	1	273	0	0			0	0			1				0	
6.6.0	mac	2023-05-10	16:28:56	16:31:28	148332	1	4	3	main_z	7	advance_on_keypress_ZEE	40	stimuli_target_rectangletriangles.svg	stimuli_distractor_diamondtriangles.svg	5	yes	57	0	349	0	0			0	0			1				0	
6.6.0	mac	2023-05-10	16:28:56	16:31:30	149708	1	4	3	main_z	7	main_z	41	stimuli_distractor_trianglediamonds.svg	stimuli_target_trianglerectangles.svg	25	yes	44	1	397	0	0			0	0			1				0	
6.6.0	mac	2023-05-10	16:28:56	16:31:30	149708	1	4	3	main_z	7	advance_on_keypress_ZEE	42	stimuli_distractor_trianglediamonds.svg	stimuli_target_trianglerectangles.svg	25	yes	57	0	308	0	0			0	0			1				0	
6.6.0	mac	2023-05-10	16:28:56	16:31:31	150908	1	4	3	main_z	7	main_z	43	stimuli_target_diamondsquares.svg	stimuli_distractor_trianglediamonds.svg	20	yes	44	1	264	0	0			0	0			1				0	
6.6.0	mac	2023-05-10	16:28:56	16:31:31	150908	1	4	3	main_z	7	advance_on_keypress_ZEE	44	stimuli_target_diamondsquares.svg	stimuli_distractor_trianglediamonds.svg	20	yes	57	0	299	0	0			0	0			1				0	
6.6.0	mac	2023-05-10	16:28:56	16:31:32	152284	1	4	3	main_z	7	main_z	45	stimuli_distractor_trianglediamonds.svg	stimuli_target_diamondsquares.svg	28	yes	44	1	439	0	0			0	0			1				0	
6.6.0	mac	2023-05-10	16:28:56	16:31:32	152284	1	4	3	main_z	7	advance_on_keypress_ZEE	46	stimuli_distractor_trianglediamonds.svg	stimuli_target_diamondsquares.svg	28	yes	57	0	283	0	0			0	0			1				0	
6.6.0	mac	2023-05-10	16:28:56	16:31:33	153556	1	4	3	main_z	7	main_z	47	stimuli_target_rectangletriangles.svg	stimuli_distractor_trianglediamonds.svg	1	yes	44	1	359	0	0			0	0			1				0	
6.6.0	mac	2023-05-10	16:28:56	16:31:33	153556	1	4	3	main_z	7	advance_on_keypress_ZEE	48	stimuli_target_rectangletriangles.svg	stimuli_distractor_trianglediamonds.svg	1	yes	57	0	279	0	0			0	0			1				0	
6.6.0	mac	2023-05-10	16:28:56	16:31:35	154868	1	4	3	main_z	7	main_z	49	stimuli_distractor_trianglediamonds.svg	stimuli_target_diamondrectangles.svg	27	yes	44	1	404	0	0			0	0			1				0	
6.6.0	mac	2023-05-10	16:28:56	16:31:35	154868	1	4	3	main_z	7	advance_on_keypress_ZEE	50	stimuli_distractor_trianglediamonds.svg	stimuli_target_diamondrectangles.svg	27	yes	57	0	219	0	0			0	0			1				0	
6.6.0	mac	2023-05-10	16:28:56	16:31:36	156044	1	4	3	main_z	7	main_z	51	stimuli_distractor_diamondtriangles.svg	stimuli_distractor_trianglediamonds.svg	37	no	44	0	328	0	0			0	0			1				0	
6.6.0	mac	2023-05-10	16:28:56	16:31:36	156044	1	4	3	main_z	7	advance_on_keypress_ZEE	52	stimuli_distractor_diamondtriangles.svg	stimuli_distractor_trianglediamonds.svg	37	no	57	0	242	0	0			0	0			1				0	
6.6.0	mac	2023-05-10	16:28:56	16:31:37	157276	1	4	3	main_z	7	main_z	53	stimuli_distractor_trianglediamonds.svg	stimuli_distractor_trianglediamonds.svg	34	no	44	0	376	0	0			0	0			1				0	
6.6.0	mac	2023-05-10	16:28:56	16:31:37	157276	1	4	3	main_z	7	advance_on_keypress_ZEE	54	stimuli_distractor_trianglediamonds.svg	stimuli_distractor_trianglediamonds.svg	34	no	57	0	310	0	0			0	0			1				0	
6.6.0	mac	2023-05-10	16:28:56	16:31:39	158940	1	4	3	main_z	7	main_z	55	stimuli_distractor_diamondtriangles.svg	stimuli_target_squaretriangles.svg	15	yes	44	1	706	0	0			0	0			1				0	
6.6.0	mac	2023-05-10	16:28:56	16:31:39	158940	1	4	3	main_z	7	advance_on_keypress_ZEE	56	stimuli_distractor_diamondtriangles.svg	stimuli_target_squaretriangles.svg	15	yes	57	0	252	0	0			0	0			1				0	
6.6.0	mac	2023-05-10	16:28:56	16:31:40	160092	1	4	3	main_z	7	main_z	57	stimuli_distractor_trianglediamonds.svg	stimuli_target_trianglesquares.svg	26	yes	44	1	273	0	0			0	0			1				0	
6.6.0	mac	2023-05-10	16:28:56	16:31:40	160092	1	4	3	main_z	7	advance_on_keypress_ZEE	58	stimuli_distractor_trianglediamonds.svg	stimuli_target_trianglesquares.svg	26	yes	57	0	125	0	0			0	0			1				0	
6.6.0	mac	2023-05-10	16:28:56	16:31:41	161156	1	4	3	main_z	7	main_z	59	stimuli_distractor_diamondtriangles.svg	stimuli_target_trianglerectangles.svg	29	yes	44	1	320	0	0			0	0			1				0	
6.6.0	mac	2023-05-10	16:28:56	16:31:41	161156	1	4	3	main_z	7	advance_on_keypress_ZEE	60	stimuli_distractor_diamondtriangles.svg	stimuli_target_trianglerectangles.svg	29	yes	57	0	266	0	0			0	0			1				0	
6.6.0	mac	2023-05-10	16:28:56	16:31:42	162308	1	4	3	main_z	7	main_z	61	stimuli_distractor_trianglediamonds.svg	stimuli_distractor_trianglediamonds.svg	33	no	44	0	254	0	0			0	0			1				0	
6.6.0	mac	2023-05-10	16:28:56	16:31:42	162308	1	4	3	main_z	7	advance_on_keypress_ZEE	62	stimuli_distractor_trianglediamonds.svg	stimuli_distractor_trianglediamonds.svg	33	no	57	0	107	0	0			0	0			1				0	
6.6.0	mac	2023-05-10	16:28:56	16:31:43	163340	1	4	3	main_z	7	main_z	63	stimuli_distractor_diamondtriangles.svg	stimuli_distractor_diamondtriangles.svg	40	no	44	0	302	0	0			0	0			1				0	
6.6.0	mac	2023-05-10	16:28:56	16:31:43	163340	1	4	3	main_z	7	advance_on_keypress_ZEE	64	stimuli_distractor_diamondtriangles.svg	stimuli_distractor_diamondtriangles.svg	40	no	57	0	176	0	0			0	0			1				0	
6.6.0	mac	2023-05-10	16:28:56	16:31:44	164492	1	4	3	main_z	7	main_z	65	stimuli_distractor_diamondtriangles.svg	stimuli_target_diamondrectangles.svg	31	yes	44	1	319	0	0			0	0			1				0	
6.6.0	mac	2023-05-10	16:28:56	16:31:44	164492	1	4	3	main_z	7	advance_on_keypress_ZEE	66	stimuli_distractor_diamondtriangles.svg	stimuli_target_diamondrectangles.svg	31	yes	57	0	194	0	0			0	0			1				0	
6.6.0	mac	2023-05-10	16:28:56	16:31:46	165716	1	4	3	main_z	7	main_z	67	stimuli_distractor_diamondtriangles.svg	stimuli_distractor_diamondtriangles.svg	39	no	44	0	410	0	0			0	0			1				0	
6.6.0	mac	2023-05-10	16:28:56	16:31:46	165716	1	4	3	main_z	7	advance_on_keypress_ZEE	68	stimuli_distractor_diamondtriangles.svg	stimuli_distractor_diamondtriangles.svg	39	no	57	0	215	0	0			0	0			1				0	
6.6.0	mac	2023-05-10	16:28:56	16:31:47	166812	1	4	3	main_z	7	main_z	69	stimuli_distractor_trianglediamonds.svg	stimuli_distractor_diamondtriangles.svg	35	no	44	0	254	0	0			0	0			1				0	
6.6.0	mac	2023-05-10	16:28:56	16:31:47	166812	1	4	3	main_z	7	advance_on_keypress_ZEE	70	stimuli_distractor_trianglediamonds.svg	stimuli_distractor_diamondtriangles.svg	35	no	57	0	91	0	0			0	0			1				0	
6.6.0	mac	2023-05-10	16:28:56	16:31:48	167972	1	4	3	main_z	7	main_z	71	stimuli_distractor_trianglediamonds.svg	stimuli_target_squaretriangles.svg	11	yes	44	1	447	0	0			0	0			1				0	
6.6.0	mac	2023-05-10	16:28:56	16:31:48	167972	1	4	3	main_z	7	advance_on_keypress_ZEE	72	stimuli_distractor_trianglediamonds.svg	stimuli_target_squaretriangles.svg	11	yes	57	0	115	0	0			0	0			1				0	
6.6.0	mac	2023-05-10	16:28:56	16:31:49	168988	1	4	3	main_z	7	main_z	73	stimuli_distractor_diamondtriangles.svg	stimuli_target_rectangletriangles.svg	13	yes	44	1	261	0	0			0	0			1				0	
6.6.0	mac	2023-05-10	16:28:56	16:31:49	168988	1	4	3	main_z	7	advance_on_keypress_ZEE	74	stimuli_distractor_diamondtriangles.svg	stimuli_target_rectangletriangles.svg	13	yes	57	0	98	0	0			0	0			1				0	
6.6.0	mac	2023-05-10	16:28:56	16:31:50	169988	1	4	3	main_z	7	main_z	75	stimuli_target_trianglesquares.svg	stimuli_distractor_diamondtriangles.svg	22	yes	44	1	277	0	0			0	0			1				0	
6.6.0	mac	2023-05-10	16:28:56	16:31:50	169988	1	4	3	main_z	7	advance_on_keypress_ZEE	76	stimuli_target_trianglesquares.svg	stimuli_distractor_diamondtriangles.svg	22	yes	57	0	146	0	0			0	0			1				0	
6.6.0	mac	2023-05-10	16:28:56	16:31:51	171044	1	4	3	main_z	7	main_z	77	stimuli_target_squaretriangles.svg	stimuli_distractor_diamondtriangles.svg	7	yes	44	1	299	0	0			0	0			1				0	
6.6.0	mac	2023-05-10	16:28:56	16:31:51	171044	1	4	3	main_z	7	advance_on_keypress_ZEE	78	stimuli_target_squaretriangles.svg	stimuli_distractor_diamondtriangles.svg	7	yes	57	0	10	0	0			0	0			1				0	
6.6.0	mac	2023-05-10	16:28:56	16:31:52	172076	1	4	3	main_z	7	main_z	79	stimuli_target_squarediamonds.svg	stimuli_distractor_trianglediamonds.svg	4	yes	44	1	298	0	0			0	0			1				0	
6.6.0	mac	2023-05-10	16:28:56	16:31:52	172076	1	4	3	main_z	7	advance_on_keypress_ZEE	80	stimuli_target_squarediamonds.svg	stimuli_distractor_trianglediamonds.svg	4	yes	57	0	67	0	0			0	0			1				0	
6.6.0	mac	2023-05-10	16:28:56	16:31:53	173084	1	4	3	main_z	7	main_z	81	stimuli_distractor_diamondtriangles.svg	stimuli_target_squarediamonds.svg	16	yes	44	1	304	0	0			0	0			1				0	
6.6.0	mac	2023-05-10	16:28:56	16:31:53	173084	1	4	3	main_z	7	advance_on_keypress_ZEE	82	stimuli_distractor_diamondtriangles.svg	stimuli_target_squarediamonds.svg	16	yes	57	0	75	0	0			0	0			1				0	
6.6.0	mac	2023-05-10	16:28:56	16:31:54	174044	1	4	3	main_z	7	main_z	83	stimuli_target_trianglerectangles.svg	stimuli_distractor_diamondtriangles.svg	21	yes	44	1	264	0	0			0	0			1				0	
6.6.0	mac	2023-05-10	16:28:56	16:31:54	174044	1	4	3	main_z	7	advance_on_keypress_ZEE	84	stimuli_target_trianglerectangles.svg	stimuli_distractor_diamondtriangles.svg	21	yes	57	0	84	0	0			0	0			1				0	
6.6.0	mac	2023-05-10	16:28:56	16:31:56	176004	1	4	3	main_z	7	main_z	85	stimuli_target_diamondrectangles.svg	stimuli_distractor_diamondtriangles.svg	23	yes	44	1	1239	0	0			0	0			1				0	
6.6.0	mac	2023-05-10	16:28:56	16:31:56	176004	1	4	3	main_z	7	advance_on_keypress_ZEE	86	stimuli_target_diamondrectangles.svg	stimuli_distractor_diamondtriangles.svg	23	yes	57	0	125	0	0			0	0			1				0	
6.6.0	mac	2023-05-10	16:28:56	16:31:57	177060	1	4	3	main_z	7	main_z	87	stimuli_target_diamondsquares.svg	stimuli_distractor_trianglediamonds.svg	20	yes	44	1	310	0	0			0	0			1				0	
6.6.0	mac	2023-05-10	16:28:56	16:31:57	177060	1	4	3	main_z	7	advance_on_keypress_ZEE	88	stimuli_target_diamondsquares.svg	stimuli_distractor_trianglediamonds.svg	20	yes	57	0	122	0	0			0	0			1				0	
6.6.0	mac	2023-05-10	16:28:56	16:31:58	178012	1	4	3	main_z	7	main_z	89	stimuli_distractor_diamondtriangles.svg	stimuli_distractor_diamondtriangles.svg	39	no	44	0	211	0	0			0	0			1				0	
6.6.0	mac	2023-05-10	16:28:56	16:31:58	178012	1	4	3	main_z	7	advance_on_keypress_ZEE	90	stimuli_distractor_diamondtriangles.svg	stimuli_distractor_diamondtriangles.svg	39	no	57	0	66	0	0			0	0			1				0	
6.6.0	mac	2023-05-10	16:28:56	16:31:59	178948	1	4	3	main_z	7	main_z	91	stimuli_distractor_trianglediamonds.svg	stimuli_target_trianglesquares.svg	26	yes	44	1	247	0	0			0	0			1				0	
6.6.0	mac	2023-05-10	16:28:56	16:31:59	178948	1	4	3	main_z	7	advance_on_keypress_ZEE	92	stimuli_distractor_trianglediamonds.svg	stimuli_target_trianglesquares.svg	26	yes	57	0	83	0	0			0	0			1				0	
6.6.0	mac	2023-05-10	16:28:56	16:32:00	179988	1	4	3	main_z	7	main_z	93	stimuli_distractor_trianglediamonds.svg	stimuli_distractor_diamondtriangles.svg	35	no	44	0	319	0	0			0	0			1				0	
6.6.0	mac	2023-05-10	16:28:56	16:32:00	179988	1	4	3	main_z	7	advance_on_keypress_ZEE	94	stimuli_distractor_trianglediamonds.svg	stimuli_distractor_diamondtriangles.svg	35	no	57	0	98	0	0			0	0			1				0	
6.6.0	mac	2023-05-10	16:28:56	16:32:01	180980	1	4	3	main_z	7	main_z	95	stimuli_distractor_diamondtriangles.svg	stimuli_distractor_trianglediamonds.svg	37	no	44	0	260	0	0			0	0			1				0	
6.6.0	mac	2023-05-10	16:28:56	16:32:01	180980	1	4	3	main_z	7	advance_on_keypress_ZEE	96	stimuli_distractor_diamondtriangles.svg	stimuli_distractor_trianglediamonds.svg	37	no	57	0	74	0	0			0	0			1				0	
6.6.0	mac	2023-05-10	16:28:56	16:32:02	181932	1	4	3	main_z	7	main_z	97	stimuli_target_trianglesquares.svg	stimuli_distractor_trianglediamonds.svg	18	yes	44	1	262	0	0			0	0			1				0	
6.6.0	mac	2023-05-10	16:28:56	16:32:02	181932	1	4	3	main_z	7	advance_on_keypress_ZEE	98	stimuli_target_trianglesquares.svg	stimuli_distractor_trianglediamonds.svg	18	yes	57	0	50	0	0			0	0			1				0	
6.6.0	mac	2023-05-10	16:28:56	16:32:03	182876	1	4	3	main_z	7	main_z	99	stimuli_target_diamondrectangles.svg	stimuli_distractor_trianglediamonds.svg	19	yes	44	1	272	0	0			0	0			1				0	
6.6.0	mac	2023-05-10	16:28:56	16:32:03	182876	1	4	3	main_z	7	advance_on_keypress_ZEE	100	stimuli_target_diamondrectangles.svg	stimuli_distractor_trianglediamonds.svg	19	yes	57	0	59	0	0			0	0			1				0	
6.6.0	mac	2023-05-10	16:28:56	16:32:04	184188	1	4	3	main_z	7	main_z	101	stimuli_distractor_trianglediamonds.svg	stimuli_target_rectangletriangles.svg	9	yes	44	1	633	0	0			0	0			1				0	
6.6.0	mac	2023-05-10	16:28:56	16:32:04	184188	1	4	3	main_z	7	advance_on_keypress_ZEE	102	stimuli_distractor_trianglediamonds.svg	stimuli_target_rectangletriangles.svg	9	yes	57	0	54	0	0			0	0			1				0	
6.6.0	mac	2023-05-10	16:28:56	16:32:05	185284	1	4	3	main_z	7	main_z	103	stimuli_distractor_diamondtriangles.svg	stimuli_distractor_diamondtriangles.svg	40	no	44	0	411	0	0			0	0			1				0	
6.6.0	mac	2023-05-10	16:28:56	16:32:05	185284	1	4	3	main_z	7	advance_on_keypress_ZEE	104	stimuli_distractor_diamondtriangles.svg	stimuli_distractor_diamondtriangles.svg	40	no	57	0	193	0	0			0	0			1				0	
6.6.0	mac	2023-05-10	16:28:56	16:32:06	186236	1	4	3	main_z	7	main_z	105	stimuli_target_rectangletriangles.svg	stimuli_distractor_trianglediamonds.svg	1	yes	44	1	128	0	0			0	0			1				0	
6.6.0	mac	2023-05-10	16:28:56	16:32:06	186236	1	4	3	main_z	7	advance_on_keypress_ZEE	106	stimuli_target_rectangletriangles.svg	stimuli_distractor_trianglediamonds.svg	1	yes	57	0	99	0	0			0	0			1				0	
6.6.0	mac	2023-05-10	16:28:56	16:32:07	187084	1	4	3	main_z	7	main_z	107	stimuli_target_squaretriangles.svg	stimuli_distractor_trianglediamonds.svg	3	yes	44	1	126	0	0			0	0			1				0	
6.6.0	mac	2023-05-10	16:28:56	16:32:07	187084	1	4	3	main_z	7	advance_on_keypress_ZEE	108	stimuli_target_squaretriangles.svg	stimuli_distractor_trianglediamonds.svg	3	yes	57	0	89	0	0			0	0			1				0	
6.6.0	mac	2023-05-10	16:28:56	16:32:08	188204	1	4	3	main_z	7	main_z	109	stimuli_distractor_diamondtriangles.svg	stimuli_target_squaretriangles.svg	15	yes	44	1	412	0	0			0	0			1				0	
6.6.0	mac	2023-05-10	16:28:56	16:32:08	188204	1	4	3	main_z	7	advance_on_keypress_ZEE	110	stimuli_distractor_diamondtriangles.svg	stimuli_target_squaretriangles.svg	15	yes	57	0	569	0	0			0	0			1				0	
6.6.0	mac	2023-05-10	16:28:56	16:32:10	189868	1	4	3	main_z	7	main_z	111	stimuli_distractor_diamondtriangles.svg	stimuli_target_rectanglediamonds.svg	14	yes	44	1	441	0	0			0	0			1				0	
6.6.0	mac	2023-05-10	16:28:56	16:32:10	189868	1	4	3	main_z	7	advance_on_keypress_ZEE	112	stimuli_distractor_diamondtriangles.svg	stimuli_target_rectanglediamonds.svg	14	yes	57	0	78	0	0			0	0			1				0	
6.6.0	mac	2023-05-10	16:28:56	16:32:11	190812	1	4	3	main_z	7	main_z	113	stimuli_distractor_diamondtriangles.svg	stimuli_target_trianglerectangles.svg	29	yes	44	1	234	0	0			0	0			1				0	
6.6.0	mac	2023-05-10	16:28:56	16:32:11	190812	1	4	3	main_z	7	advance_on_keypress_ZEE	114	stimuli_distractor_diamondtriangles.svg	stimuli_target_trianglerectangles.svg	29	yes	57	0	40	0	0			0	0			1				0	
6.6.0	mac	2023-05-10	16:28:56	16:32:12	191844	1	4	3	main_z	7	main_z	115	stimuli_distractor_diamondtriangles.svg	stimuli_distractor_trianglediamonds.svg	38	no	44	0	365	0	0			0	0			1				0	
6.6.0	mac	2023-05-10	16:28:56	16:32:12	191844	1	4	3	main_z	7	advance_on_keypress_ZEE	116	stimuli_distractor_diamondtriangles.svg	stimuli_distractor_trianglediamonds.svg	38	no	57	0	29	0	0			0	0			1				0	
6.6.0	mac	2023-05-10	16:28:56	16:32:13	193164	1	4	3	main_z	7	main_z	117	stimuli_target_trianglesquares.svg	stimuli_distractor_diamondtriangles.svg	22	yes	44	1	651	0	0			0	0			1				0	
6.6.0	mac	2023-05-10	16:28:56	16:32:13	193164	1	4	3	main_z	7	advance_on_keypress_ZEE	118	stimuli_target_trianglesquares.svg	stimuli_distractor_diamondtriangles.svg	22	yes	57	0	152	0	0			0	0			1				0	
6.6.0	mac	2023-05-10	16:28:56	16:32:14	194268	1	4	3	main_z	7	main_z	119	stimuli_target_trianglerectangles.svg	stimuli_distractor_trianglediamonds.svg	17	yes	44	1	321	0	0			0	0			1				0	
6.6.0	mac	2023-05-10	16:28:56	16:32:14	194268	1	4	3	main_z	7	advance_on_keypress_ZEE	120	stimuli_target_trianglerectangles.svg	stimuli_distractor_trianglediamonds.svg	17	yes	57	0	91	0	0			0	0			1				0	
6.6.0	mac	2023-05-10	16:28:56	16:32:15	195316	1	4	3	main_z	7	main_z	121	stimuli_distractor_trianglediamonds.svg	stimuli_target_diamondsquares.svg	28	yes	44	1	335	0	0			0	0			1				0	
6.6.0	mac	2023-05-10	16:28:56	16:32:15	195316	1	4	3	main_z	7	advance_on_keypress_ZEE	122	stimuli_distractor_trianglediamonds.svg	stimuli_target_diamondsquares.svg	28	yes	57	0	65	0	0			0	0			1				0	
6.6.0	mac	2023-05-10	16:28:56	16:32:16	196396	1	4	3	main_z	7	main_z	123	stimuli_distractor_trianglediamonds.svg	stimuli_target_diamondrectangles.svg	27	yes	44	1	381	0	0			0	0			1				0	
6.6.0	mac	2023-05-10	16:28:56	16:32:16	196396	1	4	3	main_z	7	advance_on_keypress_ZEE	124	stimuli_distractor_trianglediamonds.svg	stimuli_target_diamondrectangles.svg	27	yes	57	0	84	0	0			0	0			1				0	
6.6.0	mac	2023-05-10	16:28:56	16:32:17	197500	1	4	3	main_z	7	main_z	125	stimuli_distractor_trianglediamonds.svg	stimuli_distractor_trianglediamonds.svg	33	no	44	0	384	0	0			0	0			1				0	
6.6.0	mac	2023-05-10	16:28:56	16:32:17	197500	1	4	3	main_z	7	advance_on_keypress_ZEE	126	stimuli_distractor_trianglediamonds.svg	stimuli_distractor_trianglediamonds.svg	33	no	57	0	55	0	0			0	0			1				0	
6.6.0	mac	2023-05-10	16:28:56	16:32:18	198636	1	4	3	main_z	7	main_z	127	stimuli_target_squaretriangles.svg	stimuli_distractor_diamondtriangles.svg	7	yes	44	1	453	0	0			0	0			1				0	
6.6.0	mac	2023-05-10	16:28:56	16:32:18	198636	1	4	3	main_z	7	advance_on_keypress_ZEE	128	stimuli_target_squaretriangles.svg	stimuli_distractor_diamondtriangles.svg	7	yes	57	0	64	0	0			0	0			1				0	
6.6.0	mac	2023-05-10	16:28:56	16:32:19	199604	1	4	3	main_z	7	main_z	129	stimuli_distractor_trianglediamonds.svg	stimuli_distractor_trianglediamonds.svg	34	no	44	0	269	0	0			0	0			1				0	
6.6.0	mac	2023-05-10	16:28:56	16:32:19	199604	1	4	3	main_z	7	advance_on_keypress_ZEE	130	stimuli_distractor_trianglediamonds.svg	stimuli_distractor_trianglediamonds.svg	34	no	57	0	65	0	0			0	0			1				0	
6.6.0	mac	2023-05-10	16:28:56	16:32:21	200748	1	4	3	main_z	7	main_z	131	stimuli_distractor_diamondtriangles.svg	stimuli_target_diamondsquares.svg	32	yes	44	1	446	0	0			0	0			1				0	
6.6.0	mac	2023-05-10	16:28:56	16:32:21	200748	1	4	3	main_z	7	advance_on_keypress_ZEE	132	stimuli_distractor_diamondtriangles.svg	stimuli_target_diamondsquares.svg	32	yes	57	0	90	0	0			0	0			1				0	
6.6.0	mac	2023-05-10	16:28:56	16:32:22	201860	1	4	3	main_z	7	main_z	133	stimuli_target_squarediamonds.svg	stimuli_distractor_diamondtriangles.svg	8	yes	44	1	390	0	0			0	0			1				0	
6.6.0	mac	2023-05-10	16:28:56	16:32:22	201860	1	4	3	main_z	7	advance_on_keypress_ZEE	134	stimuli_target_squarediamonds.svg	stimuli_distractor_diamondtriangles.svg	8	yes	57	0	61	0	0			0	0			1				0	
6.6.0	mac	2023-05-10	16:28:56	16:32:23	203372	1	4	3	main_z	7	main_z	135	stimuli_distractor_trianglediamonds.svg	stimuli_target_squarediamonds.svg	12	yes	44	1	818	0	0			0	0			1				0	
6.6.0	mac	2023-05-10	16:28:56	16:32:23	203372	1	4	3	main_z	7	advance_on_keypress_ZEE	136	stimuli_distractor_trianglediamonds.svg	stimuli_target_squarediamonds.svg	12	yes	57	0	71	0	0			0	0			1				0	
6.6.0	mac	2023-05-10	16:28:56	16:32:24	204620	1	4	3	main_z	7	main_z	137	stimuli_target_rectangletriangles.svg	stimuli_distractor_diamondtriangles.svg	5	yes	44	1	548	0	0			0	0			1				0	
6.6.0	mac	2023-05-10	16:28:56	16:32:24	204620	1	4	3	main_z	7	advance_on_keypress_ZEE	138	stimuli_target_rectangletriangles.svg	stimuli_distractor_diamondtriangles.svg	5	yes	57	0	92	0	0			0	0			1				0	
6.6.0	mac	2023-05-10	16:28:56	16:32:25	205620	1	4	3	main_z	7	main_z	139	stimuli_target_diamondsquares.svg	stimuli_distractor_diamondtriangles.svg	24	yes	44	1	280	0	0			0	0			1				0	
6.6.0	mac	2023-05-10	16:28:56	16:32:25	205620	1	4	3	main_z	7	advance_on_keypress_ZEE	140	stimuli_target_diamondsquares.svg	stimuli_distractor_diamondtriangles.svg	24	yes	57	0	67	0	0			0	0			1				0	
6.6.0	mac	2023-05-10	16:28:56	16:32:26	206532	1	4	3	main_z	7	main_z	141	stimuli_distractor_trianglediamonds.svg	stimuli_target_rectanglediamonds.svg	10	yes	44	1	208	0	0			0	0			1				0	
6.6.0	mac	2023-05-10	16:28:56	16:32:26	206532	1	4	3	main_z	7	advance_on_keypress_ZEE	142	stimuli_distractor_trianglediamonds.svg	stimuli_target_rectanglediamonds.svg	10	yes	57	0	47	0	0			0	0			1				0	
6.6.0	mac	2023-05-10	16:28:56	16:32:28	207908	1	4	3	main_z	7	main_z	143	stimuli_target_rectanglediamonds.svg	stimuli_distractor_trianglediamonds.svg	2	yes	44	1	700	0	0			0	0			1				0	
6.6.0	mac	2023-05-10	16:28:56	16:32:28	207908	1	4	3	main_z	7	advance_on_keypress_ZEE	144	stimuli_target_rectanglediamonds.svg	stimuli_distractor_trianglediamonds.svg	2	yes	57	0	62	0	0			0	0			1				0	
6.6.0	mac	2023-05-10	16:28:56	16:32:29	208900	1	4	3	main_z	7	main_z	145	stimuli_distractor_diamondtriangles.svg	stimuli_target_diamondrectangles.svg	31	yes	44	1	291	0	0			0	0			1				0	
6.6.0	mac	2023-05-10	16:28:56	16:32:29	208900	1	4	3	main_z	7	advance_on_keypress_ZEE	146	stimuli_distractor_diamondtriangles.svg	stimuli_target_diamondrectangles.svg	31	yes	57	0	54	0	0			0	0			1				0	
6.6.0	mac	2023-05-10	16:28:56	16:32:30	209876	1	4	3	main_z	7	main_z	147	stimuli_distractor_diamondtriangles.svg	stimuli_target_trianglesquares.svg	30	yes	44	1	299	0	0			0	0			1				0	
6.6.0	mac	2023-05-10	16:28:56	16:32:30	209876	1	4	3	main_z	7	advance_on_keypress_ZEE	148	stimuli_distractor_diamondtriangles.svg	stimuli_target_trianglesquares.svg	30	yes	57	0	54	0	0			0	0			1				0	
6.6.0	mac	2023-05-10	16:28:56	16:32:31	210773	1	4	3	main_z	7	main_z	149	stimuli_target_squarediamonds.svg	stimuli_distractor_trianglediamonds.svg	4	yes	44	1	211	0	0			0	0			1				0	
6.6.0	mac	2023-05-10	16:28:56	16:32:31	210773	1	4	3	main_z	7	advance_on_keypress_ZEE	150	stimuli_target_squarediamonds.svg	stimuli_distractor_trianglediamonds.svg	4	yes	57	0	105	0	0			0	0			1				0	
6.6.0	mac	2023-05-10	16:28:56	16:32:32	212260	1	4	3	main_z	7	main_z	151	stimuli_distractor_trianglediamonds.svg	stimuli_target_squaretriangles.svg	11	yes	44	1	748	0	0			0	0			1				0	
6.6.0	mac	2023-05-10	16:28:56	16:32:32	212260	1	4	3	main_z	7	advance_on_keypress_ZEE	152	stimuli_distractor_trianglediamonds.svg	stimuli_target_squaretriangles.svg	11	yes	57	0	53	0	0			0	0			1				0	
6.6.0	mac	2023-05-10	16:28:56	16:32:33	213172	1	4	3	main_z	7	main_z	153	stimuli_distractor_trianglediamonds.svg	stimuli_target_trianglerectangles.svg	25	yes	44	1	226	0	0			0	0			1				0	
6.6.0	mac	2023-05-10	16:28:56	16:32:33	213172	1	4	3	main_z	7	advance_on_keypress_ZEE	154	stimuli_distractor_trianglediamonds.svg	stimuli_target_trianglerectangles.svg	25	yes	57	0	72	0	0			0	0			1				0	
6.6.0	mac	2023-05-10	16:28:56	16:32:34	214348	1	4	3	main_z	7	main_z	155	stimuli_distractor_diamondtriangles.svg	stimuli_target_rectangletriangles.svg	13	yes	44	1	484	0	0			0	0			1				0	
6.6.0	mac	2023-05-10	16:28:56	16:32:34	214348	1	4	3	main_z	7	advance_on_keypress_ZEE	156	stimuli_distractor_diamondtriangles.svg	stimuli_target_rectangletriangles.svg	13	yes	57	0	40	0	0			0	0			1				0	
6.6.0	mac	2023-05-10	16:28:56	16:32:35	215620	1	4	3	main_z	7	main_z	157	stimuli_target_rectanglediamonds.svg	stimuli_distractor_diamondtriangles.svg	6	yes	44	1	605	0	0			0	0			1				0	
6.6.0	mac	2023-05-10	16:28:56	16:32:35	215620	1	4	3	main_z	7	advance_on_keypress_ZEE	158	stimuli_target_rectanglediamonds.svg	stimuli_distractor_diamondtriangles.svg	6	yes	57	0	61	0	0			0	0			1				0	
6.6.0	mac	2023-05-10	16:28:56	16:32:37	216700	1	4	3	main_z	7	main_z	159	stimuli_distractor_trianglediamonds.svg	stimuli_distractor_diamondtriangles.svg	36	no	44	0	402	0	0			0	0			1				0	
6.6.0	mac	2023-05-10	16:28:56	16:32:37	216700	1	4	3	main_z	7	advance_on_keypress_ZEE	160	stimuli_distractor_trianglediamonds.svg	stimuli_distractor_diamondtriangles.svg	36	no	57	0	103	0	0			0	0			1				0	
6.6.0	mac	2023-05-10	16:28:56	16:32:43	222653	1	4	3	practice_slash	9	practice_slash	1	stimuli_distractor_diamondtriangles.svg	stimuli_target_diamondrectangles.svg	8	yes	0	0	2000	0	0			0	0			1				0	
6.6.0	mac	2023-05-10	16:28:56	16:32:43	222653	1	4	3	practice_slash	9	advance_on_keypress_SLASH	2	stimuli_distractor_diamondtriangles.svg	stimuli_target_diamondrectangles.svg	8	yes	57	0	638	0	0			0	0			1				0	
6.6.0	mac	2023-05-10	16:28:56	16:32:45	225252	1	4	3	practice_slash	9	practice_slash	3	stimuli_target_squarediamonds.svg	stimuli_distractor_diamondtriangles.svg	2	yes	53	1	330	0	0			0	0			1				0	
6.6.0	mac	2023-05-10	16:28:56	16:32:45	225252	1	4	3	practice_slash	9	advance_on_keypress_SLASH	4	stimuli_target_squarediamonds.svg	stimuli_distractor_diamondtriangles.svg	2	yes	57	0	603	0	0			0	0			1				0	
6.6.0	mac	2023-05-10	16:28:56	16:32:48	227829	1	4	3	practice_slash	9	practice_slash	5	stimuli_target_squarediamonds.svg	stimuli_distractor_trianglediamonds.svg	5	yes	53	1	338	0	0			0	0			1				0	
6.6.0	mac	2023-05-10	16:28:56	16:32:48	227829	1	4	3	practice_slash	9	advance_on_keypress_SLASH	6	stimuli_target_squarediamonds.svg	stimuli_distractor_trianglediamonds.svg	5	yes	57	0	442	0	0			0	0			1				0	
6.6.0	mac	2023-05-10	16:28:56	16:32:50	230124	1	4	3	practice_slash	9	practice_slash	7	stimuli_target_rectanglediamonds.svg	stimuli_distractor_trianglediamonds.svg	4	yes	53	1	232	0	0			0	0			1				0	
6.6.0	mac	2023-05-10	16:28:56	16:32:50	230124	1	4	3	practice_slash	9	advance_on_keypress_SLASH	8	stimuli_target_rectanglediamonds.svg	stimuli_distractor_trianglediamonds.svg	4	yes	57	0	540	0	0			0	0			1				0	
6.6.0	mac	2023-05-10	16:28:56	16:32:52	232413	1	4	3	practice_slash	9	practice_slash	9	stimuli_distractor_diamondtriangles.svg	stimuli_distractor_trianglediamonds.svg	14	no	53	0	117	0	0			0	0			1				0	
6.6.0	mac	2023-05-10	16:28:56	16:32:52	232413	1	4	3	practice_slash	9	advance_on_keypress_SLASH	10	stimuli_distractor_diamondtriangles.svg	stimuli_distractor_trianglediamonds.svg	14	no	57	0	223	0	0			0	0			1				0	
6.6.0	mac	2023-05-10	16:28:56	16:32:54	234533	1	4	3	practice_slash	9	practice_slash	11	stimuli_distractor_trianglediamonds.svg	stimuli_target_diamondrectangles.svg	12	yes	53	1	269	0	0			0	0			1				0	
6.6.0	mac	2023-05-10	16:28:56	16:32:54	234533	1	4	3	practice_slash	9	advance_on_keypress_SLASH	12	stimuli_distractor_trianglediamonds.svg	stimuli_target_diamondrectangles.svg	12	yes	57	0	305	0	0			0	0			1				0	
6.6.0	mac	2023-05-10	16:28:56	16:32:57	236717	1	4	3	practice_slash	9	practice_slash	13	stimuli_distractor_diamondtriangles.svg	stimuli_distractor_diamondtriangles.svg	13	no	53	0	252	0	0			0	0			1				0	
6.6.0	mac	2023-05-10	16:28:56	16:32:57	236717	1	4	3	practice_slash	9	advance_on_keypress_SLASH	14	stimuli_distractor_diamondtriangles.svg	stimuli_distractor_diamondtriangles.svg	13	no	57	0	311	0	0			0	0			1				0	
6.6.0	mac	2023-05-10	16:28:56	16:32:59	238917	1	4	3	practice_slash	9	practice_slash	15	stimuli_distractor_trianglediamonds.svg	stimuli_target_squarediamonds.svg	11	yes	53	1	267	0	0			0	0			1				0	
6.6.0	mac	2023-05-10	16:28:56	16:32:59	238917	1	4	3	practice_slash	9	advance_on_keypress_SLASH	16	stimuli_distractor_trianglediamonds.svg	stimuli_target_squarediamonds.svg	11	yes	57	0	493	0	0			0	0			1				0	
6.6.0	mac	2023-05-10	16:28:56	16:33:01	241253	1	4	3	practice_slash	9	practice_slash	17	stimuli_target_diamondsquares.svg	stimuli_distractor_diamondtriangles.svg	3	yes	53	1	218	0	0			0	0			1				0	
6.6.0	mac	2023-05-10	16:28:56	16:33:01	241253	1	4	3	practice_slash	9	advance_on_keypress_SLASH	18	stimuli_target_diamondsquares.svg	stimuli_distractor_diamondtriangles.svg	3	yes	57	0	190	0	0			0	0			1				0	
6.6.0	mac	2023-05-10	16:28:56	16:33:03	243253	1	4	3	practice_slash	9	practice_slash	19	stimuli_distractor_diamondtriangles.svg	stimuli_target_trianglerectangles.svg	9	yes	53	1	182	0	0			0	0			1				0	
6.6.0	mac	2023-05-10	16:28:56	16:33:03	243253	1	4	3	practice_slash	9	advance_on_keypress_SLASH	20	stimuli_distractor_diamondtriangles.svg	stimuli_target_trianglerectangles.svg	9	yes	57	0	276	0	0			0	0			1				0	
6.6.0	mac	2023-05-10	16:28:56	16:33:05	245413	1	4	3	practice_slash	9	practice_slash	21	stimuli_distractor_trianglediamonds.svg	stimuli_target_rectanglediamonds.svg	10	yes	53	1	241	0	0			0	0			1				0	
6.6.0	mac	2023-05-10	16:28:56	16:33:05	245413	1	4	3	practice_slash	9	advance_on_keypress_SLASH	22	stimuli_distractor_trianglediamonds.svg	stimuli_target_rectanglediamonds.svg	10	yes	57	0	149	0	0			0	0			1				0	
6.6.0	mac	2023-05-10	16:28:56	16:33:07	247453	1	4	3	practice_slash	9	practice_slash	23	stimuli_distractor_trianglediamonds.svg	stimuli_distractor_diamondtriangles.svg	16	no	53	0	262	0	0			0	0			1				0	
6.6.0	mac	2023-05-10	16:28:56	16:33:07	247453	1	4	3	practice_slash	9	advance_on_keypress_SLASH	24	stimuli_distractor_trianglediamonds.svg	stimuli_distractor_diamondtriangles.svg	16	no	57	0	514	0	0			0	0			1				0	
6.6.0	mac	2023-05-10	16:28:56	16:33:10	250205	1	4	3	practice_slash	9	practice_slash	25	stimuli_distractor_diamondtriangles.svg	stimuli_target_rectangletriangles.svg	7	yes	53	1	612	0	0			0	0			1				0	
6.6.0	mac	2023-05-10	16:28:56	16:33:10	250205	1	4	3	practice_slash	9	advance_on_keypress_SLASH	26	stimuli_distractor_diamondtriangles.svg	stimuli_target_rectangletriangles.svg	7	yes	57	0	914	0	0			0	0			1				0	
6.6.0	mac	2023-05-10	16:28:56	16:33:13	252917	1	4	3	practice_slash	9	practice_slash	27	stimuli_target_diamondsquares.svg	stimuli_distractor_trianglediamonds.svg	6	yes	53	1	171	0	0			0	0			1				0	
6.6.0	mac	2023-05-10	16:28:56	16:33:13	252917	1	4	3	practice_slash	9	advance_on_keypress_SLASH	28	stimuli_target_diamondsquares.svg	stimuli_distractor_trianglediamonds.svg	6	yes	57	0	114	0	0			0	0			1				0	
6.6.0	mac	2023-05-10	16:28:56	16:33:15	255229	1	4	3	practice_slash	9	practice_slash	29	stimuli_distractor_trianglediamonds.svg	stimuli_distractor_trianglediamonds.svg	15	no	53	0	565	0	0			0	0			1				0	
6.6.0	mac	2023-05-10	16:28:56	16:33:15	255229	1	4	3	practice_slash	9	advance_on_keypress_SLASH	30	stimuli_distractor_trianglediamonds.svg	stimuli_distractor_trianglediamonds.svg	15	no	57	0	292	0	0			0	0			1				0	
6.6.0	mac	2023-05-10	16:28:56	16:33:17	257397	1	4	3	practice_slash	9	practice_slash	31	stimuli_target_rectanglediamonds.svg	stimuli_distractor_diamondtriangles.svg	1	yes	53	1	248	0	0			0	0			1				0	
6.6.0	mac	2023-05-10	16:28:56	16:33:17	257397	1	4	3	practice_slash	9	advance_on_keypress_SLASH	32	stimuli_target_rectanglediamonds.svg	stimuli_distractor_diamondtriangles.svg	1	yes	57	0	435	0	0			0	0			1				0	
6.6.0	mac	2023-05-10	16:28:56	16:33:20	260020	1	4	3	main_slash	11	main_slash	1	stimuli_target_diamondrectangles.svg	stimuli_distractor_diamondtriangles.svg	23	yes	53	1	369	0	0			0	0			1				0	
6.6.0	mac	2023-05-10	16:28:56	16:33:20	260020	1	4	3	main_slash	11	advance_on_keypress_SLASH	2	stimuli_target_diamondrectangles.svg	stimuli_distractor_diamondtriangles.svg	23	yes	57	0	552	0	0			0	0			1				0	
6.6.0	mac	2023-05-10	16:28:56	16:33:22	261700	1	4	3	main_slash	11	main_slash	3	stimuli_target_rectangletriangles.svg	stimuli_distractor_trianglediamonds.svg	1	yes	53	1	481	0	0			0	0			1				0	
6.6.0	mac	2023-05-10	16:28:56	16:33:22	261700	1	4	3	main_slash	11	advance_on_keypress_SLASH	4	stimuli_target_rectangletriangles.svg	stimuli_distractor_trianglediamonds.svg	1	yes	57	0	204	0	0			0	0			1				0	
6.6.0	mac	2023-05-10	16:28:56	16:33:23	262804	1	4	3	main_slash	11	main_slash	5	stimuli_target_diamondrectangles.svg	stimuli_distractor_trianglediamonds.svg	19	yes	53	1	267	0	0			0	0			1				0	
6.6.0	mac	2023-05-10	16:28:56	16:33:23	262804	1	4	3	main_slash	11	advance_on_keypress_SLASH	6	stimuli_target_diamondrectangles.svg	stimuli_distractor_trianglediamonds.svg	19	yes	57	0	367	0	0			0	0			1				0	
6.6.0	mac	2023-05-10	16:28:56	16:33:24	264084	1	4	3	main_slash	11	main_slash	7	stimuli_target_squaretriangles.svg	stimuli_distractor_diamondtriangles.svg	7	yes	53	1	279	0	0			0	0			1				0	
6.6.0	mac	2023-05-10	16:28:56	16:33:24	264084	1	4	3	main_slash	11	advance_on_keypress_SLASH	8	stimuli_target_squaretriangles.svg	stimuli_distractor_diamondtriangles.svg	7	yes	57	0	163	0	0			0	0			1				0	
6.6.0	mac	2023-05-10	16:28:56	16:33:25	265108	1	4	3	main_slash	11	main_slash	9	stimuli_distractor_trianglediamonds.svg	stimuli_distractor_diamondtriangles.svg	36	no	53	0	236	0	0			0	0			1				0	
6.6.0	mac	2023-05-10	16:28:56	16:33:25	265108	1	4	3	main_slash	11	advance_on_keypress_SLASH	10	stimuli_distractor_trianglediamonds.svg	stimuli_distractor_diamondtriangles.svg	36	no	57	0	337	0	0			0	0			1				0	
6.6.0	mac	2023-05-10	16:28:56	16:33:26	266308	1	4	3	main_slash	11	main_slash	11	stimuli_target_trianglesquares.svg	stimuli_distractor_trianglediamonds.svg	18	yes	53	1	235	0	0			0	0			1				0	
6.6.0	mac	2023-05-10	16:28:56	16:33:26	266308	1	4	3	main_slash	11	advance_on_keypress_SLASH	12	stimuli_target_trianglesquares.svg	stimuli_distractor_trianglediamonds.svg	18	yes	57	0	224	0	0			0	0			1				0	
6.6.0	mac	2023-05-10	16:28:56	16:33:27	267444	1	4	3	main_slash	11	main_slash	13	stimuli_distractor_trianglediamonds.svg	stimuli_distractor_trianglediamonds.svg	33	no	53	0	286	0	0			0	0			1				0	
6.6.0	mac	2023-05-10	16:28:56	16:33:27	267444	1	4	3	main_slash	11	advance_on_keypress_SLASH	14	stimuli_distractor_trianglediamonds.svg	stimuli_distractor_trianglediamonds.svg	33	no	57	0	266	0	0			0	0			1				0	
6.6.0	mac	2023-05-10	16:28:56	16:33:28	268612	1	4	3	main_slash	11	main_slash	15	stimuli_distractor_trianglediamonds.svg	stimuli_target_rectangletriangles.svg	9	yes	53	1	271	0	0			0	0			1				0	
6.6.0	mac	2023-05-10	16:28:56	16:33:28	268612	1	4	3	main_slash	11	advance_on_keypress_SLASH	16	stimuli_distractor_trianglediamonds.svg	stimuli_target_rectangletriangles.svg	9	yes	57	0	330	0	0			0	0			1				0	
6.6.0	mac	2023-05-10	16:28:56	16:33:30	269988	1	4	3	main_slash	11	main_slash	17	stimuli_distractor_diamondtriangles.svg	stimuli_distractor_diamondtriangles.svg	40	no	53	0	412	0	0			0	0			1				0	
6.6.0	mac	2023-05-10	16:28:56	16:33:30	269988	1	4	3	main_slash	11	advance_on_keypress_SLASH	18	stimuli_distractor_diamondtriangles.svg	stimuli_distractor_diamondtriangles.svg	40	no	57	0	130	0	0			0	0			1				0	
6.6.0	mac	2023-05-10	16:28:56	16:33:31	271004	1	4	3	main_slash	11	main_slash	19	stimuli_target_rectangletriangles.svg	stimuli_distractor_diamondtriangles.svg	5	yes	53	1	260	0	0			0	0			1				0	
6.6.0	mac	2023-05-10	16:28:56	16:33:31	271004	1	4	3	main_slash	11	advance_on_keypress_SLASH	20	stimuli_target_rectangletriangles.svg	stimuli_distractor_diamondtriangles.svg	5	yes	57	0	146	0	0			0	0			1				0	
6.6.0	mac	2023-05-10	16:28:56	16:33:32	272164	1	4	3	main_slash	11	main_slash	21	stimuli_distractor_trianglediamonds.svg	stimuli_distractor_trianglediamonds.svg	34	no	53	0	403	0	0			0	0			1				0	
6.6.0	mac	2023-05-10	16:28:56	16:33:32	272164	1	4	3	main_slash	11	advance_on_keypress_SLASH	22	stimuli_distractor_trianglediamonds.svg	stimuli_distractor_trianglediamonds.svg	34	no	57	0	145	0	0			0	0			1				0	
6.6.0	mac	2023-05-10	16:28:56	16:33:33	273300	1	4	3	main_slash	11	main_slash	23	stimuli_distractor_trianglediamonds.svg	stimuli_target_squaretriangles.svg	11	yes	53	1	372	0	0			0	0			1				0	
6.6.0	mac	2023-05-10	16:28:56	16:33:33	273300	1	4	3	main_slash	11	advance_on_keypress_SLASH	24	stimuli_distractor_trianglediamonds.svg	stimuli_target_squaretriangles.svg	11	yes	57	0	59	0	0			0	0			1				0	
6.6.0	mac	2023-05-10	16:28:56	16:33:34	274308	1	4	3	main_slash	11	main_slash	25	stimuli_target_rectanglediamonds.svg	stimuli_distractor_trianglediamonds.svg	2	yes	53	1	312	0	0			0	0			1				0	
6.6.0	mac	2023-05-10	16:28:56	16:33:34	274308	1	4	3	main_slash	11	advance_on_keypress_SLASH	26	stimuli_target_rectanglediamonds.svg	stimuli_distractor_trianglediamonds.svg	2	yes	57	0	50	0	0			0	0			1				0	
6.6.0	mac	2023-05-10	16:28:56	16:33:36	275668	1	4	3	main_slash	11	main_slash	27	stimuli_distractor_diamondtriangles.svg	stimuli_distractor_trianglediamonds.svg	37	no	53	0	687	0	0			0	0			1				0	
6.6.0	mac	2023-05-10	16:28:56	16:33:36	275668	1	4	3	main_slash	11	advance_on_keypress_SLASH	28	stimuli_distractor_diamondtriangles.svg	stimuli_distractor_trianglediamonds.svg	37	no	57	0	66	0	0			0	0			1				0	
6.6.0	mac	2023-05-10	16:28:56	16:33:36	276572	1	4	3	main_slash	11	main_slash	29	stimuli_distractor_diamondtriangles.svg	stimuli_distractor_trianglediamonds.svg	38	no	53	0	207	0	0			0	0			1				0	
6.6.0	mac	2023-05-10	16:28:56	16:33:36	276572	1	4	3	main_slash	11	advance_on_keypress_SLASH	30	stimuli_distractor_diamondtriangles.svg	stimuli_distractor_trianglediamonds.svg	38	no	57	0	118	0	0			0	0			1				0	
6.6.0	mac	2023-05-10	16:28:56	16:33:37	277540	1	4	3	main_slash	11	main_slash	31	stimuli_distractor_diamondtriangles.svg	stimuli_target_squarediamonds.svg	16	yes	53	1	224	0	0			0	0			1				0	
6.6.0	mac	2023-05-10	16:28:56	16:33:37	277540	1	4	3	main_slash	11	advance_on_keypress_SLASH	32	stimuli_distractor_diamondtriangles.svg	stimuli_target_squarediamonds.svg	16	yes	57	0	71	0	0			0	0			1				0	
6.6.0	mac	2023-05-10	16:28:56	16:33:38	278500	1	4	3	main_slash	11	main_slash	33	stimuli_distractor_trianglediamonds.svg	stimuli_distractor_diamondtriangles.svg	35	no	53	0	267	0	0			0	0			1				0	
6.6.0	mac	2023-05-10	16:28:56	16:33:38	278500	1	4	3	main_slash	11	advance_on_keypress_SLASH	34	stimuli_distractor_trianglediamonds.svg	stimuli_distractor_diamondtriangles.svg	35	no	57	0	39	0	0			0	0			1				0	
6.6.0	mac	2023-05-10	16:28:56	16:33:39	279644	1	4	3	main_slash	11	main_slash	35	stimuli_target_trianglerectangles.svg	stimuli_distractor_diamondtriangles.svg	21	yes	53	1	477	0	0			0	0			1				0	
6.6.0	mac	2023-05-10	16:28:56	16:33:39	279644	1	4	3	main_slash	11	advance_on_keypress_SLASH	36	stimuli_target_trianglerectangles.svg	stimuli_distractor_diamondtriangles.svg	21	yes	57	0	169	0	0			0	0			1				0	
6.6.0	mac	2023-05-10	16:28:56	16:33:41	280892	1	4	3	main_slash	11	main_slash	37	stimuli_distractor_trianglediamonds.svg	stimuli_target_squarediamonds.svg	12	yes	53	1	457	0	0			0	0			1				0	
6.6.0	mac	2023-05-10	16:28:56	16:33:41	280892	1	4	3	main_slash	11	advance_on_keypress_SLASH	38	stimuli_distractor_trianglediamonds.svg	stimuli_target_squarediamonds.svg	12	yes	57	0	141	0	0			0	0			1				0	
6.6.0	mac	2023-05-10	16:28:56	16:33:42	282340	1	4	3	main_slash	11	main_slash	39	stimuli_distractor_diamondtriangles.svg	stimuli_target_diamondrectangles.svg	31	yes	53	1	688	0	0			0	0			1				0	
6.6.0	mac	2023-05-10	16:28:56	16:33:42	282340	1	4	3	main_slash	11	advance_on_keypress_SLASH	40	stimuli_distractor_diamondtriangles.svg	stimuli_target_diamondrectangles.svg	31	yes	57	0	106	0	0			0	0			1				0	
6.6.0	mac	2023-05-10	16:28:56	16:33:43	283428	1	4	3	main_slash	11	main_slash	41	stimuli_target_trianglesquares.svg	stimuli_distractor_diamondtriangles.svg	22	yes	53	1	357	0	0			0	0			1				0	
6.6.0	mac	2023-05-10	16:28:56	16:33:43	283428	1	4	3	main_slash	11	advance_on_keypress_SLASH	42	stimuli_target_trianglesquares.svg	stimuli_distractor_diamondtriangles.svg	22	yes	57	0	142	0	0			0	0			1				0	
6.6.0	mac	2023-05-10	16:28:56	16:33:44	284460	1	4	3	main_slash	11	main_slash	43	stimuli_target_squarediamonds.svg	stimuli_distractor_diamondtriangles.svg	8	yes	53	1	273	0	0			0	0			1				0	
6.6.0	mac	2023-05-10	16:28:56	16:33:44	284460	1	4	3	main_slash	11	advance_on_keypress_SLASH	44	stimuli_target_squarediamonds.svg	stimuli_distractor_diamondtriangles.svg	8	yes	57	0	109	0	0			0	0			1				0	
6.6.0	mac	2023-05-10	16:28:56	16:33:45	285516	1	4	3	main_slash	11	main_slash	45	stimuli_distractor_diamondtriangles.svg	stimuli_target_squaretriangles.svg	15	yes	53	1	328	0	0			0	0			1				0	
6.6.0	mac	2023-05-10	16:28:56	16:33:45	285516	1	4	3	main_slash	11	advance_on_keypress_SLASH	46	stimuli_distractor_diamondtriangles.svg	stimuli_target_squaretriangles.svg	15	yes	57	0	106	0	0			0	0			1				0	
6.6.0	mac	2023-05-10	16:28:56	16:33:46	286572	1	4	3	main_slash	11	main_slash	47	stimuli_distractor_trianglediamonds.svg	stimuli_target_diamondsquares.svg	28	yes	53	1	333	0	0			0	0			1				0	
6.6.0	mac	2023-05-10	16:28:56	16:33:46	286572	1	4	3	main_slash	11	advance_on_keypress_SLASH	48	stimuli_distractor_trianglediamonds.svg	stimuli_target_diamondsquares.svg	28	yes	57	0	69	0	0			0	0			1				0	
6.6.0	mac	2023-05-10	16:28:56	16:33:47	287540	1	4	3	main_slash	11	main_slash	49	stimuli_target_squarediamonds.svg	stimuli_distractor_trianglediamonds.svg	4	yes	53	1	266	0	0			0	0			1				0	
6.6.0	mac	2023-05-10	16:28:56	16:33:47	287540	1	4	3	main_slash	11	advance_on_keypress_SLASH	50	stimuli_target_squarediamonds.svg	stimuli_distractor_trianglediamonds.svg	4	yes	57	0	86	0	0			0	0			1				0	
6.6.0	mac	2023-05-10	16:28:56	16:33:48	288476	1	4	3	main_slash	11	main_slash	51	stimuli_distractor_trianglediamonds.svg	stimuli_target_rectanglediamonds.svg	10	yes	53	1	218	0	0			0	0			1				0	
6.6.0	mac	2023-05-10	16:28:56	16:33:48	288476	1	4	3	main_slash	11	advance_on_keypress_SLASH	52	stimuli_distractor_trianglediamonds.svg	stimuli_target_rectanglediamonds.svg	10	yes	57	0	88	0	0			0	0			1				0	
6.6.0	mac	2023-05-10	16:28:56	16:33:49	289444	1	4	3	main_slash	11	main_slash	53	stimuli_target_squaretriangles.svg	stimuli_distractor_trianglediamonds.svg	3	yes	53	1	252	0	0			0	0			1				0	
6.6.0	mac	2023-05-10	16:28:56	16:33:49	289444	1	4	3	main_slash	11	advance_on_keypress_SLASH	54	stimuli_target_squaretriangles.svg	stimuli_distractor_trianglediamonds.svg	3	yes	57	0	104	0	0			0	0			1				0	
6.6.0	mac	2023-05-10	16:28:56	16:33:50	290452	1	4	3	main_slash	11	main_slash	55	stimuli_distractor_diamondtriangles.svg	stimuli_target_diamondsquares.svg	32	yes	53	1	276	0	0			0	0			1				0	
6.6.0	mac	2023-05-10	16:28:56	16:33:50	290452	1	4	3	main_slash	11	advance_on_keypress_SLASH	56	stimuli_distractor_diamondtriangles.svg	stimuli_target_diamondsquares.svg	32	yes	57	0	96	0	0			0	0			1				0	
6.6.0	mac	2023-05-10	16:28:56	16:33:51	291340	1	4	3	main_slash	11	main_slash	57	stimuli_distractor_trianglediamonds.svg	stimuli_target_trianglesquares.svg	26	yes	53	1	163	0	0			0	0			1				0	
6.6.0	mac	2023-05-10	16:28:56	16:33:51	291340	1	4	3	main_slash	11	advance_on_keypress_SLASH	58	stimuli_distractor_trianglediamonds.svg	stimuli_target_trianglesquares.svg	26	yes	57	0	83	0	0			0	0			1				0	
6.6.0	mac	2023-05-10	16:28:56	16:33:52	292236	1	4	3	main_slash	11	main_slash	59	stimuli_distractor_trianglediamonds.svg	stimuli_target_diamondrectangles.svg	27	yes	53	1	175	0	0			0	0			1				0	
6.6.0	mac	2023-05-10	16:28:56	16:33:52	292236	1	4	3	main_slash	11	advance_on_keypress_SLASH	60	stimuli_distractor_trianglediamonds.svg	stimuli_target_diamondrectangles.svg	27	yes	57	0	71	0	0			0	0			1				0	
6.6.0	mac	2023-05-10	16:28:56	16:33:53	293132	1	4	3	main_slash	11	main_slash	61	stimuli_distractor_diamondtriangles.svg	stimuli_distractor_diamondtriangles.svg	39	no	53	0	203	0	0			0	0			1				0	
6.6.0	mac	2023-05-10	16:28:56	16:33:53	293132	1	4	3	main_slash	11	advance_on_keypress_SLASH	62	stimuli_distractor_diamondtriangles.svg	stimuli_distractor_diamondtriangles.svg	39	no	57	0	162	0	0			0	0			1				0	
6.6.0	mac	2023-05-10	16:28:56	16:33:54	294020	1	4	3	main_slash	11	main_slash	63	stimuli_distractor_diamondtriangles.svg	stimuli_target_trianglerectangles.svg	29	yes	53	1	108	0	0			0	0			1				0	
6.6.0	mac	2023-05-10	16:28:56	16:33:54	294020	1	4	3	main_slash	11	advance_on_keypress_SLASH	64	stimuli_distractor_diamondtriangles.svg	stimuli_target_trianglerectangles.svg	29	yes	57	0	158	0	0			0	0			1				0	
6.6.0	mac	2023-05-10	16:28:56	16:33:55	294972	1	4	3	main_slash	11	main_slash	65	stimuli_target_rectanglediamonds.svg	stimuli_distractor_diamondtriangles.svg	6	yes	53	1	175	0	0			0	0			1				0	
6.6.0	mac	2023-05-10	16:28:56	16:33:55	294972	1	4	3	main_slash	11	advance_on_keypress_SLASH	66	stimuli_target_rectanglediamonds.svg	stimuli_distractor_diamondtriangles.svg	6	yes	57	0	255	0	0			0	0			1				0	
6.6.0	mac	2023-05-10	16:28:56	16:33:56	295964	1	4	3	main_slash	11	main_slash	67	stimuli_target_diamondsquares.svg	stimuli_distractor_diamondtriangles.svg	24	yes	53	1	100	0	0			0	0			1				0	
6.6.0	mac	2023-05-10	16:28:56	16:33:56	295964	1	4	3	main_slash	11	advance_on_keypress_SLASH	68	stimuli_target_diamondsquares.svg	stimuli_distractor_diamondtriangles.svg	24	yes	57	0	111	0	0			0	0			1				0	
6.6.0	mac	2023-05-10	16:28:56	16:33:57	296868	1	4	3	main_slash	11	main_slash	69	stimuli_target_diamondsquares.svg	stimuli_distractor_trianglediamonds.svg	20	yes	53	1	170	0	0			0	0			1				0	
6.6.0	mac	2023-05-10	16:28:56	16:33:57	296868	1	4	3	main_slash	11	advance_on_keypress_SLASH	70	stimuli_target_diamondsquares.svg	stimuli_distractor_trianglediamonds.svg	20	yes	57	0	114	0	0			0	0			1				0	
6.6.0	mac	2023-05-10	16:28:56	16:33:58	297788	1	4	3	main_slash	11	main_slash	71	stimuli_distractor_diamondtriangles.svg	stimuli_target_rectangletriangles.svg	13	yes	53	1	172	0	0			0	0			1				0	
6.6.0	mac	2023-05-10	16:28:56	16:33:58	297788	1	4	3	main_slash	11	advance_on_keypress_SLASH	72	stimuli_distractor_diamondtriangles.svg	stimuli_target_rectangletriangles.svg	13	yes	57	0	99	0	0			0	0			1				0	
6.6.0	mac	2023-05-10	16:28:56	16:33:59	298868	1	4	3	main_slash	11	main_slash	73	stimuli_distractor_diamondtriangles.svg	stimuli_target_rectanglediamonds.svg	14	yes	53	1	352	0	0			0	0			1				0	
6.6.0	mac	2023-05-10	16:28:56	16:33:59	298868	1	4	3	main_slash	11	advance_on_keypress_SLASH	74	stimuli_distractor_diamondtriangles.svg	stimuli_target_rectanglediamonds.svg	14	yes	57	0	88	0	0			0	0			1				0	
6.6.0	mac	2023-05-10	16:28:56	16:34:00	299900	1	4	3	main_slash	11	main_slash	75	stimuli_distractor_diamondtriangles.svg	stimuli_target_trianglesquares.svg	30	yes	53	1	316	0	0			0	0			1				0	
6.6.0	mac	2023-05-10	16:28:56	16:34:00	299900	1	4	3	main_slash	11	advance_on_keypress_SLASH	76	stimuli_distractor_diamondtriangles.svg	stimuli_target_trianglesquares.svg	30	yes	57	0	150	0	0			0	0			1				0	
6.6.0	mac	2023-05-10	16:28:56	16:34:01	300892	1	4	3	main_slash	11	main_slash	77	stimuli_distractor_trianglediamonds.svg	stimuli_target_trianglerectangles.svg	25	yes	53	1	207	0	0			0	0			1				0	
6.6.0	mac	2023-05-10	16:28:56	16:34:01	300892	1	4	3	main_slash	11	advance_on_keypress_SLASH	78	stimuli_distractor_trianglediamonds.svg	stimuli_target_trianglerectangles.svg	25	yes	57	0	118	0	0			0	0			1				0	
6.6.0	mac	2023-05-10	16:28:56	16:34:02	301884	1	4	3	main_slash	11	main_slash	79	stimuli_target_trianglerectangles.svg	stimuli_distractor_trianglediamonds.svg	17	yes	53	1	248	0	0			0	0			1				0	
6.6.0	mac	2023-05-10	16:28:56	16:34:02	301884	1	4	3	main_slash	11	advance_on_keypress_SLASH	80	stimuli_target_trianglerectangles.svg	stimuli_distractor_trianglediamonds.svg	17	yes	57	0	84	0	0			0	0			1				0	
6.6.0	mac	2023-05-10	16:28:56	16:34:03	302740	1	4	3	main_slash	11	main_slash	81	stimuli_distractor_diamondtriangles.svg	stimuli_target_rectangletriangles.svg	13	yes	53	1	137	0	0			0	0			1				0	
6.6.0	mac	2023-05-10	16:28:56	16:34:03	302740	1	4	3	main_slash	11	advance_on_keypress_SLASH	82	stimuli_distractor_diamondtriangles.svg	stimuli_target_rectangletriangles.svg	13	yes	57	0	145	0	0			0	0			1				0	
6.6.0	mac	2023-05-10	16:28:56	16:34:04	303788	1	4	3	main_slash	11	main_slash	83	stimuli_distractor_diamondtriangles.svg	stimuli_target_trianglerectangles.svg	29	yes	53	1	268	0	0			0	0			1				0	
6.6.0	mac	2023-05-10	16:28:56	16:34:04	303788	1	4	3	main_slash	11	advance_on_keypress_SLASH	84	stimuli_distractor_diamondtriangles.svg	stimuli_target_trianglerectangles.svg	29	yes	57	0	351	0	0			0	0			1				0	
6.6.0	mac	2023-05-10	16:28:56	16:34:05	305076	1	4	3	main_slash	11	main_slash	85	stimuli_distractor_trianglediamonds.svg	stimuli_distractor_diamondtriangles.svg	36	no	53	0	304	0	0			0	0			1				0	
6.6.0	mac	2023-05-10	16:28:56	16:34:05	305076	1	4	3	main_slash	11	advance_on_keypress_SLASH	86	stimuli_distractor_trianglediamonds.svg	stimuli_distractor_diamondtriangles.svg	36	no	57	0	163	0	0			0	0			1				0	
6.6.0	mac	2023-05-10	16:28:56	16:34:06	306356	1	4	3	main_slash	11	main_slash	87	stimuli_distractor_diamondtriangles.svg	stimuli_distractor_trianglediamonds.svg	37	no	53	0	483	0	0			0	0			1				0	
6.6.0	mac	2023-05-10	16:28:56	16:34:06	306356	1	4	3	main_slash	11	advance_on_keypress_SLASH	88	stimuli_distractor_diamondtriangles.svg	stimuli_distractor_trianglediamonds.svg	37	no	57	0	94	0	0			0	0			1				0	
6.6.0	mac	2023-05-10	16:28:56	16:34:08	307828	1	4	3	main_slash	11	main_slash	89	stimuli_distractor_diamondtriangles.svg	stimuli_target_squaretriangles.svg	15	yes	53	1	754	0	0			0	0			1				0	
6.6.0	mac	2023-05-10	16:28:56	16:34:08	307828	1	4	3	main_slash	11	advance_on_keypress_SLASH	90	stimuli_distractor_diamondtriangles.svg	stimuli_target_squaretriangles.svg	15	yes	57	0	59	0	0			0	0			1				0	
6.6.0	mac	2023-05-10	16:28:56	16:34:09	308748	1	4	3	main_slash	11	main_slash	91	stimuli_distractor_diamondtriangles.svg	stimuli_target_squarediamonds.svg	16	yes	53	1	240	0	0			0	0			1				0	
6.6.0	mac	2023-05-10	16:28:56	16:34:09	308748	1	4	3	main_slash	11	advance_on_keypress_SLASH	92	stimuli_distractor_diamondtriangles.svg	stimuli_target_squarediamonds.svg	16	yes	57	0	61	0	0			0	0			1				0	
6.6.0	mac	2023-05-10	16:28:56	16:34:10	309716	1	4	3	main_slash	11	main_slash	93	stimuli_target_diamondsquares.svg	stimuli_distractor_trianglediamonds.svg	20	yes	53	1	275	0	0			0	0			1				0	
6.6.0	mac	2023-05-10	16:28:56	16:34:10	309716	1	4	3	main_slash	11	advance_on_keypress_SLASH	94	stimuli_target_diamondsquares.svg	stimuli_distractor_trianglediamonds.svg	20	yes	57	0	46	0	0			0	0			1				0	
6.6.0	mac	2023-05-10	16:28:56	16:34:10	310596	1	4	3	main_slash	11	main_slash	95	stimuli_target_rectangletriangles.svg	stimuli_distractor_trianglediamonds.svg	1	yes	53	1	203	0	0			0	0			1				0	
6.6.0	mac	2023-05-10	16:28:56	16:34:10	310596	1	4	3	main_slash	11	advance_on_keypress_SLASH	96	stimuli_target_rectangletriangles.svg	stimuli_distractor_trianglediamonds.svg	1	yes	57	0	81	0	0			0	0			1				0	
6.6.0	mac	2023-05-10	16:28:56	16:34:11	311564	1	4	3	main_slash	11	main_slash	97	stimuli_target_rectangletriangles.svg	stimuli_distractor_diamondtriangles.svg	5	yes	53	1	254	0	0			0	0			1				0	
6.6.0	mac	2023-05-10	16:28:56	16:34:11	311564	1	4	3	main_slash	11	advance_on_keypress_SLASH	98	stimuli_target_rectangletriangles.svg	stimuli_distractor_diamondtriangles.svg	5	yes	57	0	75	0	0			0	0			1				0	
6.6.0	mac	2023-05-10	16:28:56	16:34:12	312444	1	4	3	main_slash	11	main_slash	99	stimuli_target_squaretriangles.svg	stimuli_distractor_diamondtriangles.svg	7	yes	53	1	182	0	0			0	0			1				0	
6.6.0	mac	2023-05-10	16:28:56	16:34:12	312444	1	4	3	main_slash	11	advance_on_keypress_SLASH	100	stimuli_target_squaretriangles.svg	stimuli_distractor_diamondtriangles.svg	7	yes	57	0	79	0	0			0	0			1				0	
6.6.0	mac	2023-05-10	16:28:56	16:34:13	313500	1	4	3	main_slash	11	main_slash	101	stimuli_distractor_trianglediamonds.svg	stimuli_target_diamondsquares.svg	28	yes	53	1	354	0	0			0	0			1				0	
6.6.0	mac	2023-05-10	16:28:56	16:34:13	313500	1	4	3	main_slash	11	advance_on_keypress_SLASH	102	stimuli_distractor_trianglediamonds.svg	stimuli_target_diamondsquares.svg	28	yes	57	0	623	0	0			0	0			1				0	
6.6.0	mac	2023-05-10	16:28:56	16:34:15	314940	1	4	3	main_slash	11	main_slash	103	stimuli_target_rectanglediamonds.svg	stimuli_distractor_diamondtriangles.svg	6	yes	53	1	93	0	0			0	0			1				0	
6.6.0	mac	2023-05-10	16:28:56	16:34:15	314940	1	4	3	main_slash	11	advance_on_keypress_SLASH	104	stimuli_target_rectanglediamonds.svg	stimuli_distractor_diamondtriangles.svg	6	yes	57	0	106	0	0			0	0			1				0	
6.6.0	mac	2023-05-10	16:28:56	16:34:16	315964	1	4	3	main_slash	11	main_slash	105	stimuli_target_squarediamonds.svg	stimuli_distractor_diamondtriangles.svg	8	yes	53	1	300	0	0			0	0			1				0	
6.6.0	mac	2023-05-10	16:28:56	16:34:16	315964	1	4	3	main_slash	11	advance_on_keypress_SLASH	106	stimuli_target_squarediamonds.svg	stimuli_distractor_diamondtriangles.svg	8	yes	57	0	86	0	0			0	0			1				0	
6.6.0	mac	2023-05-10	16:28:56	16:34:17	317156	1	4	3	main_slash	11	main_slash	107	stimuli_distractor_trianglediamonds.svg	stimuli_distractor_trianglediamonds.svg	33	no	53	0	474	0	0			0	0			1				0	
6.6.0	mac	2023-05-10	16:28:56	16:34:17	317156	1	4	3	main_slash	11	advance_on_keypress_SLASH	108	stimuli_distractor_trianglediamonds.svg	stimuli_distractor_trianglediamonds.svg	33	no	57	0	22	0	0			0	0			1				0	
6.6.0	mac	2023-05-10	16:28:56	16:34:18	318084	1	4	3	main_slash	11	main_slash	109	stimuli_distractor_diamondtriangles.svg	stimuli_distractor_diamondtriangles.svg	39	no	53	0	285	0	0			0	0			1				0	
6.6.0	mac	2023-05-10	16:28:56	16:34:18	318084	1	4	3	main_slash	11	advance_on_keypress_SLASH	110	stimuli_distractor_diamondtriangles.svg	stimuli_distractor_diamondtriangles.svg	39	no	57	0	96	0	0			0	0			1				0	
6.6.0	mac	2023-05-10	16:28:56	16:34:19	319124	1	4	3	main_slash	11	main_slash	111	stimuli_distractor_diamondtriangles.svg	stimuli_target_rectanglediamonds.svg	14	yes	53	1	307	0	0			0	0			1				0	
6.6.0	mac	2023-05-10	16:28:56	16:34:19	319124	1	4	3	main_slash	11	advance_on_keypress_SLASH	112	stimuli_distractor_diamondtriangles.svg	stimuli_target_rectanglediamonds.svg	14	yes	57	0	110	0	0			0	0			1				0	
6.6.0	mac	2023-05-10	16:28:56	16:34:20	320444	1	4	3	main_slash	11	main_slash	113	stimuli_target_trianglesquares.svg	stimuli_distractor_trianglediamonds.svg	18	yes	53	1	594	0	0			0	0			1				0	
6.6.0	mac	2023-05-10	16:28:56	16:34:20	320444	1	4	3	main_slash	11	advance_on_keypress_SLASH	114	stimuli_target_trianglesquares.svg	stimuli_distractor_trianglediamonds.svg	18	yes	57	0	688	0	0			0	0			1				0	
6.6.0	mac	2023-05-10	16:28:56	16:34:22	322012	1	4	3	main_slash	11	main_slash	115	stimuli_distractor_trianglediamonds.svg	stimuli_target_trianglesquares.svg	26	yes	53	1	260	0	0			0	0			1				0	
6.6.0	mac	2023-05-10	16:28:56	16:34:22	322012	1	4	3	main_slash	11	advance_on_keypress_SLASH	116	stimuli_distractor_trianglediamonds.svg	stimuli_target_trianglesquares.svg	26	yes	57	0	73	0	0			0	0			1				0	
6.6.0	mac	2023-05-10	16:28:56	16:34:23	322988	1	4	3	main_slash	11	main_slash	117	stimuli_distractor_trianglediamonds.svg	stimuli_target_squaretriangles.svg	11	yes	53	1	285	0	0			0	0			1				0	
6.6.0	mac	2023-05-10	16:28:56	16:34:23	322988	1	4	3	main_slash	11	advance_on_keypress_SLASH	118	stimuli_distractor_trianglediamonds.svg	stimuli_target_squaretriangles.svg	11	yes	57	0	88	0	0			0	0			1				0	
6.6.0	mac	2023-05-10	16:28:56	16:34:24	324108	1	4	3	main_slash	11	main_slash	119	stimuli_target_diamondrectangles.svg	stimuli_distractor_trianglediamonds.svg	19	yes	53	1	404	0	0			0	0			1				0	
6.6.0	mac	2023-05-10	16:28:56	16:34:24	324108	1	4	3	main_slash	11	advance_on_keypress_SLASH	120	stimuli_target_diamondrectangles.svg	stimuli_distractor_trianglediamonds.svg	19	yes	57	0	59	0	0			0	0			1				0	
6.6.0	mac	2023-05-10	16:28:56	16:34:25	325020	1	4	3	main_slash	11	main_slash	121	stimuli_distractor_trianglediamonds.svg	stimuli_distractor_trianglediamonds.svg	34	no	53	0	232	0	0			0	0			1				0	
6.6.0	mac	2023-05-10	16:28:56	16:34:25	325020	1	4	3	main_slash	11	advance_on_keypress_SLASH	122	stimuli_distractor_trianglediamonds.svg	stimuli_distractor_trianglediamonds.svg	34	no	57	0	709	0	0			0	0			1				0	
6.6.0	mac	2023-05-10	16:28:56	16:34:26	326580	1	4	3	main_slash	11	main_slash	123	stimuli_distractor_diamondtriangles.svg	stimuli_target_diamondrectangles.svg	31	yes	53	1	224	0	0			0	0			1				0	
6.6.0	mac	2023-05-10	16:28:56	16:34:26	326580	1	4	3	main_slash	11	advance_on_keypress_SLASH	124	stimuli_distractor_diamondtriangles.svg	stimuli_target_diamondrectangles.svg	31	yes	57	0	86	0	0			0	0			1				0	
6.6.0	mac	2023-05-10	16:28:56	16:34:27	327524	1	4	3	main_slash	11	main_slash	125	stimuli_target_trianglesquares.svg	stimuli_distractor_diamondtriangles.svg	22	yes	53	1	234	0	0			0	0			1				0	
6.6.0	mac	2023-05-10	16:28:56	16:34:27	327524	1	4	3	main_slash	11	advance_on_keypress_SLASH	126	stimuli_target_trianglesquares.svg	stimuli_distractor_diamondtriangles.svg	22	yes	57	0	79	0	0			0	0			1				0	
6.6.0	mac	2023-05-10	16:28:56	16:34:28	328540	1	4	3	main_slash	11	main_slash	127	stimuli_distractor_trianglediamonds.svg	stimuli_target_trianglerectangles.svg	25	yes	53	1	299	0	0			0	0			1				0	
6.6.0	mac	2023-05-10	16:28:56	16:34:28	328540	1	4	3	main_slash	11	advance_on_keypress_SLASH	128	stimuli_distractor_trianglediamonds.svg	stimuli_target_trianglerectangles.svg	25	yes	57	0	29	0	0			0	0			1				0	
6.6.0	mac	2023-05-10	16:28:56	16:34:29	329460	1	4	3	main_slash	11	main_slash	129	stimuli_distractor_diamondtriangles.svg	stimuli_distractor_trianglediamonds.svg	38	no	53	0	251	0	0			0	0			1				0	
6.6.0	mac	2023-05-10	16:28:56	16:34:29	329460	1	4	3	main_slash	11	advance_on_keypress_SLASH	130	stimuli_distractor_diamondtriangles.svg	stimuli_distractor_trianglediamonds.svg	38	no	57	0	24	0	0			0	0			1				0	
6.6.0	mac	2023-05-10	16:28:56	16:34:30	330572	1	4	3	main_slash	11	main_slash	131	stimuli_distractor_diamondtriangles.svg	stimuli_target_trianglesquares.svg	30	yes	53	1	463	0	0			0	0			1				0	
6.6.0	mac	2023-05-10	16:28:56	16:34:30	330572	1	4	3	main_slash	11	advance_on_keypress_SLASH	132	stimuli_distractor_diamondtriangles.svg	stimuli_target_trianglesquares.svg	30	yes	57	0	131	0	0			0	0			1				0	
6.6.0	mac	2023-05-10	16:28:56	16:34:31	331532	1	4	3	main_slash	11	main_slash	133	stimuli_target_trianglerectangles.svg	stimuli_distractor_trianglediamonds.svg	17	yes	53	1	205	0	0			0	0			1				0	
6.6.0	mac	2023-05-10	16:28:56	16:34:31	331532	1	4	3	main_slash	11	advance_on_keypress_SLASH	134	stimuli_target_trianglerectangles.svg	stimuli_distractor_trianglediamonds.svg	17	yes	57	0	92	0	0			0	0			1				0	
6.6.0	mac	2023-05-10	16:28:56	16:34:32	332484	1	4	3	main_slash	11	main_slash	135	stimuli_target_rectanglediamonds.svg	stimuli_distractor_trianglediamonds.svg	2	yes	53	1	240	0	0			0	0			1				0	
6.6.0	mac	2023-05-10	16:28:56	16:34:32	332484	1	4	3	main_slash	11	advance_on_keypress_SLASH	136	stimuli_target_rectanglediamonds.svg	stimuli_distractor_trianglediamonds.svg	2	yes	57	0	117	0	0			0	0			1				0	
6.6.0	mac	2023-05-10	16:28:56	16:34:34	334084	1	4	3	main_slash	11	main_slash	137	stimuli_target_trianglerectangles.svg	stimuli_distractor_diamondtriangles.svg	21	yes	53	1	855	0	0			0	0			1				0	
6.6.0	mac	2023-05-10	16:28:56	16:34:34	334084	1	4	3	main_slash	11	advance_on_keypress_SLASH	138	stimuli_target_trianglerectangles.svg	stimuli_distractor_diamondtriangles.svg	21	yes	57	0	580	0	0			0	0			1				0	
6.6.0	mac	2023-05-10	16:28:56	16:34:35	335620	1	4	3	main_slash	11	main_slash	139	stimuli_distractor_trianglediamonds.svg	stimuli_target_rectangletriangles.svg	9	yes	53	1	324	0	0			0	0			1				0	
6.6.0	mac	2023-05-10	16:28:56	16:34:35	335620	1	4	3	main_slash	11	advance_on_keypress_SLASH	140	stimuli_distractor_trianglediamonds.svg	stimuli_target_rectangletriangles.svg	9	yes	57	0	69	0	0			0	0			1				0	
6.6.0	mac	2023-05-10	16:28:56	16:34:36	336620	1	4	3	main_slash	11	main_slash	141	stimuli_distractor_diamondtriangles.svg	stimuli_distractor_diamondtriangles.svg	40	no	53	0	306	0	0			0	0			1				0	
6.6.0	mac	2023-05-10	16:28:56	16:34:36	336620	1	4	3	main_slash	11	advance_on_keypress_SLASH	142	stimuli_distractor_diamondtriangles.svg	stimuli_distractor_diamondtriangles.svg	40	no	57	0	84	0	0			0	0			1				0	
6.6.0	mac	2023-05-10	16:28:56	16:34:37	337628	1	4	3	main_slash	11	main_slash	143	stimuli_target_diamondrectangles.svg	stimuli_distractor_diamondtriangles.svg	23	yes	53	1	296	0	0			0	0			1				0	
6.6.0	mac	2023-05-10	16:28:56	16:34:37	337628	1	4	3	main_slash	11	advance_on_keypress_SLASH	144	stimuli_target_diamondrectangles.svg	stimuli_distractor_diamondtriangles.svg	23	yes	57	0	83	0	0			0	0			1				0	
6.6.0	mac	2023-05-10	16:28:56	16:34:39	338660	1	4	3	main_slash	11	main_slash	145	stimuli_target_squarediamonds.svg	stimuli_distractor_trianglediamonds.svg	4	yes	53	1	311	0	0			0	0			1				0	
6.6.0	mac	2023-05-10	16:28:56	16:34:39	338660	1	4	3	main_slash	11	advance_on_keypress_SLASH	146	stimuli_target_squarediamonds.svg	stimuli_distractor_trianglediamonds.svg	4	yes	57	0	98	0	0			0	0			1				0	
6.6.0	mac	2023-05-10	16:28:56	16:34:40	339732	1	4	3	main_slash	11	main_slash	147	stimuli_distractor_diamondtriangles.svg	stimuli_target_diamondsquares.svg	32	yes	53	1	348	0	0			0	0			1				0	
6.6.0	mac	2023-05-10	16:28:56	16:34:40	339732	1	4	3	main_slash	11	advance_on_keypress_SLASH	148	stimuli_distractor_diamondtriangles.svg	stimuli_target_diamondsquares.svg	32	yes	57	0	53	0	0			0	0			1				0	
6.6.0	mac	2023-05-10	16:28:56	16:34:41	340980	1	4	3	main_slash	11	main_slash	149	stimuli_target_diamondsquares.svg	stimuli_distractor_diamondtriangles.svg	24	yes	53	1	563	0	0			0	0			1				0	
6.6.0	mac	2023-05-10	16:28:56	16:34:41	340980	1	4	3	main_slash	11	advance_on_keypress_SLASH	150	stimuli_target_diamondsquares.svg	stimuli_distractor_diamondtriangles.svg	24	yes	57	0	58	0	0			0	0			1				0	
6.6.0	mac	2023-05-10	16:28:56	16:34:42	341876	1	4	3	main_slash	11	main_slash	151	stimuli_distractor_trianglediamonds.svg	stimuli_target_rectanglediamonds.svg	10	yes	53	1	207	0	0			0	0			1				0	
6.6.0	mac	2023-05-10	16:28:56	16:34:42	341876	1	4	3	main_slash	11	advance_on_keypress_SLASH	152	stimuli_distractor_trianglediamonds.svg	stimuli_target_rectanglediamonds.svg	10	yes	57	0	70	0	0			0	0			1				0	
6.6.0	mac	2023-05-10	16:28:56	16:34:43	342948	1	4	3	main_slash	11	main_slash	153	stimuli_distractor_trianglediamonds.svg	stimuli_distractor_diamondtriangles.svg	35	no	53	0	378	0	0			0	0			1				0	
6.6.0	mac	2023-05-10	16:28:56	16:34:43	342948	1	4	3	main_slash	11	advance_on_keypress_SLASH	154	stimuli_distractor_trianglediamonds.svg	stimuli_distractor_diamondtriangles.svg	35	no	57	0	106	0	0			0	0			1				0	
6.6.0	mac	2023-05-10	16:28:56	16:34:44	343988	1	4	3	main_slash	11	main_slash	155	stimuli_distractor_trianglediamonds.svg	stimuli_target_squarediamonds.svg	12	yes	53	1	317	0	0			0	0			1				0	
6.6.0	mac	2023-05-10	16:28:56	16:34:44	343988	1	4	3	main_slash	11	advance_on_keypress_SLASH	156	stimuli_distractor_trianglediamonds.svg	stimuli_target_squarediamonds.svg	12	yes	57	0	103	0	0			0	0			1				0	
6.6.0	mac	2023-05-10	16:28:56	16:34:45	345068	1	4	3	main_slash	11	main_slash	157	stimuli_distractor_trianglediamonds.svg	stimuli_target_diamondrectangles.svg	27	yes	53	1	347	0	0			0	0			1				0	
6.6.0	mac	2023-05-10	16:28:56	16:34:45	345068	1	4	3	main_slash	11	advance_on_keypress_SLASH	158	stimuli_distractor_trianglediamonds.svg	stimuli_target_diamondrectangles.svg	27	yes	57	0	59	0	0			0	0			1				0	
6.6.0	mac	2023-05-10	16:28:56	16:34:46	346516	1	4	3	main_slash	11	main_slash	159	stimuli_target_squaretriangles.svg	stimuli_distractor_trianglediamonds.svg	3	yes	53	1	760	0	0			0	0			1				0	
6.6.0	mac	2023-05-10	16:28:56	16:34:46	346516	1	4	3	main_slash	11	advance_on_keypress_SLASH	160	stimuli_target_squaretriangles.svg	stimuli_distractor_trianglediamonds.svg	3	yes	57	0	97	0	0			0	0			1				0	
6.6.0	mac	2023-05-10	16:28:56	16:34:46	346516	1	4	3	headphonecheck_calibration	14	headphonecheck_calibrationIntro	1	stimuli_target_squaretriangles.svg	stimuli_distractor_trianglediamonds.svg	3	yes	calibrationButton	0	851	0	0			0	0			1				0	
6.6.0	mac	2023-05-10	16:28:56	16:34:46	346516	1	4	3	headphonecheck_testphase	15	test_collectResponse	3	stimuli_target_squaretriangles.svg	stimuli_distractor_trianglediamonds.svg	3	yes	third	1	727	1	2	antiphase_hc_ios.wav	3	0	0			1				0	
6.6.0	mac	2023-05-10	16:28:56	16:34:46	346516	1	4	3	headphonecheck_testphase	15	test_collectResponse	6	stimuli_target_squaretriangles.svg	stimuli_distractor_trianglediamonds.svg	3	yes	second	0	263	2	3	antiphase_hc_soi.wav	1	0	0			1				0	
6.6.0	mac	2023-05-10	16:28:56	16:34:46	346516	1	4	3	headphonecheck_testphase	15	test_collectResponse	9	stimuli_target_squaretriangles.svg	stimuli_distractor_trianglediamonds.svg	3	yes	second	1	849	3	1	antiphase_hc_iso.wav	2	0	0			1				0	
6.6.0	mac	2023-05-10	16:28:56	16:34:46	346516	1	4	3	headphonecheck_testphase	15	test_collectResponse	12	stimuli_target_squaretriangles.svg	stimuli_distractor_trianglediamonds.svg	3	yes	third	0	276	4	5	antiphase_hc_osi.wav	2	0	0			1				0	
6.6.0	mac	2023-05-10	16:28:56	16:34:46	346516	1	4	3	headphonecheck_testphase	15	test_collectResponse	15	stimuli_target_squaretriangles.svg	stimuli_distractor_trianglediamonds.svg	3	yes	second	0	2210	5	4	antiphase_hc_sio.wav	1	0	0			1				0	
6.6.0	mac	2023-05-10	16:28:56	16:34:46	346516	1	4	3	headphonecheck_testphase	15	test_collectResponse	18	stimuli_target_squaretriangles.svg	stimuli_distractor_trianglediamonds.svg	3	yes	third	1	586	6	6	antiphase_hc_ois.wav	3	0	0			1				0	
6.6.0	mac	2023-05-10	16:28:56	16:34:46	346516	1	4	3	stereocheck_calibration	17	stereocheck_calibrationIntro	1	stimuli_target_squaretriangles.svg	stimuli_distractor_trianglediamonds.svg	3	yes	stereocheck_calibrationButton	0	809	6	6	antiphase_hc_ois.wav	3	0	0			1				0	
6.6.0	mac	2023-05-10	16:28:56	16:34:46	346516	1	4	3	stereocheck_testphase	18	stereocheck_test_collectResponse	3	stimuli_target_squaretriangles.svg	stimuli_distractor_trianglediamonds.svg	3	yes	stereocheck_right	0	455	6	6	antiphase_hc_ois.wav	3	1	2	noise_calib_stim_LEFT.wav	1	1				0	
6.6.0	mac	2023-05-10	16:28:56	16:34:46	346516	1	4	3	stereocheck_testphase	18	stereocheck_test_collectResponse	6	stimuli_target_squaretriangles.svg	stimuli_distractor_trianglediamonds.svg	3	yes	stereocheck_left	1	336	6	6	antiphase_hc_ois.wav	3	2	3	noise_calib_stim_LEFT.wav	1	1				0	
6.6.0	mac	2023-05-10	16:28:56	16:34:46	346516	1	4	3	stereocheck_testphase	18	stereocheck_test_collectResponse	9	stimuli_target_squaretriangles.svg	stimuli_distractor_trianglediamonds.svg	3	yes	stereocheck_right	1	353	6	6	antiphase_hc_ois.wav	3	3	5	noise_calib_stim_RIGHT.wav	2	1				0	
6.6.0	mac	2023-05-10	16:28:56	16:34:46	346516	1	4	3	stereocheck_testphase	18	stereocheck_test_collectResponse	12	stimuli_target_squaretriangles.svg	stimuli_distractor_trianglediamonds.svg	3	yes	stereocheck_left	0	336	6	6	antiphase_hc_ois.wav	3	4	6	noise_calib_stim_RIGHT.wav	2	1				0	
6.6.0	mac	2023-05-10	16:28:56	16:34:46	346516	1	4	3	stereocheck_testphase	18	stereocheck_test_collectResponse	15	stimuli_target_squaretriangles.svg	stimuli_distractor_trianglediamonds.svg	3	yes	stereocheck_right	0	347	6	6	antiphase_hc_ois.wav	3	5	1	noise_calib_stim_LEFT.wav	1	1				0	
6.6.0	mac	2023-05-10	16:28:56	16:34:46	346516	1	4	3	stereocheck_testphase	18	stereocheck_test_collectResponse	18	stimuli_target_squaretriangles.svg	stimuli_distractor_trianglediamonds.svg	3	yes	stereocheck_right	1	992	6	6	antiphase_hc_ois.wav	3	6	4	noise_calib_stim_RIGHT.wav	2	1				0	
6.6.0	mac	2023-05-10	16:28:56	16:34:46	346516	1	4	3	DL_practice	21	DL_practice	2	stimuli_target_squaretriangles.svg	stimuli_distractor_trianglediamonds.svg	3	yes	ga	0	210	6	6	antiphase_hc_ois.wav	3	6	4	noise_calib_stim_RIGHT.wav	2	23	blb_dichoticlistening_ka-pa.mp3	ka	pa	1	other
6.6.0	mac	2023-05-10	16:28:56	16:34:46	346516	1	4	3	DL_practice	21	DL_practice	3	stimuli_target_squaretriangles.svg	stimuli_distractor_trianglediamonds.svg	3	yes	ga	0	67	6	6	antiphase_hc_ois.wav	3	6	4	noise_calib_stim_RIGHT.wav	2	36	blb_dichoticlistening_ta-ta.mp3	ta	ta	0	other
6.6.0	mac	2023-05-10	16:28:56	16:34:46	346516	1	4	3	DL_practice	21	DL_practice	4	stimuli_target_squaretriangles.svg	stimuli_distractor_trianglediamonds.svg	3	yes	ga	0	371	6	6	antiphase_hc_ois.wav	3	6	4	noise_calib_stim_RIGHT.wav	2	1	blb_dichoticlistening_ba-ba.mp3	ba	ba	0	other
6.6.0	mac	2023-05-10	16:28:56	16:34:46	346516	1	4	3	DL_practice	21	DL_practice	5	stimuli_target_squaretriangles.svg	stimuli_distractor_trianglediamonds.svg	3	yes	ga	0	46	6	6	antiphase_hc_ois.wav	3	6	4	noise_calib_stim_RIGHT.wav	2	8	blb_dichoticlistening_da-da.mp3	da	da	0	other
6.6.0	mac	2023-05-10	16:28:56	16:34:46	346516	1	4	3	DL_practice	21	DL_practice	6	stimuli_target_squaretriangles.svg	stimuli_distractor_trianglediamonds.svg	3	yes	ga	0	38	6	6	antiphase_hc_ois.wav	3	6	4	noise_calib_stim_RIGHT.wav	2	29	blb_dichoticlistening_pa-pa.mp3	pa	pa	0	other
6.6.0	mac	2023-05-10	16:28:56	16:34:46	346516	1	4	3	DL_practice	21	DL_practice	7	stimuli_target_squaretriangles.svg	stimuli_distractor_trianglediamonds.svg	3	yes	ga	1	22	6	6	antiphase_hc_ois.wav	3	6	4	noise_calib_stim_RIGHT.wav	2	15	blb_dichoticlistening_ga-ga.mp3	ga	ga	0	left
6.6.0	mac	2023-05-10	16:28:56	16:34:46	346516	1	4	3	DL_practice	21	DL_practice	8	stimuli_target_squaretriangles.svg	stimuli_distractor_trianglediamonds.svg	3	yes	ga	0	327	6	6	antiphase_hc_ois.wav	3	6	4	noise_calib_stim_RIGHT.wav	2	22	blb_dichoticlistening_ka-ka.mp3	ka	ka	0	other
6.6.0	mac	2023-05-10	16:28:56	16:34:46	346516	1	4	3	DL_practice	21	DL_practice	9	stimuli_target_squaretriangles.svg	stimuli_distractor_trianglediamonds.svg	3	yes	ga	1	44	6	6	antiphase_hc_ois.wav	3	6	4	noise_calib_stim_RIGHT.wav	2	18	blb_dichoticlistening_ga-ta.mp3	ga	ta	1	left
6.6.0	mac	2023-05-10	16:28:56	16:34:46	346516	1	4	3	DL_practice	21	DL_practice	10	stimuli_target_squaretriangles.svg	stimuli_distractor_trianglediamonds.svg	3	yes	ga	0	92	6	6	antiphase_hc_ois.wav	3	6	4	noise_calib_stim_RIGHT.wav	2	7	blb_dichoticlistening_da-ba.mp3	da	ba	1	other
6.6.0	mac	2023-05-10	16:28:56	16:34:46	346516	1	4	3	DL_test	23	DL_test	1	stimuli_target_squaretriangles.svg	stimuli_distractor_trianglediamonds.svg	3	yes	ga	1	11	6	6	antiphase_hc_ois.wav	3	6	4	noise_calib_stim_RIGHT.wav	2	13	blb_dichoticlistening_ga-ba.mp3	ga	ba	1	left
6.6.0	mac	2023-05-10	16:28:56	16:34:46	346516	1	4	3	DL_test	23	DL_test	2	stimuli_target_squaretriangles.svg	stimuli_distractor_trianglediamonds.svg	3	yes	ga	0	644	6	6	antiphase_hc_ois.wav	3	6	4	noise_calib_stim_RIGHT.wav	2	35	blb_dichoticlistening_ta-pa.mp3	ta	pa	1	other
6.6.0	mac	2023-05-10	16:28:56	16:34:46	346516	1	4	3	DL_test	23	DL_test	3	stimuli_target_squaretriangles.svg	stimuli_distractor_trianglediamonds.svg	3	yes	ga	0	94	6	6	antiphase_hc_ois.wav	3	6	4	noise_calib_stim_RIGHT.wav	2	2	blb_dichoticlistening_ba-da.mp3	ba	da	1	other
6.6.0	mac	2023-05-10	16:28:56	16:34:46	346516	1	4	3	DL_test	23	DL_test	4	stimuli_target_squaretriangles.svg	stimuli_distractor_trianglediamonds.svg	3	yes	ga	0	733	6	6	antiphase_hc_ois.wav	3	6	4	noise_calib_stim_RIGHT.wav	2	23	blb_dichoticlistening_ka-pa.mp3	ka	pa	1	other
6.6.0	mac	2023-05-10	16:28:56	16:34:46	346516	1	4	3	DL_test	23	DL_test	5	stimuli_target_squaretriangles.svg	stimuli_distractor_trianglediamonds.svg	3	yes	ga	1	2	6	6	antiphase_hc_ois.wav	3	6	4	noise_calib_stim_RIGHT.wav	2	18	blb_dichoticlistening_ga-ta.mp3	ga	ta	1	left
6.6.0	mac	2023-05-10	16:28:56	16:34:46	346516	1	4	3	DL_test	23	DL_test	6	stimuli_target_squaretriangles.svg	stimuli_distractor_trianglediamonds.svg	3	yes	ga	0	3	6	6	antiphase_hc_ois.wav	3	6	4	noise_calib_stim_RIGHT.wav	2	25	blb_dichoticlistening_pa-ba.mp3	pa	ba	1	other
6.6.0	mac	2023-05-10	16:28:56	16:34:46	346516	1	4	3	DL_test	23	DL_test	7	stimuli_target_squaretriangles.svg	stimuli_distractor_trianglediamonds.svg	3	yes	ga	1	86	6	6	antiphase_hc_ois.wav	3	6	4	noise_calib_stim_RIGHT.wav	2	16	blb_dichoticlistening_ga-ka.mp3	ga	ka	1	left
6.6.0	mac	2023-05-10	16:28:56	16:34:46	346516	1	4	3	DL_test	23	DL_test	8	stimuli_target_squaretriangles.svg	stimuli_distractor_trianglediamonds.svg	3	yes	ga	0	621	6	6	antiphase_hc_ois.wav	3	6	4	noise_calib_stim_RIGHT.wav	2	24	blb_dichoticlistening_ka-ta.mp3	ka	ta	1	other
6.6.0	mac	2023-05-10	16:28:56	16:34:46	346516	1	4	3	DL_test	23	DL_test	9	stimuli_target_squaretriangles.svg	stimuli_distractor_trianglediamonds.svg	3	yes	ga	1	6	6	6	antiphase_hc_ois.wav	3	6	4	noise_calib_stim_RIGHT.wav	2	33	blb_dichoticlistening_ta-ga.mp3	ta	ga	1	right
6.6.0	mac	2023-05-10	16:28:56	16:34:46	346516	1	4	3	DL_test	23	DL_test	10	stimuli_target_squaretriangles.svg	stimuli_distractor_trianglediamonds.svg	3	yes	ga	1	128	6	6	antiphase_hc_ois.wav	3	6	4	noise_calib_stim_RIGHT.wav	2	15	blb_dichoticlistening_ga-ga.mp3	ga	ga	0	left
6.6.0	mac	2023-05-10	16:28:56	16:34:46	346516	1	4	3	DL_test	23	DL_test	11	stimuli_target_squaretriangles.svg	stimuli_distractor_trianglediamonds.svg	3	yes	ga	0	53	6	6	antiphase_hc_ois.wav	3	6	4	noise_calib_stim_RIGHT.wav	2	4	blb_dichoticlistening_ba-ka.mp3	ba	ka	1	other
6.6.0	mac	2023-05-10	16:28:56	16:34:46	346516	1	4	3	DL_test	23	DL_test	12	stimuli_target_squaretriangles.svg	stimuli_distractor_trianglediamonds.svg	3	yes	ga	0	246	6	6	antiphase_hc_ois.wav	3	6	4	noise_calib_stim_RIGHT.wav	2	29	blb_dichoticlistening_pa-pa.mp3	pa	pa	0	other
6.6.0	mac	2023-05-10	16:28:56	16:34:46	346516	1	4	3	DL_test	23	DL_test	13	stimuli_target_squaretriangles.svg	stimuli_distractor_trianglediamonds.svg	3	yes	ga	0	94	6	6	antiphase_hc_ois.wav	3	6	4	noise_calib_stim_RIGHT.wav	2	26	blb_dichoticlistening_pa-da.mp3	pa	da	1	other
6.6.0	mac	2023-05-10	16:28:56	16:34:46	346516	1	4	3	DL_test	23	DL_test	14	stimuli_target_squaretriangles.svg	stimuli_distractor_trianglediamonds.svg	3	yes	ga	0	54	6	6	antiphase_hc_ois.wav	3	6	4	noise_calib_stim_RIGHT.wav	2	7	blb_dichoticlistening_da-ba.mp3	da	ba	1	other
6.6.0	mac	2023-05-10	16:28:56	16:34:46	346516	1	4	3	DL_test	23	DL_test	15	stimuli_target_squaretriangles.svg	stimuli_distractor_trianglediamonds.svg	3	yes	ga	0	462	6	6	antiphase_hc_ois.wav	3	6	4	noise_calib_stim_RIGHT.wav	2	34	blb_dichoticlistening_ta-ka.mp3	ta	ka	1	other
6.6.0	mac	2023-05-10	16:28:56	16:34:46	346516	1	4	3	DL_test	23	DL_test	16	stimuli_target_squaretriangles.svg	stimuli_distractor_trianglediamonds.svg	3	yes	ga	0	92	6	6	antiphase_hc_ois.wav	3	6	4	noise_calib_stim_RIGHT.wav	2	19	blb_dichoticlistening_ka-ba.mp3	ka	ba	1	other
6.6.0	mac	2023-05-10	16:28:56	16:34:46	346516	1	4	3	DL_test	23	DL_test	17	stimuli_target_squaretriangles.svg	stimuli_distractor_trianglediamonds.svg	3	yes	ga	0	85	6	6	antiphase_hc_ois.wav	3	6	4	noise_calib_stim_RIGHT.wav	2	1	blb_dichoticlistening_ba-ba.mp3	ba	ba	0	other
6.6.0	mac	2023-05-10	16:28:56	16:34:46	346516	1	4	3	DL_test	23	DL_test	18	stimuli_target_squaretriangles.svg	stimuli_distractor_trianglediamonds.svg	3	yes	ga	0	117	6	6	antiphase_hc_ois.wav	3	6	4	noise_calib_stim_RIGHT.wav	2	31	blb_dichoticlistening_ta-ba.mp3	ta	ba	1	other
6.6.0	mac	2023-05-10	16:28:56	16:34:46	346516	1	4	3	DL_test	23	DL_test	19	stimuli_target_squaretriangles.svg	stimuli_distractor_trianglediamonds.svg	3	yes	ga	1	555	6	6	antiphase_hc_ois.wav	3	6	4	noise_calib_stim_RIGHT.wav	2	17	blb_dichoticlistening_ga-pa.mp3	ga	pa	1	left
6.6.0	mac	2023-05-10	16:28:56	16:34:46	346516	1	4	3	DL_test	23	DL_test	20	stimuli_target_squaretriangles.svg	stimuli_distractor_trianglediamonds.svg	3	yes	ga	1	196	6	6	antiphase_hc_ois.wav	3	6	4	noise_calib_stim_RIGHT.wav	2	9	blb_dichoticlistening_da-ga.mp3	da	ga	1	right
6.6.0	mac	2023-05-10	16:28:56	16:34:46	346516	1	4	3	DL_test	23	DL_test	21	stimuli_target_squaretriangles.svg	stimuli_distractor_trianglediamonds.svg	3	yes	ga	1	25	6	6	antiphase_hc_ois.wav	3	6	4	noise_calib_stim_RIGHT.wav	2	21	blb_dichoticlistening_ka-ga.mp3	ka	ga	1	right
6.6.0	mac	2023-05-10	16:28:56	16:34:46	346516	1	4	3	DL_test	23	DL_test	22	stimuli_target_squaretriangles.svg	stimuli_distractor_trianglediamonds.svg	3	yes	ga	0	26	6	6	antiphase_hc_ois.wav	3	6	4	noise_calib_stim_RIGHT.wav	2	11	blb_dichoticlistening_da-pa.mp3	da	pa	1	other
6.6.0	mac	2023-05-10	16:28:56	16:34:46	346516	1	4	3	DL_test	23	DL_test	23	stimuli_target_squaretriangles.svg	stimuli_distractor_trianglediamonds.svg	3	yes	ga	0	123	6	6	antiphase_hc_ois.wav	3	6	4	noise_calib_stim_RIGHT.wav	2	22	blb_dichoticlistening_ka-ka.mp3	ka	ka	0	other
6.6.0	mac	2023-05-10	16:28:56	16:34:46	346516	1	4	3	DL_test	23	DL_test	24	stimuli_target_squaretriangles.svg	stimuli_distractor_trianglediamonds.svg	3	yes	ga	0	56	6	6	antiphase_hc_ois.wav	3	6	4	noise_calib_stim_RIGHT.wav	2	12	blb_dichoticlistening_da-ta.mp3	da	ta	1	other
6.6.0	mac	2023-05-10	16:28:56	16:34:46	346516	1	4	3	DL_test	23	DL_test	25	stimuli_target_squaretriangles.svg	stimuli_distractor_trianglediamonds.svg	3	yes	ga	1	24	6	6	antiphase_hc_ois.wav	3	6	4	noise_calib_stim_RIGHT.wav	2	14	blb_dichoticlistening_ga-da.mp3	ga	da	1	left
6.6.0	mac	2023-05-10	16:28:56	16:34:46	346516	1	4	3	DL_test	23	DL_test	26	stimuli_target_squaretriangles.svg	stimuli_distractor_trianglediamonds.svg	3	yes	ga	0	57	6	6	antiphase_hc_ois.wav	3	6	4	noise_calib_stim_RIGHT.wav	2	30	blb_dichoticlistening_pa-ta.mp3	pa	ta	1	other
6.6.0	mac	2023-05-10	16:28:56	16:34:46	346516	1	4	3	DL_test	23	DL_test	27	stimuli_target_squaretriangles.svg	stimuli_distractor_trianglediamonds.svg	3	yes	ga	0	359	6	6	antiphase_hc_ois.wav	3	6	4	noise_calib_stim_RIGHT.wav	2	20	blb_dichoticlistening_ka-da.mp3	ka	da	1	other
6.6.0	mac	2023-05-10	16:28:56	16:34:46	346516	1	4	3	DL_test	23	DL_test	28	stimuli_target_squaretriangles.svg	stimuli_distractor_trianglediamonds.svg	3	yes	ga	0	4	6	6	antiphase_hc_ois.wav	3	6	4	noise_calib_stim_RIGHT.wav	2	8	blb_dichoticlistening_da-da.mp3	da	da	0	other
6.6.0	mac	2023-05-10	16:28:56	16:34:46	346516	1	4	3	DL_test	23	DL_test	29	stimuli_target_squaretriangles.svg	stimuli_distractor_trianglediamonds.svg	3	yes	ga	0	14	6	6	antiphase_hc_ois.wav	3	6	4	noise_calib_stim_RIGHT.wav	2	32	blb_dichoticlistening_ta-da.mp3	ta	da	1	other
6.6.0	mac	2023-05-10	16:28:56	16:34:46	346516	1	4	3	DL_test	23	DL_test	30	stimuli_target_squaretriangles.svg	stimuli_distractor_trianglediamonds.svg	3	yes	ga	0	24	6	6	antiphase_hc_ois.wav	3	6	4	noise_calib_stim_RIGHT.wav	2	36	blb_dichoticlistening_ta-ta.mp3	ta	ta	0	other
6.6.0	mac	2023-05-10	16:28:56	16:34:46	346516	1	4	3	DL_test	23	DL_test	31	stimuli_target_squaretriangles.svg	stimuli_distractor_trianglediamonds.svg	3	yes	ga	0	48	6	6	antiphase_hc_ois.wav	3	6	4	noise_calib_stim_RIGHT.wav	2	6	blb_dichoticlistening_ba-ta.mp3	ba	ta	1	other
6.6.0	mac	2023-05-10	16:28:56	16:34:46	346516	1	4	3	DL_test	23	DL_test	32	stimuli_target_squaretriangles.svg	stimuli_distractor_trianglediamonds.svg	3	yes	ga	1	9	6	6	antiphase_hc_ois.wav	3	6	4	noise_calib_stim_RIGHT.wav	2	3	blb_dichoticlistening_ba-ga.mp3	ba	ga	1	right
6.6.0	mac	2023-05-10	16:28:56	16:34:46	346516	1	4	3	DL_test	23	DL_test	33	stimuli_target_squaretriangles.svg	stimuli_distractor_trianglediamonds.svg	3	yes	ga	0	43	6	6	antiphase_hc_ois.wav	3	6	4	noise_calib_stim_RIGHT.wav	2	5	blb_dichoticlistening_ba-pa.mp3	ba	pa	1	other
6.6.0	mac	2023-05-10	16:28:56	16:34:46	346516	1	4	3	DL_test	23	DL_test	34	stimuli_target_squaretriangles.svg	stimuli_distractor_trianglediamonds.svg	3	yes	ga	0	68	6	6	antiphase_hc_ois.wav	3	6	4	noise_calib_stim_RIGHT.wav	2	10	blb_dichoticlistening_da-ka.mp3	da	ka	1	other
6.6.0	mac	2023-05-10	16:28:56	16:34:46	346516	1	4	3	DL_test	23	DL_test	35	stimuli_target_squaretriangles.svg	stimuli_distractor_trianglediamonds.svg	3	yes	ga	1	43	6	6	antiphase_hc_ois.wav	3	6	4	noise_calib_stim_RIGHT.wav	2	27	blb_dichoticlistening_pa-ga.mp3	pa	ga	1	right
6.6.0	mac	2023-05-10	16:28:56	16:34:46	346516	1	4	3	DL_test	23	DL_test	36	stimuli_target_squaretriangles.svg	stimuli_distractor_trianglediamonds.svg	3	yes	ga	0	11	6	6	antiphase_hc_ois.wav	3	6	4	noise_calib_stim_RIGHT.wav	2	28	blb_dichoticlistening_pa-ka.mp3	pa	ka	1	other
6.6.0	mac	2023-05-10	16:28:56	16:34:46	346516	1	4	3	DL_test	24	DL_test	1	stimuli_target_squaretriangles.svg	stimuli_distractor_trianglediamonds.svg	3	yes	ga	0	94	6	6	antiphase_hc_ois.wav	3	6	4	noise_calib_stim_RIGHT.wav	2	28	blb_dichoticlistening_pa-ka.mp3	pa	ka	1	other
6.6.0	mac	2023-05-10	16:28:56	16:34:46	346516	1	4	3	DL_test	24	DL_test	2	stimuli_target_squaretriangles.svg	stimuli_distractor_trianglediamonds.svg	3	yes	ga	0	157	6	6	antiphase_hc_ois.wav	3	6	4	noise_calib_stim_RIGHT.wav	2	11	blb_dichoticlistening_da-pa.mp3	da	pa	1	other
6.6.0	mac	2023-05-10	16:28:56	16:34:46	346516	1	4	3	DL_test	24	DL_test	3	stimuli_target_squaretriangles.svg	stimuli_distractor_trianglediamonds.svg	3	yes	ga	0	16	6	6	antiphase_hc_ois.wav	3	6	4	noise_calib_stim_RIGHT.wav	2	30	blb_dichoticlistening_pa-ta.mp3	pa	ta	1	other
6.6.0	mac	2023-05-10	16:28:56	16:34:46	346516	1	4	3	DL_test	24	DL_test	4	stimuli_target_squaretriangles.svg	stimuli_distractor_trianglediamonds.svg	3	yes	ga	1	2	6	6	antiphase_hc_ois.wav	3	6	4	noise_calib_stim_RIGHT.wav	2	9	blb_dichoticlistening_da-ga.mp3	da	ga	1	right
6.6.0	mac	2023-05-10	16:28:56	16:34:46	346516	1	4	3	DL_test	24	DL_test	5	stimuli_target_squaretriangles.svg	stimuli_distractor_trianglediamonds.svg	3	yes	ga	0	53	6	6	antiphase_hc_ois.wav	3	6	4	noise_calib_stim_RIGHT.wav	2	12	blb_dichoticlistening_da-ta.mp3	da	ta	1	other
6.6.0	mac	2023-05-10	16:28:56	16:34:46	346516	1	4	3	DL_test	24	DL_test	6	stimuli_target_squaretriangles.svg	stimuli_distractor_trianglediamonds.svg	3	yes	ga	0	29	6	6	antiphase_hc_ois.wav	3	6	4	noise_calib_stim_RIGHT.wav	2	25	blb_dichoticlistening_pa-ba.mp3	pa	ba	1	other
6.6.0	mac	2023-05-10	16:28:56	16:34:46	346516	1	4	3	DL_test	24	DL_test	7	stimuli_target_squaretriangles.svg	stimuli_distractor_trianglediamonds.svg	3	yes	ga	0	62	6	6	antiphase_hc_ois.wav	3	6	4	noise_calib_stim_RIGHT.wav	2	36	blb_dichoticlistening_ta-ta.mp3	ta	ta	0	other
6.6.0	mac	2023-05-10	16:28:56	16:34:46	346516	1	4	3	DL_test	24	DL_test	8	stimuli_target_squaretriangles.svg	stimuli_distractor_trianglediamonds.svg	3	yes	ga	0	389	6	6	antiphase_hc_ois.wav	3	6	4	noise_calib_stim_RIGHT.wav	2	10	blb_dichoticlistening_da-ka.mp3	da	ka	1	other
6.6.0	mac	2023-05-10	16:28:56	16:34:46	346516	1	4	3	DL_test	24	DL_test	9	stimuli_target_squaretriangles.svg	stimuli_distractor_trianglediamonds.svg	3	yes	ga	0	113	6	6	antiphase_hc_ois.wav	3	6	4	noise_calib_stim_RIGHT.wav	2	7	blb_dichoticlistening_da-ba.mp3	da	ba	1	other
6.6.0	mac	2023-05-10	16:28:56	16:34:46	346516	1	4	3	DL_test	24	DL_test	10	stimuli_target_squaretriangles.svg	stimuli_distractor_trianglediamonds.svg	3	yes	ga	0	78	6	6	antiphase_hc_ois.wav	3	6	4	noise_calib_stim_RIGHT.wav	2	34	blb_dichoticlistening_ta-ka.mp3	ta	ka	1	other
6.6.0	mac	2023-05-10	16:28:56	16:34:46	346516	1	4	3	DL_test	24	DL_test	11	stimuli_target_squaretriangles.svg	stimuli_distractor_trianglediamonds.svg	3	yes	ga	0	430	6	6	antiphase_hc_ois.wav	3	6	4	noise_calib_stim_RIGHT.wav	2	32	blb_dichoticlistening_ta-da.mp3	ta	da	1	other
6.6.0	mac	2023-05-10	16:28:56	16:34:46	346516	1	4	3	DL_test	24	DL_test	12	stimuli_target_squaretriangles.svg	stimuli_distractor_trianglediamonds.svg	3	yes	ga	1	68	6	6	antiphase_hc_ois.wav	3	6	4	noise_calib_stim_RIGHT.wav	2	17	blb_dichoticlistening_ga-pa.mp3	ga	pa	1	left
6.6.0	mac	2023-05-10	16:28:56	16:34:46	346516	1	4	3	DL_test	24	DL_test	13	stimuli_target_squaretriangles.svg	stimuli_distractor_trianglediamonds.svg	3	yes	ga	0	61	6	6	antiphase_hc_ois.wav	3	6	4	noise_calib_stim_RIGHT.wav	2	29	blb_dichoticlistening_pa-pa.mp3	pa	pa	0	other
6.6.0	mac	2023-05-10	16:28:56	16:34:46	346516	1	4	3	DL_test	24	DL_test	14	stimuli_target_squaretriangles.svg	stimuli_distractor_trianglediamonds.svg	3	yes	ga	1	108	6	6	antiphase_hc_ois.wav	3	6	4	noise_calib_stim_RIGHT.wav	2	15	blb_dichoticlistening_ga-ga.mp3	ga	ga	0	left
6.6.0	mac	2023-05-10	16:28:56	16:34:46	346516	1	4	3	DL_test	24	DL_test	15	stimuli_target_squaretriangles.svg	stimuli_distractor_trianglediamonds.svg	3	yes	ga	0	178	6	6	antiphase_hc_ois.wav	3	6	4	noise_calib_stim_RIGHT.wav	2	20	blb_dichoticlistening_ka-da.mp3	ka	da	1	other
6.6.0	mac	2023-05-10	16:28:56	16:34:46	346516	1	4	3	DL_test	24	DL_test	16	stimuli_target_squaretriangles.svg	stimuli_distractor_trianglediamonds.svg	3	yes	ga	1	45	6	6	antiphase_hc_ois.wav	3	6	4	noise_calib_stim_RIGHT.wav	2	3	blb_dichoticlistening_ba-ga.mp3	ba	ga	1	right
6.6.0	mac	2023-05-10	16:28:56	16:34:46	346516	1	4	3	DL_test	24	DL_test	17	stimuli_target_squaretriangles.svg	stimuli_distractor_trianglediamonds.svg	3	yes	ga	0	38	6	6	antiphase_hc_ois.wav	3	6	4	noise_calib_stim_RIGHT.wav	2	23	blb_dichoticlistening_ka-pa.mp3	ka	pa	1	other
6.6.0	mac	2023-05-10	16:28:56	16:34:46	346516	1	4	3	DL_test	24	DL_test	18	stimuli_target_squaretriangles.svg	stimuli_distractor_trianglediamonds.svg	3	yes	ga	1	86	6	6	antiphase_hc_ois.wav	3	6	4	noise_calib_stim_RIGHT.wav	2	27	blb_dichoticlistening_pa-ga.mp3	pa	ga	1	right
6.6.0	mac	2023-05-10	16:28:56	16:34:46	346516	1	4	3	DL_test	24	DL_test	19	stimuli_target_squaretriangles.svg	stimuli_distractor_trianglediamonds.svg	3	yes	ga	0	133	6	6	antiphase_hc_ois.wav	3	6	4	noise_calib_stim_RIGHT.wav	2	24	blb_dichoticlistening_ka-ta.mp3	ka	ta	1	other
6.6.0	mac	2023-05-10	16:28:56	16:34:46	346516	1	4	3	DL_test	24	DL_test	20	stimuli_target_squaretriangles.svg	stimuli_distractor_trianglediamonds.svg	3	yes	ga	0	106	6	6	antiphase_hc_ois.wav	3	6	4	noise_calib_stim_RIGHT.wav	2	6	blb_dichoticlistening_ba-ta.mp3	ba	ta	1	other
6.6.0	mac	2023-05-10	16:28:56	16:34:46	346516	1	4	3	DL_test	24	DL_test	21	stimuli_target_squaretriangles.svg	stimuli_distractor_trianglediamonds.svg	3	yes	ga	0	8	6	6	antiphase_hc_ois.wav	3	6	4	noise_calib_stim_RIGHT.wav	2	8	blb_dichoticlistening_da-da.mp3	da	da	0	other
6.6.0	mac	2023-05-10	16:28:56	16:34:46	346516	1	4	3	DL_test	24	DL_test	22	stimuli_target_squaretriangles.svg	stimuli_distractor_trianglediamonds.svg	3	yes	ga	0	5	6	6	antiphase_hc_ois.wav	3	6	4	noise_calib_stim_RIGHT.wav	2	35	blb_dichoticlistening_ta-pa.mp3	ta	pa	1	other
6.6.0	mac	2023-05-10	16:28:56	16:34:46	346516	1	4	3	DL_test	24	DL_test	23	stimuli_target_squaretriangles.svg	stimuli_distractor_trianglediamonds.svg	3	yes	ga	1	32	6	6	antiphase_hc_ois.wav	3	6	4	noise_calib_stim_RIGHT.wav	2	14	blb_dichoticlistening_ga-da.mp3	ga	da	1	left
6.6.0	mac	2023-05-10	16:28:56	16:34:46	346516	1	4	3	DL_test	24	DL_test	24	stimuli_target_squaretriangles.svg	stimuli_distractor_trianglediamonds.svg	3	yes	ga	1	145	6	6	antiphase_hc_ois.wav	3	6	4	noise_calib_stim_RIGHT.wav	2	33	blb_dichoticlistening_ta-ga.mp3	ta	ga	1	right
6.6.0	mac	2023-05-10	16:28:56	16:34:46	346516	1	4	3	DL_test	24	DL_test	25	stimuli_target_squaretriangles.svg	stimuli_distractor_trianglediamonds.svg	3	yes	ga	0	110	6	6	antiphase_hc_ois.wav	3	6	4	noise_calib_stim_RIGHT.wav	2	5	blb_dichoticlistening_ba-pa.mp3	ba	pa	1	other
6.6.0	mac	2023-05-10	16:28:56	16:34:46	346516	1	4	3	DL_test	24	DL_test	26	stimuli_target_squaretriangles.svg	stimuli_distractor_trianglediamonds.svg	3	yes	ga	1	27	6	6	antiphase_hc_ois.wav	3	6	4	noise_calib_stim_RIGHT.wav	2	16	blb_dichoticlistening_ga-ka.mp3	ga	ka	1	left
6.6.0	mac	2023-05-10	16:28:56	16:34:46	346516	1	4	3	DL_test	24	DL_test	27	stimuli_target_squaretriangles.svg	stimuli_distractor_trianglediamonds.svg	3	yes	ga	0	20	6	6	antiphase_hc_ois.wav	3	6	4	noise_calib_stim_RIGHT.wav	2	26	blb_dichoticlistening_pa-da.mp3	pa	da	1	other
6.6.0	mac	2023-05-10	16:28:56	16:34:46	346516	1	4	3	DL_test	24	DL_test	28	stimuli_target_squaretriangles.svg	stimuli_distractor_trianglediamonds.svg	3	yes	ga	0	37	6	6	antiphase_hc_ois.wav	3	6	4	noise_calib_stim_RIGHT.wav	2	2	blb_dichoticlistening_ba-da.mp3	ba	da	1	other
