build	computer.platform	date	time	timestamp	time_elapsed_ms	subject	group	session	blockcode	blocknum	trialcode	trialnum	stimulus_left	stimulus_right	stim_index	target_present	response	correct	latency	headphonecheck_countTestTrials	headphonecheck_index	headphonecheck_testSound	headphonecheck_correctResponse	stereocheck_countTestTrials	stereocheck_index	stereocheck_testSound	stereocheck_correctResponse	DL_index	DL_soundfile	DL_leftSound	DL_rightSound	DL_dualSound	DL_choice
6.6.1	win	2023-07-10	09:26:48	09:29:37	164389	5c18c248acd3f30001459833	3	1	practice_slash	5	practice_slash	1	stimuli_distractor_trianglediamonds.svg	stimuli_target_rectanglediamonds.svg	10	yes	0	0	2000	0	0			0	0			1				0	
6.6.1	win	2023-07-10	09:26:48	09:29:37	164389	5c18c248acd3f30001459833	3	1	practice_slash	5	advance_on_keypress_SLASH	2	stimuli_distractor_trianglediamonds.svg	stimuli_target_rectanglediamonds.svg	10	yes	57	0	1419	0	0			0	0			1				0	
6.6.1	win	2023-07-10	09:26:48	09:29:42	169456	5c18c248acd3f30001459833	3	1	practice_slash	5	practice_slash	3	stimuli_distractor_trianglediamonds.svg	stimuli_distractor_diamondtriangles.svg	16	no	0	1	2000	0	0			0	0			1				0	
6.6.1	win	2023-07-10	09:26:48	09:29:42	169456	5c18c248acd3f30001459833	3	1	practice_slash	5	advance_on_keypress_SLASH	4	stimuli_distractor_trianglediamonds.svg	stimuli_distractor_diamondtriangles.svg	16	no	57	0	896	0	0			0	0			1				0	
6.6.1	win	2023-07-10	09:26:48	09:29:47	174006	5c18c248acd3f30001459833	3	1	practice_slash	5	practice_slash	5	stimuli_distractor_trianglediamonds.svg	stimuli_distractor_trianglediamonds.svg	15	no	0	1	2000	0	0			0	0			1				0	
6.6.1	win	2023-07-10	09:26:48	09:29:47	174006	5c18c248acd3f30001459833	3	1	practice_slash	5	advance_on_keypress_SLASH	6	stimuli_distractor_trianglediamonds.svg	stimuli_distractor_trianglediamonds.svg	15	no	57	0	426	0	0			0	0			1				0	
6.6.1	win	2023-07-10	09:26:48	09:29:49	176697	5c18c248acd3f30001459833	3	1	practice_slash	5	practice_slash	7	stimuli_distractor_diamondtriangles.svg	stimuli_target_rectangletriangles.svg	7	yes	53	1	607	0	0			0	0			1				0	
6.6.1	win	2023-07-10	09:26:48	09:29:49	176697	5c18c248acd3f30001459833	3	1	practice_slash	5	advance_on_keypress_SLASH	8	stimuli_distractor_diamondtriangles.svg	stimuli_target_rectangletriangles.svg	7	yes	57	0	798	0	0			0	0			1				0	
6.6.1	win	2023-07-10	09:26:48	09:29:52	179928	5c18c248acd3f30001459833	3	1	practice_slash	5	practice_slash	9	stimuli_target_squarediamonds.svg	stimuli_distractor_diamondtriangles.svg	2	yes	53	1	789	0	0			0	0			1				0	
6.6.1	win	2023-07-10	09:26:48	09:29:52	179928	5c18c248acd3f30001459833	3	1	practice_slash	5	advance_on_keypress_SLASH	10	stimuli_target_squarediamonds.svg	stimuli_distractor_diamondtriangles.svg	2	yes	57	0	461	0	0			0	0			1				0	
6.6.1	win	2023-07-10	09:26:48	09:29:55	182794	5c18c248acd3f30001459833	3	1	practice_slash	5	practice_slash	11	stimuli_distractor_trianglediamonds.svg	stimuli_target_squarediamonds.svg	11	yes	53	1	753	0	0			0	0			1				0	
6.6.1	win	2023-07-10	09:26:48	09:29:55	182794	5c18c248acd3f30001459833	3	1	practice_slash	5	advance_on_keypress_SLASH	12	stimuli_distractor_trianglediamonds.svg	stimuli_target_squarediamonds.svg	11	yes	57	0	523	0	0			0	0			1				0	
6.6.1	win	2023-07-10	09:26:48	09:30:00	186974	5c18c248acd3f30001459833	3	1	practice_slash	5	practice_slash	13	stimuli_target_diamondsquares.svg	stimuli_distractor_trianglediamonds.svg	6	yes	0	0	2000	0	0			0	0			1				0	
6.6.1	win	2023-07-10	09:26:48	09:30:00	186974	5c18c248acd3f30001459833	3	1	practice_slash	5	advance_on_keypress_SLASH	14	stimuli_target_diamondsquares.svg	stimuli_distractor_trianglediamonds.svg	6	yes	57	0	323	0	0			0	0			1				0	
6.6.1	win	2023-07-10	09:26:48	09:30:04	190956	5c18c248acd3f30001459833	3	1	practice_slash	5	practice_slash	15	stimuli_distractor_trianglediamonds.svg	stimuli_target_diamondrectangles.svg	12	yes	0	0	2000	0	0			0	0			1				0	
6.6.1	win	2023-07-10	09:26:48	09:30:04	190956	5c18c248acd3f30001459833	3	1	practice_slash	5	advance_on_keypress_SLASH	16	stimuli_distractor_trianglediamonds.svg	stimuli_target_diamondrectangles.svg	12	yes	57	0	484	0	0			0	0			1				0	
6.6.1	win	2023-07-10	09:26:48	09:30:08	195090	5c18c248acd3f30001459833	3	1	practice_slash	5	practice_slash	17	stimuli_target_diamondsquares.svg	stimuli_distractor_diamondtriangles.svg	3	yes	0	0	2000	0	0			0	0			1				0	
6.6.1	win	2023-07-10	09:26:48	09:30:08	195090	5c18c248acd3f30001459833	3	1	practice_slash	5	advance_on_keypress_SLASH	18	stimuli_target_diamondsquares.svg	stimuli_distractor_diamondtriangles.svg	3	yes	57	0	527	0	0			0	0			1				0	
6.6.1	win	2023-07-10	09:26:48	09:30:12	199256	5c18c248acd3f30001459833	3	1	practice_slash	5	practice_slash	19	stimuli_distractor_diamondtriangles.svg	stimuli_distractor_diamondtriangles.svg	13	no	0	1	2000	0	0			0	0			1				0	
6.6.1	win	2023-07-10	09:26:48	09:30:12	199256	5c18c248acd3f30001459833	3	1	practice_slash	5	advance_on_keypress_SLASH	20	stimuli_distractor_diamondtriangles.svg	stimuli_distractor_diamondtriangles.svg	13	no	57	0	328	0	0			0	0			1				0	
6.6.1	win	2023-07-10	09:26:48	09:30:15	202568	5c18c248acd3f30001459833	3	1	practice_slash	5	practice_slash	21	stimuli_distractor_diamondtriangles.svg	stimuli_target_trianglerectangles.svg	9	yes	53	1	1329	0	0			0	0			1				0	
6.6.1	win	2023-07-10	09:26:48	09:30:15	202568	5c18c248acd3f30001459833	3	1	practice_slash	5	advance_on_keypress_SLASH	22	stimuli_distractor_diamondtriangles.svg	stimuli_target_trianglerectangles.svg	9	yes	57	0	419	0	0			0	0			1				0	
6.6.1	win	2023-07-10	09:26:48	09:30:18	205449	5c18c248acd3f30001459833	3	1	practice_slash	5	practice_slash	23	stimuli_target_squarediamonds.svg	stimuli_distractor_trianglediamonds.svg	5	yes	53	1	809	0	0			0	0			1				0	
6.6.1	win	2023-07-10	09:26:48	09:30:18	205449	5c18c248acd3f30001459833	3	1	practice_slash	5	advance_on_keypress_SLASH	24	stimuli_target_squarediamonds.svg	stimuli_distractor_trianglediamonds.svg	5	yes	57	0	416	0	0			0	0			1				0	
6.6.1	win	2023-07-10	09:26:48	09:30:21	208313	5c18c248acd3f30001459833	3	1	practice_slash	5	practice_slash	25	stimuli_target_rectanglediamonds.svg	stimuli_distractor_trianglediamonds.svg	4	yes	53	1	790	0	0			0	0			1				0	
6.6.1	win	2023-07-10	09:26:48	09:30:21	208313	5c18c248acd3f30001459833	3	1	practice_slash	5	advance_on_keypress_SLASH	26	stimuli_target_rectanglediamonds.svg	stimuli_distractor_trianglediamonds.svg	4	yes	57	0	462	0	0			0	0			1				0	
6.6.1	win	2023-07-10	09:26:48	09:30:24	211416	5c18c248acd3f30001459833	3	1	practice_slash	5	practice_slash	27	stimuli_target_rectanglediamonds.svg	stimuli_distractor_diamondtriangles.svg	1	yes	53	1	994	0	0			0	0			1				0	
6.6.1	win	2023-07-10	09:26:48	09:30:24	211416	5c18c248acd3f30001459833	3	1	practice_slash	5	advance_on_keypress_SLASH	28	stimuli_target_rectanglediamonds.svg	stimuli_distractor_diamondtriangles.svg	1	yes	57	0	401	0	0			0	0			1				0	
6.6.1	win	2023-07-10	09:26:48	09:30:28	215473	5c18c248acd3f30001459833	3	1	practice_slash	5	practice_slash	29	stimuli_distractor_diamondtriangles.svg	stimuli_target_diamondrectangles.svg	8	yes	0	0	2000	0	0			0	0			1				0	
6.6.1	win	2023-07-10	09:26:48	09:30:28	215473	5c18c248acd3f30001459833	3	1	practice_slash	5	advance_on_keypress_SLASH	30	stimuli_distractor_diamondtriangles.svg	stimuli_target_diamondrectangles.svg	8	yes	57	0	367	0	0			0	0			1				0	
6.6.1	win	2023-07-10	09:26:48	09:30:32	219489	5c18c248acd3f30001459833	3	1	practice_slash	5	practice_slash	31	stimuli_distractor_diamondtriangles.svg	stimuli_distractor_trianglediamonds.svg	14	no	0	1	2000	0	0			0	0			1				0	
6.6.1	win	2023-07-10	09:26:48	09:30:32	219489	5c18c248acd3f30001459833	3	1	practice_slash	5	advance_on_keypress_SLASH	32	stimuli_distractor_diamondtriangles.svg	stimuli_distractor_trianglediamonds.svg	14	no	57	0	303	0	0			0	0			1				0	
6.6.1	win	2023-07-10	09:26:48	09:30:43	230637	5c18c248acd3f30001459833	3	1	main_slash	7	main_slash	1	stimuli_target_trianglesquares.svg	stimuli_distractor_trianglediamonds.svg	18	yes	0	0	2000	0	0			0	0			1				0	
6.6.1	win	2023-07-10	09:26:48	09:30:43	230637	5c18c248acd3f30001459833	3	1	main_slash	7	advance_on_keypress_SLASH	2	stimuli_target_trianglesquares.svg	stimuli_distractor_trianglediamonds.svg	18	yes	57	0	753	0	0			0	0			1				0	
6.6.1	win	2023-07-10	09:26:48	09:30:46	233358	5c18c248acd3f30001459833	3	1	main_slash	7	main_slash	3	stimuli_distractor_diamondtriangles.svg	stimuli_target_diamondrectangles.svg	31	yes	53	1	1321	0	0			0	0			1				0	
6.6.1	win	2023-07-10	09:26:48	09:30:46	233358	5c18c248acd3f30001459833	3	1	main_slash	7	advance_on_keypress_SLASH	4	stimuli_distractor_diamondtriangles.svg	stimuli_target_diamondrectangles.svg	31	yes	57	0	2484	0	0			0	0			1				0	
6.6.1	win	2023-07-10	09:26:48	09:30:50	237086	5c18c248acd3f30001459833	3	1	main_slash	7	main_slash	5	stimuli_distractor_diamondtriangles.svg	stimuli_target_squarediamonds.svg	16	yes	53	1	599	0	0			0	0			1				0	
6.6.1	win	2023-07-10	09:26:48	09:30:50	237086	5c18c248acd3f30001459833	3	1	main_slash	7	advance_on_keypress_SLASH	6	stimuli_distractor_diamondtriangles.svg	stimuli_target_squarediamonds.svg	16	yes	57	0	3391	0	0			0	0			1				0	
6.6.1	win	2023-07-10	09:26:48	09:30:54	241855	5c18c248acd3f30001459833	3	1	main_slash	7	main_slash	7	stimuli_distractor_diamondtriangles.svg	stimuli_target_squaretriangles.svg	15	yes	53	1	717	0	0			0	0			1				0	
6.6.1	win	2023-07-10	09:26:48	09:30:54	241855	5c18c248acd3f30001459833	3	1	main_slash	7	advance_on_keypress_SLASH	8	stimuli_distractor_diamondtriangles.svg	stimuli_target_squaretriangles.svg	15	yes	57	0	1472	0	0			0	0			1				0	
6.6.1	win	2023-07-10	09:26:48	09:30:58	245024	5c18c248acd3f30001459833	3	1	main_slash	7	main_slash	9	stimuli_distractor_trianglediamonds.svg	stimuli_target_trianglesquares.svg	26	yes	53	1	1052	0	0			0	0			1				0	
6.6.1	win	2023-07-10	09:26:48	09:30:58	245024	5c18c248acd3f30001459833	3	1	main_slash	7	advance_on_keypress_SLASH	10	stimuli_distractor_trianglediamonds.svg	stimuli_target_trianglesquares.svg	26	yes	57	0	1041	0	0			0	0			1				0	
6.6.1	win	2023-07-10	09:26:48	09:31:01	248704	5c18c248acd3f30001459833	3	1	main_slash	7	main_slash	11	stimuli_distractor_trianglediamonds.svg	stimuli_target_diamondsquares.svg	28	yes	0	0	2000	0	0			0	0			1				0	
6.6.1	win	2023-07-10	09:26:48	09:31:01	248704	5c18c248acd3f30001459833	3	1	main_slash	7	advance_on_keypress_SLASH	12	stimuli_distractor_trianglediamonds.svg	stimuli_target_diamondsquares.svg	28	yes	57	0	686	0	0			0	0			1				0	
6.6.1	win	2023-07-10	09:26:48	09:31:03	250862	5c18c248acd3f30001459833	3	1	main_slash	7	main_slash	13	stimuli_distractor_diamondtriangles.svg	stimuli_target_rectanglediamonds.svg	14	yes	53	1	825	0	0			0	0			1				0	
6.6.1	win	2023-07-10	09:26:48	09:31:03	250862	5c18c248acd3f30001459833	3	1	main_slash	7	advance_on_keypress_SLASH	14	stimuli_distractor_diamondtriangles.svg	stimuli_target_rectanglediamonds.svg	14	yes	57	0	1032	0	0			0	0			1				0	
6.6.1	win	2023-07-10	09:26:48	09:31:07	254537	5c18c248acd3f30001459833	3	1	main_slash	7	main_slash	15	stimuli_target_diamondrectangles.svg	stimuli_distractor_diamondtriangles.svg	23	yes	0	0	2000	0	0			0	0			1				0	
6.6.1	win	2023-07-10	09:26:48	09:31:07	254537	5c18c248acd3f30001459833	3	1	main_slash	7	advance_on_keypress_SLASH	16	stimuli_target_diamondrectangles.svg	stimuli_distractor_diamondtriangles.svg	23	yes	57	0	469	0	0			0	0			1				0	
6.6.1	win	2023-07-10	09:26:48	09:31:10	257656	5c18c248acd3f30001459833	3	1	main_slash	7	main_slash	17	stimuli_distractor_diamondtriangles.svg	stimuli_target_trianglerectangles.svg	29	yes	0	0	2000	0	0			0	0			1				0	
6.6.1	win	2023-07-10	09:26:48	09:31:10	257656	5c18c248acd3f30001459833	3	1	main_slash	7	advance_on_keypress_SLASH	18	stimuli_distractor_diamondtriangles.svg	stimuli_target_trianglerectangles.svg	29	yes	57	0	312	0	0			0	0			1				0	
6.6.1	win	2023-07-10	09:26:48	09:31:13	260604	5c18c248acd3f30001459833	3	1	main_slash	7	main_slash	19	stimuli_target_trianglerectangles.svg	stimuli_distractor_trianglediamonds.svg	17	yes	0	0	2000	0	0			0	0			1				0	
6.6.1	win	2023-07-10	09:26:48	09:31:13	260604	5c18c248acd3f30001459833	3	1	main_slash	7	advance_on_keypress_SLASH	20	stimuli_target_trianglerectangles.svg	stimuli_distractor_trianglediamonds.svg	17	yes	57	0	274	0	0			0	0			1				0	
6.6.1	win	2023-07-10	09:26:48	09:31:15	262063	5c18c248acd3f30001459833	3	1	main_slash	7	main_slash	21	stimuli_distractor_trianglediamonds.svg	stimuli_target_squaretriangles.svg	11	yes	53	1	542	0	0			0	0			1				0	
6.6.1	win	2023-07-10	09:26:48	09:31:15	262063	5c18c248acd3f30001459833	3	1	main_slash	7	advance_on_keypress_SLASH	22	stimuli_distractor_trianglediamonds.svg	stimuli_target_squaretriangles.svg	11	yes	57	0	1144	0	0			0	0			1				0	
6.6.1	win	2023-07-10	09:26:48	09:31:18	265837	5c18c248acd3f30001459833	3	1	main_slash	7	main_slash	23	stimuli_distractor_diamondtriangles.svg	stimuli_distractor_diamondtriangles.svg	40	no	0	1	2000	0	0			0	0			1				0	
6.6.1	win	2023-07-10	09:26:48	09:31:18	265837	5c18c248acd3f30001459833	3	1	main_slash	7	advance_on_keypress_SLASH	24	stimuli_distractor_diamondtriangles.svg	stimuli_distractor_diamondtriangles.svg	40	no	57	0	353	0	0			0	0			1				0	
6.6.1	win	2023-07-10	09:26:48	09:31:21	268837	5c18c248acd3f30001459833	3	1	main_slash	7	main_slash	25	stimuli_distractor_trianglediamonds.svg	stimuli_target_diamondrectangles.svg	27	yes	0	0	2000	0	0			0	0			1				0	
6.6.1	win	2023-07-10	09:26:48	09:31:21	268837	5c18c248acd3f30001459833	3	1	main_slash	7	advance_on_keypress_SLASH	26	stimuli_distractor_trianglediamonds.svg	stimuli_target_diamondrectangles.svg	27	yes	57	0	360	0	0			0	0			1				0	
6.6.1	win	2023-07-10	09:26:48	09:31:23	270462	5c18c248acd3f30001459833	3	1	main_slash	7	main_slash	27	stimuli_target_rectanglediamonds.svg	stimuli_distractor_diamondtriangles.svg	6	yes	53	1	625	0	0			0	0			1				0	
6.6.1	win	2023-07-10	09:26:48	09:31:23	270462	5c18c248acd3f30001459833	3	1	main_slash	7	advance_on_keypress_SLASH	28	stimuli_target_rectanglediamonds.svg	stimuli_distractor_diamondtriangles.svg	6	yes	57	0	1464	0	0			0	0			1				0	
6.6.1	win	2023-07-10	09:26:48	09:31:26	273182	5c18c248acd3f30001459833	3	1	main_slash	7	main_slash	29	stimuli_distractor_trianglediamonds.svg	stimuli_target_rectanglediamonds.svg	10	yes	53	1	612	0	0			0	0			1				0	
6.6.1	win	2023-07-10	09:26:48	09:31:26	273182	5c18c248acd3f30001459833	3	1	main_slash	7	advance_on_keypress_SLASH	30	stimuli_distractor_trianglediamonds.svg	stimuli_target_rectanglediamonds.svg	10	yes	57	0	1483	0	0			0	0			1				0	
6.6.1	win	2023-07-10	09:26:48	09:31:30	277304	5c18c248acd3f30001459833	3	1	main_slash	7	main_slash	31	stimuli_distractor_diamondtriangles.svg	stimuli_distractor_trianglediamonds.svg	37	no	0	1	2000	0	0			0	0			1				0	
6.6.1	win	2023-07-10	09:26:48	09:31:30	277304	5c18c248acd3f30001459833	3	1	main_slash	7	advance_on_keypress_SLASH	32	stimuli_distractor_diamondtriangles.svg	stimuli_distractor_trianglediamonds.svg	37	no	57	0	662	0	0			0	0			1				0	
6.6.1	win	2023-07-10	09:26:48	09:31:33	280621	5c18c248acd3f30001459833	3	1	main_slash	7	main_slash	33	stimuli_distractor_trianglediamonds.svg	stimuli_distractor_trianglediamonds.svg	33	no	0	1	2000	0	0			0	0			1				0	
6.6.1	win	2023-07-10	09:26:48	09:31:33	280621	5c18c248acd3f30001459833	3	1	main_slash	7	advance_on_keypress_SLASH	34	stimuli_distractor_trianglediamonds.svg	stimuli_distractor_trianglediamonds.svg	33	no	57	0	961	0	0			0	0			1				0	
6.6.1	win	2023-07-10	09:26:48	09:31:37	284220	5c18c248acd3f30001459833	3	1	main_slash	7	main_slash	35	stimuli_distractor_trianglediamonds.svg	stimuli_distractor_trianglediamonds.svg	34	no	0	1	2000	0	0			0	0			1				0	
6.6.1	win	2023-07-10	09:26:48	09:31:37	284220	5c18c248acd3f30001459833	3	1	main_slash	7	advance_on_keypress_SLASH	36	stimuli_distractor_trianglediamonds.svg	stimuli_distractor_trianglediamonds.svg	34	no	57	0	3569	0	0			0	0			1				0	
6.6.1	win	2023-07-10	09:26:48	09:31:43	290438	5c18c248acd3f30001459833	3	1	main_slash	7	main_slash	37	stimuli_distractor_diamondtriangles.svg	stimuli_distractor_trianglediamonds.svg	38	no	0	1	2000	0	0			0	0			1				0	
6.6.1	win	2023-07-10	09:26:48	09:31:43	290438	5c18c248acd3f30001459833	3	1	main_slash	7	advance_on_keypress_SLASH	38	stimuli_distractor_diamondtriangles.svg	stimuli_distractor_trianglediamonds.svg	38	no	57	0	505	0	0			0	0			1				0	
6.6.1	win	2023-07-10	09:26:48	09:31:46	293587	5c18c248acd3f30001459833	3	1	main_slash	7	main_slash	39	stimuli_distractor_diamondtriangles.svg	stimuli_distractor_diamondtriangles.svg	39	no	0	1	2000	0	0			0	0			1				0	
6.6.1	win	2023-07-10	09:26:48	09:31:46	293587	5c18c248acd3f30001459833	3	1	main_slash	7	advance_on_keypress_SLASH	40	stimuli_distractor_diamondtriangles.svg	stimuli_distractor_diamondtriangles.svg	39	no	57	0	763	0	0			0	0			1				0	
6.6.1	win	2023-07-10	09:26:48	09:31:50	297004	5c18c248acd3f30001459833	3	1	main_slash	7	main_slash	41	stimuli_distractor_trianglediamonds.svg	stimuli_distractor_diamondtriangles.svg	36	no	0	1	2000	0	0			0	0			1				0	
6.6.1	win	2023-07-10	09:26:48	09:31:50	297004	5c18c248acd3f30001459833	3	1	main_slash	7	advance_on_keypress_SLASH	42	stimuli_distractor_trianglediamonds.svg	stimuli_distractor_diamondtriangles.svg	36	no	57	0	338	0	0			0	0			1				0	
6.6.1	win	2023-07-10	09:26:48	09:31:51	298510	5c18c248acd3f30001459833	3	1	main_slash	7	main_slash	43	stimuli_target_squaretriangles.svg	stimuli_distractor_trianglediamonds.svg	3	yes	53	1	523	0	0			0	0			1				0	
6.6.1	win	2023-07-10	09:26:48	09:31:51	298510	5c18c248acd3f30001459833	3	1	main_slash	7	advance_on_keypress_SLASH	44	stimuli_target_squaretriangles.svg	stimuli_distractor_trianglediamonds.svg	3	yes	57	0	1078	0	0			0	0			1				0	
6.6.1	win	2023-07-10	09:26:48	09:31:55	302221	5c18c248acd3f30001459833	3	1	main_slash	7	main_slash	45	stimuli_target_diamondsquares.svg	stimuli_distractor_trianglediamonds.svg	20	yes	0	0	2000	0	0			0	0			1				0	
6.6.1	win	2023-07-10	09:26:48	09:31:55	302221	5c18c248acd3f30001459833	3	1	main_slash	7	advance_on_keypress_SLASH	46	stimuli_target_diamondsquares.svg	stimuli_distractor_trianglediamonds.svg	20	yes	57	0	2497	0	0			0	0			1				0	
6.6.1	win	2023-07-10	09:26:48	09:31:58	305902	5c18c248acd3f30001459833	3	1	main_slash	7	main_slash	47	stimuli_target_rectangletriangles.svg	stimuli_distractor_diamondtriangles.svg	5	yes	53	1	532	0	0			0	0			1				0	
6.6.1	win	2023-07-10	09:26:48	09:31:58	305902	5c18c248acd3f30001459833	3	1	main_slash	7	advance_on_keypress_SLASH	48	stimuli_target_rectangletriangles.svg	stimuli_distractor_diamondtriangles.svg	5	yes	57	0	894	0	0			0	0			1				0	
6.6.1	win	2023-07-10	09:26:48	09:32:02	309437	5c18c248acd3f30001459833	3	1	main_slash	7	main_slash	49	stimuli_target_diamondrectangles.svg	stimuli_distractor_trianglediamonds.svg	19	yes	0	0	2000	0	0			0	0			1				0	
6.6.1	win	2023-07-10	09:26:48	09:32:02	309437	5c18c248acd3f30001459833	3	1	main_slash	7	advance_on_keypress_SLASH	50	stimuli_target_diamondrectangles.svg	stimuli_distractor_trianglediamonds.svg	19	yes	57	0	673	0	0			0	0			1				0	
6.6.1	win	2023-07-10	09:26:48	09:32:04	311294	5c18c248acd3f30001459833	3	1	main_slash	7	main_slash	51	stimuli_target_squaretriangles.svg	stimuli_distractor_diamondtriangles.svg	7	yes	53	1	541	0	0			0	0			1				0	
6.6.1	win	2023-07-10	09:26:48	09:32:04	311294	5c18c248acd3f30001459833	3	1	main_slash	7	advance_on_keypress_SLASH	52	stimuli_target_squaretriangles.svg	stimuli_distractor_diamondtriangles.svg	7	yes	57	0	1575	0	0			0	0			1				0	
6.6.1	win	2023-07-10	09:26:48	09:32:08	315504	5c18c248acd3f30001459833	3	1	main_slash	7	main_slash	53	stimuli_target_trianglerectangles.svg	stimuli_distractor_diamondtriangles.svg	21	yes	0	0	2000	0	0			0	0			1				0	
6.6.1	win	2023-07-10	09:26:48	09:32:08	315504	5c18c248acd3f30001459833	3	1	main_slash	7	advance_on_keypress_SLASH	54	stimuli_target_trianglerectangles.svg	stimuli_distractor_diamondtriangles.svg	21	yes	57	0	478	0	0			0	0			1				0	
6.6.1	win	2023-07-10	09:26:48	09:32:11	318637	5c18c248acd3f30001459833	3	1	main_slash	7	main_slash	55	stimuli_distractor_diamondtriangles.svg	stimuli_target_diamondsquares.svg	32	yes	0	0	2000	0	0			0	0			1				0	
6.6.1	win	2023-07-10	09:26:48	09:32:11	318637	5c18c248acd3f30001459833	3	1	main_slash	7	advance_on_keypress_SLASH	56	stimuli_distractor_diamondtriangles.svg	stimuli_target_diamondsquares.svg	32	yes	57	0	513	0	0			0	0			1				0	
6.6.1	win	2023-07-10	09:26:48	09:32:13	320254	5c18c248acd3f30001459833	3	1	main_slash	7	main_slash	57	stimuli_distractor_diamondtriangles.svg	stimuli_target_rectangletriangles.svg	13	yes	53	1	451	0	0			0	0			1				0	
6.6.1	win	2023-07-10	09:26:48	09:32:13	320254	5c18c248acd3f30001459833	3	1	main_slash	7	advance_on_keypress_SLASH	58	stimuli_distractor_diamondtriangles.svg	stimuli_target_rectangletriangles.svg	13	yes	57	0	3104	0	0			0	0			1				0	
6.6.1	win	2023-07-10	09:26:48	09:32:17	324526	5c18c248acd3f30001459833	3	1	main_slash	7	main_slash	59	stimuli_target_squarediamonds.svg	stimuli_distractor_trianglediamonds.svg	4	yes	53	1	523	0	0			0	0			1				0	
6.6.1	win	2023-07-10	09:26:48	09:32:17	324526	5c18c248acd3f30001459833	3	1	main_slash	7	advance_on_keypress_SLASH	60	stimuli_target_squarediamonds.svg	stimuli_distractor_trianglediamonds.svg	4	yes	57	0	1077	0	0			0	0			1				0	
6.6.1	win	2023-07-10	09:26:48	09:32:21	328237	5c18c248acd3f30001459833	3	1	main_slash	7	main_slash	61	stimuli_distractor_trianglediamonds.svg	stimuli_distractor_diamondtriangles.svg	35	no	0	1	2000	0	0			0	0			1				0	
6.6.1	win	2023-07-10	09:26:48	09:32:21	328237	5c18c248acd3f30001459833	3	1	main_slash	7	advance_on_keypress_SLASH	62	stimuli_distractor_trianglediamonds.svg	stimuli_distractor_diamondtriangles.svg	35	no	57	0	561	0	0			0	0			1				0	
6.6.1	win	2023-07-10	09:26:48	09:32:23	330030	5c18c248acd3f30001459833	3	1	main_slash	7	main_slash	63	stimuli_target_squarediamonds.svg	stimuli_distractor_diamondtriangles.svg	8	yes	53	1	593	0	0			0	0			1				0	
6.6.1	win	2023-07-10	09:26:48	09:32:23	330030	5c18c248acd3f30001459833	3	1	main_slash	7	advance_on_keypress_SLASH	64	stimuli_target_squarediamonds.svg	stimuli_distractor_diamondtriangles.svg	8	yes	57	0	2505	0	0			0	0			1				0	
6.6.1	win	2023-07-10	09:26:48	09:32:26	333758	5c18c248acd3f30001459833	3	1	main_slash	7	main_slash	65	stimuli_target_rectangletriangles.svg	stimuli_distractor_trianglediamonds.svg	1	yes	53	1	588	0	0			0	0			1				0	
6.6.1	win	2023-07-10	09:26:48	09:32:26	333758	5c18c248acd3f30001459833	3	1	main_slash	7	advance_on_keypress_SLASH	66	stimuli_target_rectangletriangles.svg	stimuli_distractor_trianglediamonds.svg	1	yes	57	0	1700	0	0			0	0			1				0	
6.6.1	win	2023-07-10	09:26:48	09:32:29	336798	5c18c248acd3f30001459833	3	1	main_slash	7	main_slash	67	stimuli_target_rectanglediamonds.svg	stimuli_distractor_trianglediamonds.svg	2	yes	53	1	695	0	0			0	0			1				0	
6.6.1	win	2023-07-10	09:26:48	09:32:29	336798	5c18c248acd3f30001459833	3	1	main_slash	7	advance_on_keypress_SLASH	68	stimuli_target_rectanglediamonds.svg	stimuli_distractor_trianglediamonds.svg	2	yes	57	0	2283	0	0			0	0			1				0	
6.6.1	win	2023-07-10	09:26:48	09:32:34	341720	5c18c248acd3f30001459833	3	1	main_slash	7	main_slash	69	stimuli_distractor_trianglediamonds.svg	stimuli_target_trianglerectangles.svg	25	yes	0	0	2000	0	0			0	0			1				0	
6.6.1	win	2023-07-10	09:26:48	09:32:34	341720	5c18c248acd3f30001459833	3	1	main_slash	7	advance_on_keypress_SLASH	70	stimuli_distractor_trianglediamonds.svg	stimuli_target_trianglerectangles.svg	25	yes	57	0	3013	0	0			0	0			1				0	
6.6.1	win	2023-07-10	09:26:48	09:32:40	347387	5c18c248acd3f30001459833	3	1	main_slash	7	main_slash	71	stimuli_distractor_diamondtriangles.svg	stimuli_target_trianglesquares.svg	30	yes	0	0	2000	0	0			0	0			1				0	
6.6.1	win	2023-07-10	09:26:48	09:32:40	347387	5c18c248acd3f30001459833	3	1	main_slash	7	advance_on_keypress_SLASH	72	stimuli_distractor_diamondtriangles.svg	stimuli_target_trianglesquares.svg	30	yes	57	0	5379	0	0			0	0			1				0	
6.6.1	win	2023-07-10	09:26:48	09:32:47	353951	5c18c248acd3f30001459833	3	1	main_slash	7	main_slash	73	stimuli_distractor_trianglediamonds.svg	stimuli_target_rectangletriangles.svg	9	yes	53	1	547	0	0			0	0			1				0	
6.6.1	win	2023-07-10	09:26:48	09:32:47	353951	5c18c248acd3f30001459833	3	1	main_slash	7	advance_on_keypress_SLASH	74	stimuli_distractor_trianglediamonds.svg	stimuli_target_rectangletriangles.svg	9	yes	57	0	620	0	0			0	0			1				0	
6.6.1	win	2023-07-10	09:26:48	09:32:48	355790	5c18c248acd3f30001459833	3	1	main_slash	7	main_slash	75	stimuli_distractor_trianglediamonds.svg	stimuli_target_squarediamonds.svg	12	yes	53	1	570	0	0			0	0			1				0	
6.6.1	win	2023-07-10	09:26:48	09:32:48	355790	5c18c248acd3f30001459833	3	1	main_slash	7	advance_on_keypress_SLASH	76	stimuli_distractor_trianglediamonds.svg	stimuli_target_squarediamonds.svg	12	yes	57	0	1411	0	0			0	0			1				0	
6.6.1	win	2023-07-10	09:26:48	09:32:52	359837	5c18c248acd3f30001459833	3	1	main_slash	7	main_slash	77	stimuli_target_diamondsquares.svg	stimuli_distractor_diamondtriangles.svg	24	yes	0	0	2000	0	0			0	0			1				0	
6.6.1	win	2023-07-10	09:26:48	09:32:52	359837	5c18c248acd3f30001459833	3	1	main_slash	7	advance_on_keypress_SLASH	78	stimuli_target_diamondsquares.svg	stimuli_distractor_diamondtriangles.svg	24	yes	57	0	417	0	0			0	0			1				0	
6.6.1	win	2023-07-10	09:26:48	09:32:55	362903	5c18c248acd3f30001459833	3	1	main_slash	7	main_slash	79	stimuli_target_trianglesquares.svg	stimuli_distractor_diamondtriangles.svg	22	yes	0	0	2000	0	0			0	0			1				0	
6.6.1	win	2023-07-10	09:26:48	09:32:55	362903	5c18c248acd3f30001459833	3	1	main_slash	7	advance_on_keypress_SLASH	80	stimuli_target_trianglesquares.svg	stimuli_distractor_diamondtriangles.svg	22	yes	57	0	342	0	0			0	0			1				0	
6.6.1	win	2023-07-10	09:26:48	09:32:57	364350	5c18c248acd3f30001459833	3	1	main_slash	7	main_slash	81	stimuli_target_squarediamonds.svg	stimuli_distractor_diamondtriangles.svg	8	yes	53	1	463	0	0			0	0			1				0	
6.6.1	win	2023-07-10	09:26:48	09:32:57	364350	5c18c248acd3f30001459833	3	1	main_slash	7	advance_on_keypress_SLASH	82	stimuli_target_squarediamonds.svg	stimuli_distractor_diamondtriangles.svg	8	yes	57	0	1276	0	0			0	0			1				0	
6.6.1	win	2023-07-10	09:26:48	09:33:01	368270	5c18c248acd3f30001459833	3	1	main_slash	7	main_slash	83	stimuli_target_trianglerectangles.svg	stimuli_distractor_diamondtriangles.svg	21	yes	0	0	2000	0	0			0	0			1				0	
6.6.1	win	2023-07-10	09:26:48	09:33:01	368270	5c18c248acd3f30001459833	3	1	main_slash	7	advance_on_keypress_SLASH	84	stimuli_target_trianglerectangles.svg	stimuli_distractor_diamondtriangles.svg	21	yes	57	0	1503	0	0			0	0			1				0	
6.6.1	win	2023-07-10	09:26:48	09:33:05	372420	5c18c248acd3f30001459833	3	1	main_slash	7	main_slash	85	stimuli_target_rectangletriangles.svg	stimuli_distractor_trianglediamonds.svg	1	yes	0	0	2000	0	0			0	0			1				0	
6.6.1	win	2023-07-10	09:26:48	09:33:05	372420	5c18c248acd3f30001459833	3	1	main_slash	7	advance_on_keypress_SLASH	86	stimuli_target_rectangletriangles.svg	stimuli_distractor_trianglediamonds.svg	1	yes	57	0	2793	0	0			0	0			1				0	
6.6.1	win	2023-07-10	09:26:48	09:33:10	377870	5c18c248acd3f30001459833	3	1	main_slash	7	main_slash	87	stimuli_distractor_trianglediamonds.svg	stimuli_target_diamondsquares.svg	28	yes	0	0	2000	0	0			0	0			1				0	
6.6.1	win	2023-07-10	09:26:48	09:33:10	377870	5c18c248acd3f30001459833	3	1	main_slash	7	advance_on_keypress_SLASH	88	stimuli_distractor_trianglediamonds.svg	stimuli_target_diamondsquares.svg	28	yes	57	0	255	0	0			0	0			1				0	
6.6.1	win	2023-07-10	09:26:48	09:33:12	379342	5c18c248acd3f30001459833	3	1	main_slash	7	main_slash	89	stimuli_distractor_diamondtriangles.svg	stimuli_target_squarediamonds.svg	16	yes	53	1	572	0	0			0	0			1				0	
6.6.1	win	2023-07-10	09:26:48	09:33:12	379342	5c18c248acd3f30001459833	3	1	main_slash	7	advance_on_keypress_SLASH	90	stimuli_distractor_diamondtriangles.svg	stimuli_target_squarediamonds.svg	16	yes	57	0	597	0	0			0	0			1				0	
6.6.1	win	2023-07-10	09:26:48	09:33:14	381166	5c18c248acd3f30001459833	3	1	main_slash	7	main_slash	91	stimuli_target_squarediamonds.svg	stimuli_distractor_trianglediamonds.svg	4	yes	53	1	579	0	0			0	0			1				0	
6.6.1	win	2023-07-10	09:26:48	09:33:14	381166	5c18c248acd3f30001459833	3	1	main_slash	7	advance_on_keypress_SLASH	92	stimuli_target_squarediamonds.svg	stimuli_distractor_trianglediamonds.svg	4	yes	57	0	619	0	0			0	0			1				0	
6.6.1	win	2023-07-10	09:26:48	09:33:17	384437	5c18c248acd3f30001459833	3	1	main_slash	7	main_slash	93	stimuli_distractor_diamondtriangles.svg	stimuli_target_diamondsquares.svg	32	yes	0	0	2000	0	0			0	0			1				0	
6.6.1	win	2023-07-10	09:26:48	09:33:17	384437	5c18c248acd3f30001459833	3	1	main_slash	7	advance_on_keypress_SLASH	94	stimuli_distractor_diamondtriangles.svg	stimuli_target_diamondsquares.svg	32	yes	57	0	601	0	0			0	0			1				0	
6.6.1	win	2023-07-10	09:26:48	09:33:20	387687	5c18c248acd3f30001459833	3	1	main_slash	7	main_slash	95	stimuli_distractor_diamondtriangles.svg	stimuli_distractor_trianglediamonds.svg	38	no	0	1	2000	0	0			0	0			1				0	
6.6.1	win	2023-07-10	09:26:48	09:33:20	387687	5c18c248acd3f30001459833	3	1	main_slash	7	advance_on_keypress_SLASH	96	stimuli_distractor_diamondtriangles.svg	stimuli_distractor_trianglediamonds.svg	38	no	57	0	455	0	0			0	0			1				0	
6.6.1	win	2023-07-10	09:26:48	09:33:22	389374	5c18c248acd3f30001459833	3	1	main_slash	7	main_slash	97	stimuli_distractor_trianglediamonds.svg	stimuli_target_rectangletriangles.svg	9	yes	53	1	587	0	0			0	0			1				0	
6.6.1	win	2023-07-10	09:26:48	09:33:22	389374	5c18c248acd3f30001459833	3	1	main_slash	7	advance_on_keypress_SLASH	98	stimuli_distractor_trianglediamonds.svg	stimuli_target_rectangletriangles.svg	9	yes	57	0	531	0	0			0	0			1				0	
6.6.1	win	2023-07-10	09:26:48	09:33:25	392553	5c18c248acd3f30001459833	3	1	main_slash	7	main_slash	99	stimuli_target_trianglerectangles.svg	stimuli_distractor_trianglediamonds.svg	17	yes	0	0	2000	0	0			0	0			1				0	
6.6.1	win	2023-07-10	09:26:48	09:33:25	392553	5c18c248acd3f30001459833	3	1	main_slash	7	advance_on_keypress_SLASH	100	stimuli_target_trianglerectangles.svg	stimuli_distractor_trianglediamonds.svg	17	yes	57	0	468	0	0			0	0			1				0	
6.6.1	win	2023-07-10	09:26:48	09:33:27	394606	5c18c248acd3f30001459833	3	1	main_slash	7	main_slash	101	stimuli_target_trianglesquares.svg	stimuli_distractor_diamondtriangles.svg	22	yes	53	1	936	0	0			0	0			1				0	
6.6.1	win	2023-07-10	09:26:48	09:33:27	394606	5c18c248acd3f30001459833	3	1	main_slash	7	advance_on_keypress_SLASH	102	stimuli_target_trianglesquares.svg	stimuli_distractor_diamondtriangles.svg	22	yes	57	0	866	0	0			0	0			1				0	
6.6.1	win	2023-07-10	09:26:48	09:33:31	398120	5c18c248acd3f30001459833	3	1	main_slash	7	main_slash	103	stimuli_distractor_trianglediamonds.svg	stimuli_distractor_trianglediamonds.svg	34	no	0	1	2000	0	0			0	0			1				0	
6.6.1	win	2023-07-10	09:26:48	09:33:31	398120	5c18c248acd3f30001459833	3	1	main_slash	7	advance_on_keypress_SLASH	104	stimuli_distractor_trianglediamonds.svg	stimuli_distractor_trianglediamonds.svg	34	no	57	0	69	0	0			0	0			1				0	
6.6.1	win	2023-07-10	09:26:48	09:33:32	399758	5c18c248acd3f30001459833	3	1	main_slash	7	main_slash	105	stimuli_distractor_trianglediamonds.svg	stimuli_target_trianglesquares.svg	26	yes	53	1	921	0	0			0	0			1				0	
6.6.1	win	2023-07-10	09:26:48	09:33:32	399758	5c18c248acd3f30001459833	3	1	main_slash	7	advance_on_keypress_SLASH	106	stimuli_distractor_trianglediamonds.svg	stimuli_target_trianglesquares.svg	26	yes	57	0	660	0	0			0	0			1				0	
6.6.1	win	2023-07-10	09:26:48	09:33:34	401710	5c18c248acd3f30001459833	3	1	main_slash	7	main_slash	107	stimuli_target_squaretriangles.svg	stimuli_distractor_trianglediamonds.svg	3	yes	53	1	657	0	0			0	0			1				0	
6.6.1	win	2023-07-10	09:26:48	09:33:34	401710	5c18c248acd3f30001459833	3	1	main_slash	7	advance_on_keypress_SLASH	108	stimuli_target_squaretriangles.svg	stimuli_distractor_trianglediamonds.svg	3	yes	57	0	390	0	0			0	0			1				0	
6.6.1	win	2023-07-10	09:26:48	09:33:36	403918	5c18c248acd3f30001459833	3	1	main_slash	7	main_slash	109	stimuli_distractor_diamondtriangles.svg	stimuli_target_trianglerectangles.svg	29	yes	53	1	1181	0	0			0	0			1				0	
6.6.1	win	2023-07-10	09:26:48	09:33:36	403918	5c18c248acd3f30001459833	3	1	main_slash	7	advance_on_keypress_SLASH	110	stimuli_distractor_diamondtriangles.svg	stimuli_target_trianglerectangles.svg	29	yes	57	0	509	0	0			0	0			1				0	
6.6.1	win	2023-07-10	09:26:48	09:33:39	406254	5c18c248acd3f30001459833	3	1	main_slash	7	main_slash	111	stimuli_target_trianglesquares.svg	stimuli_distractor_trianglediamonds.svg	18	yes	53	1	1184	0	0			0	0			1				0	
6.6.1	win	2023-07-10	09:26:48	09:33:39	406254	5c18c248acd3f30001459833	3	1	main_slash	7	advance_on_keypress_SLASH	112	stimuli_target_trianglesquares.svg	stimuli_distractor_trianglediamonds.svg	18	yes	57	0	432	0	0			0	0			1				0	
6.6.1	win	2023-07-10	09:26:48	09:33:41	408238	5c18c248acd3f30001459833	3	1	main_slash	7	main_slash	113	stimuli_distractor_diamondtriangles.svg	stimuli_target_trianglesquares.svg	30	yes	53	1	901	0	0			0	0			1				0	
6.6.1	win	2023-07-10	09:26:48	09:33:41	408238	5c18c248acd3f30001459833	3	1	main_slash	7	advance_on_keypress_SLASH	114	stimuli_distractor_diamondtriangles.svg	stimuli_target_trianglesquares.svg	30	yes	57	0	465	0	0			0	0			1				0	
6.6.1	win	2023-07-10	09:26:48	09:33:44	411353	5c18c248acd3f30001459833	3	1	main_slash	7	main_slash	115	stimuli_distractor_trianglediamonds.svg	stimuli_distractor_trianglediamonds.svg	33	no	0	1	2000	0	0			0	0			1				0	
6.6.1	win	2023-07-10	09:26:48	09:33:44	411353	5c18c248acd3f30001459833	3	1	main_slash	7	advance_on_keypress_SLASH	116	stimuli_distractor_trianglediamonds.svg	stimuli_distractor_trianglediamonds.svg	33	no	57	0	292	0	0			0	0			1				0	
6.6.1	win	2023-07-10	09:26:48	09:33:46	413118	5c18c248acd3f30001459833	3	1	main_slash	7	main_slash	117	stimuli_distractor_trianglediamonds.svg	stimuli_target_squarediamonds.svg	12	yes	53	1	831	0	0			0	0			1				0	
6.6.1	win	2023-07-10	09:26:48	09:33:46	413118	5c18c248acd3f30001459833	3	1	main_slash	7	advance_on_keypress_SLASH	118	stimuli_distractor_trianglediamonds.svg	stimuli_target_squarediamonds.svg	12	yes	57	0	4669	0	0			0	0			1				0	
6.6.1	win	2023-07-10	09:26:48	09:33:52	419230	5c18c248acd3f30001459833	3	1	main_slash	7	main_slash	119	stimuli_target_squaretriangles.svg	stimuli_distractor_diamondtriangles.svg	7	yes	53	1	793	0	0			0	0			1				0	
6.6.1	win	2023-07-10	09:26:48	09:33:52	419230	5c18c248acd3f30001459833	3	1	main_slash	7	advance_on_keypress_SLASH	120	stimuli_target_squaretriangles.svg	stimuli_distractor_diamondtriangles.svg	7	yes	57	0	1401	0	0			0	0			1				0	
6.6.1	win	2023-07-10	09:26:48	09:33:55	422350	5c18c248acd3f30001459833	3	1	main_slash	7	main_slash	121	stimuli_distractor_diamondtriangles.svg	stimuli_target_diamondrectangles.svg	31	yes	53	1	1080	0	0			0	0			1				0	
6.6.1	win	2023-07-10	09:26:48	09:33:55	422350	5c18c248acd3f30001459833	3	1	main_slash	7	advance_on_keypress_SLASH	122	stimuli_distractor_diamondtriangles.svg	stimuli_target_diamondrectangles.svg	31	yes	57	0	396	0	0			0	0			1				0	
6.6.1	win	2023-07-10	09:26:48	09:33:58	425403	5c18c248acd3f30001459833	3	1	main_slash	7	main_slash	123	stimuli_target_diamondrectangles.svg	stimuli_distractor_diamondtriangles.svg	23	yes	0	0	2000	0	0			0	0			1				0	
6.6.1	win	2023-07-10	09:26:48	09:33:58	425403	5c18c248acd3f30001459833	3	1	main_slash	7	advance_on_keypress_SLASH	124	stimuli_target_diamondrectangles.svg	stimuli_distractor_diamondtriangles.svg	23	yes	57	0	866	0	0			0	0			1				0	
6.6.1	win	2023-07-10	09:26:48	09:34:00	427742	5c18c248acd3f30001459833	3	1	main_slash	7	main_slash	125	stimuli_target_rectanglediamonds.svg	stimuli_distractor_trianglediamonds.svg	2	yes	53	1	822	0	0			0	0			1				0	
6.6.1	win	2023-07-10	09:26:48	09:34:00	427742	5c18c248acd3f30001459833	3	1	main_slash	7	advance_on_keypress_SLASH	126	stimuli_target_rectanglediamonds.svg	stimuli_distractor_trianglediamonds.svg	2	yes	57	0	997	0	0			0	0			1				0	
6.6.1	win	2023-07-10	09:26:48	09:34:04	431387	5c18c248acd3f30001459833	3	1	main_slash	7	main_slash	127	stimuli_target_diamondsquares.svg	stimuli_distractor_trianglediamonds.svg	20	yes	0	0	2000	0	0			0	0			1				0	
6.6.1	win	2023-07-10	09:26:48	09:34:04	431387	5c18c248acd3f30001459833	3	1	main_slash	7	advance_on_keypress_SLASH	128	stimuli_target_diamondsquares.svg	stimuli_distractor_trianglediamonds.svg	20	yes	57	0	1059	0	0			0	0			1				0	
6.6.1	win	2023-07-10	09:26:48	09:34:07	434366	5c18c248acd3f30001459833	3	1	main_slash	7	main_slash	129	stimuli_target_diamondsquares.svg	stimuli_distractor_diamondtriangles.svg	24	yes	53	1	1279	0	0			0	0			1				0	
6.6.1	win	2023-07-10	09:26:48	09:34:07	434366	5c18c248acd3f30001459833	3	1	main_slash	7	advance_on_keypress_SLASH	130	stimuli_target_diamondsquares.svg	stimuli_distractor_diamondtriangles.svg	24	yes	57	0	4507	0	0			0	0			1				0	
6.6.1	win	2023-07-10	09:26:48	09:34:13	439998	5c18c248acd3f30001459833	3	1	main_slash	7	main_slash	131	stimuli_distractor_diamondtriangles.svg	stimuli_target_squaretriangles.svg	15	yes	53	1	478	0	0			0	0			1				0	
6.6.1	win	2023-07-10	09:26:48	09:34:13	439998	5c18c248acd3f30001459833	3	1	main_slash	7	advance_on_keypress_SLASH	132	stimuli_distractor_diamondtriangles.svg	stimuli_target_squaretriangles.svg	15	yes	57	0	586	0	0			0	0			1				0	
6.6.1	win	2023-07-10	09:26:48	09:34:16	443237	5c18c248acd3f30001459833	3	1	main_slash	7	main_slash	133	stimuli_distractor_diamondtriangles.svg	stimuli_distractor_diamondtriangles.svg	39	no	0	1	2000	0	0			0	0			1				0	
6.6.1	win	2023-07-10	09:26:48	09:34:16	443237	5c18c248acd3f30001459833	3	1	main_slash	7	advance_on_keypress_SLASH	134	stimuli_distractor_diamondtriangles.svg	stimuli_distractor_diamondtriangles.svg	39	no	57	0	409	0	0			0	0			1				0	
6.6.1	win	2023-07-10	09:26:48	09:34:18	445182	5c18c248acd3f30001459833	3	1	main_slash	7	main_slash	135	stimuli_target_diamondrectangles.svg	stimuli_distractor_trianglediamonds.svg	19	yes	53	1	895	0	0			0	0			1				0	
6.6.1	win	2023-07-10	09:26:48	09:34:18	445182	5c18c248acd3f30001459833	3	1	main_slash	7	advance_on_keypress_SLASH	136	stimuli_target_diamondrectangles.svg	stimuli_distractor_trianglediamonds.svg	19	yes	57	0	651	0	0			0	0			1				0	
6.6.1	win	2023-07-10	09:26:48	09:34:20	447710	5c18c248acd3f30001459833	3	1	main_slash	7	main_slash	137	stimuli_distractor_diamondtriangles.svg	stimuli_target_rectangletriangles.svg	13	yes	53	1	1240	0	0			0	0			1				0	
6.6.1	win	2023-07-10	09:26:48	09:34:20	447710	5c18c248acd3f30001459833	3	1	main_slash	7	advance_on_keypress_SLASH	138	stimuli_distractor_diamondtriangles.svg	stimuli_target_rectangletriangles.svg	13	yes	57	0	790	0	0			0	0			1				0	
6.6.1	win	2023-07-10	09:26:48	09:34:22	449652	5c18c248acd3f30001459833	3	1	main_slash	7	main_slash	139	stimuli_distractor_diamondtriangles.svg	stimuli_target_rectanglediamonds.svg	14	yes	53	1	509	0	0			0	0			1				0	
6.6.1	win	2023-07-10	09:26:48	09:34:22	449652	5c18c248acd3f30001459833	3	1	main_slash	7	advance_on_keypress_SLASH	140	stimuli_distractor_diamondtriangles.svg	stimuli_target_rectanglediamonds.svg	14	yes	57	0	536	0	0			0	0			1				0	
6.6.1	win	2023-07-10	09:26:48	09:34:25	452837	5c18c248acd3f30001459833	3	1	main_slash	7	main_slash	141	stimuli_distractor_trianglediamonds.svg	stimuli_distractor_diamondtriangles.svg	35	no	0	1	2000	0	0			0	0			1				0	
6.6.1	win	2023-07-10	09:26:48	09:34:25	452837	5c18c248acd3f30001459833	3	1	main_slash	7	advance_on_keypress_SLASH	142	stimuli_distractor_trianglediamonds.svg	stimuli_distractor_diamondtriangles.svg	35	no	57	0	297	0	0			0	0			1				0	
6.6.1	win	2023-07-10	09:26:48	09:34:27	454606	5c18c248acd3f30001459833	3	1	main_slash	7	main_slash	143	stimuli_distractor_trianglediamonds.svg	stimuli_target_rectanglediamonds.svg	10	yes	53	1	819	0	0			0	0			1				0	
6.6.1	win	2023-07-10	09:26:48	09:34:27	454606	5c18c248acd3f30001459833	3	1	main_slash	7	advance_on_keypress_SLASH	144	stimuli_distractor_trianglediamonds.svg	stimuli_target_rectanglediamonds.svg	10	yes	57	0	1426	0	0			0	0			1				0	
6.6.1	win	2023-07-10	09:26:48	09:34:31	457950	5c18c248acd3f30001459833	3	1	main_slash	7	main_slash	145	stimuli_distractor_trianglediamonds.svg	stimuli_target_trianglerectangles.svg	25	yes	53	1	1263	0	0			0	0			1				0	
6.6.1	win	2023-07-10	09:26:48	09:34:31	457950	5c18c248acd3f30001459833	3	1	main_slash	7	advance_on_keypress_SLASH	146	stimuli_distractor_trianglediamonds.svg	stimuli_target_trianglerectangles.svg	25	yes	57	0	332	0	0			0	0			1				0	
6.6.1	win	2023-07-10	09:26:48	09:34:34	460937	5c18c248acd3f30001459833	3	1	main_slash	7	main_slash	147	stimuli_distractor_trianglediamonds.svg	stimuli_distractor_diamondtriangles.svg	36	no	0	1	2000	0	0			0	0			1				0	
6.6.1	win	2023-07-10	09:26:48	09:34:34	460937	5c18c248acd3f30001459833	3	1	main_slash	7	advance_on_keypress_SLASH	148	stimuli_distractor_trianglediamonds.svg	stimuli_distractor_diamondtriangles.svg	36	no	57	0	405	0	0			0	0			1				0	
6.6.1	win	2023-07-10	09:26:48	09:34:36	462991	5c18c248acd3f30001459833	3	1	main_slash	7	main_slash	149	stimuli_distractor_trianglediamonds.svg	stimuli_target_diamondrectangles.svg	27	yes	53	1	1003	0	0			0	0			1				0	
6.6.1	win	2023-07-10	09:26:48	09:34:36	462991	5c18c248acd3f30001459833	3	1	main_slash	7	advance_on_keypress_SLASH	150	stimuli_distractor_trianglediamonds.svg	stimuli_target_diamondrectangles.svg	27	yes	57	0	547	0	0			0	0			1				0	
6.6.1	win	2023-07-10	09:26:48	09:34:39	466187	5c18c248acd3f30001459833	3	1	main_slash	7	main_slash	151	stimuli_distractor_diamondtriangles.svg	stimuli_distractor_diamondtriangles.svg	40	no	0	1	2000	0	0			0	0			1				0	
6.6.1	win	2023-07-10	09:26:48	09:34:39	466187	5c18c248acd3f30001459833	3	1	main_slash	7	advance_on_keypress_SLASH	152	stimuli_distractor_diamondtriangles.svg	stimuli_distractor_diamondtriangles.svg	40	no	57	0	355	0	0			0	0			1				0	
6.6.1	win	2023-07-10	09:26:48	09:34:40	467854	5c18c248acd3f30001459833	3	1	main_slash	7	main_slash	153	stimuli_distractor_trianglediamonds.svg	stimuli_target_squaretriangles.svg	11	yes	53	1	667	0	0			0	0			1				0	
6.6.1	win	2023-07-10	09:26:48	09:34:40	467854	5c18c248acd3f30001459833	3	1	main_slash	7	advance_on_keypress_SLASH	154	stimuli_distractor_trianglediamonds.svg	stimuli_target_squaretriangles.svg	11	yes	57	0	432	0	0			0	0			1				0	
6.6.1	win	2023-07-10	09:26:48	09:34:44	470937	5c18c248acd3f30001459833	3	1	main_slash	7	main_slash	155	stimuli_distractor_diamondtriangles.svg	stimuli_distractor_trianglediamonds.svg	37	no	0	1	2000	0	0			0	0			1				0	
6.6.1	win	2023-07-10	09:26:48	09:34:44	470937	5c18c248acd3f30001459833	3	1	main_slash	7	advance_on_keypress_SLASH	156	stimuli_distractor_diamondtriangles.svg	stimuli_distractor_trianglediamonds.svg	37	no	57	0	357	0	0			0	0			1				0	
6.6.1	win	2023-07-10	09:26:48	09:34:45	472590	5c18c248acd3f30001459833	3	1	main_slash	7	main_slash	157	stimuli_target_rectanglediamonds.svg	stimuli_distractor_diamondtriangles.svg	6	yes	53	1	653	0	0			0	0			1				0	
6.6.1	win	2023-07-10	09:26:48	09:34:45	472590	5c18c248acd3f30001459833	3	1	main_slash	7	advance_on_keypress_SLASH	158	stimuli_target_rectanglediamonds.svg	stimuli_distractor_diamondtriangles.svg	6	yes	57	0	851	0	0			0	0			1				0	
6.6.1	win	2023-07-10	09:26:48	09:34:48	475054	5c18c248acd3f30001459833	3	1	main_slash	7	main_slash	159	stimuli_target_rectangletriangles.svg	stimuli_distractor_diamondtriangles.svg	5	yes	53	1	967	0	0			0	0			1				0	
6.6.1	win	2023-07-10	09:26:48	09:34:48	475054	5c18c248acd3f30001459833	3	1	main_slash	7	advance_on_keypress_SLASH	160	stimuli_target_rectangletriangles.svg	stimuli_distractor_diamondtriangles.svg	5	yes	57	0	1328	0	0			0	0			1				0	
6.6.1	win	2023-07-10	09:26:48	09:35:05	492425	5c18c248acd3f30001459833	3	1	practice_z	9	practice_z	1	stimuli_distractor_trianglediamonds.svg	stimuli_target_rectanglediamonds.svg	10	yes	44	1	552	0	0			0	0			1				0	
6.6.1	win	2023-07-10	09:26:48	09:35:05	492425	5c18c248acd3f30001459833	3	1	practice_z	9	advance_on_keypress_ZEE	2	stimuli_distractor_trianglediamonds.svg	stimuli_target_rectanglediamonds.svg	10	yes	57	0	1049	0	0			0	0			1				0	
6.6.1	win	2023-07-10	09:26:48	09:35:09	496009	5c18c248acd3f30001459833	3	1	practice_z	9	practice_z	3	stimuli_distractor_trianglediamonds.svg	stimuli_target_diamondrectangles.svg	12	yes	44	1	886	0	0			0	0			1				0	
6.6.1	win	2023-07-10	09:26:48	09:35:09	496009	5c18c248acd3f30001459833	3	1	practice_z	9	advance_on_keypress_ZEE	4	stimuli_distractor_trianglediamonds.svg	stimuli_target_diamondrectangles.svg	12	yes	57	0	410	0	0			0	0			1				0	
6.6.1	win	2023-07-10	09:26:48	09:35:11	498633	5c18c248acd3f30001459833	3	1	practice_z	9	practice_z	5	stimuli_target_rectanglediamonds.svg	stimuli_distractor_trianglediamonds.svg	4	yes	44	1	577	0	0			0	0			1				0	
6.6.1	win	2023-07-10	09:26:48	09:35:11	498633	5c18c248acd3f30001459833	3	1	practice_z	9	advance_on_keypress_ZEE	6	stimuli_target_rectanglediamonds.svg	stimuli_distractor_trianglediamonds.svg	4	yes	57	0	433	0	0			0	0			1				0	
6.6.1	win	2023-07-10	09:26:48	09:35:14	501625	5c18c248acd3f30001459833	3	1	practice_z	9	practice_z	7	stimuli_distractor_diamondtriangles.svg	stimuli_target_diamondrectangles.svg	8	yes	44	1	902	0	0			0	0			1				0	
6.6.1	win	2023-07-10	09:26:48	09:35:14	501625	5c18c248acd3f30001459833	3	1	practice_z	9	advance_on_keypress_ZEE	8	stimuli_distractor_diamondtriangles.svg	stimuli_target_diamondrectangles.svg	8	yes	57	0	489	0	0			0	0			1				0	
6.6.1	win	2023-07-10	09:26:48	09:35:17	504473	5c18c248acd3f30001459833	3	1	practice_z	9	practice_z	9	stimuli_target_rectanglediamonds.svg	stimuli_distractor_diamondtriangles.svg	1	yes	44	1	717	0	0			0	0			1				0	
6.6.1	win	2023-07-10	09:26:48	09:35:17	504473	5c18c248acd3f30001459833	3	1	practice_z	9	advance_on_keypress_ZEE	10	stimuli_target_rectanglediamonds.svg	stimuli_distractor_diamondtriangles.svg	1	yes	57	0	359	0	0			0	0			1				0	
6.6.1	win	2023-07-10	09:26:48	09:35:20	507128	5c18c248acd3f30001459833	3	1	practice_z	9	practice_z	11	stimuli_target_squarediamonds.svg	stimuli_distractor_trianglediamonds.svg	5	yes	44	1	656	0	0			0	0			1				0	
6.6.1	win	2023-07-10	09:26:48	09:35:20	507128	5c18c248acd3f30001459833	3	1	practice_z	9	advance_on_keypress_ZEE	12	stimuli_target_squarediamonds.svg	stimuli_distractor_trianglediamonds.svg	5	yes	57	0	333	0	0			0	0			1				0	
6.6.1	win	2023-07-10	09:26:48	09:35:24	511107	5c18c248acd3f30001459833	3	1	practice_z	9	practice_z	13	stimuli_distractor_diamondtriangles.svg	stimuli_distractor_diamondtriangles.svg	13	no	0	1	2000	0	0			0	0			1				0	
6.6.1	win	2023-07-10	09:26:48	09:35:24	511107	5c18c248acd3f30001459833	3	1	practice_z	9	advance_on_keypress_ZEE	14	stimuli_distractor_diamondtriangles.svg	stimuli_distractor_diamondtriangles.svg	13	no	57	0	318	0	0			0	0			1				0	
6.6.1	win	2023-07-10	09:26:48	09:35:28	515072	5c18c248acd3f30001459833	3	1	practice_z	9	practice_z	15	stimuli_distractor_trianglediamonds.svg	stimuli_distractor_trianglediamonds.svg	15	no	0	1	2000	0	0			0	0			1				0	
6.6.1	win	2023-07-10	09:26:48	09:35:28	515072	5c18c248acd3f30001459833	3	1	practice_z	9	advance_on_keypress_ZEE	16	stimuli_distractor_trianglediamonds.svg	stimuli_distractor_trianglediamonds.svg	15	no	57	0	463	0	0			0	0			1				0	
6.6.1	win	2023-07-10	09:26:48	09:35:30	517640	5c18c248acd3f30001459833	3	1	practice_z	9	practice_z	17	stimuli_target_squarediamonds.svg	stimuli_distractor_diamondtriangles.svg	2	yes	44	1	451	0	0			0	0			1				0	
6.6.1	win	2023-07-10	09:26:48	09:35:30	517640	5c18c248acd3f30001459833	3	1	practice_z	9	advance_on_keypress_ZEE	18	stimuli_target_squarediamonds.svg	stimuli_distractor_diamondtriangles.svg	2	yes	57	0	329	0	0			0	0			1				0	
6.6.1	win	2023-07-10	09:26:48	09:35:33	520297	5c18c248acd3f30001459833	3	1	practice_z	9	practice_z	19	stimuli_target_diamondsquares.svg	stimuli_distractor_trianglediamonds.svg	6	yes	44	1	674	0	0			0	0			1				0	
6.6.1	win	2023-07-10	09:26:48	09:35:33	520297	5c18c248acd3f30001459833	3	1	practice_z	9	advance_on_keypress_ZEE	20	stimuli_target_diamondsquares.svg	stimuli_distractor_trianglediamonds.svg	6	yes	57	0	335	0	0			0	0			1				0	
6.6.1	win	2023-07-10	09:26:48	09:35:36	523226	5c18c248acd3f30001459833	3	1	practice_z	9	practice_z	21	stimuli_distractor_diamondtriangles.svg	stimuli_target_trianglerectangles.svg	9	yes	44	1	952	0	0			0	0			1				0	
6.6.1	win	2023-07-10	09:26:48	09:35:36	523226	5c18c248acd3f30001459833	3	1	practice_z	9	advance_on_keypress_ZEE	22	stimuli_distractor_diamondtriangles.svg	stimuli_target_trianglerectangles.svg	9	yes	57	0	393	0	0			0	0			1				0	
6.6.1	win	2023-07-10	09:26:48	09:35:38	525832	5c18c248acd3f30001459833	3	1	practice_z	9	practice_z	23	stimuli_distractor_trianglediamonds.svg	stimuli_target_squarediamonds.svg	11	yes	44	1	560	0	0			0	0			1				0	
6.6.1	win	2023-07-10	09:26:48	09:35:38	525832	5c18c248acd3f30001459833	3	1	practice_z	9	advance_on_keypress_ZEE	24	stimuli_distractor_trianglediamonds.svg	stimuli_target_squarediamonds.svg	11	yes	57	0	385	0	0			0	0			1				0	
6.6.1	win	2023-07-10	09:26:48	09:35:42	529481	5c18c248acd3f30001459833	3	1	practice_z	9	practice_z	25	stimuli_distractor_diamondtriangles.svg	stimuli_distractor_trianglediamonds.svg	14	no	44	0	1625	0	0			0	0			1				0	
6.6.1	win	2023-07-10	09:26:48	09:35:42	529481	5c18c248acd3f30001459833	3	1	practice_z	9	advance_on_keypress_ZEE	26	stimuli_distractor_diamondtriangles.svg	stimuli_distractor_trianglediamonds.svg	14	no	57	0	431	0	0			0	0			1				0	
6.6.1	win	2023-07-10	09:26:48	09:35:45	532122	5c18c248acd3f30001459833	3	1	practice_z	9	practice_z	27	stimuli_target_diamondsquares.svg	stimuli_distractor_diamondtriangles.svg	3	yes	44	1	565	0	0			0	0			1				0	
6.6.1	win	2023-07-10	09:26:48	09:35:45	532122	5c18c248acd3f30001459833	3	1	practice_z	9	advance_on_keypress_ZEE	28	stimuli_target_diamondsquares.svg	stimuli_distractor_diamondtriangles.svg	3	yes	57	0	341	0	0			0	0			1				0	
6.6.1	win	2023-07-10	09:26:48	09:35:49	536107	5c18c248acd3f30001459833	3	1	practice_z	9	practice_z	29	stimuli_distractor_trianglediamonds.svg	stimuli_distractor_diamondtriangles.svg	16	no	0	1	2000	0	0			0	0			1				0	
6.6.1	win	2023-07-10	09:26:48	09:35:49	536107	5c18c248acd3f30001459833	3	1	practice_z	9	advance_on_keypress_ZEE	30	stimuli_distractor_trianglediamonds.svg	stimuli_distractor_diamondtriangles.svg	16	no	57	0	150	0	0			0	0			1				0	
6.6.1	win	2023-07-10	09:26:48	09:35:51	538297	5c18c248acd3f30001459833	3	1	practice_z	9	practice_z	31	stimuli_distractor_diamondtriangles.svg	stimuli_target_rectangletriangles.svg	7	yes	44	1	391	0	0			0	0			1				0	
6.6.1	win	2023-07-10	09:26:48	09:35:51	538297	5c18c248acd3f30001459833	3	1	practice_z	9	advance_on_keypress_ZEE	32	stimuli_distractor_diamondtriangles.svg	stimuli_target_rectangletriangles.svg	7	yes	57	0	479	0	0			0	0			1				0	
6.6.1	win	2023-07-10	09:26:48	09:35:55	542414	5c18c248acd3f30001459833	3	1	main_z	11	main_z	1	stimuli_target_trianglesquares.svg	stimuli_distractor_trianglediamonds.svg	18	yes	44	1	594	0	0			0	0			1				0	
6.6.1	win	2023-07-10	09:26:48	09:35:55	542414	5c18c248acd3f30001459833	3	1	main_z	11	advance_on_keypress_ZEE	2	stimuli_target_trianglesquares.svg	stimuli_distractor_trianglediamonds.svg	18	yes	57	0	714	0	0			0	0			1				0	
6.6.1	win	2023-07-10	09:26:48	09:35:57	544414	5c18c248acd3f30001459833	3	1	main_z	11	main_z	3	stimuli_distractor_trianglediamonds.svg	stimuli_target_rectanglediamonds.svg	10	yes	44	1	644	0	0			0	0			1				0	
6.6.1	win	2023-07-10	09:26:48	09:35:57	544414	5c18c248acd3f30001459833	3	1	main_z	11	advance_on_keypress_ZEE	4	stimuli_distractor_trianglediamonds.svg	stimuli_target_rectanglediamonds.svg	10	yes	57	0	346	0	0			0	0			1				0	
6.6.1	win	2023-07-10	09:26:48	09:35:59	546335	5c18c248acd3f30001459833	3	1	main_z	11	main_z	5	stimuli_distractor_trianglediamonds.svg	stimuli_target_rectangletriangles.svg	9	yes	44	1	931	0	0			0	0			1				0	
6.6.1	win	2023-07-10	09:26:48	09:35:59	546335	5c18c248acd3f30001459833	3	1	main_z	11	advance_on_keypress_ZEE	6	stimuli_distractor_trianglediamonds.svg	stimuli_target_rectangletriangles.svg	9	yes	57	0	269	0	0			0	0			1				0	
6.6.1	win	2023-07-10	09:26:48	09:36:01	548158	5c18c248acd3f30001459833	3	1	main_z	11	main_z	7	stimuli_target_diamondsquares.svg	stimuli_distractor_diamondtriangles.svg	24	yes	44	1	905	0	0			0	0			1				0	
6.6.1	win	2023-07-10	09:26:48	09:36:01	548158	5c18c248acd3f30001459833	3	1	main_z	11	advance_on_keypress_ZEE	8	stimuli_target_diamondsquares.svg	stimuli_distractor_diamondtriangles.svg	24	yes	57	0	212	0	0			0	0			1				0	
6.6.1	win	2023-07-10	09:26:48	09:36:02	549854	5c18c248acd3f30001459833	3	1	main_z	11	main_z	9	stimuli_distractor_diamondtriangles.svg	stimuli_target_squaretriangles.svg	15	yes	44	1	834	0	0			0	0			1				0	
6.6.1	win	2023-07-10	09:26:48	09:36:02	549854	5c18c248acd3f30001459833	3	1	main_z	11	advance_on_keypress_ZEE	10	stimuli_distractor_diamondtriangles.svg	stimuli_target_squaretriangles.svg	15	yes	57	0	192	0	0			0	0			1				0	
6.6.1	win	2023-07-10	09:26:48	09:36:05	552687	5c18c248acd3f30001459833	3	1	main_z	11	main_z	11	stimuli_distractor_trianglediamonds.svg	stimuli_target_squaretriangles.svg	11	yes	0	0	2000	0	0			0	0			1				0	
6.6.1	win	2023-07-10	09:26:48	09:36:05	552687	5c18c248acd3f30001459833	3	1	main_z	11	advance_on_keypress_ZEE	12	stimuli_distractor_trianglediamonds.svg	stimuli_target_squaretriangles.svg	11	yes	57	0	543	0	0			0	0			1				0	
6.6.1	win	2023-07-10	09:26:48	09:36:08	555166	5c18c248acd3f30001459833	3	1	main_z	11	main_z	13	stimuli_target_diamondrectangles.svg	stimuli_distractor_diamondtriangles.svg	23	yes	44	1	1296	0	0			0	0			1				0	
6.6.1	win	2023-07-10	09:26:48	09:36:08	555166	5c18c248acd3f30001459833	3	1	main_z	11	advance_on_keypress_ZEE	14	stimuli_target_diamondrectangles.svg	stimuli_distractor_diamondtriangles.svg	23	yes	57	0	363	0	0			0	0			1				0	
6.6.1	win	2023-07-10	09:26:48	09:36:11	558187	5c18c248acd3f30001459833	3	1	main_z	11	main_z	15	stimuli_distractor_trianglediamonds.svg	stimuli_target_trianglerectangles.svg	25	yes	0	0	2000	0	0			0	0			1				0	
6.6.1	win	2023-07-10	09:26:48	09:36:11	558187	5c18c248acd3f30001459833	3	1	main_z	11	advance_on_keypress_ZEE	16	stimuli_distractor_trianglediamonds.svg	stimuli_target_trianglerectangles.svg	25	yes	57	0	1539	0	0			0	0			1				0	
6.6.1	win	2023-07-10	09:26:48	09:36:13	560798	5c18c248acd3f30001459833	3	1	main_z	11	main_z	17	stimuli_target_rectanglediamonds.svg	stimuli_distractor_diamondtriangles.svg	6	yes	44	1	428	0	0			0	0			1				0	
6.6.1	win	2023-07-10	09:26:48	09:36:13	560798	5c18c248acd3f30001459833	3	1	main_z	11	advance_on_keypress_ZEE	18	stimuli_target_rectanglediamonds.svg	stimuli_distractor_diamondtriangles.svg	6	yes	57	0	187	0	0			0	0			1				0	
6.6.1	win	2023-07-10	09:26:48	09:36:16	563310	5c18c248acd3f30001459833	3	1	main_z	11	main_z	19	stimuli_distractor_diamondtriangles.svg	stimuli_target_diamondsquares.svg	32	yes	44	1	1690	0	0			0	0			1				0	
6.6.1	win	2023-07-10	09:26:48	09:36:16	563310	5c18c248acd3f30001459833	3	1	main_z	11	advance_on_keypress_ZEE	20	stimuli_distractor_diamondtriangles.svg	stimuli_target_diamondsquares.svg	32	yes	57	0	198	0	0			0	0			1				0	
6.6.1	win	2023-07-10	09:26:48	09:36:19	566154	5c18c248acd3f30001459833	3	1	main_z	11	main_z	21	stimuli_distractor_diamondtriangles.svg	stimuli_distractor_diamondtriangles.svg	40	no	0	1	2000	0	0			0	0			1				0	
6.6.1	win	2023-07-10	09:26:48	09:36:19	566154	5c18c248acd3f30001459833	3	1	main_z	11	advance_on_keypress_ZEE	22	stimuli_distractor_diamondtriangles.svg	stimuli_distractor_diamondtriangles.svg	40	no	57	0	308	0	0			0	0			1				0	
6.6.1	win	2023-07-10	09:26:48	09:36:20	567663	5c18c248acd3f30001459833	3	1	main_z	11	main_z	23	stimuli_distractor_diamondtriangles.svg	stimuli_target_rectanglediamonds.svg	14	yes	44	1	559	0	0			0	0			1				0	
6.6.1	win	2023-07-10	09:26:48	09:36:20	567663	5c18c248acd3f30001459833	3	1	main_z	11	advance_on_keypress_ZEE	24	stimuli_distractor_diamondtriangles.svg	stimuli_target_rectanglediamonds.svg	14	yes	57	0	232	0	0			0	0			1				0	
6.6.1	win	2023-07-10	09:26:48	09:36:22	569262	5c18c248acd3f30001459833	3	1	main_z	11	main_z	25	stimuli_target_diamondsquares.svg	stimuli_distractor_trianglediamonds.svg	20	yes	44	1	725	0	0			0	0			1				0	
6.6.1	win	2023-07-10	09:26:48	09:36:22	569262	5c18c248acd3f30001459833	3	1	main_z	11	advance_on_keypress_ZEE	26	stimuli_target_diamondsquares.svg	stimuli_distractor_trianglediamonds.svg	20	yes	57	0	184	0	0			0	0			1				0	
6.6.1	win	2023-07-10	09:26:48	09:36:25	572087	5c18c248acd3f30001459833	3	1	main_z	11	main_z	27	stimuli_distractor_diamondtriangles.svg	stimuli_distractor_trianglediamonds.svg	37	no	0	1	2000	0	0			0	0			1				0	
6.6.1	win	2023-07-10	09:26:48	09:36:25	572087	5c18c248acd3f30001459833	3	1	main_z	11	advance_on_keypress_ZEE	28	stimuli_distractor_diamondtriangles.svg	stimuli_distractor_trianglediamonds.svg	37	no	57	0	295	0	0			0	0			1				0	
6.6.1	win	2023-07-10	09:26:48	09:36:26	573918	5c18c248acd3f30001459833	3	1	main_z	11	main_z	29	stimuli_distractor_trianglediamonds.svg	stimuli_target_diamondsquares.svg	28	yes	44	1	898	0	0			0	0			1				0	
6.6.1	win	2023-07-10	09:26:48	09:36:26	573918	5c18c248acd3f30001459833	3	1	main_z	11	advance_on_keypress_ZEE	30	stimuli_distractor_trianglediamonds.svg	stimuli_target_diamondsquares.svg	28	yes	57	0	237	0	0			0	0			1				0	
6.6.1	win	2023-07-10	09:26:48	09:36:28	575438	5c18c248acd3f30001459833	3	1	main_z	11	main_z	31	stimuli_target_squarediamonds.svg	stimuli_distractor_trianglediamonds.svg	4	yes	44	1	635	0	0			0	0			1				0	
6.6.1	win	2023-07-10	09:26:48	09:36:28	575438	5c18c248acd3f30001459833	3	1	main_z	11	advance_on_keypress_ZEE	32	stimuli_target_squarediamonds.svg	stimuli_distractor_trianglediamonds.svg	4	yes	57	0	177	0	0			0	0			1				0	
6.6.1	win	2023-07-10	09:26:48	09:36:30	576990	5c18c248acd3f30001459833	3	1	main_z	11	main_z	33	stimuli_distractor_diamondtriangles.svg	stimuli_target_squarediamonds.svg	16	yes	44	1	737	0	0			0	0			1				0	
6.6.1	win	2023-07-10	09:26:48	09:36:30	576990	5c18c248acd3f30001459833	3	1	main_z	11	advance_on_keypress_ZEE	34	stimuli_distractor_diamondtriangles.svg	stimuli_target_squarediamonds.svg	16	yes	57	0	163	0	0			0	0			1				0	
6.6.1	win	2023-07-10	09:26:48	09:36:32	579804	5c18c248acd3f30001459833	3	1	main_z	11	main_z	35	stimuli_target_diamondrectangles.svg	stimuli_distractor_trianglediamonds.svg	19	yes	0	0	2000	0	0			0	0			1				0	
6.6.1	win	2023-07-10	09:26:48	09:36:32	579804	5c18c248acd3f30001459833	3	1	main_z	11	advance_on_keypress_ZEE	36	stimuli_target_diamondrectangles.svg	stimuli_distractor_trianglediamonds.svg	19	yes	57	0	306	0	0			0	0			1				0	
6.6.1	win	2023-07-10	09:26:48	09:36:34	581790	5c18c248acd3f30001459833	3	1	main_z	11	main_z	37	stimuli_distractor_diamondtriangles.svg	stimuli_target_diamondrectangles.svg	31	yes	44	1	1037	0	0			0	0			1				0	
6.6.1	win	2023-07-10	09:26:48	09:36:34	581790	5c18c248acd3f30001459833	3	1	main_z	11	advance_on_keypress_ZEE	38	stimuli_distractor_diamondtriangles.svg	stimuli_target_diamondrectangles.svg	31	yes	57	0	147	0	0			0	0			1				0	
6.6.1	win	2023-07-10	09:26:48	09:36:37	584587	5c18c248acd3f30001459833	3	1	main_z	11	main_z	39	stimuli_distractor_trianglediamonds.svg	stimuli_distractor_trianglediamonds.svg	34	no	0	1	2000	0	0			0	0			1				0	
6.6.1	win	2023-07-10	09:26:48	09:36:37	584587	5c18c248acd3f30001459833	3	1	main_z	11	advance_on_keypress_ZEE	40	stimuli_distractor_trianglediamonds.svg	stimuli_distractor_trianglediamonds.svg	34	no	57	0	1091	0	0			0	0			1				0	
6.6.1	win	2023-07-10	09:26:48	09:36:41	588320	5c18c248acd3f30001459833	3	1	main_z	11	main_z	41	stimuli_target_trianglesquares.svg	stimuli_distractor_diamondtriangles.svg	22	yes	0	0	2000	0	0			0	0			1				0	
6.6.1	win	2023-07-10	09:26:48	09:36:41	588320	5c18c248acd3f30001459833	3	1	main_z	11	advance_on_keypress_ZEE	42	stimuli_target_trianglesquares.svg	stimuli_distractor_diamondtriangles.svg	22	yes	57	0	893	0	0			0	0			1				0	
6.6.1	win	2023-07-10	09:26:48	09:36:43	590510	5c18c248acd3f30001459833	3	1	main_z	11	main_z	43	stimuli_target_rectangletriangles.svg	stimuli_distractor_diamondtriangles.svg	5	yes	44	1	657	0	0			0	0			1				0	
6.6.1	win	2023-07-10	09:26:48	09:36:43	590510	5c18c248acd3f30001459833	3	1	main_z	11	advance_on_keypress_ZEE	44	stimuli_target_rectangletriangles.svg	stimuli_distractor_diamondtriangles.svg	5	yes	57	0	2118	0	0			0	0			1				0	
6.6.1	win	2023-07-10	09:26:48	09:36:48	595271	5c18c248acd3f30001459833	3	1	main_z	11	main_z	45	stimuli_distractor_diamondtriangles.svg	stimuli_target_trianglerectangles.svg	29	yes	0	0	2000	0	0			0	0			1				0	
6.6.1	win	2023-07-10	09:26:48	09:36:48	595271	5c18c248acd3f30001459833	3	1	main_z	11	advance_on_keypress_ZEE	46	stimuli_distractor_diamondtriangles.svg	stimuli_target_trianglerectangles.svg	29	yes	57	0	679	0	0			0	0			1				0	
6.6.1	win	2023-07-10	09:26:48	09:36:50	597054	5c18c248acd3f30001459833	3	1	main_z	11	main_z	47	stimuli_target_rectangletriangles.svg	stimuli_distractor_trianglediamonds.svg	1	yes	44	1	451	0	0			0	0			1				0	
6.6.1	win	2023-07-10	09:26:48	09:36:50	597054	5c18c248acd3f30001459833	3	1	main_z	11	advance_on_keypress_ZEE	48	stimuli_target_rectangletriangles.svg	stimuli_distractor_trianglediamonds.svg	1	yes	57	0	1872	0	0			0	0			1				0	
6.6.1	win	2023-07-10	09:26:48	09:36:53	600302	5c18c248acd3f30001459833	3	1	main_z	11	main_z	49	stimuli_distractor_trianglediamonds.svg	stimuli_target_trianglesquares.svg	26	yes	44	1	732	0	0			0	0			1				0	
6.6.1	win	2023-07-10	09:26:48	09:36:53	600302	5c18c248acd3f30001459833	3	1	main_z	11	advance_on_keypress_ZEE	50	stimuli_distractor_trianglediamonds.svg	stimuli_target_trianglesquares.svg	26	yes	57	0	398	0	0			0	0			1				0	
6.6.1	win	2023-07-10	09:26:48	09:36:56	603353	5c18c248acd3f30001459833	3	1	main_z	11	main_z	51	stimuli_target_squaretriangles.svg	stimuli_distractor_trianglediamonds.svg	3	yes	0	0	2000	0	0			0	0			1				0	
6.6.1	win	2023-07-10	09:26:48	09:36:56	603353	5c18c248acd3f30001459833	3	1	main_z	11	advance_on_keypress_ZEE	52	stimuli_target_squaretriangles.svg	stimuli_distractor_trianglediamonds.svg	3	yes	57	0	388	0	0			0	0			1				0	
6.6.1	win	2023-07-10	09:26:48	09:36:58	605358	5c18c248acd3f30001459833	3	1	main_z	11	main_z	53	stimuli_target_trianglerectangles.svg	stimuli_distractor_trianglediamonds.svg	17	yes	44	1	971	0	0			0	0			1				0	
6.6.1	win	2023-07-10	09:26:48	09:36:58	605358	5c18c248acd3f30001459833	3	1	main_z	11	advance_on_keypress_ZEE	54	stimuli_target_trianglerectangles.svg	stimuli_distractor_trianglediamonds.svg	17	yes	57	0	468	0	0			0	0			1				0	
6.6.1	win	2023-07-10	09:26:48	09:37:01	608470	5c18c248acd3f30001459833	3	1	main_z	11	main_z	55	stimuli_distractor_diamondtriangles.svg	stimuli_distractor_trianglediamonds.svg	38	no	0	1	2000	0	0			0	0			1				0	
6.6.1	win	2023-07-10	09:26:48	09:37:01	608470	5c18c248acd3f30001459833	3	1	main_z	11	advance_on_keypress_ZEE	56	stimuli_distractor_diamondtriangles.svg	stimuli_distractor_trianglediamonds.svg	38	no	57	0	663	0	0			0	0			1				0	
6.6.1	win	2023-07-10	09:26:48	09:37:04	611787	5c18c248acd3f30001459833	3	1	main_z	11	main_z	57	stimuli_distractor_diamondtriangles.svg	stimuli_target_rectangletriangles.svg	13	yes	0	0	2000	0	0			0	0			1				0	
6.6.1	win	2023-07-10	09:26:48	09:37:04	611787	5c18c248acd3f30001459833	3	1	main_z	11	advance_on_keypress_ZEE	58	stimuli_distractor_diamondtriangles.svg	stimuli_target_rectangletriangles.svg	13	yes	57	0	163	0	0			0	0			1				0	
6.6.1	win	2023-07-10	09:26:48	09:37:07	614604	5c18c248acd3f30001459833	3	1	main_z	11	main_z	59	stimuli_distractor_trianglediamonds.svg	stimuli_distractor_diamondtriangles.svg	36	no	0	1	2000	0	0			0	0			1				0	
6.6.1	win	2023-07-10	09:26:48	09:37:07	614604	5c18c248acd3f30001459833	3	1	main_z	11	advance_on_keypress_ZEE	60	stimuli_distractor_trianglediamonds.svg	stimuli_distractor_diamondtriangles.svg	36	no	57	0	434	0	0			0	0			1				0	
6.6.1	win	2023-07-10	09:26:48	09:37:10	617687	5c18c248acd3f30001459833	3	1	main_z	11	main_z	61	stimuli_distractor_trianglediamonds.svg	stimuli_distractor_trianglediamonds.svg	33	no	0	1	2000	0	0			0	0			1				0	
6.6.1	win	2023-07-10	09:26:48	09:37:10	617687	5c18c248acd3f30001459833	3	1	main_z	11	advance_on_keypress_ZEE	62	stimuli_distractor_trianglediamonds.svg	stimuli_distractor_trianglediamonds.svg	33	no	57	0	631	0	0			0	0			1				0	
6.6.1	win	2023-07-10	09:26:48	09:37:12	619630	5c18c248acd3f30001459833	3	1	main_z	11	main_z	63	stimuli_target_squaretriangles.svg	stimuli_distractor_diamondtriangles.svg	7	yes	44	1	660	0	0			0	0			1				0	
6.6.1	win	2023-07-10	09:26:48	09:37:12	619630	5c18c248acd3f30001459833	3	1	main_z	11	advance_on_keypress_ZEE	64	stimuli_target_squaretriangles.svg	stimuli_distractor_diamondtriangles.svg	7	yes	57	0	7449	0	0			0	0			1				0	
6.6.1	win	2023-07-10	09:26:48	09:37:22	629721	5c18c248acd3f30001459833	3	1	main_z	11	main_z	65	stimuli_target_trianglerectangles.svg	stimuli_distractor_diamondtriangles.svg	21	yes	0	0	2000	0	0			0	0			1				0	
6.6.1	win	2023-07-10	09:26:48	09:37:22	629721	5c18c248acd3f30001459833	3	1	main_z	11	advance_on_keypress_ZEE	66	stimuli_target_trianglerectangles.svg	stimuli_distractor_diamondtriangles.svg	21	yes	57	0	374	0	0			0	0			1				0	
6.6.1	win	2023-07-10	09:26:48	09:37:25	632737	5c18c248acd3f30001459833	3	1	main_z	11	main_z	67	stimuli_distractor_diamondtriangles.svg	stimuli_distractor_diamondtriangles.svg	39	no	0	1	2000	0	0			0	0			1				0	
6.6.1	win	2023-07-10	09:26:48	09:37:25	632737	5c18c248acd3f30001459833	3	1	main_z	11	advance_on_keypress_ZEE	68	stimuli_distractor_diamondtriangles.svg	stimuli_distractor_diamondtriangles.svg	39	no	57	0	1069	0	0			0	0			1				0	
6.6.1	win	2023-07-10	09:26:48	09:37:29	636454	5c18c248acd3f30001459833	3	1	main_z	11	main_z	69	stimuli_distractor_diamondtriangles.svg	stimuli_target_trianglesquares.svg	30	yes	0	0	2000	0	0			0	0			1				0	
6.6.1	win	2023-07-10	09:26:48	09:37:29	636454	5c18c248acd3f30001459833	3	1	main_z	11	advance_on_keypress_ZEE	70	stimuli_distractor_diamondtriangles.svg	stimuli_target_trianglesquares.svg	30	yes	57	0	552	0	0			0	0			1				0	
6.6.1	win	2023-07-10	09:26:48	09:37:31	638191	5c18c248acd3f30001459833	3	1	main_z	11	main_z	71	stimuli_distractor_trianglediamonds.svg	stimuli_target_diamondrectangles.svg	27	yes	44	1	537	0	0			0	0			1				0	
6.6.1	win	2023-07-10	09:26:48	09:37:31	638191	5c18c248acd3f30001459833	3	1	main_z	11	advance_on_keypress_ZEE	72	stimuli_distractor_trianglediamonds.svg	stimuli_target_diamondrectangles.svg	27	yes	57	0	499	0	0			0	0			1				0	
6.6.1	win	2023-07-10	09:26:48	09:37:34	641337	5c18c248acd3f30001459833	3	1	main_z	11	main_z	73	stimuli_distractor_trianglediamonds.svg	stimuli_target_squarediamonds.svg	12	yes	0	0	2000	0	0			0	0			1				0	
6.6.1	win	2023-07-10	09:26:48	09:37:34	641337	5c18c248acd3f30001459833	3	1	main_z	11	advance_on_keypress_ZEE	74	stimuli_distractor_trianglediamonds.svg	stimuli_target_squarediamonds.svg	12	yes	57	0	293	0	0			0	0			1				0	
6.6.1	win	2023-07-10	09:26:48	09:37:37	644286	5c18c248acd3f30001459833	3	1	main_z	11	main_z	75	stimuli_distractor_trianglediamonds.svg	stimuli_distractor_diamondtriangles.svg	35	no	0	1	2000	0	0			0	0			1				0	
6.6.1	win	2023-07-10	09:26:48	09:37:37	644286	5c18c248acd3f30001459833	3	1	main_z	11	advance_on_keypress_ZEE	76	stimuli_distractor_trianglediamonds.svg	stimuli_distractor_diamondtriangles.svg	35	no	57	0	1055	0	0			0	0			1				0	
6.6.1	win	2023-07-10	09:26:48	09:37:39	646431	5c18c248acd3f30001459833	3	1	main_z	11	main_z	77	stimuli_target_squarediamonds.svg	stimuli_distractor_diamondtriangles.svg	8	yes	44	1	444	0	0			0	0			1				0	
6.6.1	win	2023-07-10	09:26:48	09:37:39	646431	5c18c248acd3f30001459833	3	1	main_z	11	advance_on_keypress_ZEE	78	stimuli_target_squarediamonds.svg	stimuli_distractor_diamondtriangles.svg	8	yes	57	0	473	0	0			0	0			1				0	
6.6.1	win	2023-07-10	09:26:48	09:37:41	647950	5c18c248acd3f30001459833	3	1	main_z	11	main_z	79	stimuli_target_rectanglediamonds.svg	stimuli_distractor_trianglediamonds.svg	2	yes	44	1	413	0	0			0	0			1				0	
6.6.1	win	2023-07-10	09:26:48	09:37:41	647950	5c18c248acd3f30001459833	3	1	main_z	11	advance_on_keypress_ZEE	80	stimuli_target_rectanglediamonds.svg	stimuli_distractor_trianglediamonds.svg	2	yes	57	0	332	0	0			0	0			1				0	
6.6.1	win	2023-07-10	09:26:48	09:37:44	650937	5c18c248acd3f30001459833	3	1	main_z	11	main_z	81	stimuli_distractor_trianglediamonds.svg	stimuli_distractor_diamondtriangles.svg	35	no	0	1	2000	0	0			0	0			1				0	
6.6.1	win	2023-07-10	09:26:48	09:37:44	650937	5c18c248acd3f30001459833	3	1	main_z	11	advance_on_keypress_ZEE	82	stimuli_distractor_trianglediamonds.svg	stimuli_distractor_diamondtriangles.svg	35	no	57	0	677	0	0			0	0			1				0	
6.6.1	win	2023-07-10	09:26:48	09:37:46	652958	5c18c248acd3f30001459833	3	1	main_z	11	main_z	83	stimuli_distractor_trianglediamonds.svg	stimuli_target_diamondsquares.svg	28	yes	44	1	705	0	0			0	0			1				0	
6.6.1	win	2023-07-10	09:26:48	09:37:46	652958	5c18c248acd3f30001459833	3	1	main_z	11	advance_on_keypress_ZEE	84	stimuli_distractor_trianglediamonds.svg	stimuli_target_diamondsquares.svg	28	yes	57	0	356	0	0			0	0			1				0	
6.6.1	win	2023-07-10	09:26:48	09:37:49	655953	5c18c248acd3f30001459833	3	1	main_z	11	main_z	85	stimuli_target_squaretriangles.svg	stimuli_distractor_diamondtriangles.svg	7	yes	0	0	2000	0	0			0	0			1				0	
6.6.1	win	2023-07-10	09:26:48	09:37:49	655953	5c18c248acd3f30001459833	3	1	main_z	11	advance_on_keypress_ZEE	86	stimuli_target_squaretriangles.svg	stimuli_distractor_diamondtriangles.svg	7	yes	57	0	2252	0	0			0	0			1				0	
6.6.1	win	2023-07-10	09:26:48	09:37:52	659406	5c18c248acd3f30001459833	3	1	main_z	11	main_z	87	stimuli_target_squarediamonds.svg	stimuli_distractor_diamondtriangles.svg	8	yes	44	1	553	0	0			0	0			1				0	
6.6.1	win	2023-07-10	09:26:48	09:37:52	659406	5c18c248acd3f30001459833	3	1	main_z	11	advance_on_keypress_ZEE	88	stimuli_target_squarediamonds.svg	stimuli_distractor_diamondtriangles.svg	8	yes	57	0	626	0	0			0	0			1				0	
6.6.1	win	2023-07-10	09:26:48	09:37:54	661310	5c18c248acd3f30001459833	3	1	main_z	11	main_z	89	stimuli_target_trianglesquares.svg	stimuli_distractor_trianglediamonds.svg	18	yes	44	1	640	0	0			0	0			1				0	
6.6.1	win	2023-07-10	09:26:48	09:37:54	661310	5c18c248acd3f30001459833	3	1	main_z	11	advance_on_keypress_ZEE	90	stimuli_target_trianglesquares.svg	stimuli_distractor_trianglediamonds.svg	18	yes	57	0	406	0	0			0	0			1				0	
6.6.1	win	2023-07-10	09:26:48	09:37:57	664353	5c18c248acd3f30001459833	3	1	main_z	11	main_z	91	stimuli_distractor_diamondtriangles.svg	stimuli_distractor_diamondtriangles.svg	40	no	0	1	2000	0	0			0	0			1				0	
6.6.1	win	2023-07-10	09:26:48	09:37:57	664353	5c18c248acd3f30001459833	3	1	main_z	11	advance_on_keypress_ZEE	92	stimuli_distractor_diamondtriangles.svg	stimuli_distractor_diamondtriangles.svg	40	no	57	0	668	0	0			0	0			1				0	
6.6.1	win	2023-07-10	09:26:48	09:38:00	667670	5c18c248acd3f30001459833	3	1	main_z	11	main_z	93	stimuli_distractor_trianglediamonds.svg	stimuli_distractor_trianglediamonds.svg	34	no	0	1	2000	0	0			0	0			1				0	
6.6.1	win	2023-07-10	09:26:48	09:38:00	667670	5c18c248acd3f30001459833	3	1	main_z	11	advance_on_keypress_ZEE	94	stimuli_distractor_trianglediamonds.svg	stimuli_distractor_trianglediamonds.svg	34	no	57	0	776	0	0			0	0			1				0	
6.6.1	win	2023-07-10	09:26:48	09:38:03	670398	5c18c248acd3f30001459833	3	1	main_z	11	main_z	95	stimuli_distractor_diamondtriangles.svg	stimuli_target_squarediamonds.svg	16	yes	44	1	1311	0	0			0	0			1				0	
6.6.1	win	2023-07-10	09:26:48	09:38:03	670398	5c18c248acd3f30001459833	3	1	main_z	11	advance_on_keypress_ZEE	96	stimuli_distractor_diamondtriangles.svg	stimuli_target_squarediamonds.svg	16	yes	57	0	1259	0	0			0	0			1				0	
6.6.1	win	2023-07-10	09:26:48	09:38:06	673022	5c18c248acd3f30001459833	3	1	main_z	11	main_z	97	stimuli_target_trianglerectangles.svg	stimuli_distractor_trianglediamonds.svg	17	yes	44	1	736	0	0			0	0			1				0	
6.6.1	win	2023-07-10	09:26:48	09:38:06	673022	5c18c248acd3f30001459833	3	1	main_z	11	advance_on_keypress_ZEE	98	stimuli_target_trianglerectangles.svg	stimuli_distractor_trianglediamonds.svg	17	yes	57	0	418	0	0			0	0			1				0	
6.6.1	win	2023-07-10	09:26:48	09:38:09	676087	5c18c248acd3f30001459833	3	1	main_z	11	main_z	99	stimuli_distractor_diamondtriangles.svg	stimuli_distractor_trianglediamonds.svg	37	no	0	1	2000	0	0			0	0			1				0	
6.6.1	win	2023-07-10	09:26:48	09:38:09	676087	5c18c248acd3f30001459833	3	1	main_z	11	advance_on_keypress_ZEE	100	stimuli_distractor_diamondtriangles.svg	stimuli_distractor_trianglediamonds.svg	37	no	57	0	407	0	0			0	0			1				0	
6.6.1	win	2023-07-10	09:26:48	09:38:11	677998	5c18c248acd3f30001459833	3	1	main_z	11	main_z	101	stimuli_distractor_diamondtriangles.svg	stimuli_target_squaretriangles.svg	15	yes	44	1	861	0	0			0	0			1				0	
6.6.1	win	2023-07-10	09:26:48	09:38:11	677998	5c18c248acd3f30001459833	3	1	main_z	11	advance_on_keypress_ZEE	102	stimuli_distractor_diamondtriangles.svg	stimuli_target_squaretriangles.svg	15	yes	57	0	651	0	0			0	0			1				0	
6.6.1	win	2023-07-10	09:26:48	09:38:14	681287	5c18c248acd3f30001459833	3	1	main_z	11	main_z	103	stimuli_distractor_trianglediamonds.svg	stimuli_target_rectanglediamonds.svg	10	yes	0	0	2000	0	0			0	0			1				0	
6.6.1	win	2023-07-10	09:26:48	09:38:14	681287	5c18c248acd3f30001459833	3	1	main_z	11	advance_on_keypress_ZEE	104	stimuli_distractor_trianglediamonds.svg	stimuli_target_rectanglediamonds.svg	10	yes	57	0	295	0	0			0	0			1				0	
6.6.1	win	2023-07-10	09:26:48	09:38:15	682686	5c18c248acd3f30001459833	3	1	main_z	11	main_z	105	stimuli_target_rectanglediamonds.svg	stimuli_distractor_trianglediamonds.svg	2	yes	44	1	466	0	0			0	0			1				0	
6.6.1	win	2023-07-10	09:26:48	09:38:15	682686	5c18c248acd3f30001459833	3	1	main_z	11	advance_on_keypress_ZEE	106	stimuli_target_rectanglediamonds.svg	stimuli_distractor_trianglediamonds.svg	2	yes	57	0	719	0	0			0	0			1				0	
6.6.1	win	2023-07-10	09:26:48	09:38:17	684718	5c18c248acd3f30001459833	3	1	main_z	11	main_z	107	stimuli_distractor_diamondtriangles.svg	stimuli_target_diamondsquares.svg	32	yes	44	1	665	0	0			0	0			1				0	
6.6.1	win	2023-07-10	09:26:48	09:38:17	684718	5c18c248acd3f30001459833	3	1	main_z	11	advance_on_keypress_ZEE	108	stimuli_distractor_diamondtriangles.svg	stimuli_target_diamondsquares.svg	32	yes	57	0	221	0	0			0	0			1				0	
6.6.1	win	2023-07-10	09:26:48	09:38:19	686190	5c18c248acd3f30001459833	3	1	main_z	11	main_z	109	stimuli_target_diamondsquares.svg	stimuli_distractor_diamondtriangles.svg	24	yes	44	1	604	0	0			0	0			1				0	
6.6.1	win	2023-07-10	09:26:48	09:38:19	686190	5c18c248acd3f30001459833	3	1	main_z	11	advance_on_keypress_ZEE	110	stimuli_target_diamondsquares.svg	stimuli_distractor_diamondtriangles.svg	24	yes	57	0	307	0	0			0	0			1				0	
6.6.1	win	2023-07-10	09:26:48	09:38:20	687854	5c18c248acd3f30001459833	3	1	main_z	11	main_z	111	stimuli_distractor_trianglediamonds.svg	stimuli_target_trianglesquares.svg	26	yes	44	1	717	0	0			0	0			1				0	
6.6.1	win	2023-07-10	09:26:48	09:38:20	687854	5c18c248acd3f30001459833	3	1	main_z	11	advance_on_keypress_ZEE	112	stimuli_distractor_trianglediamonds.svg	stimuli_target_trianglesquares.svg	26	yes	57	0	176	0	0			0	0			1				0	
6.6.1	win	2023-07-10	09:26:48	09:38:22	689454	5c18c248acd3f30001459833	3	1	main_z	11	main_z	113	stimuli_distractor_diamondtriangles.svg	stimuli_target_diamondrectangles.svg	31	yes	44	1	784	0	0			0	0			1				0	
6.6.1	win	2023-07-10	09:26:48	09:38:22	689454	5c18c248acd3f30001459833	3	1	main_z	11	advance_on_keypress_ZEE	114	stimuli_distractor_diamondtriangles.svg	stimuli_target_diamondrectangles.svg	31	yes	57	0	160	0	0			0	0			1				0	
6.6.1	win	2023-07-10	09:26:48	09:38:24	691086	5c18c248acd3f30001459833	3	1	main_z	11	main_z	115	stimuli_distractor_trianglediamonds.svg	stimuli_target_rectangletriangles.svg	9	yes	44	1	816	0	0			0	0			1				0	
6.6.1	win	2023-07-10	09:26:48	09:38:24	691086	5c18c248acd3f30001459833	3	1	main_z	11	advance_on_keypress_ZEE	116	stimuli_distractor_trianglediamonds.svg	stimuli_target_rectangletriangles.svg	9	yes	57	0	175	0	0			0	0			1				0	
6.6.1	win	2023-07-10	09:26:48	09:38:25	692670	5c18c248acd3f30001459833	3	1	main_z	11	main_z	117	stimuli_distractor_trianglediamonds.svg	stimuli_target_squarediamonds.svg	12	yes	44	1	767	0	0			0	0			1				0	
6.6.1	win	2023-07-10	09:26:48	09:38:25	692670	5c18c248acd3f30001459833	3	1	main_z	11	advance_on_keypress_ZEE	118	stimuli_distractor_trianglediamonds.svg	stimuli_target_squarediamonds.svg	12	yes	57	0	208	0	0			0	0			1				0	
6.6.1	win	2023-07-10	09:26:48	09:38:28	695520	5c18c248acd3f30001459833	3	1	main_z	11	main_z	119	stimuli_distractor_trianglediamonds.svg	stimuli_distractor_trianglediamonds.svg	33	no	0	1	2000	0	0			0	0			1				0	
6.6.1	win	2023-07-10	09:26:48	09:38:28	695520	5c18c248acd3f30001459833	3	1	main_z	11	advance_on_keypress_ZEE	120	stimuli_distractor_trianglediamonds.svg	stimuli_distractor_trianglediamonds.svg	33	no	57	0	622	0	0			0	0			1				0	
6.6.1	win	2023-07-10	09:26:48	09:38:30	697390	5c18c248acd3f30001459833	3	1	main_z	11	main_z	121	stimuli_target_squaretriangles.svg	stimuli_distractor_trianglediamonds.svg	3	yes	44	1	604	0	0			0	0			1				0	
6.6.1	win	2023-07-10	09:26:48	09:38:30	697390	5c18c248acd3f30001459833	3	1	main_z	11	advance_on_keypress_ZEE	122	stimuli_target_squaretriangles.svg	stimuli_distractor_trianglediamonds.svg	3	yes	57	0	147	0	0			0	0			1				0	
6.6.1	win	2023-07-10	09:26:48	09:38:33	700188	5c18c248acd3f30001459833	3	1	main_z	11	main_z	123	stimuli_distractor_diamondtriangles.svg	stimuli_distractor_trianglediamonds.svg	38	no	0	1	2000	0	0			0	0			1				0	
6.6.1	win	2023-07-10	09:26:48	09:38:33	700188	5c18c248acd3f30001459833	3	1	main_z	11	advance_on_keypress_ZEE	124	stimuli_distractor_diamondtriangles.svg	stimuli_distractor_trianglediamonds.svg	38	no	57	0	947	0	0			0	0			1				0	
6.6.1	win	2023-07-10	09:26:48	09:38:35	702286	5c18c248acd3f30001459833	3	1	main_z	11	main_z	125	stimuli_target_squarediamonds.svg	stimuli_distractor_trianglediamonds.svg	4	yes	44	1	500	0	0			0	0			1				0	
6.6.1	win	2023-07-10	09:26:48	09:38:35	702286	5c18c248acd3f30001459833	3	1	main_z	11	advance_on_keypress_ZEE	126	stimuli_target_squarediamonds.svg	stimuli_distractor_trianglediamonds.svg	4	yes	57	0	127	0	0			0	0			1				0	
6.6.1	win	2023-07-10	09:26:48	09:38:38	705053	5c18c248acd3f30001459833	3	1	main_z	11	main_z	127	stimuli_target_diamondrectangles.svg	stimuli_distractor_trianglediamonds.svg	19	yes	0	0	2000	0	0			0	0			1				0	
6.6.1	win	2023-07-10	09:26:48	09:38:38	705053	5c18c248acd3f30001459833	3	1	main_z	11	advance_on_keypress_ZEE	128	stimuli_target_diamondrectangles.svg	stimuli_distractor_trianglediamonds.svg	19	yes	57	0	336	0	0			0	0			1				0	
6.6.1	win	2023-07-10	09:26:48	09:38:39	706718	5c18c248acd3f30001459833	3	1	main_z	11	main_z	129	stimuli_distractor_diamondtriangles.svg	stimuli_target_rectangletriangles.svg	13	yes	44	1	681	0	0			0	0			1				0	
6.6.1	win	2023-07-10	09:26:48	09:38:39	706718	5c18c248acd3f30001459833	3	1	main_z	11	advance_on_keypress_ZEE	130	stimuli_distractor_diamondtriangles.svg	stimuli_target_rectangletriangles.svg	13	yes	57	0	141	0	0			0	0			1				0	
6.6.1	win	2023-07-10	09:26:48	09:38:41	708558	5c18c248acd3f30001459833	3	1	main_z	11	main_z	131	stimuli_distractor_diamondtriangles.svg	stimuli_target_trianglerectangles.svg	29	yes	44	1	1055	0	0			0	0			1				0	
6.6.1	win	2023-07-10	09:26:48	09:38:41	708558	5c18c248acd3f30001459833	3	1	main_z	11	advance_on_keypress_ZEE	132	stimuli_distractor_diamondtriangles.svg	stimuli_target_trianglerectangles.svg	29	yes	57	0	164	0	0			0	0			1				0	
6.6.1	win	2023-07-10	09:26:48	09:38:43	710734	5c18c248acd3f30001459833	3	1	main_z	11	main_z	133	stimuli_target_trianglesquares.svg	stimuli_distractor_diamondtriangles.svg	22	yes	44	1	1364	0	0			0	0			1				0	
6.6.1	win	2023-07-10	09:26:48	09:38:43	710734	5c18c248acd3f30001459833	3	1	main_z	11	advance_on_keypress_ZEE	134	stimuli_target_trianglesquares.svg	stimuli_distractor_diamondtriangles.svg	22	yes	57	0	109	0	0			0	0			1				0	
6.6.1	win	2023-07-10	09:26:48	09:38:45	712174	5c18c248acd3f30001459833	3	1	main_z	11	main_z	135	stimuli_target_rectanglediamonds.svg	stimuli_distractor_diamondtriangles.svg	6	yes	44	1	688	0	0			0	0			1				0	
6.6.1	win	2023-07-10	09:26:48	09:38:45	712174	5c18c248acd3f30001459833	3	1	main_z	11	advance_on_keypress_ZEE	136	stimuli_target_rectanglediamonds.svg	stimuli_distractor_diamondtriangles.svg	6	yes	57	0	100	0	0			0	0			1				0	
6.6.1	win	2023-07-10	09:26:48	09:38:47	714062	5c18c248acd3f30001459833	3	1	main_z	11	main_z	137	stimuli_target_trianglerectangles.svg	stimuli_distractor_diamondtriangles.svg	21	yes	44	1	1142	0	0			0	0			1				0	
6.6.1	win	2023-07-10	09:26:48	09:38:47	714062	5c18c248acd3f30001459833	3	1	main_z	11	advance_on_keypress_ZEE	138	stimuli_target_trianglerectangles.svg	stimuli_distractor_diamondtriangles.svg	21	yes	57	0	88	0	0			0	0			1				0	
6.6.1	win	2023-07-10	09:26:48	09:38:49	716030	5c18c248acd3f30001459833	3	1	main_z	11	main_z	139	stimuli_distractor_trianglediamonds.svg	stimuli_target_squaretriangles.svg	11	yes	44	1	1244	0	0			0	0			1				0	
6.6.1	win	2023-07-10	09:26:48	09:38:49	716030	5c18c248acd3f30001459833	3	1	main_z	11	advance_on_keypress_ZEE	140	stimuli_distractor_trianglediamonds.svg	stimuli_target_squaretriangles.svg	11	yes	57	0	106	0	0			0	0			1				0	
6.6.1	win	2023-07-10	09:26:48	09:38:50	717487	5c18c248acd3f30001459833	3	1	main_z	11	main_z	141	stimuli_target_rectangletriangles.svg	stimuli_distractor_trianglediamonds.svg	1	yes	44	1	716	0	0			0	0			1				0	
6.6.1	win	2023-07-10	09:26:48	09:38:50	717487	5c18c248acd3f30001459833	3	1	main_z	11	advance_on_keypress_ZEE	142	stimuli_target_rectangletriangles.svg	stimuli_distractor_trianglediamonds.svg	1	yes	57	0	143	0	0			0	0			1				0	
6.6.1	win	2023-07-10	09:26:48	09:38:52	719582	5c18c248acd3f30001459833	3	1	main_z	11	main_z	143	stimuli_distractor_diamondtriangles.svg	stimuli_target_trianglesquares.svg	30	yes	44	1	1312	0	0			0	0			1				0	
6.6.1	win	2023-07-10	09:26:48	09:38:52	719582	5c18c248acd3f30001459833	3	1	main_z	11	advance_on_keypress_ZEE	144	stimuli_distractor_diamondtriangles.svg	stimuli_target_trianglesquares.svg	30	yes	57	0	108	0	0			0	0			1				0	
6.6.1	win	2023-07-10	09:26:48	09:38:55	722320	5c18c248acd3f30001459833	3	1	main_z	11	main_z	145	stimuli_distractor_trianglediamonds.svg	stimuli_distractor_diamondtriangles.svg	36	no	0	1	2000	0	0			0	0			1				0	
6.6.1	win	2023-07-10	09:26:48	09:38:55	722320	5c18c248acd3f30001459833	3	1	main_z	11	advance_on_keypress_ZEE	146	stimuli_distractor_trianglediamonds.svg	stimuli_distractor_diamondtriangles.svg	36	no	57	0	558	0	0			0	0			1				0	
6.6.1	win	2023-07-10	09:26:48	09:38:57	724431	5c18c248acd3f30001459833	3	1	main_z	11	main_z	147	stimuli_target_diamondrectangles.svg	stimuli_distractor_diamondtriangles.svg	23	yes	44	1	910	0	0			0	0			1				0	
6.6.1	win	2023-07-10	09:26:48	09:38:57	724431	5c18c248acd3f30001459833	3	1	main_z	11	advance_on_keypress_ZEE	148	stimuli_target_diamondrectangles.svg	stimuli_distractor_diamondtriangles.svg	23	yes	57	0	105	0	0			0	0			1				0	
6.6.1	win	2023-07-10	09:26:48	09:38:58	725886	5c18c248acd3f30001459833	3	1	main_z	11	main_z	149	stimuli_distractor_trianglediamonds.svg	stimuli_target_diamondrectangles.svg	27	yes	44	1	700	0	0			0	0			1				0	
6.6.1	win	2023-07-10	09:26:48	09:38:58	725886	5c18c248acd3f30001459833	3	1	main_z	11	advance_on_keypress_ZEE	150	stimuli_distractor_trianglediamonds.svg	stimuli_target_diamondrectangles.svg	27	yes	57	0	127	0	0			0	0			1				0	
6.6.1	win	2023-07-10	09:26:48	09:39:01	728653	5c18c248acd3f30001459833	3	1	main_z	11	main_z	151	stimuli_distractor_diamondtriangles.svg	stimuli_distractor_diamondtriangles.svg	39	no	0	1	2000	0	0			0	0			1				0	
6.6.1	win	2023-07-10	09:26:48	09:39:01	728653	5c18c248acd3f30001459833	3	1	main_z	11	advance_on_keypress_ZEE	152	stimuli_distractor_diamondtriangles.svg	stimuli_distractor_diamondtriangles.svg	39	no	57	0	288	0	0			0	0			1				0	
6.6.1	win	2023-07-10	09:26:48	09:39:03	730302	5c18c248acd3f30001459833	3	1	main_z	11	main_z	153	stimuli_distractor_trianglediamonds.svg	stimuli_target_trianglerectangles.svg	25	yes	44	1	716	0	0			0	0			1				0	
6.6.1	win	2023-07-10	09:26:48	09:39:03	730302	5c18c248acd3f30001459833	3	1	main_z	11	advance_on_keypress_ZEE	154	stimuli_distractor_trianglediamonds.svg	stimuli_target_trianglerectangles.svg	25	yes	57	0	110	0	0			0	0			1				0	
6.6.1	win	2023-07-10	09:26:48	09:39:05	732046	5c18c248acd3f30001459833	3	1	main_z	11	main_z	155	stimuli_target_diamondsquares.svg	stimuli_distractor_trianglediamonds.svg	20	yes	44	1	993	0	0			0	0			1				0	
6.6.1	win	2023-07-10	09:26:48	09:39:05	732046	5c18c248acd3f30001459833	3	1	main_z	11	advance_on_keypress_ZEE	156	stimuli_target_diamondsquares.svg	stimuli_distractor_trianglediamonds.svg	20	yes	57	0	105	0	0			0	0			1				0	
6.6.1	win	2023-07-10	09:26:48	09:39:06	733470	5c18c248acd3f30001459833	3	1	main_z	11	main_z	157	stimuli_distractor_diamondtriangles.svg	stimuli_target_rectanglediamonds.svg	14	yes	44	1	683	0	0			0	0			1				0	
6.6.1	win	2023-07-10	09:26:48	09:39:06	733470	5c18c248acd3f30001459833	3	1	main_z	11	advance_on_keypress_ZEE	158	stimuli_distractor_diamondtriangles.svg	stimuli_target_rectanglediamonds.svg	14	yes	57	0	79	0	0			0	0			1				0	
6.6.1	win	2023-07-10	09:26:48	09:39:07	734751	5c18c248acd3f30001459833	3	1	main_z	11	main_z	159	stimuli_target_rectangletriangles.svg	stimuli_distractor_diamondtriangles.svg	5	yes	44	1	547	0	0			0	0			1				0	
6.6.1	win	2023-07-10	09:26:48	09:39:07	734751	5c18c248acd3f30001459833	3	1	main_z	11	advance_on_keypress_ZEE	160	stimuli_target_rectangletriangles.svg	stimuli_distractor_diamondtriangles.svg	5	yes	57	0	108	0	0			0	0			1				0	
6.6.1	win	2023-07-10	09:26:48	09:39:07	734751	5c18c248acd3f30001459833	3	1	headphonecheck_intro	13	generalIntro	1	stimuli_target_rectangletriangles.svg	stimuli_distractor_diamondtriangles.svg	5	yes	Ctrl+'Q'	1	65967	0	0			0	0			1				0	