build	computer.platform	date	time	timestamp	time_elapsed_ms	subject	group	session	blockcode	blocknum	trialcode	trialnum	stimulus_left	stimulus_right	stim_index	target_present	response	correct	latency	headphonecheck_countTestTrials	headphonecheck_index	headphonecheck_testSound	headphonecheck_correctResponse	stereocheck_countTestTrials	stereocheck_index	stereocheck_testSound	stereocheck_correctResponse	DL_index	DL_soundfile	DL_leftSound	DL_rightSound	DL_dualSound	DL_choice
6.6.1	win	2023-07-09	15:47:55	0	0	59d3d4026cc82800013e31a2	2	1	headphonecheck_calibration	4	headphonecheck_calibrationIntro	1			0		calibrationButton	0	6222	0	0			0	0			1				0	
6.6.1	win	2023-07-09	15:47:55	0	0	59d3d4026cc82800013e31a2	2	1	headphonecheck_testphase	5	test_collectResponse	3			0		first	1	1137	1	3	antiphase_hc_soi.wav	1	0	0			1				0	
6.6.1	win	2023-07-09	15:47:55	0	0	59d3d4026cc82800013e31a2	2	1	headphonecheck_testphase	5	test_collectResponse	6			0		third	1	275	2	6	antiphase_hc_ois.wav	3	0	0			1				0	
6.6.1	win	2023-07-09	15:47:55	0	0	59d3d4026cc82800013e31a2	2	1	headphonecheck_testphase	5	test_collectResponse	9			0		second	1	593	3	1	antiphase_hc_iso.wav	2	0	0			1				0	
6.6.1	win	2023-07-09	15:47:55	0	0	59d3d4026cc82800013e31a2	2	1	headphonecheck_testphase	5	test_collectResponse	12			0		second	1	1257	4	5	antiphase_hc_osi.wav	2	0	0			1				0	
6.6.1	win	2023-07-09	15:47:55	0	0	59d3d4026cc82800013e31a2	2	1	headphonecheck_testphase	5	test_collectResponse	15			0		third	1	327	5	2	antiphase_hc_ios.wav	3	0	0			1				0	
6.6.1	win	2023-07-09	15:47:55	0	0	59d3d4026cc82800013e31a2	2	1	headphonecheck_testphase	5	test_collectResponse	18			0		first	1	450	6	4	antiphase_hc_sio.wav	1	0	0			1				0	
6.6.1	win	2023-07-09	15:47:55	0	0	59d3d4026cc82800013e31a2	2	1	stereocheck_calibration	7	stereocheck_calibrationIntro	1			0		stereocheck_calibrationButton	0	9289	6	4	antiphase_hc_sio.wav	1	0	0			1				0	
6.6.1	win	2023-07-09	15:47:55	0	0	59d3d4026cc82800013e31a2	2	1	stereocheck_testphase	8	stereocheck_test_collectResponse	3			0		stereocheck_left	1	1111	6	4	antiphase_hc_sio.wav	1	1	2	noise_calib_stim_LEFT.wav	1	1				0	
6.6.1	win	2023-07-09	15:47:55	0	0	59d3d4026cc82800013e31a2	2	1	stereocheck_testphase	8	stereocheck_test_collectResponse	6			0		stereocheck_right	1	1241	6	4	antiphase_hc_sio.wav	1	2	4	noise_calib_stim_RIGHT.wav	2	1				0	
6.6.1	win	2023-07-09	15:47:55	0	0	59d3d4026cc82800013e31a2	2	1	stereocheck_testphase	8	stereocheck_test_collectResponse	9			0		stereocheck_right	1	890	6	4	antiphase_hc_sio.wav	1	3	6	noise_calib_stim_RIGHT.wav	2	1				0	
6.6.1	win	2023-07-09	15:47:55	0	0	59d3d4026cc82800013e31a2	2	1	stereocheck_testphase	8	stereocheck_test_collectResponse	12			0		stereocheck_left	1	810	6	4	antiphase_hc_sio.wav	1	4	3	noise_calib_stim_LEFT.wav	1	1				0	
6.6.1	win	2023-07-09	15:47:55	0	0	59d3d4026cc82800013e31a2	2	1	stereocheck_testphase	8	stereocheck_test_collectResponse	15			0		stereocheck_right	1	738	6	4	antiphase_hc_sio.wav	1	5	5	noise_calib_stim_RIGHT.wav	2	1				0	
6.6.1	win	2023-07-09	15:47:55	0	0	59d3d4026cc82800013e31a2	2	1	stereocheck_testphase	8	stereocheck_test_collectResponse	18			0		stereocheck_left	1	545	6	4	antiphase_hc_sio.wav	1	6	1	noise_calib_stim_LEFT.wav	1	1				0	
6.6.1	win	2023-07-09	15:47:55	0	0	59d3d4026cc82800013e31a2	2	1	DL_practice	11	DL_practice	2			0		ka	0	1274	6	4	antiphase_hc_sio.wav	1	6	1	noise_calib_stim_LEFT.wav	1	36	blb_dichoticlistening_ta-ta.mp3	ta	ta	0	other
6.6.1	win	2023-07-09	15:47:55	0	0	59d3d4026cc82800013e31a2	2	1	DL_practice	11	DL_practice	3			0		ka	1	1337	6	4	antiphase_hc_sio.wav	1	6	1	noise_calib_stim_LEFT.wav	1	23	blb_dichoticlistening_ka-pa.mp3	ka	pa	1	left
6.6.1	win	2023-07-09	15:47:55	0	0	59d3d4026cc82800013e31a2	2	1	DL_practice	11	DL_practice	4			0		ka	1	881	6	4	antiphase_hc_sio.wav	1	6	1	noise_calib_stim_LEFT.wav	1	22	blb_dichoticlistening_ka-ka.mp3	ka	ka	0	left
6.6.1	win	2023-07-09	15:47:55	0	0	59d3d4026cc82800013e31a2	2	1	DL_practice	11	DL_practice	5			0		da	1	1162	6	4	antiphase_hc_sio.wav	1	6	1	noise_calib_stim_LEFT.wav	1	8	blb_dichoticlistening_da-da.mp3	da	da	0	left
6.6.1	win	2023-07-09	15:47:55	0	0	59d3d4026cc82800013e31a2	2	1	DL_practice	11	DL_practice	6			0		da	1	1262	6	4	antiphase_hc_sio.wav	1	6	1	noise_calib_stim_LEFT.wav	1	7	blb_dichoticlistening_da-ba.mp3	da	ba	1	left
6.6.1	win	2023-07-09	15:47:55	0	0	59d3d4026cc82800013e31a2	2	1	DL_practice	11	DL_practice	7			0		pa	1	1327	6	4	antiphase_hc_sio.wav	1	6	1	noise_calib_stim_LEFT.wav	1	29	blb_dichoticlistening_pa-pa.mp3	pa	pa	0	left
6.6.1	win	2023-07-09	15:47:55	0	0	59d3d4026cc82800013e31a2	2	1	DL_practice	11	DL_practice	8			0		ga	1	1265	6	4	antiphase_hc_sio.wav	1	6	1	noise_calib_stim_LEFT.wav	1	15	blb_dichoticlistening_ga-ga.mp3	ga	ga	0	left
6.6.1	win	2023-07-09	15:47:55	0	0	59d3d4026cc82800013e31a2	2	1	DL_practice	11	DL_practice	9			0		ba	1	1801	6	4	antiphase_hc_sio.wav	1	6	1	noise_calib_stim_LEFT.wav	1	1	blb_dichoticlistening_ba-ba.mp3	ba	ba	0	left
6.6.1	win	2023-07-09	15:47:55	0	0	59d3d4026cc82800013e31a2	2	1	DL_practice	11	DL_practice	10			0		ga	1	1141	6	4	antiphase_hc_sio.wav	1	6	1	noise_calib_stim_LEFT.wav	1	18	blb_dichoticlistening_ga-ta.mp3	ga	ta	1	left
6.6.1	win	2023-07-09	15:47:55	0	0	59d3d4026cc82800013e31a2	2	1	DL_test	13	DL_test	1			0		ga	1	1718	6	4	antiphase_hc_sio.wav	1	6	1	noise_calib_stim_LEFT.wav	1	14	blb_dichoticlistening_ga-da.mp3	ga	da	1	left
6.6.1	win	2023-07-09	15:47:55	0	0	59d3d4026cc82800013e31a2	2	1	DL_test	13	DL_test	2			0		da	1	1005	6	4	antiphase_hc_sio.wav	1	6	1	noise_calib_stim_LEFT.wav	1	10	blb_dichoticlistening_da-ka.mp3	da	ka	1	left
6.6.1	win	2023-07-09	15:47:55	0	0	59d3d4026cc82800013e31a2	2	1	DL_test	13	DL_test	3			0		ka	1	1082	6	4	antiphase_hc_sio.wav	1	6	1	noise_calib_stim_LEFT.wav	1	22	blb_dichoticlistening_ka-ka.mp3	ka	ka	0	left
6.6.1	win	2023-07-09	15:47:55	0	0	59d3d4026cc82800013e31a2	2	1	DL_test	13	DL_test	4			0		ka	1	856	6	4	antiphase_hc_sio.wav	1	6	1	noise_calib_stim_LEFT.wav	1	28	blb_dichoticlistening_pa-ka.mp3	pa	ka	1	right
6.6.1	win	2023-07-09	15:47:55	0	0	59d3d4026cc82800013e31a2	2	1	DL_test	13	DL_test	5			0		ba	1	1450	6	4	antiphase_hc_sio.wav	1	6	1	noise_calib_stim_LEFT.wav	1	4	blb_dichoticlistening_ba-ka.mp3	ba	ka	1	left
6.6.1	win	2023-07-09	15:47:55	0	0	59d3d4026cc82800013e31a2	2	1	DL_test	13	DL_test	6			0		da	1	969	6	4	antiphase_hc_sio.wav	1	6	1	noise_calib_stim_LEFT.wav	1	26	blb_dichoticlistening_pa-da.mp3	pa	da	1	right
6.6.1	win	2023-07-09	15:47:55	0	0	59d3d4026cc82800013e31a2	2	1	DL_test	13	DL_test	7			0		ga	1	872	6	4	antiphase_hc_sio.wav	1	6	1	noise_calib_stim_LEFT.wav	1	21	blb_dichoticlistening_ka-ga.mp3	ka	ga	1	right
6.6.1	win	2023-07-09	15:47:55	0	0	59d3d4026cc82800013e31a2	2	1	DL_test	13	DL_test	8			0		ga	1	832	6	4	antiphase_hc_sio.wav	1	6	1	noise_calib_stim_LEFT.wav	1	27	blb_dichoticlistening_pa-ga.mp3	pa	ga	1	right
6.6.1	win	2023-07-09	15:47:55	0	0	59d3d4026cc82800013e31a2	2	1	DL_test	13	DL_test	9			0		da	1	979	6	4	antiphase_hc_sio.wav	1	6	1	noise_calib_stim_LEFT.wav	1	8	blb_dichoticlistening_da-da.mp3	da	da	0	left
6.6.1	win	2023-07-09	15:47:55	0	0	59d3d4026cc82800013e31a2	2	1	DL_test	13	DL_test	10			0		ta	1	1753	6	4	antiphase_hc_sio.wav	1	6	1	noise_calib_stim_LEFT.wav	1	35	blb_dichoticlistening_ta-pa.mp3	ta	pa	1	left
6.6.1	win	2023-07-09	15:47:55	0	0	59d3d4026cc82800013e31a2	2	1	DL_test	13	DL_test	11			0		da	1	1043	6	4	antiphase_hc_sio.wav	1	6	1	noise_calib_stim_LEFT.wav	1	9	blb_dichoticlistening_da-ga.mp3	da	ga	1	left
6.6.1	win	2023-07-09	15:47:55	0	0	59d3d4026cc82800013e31a2	2	1	DL_test	13	DL_test	12			0		ba	1	1351	6	4	antiphase_hc_sio.wav	1	6	1	noise_calib_stim_LEFT.wav	1	2	blb_dichoticlistening_ba-da.mp3	ba	da	1	left
6.6.1	win	2023-07-09	15:47:55	0	0	59d3d4026cc82800013e31a2	2	1	DL_test	13	DL_test	13			0		ga	1	968	6	4	antiphase_hc_sio.wav	1	6	1	noise_calib_stim_LEFT.wav	1	18	blb_dichoticlistening_ga-ta.mp3	ga	ta	1	left
6.6.1	win	2023-07-09	15:47:55	0	0	59d3d4026cc82800013e31a2	2	1	DL_test	13	DL_test	14			0		ga	0	836	6	4	antiphase_hc_sio.wav	1	6	1	noise_calib_stim_LEFT.wav	1	20	blb_dichoticlistening_ka-da.mp3	ka	da	1	other
6.6.1	win	2023-07-09	15:47:55	0	0	59d3d4026cc82800013e31a2	2	1	DL_test	13	DL_test	15			0		ga	1	745	6	4	antiphase_hc_sio.wav	1	6	1	noise_calib_stim_LEFT.wav	1	33	blb_dichoticlistening_ta-ga.mp3	ta	ga	1	right
6.6.1	win	2023-07-09	15:47:55	0	0	59d3d4026cc82800013e31a2	2	1	DL_test	13	DL_test	16			0		ba	1	2321	6	4	antiphase_hc_sio.wav	1	6	1	noise_calib_stim_LEFT.wav	1	19	blb_dichoticlistening_ka-ba.mp3	ka	ba	1	right
6.6.1	win	2023-07-09	15:47:55	0	0	59d3d4026cc82800013e31a2	2	1	DL_test	13	DL_test	17			0		ba	1	1133	6	4	antiphase_hc_sio.wav	1	6	1	noise_calib_stim_LEFT.wav	1	13	blb_dichoticlistening_ga-ba.mp3	ga	ba	1	right
6.6.1	win	2023-07-09	15:47:55	0	0	59d3d4026cc82800013e31a2	2	1	DL_test	13	DL_test	18			0		ba	1	1258	6	4	antiphase_hc_sio.wav	1	6	1	noise_calib_stim_LEFT.wav	1	6	blb_dichoticlistening_ba-ta.mp3	ba	ta	1	left
6.6.1	win	2023-07-09	15:47:55	0	0	59d3d4026cc82800013e31a2	2	1	DL_test	13	DL_test	19			0		ba	1	2166	6	4	antiphase_hc_sio.wav	1	6	1	noise_calib_stim_LEFT.wav	1	25	blb_dichoticlistening_pa-ba.mp3	pa	ba	1	right
6.6.1	win	2023-07-09	15:47:55	0	0	59d3d4026cc82800013e31a2	2	1	DL_test	13	DL_test	20			0		ka	1	1193	6	4	antiphase_hc_sio.wav	1	6	1	noise_calib_stim_LEFT.wav	1	24	blb_dichoticlistening_ka-ta.mp3	ka	ta	1	left
6.6.1	win	2023-07-09	15:47:55	0	0	59d3d4026cc82800013e31a2	2	1	DL_test	13	DL_test	21			0		ba	1	2172	6	4	antiphase_hc_sio.wav	1	6	1	noise_calib_stim_LEFT.wav	1	31	blb_dichoticlistening_ta-ba.mp3	ta	ba	1	right
6.6.1	win	2023-07-09	15:47:55	0	0	59d3d4026cc82800013e31a2	2	1	DL_test	13	DL_test	22			0		da	1	1038	6	4	antiphase_hc_sio.wav	1	6	1	noise_calib_stim_LEFT.wav	1	12	blb_dichoticlistening_da-ta.mp3	da	ta	1	left
6.6.1	win	2023-07-09	15:47:55	0	0	59d3d4026cc82800013e31a2	2	1	DL_test	13	DL_test	23			0		ga	1	1172	6	4	antiphase_hc_sio.wav	1	6	1	noise_calib_stim_LEFT.wav	1	16	blb_dichoticlistening_ga-ka.mp3	ga	ka	1	left
6.6.1	win	2023-07-09	15:47:55	0	0	59d3d4026cc82800013e31a2	2	1	DL_test	13	DL_test	24			0		pa	1	1156	6	4	antiphase_hc_sio.wav	1	6	1	noise_calib_stim_LEFT.wav	1	29	blb_dichoticlistening_pa-pa.mp3	pa	pa	0	left
6.6.1	win	2023-07-09	15:47:55	0	0	59d3d4026cc82800013e31a2	2	1	DL_test	13	DL_test	25			0		ta	1	1306	6	4	antiphase_hc_sio.wav	1	6	1	noise_calib_stim_LEFT.wav	1	36	blb_dichoticlistening_ta-ta.mp3	ta	ta	0	left
6.6.1	win	2023-07-09	15:47:55	0	0	59d3d4026cc82800013e31a2	2	1	DL_test	13	DL_test	26			0		ga	1	981	6	4	antiphase_hc_sio.wav	1	6	1	noise_calib_stim_LEFT.wav	1	17	blb_dichoticlistening_ga-pa.mp3	ga	pa	1	left
6.6.1	win	2023-07-09	15:47:55	0	0	59d3d4026cc82800013e31a2	2	1	DL_test	13	DL_test	27			0		ba	1	1204	6	4	antiphase_hc_sio.wav	1	6	1	noise_calib_stim_LEFT.wav	1	5	blb_dichoticlistening_ba-pa.mp3	ba	pa	1	left
6.6.1	win	2023-07-09	15:47:55	0	0	59d3d4026cc82800013e31a2	2	1	DL_test	13	DL_test	28			0		ta	1	1773	6	4	antiphase_hc_sio.wav	1	6	1	noise_calib_stim_LEFT.wav	1	30	blb_dichoticlistening_pa-ta.mp3	pa	ta	1	right
6.6.1	win	2023-07-09	15:47:55	0	0	59d3d4026cc82800013e31a2	2	1	DL_test	13	DL_test	29			0		da	1	1046	6	4	antiphase_hc_sio.wav	1	6	1	noise_calib_stim_LEFT.wav	1	32	blb_dichoticlistening_ta-da.mp3	ta	da	1	right
6.6.1	win	2023-07-09	15:47:55	0	0	59d3d4026cc82800013e31a2	2	1	DL_test	13	DL_test	30			0		da	1	991	6	4	antiphase_hc_sio.wav	1	6	1	noise_calib_stim_LEFT.wav	1	11	blb_dichoticlistening_da-pa.mp3	da	pa	1	left
6.6.1	win	2023-07-09	15:47:55	0	0	59d3d4026cc82800013e31a2	2	1	DL_test	13	DL_test	31			0		da	1	1198	6	4	antiphase_hc_sio.wav	1	6	1	noise_calib_stim_LEFT.wav	1	7	blb_dichoticlistening_da-ba.mp3	da	ba	1	left
6.6.1	win	2023-07-09	15:47:55	0	0	59d3d4026cc82800013e31a2	2	1	DL_test	13	DL_test	32			0		ka	1	1281	6	4	antiphase_hc_sio.wav	1	6	1	noise_calib_stim_LEFT.wav	1	23	blb_dichoticlistening_ka-pa.mp3	ka	pa	1	left
6.6.1	win	2023-07-09	15:47:55	0	0	59d3d4026cc82800013e31a2	2	1	DL_test	13	DL_test	33			0		ba	1	1490	6	4	antiphase_hc_sio.wav	1	6	1	noise_calib_stim_LEFT.wav	1	1	blb_dichoticlistening_ba-ba.mp3	ba	ba	0	left
6.6.1	win	2023-07-09	15:47:55	0	0	59d3d4026cc82800013e31a2	2	1	DL_test	13	DL_test	34			0		ba	1	1087	6	4	antiphase_hc_sio.wav	1	6	1	noise_calib_stim_LEFT.wav	1	3	blb_dichoticlistening_ba-ga.mp3	ba	ga	1	left
6.6.1	win	2023-07-09	15:47:55	0	0	59d3d4026cc82800013e31a2	2	1	DL_test	13	DL_test	35			0		ka	1	1452	6	4	antiphase_hc_sio.wav	1	6	1	noise_calib_stim_LEFT.wav	1	34	blb_dichoticlistening_ta-ka.mp3	ta	ka	1	right
6.6.1	win	2023-07-09	15:47:55	0	0	59d3d4026cc82800013e31a2	2	1	DL_test	13	DL_test	36			0		ga	1	1300	6	4	antiphase_hc_sio.wav	1	6	1	noise_calib_stim_LEFT.wav	1	15	blb_dichoticlistening_ga-ga.mp3	ga	ga	0	left
6.6.1	win	2023-07-09	15:47:55	0	0	59d3d4026cc82800013e31a2	2	1	DL_test	14	DL_test	1			0		ba	1	2290	6	4	antiphase_hc_sio.wav	1	6	1	noise_calib_stim_LEFT.wav	1	4	blb_dichoticlistening_ba-ka.mp3	ba	ka	1	left
6.6.1	win	2023-07-09	15:47:55	0	0	59d3d4026cc82800013e31a2	2	1	DL_test	14	DL_test	2			0		ka	1	1235	6	4	antiphase_hc_sio.wav	1	6	1	noise_calib_stim_LEFT.wav	1	22	blb_dichoticlistening_ka-ka.mp3	ka	ka	0	left
6.6.1	win	2023-07-09	15:47:55	0	0	59d3d4026cc82800013e31a2	2	1	DL_test	14	DL_test	3			0		ga	1	953	6	4	antiphase_hc_sio.wav	1	6	1	noise_calib_stim_LEFT.wav	1	27	blb_dichoticlistening_pa-ga.mp3	pa	ga	1	right
6.6.1	win	2023-07-09	15:47:55	0	0	59d3d4026cc82800013e31a2	2	1	DL_test	14	DL_test	4			0		da	1	1085	6	4	antiphase_hc_sio.wav	1	6	1	noise_calib_stim_LEFT.wav	1	14	blb_dichoticlistening_ga-da.mp3	ga	da	1	right
6.6.1	win	2023-07-09	15:47:55	0	0	59d3d4026cc82800013e31a2	2	1	DL_test	14	DL_test	5			0		ba	1	1088	6	4	antiphase_hc_sio.wav	1	6	1	noise_calib_stim_LEFT.wav	1	13	blb_dichoticlistening_ga-ba.mp3	ga	ba	1	right
6.6.1	win	2023-07-09	15:47:55	0	0	59d3d4026cc82800013e31a2	2	1	DL_test	14	DL_test	6			0		ga	1	1352	6	4	antiphase_hc_sio.wav	1	6	1	noise_calib_stim_LEFT.wav	1	17	blb_dichoticlistening_ga-pa.mp3	ga	pa	1	left
6.6.1	win	2023-07-09	15:47:55	0	0	59d3d4026cc82800013e31a2	2	1	DL_test	14	DL_test	7			0		da	1	1018	6	4	antiphase_hc_sio.wav	1	6	1	noise_calib_stim_LEFT.wav	1	26	blb_dichoticlistening_pa-da.mp3	pa	da	1	right
6.6.1	win	2023-07-09	15:47:55	0	0	59d3d4026cc82800013e31a2	2	1	DL_test	14	DL_test	8			0		ba	1	1010	6	4	antiphase_hc_sio.wav	1	6	1	noise_calib_stim_LEFT.wav	1	2	blb_dichoticlistening_ba-da.mp3	ba	da	1	left
6.6.1	win	2023-07-09	15:47:55	0	0	59d3d4026cc82800013e31a2	2	1	DL_test	14	DL_test	9			0		pa	1	1177	6	4	antiphase_hc_sio.wav	1	6	1	noise_calib_stim_LEFT.wav	1	29	blb_dichoticlistening_pa-pa.mp3	pa	pa	0	left
6.6.1	win	2023-07-09	15:47:55	0	0	59d3d4026cc82800013e31a2	2	1	DL_test	14	DL_test	10			0		ga	1	1067	6	4	antiphase_hc_sio.wav	1	6	1	noise_calib_stim_LEFT.wav	1	21	blb_dichoticlistening_ka-ga.mp3	ka	ga	1	right
6.6.1	win	2023-07-09	15:47:55	0	0	59d3d4026cc82800013e31a2	2	1	DL_test	14	DL_test	11			0		da	1	1218	6	4	antiphase_hc_sio.wav	1	6	1	noise_calib_stim_LEFT.wav	1	11	blb_dichoticlistening_da-pa.mp3	da	pa	1	left
6.6.1	win	2023-07-09	15:47:55	0	0	59d3d4026cc82800013e31a2	2	1	DL_test	14	DL_test	12			0		ga	1	964	6	4	antiphase_hc_sio.wav	1	6	1	noise_calib_stim_LEFT.wav	1	18	blb_dichoticlistening_ga-ta.mp3	ga	ta	1	left
6.6.1	win	2023-07-09	15:47:55	0	0	59d3d4026cc82800013e31a2	2	1	DL_test	14	DL_test	13			0		ga	0	2206	6	4	antiphase_hc_sio.wav	1	6	1	noise_calib_stim_LEFT.wav	1	19	blb_dichoticlistening_ka-ba.mp3	ka	ba	1	other
6.6.1	win	2023-07-09	15:47:55	0	0	59d3d4026cc82800013e31a2	2	1	DL_test	14	DL_test	14			0		da	1	1193	6	4	antiphase_hc_sio.wav	1	6	1	noise_calib_stim_LEFT.wav	1	7	blb_dichoticlistening_da-ba.mp3	da	ba	1	left
6.6.1	win	2023-07-09	15:47:55	0	0	59d3d4026cc82800013e31a2	2	1	DL_test	14	DL_test	15			0		ta	1	1384	6	4	antiphase_hc_sio.wav	1	6	1	noise_calib_stim_LEFT.wav	1	30	blb_dichoticlistening_pa-ta.mp3	pa	ta	1	right
6.6.1	win	2023-07-09	15:47:55	0	0	59d3d4026cc82800013e31a2	2	1	DL_test	14	DL_test	16			0		ka	1	1199	6	4	antiphase_hc_sio.wav	1	6	1	noise_calib_stim_LEFT.wav	1	34	blb_dichoticlistening_ta-ka.mp3	ta	ka	1	right
6.6.1	win	2023-07-09	15:47:55	0	0	59d3d4026cc82800013e31a2	2	1	DL_test	14	DL_test	17			0		ga	1	973	6	4	antiphase_hc_sio.wav	1	6	1	noise_calib_stim_LEFT.wav	1	16	blb_dichoticlistening_ga-ka.mp3	ga	ka	1	left
6.6.1	win	2023-07-09	15:47:55	0	0	59d3d4026cc82800013e31a2	2	1	DL_test	14	DL_test	18			0		pa	1	1972	6	4	antiphase_hc_sio.wav	1	6	1	noise_calib_stim_LEFT.wav	1	25	blb_dichoticlistening_pa-ba.mp3	pa	ba	1	left
6.6.1	win	2023-07-09	15:47:55	0	0	59d3d4026cc82800013e31a2	2	1	DL_test	14	DL_test	19			0		ka	1	1113	6	4	antiphase_hc_sio.wav	1	6	1	noise_calib_stim_LEFT.wav	1	23	blb_dichoticlistening_ka-pa.mp3	ka	pa	1	left
6.6.1	win	2023-07-09	15:47:55	0	0	59d3d4026cc82800013e31a2	2	1	DL_test	14	DL_test	20			0		ka	0	1826	6	4	antiphase_hc_sio.wav	1	6	1	noise_calib_stim_LEFT.wav	1	5	blb_dichoticlistening_ba-pa.mp3	ba	pa	1	other
6.6.1	win	2023-07-09	15:47:55	0	0	59d3d4026cc82800013e31a2	2	1	DL_test	14	DL_test	21			0		ta	1	1382	6	4	antiphase_hc_sio.wav	1	6	1	noise_calib_stim_LEFT.wav	1	31	blb_dichoticlistening_ta-ba.mp3	ta	ba	1	left
6.6.1	win	2023-07-09	15:47:55	0	0	59d3d4026cc82800013e31a2	2	1	DL_test	14	DL_test	22			0		da	1	1108	6	4	antiphase_hc_sio.wav	1	6	1	noise_calib_stim_LEFT.wav	1	20	blb_dichoticlistening_ka-da.mp3	ka	da	1	right
6.6.1	win	2023-07-09	15:47:55	0	0	59d3d4026cc82800013e31a2	2	1	DL_test	14	DL_test	23			0		ka	1	1073	6	4	antiphase_hc_sio.wav	1	6	1	noise_calib_stim_LEFT.wav	1	24	blb_dichoticlistening_ka-ta.mp3	ka	ta	1	left
6.6.1	win	2023-07-09	15:47:55	0	0	59d3d4026cc82800013e31a2	2	1	DL_test	14	DL_test	24			0		ba	1	1587	6	4	antiphase_hc_sio.wav	1	6	1	noise_calib_stim_LEFT.wav	1	6	blb_dichoticlistening_ba-ta.mp3	ba	ta	1	left
6.6.1	win	2023-07-09	15:47:55	0	0	59d3d4026cc82800013e31a2	2	1	DL_test	14	DL_test	25			0		ta	1	1536	6	4	antiphase_hc_sio.wav	1	6	1	noise_calib_stim_LEFT.wav	1	35	blb_dichoticlistening_ta-pa.mp3	ta	pa	1	left
6.6.1	win	2023-07-09	15:47:55	0	0	59d3d4026cc82800013e31a2	2	1	DL_test	14	DL_test	26			0		ga	1	997	6	4	antiphase_hc_sio.wav	1	6	1	noise_calib_stim_LEFT.wav	1	15	blb_dichoticlistening_ga-ga.mp3	ga	ga	0	left
6.6.1	win	2023-07-09	15:47:55	0	0	59d3d4026cc82800013e31a2	2	1	DL_test	14	DL_test	27			0		ba	1	1306	6	4	antiphase_hc_sio.wav	1	6	1	noise_calib_stim_LEFT.wav	1	1	blb_dichoticlistening_ba-ba.mp3	ba	ba	0	left
6.6.1	win	2023-07-09	15:47:55	0	0	59d3d4026cc82800013e31a2	2	1	DL_test	14	DL_test	28			0		ta	1	1327	6	4	antiphase_hc_sio.wav	1	6	1	noise_calib_stim_LEFT.wav	1	36	blb_dichoticlistening_ta-ta.mp3	ta	ta	0	left
6.6.1	win	2023-07-09	15:47:55	0	0	59d3d4026cc82800013e31a2	2	1	DL_test	14	DL_test	29			0		da	1	878	6	4	antiphase_hc_sio.wav	1	6	1	noise_calib_stim_LEFT.wav	1	32	blb_dichoticlistening_ta-da.mp3	ta	da	1	right
6.6.1	win	2023-07-09	15:47:55	0	0	59d3d4026cc82800013e31a2	2	1	DL_test	14	DL_test	30			0		da	1	782	6	4	antiphase_hc_sio.wav	1	6	1	noise_calib_stim_LEFT.wav	1	10	blb_dichoticlistening_da-ka.mp3	da	ka	1	left
6.6.1	win	2023-07-09	15:47:55	0	0	59d3d4026cc82800013e31a2	2	1	DL_test	14	DL_test	31			0		da	0	944	6	4	antiphase_hc_sio.wav	1	6	1	noise_calib_stim_LEFT.wav	1	33	blb_dichoticlistening_ta-ga.mp3	ta	ga	1	other
6.6.1	win	2023-07-09	15:47:55	0	0	59d3d4026cc82800013e31a2	2	1	DL_test	14	DL_test	32			0		da	1	1117	6	4	antiphase_hc_sio.wav	1	6	1	noise_calib_stim_LEFT.wav	1	12	blb_dichoticlistening_da-ta.mp3	da	ta	1	left
6.6.1	win	2023-07-09	15:47:55	0	0	59d3d4026cc82800013e31a2	2	1	DL_test	14	DL_test	33			0		da	1	1051	6	4	antiphase_hc_sio.wav	1	6	1	noise_calib_stim_LEFT.wav	1	8	blb_dichoticlistening_da-da.mp3	da	da	0	left
6.6.1	win	2023-07-09	15:47:55	0	0	59d3d4026cc82800013e31a2	2	1	DL_test	14	DL_test	34			0		ba	1	1239	6	4	antiphase_hc_sio.wav	1	6	1	noise_calib_stim_LEFT.wav	1	3	blb_dichoticlistening_ba-ga.mp3	ba	ga	1	left
6.6.1	win	2023-07-09	15:47:55	0	0	59d3d4026cc82800013e31a2	2	1	DL_test	14	DL_test	35			0		ka	1	1055	6	4	antiphase_hc_sio.wav	1	6	1	noise_calib_stim_LEFT.wav	1	28	blb_dichoticlistening_pa-ka.mp3	pa	ka	1	right
6.6.1	win	2023-07-09	15:47:55	0	0	59d3d4026cc82800013e31a2	2	1	DL_test	14	DL_test	36			0		ga	1	938	6	4	antiphase_hc_sio.wav	1	6	1	noise_calib_stim_LEFT.wav	1	9	blb_dichoticlistening_da-ga.mp3	da	ga	1	right
6.6.1	win	2023-07-09	15:47:55	0	0	59d3d4026cc82800013e31a2	2	1	DL_test	15	DL_test	1			0		ka	1	1229	6	4	antiphase_hc_sio.wav	1	6	1	noise_calib_stim_LEFT.wav	1	34	blb_dichoticlistening_ta-ka.mp3	ta	ka	1	right
6.6.1	win	2023-07-09	15:47:55	0	0	59d3d4026cc82800013e31a2	2	1	DL_test	15	DL_test	2			0		ga	1	1308	6	4	antiphase_hc_sio.wav	1	6	1	noise_calib_stim_LEFT.wav	1	15	blb_dichoticlistening_ga-ga.mp3	ga	ga	0	left
6.6.1	win	2023-07-09	15:47:55	0	0	59d3d4026cc82800013e31a2	2	1	DL_test	15	DL_test	3			0		ta	1	1224	6	4	antiphase_hc_sio.wav	1	6	1	noise_calib_stim_LEFT.wav	1	30	blb_dichoticlistening_pa-ta.mp3	pa	ta	1	right
6.6.1	win	2023-07-09	15:47:55	0	0	59d3d4026cc82800013e31a2	2	1	DL_test	15	DL_test	4			0		ga	1	1085	6	4	antiphase_hc_sio.wav	1	6	1	noise_calib_stim_LEFT.wav	1	9	blb_dichoticlistening_da-ga.mp3	da	ga	1	right
6.6.1	win	2023-07-09	15:47:55	0	0	59d3d4026cc82800013e31a2	2	1	DL_test	15	DL_test	5			0		da	1	1205	6	4	antiphase_hc_sio.wav	1	6	1	noise_calib_stim_LEFT.wav	1	8	blb_dichoticlistening_da-da.mp3	da	da	0	left
6.6.1	win	2023-07-09	15:47:55	0	0	59d3d4026cc82800013e31a2	2	1	DL_test	15	DL_test	6			0		ba	1	1309	6	4	antiphase_hc_sio.wav	1	6	1	noise_calib_stim_LEFT.wav	1	6	blb_dichoticlistening_ba-ta.mp3	ba	ta	1	left
6.6.1	win	2023-07-09	15:47:55	0	0	59d3d4026cc82800013e31a2	2	1	DL_test	15	DL_test	7			0		ga	1	992	6	4	antiphase_hc_sio.wav	1	6	1	noise_calib_stim_LEFT.wav	1	17	blb_dichoticlistening_ga-pa.mp3	ga	pa	1	left
6.6.1	win	2023-07-09	15:47:55	0	0	59d3d4026cc82800013e31a2	2	1	DL_test	15	DL_test	8			0		ka	1	1488	6	4	antiphase_hc_sio.wav	1	6	1	noise_calib_stim_LEFT.wav	1	24	blb_dichoticlistening_ka-ta.mp3	ka	ta	1	left
6.6.1	win	2023-07-09	15:47:55	0	0	59d3d4026cc82800013e31a2	2	1	DL_test	15	DL_test	9			0		ba	1	1380	6	4	antiphase_hc_sio.wav	1	6	1	noise_calib_stim_LEFT.wav	1	1	blb_dichoticlistening_ba-ba.mp3	ba	ba	0	left
6.6.1	win	2023-07-09	15:47:55	0	0	59d3d4026cc82800013e31a2	2	1	DL_test	15	DL_test	10			0		ka	1	1294	6	4	antiphase_hc_sio.wav	1	6	1	noise_calib_stim_LEFT.wav	1	23	blb_dichoticlistening_ka-pa.mp3	ka	pa	1	left
6.6.1	win	2023-07-09	15:47:55	0	0	59d3d4026cc82800013e31a2	2	1	DL_test	15	DL_test	11			0		da	1	1311	6	4	antiphase_hc_sio.wav	1	6	1	noise_calib_stim_LEFT.wav	1	7	blb_dichoticlistening_da-ba.mp3	da	ba	1	left
6.6.1	win	2023-07-09	15:47:55	0	0	59d3d4026cc82800013e31a2	2	1	DL_test	15	DL_test	12			0		ba	1	1827	6	4	antiphase_hc_sio.wav	1	6	1	noise_calib_stim_LEFT.wav	1	2	blb_dichoticlistening_ba-da.mp3	ba	da	1	left
6.6.1	win	2023-07-09	15:47:55	0	0	59d3d4026cc82800013e31a2	2	1	DL_test	15	DL_test	13			0		ta	1	2028	6	4	antiphase_hc_sio.wav	1	6	1	noise_calib_stim_LEFT.wav	1	31	blb_dichoticlistening_ta-ba.mp3	ta	ba	1	left
6.6.1	win	2023-07-09	15:47:55	0	0	59d3d4026cc82800013e31a2	2	1	DL_test	15	DL_test	14			0		ta	1	1100	6	4	antiphase_hc_sio.wav	1	6	1	noise_calib_stim_LEFT.wav	1	36	blb_dichoticlistening_ta-ta.mp3	ta	ta	0	left
6.6.1	win	2023-07-09	15:47:55	0	0	59d3d4026cc82800013e31a2	2	1	DL_test	15	DL_test	15			0		pa	1	1146	6	4	antiphase_hc_sio.wav	1	6	1	noise_calib_stim_LEFT.wav	1	29	blb_dichoticlistening_pa-pa.mp3	pa	pa	0	left
6.6.1	win	2023-07-09	15:47:55	0	0	59d3d4026cc82800013e31a2	2	1	DL_test	15	DL_test	16			0		da	1	910	6	4	antiphase_hc_sio.wav	1	6	1	noise_calib_stim_LEFT.wav	1	32	blb_dichoticlistening_ta-da.mp3	ta	da	1	right
6.6.1	win	2023-07-09	15:47:55	0	0	59d3d4026cc82800013e31a2	2	1	DL_test	15	DL_test	17			0		ka	1	1124	6	4	antiphase_hc_sio.wav	1	6	1	noise_calib_stim_LEFT.wav	1	22	blb_dichoticlistening_ka-ka.mp3	ka	ka	0	left
6.6.1	win	2023-07-09	15:47:55	0	0	59d3d4026cc82800013e31a2	2	1	DL_test	15	DL_test	18			0		ka	1	1328	6	4	antiphase_hc_sio.wav	1	6	1	noise_calib_stim_LEFT.wav	1	19	blb_dichoticlistening_ka-ba.mp3	ka	ba	1	left
6.6.1	win	2023-07-09	15:47:55	0	0	59d3d4026cc82800013e31a2	2	1	DL_test	15	DL_test	19			0		da	1	928	6	4	antiphase_hc_sio.wav	1	6	1	noise_calib_stim_LEFT.wav	1	11	blb_dichoticlistening_da-pa.mp3	da	pa	1	left
6.6.1	win	2023-07-09	15:47:55	0	0	59d3d4026cc82800013e31a2	2	1	DL_test	15	DL_test	20			0		ga	1	1143	6	4	antiphase_hc_sio.wav	1	6	1	noise_calib_stim_LEFT.wav	1	21	blb_dichoticlistening_ka-ga.mp3	ka	ga	1	right
6.6.1	win	2023-07-09	15:47:55	0	0	59d3d4026cc82800013e31a2	2	1	DL_test	15	DL_test	21			0		ba	1	1355	6	4	antiphase_hc_sio.wav	1	6	1	noise_calib_stim_LEFT.wav	1	3	blb_dichoticlistening_ba-ga.mp3	ba	ga	1	left
6.6.1	win	2023-07-09	15:47:55	0	0	59d3d4026cc82800013e31a2	2	1	DL_test	15	DL_test	22			0		ka	1	1494	6	4	antiphase_hc_sio.wav	1	6	1	noise_calib_stim_LEFT.wav	1	20	blb_dichoticlistening_ka-da.mp3	ka	da	1	left
6.6.1	win	2023-07-09	15:47:55	0	0	59d3d4026cc82800013e31a2	2	1	DL_test	15	DL_test	23			0		da	1	1081	6	4	antiphase_hc_sio.wav	1	6	1	noise_calib_stim_LEFT.wav	1	12	blb_dichoticlistening_da-ta.mp3	da	ta	1	left
6.6.1	win	2023-07-09	15:47:55	0	0	59d3d4026cc82800013e31a2	2	1	DL_test	15	DL_test	24			0		da	1	837	6	4	antiphase_hc_sio.wav	1	6	1	noise_calib_stim_LEFT.wav	1	14	blb_dichoticlistening_ga-da.mp3	ga	da	1	right
6.6.1	win	2023-07-09	15:47:55	0	0	59d3d4026cc82800013e31a2	2	1	DL_test	15	DL_test	25			0		ka	1	1354	6	4	antiphase_hc_sio.wav	1	6	1	noise_calib_stim_LEFT.wav	1	16	blb_dichoticlistening_ga-ka.mp3	ga	ka	1	right
6.6.1	win	2023-07-09	15:47:55	0	0	59d3d4026cc82800013e31a2	2	1	DL_test	15	DL_test	26			0		ka	0	1641	6	4	antiphase_hc_sio.wav	1	6	1	noise_calib_stim_LEFT.wav	1	33	blb_dichoticlistening_ta-ga.mp3	ta	ga	1	other
6.6.1	win	2023-07-09	15:47:55	0	0	59d3d4026cc82800013e31a2	2	1	DL_test	15	DL_test	27			0		ga	1	1052	6	4	antiphase_hc_sio.wav	1	6	1	noise_calib_stim_LEFT.wav	1	18	blb_dichoticlistening_ga-ta.mp3	ga	ta	1	left
6.6.1	win	2023-07-09	15:47:55	0	0	59d3d4026cc82800013e31a2	2	1	DL_test	15	DL_test	28			0		ta	1	1462	6	4	antiphase_hc_sio.wav	1	6	1	noise_calib_stim_LEFT.wav	1	35	blb_dichoticlistening_ta-pa.mp3	ta	pa	1	left
6.6.1	win	2023-07-09	15:47:55	0	0	59d3d4026cc82800013e31a2	2	1	DL_test	15	DL_test	29			0		ba	1	1571	6	4	antiphase_hc_sio.wav	1	6	1	noise_calib_stim_LEFT.wav	1	13	blb_dichoticlistening_ga-ba.mp3	ga	ba	1	right
6.6.1	win	2023-07-09	15:47:55	0	0	59d3d4026cc82800013e31a2	2	1	DL_test	15	DL_test	30			0		da	1	1322	6	4	antiphase_hc_sio.wav	1	6	1	noise_calib_stim_LEFT.wav	1	26	blb_dichoticlistening_pa-da.mp3	pa	da	1	right
6.6.1	win	2023-07-09	15:47:55	0	0	59d3d4026cc82800013e31a2	2	1	DL_test	15	DL_test	31			0		ka	1	1989	6	4	antiphase_hc_sio.wav	1	6	1	noise_calib_stim_LEFT.wav	1	28	blb_dichoticlistening_pa-ka.mp3	pa	ka	1	right
6.6.1	win	2023-07-09	15:47:55	0	0	59d3d4026cc82800013e31a2	2	1	DL_test	15	DL_test	32			0		da	1	1156	6	4	antiphase_hc_sio.wav	1	6	1	noise_calib_stim_LEFT.wav	1	10	blb_dichoticlistening_da-ka.mp3	da	ka	1	left
6.6.1	win	2023-07-09	15:47:55	0	0	59d3d4026cc82800013e31a2	2	1	DL_test	15	DL_test	33			0		ba	1	1212	6	4	antiphase_hc_sio.wav	1	6	1	noise_calib_stim_LEFT.wav	1	5	blb_dichoticlistening_ba-pa.mp3	ba	pa	1	left
6.6.1	win	2023-07-09	15:47:55	0	0	59d3d4026cc82800013e31a2	2	1	DL_test	15	DL_test	34			0		ka	0	1305	6	4	antiphase_hc_sio.wav	1	6	1	noise_calib_stim_LEFT.wav	1	25	blb_dichoticlistening_pa-ba.mp3	pa	ba	1	other
6.6.1	win	2023-07-09	15:47:55	0	0	59d3d4026cc82800013e31a2	2	1	DL_test	15	DL_test	35			0		ka	0	1124	6	4	antiphase_hc_sio.wav	1	6	1	noise_calib_stim_LEFT.wav	1	27	blb_dichoticlistening_pa-ga.mp3	pa	ga	1	other
6.6.1	win	2023-07-09	15:47:55	0	0	59d3d4026cc82800013e31a2	2	1	DL_test	15	DL_test	36			0		ba	1	1098	6	4	antiphase_hc_sio.wav	1	6	1	noise_calib_stim_LEFT.wav	1	4	blb_dichoticlistening_ba-ka.mp3	ba	ka	1	left
6.6.1	win	2023-07-09	15:47:55	0	0	59d3d4026cc82800013e31a2	2	1	DL_test	16	DL_test	1			0		da	1	880	6	4	antiphase_hc_sio.wav	1	6	1	noise_calib_stim_LEFT.wav	1	11	blb_dichoticlistening_da-pa.mp3	da	pa	1	left
6.6.1	win	2023-07-09	15:47:55	0	0	59d3d4026cc82800013e31a2	2	1	DL_test	16	DL_test	2			0		da	0	900	6	4	antiphase_hc_sio.wav	1	6	1	noise_calib_stim_LEFT.wav	1	17	blb_dichoticlistening_ga-pa.mp3	ga	pa	1	other
6.6.1	win	2023-07-09	15:47:55	0	0	59d3d4026cc82800013e31a2	2	1	DL_test	16	DL_test	3			0		ba	1	1007	6	4	antiphase_hc_sio.wav	1	6	1	noise_calib_stim_LEFT.wav	1	2	blb_dichoticlistening_ba-da.mp3	ba	da	1	left
6.6.1	win	2023-07-09	15:47:55	0	0	59d3d4026cc82800013e31a2	2	1	DL_test	16	DL_test	4			0		ga	1	1177	6	4	antiphase_hc_sio.wav	1	6	1	noise_calib_stim_LEFT.wav	1	15	blb_dichoticlistening_ga-ga.mp3	ga	ga	0	left
6.6.1	win	2023-07-09	15:47:55	0	0	59d3d4026cc82800013e31a2	2	1	DL_test	16	DL_test	5			0		ba	1	1088	6	4	antiphase_hc_sio.wav	1	6	1	noise_calib_stim_LEFT.wav	1	13	blb_dichoticlistening_ga-ba.mp3	ga	ba	1	right
6.6.1	win	2023-07-09	15:47:55	0	0	59d3d4026cc82800013e31a2	2	1	DL_test	16	DL_test	6			0		ba	1	1059	6	4	antiphase_hc_sio.wav	1	6	1	noise_calib_stim_LEFT.wav	1	6	blb_dichoticlistening_ba-ta.mp3	ba	ta	1	left
6.6.1	win	2023-07-09	15:47:55	0	0	59d3d4026cc82800013e31a2	2	1	DL_test	16	DL_test	7			0		ta	1	1272	6	4	antiphase_hc_sio.wav	1	6	1	noise_calib_stim_LEFT.wav	1	35	blb_dichoticlistening_ta-pa.mp3	ta	pa	1	left
6.6.1	win	2023-07-09	15:47:55	0	0	59d3d4026cc82800013e31a2	2	1	DL_test	16	DL_test	8			0		ga	1	1684	6	4	antiphase_hc_sio.wav	1	6	1	noise_calib_stim_LEFT.wav	1	9	blb_dichoticlistening_da-ga.mp3	da	ga	1	right
6.6.1	win	2023-07-09	15:47:55	0	0	59d3d4026cc82800013e31a2	2	1	DL_test	16	DL_test	9			0		ga	1	883	6	4	antiphase_hc_sio.wav	1	6	1	noise_calib_stim_LEFT.wav	1	18	blb_dichoticlistening_ga-ta.mp3	ga	ta	1	left
6.6.1	win	2023-07-09	15:47:55	0	0	59d3d4026cc82800013e31a2	2	1	DL_test	16	DL_test	10			0		pa	1	1534	6	4	antiphase_hc_sio.wav	1	6	1	noise_calib_stim_LEFT.wav	1	25	blb_dichoticlistening_pa-ba.mp3	pa	ba	1	left
6.6.1	win	2023-07-09	15:47:55	0	0	59d3d4026cc82800013e31a2	2	1	DL_test	16	DL_test	11			0		ta	1	1642	6	4	antiphase_hc_sio.wav	1	6	1	noise_calib_stim_LEFT.wav	1	31	blb_dichoticlistening_ta-ba.mp3	ta	ba	1	left
6.6.1	win	2023-07-09	15:47:55	0	0	59d3d4026cc82800013e31a2	2	1	DL_test	16	DL_test	12			0		ga	1	1427	6	4	antiphase_hc_sio.wav	1	6	1	noise_calib_stim_LEFT.wav	1	27	blb_dichoticlistening_pa-ga.mp3	pa	ga	1	right
6.6.1	win	2023-07-09	15:47:55	0	0	59d3d4026cc82800013e31a2	2	1	DL_test	16	DL_test	13			0		ba	1	1554	6	4	antiphase_hc_sio.wav	1	6	1	noise_calib_stim_LEFT.wav	1	4	blb_dichoticlistening_ba-ka.mp3	ba	ka	1	left
6.6.1	win	2023-07-09	15:47:55	0	0	59d3d4026cc82800013e31a2	2	1	DL_test	16	DL_test	14			0		ba	1	845	6	4	antiphase_hc_sio.wav	1	6	1	noise_calib_stim_LEFT.wav	1	7	blb_dichoticlistening_da-ba.mp3	da	ba	1	right
6.6.1	win	2023-07-09	15:47:55	0	0	59d3d4026cc82800013e31a2	2	1	DL_test	16	DL_test	15			0		da	1	1063	6	4	antiphase_hc_sio.wav	1	6	1	noise_calib_stim_LEFT.wav	1	8	blb_dichoticlistening_da-da.mp3	da	da	0	left
6.6.1	win	2023-07-09	15:47:55	0	0	59d3d4026cc82800013e31a2	2	1	DL_test	16	DL_test	16			0		ta	1	1222	6	4	antiphase_hc_sio.wav	1	6	1	noise_calib_stim_LEFT.wav	1	36	blb_dichoticlistening_ta-ta.mp3	ta	ta	0	left
6.6.1	win	2023-07-09	15:47:55	0	0	59d3d4026cc82800013e31a2	2	1	DL_test	16	DL_test	17			0		ba	1	1524	6	4	antiphase_hc_sio.wav	1	6	1	noise_calib_stim_LEFT.wav	1	5	blb_dichoticlistening_ba-pa.mp3	ba	pa	1	left
6.6.1	win	2023-07-09	15:47:55	0	0	59d3d4026cc82800013e31a2	2	1	DL_test	16	DL_test	18			0		da	1	1000	6	4	antiphase_hc_sio.wav	1	6	1	noise_calib_stim_LEFT.wav	1	10	blb_dichoticlistening_da-ka.mp3	da	ka	1	left
6.6.1	win	2023-07-09	15:47:55	0	0	59d3d4026cc82800013e31a2	2	1	DL_test	16	DL_test	19			0		ka	1	1587	6	4	antiphase_hc_sio.wav	1	6	1	noise_calib_stim_LEFT.wav	1	21	blb_dichoticlistening_ka-ga.mp3	ka	ga	1	left
6.6.1	win	2023-07-09	15:47:55	0	0	59d3d4026cc82800013e31a2	2	1	DL_test	16	DL_test	20			0		ta	1	2155	6	4	antiphase_hc_sio.wav	1	6	1	noise_calib_stim_LEFT.wav	1	30	blb_dichoticlistening_pa-ta.mp3	pa	ta	1	right
6.6.1	win	2023-07-09	15:47:55	0	0	59d3d4026cc82800013e31a2	2	1	DL_test	16	DL_test	21			0		da	1	1090	6	4	antiphase_hc_sio.wav	1	6	1	noise_calib_stim_LEFT.wav	1	12	blb_dichoticlistening_da-ta.mp3	da	ta	1	left
6.6.1	win	2023-07-09	15:47:55	0	0	59d3d4026cc82800013e31a2	2	1	DL_test	16	DL_test	22			0		ba	1	1067	6	4	antiphase_hc_sio.wav	1	6	1	noise_calib_stim_LEFT.wav	1	1	blb_dichoticlistening_ba-ba.mp3	ba	ba	0	left
6.6.1	win	2023-07-09	15:47:55	0	0	59d3d4026cc82800013e31a2	2	1	DL_test	16	DL_test	23			0		ta	1	1599	6	4	antiphase_hc_sio.wav	1	6	1	noise_calib_stim_LEFT.wav	1	24	blb_dichoticlistening_ka-ta.mp3	ka	ta	1	right
6.6.1	win	2023-07-09	15:47:55	0	0	59d3d4026cc82800013e31a2	2	1	DL_test	16	DL_test	24			0		ga	1	1548	6	4	antiphase_hc_sio.wav	1	6	1	noise_calib_stim_LEFT.wav	1	14	blb_dichoticlistening_ga-da.mp3	ga	da	1	left
6.6.1	win	2023-07-09	15:47:55	0	0	59d3d4026cc82800013e31a2	2	1	DL_test	16	DL_test	25			0		ka	1	1355	6	4	antiphase_hc_sio.wav	1	6	1	noise_calib_stim_LEFT.wav	1	23	blb_dichoticlistening_ka-pa.mp3	ka	pa	1	left
6.6.1	win	2023-07-09	15:47:55	0	0	59d3d4026cc82800013e31a2	2	1	DL_test	16	DL_test	26			0		ba	1	1605	6	4	antiphase_hc_sio.wav	1	6	1	noise_calib_stim_LEFT.wav	1	3	blb_dichoticlistening_ba-ga.mp3	ba	ga	1	left
6.6.1	win	2023-07-09	15:47:55	0	0	59d3d4026cc82800013e31a2	2	1	DL_test	16	DL_test	27			0		ka	1	1361	6	4	antiphase_hc_sio.wav	1	6	1	noise_calib_stim_LEFT.wav	1	22	blb_dichoticlistening_ka-ka.mp3	ka	ka	0	left
6.6.1	win	2023-07-09	15:47:55	0	0	59d3d4026cc82800013e31a2	2	1	DL_test	16	DL_test	28			0		ta	1	1842	6	4	antiphase_hc_sio.wav	1	6	1	noise_calib_stim_LEFT.wav	1	32	blb_dichoticlistening_ta-da.mp3	ta	da	1	left
6.6.1	win	2023-07-09	15:47:55	0	0	59d3d4026cc82800013e31a2	2	1	DL_test	16	DL_test	29			0		pa	1	1181	6	4	antiphase_hc_sio.wav	1	6	1	noise_calib_stim_LEFT.wav	1	29	blb_dichoticlistening_pa-pa.mp3	pa	pa	0	left
6.6.1	win	2023-07-09	15:47:55	0	0	59d3d4026cc82800013e31a2	2	1	DL_test	16	DL_test	30			0		ka	1	1482	6	4	antiphase_hc_sio.wav	1	6	1	noise_calib_stim_LEFT.wav	1	28	blb_dichoticlistening_pa-ka.mp3	pa	ka	1	right
6.6.1	win	2023-07-09	15:47:55	0	0	59d3d4026cc82800013e31a2	2	1	DL_test	16	DL_test	31			0		ka	1	1406	6	4	antiphase_hc_sio.wav	1	6	1	noise_calib_stim_LEFT.wav	1	19	blb_dichoticlistening_ka-ba.mp3	ka	ba	1	left
6.6.1	win	2023-07-09	15:47:55	0	0	59d3d4026cc82800013e31a2	2	1	DL_test	16	DL_test	32			0		ka	0	2982	6	4	antiphase_hc_sio.wav	1	6	1	noise_calib_stim_LEFT.wav	1	33	blb_dichoticlistening_ta-ga.mp3	ta	ga	1	other
6.6.1	win	2023-07-09	15:47:55	0	0	59d3d4026cc82800013e31a2	2	1	DL_test	16	DL_test	33			0		ga	1	2112	6	4	antiphase_hc_sio.wav	1	6	1	noise_calib_stim_LEFT.wav	1	16	blb_dichoticlistening_ga-ka.mp3	ga	ka	1	left
6.6.1	win	2023-07-09	15:47:55	0	0	59d3d4026cc82800013e31a2	2	1	DL_test	16	DL_test	34			0		ta	0	2140	6	4	antiphase_hc_sio.wav	1	6	1	noise_calib_stim_LEFT.wav	1	26	blb_dichoticlistening_pa-da.mp3	pa	da	1	other
6.6.1	win	2023-07-09	15:47:55	0	0	59d3d4026cc82800013e31a2	2	1	DL_test	16	DL_test	35			0		ta	0	1297	6	4	antiphase_hc_sio.wav	1	6	1	noise_calib_stim_LEFT.wav	1	20	blb_dichoticlistening_ka-da.mp3	ka	da	1	other
6.6.1	win	2023-07-09	15:47:55	0	0	59d3d4026cc82800013e31a2	2	1	DL_test	16	DL_test	36			0		ka	1	1225	6	4	antiphase_hc_sio.wav	1	6	1	noise_calib_stim_LEFT.wav	1	34	blb_dichoticlistening_ta-ka.mp3	ta	ka	1	right
6.6.1	win	2023-07-09	15:47:55	16:04:10	967192	59d3d4026cc82800013e31a2	2	1	practice_z	22	practice_z	1	stimuli_distractor_trianglediamonds.svg	stimuli_target_rectanglediamonds.svg	10	yes	0	0	2000	6	4	antiphase_hc_sio.wav	1	6	1	noise_calib_stim_LEFT.wav	1	34	blb_dichoticlistening_ta-ka.mp3	ta	ka	1	right
6.6.1	win	2023-07-09	15:47:55	16:04:10	967192	59d3d4026cc82800013e31a2	2	1	practice_z	22	advance_on_keypress_ZEE	2	stimuli_distractor_trianglediamonds.svg	stimuli_target_rectanglediamonds.svg	10	yes	57	0	10836	6	4	antiphase_hc_sio.wav	1	6	1	noise_calib_stim_LEFT.wav	1	34	blb_dichoticlistening_ta-ka.mp3	ta	ka	1	right
6.6.1	win	2023-07-09	15:47:55	16:04:23	980073	59d3d4026cc82800013e31a2	2	1	practice_z	22	practice_z	3	stimuli_target_diamondsquares.svg	stimuli_distractor_diamondtriangles.svg	3	yes	44	1	396	6	4	antiphase_hc_sio.wav	1	6	1	noise_calib_stim_LEFT.wav	1	34	blb_dichoticlistening_ta-ka.mp3	ta	ka	1	right
6.6.1	win	2023-07-09	15:47:55	16:04:23	980073	59d3d4026cc82800013e31a2	2	1	practice_z	22	advance_on_keypress_ZEE	4	stimuli_target_diamondsquares.svg	stimuli_distractor_diamondtriangles.svg	3	yes	57	0	2888	6	4	antiphase_hc_sio.wav	1	6	1	noise_calib_stim_LEFT.wav	1	34	blb_dichoticlistening_ta-ka.mp3	ta	ka	1	right
6.6.1	win	2023-07-09	15:47:55	16:04:28	985005	59d3d4026cc82800013e31a2	2	1	practice_z	22	practice_z	5	stimuli_distractor_diamondtriangles.svg	stimuli_target_rectangletriangles.svg	7	yes	44	1	370	6	4	antiphase_hc_sio.wav	1	6	1	noise_calib_stim_LEFT.wav	1	34	blb_dichoticlistening_ta-ka.mp3	ta	ka	1	right
6.6.1	win	2023-07-09	15:47:55	16:04:28	985005	59d3d4026cc82800013e31a2	2	1	practice_z	22	advance_on_keypress_ZEE	6	stimuli_distractor_diamondtriangles.svg	stimuli_target_rectangletriangles.svg	7	yes	57	0	962	6	4	antiphase_hc_sio.wav	1	6	1	noise_calib_stim_LEFT.wav	1	34	blb_dichoticlistening_ta-ka.mp3	ta	ka	1	right
6.6.1	win	2023-07-09	15:47:55	16:04:31	988036	59d3d4026cc82800013e31a2	2	1	practice_z	22	practice_z	7	stimuli_target_squarediamonds.svg	stimuli_distractor_trianglediamonds.svg	5	yes	44	1	416	6	4	antiphase_hc_sio.wav	1	6	1	noise_calib_stim_LEFT.wav	1	34	blb_dichoticlistening_ta-ka.mp3	ta	ka	1	right
6.6.1	win	2023-07-09	15:47:55	16:04:31	988036	59d3d4026cc82800013e31a2	2	1	practice_z	22	advance_on_keypress_ZEE	8	stimuli_target_squarediamonds.svg	stimuli_distractor_trianglediamonds.svg	5	yes	57	0	820	6	4	antiphase_hc_sio.wav	1	6	1	noise_calib_stim_LEFT.wav	1	34	blb_dichoticlistening_ta-ka.mp3	ta	ka	1	right
6.6.1	win	2023-07-09	15:47:55	16:04:35	991779	59d3d4026cc82800013e31a2	2	1	practice_z	22	practice_z	9	stimuli_distractor_diamondtriangles.svg	stimuli_target_diamondrectangles.svg	8	yes	44	1	1261	6	4	antiphase_hc_sio.wav	1	6	1	noise_calib_stim_LEFT.wav	1	34	blb_dichoticlistening_ta-ka.mp3	ta	ka	1	right
6.6.1	win	2023-07-09	15:47:55	16:04:35	991779	59d3d4026cc82800013e31a2	2	1	practice_z	22	advance_on_keypress_ZEE	10	stimuli_distractor_diamondtriangles.svg	stimuli_target_diamondrectangles.svg	8	yes	57	0	2339	6	4	antiphase_hc_sio.wav	1	6	1	noise_calib_stim_LEFT.wav	1	34	blb_dichoticlistening_ta-ka.mp3	ta	ka	1	right
6.6.1	win	2023-07-09	15:47:55	16:04:41	997762	59d3d4026cc82800013e31a2	2	1	practice_z	22	practice_z	11	stimuli_distractor_trianglediamonds.svg	stimuli_distractor_trianglediamonds.svg	15	no	0	1	2000	6	4	antiphase_hc_sio.wav	1	6	1	noise_calib_stim_LEFT.wav	1	34	blb_dichoticlistening_ta-ka.mp3	ta	ka	1	right
6.6.1	win	2023-07-09	15:47:55	16:04:41	997762	59d3d4026cc82800013e31a2	2	1	practice_z	22	advance_on_keypress_ZEE	12	stimuli_distractor_trianglediamonds.svg	stimuli_distractor_trianglediamonds.svg	15	no	57	0	1097	6	4	antiphase_hc_sio.wav	1	6	1	noise_calib_stim_LEFT.wav	1	34	blb_dichoticlistening_ta-ka.mp3	ta	ka	1	right
6.6.1	win	2023-07-09	15:47:55	16:04:44	1001478	59d3d4026cc82800013e31a2	2	1	practice_z	22	practice_z	13	stimuli_target_diamondsquares.svg	stimuli_distractor_trianglediamonds.svg	6	yes	44	1	972	6	4	antiphase_hc_sio.wav	1	6	1	noise_calib_stim_LEFT.wav	1	34	blb_dichoticlistening_ta-ka.mp3	ta	ka	1	right
6.6.1	win	2023-07-09	15:47:55	16:04:44	1001478	59d3d4026cc82800013e31a2	2	1	practice_z	22	advance_on_keypress_ZEE	14	stimuli_target_diamondsquares.svg	stimuli_distractor_trianglediamonds.svg	6	yes	57	0	4213	6	4	antiphase_hc_sio.wav	1	6	1	noise_calib_stim_LEFT.wav	1	34	blb_dichoticlistening_ta-ka.mp3	ta	ka	1	right
6.6.1	win	2023-07-09	15:47:55	16:04:51	1007906	59d3d4026cc82800013e31a2	2	1	practice_z	22	practice_z	15	stimuli_target_rectanglediamonds.svg	stimuli_distractor_diamondtriangles.svg	1	yes	44	1	572	6	4	antiphase_hc_sio.wav	1	6	1	noise_calib_stim_LEFT.wav	1	34	blb_dichoticlistening_ta-ka.mp3	ta	ka	1	right
6.6.1	win	2023-07-09	15:47:55	16:04:51	1007906	59d3d4026cc82800013e31a2	2	1	practice_z	22	advance_on_keypress_ZEE	16	stimuli_target_rectanglediamonds.svg	stimuli_distractor_diamondtriangles.svg	1	yes	57	0	1962	6	4	antiphase_hc_sio.wav	1	6	1	noise_calib_stim_LEFT.wav	1	34	blb_dichoticlistening_ta-ka.mp3	ta	ka	1	right
6.6.1	win	2023-07-09	15:47:55	16:04:55	1012218	59d3d4026cc82800013e31a2	2	1	practice_z	22	practice_z	17	stimuli_distractor_diamondtriangles.svg	stimuli_target_trianglerectangles.svg	9	yes	44	1	705	6	4	antiphase_hc_sio.wav	1	6	1	noise_calib_stim_LEFT.wav	1	34	blb_dichoticlistening_ta-ka.mp3	ta	ka	1	right
6.6.1	win	2023-07-09	15:47:55	16:04:55	1012218	59d3d4026cc82800013e31a2	2	1	practice_z	22	advance_on_keypress_ZEE	18	stimuli_distractor_diamondtriangles.svg	stimuli_target_trianglerectangles.svg	9	yes	57	0	941	6	4	antiphase_hc_sio.wav	1	6	1	noise_calib_stim_LEFT.wav	1	34	blb_dichoticlistening_ta-ka.mp3	ta	ka	1	right
6.6.1	win	2023-07-09	15:47:55	16:04:59	1015658	59d3d4026cc82800013e31a2	2	1	practice_z	22	practice_z	19	stimuli_target_squarediamonds.svg	stimuli_distractor_diamondtriangles.svg	2	yes	44	1	866	6	4	antiphase_hc_sio.wav	1	6	1	noise_calib_stim_LEFT.wav	1	34	blb_dichoticlistening_ta-ka.mp3	ta	ka	1	right
6.6.1	win	2023-07-09	15:47:55	16:04:59	1015658	59d3d4026cc82800013e31a2	2	1	practice_z	22	advance_on_keypress_ZEE	20	stimuli_target_squarediamonds.svg	stimuli_distractor_diamondtriangles.svg	2	yes	57	0	1247	6	4	antiphase_hc_sio.wav	1	6	1	noise_calib_stim_LEFT.wav	1	34	blb_dichoticlistening_ta-ka.mp3	ta	ka	1	right
6.6.1	win	2023-07-09	15:47:55	16:05:04	1020556	59d3d4026cc82800013e31a2	2	1	practice_z	22	practice_z	21	stimuli_distractor_trianglediamonds.svg	stimuli_distractor_diamondtriangles.svg	16	no	0	1	2000	6	4	antiphase_hc_sio.wav	1	6	1	noise_calib_stim_LEFT.wav	1	34	blb_dichoticlistening_ta-ka.mp3	ta	ka	1	right
6.6.1	win	2023-07-09	15:47:55	16:05:04	1020556	59d3d4026cc82800013e31a2	2	1	practice_z	22	advance_on_keypress_ZEE	22	stimuli_distractor_trianglediamonds.svg	stimuli_distractor_diamondtriangles.svg	16	no	57	0	827	6	4	antiphase_hc_sio.wav	1	6	1	noise_calib_stim_LEFT.wav	1	34	blb_dichoticlistening_ta-ka.mp3	ta	ka	1	right
6.6.1	win	2023-07-09	15:47:55	16:05:08	1025034	59d3d4026cc82800013e31a2	2	1	practice_z	22	practice_z	23	stimuli_distractor_diamondtriangles.svg	stimuli_distractor_diamondtriangles.svg	13	no	0	1	2000	6	4	antiphase_hc_sio.wav	1	6	1	noise_calib_stim_LEFT.wav	1	34	blb_dichoticlistening_ta-ka.mp3	ta	ka	1	right
6.6.1	win	2023-07-09	15:47:55	16:05:08	1025034	59d3d4026cc82800013e31a2	2	1	practice_z	22	advance_on_keypress_ZEE	24	stimuli_distractor_diamondtriangles.svg	stimuli_distractor_diamondtriangles.svg	13	no	57	0	2095	6	4	antiphase_hc_sio.wav	1	6	1	noise_calib_stim_LEFT.wav	1	34	blb_dichoticlistening_ta-ka.mp3	ta	ka	1	right
6.6.1	win	2023-07-09	15:47:55	16:05:12	1029528	59d3d4026cc82800013e31a2	2	1	practice_z	22	practice_z	25	stimuli_target_rectanglediamonds.svg	stimuli_distractor_trianglediamonds.svg	4	yes	44	1	748	6	4	antiphase_hc_sio.wav	1	6	1	noise_calib_stim_LEFT.wav	1	34	blb_dichoticlistening_ta-ka.mp3	ta	ka	1	right
6.6.1	win	2023-07-09	15:47:55	16:05:12	1029528	59d3d4026cc82800013e31a2	2	1	practice_z	22	advance_on_keypress_ZEE	26	stimuli_target_rectanglediamonds.svg	stimuli_distractor_trianglediamonds.svg	4	yes	57	0	2832	6	4	antiphase_hc_sio.wav	1	6	1	noise_calib_stim_LEFT.wav	1	34	blb_dichoticlistening_ta-ka.mp3	ta	ka	1	right
6.6.1	win	2023-07-09	15:47:55	16:05:19	1036008	59d3d4026cc82800013e31a2	2	1	practice_z	22	practice_z	27	stimuli_distractor_diamondtriangles.svg	stimuli_distractor_trianglediamonds.svg	14	no	0	1	2000	6	4	antiphase_hc_sio.wav	1	6	1	noise_calib_stim_LEFT.wav	1	34	blb_dichoticlistening_ta-ka.mp3	ta	ka	1	right
6.6.1	win	2023-07-09	15:47:55	16:05:19	1036008	59d3d4026cc82800013e31a2	2	1	practice_z	22	advance_on_keypress_ZEE	28	stimuli_distractor_diamondtriangles.svg	stimuli_distractor_trianglediamonds.svg	14	no	57	0	1315	6	4	antiphase_hc_sio.wav	1	6	1	noise_calib_stim_LEFT.wav	1	34	blb_dichoticlistening_ta-ka.mp3	ta	ka	1	right
6.6.1	win	2023-07-09	15:47:55	16:05:23	1039669	59d3d4026cc82800013e31a2	2	1	practice_z	22	practice_z	29	stimuli_distractor_trianglediamonds.svg	stimuli_target_squarediamonds.svg	11	yes	44	1	700	6	4	antiphase_hc_sio.wav	1	6	1	noise_calib_stim_LEFT.wav	1	34	blb_dichoticlistening_ta-ka.mp3	ta	ka	1	right
6.6.1	win	2023-07-09	15:47:55	16:05:23	1039669	59d3d4026cc82800013e31a2	2	1	practice_z	22	advance_on_keypress_ZEE	30	stimuli_distractor_trianglediamonds.svg	stimuli_target_squarediamonds.svg	11	yes	57	0	1130	6	4	antiphase_hc_sio.wav	1	6	1	noise_calib_stim_LEFT.wav	1	34	blb_dichoticlistening_ta-ka.mp3	ta	ka	1	right
6.6.1	win	2023-07-09	15:47:55	16:05:26	1043139	59d3d4026cc82800013e31a2	2	1	practice_z	22	practice_z	31	stimuli_distractor_trianglediamonds.svg	stimuli_target_diamondrectangles.svg	12	yes	44	1	689	6	4	antiphase_hc_sio.wav	1	6	1	noise_calib_stim_LEFT.wav	1	34	blb_dichoticlistening_ta-ka.mp3	ta	ka	1	right
6.6.1	win	2023-07-09	15:47:55	16:05:26	1043139	59d3d4026cc82800013e31a2	2	1	practice_z	22	advance_on_keypress_ZEE	32	stimuli_distractor_trianglediamonds.svg	stimuli_target_diamondrectangles.svg	12	yes	57	0	902	6	4	antiphase_hc_sio.wav	1	6	1	noise_calib_stim_LEFT.wav	1	34	blb_dichoticlistening_ta-ka.mp3	ta	ka	1	right
6.6.1	win	2023-07-09	15:47:55	16:06:31	1107861	59d3d4026cc82800013e31a2	2	1	main_z	24	main_z	1	stimuli_target_diamondrectangles.svg	stimuli_distractor_diamondtriangles.svg	23	yes	44	1	877	6	4	antiphase_hc_sio.wav	1	6	1	noise_calib_stim_LEFT.wav	1	34	blb_dichoticlistening_ta-ka.mp3	ta	ka	1	right
6.6.1	win	2023-07-09	15:47:55	16:06:31	1107861	59d3d4026cc82800013e31a2	2	1	main_z	24	advance_on_keypress_ZEE	2	stimuli_target_diamondrectangles.svg	stimuli_distractor_diamondtriangles.svg	23	yes	57	0	2134	6	4	antiphase_hc_sio.wav	1	6	1	noise_calib_stim_LEFT.wav	1	34	blb_dichoticlistening_ta-ka.mp3	ta	ka	1	right
6.6.1	win	2023-07-09	15:47:55	16:06:34	1111218	59d3d4026cc82800013e31a2	2	1	main_z	24	main_z	3	stimuli_distractor_diamondtriangles.svg	stimuli_target_trianglesquares.svg	30	yes	44	1	571	6	4	antiphase_hc_sio.wav	1	6	1	noise_calib_stim_LEFT.wav	1	34	blb_dichoticlistening_ta-ka.mp3	ta	ka	1	right
6.6.1	win	2023-07-09	15:47:55	16:06:34	1111218	59d3d4026cc82800013e31a2	2	1	main_z	24	advance_on_keypress_ZEE	4	stimuli_distractor_diamondtriangles.svg	stimuli_target_trianglesquares.svg	30	yes	57	0	1666	6	4	antiphase_hc_sio.wav	1	6	1	noise_calib_stim_LEFT.wav	1	34	blb_dichoticlistening_ta-ka.mp3	ta	ka	1	right
6.6.1	win	2023-07-09	15:47:55	16:06:37	1114175	59d3d4026cc82800013e31a2	2	1	main_z	24	main_z	5	stimuli_distractor_trianglediamonds.svg	stimuli_target_rectanglediamonds.svg	10	yes	44	1	647	6	4	antiphase_hc_sio.wav	1	6	1	noise_calib_stim_LEFT.wav	1	34	blb_dichoticlistening_ta-ka.mp3	ta	ka	1	right
6.6.1	win	2023-07-09	15:47:55	16:06:37	1114175	59d3d4026cc82800013e31a2	2	1	main_z	24	advance_on_keypress_ZEE	6	stimuli_distractor_trianglediamonds.svg	stimuli_target_rectanglediamonds.svg	10	yes	57	0	1945	6	4	antiphase_hc_sio.wav	1	6	1	noise_calib_stim_LEFT.wav	1	34	blb_dichoticlistening_ta-ka.mp3	ta	ka	1	right
6.6.1	win	2023-07-09	15:47:55	16:06:40	1117439	59d3d4026cc82800013e31a2	2	1	main_z	24	main_z	7	stimuli_target_squarediamonds.svg	stimuli_distractor_trianglediamonds.svg	4	yes	44	1	664	6	4	antiphase_hc_sio.wav	1	6	1	noise_calib_stim_LEFT.wav	1	34	blb_dichoticlistening_ta-ka.mp3	ta	ka	1	right
6.6.1	win	2023-07-09	15:47:55	16:06:40	1117439	59d3d4026cc82800013e31a2	2	1	main_z	24	advance_on_keypress_ZEE	8	stimuli_target_squarediamonds.svg	stimuli_distractor_trianglediamonds.svg	4	yes	57	0	2454	6	4	antiphase_hc_sio.wav	1	6	1	noise_calib_stim_LEFT.wav	1	34	blb_dichoticlistening_ta-ka.mp3	ta	ka	1	right
6.6.1	win	2023-07-09	15:47:55	16:06:44	1121149	59d3d4026cc82800013e31a2	2	1	main_z	24	main_z	9	stimuli_target_diamondrectangles.svg	stimuli_distractor_trianglediamonds.svg	19	yes	44	1	612	6	4	antiphase_hc_sio.wav	1	6	1	noise_calib_stim_LEFT.wav	1	34	blb_dichoticlistening_ta-ka.mp3	ta	ka	1	right
6.6.1	win	2023-07-09	15:47:55	16:06:44	1121149	59d3d4026cc82800013e31a2	2	1	main_z	24	advance_on_keypress_ZEE	10	stimuli_target_diamondrectangles.svg	stimuli_distractor_trianglediamonds.svg	19	yes	57	0	1376	6	4	antiphase_hc_sio.wav	1	6	1	noise_calib_stim_LEFT.wav	1	34	blb_dichoticlistening_ta-ka.mp3	ta	ka	1	right
6.6.1	win	2023-07-09	15:47:55	16:06:47	1123764	59d3d4026cc82800013e31a2	2	1	main_z	24	main_z	11	stimuli_distractor_diamondtriangles.svg	stimuli_target_rectanglediamonds.svg	14	yes	44	1	580	6	4	antiphase_hc_sio.wav	1	6	1	noise_calib_stim_LEFT.wav	1	34	blb_dichoticlistening_ta-ka.mp3	ta	ka	1	right
6.6.1	win	2023-07-09	15:47:55	16:06:47	1123764	59d3d4026cc82800013e31a2	2	1	main_z	24	advance_on_keypress_ZEE	12	stimuli_distractor_diamondtriangles.svg	stimuli_target_rectanglediamonds.svg	14	yes	57	0	1713	6	4	antiphase_hc_sio.wav	1	6	1	noise_calib_stim_LEFT.wav	1	34	blb_dichoticlistening_ta-ka.mp3	ta	ka	1	right
6.6.1	win	2023-07-09	15:47:55	16:06:51	1128132	59d3d4026cc82800013e31a2	2	1	main_z	24	main_z	13	stimuli_distractor_trianglediamonds.svg	stimuli_distractor_diamondtriangles.svg	35	no	0	1	2000	6	4	antiphase_hc_sio.wav	1	6	1	noise_calib_stim_LEFT.wav	1	34	blb_dichoticlistening_ta-ka.mp3	ta	ka	1	right
6.6.1	win	2023-07-09	15:47:55	16:06:51	1128132	59d3d4026cc82800013e31a2	2	1	main_z	24	advance_on_keypress_ZEE	14	stimuli_distractor_trianglediamonds.svg	stimuli_distractor_diamondtriangles.svg	35	no	57	0	699	6	4	antiphase_hc_sio.wav	1	6	1	noise_calib_stim_LEFT.wav	1	34	blb_dichoticlistening_ta-ka.mp3	ta	ka	1	right
6.6.1	win	2023-07-09	15:47:55	16:06:54	1131478	59d3d4026cc82800013e31a2	2	1	main_z	24	main_z	15	stimuli_distractor_trianglediamonds.svg	stimuli_distractor_trianglediamonds.svg	34	no	0	1	2000	6	4	antiphase_hc_sio.wav	1	6	1	noise_calib_stim_LEFT.wav	1	34	blb_dichoticlistening_ta-ka.mp3	ta	ka	1	right
6.6.1	win	2023-07-09	15:47:55	16:06:54	1131478	59d3d4026cc82800013e31a2	2	1	main_z	24	advance_on_keypress_ZEE	16	stimuli_distractor_trianglediamonds.svg	stimuli_distractor_trianglediamonds.svg	34	no	57	0	675	6	4	antiphase_hc_sio.wav	1	6	1	noise_calib_stim_LEFT.wav	1	34	blb_dichoticlistening_ta-ka.mp3	ta	ka	1	right
6.6.1	win	2023-07-09	15:47:55	16:06:56	1133237	59d3d4026cc82800013e31a2	2	1	main_z	24	main_z	17	stimuli_target_trianglesquares.svg	stimuli_distractor_trianglediamonds.svg	18	yes	44	1	446	6	4	antiphase_hc_sio.wav	1	6	1	noise_calib_stim_LEFT.wav	1	34	blb_dichoticlistening_ta-ka.mp3	ta	ka	1	right
6.6.1	win	2023-07-09	15:47:55	16:06:56	1133237	59d3d4026cc82800013e31a2	2	1	main_z	24	advance_on_keypress_ZEE	18	stimuli_target_trianglesquares.svg	stimuli_distractor_trianglediamonds.svg	18	yes	57	0	1627	6	4	antiphase_hc_sio.wav	1	6	1	noise_calib_stim_LEFT.wav	1	34	blb_dichoticlistening_ta-ka.mp3	ta	ka	1	right
6.6.1	win	2023-07-09	15:47:55	16:06:59	1136202	59d3d4026cc82800013e31a2	2	1	main_z	24	main_z	19	stimuli_distractor_diamondtriangles.svg	stimuli_target_trianglerectangles.svg	29	yes	44	1	679	6	4	antiphase_hc_sio.wav	1	6	1	noise_calib_stim_LEFT.wav	1	34	blb_dichoticlistening_ta-ka.mp3	ta	ka	1	right
6.6.1	win	2023-07-09	15:47:55	16:06:59	1136202	59d3d4026cc82800013e31a2	2	1	main_z	24	advance_on_keypress_ZEE	20	stimuli_distractor_diamondtriangles.svg	stimuli_target_trianglerectangles.svg	29	yes	57	0	2399	6	4	antiphase_hc_sio.wav	1	6	1	noise_calib_stim_LEFT.wav	1	34	blb_dichoticlistening_ta-ka.mp3	ta	ka	1	right
6.6.1	win	2023-07-09	15:47:55	16:07:03	1139673	59d3d4026cc82800013e31a2	2	1	main_z	24	main_z	21	stimuli_distractor_diamondtriangles.svg	stimuli_target_diamondrectangles.svg	31	yes	44	1	421	6	4	antiphase_hc_sio.wav	1	6	1	noise_calib_stim_LEFT.wav	1	34	blb_dichoticlistening_ta-ka.mp3	ta	ka	1	right
6.6.1	win	2023-07-09	15:47:55	16:07:03	1139673	59d3d4026cc82800013e31a2	2	1	main_z	24	advance_on_keypress_ZEE	22	stimuli_distractor_diamondtriangles.svg	stimuli_target_diamondrectangles.svg	31	yes	57	0	1210	6	4	antiphase_hc_sio.wav	1	6	1	noise_calib_stim_LEFT.wav	1	34	blb_dichoticlistening_ta-ka.mp3	ta	ka	1	right
6.6.1	win	2023-07-09	15:47:55	16:07:06	1142525	59d3d4026cc82800013e31a2	2	1	main_z	24	main_z	23	stimuli_distractor_diamondtriangles.svg	stimuli_distractor_trianglediamonds.svg	37	no	44	0	991	6	4	antiphase_hc_sio.wav	1	6	1	noise_calib_stim_LEFT.wav	1	34	blb_dichoticlistening_ta-ka.mp3	ta	ka	1	right
6.6.1	win	2023-07-09	15:47:55	16:07:06	1142525	59d3d4026cc82800013e31a2	2	1	main_z	24	advance_on_keypress_ZEE	24	stimuli_distractor_diamondtriangles.svg	stimuli_distractor_trianglediamonds.svg	37	no	57	0	2602	6	4	antiphase_hc_sio.wav	1	6	1	noise_calib_stim_LEFT.wav	1	34	blb_dichoticlistening_ta-ka.mp3	ta	ka	1	right
6.6.1	win	2023-07-09	15:47:55	16:07:09	1146510	59d3d4026cc82800013e31a2	2	1	main_z	24	main_z	25	stimuli_distractor_trianglediamonds.svg	stimuli_target_trianglerectangles.svg	25	yes	44	1	748	6	4	antiphase_hc_sio.wav	1	6	1	noise_calib_stim_LEFT.wav	1	34	blb_dichoticlistening_ta-ka.mp3	ta	ka	1	right
6.6.1	win	2023-07-09	15:47:55	16:07:09	1146510	59d3d4026cc82800013e31a2	2	1	main_z	24	advance_on_keypress_ZEE	26	stimuli_distractor_trianglediamonds.svg	stimuli_target_trianglerectangles.svg	25	yes	57	0	1034	6	4	antiphase_hc_sio.wav	1	6	1	noise_calib_stim_LEFT.wav	1	34	blb_dichoticlistening_ta-ka.mp3	ta	ka	1	right
6.6.1	win	2023-07-09	15:47:55	16:07:12	1148845	59d3d4026cc82800013e31a2	2	1	main_z	24	main_z	27	stimuli_target_diamondsquares.svg	stimuli_distractor_trianglediamonds.svg	20	yes	44	1	651	6	4	antiphase_hc_sio.wav	1	6	1	noise_calib_stim_LEFT.wav	1	34	blb_dichoticlistening_ta-ka.mp3	ta	ka	1	right
6.6.1	win	2023-07-09	15:47:55	16:07:12	1148845	59d3d4026cc82800013e31a2	2	1	main_z	24	advance_on_keypress_ZEE	28	stimuli_target_diamondsquares.svg	stimuli_distractor_trianglediamonds.svg	20	yes	57	0	1380	6	4	antiphase_hc_sio.wav	1	6	1	noise_calib_stim_LEFT.wav	1	34	blb_dichoticlistening_ta-ka.mp3	ta	ka	1	right
6.6.1	win	2023-07-09	15:47:55	16:07:16	1152645	59d3d4026cc82800013e31a2	2	1	main_z	24	main_z	29	stimuli_target_rectangletriangles.svg	stimuli_distractor_trianglediamonds.svg	1	yes	44	1	1771	6	4	antiphase_hc_sio.wav	1	6	1	noise_calib_stim_LEFT.wav	1	34	blb_dichoticlistening_ta-ka.mp3	ta	ka	1	right
6.6.1	win	2023-07-09	15:47:55	16:07:16	1152645	59d3d4026cc82800013e31a2	2	1	main_z	24	advance_on_keypress_ZEE	30	stimuli_target_rectangletriangles.svg	stimuli_distractor_trianglediamonds.svg	1	yes	57	0	2557	6	4	antiphase_hc_sio.wav	1	6	1	noise_calib_stim_LEFT.wav	1	34	blb_dichoticlistening_ta-ka.mp3	ta	ka	1	right
6.6.1	win	2023-07-09	15:47:55	16:07:20	1156647	59d3d4026cc82800013e31a2	2	1	main_z	24	main_z	31	stimuli_target_rectangletriangles.svg	stimuli_distractor_diamondtriangles.svg	5	yes	44	1	812	6	4	antiphase_hc_sio.wav	1	6	1	noise_calib_stim_LEFT.wav	1	34	blb_dichoticlistening_ta-ka.mp3	ta	ka	1	right
6.6.1	win	2023-07-09	15:47:55	16:07:20	1156647	59d3d4026cc82800013e31a2	2	1	main_z	24	advance_on_keypress_ZEE	32	stimuli_target_rectangletriangles.svg	stimuli_distractor_diamondtriangles.svg	5	yes	57	0	959	6	4	antiphase_hc_sio.wav	1	6	1	noise_calib_stim_LEFT.wav	1	34	blb_dichoticlistening_ta-ka.mp3	ta	ka	1	right
6.6.1	win	2023-07-09	15:47:55	16:07:22	1158891	59d3d4026cc82800013e31a2	2	1	main_z	24	main_z	33	stimuli_target_squarediamonds.svg	stimuli_distractor_diamondtriangles.svg	8	yes	44	1	641	6	4	antiphase_hc_sio.wav	1	6	1	noise_calib_stim_LEFT.wav	1	34	blb_dichoticlistening_ta-ka.mp3	ta	ka	1	right
6.6.1	win	2023-07-09	15:47:55	16:07:22	1158891	59d3d4026cc82800013e31a2	2	1	main_z	24	advance_on_keypress_ZEE	34	stimuli_target_squarediamonds.svg	stimuli_distractor_diamondtriangles.svg	8	yes	57	0	1549	6	4	antiphase_hc_sio.wav	1	6	1	noise_calib_stim_LEFT.wav	1	34	blb_dichoticlistening_ta-ka.mp3	ta	ka	1	right
6.6.1	win	2023-07-09	15:47:55	16:07:26	1163081	59d3d4026cc82800013e31a2	2	1	main_z	24	main_z	35	stimuli_distractor_trianglediamonds.svg	stimuli_distractor_diamondtriangles.svg	36	no	0	1	2000	6	4	antiphase_hc_sio.wav	1	6	1	noise_calib_stim_LEFT.wav	1	34	blb_dichoticlistening_ta-ka.mp3	ta	ka	1	right
6.6.1	win	2023-07-09	15:47:55	16:07:26	1163081	59d3d4026cc82800013e31a2	2	1	main_z	24	advance_on_keypress_ZEE	36	stimuli_distractor_trianglediamonds.svg	stimuli_distractor_diamondtriangles.svg	36	no	57	0	673	6	4	antiphase_hc_sio.wav	1	6	1	noise_calib_stim_LEFT.wav	1	34	blb_dichoticlistening_ta-ka.mp3	ta	ka	1	right
6.6.1	win	2023-07-09	15:47:55	16:07:28	1165088	59d3d4026cc82800013e31a2	2	1	main_z	24	main_z	37	stimuli_target_trianglesquares.svg	stimuli_distractor_diamondtriangles.svg	22	yes	44	1	694	6	4	antiphase_hc_sio.wav	1	6	1	noise_calib_stim_LEFT.wav	1	34	blb_dichoticlistening_ta-ka.mp3	ta	ka	1	right
6.6.1	win	2023-07-09	15:47:55	16:07:28	1165088	59d3d4026cc82800013e31a2	2	1	main_z	24	advance_on_keypress_ZEE	38	stimuli_target_trianglesquares.svg	stimuli_distractor_diamondtriangles.svg	22	yes	57	0	1790	6	4	antiphase_hc_sio.wav	1	6	1	noise_calib_stim_LEFT.wav	1	34	blb_dichoticlistening_ta-ka.mp3	ta	ka	1	right
6.6.1	win	2023-07-09	15:47:55	16:07:31	1167940	59d3d4026cc82800013e31a2	2	1	main_z	24	main_z	39	stimuli_distractor_diamondtriangles.svg	stimuli_target_squarediamonds.svg	16	yes	44	1	416	6	4	antiphase_hc_sio.wav	1	6	1	noise_calib_stim_LEFT.wav	1	34	blb_dichoticlistening_ta-ka.mp3	ta	ka	1	right
6.6.1	win	2023-07-09	15:47:55	16:07:31	1167940	59d3d4026cc82800013e31a2	2	1	main_z	24	advance_on_keypress_ZEE	40	stimuli_distractor_diamondtriangles.svg	stimuli_target_squarediamonds.svg	16	yes	57	0	3112	6	4	antiphase_hc_sio.wav	1	6	1	noise_calib_stim_LEFT.wav	1	34	blb_dichoticlistening_ta-ka.mp3	ta	ka	1	right
6.6.1	win	2023-07-09	15:47:55	16:07:36	1173260	59d3d4026cc82800013e31a2	2	1	main_z	24	main_z	41	stimuli_target_squaretriangles.svg	stimuli_distractor_trianglediamonds.svg	3	yes	44	1	1556	6	4	antiphase_hc_sio.wav	1	6	1	noise_calib_stim_LEFT.wav	1	34	blb_dichoticlistening_ta-ka.mp3	ta	ka	1	right
6.6.1	win	2023-07-09	15:47:55	16:07:36	1173260	59d3d4026cc82800013e31a2	2	1	main_z	24	advance_on_keypress_ZEE	42	stimuli_target_squaretriangles.svg	stimuli_distractor_trianglediamonds.svg	3	yes	57	0	1206	6	4	antiphase_hc_sio.wav	1	6	1	noise_calib_stim_LEFT.wav	1	34	blb_dichoticlistening_ta-ka.mp3	ta	ka	1	right
6.6.1	win	2023-07-09	15:47:55	16:07:40	1177100	59d3d4026cc82800013e31a2	2	1	main_z	24	main_z	43	stimuli_distractor_diamondtriangles.svg	stimuli_distractor_diamondtriangles.svg	39	no	0	1	2000	6	4	antiphase_hc_sio.wav	1	6	1	noise_calib_stim_LEFT.wav	1	34	blb_dichoticlistening_ta-ka.mp3	ta	ka	1	right
6.6.1	win	2023-07-09	15:47:55	16:07:40	1177100	59d3d4026cc82800013e31a2	2	1	main_z	24	advance_on_keypress_ZEE	44	stimuli_distractor_diamondtriangles.svg	stimuli_distractor_diamondtriangles.svg	39	no	57	0	1428	6	4	antiphase_hc_sio.wav	1	6	1	noise_calib_stim_LEFT.wav	1	34	blb_dichoticlistening_ta-ka.mp3	ta	ka	1	right
6.6.1	win	2023-07-09	15:47:55	16:07:44	1181180	59d3d4026cc82800013e31a2	2	1	main_z	24	main_z	45	stimuli_distractor_trianglediamonds.svg	stimuli_distractor_trianglediamonds.svg	33	no	0	1	2000	6	4	antiphase_hc_sio.wav	1	6	1	noise_calib_stim_LEFT.wav	1	34	blb_dichoticlistening_ta-ka.mp3	ta	ka	1	right
6.6.1	win	2023-07-09	15:47:55	16:07:44	1181180	59d3d4026cc82800013e31a2	2	1	main_z	24	advance_on_keypress_ZEE	46	stimuli_distractor_trianglediamonds.svg	stimuli_distractor_trianglediamonds.svg	33	no	57	0	738	6	4	antiphase_hc_sio.wav	1	6	1	noise_calib_stim_LEFT.wav	1	34	blb_dichoticlistening_ta-ka.mp3	ta	ka	1	right
6.6.1	win	2023-07-09	15:47:55	16:07:46	1183337	59d3d4026cc82800013e31a2	2	1	main_z	24	main_z	47	stimuli_target_diamondsquares.svg	stimuli_distractor_diamondtriangles.svg	24	yes	44	1	777	6	4	antiphase_hc_sio.wav	1	6	1	noise_calib_stim_LEFT.wav	1	34	blb_dichoticlistening_ta-ka.mp3	ta	ka	1	right
6.6.1	win	2023-07-09	15:47:55	16:07:46	1183337	59d3d4026cc82800013e31a2	2	1	main_z	24	advance_on_keypress_ZEE	48	stimuli_target_diamondsquares.svg	stimuli_distractor_diamondtriangles.svg	24	yes	57	0	2439	6	4	antiphase_hc_sio.wav	1	6	1	noise_calib_stim_LEFT.wav	1	34	blb_dichoticlistening_ta-ka.mp3	ta	ka	1	right
6.6.1	win	2023-07-09	15:47:55	16:07:51	1188422	59d3d4026cc82800013e31a2	2	1	main_z	24	main_z	49	stimuli_distractor_diamondtriangles.svg	stimuli_distractor_diamondtriangles.svg	40	no	0	1	2000	6	4	antiphase_hc_sio.wav	1	6	1	noise_calib_stim_LEFT.wav	1	34	blb_dichoticlistening_ta-ka.mp3	ta	ka	1	right
6.6.1	win	2023-07-09	15:47:55	16:07:51	1188422	59d3d4026cc82800013e31a2	2	1	main_z	24	advance_on_keypress_ZEE	50	stimuli_distractor_diamondtriangles.svg	stimuli_distractor_diamondtriangles.svg	40	no	57	0	1669	6	4	antiphase_hc_sio.wav	1	6	1	noise_calib_stim_LEFT.wav	1	34	blb_dichoticlistening_ta-ka.mp3	ta	ka	1	right
6.6.1	win	2023-07-09	15:47:55	16:07:54	1191405	59d3d4026cc82800013e31a2	2	1	main_z	24	main_z	51	stimuli_distractor_trianglediamonds.svg	stimuli_target_rectangletriangles.svg	9	yes	44	1	669	6	4	antiphase_hc_sio.wav	1	6	1	noise_calib_stim_LEFT.wav	1	34	blb_dichoticlistening_ta-ka.mp3	ta	ka	1	right
6.6.1	win	2023-07-09	15:47:55	16:07:54	1191405	59d3d4026cc82800013e31a2	2	1	main_z	24	advance_on_keypress_ZEE	52	stimuli_distractor_trianglediamonds.svg	stimuli_target_rectangletriangles.svg	9	yes	57	0	2021	6	4	antiphase_hc_sio.wav	1	6	1	noise_calib_stim_LEFT.wav	1	34	blb_dichoticlistening_ta-ka.mp3	ta	ka	1	right
6.6.1	win	2023-07-09	15:47:55	16:07:58	1194709	59d3d4026cc82800013e31a2	2	1	main_z	24	main_z	53	stimuli_distractor_trianglediamonds.svg	stimuli_target_diamondrectangles.svg	27	yes	44	1	644	6	4	antiphase_hc_sio.wav	1	6	1	noise_calib_stim_LEFT.wav	1	34	blb_dichoticlistening_ta-ka.mp3	ta	ka	1	right
6.6.1	win	2023-07-09	15:47:55	16:07:58	1194709	59d3d4026cc82800013e31a2	2	1	main_z	24	advance_on_keypress_ZEE	54	stimuli_distractor_trianglediamonds.svg	stimuli_target_diamondrectangles.svg	27	yes	57	0	1677	6	4	antiphase_hc_sio.wav	1	6	1	noise_calib_stim_LEFT.wav	1	34	blb_dichoticlistening_ta-ka.mp3	ta	ka	1	right
6.6.1	win	2023-07-09	15:47:55	16:08:01	1197725	59d3d4026cc82800013e31a2	2	1	main_z	24	main_z	55	stimuli_target_trianglerectangles.svg	stimuli_distractor_diamondtriangles.svg	21	yes	44	1	696	6	4	antiphase_hc_sio.wav	1	6	1	noise_calib_stim_LEFT.wav	1	34	blb_dichoticlistening_ta-ka.mp3	ta	ka	1	right
6.6.1	win	2023-07-09	15:47:55	16:08:01	1197725	59d3d4026cc82800013e31a2	2	1	main_z	24	advance_on_keypress_ZEE	56	stimuli_target_trianglerectangles.svg	stimuli_distractor_diamondtriangles.svg	21	yes	57	0	1819	6	4	antiphase_hc_sio.wav	1	6	1	noise_calib_stim_LEFT.wav	1	34	blb_dichoticlistening_ta-ka.mp3	ta	ka	1	right
6.6.1	win	2023-07-09	15:47:55	16:08:04	1201151	59d3d4026cc82800013e31a2	2	1	main_z	24	main_z	57	stimuli_distractor_diamondtriangles.svg	stimuli_distractor_trianglediamonds.svg	38	no	44	0	959	6	4	antiphase_hc_sio.wav	1	6	1	noise_calib_stim_LEFT.wav	1	34	blb_dichoticlistening_ta-ka.mp3	ta	ka	1	right
6.6.1	win	2023-07-09	15:47:55	16:08:04	1201151	59d3d4026cc82800013e31a2	2	1	main_z	24	advance_on_keypress_ZEE	58	stimuli_distractor_diamondtriangles.svg	stimuli_distractor_trianglediamonds.svg	38	no	57	0	1782	6	4	antiphase_hc_sio.wav	1	6	1	noise_calib_stim_LEFT.wav	1	34	blb_dichoticlistening_ta-ka.mp3	ta	ka	1	right
6.6.1	win	2023-07-09	15:47:55	16:08:07	1204288	59d3d4026cc82800013e31a2	2	1	main_z	24	main_z	59	stimuli_target_rectanglediamonds.svg	stimuli_distractor_diamondtriangles.svg	6	yes	44	1	716	6	4	antiphase_hc_sio.wav	1	6	1	noise_calib_stim_LEFT.wav	1	34	blb_dichoticlistening_ta-ka.mp3	ta	ka	1	right
6.6.1	win	2023-07-09	15:47:55	16:08:07	1204288	59d3d4026cc82800013e31a2	2	1	main_z	24	advance_on_keypress_ZEE	60	stimuli_target_rectanglediamonds.svg	stimuli_distractor_diamondtriangles.svg	6	yes	57	0	1200	6	4	antiphase_hc_sio.wav	1	6	1	noise_calib_stim_LEFT.wav	1	34	blb_dichoticlistening_ta-ka.mp3	ta	ka	1	right
6.6.1	win	2023-07-09	15:47:55	16:08:10	1206788	59d3d4026cc82800013e31a2	2	1	main_z	24	main_z	61	stimuli_distractor_trianglediamonds.svg	stimuli_target_trianglesquares.svg	26	yes	44	1	652	6	4	antiphase_hc_sio.wav	1	6	1	noise_calib_stim_LEFT.wav	1	34	blb_dichoticlistening_ta-ka.mp3	ta	ka	1	right
6.6.1	win	2023-07-09	15:47:55	16:08:10	1206788	59d3d4026cc82800013e31a2	2	1	main_z	24	advance_on_keypress_ZEE	62	stimuli_distractor_trianglediamonds.svg	stimuli_target_trianglesquares.svg	26	yes	57	0	1583	6	4	antiphase_hc_sio.wav	1	6	1	noise_calib_stim_LEFT.wav	1	34	blb_dichoticlistening_ta-ka.mp3	ta	ka	1	right
6.6.1	win	2023-07-09	15:47:55	16:08:13	1209726	59d3d4026cc82800013e31a2	2	1	main_z	24	main_z	63	stimuli_distractor_diamondtriangles.svg	stimuli_target_diamondsquares.svg	32	yes	44	1	709	6	4	antiphase_hc_sio.wav	1	6	1	noise_calib_stim_LEFT.wav	1	34	blb_dichoticlistening_ta-ka.mp3	ta	ka	1	right
6.6.1	win	2023-07-09	15:47:55	16:08:13	1209726	59d3d4026cc82800013e31a2	2	1	main_z	24	advance_on_keypress_ZEE	64	stimuli_distractor_diamondtriangles.svg	stimuli_target_diamondsquares.svg	32	yes	57	0	1456	6	4	antiphase_hc_sio.wav	1	6	1	noise_calib_stim_LEFT.wav	1	34	blb_dichoticlistening_ta-ka.mp3	ta	ka	1	right
6.6.1	win	2023-07-09	15:47:55	16:08:16	1212535	59d3d4026cc82800013e31a2	2	1	main_z	24	main_z	65	stimuli_distractor_trianglediamonds.svg	stimuli_target_diamondsquares.svg	28	yes	44	1	721	6	4	antiphase_hc_sio.wav	1	6	1	noise_calib_stim_LEFT.wav	1	34	blb_dichoticlistening_ta-ka.mp3	ta	ka	1	right
6.6.1	win	2023-07-09	15:47:55	16:08:16	1212535	59d3d4026cc82800013e31a2	2	1	main_z	24	advance_on_keypress_ZEE	66	stimuli_distractor_trianglediamonds.svg	stimuli_target_diamondsquares.svg	28	yes	57	0	1743	6	4	antiphase_hc_sio.wav	1	6	1	noise_calib_stim_LEFT.wav	1	34	blb_dichoticlistening_ta-ka.mp3	ta	ka	1	right
6.6.1	win	2023-07-09	15:47:55	16:08:19	1215542	59d3d4026cc82800013e31a2	2	1	main_z	24	main_z	67	stimuli_distractor_diamondtriangles.svg	stimuli_target_squaretriangles.svg	15	yes	44	1	613	6	4	antiphase_hc_sio.wav	1	6	1	noise_calib_stim_LEFT.wav	1	34	blb_dichoticlistening_ta-ka.mp3	ta	ka	1	right
6.6.1	win	2023-07-09	15:47:55	16:08:19	1215542	59d3d4026cc82800013e31a2	2	1	main_z	24	advance_on_keypress_ZEE	68	stimuli_distractor_diamondtriangles.svg	stimuli_target_squaretriangles.svg	15	yes	57	0	1744	6	4	antiphase_hc_sio.wav	1	6	1	noise_calib_stim_LEFT.wav	1	34	blb_dichoticlistening_ta-ka.mp3	ta	ka	1	right
6.6.1	win	2023-07-09	15:47:55	16:08:21	1218379	59d3d4026cc82800013e31a2	2	1	main_z	24	main_z	69	stimuli_distractor_trianglediamonds.svg	stimuli_target_squarediamonds.svg	12	yes	44	1	436	6	4	antiphase_hc_sio.wav	1	6	1	noise_calib_stim_LEFT.wav	1	34	blb_dichoticlistening_ta-ka.mp3	ta	ka	1	right
6.6.1	win	2023-07-09	15:47:55	16:08:21	1218379	59d3d4026cc82800013e31a2	2	1	main_z	24	advance_on_keypress_ZEE	70	stimuli_distractor_trianglediamonds.svg	stimuli_target_squarediamonds.svg	12	yes	57	0	1180	6	4	antiphase_hc_sio.wav	1	6	1	noise_calib_stim_LEFT.wav	1	34	blb_dichoticlistening_ta-ka.mp3	ta	ka	1	right
6.6.1	win	2023-07-09	15:47:55	16:08:24	1220802	59d3d4026cc82800013e31a2	2	1	main_z	24	main_z	71	stimuli_target_rectanglediamonds.svg	stimuli_distractor_trianglediamonds.svg	2	yes	44	1	596	6	4	antiphase_hc_sio.wav	1	6	1	noise_calib_stim_LEFT.wav	1	34	blb_dichoticlistening_ta-ka.mp3	ta	ka	1	right
6.6.1	win	2023-07-09	15:47:55	16:08:24	1220802	59d3d4026cc82800013e31a2	2	1	main_z	24	advance_on_keypress_ZEE	72	stimuli_target_rectanglediamonds.svg	stimuli_distractor_trianglediamonds.svg	2	yes	57	0	1509	6	4	antiphase_hc_sio.wav	1	6	1	noise_calib_stim_LEFT.wav	1	34	blb_dichoticlistening_ta-ka.mp3	ta	ka	1	right
6.6.1	win	2023-07-09	15:47:55	16:08:27	1224086	59d3d4026cc82800013e31a2	2	1	main_z	24	main_z	73	stimuli_target_squaretriangles.svg	stimuli_distractor_diamondtriangles.svg	7	yes	44	1	1133	6	4	antiphase_hc_sio.wav	1	6	1	noise_calib_stim_LEFT.wav	1	34	blb_dichoticlistening_ta-ka.mp3	ta	ka	1	right
6.6.1	win	2023-07-09	15:47:55	16:08:27	1224086	59d3d4026cc82800013e31a2	2	1	main_z	24	advance_on_keypress_ZEE	74	stimuli_target_squaretriangles.svg	stimuli_distractor_diamondtriangles.svg	7	yes	57	0	903	6	4	antiphase_hc_sio.wav	1	6	1	noise_calib_stim_LEFT.wav	1	34	blb_dichoticlistening_ta-ka.mp3	ta	ka	1	right
6.6.1	win	2023-07-09	15:47:55	16:08:29	1226292	59d3d4026cc82800013e31a2	2	1	main_z	24	main_z	75	stimuli_distractor_diamondtriangles.svg	stimuli_target_rectangletriangles.svg	13	yes	44	1	658	6	4	antiphase_hc_sio.wav	1	6	1	noise_calib_stim_LEFT.wav	1	34	blb_dichoticlistening_ta-ka.mp3	ta	ka	1	right
6.6.1	win	2023-07-09	15:47:55	16:08:29	1226292	59d3d4026cc82800013e31a2	2	1	main_z	24	advance_on_keypress_ZEE	76	stimuli_distractor_diamondtriangles.svg	stimuli_target_rectangletriangles.svg	13	yes	57	0	959	6	4	antiphase_hc_sio.wav	1	6	1	noise_calib_stim_LEFT.wav	1	34	blb_dichoticlistening_ta-ka.mp3	ta	ka	1	right
6.6.1	win	2023-07-09	15:47:55	16:08:31	1228326	59d3d4026cc82800013e31a2	2	1	main_z	24	main_z	77	stimuli_distractor_trianglediamonds.svg	stimuli_target_squaretriangles.svg	11	yes	44	1	444	6	4	antiphase_hc_sio.wav	1	6	1	noise_calib_stim_LEFT.wav	1	34	blb_dichoticlistening_ta-ka.mp3	ta	ka	1	right
6.6.1	win	2023-07-09	15:47:55	16:08:31	1228326	59d3d4026cc82800013e31a2	2	1	main_z	24	advance_on_keypress_ZEE	78	stimuli_distractor_trianglediamonds.svg	stimuli_target_squaretriangles.svg	11	yes	57	0	1038	6	4	antiphase_hc_sio.wav	1	6	1	noise_calib_stim_LEFT.wav	1	34	blb_dichoticlistening_ta-ka.mp3	ta	ka	1	right
6.6.1	win	2023-07-09	15:47:55	16:08:34	1230587	59d3d4026cc82800013e31a2	2	1	main_z	24	main_z	79	stimuli_target_trianglerectangles.svg	stimuli_distractor_trianglediamonds.svg	17	yes	44	1	590	6	4	antiphase_hc_sio.wav	1	6	1	noise_calib_stim_LEFT.wav	1	34	blb_dichoticlistening_ta-ka.mp3	ta	ka	1	right
6.6.1	win	2023-07-09	15:47:55	16:08:34	1230587	59d3d4026cc82800013e31a2	2	1	main_z	24	advance_on_keypress_ZEE	80	stimuli_target_trianglerectangles.svg	stimuli_distractor_trianglediamonds.svg	17	yes	57	0	1063	6	4	antiphase_hc_sio.wav	1	6	1	noise_calib_stim_LEFT.wav	1	34	blb_dichoticlistening_ta-ka.mp3	ta	ka	1	right
6.6.1	win	2023-07-09	15:47:55	16:08:36	1232850	59d3d4026cc82800013e31a2	2	1	main_z	24	main_z	81	stimuli_target_diamondrectangles.svg	stimuli_distractor_trianglediamonds.svg	19	yes	44	1	556	6	4	antiphase_hc_sio.wav	1	6	1	noise_calib_stim_LEFT.wav	1	34	blb_dichoticlistening_ta-ka.mp3	ta	ka	1	right
6.6.1	win	2023-07-09	15:47:55	16:08:36	1232850	59d3d4026cc82800013e31a2	2	1	main_z	24	advance_on_keypress_ZEE	82	stimuli_target_diamondrectangles.svg	stimuli_distractor_trianglediamonds.svg	19	yes	57	0	3078	6	4	antiphase_hc_sio.wav	1	6	1	noise_calib_stim_LEFT.wav	1	34	blb_dichoticlistening_ta-ka.mp3	ta	ka	1	right
6.6.1	win	2023-07-09	15:47:55	16:08:40	1236923	59d3d4026cc82800013e31a2	2	1	main_z	24	main_z	83	stimuli_distractor_diamondtriangles.svg	stimuli_target_rectangletriangles.svg	13	yes	44	1	350	6	4	antiphase_hc_sio.wav	1	6	1	noise_calib_stim_LEFT.wav	1	34	blb_dichoticlistening_ta-ka.mp3	ta	ka	1	right
6.6.1	win	2023-07-09	15:47:55	16:08:40	1236923	59d3d4026cc82800013e31a2	2	1	main_z	24	advance_on_keypress_ZEE	84	stimuli_distractor_diamondtriangles.svg	stimuli_target_rectangletriangles.svg	13	yes	57	0	900	6	4	antiphase_hc_sio.wav	1	6	1	noise_calib_stim_LEFT.wav	1	34	blb_dichoticlistening_ta-ka.mp3	ta	ka	1	right
6.6.1	win	2023-07-09	15:47:55	16:08:42	1239039	59d3d4026cc82800013e31a2	2	1	main_z	24	main_z	85	stimuli_distractor_trianglediamonds.svg	stimuli_target_trianglerectangles.svg	25	yes	44	1	568	6	4	antiphase_hc_sio.wav	1	6	1	noise_calib_stim_LEFT.wav	1	34	blb_dichoticlistening_ta-ka.mp3	ta	ka	1	right
6.6.1	win	2023-07-09	15:47:55	16:08:42	1239039	59d3d4026cc82800013e31a2	2	1	main_z	24	advance_on_keypress_ZEE	86	stimuli_distractor_trianglediamonds.svg	stimuli_target_trianglerectangles.svg	25	yes	57	0	874	6	4	antiphase_hc_sio.wav	1	6	1	noise_calib_stim_LEFT.wav	1	34	blb_dichoticlistening_ta-ka.mp3	ta	ka	1	right
6.6.1	win	2023-07-09	15:47:55	16:08:44	1241161	59d3d4026cc82800013e31a2	2	1	main_z	24	main_z	87	stimuli_distractor_diamondtriangles.svg	stimuli_target_diamondrectangles.svg	31	yes	44	1	607	6	4	antiphase_hc_sio.wav	1	6	1	noise_calib_stim_LEFT.wav	1	34	blb_dichoticlistening_ta-ka.mp3	ta	ka	1	right
6.6.1	win	2023-07-09	15:47:55	16:08:44	1241161	59d3d4026cc82800013e31a2	2	1	main_z	24	advance_on_keypress_ZEE	88	stimuli_distractor_diamondtriangles.svg	stimuli_target_diamondrectangles.svg	31	yes	57	0	954	6	4	antiphase_hc_sio.wav	1	6	1	noise_calib_stim_LEFT.wav	1	34	blb_dichoticlistening_ta-ka.mp3	ta	ka	1	right
6.6.1	win	2023-07-09	15:47:55	16:08:46	1243161	59d3d4026cc82800013e31a2	2	1	main_z	24	main_z	89	stimuli_distractor_diamondtriangles.svg	stimuli_target_rectanglediamonds.svg	14	yes	44	1	411	6	4	antiphase_hc_sio.wav	1	6	1	noise_calib_stim_LEFT.wav	1	34	blb_dichoticlistening_ta-ka.mp3	ta	ka	1	right
6.6.1	win	2023-07-09	15:47:55	16:08:46	1243161	59d3d4026cc82800013e31a2	2	1	main_z	24	advance_on_keypress_ZEE	90	stimuli_distractor_diamondtriangles.svg	stimuli_target_rectanglediamonds.svg	14	yes	57	0	1765	6	4	antiphase_hc_sio.wav	1	6	1	noise_calib_stim_LEFT.wav	1	34	blb_dichoticlistening_ta-ka.mp3	ta	ka	1	right
6.6.1	win	2023-07-09	15:47:55	16:08:49	1245921	59d3d4026cc82800013e31a2	2	1	main_z	24	main_z	91	stimuli_distractor_diamondtriangles.svg	stimuli_target_diamondsquares.svg	32	yes	44	1	340	6	4	antiphase_hc_sio.wav	1	6	1	noise_calib_stim_LEFT.wav	1	34	blb_dichoticlistening_ta-ka.mp3	ta	ka	1	right
6.6.1	win	2023-07-09	15:47:55	16:08:49	1245921	59d3d4026cc82800013e31a2	2	1	main_z	24	advance_on_keypress_ZEE	92	stimuli_distractor_diamondtriangles.svg	stimuli_target_diamondsquares.svg	32	yes	57	0	970	6	4	antiphase_hc_sio.wav	1	6	1	noise_calib_stim_LEFT.wav	1	34	blb_dichoticlistening_ta-ka.mp3	ta	ka	1	right
6.6.1	win	2023-07-09	15:47:55	16:08:53	1249530	59d3d4026cc82800013e31a2	2	1	main_z	24	main_z	93	stimuli_distractor_diamondtriangles.svg	stimuli_distractor_diamondtriangles.svg	39	no	0	1	2000	6	4	antiphase_hc_sio.wav	1	6	1	noise_calib_stim_LEFT.wav	1	34	blb_dichoticlistening_ta-ka.mp3	ta	ka	1	right
6.6.1	win	2023-07-09	15:47:55	16:08:53	1249530	59d3d4026cc82800013e31a2	2	1	main_z	24	advance_on_keypress_ZEE	94	stimuli_distractor_diamondtriangles.svg	stimuli_distractor_diamondtriangles.svg	39	no	57	0	635	6	4	antiphase_hc_sio.wav	1	6	1	noise_calib_stim_LEFT.wav	1	34	blb_dichoticlistening_ta-ka.mp3	ta	ka	1	right
6.6.1	win	2023-07-09	15:47:55	16:08:55	1251661	59d3d4026cc82800013e31a2	2	1	main_z	24	main_z	95	stimuli_target_diamondsquares.svg	stimuli_distractor_trianglediamonds.svg	20	yes	44	1	852	6	4	antiphase_hc_sio.wav	1	6	1	noise_calib_stim_LEFT.wav	1	34	blb_dichoticlistening_ta-ka.mp3	ta	ka	1	right
6.6.1	win	2023-07-09	15:47:55	16:08:55	1251661	59d3d4026cc82800013e31a2	2	1	main_z	24	advance_on_keypress_ZEE	96	stimuli_target_diamondsquares.svg	stimuli_distractor_trianglediamonds.svg	20	yes	57	0	781	6	4	antiphase_hc_sio.wav	1	6	1	noise_calib_stim_LEFT.wav	1	34	blb_dichoticlistening_ta-ka.mp3	ta	ka	1	right
6.6.1	win	2023-07-09	15:47:55	16:08:57	1253903	59d3d4026cc82800013e31a2	2	1	main_z	24	main_z	97	stimuli_target_diamondsquares.svg	stimuli_distractor_diamondtriangles.svg	24	yes	44	1	812	6	4	antiphase_hc_sio.wav	1	6	1	noise_calib_stim_LEFT.wav	1	34	blb_dichoticlistening_ta-ka.mp3	ta	ka	1	right
6.6.1	win	2023-07-09	15:47:55	16:08:57	1253903	59d3d4026cc82800013e31a2	2	1	main_z	24	advance_on_keypress_ZEE	98	stimuli_target_diamondsquares.svg	stimuli_distractor_diamondtriangles.svg	24	yes	57	0	752	6	4	antiphase_hc_sio.wav	1	6	1	noise_calib_stim_LEFT.wav	1	34	blb_dichoticlistening_ta-ka.mp3	ta	ka	1	right
6.6.1	win	2023-07-09	15:47:55	16:08:59	1255868	59d3d4026cc82800013e31a2	2	1	main_z	24	main_z	99	stimuli_target_trianglesquares.svg	stimuli_distractor_diamondtriangles.svg	22	yes	44	1	563	6	4	antiphase_hc_sio.wav	1	6	1	noise_calib_stim_LEFT.wav	1	34	blb_dichoticlistening_ta-ka.mp3	ta	ka	1	right
6.6.1	win	2023-07-09	15:47:55	16:08:59	1255868	59d3d4026cc82800013e31a2	2	1	main_z	24	advance_on_keypress_ZEE	100	stimuli_target_trianglesquares.svg	stimuli_distractor_diamondtriangles.svg	22	yes	57	0	1255	6	4	antiphase_hc_sio.wav	1	6	1	noise_calib_stim_LEFT.wav	1	34	blb_dichoticlistening_ta-ka.mp3	ta	ka	1	right
6.6.1	win	2023-07-09	15:47:55	16:09:01	1258347	59d3d4026cc82800013e31a2	2	1	main_z	24	main_z	101	stimuli_target_rectanglediamonds.svg	stimuli_distractor_diamondtriangles.svg	6	yes	44	1	577	6	4	antiphase_hc_sio.wav	1	6	1	noise_calib_stim_LEFT.wav	1	34	blb_dichoticlistening_ta-ka.mp3	ta	ka	1	right
6.6.1	win	2023-07-09	15:47:55	16:09:01	1258347	59d3d4026cc82800013e31a2	2	1	main_z	24	advance_on_keypress_ZEE	102	stimuli_target_rectanglediamonds.svg	stimuli_distractor_diamondtriangles.svg	6	yes	57	0	1128	6	4	antiphase_hc_sio.wav	1	6	1	noise_calib_stim_LEFT.wav	1	34	blb_dichoticlistening_ta-ka.mp3	ta	ka	1	right
6.6.1	win	2023-07-09	15:47:55	16:09:05	1262134	59d3d4026cc82800013e31a2	2	1	main_z	24	main_z	103	stimuli_distractor_diamondtriangles.svg	stimuli_distractor_diamondtriangles.svg	40	no	0	1	2000	6	4	antiphase_hc_sio.wav	1	6	1	noise_calib_stim_LEFT.wav	1	34	blb_dichoticlistening_ta-ka.mp3	ta	ka	1	right
6.6.1	win	2023-07-09	15:47:55	16:09:05	1262134	59d3d4026cc82800013e31a2	2	1	main_z	24	advance_on_keypress_ZEE	104	stimuli_distractor_diamondtriangles.svg	stimuli_distractor_diamondtriangles.svg	40	no	57	0	484	6	4	antiphase_hc_sio.wav	1	6	1	noise_calib_stim_LEFT.wav	1	34	blb_dichoticlistening_ta-ka.mp3	ta	ka	1	right
6.6.1	win	2023-07-09	15:47:55	16:09:07	1263877	59d3d4026cc82800013e31a2	2	1	main_z	24	main_z	105	stimuli_target_rectangletriangles.svg	stimuli_distractor_diamondtriangles.svg	5	yes	44	1	613	6	4	antiphase_hc_sio.wav	1	6	1	noise_calib_stim_LEFT.wav	1	34	blb_dichoticlistening_ta-ka.mp3	ta	ka	1	right
6.6.1	win	2023-07-09	15:47:55	16:09:07	1263877	59d3d4026cc82800013e31a2	2	1	main_z	24	advance_on_keypress_ZEE	106	stimuli_target_rectangletriangles.svg	stimuli_distractor_diamondtriangles.svg	5	yes	57	0	837	6	4	antiphase_hc_sio.wav	1	6	1	noise_calib_stim_LEFT.wav	1	34	blb_dichoticlistening_ta-ka.mp3	ta	ka	1	right
6.6.1	win	2023-07-09	15:47:55	16:09:09	1265950	59d3d4026cc82800013e31a2	2	1	main_z	24	main_z	107	stimuli_distractor_diamondtriangles.svg	stimuli_target_squarediamonds.svg	16	yes	44	1	587	6	4	antiphase_hc_sio.wav	1	6	1	noise_calib_stim_LEFT.wav	1	34	blb_dichoticlistening_ta-ka.mp3	ta	ka	1	right
6.6.1	win	2023-07-09	15:47:55	16:09:09	1265950	59d3d4026cc82800013e31a2	2	1	main_z	24	advance_on_keypress_ZEE	108	stimuli_distractor_diamondtriangles.svg	stimuli_target_squarediamonds.svg	16	yes	57	0	996	6	4	antiphase_hc_sio.wav	1	6	1	noise_calib_stim_LEFT.wav	1	34	blb_dichoticlistening_ta-ka.mp3	ta	ka	1	right
6.6.1	win	2023-07-09	15:47:55	16:09:13	1269593	59d3d4026cc82800013e31a2	2	1	main_z	24	main_z	109	stimuli_distractor_trianglediamonds.svg	stimuli_distractor_diamondtriangles.svg	35	no	0	1	2000	6	4	antiphase_hc_sio.wav	1	6	1	noise_calib_stim_LEFT.wav	1	34	blb_dichoticlistening_ta-ka.mp3	ta	ka	1	right
6.6.1	win	2023-07-09	15:47:55	16:09:13	1269593	59d3d4026cc82800013e31a2	2	1	main_z	24	advance_on_keypress_ZEE	110	stimuli_distractor_trianglediamonds.svg	stimuli_distractor_diamondtriangles.svg	35	no	57	0	526	6	4	antiphase_hc_sio.wav	1	6	1	noise_calib_stim_LEFT.wav	1	34	blb_dichoticlistening_ta-ka.mp3	ta	ka	1	right
6.6.1	win	2023-07-09	15:47:55	16:09:14	1271372	59d3d4026cc82800013e31a2	2	1	main_z	24	main_z	111	stimuli_distractor_trianglediamonds.svg	stimuli_target_rectangletriangles.svg	9	yes	44	1	615	6	4	antiphase_hc_sio.wav	1	6	1	noise_calib_stim_LEFT.wav	1	34	blb_dichoticlistening_ta-ka.mp3	ta	ka	1	right
6.6.1	win	2023-07-09	15:47:55	16:09:14	1271372	59d3d4026cc82800013e31a2	2	1	main_z	24	advance_on_keypress_ZEE	112	stimuli_distractor_trianglediamonds.svg	stimuli_target_rectangletriangles.svg	9	yes	57	0	834	6	4	antiphase_hc_sio.wav	1	6	1	noise_calib_stim_LEFT.wav	1	34	blb_dichoticlistening_ta-ka.mp3	ta	ka	1	right
6.6.1	win	2023-07-09	15:47:55	16:09:16	1273443	59d3d4026cc82800013e31a2	2	1	main_z	24	main_z	113	stimuli_target_squarediamonds.svg	stimuli_distractor_diamondtriangles.svg	8	yes	44	1	589	6	4	antiphase_hc_sio.wav	1	6	1	noise_calib_stim_LEFT.wav	1	34	blb_dichoticlistening_ta-ka.mp3	ta	ka	1	right
6.6.1	win	2023-07-09	15:47:55	16:09:16	1273443	59d3d4026cc82800013e31a2	2	1	main_z	24	advance_on_keypress_ZEE	114	stimuli_target_squarediamonds.svg	stimuli_distractor_diamondtriangles.svg	8	yes	57	0	1024	6	4	antiphase_hc_sio.wav	1	6	1	noise_calib_stim_LEFT.wav	1	34	blb_dichoticlistening_ta-ka.mp3	ta	ka	1	right
6.6.1	win	2023-07-09	15:47:55	16:09:19	1275621	59d3d4026cc82800013e31a2	2	1	main_z	24	main_z	115	stimuli_target_rectangletriangles.svg	stimuli_distractor_trianglediamonds.svg	1	yes	44	1	519	6	4	antiphase_hc_sio.wav	1	6	1	noise_calib_stim_LEFT.wav	1	34	blb_dichoticlistening_ta-ka.mp3	ta	ka	1	right
6.6.1	win	2023-07-09	15:47:55	16:09:19	1275621	59d3d4026cc82800013e31a2	2	1	main_z	24	advance_on_keypress_ZEE	116	stimuli_target_rectangletriangles.svg	stimuli_distractor_trianglediamonds.svg	1	yes	57	0	682	6	4	antiphase_hc_sio.wav	1	6	1	noise_calib_stim_LEFT.wav	1	34	blb_dichoticlistening_ta-ka.mp3	ta	ka	1	right
6.6.1	win	2023-07-09	15:47:55	16:09:20	1277377	59d3d4026cc82800013e31a2	2	1	main_z	24	main_z	117	stimuli_target_rectanglediamonds.svg	stimuli_distractor_trianglediamonds.svg	2	yes	44	1	425	6	4	antiphase_hc_sio.wav	1	6	1	noise_calib_stim_LEFT.wav	1	34	blb_dichoticlistening_ta-ka.mp3	ta	ka	1	right
6.6.1	win	2023-07-09	15:47:55	16:09:20	1277377	59d3d4026cc82800013e31a2	2	1	main_z	24	advance_on_keypress_ZEE	118	stimuli_target_rectanglediamonds.svg	stimuli_distractor_trianglediamonds.svg	2	yes	57	0	1195	6	4	antiphase_hc_sio.wav	1	6	1	noise_calib_stim_LEFT.wav	1	34	blb_dichoticlistening_ta-ka.mp3	ta	ka	1	right
6.6.1	win	2023-07-09	15:47:55	16:09:24	1281215	59d3d4026cc82800013e31a2	2	1	main_z	24	main_z	119	stimuli_distractor_diamondtriangles.svg	stimuli_distractor_trianglediamonds.svg	38	no	0	1	2000	6	4	antiphase_hc_sio.wav	1	6	1	noise_calib_stim_LEFT.wav	1	34	blb_dichoticlistening_ta-ka.mp3	ta	ka	1	right
6.6.1	win	2023-07-09	15:47:55	16:09:24	1281215	59d3d4026cc82800013e31a2	2	1	main_z	24	advance_on_keypress_ZEE	120	stimuli_distractor_diamondtriangles.svg	stimuli_distractor_trianglediamonds.svg	38	no	57	0	719	6	4	antiphase_hc_sio.wav	1	6	1	noise_calib_stim_LEFT.wav	1	34	blb_dichoticlistening_ta-ka.mp3	ta	ka	1	right
6.6.1	win	2023-07-09	15:47:55	16:09:26	1283196	59d3d4026cc82800013e31a2	2	1	main_z	24	main_z	121	stimuli_target_trianglesquares.svg	stimuli_distractor_trianglediamonds.svg	18	yes	44	1	617	6	4	antiphase_hc_sio.wav	1	6	1	noise_calib_stim_LEFT.wav	1	34	blb_dichoticlistening_ta-ka.mp3	ta	ka	1	right
6.6.1	win	2023-07-09	15:47:55	16:09:26	1283196	59d3d4026cc82800013e31a2	2	1	main_z	24	advance_on_keypress_ZEE	122	stimuli_target_trianglesquares.svg	stimuli_distractor_trianglediamonds.svg	18	yes	57	0	802	6	4	antiphase_hc_sio.wav	1	6	1	noise_calib_stim_LEFT.wav	1	34	blb_dichoticlistening_ta-ka.mp3	ta	ka	1	right
6.6.1	win	2023-07-09	15:47:55	16:09:29	1285653	59d3d4026cc82800013e31a2	2	1	main_z	24	main_z	123	stimuli_distractor_trianglediamonds.svg	stimuli_target_rectanglediamonds.svg	10	yes	44	1	1010	6	4	antiphase_hc_sio.wav	1	6	1	noise_calib_stim_LEFT.wav	1	34	blb_dichoticlistening_ta-ka.mp3	ta	ka	1	right
6.6.1	win	2023-07-09	15:47:55	16:09:29	1285653	59d3d4026cc82800013e31a2	2	1	main_z	24	advance_on_keypress_ZEE	124	stimuli_distractor_trianglediamonds.svg	stimuli_target_rectanglediamonds.svg	10	yes	57	0	1493	6	4	antiphase_hc_sio.wav	1	6	1	noise_calib_stim_LEFT.wav	1	34	blb_dichoticlistening_ta-ka.mp3	ta	ka	1	right
6.6.1	win	2023-07-09	15:47:55	16:09:33	1289790	59d3d4026cc82800013e31a2	2	1	main_z	24	main_z	125	stimuli_distractor_trianglediamonds.svg	stimuli_distractor_trianglediamonds.svg	34	no	0	1	2000	6	4	antiphase_hc_sio.wav	1	6	1	noise_calib_stim_LEFT.wav	1	34	blb_dichoticlistening_ta-ka.mp3	ta	ka	1	right
6.6.1	win	2023-07-09	15:47:55	16:09:33	1289790	59d3d4026cc82800013e31a2	2	1	main_z	24	advance_on_keypress_ZEE	126	stimuli_distractor_trianglediamonds.svg	stimuli_distractor_trianglediamonds.svg	34	no	57	0	746	6	4	antiphase_hc_sio.wav	1	6	1	noise_calib_stim_LEFT.wav	1	34	blb_dichoticlistening_ta-ka.mp3	ta	ka	1	right
6.6.1	win	2023-07-09	15:47:55	16:09:35	1291905	59d3d4026cc82800013e31a2	2	1	main_z	24	main_z	127	stimuli_target_trianglerectangles.svg	stimuli_distractor_trianglediamonds.svg	17	yes	44	1	718	6	4	antiphase_hc_sio.wav	1	6	1	noise_calib_stim_LEFT.wav	1	34	blb_dichoticlistening_ta-ka.mp3	ta	ka	1	right
6.6.1	win	2023-07-09	15:47:55	16:09:35	1291905	59d3d4026cc82800013e31a2	2	1	main_z	24	advance_on_keypress_ZEE	128	stimuli_target_trianglerectangles.svg	stimuli_distractor_trianglediamonds.svg	17	yes	57	0	1141	6	4	antiphase_hc_sio.wav	1	6	1	noise_calib_stim_LEFT.wav	1	34	blb_dichoticlistening_ta-ka.mp3	ta	ka	1	right
6.6.1	win	2023-07-09	15:47:55	16:09:37	1294127	59d3d4026cc82800013e31a2	2	1	main_z	24	main_z	129	stimuli_distractor_trianglediamonds.svg	stimuli_target_squarediamonds.svg	12	yes	44	1	443	6	4	antiphase_hc_sio.wav	1	6	1	noise_calib_stim_LEFT.wav	1	34	blb_dichoticlistening_ta-ka.mp3	ta	ka	1	right
6.6.1	win	2023-07-09	15:47:55	16:09:37	1294127	59d3d4026cc82800013e31a2	2	1	main_z	24	advance_on_keypress_ZEE	130	stimuli_distractor_trianglediamonds.svg	stimuli_target_squarediamonds.svg	12	yes	57	0	696	6	4	antiphase_hc_sio.wav	1	6	1	noise_calib_stim_LEFT.wav	1	34	blb_dichoticlistening_ta-ka.mp3	ta	ka	1	right
6.6.1	win	2023-07-09	15:47:55	16:09:39	1296306	59d3d4026cc82800013e31a2	2	1	main_z	24	main_z	131	stimuli_distractor_trianglediamonds.svg	stimuli_target_diamondrectangles.svg	27	yes	44	1	824	6	4	antiphase_hc_sio.wav	1	6	1	noise_calib_stim_LEFT.wav	1	34	blb_dichoticlistening_ta-ka.mp3	ta	ka	1	right
6.6.1	win	2023-07-09	15:47:55	16:09:39	1296306	59d3d4026cc82800013e31a2	2	1	main_z	24	advance_on_keypress_ZEE	132	stimuli_distractor_trianglediamonds.svg	stimuli_target_diamondrectangles.svg	27	yes	57	0	839	6	4	antiphase_hc_sio.wav	1	6	1	noise_calib_stim_LEFT.wav	1	34	blb_dichoticlistening_ta-ka.mp3	ta	ka	1	right
6.6.1	win	2023-07-09	15:47:55	16:09:41	1298298	59d3d4026cc82800013e31a2	2	1	main_z	24	main_z	133	stimuli_distractor_diamondtriangles.svg	stimuli_target_squaretriangles.svg	15	yes	44	1	516	6	4	antiphase_hc_sio.wav	1	6	1	noise_calib_stim_LEFT.wav	1	34	blb_dichoticlistening_ta-ka.mp3	ta	ka	1	right
6.6.1	win	2023-07-09	15:47:55	16:09:41	1298298	59d3d4026cc82800013e31a2	2	1	main_z	24	advance_on_keypress_ZEE	134	stimuli_distractor_diamondtriangles.svg	stimuli_target_squaretriangles.svg	15	yes	57	0	650	6	4	antiphase_hc_sio.wav	1	6	1	noise_calib_stim_LEFT.wav	1	34	blb_dichoticlistening_ta-ka.mp3	ta	ka	1	right
6.6.1	win	2023-07-09	15:47:55	16:09:43	1299958	59d3d4026cc82800013e31a2	2	1	main_z	24	main_z	135	stimuli_target_squaretriangles.svg	stimuli_distractor_diamondtriangles.svg	7	yes	44	1	363	6	4	antiphase_hc_sio.wav	1	6	1	noise_calib_stim_LEFT.wav	1	34	blb_dichoticlistening_ta-ka.mp3	ta	ka	1	right
6.6.1	win	2023-07-09	15:47:55	16:09:43	1299958	59d3d4026cc82800013e31a2	2	1	main_z	24	advance_on_keypress_ZEE	136	stimuli_target_squaretriangles.svg	stimuli_distractor_diamondtriangles.svg	7	yes	57	0	658	6	4	antiphase_hc_sio.wav	1	6	1	noise_calib_stim_LEFT.wav	1	34	blb_dichoticlistening_ta-ka.mp3	ta	ka	1	right
6.6.1	win	2023-07-09	15:47:55	16:09:45	1301826	59d3d4026cc82800013e31a2	2	1	main_z	24	main_z	137	stimuli_distractor_diamondtriangles.svg	stimuli_target_trianglerectangles.svg	29	yes	44	1	566	6	4	antiphase_hc_sio.wav	1	6	1	noise_calib_stim_LEFT.wav	1	34	blb_dichoticlistening_ta-ka.mp3	ta	ka	1	right
6.6.1	win	2023-07-09	15:47:55	16:09:45	1301826	59d3d4026cc82800013e31a2	2	1	main_z	24	advance_on_keypress_ZEE	138	stimuli_distractor_diamondtriangles.svg	stimuli_target_trianglerectangles.svg	29	yes	57	0	1358	6	4	antiphase_hc_sio.wav	1	6	1	noise_calib_stim_LEFT.wav	1	34	blb_dichoticlistening_ta-ka.mp3	ta	ka	1	right
6.6.1	win	2023-07-09	15:47:55	16:09:47	1304469	59d3d4026cc82800013e31a2	2	1	main_z	24	main_z	139	stimuli_target_diamondrectangles.svg	stimuli_distractor_diamondtriangles.svg	23	yes	44	1	645	6	4	antiphase_hc_sio.wav	1	6	1	noise_calib_stim_LEFT.wav	1	34	blb_dichoticlistening_ta-ka.mp3	ta	ka	1	right
6.6.1	win	2023-07-09	15:47:55	16:09:47	1304469	59d3d4026cc82800013e31a2	2	1	main_z	24	advance_on_keypress_ZEE	140	stimuli_target_diamondrectangles.svg	stimuli_distractor_diamondtriangles.svg	23	yes	57	0	2195	6	4	antiphase_hc_sio.wav	1	6	1	noise_calib_stim_LEFT.wav	1	34	blb_dichoticlistening_ta-ka.mp3	ta	ka	1	right
6.6.1	win	2023-07-09	15:47:55	16:09:51	1307653	59d3d4026cc82800013e31a2	2	1	main_z	24	main_z	141	stimuli_target_trianglerectangles.svg	stimuli_distractor_diamondtriangles.svg	21	yes	44	1	332	6	4	antiphase_hc_sio.wav	1	6	1	noise_calib_stim_LEFT.wav	1	34	blb_dichoticlistening_ta-ka.mp3	ta	ka	1	right
6.6.1	win	2023-07-09	15:47:55	16:09:51	1307653	59d3d4026cc82800013e31a2	2	1	main_z	24	advance_on_keypress_ZEE	142	stimuli_target_trianglerectangles.svg	stimuli_distractor_diamondtriangles.svg	21	yes	57	0	926	6	4	antiphase_hc_sio.wav	1	6	1	noise_calib_stim_LEFT.wav	1	34	blb_dichoticlistening_ta-ka.mp3	ta	ka	1	right
6.6.1	win	2023-07-09	15:47:55	16:09:53	1309558	59d3d4026cc82800013e31a2	2	1	main_z	24	main_z	143	stimuli_distractor_trianglediamonds.svg	stimuli_target_trianglesquares.svg	26	yes	44	1	338	6	4	antiphase_hc_sio.wav	1	6	1	noise_calib_stim_LEFT.wav	1	34	blb_dichoticlistening_ta-ka.mp3	ta	ka	1	right
6.6.1	win	2023-07-09	15:47:55	16:09:53	1309558	59d3d4026cc82800013e31a2	2	1	main_z	24	advance_on_keypress_ZEE	144	stimuli_distractor_trianglediamonds.svg	stimuli_target_trianglesquares.svg	26	yes	57	0	1081	6	4	antiphase_hc_sio.wav	1	6	1	noise_calib_stim_LEFT.wav	1	34	blb_dichoticlistening_ta-ka.mp3	ta	ka	1	right
6.6.1	win	2023-07-09	15:47:55	16:09:55	1311665	59d3d4026cc82800013e31a2	2	1	main_z	24	main_z	145	stimuli_distractor_diamondtriangles.svg	stimuli_distractor_trianglediamonds.svg	37	no	44	0	373	6	4	antiphase_hc_sio.wav	1	6	1	noise_calib_stim_LEFT.wav	1	34	blb_dichoticlistening_ta-ka.mp3	ta	ka	1	right
6.6.1	win	2023-07-09	15:47:55	16:09:55	1311665	59d3d4026cc82800013e31a2	2	1	main_z	24	advance_on_keypress_ZEE	146	stimuli_distractor_diamondtriangles.svg	stimuli_distractor_trianglediamonds.svg	37	no	57	0	1486	6	4	antiphase_hc_sio.wav	1	6	1	noise_calib_stim_LEFT.wav	1	34	blb_dichoticlistening_ta-ka.mp3	ta	ka	1	right
6.6.1	win	2023-07-09	15:47:55	16:09:58	1314871	59d3d4026cc82800013e31a2	2	1	main_z	24	main_z	147	stimuli_distractor_trianglediamonds.svg	stimuli_distractor_trianglediamonds.svg	33	no	44	0	1072	6	4	antiphase_hc_sio.wav	1	6	1	noise_calib_stim_LEFT.wav	1	34	blb_dichoticlistening_ta-ka.mp3	ta	ka	1	right
6.6.1	win	2023-07-09	15:47:55	16:09:58	1314871	59d3d4026cc82800013e31a2	2	1	main_z	24	advance_on_keypress_ZEE	148	stimuli_distractor_trianglediamonds.svg	stimuli_distractor_trianglediamonds.svg	33	no	57	0	1536	6	4	antiphase_hc_sio.wav	1	6	1	noise_calib_stim_LEFT.wav	1	34	blb_dichoticlistening_ta-ka.mp3	ta	ka	1	right
6.6.1	win	2023-07-09	15:47:55	16:10:01	1317589	59d3d4026cc82800013e31a2	2	1	main_z	24	main_z	149	stimuli_target_squaretriangles.svg	stimuli_distractor_trianglediamonds.svg	3	yes	44	1	544	6	4	antiphase_hc_sio.wav	1	6	1	noise_calib_stim_LEFT.wav	1	34	blb_dichoticlistening_ta-ka.mp3	ta	ka	1	right
6.6.1	win	2023-07-09	15:47:55	16:10:01	1317589	59d3d4026cc82800013e31a2	2	1	main_z	24	advance_on_keypress_ZEE	150	stimuli_target_squaretriangles.svg	stimuli_distractor_trianglediamonds.svg	3	yes	57	0	737	6	4	antiphase_hc_sio.wav	1	6	1	noise_calib_stim_LEFT.wav	1	34	blb_dichoticlistening_ta-ka.mp3	ta	ka	1	right
6.6.1	win	2023-07-09	15:47:55	16:10:03	1319550	59d3d4026cc82800013e31a2	2	1	main_z	24	main_z	151	stimuli_distractor_diamondtriangles.svg	stimuli_target_trianglesquares.svg	30	yes	44	1	573	6	4	antiphase_hc_sio.wav	1	6	1	noise_calib_stim_LEFT.wav	1	34	blb_dichoticlistening_ta-ka.mp3	ta	ka	1	right
6.6.1	win	2023-07-09	15:47:55	16:10:03	1319550	59d3d4026cc82800013e31a2	2	1	main_z	24	advance_on_keypress_ZEE	152	stimuli_distractor_diamondtriangles.svg	stimuli_target_trianglesquares.svg	30	yes	57	0	818	6	4	antiphase_hc_sio.wav	1	6	1	noise_calib_stim_LEFT.wav	1	34	blb_dichoticlistening_ta-ka.mp3	ta	ka	1	right
6.6.1	win	2023-07-09	15:47:55	16:10:04	1321474	59d3d4026cc82800013e31a2	2	1	main_z	24	main_z	153	stimuli_target_squarediamonds.svg	stimuli_distractor_trianglediamonds.svg	4	yes	44	1	466	6	4	antiphase_hc_sio.wav	1	6	1	noise_calib_stim_LEFT.wav	1	34	blb_dichoticlistening_ta-ka.mp3	ta	ka	1	right
6.6.1	win	2023-07-09	15:47:55	16:10:04	1321474	59d3d4026cc82800013e31a2	2	1	main_z	24	advance_on_keypress_ZEE	154	stimuli_target_squarediamonds.svg	stimuli_distractor_trianglediamonds.svg	4	yes	57	0	4032	6	4	antiphase_hc_sio.wav	1	6	1	noise_calib_stim_LEFT.wav	1	34	blb_dichoticlistening_ta-ka.mp3	ta	ka	1	right
6.6.1	win	2023-07-09	15:47:55	16:10:10	1326552	59d3d4026cc82800013e31a2	2	1	main_z	24	main_z	155	stimuli_distractor_trianglediamonds.svg	stimuli_target_diamondsquares.svg	28	yes	44	1	400	6	4	antiphase_hc_sio.wav	1	6	1	noise_calib_stim_LEFT.wav	1	34	blb_dichoticlistening_ta-ka.mp3	ta	ka	1	right
6.6.1	win	2023-07-09	15:47:55	16:10:10	1326552	59d3d4026cc82800013e31a2	2	1	main_z	24	advance_on_keypress_ZEE	156	stimuli_distractor_trianglediamonds.svg	stimuli_target_diamondsquares.svg	28	yes	57	0	651	6	4	antiphase_hc_sio.wav	1	6	1	noise_calib_stim_LEFT.wav	1	34	blb_dichoticlistening_ta-ka.mp3	ta	ka	1	right
6.6.1	win	2023-07-09	15:47:55	16:10:11	1328278	59d3d4026cc82800013e31a2	2	1	main_z	24	main_z	157	stimuli_distractor_trianglediamonds.svg	stimuli_distractor_diamondtriangles.svg	36	no	44	0	427	6	4	antiphase_hc_sio.wav	1	6	1	noise_calib_stim_LEFT.wav	1	34	blb_dichoticlistening_ta-ka.mp3	ta	ka	1	right
6.6.1	win	2023-07-09	15:47:55	16:10:11	1328278	59d3d4026cc82800013e31a2	2	1	main_z	24	advance_on_keypress_ZEE	158	stimuli_distractor_trianglediamonds.svg	stimuli_distractor_diamondtriangles.svg	36	no	57	0	1579	6	4	antiphase_hc_sio.wav	1	6	1	noise_calib_stim_LEFT.wav	1	34	blb_dichoticlistening_ta-ka.mp3	ta	ka	1	right
6.6.1	win	2023-07-09	15:47:55	16:10:14	1331019	59d3d4026cc82800013e31a2	2	1	main_z	24	main_z	159	stimuli_distractor_trianglediamonds.svg	stimuli_target_squaretriangles.svg	11	yes	44	1	520	6	4	antiphase_hc_sio.wav	1	6	1	noise_calib_stim_LEFT.wav	1	34	blb_dichoticlistening_ta-ka.mp3	ta	ka	1	right
6.6.1	win	2023-07-09	15:47:55	16:10:14	1331019	59d3d4026cc82800013e31a2	2	1	main_z	24	advance_on_keypress_ZEE	160	stimuli_distractor_trianglediamonds.svg	stimuli_target_squaretriangles.svg	11	yes	57	0	2070	6	4	antiphase_hc_sio.wav	1	6	1	noise_calib_stim_LEFT.wav	1	34	blb_dichoticlistening_ta-ka.mp3	ta	ka	1	right
6.6.1	win	2023-07-09	15:47:55	16:10:14	1331019	59d3d4026cc82800013e31a2	2	1	inst_12_ZEE_practice2	25			stimuli_distractor_trianglediamonds.svg	stimuli_target_squaretriangles.svg	11	yes	Ctrl+'Q'			6	4	antiphase_hc_sio.wav	1	6	1	noise_calib_stim_LEFT.wav	1	34	blb_dichoticlistening_ta-ka.mp3	ta	ka	1	right