subject	time_elapsed_ms	blocknum	block_type	block_response	trialnum	target	level	field	target_present	response	correct	rt
55bd8669fdf99b5bfc7d4cfc	621650	9.5	practice	slash	1	rectangle	local	RVF	yes	present	1	1527
55bd8669fdf99b5bfc7d4cfc	625617	9.5	practice	slash	2	rectangle	local	RVF	yes	present	1	1045
55bd8669fdf99b5bfc7d4cfc	628793	9.5	practice	slash	3	square	global	RVF	yes	present	1	1021
55bd8669fdf99b5bfc7d4cfc	631641	9.5	practice	slash	4	rectangle	global	LVF	yes	present	1	836
55bd8669fdf99b5bfc7d4cfc	635655	9.5	practice	slash	5	absent	absent	absent	no	absent	1	2000
55bd8669fdf99b5bfc7d4cfc	638833	9.5	practice	slash	6	square	local	LVF	yes	present	1	1011
55bd8669fdf99b5bfc7d4cfc	642939	9.5	practice	slash	7	absent	absent	absent	no	absent	1	2000
55bd8669fdf99b5bfc7d4cfc	645929	9.5	practice	slash	8	square	global	LVF	yes	present	1	907
55bd8669fdf99b5bfc7d4cfc	648961	9.5	practice	slash	9	square	global	LVF	yes	present	1	939
55bd8669fdf99b5bfc7d4cfc	653122	9.5	practice	slash	10	absent	absent	absent	no	absent	1	2000
55bd8669fdf99b5bfc7d4cfc	657155	9.5	practice	slash	11	rectangle	global	RVF	yes	absent	0	2000
55bd8669fdf99b5bfc7d4cfc	660561	9.5	practice	slash	12	rectangle	global	LVF	yes	present	1	1273
55bd8669fdf99b5bfc7d4cfc	664522	9.5	practice	slash	13	absent	absent	absent	no	absent	1	2000
55bd8669fdf99b5bfc7d4cfc	667377	9.5	practice	slash	14	rectangle	local	RVF	yes	present	1	889
55bd8669fdf99b5bfc7d4cfc	670313	9.5	practice	slash	15	square	local	LVF	yes	present	1	925
55bd8669fdf99b5bfc7d4cfc	673546	9.5	practice	slash	16	rectangle	global	RVF	yes	present	1	1257
55bd8669fdf99b5bfc7d4cfc	679887	10.5	main	slash	1	rectangle	local	LVF	yes	present	1	851
55bd8669fdf99b5bfc7d4cfc	682135	10.5	main	slash	2	square	local	RVF	yes	present	1	716
55bd8669fdf99b5bfc7d4cfc	684215	10.5	main	slash	3	square	local	LVF	yes	present	1	846
55bd8669fdf99b5bfc7d4cfc	687303	10.5	main	slash	4	absent	absent	absent	no	absent	1	2000
55bd8669fdf99b5bfc7d4cfc	689631	10.5	main	slash	5	rectangle	global	RVF	yes	present	1	1312
55bd8669fdf99b5bfc7d4cfc	691863	10.5	main	slash	6	rectangle	local	RVF	yes	present	1	960
55bd8669fdf99b5bfc7d4cfc	694903	10.5	main	slash	7	absent	absent	absent	no	absent	1	2000
55bd8669fdf99b5bfc7d4cfc	696719	10.5	main	slash	8	rectangle	global	LVF	yes	present	1	866
55bd8669fdf99b5bfc7d4cfc	699248	10.5	main	slash	9	absent	absent	absent	no	present	0	1428
55bd8669fdf99b5bfc7d4cfc	701335	10.5	main	slash	10	square	local	RVF	yes	present	1	916
55bd8669fdf99b5bfc7d4cfc	703255	10.5	main	slash	11	square	global	LVF	yes	present	1	853
55bd8669fdf99b5bfc7d4cfc	705223	10.5	main	slash	12	square	global	RVF	yes	present	1	921
55bd8669fdf99b5bfc7d4cfc	707191	10.5	main	slash	13	square	global	RVF	yes	present	1	922
55bd8669fdf99b5bfc7d4cfc	709063	10.5	main	slash	14	square	global	RVF	yes	present	1	794
55bd8669fdf99b5bfc7d4cfc	711303	10.5	main	slash	15	square	local	LVF	yes	present	1	1117
55bd8669fdf99b5bfc7d4cfc	713335	10.5	main	slash	16	rectangle	local	RVF	yes	present	1	883
55bd8669fdf99b5bfc7d4cfc	716369	10.5	main	slash	17	absent	absent	absent	no	absent	1	2000
55bd8669fdf99b5bfc7d4cfc	718007	10.5	main	slash	18	square	global	LVF	yes	present	1	571
55bd8669fdf99b5bfc7d4cfc	719903	10.5	main	slash	19	square	global	RVF	yes	present	1	717
55bd8669fdf99b5bfc7d4cfc	722335	10.5	main	slash	20	square	local	LVF	yes	present	1	1149
55bd8669fdf99b5bfc7d4cfc	726982	10.5	main	slash	21	rectangle	global	RVF	yes	present	1	730
55bd8669fdf99b5bfc7d4cfc	728806	10.5	main	slash	22	rectangle	global	LVF	yes	present	1	737
55bd8669fdf99b5bfc7d4cfc	730782	10.5	main	slash	23	rectangle	local	LVF	yes	present	1	913
55bd8669fdf99b5bfc7d4cfc	732727	10.5	main	slash	24	square	global	LVF	yes	present	1	890
55bd8669fdf99b5bfc7d4cfc	735819	10.5	main	slash	25	absent	absent	absent	no	absent	1	2000
55bd8669fdf99b5bfc7d4cfc	737582	10.5	main	slash	26	rectangle	local	RVF	yes	present	1	796
55bd8669fdf99b5bfc7d4cfc	739374	10.5	main	slash	27	rectangle	global	LVF	yes	present	1	722
55bd8669fdf99b5bfc7d4cfc	741158	10.5	main	slash	28	square	global	LVF	yes	present	1	722
55bd8669fdf99b5bfc7d4cfc	744236	10.5	main	slash	29	absent	absent	absent	no	absent	1	2000
55bd8669fdf99b5bfc7d4cfc	745958	10.5	main	slash	30	rectangle	local	LVF	yes	present	1	756
55bd8669fdf99b5bfc7d4cfc	747670	10.5	main	slash	31	rectangle	local	LVF	yes	present	1	618
55bd8669fdf99b5bfc7d4cfc	749454	10.5	main	slash	32	square	local	RVF	yes	present	1	685
55bd8669fdf99b5bfc7d4cfc	751382	10.5	main	slash	33	rectangle	global	RVF	yes	present	1	913
55bd8669fdf99b5bfc7d4cfc	753222	10.5	main	slash	34	square	local	LVF	yes	present	1	720
55bd8669fdf99b5bfc7d4cfc	756219	10.5	main	slash	35	absent	absent	absent	no	absent	1	2000
55bd8669fdf99b5bfc7d4cfc	757774	10.5	main	slash	36	square	local	RVF	yes	present	1	622
55bd8669fdf99b5bfc7d4cfc	760819	10.5	main	slash	37	absent	absent	absent	no	absent	1	2000
55bd8669fdf99b5bfc7d4cfc	762390	10.5	main	slash	38	rectangle	global	LVF	yes	present	1	671
55bd8669fdf99b5bfc7d4cfc	764126	10.5	main	slash	39	rectangle	local	RVF	yes	present	1	674
55bd8669fdf99b5bfc7d4cfc	765910	10.5	main	slash	40	rectangle	global	RVF	yes	present	1	708
55bd8669fdf99b5bfc7d4cfc	767670	10.5	main	slash	41	square	local	LVF	yes	present	1	685
55bd8669fdf99b5bfc7d4cfc	769478	10.5	main	slash	42	rectangle	local	RVF	yes	present	1	709
55bd8669fdf99b5bfc7d4cfc	771230	10.5	main	slash	43	square	local	LVF	yes	present	1	678
55bd8669fdf99b5bfc7d4cfc	772918	10.5	main	slash	44	rectangle	local	LVF	yes	present	1	666
55bd8669fdf99b5bfc7d4cfc	774798	10.5	main	slash	45	rectangle	local	LVF	yes	present	1	813
55bd8669fdf99b5bfc7d4cfc	776510	10.5	main	slash	46	square	local	LVF	yes	present	1	691
55bd8669fdf99b5bfc7d4cfc	778246	10.5	main	slash	47	square	global	LVF	yes	present	1	644
55bd8669fdf99b5bfc7d4cfc	779902	10.5	main	slash	48	rectangle	local	RVF	yes	present	1	617
55bd8669fdf99b5bfc7d4cfc	781558	10.5	main	slash	49	square	global	LVF	yes	present	1	639
55bd8669fdf99b5bfc7d4cfc	783238	10.5	main	slash	50	rectangle	global	RVF	yes	present	1	670
55bd8669fdf99b5bfc7d4cfc	784886	10.5	main	slash	51	rectangle	local	RVF	yes	present	1	651
55bd8669fdf99b5bfc7d4cfc	787952	10.5	main	slash	52	absent	absent	absent	no	absent	1	2000
55bd8669fdf99b5bfc7d4cfc	790918	10.5	main	slash	53	absent	absent	absent	no	absent	1	2000
55bd8669fdf99b5bfc7d4cfc	792598	10.5	main	slash	54	rectangle	global	LVF	yes	present	1	680
55bd8669fdf99b5bfc7d4cfc	794294	10.5	main	slash	55	rectangle	global	RVF	yes	present	1	642
55bd8669fdf99b5bfc7d4cfc	795990	10.5	main	slash	56	square	local	RVF	yes	present	1	655
55bd8669fdf99b5bfc7d4cfc	797694	10.5	main	slash	57	rectangle	local	LVF	yes	present	1	676
55bd8669fdf99b5bfc7d4cfc	800652	10.5	main	slash	58	absent	absent	absent	no	absent	1	2000
55bd8669fdf99b5bfc7d4cfc	802158	10.5	main	slash	59	square	local	RVF	yes	present	1	540
55bd8669fdf99b5bfc7d4cfc	803782	10.5	main	slash	60	rectangle	local	LVF	yes	present	1	580
55bd8669fdf99b5bfc7d4cfc	806835	10.5	main	slash	61	absent	absent	absent	no	absent	1	2000
55bd8669fdf99b5bfc7d4cfc	809526	10.5	main	slash	62	square	global	LVF	yes	present	1	558
55bd8669fdf99b5bfc7d4cfc	811158	10.5	main	slash	63	square	local	RVF	yes	present	1	606
55bd8669fdf99b5bfc7d4cfc	812798	10.5	main	slash	64	rectangle	global	LVF	yes	present	1	563
55bd8669fdf99b5bfc7d4cfc	814518	10.5	main	slash	65	square	global	RVF	yes	present	1	700
55bd8669fdf99b5bfc7d4cfc	816126	10.5	main	slash	66	square	local	RVF	yes	present	1	591
55bd8669fdf99b5bfc7d4cfc	817750	10.5	main	slash	67	square	global	RVF	yes	present	1	648
55bd8669fdf99b5bfc7d4cfc	820702	10.5	main	slash	68	absent	absent	absent	no	absent	1	2000
55bd8669fdf99b5bfc7d4cfc	822238	10.5	main	slash	69	square	local	LVF	yes	present	1	603
55bd8669fdf99b5bfc7d4cfc	823814	10.5	main	slash	70	rectangle	global	LVF	yes	present	1	579
55bd8669fdf99b5bfc7d4cfc	825366	10.5	main	slash	71	rectangle	global	LVF	yes	present	1	507
55bd8669fdf99b5bfc7d4cfc	828368	10.5	main	slash	72	absent	absent	absent	no	absent	1	2000
55bd8669fdf99b5bfc7d4cfc	829830	10.5	main	slash	73	rectangle	global	RVF	yes	present	1	479
55bd8669fdf99b5bfc7d4cfc	831462	10.5	main	slash	74	rectangle	global	RVF	yes	present	1	544
55bd8669fdf99b5bfc7d4cfc	833246	10.5	main	slash	75	square	global	RVF	yes	present	1	678
55bd8669fdf99b5bfc7d4cfc	834814	10.5	main	slash	76	square	global	LVF	yes	present	1	463
55bd8669fdf99b5bfc7d4cfc	837918	10.5	main	slash	77	absent	absent	absent	no	absent	1	2000
55bd8669fdf99b5bfc7d4cfc	841742	10.5	main	slash	78	rectangle	local	RVF	yes	present	1	574
55bd8669fdf99b5bfc7d4cfc	843182	10.5	main	slash	79	square	global	RVF	yes	present	1	447
55bd8669fdf99b5bfc7d4cfc	846185	10.5	main	slash	80	absent	absent	absent	no	absent	1	2000
55bd8669fdf99b5bfc7d4cfc	860639	11.5	practice	z	1	square	global	LVF	yes	present	1	686
55bd8669fdf99b5bfc7d4cfc	863487	11.5	practice	z	2	square	global	LVF	yes	present	1	667
55bd8669fdf99b5bfc7d4cfc	866208	11.5	practice	z	3	rectangle	global	LVF	yes	present	1	621
55bd8669fdf99b5bfc7d4cfc	868896	11.5	practice	z	4	rectangle	local	RVF	yes	present	1	659
55bd8669fdf99b5bfc7d4cfc	872937	11.5	practice	z	5	absent	absent	absent	no	absent	1	2000
55bd8669fdf99b5bfc7d4cfc	875624	11.5	practice	z	6	square	local	LVF	yes	present	1	687
55bd8669fdf99b5bfc7d4cfc	878551	11.5	practice	z	7	rectangle	local	RVF	yes	present	1	631
55bd8669fdf99b5bfc7d4cfc	882753	11.5	practice	z	8	absent	absent	absent	no	absent	1	2000
55bd8669fdf99b5bfc7d4cfc	885655	11.5	practice	z	9	square	local	LVF	yes	present	1	719
55bd8669fdf99b5bfc7d4cfc	890175	11.5	practice	z	10	absent	absent	absent	no	present	0	1705
55bd8669fdf99b5bfc7d4cfc	893479	11.5	practice	z	11	rectangle	global	LVF	yes	present	1	826
55bd8669fdf99b5bfc7d4cfc	896447	11.5	practice	z	12	rectangle	global	RVF	yes	present	1	761
55bd8669fdf99b5bfc7d4cfc	899599	11.5	practice	z	13	square	global	RVF	yes	present	1	1096
55bd8669fdf99b5bfc7d4cfc	902607	11.5	practice	z	14	rectangle	global	RVF	yes	present	1	787
55bd8669fdf99b5bfc7d4cfc	905575	11.5	practice	z	15	rectangle	local	RVF	yes	present	1	739
55bd8669fdf99b5bfc7d4cfc	909087	11.5	practice	z	16	absent	absent	absent	no	present	0	1401
55bd8669fdf99b5bfc7d4cfc	913053	12.5	main	z	1	rectangle	global	LVF	yes	present	1	669
55bd8669fdf99b5bfc7d4cfc	916384	12.5	main	z	2	absent	absent	absent	no	absent	1	2000
55bd8669fdf99b5bfc7d4cfc	918045	12.5	main	z	3	square	global	LVF	yes	present	1	728
55bd8669fdf99b5bfc7d4cfc	919941	12.5	main	z	4	rectangle	global	RVF	yes	present	1	724
55bd8669fdf99b5bfc7d4cfc	921861	12.5	main	z	5	rectangle	local	LVF	yes	present	1	810
55bd8669fdf99b5bfc7d4cfc	923693	12.5	main	z	6	square	global	RVF	yes	present	1	759
55bd8669fdf99b5bfc7d4cfc	925453	12.5	main	z	7	rectangle	local	RVF	yes	present	1	702
55bd8669fdf99b5bfc7d4cfc	927301	12.5	main	z	8	square	local	LVF	yes	present	1	684
55bd8669fdf99b5bfc7d4cfc	929005	12.5	main	z	9	square	global	LVF	yes	present	1	638
55bd8669fdf99b5bfc7d4cfc	930805	12.5	main	z	10	rectangle	local	RVF	yes	present	1	688
55bd8669fdf99b5bfc7d4cfc	932477	12.5	main	z	11	square	local	RVF	yes	present	1	560
55bd8669fdf99b5bfc7d4cfc	934285	12.5	main	z	12	square	global	RVF	yes	present	1	618
55bd8669fdf99b5bfc7d4cfc	936093	12.5	main	z	13	square	local	LVF	yes	present	1	642
55bd8669fdf99b5bfc7d4cfc	938189	12.5	main	z	14	rectangle	global	RVF	yes	present	1	922
55bd8669fdf99b5bfc7d4cfc	940173	12.5	main	z	15	rectangle	local	LVF	yes	present	1	706
55bd8669fdf99b5bfc7d4cfc	941965	12.5	main	z	16	square	global	LVF	yes	present	1	648
55bd8669fdf99b5bfc7d4cfc	943861	12.5	main	z	17	square	global	RVF	yes	present	1	727
55bd8669fdf99b5bfc7d4cfc	945661	12.5	main	z	18	rectangle	local	RVF	yes	present	1	727
55bd8669fdf99b5bfc7d4cfc	947765	12.5	main	z	19	rectangle	local	LVF	yes	present	1	798
55bd8669fdf99b5bfc7d4cfc	949661	12.5	main	z	20	square	local	LVF	yes	present	1	694
55bd8669fdf99b5bfc7d4cfc	952850	12.5	main	z	21	absent	absent	absent	no	absent	1	2000
55bd8669fdf99b5bfc7d4cfc	956667	12.5	main	z	22	absent	absent	absent	no	absent	1	2000
55bd8669fdf99b5bfc7d4cfc	958509	12.5	main	z	23	square	local	RVF	yes	present	1	892
55bd8669fdf99b5bfc7d4cfc	961934	12.5	main	z	24	absent	absent	absent	no	absent	1	2000
55bd8669fdf99b5bfc7d4cfc	965017	12.5	main	z	25	absent	absent	absent	no	absent	1	2000
55bd8669fdf99b5bfc7d4cfc	966845	12.5	main	z	26	rectangle	global	LVF	yes	present	1	861
55bd8669fdf99b5bfc7d4cfc	968668	12.5	main	z	27	rectangle	global	LVF	yes	present	1	702
55bd8669fdf99b5bfc7d4cfc	970525	12.5	main	z	28	rectangle	local	RVF	yes	present	1	708
55bd8669fdf99b5bfc7d4cfc	972276	12.5	main	z	29	square	global	LVF	yes	present	1	676
55bd8669fdf99b5bfc7d4cfc	974020	12.5	main	z	30	square	local	LVF	yes	present	1	686
55bd8669fdf99b5bfc7d4cfc	975692	12.5	main	z	31	rectangle	global	RVF	yes	present	1	592
55bd8669fdf99b5bfc7d4cfc	978817	12.5	main	z	32	absent	absent	absent	no	absent	1	2000
55bd8669fdf99b5bfc7d4cfc	981834	12.5	main	z	33	absent	absent	absent	no	absent	1	2000
55bd8669fdf99b5bfc7d4cfc	984850	12.5	main	z	34	absent	absent	absent	no	absent	1	2000
55bd8669fdf99b5bfc7d4cfc	986468	12.5	main	z	35	square	local	RVF	yes	present	1	685
55bd8669fdf99b5bfc7d4cfc	988148	12.5	main	z	36	rectangle	global	LVF	yes	present	1	631
55bd8669fdf99b5bfc7d4cfc	989860	12.5	main	z	37	rectangle	global	RVF	yes	present	1	677
55bd8669fdf99b5bfc7d4cfc	991628	12.5	main	z	38	square	local	RVF	yes	present	1	728
55bd8669fdf99b5bfc7d4cfc	993461	12.5	main	z	39	square	global	RVF	yes	present	1	743
55bd8669fdf99b5bfc7d4cfc	995188	12.5	main	z	40	rectangle	local	LVF	yes	present	1	605
55bd8669fdf99b5bfc7d4cfc	998283	12.5	main	z	41	absent	absent	absent	no	absent	1	2000
55bd8669fdf99b5bfc7d4cfc	999972	12.5	main	z	42	square	global	LVF	yes	present	1	539
55bd8669fdf99b5bfc7d4cfc	1001548	12.5	main	z	43	square	local	LVF	yes	present	1	508
55bd8669fdf99b5bfc7d4cfc	1003132	12.5	main	z	44	rectangle	local	RVF	yes	present	1	465
55bd8669fdf99b5bfc7d4cfc	1004652	12.5	main	z	45	rectangle	global	RVF	yes	present	1	452
55bd8669fdf99b5bfc7d4cfc	1006196	12.5	main	z	46	rectangle	global	LVF	yes	present	1	446
55bd8669fdf99b5bfc7d4cfc	1007636	12.5	main	z	47	rectangle	global	LVF	yes	present	1	419
55bd8669fdf99b5bfc7d4cfc	1009220	12.5	main	z	48	square	local	RVF	yes	present	1	553
55bd8669fdf99b5bfc7d4cfc	1010884	12.5	main	z	49	rectangle	local	LVF	yes	present	1	551
55bd8669fdf99b5bfc7d4cfc	1013917	12.5	main	z	50	absent	absent	absent	no	absent	1	2000
55bd8669fdf99b5bfc7d4cfc	1015388	12.5	main	z	51	rectangle	local	LVF	yes	present	1	438
55bd8669fdf99b5bfc7d4cfc	1016924	12.5	main	z	52	rectangle	local	RVF	yes	present	1	474
55bd8669fdf99b5bfc7d4cfc	1018498	12.5	main	z	53	rectangle	global	RVF	yes	present	1	503
55bd8669fdf99b5bfc7d4cfc	1020092	12.5	main	z	54	square	global	RVF	yes	present	1	559
55bd8669fdf99b5bfc7d4cfc	1023283	12.5	main	z	55	absent	absent	absent	no	absent	1	2000
55bd8669fdf99b5bfc7d4cfc	1024732	12.5	main	z	56	square	local	RVF	yes	present	1	449
55bd8669fdf99b5bfc7d4cfc	1027783	12.5	main	z	57	absent	absent	absent	no	absent	1	2000
55bd8669fdf99b5bfc7d4cfc	1029444	12.5	main	z	58	square	local	LVF	yes	present	1	494
55bd8669fdf99b5bfc7d4cfc	1030924	12.5	main	z	59	rectangle	local	LVF	yes	present	1	491
55bd8669fdf99b5bfc7d4cfc	1032540	12.5	main	z	60	rectangle	global	RVF	yes	present	1	607
55bd8669fdf99b5bfc7d4cfc	1034124	12.5	main	z	61	square	global	RVF	yes	present	1	541
55bd8669fdf99b5bfc7d4cfc	1035692	12.5	main	z	62	square	global	RVF	yes	present	1	459
55bd8669fdf99b5bfc7d4cfc	1037924	12.5	main	z	63	absent	absent	absent	no	present	0	1224
55bd8669fdf99b5bfc7d4cfc	1039652	12.5	main	z	64	square	global	RVF	yes	present	1	569
55bd8669fdf99b5bfc7d4cfc	1041244	12.5	main	z	65	rectangle	global	RVF	yes	present	1	494
55bd8669fdf99b5bfc7d4cfc	1042700	12.5	main	z	66	square	global	LVF	yes	present	1	417
55bd8669fdf99b5bfc7d4cfc	1044236	12.5	main	z	67	square	local	RVF	yes	present	1	453
55bd8669fdf99b5bfc7d4cfc	1045948	12.5	main	z	68	rectangle	local	LVF	yes	present	1	648
55bd8669fdf99b5bfc7d4cfc	1047532	12.5	main	z	69	rectangle	local	RVF	yes	present	1	466
55bd8669fdf99b5bfc7d4cfc	1049044	12.5	main	z	70	rectangle	local	RVF	yes	present	1	428
55bd8669fdf99b5bfc7d4cfc	1050612	12.5	main	z	71	square	local	LVF	yes	present	1	496
55bd8669fdf99b5bfc7d4cfc	1052132	12.5	main	z	72	square	local	LVF	yes	present	1	566
55bd8669fdf99b5bfc7d4cfc	1055117	12.5	main	z	73	absent	absent	absent	no	absent	1	2000
55bd8669fdf99b5bfc7d4cfc	1056684	12.5	main	z	74	square	global	LVF	yes	present	1	534
55bd8669fdf99b5bfc7d4cfc	1058092	12.5	main	z	75	square	global	LVF	yes	present	1	392
55bd8669fdf99b5bfc7d4cfc	1061050	12.5	main	z	76	absent	absent	absent	no	absent	1	2000
55bd8669fdf99b5bfc7d4cfc	1062636	12.5	main	z	77	rectangle	global	LVF	yes	present	1	436
55bd8669fdf99b5bfc7d4cfc	1065616	12.5	main	z	78	absent	absent	absent	no	absent	1	2000
55bd8669fdf99b5bfc7d4cfc	1067108	12.5	main	z	79	square	local	RVF	yes	present	1	592
55bd8669fdf99b5bfc7d4cfc	1068836	12.5	main	z	80	rectangle	global	LVF	yes	present	1	637
