subject	time_elapsed_ms	blocknum	block_type	block_response	trialnum	target	level	field	target_present	response	correct	rt
565955077d6957000adfe029	440397	1	practice	z	1	absent	absent	absent	no	absent	1	2000
565955077d6957000adfe029	446576	1	practice	z	2	square	global	LVF	yes	absent	0	2000
565955077d6957000adfe029	451093	1	practice	z	3	absent	absent	absent	no	absent	1	2000
565955077d6957000adfe029	455766	1	practice	z	4	rectangle	global	LVF	yes	present	1	864
565955077d6957000adfe029	460513	1	practice	z	5	absent	absent	absent	no	absent	1	2000
565955077d6957000adfe029	465902	1	practice	z	6	rectangle	local	RVF	yes	absent	0	2000
565955077d6957000adfe029	468910	1	practice	z	7	rectangle	global	RVF	yes	present	1	813
565955077d6957000adfe029	471909	1	practice	z	8	rectangle	global	LVF	yes	present	1	608
565955077d6957000adfe029	476216	1	practice	z	9	rectangle	local	RVF	yes	absent	0	2000
565955077d6957000adfe029	480684	1	practice	z	10	absent	absent	absent	no	absent	1	2000
565955077d6957000adfe029	489638	1	practice	z	11	rectangle	global	RVF	yes	present	1	886
565955077d6957000adfe029	494361	1	practice	z	12	square	local	LVF	yes	absent	0	2000
565955077d6957000adfe029	497406	1	practice	z	13	square	global	RVF	yes	present	1	835
565955077d6957000adfe029	500702	1	practice	z	14	square	global	LVF	yes	present	1	837
565955077d6957000adfe029	504793	1	practice	z	15	square	local	LVF	yes	absent	0	2000
565955077d6957000adfe029	508134	1	practice	z	16	rectangle	local	RVF	yes	present	1	1152
565955077d6957000adfe029	560835	2	main	z	1	square	local	LVF	yes	absent	0	2000
565955077d6957000adfe029	562765	2	main	z	2	square	global	LVF	yes	present	1	646
565955077d6957000adfe029	564845	2	main	z	3	rectangle	global	RVF	yes	present	1	600
565955077d6957000adfe029	568130	2	main	z	4	square	local	RVF	yes	absent	0	2000
565955077d6957000adfe029	571155	2	main	z	5	rectangle	local	RVF	yes	absent	0	2000
565955077d6957000adfe029	574232	2	main	z	6	square	local	RVF	yes	absent	0	2000
565955077d6957000adfe029	577232	2	main	z	7	absent	absent	absent	no	absent	1	2000
565955077d6957000adfe029	579166	2	main	z	8	square	local	RVF	yes	present	1	833
565955077d6957000adfe029	581934	2	main	z	9	rectangle	global	LVF	yes	present	1	1067
565955077d6957000adfe029	585645	2	main	z	10	absent	absent	absent	no	present	0	1311
565955077d6957000adfe029	589277	2	main	z	11	absent	absent	absent	no	absent	1	2000
565955077d6957000adfe029	591157	2	main	z	12	square	global	LVF	yes	present	1	606
565955077d6957000adfe029	594604	2	main	z	13	rectangle	local	LVF	yes	absent	0	2000
565955077d6957000adfe029	596349	2	main	z	14	rectangle	global	RVF	yes	present	1	630
565955077d6957000adfe029	598541	2	main	z	15	square	global	LVF	yes	present	1	903
565955077d6957000adfe029	600318	2	main	z	16	square	global	RVF	yes	present	1	698
565955077d6957000adfe029	601757	2	main	z	17	rectangle	global	LVF	yes	present	1	478
565955077d6957000adfe029	603157	2	main	z	18	rectangle	global	RVF	yes	present	1	461
565955077d6957000adfe029	605931	2	main	z	19	square	local	LVF	yes	absent	0	2000
565955077d6957000adfe029	609290	2	main	z	20	absent	absent	absent	no	absent	1	2000
565955077d6957000adfe029	611101	2	main	z	21	square	global	RVF	yes	present	1	536
565955077d6957000adfe029	614064	2	main	z	22	absent	absent	absent	no	absent	1	2000
565955077d6957000adfe029	615750	2	main	z	23	rectangle	global	LVF	yes	present	1	608
565955077d6957000adfe029	617326	2	main	z	24	square	global	RVF	yes	present	1	617
565955077d6957000adfe029	620189	2	main	z	25	rectangle	local	LVF	yes	absent	0	2000
565955077d6957000adfe029	623404	2	main	z	26	rectangle	local	RVF	yes	absent	0	2000
565955077d6957000adfe029	625397	2	main	z	27	square	global	RVF	yes	present	1	737
565955077d6957000adfe029	628303	2	main	z	28	rectangle	local	LVF	yes	absent	0	2000
565955077d6957000adfe029	631454	2	main	z	29	absent	absent	absent	no	absent	1	2000
565955077d6957000adfe029	633525	2	main	z	30	square	global	LVF	yes	present	1	991
565955077d6957000adfe029	635606	2	main	z	31	rectangle	global	LVF	yes	present	1	542
565955077d6957000adfe029	638707	2	main	z	32	absent	absent	absent	no	absent	1	2000
565955077d6957000adfe029	641831	2	main	z	33	square	local	LVF	yes	absent	0	2000
565955077d6957000adfe029	646029	2	main	z	34	rectangle	local	RVF	yes	present	1	1208
565955077d6957000adfe029	649150	2	main	z	35	rectangle	local	LVF	yes	absent	0	2000
565955077d6957000adfe029	652586	2	main	z	36	square	local	LVF	yes	absent	0	2000
565955077d6957000adfe029	655968	2	main	z	37	rectangle	local	RVF	yes	absent	0	2000
565955077d6957000adfe029	658157	2	main	z	38	square	local	RVF	yes	present	1	1098
565955077d6957000adfe029	661301	2	main	z	39	rectangle	global	RVF	yes	present	1	724
565955077d6957000adfe029	664287	2	main	z	40	absent	absent	absent	no	absent	1	2000
565955077d6957000adfe029	665910	2	main	z	41	square	global	LVF	yes	present	1	629
565955077d6957000adfe029	669213	2	main	z	42	square	local	LVF	yes	absent	0	2000
565955077d6957000adfe029	670941	2	main	z	43	rectangle	global	LVF	yes	present	1	587
565955077d6957000adfe029	672982	2	main	z	44	square	global	LVF	yes	present	1	768
565955077d6957000adfe029	675906	2	main	z	45	absent	absent	absent	no	absent	1	2000
565955077d6957000adfe029	679357	2	main	z	46	square	local	RVF	yes	absent	0	2000
565955077d6957000adfe029	682424	2	main	z	47	absent	absent	absent	no	absent	1	2000
565955077d6957000adfe029	685500	2	main	z	48	square	local	LVF	yes	absent	0	2000
565955077d6957000adfe029	688586	2	main	z	49	square	local	LVF	yes	absent	0	2000
565955077d6957000adfe029	690094	2	main	z	50	rectangle	global	RVF	yes	present	1	547
565955077d6957000adfe029	693103	2	main	z	51	rectangle	local	LVF	yes	absent	0	2000
565955077d6957000adfe029	696186	2	main	z	52	rectangle	local	LVF	yes	absent	0	2000
565955077d6957000adfe029	697733	2	main	z	53	square	global	RVF	yes	present	1	463
565955077d6957000adfe029	700812	2	main	z	54	absent	absent	absent	no	absent	1	2000
565955077d6957000adfe029	702998	2	main	z	55	rectangle	local	RVF	yes	present	1	1177
565955077d6957000adfe029	706230	2	main	z	56	square	global	RVF	yes	absent	0	2000
565955077d6957000adfe029	708190	2	main	z	57	square	global	LVF	yes	present	1	901
565955077d6957000adfe029	709774	2	main	z	58	square	global	RVF	yes	present	1	409
565955077d6957000adfe029	711174	2	main	z	59	rectangle	global	LVF	yes	present	1	370
565955077d6957000adfe029	712693	2	main	z	60	square	local	RVF	yes	present	1	628
565955077d6957000adfe029	714040	2	main	z	61	rectangle	global	RVF	yes	present	1	399
565955077d6957000adfe029	715717	2	main	z	62	rectangle	local	RVF	yes	present	1	959
565955077d6957000adfe029	717542	2	main	z	63	rectangle	global	LVF	yes	present	1	1017
565955077d6957000adfe029	720300	2	main	z	64	square	local	RVF	yes	absent	0	2000
565955077d6957000adfe029	721973	2	main	z	65	rectangle	global	RVF	yes	present	1	430
565955077d6957000adfe029	724773	2	main	z	66	absent	absent	absent	no	absent	1	2000
565955077d6957000adfe029	726381	2	main	z	67	square	global	RVF	yes	present	1	547
565955077d6957000adfe029	729168	2	main	z	68	rectangle	local	RVF	yes	absent	0	2000
565955077d6957000adfe029	732245	2	main	z	69	square	local	RVF	yes	absent	0	2000
565955077d6957000adfe029	735304	2	main	z	70	square	local	LVF	yes	absent	0	2000
565955077d6957000adfe029	738555	2	main	z	71	rectangle	local	LVF	yes	absent	0	2000
565955077d6957000adfe029	741548	2	main	z	72	rectangle	local	RVF	yes	absent	0	2000
565955077d6957000adfe029	743109	2	main	z	73	rectangle	global	RVF	yes	present	1	562
565955077d6957000adfe029	746057	2	main	z	74	absent	absent	absent	no	absent	1	2000
565955077d6957000adfe029	749074	2	main	z	75	absent	absent	absent	no	absent	1	2000
565955077d6957000adfe029	752346	2	main	z	76	square	global	LVF	yes	absent	0	2000
565955077d6957000adfe029	755386	2	main	z	77	rectangle	local	LVF	yes	absent	0	2000
565955077d6957000adfe029	758468	2	main	z	78	absent	absent	absent	no	absent	1	2000
565955077d6957000adfe029	759917	2	main	z	79	rectangle	global	LVF	yes	present	1	433
565955077d6957000adfe029	762790	2	main	z	80	absent	absent	absent	no	absent	1	2000
565955077d6957000adfe029	794957	3	practice	slash	1	rectangle	local	RVF	yes	absent	0	2000
565955077d6957000adfe029	799422	3	practice	slash	2	square	global	LVF	yes	absent	0	2000
565955077d6957000adfe029	805721	3	practice	slash	3	absent	absent	absent	no	absent	1	2000
565955077d6957000adfe029	810227	3	practice	slash	4	absent	absent	absent	no	absent	1	2000
565955077d6957000adfe029	812974	3	practice	slash	5	rectangle	global	RVF	yes	present	1	417
565955077d6957000adfe029	816814	3	practice	slash	6	rectangle	global	LVF	yes	present	1	792
565955077d6957000adfe029	821195	3	practice	slash	7	rectangle	local	RVF	yes	absent	0	2000
565955077d6957000adfe029	824503	3	practice	slash	8	rectangle	local	RVF	yes	present	1	943
565955077d6957000adfe029	828763	3	practice	slash	9	absent	absent	absent	no	absent	1	2000
565955077d6957000adfe029	831398	3	practice	slash	10	rectangle	global	RVF	yes	present	1	512
565955077d6957000adfe029	835771	3	practice	slash	11	absent	absent	absent	no	absent	1	2000
565955077d6957000adfe029	838850	3	practice	slash	12	square	global	LVF	yes	present	1	803
565955077d6957000adfe029	841670	3	practice	slash	13	square	global	RVF	yes	present	1	607
565955077d6957000adfe029	844966	3	practice	slash	14	square	local	LVF	yes	present	1	1185
565955077d6957000adfe029	847758	3	practice	slash	15	square	local	LVF	yes	present	1	627
565955077d6957000adfe029	851870	3	practice	slash	16	rectangle	global	LVF	yes	absent	0	2000
565955077d6957000adfe029	856093	4	main	slash	1	square	global	LVF	yes	present	1	493
565955077d6957000adfe029	858685	4	main	slash	2	square	global	LVF	yes	present	1	1210
565955077d6957000adfe029	862052	4	main	slash	3	absent	absent	absent	no	absent	1	2000
565955077d6957000adfe029	865069	4	main	slash	4	absent	absent	absent	no	absent	1	2000
565955077d6957000adfe029	866965	4	main	slash	5	rectangle	local	LVF	yes	present	1	929
565955077d6957000adfe029	869181	4	main	slash	6	square	global	RVF	yes	present	1	587
565955077d6957000adfe029	872539	4	main	slash	7	absent	absent	absent	no	absent	1	2000
565955077d6957000adfe029	874285	4	main	slash	8	square	local	RVF	yes	present	1	664
565955077d6957000adfe029	876558	4	main	slash	9	square	global	LVF	yes	present	1	653
565955077d6957000adfe029	878285	4	main	slash	10	rectangle	global	RVF	yes	present	1	472
565955077d6957000adfe029	879933	4	main	slash	11	square	global	RVF	yes	present	1	441
565955077d6957000adfe029	881582	4	main	slash	12	rectangle	global	RVF	yes	present	1	425
565955077d6957000adfe029	883670	4	main	slash	13	square	local	LVF	yes	present	1	854
565955077d6957000adfe029	885397	4	main	slash	14	square	local	LVF	yes	present	1	627
565955077d6957000adfe029	887269	4	main	slash	15	rectangle	local	LVF	yes	present	1	681
565955077d6957000adfe029	889621	4	main	slash	16	rectangle	global	LVF	yes	present	1	1367
565955077d6957000adfe029	891389	4	main	slash	17	rectangle	global	RVF	yes	present	1	620
565955077d6957000adfe029	893902	4	main	slash	18	rectangle	local	LVF	yes	present	1	1417
565955077d6957000adfe029	896944	4	main	slash	19	square	global	RVF	yes	absent	0	2000
565955077d6957000adfe029	898525	4	main	slash	20	square	global	LVF	yes	present	1	587
565955077d6957000adfe029	900301	4	main	slash	21	square	global	RVF	yes	present	1	699
565955077d6957000adfe029	902341	4	main	slash	22	rectangle	local	RVF	yes	present	1	997
565955077d6957000adfe029	904213	4	main	slash	23	rectangle	global	LVF	yes	present	1	883
565955077d6957000adfe029	906214	4	main	slash	24	rectangle	local	RVF	yes	present	1	1018
565955077d6957000adfe029	907989	4	main	slash	25	rectangle	local	LVF	yes	present	1	818
565955077d6957000adfe029	910955	4	main	slash	26	absent	absent	absent	no	absent	1	2000
565955077d6957000adfe029	913939	4	main	slash	27	absent	absent	absent	no	absent	1	2000
565955077d6957000adfe029	915677	4	main	slash	28	rectangle	local	RVF	yes	present	1	563
565955077d6957000adfe029	918699	4	main	slash	29	absent	absent	absent	no	absent	1	2000
565955077d6957000adfe029	920229	4	main	slash	30	rectangle	global	RVF	yes	present	1	555
565955077d6957000adfe029	921829	4	main	slash	31	rectangle	global	LVF	yes	present	1	604
565955077d6957000adfe029	923746	4	main	slash	32	square	local	RVF	yes	present	1	759
565955077d6957000adfe029	925342	4	main	slash	33	rectangle	global	LVF	yes	present	1	581
565955077d6957000adfe029	927061	4	main	slash	34	square	local	LVF	yes	present	1	710
565955077d6957000adfe029	928718	4	main	slash	35	square	local	RVF	yes	present	1	708
565955077d6957000adfe029	931668	4	main	slash	36	absent	absent	absent	no	absent	1	2000
565955077d6957000adfe029	933222	4	main	slash	37	square	local	RVF	yes	present	1	494
565955077d6957000adfe029	936212	4	main	slash	38	absent	absent	absent	no	absent	1	2000
565955077d6957000adfe029	937863	4	main	slash	39	rectangle	local	RVF	yes	present	1	556
565955077d6957000adfe029	940829	4	main	slash	40	square	local	LVF	yes	absent	0	2000
565955077d6957000adfe029	942598	4	main	slash	41	rectangle	local	RVF	yes	present	1	584
565955077d6957000adfe029	944549	4	main	slash	42	rectangle	global	LVF	yes	present	1	1003
565955077d6957000adfe029	946214	4	main	slash	43	rectangle	local	RVF	yes	present	1	708
565955077d6957000adfe029	947582	4	main	slash	44	square	global	LVF	yes	present	1	505
565955077d6957000adfe029	949085	4	main	slash	45	square	local	LVF	yes	present	1	658
565955077d6957000adfe029	950605	4	main	slash	46	square	local	LVF	yes	present	1	757
565955077d6957000adfe029	955213	4	main	slash	47	absent	absent	absent	no	absent	1	2000
565955077d6957000adfe029	957421	4	main	slash	48	square	global	RVF	yes	present	1	797
565955077d6957000adfe029	959327	4	main	slash	49	rectangle	global	RVF	yes	present	1	742
565955077d6957000adfe029	962397	4	main	slash	50	absent	absent	absent	no	absent	1	2000
565955077d6957000adfe029	965908	4	main	slash	51	absent	absent	absent	no	absent	1	2000
565955077d6957000adfe029	967471	4	main	slash	52	rectangle	global	LVF	yes	present	1	517
565955077d6957000adfe029	970506	4	main	slash	53	absent	absent	absent	no	absent	1	2000
565955077d6957000adfe029	973554	4	main	slash	54	absent	absent	absent	no	absent	1	2000
565955077d6957000adfe029	975414	4	main	slash	55	square	global	LVF	yes	present	1	676
565955077d6957000adfe029	978347	4	main	slash	56	absent	absent	absent	no	absent	1	2000
565955077d6957000adfe029	980509	4	main	slash	57	rectangle	local	RVF	yes	present	1	962
565955077d6957000adfe029	982261	4	main	slash	58	rectangle	local	LVF	yes	present	1	681
565955077d6957000adfe029	983693	4	main	slash	59	rectangle	local	LVF	yes	present	1	428
565955077d6957000adfe029	985173	4	main	slash	60	square	local	LVF	yes	present	1	526
565955077d6957000adfe029	986977	4	main	slash	61	square	local	RVF	yes	present	1	818
565955077d6957000adfe029	988478	4	main	slash	62	square	local	RVF	yes	present	1	636
565955077d6957000adfe029	990053	4	main	slash	63	rectangle	local	RVF	yes	present	1	652
565955077d6957000adfe029	991693	4	main	slash	64	rectangle	local	LVF	yes	present	1	672
565955077d6957000adfe029	994574	4	main	slash	65	square	global	LVF	yes	absent	0	2000
565955077d6957000adfe029	997094	4	main	slash	66	square	global	RVF	yes	present	1	1088
565955077d6957000adfe029	1000747	4	main	slash	67	absent	absent	absent	no	absent	1	2000
565955077d6957000adfe029	1002325	4	main	slash	68	rectangle	global	RVF	yes	present	1	498
565955077d6957000adfe029	1003701	4	main	slash	69	rectangle	global	RVF	yes	present	1	474
565955077d6957000adfe029	1005581	4	main	slash	70	rectangle	global	LVF	yes	present	1	937
565955077d6957000adfe029	1007055	4	main	slash	71	square	global	RVF	yes	present	1	597
565955077d6957000adfe029	1009946	4	main	slash	72	square	local	RVF	yes	absent	0	2000
565955077d6957000adfe029	1013300	4	main	slash	73	square	local	RVF	yes	absent	0	2000
565955077d6957000adfe029	1014910	4	main	slash	74	rectangle	global	RVF	yes	present	1	388
565955077d6957000adfe029	1017086	4	main	slash	75	square	local	LVF	yes	present	1	1240
565955077d6957000adfe029	1018645	4	main	slash	76	rectangle	global	LVF	yes	present	1	664
565955077d6957000adfe029	1020293	4	main	slash	77	square	global	LVF	yes	present	1	818
565955077d6957000adfe029	1023099	4	main	slash	78	absent	absent	absent	no	absent	1	2000
565955077d6957000adfe029	1024766	4	main	slash	79	rectangle	local	LVF	yes	present	1	735
565955077d6957000adfe029	1026574	4	main	slash	80	square	global	RVF	yes	present	1	891
