subject	time_elapsed_ms	blocknum	block_type	block_response	trialnum	target	level	field	target_present	response	correct	rt
5b2aac848580750001aa0b64	208106	1	practice	z	1	square	global	RVF	yes	absent	0	2000
5b2aac848580750001aa0b64	213874	1	practice	z	2	absent	absent	absent	no	present	0	1032
5b2aac848580750001aa0b64	217779	1	practice	z	3	rectangle	global	RVF	yes	present	1	1519
5b2aac848580750001aa0b64	222037	1	practice	z	4	rectangle	local	RVF	yes	present	1	901
5b2aac848580750001aa0b64	225366	1	practice	z	5	rectangle	local	RVF	yes	present	1	804
5b2aac848580750001aa0b64	229511	1	practice	z	6	absent	absent	absent	no	absent	1	2000
5b2aac848580750001aa0b64	232635	1	practice	z	7	square	global	LVF	yes	present	1	942
5b2aac848580750001aa0b64	237477	1	practice	z	8	absent	absent	absent	no	absent	1	2000
5b2aac848580750001aa0b64	240987	1	practice	z	9	square	local	LVF	yes	present	1	711
5b2aac848580750001aa0b64	245071	1	practice	z	10	rectangle	global	LVF	yes	present	1	959
5b2aac848580750001aa0b64	248471	1	practice	z	11	rectangle	local	RVF	yes	present	1	859
5b2aac848580750001aa0b64	251594	1	practice	z	12	square	global	LVF	yes	present	1	796
5b2aac848580750001aa0b64	255173	1	practice	z	13	absent	absent	absent	no	present	0	1472
5b2aac848580750001aa0b64	258071	1	practice	z	14	square	local	LVF	yes	present	1	793
5b2aac848580750001aa0b64	260923	1	practice	z	15	rectangle	global	LVF	yes	present	1	781
5b2aac848580750001aa0b64	264593	1	practice	z	16	rectangle	global	RVF	yes	present	1	1580
5b2aac848580750001aa0b64	271378	2	main	z	1	rectangle	global	RVF	yes	present	1	671
5b2aac848580750001aa0b64	274230	2	main	z	2	square	local	RVF	yes	present	1	603
5b2aac848580750001aa0b64	276049	2	main	z	3	rectangle	global	RVF	yes	present	1	483
5b2aac848580750001aa0b64	277622	2	main	z	4	square	global	RVF	yes	present	1	503
5b2aac848580750001aa0b64	279642	2	main	z	5	rectangle	local	LVF	yes	present	1	919
5b2aac848580750001aa0b64	283055	2	main	z	6	absent	absent	absent	no	absent	1	2000
5b2aac848580750001aa0b64	285261	2	main	z	7	square	local	RVF	yes	present	1	885
5b2aac848580750001aa0b64	287250	2	main	z	8	square	global	LVF	yes	present	1	894
5b2aac848580750001aa0b64	289092	2	main	z	9	rectangle	local	RVF	yes	present	1	842
5b2aac848580750001aa0b64	291618	2	main	z	10	absent	absent	absent	no	present	0	1512
5b2aac848580750001aa0b64	294017	2	main	z	11	absent	absent	absent	no	present	0	1279
5b2aac848580750001aa0b64	296619	2	main	z	12	square	global	LVF	yes	present	1	1537
5b2aac848580750001aa0b64	299824	2	main	z	13	absent	absent	absent	no	absent	1	2000
5b2aac848580750001aa0b64	302212	2	main	z	14	square	global	RVF	yes	present	1	1104
5b2aac848580750001aa0b64	304128	2	main	z	15	rectangle	global	RVF	yes	present	1	933
5b2aac848580750001aa0b64	306212	2	main	z	16	absent	absent	absent	no	present	0	1038
5b2aac848580750001aa0b64	308314	2	main	z	17	square	local	LVF	yes	present	1	1025
5b2aac848580750001aa0b64	310243	2	main	z	18	rectangle	local	RVF	yes	present	1	887
5b2aac848580750001aa0b64	312832	2	main	z	19	absent	absent	absent	no	present	0	1579
5b2aac848580750001aa0b64	314786	2	main	z	20	square	global	RVF	yes	present	1	947
5b2aac848580750001aa0b64	316720	2	main	z	21	square	global	RVF	yes	present	1	917
5b2aac848580750001aa0b64	319416	2	main	z	22	square	local	LVF	yes	present	1	1697
5b2aac848580750001aa0b64	321402	2	main	z	23	rectangle	local	LVF	yes	present	1	947
5b2aac848580750001aa0b64	323397	2	main	z	24	square	local	RVF	yes	present	1	1056
5b2aac848580750001aa0b64	325374	2	main	z	25	rectangle	global	LVF	yes	present	1	1015
5b2aac848580750001aa0b64	327258	2	main	z	26	rectangle	local	RVF	yes	present	1	1003
5b2aac848580750001aa0b64	329167	2	main	z	27	rectangle	global	LVF	yes	present	1	964
5b2aac848580750001aa0b64	330916	2	main	z	28	square	global	LVF	yes	present	1	868
5b2aac848580750001aa0b64	332874	2	main	z	29	square	local	LVF	yes	present	1	1053
5b2aac848580750001aa0b64	334700	2	main	z	30	rectangle	global	LVF	yes	present	1	877
5b2aac848580750001aa0b64	336586	2	main	z	31	rectangle	global	RVF	yes	present	1	924
5b2aac848580750001aa0b64	338378	2	main	z	32	square	local	RVF	yes	present	1	874
5b2aac848580750001aa0b64	340183	2	main	z	33	rectangle	local	LVF	yes	present	1	857
5b2aac848580750001aa0b64	343092	2	main	z	34	absent	absent	absent	no	absent	1	2000
5b2aac848580750001aa0b64	345066	2	main	z	35	square	local	LVF	yes	present	1	812
5b2aac848580750001aa0b64	346836	2	main	z	36	rectangle	local	RVF	yes	present	1	880
5b2aac848580750001aa0b64	348663	2	main	z	37	square	global	LVF	yes	present	1	904
5b2aac848580750001aa0b64	350485	2	main	z	38	rectangle	local	LVF	yes	present	1	903
5b2aac848580750001aa0b64	352329	2	main	z	39	rectangle	global	LVF	yes	present	1	935
5b2aac848580750001aa0b64	355227	2	main	z	40	absent	absent	absent	no	absent	1	2000
5b2aac848580750001aa0b64	357201	2	main	z	41	square	local	LVF	yes	present	1	832
5b2aac848580750001aa0b64	359043	2	main	z	42	rectangle	local	LVF	yes	present	1	905
5b2aac848580750001aa0b64	360952	2	main	z	43	rectangle	global	RVF	yes	present	1	951
5b2aac848580750001aa0b64	363921	2	main	z	44	absent	absent	absent	no	absent	1	2000
5b2aac848580750001aa0b64	366338	2	main	z	45	absent	absent	absent	no	present	0	1335
5b2aac848580750001aa0b64	369282	2	main	z	46	absent	absent	absent	no	absent	1	2000
5b2aac848580750001aa0b64	371298	2	main	z	47	square	local	RVF	yes	present	1	795
5b2aac848580750001aa0b64	373678	2	main	z	48	rectangle	local	RVF	yes	present	1	1513
5b2aac848580750001aa0b64	375618	2	main	z	49	rectangle	local	LVF	yes	present	1	1082
5b2aac848580750001aa0b64	378298	2	main	z	50	square	global	RVF	yes	present	1	1579
5b2aac848580750001aa0b64	380080	2	main	z	51	square	global	RVF	yes	present	1	854
5b2aac848580750001aa0b64	381725	2	main	z	52	rectangle	global	LVF	yes	present	1	769
5b2aac848580750001aa0b64	383414	2	main	z	53	rectangle	local	RVF	yes	present	1	841
5b2aac848580750001aa0b64	384948	2	main	z	54	square	global	LVF	yes	present	1	676
5b2aac848580750001aa0b64	386498	2	main	z	55	rectangle	global	RVF	yes	present	1	671
5b2aac848580750001aa0b64	389384	2	main	z	56	rectangle	local	RVF	yes	absent	0	2000
5b2aac848580750001aa0b64	391025	2	main	z	57	rectangle	global	LVF	yes	present	1	574
5b2aac848580750001aa0b64	392624	2	main	z	58	square	local	RVF	yes	present	1	758
5b2aac848580750001aa0b64	394146	2	main	z	59	rectangle	local	LVF	yes	present	1	677
5b2aac848580750001aa0b64	395759	2	main	z	60	rectangle	global	LVF	yes	present	1	727
5b2aac848580750001aa0b64	397530	2	main	z	61	rectangle	global	RVF	yes	present	1	594
5b2aac848580750001aa0b64	399012	2	main	z	62	square	global	RVF	yes	present	1	591
5b2aac848580750001aa0b64	400409	2	main	z	63	square	global	LVF	yes	present	1	533
5b2aac848580750001aa0b64	402508	2	main	z	64	rectangle	local	LVF	yes	present	1	1254
5b2aac848580750001aa0b64	405378	2	main	z	65	absent	absent	absent	no	absent	1	2000
5b2aac848580750001aa0b64	406996	2	main	z	66	square	global	RVF	yes	present	1	584
5b2aac848580750001aa0b64	409851	2	main	z	67	absent	absent	absent	no	absent	1	2000
5b2aac848580750001aa0b64	411545	2	main	z	68	rectangle	local	RVF	yes	present	1	628
5b2aac848580750001aa0b64	413014	2	main	z	69	square	local	RVF	yes	present	1	634
5b2aac848580750001aa0b64	414350	2	main	z	70	rectangle	global	RVF	yes	present	1	503
5b2aac848580750001aa0b64	417080	2	main	z	71	absent	absent	absent	no	present	0	1888
5b2aac848580750001aa0b64	418532	2	main	z	72	square	local	LVF	yes	present	1	620
5b2aac848580750001aa0b64	420114	2	main	z	73	square	local	LVF	yes	present	1	763
5b2aac848580750001aa0b64	422984	2	main	z	74	absent	absent	absent	no	absent	1	2000
5b2aac848580750001aa0b64	424677	2	main	z	75	square	global	LVF	yes	present	1	623
5b2aac848580750001aa0b64	426305	2	main	z	76	absent	absent	absent	no	present	0	787
5b2aac848580750001aa0b64	428274	2	main	z	77	square	local	LVF	yes	present	1	1140
5b2aac848580750001aa0b64	430449	2	main	z	78	square	global	LVF	yes	present	1	1316
5b2aac848580750001aa0b64	431887	2	main	z	79	rectangle	global	LVF	yes	present	1	640
5b2aac848580750001aa0b64	434052	2	main	z	80	square	local	RVF	yes	present	1	1316
5b2aac848580750001aa0b64	466612	3	practice	slash	1	rectangle	global	RVF	yes	present	1	594
5b2aac848580750001aa0b64	469363	3	practice	slash	2	square	global	LVF	yes	present	1	546
5b2aac848580750001aa0b64	472039	3	practice	slash	3	square	global	LVF	yes	present	1	552
5b2aac848580750001aa0b64	474651	3	practice	slash	4	rectangle	global	LVF	yes	present	1	543
5b2aac848580750001aa0b64	478701	3	practice	slash	5	absent	absent	absent	no	absent	1	2000
5b2aac848580750001aa0b64	481515	3	practice	slash	6	rectangle	local	RVF	yes	present	1	674
5b2aac848580750001aa0b64	484138	3	practice	slash	7	rectangle	global	RVF	yes	present	1	531
5b2aac848580750001aa0b64	488219	3	practice	slash	8	absent	absent	absent	no	absent	1	2000
5b2aac848580750001aa0b64	490905	3	practice	slash	9	rectangle	global	LVF	yes	present	1	600
5b2aac848580750001aa0b64	494227	3	practice	slash	10	absent	absent	absent	no	present	0	1270
5b2aac848580750001aa0b64	497257	3	practice	slash	11	square	local	LVF	yes	present	1	869
5b2aac848580750001aa0b64	499883	3	practice	slash	12	square	local	LVF	yes	present	1	634
5b2aac848580750001aa0b64	503272	3	practice	slash	13	absent	absent	absent	no	present	0	1318
5b2aac848580750001aa0b64	506356	3	practice	slash	14	rectangle	local	RVF	yes	present	1	998
5b2aac848580750001aa0b64	508899	3	practice	slash	15	square	global	RVF	yes	present	1	483
5b2aac848580750001aa0b64	511388	3	practice	slash	16	rectangle	local	RVF	yes	present	1	530
5b2aac848580750001aa0b64	516650	4	main	slash	1	rectangle	global	LVF	yes	present	1	493
5b2aac848580750001aa0b64	519561	4	main	slash	2	absent	absent	absent	no	present	0	1497
5b2aac848580750001aa0b64	521153	4	main	slash	3	rectangle	global	RVF	yes	present	1	556
5b2aac848580750001aa0b64	522927	4	main	slash	4	rectangle	local	LVF	yes	present	1	657
5b2aac848580750001aa0b64	524615	4	main	slash	5	square	global	LVF	yes	present	1	588
5b2aac848580750001aa0b64	526165	4	main	slash	6	rectangle	global	LVF	yes	present	1	464
5b2aac848580750001aa0b64	529265	4	main	slash	7	absent	absent	absent	no	absent	1	2000
5b2aac848580750001aa0b64	530732	4	main	slash	8	square	global	RVF	yes	present	1	433
5b2aac848580750001aa0b64	532461	4	main	slash	9	square	local	RVF	yes	present	1	743
5b2aac848580750001aa0b64	535484	4	main	slash	10	absent	absent	absent	no	absent	1	2000
5b2aac848580750001aa0b64	537009	4	main	slash	11	square	local	LVF	yes	present	1	563
5b2aac848580750001aa0b64	538661	4	main	slash	12	square	local	LVF	yes	present	1	644
5b2aac848580750001aa0b64	541196	4	main	slash	13	square	global	LVF	yes	present	1	1406
5b2aac848580750001aa0b64	543329	4	main	slash	14	rectangle	global	RVF	yes	present	1	1116
5b2aac848580750001aa0b64	545592	4	main	slash	15	square	local	RVF	yes	present	1	1206
5b2aac848580750001aa0b64	548581	4	main	slash	16	rectangle	local	RVF	yes	absent	0	2000
5b2aac848580750001aa0b64	551654	4	main	slash	17	absent	absent	absent	no	absent	1	2000
5b2aac848580750001aa0b64	553298	4	main	slash	18	rectangle	local	RVF	yes	present	1	617
5b2aac848580750001aa0b64	555030	4	main	slash	19	rectangle	local	LVF	yes	present	1	663
5b2aac848580750001aa0b64	557414	4	main	slash	20	rectangle	local	RVF	yes	present	1	1372
5b2aac848580750001aa0b64	559124	4	main	slash	21	square	local	LVF	yes	present	1	751
5b2aac848580750001aa0b64	560703	4	main	slash	22	square	local	RVF	yes	present	1	561
5b2aac848580750001aa0b64	562741	4	main	slash	23	rectangle	global	RVF	yes	present	1	1024
5b2aac848580750001aa0b64	565709	4	main	slash	24	absent	absent	absent	no	absent	1	2000
5b2aac848580750001aa0b64	567525	4	main	slash	25	square	global	RVF	yes	present	1	735
5b2aac848580750001aa0b64	569297	4	main	slash	26	square	local	LVF	yes	present	1	811
5b2aac848580750001aa0b64	570881	4	main	slash	27	square	global	RVF	yes	present	1	612
5b2aac848580750001aa0b64	572930	4	main	slash	28	rectangle	local	LVF	yes	present	1	1059
5b2aac848580750001aa0b64	574400	4	main	slash	29	square	local	RVF	yes	present	1	540
5b2aac848580750001aa0b64	576012	4	main	slash	30	rectangle	global	RVF	yes	present	1	639
5b2aac848580750001aa0b64	577636	4	main	slash	31	square	global	RVF	yes	present	1	521
5b2aac848580750001aa0b64	580730	4	main	slash	32	absent	absent	absent	no	absent	1	2000
5b2aac848580750001aa0b64	583190	4	main	slash	33	rectangle	local	RVF	yes	present	1	1165
5b2aac848580750001aa0b64	584598	4	main	slash	34	square	global	LVF	yes	present	1	541
5b2aac848580750001aa0b64	586082	4	main	slash	35	rectangle	global	LVF	yes	present	1	506
5b2aac848580750001aa0b64	587822	4	main	slash	36	absent	absent	absent	no	present	0	839
5b2aac848580750001aa0b64	589422	4	main	slash	37	rectangle	global	LVF	yes	present	1	697
5b2aac848580750001aa0b64	590894	4	main	slash	38	square	global	LVF	yes	present	1	514
5b2aac848580750001aa0b64	593763	4	main	slash	39	absent	absent	absent	no	absent	1	2000
5b2aac848580750001aa0b64	595710	4	main	slash	40	rectangle	local	LVF	yes	present	1	861
5b2aac848580750001aa0b64	597254	4	main	slash	41	rectangle	global	RVF	yes	present	1	613
5b2aac848580750001aa0b64	599453	4	main	slash	42	square	local	LVF	yes	present	1	1247
5b2aac848580750001aa0b64	600851	4	main	slash	43	rectangle	global	LVF	yes	present	1	553
5b2aac848580750001aa0b64	602245	4	main	slash	44	square	global	LVF	yes	present	1	522
5b2aac848580750001aa0b64	605068	4	main	slash	45	absent	absent	absent	no	absent	1	2000
5b2aac848580750001aa0b64	606729	4	main	slash	46	square	local	RVF	yes	present	1	536
5b2aac848580750001aa0b64	609640	4	main	slash	47	square	global	RVF	yes	absent	0	2000
5b2aac848580750001aa0b64	611601	4	main	slash	48	rectangle	local	RVF	yes	present	1	923
5b2aac848580750001aa0b64	614271	4	main	slash	49	rectangle	global	RVF	yes	present	1	1846
5b2aac848580750001aa0b64	615989	4	main	slash	50	square	local	LVF	yes	present	1	908
5b2aac848580750001aa0b64	617317	4	main	slash	51	rectangle	global	LVF	yes	present	1	519
5b2aac848580750001aa0b64	618814	4	main	slash	52	rectangle	local	RVF	yes	present	1	665
5b2aac848580750001aa0b64	620504	4	main	slash	53	square	local	LVF	yes	present	1	786
5b2aac848580750001aa0b64	622005	4	main	slash	54	rectangle	local	RVF	yes	present	1	532
5b2aac848580750001aa0b64	623725	4	main	slash	55	rectangle	local	LVF	yes	present	1	861
5b2aac848580750001aa0b64	625649	4	main	slash	56	square	global	RVF	yes	present	1	1039
5b2aac848580750001aa0b64	627348	4	main	slash	57	absent	absent	absent	no	present	0	827
5b2aac848580750001aa0b64	630402	4	main	slash	58	absent	absent	absent	no	present	0	1957
5b2aac848580750001aa0b64	631810	4	main	slash	59	square	local	RVF	yes	present	1	684
5b2aac848580750001aa0b64	633262	4	main	slash	60	square	local	LVF	yes	present	1	639
5b2aac848580750001aa0b64	634749	4	main	slash	61	rectangle	local	LVF	yes	present	1	644
5b2aac848580750001aa0b64	636545	4	main	slash	62	absent	absent	absent	no	present	0	1035
5b2aac848580750001aa0b64	637929	4	main	slash	63	square	global	RVF	yes	present	1	594
5b2aac848580750001aa0b64	639239	4	main	slash	64	rectangle	global	LVF	yes	present	1	482
5b2aac848580750001aa0b64	641069	4	main	slash	65	square	local	RVF	yes	present	1	1005
5b2aac848580750001aa0b64	642494	4	main	slash	66	rectangle	local	LVF	yes	present	1	605
5b2aac848580750001aa0b64	644231	4	main	slash	67	rectangle	global	LVF	yes	present	1	825
5b2aac848580750001aa0b64	646529	4	main	slash	68	absent	absent	absent	no	present	0	1470
5b2aac848580750001aa0b64	647864	4	main	slash	69	square	global	LVF	yes	present	1	556
5b2aac848580750001aa0b64	649262	4	main	slash	70	square	global	LVF	yes	present	1	605
5b2aac848580750001aa0b64	651004	4	main	slash	71	rectangle	local	RVF	yes	present	1	934
5b2aac848580750001aa0b64	653252	4	main	slash	72	square	global	RVF	yes	present	1	1456
5b2aac848580750001aa0b64	654485	4	main	slash	73	rectangle	global	RVF	yes	present	1	470
5b2aac848580750001aa0b64	655808	4	main	slash	74	rectangle	global	RVF	yes	present	1	508
5b2aac848580750001aa0b64	657225	4	main	slash	75	rectangle	local	LVF	yes	present	1	608
5b2aac848580750001aa0b64	658801	4	main	slash	76	square	global	LVF	yes	present	1	775
5b2aac848580750001aa0b64	660969	4	main	slash	77	absent	absent	absent	no	present	0	693
5b2aac848580750001aa0b64	663052	4	main	slash	78	absent	absent	absent	no	present	0	1049
5b2aac848580750001aa0b64	665838	4	main	slash	79	absent	absent	absent	no	absent	1	2000
5b2aac848580750001aa0b64	667541	4	main	slash	80	square	local	RVF	yes	present	1	514
