subject	time_elapsed_ms	blocknum	block_type	block_response	trialnum	target	level	field	target_present	response	correct	rt
5b6515e83662a8000158b2aa	161303	1	practice	z	1	rectangle	local	RVF	yes	absent	0	2000
5b6515e83662a8000158b2aa	171286	1	practice	z	2	rectangle	local	RVF	yes	present	1	1101
5b6515e83662a8000158b2aa	177206	1	practice	z	3	square	local	LVF	yes	present	1	755
5b6515e83662a8000158b2aa	181242	1	practice	z	4	square	global	LVF	yes	present	1	773
5b6515e83662a8000158b2aa	184826	1	practice	z	5	square	global	RVF	yes	present	1	624
5b6515e83662a8000158b2aa	187919	1	practice	z	6	absent	absent	absent	no	present	0	683
5b6515e83662a8000158b2aa	192418	1	practice	z	7	absent	absent	absent	no	present	0	717
5b6515e83662a8000158b2aa	196292	1	practice	z	8	rectangle	global	RVF	yes	present	1	558
5b6515e83662a8000158b2aa	199610	1	practice	z	9	square	global	LVF	yes	present	1	543
5b6515e83662a8000158b2aa	203902	1	practice	z	10	square	local	LVF	yes	absent	0	2000
5b6515e83662a8000158b2aa	211277	1	practice	z	11	rectangle	local	RVF	yes	present	1	910
5b6515e83662a8000158b2aa	217685	1	practice	z	12	rectangle	global	RVF	yes	absent	0	2000
5b6515e83662a8000158b2aa	220985	1	practice	z	13	absent	absent	absent	no	present	0	319
5b6515e83662a8000158b2aa	224594	1	practice	z	14	rectangle	global	LVF	yes	present	1	511
5b6515e83662a8000158b2aa	227459	1	practice	z	15	rectangle	global	LVF	yes	present	1	541
5b6515e83662a8000158b2aa	230595	1	practice	z	16	absent	absent	absent	no	present	0	1011
5b6515e83662a8000158b2aa	241116	2	main	z	1	absent	absent	absent	no	absent	1	2000
5b6515e83662a8000158b2aa	244954	2	main	z	2	rectangle	local	RVF	yes	present	1	522
5b6515e83662a8000158b2aa	247596	2	main	z	3	rectangle	local	LVF	yes	present	1	814
5b6515e83662a8000158b2aa	249872	2	main	z	4	square	global	RVF	yes	present	1	707
5b6515e83662a8000158b2aa	253334	2	main	z	5	absent	absent	absent	no	absent	1	2000
5b6515e83662a8000158b2aa	256040	2	main	z	6	square	local	LVF	yes	present	1	557
5b6515e83662a8000158b2aa	257988	2	main	z	7	rectangle	global	RVF	yes	present	1	406
5b6515e83662a8000158b2aa	260122	2	main	z	8	square	local	RVF	yes	present	1	574
5b6515e83662a8000158b2aa	261997	2	main	z	9	square	local	RVF	yes	present	1	482
5b6515e83662a8000158b2aa	263942	2	main	z	10	rectangle	local	LVF	yes	present	1	561
5b6515e83662a8000158b2aa	266001	2	main	z	11	rectangle	local	RVF	yes	present	1	620
5b6515e83662a8000158b2aa	269599	2	main	z	12	rectangle	global	LVF	yes	absent	0	2000
5b6515e83662a8000158b2aa	273132	2	main	z	13	absent	absent	absent	no	absent	1	2000
5b6515e83662a8000158b2aa	275122	2	main	z	14	absent	absent	absent	no	present	0	724
5b6515e83662a8000158b2aa	277046	2	main	z	15	square	local	RVF	yes	present	1	532
5b6515e83662a8000158b2aa	279060	2	main	z	16	rectangle	global	RVF	yes	present	1	596
5b6515e83662a8000158b2aa	282399	2	main	z	17	absent	absent	absent	no	absent	1	2000
5b6515e83662a8000158b2aa	284333	2	main	z	18	rectangle	local	RVF	yes	present	1	518
5b6515e83662a8000158b2aa	287782	2	main	z	19	absent	absent	absent	no	absent	1	2000
5b6515e83662a8000158b2aa	289756	2	main	z	20	rectangle	global	RVF	yes	present	1	373
5b6515e83662a8000158b2aa	291759	2	main	z	21	absent	absent	absent	no	present	0	562
5b6515e83662a8000158b2aa	293697	2	main	z	22	rectangle	local	RVF	yes	present	1	516
5b6515e83662a8000158b2aa	295577	2	main	z	23	rectangle	global	LVF	yes	present	1	513
5b6515e83662a8000158b2aa	297418	2	main	z	24	rectangle	local	LVF	yes	present	1	537
5b6515e83662a8000158b2aa	299304	2	main	z	25	square	global	LVF	yes	present	1	573
5b6515e83662a8000158b2aa	301092	2	main	z	26	square	global	RVF	yes	present	1	428
5b6515e83662a8000158b2aa	302780	2	main	z	27	square	global	LVF	yes	present	1	366
5b6515e83662a8000158b2aa	304468	2	main	z	28	square	global	LVF	yes	present	1	369
5b6515e83662a8000158b2aa	306465	2	main	z	29	square	local	LVF	yes	present	1	717
5b6515e83662a8000158b2aa	308210	2	main	z	30	rectangle	local	LVF	yes	present	1	446
5b6515e83662a8000158b2aa	309934	2	main	z	31	rectangle	global	RVF	yes	present	1	436
5b6515e83662a8000158b2aa	311741	2	main	z	32	rectangle	global	LVF	yes	present	1	410
5b6515e83662a8000158b2aa	315098	2	main	z	33	absent	absent	absent	no	absent	1	2000
5b6515e83662a8000158b2aa	316820	2	main	z	34	square	global	RVF	yes	present	1	340
5b6515e83662a8000158b2aa	318543	2	main	z	35	rectangle	global	LVF	yes	present	1	346
5b6515e83662a8000158b2aa	320459	2	main	z	36	square	local	LVF	yes	present	1	546
5b6515e83662a8000158b2aa	322204	2	main	z	37	square	global	RVF	yes	present	1	424
5b6515e83662a8000158b2aa	324043	2	main	z	38	square	local	RVF	yes	present	1	513
5b6515e83662a8000158b2aa	325811	2	main	z	39	square	global	LVF	yes	present	1	413
5b6515e83662a8000158b2aa	327637	2	main	z	40	square	local	LVF	yes	present	1	488
5b6515e83662a8000158b2aa	329772	2	main	z	41	absent	absent	absent	no	present	0	642
5b6515e83662a8000158b2aa	331536	2	main	z	42	rectangle	local	RVF	yes	present	1	440
5b6515e83662a8000158b2aa	333202	2	main	z	43	rectangle	local	RVF	yes	present	1	389
5b6515e83662a8000158b2aa	336747	2	main	z	44	absent	absent	absent	no	absent	1	2000
5b6515e83662a8000158b2aa	338633	2	main	z	45	square	global	LVF	yes	present	1	353
5b6515e83662a8000158b2aa	340553	2	main	z	46	rectangle	local	LVF	yes	present	1	490
5b6515e83662a8000158b2aa	342387	2	main	z	47	rectangle	global	RVF	yes	present	1	374
5b6515e83662a8000158b2aa	344188	2	main	z	48	square	global	RVF	yes	present	1	359
5b6515e83662a8000158b2aa	346014	2	main	z	49	rectangle	global	LVF	yes	present	1	351
5b6515e83662a8000158b2aa	348081	2	main	z	50	square	local	LVF	yes	present	1	585
5b6515e83662a8000158b2aa	349944	2	main	z	51	square	local	LVF	yes	present	1	465
5b6515e83662a8000158b2aa	351947	2	main	z	52	square	global	RVF	yes	present	1	518
5b6515e83662a8000158b2aa	353659	2	main	z	53	square	global	RVF	yes	present	1	330
5b6515e83662a8000158b2aa	355351	2	main	z	54	rectangle	global	RVF	yes	present	1	337
5b6515e83662a8000158b2aa	357280	2	main	z	55	rectangle	local	LVF	yes	present	1	484
5b6515e83662a8000158b2aa	359259	2	main	z	56	rectangle	local	LVF	yes	present	1	530
5b6515e83662a8000158b2aa	361023	2	main	z	57	square	local	RVF	yes	present	1	378
5b6515e83662a8000158b2aa	362937	2	main	z	58	absent	absent	absent	no	present	0	491
5b6515e83662a8000158b2aa	364738	2	main	z	59	rectangle	global	LVF	yes	present	1	359
5b6515e83662a8000158b2aa	366487	2	main	z	60	rectangle	local	RVF	yes	present	1	341
5b6515e83662a8000158b2aa	368178	2	main	z	61	absent	absent	absent	no	present	0	316
5b6515e83662a8000158b2aa	370194	2	main	z	62	square	global	LVF	yes	present	1	465
5b6515e83662a8000158b2aa	373681	2	main	z	63	absent	absent	absent	no	absent	1	2000
5b6515e83662a8000158b2aa	375481	2	main	z	64	rectangle	global	LVF	yes	present	1	302
5b6515e83662a8000158b2aa	377366	2	main	z	65	absent	absent	absent	no	present	0	487
5b6515e83662a8000158b2aa	379119	2	main	z	66	square	global	LVF	yes	present	1	457
5b6515e83662a8000158b2aa	380817	2	main	z	67	square	local	RVF	yes	present	1	370
5b6515e83662a8000158b2aa	382476	2	main	z	68	rectangle	global	RVF	yes	present	1	347
5b6515e83662a8000158b2aa	384384	2	main	z	69	rectangle	local	LVF	yes	present	1	538
5b6515e83662a8000158b2aa	386177	2	main	z	70	rectangle	local	RVF	yes	present	1	365
5b6515e83662a8000158b2aa	387955	2	main	z	71	rectangle	global	RVF	yes	present	1	371
5b6515e83662a8000158b2aa	391296	2	main	z	72	absent	absent	absent	no	absent	1	2000
5b6515e83662a8000158b2aa	393161	2	main	z	73	square	local	RVF	yes	present	1	333
5b6515e83662a8000158b2aa	394913	2	main	z	74	rectangle	global	LVF	yes	present	1	351
5b6515e83662a8000158b2aa	396643	2	main	z	75	square	global	LVF	yes	present	1	381
5b6515e83662a8000158b2aa	398506	2	main	z	76	square	local	RVF	yes	present	1	395
5b6515e83662a8000158b2aa	400385	2	main	z	77	absent	absent	absent	no	present	0	356
5b6515e83662a8000158b2aa	402558	2	main	z	78	square	local	LVF	yes	present	1	514
5b6515e83662a8000158b2aa	404430	2	main	z	79	square	global	RVF	yes	present	1	419
5b6515e83662a8000158b2aa	406285	2	main	z	80	square	local	LVF	yes	present	1	424
5b6515e83662a8000158b2aa	433114	3	practice	slash	1	absent	absent	absent	no	present	0	352
5b6515e83662a8000158b2aa	436740	3	practice	slash	2	rectangle	local	RVF	yes	present	1	428
5b6515e83662a8000158b2aa	439845	3	practice	slash	3	square	local	LVF	yes	present	1	582
5b6515e83662a8000158b2aa	442478	3	practice	slash	4	rectangle	global	RVF	yes	present	1	416
5b6515e83662a8000158b2aa	445000	3	practice	slash	5	rectangle	global	RVF	yes	present	1	455
5b6515e83662a8000158b2aa	447518	3	practice	slash	6	square	global	RVF	yes	present	1	370
5b6515e83662a8000158b2aa	450165	3	practice	slash	7	rectangle	local	RVF	yes	present	1	520
5b6515e83662a8000158b2aa	452496	3	practice	slash	8	rectangle	global	LVF	yes	present	1	401
5b6515e83662a8000158b2aa	454887	3	practice	slash	9	rectangle	local	RVF	yes	present	1	409
5b6515e83662a8000158b2aa	459062	3	practice	slash	10	absent	absent	absent	no	absent	1	2000
5b6515e83662a8000158b2aa	462354	3	practice	slash	11	absent	absent	absent	no	present	0	527
5b6515e83662a8000158b2aa	464730	3	practice	slash	12	square	local	LVF	yes	present	1	402
5b6515e83662a8000158b2aa	467097	3	practice	slash	13	square	global	LVF	yes	present	1	403
5b6515e83662a8000158b2aa	469451	3	practice	slash	14	square	global	LVF	yes	present	1	356
5b6515e83662a8000158b2aa	471978	3	practice	slash	15	rectangle	global	LVF	yes	present	1	516
5b6515e83662a8000158b2aa	475664	3	practice	slash	16	absent	absent	absent	no	present	0	1753
5b6515e83662a8000158b2aa	481397	4	main	slash	1	square	local	RVF	yes	present	1	388
5b6515e83662a8000158b2aa	483362	4	main	slash	2	rectangle	local	LVF	yes	present	1	553
5b6515e83662a8000158b2aa	485074	4	main	slash	3	rectangle	local	RVF	yes	present	1	364
5b6515e83662a8000158b2aa	486877	4	main	slash	4	rectangle	global	LVF	yes	present	1	384
5b6515e83662a8000158b2aa	490177	4	main	slash	5	absent	absent	absent	no	absent	1	2000
5b6515e83662a8000158b2aa	492122	4	main	slash	6	rectangle	local	LVF	yes	present	1	813
5b6515e83662a8000158b2aa	493831	4	main	slash	7	rectangle	local	RVF	yes	present	1	355
5b6515e83662a8000158b2aa	495528	4	main	slash	8	rectangle	global	LVF	yes	present	1	419
5b6515e83662a8000158b2aa	497069	4	main	slash	9	rectangle	local	RVF	yes	present	1	342
5b6515e83662a8000158b2aa	498801	4	main	slash	10	square	global	RVF	yes	present	1	442
5b6515e83662a8000158b2aa	500374	4	main	slash	11	rectangle	global	RVF	yes	present	1	348
5b6515e83662a8000158b2aa	502128	4	main	slash	12	rectangle	local	RVF	yes	present	1	469
5b6515e83662a8000158b2aa	503689	4	main	slash	13	square	global	LVF	yes	present	1	413
5b6515e83662a8000158b2aa	505274	4	main	slash	14	rectangle	global	RVF	yes	present	1	298
5b6515e83662a8000158b2aa	506880	4	main	slash	15	square	global	LVF	yes	present	1	354
5b6515e83662a8000158b2aa	508480	4	main	slash	16	rectangle	global	LVF	yes	present	1	388
5b6515e83662a8000158b2aa	509995	4	main	slash	17	absent	absent	absent	no	present	0	319
5b6515e83662a8000158b2aa	511660	4	main	slash	18	rectangle	global	RVF	yes	present	1	334
5b6515e83662a8000158b2aa	513505	4	main	slash	19	rectangle	local	LVF	yes	present	1	546
5b6515e83662a8000158b2aa	515095	4	main	slash	20	absent	absent	absent	no	present	0	303
5b6515e83662a8000158b2aa	517753	4	main	slash	21	rectangle	global	RVF	yes	present	1	294
5b6515e83662a8000158b2aa	519467	4	main	slash	22	square	global	RVF	yes	present	1	258
5b6515e83662a8000158b2aa	521100	4	main	slash	23	square	local	RVF	yes	present	1	242
5b6515e83662a8000158b2aa	523066	4	main	slash	24	square	local	LVF	yes	present	1	308
5b6515e83662a8000158b2aa	526157	4	main	slash	25	rectangle	local	LVF	yes	present	1	732
5b6515e83662a8000158b2aa	527810	4	main	slash	26	square	local	RVF	yes	present	1	301
5b6515e83662a8000158b2aa	529695	4	main	slash	27	rectangle	global	LVF	yes	present	1	420
5b6515e83662a8000158b2aa	531422	4	main	slash	28	absent	absent	absent	no	present	0	330
5b6515e83662a8000158b2aa	533339	4	main	slash	29	square	global	LVF	yes	present	1	264
5b6515e83662a8000158b2aa	535065	4	main	slash	30	absent	absent	absent	no	present	0	257
5b6515e83662a8000158b2aa	537103	4	main	slash	31	square	local	LVF	yes	present	1	512
5b6515e83662a8000158b2aa	541962	4	main	slash	32	square	local	RVF	yes	present	1	321
5b6515e83662a8000158b2aa	543803	4	main	slash	33	absent	absent	absent	no	present	0	345
5b6515e83662a8000158b2aa	545552	4	main	slash	34	square	global	RVF	yes	present	1	394
5b6515e83662a8000158b2aa	547330	4	main	slash	35	square	global	RVF	yes	present	1	339
5b6515e83662a8000158b2aa	549315	4	main	slash	36	absent	absent	absent	no	present	0	524
5b6515e83662a8000158b2aa	551094	4	main	slash	37	square	local	LVF	yes	present	1	336
5b6515e83662a8000158b2aa	553037	4	main	slash	38	absent	absent	absent	no	present	0	513
5b6515e83662a8000158b2aa	554770	4	main	slash	39	square	local	LVF	yes	present	1	429
5b6515e83662a8000158b2aa	556552	4	main	slash	40	square	global	LVF	yes	present	1	493
5b6515e83662a8000158b2aa	559842	4	main	slash	41	absent	absent	absent	no	absent	1	2000
5b6515e83662a8000158b2aa	561443	4	main	slash	42	rectangle	local	LVF	yes	present	1	401
5b6515e83662a8000158b2aa	563347	4	main	slash	43	square	local	RVF	yes	present	1	372
5b6515e83662a8000158b2aa	565277	4	main	slash	44	rectangle	global	RVF	yes	present	1	452
5b6515e83662a8000158b2aa	567110	4	main	slash	45	square	local	LVF	yes	present	1	518
5b6515e83662a8000158b2aa	568689	4	main	slash	46	square	global	RVF	yes	present	1	298
5b6515e83662a8000158b2aa	570642	4	main	slash	47	rectangle	global	LVF	yes	present	1	349
5b6515e83662a8000158b2aa	572655	4	main	slash	48	square	local	LVF	yes	present	1	531
5b6515e83662a8000158b2aa	574611	4	main	slash	49	rectangle	global	LVF	yes	present	1	387
5b6515e83662a8000158b2aa	577106	4	main	slash	50	square	local	LVF	yes	present	1	399
5b6515e83662a8000158b2aa	579027	4	main	slash	51	square	global	RVF	yes	present	1	337
5b6515e83662a8000158b2aa	581042	4	main	slash	52	square	global	LVF	yes	present	1	335
5b6515e83662a8000158b2aa	582982	4	main	slash	53	absent	absent	absent	no	present	0	292
5b6515e83662a8000158b2aa	584891	4	main	slash	54	rectangle	global	LVF	yes	present	1	334
5b6515e83662a8000158b2aa	586686	4	main	slash	55	rectangle	global	RVF	yes	present	1	312
5b6515e83662a8000158b2aa	588547	4	main	slash	56	absent	absent	absent	no	present	0	290
5b6515e83662a8000158b2aa	590539	4	main	slash	57	square	local	RVF	yes	present	1	366
5b6515e83662a8000158b2aa	592630	4	main	slash	58	rectangle	local	RVF	yes	present	1	407
5b6515e83662a8000158b2aa	594585	4	main	slash	59	square	global	RVF	yes	present	1	412
5b6515e83662a8000158b2aa	596375	4	main	slash	60	square	global	LVF	yes	present	1	333
5b6515e83662a8000158b2aa	598402	4	main	slash	61	absent	absent	absent	no	present	0	512
5b6515e83662a8000158b2aa	600255	4	main	slash	62	rectangle	local	RVF	yes	present	1	414
5b6515e83662a8000158b2aa	602063	4	main	slash	63	absent	absent	absent	no	present	0	340
5b6515e83662a8000158b2aa	604041	4	main	slash	64	rectangle	global	RVF	yes	present	1	285
5b6515e83662a8000158b2aa	606026	4	main	slash	65	square	local	RVF	yes	present	1	420
5b6515e83662a8000158b2aa	607694	4	main	slash	66	square	local	RVF	yes	present	1	238
5b6515e83662a8000158b2aa	609528	4	main	slash	67	rectangle	local	RVF	yes	present	1	288
5b6515e83662a8000158b2aa	611350	4	main	slash	68	rectangle	global	RVF	yes	present	1	260
5b6515e83662a8000158b2aa	614924	4	main	slash	69	absent	absent	absent	no	absent	1	2000
5b6515e83662a8000158b2aa	616547	4	main	slash	70	rectangle	global	LVF	yes	present	1	408
5b6515e83662a8000158b2aa	618241	4	main	slash	71	square	global	LVF	yes	present	1	301
5b6515e83662a8000158b2aa	620136	4	main	slash	72	rectangle	local	LVF	yes	present	1	447
5b6515e83662a8000158b2aa	621893	4	main	slash	73	rectangle	local	LVF	yes	present	1	320
5b6515e83662a8000158b2aa	624237	4	main	slash	74	absent	absent	absent	no	present	0	798
5b6515e83662a8000158b2aa	625940	4	main	slash	75	rectangle	local	RVF	yes	present	1	351
5b6515e83662a8000158b2aa	627686	4	main	slash	76	square	global	LVF	yes	present	1	297
5b6515e83662a8000158b2aa	629624	4	main	slash	77	rectangle	local	LVF	yes	present	1	450
5b6515e83662a8000158b2aa	631358	4	main	slash	78	absent	absent	absent	no	present	0	285
5b6515e83662a8000158b2aa	633205	4	main	slash	79	square	global	RVF	yes	present	1	266
5b6515e83662a8000158b2aa	635027	4	main	slash	80	square	local	LVF	yes	present	1	288
