subject	time_elapsed_ms	blocknum	block_type	block_response	trialnum	target	level	field	target_present	response	correct	rt
5b8c7161284d9b00019dee13	905112	9.5	practice	slash	1	absent	absent	absent	no	absent	1	2000
5b8c7161284d9b00019dee13	908663	9.5	practice	slash	2	square	global	LVF	yes	present	1	262
5b8c7161284d9b00019dee13	911956	9.5	practice	slash	3	square	global	LVF	yes	present	1	1004
5b8c7161284d9b00019dee13	916473	9.5	practice	slash	4	absent	absent	absent	no	absent	1	2000
5b8c7161284d9b00019dee13	919127	9.5	practice	slash	5	square	global	RVF	yes	present	1	510
5b8c7161284d9b00019dee13	922924	9.5	practice	slash	6	square	local	LVF	yes	present	1	1446
5b8c7161284d9b00019dee13	926312	9.5	practice	slash	7	rectangle	local	RVF	yes	present	1	1012
5b8c7161284d9b00019dee13	929079	9.5	practice	slash	8	rectangle	global	RVF	yes	present	1	441
5b8c7161284d9b00019dee13	932490	9.5	practice	slash	9	square	local	LVF	yes	present	1	933
5b8c7161284d9b00019dee13	935215	9.5	practice	slash	10	rectangle	global	RVF	yes	present	1	590
5b8c7161284d9b00019dee13	937966	9.5	practice	slash	11	rectangle	global	LVF	yes	present	1	454
5b8c7161284d9b00019dee13	944517	9.5	practice	slash	12	absent	absent	absent	no	absent	1	2000
5b8c7161284d9b00019dee13	947408	9.5	practice	slash	13	rectangle	global	LVF	yes	present	1	736
5b8c7161284d9b00019dee13	951525	9.5	practice	slash	14	rectangle	local	RVF	yes	absent	0	2000
5b8c7161284d9b00019dee13	954335	9.5	practice	slash	15	absent	absent	absent	no	present	0	689
5b8c7161284d9b00019dee13	957210	9.5	practice	slash	16	rectangle	local	RVF	yes	present	1	1063
5b8c7161284d9b00019dee13	962966	10.5	main	slash	1	rectangle	local	LVF	yes	present	1	946
5b8c7161284d9b00019dee13	965041	10.5	main	slash	2	square	global	RVF	yes	present	1	602
5b8c7161284d9b00019dee13	968674	10.5	main	slash	3	rectangle	local	RVF	yes	absent	0	2000
5b8c7161284d9b00019dee13	971777	10.5	main	slash	4	absent	absent	absent	no	absent	1	2000
5b8c7161284d9b00019dee13	974780	10.5	main	slash	5	absent	absent	absent	no	absent	1	2000
5b8c7161284d9b00019dee13	976375	10.5	main	slash	6	rectangle	global	LVF	yes	present	1	425
5b8c7161284d9b00019dee13	978180	10.5	main	slash	7	rectangle	global	RVF	yes	present	1	411
5b8c7161284d9b00019dee13	980004	10.5	main	slash	8	square	local	LVF	yes	present	1	500
5b8c7161284d9b00019dee13	981872	10.5	main	slash	9	rectangle	global	LVF	yes	present	1	533
5b8c7161284d9b00019dee13	983656	10.5	main	slash	10	square	local	RVF	yes	present	1	483
5b8c7161284d9b00019dee13	985725	10.5	main	slash	11	absent	absent	absent	no	present	0	900
5b8c7161284d9b00019dee13	988994	10.5	main	slash	12	absent	absent	absent	no	absent	1	2000
5b8c7161284d9b00019dee13	991204	10.5	main	slash	13	square	local	LVF	yes	present	1	957
5b8c7161284d9b00019dee13	993562	10.5	main	slash	14	square	local	RVF	yes	present	1	662
5b8c7161284d9b00019dee13	997069	10.5	main	slash	15	absent	absent	absent	no	absent	1	2000
5b8c7161284d9b00019dee13	999356	10.5	main	slash	16	square	global	LVF	yes	present	1	783
5b8c7161284d9b00019dee13	1001802	10.5	main	slash	17	square	local	RVF	yes	present	1	660
5b8c7161284d9b00019dee13	1003981	10.5	main	slash	18	square	global	RVF	yes	present	1	653
5b8c7161284d9b00019dee13	1006080	10.5	main	slash	19	rectangle	global	RVF	yes	present	1	817
5b8c7161284d9b00019dee13	1007971	10.5	main	slash	20	absent	absent	absent	no	present	0	757
5b8c7161284d9b00019dee13	1010076	10.5	main	slash	21	rectangle	global	RVF	yes	present	1	859
5b8c7161284d9b00019dee13	1012102	10.5	main	slash	22	square	global	RVF	yes	present	1	784
5b8c7161284d9b00019dee13	1015488	10.5	main	slash	23	absent	absent	absent	no	absent	1	2000
5b8c7161284d9b00019dee13	1018557	10.5	main	slash	24	rectangle	local	RVF	yes	absent	0	2000
5b8c7161284d9b00019dee13	1020310	10.5	main	slash	25	square	global	LVF	yes	present	1	466
5b8c7161284d9b00019dee13	1022396	10.5	main	slash	26	square	local	LVF	yes	present	1	734
5b8c7161284d9b00019dee13	1024130	10.5	main	slash	27	rectangle	local	RVF	yes	present	1	615
5b8c7161284d9b00019dee13	1025773	10.5	main	slash	28	square	local	RVF	yes	present	1	458
5b8c7161284d9b00019dee13	1029101	10.5	main	slash	29	rectangle	local	LVF	yes	absent	0	2000
5b8c7161284d9b00019dee13	1030609	10.5	main	slash	30	rectangle	global	LVF	yes	present	1	421
5b8c7161284d9b00019dee13	1032411	10.5	main	slash	31	rectangle	global	LVF	yes	present	1	556
5b8c7161284d9b00019dee13	1034232	10.5	main	slash	32	rectangle	global	RVF	yes	present	1	524
5b8c7161284d9b00019dee13	1036509	10.5	main	slash	33	absent	absent	absent	no	present	0	1167
5b8c7161284d9b00019dee13	1039695	10.5	main	slash	34	rectangle	local	RVF	yes	absent	0	2000
5b8c7161284d9b00019dee13	1041759	10.5	main	slash	35	square	global	LVF	yes	present	1	644
5b8c7161284d9b00019dee13	1047897	10.5	main	slash	36	square	global	RVF	yes	present	1	643
5b8c7161284d9b00019dee13	1050049	10.5	main	slash	37	square	local	LVF	yes	present	1	742
5b8c7161284d9b00019dee13	1051890	10.5	main	slash	38	rectangle	local	LVF	yes	present	1	482
5b8c7161284d9b00019dee13	1053546	10.5	main	slash	39	square	global	LVF	yes	present	1	536
5b8c7161284d9b00019dee13	1056846	10.5	main	slash	40	rectangle	local	LVF	yes	absent	0	2000
5b8c7161284d9b00019dee13	1058702	10.5	main	slash	41	square	local	LVF	yes	present	1	803
5b8c7161284d9b00019dee13	1062051	10.5	main	slash	42	absent	absent	absent	no	absent	1	2000
5b8c7161284d9b00019dee13	1063880	10.5	main	slash	43	rectangle	global	LVF	yes	present	1	692
5b8c7161284d9b00019dee13	1067106	10.5	main	slash	44	rectangle	local	LVF	yes	absent	0	2000
5b8c7161284d9b00019dee13	1069114	10.5	main	slash	45	rectangle	global	RVF	yes	present	1	738
5b8c7161284d9b00019dee13	1071506	10.5	main	slash	46	square	global	LVF	yes	present	1	861
5b8c7161284d9b00019dee13	1074981	10.5	main	slash	47	rectangle	local	RVF	yes	absent	0	2000
5b8c7161284d9b00019dee13	1078175	10.5	main	slash	48	rectangle	local	LVF	yes	present	1	674
5b8c7161284d9b00019dee13	1081260	10.5	main	slash	49	rectangle	global	RVF	yes	present	1	422
5b8c7161284d9b00019dee13	1083340	10.5	main	slash	50	absent	absent	absent	no	present	0	816
5b8c7161284d9b00019dee13	1085125	10.5	main	slash	51	rectangle	global	RVF	yes	present	1	504
5b8c7161284d9b00019dee13	1086914	10.5	main	slash	52	square	global	LVF	yes	present	1	570
5b8c7161284d9b00019dee13	1089227	10.5	main	slash	53	square	global	RVF	yes	present	1	748
5b8c7161284d9b00019dee13	1090878	10.5	main	slash	54	square	global	RVF	yes	present	1	481
5b8c7161284d9b00019dee13	1092571	10.5	main	slash	55	rectangle	global	LVF	yes	present	1	572
5b8c7161284d9b00019dee13	1094510	10.5	main	slash	56	square	local	LVF	yes	present	1	875
5b8c7161284d9b00019dee13	1096539	10.5	main	slash	57	rectangle	global	LVF	yes	present	1	802
5b8c7161284d9b00019dee13	1098530	10.5	main	slash	58	square	global	LVF	yes	present	1	875
5b8c7161284d9b00019dee13	1101724	10.5	main	slash	59	square	local	LVF	yes	absent	0	2000
5b8c7161284d9b00019dee13	1105044	10.5	main	slash	60	absent	absent	absent	no	absent	1	2000
5b8c7161284d9b00019dee13	1106794	10.5	main	slash	61	rectangle	local	LVF	yes	present	1	547
5b8c7161284d9b00019dee13	1109114	10.5	main	slash	62	square	local	RVF	yes	present	1	1066
5b8c7161284d9b00019dee13	1112113	10.5	main	slash	63	square	local	RVF	yes	present	1	1679
5b8c7161284d9b00019dee13	1114002	10.5	main	slash	64	square	local	RVF	yes	present	1	864
5b8c7161284d9b00019dee13	1116134	10.5	main	slash	65	rectangle	local	RVF	yes	present	1	944
5b8c7161284d9b00019dee13	1118097	10.5	main	slash	66	rectangle	local	RVF	yes	present	1	789
5b8c7161284d9b00019dee13	1121344	10.5	main	slash	67	absent	absent	absent	no	absent	1	2000
5b8c7161284d9b00019dee13	1123880	10.5	main	slash	68	square	local	LVF	yes	present	1	632
5b8c7161284d9b00019dee13	1125687	10.5	main	slash	69	square	global	RVF	yes	present	1	537
5b8c7161284d9b00019dee13	1128293	10.5	main	slash	70	absent	absent	absent	no	present	0	741
5b8c7161284d9b00019dee13	1130269	10.5	main	slash	71	absent	absent	absent	no	present	0	898
5b8c7161284d9b00019dee13	1133456	10.5	main	slash	72	absent	absent	absent	no	absent	1	2000
5b8c7161284d9b00019dee13	1135296	10.5	main	slash	73	rectangle	global	RVF	yes	present	1	770
5b8c7161284d9b00019dee13	1137162	10.5	main	slash	74	square	global	RVF	yes	present	1	602
5b8c7161284d9b00019dee13	1140429	10.5	main	slash	75	rectangle	local	LVF	yes	absent	0	2000
5b8c7161284d9b00019dee13	1143566	10.5	main	slash	76	absent	absent	absent	no	absent	1	2000
5b8c7161284d9b00019dee13	1144903	10.5	main	slash	77	rectangle	global	LVF	yes	present	1	551
5b8c7161284d9b00019dee13	1147813	10.5	main	slash	78	rectangle	local	RVF	yes	present	1	691
5b8c7161284d9b00019dee13	1149714	10.5	main	slash	79	square	local	RVF	yes	present	1	675
5b8c7161284d9b00019dee13	1151501	10.5	main	slash	80	square	global	LVF	yes	present	1	577
5b8c7161284d9b00019dee13	1244102	11.5	practice	z	1	square	global	LVF	yes	present	1	468
5b8c7161284d9b00019dee13	1246719	11.5	practice	z	2	rectangle	local	RVF	yes	present	1	532
5b8c7161284d9b00019dee13	1249424	11.5	practice	z	3	rectangle	global	LVF	yes	present	1	584
5b8c7161284d9b00019dee13	1253477	11.5	practice	z	4	square	local	LVF	yes	absent	0	2000
5b8c7161284d9b00019dee13	1256012	11.5	practice	z	5	square	global	LVF	yes	present	1	465
5b8c7161284d9b00019dee13	1258819	11.5	practice	z	6	rectangle	global	RVF	yes	present	1	570
5b8c7161284d9b00019dee13	1261360	11.5	practice	z	7	rectangle	local	RVF	yes	present	1	625
5b8c7161284d9b00019dee13	1263786	11.5	practice	z	8	square	global	RVF	yes	present	1	398
5b8c7161284d9b00019dee13	1266734	11.5	practice	z	9	absent	absent	absent	no	present	0	643
5b8c7161284d9b00019dee13	1269798	11.5	practice	z	10	absent	absent	absent	no	present	0	972
5b8c7161284d9b00019dee13	1272400	11.5	practice	z	11	rectangle	global	LVF	yes	present	1	470
5b8c7161284d9b00019dee13	1276500	11.5	practice	z	12	absent	absent	absent	no	absent	1	2000
5b8c7161284d9b00019dee13	1279215	11.5	practice	z	13	absent	absent	absent	no	present	0	545
5b8c7161284d9b00019dee13	1285759	11.5	practice	z	14	square	local	LVF	yes	absent	0	2000
5b8c7161284d9b00019dee13	1288548	11.5	practice	z	15	rectangle	local	RVF	yes	present	1	585
5b8c7161284d9b00019dee13	1291146	11.5	practice	z	16	rectangle	global	RVF	yes	present	1	480
5b8c7161284d9b00019dee13	1296619	12.5	main	z	1	absent	absent	absent	no	present	0	532
5b8c7161284d9b00019dee13	1298510	12.5	main	z	2	rectangle	local	RVF	yes	present	1	672
5b8c7161284d9b00019dee13	1300407	12.5	main	z	3	square	local	RVF	yes	present	1	512
5b8c7161284d9b00019dee13	1301959	12.5	main	z	4	rectangle	local	RVF	yes	present	1	433
5b8c7161284d9b00019dee13	1303650	12.5	main	z	5	rectangle	global	LVF	yes	present	1	489
5b8c7161284d9b00019dee13	1305256	12.5	main	z	6	rectangle	global	LVF	yes	present	1	528
5b8c7161284d9b00019dee13	1308614	12.5	main	z	7	absent	absent	absent	no	absent	1	2000
5b8c7161284d9b00019dee13	1310438	12.5	main	z	8	rectangle	local	RVF	yes	present	1	571
5b8c7161284d9b00019dee13	1313058	12.5	main	z	9	rectangle	local	RVF	yes	present	1	1305
5b8c7161284d9b00019dee13	1316188	12.5	main	z	10	absent	absent	absent	no	absent	1	2000
5b8c7161284d9b00019dee13	1317897	12.5	main	z	11	rectangle	local	LVF	yes	present	1	639
5b8c7161284d9b00019dee13	1319795	12.5	main	z	12	rectangle	local	LVF	yes	present	1	735
5b8c7161284d9b00019dee13	1321944	12.5	main	z	13	square	local	RVF	yes	present	1	915
5b8c7161284d9b00019dee13	1323943	12.5	main	z	14	square	global	RVF	yes	present	1	779
5b8c7161284d9b00019dee13	1327216	12.5	main	z	15	absent	absent	absent	no	absent	1	2000
5b8c7161284d9b00019dee13	1328913	12.5	main	z	16	square	local	LVF	yes	present	1	595
5b8c7161284d9b00019dee13	1330699	12.5	main	z	17	square	global	RVF	yes	present	1	579
5b8c7161284d9b00019dee13	1332364	12.5	main	z	18	rectangle	global	RVF	yes	present	1	608
5b8c7161284d9b00019dee13	1334133	12.5	main	z	19	square	global	LVF	yes	present	1	676
5b8c7161284d9b00019dee13	1335940	12.5	main	z	20	rectangle	local	LVF	yes	present	1	714
5b8c7161284d9b00019dee13	1337881	12.5	main	z	21	rectangle	local	LVF	yes	present	1	1270
5b8c7161284d9b00019dee13	1339573	12.5	main	z	22	square	global	LVF	yes	present	1	544
5b8c7161284d9b00019dee13	1341877	12.5	main	z	23	absent	absent	absent	no	present	0	429
5b8c7161284d9b00019dee13	1343721	12.5	main	z	24	square	global	RVF	yes	present	1	538
5b8c7161284d9b00019dee13	1345566	12.5	main	z	25	square	local	LVF	yes	present	1	480
5b8c7161284d9b00019dee13	1347304	12.5	main	z	26	absent	absent	absent	no	present	0	666
5b8c7161284d9b00019dee13	1349132	12.5	main	z	27	rectangle	global	RVF	yes	present	1	709
5b8c7161284d9b00019dee13	1350783	12.5	main	z	28	square	global	LVF	yes	present	1	542
5b8c7161284d9b00019dee13	1353252	12.5	main	z	29	square	global	LVF	yes	present	1	575
5b8c7161284d9b00019dee13	1354924	12.5	main	z	30	rectangle	global	LVF	yes	present	1	529
5b8c7161284d9b00019dee13	1356615	12.5	main	z	31	rectangle	global	RVF	yes	present	1	601
5b8c7161284d9b00019dee13	1358328	12.5	main	z	32	rectangle	global	LVF	yes	present	1	664
5b8c7161284d9b00019dee13	1360094	12.5	main	z	33	square	local	LVF	yes	present	1	761
5b8c7161284d9b00019dee13	1361744	12.5	main	z	34	square	local	LVF	yes	present	1	642
5b8c7161284d9b00019dee13	1362977	12.5	main	z	35	absent	absent	absent	no	present	0	323
5b8c7161284d9b00019dee13	1365955	12.5	main	z	36	square	local	RVF	yes	absent	0	2000
5b8c7161284d9b00019dee13	1369058	12.5	main	z	37	absent	absent	absent	no	absent	1	2000
5b8c7161284d9b00019dee13	1373548	12.5	main	z	38	square	local	RVF	yes	present	1	1403
5b8c7161284d9b00019dee13	1375106	12.5	main	z	39	rectangle	global	RVF	yes	present	1	458
5b8c7161284d9b00019dee13	1376785	12.5	main	z	40	square	global	RVF	yes	present	1	418
5b8c7161284d9b00019dee13	1380002	12.5	main	z	41	square	local	LVF	yes	absent	0	2000
5b8c7161284d9b00019dee13	1383039	12.5	main	z	42	rectangle	local	LVF	yes	absent	0	2000
5b8c7161284d9b00019dee13	1384989	12.5	main	z	43	rectangle	local	LVF	yes	present	1	680
5b8c7161284d9b00019dee13	1386871	12.5	main	z	44	rectangle	global	LVF	yes	present	1	611
5b8c7161284d9b00019dee13	1390079	12.5	main	z	45	absent	absent	absent	no	absent	1	2000
5b8c7161284d9b00019dee13	1391600	12.5	main	z	46	rectangle	global	RVF	yes	present	1	468
5b8c7161284d9b00019dee13	1394146	12.5	main	z	47	square	local	RVF	yes	present	1	1330
5b8c7161284d9b00019dee13	1396297	12.5	main	z	48	rectangle	global	RVF	yes	present	1	660
5b8c7161284d9b00019dee13	1399588	12.5	main	z	49	rectangle	global	LVF	yes	absent	0	2000
5b8c7161284d9b00019dee13	1402092	12.5	main	z	50	rectangle	local	RVF	yes	present	1	1334
5b8c7161284d9b00019dee13	1404588	12.5	main	z	51	rectangle	global	LVF	yes	present	1	577
5b8c7161284d9b00019dee13	1406546	12.5	main	z	52	square	global	LVF	yes	present	1	716
5b8c7161284d9b00019dee13	1410075	12.5	main	z	53	square	global	RVF	yes	present	1	759
5b8c7161284d9b00019dee13	1415871	12.5	main	z	54	absent	absent	absent	no	absent	1	2000
5b8c7161284d9b00019dee13	1419158	12.5	main	z	55	rectangle	local	LVF	yes	absent	0	2000
5b8c7161284d9b00019dee13	1420935	12.5	main	z	56	square	local	RVF	yes	present	1	558
5b8c7161284d9b00019dee13	1422746	12.5	main	z	57	square	global	LVF	yes	present	1	466
5b8c7161284d9b00019dee13	1424791	12.5	main	z	58	rectangle	local	RVF	yes	present	1	659
5b8c7161284d9b00019dee13	1426420	12.5	main	z	59	rectangle	global	RVF	yes	present	1	520
5b8c7161284d9b00019dee13	1428182	12.5	main	z	60	square	global	RVF	yes	present	1	447
5b8c7161284d9b00019dee13	1430100	12.5	main	z	61	square	local	RVF	yes	present	1	597
5b8c7161284d9b00019dee13	1433923	12.5	main	z	62	absent	absent	absent	no	absent	1	2000
5b8c7161284d9b00019dee13	1435922	12.5	main	z	63	square	global	LVF	yes	present	1	447
5b8c7161284d9b00019dee13	1437834	12.5	main	z	64	square	local	LVF	yes	present	1	557
5b8c7161284d9b00019dee13	1439620	12.5	main	z	65	rectangle	local	LVF	yes	present	1	641
5b8c7161284d9b00019dee13	1441255	12.5	main	z	66	absent	absent	absent	no	present	0	623
5b8c7161284d9b00019dee13	1443342	12.5	main	z	67	rectangle	local	RVF	yes	present	1	892
5b8c7161284d9b00019dee13	1445180	12.5	main	z	68	absent	absent	absent	no	present	0	729
5b8c7161284d9b00019dee13	1448302	12.5	main	z	69	rectangle	global	LVF	yes	present	1	1715
5b8c7161284d9b00019dee13	1450639	12.5	main	z	70	square	global	RVF	yes	present	1	531
5b8c7161284d9b00019dee13	1452267	12.5	main	z	71	square	global	LVF	yes	present	1	475
5b8c7161284d9b00019dee13	1454145	12.5	main	z	72	absent	absent	absent	no	present	0	684
5b8c7161284d9b00019dee13	1457479	12.5	main	z	73	rectangle	local	RVF	yes	absent	0	2000
5b8c7161284d9b00019dee13	1459607	12.5	main	z	74	square	global	RVF	yes	present	1	458
5b8c7161284d9b00019dee13	1461535	12.5	main	z	75	square	local	LVF	yes	present	1	834
5b8c7161284d9b00019dee13	1464736	12.5	main	z	76	absent	absent	absent	no	absent	1	2000
5b8c7161284d9b00019dee13	1467923	12.5	main	z	77	square	local	RVF	yes	absent	0	2000
5b8c7161284d9b00019dee13	1470481	12.5	main	z	78	square	local	LVF	yes	present	1	1372
5b8c7161284d9b00019dee13	1473846	12.5	main	z	79	absent	absent	absent	no	absent	1	2000
5b8c7161284d9b00019dee13	1475517	12.5	main	z	80	rectangle	global	RVF	yes	present	1	451
