subject	time_elapsed_ms	blocknum	block_type	block_response	trialnum	target	level	field	target_present	response	correct	rt
5d1c92bc5f54410001ef8f0c	530337	9.5	practice	z	1	rectangle	global	RVF	yes	present	1	498
5d1c92bc5f54410001ef8f0c	533406	9.5	practice	z	2	rectangle	local	RVF	yes	present	1	890
5d1c92bc5f54410001ef8f0c	537997	9.5	practice	z	3	absent	absent	absent	no	absent	1	2000
5d1c92bc5f54410001ef8f0c	540828	9.5	practice	z	4	square	global	RVF	yes	present	1	748
5d1c92bc5f54410001ef8f0c	543530	9.5	practice	z	5	square	global	LVF	yes	present	1	596
5d1c92bc5f54410001ef8f0c	546309	9.5	practice	z	6	square	global	LVF	yes	present	1	689
5d1c92bc5f54410001ef8f0c	549109	9.5	practice	z	7	rectangle	global	RVF	yes	present	1	712
5d1c92bc5f54410001ef8f0c	552370	9.5	practice	z	8	square	local	LVF	yes	present	1	1173
5d1c92bc5f54410001ef8f0c	556263	9.5	practice	z	9	rectangle	local	RVF	yes	present	1	800
5d1c92bc5f54410001ef8f0c	560608	9.5	practice	z	10	absent	absent	absent	no	absent	1	2000
5d1c92bc5f54410001ef8f0c	563454	9.5	practice	z	11	square	local	LVF	yes	present	1	781
5d1c92bc5f54410001ef8f0c	567529	9.5	practice	z	12	absent	absent	absent	no	absent	1	2000
5d1c92bc5f54410001ef8f0c	571612	9.5	practice	z	13	absent	absent	absent	no	absent	1	2000
5d1c92bc5f54410001ef8f0c	574403	9.5	practice	z	14	rectangle	global	LVF	yes	present	1	710
5d1c92bc5f54410001ef8f0c	577310	9.5	practice	z	15	rectangle	local	RVF	yes	present	1	854
5d1c92bc5f54410001ef8f0c	579935	9.5	practice	z	16	rectangle	global	LVF	yes	present	1	653
5d1c92bc5f54410001ef8f0c	586295	10.5	main	z	1	square	global	RVF	yes	present	1	737
5d1c92bc5f54410001ef8f0c	588854	10.5	main	z	2	rectangle	local	LVF	yes	present	1	925
5d1c92bc5f54410001ef8f0c	590732	10.5	main	z	3	square	global	RVF	yes	present	1	777
5d1c92bc5f54410001ef8f0c	592405	10.5	main	z	4	square	local	RVF	yes	present	1	772
5d1c92bc5f54410001ef8f0c	593840	10.5	main	z	5	square	local	LVF	yes	present	1	648
5d1c92bc5f54410001ef8f0c	596654	10.5	main	z	6	absent	absent	absent	no	absent	1	2000
5d1c92bc5f54410001ef8f0c	598148	10.5	main	z	7	square	local	LVF	yes	present	1	543
5d1c92bc5f54410001ef8f0c	600060	10.5	main	z	8	rectangle	local	LVF	yes	present	1	1022
5d1c92bc5f54410001ef8f0c	601638	10.5	main	z	9	rectangle	global	LVF	yes	present	1	755
5d1c92bc5f54410001ef8f0c	603231	10.5	main	z	10	square	global	LVF	yes	present	1	741
5d1c92bc5f54410001ef8f0c	604781	10.5	main	z	11	square	global	LVF	yes	present	1	703
5d1c92bc5f54410001ef8f0c	606303	10.5	main	z	12	rectangle	global	RVF	yes	present	1	713
5d1c92bc5f54410001ef8f0c	609140	10.5	main	z	13	absent	absent	absent	no	absent	1	2000
5d1c92bc5f54410001ef8f0c	610820	10.5	main	z	14	square	local	RVF	yes	present	1	709
5d1c92bc5f54410001ef8f0c	613654	10.5	main	z	15	absent	absent	absent	no	absent	1	2000
5d1c92bc5f54410001ef8f0c	615038	10.5	main	z	16	rectangle	global	RVF	yes	present	1	659
5d1c92bc5f54410001ef8f0c	616576	10.5	main	z	17	square	global	RVF	yes	present	1	665
5d1c92bc5f54410001ef8f0c	618135	10.5	main	z	18	rectangle	local	RVF	yes	present	1	753
5d1c92bc5f54410001ef8f0c	619719	10.5	main	z	19	rectangle	local	RVF	yes	present	1	767
5d1c92bc5f54410001ef8f0c	621514	10.5	main	z	20	square	global	LVF	yes	present	1	956
5d1c92bc5f54410001ef8f0c	624296	10.5	main	z	21	absent	absent	absent	no	absent	1	2000
5d1c92bc5f54410001ef8f0c	626060	10.5	main	z	22	rectangle	local	RVF	yes	present	1	607
5d1c92bc5f54410001ef8f0c	627563	10.5	main	z	23	rectangle	global	LVF	yes	present	1	576
5d1c92bc5f54410001ef8f0c	629077	10.5	main	z	24	rectangle	local	LVF	yes	present	1	633
5d1c92bc5f54410001ef8f0c	630604	10.5	main	z	25	rectangle	global	RVF	yes	present	1	669
5d1c92bc5f54410001ef8f0c	632166	10.5	main	z	26	square	local	LVF	yes	present	1	777
5d1c92bc5f54410001ef8f0c	633637	10.5	main	z	27	rectangle	global	RVF	yes	present	1	721
5d1c92bc5f54410001ef8f0c	636389	10.5	main	z	28	absent	absent	absent	no	absent	1	2000
5d1c92bc5f54410001ef8f0c	638060	10.5	main	z	29	rectangle	local	RVF	yes	present	1	599
5d1c92bc5f54410001ef8f0c	639476	10.5	main	z	30	rectangle	local	LVF	yes	present	1	647
5d1c92bc5f54410001ef8f0c	640791	10.5	main	z	31	square	global	LVF	yes	present	1	526
5d1c92bc5f54410001ef8f0c	643547	10.5	main	z	32	absent	absent	absent	no	absent	1	2000
5d1c92bc5f54410001ef8f0c	645119	10.5	main	z	33	square	global	RVF	yes	present	1	555
5d1c92bc5f54410001ef8f0c	646529	10.5	main	z	34	rectangle	global	LVF	yes	present	1	592
5d1c92bc5f54410001ef8f0c	649309	10.5	main	z	35	absent	absent	absent	no	absent	1	2000
5d1c92bc5f54410001ef8f0c	651092	10.5	main	z	36	absent	absent	absent	no	present	0	886
5d1c92bc5f54410001ef8f0c	652715	10.5	main	z	37	rectangle	global	LVF	yes	present	1	749
5d1c92bc5f54410001ef8f0c	654149	10.5	main	z	38	square	local	RVF	yes	present	1	683
5d1c92bc5f54410001ef8f0c	655667	10.5	main	z	39	square	local	RVF	yes	present	1	749
5d1c92bc5f54410001ef8f0c	657142	10.5	main	z	40	square	local	LVF	yes	present	1	719
5d1c92bc5f54410001ef8f0c	658745	10.5	main	z	41	rectangle	global	RVF	yes	present	1	809
5d1c92bc5f54410001ef8f0c	660245	10.5	main	z	42	square	local	LVF	yes	present	1	677
5d1c92bc5f54410001ef8f0c	661899	10.5	main	z	43	rectangle	local	RVF	yes	present	1	837
5d1c92bc5f54410001ef8f0c	663632	10.5	main	z	44	rectangle	global	LVF	yes	present	1	951
5d1c92bc5f54410001ef8f0c	665124	10.5	main	z	45	rectangle	global	LVF	yes	present	1	735
5d1c92bc5f54410001ef8f0c	666714	10.5	main	z	46	square	local	LVF	yes	present	1	786
5d1c92bc5f54410001ef8f0c	669491	10.5	main	z	47	absent	absent	absent	no	absent	1	2000
5d1c92bc5f54410001ef8f0c	671544	10.5	main	z	48	square	local	LVF	yes	present	1	584
5d1c92bc5f54410001ef8f0c	672903	10.5	main	z	49	rectangle	local	LVF	yes	present	1	616
5d1c92bc5f54410001ef8f0c	674260	10.5	main	z	50	rectangle	local	RVF	yes	present	1	603
5d1c92bc5f54410001ef8f0c	675651	10.5	main	z	51	rectangle	global	RVF	yes	present	1	624
5d1c92bc5f54410001ef8f0c	677062	10.5	main	z	52	square	local	RVF	yes	present	1	682
5d1c92bc5f54410001ef8f0c	678589	10.5	main	z	53	rectangle	local	RVF	yes	present	1	746
5d1c92bc5f54410001ef8f0c	681346	10.5	main	z	54	absent	absent	absent	no	absent	1	2000
5d1c92bc5f54410001ef8f0c	684169	10.5	main	z	55	square	global	RVF	yes	present	1	1724
5d1c92bc5f54410001ef8f0c	687304	10.5	main	z	56	absent	absent	absent	no	absent	1	2000
5d1c92bc5f54410001ef8f0c	688731	10.5	main	z	57	rectangle	global	RVF	yes	present	1	424
5d1c92bc5f54410001ef8f0c	690088	10.5	main	z	58	rectangle	global	RVF	yes	present	1	492
5d1c92bc5f54410001ef8f0c	691400	10.5	main	z	59	square	local	RVF	yes	present	1	552
5d1c92bc5f54410001ef8f0c	694170	10.5	main	z	60	absent	absent	absent	no	absent	1	2000
5d1c92bc5f54410001ef8f0c	697838	10.5	main	z	61	absent	absent	absent	no	absent	1	2000
5d1c92bc5f54410001ef8f0c	699254	10.5	main	z	62	rectangle	local	RVF	yes	present	1	429
5d1c92bc5f54410001ef8f0c	702116	10.5	main	z	63	absent	absent	absent	no	absent	1	2000
5d1c92bc5f54410001ef8f0c	703416	10.5	main	z	64	square	global	RVF	yes	present	1	372
5d1c92bc5f54410001ef8f0c	704951	10.5	main	z	65	square	global	LVF	yes	present	1	742
5d1c92bc5f54410001ef8f0c	706291	10.5	main	z	66	square	global	LVF	yes	present	1	568
5d1c92bc5f54410001ef8f0c	707954	10.5	main	z	67	square	global	RVF	yes	present	1	925
5d1c92bc5f54410001ef8f0c	709357	10.5	main	z	68	rectangle	local	LVF	yes	present	1	648
5d1c92bc5f54410001ef8f0c	712123	10.5	main	z	69	absent	absent	absent	no	absent	1	2000
5d1c92bc5f54410001ef8f0c	714166	10.5	main	z	70	square	global	RVF	yes	present	1	604
5d1c92bc5f54410001ef8f0c	715575	10.5	main	z	71	square	global	LVF	yes	present	1	604
5d1c92bc5f54410001ef8f0c	716958	10.5	main	z	72	square	local	LVF	yes	present	1	632
5d1c92bc5f54410001ef8f0c	718293	10.5	main	z	73	square	local	RVF	yes	present	1	553
5d1c92bc5f54410001ef8f0c	719550	10.5	main	z	74	rectangle	local	LVF	yes	present	1	454
5d1c92bc5f54410001ef8f0c	720891	10.5	main	z	75	rectangle	global	LVF	yes	present	1	562
5d1c92bc5f54410001ef8f0c	723669	10.5	main	z	76	absent	absent	absent	no	absent	1	2000
5d1c92bc5f54410001ef8f0c	725673	10.5	main	z	77	square	local	RVF	yes	present	1	457
5d1c92bc5f54410001ef8f0c	726941	10.5	main	z	78	rectangle	global	LVF	yes	present	1	488
5d1c92bc5f54410001ef8f0c	728511	10.5	main	z	79	rectangle	local	LVF	yes	present	1	815
5d1c92bc5f54410001ef8f0c	730146	10.5	main	z	80	square	global	LVF	yes	present	1	654
5d1c92bc5f54410001ef8f0c	748074	11.5	practice	slash	1	rectangle	local	RVF	yes	present	1	489
5d1c92bc5f54410001ef8f0c	752012	11.5	practice	slash	2	absent	absent	absent	no	absent	1	2000
5d1c92bc5f54410001ef8f0c	754413	11.5	practice	slash	3	rectangle	local	RVF	yes	present	1	509
5d1c92bc5f54410001ef8f0c	756601	11.5	practice	slash	4	square	local	LVF	yes	present	1	479
5d1c92bc5f54410001ef8f0c	759007	11.5	practice	slash	5	rectangle	global	RVF	yes	present	1	435
5d1c92bc5f54410001ef8f0c	762887	11.5	practice	slash	6	absent	absent	absent	no	absent	1	2000
5d1c92bc5f54410001ef8f0c	765193	11.5	practice	slash	7	square	global	LVF	yes	present	1	395
5d1c92bc5f54410001ef8f0c	769217	11.5	practice	slash	8	absent	absent	absent	no	absent	1	2000
5d1c92bc5f54410001ef8f0c	771559	11.5	practice	slash	9	rectangle	local	RVF	yes	present	1	479
5d1c92bc5f54410001ef8f0c	774077	11.5	practice	slash	10	square	local	LVF	yes	present	1	496
5d1c92bc5f54410001ef8f0c	776725	11.5	practice	slash	11	rectangle	global	RVF	yes	present	1	630
5d1c92bc5f54410001ef8f0c	779450	11.5	practice	slash	12	square	global	RVF	yes	present	1	660
5d1c92bc5f54410001ef8f0c	783520	11.5	practice	slash	13	absent	absent	absent	no	absent	1	2000
5d1c92bc5f54410001ef8f0c	786355	11.5	practice	slash	14	rectangle	global	LVF	yes	present	1	776
5d1c92bc5f54410001ef8f0c	788771	11.5	practice	slash	15	square	global	LVF	yes	present	1	486
5d1c92bc5f54410001ef8f0c	791465	11.5	practice	slash	16	rectangle	global	LVF	yes	present	1	696
5d1c92bc5f54410001ef8f0c	824303	12.5	main	slash	1	rectangle	local	LVF	yes	present	1	1906
5d1c92bc5f54410001ef8f0c	828369	12.5	main	slash	2	absent	absent	absent	no	absent	1	2000
5d1c92bc5f54410001ef8f0c	829802	12.5	main	slash	3	square	local	LVF	yes	present	1	549
5d1c92bc5f54410001ef8f0c	831257	12.5	main	slash	4	square	global	LVF	yes	present	1	390
5d1c92bc5f54410001ef8f0c	834130	12.5	main	slash	5	absent	absent	absent	no	absent	1	2000
5d1c92bc5f54410001ef8f0c	835381	12.5	main	slash	6	rectangle	global	LVF	yes	present	1	397
5d1c92bc5f54410001ef8f0c	838340	12.5	main	slash	7	absent	absent	absent	no	absent	1	2000
5d1c92bc5f54410001ef8f0c	839907	12.5	main	slash	8	square	local	RVF	yes	present	1	580
5d1c92bc5f54410001ef8f0c	841342	12.5	main	slash	9	square	local	LVF	yes	present	1	616
5d1c92bc5f54410001ef8f0c	842754	12.5	main	slash	10	rectangle	global	RVF	yes	present	1	597
5d1c92bc5f54410001ef8f0c	844132	12.5	main	slash	11	square	local	LVF	yes	present	1	553
5d1c92bc5f54410001ef8f0c	845435	12.5	main	slash	12	square	local	RVF	yes	present	1	504
5d1c92bc5f54410001ef8f0c	846740	12.5	main	slash	13	square	local	RVF	yes	present	1	463
5d1c92bc5f54410001ef8f0c	848098	12.5	main	slash	14	rectangle	local	LVF	yes	present	1	607
5d1c92bc5f54410001ef8f0c	849341	12.5	main	slash	15	rectangle	local	RVF	yes	present	1	446
5d1c92bc5f54410001ef8f0c	850527	12.5	main	slash	16	rectangle	local	LVF	yes	present	1	421
5d1c92bc5f54410001ef8f0c	851813	12.5	main	slash	17	square	global	RVF	yes	present	1	458
5d1c92bc5f54410001ef8f0c	854636	12.5	main	slash	18	absent	absent	absent	no	absent	1	2000
5d1c92bc5f54410001ef8f0c	856038	12.5	main	slash	19	square	local	LVF	yes	present	1	522
5d1c92bc5f54410001ef8f0c	857472	12.5	main	slash	20	rectangle	local	LVF	yes	present	1	490
5d1c92bc5f54410001ef8f0c	858832	12.5	main	slash	21	rectangle	local	RVF	yes	present	1	482
5d1c92bc5f54410001ef8f0c	860113	12.5	main	slash	22	square	global	LVF	yes	present	1	423
5d1c92bc5f54410001ef8f0c	861483	12.5	main	slash	23	rectangle	local	RVF	yes	present	1	487
5d1c92bc5f54410001ef8f0c	862746	12.5	main	slash	24	rectangle	global	LVF	yes	present	1	482
5d1c92bc5f54410001ef8f0c	864058	12.5	main	slash	25	square	local	RVF	yes	present	1	498
5d1c92bc5f54410001ef8f0c	866828	12.5	main	slash	26	absent	absent	absent	no	absent	1	2000
5d1c92bc5f54410001ef8f0c	868199	12.5	main	slash	27	rectangle	local	RVF	yes	present	1	511
5d1c92bc5f54410001ef8f0c	869536	12.5	main	slash	28	square	global	LVF	yes	present	1	478
5d1c92bc5f54410001ef8f0c	870910	12.5	main	slash	29	rectangle	global	LVF	yes	present	1	552
5d1c92bc5f54410001ef8f0c	872163	12.5	main	slash	30	rectangle	global	RVF	yes	present	1	487
5d1c92bc5f54410001ef8f0c	873452	12.5	main	slash	31	square	global	LVF	yes	present	1	518
5d1c92bc5f54410001ef8f0c	874619	12.5	main	slash	32	square	global	RVF	yes	present	1	404
5d1c92bc5f54410001ef8f0c	875852	12.5	main	slash	33	rectangle	global	LVF	yes	present	1	461
5d1c92bc5f54410001ef8f0c	877043	12.5	main	slash	34	square	global	RVF	yes	present	1	440
5d1c92bc5f54410001ef8f0c	878247	12.5	main	slash	35	rectangle	global	RVF	yes	present	1	432
5d1c92bc5f54410001ef8f0c	879581	12.5	main	slash	36	square	global	RVF	yes	present	1	549
5d1c92bc5f54410001ef8f0c	882355	12.5	main	slash	37	absent	absent	absent	no	absent	1	2000
5d1c92bc5f54410001ef8f0c	883552	12.5	main	slash	38	rectangle	global	RVF	yes	present	1	341
5d1c92bc5f54410001ef8f0c	886331	12.5	main	slash	39	absent	absent	absent	no	absent	1	2000
5d1c92bc5f54410001ef8f0c	889060	12.5	main	slash	40	absent	absent	absent	no	absent	1	2000
5d1c92bc5f54410001ef8f0c	890368	12.5	main	slash	41	rectangle	global	LVF	yes	present	1	413
5d1c92bc5f54410001ef8f0c	891678	12.5	main	slash	42	square	local	LVF	yes	present	1	462
5d1c92bc5f54410001ef8f0c	894470	12.5	main	slash	43	absent	absent	absent	no	absent	1	2000
5d1c92bc5f54410001ef8f0c	895784	12.5	main	slash	44	rectangle	local	RVF	yes	present	1	478
5d1c92bc5f54410001ef8f0c	897096	12.5	main	slash	45	rectangle	local	LVF	yes	present	1	535
5d1c92bc5f54410001ef8f0c	898294	12.5	main	slash	46	rectangle	local	LVF	yes	present	1	473
5d1c92bc5f54410001ef8f0c	901081	12.5	main	slash	47	absent	absent	absent	no	absent	1	2000
5d1c92bc5f54410001ef8f0c	902282	12.5	main	slash	48	rectangle	global	LVF	yes	present	1	385
5d1c92bc5f54410001ef8f0c	903421	12.5	main	slash	49	rectangle	global	LVF	yes	present	1	384
5d1c92bc5f54410001ef8f0c	904551	12.5	main	slash	50	square	local	RVF	yes	present	1	421
5d1c92bc5f54410001ef8f0c	905661	12.5	main	slash	51	square	global	RVF	yes	present	1	354
5d1c92bc5f54410001ef8f0c	908392	12.5	main	slash	52	absent	absent	absent	no	absent	1	2000
5d1c92bc5f54410001ef8f0c	911030	12.5	main	slash	53	absent	absent	absent	no	absent	1	2000
5d1c92bc5f54410001ef8f0c	912243	12.5	main	slash	54	absent	absent	absent	no	present	0	414
5d1c92bc5f54410001ef8f0c	915095	12.5	main	slash	55	absent	absent	absent	no	absent	1	2000
5d1c92bc5f54410001ef8f0c	916290	12.5	main	slash	56	rectangle	local	LVF	yes	present	1	412
5d1c92bc5f54410001ef8f0c	917424	12.5	main	slash	57	rectangle	global	RVF	yes	present	1	373
5d1c92bc5f54410001ef8f0c	920136	12.5	main	slash	58	absent	absent	absent	no	absent	1	2000
5d1c92bc5f54410001ef8f0c	921343	12.5	main	slash	59	rectangle	global	RVF	yes	present	1	340
5d1c92bc5f54410001ef8f0c	922489	12.5	main	slash	60	square	local	RVF	yes	present	1	426
5d1c92bc5f54410001ef8f0c	925197	12.5	main	slash	61	absent	absent	absent	no	absent	1	2000
5d1c92bc5f54410001ef8f0c	926588	12.5	main	slash	62	square	global	RVF	yes	present	1	410
5d1c92bc5f54410001ef8f0c	927709	12.5	main	slash	63	square	global	LVF	yes	present	1	399
5d1c92bc5f54410001ef8f0c	928791	12.5	main	slash	64	rectangle	local	RVF	yes	present	1	370
5d1c92bc5f54410001ef8f0c	929823	12.5	main	slash	65	square	global	LVF	yes	present	1	323
5d1c92bc5f54410001ef8f0c	930891	12.5	main	slash	66	square	local	LVF	yes	present	1	355
5d1c92bc5f54410001ef8f0c	931969	12.5	main	slash	67	square	local	RVF	yes	present	1	378
5d1c92bc5f54410001ef8f0c	933115	12.5	main	slash	68	square	local	LVF	yes	present	1	427
5d1c92bc5f54410001ef8f0c	934258	12.5	main	slash	69	rectangle	global	LVF	yes	present	1	427
5d1c92bc5f54410001ef8f0c	935373	12.5	main	slash	70	square	global	RVF	yes	present	1	387
5d1c92bc5f54410001ef8f0c	936446	12.5	main	slash	71	rectangle	local	RVF	yes	present	1	381
5d1c92bc5f54410001ef8f0c	937582	12.5	main	slash	72	square	global	LVF	yes	present	1	354
5d1c92bc5f54410001ef8f0c	938717	12.5	main	slash	73	square	local	LVF	yes	present	1	404
5d1c92bc5f54410001ef8f0c	939833	12.5	main	slash	74	square	global	LVF	yes	present	1	401
5d1c92bc5f54410001ef8f0c	940939	12.5	main	slash	75	rectangle	local	LVF	yes	present	1	372
5d1c92bc5f54410001ef8f0c	942019	12.5	main	slash	76	square	local	RVF	yes	present	1	342
5d1c92bc5f54410001ef8f0c	943104	12.5	main	slash	77	rectangle	local	RVF	yes	present	1	356
5d1c92bc5f54410001ef8f0c	945100	12.5	main	slash	78	square	global	RVF	yes	present	1	1290
5d1c92bc5f54410001ef8f0c	946881	12.5	main	slash	79	rectangle	global	RVF	yes	present	1	521
5d1c92bc5f54410001ef8f0c	948081	12.5	main	slash	80	rectangle	global	RVF	yes	present	1	382
