subject	time_elapsed_ms	blocknum	block_type	block_response	trialnum	target	level	field	target_present	response	correct	rt
6018e7e271455e1e9e49bda1	140306	1	practice	z	1	square	global	RVF	yes	present	1	1110
6018e7e271455e1e9e49bda1	144373	1	practice	z	2	rectangle	global	RVF	yes	present	1	1028
6018e7e271455e1e9e49bda1	148546	1	practice	z	3	square	local	LVF	yes	present	1	1034
6018e7e271455e1e9e49bda1	151802	1	practice	z	4	rectangle	local	RVF	yes	present	1	1057
6018e7e271455e1e9e49bda1	154845	1	practice	z	5	rectangle	global	LVF	yes	present	1	851
6018e7e271455e1e9e49bda1	158296	1	practice	z	6	square	global	LVF	yes	present	1	1286
6018e7e271455e1e9e49bda1	161337	1	practice	z	7	square	local	LVF	yes	present	1	960
6018e7e271455e1e9e49bda1	164276	1	practice	z	8	rectangle	local	RVF	yes	present	1	799
6018e7e271455e1e9e49bda1	168426	1	practice	z	9	absent	absent	absent	no	absent	1	2000
6018e7e271455e1e9e49bda1	171577	1	practice	z	10	rectangle	global	RVF	yes	present	1	1068
6018e7e271455e1e9e49bda1	175568	1	practice	z	11	rectangle	local	RVF	yes	present	1	1042
6018e7e271455e1e9e49bda1	179169	1	practice	z	12	absent	absent	absent	no	present	0	1444
6018e7e271455e1e9e49bda1	183160	1	practice	z	13	absent	absent	absent	no	present	0	1035
6018e7e271455e1e9e49bda1	186211	1	practice	z	14	square	global	LVF	yes	present	1	937
6018e7e271455e1e9e49bda1	190773	1	practice	z	15	rectangle	global	LVF	yes	absent	0	2000
6018e7e271455e1e9e49bda1	194773	1	practice	z	16	absent	absent	absent	no	absent	1	2000
6018e7e271455e1e9e49bda1	204515	2	main	z	1	rectangle	local	LVF	yes	present	1	961
6018e7e271455e1e9e49bda1	207886	2	main	z	2	absent	absent	absent	no	absent	1	2000
6018e7e271455e1e9e49bda1	209810	2	main	z	3	rectangle	global	RVF	yes	present	1	775
6018e7e271455e1e9e49bda1	213102	2	main	z	4	square	global	LVF	yes	present	1	934
6018e7e271455e1e9e49bda1	215620	2	main	z	5	rectangle	local	RVF	yes	present	1	701
6018e7e271455e1e9e49bda1	217660	2	main	z	6	square	global	LVF	yes	present	1	626
6018e7e271455e1e9e49bda1	219867	2	main	z	7	rectangle	global	LVF	yes	present	1	682
6018e7e271455e1e9e49bda1	221732	2	main	z	8	rectangle	global	RVF	yes	present	1	347
6018e7e271455e1e9e49bda1	224586	2	main	z	9	rectangle	local	LVF	yes	present	1	1386
6018e7e271455e1e9e49bda1	226698	2	main	z	10	square	local	LVF	yes	present	1	665
6018e7e271455e1e9e49bda1	230034	2	main	z	11	absent	absent	absent	no	absent	1	2000
6018e7e271455e1e9e49bda1	231982	2	main	z	12	square	global	RVF	yes	present	1	849
6018e7e271455e1e9e49bda1	234492	2	main	z	13	rectangle	global	LVF	yes	present	1	759
6018e7e271455e1e9e49bda1	236674	2	main	z	14	square	local	LVF	yes	present	1	674
6018e7e271455e1e9e49bda1	238892	2	main	z	15	square	local	RVF	yes	present	1	642
6018e7e271455e1e9e49bda1	241288	2	main	z	16	square	local	RVF	yes	present	1	656
6018e7e271455e1e9e49bda1	244917	2	main	z	17	rectangle	global	RVF	yes	present	1	951
6018e7e271455e1e9e49bda1	248400	2	main	z	18	rectangle	global	LVF	yes	present	1	536
6018e7e271455e1e9e49bda1	250504	2	main	z	19	square	local	RVF	yes	present	1	790
6018e7e271455e1e9e49bda1	253914	2	main	z	20	absent	absent	absent	no	absent	1	2000
6018e7e271455e1e9e49bda1	255853	2	main	z	21	rectangle	global	LVF	yes	present	1	938
6018e7e271455e1e9e49bda1	258221	2	main	z	22	square	global	RVF	yes	present	1	857
6018e7e271455e1e9e49bda1	260592	2	main	z	23	square	local	RVF	yes	present	1	912
6018e7e271455e1e9e49bda1	262872	2	main	z	24	absent	absent	absent	no	present	0	992
6018e7e271455e1e9e49bda1	265428	2	main	z	25	square	local	LVF	yes	present	1	965
6018e7e271455e1e9e49bda1	267537	2	main	z	26	square	global	RVF	yes	present	1	908
6018e7e271455e1e9e49bda1	270118	2	main	z	27	rectangle	global	RVF	yes	present	1	1356
6018e7e271455e1e9e49bda1	272257	2	main	z	28	square	local	LVF	yes	present	1	979
6018e7e271455e1e9e49bda1	274547	2	main	z	29	rectangle	local	RVF	yes	present	1	1019
6018e7e271455e1e9e49bda1	277745	2	main	z	30	rectangle	local	LVF	yes	absent	0	2000
6018e7e271455e1e9e49bda1	279654	2	main	z	31	square	global	LVF	yes	present	1	810
6018e7e271455e1e9e49bda1	282099	2	main	z	32	rectangle	local	RVF	yes	present	1	805
6018e7e271455e1e9e49bda1	285511	2	main	z	33	absent	absent	absent	no	absent	1	2000
6018e7e271455e1e9e49bda1	288644	2	main	z	34	absent	absent	absent	no	absent	1	2000
6018e7e271455e1e9e49bda1	290433	2	main	z	35	rectangle	local	RVF	yes	present	1	839
6018e7e271455e1e9e49bda1	292783	2	main	z	36	square	global	LVF	yes	present	1	957
6018e7e271455e1e9e49bda1	294874	2	main	z	37	rectangle	local	LVF	yes	present	1	881
6018e7e271455e1e9e49bda1	296761	2	main	z	38	square	global	RVF	yes	present	1	585
6018e7e271455e1e9e49bda1	300059	2	main	z	39	absent	absent	absent	no	absent	1	2000
6018e7e271455e1e9e49bda1	302243	2	main	z	40	absent	absent	absent	no	present	0	1100
6018e7e271455e1e9e49bda1	304252	2	main	z	41	rectangle	global	LVF	yes	present	1	809
6018e7e271455e1e9e49bda1	307826	2	main	z	42	rectangle	global	RVF	yes	present	1	717
6018e7e271455e1e9e49bda1	309659	2	main	z	43	rectangle	global	RVF	yes	present	1	551
6018e7e271455e1e9e49bda1	312200	2	main	z	44	absent	absent	absent	no	present	0	1342
6018e7e271455e1e9e49bda1	314879	2	main	z	45	rectangle	local	RVF	yes	present	1	1438
6018e7e271455e1e9e49bda1	317078	2	main	z	46	square	local	RVF	yes	present	1	920
6018e7e271455e1e9e49bda1	319021	2	main	z	47	square	local	LVF	yes	present	1	680
6018e7e271455e1e9e49bda1	322324	2	main	z	48	rectangle	local	LVF	yes	absent	0	2000
6018e7e271455e1e9e49bda1	324099	2	main	z	49	square	local	LVF	yes	present	1	876
6018e7e271455e1e9e49bda1	326275	2	main	z	50	rectangle	global	LVF	yes	present	1	868
6018e7e271455e1e9e49bda1	329639	2	main	z	51	absent	absent	absent	no	absent	1	2000
6018e7e271455e1e9e49bda1	331179	2	main	z	52	square	global	LVF	yes	present	1	524
6018e7e271455e1e9e49bda1	333475	2	main	z	53	rectangle	local	LVF	yes	present	1	1002
6018e7e271455e1e9e49bda1	335427	2	main	z	54	rectangle	global	LVF	yes	present	1	638
6018e7e271455e1e9e49bda1	337526	2	main	z	55	square	global	LVF	yes	present	1	838
6018e7e271455e1e9e49bda1	339587	2	main	z	56	square	local	LVF	yes	present	1	799
6018e7e271455e1e9e49bda1	341661	2	main	z	57	rectangle	local	RVF	yes	present	1	840
6018e7e271455e1e9e49bda1	344823	2	main	z	58	rectangle	local	RVF	yes	present	1	1319
6018e7e271455e1e9e49bda1	347115	2	main	z	59	square	local	RVF	yes	present	1	1078
6018e7e271455e1e9e49bda1	349217	2	main	z	60	square	global	LVF	yes	present	1	996
6018e7e271455e1e9e49bda1	351611	2	main	z	61	rectangle	local	LVF	yes	present	1	1241
6018e7e271455e1e9e49bda1	353700	2	main	z	62	square	global	RVF	yes	present	1	1031
6018e7e271455e1e9e49bda1	356886	2	main	z	63	absent	absent	absent	no	absent	1	2000
6018e7e271455e1e9e49bda1	359059	2	main	z	64	square	global	RVF	yes	present	1	907
6018e7e271455e1e9e49bda1	362202	2	main	z	65	absent	absent	absent	no	absent	1	2000
6018e7e271455e1e9e49bda1	365938	2	main	z	66	square	local	RVF	yes	present	1	720
6018e7e271455e1e9e49bda1	368235	2	main	z	67	rectangle	local	LVF	yes	present	1	716
6018e7e271455e1e9e49bda1	371484	2	main	z	68	absent	absent	absent	no	absent	1	2000
6018e7e271455e1e9e49bda1	374118	2	main	z	69	rectangle	global	RVF	yes	present	1	634
6018e7e271455e1e9e49bda1	376527	2	main	z	70	square	local	LVF	yes	present	1	826
6018e7e271455e1e9e49bda1	379011	2	main	z	71	rectangle	global	LVF	yes	present	1	1094
6018e7e271455e1e9e49bda1	382134	2	main	z	72	absent	absent	absent	no	absent	1	2000
6018e7e271455e1e9e49bda1	384176	2	main	z	73	rectangle	local	RVF	yes	present	1	960
6018e7e271455e1e9e49bda1	387549	2	main	z	74	absent	absent	absent	no	absent	1	2000
6018e7e271455e1e9e49bda1	389318	2	main	z	75	square	global	LVF	yes	present	1	835
6018e7e271455e1e9e49bda1	391801	2	main	z	76	square	global	RVF	yes	present	1	1135
6018e7e271455e1e9e49bda1	393721	2	main	z	77	square	global	RVF	yes	present	1	806
6018e7e271455e1e9e49bda1	396848	2	main	z	78	absent	absent	absent	no	absent	1	2000
6018e7e271455e1e9e49bda1	398586	2	main	z	79	square	local	RVF	yes	present	1	821
6018e7e271455e1e9e49bda1	400676	2	main	z	80	rectangle	global	RVF	yes	present	1	829
6018e7e271455e1e9e49bda1	421638	3	practice	slash	1	rectangle	global	LVF	yes	present	1	606
6018e7e271455e1e9e49bda1	425064	3	practice	slash	2	square	global	RVF	yes	present	1	700
6018e7e271455e1e9e49bda1	429580	3	practice	slash	3	absent	absent	absent	no	absent	1	2000
6018e7e271455e1e9e49bda1	432172	3	practice	slash	4	rectangle	global	LVF	yes	present	1	559
6018e7e271455e1e9e49bda1	436279	3	practice	slash	5	absent	absent	absent	no	absent	1	2000
6018e7e271455e1e9e49bda1	439102	3	practice	slash	6	square	local	LVF	yes	present	1	822
6018e7e271455e1e9e49bda1	443212	3	practice	slash	7	absent	absent	absent	no	absent	1	2000
6018e7e271455e1e9e49bda1	445724	3	practice	slash	8	square	global	LVF	yes	present	1	578
6018e7e271455e1e9e49bda1	448969	3	practice	slash	9	rectangle	local	RVF	yes	present	1	940
6018e7e271455e1e9e49bda1	453094	3	practice	slash	10	absent	absent	absent	no	absent	1	2000
6018e7e271455e1e9e49bda1	456013	3	practice	slash	11	rectangle	local	RVF	yes	present	1	835
6018e7e271455e1e9e49bda1	459165	3	practice	slash	12	rectangle	global	RVF	yes	present	1	1003
6018e7e271455e1e9e49bda1	462206	3	practice	slash	13	rectangle	local	RVF	yes	present	1	728
6018e7e271455e1e9e49bda1	465243	3	practice	slash	14	rectangle	global	RVF	yes	present	1	865
6018e7e271455e1e9e49bda1	467844	3	practice	slash	15	square	global	LVF	yes	present	1	700
6018e7e271455e1e9e49bda1	470608	3	practice	slash	16	square	local	LVF	yes	present	1	565
6018e7e271455e1e9e49bda1	481177	4	main	slash	1	square	global	LVF	yes	present	1	538
6018e7e271455e1e9e49bda1	483232	4	main	slash	2	square	local	RVF	yes	present	1	560
6018e7e271455e1e9e49bda1	485204	4	main	slash	3	square	local	RVF	yes	present	1	498
6018e7e271455e1e9e49bda1	487072	4	main	slash	4	rectangle	local	LVF	yes	present	1	684
6018e7e271455e1e9e49bda1	490188	4	main	slash	5	absent	absent	absent	no	absent	1	2000
6018e7e271455e1e9e49bda1	493538	4	main	slash	6	absent	absent	absent	no	absent	1	2000
6018e7e271455e1e9e49bda1	495129	4	main	slash	7	square	local	RVF	yes	present	1	642
6018e7e271455e1e9e49bda1	497269	4	main	slash	8	square	global	RVF	yes	present	1	815
6018e7e271455e1e9e49bda1	499369	4	main	slash	9	rectangle	local	LVF	yes	present	1	832
6018e7e271455e1e9e49bda1	501324	4	main	slash	10	square	global	LVF	yes	present	1	738
6018e7e271455e1e9e49bda1	503358	4	main	slash	11	rectangle	local	LVF	yes	present	1	771
6018e7e271455e1e9e49bda1	505445	4	main	slash	12	rectangle	local	RVF	yes	present	1	876
6018e7e271455e1e9e49bda1	507277	4	main	slash	13	square	local	LVF	yes	present	1	608
6018e7e271455e1e9e49bda1	509218	4	main	slash	14	square	global	RVF	yes	present	1	782
6018e7e271455e1e9e49bda1	511055	4	main	slash	15	rectangle	global	RVF	yes	present	1	636
6018e7e271455e1e9e49bda1	513065	4	main	slash	16	square	local	LVF	yes	present	1	713
6018e7e271455e1e9e49bda1	514967	4	main	slash	17	rectangle	local	RVF	yes	present	1	699
6018e7e271455e1e9e49bda1	516929	4	main	slash	18	square	local	LVF	yes	present	1	777
6018e7e271455e1e9e49bda1	518815	4	main	slash	19	square	local	RVF	yes	present	1	747
6018e7e271455e1e9e49bda1	522035	4	main	slash	20	absent	absent	absent	no	absent	1	2000
6018e7e271455e1e9e49bda1	523984	4	main	slash	21	square	global	RVF	yes	present	1	850
6018e7e271455e1e9e49bda1	525998	4	main	slash	22	square	global	LVF	yes	present	1	831
6018e7e271455e1e9e49bda1	528730	4	main	slash	23	rectangle	local	RVF	yes	present	1	830
6018e7e271455e1e9e49bda1	531934	4	main	slash	24	absent	absent	absent	no	absent	1	2000
6018e7e271455e1e9e49bda1	533746	4	main	slash	25	rectangle	global	RVF	yes	present	1	762
6018e7e271455e1e9e49bda1	535620	4	main	slash	26	rectangle	global	LVF	yes	present	1	704
6018e7e271455e1e9e49bda1	537634	4	main	slash	27	rectangle	local	LVF	yes	present	1	935
6018e7e271455e1e9e49bda1	540733	4	main	slash	28	absent	absent	absent	no	absent	1	2000
6018e7e271455e1e9e49bda1	542345	4	main	slash	29	rectangle	global	LVF	yes	present	1	612
6018e7e271455e1e9e49bda1	544294	4	main	slash	30	rectangle	global	LVF	yes	present	1	712
6018e7e271455e1e9e49bda1	546484	4	main	slash	31	square	global	RVF	yes	present	1	585
6018e7e271455e1e9e49bda1	548742	4	main	slash	32	absent	absent	absent	no	present	0	1127
6018e7e271455e1e9e49bda1	550767	4	main	slash	33	rectangle	local	RVF	yes	present	1	886
6018e7e271455e1e9e49bda1	552558	4	main	slash	34	square	local	LVF	yes	present	1	676
6018e7e271455e1e9e49bda1	554888	4	main	slash	35	absent	absent	absent	no	present	0	1190
6018e7e271455e1e9e49bda1	558131	4	main	slash	36	absent	absent	absent	no	absent	1	2000
6018e7e271455e1e9e49bda1	559706	4	main	slash	37	square	global	LVF	yes	present	1	504
6018e7e271455e1e9e49bda1	562187	4	main	slash	38	rectangle	global	RVF	yes	present	1	973
6018e7e271455e1e9e49bda1	564597	4	main	slash	39	rectangle	global	RVF	yes	present	1	617
6018e7e271455e1e9e49bda1	566597	4	main	slash	40	rectangle	global	LVF	yes	present	1	750
6018e7e271455e1e9e49bda1	568914	4	main	slash	41	rectangle	local	LVF	yes	present	1	968
6018e7e271455e1e9e49bda1	570914	4	main	slash	42	absent	absent	absent	no	present	0	818
6018e7e271455e1e9e49bda1	573040	4	main	slash	43	rectangle	global	LVF	yes	present	1	828
6018e7e271455e1e9e49bda1	575109	4	main	slash	44	square	global	RVF	yes	present	1	831
6018e7e271455e1e9e49bda1	578228	4	main	slash	45	absent	absent	absent	no	absent	1	2000
6018e7e271455e1e9e49bda1	581445	4	main	slash	46	absent	absent	absent	no	absent	1	2000
6018e7e271455e1e9e49bda1	583260	4	main	slash	47	rectangle	local	LVF	yes	present	1	798
6018e7e271455e1e9e49bda1	586795	4	main	slash	48	absent	absent	absent	no	absent	1	2000
6018e7e271455e1e9e49bda1	588274	4	main	slash	49	square	global	LVF	yes	present	1	463
6018e7e271455e1e9e49bda1	591312	4	main	slash	50	absent	absent	absent	no	present	0	1617
6018e7e271455e1e9e49bda1	593310	4	main	slash	51	square	local	LVF	yes	present	1	867
6018e7e271455e1e9e49bda1	595222	4	main	slash	52	rectangle	local	LVF	yes	present	1	828
6018e7e271455e1e9e49bda1	597236	4	main	slash	53	square	global	LVF	yes	present	1	960
6018e7e271455e1e9e49bda1	599185	4	main	slash	54	rectangle	global	LVF	yes	present	1	875
6018e7e271455e1e9e49bda1	601239	4	main	slash	55	rectangle	global	RVF	yes	present	1	947
6018e7e271455e1e9e49bda1	603284	4	main	slash	56	square	local	RVF	yes	present	1	826
6018e7e271455e1e9e49bda1	605626	4	main	slash	57	absent	absent	absent	no	present	0	1201
6018e7e271455e1e9e49bda1	607535	4	main	slash	58	square	local	RVF	yes	present	1	909
6018e7e271455e1e9e49bda1	609792	4	main	slash	59	square	local	LVF	yes	present	1	1217
6018e7e271455e1e9e49bda1	611928	4	main	slash	60	square	global	RVF	yes	present	1	720
6018e7e271455e1e9e49bda1	613712	4	main	slash	61	rectangle	local	RVF	yes	present	1	588
6018e7e271455e1e9e49bda1	615717	4	main	slash	62	rectangle	global	RVF	yes	present	1	910
6018e7e271455e1e9e49bda1	617596	4	main	slash	63	square	global	RVF	yes	present	1	838
6018e7e271455e1e9e49bda1	619977	4	main	slash	64	rectangle	local	RVF	yes	present	1	1170
6018e7e271455e1e9e49bda1	621789	4	main	slash	65	square	local	LVF	yes	present	1	833
6018e7e271455e1e9e49bda1	623749	4	main	slash	66	square	global	LVF	yes	present	1	843
6018e7e271455e1e9e49bda1	626031	4	main	slash	67	absent	absent	absent	no	present	0	1224
6018e7e271455e1e9e49bda1	627776	4	main	slash	68	rectangle	global	LVF	yes	present	1	853
6018e7e271455e1e9e49bda1	630173	4	main	slash	69	rectangle	global	RVF	yes	present	1	1434
6018e7e271455e1e9e49bda1	631762	4	main	slash	70	square	global	LVF	yes	present	1	740
6018e7e271455e1e9e49bda1	633640	4	main	slash	71	absent	absent	absent	no	present	0	885
6018e7e271455e1e9e49bda1	635410	4	main	slash	72	rectangle	global	RVF	yes	present	1	838
6018e7e271455e1e9e49bda1	637102	4	main	slash	73	square	global	RVF	yes	present	1	713
6018e7e271455e1e9e49bda1	638805	4	main	slash	74	rectangle	local	RVF	yes	present	1	716
6018e7e271455e1e9e49bda1	640555	4	main	slash	75	square	local	RVF	yes	present	1	750
6018e7e271455e1e9e49bda1	642074	4	main	slash	76	square	local	RVF	yes	present	1	570
6018e7e271455e1e9e49bda1	643676	4	main	slash	77	rectangle	local	RVF	yes	present	1	654
6018e7e271455e1e9e49bda1	645312	4	main	slash	78	rectangle	global	LVF	yes	present	1	707
6018e7e271455e1e9e49bda1	646970	4	main	slash	79	rectangle	local	LVF	yes	present	1	766
6018e7e271455e1e9e49bda1	648695	4	main	slash	80	square	local	LVF	yes	present	1	824
