subject	time_elapsed_ms	blocknum	block_type	block_response	trialnum	target	level	field	target_present	response	correct	rt
60794cf6640dbc4d3662ef07	152873	1	practice	slash	1	rectangle	local	RVF	yes	absent	0	2000
60794cf6640dbc4d3662ef07	156773	1	practice	slash	2	rectangle	global	LVF	yes	present	1	967
60794cf6640dbc4d3662ef07	160605	1	practice	slash	3	absent	absent	absent	no	present	0	841
60794cf6640dbc4d3662ef07	165010	1	practice	slash	4	absent	absent	absent	no	absent	1	2000
60794cf6640dbc4d3662ef07	168805	1	practice	slash	5	rectangle	global	RVF	yes	present	1	836
60794cf6640dbc4d3662ef07	172613	1	practice	slash	6	square	local	LVF	yes	present	1	868
60794cf6640dbc4d3662ef07	177021	1	practice	slash	7	rectangle	global	RVF	yes	present	1	1142
60794cf6640dbc4d3662ef07	181259	1	practice	slash	8	absent	absent	absent	no	absent	1	2000
60794cf6640dbc4d3662ef07	184469	1	practice	slash	9	square	local	LVF	yes	present	1	677
60794cf6640dbc4d3662ef07	187885	1	practice	slash	10	square	global	LVF	yes	present	1	1142
60794cf6640dbc4d3662ef07	191405	1	practice	slash	11	rectangle	local	RVF	yes	present	1	1221
60794cf6640dbc4d3662ef07	195791	1	practice	slash	12	absent	absent	absent	no	absent	1	2000
60794cf6640dbc4d3662ef07	198910	1	practice	slash	13	square	global	RVF	yes	present	1	833
60794cf6640dbc4d3662ef07	202294	1	practice	slash	14	rectangle	local	RVF	yes	present	1	1047
60794cf6640dbc4d3662ef07	206037	1	practice	slash	15	square	global	LVF	yes	present	1	952
60794cf6640dbc4d3662ef07	209693	1	practice	slash	16	rectangle	global	LVF	yes	present	1	897
60794cf6640dbc4d3662ef07	219893	2	main	slash	1	rectangle	local	LVF	yes	present	1	787
60794cf6640dbc4d3662ef07	222541	2	main	slash	2	square	global	LVF	yes	present	1	860
60794cf6640dbc4d3662ef07	226160	2	main	slash	3	absent	absent	absent	no	absent	1	2000
60794cf6640dbc4d3662ef07	229101	2	main	slash	4	square	local	RVF	yes	present	1	1460
60794cf6640dbc4d3662ef07	231797	2	main	slash	5	rectangle	global	LVF	yes	present	1	857
60794cf6640dbc4d3662ef07	234701	2	main	slash	6	square	local	LVF	yes	present	1	640
60794cf6640dbc4d3662ef07	238589	2	main	slash	7	absent	absent	absent	no	present	0	671
60794cf6640dbc4d3662ef07	241085	2	main	slash	8	square	local	RVF	yes	present	1	814
60794cf6640dbc4d3662ef07	243341	2	main	slash	9	square	local	LVF	yes	present	1	590
60794cf6640dbc4d3662ef07	246085	2	main	slash	10	rectangle	local	LVF	yes	present	1	1153
60794cf6640dbc4d3662ef07	249389	2	main	slash	11	rectangle	global	LVF	yes	present	1	1845
60794cf6640dbc4d3662ef07	251813	2	main	slash	12	rectangle	local	RVF	yes	present	1	867
60794cf6640dbc4d3662ef07	255275	2	main	slash	13	absent	absent	absent	no	absent	1	2000
60794cf6640dbc4d3662ef07	257341	2	main	slash	14	square	global	RVF	yes	present	1	701
60794cf6640dbc4d3662ef07	259837	2	main	slash	15	rectangle	local	RVF	yes	present	1	879
60794cf6640dbc4d3662ef07	261885	2	main	slash	16	square	local	LVF	yes	present	1	731
60794cf6640dbc4d3662ef07	264181	2	main	slash	17	square	global	RVF	yes	present	1	928
60794cf6640dbc4d3662ef07	267417	2	main	slash	18	absent	absent	absent	no	absent	1	2000
60794cf6640dbc4d3662ef07	269133	2	main	slash	19	rectangle	local	LVF	yes	present	1	634
60794cf6640dbc4d3662ef07	272685	2	main	slash	20	absent	absent	absent	no	absent	1	2000
60794cf6640dbc4d3662ef07	275013	2	main	slash	21	rectangle	global	RVF	yes	present	1	848
60794cf6640dbc4d3662ef07	277069	2	main	slash	22	square	global	LVF	yes	present	1	628
60794cf6640dbc4d3662ef07	279021	2	main	slash	23	square	global	RVF	yes	present	1	600
60794cf6640dbc4d3662ef07	280877	2	main	slash	24	rectangle	global	LVF	yes	present	1	540
60794cf6640dbc4d3662ef07	284167	2	main	slash	25	absent	absent	absent	no	absent	1	2000
60794cf6640dbc4d3662ef07	285949	2	main	slash	26	rectangle	global	LVF	yes	present	1	568
60794cf6640dbc4d3662ef07	288149	2	main	slash	27	square	global	LVF	yes	present	1	530
60794cf6640dbc4d3662ef07	291530	2	main	slash	28	absent	absent	absent	no	absent	1	2000
60794cf6640dbc4d3662ef07	293101	2	main	slash	29	rectangle	global	RVF	yes	present	1	523
60794cf6640dbc4d3662ef07	295445	2	main	slash	30	rectangle	local	RVF	yes	present	1	796
60794cf6640dbc4d3662ef07	297477	2	main	slash	31	rectangle	global	RVF	yes	present	1	681
60794cf6640dbc4d3662ef07	299341	2	main	slash	32	square	local	LVF	yes	present	1	598
60794cf6640dbc4d3662ef07	301501	2	main	slash	33	square	local	RVF	yes	present	1	592
60794cf6640dbc4d3662ef07	304389	2	main	slash	34	square	local	RVF	yes	present	1	500
60794cf6640dbc4d3662ef07	306325	2	main	slash	35	rectangle	local	RVF	yes	present	1	526
60794cf6640dbc4d3662ef07	308989	2	main	slash	36	square	global	LVF	yes	present	1	613
60794cf6640dbc4d3662ef07	311053	2	main	slash	37	square	global	RVF	yes	present	1	648
60794cf6640dbc4d3662ef07	312885	2	main	slash	38	rectangle	local	LVF	yes	present	1	616
60794cf6640dbc4d3662ef07	316118	2	main	slash	39	absent	absent	absent	no	absent	1	2000
60794cf6640dbc4d3662ef07	317597	2	main	slash	40	rectangle	global	RVF	yes	present	1	561
60794cf6640dbc4d3662ef07	319661	2	main	slash	41	square	local	LVF	yes	present	1	618
60794cf6640dbc4d3662ef07	321829	2	main	slash	42	square	local	RVF	yes	present	1	855
60794cf6640dbc4d3662ef07	323613	2	main	slash	43	rectangle	global	LVF	yes	present	1	675
60794cf6640dbc4d3662ef07	325421	2	main	slash	44	rectangle	global	LVF	yes	present	1	634
60794cf6640dbc4d3662ef07	327277	2	main	slash	45	rectangle	local	LVF	yes	present	1	690
60794cf6640dbc4d3662ef07	330436	2	main	slash	46	absent	absent	absent	no	absent	1	2000
60794cf6640dbc4d3662ef07	332333	2	main	slash	47	square	global	LVF	yes	present	1	712
60794cf6640dbc4d3662ef07	334373	2	main	slash	48	rectangle	global	LVF	yes	present	1	750
60794cf6640dbc4d3662ef07	337585	2	main	slash	49	absent	absent	absent	no	absent	1	2000
60794cf6640dbc4d3662ef07	339029	2	main	slash	50	rectangle	global	RVF	yes	present	1	477
60794cf6640dbc4d3662ef07	340997	2	main	slash	51	rectangle	global	RVF	yes	present	1	471
60794cf6640dbc4d3662ef07	344338	2	main	slash	52	absent	absent	absent	no	absent	1	2000
60794cf6640dbc4d3662ef07	345669	2	main	slash	53	square	global	LVF	yes	present	1	423
60794cf6640dbc4d3662ef07	347717	2	main	slash	54	square	local	RVF	yes	present	1	752
60794cf6640dbc4d3662ef07	350978	2	main	slash	55	absent	absent	absent	no	absent	1	2000
60794cf6640dbc4d3662ef07	354443	2	main	slash	56	absent	absent	absent	no	absent	1	2000
60794cf6640dbc4d3662ef07	356637	2	main	slash	57	rectangle	local	LVF	yes	present	1	675
60794cf6640dbc4d3662ef07	359881	2	main	slash	58	absent	absent	absent	no	absent	1	2000
60794cf6640dbc4d3662ef07	361125	2	main	slash	59	square	local	LVF	yes	present	1	544
60794cf6640dbc4d3662ef07	364783	2	main	slash	60	absent	absent	absent	no	absent	1	2000
60794cf6640dbc4d3662ef07	368146	2	main	slash	61	absent	absent	absent	no	absent	1	2000
60794cf6640dbc4d3662ef07	369765	2	main	slash	62	rectangle	global	RVF	yes	present	1	667
60794cf6640dbc4d3662ef07	372285	2	main	slash	63	rectangle	local	RVF	yes	present	1	841
60794cf6640dbc4d3662ef07	374574	2	main	slash	64	square	global	LVF	yes	present	1	801
60794cf6640dbc4d3662ef07	376909	2	main	slash	65	square	global	RVF	yes	present	1	774
60794cf6640dbc4d3662ef07	379469	2	main	slash	66	square	local	LVF	yes	present	1	889
60794cf6640dbc4d3662ef07	381997	2	main	slash	67	square	local	RVF	yes	present	1	855
60794cf6640dbc4d3662ef07	385237	2	main	slash	68	square	local	LVF	yes	present	1	885
60794cf6640dbc4d3662ef07	387357	2	main	slash	69	rectangle	local	LVF	yes	present	1	848
60794cf6640dbc4d3662ef07	389645	2	main	slash	70	rectangle	local	LVF	yes	present	1	673
60794cf6640dbc4d3662ef07	391925	2	main	slash	71	square	global	RVF	yes	present	1	724
60794cf6640dbc4d3662ef07	394397	2	main	slash	72	square	global	RVF	yes	present	1	717
60794cf6640dbc4d3662ef07	396781	2	main	slash	73	square	local	RVF	yes	present	1	838
60794cf6640dbc4d3662ef07	398509	2	main	slash	74	square	global	RVF	yes	present	1	438
60794cf6640dbc4d3662ef07	400589	2	main	slash	75	rectangle	local	RVF	yes	present	1	771
60794cf6640dbc4d3662ef07	402325	2	main	slash	76	rectangle	local	RVF	yes	present	1	458
60794cf6640dbc4d3662ef07	404477	2	main	slash	77	rectangle	local	RVF	yes	present	1	430
60794cf6640dbc4d3662ef07	406509	2	main	slash	78	rectangle	global	LVF	yes	present	1	440
60794cf6640dbc4d3662ef07	408541	2	main	slash	79	rectangle	global	RVF	yes	present	1	491
60794cf6640dbc4d3662ef07	410261	2	main	slash	80	square	global	LVF	yes	present	1	431
60794cf6640dbc4d3662ef07	438549	3	practice	z	1	square	local	LVF	yes	present	1	658
60794cf6640dbc4d3662ef07	441917	3	practice	z	2	rectangle	global	LVF	yes	present	1	652
60794cf6640dbc4d3662ef07	444701	3	practice	z	3	square	local	LVF	yes	present	1	547
60794cf6640dbc4d3662ef07	448699	3	practice	z	4	absent	absent	absent	no	absent	1	2000
60794cf6640dbc4d3662ef07	451589	3	practice	z	5	rectangle	local	RVF	yes	present	1	661
60794cf6640dbc4d3662ef07	454469	3	practice	z	6	square	global	LVF	yes	present	1	629
60794cf6640dbc4d3662ef07	458534	3	practice	z	7	absent	absent	absent	no	absent	1	2000
60794cf6640dbc4d3662ef07	460925	3	practice	z	8	square	global	LVF	yes	present	1	425
60794cf6640dbc4d3662ef07	463757	3	practice	z	9	absent	absent	absent	no	present	0	668
60794cf6640dbc4d3662ef07	466909	3	practice	z	10	rectangle	global	RVF	yes	present	1	476
60794cf6640dbc4d3662ef07	470013	3	practice	z	11	rectangle	local	RVF	yes	present	1	792
60794cf6640dbc4d3662ef07	472901	3	practice	z	12	rectangle	local	RVF	yes	present	1	700
60794cf6640dbc4d3662ef07	475493	3	practice	z	13	rectangle	global	LVF	yes	present	1	434
60794cf6640dbc4d3662ef07	478118	3	practice	z	14	rectangle	global	RVF	yes	present	1	432
60794cf6640dbc4d3662ef07	482145	3	practice	z	15	absent	absent	absent	no	absent	1	2000
60794cf6640dbc4d3662ef07	484805	3	practice	z	16	square	global	RVF	yes	present	1	565
60794cf6640dbc4d3662ef07	488869	4	main	z	1	square	local	RVF	yes	present	1	581
60794cf6640dbc4d3662ef07	491205	4	main	z	2	rectangle	global	RVF	yes	present	1	426
60794cf6640dbc4d3662ef07	492965	4	main	z	3	rectangle	global	RVF	yes	present	1	424
60794cf6640dbc4d3662ef07	494685	4	main	z	4	square	local	RVF	yes	present	1	579
60794cf6640dbc4d3662ef07	497869	4	main	z	5	rectangle	local	RVF	yes	present	1	899
60794cf6640dbc4d3662ef07	501745	4	main	z	6	absent	absent	absent	no	absent	1	2000
60794cf6640dbc4d3662ef07	505057	4	main	z	7	absent	absent	absent	no	absent	1	2000
60794cf6640dbc4d3662ef07	506541	4	main	z	8	square	local	LVF	yes	present	1	457
60794cf6640dbc4d3662ef07	509189	4	main	z	9	rectangle	global	LVF	yes	present	1	692
60794cf6640dbc4d3662ef07	511237	4	main	z	10	square	global	RVF	yes	present	1	478
60794cf6640dbc4d3662ef07	513637	4	main	z	11	square	global	LVF	yes	present	1	416
60794cf6640dbc4d3662ef07	515501	4	main	z	12	square	global	LVF	yes	present	1	433
60794cf6640dbc4d3662ef07	517213	4	main	z	13	rectangle	global	LVF	yes	present	1	498
60794cf6640dbc4d3662ef07	520279	4	main	z	14	absent	absent	absent	no	absent	1	2000
60794cf6640dbc4d3662ef07	523325	4	main	z	15	absent	absent	absent	no	absent	1	2000
60794cf6640dbc4d3662ef07	525293	4	main	z	16	square	global	RVF	yes	present	1	571
60794cf6640dbc4d3662ef07	527325	4	main	z	17	square	local	LVF	yes	present	1	758
60794cf6640dbc4d3662ef07	529389	4	main	z	18	rectangle	local	LVF	yes	present	1	743
60794cf6640dbc4d3662ef07	531509	4	main	z	19	rectangle	global	LVF	yes	present	1	416
60794cf6640dbc4d3662ef07	534672	4	main	z	20	absent	absent	absent	no	absent	1	2000
60794cf6640dbc4d3662ef07	536989	4	main	z	21	square	local	LVF	yes	present	1	885
60794cf6640dbc4d3662ef07	538773	4	main	z	22	square	global	RVF	yes	present	1	420
60794cf6640dbc4d3662ef07	541085	4	main	z	23	square	local	LVF	yes	present	1	1018
60794cf6640dbc4d3662ef07	544231	4	main	z	24	absent	absent	absent	no	absent	1	2000
60794cf6640dbc4d3662ef07	546469	4	main	z	25	rectangle	local	RVF	yes	present	1	956
60794cf6640dbc4d3662ef07	548445	4	main	z	26	square	local	RVF	yes	present	1	912
60794cf6640dbc4d3662ef07	550605	4	main	z	27	rectangle	global	RVF	yes	present	1	1042
60794cf6640dbc4d3662ef07	553157	4	main	z	28	rectangle	local	LVF	yes	present	1	964
60794cf6640dbc4d3662ef07	555357	4	main	z	29	rectangle	local	RVF	yes	present	1	1052
60794cf6640dbc4d3662ef07	558600	4	main	z	30	absent	absent	absent	no	absent	1	2000
60794cf6640dbc4d3662ef07	560349	4	main	z	31	square	global	RVF	yes	present	1	802
60794cf6640dbc4d3662ef07	562557	4	main	z	32	rectangle	local	LVF	yes	present	1	756
60794cf6640dbc4d3662ef07	564389	4	main	z	33	rectangle	local	RVF	yes	present	1	643
60794cf6640dbc4d3662ef07	567590	4	main	z	34	absent	absent	absent	no	absent	1	2000
60794cf6640dbc4d3662ef07	569285	4	main	z	35	rectangle	global	RVF	yes	present	1	744
60794cf6640dbc4d3662ef07	571781	4	main	z	36	square	local	RVF	yes	present	1	850
60794cf6640dbc4d3662ef07	573957	4	main	z	37	rectangle	global	LVF	yes	present	1	881
60794cf6640dbc4d3662ef07	575813	4	main	z	38	square	global	LVF	yes	present	1	772
60794cf6640dbc4d3662ef07	578149	4	main	z	39	rectangle	local	LVF	yes	present	1	860
60794cf6640dbc4d3662ef07	580245	4	main	z	40	square	global	LVF	yes	present	1	609
60794cf6640dbc4d3662ef07	583431	4	main	z	41	absent	absent	absent	no	absent	1	2000
60794cf6640dbc4d3662ef07	586428	4	main	z	42	absent	absent	absent	no	absent	1	2000
60794cf6640dbc4d3662ef07	589449	4	main	z	43	absent	absent	absent	no	absent	1	2000
60794cf6640dbc4d3662ef07	590877	4	main	z	44	rectangle	global	RVF	yes	present	1	469
60794cf6640dbc4d3662ef07	592941	4	main	z	45	square	global	LVF	yes	present	1	552
60794cf6640dbc4d3662ef07	594973	4	main	z	46	rectangle	local	LVF	yes	present	1	920
60794cf6640dbc4d3662ef07	597205	4	main	z	47	square	local	LVF	yes	present	1	1102
60794cf6640dbc4d3662ef07	599189	4	main	z	48	square	local	RVF	yes	present	1	970
60794cf6640dbc4d3662ef07	602197	4	main	z	49	absent	absent	absent	no	absent	1	2000
60794cf6640dbc4d3662ef07	603805	4	main	z	50	rectangle	local	LVF	yes	present	1	624
60794cf6640dbc4d3662ef07	606413	4	main	z	51	square	global	RVF	yes	present	1	877
60794cf6640dbc4d3662ef07	609173	4	main	z	52	square	global	RVF	yes	present	1	826
60794cf6640dbc4d3662ef07	611837	4	main	z	53	rectangle	local	RVF	yes	present	1	1326
60794cf6640dbc4d3662ef07	614685	4	main	z	54	rectangle	global	LVF	yes	present	1	1210
60794cf6640dbc4d3662ef07	616541	4	main	z	55	square	global	LVF	yes	present	1	715
60794cf6640dbc4d3662ef07	618293	4	main	z	56	square	global	LVF	yes	present	1	571
60794cf6640dbc4d3662ef07	622235	4	main	z	57	absent	absent	absent	no	absent	1	2000
60794cf6640dbc4d3662ef07	624485	4	main	z	58	rectangle	global	LVF	yes	present	1	820
60794cf6640dbc4d3662ef07	627631	4	main	z	59	absent	absent	absent	no	absent	1	2000
60794cf6640dbc4d3662ef07	629341	4	main	z	60	square	global	LVF	yes	present	1	479
60794cf6640dbc4d3662ef07	631101	4	main	z	61	rectangle	global	RVF	yes	present	1	537
60794cf6640dbc4d3662ef07	633101	4	main	z	62	square	global	RVF	yes	present	1	987
60794cf6640dbc4d3662ef07	635149	4	main	z	63	rectangle	local	RVF	yes	present	1	1119
60794cf6640dbc4d3662ef07	637725	4	main	z	64	rectangle	global	LVF	yes	present	1	1663
60794cf6640dbc4d3662ef07	639533	4	main	z	65	square	global	RVF	yes	present	1	657
60794cf6640dbc4d3662ef07	641661	4	main	z	66	rectangle	local	RVF	yes	present	1	1066
60794cf6640dbc4d3662ef07	643205	4	main	z	67	square	local	LVF	yes	present	1	593
60794cf6640dbc4d3662ef07	645165	4	main	z	68	rectangle	local	LVF	yes	present	1	821
60794cf6640dbc4d3662ef07	646741	4	main	z	69	rectangle	global	RVF	yes	present	1	546
60794cf6640dbc4d3662ef07	650610	4	main	z	70	absent	absent	absent	no	absent	1	2000
60794cf6640dbc4d3662ef07	653037	4	main	z	71	rectangle	global	RVF	yes	present	1	1114
60794cf6640dbc4d3662ef07	656081	4	main	z	72	absent	absent	absent	no	absent	1	2000
60794cf6640dbc4d3662ef07	658205	4	main	z	73	square	local	RVF	yes	present	1	776
60794cf6640dbc4d3662ef07	659973	4	main	z	74	rectangle	local	RVF	yes	present	1	605
60794cf6640dbc4d3662ef07	661429	4	main	z	75	square	local	RVF	yes	present	1	477
60794cf6640dbc4d3662ef07	663269	4	main	z	76	square	local	RVF	yes	present	1	451
60794cf6640dbc4d3662ef07	664797	4	main	z	77	rectangle	local	LVF	yes	present	1	402
60794cf6640dbc4d3662ef07	666373	4	main	z	78	square	local	LVF	yes	present	1	512
60794cf6640dbc4d3662ef07	669274	4	main	z	79	rectangle	global	LVF	yes	absent	0	2000
60794cf6640dbc4d3662ef07	671093	4	main	z	80	square	local	LVF	yes	present	1	585
