subject	time_elapsed_ms	blocknum	block_type	block_response	trialnum	target	level	field	target_present	response	correct	rt
609a9aae2e53d2c195a1bba6	853431	1	practice	z	1	absent	absent	absent	no	absent	1	2000
609a9aae2e53d2c195a1bba6	857370	1	practice	z	2	square	local	LVF	yes	present	1	420
609a9aae2e53d2c195a1bba6	865494	1	practice	z	3	square	global	LVF	yes	present	1	1092
609a9aae2e53d2c195a1bba6	868683	1	practice	z	4	rectangle	local	RVF	yes	present	1	1091
609a9aae2e53d2c195a1bba6	871805	1	practice	z	5	absent	absent	absent	no	present	0	1004
609a9aae2e53d2c195a1bba6	874934	1	practice	z	6	square	local	LVF	yes	present	1	1053
609a9aae2e53d2c195a1bba6	877517	1	practice	z	7	rectangle	global	LVF	yes	present	1	538
609a9aae2e53d2c195a1bba6	879492	1	practice	z	8	square	global	RVF	yes	present	1	245
609a9aae2e53d2c195a1bba6	881750	1	practice	z	9	rectangle	local	RVF	yes	present	1	285
609a9aae2e53d2c195a1bba6	884112	1	practice	z	10	rectangle	global	RVF	yes	present	1	281
609a9aae2e53d2c195a1bba6	886365	1	practice	z	11	rectangle	local	RVF	yes	present	1	214
609a9aae2e53d2c195a1bba6	890413	1	practice	z	12	absent	absent	absent	no	absent	1	2000
609a9aae2e53d2c195a1bba6	893168	1	practice	z	13	rectangle	global	RVF	yes	present	1	689
609a9aae2e53d2c195a1bba6	896171	1	practice	z	14	absent	absent	absent	no	present	0	926
609a9aae2e53d2c195a1bba6	898809	1	practice	z	15	rectangle	global	LVF	yes	present	1	814
609a9aae2e53d2c195a1bba6	901122	1	practice	z	16	square	global	LVF	yes	present	1	427
609a9aae2e53d2c195a1bba6	919764	2	main	z	1	square	local	LVF	yes	present	1	888
609a9aae2e53d2c195a1bba6	922788	2	main	z	2	absent	absent	absent	no	present	0	914
609a9aae2e53d2c195a1bba6	926661	2	main	z	3	square	local	RVF	yes	absent	0	2000
609a9aae2e53d2c195a1bba6	929760	2	main	z	4	rectangle	local	LVF	yes	absent	0	2000
609a9aae2e53d2c195a1bba6	933159	2	main	z	5	square	local	LVF	yes	present	1	1584
609a9aae2e53d2c195a1bba6	935577	2	main	z	6	square	local	LVF	yes	present	1	753
609a9aae2e53d2c195a1bba6	938397	2	main	z	7	rectangle	local	LVF	yes	present	1	1207
609a9aae2e53d2c195a1bba6	941874	2	main	z	8	absent	absent	absent	no	absent	1	2000
609a9aae2e53d2c195a1bba6	943410	2	main	z	9	rectangle	global	RVF	yes	present	1	487
609a9aae2e53d2c195a1bba6	947076	2	main	z	10	square	global	LVF	yes	absent	0	2000
609a9aae2e53d2c195a1bba6	948498	2	main	z	11	rectangle	global	LVF	yes	present	1	325
609a9aae2e53d2c195a1bba6	951291	2	main	z	12	square	global	LVF	yes	present	1	468
609a9aae2e53d2c195a1bba6	953399	2	main	z	13	rectangle	global	RVF	yes	present	1	366
609a9aae2e53d2c195a1bba6	955330	2	main	z	14	square	global	RVF	yes	present	1	190
609a9aae2e53d2c195a1bba6	957639	2	main	z	15	square	global	RVF	yes	present	1	239
609a9aae2e53d2c195a1bba6	959614	2	main	z	16	absent	absent	absent	no	present	0	207
609a9aae2e53d2c195a1bba6	963206	2	main	z	17	rectangle	local	RVF	yes	absent	0	2000
609a9aae2e53d2c195a1bba6	964369	2	main	z	18	rectangle	local	RVF	yes	present	1	230
609a9aae2e53d2c195a1bba6	966348	2	main	z	19	square	local	RVF	yes	present	1	226
609a9aae2e53d2c195a1bba6	968581	2	main	z	20	square	global	LVF	yes	present	1	526
609a9aae2e53d2c195a1bba6	970763	2	main	z	21	absent	absent	absent	no	present	0	341
609a9aae2e53d2c195a1bba6	974289	2	main	z	22	square	global	RVF	yes	absent	0	2000
609a9aae2e53d2c195a1bba6	975802	2	main	z	23	rectangle	local	LVF	yes	present	1	580
609a9aae2e53d2c195a1bba6	977731	2	main	z	24	square	global	LVF	yes	present	1	309
609a9aae2e53d2c195a1bba6	980400	2	main	z	25	absent	absent	absent	no	present	0	1295
609a9aae2e53d2c195a1bba6	983488	2	main	z	26	rectangle	global	LVF	yes	absent	0	2000
609a9aae2e53d2c195a1bba6	986590	2	main	z	27	absent	absent	absent	no	absent	1	2000
609a9aae2e53d2c195a1bba6	988258	2	main	z	28	square	local	LVF	yes	present	1	603
609a9aae2e53d2c195a1bba6	992755	2	main	z	29	rectangle	global	RVF	yes	absent	0	2000
609a9aae2e53d2c195a1bba6	995939	2	main	z	30	absent	absent	absent	no	absent	1	2000
609a9aae2e53d2c195a1bba6	997392	2	main	z	31	rectangle	local	RVF	yes	present	1	488
609a9aae2e53d2c195a1bba6	998926	2	main	z	32	rectangle	global	LVF	yes	present	1	289
609a9aae2e53d2c195a1bba6	1000754	2	main	z	33	square	local	RVF	yes	present	1	500
609a9aae2e53d2c195a1bba6	1002115	2	main	z	34	rectangle	local	RVF	yes	present	1	244
609a9aae2e53d2c195a1bba6	1003631	2	main	z	35	rectangle	global	RVF	yes	present	1	244
609a9aae2e53d2c195a1bba6	1005377	2	main	z	36	square	global	RVF	yes	present	1	623
609a9aae2e53d2c195a1bba6	1006948	2	main	z	37	rectangle	local	LVF	yes	present	1	411
609a9aae2e53d2c195a1bba6	1008326	2	main	z	38	square	local	RVF	yes	present	1	254
609a9aae2e53d2c195a1bba6	1009634	2	main	z	39	absent	absent	absent	no	present	0	230
609a9aae2e53d2c195a1bba6	1011056	2	main	z	40	rectangle	global	LVF	yes	present	1	318
609a9aae2e53d2c195a1bba6	1012358	2	main	z	41	rectangle	global	LVF	yes	present	1	271
609a9aae2e53d2c195a1bba6	1014027	2	main	z	42	rectangle	local	LVF	yes	present	1	707
609a9aae2e53d2c195a1bba6	1227935	2	main	z	43	square	local	LVF	yes	present	1	558
609a9aae2e53d2c195a1bba6	1229400	2	main	z	44	rectangle	global	RVF	yes	present	1	240
609a9aae2e53d2c195a1bba6	1231069	2	main	z	45	square	global	RVF	yes	present	1	357
609a9aae2e53d2c195a1bba6	1232884	2	main	z	46	square	global	LVF	yes	present	1	523
609a9aae2e53d2c195a1bba6	1234306	2	main	z	47	absent	absent	absent	no	present	0	229
609a9aae2e53d2c195a1bba6	1235843	2	main	z	48	square	global	LVF	yes	present	1	300
609a9aae2e53d2c195a1bba6	1238962	2	main	z	49	rectangle	local	LVF	yes	absent	0	2000
609a9aae2e53d2c195a1bba6	1241911	2	main	z	50	square	local	RVF	yes	absent	0	2000
609a9aae2e53d2c195a1bba6	1243586	2	main	z	51	square	global	RVF	yes	present	1	676
609a9aae2e53d2c195a1bba6	1245701	2	main	z	52	absent	absent	absent	no	present	0	857
609a9aae2e53d2c195a1bba6	1249176	2	main	z	53	absent	absent	absent	no	absent	1	2000
609a9aae2e53d2c195a1bba6	1251477	2	main	z	54	square	local	RVF	yes	present	1	1251
609a9aae2e53d2c195a1bba6	1253603	2	main	z	55	square	local	LVF	yes	present	1	744
609a9aae2e53d2c195a1bba6	1258162	2	main	z	56	square	global	RVF	yes	present	1	1153
609a9aae2e53d2c195a1bba6	1259805	2	main	z	57	rectangle	global	LVF	yes	present	1	596
609a9aae2e53d2c195a1bba6	1261132	2	main	z	58	square	global	LVF	yes	present	1	223
609a9aae2e53d2c195a1bba6	1262592	2	main	z	59	square	local	LVF	yes	present	1	199
609a9aae2e53d2c195a1bba6	1266975	2	main	z	60	absent	absent	absent	no	absent	1	2000
609a9aae2e53d2c195a1bba6	1268726	2	main	z	61	absent	absent	absent	no	present	0	1084
609a9aae2e53d2c195a1bba6	1275267	2	main	z	62	square	global	RVF	yes	present	1	292
609a9aae2e53d2c195a1bba6	1276982	2	main	z	63	rectangle	local	RVF	yes	present	1	307
609a9aae2e53d2c195a1bba6	1278546	2	main	z	64	rectangle	global	LVF	yes	present	1	221
609a9aae2e53d2c195a1bba6	1279890	2	main	z	65	rectangle	global	RVF	yes	present	1	215
609a9aae2e53d2c195a1bba6	1281345	2	main	z	66	absent	absent	absent	no	present	0	268
609a9aae2e53d2c195a1bba6	1282669	2	main	z	67	rectangle	local	RVF	yes	present	1	245
609a9aae2e53d2c195a1bba6	1284007	2	main	z	68	square	local	LVF	yes	present	1	232
609a9aae2e53d2c195a1bba6	1285590	2	main	z	69	rectangle	global	RVF	yes	present	1	432
609a9aae2e53d2c195a1bba6	1287587	2	main	z	70	rectangle	local	LVF	yes	present	1	613
609a9aae2e53d2c195a1bba6	1289892	2	main	z	71	rectangle	global	LVF	yes	present	1	418
609a9aae2e53d2c195a1bba6	1291282	2	main	z	72	rectangle	global	RVF	yes	present	1	225
609a9aae2e53d2c195a1bba6	1292718	2	main	z	73	square	global	LVF	yes	present	1	261
609a9aae2e53d2c195a1bba6	1294707	2	main	z	74	rectangle	local	RVF	yes	present	1	300
609a9aae2e53d2c195a1bba6	1297976	2	main	z	75	absent	absent	absent	no	absent	1	2000
609a9aae2e53d2c195a1bba6	1301126	2	main	z	76	absent	absent	absent	no	absent	1	2000
609a9aae2e53d2c195a1bba6	1302499	2	main	z	77	rectangle	local	LVF	yes	present	1	556
609a9aae2e53d2c195a1bba6	1304406	2	main	z	78	square	local	RVF	yes	present	1	581
609a9aae2e53d2c195a1bba6	1306122	2	main	z	79	rectangle	local	RVF	yes	present	1	446
609a9aae2e53d2c195a1bba6	1307755	2	main	z	80	square	local	RVF	yes	present	1	480
609a9aae2e53d2c195a1bba6	1955679	3	practice	slash	1	rectangle	local	RVF	yes	absent	0	2000
609a9aae2e53d2c195a1bba6	1959595	3	practice	slash	2	square	global	LVF	yes	present	1	506
609a9aae2e53d2c195a1bba6	1962033	3	practice	slash	3	rectangle	local	RVF	yes	present	1	288
609a9aae2e53d2c195a1bba6	1964371	3	practice	slash	4	absent	absent	absent	no	present	0	343
609a9aae2e53d2c195a1bba6	1966484	3	practice	slash	5	absent	absent	absent	no	present	0	305
609a9aae2e53d2c195a1bba6	1969006	3	practice	slash	6	rectangle	global	RVF	yes	present	1	494
609a9aae2e53d2c195a1bba6	1971373	3	practice	slash	7	square	local	LVF	yes	present	1	313
609a9aae2e53d2c195a1bba6	1973562	3	practice	slash	8	absent	absent	absent	no	present	0	284
609a9aae2e53d2c195a1bba6	1975554	3	practice	slash	9	rectangle	global	LVF	yes	present	1	259
609a9aae2e53d2c195a1bba6	1977726	3	practice	slash	10	absent	absent	absent	no	present	0	215
609a9aae2e53d2c195a1bba6	1980249	3	practice	slash	11	square	local	LVF	yes	present	1	621
609a9aae2e53d2c195a1bba6	1982565	3	practice	slash	12	square	global	RVF	yes	present	1	321
609a9aae2e53d2c195a1bba6	1984721	3	practice	slash	13	square	global	LVF	yes	present	1	226
609a9aae2e53d2c195a1bba6	1986948	3	practice	slash	14	rectangle	global	RVF	yes	present	1	237
609a9aae2e53d2c195a1bba6	1988986	3	practice	slash	15	rectangle	local	RVF	yes	present	1	260
609a9aae2e53d2c195a1bba6	1991239	3	practice	slash	16	rectangle	global	LVF	yes	present	1	312
609a9aae2e53d2c195a1bba6	1996077	4	main	slash	1	absent	absent	absent	no	present	0	570
609a9aae2e53d2c195a1bba6	1997530	4	main	slash	2	square	global	LVF	yes	present	1	172
609a9aae2e53d2c195a1bba6	2000857	4	main	slash	3	absent	absent	absent	no	absent	1	2000
609a9aae2e53d2c195a1bba6	2002071	4	main	slash	4	absent	absent	absent	no	present	0	214
609a9aae2e53d2c195a1bba6	2003404	4	main	slash	5	absent	absent	absent	no	present	0	164
609a9aae2e53d2c195a1bba6	2004692	4	main	slash	6	square	local	RVF	yes	present	1	152
609a9aae2e53d2c195a1bba6	2006050	4	main	slash	7	rectangle	local	LVF	yes	present	1	177
609a9aae2e53d2c195a1bba6	2007257	4	main	slash	8	rectangle	local	RVF	yes	present	1	66
609a9aae2e53d2c195a1bba6	2008538	4	main	slash	9	square	local	RVF	yes	present	1	115
609a9aae2e53d2c195a1bba6	2009916	4	main	slash	10	absent	absent	absent	no	present	0	125
609a9aae2e53d2c195a1bba6	2011220	4	main	slash	11	rectangle	global	LVF	yes	present	1	113
609a9aae2e53d2c195a1bba6	2012443	4	main	slash	12	rectangle	local	RVF	yes	present	1	86
609a9aae2e53d2c195a1bba6	2013924	4	main	slash	13	absent	absent	absent	no	present	0	133
609a9aae2e53d2c195a1bba6	2017240	4	main	slash	14	rectangle	global	RVF	yes	absent	0	2000
609a9aae2e53d2c195a1bba6	2019138	4	main	slash	15	square	global	LVF	yes	present	1	332
609a9aae2e53d2c195a1bba6	2020525	4	main	slash	16	absent	absent	absent	no	present	0	185
609a9aae2e53d2c195a1bba6	2021781	4	main	slash	17	rectangle	global	RVF	yes	present	1	8
609a9aae2e53d2c195a1bba6	2023132	4	main	slash	18	square	local	LVF	yes	present	1	123
609a9aae2e53d2c195a1bba6	2024556	4	main	slash	19	square	local	LVF	yes	present	1	199
609a9aae2e53d2c195a1bba6	2025939	4	main	slash	20	rectangle	global	RVF	yes	present	1	216
609a9aae2e53d2c195a1bba6	2027343	4	main	slash	21	square	global	LVF	yes	present	1	220
609a9aae2e53d2c195a1bba6	2028646	4	main	slash	22	square	global	RVF	yes	present	1	57
609a9aae2e53d2c195a1bba6	2030101	4	main	slash	23	square	local	LVF	yes	present	1	179
609a9aae2e53d2c195a1bba6	2031428	4	main	slash	24	rectangle	local	LVF	yes	present	1	56
609a9aae2e53d2c195a1bba6	2032765	4	main	slash	25	rectangle	local	LVF	yes	present	1	59
609a9aae2e53d2c195a1bba6	2034015	4	main	slash	26	square	global	RVF	yes	present	1	124
609a9aae2e53d2c195a1bba6	2035495	4	main	slash	27	rectangle	local	LVF	yes	present	1	173
609a9aae2e53d2c195a1bba6	2036801	4	main	slash	28	square	local	LVF	yes	present	1	193
609a9aae2e53d2c195a1bba6	2038081	4	main	slash	29	square	global	LVF	yes	present	1	209
609a9aae2e53d2c195a1bba6	2039394	4	main	slash	30	rectangle	global	LVF	yes	present	1	239
609a9aae2e53d2c195a1bba6	2040538	4	main	slash	31	square	local	RVF	yes	present	1	49
609a9aae2e53d2c195a1bba6	2041772	4	main	slash	32	rectangle	local	RVF	yes	present	1	17
609a9aae2e53d2c195a1bba6	2042987	4	main	slash	33	rectangle	global	RVF	yes	present	1	32
609a9aae2e53d2c195a1bba6	2044668	4	main	slash	34	rectangle	global	LVF	yes	present	1	230
609a9aae2e53d2c195a1bba6	2046210	4	main	slash	35	square	local	RVF	yes	present	1	205
609a9aae2e53d2c195a1bba6	2047894	4	main	slash	36	rectangle	local	RVF	yes	present	1	289
609a9aae2e53d2c195a1bba6	2049342	4	main	slash	37	square	global	RVF	yes	present	1	253
609a9aae2e53d2c195a1bba6	2052755	4	main	slash	38	absent	absent	absent	no	absent	1	2000
609a9aae2e53d2c195a1bba6	2054190	4	main	slash	39	rectangle	global	LVF	yes	present	1	485
609a9aae2e53d2c195a1bba6	2055761	4	main	slash	40	square	global	RVF	yes	present	1	289
609a9aae2e53d2c195a1bba6	2057765	4	main	slash	41	absent	absent	absent	no	present	0	460
609a9aae2e53d2c195a1bba6	2061138	4	main	slash	42	square	global	LVF	yes	absent	0	2000
609a9aae2e53d2c195a1bba6	2064171	4	main	slash	43	rectangle	local	RVF	yes	absent	0	2000
609a9aae2e53d2c195a1bba6	2065925	4	main	slash	44	rectangle	local	RVF	yes	present	1	621
609a9aae2e53d2c195a1bba6	2068215	4	main	slash	45	absent	absent	absent	no	present	0	961
609a9aae2e53d2c195a1bba6	2069829	4	main	slash	46	rectangle	local	LVF	yes	present	1	425
609a9aae2e53d2c195a1bba6	2071316	4	main	slash	47	square	global	RVF	yes	present	1	229
609a9aae2e53d2c195a1bba6	2072880	4	main	slash	48	square	local	RVF	yes	present	1	210
609a9aae2e53d2c195a1bba6	2074422	4	main	slash	49	rectangle	global	LVF	yes	present	1	201
609a9aae2e53d2c195a1bba6	2076176	4	main	slash	50	square	local	LVF	yes	present	1	272
609a9aae2e53d2c195a1bba6	2078406	4	main	slash	51	square	local	LVF	yes	present	1	253
609a9aae2e53d2c195a1bba6	2079888	4	main	slash	52	rectangle	global	RVF	yes	present	1	268
609a9aae2e53d2c195a1bba6	2081320	4	main	slash	53	absent	absent	absent	no	present	0	233
609a9aae2e53d2c195a1bba6	2084820	4	main	slash	54	absent	absent	absent	no	absent	1	2000
609a9aae2e53d2c195a1bba6	2086637	4	main	slash	55	rectangle	local	RVF	yes	present	1	649
609a9aae2e53d2c195a1bba6	2088109	4	main	slash	56	rectangle	global	LVF	yes	present	1	273
609a9aae2e53d2c195a1bba6	2089742	4	main	slash	57	square	local	RVF	yes	present	1	306
609a9aae2e53d2c195a1bba6	2092277	4	main	slash	58	rectangle	global	LVF	yes	present	1	623
609a9aae2e53d2c195a1bba6	2094068	4	main	slash	59	rectangle	local	LVF	yes	present	1	331
609a9aae2e53d2c195a1bba6	2096064	4	main	slash	60	square	global	LVF	yes	present	1	295
609a9aae2e53d2c195a1bba6	2097531	4	main	slash	61	square	global	LVF	yes	present	1	228
609a9aae2e53d2c195a1bba6	2098986	4	main	slash	62	rectangle	global	LVF	yes	present	1	200
609a9aae2e53d2c195a1bba6	2100474	4	main	slash	63	rectangle	local	LVF	yes	present	1	204
609a9aae2e53d2c195a1bba6	2102115	4	main	slash	64	square	global	RVF	yes	present	1	95
609a9aae2e53d2c195a1bba6	2103563	4	main	slash	65	absent	absent	absent	no	present	0	210
609a9aae2e53d2c195a1bba6	2105138	4	main	slash	66	rectangle	global	RVF	yes	present	1	418
609a9aae2e53d2c195a1bba6	2106561	4	main	slash	67	square	local	RVF	yes	present	1	225
609a9aae2e53d2c195a1bba6	2107847	4	main	slash	68	absent	absent	absent	no	present	0	78
609a9aae2e53d2c195a1bba6	2109223	4	main	slash	69	square	local	LVF	yes	present	1	221
609a9aae2e53d2c195a1bba6	2110551	4	main	slash	70	square	global	RVF	yes	present	1	132
609a9aae2e53d2c195a1bba6	2112355	4	main	slash	71	square	global	LVF	yes	present	1	336
609a9aae2e53d2c195a1bba6	2115785	4	main	slash	72	absent	absent	absent	no	absent	1	2000
609a9aae2e53d2c195a1bba6	2117353	4	main	slash	73	absent	absent	absent	no	present	0	218
609a9aae2e53d2c195a1bba6	2118834	4	main	slash	74	rectangle	local	RVF	yes	present	1	347
609a9aae2e53d2c195a1bba6	2120261	4	main	slash	75	rectangle	global	RVF	yes	present	1	243
609a9aae2e53d2c195a1bba6	2122564	4	main	slash	76	rectangle	global	RVF	yes	present	1	1112
609a9aae2e53d2c195a1bba6	2123997	4	main	slash	77	square	global	RVF	yes	present	1	344
609a9aae2e53d2c195a1bba6	2125337	4	main	slash	78	rectangle	local	LVF	yes	present	1	219
609a9aae2e53d2c195a1bba6	2126472	4	main	slash	79	square	local	LVF	yes	present	1	136
609a9aae2e53d2c195a1bba6	2127839	4	main	slash	80	square	local	RVF	yes	present	1	221
