subject	time_elapsed_ms	blocknum	block_type	block_response	trialnum	target	level	field	target_present	response	correct	rt
60f8658bf9d1627d3bc87a3d	1147484	9.5	practice	z	1	rectangle	global	LVF	yes	absent	0	2000
60f8658bf9d1627d3bc87a3d	1152189	9.5	practice	z	2	rectangle	global	RVF	yes	present	1	438
60f8658bf9d1627d3bc87a3d	1157557	9.5	practice	z	3	absent	absent	absent	no	present	0	304
60f8658bf9d1627d3bc87a3d	1159947	9.5	practice	z	4	rectangle	global	RVF	yes	present	1	411
60f8658bf9d1627d3bc87a3d	1163293	9.5	practice	z	5	rectangle	local	RVF	yes	present	1	1240
60f8658bf9d1627d3bc87a3d	1166303	9.5	practice	z	6	square	global	LVF	yes	present	1	832
60f8658bf9d1627d3bc87a3d	1169064	9.5	practice	z	7	square	global	LVF	yes	present	1	576
60f8658bf9d1627d3bc87a3d	1172409	9.5	practice	z	8	absent	absent	absent	no	present	0	1020
60f8658bf9d1627d3bc87a3d	1175529	9.5	practice	z	9	square	global	RVF	yes	present	1	437
60f8658bf9d1627d3bc87a3d	1178615	9.5	practice	z	10	square	local	LVF	yes	present	1	908
60f8658bf9d1627d3bc87a3d	1182579	9.5	practice	z	11	absent	absent	absent	no	present	0	1038
60f8658bf9d1627d3bc87a3d	1186436	9.5	practice	z	12	rectangle	local	RVF	yes	present	1	929
60f8658bf9d1627d3bc87a3d	1190103	9.5	practice	z	13	rectangle	local	RVF	yes	present	1	1044
60f8658bf9d1627d3bc87a3d	1194259	9.5	practice	z	14	absent	absent	absent	no	absent	1	2000
60f8658bf9d1627d3bc87a3d	1197057	9.5	practice	z	15	rectangle	global	LVF	yes	present	1	481
60f8658bf9d1627d3bc87a3d	1201244	9.5	practice	z	16	square	local	LVF	yes	absent	0	2000
60f8658bf9d1627d3bc87a3d	1210904	10.5	main	z	1	rectangle	local	LVF	yes	present	1	744
60f8658bf9d1627d3bc87a3d	1212830	10.5	main	z	2	square	global	LVF	yes	present	1	511
60f8658bf9d1627d3bc87a3d	1215210	10.5	main	z	3	rectangle	global	LVF	yes	present	1	731
60f8658bf9d1627d3bc87a3d	1217231	10.5	main	z	4	rectangle	global	RVF	yes	present	1	753
60f8658bf9d1627d3bc87a3d	1219728	10.5	main	z	5	rectangle	global	RVF	yes	present	1	782
60f8658bf9d1627d3bc87a3d	1222845	10.5	main	z	6	square	local	LVF	yes	absent	0	2000
60f8658bf9d1627d3bc87a3d	1226304	10.5	main	z	7	rectangle	global	LVF	yes	present	1	591
60f8658bf9d1627d3bc87a3d	1229597	10.5	main	z	8	absent	absent	absent	no	absent	1	2000
60f8658bf9d1627d3bc87a3d	1231236	10.5	main	z	9	square	global	LVF	yes	present	1	555
60f8658bf9d1627d3bc87a3d	1234715	10.5	main	z	10	square	local	RVF	yes	absent	0	2000
60f8658bf9d1627d3bc87a3d	1237915	10.5	main	z	11	absent	absent	absent	no	absent	1	2000
60f8658bf9d1627d3bc87a3d	1241915	10.5	main	z	12	rectangle	local	LVF	yes	present	1	1065
60f8658bf9d1627d3bc87a3d	1245217	10.5	main	z	13	square	local	RVF	yes	absent	0	2000
60f8658bf9d1627d3bc87a3d	1246662	10.5	main	z	14	rectangle	global	LVF	yes	present	1	462
60f8658bf9d1627d3bc87a3d	1250168	10.5	main	z	15	absent	absent	absent	no	absent	1	2000
60f8658bf9d1627d3bc87a3d	1252251	10.5	main	z	16	rectangle	local	RVF	yes	present	1	1099
60f8658bf9d1627d3bc87a3d	1257019	10.5	main	z	17	absent	absent	absent	no	absent	1	2000
60f8658bf9d1627d3bc87a3d	1258822	10.5	main	z	18	rectangle	global	LVF	yes	present	1	552
60f8658bf9d1627d3bc87a3d	1261775	10.5	main	z	19	square	global	RVF	yes	present	1	672
60f8658bf9d1627d3bc87a3d	1263884	10.5	main	z	20	square	global	RVF	yes	present	1	931
60f8658bf9d1627d3bc87a3d	1266987	10.5	main	z	21	square	local	RVF	yes	absent	0	2000
60f8658bf9d1627d3bc87a3d	1270988	10.5	main	z	22	rectangle	local	RVF	yes	absent	0	2000
60f8658bf9d1627d3bc87a3d	1272936	10.5	main	z	23	absent	absent	absent	no	present	0	580
60f8658bf9d1627d3bc87a3d	1276323	10.5	main	z	24	absent	absent	absent	no	present	0	1818
60f8658bf9d1627d3bc87a3d	1280073	10.5	main	z	25	rectangle	local	RVF	yes	absent	0	2000
60f8658bf9d1627d3bc87a3d	1282394	10.5	main	z	26	rectangle	local	LVF	yes	present	1	637
60f8658bf9d1627d3bc87a3d	1284197	10.5	main	z	27	rectangle	global	RVF	yes	present	1	622
60f8658bf9d1627d3bc87a3d	1288791	10.5	main	z	28	square	local	LVF	yes	absent	0	2000
60f8658bf9d1627d3bc87a3d	1291892	10.5	main	z	29	square	local	LVF	yes	absent	0	2000
60f8658bf9d1627d3bc87a3d	1293766	10.5	main	z	30	square	local	LVF	yes	present	1	724
60f8658bf9d1627d3bc87a3d	1298844	10.5	main	z	31	rectangle	local	LVF	yes	absent	0	2000
60f8658bf9d1627d3bc87a3d	1301764	10.5	main	z	32	square	global	LVF	yes	present	1	987
60f8658bf9d1627d3bc87a3d	1305620	10.5	main	z	33	square	global	LVF	yes	present	1	641
60f8658bf9d1627d3bc87a3d	1309229	10.5	main	z	34	square	global	RVF	yes	absent	0	2000
60f8658bf9d1627d3bc87a3d	1311300	10.5	main	z	35	square	local	RVF	yes	present	1	1020
60f8658bf9d1627d3bc87a3d	1313586	10.5	main	z	36	absent	absent	absent	no	present	0	1154
60f8658bf9d1627d3bc87a3d	1315287	10.5	main	z	37	rectangle	global	RVF	yes	present	1	640
60f8658bf9d1627d3bc87a3d	1317381	10.5	main	z	38	absent	absent	absent	no	present	0	931
60f8658bf9d1627d3bc87a3d	1318989	10.5	main	z	39	square	global	RVF	yes	present	1	608
60f8658bf9d1627d3bc87a3d	1320366	10.5	main	z	40	rectangle	local	RVF	yes	present	1	336
60f8658bf9d1627d3bc87a3d	1323498	10.5	main	z	41	square	local	RVF	yes	absent	0	2000
60f8658bf9d1627d3bc87a3d	1327066	10.5	main	z	42	square	global	LVF	yes	absent	0	2000
60f8658bf9d1627d3bc87a3d	1329132	10.5	main	z	43	square	global	RVF	yes	present	1	449
60f8658bf9d1627d3bc87a3d	1332700	10.5	main	z	44	square	local	LVF	yes	absent	0	2000
60f8658bf9d1627d3bc87a3d	1334411	10.5	main	z	45	square	global	LVF	yes	present	1	610
60f8658bf9d1627d3bc87a3d	1337213	10.5	main	z	46	square	global	RVF	yes	present	1	695
60f8658bf9d1627d3bc87a3d	1338903	10.5	main	z	47	rectangle	global	LVF	yes	present	1	469
60f8658bf9d1627d3bc87a3d	1342918	10.5	main	z	48	absent	absent	absent	no	absent	1	2000
60f8658bf9d1627d3bc87a3d	1345919	10.5	main	z	49	rectangle	local	RVF	yes	absent	0	2000
60f8658bf9d1627d3bc87a3d	1349303	10.5	main	z	50	square	local	LVF	yes	absent	0	2000
60f8658bf9d1627d3bc87a3d	1352079	10.5	main	z	51	rectangle	local	LVF	yes	present	1	1326
60f8658bf9d1627d3bc87a3d	1355921	10.5	main	z	52	absent	absent	absent	no	absent	1	2000
60f8658bf9d1627d3bc87a3d	1358972	10.5	main	z	53	absent	absent	absent	no	absent	1	2000
60f8658bf9d1627d3bc87a3d	1360423	10.5	main	z	54	square	global	LVF	yes	present	1	751
60f8658bf9d1627d3bc87a3d	1364145	10.5	main	z	55	rectangle	global	RVF	yes	present	1	572
60f8658bf9d1627d3bc87a3d	1367323	10.5	main	z	56	rectangle	local	LVF	yes	absent	0	2000
60f8658bf9d1627d3bc87a3d	1369664	10.5	main	z	57	rectangle	global	RVF	yes	present	1	707
60f8658bf9d1627d3bc87a3d	1371829	10.5	main	z	58	rectangle	global	LVF	yes	present	1	556
60f8658bf9d1627d3bc87a3d	1375091	10.5	main	z	59	square	local	RVF	yes	absent	0	2000
60f8658bf9d1627d3bc87a3d	1378442	10.5	main	z	60	square	local	RVF	yes	absent	0	2000
60f8658bf9d1627d3bc87a3d	1383009	10.5	main	z	61	rectangle	local	LVF	yes	absent	0	2000
60f8658bf9d1627d3bc87a3d	1386510	10.5	main	z	62	absent	absent	absent	no	absent	1	2000
60f8658bf9d1627d3bc87a3d	1389911	10.5	main	z	63	absent	absent	absent	no	absent	1	2000
60f8658bf9d1627d3bc87a3d	1393545	10.5	main	z	64	rectangle	local	RVF	yes	absent	0	2000
60f8658bf9d1627d3bc87a3d	1396345	10.5	main	z	65	rectangle	local	RVF	yes	absent	0	2000
60f8658bf9d1627d3bc87a3d	1399012	10.5	main	z	66	rectangle	local	RVF	yes	absent	0	2000
60f8658bf9d1627d3bc87a3d	1403046	10.5	main	z	67	absent	absent	absent	no	absent	1	2000
60f8658bf9d1627d3bc87a3d	1405568	10.5	main	z	68	absent	absent	absent	no	present	0	737
60f8658bf9d1627d3bc87a3d	1410881	10.5	main	z	69	square	local	LVF	yes	absent	0	2000
60f8658bf9d1627d3bc87a3d	1414633	10.5	main	z	70	absent	absent	absent	no	absent	1	2000
60f8658bf9d1627d3bc87a3d	1416178	10.5	main	z	71	square	global	RVF	yes	present	1	413
60f8658bf9d1627d3bc87a3d	1418449	10.5	main	z	72	rectangle	global	RVF	yes	present	1	508
60f8658bf9d1627d3bc87a3d	1420580	10.5	main	z	73	square	global	LVF	yes	present	1	446
60f8658bf9d1627d3bc87a3d	1422411	10.5	main	z	74	rectangle	global	RVF	yes	present	1	427
60f8658bf9d1627d3bc87a3d	1425484	10.5	main	z	75	square	local	LVF	yes	absent	0	2000
60f8658bf9d1627d3bc87a3d	1427047	10.5	main	z	76	square	global	RVF	yes	present	1	579
60f8658bf9d1627d3bc87a3d	1430535	10.5	main	z	77	square	local	RVF	yes	absent	0	2000
60f8658bf9d1627d3bc87a3d	1433836	10.5	main	z	78	rectangle	local	LVF	yes	absent	0	2000
60f8658bf9d1627d3bc87a3d	1437003	10.5	main	z	79	rectangle	global	LVF	yes	absent	0	2000
60f8658bf9d1627d3bc87a3d	1438545	10.5	main	z	80	rectangle	global	LVF	yes	present	1	342
60f8658bf9d1627d3bc87a3d	1467711	11.5	practice	slash	1	rectangle	local	RVF	yes	absent	0	2000
60f8658bf9d1627d3bc87a3d	1471869	11.5	practice	slash	2	rectangle	local	RVF	yes	present	1	990
60f8658bf9d1627d3bc87a3d	1478596	11.5	practice	slash	3	square	local	LVF	yes	absent	0	2000
60f8658bf9d1627d3bc87a3d	1483946	11.5	practice	slash	4	rectangle	global	RVF	yes	present	1	365
60f8658bf9d1627d3bc87a3d	1486458	11.5	practice	slash	5	rectangle	global	LVF	yes	present	1	358
60f8658bf9d1627d3bc87a3d	1489052	11.5	practice	slash	6	square	global	LVF	yes	present	1	403
60f8658bf9d1627d3bc87a3d	1491515	11.5	practice	slash	7	rectangle	global	RVF	yes	present	1	375
60f8658bf9d1627d3bc87a3d	1495800	11.5	practice	slash	8	absent	absent	absent	no	absent	1	2000
60f8658bf9d1627d3bc87a3d	1502068	11.5	practice	slash	9	absent	absent	absent	no	absent	1	2000
60f8658bf9d1627d3bc87a3d	1505443	11.5	practice	slash	10	absent	absent	absent	no	present	0	1208
60f8658bf9d1627d3bc87a3d	1508185	11.5	practice	slash	11	rectangle	global	LVF	yes	present	1	515
60f8658bf9d1627d3bc87a3d	1511288	11.5	practice	slash	12	square	global	LVF	yes	present	1	468
60f8658bf9d1627d3bc87a3d	1515420	11.5	practice	slash	13	rectangle	local	RVF	yes	absent	0	2000
60f8658bf9d1627d3bc87a3d	1518039	11.5	practice	slash	14	square	global	RVF	yes	present	1	469
60f8658bf9d1627d3bc87a3d	1522689	11.5	practice	slash	15	absent	absent	absent	no	absent	1	2000
60f8658bf9d1627d3bc87a3d	1527006	11.5	practice	slash	16	square	local	LVF	yes	absent	0	2000
60f8658bf9d1627d3bc87a3d	1571762	12.5	main	slash	1	absent	absent	absent	no	absent	1	2000
60f8658bf9d1627d3bc87a3d	1574997	12.5	main	slash	2	square	local	LVF	yes	absent	0	2000
60f8658bf9d1627d3bc87a3d	1577146	12.5	main	slash	3	absent	absent	absent	no	present	0	1000
60f8658bf9d1627d3bc87a3d	1581397	12.5	main	slash	4	square	local	RVF	yes	absent	0	2000
60f8658bf9d1627d3bc87a3d	1582897	12.5	main	slash	5	square	global	LVF	yes	present	1	566
60f8658bf9d1627d3bc87a3d	1585035	12.5	main	slash	6	square	global	RVF	yes	present	1	466
60f8658bf9d1627d3bc87a3d	1589072	12.5	main	slash	7	square	local	LVF	yes	present	1	990
60f8658bf9d1627d3bc87a3d	1590654	12.5	main	slash	8	rectangle	global	LVF	yes	present	1	449
60f8658bf9d1627d3bc87a3d	1593868	12.5	main	slash	9	absent	absent	absent	no	absent	1	2000
60f8658bf9d1627d3bc87a3d	1596833	12.5	main	slash	10	absent	absent	absent	no	absent	1	2000
60f8658bf9d1627d3bc87a3d	1598300	12.5	main	slash	11	square	global	LVF	yes	present	1	506
60f8658bf9d1627d3bc87a3d	1600155	12.5	main	slash	12	rectangle	global	LVF	yes	present	1	339
60f8658bf9d1627d3bc87a3d	1603584	12.5	main	slash	13	absent	absent	absent	no	absent	1	2000
60f8658bf9d1627d3bc87a3d	1605089	12.5	main	slash	14	rectangle	global	RVF	yes	present	1	455
60f8658bf9d1627d3bc87a3d	1607163	12.5	main	slash	15	square	global	LVF	yes	present	1	444
60f8658bf9d1627d3bc87a3d	1609202	12.5	main	slash	16	square	global	RVF	yes	present	1	466
60f8658bf9d1627d3bc87a3d	1614320	12.5	main	slash	17	rectangle	local	RVF	yes	absent	0	2000
60f8658bf9d1627d3bc87a3d	1615937	12.5	main	slash	18	rectangle	global	RVF	yes	present	1	378
60f8658bf9d1627d3bc87a3d	1617980	12.5	main	slash	19	rectangle	global	LVF	yes	present	1	426
60f8658bf9d1627d3bc87a3d	1622521	12.5	main	slash	20	absent	absent	absent	no	absent	1	2000
60f8658bf9d1627d3bc87a3d	1624022	12.5	main	slash	21	rectangle	global	LVF	yes	present	1	370
60f8658bf9d1627d3bc87a3d	1627239	12.5	main	slash	22	square	local	RVF	yes	absent	0	2000
60f8658bf9d1627d3bc87a3d	1628822	12.5	main	slash	23	rectangle	global	RVF	yes	present	1	399
60f8658bf9d1627d3bc87a3d	1630824	12.5	main	slash	24	rectangle	global	RVF	yes	present	1	351
60f8658bf9d1627d3bc87a3d	1632477	12.5	main	slash	25	square	global	RVF	yes	present	1	420
60f8658bf9d1627d3bc87a3d	1635657	12.5	main	slash	26	rectangle	local	RVF	yes	absent	0	2000
60f8658bf9d1627d3bc87a3d	1637316	12.5	main	slash	27	square	global	RVF	yes	present	1	392
60f8658bf9d1627d3bc87a3d	1640874	12.5	main	slash	28	rectangle	local	LVF	yes	absent	0	2000
60f8658bf9d1627d3bc87a3d	1644025	12.5	main	slash	29	rectangle	local	RVF	yes	absent	0	2000
60f8658bf9d1627d3bc87a3d	1647243	12.5	main	slash	30	square	local	LVF	yes	absent	0	2000
60f8658bf9d1627d3bc87a3d	1650443	12.5	main	slash	31	absent	absent	absent	no	absent	1	2000
60f8658bf9d1627d3bc87a3d	1653760	12.5	main	slash	32	square	local	RVF	yes	absent	0	2000
60f8658bf9d1627d3bc87a3d	1656928	12.5	main	slash	33	rectangle	local	LVF	yes	absent	0	2000
60f8658bf9d1627d3bc87a3d	1660111	12.5	main	slash	34	rectangle	local	RVF	yes	absent	0	2000
60f8658bf9d1627d3bc87a3d	1663212	12.5	main	slash	35	square	local	LVF	yes	absent	0	2000
60f8658bf9d1627d3bc87a3d	1666496	12.5	main	slash	36	square	local	RVF	yes	absent	0	2000
60f8658bf9d1627d3bc87a3d	1669613	12.5	main	slash	37	absent	absent	absent	no	absent	1	2000
60f8658bf9d1627d3bc87a3d	1671455	12.5	main	slash	38	square	global	LVF	yes	present	1	691
60f8658bf9d1627d3bc87a3d	1675131	12.5	main	slash	39	rectangle	local	LVF	yes	absent	0	2000
60f8658bf9d1627d3bc87a3d	1676673	12.5	main	slash	40	rectangle	local	LVF	yes	present	1	458
60f8658bf9d1627d3bc87a3d	1679865	12.5	main	slash	41	absent	absent	absent	no	absent	1	2000
60f8658bf9d1627d3bc87a3d	1681379	12.5	main	slash	42	square	global	LVF	yes	present	1	596
60f8658bf9d1627d3bc87a3d	1683056	12.5	main	slash	43	rectangle	global	LVF	yes	present	1	389
60f8658bf9d1627d3bc87a3d	1684550	12.5	main	slash	44	rectangle	global	RVF	yes	present	1	433
60f8658bf9d1627d3bc87a3d	1685963	12.5	main	slash	45	rectangle	global	RVF	yes	present	1	429
60f8658bf9d1627d3bc87a3d	1689050	12.5	main	slash	46	absent	absent	absent	no	absent	1	2000
60f8658bf9d1627d3bc87a3d	1690629	12.5	main	slash	47	square	global	RVF	yes	present	1	578
60f8658bf9d1627d3bc87a3d	1694068	12.5	main	slash	48	square	local	LVF	yes	absent	0	2000
60f8658bf9d1627d3bc87a3d	1697319	12.5	main	slash	49	absent	absent	absent	no	absent	1	2000
60f8658bf9d1627d3bc87a3d	1698341	12.5	main	slash	50	rectangle	global	RVF	yes	present	1	289
60f8658bf9d1627d3bc87a3d	1702753	12.5	main	slash	51	absent	absent	absent	no	absent	1	2000
60f8658bf9d1627d3bc87a3d	1706004	12.5	main	slash	52	absent	absent	absent	no	absent	1	2000
60f8658bf9d1627d3bc87a3d	1709104	12.5	main	slash	53	rectangle	local	LVF	yes	absent	0	2000
60f8658bf9d1627d3bc87a3d	1711204	12.5	main	slash	54	square	global	LVF	yes	present	1	665
60f8658bf9d1627d3bc87a3d	1714555	12.5	main	slash	55	absent	absent	absent	no	absent	1	2000
60f8658bf9d1627d3bc87a3d	1717740	12.5	main	slash	56	rectangle	local	LVF	yes	absent	0	2000
60f8658bf9d1627d3bc87a3d	1719283	12.5	main	slash	57	square	global	LVF	yes	present	1	443
60f8658bf9d1627d3bc87a3d	1722960	12.5	main	slash	58	rectangle	global	LVF	yes	present	1	337
60f8658bf9d1627d3bc87a3d	1728358	12.5	main	slash	59	absent	absent	absent	no	absent	1	2000
60f8658bf9d1627d3bc87a3d	1732642	12.5	main	slash	60	rectangle	local	RVF	yes	absent	0	2000
60f8658bf9d1627d3bc87a3d	1735826	12.5	main	slash	61	square	local	LVF	yes	absent	0	2000
60f8658bf9d1627d3bc87a3d	1737238	12.5	main	slash	62	rectangle	global	LVF	yes	present	1	361
60f8658bf9d1627d3bc87a3d	1740443	12.5	main	slash	63	rectangle	local	RVF	yes	absent	0	2000
60f8658bf9d1627d3bc87a3d	1743961	12.5	main	slash	64	rectangle	local	RVF	yes	absent	0	2000
60f8658bf9d1627d3bc87a3d	1747128	12.5	main	slash	65	rectangle	local	LVF	yes	absent	0	2000
60f8658bf9d1627d3bc87a3d	1750445	12.5	main	slash	66	rectangle	local	RVF	yes	absent	0	2000
60f8658bf9d1627d3bc87a3d	1753496	12.5	main	slash	67	square	local	LVF	yes	absent	0	2000
60f8658bf9d1627d3bc87a3d	1755591	12.5	main	slash	68	square	global	RVF	yes	present	1	478
60f8658bf9d1627d3bc87a3d	1757151	12.5	main	slash	69	square	global	LVF	yes	present	1	355
60f8658bf9d1627d3bc87a3d	1760164	12.5	main	slash	70	square	local	RVF	yes	absent	0	2000
60f8658bf9d1627d3bc87a3d	1761735	12.5	main	slash	71	square	global	RVF	yes	present	1	420
60f8658bf9d1627d3bc87a3d	1768148	12.5	main	slash	72	rectangle	local	LVF	yes	absent	0	2000
60f8658bf9d1627d3bc87a3d	1778200	12.5	main	slash	73	absent	absent	absent	no	absent	1	2000
60f8658bf9d1627d3bc87a3d	1782851	12.5	main	slash	74	square	local	RVF	yes	absent	0	2000
60f8658bf9d1627d3bc87a3d	1785985	12.5	main	slash	75	square	local	LVF	yes	absent	0	2000
60f8658bf9d1627d3bc87a3d	1787574	12.5	main	slash	76	rectangle	global	RVF	yes	present	1	338
60f8658bf9d1627d3bc87a3d	1791003	12.5	main	slash	77	square	local	RVF	yes	absent	0	2000
60f8658bf9d1627d3bc87a3d	1794258	12.5	main	slash	78	rectangle	global	LVF	yes	present	1	1538
60f8658bf9d1627d3bc87a3d	1796903	12.5	main	slash	79	square	global	RVF	yes	present	1	465
60f8658bf9d1627d3bc87a3d	1800938	12.5	main	slash	80	square	local	RVF	yes	absent	0	2000
