subject	time_elapsed_ms	blocknum	block_type	block_response	trialnum	target	level	field	target_present	response	correct	rt
611409d13bdb227076c9426b	564910	9.5	practice	slash	1	absent	absent	absent	no	absent	1	2000
611409d13bdb227076c9426b	570295	9.5	practice	slash	2	rectangle	global	RVF	yes	present	1	1878
611409d13bdb227076c9426b	576175	9.5	practice	slash	3	absent	absent	absent	no	absent	1	2000
611409d13bdb227076c9426b	579856	9.5	practice	slash	4	square	global	LVF	yes	present	1	1030
611409d13bdb227076c9426b	584231	9.5	practice	slash	5	rectangle	local	RVF	yes	absent	0	2000
611409d13bdb227076c9426b	587415	9.5	practice	slash	6	rectangle	global	RVF	yes	present	1	944
611409d13bdb227076c9426b	590720	9.5	practice	slash	7	square	local	LVF	yes	present	1	1079
611409d13bdb227076c9426b	594015	9.5	practice	slash	8	rectangle	global	LVF	yes	present	1	1196
611409d13bdb227076c9426b	596805	9.5	practice	slash	9	square	global	LVF	yes	present	1	816
611409d13bdb227076c9426b	599928	9.5	practice	slash	10	rectangle	local	RVF	yes	present	1	1163
611409d13bdb227076c9426b	602730	9.5	practice	slash	11	rectangle	global	LVF	yes	present	1	765
611409d13bdb227076c9426b	605474	9.5	practice	slash	12	square	local	LVF	yes	present	1	851
611409d13bdb227076c9426b	608054	9.5	practice	slash	13	absent	absent	absent	no	present	0	631
611409d13bdb227076c9426b	612007	9.5	practice	slash	14	absent	absent	absent	no	absent	1	2000
611409d13bdb227076c9426b	614359	9.5	practice	slash	15	rectangle	local	RVF	yes	present	1	341
611409d13bdb227076c9426b	616802	9.5	practice	slash	16	square	global	RVF	yes	present	1	471
611409d13bdb227076c9426b	623671	10.5	main	slash	1	absent	absent	absent	no	absent	1	2000
611409d13bdb227076c9426b	626924	10.5	main	slash	2	absent	absent	absent	no	absent	1	2000
611409d13bdb227076c9426b	628579	10.5	main	slash	3	rectangle	global	RVF	yes	present	1	327
611409d13bdb227076c9426b	630408	10.5	main	slash	4	square	local	LVF	yes	present	1	500
611409d13bdb227076c9426b	631996	10.5	main	slash	5	rectangle	local	RVF	yes	present	1	438
611409d13bdb227076c9426b	633428	10.5	main	slash	6	rectangle	global	LVF	yes	present	1	301
611409d13bdb227076c9426b	634970	10.5	main	slash	7	rectangle	global	LVF	yes	present	1	345
611409d13bdb227076c9426b	638003	10.5	main	slash	8	absent	absent	absent	no	absent	1	2000
611409d13bdb227076c9426b	640016	10.5	main	slash	9	absent	absent	absent	no	present	0	773
611409d13bdb227076c9426b	641621	10.5	main	slash	10	square	local	LVF	yes	present	1	382
611409d13bdb227076c9426b	643027	10.5	main	slash	11	absent	absent	absent	no	present	0	342
611409d13bdb227076c9426b	644613	10.5	main	slash	12	rectangle	global	LVF	yes	present	1	579
611409d13bdb227076c9426b	647569	10.5	main	slash	13	absent	absent	absent	no	absent	1	2000
611409d13bdb227076c9426b	650046	10.5	main	slash	14	rectangle	global	RVF	yes	present	1	1025
611409d13bdb227076c9426b	653244	10.5	main	slash	15	rectangle	local	RVF	yes	absent	0	2000
611409d13bdb227076c9426b	655710	10.5	main	slash	16	rectangle	local	LVF	yes	present	1	617
611409d13bdb227076c9426b	659008	10.5	main	slash	17	rectangle	local	RVF	yes	absent	0	2000
611409d13bdb227076c9426b	660414	10.5	main	slash	18	square	global	RVF	yes	present	1	350
611409d13bdb227076c9426b	662247	10.5	main	slash	19	absent	absent	absent	no	present	0	727
611409d13bdb227076c9426b	663943	10.5	main	slash	20	square	local	RVF	yes	present	1	653
611409d13bdb227076c9426b	666943	10.5	main	slash	21	rectangle	local	RVF	yes	absent	0	2000
611409d13bdb227076c9426b	668499	10.5	main	slash	22	square	global	LVF	yes	present	1	328
611409d13bdb227076c9426b	670102	10.5	main	slash	23	rectangle	global	LVF	yes	present	1	496
611409d13bdb227076c9426b	671771	10.5	main	slash	24	rectangle	global	RVF	yes	present	1	763
611409d13bdb227076c9426b	674136	10.5	main	slash	25	rectangle	local	LVF	yes	present	1	1202
611409d13bdb227076c9426b	677226	10.5	main	slash	26	square	global	LVF	yes	absent	0	2000
611409d13bdb227076c9426b	680397	10.5	main	slash	27	square	global	RVF	yes	absent	0	2000
611409d13bdb227076c9426b	681850	10.5	main	slash	28	square	global	RVF	yes	present	1	379
611409d13bdb227076c9426b	683528	10.5	main	slash	29	square	local	RVF	yes	present	1	617
611409d13bdb227076c9426b	684946	10.5	main	slash	30	square	global	RVF	yes	present	1	388
611409d13bdb227076c9426b	686632	10.5	main	slash	31	rectangle	local	LVF	yes	present	1	601
611409d13bdb227076c9426b	688300	10.5	main	slash	32	square	local	LVF	yes	present	1	550
611409d13bdb227076c9426b	690119	10.5	main	slash	33	rectangle	global	RVF	yes	present	1	812
611409d13bdb227076c9426b	693162	10.5	main	slash	34	absent	absent	absent	no	absent	1	2000
611409d13bdb227076c9426b	694757	10.5	main	slash	35	square	local	RVF	yes	present	1	503
611409d13bdb227076c9426b	696501	10.5	main	slash	36	square	local	RVF	yes	present	1	729
611409d13bdb227076c9426b	698018	10.5	main	slash	37	square	local	LVF	yes	present	1	542
611409d13bdb227076c9426b	699747	10.5	main	slash	38	rectangle	local	LVF	yes	present	1	663
611409d13bdb227076c9426b	701414	10.5	main	slash	39	square	global	LVF	yes	present	1	710
611409d13bdb227076c9426b	702758	10.5	main	slash	40	square	global	LVF	yes	present	1	463
611409d13bdb227076c9426b	704742	10.5	main	slash	41	rectangle	local	RVF	yes	present	1	1042
611409d13bdb227076c9426b	706225	10.5	main	slash	42	square	global	LVF	yes	present	1	410
611409d13bdb227076c9426b	707681	10.5	main	slash	43	square	global	RVF	yes	present	1	483
611409d13bdb227076c9426b	709367	10.5	main	slash	44	square	local	LVF	yes	present	1	752
611409d13bdb227076c9426b	710934	10.5	main	slash	45	rectangle	global	LVF	yes	present	1	613
611409d13bdb227076c9426b	712373	10.5	main	slash	46	square	global	LVF	yes	present	1	495
611409d13bdb227076c9426b	713917	10.5	main	slash	47	square	global	RVF	yes	present	1	669
611409d13bdb227076c9426b	716837	10.5	main	slash	48	square	local	RVF	yes	absent	0	2000
611409d13bdb227076c9426b	718817	10.5	main	slash	49	absent	absent	absent	no	present	0	707
611409d13bdb227076c9426b	720236	10.5	main	slash	50	rectangle	global	RVF	yes	present	1	374
611409d13bdb227076c9426b	721832	10.5	main	slash	51	rectangle	local	LVF	yes	present	1	671
611409d13bdb227076c9426b	723242	10.5	main	slash	52	rectangle	global	RVF	yes	present	1	412
611409d13bdb227076c9426b	724568	10.5	main	slash	53	square	global	LVF	yes	present	1	422
611409d13bdb227076c9426b	726095	10.5	main	slash	54	rectangle	global	RVF	yes	present	1	614
611409d13bdb227076c9426b	727728	10.5	main	slash	55	rectangle	local	RVF	yes	present	1	644
611409d13bdb227076c9426b	729369	10.5	main	slash	56	rectangle	local	RVF	yes	present	1	731
611409d13bdb227076c9426b	732310	10.5	main	slash	57	absent	absent	absent	no	absent	1	2000
611409d13bdb227076c9426b	733871	10.5	main	slash	58	absent	absent	absent	no	present	0	563
611409d13bdb227076c9426b	735087	10.5	main	slash	59	rectangle	global	LVF	yes	present	1	310
611409d13bdb227076c9426b	736444	10.5	main	slash	60	rectangle	global	LVF	yes	present	1	386
611409d13bdb227076c9426b	737771	10.5	main	slash	61	rectangle	global	LVF	yes	present	1	391
611409d13bdb227076c9426b	739387	10.5	main	slash	62	rectangle	local	LVF	yes	present	1	706
611409d13bdb227076c9426b	742429	10.5	main	slash	63	absent	absent	absent	no	absent	1	2000
611409d13bdb227076c9426b	743820	10.5	main	slash	64	square	local	RVF	yes	present	1	258
611409d13bdb227076c9426b	745593	10.5	main	slash	65	rectangle	local	LVF	yes	present	1	868
611409d13bdb227076c9426b	747563	10.5	main	slash	66	rectangle	local	RVF	yes	present	1	320
611409d13bdb227076c9426b	749677	10.5	main	slash	67	square	local	RVF	yes	present	1	957
611409d13bdb227076c9426b	752620	10.5	main	slash	68	absent	absent	absent	no	absent	1	2000
611409d13bdb227076c9426b	755764	10.5	main	slash	69	absent	absent	absent	no	absent	1	2000
611409d13bdb227076c9426b	757611	10.5	main	slash	70	square	local	LVF	yes	present	1	626
611409d13bdb227076c9426b	758907	10.5	main	slash	71	square	local	LVF	yes	present	1	306
611409d13bdb227076c9426b	760536	10.5	main	slash	72	square	global	RVF	yes	present	1	650
611409d13bdb227076c9426b	764097	10.5	main	slash	73	rectangle	global	RVF	yes	absent	0	2000
611409d13bdb227076c9426b	765830	10.5	main	slash	74	square	local	RVF	yes	present	1	456
611409d13bdb227076c9426b	767353	10.5	main	slash	75	square	global	RVF	yes	present	1	570
611409d13bdb227076c9426b	769455	10.5	main	slash	76	absent	absent	absent	no	present	0	913
611409d13bdb227076c9426b	772705	10.5	main	slash	77	absent	absent	absent	no	absent	1	2000
611409d13bdb227076c9426b	774178	10.5	main	slash	78	square	global	LVF	yes	present	1	328
611409d13bdb227076c9426b	775648	10.5	main	slash	79	square	local	LVF	yes	present	1	537
611409d13bdb227076c9426b	777038	10.5	main	slash	80	rectangle	local	LVF	yes	present	1	509
611409d13bdb227076c9426b	801191	11.5	practice	z	1	rectangle	global	LVF	yes	present	1	521
611409d13bdb227076c9426b	803752	11.5	practice	z	2	rectangle	local	RVF	yes	present	1	337
611409d13bdb227076c9426b	806371	11.5	practice	z	3	absent	absent	absent	no	present	0	622
611409d13bdb227076c9426b	809218	11.5	practice	z	4	absent	absent	absent	no	present	0	908
611409d13bdb227076c9426b	811595	11.5	practice	z	5	square	global	RVF	yes	present	1	470
611409d13bdb227076c9426b	814272	11.5	practice	z	6	square	local	LVF	yes	present	1	729
611409d13bdb227076c9426b	816769	11.5	practice	z	7	rectangle	local	RVF	yes	present	1	551
611409d13bdb227076c9426b	819816	11.5	practice	z	8	rectangle	global	RVF	yes	present	1	900
611409d13bdb227076c9426b	823772	11.5	practice	z	9	absent	absent	absent	no	absent	1	2000
611409d13bdb227076c9426b	826657	11.5	practice	z	10	square	global	LVF	yes	present	1	478
611409d13bdb227076c9426b	829200	11.5	practice	z	11	square	global	LVF	yes	present	1	538
611409d13bdb227076c9426b	831739	11.5	practice	z	12	square	local	LVF	yes	present	1	603
611409d13bdb227076c9426b	834875	11.5	practice	z	13	rectangle	local	RVF	yes	present	1	1227
611409d13bdb227076c9426b	837158	11.5	practice	z	14	rectangle	global	LVF	yes	present	1	426
611409d13bdb227076c9426b	840189	11.5	practice	z	15	rectangle	global	RVF	yes	present	1	1086
611409d13bdb227076c9426b	842857	11.5	practice	z	16	absent	absent	absent	no	present	0	810
611409d13bdb227076c9426b	846143	12.5	main	z	1	square	global	RVF	yes	present	1	438
611409d13bdb227076c9426b	848172	12.5	main	z	2	rectangle	global	LVF	yes	present	1	405
611409d13bdb227076c9426b	849668	12.5	main	z	3	rectangle	global	LVF	yes	present	1	391
611409d13bdb227076c9426b	852753	12.5	main	z	4	absent	absent	absent	no	absent	1	2000
611409d13bdb227076c9426b	854271	12.5	main	z	5	absent	absent	absent	no	present	0	340
611409d13bdb227076c9426b	856939	12.5	main	z	6	rectangle	global	LVF	yes	present	1	1577
611409d13bdb227076c9426b	860276	12.5	main	z	7	rectangle	local	RVF	yes	absent	0	2000
611409d13bdb227076c9426b	861915	12.5	main	z	8	square	global	LVF	yes	present	1	442
611409d13bdb227076c9426b	863506	12.5	main	z	9	square	global	RVF	yes	present	1	569
611409d13bdb227076c9426b	865033	12.5	main	z	10	square	global	RVF	yes	present	1	457
611409d13bdb227076c9426b	866468	12.5	main	z	11	square	global	LVF	yes	present	1	467
611409d13bdb227076c9426b	869382	12.5	main	z	12	absent	absent	absent	no	absent	1	2000
611409d13bdb227076c9426b	870655	12.5	main	z	13	rectangle	global	LVF	yes	present	1	327
611409d13bdb227076c9426b	873561	12.5	main	z	14	absent	absent	absent	no	absent	1	2000
611409d13bdb227076c9426b	875162	12.5	main	z	15	square	local	RVF	yes	present	1	249
611409d13bdb227076c9426b	878204	12.5	main	z	16	absent	absent	absent	no	absent	1	2000
611409d13bdb227076c9426b	879535	12.5	main	z	17	square	global	LVF	yes	present	1	289
611409d13bdb227076c9426b	880935	12.5	main	z	18	rectangle	global	RVF	yes	present	1	444
611409d13bdb227076c9426b	882577	12.5	main	z	19	square	local	LVF	yes	present	1	619
611409d13bdb227076c9426b	884151	12.5	main	z	20	rectangle	local	LVF	yes	present	1	555
611409d13bdb227076c9426b	885758	12.5	main	z	21	square	local	LVF	yes	present	1	621
611409d13bdb227076c9426b	888824	12.5	main	z	22	absent	absent	absent	no	absent	1	2000
611409d13bdb227076c9426b	890492	12.5	main	z	23	rectangle	local	RVF	yes	present	1	499
611409d13bdb227076c9426b	891855	12.5	main	z	24	square	local	RVF	yes	present	1	403
611409d13bdb227076c9426b	893301	12.5	main	z	25	square	local	LVF	yes	present	1	446
611409d13bdb227076c9426b	894751	12.5	main	z	26	rectangle	local	LVF	yes	present	1	445
611409d13bdb227076c9426b	896163	12.5	main	z	27	square	local	RVF	yes	present	1	470
611409d13bdb227076c9426b	897608	12.5	main	z	28	square	global	RVF	yes	present	1	458
611409d13bdb227076c9426b	899132	12.5	main	z	29	rectangle	local	LVF	yes	present	1	579
611409d13bdb227076c9426b	900866	12.5	main	z	30	absent	absent	absent	no	present	0	637
611409d13bdb227076c9426b	902443	12.5	main	z	31	square	local	LVF	yes	present	1	606
611409d13bdb227076c9426b	905389	12.5	main	z	32	absent	absent	absent	no	absent	1	2000
611409d13bdb227076c9426b	906715	12.5	main	z	33	rectangle	global	RVF	yes	present	1	239
611409d13bdb227076c9426b	908079	12.5	main	z	34	rectangle	local	RVF	yes	present	1	409
611409d13bdb227076c9426b	909552	12.5	main	z	35	rectangle	global	RVF	yes	present	1	516
611409d13bdb227076c9426b	910913	12.5	main	z	36	rectangle	global	RVF	yes	present	1	393
611409d13bdb227076c9426b	912553	12.5	main	z	37	square	local	RVF	yes	present	1	646
611409d13bdb227076c9426b	913951	12.5	main	z	38	square	global	LVF	yes	present	1	427
611409d13bdb227076c9426b	915347	12.5	main	z	39	rectangle	local	RVF	yes	present	1	435
611409d13bdb227076c9426b	916747	12.5	main	z	40	rectangle	local	LVF	yes	present	1	421
611409d13bdb227076c9426b	918032	12.5	main	z	41	absent	absent	absent	no	present	0	321
611409d13bdb227076c9426b	919586	12.5	main	z	42	rectangle	local	LVF	yes	present	1	544
611409d13bdb227076c9426b	921021	12.5	main	z	43	square	global	RVF	yes	present	1	445
611409d13bdb227076c9426b	922442	12.5	main	z	44	square	global	LVF	yes	present	1	412
611409d13bdb227076c9426b	925428	12.5	main	z	45	absent	absent	absent	no	absent	1	2000
611409d13bdb227076c9426b	926756	12.5	main	z	46	rectangle	global	RVF	yes	present	1	264
611409d13bdb227076c9426b	927961	12.5	main	z	47	square	global	LVF	yes	present	1	337
611409d13bdb227076c9426b	929280	12.5	main	z	48	absent	absent	absent	no	present	0	374
611409d13bdb227076c9426b	930732	12.5	main	z	49	rectangle	global	RVF	yes	present	1	457
611409d13bdb227076c9426b	932511	12.5	main	z	50	rectangle	local	RVF	yes	present	1	819
611409d13bdb227076c9426b	933923	12.5	main	z	51	rectangle	local	RVF	yes	present	1	489
611409d13bdb227076c9426b	935355	12.5	main	z	52	square	global	LVF	yes	present	1	451
611409d13bdb227076c9426b	936712	12.5	main	z	53	square	local	RVF	yes	present	1	405
611409d13bdb227076c9426b	938188	12.5	main	z	54	rectangle	local	RVF	yes	present	1	445
611409d13bdb227076c9426b	939573	12.5	main	z	55	square	local	LVF	yes	present	1	408
611409d13bdb227076c9426b	941029	12.5	main	z	56	rectangle	global	LVF	yes	present	1	461
611409d13bdb227076c9426b	942374	12.5	main	z	57	square	global	LVF	yes	present	1	340
611409d13bdb227076c9426b	943700	12.5	main	z	58	square	local	LVF	yes	present	1	400
611409d13bdb227076c9426b	945036	12.5	main	z	59	rectangle	local	LVF	yes	present	1	387
611409d13bdb227076c9426b	946304	12.5	main	z	60	absent	absent	absent	no	present	0	286
611409d13bdb227076c9426b	947711	12.5	main	z	61	square	global	RVF	yes	present	1	446
611409d13bdb227076c9426b	949136	12.5	main	z	62	square	local	LVF	yes	present	1	468
611409d13bdb227076c9426b	950466	12.5	main	z	63	rectangle	global	LVF	yes	present	1	361
611409d13bdb227076c9426b	951794	12.5	main	z	64	square	global	RVF	yes	present	1	407
611409d13bdb227076c9426b	953579	12.5	main	z	65	square	local	RVF	yes	present	1	573
611409d13bdb227076c9426b	956518	12.5	main	z	66	absent	absent	absent	no	absent	1	2000
611409d13bdb227076c9426b	958133	12.5	main	z	67	rectangle	local	LVF	yes	present	1	346
611409d13bdb227076c9426b	959558	12.5	main	z	68	absent	absent	absent	no	present	0	490
611409d13bdb227076c9426b	960962	12.5	main	z	69	rectangle	global	LVF	yes	present	1	498
611409d13bdb227076c9426b	962349	12.5	main	z	70	absent	absent	absent	no	present	0	450
611409d13bdb227076c9426b	963821	12.5	main	z	71	square	global	RVF	yes	present	1	433
611409d13bdb227076c9426b	965162	12.5	main	z	72	rectangle	global	LVF	yes	present	1	424
611409d13bdb227076c9426b	966663	12.5	main	z	73	square	local	RVF	yes	present	1	505
611409d13bdb227076c9426b	968026	12.5	main	z	74	rectangle	global	RVF	yes	present	1	385
611409d13bdb227076c9426b	969321	12.5	main	z	75	rectangle	global	RVF	yes	present	1	360
611409d13bdb227076c9426b	970671	12.5	main	z	76	square	local	LVF	yes	present	1	396
611409d13bdb227076c9426b	972022	12.5	main	z	77	square	local	RVF	yes	present	1	425
611409d13bdb227076c9426b	974987	12.5	main	z	78	absent	absent	absent	no	absent	1	2000
611409d13bdb227076c9426b	976842	12.5	main	z	79	rectangle	local	LVF	yes	present	1	486
611409d13bdb227076c9426b	978185	12.5	main	z	80	rectangle	local	RVF	yes	present	1	455
