subject	time_elapsed_ms	blocknum	block_type	block_response	trialnum	target	level	field	target_present	response	correct	rt
6122bff4706b6d848da00ec1	1131541	9.5	practice	z	1	square	global	RVF	yes	absent	0	2000
6122bff4706b6d848da00ec1	1136910	9.5	practice	z	2	square	global	LVF	yes	present	1	1317
6122bff4706b6d848da00ec1	1143657	9.5	practice	z	3	absent	absent	absent	no	absent	1	2000
6122bff4706b6d848da00ec1	1148557	9.5	practice	z	4	rectangle	local	RVF	yes	absent	0	2000
6122bff4706b6d848da00ec1	1153840	9.5	practice	z	5	absent	absent	absent	no	absent	1	2000
6122bff4706b6d848da00ec1	1159661	9.5	practice	z	6	rectangle	local	RVF	yes	present	1	1686
6122bff4706b6d848da00ec1	1164223	9.5	practice	z	7	rectangle	local	RVF	yes	absent	0	2000
6122bff4706b6d848da00ec1	1167653	9.5	practice	z	8	square	global	LVF	yes	present	1	1142
6122bff4706b6d848da00ec1	1171990	9.5	practice	z	9	absent	absent	absent	no	absent	1	2000
6122bff4706b6d848da00ec1	1176607	9.5	practice	z	10	absent	absent	absent	no	absent	1	2000
6122bff4706b6d848da00ec1	1180426	9.5	practice	z	11	rectangle	global	LVF	yes	present	1	1035
6122bff4706b6d848da00ec1	1183692	9.5	practice	z	12	rectangle	global	RVF	yes	present	1	951
6122bff4706b6d848da00ec1	1188124	9.5	practice	z	13	square	local	LVF	yes	absent	0	2000
6122bff4706b6d848da00ec1	1196533	9.5	practice	z	14	rectangle	global	LVF	yes	present	1	923
6122bff4706b6d848da00ec1	1200706	9.5	practice	z	15	square	local	LVF	yes	absent	0	2000
6122bff4706b6d848da00ec1	1203778	9.5	practice	z	16	rectangle	global	RVF	yes	present	1	754
6122bff4706b6d848da00ec1	1247992	10.5	main	z	1	rectangle	global	RVF	yes	present	1	784
6122bff4706b6d848da00ec1	1252271	10.5	main	z	2	square	global	LVF	yes	present	1	613
6122bff4706b6d848da00ec1	1255072	10.5	main	z	3	rectangle	global	LVF	yes	present	1	682
6122bff4706b6d848da00ec1	1258069	10.5	main	z	4	rectangle	global	RVF	yes	present	1	460
6122bff4706b6d848da00ec1	1262388	10.5	main	z	5	square	local	RVF	yes	absent	0	2000
6122bff4706b6d848da00ec1	1265939	10.5	main	z	6	absent	absent	absent	no	absent	1	2000
6122bff4706b6d848da00ec1	1268337	10.5	main	z	7	rectangle	local	RVF	yes	present	1	912
6122bff4706b6d848da00ec1	1270919	10.5	main	z	8	square	global	RVF	yes	present	1	1046
6122bff4706b6d848da00ec1	1274322	10.5	main	z	9	absent	absent	absent	no	absent	1	2000
6122bff4706b6d848da00ec1	1277738	10.5	main	z	10	absent	absent	absent	no	absent	1	2000
6122bff4706b6d848da00ec1	1281522	10.5	main	z	11	rectangle	local	LVF	yes	absent	0	2000
6122bff4706b6d848da00ec1	1283499	10.5	main	z	12	rectangle	global	LVF	yes	present	1	757
6122bff4706b6d848da00ec1	1285956	10.5	main	z	13	square	global	RVF	yes	present	1	1016
6122bff4706b6d848da00ec1	1287835	10.5	main	z	14	square	global	LVF	yes	present	1	775
6122bff4706b6d848da00ec1	1290018	10.5	main	z	15	rectangle	global	LVF	yes	present	1	1010
6122bff4706b6d848da00ec1	1292107	10.5	main	z	16	square	local	LVF	yes	present	1	1050
6122bff4706b6d848da00ec1	1294436	10.5	main	z	17	rectangle	local	LVF	yes	present	1	1094
6122bff4706b6d848da00ec1	1297588	10.5	main	z	18	absent	absent	absent	no	absent	1	2000
6122bff4706b6d848da00ec1	1301755	10.5	main	z	19	rectangle	local	RVF	yes	absent	0	2000
6122bff4706b6d848da00ec1	1303626	10.5	main	z	20	square	local	RVF	yes	present	1	687
6122bff4706b6d848da00ec1	1305907	10.5	main	z	21	rectangle	local	LVF	yes	present	1	983
6122bff4706b6d848da00ec1	1308105	10.5	main	z	22	rectangle	local	RVF	yes	present	1	782
6122bff4706b6d848da00ec1	1310893	10.5	main	z	23	absent	absent	absent	no	present	0	1503
6122bff4706b6d848da00ec1	1314154	10.5	main	z	24	square	global	RVF	yes	absent	0	2000
6122bff4706b6d848da00ec1	1317221	10.5	main	z	25	square	global	LVF	yes	absent	0	2000
6122bff4706b6d848da00ec1	1319318	10.5	main	z	26	square	local	LVF	yes	present	1	959
6122bff4706b6d848da00ec1	1321714	10.5	main	z	27	square	local	LVF	yes	present	1	1207
6122bff4706b6d848da00ec1	1323985	10.5	main	z	28	rectangle	local	LVF	yes	present	1	1043
6122bff4706b6d848da00ec1	1325910	10.5	main	z	29	square	local	RVF	yes	present	1	922
6122bff4706b6d848da00ec1	1329005	10.5	main	z	30	rectangle	global	LVF	yes	absent	0	2000
6122bff4706b6d848da00ec1	1332437	10.5	main	z	31	square	global	LVF	yes	absent	0	2000
6122bff4706b6d848da00ec1	1334504	10.5	main	z	32	square	local	LVF	yes	present	1	931
6122bff4706b6d848da00ec1	1337638	10.5	main	z	33	absent	absent	absent	no	absent	1	2000
6122bff4706b6d848da00ec1	1342737	10.5	main	z	34	absent	absent	absent	no	absent	1	2000
6122bff4706b6d848da00ec1	1344874	10.5	main	z	35	rectangle	local	RVF	yes	present	1	969
6122bff4706b6d848da00ec1	1348105	10.5	main	z	36	rectangle	global	RVF	yes	absent	0	2000
6122bff4706b6d848da00ec1	1355118	10.5	main	z	37	square	local	RVF	yes	present	1	810
6122bff4706b6d848da00ec1	1358221	10.5	main	z	38	square	global	RVF	yes	absent	0	2000
6122bff4706b6d848da00ec1	1361271	10.5	main	z	39	rectangle	global	RVF	yes	absent	0	2000
6122bff4706b6d848da00ec1	1365064	10.5	main	z	40	absent	absent	absent	no	present	0	1156
6122bff4706b6d848da00ec1	1367334	10.5	main	z	41	rectangle	local	RVF	yes	present	1	1192
6122bff4706b6d848da00ec1	1369285	10.5	main	z	42	square	global	RVF	yes	present	1	913
6122bff4706b6d848da00ec1	1371384	10.5	main	z	43	square	local	RVF	yes	present	1	944
6122bff4706b6d848da00ec1	1374421	10.5	main	z	44	rectangle	global	LVF	yes	absent	0	2000
6122bff4706b6d848da00ec1	1377487	10.5	main	z	45	square	global	RVF	yes	absent	0	2000
6122bff4706b6d848da00ec1	1380704	10.5	main	z	46	square	global	LVF	yes	absent	0	2000
6122bff4706b6d848da00ec1	1382622	10.5	main	z	47	rectangle	local	RVF	yes	present	1	867
6122bff4706b6d848da00ec1	1384801	10.5	main	z	48	square	local	LVF	yes	present	1	1045
6122bff4706b6d848da00ec1	1386943	10.5	main	z	49	square	local	LVF	yes	present	1	1071
6122bff4706b6d848da00ec1	1388909	10.5	main	z	50	square	global	LVF	yes	present	1	903
6122bff4706b6d848da00ec1	1390822	10.5	main	z	51	square	local	RVF	yes	present	1	899
6122bff4706b6d848da00ec1	1393921	10.5	main	z	52	absent	absent	absent	no	absent	1	2000
6122bff4706b6d848da00ec1	1397287	10.5	main	z	53	rectangle	global	LVF	yes	absent	0	2000
6122bff4706b6d848da00ec1	1400320	10.5	main	z	54	rectangle	global	RVF	yes	absent	0	2000
6122bff4706b6d848da00ec1	1402583	10.5	main	z	55	square	local	RVF	yes	present	1	1059
6122bff4706b6d848da00ec1	1404942	10.5	main	z	56	rectangle	local	RVF	yes	present	1	1019
6122bff4706b6d848da00ec1	1408187	10.5	main	z	57	absent	absent	absent	no	absent	1	2000
6122bff4706b6d848da00ec1	1410467	10.5	main	z	58	rectangle	local	LVF	yes	present	1	1077
6122bff4706b6d848da00ec1	1412607	10.5	main	z	59	square	local	RVF	yes	present	1	1035
6122bff4706b6d848da00ec1	1415384	10.5	main	z	60	rectangle	local	LVF	yes	present	1	1178
6122bff4706b6d848da00ec1	1418670	10.5	main	z	61	rectangle	global	RVF	yes	absent	0	2000
6122bff4706b6d848da00ec1	1422436	10.5	main	z	62	absent	absent	absent	no	absent	1	2000
6122bff4706b6d848da00ec1	1425820	10.5	main	z	63	square	global	RVF	yes	absent	0	2000
6122bff4706b6d848da00ec1	1429036	10.5	main	z	64	rectangle	global	RVF	yes	absent	0	2000
6122bff4706b6d848da00ec1	1431383	10.5	main	z	65	rectangle	local	RVF	yes	present	1	1128
6122bff4706b6d848da00ec1	1434503	10.5	main	z	66	rectangle	global	LVF	yes	absent	0	2000
6122bff4706b6d848da00ec1	1437653	10.5	main	z	67	square	global	LVF	yes	absent	0	2000
6122bff4706b6d848da00ec1	1440687	10.5	main	z	68	absent	absent	absent	no	absent	1	2000
6122bff4706b6d848da00ec1	1442366	10.5	main	z	69	rectangle	local	LVF	yes	present	1	524
6122bff4706b6d848da00ec1	1445637	10.5	main	z	70	rectangle	global	RVF	yes	absent	0	2000
6122bff4706b6d848da00ec1	1448969	10.5	main	z	71	absent	absent	absent	no	absent	1	2000
6122bff4706b6d848da00ec1	1452069	10.5	main	z	72	square	global	LVF	yes	absent	0	2000
6122bff4706b6d848da00ec1	1455119	10.5	main	z	73	absent	absent	absent	no	absent	1	2000
6122bff4706b6d848da00ec1	1457325	10.5	main	z	74	absent	absent	absent	no	present	0	1221
6122bff4706b6d848da00ec1	1460502	10.5	main	z	75	absent	absent	absent	no	absent	1	2000
6122bff4706b6d848da00ec1	1463452	10.5	main	z	76	square	global	RVF	yes	absent	0	2000
6122bff4706b6d848da00ec1	1465749	10.5	main	z	77	square	local	LVF	yes	present	1	910
6122bff4706b6d848da00ec1	1468969	10.5	main	z	78	rectangle	global	LVF	yes	absent	0	2000
6122bff4706b6d848da00ec1	1472216	10.5	main	z	79	rectangle	local	LVF	yes	present	1	911
6122bff4706b6d848da00ec1	1474498	10.5	main	z	80	square	local	LVF	yes	present	1	960
6122bff4706b6d848da00ec1	1519885	11.5	practice	slash	1	rectangle	local	RVF	yes	absent	0	2000
6122bff4706b6d848da00ec1	1523067	11.5	practice	slash	2	rectangle	local	RVF	yes	present	1	896
6122bff4706b6d848da00ec1	1527235	11.5	practice	slash	3	absent	absent	absent	no	absent	1	2000
6122bff4706b6d848da00ec1	1530547	11.5	practice	slash	4	absent	absent	absent	no	present	0	976
6122bff4706b6d848da00ec1	1534752	11.5	practice	slash	5	rectangle	global	RVF	yes	absent	0	2000
6122bff4706b6d848da00ec1	1538084	11.5	practice	slash	6	rectangle	global	LVF	yes	present	1	1130
6122bff4706b6d848da00ec1	1541932	11.5	practice	slash	7	absent	absent	absent	no	present	0	1692
6122bff4706b6d848da00ec1	1545522	11.5	practice	slash	8	square	global	RVF	yes	present	1	1219
6122bff4706b6d848da00ec1	1549016	11.5	practice	slash	9	square	local	LVF	yes	present	1	480
6122bff4706b6d848da00ec1	1552191	11.5	practice	slash	10	absent	absent	absent	no	present	0	1154
6122bff4706b6d848da00ec1	1555124	11.5	practice	slash	11	rectangle	local	RVF	yes	present	1	887
6122bff4706b6d848da00ec1	1559318	11.5	practice	slash	12	square	global	LVF	yes	absent	0	2000
6122bff4706b6d848da00ec1	1563402	11.5	practice	slash	13	rectangle	global	RVF	yes	absent	0	2000
6122bff4706b6d848da00ec1	1566449	11.5	practice	slash	14	rectangle	global	LVF	yes	present	1	878
6122bff4706b6d848da00ec1	1570358	11.5	practice	slash	15	square	local	LVF	yes	present	1	1104
6122bff4706b6d848da00ec1	1573652	11.5	practice	slash	16	square	global	LVF	yes	present	1	1349
6122bff4706b6d848da00ec1	1578121	12.5	main	slash	1	rectangle	local	LVF	yes	present	1	901
6122bff4706b6d848da00ec1	1580332	12.5	main	slash	2	rectangle	local	RVF	yes	present	1	678
6122bff4706b6d848da00ec1	1582531	12.5	main	slash	3	square	local	LVF	yes	present	1	894
6122bff4706b6d848da00ec1	1584694	12.5	main	slash	4	rectangle	global	RVF	yes	present	1	906
6122bff4706b6d848da00ec1	1586586	12.5	main	slash	5	square	local	RVF	yes	present	1	750
6122bff4706b6d848da00ec1	1588764	12.5	main	slash	6	absent	absent	absent	no	present	0	1011
6122bff4706b6d848da00ec1	1590868	12.5	main	slash	7	rectangle	global	RVF	yes	present	1	947
6122bff4706b6d848da00ec1	1592718	12.5	main	slash	8	rectangle	global	LVF	yes	present	1	666
6122bff4706b6d848da00ec1	1594866	12.5	main	slash	9	rectangle	local	RVF	yes	present	1	964
6122bff4706b6d848da00ec1	1596934	12.5	main	slash	10	square	global	RVF	yes	present	1	916
6122bff4706b6d848da00ec1	1599011	12.5	main	slash	11	rectangle	global	RVF	yes	present	1	940
6122bff4706b6d848da00ec1	1601074	12.5	main	slash	12	square	global	RVF	yes	present	1	1004
6122bff4706b6d848da00ec1	1603136	12.5	main	slash	13	rectangle	global	LVF	yes	present	1	934
6122bff4706b6d848da00ec1	1605344	12.5	main	slash	14	rectangle	local	LVF	yes	present	1	1006
6122bff4706b6d848da00ec1	1608584	12.5	main	slash	15	absent	absent	absent	no	absent	1	2000
6122bff4706b6d848da00ec1	1610737	12.5	main	slash	16	square	local	LVF	yes	present	1	869
6122bff4706b6d848da00ec1	1613867	12.5	main	slash	17	absent	absent	absent	no	absent	1	2000
6122bff4706b6d848da00ec1	1616215	12.5	main	slash	18	square	global	RVF	yes	present	1	713
6122bff4706b6d848da00ec1	1618234	12.5	main	slash	19	square	local	RVF	yes	present	1	866
6122bff4706b6d848da00ec1	1620428	12.5	main	slash	20	square	local	RVF	yes	present	1	989
6122bff4706b6d848da00ec1	1622563	12.5	main	slash	21	rectangle	global	LVF	yes	present	1	974
6122bff4706b6d848da00ec1	1624886	12.5	main	slash	22	rectangle	global	RVF	yes	present	1	1017
6122bff4706b6d848da00ec1	1627153	12.5	main	slash	23	absent	absent	absent	no	present	0	1051
6122bff4706b6d848da00ec1	1629315	12.5	main	slash	24	square	local	LVF	yes	present	1	896
6122bff4706b6d848da00ec1	1632500	12.5	main	slash	25	absent	absent	absent	no	absent	1	2000
6122bff4706b6d848da00ec1	1634455	12.5	main	slash	26	square	global	LVF	yes	present	1	786
6122bff4706b6d848da00ec1	1637551	12.5	main	slash	27	absent	absent	absent	no	absent	1	2000
6122bff4706b6d848da00ec1	1639330	12.5	main	slash	28	square	global	LVF	yes	present	1	792
6122bff4706b6d848da00ec1	1641349	12.5	main	slash	29	square	global	LVF	yes	present	1	930
6122bff4706b6d848da00ec1	1643321	12.5	main	slash	30	rectangle	global	LVF	yes	present	1	936
6122bff4706b6d848da00ec1	1645468	12.5	main	slash	31	rectangle	local	RVF	yes	present	1	1134
6122bff4706b6d848da00ec1	1647368	12.5	main	slash	32	square	local	RVF	yes	present	1	949
6122bff4706b6d848da00ec1	1649355	12.5	main	slash	33	square	local	LVF	yes	present	1	937
6122bff4706b6d848da00ec1	1652350	12.5	main	slash	34	absent	absent	absent	no	absent	1	2000
6122bff4706b6d848da00ec1	1655217	12.5	main	slash	35	rectangle	local	RVF	yes	present	1	782
6122bff4706b6d848da00ec1	1657169	12.5	main	slash	36	square	global	RVF	yes	present	1	951
6122bff4706b6d848da00ec1	1658994	12.5	main	slash	37	square	global	LVF	yes	present	1	806
6122bff4706b6d848da00ec1	1661949	12.5	main	slash	38	absent	absent	absent	no	absent	1	2000
6122bff4706b6d848da00ec1	1664021	12.5	main	slash	39	rectangle	local	LVF	yes	present	1	937
6122bff4706b6d848da00ec1	1666017	12.5	main	slash	40	rectangle	local	LVF	yes	present	1	900
6122bff4706b6d848da00ec1	1669000	12.5	main	slash	41	absent	absent	absent	no	absent	1	2000
6122bff4706b6d848da00ec1	1670673	12.5	main	slash	42	square	global	RVF	yes	present	1	571
6122bff4706b6d848da00ec1	1673733	12.5	main	slash	43	absent	absent	absent	no	absent	1	2000
6122bff4706b6d848da00ec1	1675730	12.5	main	slash	44	square	local	LVF	yes	present	1	826
6122bff4706b6d848da00ec1	1677477	12.5	main	slash	45	rectangle	global	LVF	yes	present	1	805
6122bff4706b6d848da00ec1	1679197	12.5	main	slash	46	square	local	LVF	yes	present	1	711
6122bff4706b6d848da00ec1	1680896	12.5	main	slash	47	rectangle	local	RVF	yes	present	1	675
6122bff4706b6d848da00ec1	1682813	12.5	main	slash	48	square	local	RVF	yes	present	1	828
6122bff4706b6d848da00ec1	1685750	12.5	main	slash	49	absent	absent	absent	no	absent	1	2000
6122bff4706b6d848da00ec1	1687396	12.5	main	slash	50	square	local	RVF	yes	present	1	441
6122bff4706b6d848da00ec1	1688815	12.5	main	slash	51	square	global	RVF	yes	present	1	364
6122bff4706b6d848da00ec1	1690343	12.5	main	slash	52	square	global	RVF	yes	present	1	456
6122bff4706b6d848da00ec1	1693366	12.5	main	slash	53	absent	absent	absent	no	absent	1	2000
6122bff4706b6d848da00ec1	1694940	12.5	main	slash	54	square	local	LVF	yes	present	1	622
6122bff4706b6d848da00ec1	1696668	12.5	main	slash	55	square	local	RVF	yes	present	1	716
6122bff4706b6d848da00ec1	1698317	12.5	main	slash	56	square	global	LVF	yes	present	1	715
6122bff4706b6d848da00ec1	1700201	12.5	main	slash	57	square	global	LVF	yes	present	1	766
6122bff4706b6d848da00ec1	1702185	12.5	main	slash	58	square	global	LVF	yes	present	1	949
6122bff4706b6d848da00ec1	1705166	12.5	main	slash	59	absent	absent	absent	no	absent	1	2000
6122bff4706b6d848da00ec1	1707140	12.5	main	slash	60	rectangle	local	RVF	yes	present	1	872
6122bff4706b6d848da00ec1	1709215	12.5	main	slash	61	absent	absent	absent	no	present	0	1114
6122bff4706b6d848da00ec1	1712299	12.5	main	slash	62	absent	absent	absent	no	absent	1	2000
6122bff4706b6d848da00ec1	1713999	12.5	main	slash	63	rectangle	global	LVF	yes	present	1	698
6122bff4706b6d848da00ec1	1715872	12.5	main	slash	64	rectangle	global	RVF	yes	present	1	821
6122bff4706b6d848da00ec1	1718247	12.5	main	slash	65	rectangle	local	LVF	yes	present	1	1246
6122bff4706b6d848da00ec1	1720194	12.5	main	slash	66	square	global	LVF	yes	present	1	675
6122bff4706b6d848da00ec1	1721879	12.5	main	slash	67	square	local	LVF	yes	present	1	657
6122bff4706b6d848da00ec1	1723546	12.5	main	slash	68	square	local	RVF	yes	present	1	627
6122bff4706b6d848da00ec1	1725250	12.5	main	slash	69	rectangle	global	LVF	yes	present	1	665
6122bff4706b6d848da00ec1	1726968	12.5	main	slash	70	rectangle	global	RVF	yes	present	1	701
6122bff4706b6d848da00ec1	1728880	12.5	main	slash	71	rectangle	local	RVF	yes	present	1	911
6122bff4706b6d848da00ec1	1730534	12.5	main	slash	72	square	global	RVF	yes	present	1	700
6122bff4706b6d848da00ec1	1731980	12.5	main	slash	73	rectangle	global	LVF	yes	present	1	463
6122bff4706b6d848da00ec1	1733430	12.5	main	slash	74	rectangle	global	RVF	yes	present	1	443
6122bff4706b6d848da00ec1	1734852	12.5	main	slash	75	rectangle	global	RVF	yes	present	1	469
6122bff4706b6d848da00ec1	1736113	12.5	main	slash	76	rectangle	local	LVF	yes	present	1	412
6122bff4706b6d848da00ec1	1737460	12.5	main	slash	77	rectangle	local	RVF	yes	present	1	491
6122bff4706b6d848da00ec1	1739033	12.5	main	slash	78	rectangle	local	LVF	yes	present	1	683
6122bff4706b6d848da00ec1	1741236	12.5	main	slash	79	absent	absent	absent	no	present	0	1336
6122bff4706b6d848da00ec1	1742997	12.5	main	slash	80	rectangle	local	LVF	yes	present	1	747
