subject	time_elapsed_ms	blocknum	block_type	block_response	trialnum	target	level	field	target_present	response	correct	rt
62fbdda6e4b5a034b71296f8	165965	1	practice	z	1	rectangle	global	RVF	yes	present	1	437
62fbdda6e4b5a034b71296f8	168776	1	practice	z	2	square	global	LVF	yes	present	1	541
62fbdda6e4b5a034b71296f8	173517	1	practice	z	3	square	local	LVF	yes	absent	0	2003
62fbdda6e4b5a034b71296f8	176261	1	practice	z	4	rectangle	local	RVF	yes	present	1	572
62fbdda6e4b5a034b71296f8	180438	1	practice	z	5	absent	absent	absent	no	absent	1	2003
62fbdda6e4b5a034b71296f8	183162	1	practice	z	6	rectangle	local	RVF	yes	present	1	623
62fbdda6e4b5a034b71296f8	185878	1	practice	z	7	square	local	LVF	yes	present	1	612
62fbdda6e4b5a034b71296f8	188447	1	practice	z	8	square	global	RVF	yes	present	1	480
62fbdda6e4b5a034b71296f8	192412	1	practice	z	9	absent	absent	absent	no	absent	1	2003
62fbdda6e4b5a034b71296f8	194907	1	practice	z	10	rectangle	global	LVF	yes	present	1	443
62fbdda6e4b5a034b71296f8	197568	1	practice	z	11	rectangle	global	LVF	yes	present	1	572
62fbdda6e4b5a034b71296f8	201783	1	practice	z	12	absent	absent	absent	no	absent	1	2003
62fbdda6e4b5a034b71296f8	204559	1	practice	z	13	rectangle	local	RVF	yes	present	1	706
62fbdda6e4b5a034b71296f8	208632	1	practice	z	14	absent	absent	absent	no	absent	1	2003
62fbdda6e4b5a034b71296f8	211207	1	practice	z	15	square	global	LVF	yes	present	1	577
62fbdda6e4b5a034b71296f8	213801	1	practice	z	16	rectangle	global	RVF	yes	present	1	548
62fbdda6e4b5a034b71296f8	226144	2	main	z	1	square	local	RVF	yes	present	1	538
62fbdda6e4b5a034b71296f8	229204	2	main	z	2	square	local	LVF	yes	present	1	1278
62fbdda6e4b5a034b71296f8	231472	2	main	z	3	rectangle	local	RVF	yes	present	1	528
62fbdda6e4b5a034b71296f8	233639	2	main	z	4	square	global	LVF	yes	present	1	552
62fbdda6e4b5a034b71296f8	235944	2	main	z	5	rectangle	local	LVF	yes	present	1	1043
62fbdda6e4b5a034b71296f8	238370	2	main	z	6	square	global	RVF	yes	present	1	837
62fbdda6e4b5a034b71296f8	240713	2	main	z	7	rectangle	global	RVF	yes	present	1	626
62fbdda6e4b5a034b71296f8	244640	2	main	z	8	absent	absent	absent	no	absent	1	2003
62fbdda6e4b5a034b71296f8	246405	2	main	z	9	rectangle	local	LVF	yes	present	1	643
62fbdda6e4b5a034b71296f8	248302	2	main	z	10	rectangle	local	LVF	yes	present	1	751
62fbdda6e4b5a034b71296f8	251340	2	main	z	11	absent	absent	absent	no	absent	1	2003
62fbdda6e4b5a034b71296f8	254412	2	main	z	12	absent	absent	absent	no	absent	1	2003
62fbdda6e4b5a034b71296f8	255890	2	main	z	13	rectangle	global	LVF	yes	present	1	455
62fbdda6e4b5a034b71296f8	258924	2	main	z	14	absent	absent	absent	no	absent	1	2003
62fbdda6e4b5a034b71296f8	260367	2	main	z	15	square	local	RVF	yes	present	1	504
62fbdda6e4b5a034b71296f8	261833	2	main	z	16	square	global	LVF	yes	present	1	423
62fbdda6e4b5a034b71296f8	263226	2	main	z	17	rectangle	global	LVF	yes	present	1	471
62fbdda6e4b5a034b71296f8	264622	2	main	z	18	square	local	LVF	yes	present	1	565
62fbdda6e4b5a034b71296f8	265965	2	main	z	19	rectangle	global	LVF	yes	present	1	526
62fbdda6e4b5a034b71296f8	267417	2	main	z	20	rectangle	local	LVF	yes	present	1	599
62fbdda6e4b5a034b71296f8	268822	2	main	z	21	square	local	RVF	yes	present	1	555
62fbdda6e4b5a034b71296f8	270318	2	main	z	22	rectangle	local	RVF	yes	present	1	629
62fbdda6e4b5a034b71296f8	273201	2	main	z	23	absent	absent	absent	no	absent	1	2003
62fbdda6e4b5a034b71296f8	274662	2	main	z	24	rectangle	global	RVF	yes	present	1	411
62fbdda6e4b5a034b71296f8	275895	2	main	z	25	rectangle	global	LVF	yes	present	1	438
62fbdda6e4b5a034b71296f8	277311	2	main	z	26	square	global	RVF	yes	present	1	611
62fbdda6e4b5a034b71296f8	278738	2	main	z	27	rectangle	global	RVF	yes	present	1	643
62fbdda6e4b5a034b71296f8	281534	2	main	z	28	absent	absent	absent	no	absent	1	2003
62fbdda6e4b5a034b71296f8	284577	2	main	z	29	absent	absent	absent	no	absent	1	2003
62fbdda6e4b5a034b71296f8	286077	2	main	z	30	square	local	RVF	yes	present	1	496
62fbdda6e4b5a034b71296f8	287372	2	main	z	31	square	local	LVF	yes	present	1	506
62fbdda6e4b5a034b71296f8	288660	2	main	z	32	rectangle	local	RVF	yes	present	1	560
62fbdda6e4b5a034b71296f8	290090	2	main	z	33	square	global	RVF	yes	present	1	723
62fbdda6e4b5a034b71296f8	292847	2	main	z	34	absent	absent	absent	no	absent	1	2003
62fbdda6e4b5a034b71296f8	294382	2	main	z	35	square	global	LVF	yes	present	1	428
62fbdda6e4b5a034b71296f8	295684	2	main	z	36	rectangle	local	RVF	yes	present	1	586
62fbdda6e4b5a034b71296f8	297079	2	main	z	37	square	local	LVF	yes	present	1	619
62fbdda6e4b5a034b71296f8	298403	2	main	z	38	rectangle	global	RVF	yes	present	1	611
62fbdda6e4b5a034b71296f8	299708	2	main	z	39	square	global	LVF	yes	present	1	554
62fbdda6e4b5a034b71296f8	300966	2	main	z	40	square	global	RVF	yes	present	1	555
62fbdda6e4b5a034b71296f8	303693	2	main	z	41	absent	absent	absent	no	absent	1	2003
62fbdda6e4b5a034b71296f8	305277	2	main	z	42	rectangle	local	LVF	yes	present	1	520
62fbdda6e4b5a034b71296f8	306537	2	main	z	43	rectangle	global	LVF	yes	present	1	536
62fbdda6e4b5a034b71296f8	309259	2	main	z	44	absent	absent	absent	no	absent	1	2003
62fbdda6e4b5a034b71296f8	312329	2	main	z	45	absent	absent	absent	no	absent	1	2003
62fbdda6e4b5a034b71296f8	313825	2	main	z	46	square	global	RVF	yes	present	1	476
62fbdda6e4b5a034b71296f8	315075	2	main	z	47	rectangle	global	LVF	yes	present	1	490
62fbdda6e4b5a034b71296f8	316229	2	main	z	48	rectangle	global	LVF	yes	present	1	481
62fbdda6e4b5a034b71296f8	317522	2	main	z	49	square	local	RVF	yes	present	1	594
62fbdda6e4b5a034b71296f8	318751	2	main	z	50	rectangle	local	LVF	yes	present	1	535
62fbdda6e4b5a034b71296f8	321464	2	main	z	51	absent	absent	absent	no	absent	1	2003
62fbdda6e4b5a034b71296f8	323168	2	main	z	52	rectangle	global	RVF	yes	present	1	510
62fbdda6e4b5a034b71296f8	324398	2	main	z	53	square	global	LVF	yes	present	1	503
62fbdda6e4b5a034b71296f8	327108	2	main	z	54	absent	absent	absent	no	absent	1	2003
62fbdda6e4b5a034b71296f8	330157	2	main	z	55	absent	absent	absent	no	absent	1	2003
62fbdda6e4b5a034b71296f8	331574	2	main	z	56	rectangle	global	RVF	yes	present	1	491
62fbdda6e4b5a034b71296f8	332740	2	main	z	57	rectangle	local	LVF	yes	present	1	505
62fbdda6e4b5a034b71296f8	335439	2	main	z	58	absent	absent	absent	no	absent	1	2003
62fbdda6e4b5a034b71296f8	336958	2	main	z	59	square	local	LVF	yes	present	1	494
62fbdda6e4b5a034b71296f8	338172	2	main	z	60	rectangle	local	RVF	yes	present	1	541
62fbdda6e4b5a034b71296f8	339407	2	main	z	61	rectangle	local	LVF	yes	present	1	540
62fbdda6e4b5a034b71296f8	340768	2	main	z	62	square	global	LVF	yes	present	1	679
62fbdda6e4b5a034b71296f8	341995	2	main	z	63	square	local	LVF	yes	present	1	533
62fbdda6e4b5a034b71296f8	343278	2	main	z	64	square	local	RVF	yes	present	1	587
62fbdda6e4b5a034b71296f8	344616	2	main	z	65	square	global	RVF	yes	present	1	653
62fbdda6e4b5a034b71296f8	345824	2	main	z	66	square	local	LVF	yes	present	1	513
62fbdda6e4b5a034b71296f8	347103	2	main	z	67	rectangle	local	RVF	yes	present	1	554
62fbdda6e4b5a034b71296f8	348382	2	main	z	68	rectangle	local	RVF	yes	present	1	578
62fbdda6e4b5a034b71296f8	349864	2	main	z	69	square	global	RVF	yes	present	1	796
62fbdda6e4b5a034b71296f8	351125	2	main	z	70	rectangle	local	RVF	yes	present	1	560
62fbdda6e4b5a034b71296f8	352377	2	main	z	71	square	local	LVF	yes	present	1	559
62fbdda6e4b5a034b71296f8	353621	2	main	z	72	square	global	RVF	yes	present	1	539
62fbdda6e4b5a034b71296f8	354949	2	main	z	73	square	local	RVF	yes	present	1	628
62fbdda6e4b5a034b71296f8	357643	2	main	z	74	absent	absent	absent	no	absent	1	2003
62fbdda6e4b5a034b71296f8	359341	2	main	z	75	rectangle	global	LVF	yes	present	1	514
62fbdda6e4b5a034b71296f8	360584	2	main	z	76	square	local	RVF	yes	present	1	518
62fbdda6e4b5a034b71296f8	361765	2	main	z	77	square	global	LVF	yes	present	1	485
62fbdda6e4b5a034b71296f8	362977	2	main	z	78	square	global	LVF	yes	present	1	509
62fbdda6e4b5a034b71296f8	364202	2	main	z	79	rectangle	global	RVF	yes	present	1	524
62fbdda6e4b5a034b71296f8	365396	2	main	z	80	rectangle	global	RVF	yes	present	1	514
62fbdda6e4b5a034b71296f8	407467	3	practice	slash	1	rectangle	local	RVF	yes	present	1	614
62fbdda6e4b5a034b71296f8	410102	3	practice	slash	2	square	local	LVF	yes	present	1	579
62fbdda6e4b5a034b71296f8	412520	3	practice	slash	3	square	global	LVF	yes	present	1	540
62fbdda6e4b5a034b71296f8	414935	3	practice	slash	4	rectangle	global	LVF	yes	present	1	555
62fbdda6e4b5a034b71296f8	417386	3	practice	slash	5	rectangle	local	RVF	yes	present	1	577
62fbdda6e4b5a034b71296f8	419763	3	practice	slash	6	square	global	LVF	yes	present	1	547
62fbdda6e4b5a034b71296f8	422187	3	practice	slash	7	rectangle	global	RVF	yes	present	1	557
62fbdda6e4b5a034b71296f8	424595	3	practice	slash	8	rectangle	local	RVF	yes	present	1	569
62fbdda6e4b5a034b71296f8	426988	3	practice	slash	9	rectangle	global	LVF	yes	present	1	545
62fbdda6e4b5a034b71296f8	430726	3	practice	slash	10	absent	absent	absent	no	absent	1	2003
62fbdda6e4b5a034b71296f8	434860	3	practice	slash	11	absent	absent	absent	no	absent	1	2003
62fbdda6e4b5a034b71296f8	437517	3	practice	slash	12	rectangle	global	RVF	yes	present	1	589
62fbdda6e4b5a034b71296f8	441469	3	practice	slash	13	absent	absent	absent	no	absent	1	2003
62fbdda6e4b5a034b71296f8	444102	3	practice	slash	14	square	local	LVF	yes	present	1	627
62fbdda6e4b5a034b71296f8	448130	3	practice	slash	15	absent	absent	absent	no	absent	1	2003
62fbdda6e4b5a034b71296f8	450766	3	practice	slash	16	square	global	RVF	yes	present	1	639
62fbdda6e4b5a034b71296f8	460800	4	main	slash	1	rectangle	local	LVF	yes	present	1	620
62fbdda6e4b5a034b71296f8	462402	4	main	slash	2	square	global	LVF	yes	present	1	516
62fbdda6e4b5a034b71296f8	463785	4	main	slash	3	rectangle	global	LVF	yes	present	1	491
62fbdda6e4b5a034b71296f8	465130	4	main	slash	4	square	local	RVF	yes	present	1	480
62fbdda6e4b5a034b71296f8	466621	4	main	slash	5	rectangle	local	LVF	yes	present	1	601
62fbdda6e4b5a034b71296f8	468075	4	main	slash	6	square	global	LVF	yes	present	1	597
62fbdda6e4b5a034b71296f8	469577	4	main	slash	7	rectangle	local	LVF	yes	present	1	616
62fbdda6e4b5a034b71296f8	471070	4	main	slash	8	rectangle	global	RVF	yes	present	1	601
62fbdda6e4b5a034b71296f8	472425	4	main	slash	9	square	local	RVF	yes	present	1	523
62fbdda6e4b5a034b71296f8	475254	4	main	slash	10	absent	absent	absent	no	absent	1	2003
62fbdda6e4b5a034b71296f8	476808	4	main	slash	11	square	global	RVF	yes	present	1	499
62fbdda6e4b5a034b71296f8	478256	4	main	slash	12	rectangle	global	LVF	yes	present	1	571
62fbdda6e4b5a034b71296f8	479621	4	main	slash	13	rectangle	local	RVF	yes	present	1	524
62fbdda6e4b5a034b71296f8	480970	4	main	slash	14	square	global	RVF	yes	present	1	551
62fbdda6e4b5a034b71296f8	482340	4	main	slash	15	rectangle	local	RVF	yes	present	1	594
62fbdda6e4b5a034b71296f8	484279	4	main	slash	16	square	local	LVF	yes	present	1	595
62fbdda6e4b5a034b71296f8	485648	4	main	slash	17	rectangle	global	RVF	yes	present	1	586
62fbdda6e4b5a034b71296f8	488420	4	main	slash	18	absent	absent	absent	no	absent	1	2003
62fbdda6e4b5a034b71296f8	490053	4	main	slash	19	rectangle	local	RVF	yes	present	1	602
62fbdda6e4b5a034b71296f8	491518	4	main	slash	20	square	local	LVF	yes	present	1	712
62fbdda6e4b5a034b71296f8	493078	4	main	slash	21	rectangle	global	LVF	yes	present	1	762
62fbdda6e4b5a034b71296f8	494619	4	main	slash	22	square	global	LVF	yes	present	1	749
62fbdda6e4b5a034b71296f8	496183	4	main	slash	23	rectangle	global	RVF	yes	present	1	799
62fbdda6e4b5a034b71296f8	497725	4	main	slash	24	square	local	RVF	yes	present	1	807
62fbdda6e4b5a034b71296f8	500497	4	main	slash	25	absent	absent	absent	no	absent	1	2003
62fbdda6e4b5a034b71296f8	502367	4	main	slash	26	square	local	LVF	yes	present	1	806
62fbdda6e4b5a034b71296f8	503881	4	main	slash	27	square	local	RVF	yes	present	1	772
62fbdda6e4b5a034b71296f8	505435	4	main	slash	28	square	global	LVF	yes	present	1	784
62fbdda6e4b5a034b71296f8	506943	4	main	slash	29	square	global	RVF	yes	present	1	776
62fbdda6e4b5a034b71296f8	508804	4	main	slash	30	rectangle	global	RVF	yes	present	1	1115
62fbdda6e4b5a034b71296f8	510362	4	main	slash	31	square	global	RVF	yes	present	1	817
62fbdda6e4b5a034b71296f8	511948	4	main	slash	32	rectangle	local	LVF	yes	present	1	861
62fbdda6e4b5a034b71296f8	513540	4	main	slash	33	rectangle	global	LVF	yes	present	1	840
62fbdda6e4b5a034b71296f8	516294	4	main	slash	34	absent	absent	absent	no	absent	1	2003
62fbdda6e4b5a034b71296f8	519321	4	main	slash	35	absent	absent	absent	no	absent	1	2003
62fbdda6e4b5a034b71296f8	522338	4	main	slash	36	absent	absent	absent	no	absent	1	2003
62fbdda6e4b5a034b71296f8	524188	4	main	slash	37	square	local	LVF	yes	present	1	835
62fbdda6e4b5a034b71296f8	525783	4	main	slash	38	rectangle	local	RVF	yes	present	1	836
62fbdda6e4b5a034b71296f8	528560	4	main	slash	39	absent	absent	absent	no	absent	1	2003
62fbdda6e4b5a034b71296f8	531655	4	main	slash	40	absent	absent	absent	no	absent	1	2003
62fbdda6e4b5a034b71296f8	533543	4	main	slash	41	square	global	LVF	yes	present	1	859
62fbdda6e4b5a034b71296f8	535366	4	main	slash	42	square	global	RVF	yes	present	1	883
62fbdda6e4b5a034b71296f8	538246	4	main	slash	43	absent	absent	absent	no	absent	1	2003
62fbdda6e4b5a034b71296f8	540263	4	main	slash	44	rectangle	global	RVF	yes	present	1	893
62fbdda6e4b5a034b71296f8	542181	4	main	slash	45	rectangle	global	RVF	yes	present	1	913
62fbdda6e4b5a034b71296f8	543974	4	main	slash	46	rectangle	local	LVF	yes	present	1	882
62fbdda6e4b5a034b71296f8	545587	4	main	slash	47	square	local	RVF	yes	present	1	891
62fbdda6e4b5a034b71296f8	547297	4	main	slash	48	rectangle	local	RVF	yes	present	1	961
62fbdda6e4b5a034b71296f8	548904	4	main	slash	49	square	local	RVF	yes	present	1	867
62fbdda6e4b5a034b71296f8	550480	4	main	slash	50	rectangle	local	LVF	yes	present	1	871
62fbdda6e4b5a034b71296f8	552106	4	main	slash	51	square	global	RVF	yes	present	1	918
62fbdda6e4b5a034b71296f8	553635	4	main	slash	52	rectangle	local	RVF	yes	present	1	826
62fbdda6e4b5a034b71296f8	556344	4	main	slash	53	absent	absent	absent	no	absent	1	2003
62fbdda6e4b5a034b71296f8	559401	4	main	slash	54	absent	absent	absent	no	absent	1	2003
62fbdda6e4b5a034b71296f8	561407	4	main	slash	55	square	local	LVF	yes	present	1	878
62fbdda6e4b5a034b71296f8	563246	4	main	slash	56	square	local	LVF	yes	present	1	914
62fbdda6e4b5a034b71296f8	564851	4	main	slash	57	rectangle	local	RVF	yes	present	1	875
62fbdda6e4b5a034b71296f8	566437	4	main	slash	58	rectangle	global	LVF	yes	present	1	876
62fbdda6e4b5a034b71296f8	569171	4	main	slash	59	absent	absent	absent	no	absent	1	2003
62fbdda6e4b5a034b71296f8	571008	4	main	slash	60	square	local	RVF	yes	present	1	834
62fbdda6e4b5a034b71296f8	572760	4	main	slash	61	square	global	RVF	yes	present	1	856
62fbdda6e4b5a034b71296f8	575656	4	main	slash	62	absent	absent	absent	no	absent	1	2003
62fbdda6e4b5a034b71296f8	577614	4	main	slash	63	square	local	LVF	yes	present	1	937
62fbdda6e4b5a034b71296f8	579379	4	main	slash	64	rectangle	local	LVF	yes	present	1	887
62fbdda6e4b5a034b71296f8	581171	4	main	slash	65	rectangle	local	RVF	yes	present	1	953
62fbdda6e4b5a034b71296f8	582994	4	main	slash	66	rectangle	global	LVF	yes	present	1	938
62fbdda6e4b5a034b71296f8	584770	4	main	slash	67	square	global	RVF	yes	present	1	960
62fbdda6e4b5a034b71296f8	586581	4	main	slash	68	rectangle	global	RVF	yes	present	1	927
62fbdda6e4b5a034b71296f8	588202	4	main	slash	69	square	global	LVF	yes	present	1	883
62fbdda6e4b5a034b71296f8	589802	4	main	slash	70	rectangle	local	LVF	yes	present	1	871
62fbdda6e4b5a034b71296f8	591339	4	main	slash	71	square	global	LVF	yes	present	1	851
62fbdda6e4b5a034b71296f8	594081	4	main	slash	72	absent	absent	absent	no	absent	1	2003
62fbdda6e4b5a034b71296f8	595980	4	main	slash	73	rectangle	global	LVF	yes	present	1	867
62fbdda6e4b5a034b71296f8	597725	4	main	slash	74	rectangle	global	RVF	yes	present	1	1019
62fbdda6e4b5a034b71296f8	600509	4	main	slash	75	absent	absent	absent	no	absent	1	2003
62fbdda6e4b5a034b71296f8	602349	4	main	slash	76	square	local	RVF	yes	present	1	853
62fbdda6e4b5a034b71296f8	603817	4	main	slash	77	square	local	LVF	yes	present	1	755
62fbdda6e4b5a034b71296f8	606525	4	main	slash	78	absent	absent	absent	no	absent	1	2003
62fbdda6e4b5a034b71296f8	607887	4	main	slash	79	rectangle	global	LVF	yes	present	1	449
62fbdda6e4b5a034b71296f8	609079	4	main	slash	80	square	global	LVF	yes	present	1	477
