subject	time_elapsed_ms	blocknum	block_type	block_response	trialnum	target	level	field	target_present	response	correct	rt
6384e8f79ddf2df1432db0e8	1183414	10.5	main	slash	1	square	local	LVF	yes	absent	0	2000
6384e8f79ddf2df1432db0e8	1188881	10.5	main	slash	2	square	local	LVF	yes	absent	0	2000
6384e8f79ddf2df1432db0e8	1194298	10.5	main	slash	3	rectangle	global	RVF	yes	absent	0	2000
6384e8f79ddf2df1432db0e8	1198056	10.5	main	slash	4	rectangle	global	RVF	yes	present	1	858
6384e8f79ddf2df1432db0e8	1201580	10.5	main	slash	5	square	local	RVF	yes	present	1	848
6384e8f79ddf2df1432db0e8	1205480	10.5	main	slash	6	rectangle	local	LVF	yes	absent	0	2000
6384e8f79ddf2df1432db0e8	1207918	10.5	main	slash	7	square	local	LVF	yes	present	1	1219
6384e8f79ddf2df1432db0e8	1210600	10.5	main	slash	8	rectangle	local	RVF	yes	present	1	903
6384e8f79ddf2df1432db0e8	1214448	10.5	main	slash	9	rectangle	local	RVF	yes	absent	0	2000
6384e8f79ddf2df1432db0e8	1217644	10.5	main	slash	10	square	local	RVF	yes	present	1	1629
6384e8f79ddf2df1432db0e8	1219818	10.5	main	slash	11	rectangle	global	LVF	yes	present	1	669
6384e8f79ddf2df1432db0e8	1221882	10.5	main	slash	12	rectangle	global	LVF	yes	present	1	601
6384e8f79ddf2df1432db0e8	1224196	10.5	main	slash	13	square	global	LVF	yes	present	1	864
6384e8f79ddf2df1432db0e8	1226934	10.5	main	slash	14	square	global	RVF	yes	present	1	1520
6384e8f79ddf2df1432db0e8	1228764	10.5	main	slash	15	rectangle	global	LVF	yes	present	1	700
6384e8f79ddf2df1432db0e8	1231142	10.5	main	slash	16	rectangle	local	LVF	yes	present	1	1228
6384e8f79ddf2df1432db0e8	1233179	10.5	main	slash	17	square	global	LVF	yes	present	1	882
6384e8f79ddf2df1432db0e8	1235072	10.5	main	slash	18	square	global	LVF	yes	present	1	758
6384e8f79ddf2df1432db0e8	1238415	10.5	main	slash	19	absent	absent	absent	no	absent	1	2000
6384e8f79ddf2df1432db0e8	1241748	10.5	main	slash	20	absent	absent	absent	no	absent	1	2000
6384e8f79ddf2df1432db0e8	1243640	10.5	main	slash	21	square	global	RVF	yes	present	1	675
6384e8f79ddf2df1432db0e8	1245785	10.5	main	slash	22	square	global	RVF	yes	present	1	720
6384e8f79ddf2df1432db0e8	1247715	10.5	main	slash	23	rectangle	local	LVF	yes	present	1	766
6384e8f79ddf2df1432db0e8	1249738	10.5	main	slash	24	rectangle	global	LVF	yes	present	1	723
6384e8f79ddf2df1432db0e8	1252848	10.5	main	slash	25	absent	absent	absent	no	absent	1	2000
6384e8f79ddf2df1432db0e8	1256032	10.5	main	slash	26	absent	absent	absent	no	absent	1	2000
6384e8f79ddf2df1432db0e8	1259632	10.5	main	slash	27	absent	absent	absent	no	absent	1	2000
6384e8f79ddf2df1432db0e8	1262849	10.5	main	slash	28	absent	absent	absent	no	absent	1	2000
6384e8f79ddf2df1432db0e8	1264780	10.5	main	slash	29	rectangle	local	RVF	yes	present	1	914
6384e8f79ddf2df1432db0e8	1266665	10.5	main	slash	30	rectangle	global	RVF	yes	present	1	667
6384e8f79ddf2df1432db0e8	1268754	10.5	main	slash	31	rectangle	local	RVF	yes	present	1	921
6384e8f79ddf2df1432db0e8	1271756	10.5	main	slash	32	rectangle	local	LVF	yes	present	1	807
6384e8f79ddf2df1432db0e8	1274149	10.5	main	slash	33	square	local	RVF	yes	present	1	968
6384e8f79ddf2df1432db0e8	1277640	10.5	main	slash	34	square	global	LVF	yes	present	1	642
6384e8f79ddf2df1432db0e8	1279618	10.5	main	slash	35	square	local	LVF	yes	present	1	703
6384e8f79ddf2df1432db0e8	1282749	10.5	main	slash	36	absent	absent	absent	no	absent	1	2000
6384e8f79ddf2df1432db0e8	1285419	10.5	main	slash	37	square	global	RVF	yes	present	1	1422
6384e8f79ddf2df1432db0e8	1288532	10.5	main	slash	38	absent	absent	absent	no	absent	1	2000
6384e8f79ddf2df1432db0e8	1290929	10.5	main	slash	39	rectangle	global	RVF	yes	present	1	696
6384e8f79ddf2df1432db0e8	1292812	10.5	main	slash	40	square	local	RVF	yes	present	1	730
6384e8f79ddf2df1432db0e8	1294712	10.5	main	slash	41	square	local	RVF	yes	present	1	746
6384e8f79ddf2df1432db0e8	1296838	10.5	main	slash	42	square	local	RVF	yes	present	1	939
6384e8f79ddf2df1432db0e8	1298883	10.5	main	slash	43	rectangle	global	RVF	yes	present	1	750
6384e8f79ddf2df1432db0e8	1301983	10.5	main	slash	44	absent	absent	absent	no	absent	1	2000
6384e8f79ddf2df1432db0e8	1305875	10.5	main	slash	45	square	global	LVF	yes	present	1	592
6384e8f79ddf2df1432db0e8	1309049	10.5	main	slash	46	absent	absent	absent	no	absent	1	2000
6384e8f79ddf2df1432db0e8	1312421	10.5	main	slash	47	rectangle	global	RVF	yes	present	1	706
6384e8f79ddf2df1432db0e8	1315500	10.5	main	slash	48	absent	absent	absent	no	absent	1	2000
6384e8f79ddf2df1432db0e8	1317131	10.5	main	slash	49	rectangle	global	LVF	yes	present	1	682
6384e8f79ddf2df1432db0e8	1318802	10.5	main	slash	50	rectangle	global	RVF	yes	present	1	619
6384e8f79ddf2df1432db0e8	1321866	10.5	main	slash	51	absent	absent	absent	no	absent	1	2000
6384e8f79ddf2df1432db0e8	1324534	10.5	main	slash	52	rectangle	local	RVF	yes	present	1	735
6384e8f79ddf2df1432db0e8	1326366	10.5	main	slash	53	square	local	LVF	yes	present	1	734
6384e8f79ddf2df1432db0e8	1328141	10.5	main	slash	54	square	global	RVF	yes	present	1	708
6384e8f79ddf2df1432db0e8	1329861	10.5	main	slash	55	square	local	RVF	yes	present	1	712
6384e8f79ddf2df1432db0e8	1331563	10.5	main	slash	56	rectangle	local	RVF	yes	present	1	713
6384e8f79ddf2df1432db0e8	1333971	10.5	main	slash	57	absent	absent	absent	no	present	0	1406
6384e8f79ddf2df1432db0e8	1336187	10.5	main	slash	58	square	local	LVF	yes	present	1	937
6384e8f79ddf2df1432db0e8	1337934	10.5	main	slash	59	rectangle	global	LVF	yes	present	1	685
6384e8f79ddf2df1432db0e8	1340933	10.5	main	slash	60	absent	absent	absent	no	absent	1	2000
6384e8f79ddf2df1432db0e8	1342556	10.5	main	slash	61	square	global	RVF	yes	present	1	607
6384e8f79ddf2df1432db0e8	1344262	10.5	main	slash	62	square	global	RVF	yes	present	1	680
6384e8f79ddf2df1432db0e8	1346049	10.5	main	slash	63	square	global	LVF	yes	present	1	833
6384e8f79ddf2df1432db0e8	1347832	10.5	main	slash	64	rectangle	local	LVF	yes	present	1	849
6384e8f79ddf2df1432db0e8	1350833	10.5	main	slash	65	absent	absent	absent	no	absent	1	2000
6384e8f79ddf2df1432db0e8	1352645	10.5	main	slash	66	rectangle	global	LVF	yes	present	1	546
6384e8f79ddf2df1432db0e8	1354321	10.5	main	slash	67	rectangle	local	LVF	yes	present	1	688
6384e8f79ddf2df1432db0e8	1355990	10.5	main	slash	68	rectangle	local	LVF	yes	present	1	757
6384e8f79ddf2df1432db0e8	1357651	10.5	main	slash	69	square	local	LVF	yes	present	1	734
6384e8f79ddf2df1432db0e8	1359307	10.5	main	slash	70	rectangle	local	LVF	yes	present	1	724
6384e8f79ddf2df1432db0e8	1361031	10.5	main	slash	71	rectangle	global	RVF	yes	present	1	748
6384e8f79ddf2df1432db0e8	1363005	10.5	main	slash	72	square	global	RVF	yes	present	1	1055
6384e8f79ddf2df1432db0e8	1364758	10.5	main	slash	73	square	global	LVF	yes	present	1	708
6384e8f79ddf2df1432db0e8	1366730	10.5	main	slash	74	rectangle	local	RVF	yes	present	1	947
6384e8f79ddf2df1432db0e8	1368604	10.5	main	slash	75	square	local	LVF	yes	present	1	804
6384e8f79ddf2df1432db0e8	1371616	10.5	main	slash	76	absent	absent	absent	no	absent	1	2000
6384e8f79ddf2df1432db0e8	1373947	10.5	main	slash	77	square	global	LVF	yes	present	1	647
6384e8f79ddf2df1432db0e8	1375588	10.5	main	slash	78	square	local	RVF	yes	present	1	671
6384e8f79ddf2df1432db0e8	1377094	10.5	main	slash	79	rectangle	global	LVF	yes	present	1	544
6384e8f79ddf2df1432db0e8	1378740	10.5	main	slash	80	rectangle	local	RVF	yes	present	1	707
6384e8f79ddf2df1432db0e8	1429679	11.5	practice	z	1	rectangle	global	RVF	yes	present	1	860
6384e8f79ddf2df1432db0e8	1433579	11.5	practice	z	2	rectangle	local	RVF	yes	present	1	676
6384e8f79ddf2df1432db0e8	1436315	11.5	practice	z	3	square	local	LVF	yes	present	1	695
6384e8f79ddf2df1432db0e8	1439089	11.5	practice	z	4	square	local	LVF	yes	present	1	753
6384e8f79ddf2df1432db0e8	1441691	11.5	practice	z	5	square	global	RVF	yes	present	1	605
6384e8f79ddf2df1432db0e8	1444322	11.5	practice	z	6	rectangle	global	LVF	yes	present	1	668
6384e8f79ddf2df1432db0e8	1446951	11.5	practice	z	7	rectangle	local	RVF	yes	present	1	648
6384e8f79ddf2df1432db0e8	1449571	11.5	practice	z	8	square	global	LVF	yes	present	1	667
6384e8f79ddf2df1432db0e8	1453537	11.5	practice	z	9	absent	absent	absent	no	absent	1	2000
6384e8f79ddf2df1432db0e8	1458353	11.5	practice	z	10	absent	absent	absent	no	absent	1	2000
6384e8f79ddf2df1432db0e8	1461351	11.5	practice	z	11	rectangle	local	RVF	yes	present	1	798
6384e8f79ddf2df1432db0e8	1464034	11.5	practice	z	12	rectangle	global	LVF	yes	present	1	664
6384e8f79ddf2df1432db0e8	1466939	11.5	practice	z	13	rectangle	global	RVF	yes	present	1	919
6384e8f79ddf2df1432db0e8	1469550	11.5	practice	z	14	square	global	LVF	yes	present	1	680
6384e8f79ddf2df1432db0e8	1473570	11.5	practice	z	15	absent	absent	absent	no	absent	1	2000
6384e8f79ddf2df1432db0e8	1478036	11.5	practice	z	16	absent	absent	absent	no	absent	1	2000
6384e8f79ddf2df1432db0e8	1493204	12.5	main	z	1	square	local	LVF	yes	present	1	870
6384e8f79ddf2df1432db0e8	1495034	12.5	main	z	2	rectangle	local	LVF	yes	present	1	633
6384e8f79ddf2df1432db0e8	1496831	12.5	main	z	3	square	global	RVF	yes	present	1	713
6384e8f79ddf2df1432db0e8	1498553	12.5	main	z	4	rectangle	global	RVF	yes	present	1	636
6384e8f79ddf2df1432db0e8	1500302	12.5	main	z	5	rectangle	global	RVF	yes	present	1	668
6384e8f79ddf2df1432db0e8	1502023	12.5	main	z	6	square	global	RVF	yes	present	1	656
6384e8f79ddf2df1432db0e8	1503735	12.5	main	z	7	rectangle	local	RVF	yes	present	1	668
6384e8f79ddf2df1432db0e8	1505454	12.5	main	z	8	square	local	RVF	yes	present	1	671
6384e8f79ddf2df1432db0e8	1507158	12.5	main	z	9	rectangle	global	LVF	yes	present	1	624
6384e8f79ddf2df1432db0e8	1508877	12.5	main	z	10	rectangle	local	LVF	yes	present	1	676
6384e8f79ddf2df1432db0e8	1510590	12.5	main	z	11	square	local	RVF	yes	present	1	706
6384e8f79ddf2df1432db0e8	1512673	12.5	main	z	12	square	local	LVF	yes	present	1	1056
6384e8f79ddf2df1432db0e8	1514536	12.5	main	z	13	square	global	LVF	yes	present	1	735
6384e8f79ddf2df1432db0e8	1516231	12.5	main	z	14	square	local	LVF	yes	present	1	596
6384e8f79ddf2df1432db0e8	1518107	12.5	main	z	15	square	global	LVF	yes	present	1	806
6384e8f79ddf2df1432db0e8	1519989	12.5	main	z	16	rectangle	local	RVF	yes	present	1	787
6384e8f79ddf2df1432db0e8	1521796	12.5	main	z	17	square	global	LVF	yes	present	1	744
6384e8f79ddf2df1432db0e8	1523549	12.5	main	z	18	square	local	LVF	yes	present	1	714
6384e8f79ddf2df1432db0e8	1526602	12.5	main	z	19	absent	absent	absent	no	absent	1	2000
6384e8f79ddf2df1432db0e8	1530451	12.5	main	z	20	absent	absent	absent	no	absent	1	2000
6384e8f79ddf2df1432db0e8	1533802	12.5	main	z	21	absent	absent	absent	no	absent	1	2000
6384e8f79ddf2df1432db0e8	1536802	12.5	main	z	22	absent	absent	absent	no	absent	1	2000
6384e8f79ddf2df1432db0e8	1538473	12.5	main	z	23	square	global	LVF	yes	present	1	671
6384e8f79ddf2df1432db0e8	1540353	12.5	main	z	24	rectangle	local	RVF	yes	present	1	819
6384e8f79ddf2df1432db0e8	1542045	12.5	main	z	25	rectangle	global	LVF	yes	present	1	627
6384e8f79ddf2df1432db0e8	1544257	12.5	main	z	26	rectangle	global	RVF	yes	present	1	889
6384e8f79ddf2df1432db0e8	1547385	12.5	main	z	27	absent	absent	absent	no	absent	1	2000
6384e8f79ddf2df1432db0e8	1549600	12.5	main	z	28	rectangle	local	LVF	yes	present	1	1064
6384e8f79ddf2df1432db0e8	1551866	12.5	main	z	29	rectangle	local	LVF	yes	present	1	1098
6384e8f79ddf2df1432db0e8	1553979	12.5	main	z	30	rectangle	local	RVF	yes	present	1	1044
6384e8f79ddf2df1432db0e8	1555708	12.5	main	z	31	square	local	RVF	yes	present	1	756
6384e8f79ddf2df1432db0e8	1557613	12.5	main	z	32	square	local	RVF	yes	present	1	928
6384e8f79ddf2df1432db0e8	1560552	12.5	main	z	33	absent	absent	absent	no	absent	1	2000
6384e8f79ddf2df1432db0e8	1562910	12.5	main	z	34	rectangle	global	LVF	yes	present	1	674
6384e8f79ddf2df1432db0e8	1564631	12.5	main	z	35	rectangle	global	RVF	yes	present	1	729
6384e8f79ddf2df1432db0e8	1566257	12.5	main	z	36	rectangle	global	LVF	yes	present	1	671
6384e8f79ddf2df1432db0e8	1569185	12.5	main	z	37	absent	absent	absent	no	absent	1	2000
6384e8f79ddf2df1432db0e8	1570955	12.5	main	z	38	square	global	RVF	yes	present	1	686
6384e8f79ddf2df1432db0e8	1573986	12.5	main	z	39	absent	absent	absent	no	absent	1	2000
6384e8f79ddf2df1432db0e8	1575976	12.5	main	z	40	square	global	RVF	yes	present	1	890
6384e8f79ddf2df1432db0e8	1577894	12.5	main	z	41	rectangle	local	RVF	yes	present	1	841
6384e8f79ddf2df1432db0e8	1580852	12.5	main	z	42	rectangle	local	LVF	yes	absent	0	2000
6384e8f79ddf2df1432db0e8	1582861	12.5	main	z	43	square	local	LVF	yes	present	1	892
6384e8f79ddf2df1432db0e8	1584684	12.5	main	z	44	rectangle	global	LVF	yes	present	1	715
6384e8f79ddf2df1432db0e8	1586563	12.5	main	z	45	rectangle	global	RVF	yes	present	1	945
6384e8f79ddf2df1432db0e8	1589803	12.5	main	z	46	absent	absent	absent	no	absent	1	2000
6384e8f79ddf2df1432db0e8	1592836	12.5	main	z	47	absent	absent	absent	no	absent	1	2000
6384e8f79ddf2df1432db0e8	1595786	12.5	main	z	48	absent	absent	absent	no	absent	1	2000
6384e8f79ddf2df1432db0e8	1598273	12.5	main	z	49	rectangle	local	RVF	yes	present	1	721
6384e8f79ddf2df1432db0e8	1601269	12.5	main	z	50	absent	absent	absent	no	absent	1	2000
6384e8f79ddf2df1432db0e8	1604586	12.5	main	z	51	absent	absent	absent	no	absent	1	2000
6384e8f79ddf2df1432db0e8	1608005	12.5	main	z	52	square	global	RVF	yes	present	1	868
6384e8f79ddf2df1432db0e8	1609611	12.5	main	z	53	rectangle	local	RVF	yes	present	1	675
6384e8f79ddf2df1432db0e8	1611379	12.5	main	z	54	square	global	RVF	yes	present	1	776
6384e8f79ddf2df1432db0e8	1613092	12.5	main	z	55	square	local	RVF	yes	present	1	740
6384e8f79ddf2df1432db0e8	1614938	12.5	main	z	56	rectangle	local	RVF	yes	present	1	870
6384e8f79ddf2df1432db0e8	1616668	12.5	main	z	57	rectangle	global	RVF	yes	present	1	766
6384e8f79ddf2df1432db0e8	1618414	12.5	main	z	58	square	local	RVF	yes	present	1	779
6384e8f79ddf2df1432db0e8	1620439	12.5	main	z	59	rectangle	global	LVF	yes	present	1	1036
6384e8f79ddf2df1432db0e8	1622334	12.5	main	z	60	square	local	RVF	yes	present	1	765
6384e8f79ddf2df1432db0e8	1624043	12.5	main	z	61	rectangle	global	LVF	yes	present	1	690
6384e8f79ddf2df1432db0e8	1625729	12.5	main	z	62	rectangle	global	LVF	yes	present	1	676
6384e8f79ddf2df1432db0e8	1627646	12.5	main	z	63	rectangle	local	LVF	yes	present	1	911
6384e8f79ddf2df1432db0e8	1629822	12.5	main	z	64	square	local	LVF	yes	present	1	1170
6384e8f79ddf2df1432db0e8	1632007	12.5	main	z	65	square	global	RVF	yes	present	1	954
6384e8f79ddf2df1432db0e8	1633783	12.5	main	z	66	square	local	RVF	yes	present	1	781
6384e8f79ddf2df1432db0e8	1636048	12.5	main	z	67	square	global	RVF	yes	present	1	1028
6384e8f79ddf2df1432db0e8	1637767	12.5	main	z	68	rectangle	global	RVF	yes	present	1	730
6384e8f79ddf2df1432db0e8	1639364	12.5	main	z	69	square	local	LVF	yes	present	1	611
6384e8f79ddf2df1432db0e8	1641138	12.5	main	z	70	square	local	LVF	yes	present	1	753
6384e8f79ddf2df1432db0e8	1642746	12.5	main	z	71	rectangle	global	RVF	yes	present	1	727
6384e8f79ddf2df1432db0e8	1644311	12.5	main	z	72	square	global	LVF	yes	present	1	675
6384e8f79ddf2df1432db0e8	1647287	12.5	main	z	73	absent	absent	absent	no	absent	1	2000
6384e8f79ddf2df1432db0e8	1649142	12.5	main	z	74	square	global	LVF	yes	present	1	756
6384e8f79ddf2df1432db0e8	1650737	12.5	main	z	75	square	global	LVF	yes	present	1	685
6384e8f79ddf2df1432db0e8	1652501	12.5	main	z	76	square	global	LVF	yes	present	1	799
6384e8f79ddf2df1432db0e8	1655386	12.5	main	z	77	absent	absent	absent	no	absent	1	2000
6384e8f79ddf2df1432db0e8	1658770	12.5	main	z	78	absent	absent	absent	no	absent	1	2000
6384e8f79ddf2df1432db0e8	1660644	12.5	main	z	79	rectangle	local	LVF	yes	present	1	842
6384e8f79ddf2df1432db0e8	1662591	12.5	main	z	80	rectangle	local	LVF	yes	present	1	922
