subject	time_elapsed_ms	blocknum	block_type	block_response	trialnum	target	level	field	target_present	response	correct	rt
63d413840c9c512ac3dfc533	531122	9.5	practice	slash	1	square	local	LVF	yes	present	1	720
63d413840c9c512ac3dfc533	534320	9.5	practice	slash	2	square	global	LVF	yes	present	1	881
63d413840c9c512ac3dfc533	537381	9.5	practice	slash	3	square	global	RVF	yes	present	1	907
63d413840c9c512ac3dfc533	540082	9.5	practice	slash	4	rectangle	global	RVF	yes	present	1	721
63d413840c9c512ac3dfc533	543501	9.5	practice	slash	5	rectangle	global	LVF	yes	present	1	870
63d413840c9c512ac3dfc533	547583	9.5	practice	slash	6	absent	absent	absent	no	absent	1	2000
63d413840c9c512ac3dfc533	550566	9.5	practice	slash	7	rectangle	local	RVF	yes	present	1	1029
63d413840c9c512ac3dfc533	554508	9.5	practice	slash	8	absent	absent	absent	no	absent	1	2000
63d413840c9c512ac3dfc533	557267	9.5	practice	slash	9	square	local	LVF	yes	present	1	856
63d413840c9c512ac3dfc533	560049	9.5	practice	slash	10	rectangle	local	RVF	yes	present	1	884
63d413840c9c512ac3dfc533	562922	9.5	practice	slash	11	rectangle	global	RVF	yes	present	1	923
63d413840c9c512ac3dfc533	566258	9.5	practice	slash	12	absent	absent	absent	no	present	0	1422
63d413840c9c512ac3dfc533	570189	9.5	practice	slash	13	absent	absent	absent	no	absent	1	2000
63d413840c9c512ac3dfc533	573365	9.5	practice	slash	14	square	global	LVF	yes	present	1	1304
63d413840c9c512ac3dfc533	576034	9.5	practice	slash	15	rectangle	global	LVF	yes	present	1	821
63d413840c9c512ac3dfc533	578759	9.5	practice	slash	16	rectangle	local	RVF	yes	present	1	844
63d413840c9c512ac3dfc533	584419	10.5	main	slash	1	rectangle	local	LVF	yes	present	1	765
63d413840c9c512ac3dfc533	586927	10.5	main	slash	2	rectangle	global	LVF	yes	present	1	751
63d413840c9c512ac3dfc533	588918	10.5	main	slash	3	rectangle	local	RVF	yes	present	1	776
63d413840c9c512ac3dfc533	592078	10.5	main	slash	4	absent	absent	absent	no	absent	1	2000
63d413840c9c512ac3dfc533	593932	10.5	main	slash	5	square	local	LVF	yes	present	1	851
63d413840c9c512ac3dfc533	595969	10.5	main	slash	6	rectangle	global	RVF	yes	present	1	836
63d413840c9c512ac3dfc533	599068	10.5	main	slash	7	square	global	RVF	yes	absent	0	2000
63d413840c9c512ac3dfc533	600893	10.5	main	slash	8	rectangle	global	LVF	yes	present	1	821
63d413840c9c512ac3dfc533	603973	10.5	main	slash	9	absent	absent	absent	no	absent	1	2000
63d413840c9c512ac3dfc533	605714	10.5	main	slash	10	square	local	RVF	yes	present	1	838
63d413840c9c512ac3dfc533	607707	10.5	main	slash	11	rectangle	global	RVF	yes	present	1	845
63d413840c9c512ac3dfc533	609667	10.5	main	slash	12	rectangle	local	RVF	yes	present	1	855
63d413840c9c512ac3dfc533	611752	10.5	main	slash	13	square	global	RVF	yes	present	1	971
63d413840c9c512ac3dfc533	613808	10.5	main	slash	14	rectangle	local	RVF	yes	present	1	958
63d413840c9c512ac3dfc533	615718	10.5	main	slash	15	rectangle	local	LVF	yes	present	1	833
63d413840c9c512ac3dfc533	618804	10.5	main	slash	16	absent	absent	absent	no	absent	1	2000
63d413840c9c512ac3dfc533	621874	10.5	main	slash	17	absent	absent	absent	no	absent	1	2000
63d413840c9c512ac3dfc533	623631	10.5	main	slash	18	square	local	RVF	yes	present	1	821
63d413840c9c512ac3dfc533	626495	10.5	main	slash	19	square	global	LVF	yes	present	1	1683
63d413840c9c512ac3dfc533	628519	10.5	main	slash	20	rectangle	local	LVF	yes	present	1	871
63d413840c9c512ac3dfc533	630325	10.5	main	slash	21	square	local	RVF	yes	present	1	775
63d413840c9c512ac3dfc533	633336	10.5	main	slash	22	square	global	LVF	yes	absent	0	2000
63d413840c9c512ac3dfc533	635178	10.5	main	slash	23	square	local	LVF	yes	present	1	789
63d413840c9c512ac3dfc533	638223	10.5	main	slash	24	absent	absent	absent	no	absent	1	2000
63d413840c9c512ac3dfc533	639882	10.5	main	slash	25	rectangle	global	LVF	yes	present	1	789
63d413840c9c512ac3dfc533	641786	10.5	main	slash	26	square	local	RVF	yes	present	1	909
63d413840c9c512ac3dfc533	643709	10.5	main	slash	27	square	global	RVF	yes	present	1	863
63d413840c9c512ac3dfc533	645482	10.5	main	slash	28	square	local	LVF	yes	present	1	734
63d413840c9c512ac3dfc533	648483	10.5	main	slash	29	absent	absent	absent	no	absent	1	2000
63d413840c9c512ac3dfc533	650156	10.5	main	slash	30	square	global	LVF	yes	present	1	770
63d413840c9c512ac3dfc533	651966	10.5	main	slash	31	rectangle	global	LVF	yes	present	1	795
63d413840c9c512ac3dfc533	653732	10.5	main	slash	32	square	local	LVF	yes	present	1	760
63d413840c9c512ac3dfc533	655513	10.5	main	slash	33	rectangle	global	RVF	yes	present	1	839
63d413840c9c512ac3dfc533	657248	10.5	main	slash	34	rectangle	global	RVF	yes	present	1	738
63d413840c9c512ac3dfc533	660211	10.5	main	slash	35	absent	absent	absent	no	absent	1	2000
63d413840c9c512ac3dfc533	663081	10.5	main	slash	36	absent	absent	absent	no	absent	1	2000
63d413840c9c512ac3dfc533	664687	10.5	main	slash	37	square	global	RVF	yes	present	1	753
63d413840c9c512ac3dfc533	666495	10.5	main	slash	38	rectangle	local	RVF	yes	present	1	842
63d413840c9c512ac3dfc533	668189	10.5	main	slash	39	square	global	LVF	yes	present	1	769
63d413840c9c512ac3dfc533	670056	10.5	main	slash	40	rectangle	local	LVF	yes	present	1	800
63d413840c9c512ac3dfc533	671823	10.5	main	slash	41	rectangle	global	RVF	yes	present	1	782
63d413840c9c512ac3dfc533	673635	10.5	main	slash	42	rectangle	local	LVF	yes	present	1	860
63d413840c9c512ac3dfc533	675982	10.5	main	slash	43	absent	absent	absent	no	present	0	1404
63d413840c9c512ac3dfc533	677749	10.5	main	slash	44	rectangle	local	RVF	yes	present	1	786
63d413840c9c512ac3dfc533	679435	10.5	main	slash	45	rectangle	global	LVF	yes	present	1	821
63d413840c9c512ac3dfc533	681018	10.5	main	slash	46	square	local	LVF	yes	present	1	819
63d413840c9c512ac3dfc533	683851	10.5	main	slash	47	absent	absent	absent	no	absent	1	2000
63d413840c9c512ac3dfc533	686353	10.5	main	slash	48	absent	absent	absent	no	present	0	1566
63d413840c9c512ac3dfc533	688097	10.5	main	slash	49	square	local	RVF	yes	present	1	808
63d413840c9c512ac3dfc533	690958	10.5	main	slash	50	absent	absent	absent	no	absent	1	2000
63d413840c9c512ac3dfc533	692478	10.5	main	slash	51	rectangle	local	RVF	yes	present	1	666
63d413840c9c512ac3dfc533	694051	10.5	main	slash	52	square	global	RVF	yes	present	1	689
63d413840c9c512ac3dfc533	695787	10.5	main	slash	53	square	global	LVF	yes	present	1	922
63d413840c9c512ac3dfc533	697293	10.5	main	slash	54	rectangle	local	LVF	yes	present	1	745
63d413840c9c512ac3dfc533	698816	10.5	main	slash	55	rectangle	local	RVF	yes	present	1	798
63d413840c9c512ac3dfc533	700257	10.5	main	slash	56	rectangle	global	LVF	yes	present	1	738
63d413840c9c512ac3dfc533	701811	10.5	main	slash	57	square	global	RVF	yes	present	1	807
63d413840c9c512ac3dfc533	703329	10.5	main	slash	58	square	global	RVF	yes	present	1	757
63d413840c9c512ac3dfc533	704795	10.5	main	slash	59	rectangle	global	LVF	yes	present	1	772
63d413840c9c512ac3dfc533	706240	10.5	main	slash	60	square	global	LVF	yes	present	1	748
63d413840c9c512ac3dfc533	707634	10.5	main	slash	61	rectangle	global	RVF	yes	present	1	708
63d413840c9c512ac3dfc533	708987	10.5	main	slash	62	rectangle	local	LVF	yes	present	1	643
63d413840c9c512ac3dfc533	710769	10.5	main	slash	63	square	global	LVF	yes	present	1	1041
63d413840c9c512ac3dfc533	712294	10.5	main	slash	64	square	global	RVF	yes	present	1	814
63d413840c9c512ac3dfc533	713883	10.5	main	slash	65	square	local	LVF	yes	present	1	852
63d413840c9c512ac3dfc533	715355	10.5	main	slash	66	square	local	RVF	yes	present	1	755
63d413840c9c512ac3dfc533	718068	10.5	main	slash	67	absent	absent	absent	no	absent	1	2000
63d413840c9c512ac3dfc533	719787	10.5	main	slash	68	square	global	LVF	yes	present	1	850
63d413840c9c512ac3dfc533	721365	10.5	main	slash	69	square	local	LVF	yes	present	1	889
63d413840c9c512ac3dfc533	722870	10.5	main	slash	70	rectangle	local	LVF	yes	present	1	830
63d413840c9c512ac3dfc533	725559	10.5	main	slash	71	absent	absent	absent	no	absent	1	2000
63d413840c9c512ac3dfc533	727244	10.5	main	slash	72	rectangle	global	LVF	yes	present	1	749
63d413840c9c512ac3dfc533	728766	10.5	main	slash	73	rectangle	global	RVF	yes	present	1	802
63d413840c9c512ac3dfc533	730384	10.5	main	slash	74	rectangle	local	RVF	yes	present	1	937
63d413840c9c512ac3dfc533	731926	10.5	main	slash	75	square	local	RVF	yes	present	1	843
63d413840c9c512ac3dfc533	733424	10.5	main	slash	76	square	local	LVF	yes	present	1	824
63d413840c9c512ac3dfc533	734955	10.5	main	slash	77	square	local	RVF	yes	present	1	819
63d413840c9c512ac3dfc533	736791	10.5	main	slash	78	absent	absent	absent	no	present	0	1120
63d413840c9c512ac3dfc533	738439	10.5	main	slash	79	rectangle	global	RVF	yes	present	1	933
63d413840c9c512ac3dfc533	741158	10.5	main	slash	80	absent	absent	absent	no	absent	1	2000
63d413840c9c512ac3dfc533	754668	11.5	practice	z	1	square	global	RVF	yes	present	1	413
63d413840c9c512ac3dfc533	757245	11.5	practice	z	2	rectangle	global	LVF	yes	present	1	604
63d413840c9c512ac3dfc533	759836	11.5	practice	z	3	rectangle	global	LVF	yes	present	1	709
63d413840c9c512ac3dfc533	762314	11.5	practice	z	4	square	local	LVF	yes	present	1	519
63d413840c9c512ac3dfc533	765086	11.5	practice	z	5	square	global	LVF	yes	present	1	670
63d413840c9c512ac3dfc533	767714	11.5	practice	z	6	rectangle	local	RVF	yes	present	1	764
63d413840c9c512ac3dfc533	770273	11.5	practice	z	7	rectangle	global	RVF	yes	present	1	719
63d413840c9c512ac3dfc533	774122	11.5	practice	z	8	absent	absent	absent	no	absent	1	2000
63d413840c9c512ac3dfc533	776729	11.5	practice	z	9	square	local	LVF	yes	present	1	619
63d413840c9c512ac3dfc533	779240	11.5	practice	z	10	rectangle	global	RVF	yes	present	1	645
63d413840c9c512ac3dfc533	783214	11.5	practice	z	11	absent	absent	absent	no	absent	1	2000
63d413840c9c512ac3dfc533	785904	11.5	practice	z	12	rectangle	local	RVF	yes	present	1	786
63d413840c9c512ac3dfc533	788642	11.5	practice	z	13	square	global	LVF	yes	present	1	771
63d413840c9c512ac3dfc533	792507	11.5	practice	z	14	absent	absent	absent	no	absent	1	2000
63d413840c9c512ac3dfc533	796478	11.5	practice	z	15	absent	absent	absent	no	absent	1	2000
63d413840c9c512ac3dfc533	799091	11.5	practice	z	16	rectangle	local	RVF	yes	present	1	759
63d413840c9c512ac3dfc533	802914	12.5	main	z	1	rectangle	global	LVF	yes	present	1	561
63d413840c9c512ac3dfc533	804705	12.5	main	z	2	rectangle	local	RVF	yes	present	1	550
63d413840c9c512ac3dfc533	807756	12.5	main	z	3	absent	absent	absent	no	absent	1	2000
63d413840c9c512ac3dfc533	809223	12.5	main	z	4	square	global	RVF	yes	present	1	580
63d413840c9c512ac3dfc533	810934	12.5	main	z	5	square	local	RVF	yes	present	1	641
63d413840c9c512ac3dfc533	812482	12.5	main	z	6	rectangle	global	LVF	yes	present	1	604
63d413840c9c512ac3dfc533	814023	12.5	main	z	7	square	local	LVF	yes	present	1	576
63d413840c9c512ac3dfc533	815524	12.5	main	z	8	rectangle	local	LVF	yes	present	1	743
63d413840c9c512ac3dfc533	816920	12.5	main	z	9	rectangle	local	LVF	yes	present	1	653
63d413840c9c512ac3dfc533	819635	12.5	main	z	10	absent	absent	absent	no	absent	1	2000
63d413840c9c512ac3dfc533	821183	12.5	main	z	11	rectangle	global	RVF	yes	present	1	613
63d413840c9c512ac3dfc533	822682	12.5	main	z	12	rectangle	global	RVF	yes	present	1	794
63d413840c9c512ac3dfc533	825390	12.5	main	z	13	absent	absent	absent	no	absent	1	2000
63d413840c9c512ac3dfc533	826957	12.5	main	z	14	rectangle	local	RVF	yes	present	1	698
63d413840c9c512ac3dfc533	828481	12.5	main	z	15	square	local	LVF	yes	present	1	804
63d413840c9c512ac3dfc533	830073	12.5	main	z	16	square	local	RVF	yes	present	1	877
63d413840c9c512ac3dfc533	831684	12.5	main	z	17	rectangle	local	LVF	yes	present	1	887
63d413840c9c512ac3dfc533	834415	12.5	main	z	18	square	global	LVF	yes	absent	0	2000
63d413840c9c512ac3dfc533	836074	12.5	main	z	19	rectangle	global	RVF	yes	present	1	772
63d413840c9c512ac3dfc533	837583	12.5	main	z	20	square	global	LVF	yes	present	1	796
63d413840c9c512ac3dfc533	839070	12.5	main	z	21	square	global	RVF	yes	present	1	815
63d413840c9c512ac3dfc533	841790	12.5	main	z	22	absent	absent	absent	no	absent	1	2000
63d413840c9c512ac3dfc533	844625	12.5	main	z	23	absent	absent	absent	no	absent	1	2000
63d413840c9c512ac3dfc533	846305	12.5	main	z	24	square	global	RVF	yes	present	1	794
63d413840c9c512ac3dfc533	847888	12.5	main	z	25	square	global	LVF	yes	present	1	875
63d413840c9c512ac3dfc533	849531	12.5	main	z	26	rectangle	local	RVF	yes	present	1	950
63d413840c9c512ac3dfc533	852216	12.5	main	z	27	absent	absent	absent	no	absent	1	2000
63d413840c9c512ac3dfc533	854536	12.5	main	z	28	square	local	LVF	yes	present	1	749
63d413840c9c512ac3dfc533	856087	12.5	main	z	29	rectangle	global	LVF	yes	present	1	833
63d413840c9c512ac3dfc533	857698	12.5	main	z	30	square	local	RVF	yes	present	1	891
63d413840c9c512ac3dfc533	859932	12.5	main	z	31	absent	absent	absent	no	present	0	1491
63d413840c9c512ac3dfc533	861435	12.5	main	z	32	square	local	LVF	yes	present	1	809
63d413840c9c512ac3dfc533	864111	12.5	main	z	33	absent	absent	absent	no	absent	1	2000
63d413840c9c512ac3dfc533	865853	12.5	main	z	34	square	global	LVF	yes	present	1	839
63d413840c9c512ac3dfc533	867463	12.5	main	z	35	rectangle	local	RVF	yes	present	1	897
63d413840c9c512ac3dfc533	869240	12.5	main	z	36	rectangle	local	LVF	yes	present	1	1072
63d413840c9c512ac3dfc533	870853	12.5	main	z	37	rectangle	global	LVF	yes	present	1	883
63d413840c9c512ac3dfc533	872434	12.5	main	z	38	square	local	RVF	yes	present	1	863
63d413840c9c512ac3dfc533	874092	12.5	main	z	39	rectangle	global	RVF	yes	present	1	953
63d413840c9c512ac3dfc533	875723	12.5	main	z	40	square	global	RVF	yes	present	1	932
63d413840c9c512ac3dfc533	878442	12.5	main	z	41	absent	absent	absent	no	absent	1	2000
63d413840c9c512ac3dfc533	881328	12.5	main	z	42	absent	absent	absent	no	absent	1	2000
63d413840c9c512ac3dfc533	882996	12.5	main	z	43	rectangle	local	RVF	yes	present	1	815
63d413840c9c512ac3dfc533	884555	12.5	main	z	44	square	local	RVF	yes	present	1	840
63d413840c9c512ac3dfc533	886159	12.5	main	z	45	square	local	LVF	yes	present	1	892
63d413840c9c512ac3dfc533	887830	12.5	main	z	46	square	global	LVF	yes	present	1	978
63d413840c9c512ac3dfc533	890522	12.5	main	z	47	absent	absent	absent	no	absent	1	2000
63d413840c9c512ac3dfc533	892152	12.5	main	z	48	square	local	LVF	yes	present	1	762
63d413840c9c512ac3dfc533	894858	12.5	main	z	49	absent	absent	absent	no	absent	1	2000
63d413840c9c512ac3dfc533	896524	12.5	main	z	50	rectangle	local	LVF	yes	present	1	814
63d413840c9c512ac3dfc533	899212	12.5	main	z	51	absent	absent	absent	no	absent	1	2000
63d413840c9c512ac3dfc533	900909	12.5	main	z	52	rectangle	global	RVF	yes	present	1	810
63d413840c9c512ac3dfc533	902576	12.5	main	z	53	rectangle	global	LVF	yes	present	1	959
63d413840c9c512ac3dfc533	904236	12.5	main	z	54	rectangle	global	LVF	yes	present	1	917
63d413840c9c512ac3dfc533	905785	12.5	main	z	55	square	global	RVF	yes	present	1	831
63d413840c9c512ac3dfc533	907438	12.5	main	z	56	square	local	RVF	yes	present	1	933
63d413840c9c512ac3dfc533	910123	12.5	main	z	57	absent	absent	absent	no	absent	1	2000
63d413840c9c512ac3dfc533	911838	12.5	main	z	58	square	local	RVF	yes	present	1	746
63d413840c9c512ac3dfc533	913430	12.5	main	z	59	square	global	LVF	yes	present	1	852
63d413840c9c512ac3dfc533	914978	12.5	main	z	60	square	global	RVF	yes	present	1	833
63d413840c9c512ac3dfc533	917681	12.5	main	z	61	absent	absent	absent	no	absent	1	2000
63d413840c9c512ac3dfc533	919277	12.5	main	z	62	square	global	LVF	yes	present	1	744
63d413840c9c512ac3dfc533	920830	12.5	main	z	63	rectangle	local	LVF	yes	present	1	829
63d413840c9c512ac3dfc533	922486	12.5	main	z	64	rectangle	local	LVF	yes	present	1	917
63d413840c9c512ac3dfc533	924115	12.5	main	z	65	rectangle	global	RVF	yes	present	1	944
63d413840c9c512ac3dfc533	925568	12.5	main	z	66	rectangle	local	RVF	yes	present	1	762
63d413840c9c512ac3dfc533	926964	12.5	main	z	67	square	global	RVF	yes	present	1	724
63d413840c9c512ac3dfc533	928318	12.5	main	z	68	square	global	RVF	yes	present	1	676
63d413840c9c512ac3dfc533	929667	12.5	main	z	69	rectangle	global	LVF	yes	present	1	641
63d413840c9c512ac3dfc533	931127	12.5	main	z	70	rectangle	local	LVF	yes	present	1	733
63d413840c9c512ac3dfc533	932549	12.5	main	z	71	rectangle	local	RVF	yes	present	1	719
63d413840c9c512ac3dfc533	933909	12.5	main	z	72	rectangle	local	RVF	yes	present	1	644
63d413840c9c512ac3dfc533	935360	12.5	main	z	73	rectangle	global	RVF	yes	present	1	744
63d413840c9c512ac3dfc533	936844	12.5	main	z	74	square	local	LVF	yes	present	1	793
63d413840c9c512ac3dfc533	938378	12.5	main	z	75	square	local	LVF	yes	present	1	825
63d413840c9c512ac3dfc533	939777	12.5	main	z	76	square	local	RVF	yes	present	1	690
63d413840c9c512ac3dfc533	942472	12.5	main	z	77	absent	absent	absent	no	absent	1	2000
63d413840c9c512ac3dfc533	944164	12.5	main	z	78	rectangle	global	LVF	yes	present	1	790
63d413840c9c512ac3dfc533	945741	12.5	main	z	79	rectangle	global	RVF	yes	present	1	849
63d413840c9c512ac3dfc533	947335	12.5	main	z	80	square	global	LVF	yes	present	1	875
