subject	time_elapsed_ms	blocknum	block_type	block_response	trialnum	target	level	field	target_present	response	correct	rt
63db1ccde6434330f2a99d87	994539	9.5	practice	z	1	rectangle	global	LVF	yes	present	1	524
63db1ccde6434330f2a99d87	998048	9.5	practice	z	2	rectangle	local	RVF	yes	present	1	716
63db1ccde6434330f2a99d87	1000662	9.5	practice	z	3	square	global	LVF	yes	present	1	464
63db1ccde6434330f2a99d87	1004315	9.5	practice	z	4	square	global	LVF	yes	present	1	387
63db1ccde6434330f2a99d87	1008381	9.5	practice	z	5	square	local	LVF	yes	absent	0	2000
63db1ccde6434330f2a99d87	1011111	9.5	practice	z	6	rectangle	global	LVF	yes	present	1	596
63db1ccde6434330f2a99d87	1014577	9.5	practice	z	7	rectangle	local	RVF	yes	present	1	1321
63db1ccde6434330f2a99d87	1017340	9.5	practice	z	8	rectangle	local	RVF	yes	present	1	659
63db1ccde6434330f2a99d87	1019751	9.5	practice	z	9	square	global	RVF	yes	present	1	387
63db1ccde6434330f2a99d87	1022268	9.5	practice	z	10	rectangle	global	RVF	yes	present	1	488
63db1ccde6434330f2a99d87	1025867	9.5	practice	z	11	square	local	LVF	yes	present	1	1084
63db1ccde6434330f2a99d87	1028818	9.5	practice	z	12	absent	absent	absent	no	present	0	803
63db1ccde6434330f2a99d87	1032881	9.5	practice	z	13	absent	absent	absent	no	absent	1	2000
63db1ccde6434330f2a99d87	1036063	9.5	practice	z	14	absent	absent	absent	no	present	0	1147
63db1ccde6434330f2a99d87	1039129	9.5	practice	z	15	absent	absent	absent	no	present	0	1014
63db1ccde6434330f2a99d87	1042254	9.5	practice	z	16	rectangle	global	RVF	yes	present	1	1075
63db1ccde6434330f2a99d87	1048642	10.5	main	z	1	square	global	LVF	yes	present	1	513
63db1ccde6434330f2a99d87	1050817	10.5	main	z	2	square	global	RVF	yes	present	1	538
63db1ccde6434330f2a99d87	1053128	10.5	main	z	3	rectangle	local	RVF	yes	present	1	848
63db1ccde6434330f2a99d87	1055619	10.5	main	z	4	rectangle	global	RVF	yes	present	1	572
63db1ccde6434330f2a99d87	1058354	10.5	main	z	5	absent	absent	absent	no	present	0	1025
63db1ccde6434330f2a99d87	1060578	10.5	main	z	6	square	local	LVF	yes	present	1	883
63db1ccde6434330f2a99d87	1062640	10.5	main	z	7	rectangle	global	LVF	yes	present	1	693
63db1ccde6434330f2a99d87	1065092	10.5	main	z	8	rectangle	local	RVF	yes	present	1	945
63db1ccde6434330f2a99d87	1067025	10.5	main	z	9	square	local	RVF	yes	present	1	613
63db1ccde6434330f2a99d87	1069032	10.5	main	z	10	square	local	RVF	yes	present	1	602
63db1ccde6434330f2a99d87	1071487	10.5	main	z	11	absent	absent	absent	no	present	0	990
63db1ccde6434330f2a99d87	1073666	10.5	main	z	12	rectangle	local	LVF	yes	present	1	849
63db1ccde6434330f2a99d87	1075600	10.5	main	z	13	rectangle	local	LVF	yes	present	1	636
63db1ccde6434330f2a99d87	1078896	10.5	main	z	14	absent	absent	absent	no	absent	1	2000
63db1ccde6434330f2a99d87	1080579	10.5	main	z	15	rectangle	global	LVF	yes	present	1	583
63db1ccde6434330f2a99d87	1082613	10.5	main	z	16	absent	absent	absent	no	present	0	733
63db1ccde6434330f2a99d87	1084320	10.5	main	z	17	rectangle	local	LVF	yes	present	1	558
63db1ccde6434330f2a99d87	1086243	10.5	main	z	18	square	local	RVF	yes	present	1	630
63db1ccde6434330f2a99d87	1088405	10.5	main	z	19	square	global	LVF	yes	present	1	808
63db1ccde6434330f2a99d87	1090232	10.5	main	z	20	square	global	LVF	yes	present	1	538
63db1ccde6434330f2a99d87	1092165	10.5	main	z	21	rectangle	global	LVF	yes	present	1	521
63db1ccde6434330f2a99d87	1094292	10.5	main	z	22	square	local	RVF	yes	present	1	779
63db1ccde6434330f2a99d87	1096093	10.5	main	z	23	square	global	RVF	yes	present	1	614
63db1ccde6434330f2a99d87	1098040	10.5	main	z	24	rectangle	global	LVF	yes	present	1	744
63db1ccde6434330f2a99d87	1101346	10.5	main	z	25	absent	absent	absent	no	absent	1	2000
63db1ccde6434330f2a99d87	1103073	10.5	main	z	26	square	local	LVF	yes	present	1	510
63db1ccde6434330f2a99d87	1105234	10.5	main	z	27	square	local	LVF	yes	present	1	721
63db1ccde6434330f2a99d87	1108329	10.5	main	z	28	absent	absent	absent	no	absent	1	2000
63db1ccde6434330f2a99d87	1109934	10.5	main	z	29	rectangle	local	RVF	yes	present	1	638
63db1ccde6434330f2a99d87	1112013	10.5	main	z	30	square	global	RVF	yes	present	1	784
63db1ccde6434330f2a99d87	1113792	10.5	main	z	31	rectangle	global	RVF	yes	present	1	512
63db1ccde6434330f2a99d87	1117146	10.5	main	z	32	absent	absent	absent	no	absent	1	2000
63db1ccde6434330f2a99d87	1119583	10.5	main	z	33	square	local	LVF	yes	present	1	853
63db1ccde6434330f2a99d87	1122812	10.5	main	z	34	absent	absent	absent	no	absent	1	2000
63db1ccde6434330f2a99d87	1124411	10.5	main	z	35	square	global	LVF	yes	present	1	716
63db1ccde6434330f2a99d87	1126338	10.5	main	z	36	rectangle	local	RVF	yes	present	1	709
63db1ccde6434330f2a99d87	1128342	10.5	main	z	37	rectangle	global	RVF	yes	present	1	828
63db1ccde6434330f2a99d87	1130553	10.5	main	z	38	rectangle	local	LVF	yes	present	1	1088
63db1ccde6434330f2a99d87	1132294	10.5	main	z	39	square	global	RVF	yes	present	1	581
63db1ccde6434330f2a99d87	1134187	10.5	main	z	40	rectangle	global	RVF	yes	present	1	674
63db1ccde6434330f2a99d87	1136217	10.5	main	z	41	square	local	RVF	yes	present	1	787
63db1ccde6434330f2a99d87	1138174	10.5	main	z	42	rectangle	global	LVF	yes	present	1	761
63db1ccde6434330f2a99d87	1140013	10.5	main	z	43	rectangle	global	RVF	yes	present	1	733
63db1ccde6434330f2a99d87	1143212	10.5	main	z	44	absent	absent	absent	no	absent	1	2000
63db1ccde6434330f2a99d87	1145029	10.5	main	z	45	square	global	RVF	yes	present	1	648
63db1ccde6434330f2a99d87	1146841	10.5	main	z	46	square	global	RVF	yes	present	1	495
63db1ccde6434330f2a99d87	1148785	10.5	main	z	47	square	local	LVF	yes	present	1	689
63db1ccde6434330f2a99d87	1150639	10.5	main	z	48	rectangle	global	RVF	yes	present	1	759
63db1ccde6434330f2a99d87	1153680	10.5	main	z	49	absent	absent	absent	no	absent	1	2000
63db1ccde6434330f2a99d87	1156629	10.5	main	z	50	absent	absent	absent	no	absent	1	2000
63db1ccde6434330f2a99d87	1158133	10.5	main	z	51	square	local	RVF	yes	present	1	589
63db1ccde6434330f2a99d87	1160135	10.5	main	z	52	rectangle	global	LVF	yes	present	1	605
63db1ccde6434330f2a99d87	1162038	10.5	main	z	53	square	global	LVF	yes	present	1	609
63db1ccde6434330f2a99d87	1163738	10.5	main	z	54	rectangle	global	LVF	yes	present	1	558
63db1ccde6434330f2a99d87	1165518	10.5	main	z	55	rectangle	local	RVF	yes	present	1	671
63db1ccde6434330f2a99d87	1167314	10.5	main	z	56	rectangle	global	RVF	yes	present	1	701
63db1ccde6434330f2a99d87	1169435	10.5	main	z	57	square	local	LVF	yes	present	1	971
63db1ccde6434330f2a99d87	1171159	10.5	main	z	58	square	global	LVF	yes	present	1	630
63db1ccde6434330f2a99d87	1174295	10.5	main	z	59	square	global	RVF	yes	absent	0	2000
63db1ccde6434330f2a99d87	1175730	10.5	main	z	60	square	global	LVF	yes	present	1	450
63db1ccde6434330f2a99d87	1179613	10.5	main	z	61	rectangle	local	LVF	yes	absent	0	2000
63db1ccde6434330f2a99d87	1182754	10.5	main	z	62	absent	absent	absent	no	present	0	906
63db1ccde6434330f2a99d87	1184459	10.5	main	z	63	rectangle	global	RVF	yes	present	1	629
63db1ccde6434330f2a99d87	1187529	10.5	main	z	64	absent	absent	absent	no	absent	1	2000
63db1ccde6434330f2a99d87	1188964	10.5	main	z	65	square	global	RVF	yes	present	1	601
63db1ccde6434330f2a99d87	1190747	10.5	main	z	66	square	local	LVF	yes	present	1	617
63db1ccde6434330f2a99d87	1192315	10.5	main	z	67	rectangle	global	LVF	yes	present	1	587
63db1ccde6434330f2a99d87	1194046	10.5	main	z	68	rectangle	local	RVF	yes	present	1	705
63db1ccde6434330f2a99d87	1195844	10.5	main	z	69	rectangle	local	LVF	yes	present	1	713
63db1ccde6434330f2a99d87	1199146	10.5	main	z	70	absent	absent	absent	no	absent	1	2000
63db1ccde6434330f2a99d87	1201083	10.5	main	z	71	rectangle	local	LVF	yes	present	1	684
63db1ccde6434330f2a99d87	1204285	10.5	main	z	72	absent	absent	absent	no	absent	1	2000
63db1ccde6434330f2a99d87	1205996	10.5	main	z	73	rectangle	local	LVF	yes	present	1	600
63db1ccde6434330f2a99d87	1207568	10.5	main	z	74	square	local	LVF	yes	present	1	540
63db1ccde6434330f2a99d87	1210580	10.5	main	z	75	absent	absent	absent	no	absent	1	2000
63db1ccde6434330f2a99d87	1212180	10.5	main	z	76	square	global	LVF	yes	present	1	685
63db1ccde6434330f2a99d87	1214012	10.5	main	z	77	square	local	RVF	yes	present	1	732
63db1ccde6434330f2a99d87	1215944	10.5	main	z	78	rectangle	local	RVF	yes	present	1	814
63db1ccde6434330f2a99d87	1217964	10.5	main	z	79	rectangle	local	RVF	yes	present	1	718
63db1ccde6434330f2a99d87	1219752	10.5	main	z	80	square	local	RVF	yes	present	1	706
63db1ccde6434330f2a99d87	1234093	11.5	practice	slash	1	absent	absent	absent	no	present	0	661
63db1ccde6434330f2a99d87	1236727	11.5	practice	slash	2	square	local	LVF	yes	present	1	495
63db1ccde6434330f2a99d87	1239394	11.5	practice	slash	3	rectangle	global	LVF	yes	present	1	630
63db1ccde6434330f2a99d87	1241917	11.5	practice	slash	4	square	local	LVF	yes	present	1	420
63db1ccde6434330f2a99d87	1244650	11.5	practice	slash	5	rectangle	global	LVF	yes	present	1	653
63db1ccde6434330f2a99d87	1247678	11.5	practice	slash	6	absent	absent	absent	no	present	0	880
63db1ccde6434330f2a99d87	1251780	11.5	practice	slash	7	absent	absent	absent	no	absent	1	2000
63db1ccde6434330f2a99d87	1254526	11.5	practice	slash	8	rectangle	local	RVF	yes	present	1	510
63db1ccde6434330f2a99d87	1257466	11.5	practice	slash	9	rectangle	global	RVF	yes	present	1	868
63db1ccde6434330f2a99d87	1259723	11.5	practice	slash	10	rectangle	local	RVF	yes	present	1	526
63db1ccde6434330f2a99d87	1262413	11.5	practice	slash	11	square	global	LVF	yes	present	1	550
63db1ccde6434330f2a99d87	1266547	11.5	practice	slash	12	absent	absent	absent	no	absent	1	2000
63db1ccde6434330f2a99d87	1269415	11.5	practice	slash	13	square	global	LVF	yes	present	1	619
63db1ccde6434330f2a99d87	1272089	11.5	practice	slash	14	rectangle	local	RVF	yes	present	1	527
63db1ccde6434330f2a99d87	1274846	11.5	practice	slash	15	rectangle	global	RVF	yes	present	1	731
63db1ccde6434330f2a99d87	1277575	11.5	practice	slash	16	square	global	RVF	yes	present	1	443
63db1ccde6434330f2a99d87	1281400	12.5	main	slash	1	rectangle	local	RVF	yes	present	1	654
63db1ccde6434330f2a99d87	1284156	12.5	main	slash	2	absent	absent	absent	no	present	0	1010
63db1ccde6434330f2a99d87	1286405	12.5	main	slash	3	rectangle	local	LVF	yes	present	1	924
63db1ccde6434330f2a99d87	1288358	12.5	main	slash	4	square	global	LVF	yes	present	1	679
63db1ccde6434330f2a99d87	1291679	12.5	main	slash	5	absent	absent	absent	no	absent	1	2000
63db1ccde6434330f2a99d87	1293276	12.5	main	slash	6	rectangle	local	LVF	yes	present	1	581
63db1ccde6434330f2a99d87	1295202	12.5	main	slash	7	square	global	LVF	yes	present	1	657
63db1ccde6434330f2a99d87	1297100	12.5	main	slash	8	rectangle	global	LVF	yes	present	1	437
63db1ccde6434330f2a99d87	1298935	12.5	main	slash	9	square	local	RVF	yes	present	1	539
63db1ccde6434330f2a99d87	1301259	12.5	main	slash	10	square	local	LVF	yes	present	1	746
63db1ccde6434330f2a99d87	1304746	12.5	main	slash	11	absent	absent	absent	no	absent	1	2000
63db1ccde6434330f2a99d87	1306574	12.5	main	slash	12	rectangle	local	RVF	yes	present	1	510
63db1ccde6434330f2a99d87	1309931	12.5	main	slash	13	absent	absent	absent	no	absent	1	2000
63db1ccde6434330f2a99d87	1311671	12.5	main	slash	14	square	local	RVF	yes	present	1	507
63db1ccde6434330f2a99d87	1314964	12.5	main	slash	15	absent	absent	absent	no	absent	1	2000
63db1ccde6434330f2a99d87	1316724	12.5	main	slash	16	rectangle	global	RVF	yes	present	1	511
63db1ccde6434330f2a99d87	1318347	12.5	main	slash	17	rectangle	global	RVF	yes	present	1	469
63db1ccde6434330f2a99d87	1320267	12.5	main	slash	18	square	local	LVF	yes	present	1	704
63db1ccde6434330f2a99d87	1322303	12.5	main	slash	19	rectangle	global	LVF	yes	present	1	774
63db1ccde6434330f2a99d87	1324222	12.5	main	slash	20	rectangle	local	RVF	yes	present	1	528
63db1ccde6434330f2a99d87	1326194	12.5	main	slash	21	rectangle	local	LVF	yes	present	1	616
63db1ccde6434330f2a99d87	1328203	12.5	main	slash	22	square	global	RVF	yes	present	1	474
63db1ccde6434330f2a99d87	1330114	12.5	main	slash	23	rectangle	local	LVF	yes	present	1	601
63db1ccde6434330f2a99d87	1332113	12.5	main	slash	24	rectangle	local	RVF	yes	present	1	567
63db1ccde6434330f2a99d87	1334556	12.5	main	slash	25	rectangle	global	RVF	yes	present	1	759
63db1ccde6434330f2a99d87	1338029	12.5	main	slash	26	absent	absent	absent	no	absent	1	2000
63db1ccde6434330f2a99d87	1341156	12.5	main	slash	27	absent	absent	absent	no	present	0	1857
63db1ccde6434330f2a99d87	1343179	12.5	main	slash	28	square	global	LVF	yes	present	1	750
63db1ccde6434330f2a99d87	1344944	12.5	main	slash	29	rectangle	global	LVF	yes	present	1	549
63db1ccde6434330f2a99d87	1347229	12.5	main	slash	30	square	global	LVF	yes	present	1	733
63db1ccde6434330f2a99d87	1350513	12.5	main	slash	31	rectangle	global	RVF	yes	absent	0	2000
63db1ccde6434330f2a99d87	1352215	12.5	main	slash	32	square	global	RVF	yes	present	1	569
63db1ccde6434330f2a99d87	1354033	12.5	main	slash	33	rectangle	global	LVF	yes	present	1	554
63db1ccde6434330f2a99d87	1357329	12.5	main	slash	34	absent	absent	absent	no	absent	1	2000
63db1ccde6434330f2a99d87	1359114	12.5	main	slash	35	square	global	RVF	yes	present	1	567
63db1ccde6434330f2a99d87	1361041	12.5	main	slash	36	square	local	RVF	yes	present	1	511
63db1ccde6434330f2a99d87	1362805	12.5	main	slash	37	square	local	LVF	yes	present	1	542
63db1ccde6434330f2a99d87	1364616	12.5	main	slash	38	square	local	RVF	yes	present	1	487
63db1ccde6434330f2a99d87	1367963	12.5	main	slash	39	square	global	RVF	yes	absent	0	2000
63db1ccde6434330f2a99d87	1370014	12.5	main	slash	40	square	local	LVF	yes	present	1	984
63db1ccde6434330f2a99d87	1371972	12.5	main	slash	41	rectangle	local	RVF	yes	present	1	693
63db1ccde6434330f2a99d87	1373969	12.5	main	slash	42	rectangle	local	LVF	yes	present	1	621
63db1ccde6434330f2a99d87	1375862	12.5	main	slash	43	square	local	RVF	yes	present	1	466
63db1ccde6434330f2a99d87	1377725	12.5	main	slash	44	rectangle	local	RVF	yes	present	1	562
63db1ccde6434330f2a99d87	1379706	12.5	main	slash	45	rectangle	global	LVF	yes	present	1	743
63db1ccde6434330f2a99d87	1381872	12.5	main	slash	46	square	global	RVF	yes	present	1	843
63db1ccde6434330f2a99d87	1385162	12.5	main	slash	47	absent	absent	absent	no	absent	1	2000
63db1ccde6434330f2a99d87	1386874	12.5	main	slash	48	rectangle	global	LVF	yes	present	1	678
63db1ccde6434330f2a99d87	1390063	12.5	main	slash	49	absent	absent	absent	no	absent	1	2000
63db1ccde6434330f2a99d87	1391919	12.5	main	slash	50	rectangle	local	LVF	yes	present	1	689
63db1ccde6434330f2a99d87	1394010	12.5	main	slash	51	rectangle	global	RVF	yes	present	1	548
63db1ccde6434330f2a99d87	1396092	12.5	main	slash	52	square	local	LVF	yes	present	1	745
63db1ccde6434330f2a99d87	1399463	12.5	main	slash	53	absent	absent	absent	no	absent	1	2000
63db1ccde6434330f2a99d87	1401716	12.5	main	slash	54	rectangle	global	LVF	yes	present	1	1169
63db1ccde6434330f2a99d87	1403620	12.5	main	slash	55	square	local	RVF	yes	present	1	657
63db1ccde6434330f2a99d87	1406063	12.5	main	slash	56	rectangle	local	LVF	yes	present	1	1149
63db1ccde6434330f2a99d87	1408117	12.5	main	slash	57	rectangle	global	RVF	yes	present	1	771
63db1ccde6434330f2a99d87	1410261	12.5	main	slash	58	square	local	LVF	yes	present	1	848
63db1ccde6434330f2a99d87	1412281	12.5	main	slash	59	square	global	RVF	yes	present	1	718
63db1ccde6434330f2a99d87	1414104	12.5	main	slash	60	rectangle	local	RVF	yes	present	1	491
63db1ccde6434330f2a99d87	1415784	12.5	main	slash	61	square	local	RVF	yes	present	1	438
63db1ccde6434330f2a99d87	1419063	12.5	main	slash	62	absent	absent	absent	no	absent	1	2000
63db1ccde6434330f2a99d87	1420639	12.5	main	slash	63	square	local	LVF	yes	present	1	609
63db1ccde6434330f2a99d87	1423880	12.5	main	slash	64	absent	absent	absent	no	absent	1	2000
63db1ccde6434330f2a99d87	1425390	12.5	main	slash	65	square	global	LVF	yes	present	1	577
63db1ccde6434330f2a99d87	1427180	12.5	main	slash	66	square	global	RVF	yes	present	1	452
63db1ccde6434330f2a99d87	1430463	12.5	main	slash	67	absent	absent	absent	no	absent	1	2000
63db1ccde6434330f2a99d87	1432027	12.5	main	slash	68	rectangle	global	RVF	yes	present	1	516
63db1ccde6434330f2a99d87	1433891	12.5	main	slash	69	square	global	LVF	yes	present	1	507
63db1ccde6434330f2a99d87	1435798	12.5	main	slash	70	rectangle	local	RVF	yes	present	1	585
63db1ccde6434330f2a99d87	1437744	12.5	main	slash	71	rectangle	global	LVF	yes	present	1	580
63db1ccde6434330f2a99d87	1439713	12.5	main	slash	72	rectangle	local	LVF	yes	present	1	599
63db1ccde6434330f2a99d87	1441739	12.5	main	slash	73	square	global	RVF	yes	present	1	492
63db1ccde6434330f2a99d87	1443507	12.5	main	slash	74	square	local	RVF	yes	present	1	493
63db1ccde6434330f2a99d87	1445562	12.5	main	slash	75	square	global	LVF	yes	present	1	699
63db1ccde6434330f2a99d87	1448979	12.5	main	slash	76	absent	absent	absent	no	absent	1	2000
63db1ccde6434330f2a99d87	1452079	12.5	main	slash	77	absent	absent	absent	no	absent	1	2000
63db1ccde6434330f2a99d87	1453697	12.5	main	slash	78	square	local	LVF	yes	present	1	668
63db1ccde6434330f2a99d87	1457146	12.5	main	slash	79	square	global	LVF	yes	absent	0	2000
63db1ccde6434330f2a99d87	1458889	12.5	main	slash	80	rectangle	global	RVF	yes	present	1	809
