subject	time_elapsed_ms	blocknum	block_type	block_response	trialnum	target	level	field	target_present	response	correct	rt
63ea44a0adefd2af8e13015c	187875	1	practice	slash	1	rectangle	local	RVF	yes	absent	0	2000
63ea44a0adefd2af8e13015c	190884	1	practice	slash	2	rectangle	global	LVF	yes	present	1	491
63ea44a0adefd2af8e13015c	194226	1	practice	slash	3	rectangle	local	RVF	yes	present	1	684
63ea44a0adefd2af8e13015c	199059	1	practice	slash	4	rectangle	global	RVF	yes	absent	0	2000
63ea44a0adefd2af8e13015c	203545	1	practice	slash	5	rectangle	local	RVF	yes	present	1	836
63ea44a0adefd2af8e13015c	208492	1	practice	slash	6	square	global	LVF	yes	absent	0	2000
63ea44a0adefd2af8e13015c	213810	1	practice	slash	7	square	global	RVF	yes	present	1	1335
63ea44a0adefd2af8e13015c	219143	1	practice	slash	8	absent	absent	absent	no	absent	1	2000
63ea44a0adefd2af8e13015c	224575	1	practice	slash	9	absent	absent	absent	no	absent	1	2000
63ea44a0adefd2af8e13015c	229399	1	practice	slash	10	rectangle	global	LVF	yes	present	1	890
63ea44a0adefd2af8e13015c	234759	1	practice	slash	11	absent	absent	absent	no	absent	1	2000
63ea44a0adefd2af8e13015c	238407	1	practice	slash	12	square	local	LVF	yes	present	1	1114
63ea44a0adefd2af8e13015c	241981	1	practice	slash	13	square	global	LVF	yes	present	1	904
63ea44a0adefd2af8e13015c	247526	1	practice	slash	14	square	local	LVF	yes	absent	0	2000
63ea44a0adefd2af8e13015c	250632	1	practice	slash	15	rectangle	global	RVF	yes	present	1	807
63ea44a0adefd2af8e13015c	254876	1	practice	slash	16	absent	absent	absent	no	absent	1	2000
63ea44a0adefd2af8e13015c	260760	2	main	slash	1	square	local	LVF	yes	present	1	1086
63ea44a0adefd2af8e13015c	264482	2	main	slash	2	square	global	LVF	yes	present	1	908
63ea44a0adefd2af8e13015c	268863	2	main	slash	3	rectangle	global	RVF	yes	present	1	1290
63ea44a0adefd2af8e13015c	276774	2	main	slash	4	square	local	LVF	yes	absent	0	2000
63ea44a0adefd2af8e13015c	279236	2	main	slash	5	square	global	LVF	yes	present	1	778
63ea44a0adefd2af8e13015c	282072	2	main	slash	6	rectangle	global	LVF	yes	present	1	511
63ea44a0adefd2af8e13015c	285941	2	main	slash	7	absent	absent	absent	no	absent	1	2000
63ea44a0adefd2af8e13015c	287714	2	main	slash	8	square	global	LVF	yes	present	1	607
63ea44a0adefd2af8e13015c	291641	2	main	slash	9	rectangle	local	RVF	yes	absent	0	2000
63ea44a0adefd2af8e13015c	293920	2	main	slash	10	square	local	LVF	yes	present	1	1179
63ea44a0adefd2af8e13015c	299556	2	main	slash	11	rectangle	local	LVF	yes	present	1	1216
63ea44a0adefd2af8e13015c	303841	2	main	slash	12	square	global	RVF	yes	absent	0	2000
63ea44a0adefd2af8e13015c	306108	2	main	slash	13	rectangle	local	LVF	yes	present	1	917
63ea44a0adefd2af8e13015c	309413	2	main	slash	14	rectangle	global	RVF	yes	present	1	1389
63ea44a0adefd2af8e13015c	311510	2	main	slash	15	square	local	RVF	yes	present	1	569
63ea44a0adefd2af8e13015c	314067	2	main	slash	16	rectangle	global	LVF	yes	present	1	926
63ea44a0adefd2af8e13015c	316751	2	main	slash	17	rectangle	global	RVF	yes	present	1	976
63ea44a0adefd2af8e13015c	320508	2	main	slash	18	absent	absent	absent	no	absent	1	2000
63ea44a0adefd2af8e13015c	322181	2	main	slash	19	rectangle	global	LVF	yes	present	1	424
63ea44a0adefd2af8e13015c	324429	2	main	slash	20	rectangle	local	LVF	yes	present	1	655
63ea44a0adefd2af8e13015c	326871	2	main	slash	21	absent	absent	absent	no	present	0	946
63ea44a0adefd2af8e13015c	329304	2	main	slash	22	square	local	LVF	yes	present	1	496
63ea44a0adefd2af8e13015c	332095	2	main	slash	23	square	global	RVF	yes	present	1	720
63ea44a0adefd2af8e13015c	334044	2	main	slash	24	square	global	LVF	yes	present	1	469
63ea44a0adefd2af8e13015c	336011	2	main	slash	25	square	local	RVF	yes	present	1	553
63ea44a0adefd2af8e13015c	337978	2	main	slash	26	square	local	RVF	yes	present	1	488
63ea44a0adefd2af8e13015c	341175	2	main	slash	27	absent	absent	absent	no	absent	1	2000
63ea44a0adefd2af8e13015c	342621	2	main	slash	28	square	global	RVF	yes	present	1	446
63ea44a0adefd2af8e13015c	344877	2	main	slash	29	rectangle	local	LVF	yes	present	1	537
63ea44a0adefd2af8e13015c	348442	2	main	slash	30	absent	absent	absent	no	absent	1	2000
63ea44a0adefd2af8e13015c	349744	2	main	slash	31	rectangle	local	RVF	yes	present	1	452
63ea44a0adefd2af8e13015c	352898	2	main	slash	32	rectangle	local	RVF	yes	present	1	390
63ea44a0adefd2af8e13015c	354601	2	main	slash	33	rectangle	local	RVF	yes	present	1	293
63ea44a0adefd2af8e13015c	357440	2	main	slash	34	rectangle	global	RVF	yes	present	1	248
63ea44a0adefd2af8e13015c	359675	2	main	slash	35	square	global	RVF	yes	present	1	233
63ea44a0adefd2af8e13015c	361628	2	main	slash	36	absent	absent	absent	no	present	0	321
63ea44a0adefd2af8e13015c	364627	2	main	slash	37	rectangle	global	LVF	yes	present	1	786
63ea44a0adefd2af8e13015c	367060	2	main	slash	38	square	local	RVF	yes	present	1	585
63ea44a0adefd2af8e13015c	370542	2	main	slash	39	absent	absent	absent	no	absent	1	2000
63ea44a0adefd2af8e13015c	373625	2	main	slash	40	absent	absent	absent	no	absent	1	2000
63ea44a0adefd2af8e13015c	376658	2	main	slash	41	absent	absent	absent	no	absent	1	2000
63ea44a0adefd2af8e13015c	378156	2	main	slash	42	rectangle	global	RVF	yes	present	1	447
63ea44a0adefd2af8e13015c	380522	2	main	slash	43	rectangle	local	RVF	yes	present	1	630
63ea44a0adefd2af8e13015c	382457	2	main	slash	44	rectangle	local	RVF	yes	present	1	715
63ea44a0adefd2af8e13015c	385575	2	main	slash	45	absent	absent	absent	no	absent	1	2000
63ea44a0adefd2af8e13015c	387489	2	main	slash	46	rectangle	local	LVF	yes	present	1	797
63ea44a0adefd2af8e13015c	390842	2	main	slash	47	absent	absent	absent	no	absent	1	2000
63ea44a0adefd2af8e13015c	393721	2	main	slash	48	square	global	RVF	yes	present	1	328
63ea44a0adefd2af8e13015c	395979	2	main	slash	49	square	local	LVF	yes	present	1	654
63ea44a0adefd2af8e13015c	398133	2	main	slash	50	square	local	RVF	yes	present	1	424
63ea44a0adefd2af8e13015c	399844	2	main	slash	51	rectangle	global	RVF	yes	present	1	452
63ea44a0adefd2af8e13015c	403242	2	main	slash	52	absent	absent	absent	no	absent	1	2000
63ea44a0adefd2af8e13015c	406378	2	main	slash	53	rectangle	local	RVF	yes	present	1	420
63ea44a0adefd2af8e13015c	408524	2	main	slash	54	square	local	RVF	yes	present	1	530
63ea44a0adefd2af8e13015c	410567	2	main	slash	55	rectangle	local	LVF	yes	present	1	524
63ea44a0adefd2af8e13015c	412361	2	main	slash	56	rectangle	global	LVF	yes	present	1	570
63ea44a0adefd2af8e13015c	414517	2	main	slash	57	square	local	RVF	yes	present	1	608
63ea44a0adefd2af8e13015c	418060	2	main	slash	58	square	local	LVF	yes	present	1	1769
63ea44a0adefd2af8e13015c	421576	2	main	slash	59	absent	absent	absent	no	absent	1	2000
63ea44a0adefd2af8e13015c	423454	2	main	slash	60	square	local	LVF	yes	present	1	861
63ea44a0adefd2af8e13015c	426594	2	main	slash	61	square	global	LVF	yes	present	1	651
63ea44a0adefd2af8e13015c	429441	2	main	slash	62	rectangle	global	RVF	yes	present	1	598
63ea44a0adefd2af8e13015c	431883	2	main	slash	63	rectangle	global	LVF	yes	present	1	357
63ea44a0adefd2af8e13015c	435129	2	main	slash	64	rectangle	local	LVF	yes	present	1	986
63ea44a0adefd2af8e13015c	437323	2	main	slash	65	square	global	LVF	yes	present	1	504
63ea44a0adefd2af8e13015c	439944	2	main	slash	66	square	global	LVF	yes	present	1	519
63ea44a0adefd2af8e13015c	442437	2	main	slash	67	rectangle	local	RVF	yes	present	1	761
63ea44a0adefd2af8e13015c	444512	2	main	slash	68	square	global	RVF	yes	present	1	619
63ea44a0adefd2af8e13015c	446855	2	main	slash	69	square	local	RVF	yes	present	1	695
63ea44a0adefd2af8e13015c	448912	2	main	slash	70	square	global	RVF	yes	present	1	419
63ea44a0adefd2af8e13015c	450846	2	main	slash	71	square	global	RVF	yes	present	1	486
63ea44a0adefd2af8e13015c	452800	2	main	slash	72	square	local	LVF	yes	present	1	540
63ea44a0adefd2af8e13015c	456310	2	main	slash	73	absent	absent	absent	no	absent	1	2000
63ea44a0adefd2af8e13015c	458912	2	main	slash	74	rectangle	local	LVF	yes	present	1	1169
63ea44a0adefd2af8e13015c	461070	2	main	slash	75	rectangle	global	LVF	yes	present	1	643
63ea44a0adefd2af8e13015c	464576	2	main	slash	76	absent	absent	absent	no	absent	1	2000
63ea44a0adefd2af8e13015c	466732	2	main	slash	77	square	global	LVF	yes	present	1	523
63ea44a0adefd2af8e13015c	469244	2	main	slash	78	rectangle	global	LVF	yes	present	1	534
63ea44a0adefd2af8e13015c	474541	2	main	slash	79	rectangle	global	RVF	yes	present	1	507
63ea44a0adefd2af8e13015c	478160	2	main	slash	80	absent	absent	absent	no	absent	1	2000
63ea44a0adefd2af8e13015c	511480	3	practice	z	1	absent	absent	absent	no	absent	1	2000
63ea44a0adefd2af8e13015c	514576	3	practice	z	2	rectangle	local	RVF	yes	present	1	629
63ea44a0adefd2af8e13015c	518796	3	practice	z	3	absent	absent	absent	no	absent	1	2000
63ea44a0adefd2af8e13015c	521234	3	practice	z	4	rectangle	local	RVF	yes	present	1	421
63ea44a0adefd2af8e13015c	524576	3	practice	z	5	rectangle	global	LVF	yes	present	1	647
63ea44a0adefd2af8e13015c	527229	3	practice	z	6	square	global	LVF	yes	present	1	500
63ea44a0adefd2af8e13015c	530357	3	practice	z	7	rectangle	local	RVF	yes	present	1	843
63ea44a0adefd2af8e13015c	533250	3	practice	z	8	rectangle	global	RVF	yes	present	1	537
63ea44a0adefd2af8e13015c	536141	3	practice	z	9	square	local	LVF	yes	present	1	562
63ea44a0adefd2af8e13015c	539099	3	practice	z	10	square	global	RVF	yes	present	1	436
63ea44a0adefd2af8e13015c	541794	3	practice	z	11	absent	absent	absent	no	present	0	380
63ea44a0adefd2af8e13015c	546097	3	practice	z	12	absent	absent	absent	no	absent	1	2000
63ea44a0adefd2af8e13015c	548783	3	practice	z	13	rectangle	global	RVF	yes	present	1	569
63ea44a0adefd2af8e13015c	551507	3	practice	z	14	rectangle	global	LVF	yes	present	1	394
63ea44a0adefd2af8e13015c	554709	3	practice	z	15	square	local	LVF	yes	present	1	696
63ea44a0adefd2af8e13015c	557723	3	practice	z	16	square	global	LVF	yes	present	1	493
63ea44a0adefd2af8e13015c	564540	4	main	z	1	rectangle	local	RVF	yes	present	1	1063
63ea44a0adefd2af8e13015c	567488	4	main	z	2	rectangle	global	LVF	yes	present	1	794
63ea44a0adefd2af8e13015c	571227	4	main	z	3	rectangle	local	RVF	yes	present	1	482
63ea44a0adefd2af8e13015c	573542	4	main	z	4	square	global	RVF	yes	present	1	548
63ea44a0adefd2af8e13015c	575491	4	main	z	5	rectangle	global	RVF	yes	present	1	446
63ea44a0adefd2af8e13015c	579079	4	main	z	6	absent	absent	absent	no	absent	1	2000
63ea44a0adefd2af8e13015c	580653	4	main	z	7	rectangle	global	RVF	yes	present	1	408
63ea44a0adefd2af8e13015c	582892	4	main	z	8	square	local	RVF	yes	present	1	506
63ea44a0adefd2af8e13015c	585829	4	main	z	9	rectangle	global	RVF	yes	present	1	584
63ea44a0adefd2af8e13015c	589311	4	main	z	10	absent	absent	absent	no	absent	1	2000
63ea44a0adefd2af8e13015c	590809	4	main	z	11	square	global	RVF	yes	present	1	371
63ea44a0adefd2af8e13015c	592807	4	main	z	12	square	global	LVF	yes	present	1	463
63ea44a0adefd2af8e13015c	595082	4	main	z	13	square	local	LVF	yes	present	1	720
63ea44a0adefd2af8e13015c	597561	4	main	z	14	rectangle	local	LVF	yes	present	1	966
63ea44a0adefd2af8e13015c	599472	4	main	z	15	square	local	RVF	yes	present	1	545
63ea44a0adefd2af8e13015c	601080	4	main	z	16	square	local	LVF	yes	present	1	469
63ea44a0adefd2af8e13015c	602843	4	main	z	17	square	local	LVF	yes	present	1	315
63ea44a0adefd2af8e13015c	604511	4	main	z	18	rectangle	local	RVF	yes	present	1	499
63ea44a0adefd2af8e13015c	608078	4	main	z	19	absent	absent	absent	no	absent	1	2000
63ea44a0adefd2af8e13015c	611228	4	main	z	20	absent	absent	absent	no	absent	1	2000
63ea44a0adefd2af8e13015c	613531	4	main	z	21	rectangle	local	LVF	yes	present	1	552
63ea44a0adefd2af8e13015c	615391	4	main	z	22	square	local	RVF	yes	present	1	479
63ea44a0adefd2af8e13015c	617299	4	main	z	23	square	global	LVF	yes	present	1	521
63ea44a0adefd2af8e13015c	619568	4	main	z	24	rectangle	local	RVF	yes	present	1	523
63ea44a0adefd2af8e13015c	621192	4	main	z	25	square	global	LVF	yes	present	1	430
63ea44a0adefd2af8e13015c	623414	4	main	z	26	rectangle	local	LVF	yes	present	1	1019
63ea44a0adefd2af8e13015c	625244	4	main	z	27	rectangle	local	LVF	yes	present	1	515
63ea44a0adefd2af8e13015c	628412	4	main	z	28	absent	absent	absent	no	absent	1	2000
63ea44a0adefd2af8e13015c	629944	4	main	z	29	rectangle	global	RVF	yes	present	1	499
63ea44a0adefd2af8e13015c	632201	4	main	z	30	square	global	RVF	yes	present	1	856
63ea44a0adefd2af8e13015c	636196	4	main	z	31	absent	absent	absent	no	absent	1	2000
63ea44a0adefd2af8e13015c	637863	4	main	z	32	square	local	RVF	yes	present	1	585
63ea44a0adefd2af8e13015c	639862	4	main	z	33	square	local	LVF	yes	present	1	550
63ea44a0adefd2af8e13015c	641919	4	main	z	34	square	global	RVF	yes	present	1	573
63ea44a0adefd2af8e13015c	645062	4	main	z	35	absent	absent	absent	no	absent	1	2000
63ea44a0adefd2af8e13015c	646617	4	main	z	36	rectangle	global	LVF	yes	present	1	538
63ea44a0adefd2af8e13015c	648963	4	main	z	37	rectangle	global	LVF	yes	present	1	334
63ea44a0adefd2af8e13015c	650544	4	main	z	38	rectangle	global	LVF	yes	present	1	331
63ea44a0adefd2af8e13015c	653646	4	main	z	39	absent	absent	absent	no	absent	1	2000
63ea44a0adefd2af8e13015c	655057	4	main	z	40	square	global	LVF	yes	present	1	328
63ea44a0adefd2af8e13015c	658612	4	main	z	41	absent	absent	absent	no	absent	1	2000
63ea44a0adefd2af8e13015c	661912	4	main	z	42	absent	absent	absent	no	absent	1	2000
63ea44a0adefd2af8e13015c	663174	4	main	z	43	square	global	LVF	yes	present	1	262
63ea44a0adefd2af8e13015c	664846	4	main	z	44	square	global	LVF	yes	present	1	484
63ea44a0adefd2af8e13015c	666438	4	main	z	45	square	global	LVF	yes	present	1	309
63ea44a0adefd2af8e13015c	667826	4	main	z	46	absent	absent	absent	no	present	0	280
63ea44a0adefd2af8e13015c	669681	4	main	z	47	rectangle	global	RVF	yes	present	1	652
63ea44a0adefd2af8e13015c	671510	4	main	z	48	square	local	LVF	yes	present	1	714
63ea44a0adefd2af8e13015c	672979	4	main	z	49	square	global	RVF	yes	present	1	400
63ea44a0adefd2af8e13015c	674518	4	main	z	50	square	global	RVF	yes	present	1	439
63ea44a0adefd2af8e13015c	676019	4	main	z	51	absent	absent	absent	no	present	0	340
63ea44a0adefd2af8e13015c	677526	4	main	z	52	square	global	RVF	yes	present	1	363
63ea44a0adefd2af8e13015c	679800	4	main	z	53	rectangle	global	LVF	yes	present	1	337
63ea44a0adefd2af8e13015c	683613	4	main	z	54	rectangle	local	LVF	yes	absent	0	2000
63ea44a0adefd2af8e13015c	685396	4	main	z	55	square	local	RVF	yes	present	1	717
63ea44a0adefd2af8e13015c	686885	4	main	z	56	square	global	RVF	yes	present	1	356
63ea44a0adefd2af8e13015c	689963	4	main	z	57	absent	absent	absent	no	absent	1	2000
63ea44a0adefd2af8e13015c	691501	4	main	z	58	square	local	LVF	yes	present	1	355
63ea44a0adefd2af8e13015c	693629	4	main	z	59	absent	absent	absent	no	present	0	966
63ea44a0adefd2af8e13015c	695386	4	main	z	60	rectangle	local	RVF	yes	present	1	573
63ea44a0adefd2af8e13015c	697158	4	main	z	61	square	local	RVF	yes	present	1	545
63ea44a0adefd2af8e13015c	699916	4	main	z	62	rectangle	global	RVF	yes	present	1	1486
63ea44a0adefd2af8e13015c	703196	4	main	z	63	absent	absent	absent	no	absent	1	2000
63ea44a0adefd2af8e13015c	704786	4	main	z	64	square	local	LVF	yes	present	1	523
63ea44a0adefd2af8e13015c	707158	4	main	z	65	rectangle	global	RVF	yes	present	1	412
63ea44a0adefd2af8e13015c	709200	4	main	z	66	rectangle	global	LVF	yes	present	1	470
63ea44a0adefd2af8e13015c	711696	4	main	z	67	square	local	RVF	yes	present	1	617
63ea44a0adefd2af8e13015c	714429	4	main	z	68	rectangle	global	LVF	yes	present	1	766
63ea44a0adefd2af8e13015c	716999	4	main	z	69	rectangle	global	RVF	yes	present	1	536
63ea44a0adefd2af8e13015c	720963	4	main	z	70	absent	absent	absent	no	absent	1	2000
63ea44a0adefd2af8e13015c	722607	4	main	z	71	square	global	LVF	yes	present	1	560
63ea44a0adefd2af8e13015c	725480	4	main	z	72	square	local	LVF	yes	present	1	550
63ea44a0adefd2af8e13015c	728123	4	main	z	73	rectangle	global	LVF	yes	present	1	644
63ea44a0adefd2af8e13015c	730234	4	main	z	74	rectangle	local	RVF	yes	present	1	571
63ea44a0adefd2af8e13015c	732161	4	main	z	75	rectangle	local	RVF	yes	present	1	498
63ea44a0adefd2af8e13015c	733975	4	main	z	76	square	local	RVF	yes	present	1	545
63ea44a0adefd2af8e13015c	736202	4	main	z	77	rectangle	local	LVF	yes	present	1	622
63ea44a0adefd2af8e13015c	738497	4	main	z	78	rectangle	local	LVF	yes	present	1	533
63ea44a0adefd2af8e13015c	740432	4	main	z	79	rectangle	local	LVF	yes	present	1	535
63ea44a0adefd2af8e13015c	742891	4	main	z	80	rectangle	local	RVF	yes	present	1	712
