subject	time_elapsed_ms	blocknum	block_type	block_response	trialnum	target	level	field	target_present	response	correct	rt
63f5c99a1cecb4136b93f7db	332175	9.5	practice	slash	1	rectangle	local	RVF	yes	present	1	254
63f5c99a1cecb4136b93f7db	334200	9.5	practice	slash	2	rectangle	global	RVF	yes	present	1	167
63f5c99a1cecb4136b93f7db	336202	9.5	practice	slash	3	square	global	LVF	yes	present	1	201
63f5c99a1cecb4136b93f7db	338540	9.5	practice	slash	4	absent	absent	absent	no	present	0	524
63f5c99a1cecb4136b93f7db	340353	9.5	practice	slash	5	square	global	LVF	yes	present	1	44
63f5c99a1cecb4136b93f7db	353181	9.5	practice	slash	6	square	local	LVF	yes	present	1	1457
63f5c99a1cecb4136b93f7db	355195	9.5	practice	slash	7	square	global	RVF	yes	present	1	93
63f5c99a1cecb4136b93f7db	357024	9.5	practice	slash	8	absent	absent	absent	no	present	0	42
63f5c99a1cecb4136b93f7db	358862	9.5	practice	slash	9	absent	absent	absent	no	present	0	35
63f5c99a1cecb4136b93f7db	360883	9.5	practice	slash	10	rectangle	global	LVF	yes	present	1	197
63f5c99a1cecb4136b93f7db	362667	9.5	practice	slash	11	rectangle	local	RVF	yes	present	1	18
63f5c99a1cecb4136b93f7db	364447	9.5	practice	slash	12	rectangle	global	LVF	yes	present	1	35
63f5c99a1cecb4136b93f7db	366276	9.5	practice	slash	13	rectangle	global	RVF	yes	present	1	27
63f5c99a1cecb4136b93f7db	368129	9.5	practice	slash	14	rectangle	local	RVF	yes	present	1	38
63f5c99a1cecb4136b93f7db	369958	9.5	practice	slash	15	absent	absent	absent	no	present	0	17
63f5c99a1cecb4136b93f7db	371881	9.5	practice	slash	16	square	local	LVF	yes	present	1	195
63f5c99a1cecb4136b93f7db	373575	10.5	main	slash	1	rectangle	global	LVF	yes	present	1	64
63f5c99a1cecb4136b93f7db	374665	10.5	main	slash	2	rectangle	local	LVF	yes	present	1	204
63f5c99a1cecb4136b93f7db	375730	10.5	main	slash	3	rectangle	local	RVF	yes	present	1	218
63f5c99a1cecb4136b93f7db	376637	10.5	main	slash	4	square	local	RVF	yes	present	1	44
63f5c99a1cecb4136b93f7db	377627	10.5	main	slash	5	rectangle	local	LVF	yes	present	1	105
63f5c99a1cecb4136b93f7db	378584	10.5	main	slash	6	rectangle	local	RVF	yes	present	1	61
63f5c99a1cecb4136b93f7db	381309	10.5	main	slash	7	square	global	RVF	yes	present	1	1852
63f5c99a1cecb4136b93f7db	382230	10.5	main	slash	8	square	global	LVF	yes	present	1	26
63f5c99a1cecb4136b93f7db	385137	10.5	main	slash	9	absent	absent	absent	no	absent	1	2000
63f5c99a1cecb4136b93f7db	386937	10.5	main	slash	10	rectangle	global	RVF	yes	present	1	194
63f5c99a1cecb4136b93f7db	388068	10.5	main	slash	11	square	global	RVF	yes	present	1	227
63f5c99a1cecb4136b93f7db	389365	10.5	main	slash	12	rectangle	global	RVF	yes	present	1	173
63f5c99a1cecb4136b93f7db	390483	10.5	main	slash	13	rectangle	global	RVF	yes	present	1	154
63f5c99a1cecb4136b93f7db	391595	10.5	main	slash	14	square	local	LVF	yes	present	1	210
63f5c99a1cecb4136b93f7db	392568	10.5	main	slash	15	rectangle	local	LVF	yes	present	1	102
63f5c99a1cecb4136b93f7db	395435	10.5	main	slash	16	square	local	LVF	yes	absent	0	2000
63f5c99a1cecb4136b93f7db	396670	10.5	main	slash	17	rectangle	local	LVF	yes	present	1	278
63f5c99a1cecb4136b93f7db	397553	10.5	main	slash	18	rectangle	local	RVF	yes	present	1	19
63f5c99a1cecb4136b93f7db	398657	10.5	main	slash	19	absent	absent	absent	no	present	0	221
63f5c99a1cecb4136b93f7db	399723	10.5	main	slash	20	square	global	LVF	yes	present	1	203
63f5c99a1cecb4136b93f7db	400604	10.5	main	slash	21	absent	absent	absent	no	present	0	17
63f5c99a1cecb4136b93f7db	401595	10.5	main	slash	22	absent	absent	absent	no	present	0	111
63f5c99a1cecb4136b93f7db	402558	10.5	main	slash	23	absent	absent	absent	no	present	0	77
63f5c99a1cecb4136b93f7db	403616	10.5	main	slash	24	rectangle	global	LVF	yes	present	1	105
63f5c99a1cecb4136b93f7db	404571	10.5	main	slash	25	square	global	RVF	yes	present	1	77
63f5c99a1cecb4136b93f7db	405661	10.5	main	slash	26	square	local	LVF	yes	present	1	69
63f5c99a1cecb4136b93f7db	406725	10.5	main	slash	27	square	local	RVF	yes	present	1	167
63f5c99a1cecb4136b93f7db	407724	10.5	main	slash	28	square	local	RVF	yes	present	1	85
63f5c99a1cecb4136b93f7db	409106	10.5	main	slash	29	rectangle	global	LVF	yes	present	1	502
63f5c99a1cecb4136b93f7db	410287	10.5	main	slash	30	absent	absent	absent	no	present	0	285
63f5c99a1cecb4136b93f7db	411269	10.5	main	slash	31	square	local	LVF	yes	present	1	86
63f5c99a1cecb4136b93f7db	412150	10.5	main	slash	32	square	global	RVF	yes	present	1	17
63f5c99a1cecb4136b93f7db	413040	10.5	main	slash	33	absent	absent	absent	no	present	0	8
63f5c99a1cecb4136b93f7db	414714	10.5	main	slash	34	square	global	LVF	yes	present	1	785
63f5c99a1cecb4136b93f7db	417630	10.5	main	slash	35	absent	absent	absent	no	absent	1	2000
63f5c99a1cecb4136b93f7db	420288	10.5	main	slash	36	square	global	LVF	yes	present	1	253
63f5c99a1cecb4136b93f7db	421236	10.5	main	slash	37	rectangle	local	RVF	yes	present	1	86
63f5c99a1cecb4136b93f7db	422176	10.5	main	slash	38	rectangle	global	RVF	yes	present	1	45
63f5c99a1cecb4136b93f7db	423282	10.5	main	slash	39	square	local	RVF	yes	present	1	202
63f5c99a1cecb4136b93f7db	424463	10.5	main	slash	40	rectangle	global	LVF	yes	present	1	220
63f5c99a1cecb4136b93f7db	425703	10.5	main	slash	41	square	local	LVF	yes	present	1	194
63f5c99a1cecb4136b93f7db	426718	10.5	main	slash	42	square	global	RVF	yes	present	1	128
63f5c99a1cecb4136b93f7db	427641	10.5	main	slash	43	absent	absent	absent	no	present	0	37
63f5c99a1cecb4136b93f7db	428581	10.5	main	slash	44	rectangle	global	LVF	yes	present	1	78
63f5c99a1cecb4136b93f7db	429679	10.5	main	slash	45	rectangle	local	LVF	yes	present	1	193
63f5c99a1cecb4136b93f7db	430636	10.5	main	slash	46	rectangle	global	RVF	yes	present	1	86
63f5c99a1cecb4136b93f7db	431635	10.5	main	slash	47	square	local	RVF	yes	present	1	103
63f5c99a1cecb4136b93f7db	432666	10.5	main	slash	48	rectangle	local	RVF	yes	present	1	119
63f5c99a1cecb4136b93f7db	433689	10.5	main	slash	49	rectangle	local	RVF	yes	present	1	111
63f5c99a1cecb4136b93f7db	434728	10.5	main	slash	50	rectangle	global	RVF	yes	present	1	149
63f5c99a1cecb4136b93f7db	435885	10.5	main	slash	51	square	global	LVF	yes	present	1	262
63f5c99a1cecb4136b93f7db	436917	10.5	main	slash	52	rectangle	local	LVF	yes	present	1	126
63f5c99a1cecb4136b93f7db	437943	10.5	main	slash	53	square	local	RVF	yes	present	1	134
63f5c99a1cecb4136b93f7db	438970	10.5	main	slash	54	square	global	RVF	yes	present	1	136
63f5c99a1cecb4136b93f7db	439928	10.5	main	slash	55	absent	absent	absent	no	present	0	62
63f5c99a1cecb4136b93f7db	440884	10.5	main	slash	56	square	local	LVF	yes	present	1	85
63f5c99a1cecb4136b93f7db	441850	10.5	main	slash	57	square	local	LVF	yes	present	1	86
63f5c99a1cecb4136b93f7db	442823	10.5	main	slash	58	square	local	LVF	yes	present	1	61
63f5c99a1cecb4136b93f7db	443754	10.5	main	slash	59	absent	absent	absent	no	present	0	45
63f5c99a1cecb4136b93f7db	444636	10.5	main	slash	60	absent	absent	absent	no	present	0	44
63f5c99a1cecb4136b93f7db	445568	10.5	main	slash	61	absent	absent	absent	no	present	0	60
63f5c99a1cecb4136b93f7db	446533	10.5	main	slash	62	square	local	RVF	yes	present	1	44
63f5c99a1cecb4136b93f7db	447368	10.5	main	slash	63	rectangle	local	RVF	yes	present	1	20
63f5c99a1cecb4136b93f7db	448289	10.5	main	slash	64	rectangle	global	RVF	yes	present	1	69
63f5c99a1cecb4136b93f7db	449337	10.5	main	slash	65	square	global	LVF	yes	present	1	69
63f5c99a1cecb4136b93f7db	450310	10.5	main	slash	66	rectangle	local	RVF	yes	present	1	94
63f5c99a1cecb4136b93f7db	451361	10.5	main	slash	67	absent	absent	absent	no	present	0	30
63f5c99a1cecb4136b93f7db	452348	10.5	main	slash	68	square	local	RVF	yes	present	1	119
63f5c99a1cecb4136b93f7db	453412	10.5	main	slash	69	square	global	LVF	yes	present	1	118
63f5c99a1cecb4136b93f7db	454693	10.5	main	slash	70	rectangle	global	LVF	yes	present	1	318
63f5c99a1cecb4136b93f7db	455775	10.5	main	slash	71	rectangle	global	RVF	yes	present	1	120
63f5c99a1cecb4136b93f7db	456923	10.5	main	slash	72	rectangle	global	LVF	yes	present	1	135
63f5c99a1cecb4136b93f7db	458004	10.5	main	slash	73	rectangle	local	LVF	yes	present	1	217
63f5c99a1cecb4136b93f7db	459112	10.5	main	slash	74	square	global	RVF	yes	present	1	128
63f5c99a1cecb4136b93f7db	461969	10.5	main	slash	75	absent	absent	absent	no	absent	1	2000
63f5c99a1cecb4136b93f7db	481848	10.5	main	slash	76	rectangle	local	LVF	yes	present	1	335
63f5c99a1cecb4136b93f7db	484899	10.5	main	slash	77	square	global	LVF	yes	absent	0	2000
63f5c99a1cecb4136b93f7db	535512	10.5	main	slash	78	absent	absent	absent	no	present	0	36
63f5c99a1cecb4136b93f7db	536372	10.5	main	slash	79	square	global	RVF	yes	present	1	26
63f5c99a1cecb4136b93f7db	537459	10.5	main	slash	80	rectangle	global	LVF	yes	present	1	155
63f5c99a1cecb4136b93f7db	541429	11.5	practice	z	1	absent	absent	absent	no	present	0	281
63f5c99a1cecb4136b93f7db	545187	11.5	practice	z	2	rectangle	global	LVF	yes	absent	0	2000
63f5c99a1cecb4136b93f7db	550255	11.5	practice	z	3	square	global	RVF	yes	present	1	186
63f5c99a1cecb4136b93f7db	552052	11.5	practice	z	4	rectangle	local	RVF	yes	present	1	69
63f5c99a1cecb4136b93f7db	554139	11.5	practice	z	5	square	local	LVF	yes	present	1	210
63f5c99a1cecb4136b93f7db	556512	11.5	practice	z	6	rectangle	local	RVF	yes	present	1	272
63f5c99a1cecb4136b93f7db	561079	11.5	practice	z	7	rectangle	global	RVF	yes	present	1	109
63f5c99a1cecb4136b93f7db	563029	11.5	practice	z	8	rectangle	global	RVF	yes	present	1	153
63f5c99a1cecb4136b93f7db	565175	11.5	practice	z	9	rectangle	global	LVF	yes	present	1	20
63f5c99a1cecb4136b93f7db	567077	11.5	practice	z	10	absent	absent	absent	no	present	0	186
63f5c99a1cecb4136b93f7db	568952	11.5	practice	z	11	square	local	LVF	yes	present	1	20
63f5c99a1cecb4136b93f7db	573628	11.5	practice	z	12	absent	absent	absent	no	present	0	154
63f5c99a1cecb4136b93f7db	576338	11.5	practice	z	13	absent	absent	absent	no	present	0	228
63f5c99a1cecb4136b93f7db	578442	11.5	practice	z	14	square	global	LVF	yes	present	1	285
63f5c99a1cecb4136b93f7db	580688	11.5	practice	z	15	square	global	LVF	yes	present	1	285
63f5c99a1cecb4136b93f7db	583242	11.5	practice	z	16	rectangle	local	RVF	yes	present	1	793
63f5c99a1cecb4136b93f7db	585603	12.5	main	z	1	square	global	LVF	yes	present	1	78
63f5c99a1cecb4136b93f7db	586759	12.5	main	z	2	rectangle	local	RVF	yes	present	1	35
63f5c99a1cecb4136b93f7db	591438	12.5	main	z	3	square	local	LVF	yes	absent	0	2000
63f5c99a1cecb4136b93f7db	597226	12.5	main	z	4	square	local	LVF	yes	present	1	117
63f5c99a1cecb4136b93f7db	598217	12.5	main	z	5	square	local	RVF	yes	present	1	79
63f5c99a1cecb4136b93f7db	599232	12.5	main	z	6	rectangle	local	RVF	yes	present	1	178
63f5c99a1cecb4136b93f7db	600155	12.5	main	z	7	rectangle	global	RVF	yes	present	1	53
63f5c99a1cecb4136b93f7db	603054	12.5	main	z	8	rectangle	local	RVF	yes	absent	0	2000
63f5c99a1cecb4136b93f7db	604015	12.5	main	z	9	rectangle	global	RVF	yes	present	1	169
63f5c99a1cecb4136b93f7db	604938	12.5	main	z	10	rectangle	local	LVF	yes	present	1	60
63f5c99a1cecb4136b93f7db	606826	12.5	main	z	11	rectangle	global	LVF	yes	present	1	1018
63f5c99a1cecb4136b93f7db	607949	12.5	main	z	12	square	global	RVF	yes	present	1	210
63f5c99a1cecb4136b93f7db	609613	12.5	main	z	13	square	local	LVF	yes	present	1	793
63f5c99a1cecb4136b93f7db	611769	12.5	main	z	14	rectangle	global	RVF	yes	present	1	1300
63f5c99a1cecb4136b93f7db	612758	12.5	main	z	15	square	local	RVF	yes	present	1	111
63f5c99a1cecb4136b93f7db	613939	12.5	main	z	16	rectangle	local	RVF	yes	present	1	142
63f5c99a1cecb4136b93f7db	614904	12.5	main	z	17	square	global	RVF	yes	present	1	60
63f5c99a1cecb4136b93f7db	615794	12.5	main	z	18	square	local	RVF	yes	present	1	36
63f5c99a1cecb4136b93f7db	616876	12.5	main	z	19	rectangle	local	LVF	yes	present	1	202
63f5c99a1cecb4136b93f7db	619809	12.5	main	z	20	rectangle	global	LVF	yes	absent	0	2000
63f5c99a1cecb4136b93f7db	622571	12.5	main	z	21	absent	absent	absent	no	absent	1	2000
63f5c99a1cecb4136b93f7db	628039	12.5	main	z	22	absent	absent	absent	no	present	0	267
63f5c99a1cecb4136b93f7db	629197	12.5	main	z	23	square	global	RVF	yes	present	1	161
63f5c99a1cecb4136b93f7db	633487	12.5	main	z	24	square	global	LVF	yes	present	1	9
63f5c99a1cecb4136b93f7db	634461	12.5	main	z	25	square	global	LVF	yes	present	1	103
63f5c99a1cecb4136b93f7db	635409	12.5	main	z	26	rectangle	global	LVF	yes	present	1	52
63f5c99a1cecb4136b93f7db	636340	12.5	main	z	27	absent	absent	absent	no	present	0	52
63f5c99a1cecb4136b93f7db	637366	12.5	main	z	28	square	global	LVF	yes	present	1	161
63f5c99a1cecb4136b93f7db	638428	12.5	main	z	29	rectangle	local	LVF	yes	present	1	206
63f5c99a1cecb4136b93f7db	639467	12.5	main	z	30	absent	absent	absent	no	present	0	201
63f5c99a1cecb4136b93f7db	640428	12.5	main	z	31	absent	absent	absent	no	present	0	28
63f5c99a1cecb4136b93f7db	641421	12.5	main	z	32	rectangle	global	LVF	yes	present	1	141
63f5c99a1cecb4136b93f7db	642378	12.5	main	z	33	square	global	RVF	yes	present	1	119
63f5c99a1cecb4136b93f7db	643353	12.5	main	z	34	absent	absent	absent	no	present	0	127
63f5c99a1cecb4136b93f7db	644353	12.5	main	z	35	rectangle	local	LVF	yes	present	1	162
63f5c99a1cecb4136b93f7db	645225	12.5	main	z	36	square	local	RVF	yes	present	1	53
63f5c99a1cecb4136b93f7db	646199	12.5	main	z	37	square	local	LVF	yes	present	1	128
63f5c99a1cecb4136b93f7db	647248	12.5	main	z	38	rectangle	global	RVF	yes	present	1	179
63f5c99a1cecb4136b93f7db	648244	12.5	main	z	39	absent	absent	absent	no	present	0	142
63f5c99a1cecb4136b93f7db	649267	12.5	main	z	40	absent	absent	absent	no	present	0	185
63f5c99a1cecb4136b93f7db	650298	12.5	main	z	41	rectangle	local	LVF	yes	present	1	169
63f5c99a1cecb4136b93f7db	651362	12.5	main	z	42	rectangle	local	LVF	yes	present	1	184
63f5c99a1cecb4136b93f7db	652278	12.5	main	z	43	square	global	LVF	yes	present	1	53
63f5c99a1cecb4136b93f7db	653360	12.5	main	z	44	square	local	LVF	yes	present	1	186
63f5c99a1cecb4136b93f7db	654391	12.5	main	z	45	square	local	RVF	yes	present	1	187
63f5c99a1cecb4136b93f7db	655230	12.5	main	z	46	square	local	LVF	yes	present	1	7
63f5c99a1cecb4136b93f7db	656305	12.5	main	z	47	absent	absent	absent	no	present	0	189
63f5c99a1cecb4136b93f7db	659037	12.5	main	z	48	rectangle	local	RVF	yes	present	1	1869
63f5c99a1cecb4136b93f7db	660098	12.5	main	z	49	rectangle	global	LVF	yes	present	1	185
63f5c99a1cecb4136b93f7db	661071	12.5	main	z	50	rectangle	global	LVF	yes	present	1	96
63f5c99a1cecb4136b93f7db	662087	12.5	main	z	51	square	local	RVF	yes	present	1	177
63f5c99a1cecb4136b93f7db	663118	12.5	main	z	52	absent	absent	absent	no	present	0	194
63f5c99a1cecb4136b93f7db	664017	12.5	main	z	53	rectangle	local	RVF	yes	present	1	78
63f5c99a1cecb4136b93f7db	664915	12.5	main	z	54	square	global	LVF	yes	present	1	77
63f5c99a1cecb4136b93f7db	665863	12.5	main	z	55	rectangle	local	RVF	yes	present	1	127
63f5c99a1cecb4136b93f7db	666829	12.5	main	z	56	absent	absent	absent	no	present	0	128
63f5c99a1cecb4136b93f7db	667846	12.5	main	z	57	rectangle	global	LVF	yes	present	1	178
63f5c99a1cecb4136b93f7db	668845	12.5	main	z	58	rectangle	local	LVF	yes	present	1	153
63f5c99a1cecb4136b93f7db	669848	12.5	main	z	59	rectangle	global	RVF	yes	present	1	168
63f5c99a1cecb4136b93f7db	671014	12.5	main	z	60	absent	absent	absent	no	present	0	90
63f5c99a1cecb4136b93f7db	672005	12.5	main	z	61	square	global	LVF	yes	present	1	161
63f5c99a1cecb4136b93f7db	673200	12.5	main	z	62	rectangle	local	LVF	yes	present	1	359
63f5c99a1cecb4136b93f7db	680089	12.5	main	z	63	square	local	RVF	yes	present	1	126
63f5c99a1cecb4136b93f7db	681046	12.5	main	z	64	square	local	RVF	yes	present	1	120
63f5c99a1cecb4136b93f7db	681936	12.5	main	z	65	absent	absent	absent	no	present	0	61
63f5c99a1cecb4136b93f7db	682937	12.5	main	z	66	rectangle	global	LVF	yes	present	1	162
63f5c99a1cecb4136b93f7db	683902	12.5	main	z	67	square	local	LVF	yes	present	1	152
63f5c99a1cecb4136b93f7db	685388	12.5	main	z	68	square	global	RVF	yes	present	1	122
63f5c99a1cecb4136b93f7db	686314	12.5	main	z	69	absent	absent	absent	no	present	0	28
63f5c99a1cecb4136b93f7db	687310	12.5	main	z	70	square	global	RVF	yes	present	1	141
63f5c99a1cecb4136b93f7db	688336	12.5	main	z	71	square	global	LVF	yes	present	1	134
63f5c99a1cecb4136b93f7db	689239	12.5	main	z	72	absent	absent	absent	no	present	0	9
63f5c99a1cecb4136b93f7db	690181	12.5	main	z	73	rectangle	global	RVF	yes	present	1	70
63f5c99a1cecb4136b93f7db	691270	12.5	main	z	74	absent	absent	absent	no	present	0	177
63f5c99a1cecb4136b93f7db	692185	12.5	main	z	75	rectangle	global	RVF	yes	present	1	8
63f5c99a1cecb4136b93f7db	693100	12.5	main	z	76	rectangle	global	RVF	yes	present	1	9
63f5c99a1cecb4136b93f7db	694032	12.5	main	z	77	square	local	LVF	yes	present	1	61
63f5c99a1cecb4136b93f7db	694916	12.5	main	z	78	square	global	RVF	yes	present	1	19
63f5c99a1cecb4136b93f7db	695813	12.5	main	z	79	square	global	RVF	yes	present	1	44
63f5c99a1cecb4136b93f7db	696794	12.5	main	z	80	rectangle	local	RVF	yes	present	1	110
