subject	time_elapsed_ms	blocknum	block_type	block_response	trialnum	target	level	field	target_present	response	correct	rt
545cbbcafdf99b11ed040acf	196231	1	practice	slash	1	square	local	LVF	yes	absent	0	2000
545cbbcafdf99b11ed040acf	201314	1	practice	slash	2	absent	absent	absent	no	absent	1	2000
545cbbcafdf99b11ed040acf	204791	1	practice	slash	3	circle	global	LVF	yes	present	1	558
545cbbcafdf99b11ed040acf	208233	1	practice	slash	4	square	local	LVF	yes	present	1	1085
545cbbcafdf99b11ed040acf	211184	1	practice	slash	5	circle	local	RVF	yes	present	1	553
545cbbcafdf99b11ed040acf	214246	1	practice	slash	6	circle	global	RVF	yes	present	1	899
545cbbcafdf99b11ed040acf	217119	1	practice	slash	7	circle	global	RVF	yes	present	1	789
545cbbcafdf99b11ed040acf	220289	1	practice	slash	8	circle	local	RVF	yes	present	1	725
545cbbcafdf99b11ed040acf	224364	1	practice	slash	9	absent	absent	absent	no	absent	1	2000
545cbbcafdf99b11ed040acf	227407	1	practice	slash	10	circle	local	RVF	yes	present	1	910
545cbbcafdf99b11ed040acf	231464	1	practice	slash	11	absent	absent	absent	no	absent	1	2000
545cbbcafdf99b11ed040acf	235111	1	practice	slash	12	circle	global	LVF	yes	present	1	897
545cbbcafdf99b11ed040acf	237916	1	practice	slash	13	square	global	LVF	yes	present	1	553
545cbbcafdf99b11ed040acf	240684	1	practice	slash	14	square	global	LVF	yes	present	1	671
545cbbcafdf99b11ed040acf	243519	1	practice	slash	15	square	global	RVF	yes	present	1	840
545cbbcafdf99b11ed040acf	247580	1	practice	slash	16	absent	absent	absent	no	absent	1	2000
545cbbcafdf99b11ed040acf	258078	2	main	slash	1	absent	absent	absent	no	absent	1	2000
545cbbcafdf99b11ed040acf	260455	2	main	slash	2	square	local	LVF	yes	present	1	927
545cbbcafdf99b11ed040acf	263159	2	main	slash	3	circle	global	LVF	yes	present	1	848
545cbbcafdf99b11ed040acf	265381	2	main	slash	4	square	local	RVF	yes	present	1	753
545cbbcafdf99b11ed040acf	267348	2	main	slash	5	circle	local	RVF	yes	present	1	688
545cbbcafdf99b11ed040acf	269488	2	main	slash	6	circle	local	LVF	yes	present	1	744
545cbbcafdf99b11ed040acf	271557	2	main	slash	7	circle	local	LVF	yes	present	1	796
545cbbcafdf99b11ed040acf	273666	2	main	slash	8	square	local	LVF	yes	present	1	839
545cbbcafdf99b11ed040acf	275962	2	main	slash	9	circle	global	RVF	yes	present	1	868
545cbbcafdf99b11ed040acf	279461	2	main	slash	10	absent	absent	absent	no	absent	1	2000
545cbbcafdf99b11ed040acf	282129	2	main	slash	11	circle	local	LVF	yes	present	1	836
545cbbcafdf99b11ed040acf	284375	2	main	slash	12	circle	global	LVF	yes	present	1	881
545cbbcafdf99b11ed040acf	287678	2	main	slash	13	absent	absent	absent	no	absent	1	2000
545cbbcafdf99b11ed040acf	289514	2	main	slash	14	circle	local	RVF	yes	present	1	835
545cbbcafdf99b11ed040acf	291782	2	main	slash	15	circle	global	RVF	yes	present	1	888
545cbbcafdf99b11ed040acf	294294	2	main	slash	16	square	local	RVF	yes	present	1	883
545cbbcafdf99b11ed040acf	296631	2	main	slash	17	square	local	LVF	yes	present	1	970
545cbbcafdf99b11ed040acf	298840	2	main	slash	18	square	global	LVF	yes	present	1	863
545cbbcafdf99b11ed040acf	300877	2	main	slash	19	square	local	LVF	yes	present	1	883
545cbbcafdf99b11ed040acf	302945	2	main	slash	20	circle	local	LVF	yes	present	1	968
545cbbcafdf99b11ed040acf	304959	2	main	slash	21	circle	global	LVF	yes	present	1	914
545cbbcafdf99b11ed040acf	307127	2	main	slash	22	circle	local	RVF	yes	present	1	916
545cbbcafdf99b11ed040acf	308912	2	main	slash	23	square	global	RVF	yes	present	1	835
545cbbcafdf99b11ed040acf	311944	2	main	slash	24	absent	absent	absent	no	absent	1	2000
545cbbcafdf99b11ed040acf	314365	2	main	slash	25	square	local	RVF	yes	present	1	921
545cbbcafdf99b11ed040acf	316578	2	main	slash	26	circle	global	RVF	yes	present	1	818
545cbbcafdf99b11ed040acf	318524	2	main	slash	27	circle	global	RVF	yes	present	1	847
545cbbcafdf99b11ed040acf	321760	2	main	slash	28	absent	absent	absent	no	absent	1	2000
545cbbcafdf99b11ed040acf	323565	2	main	slash	29	circle	global	LVF	yes	present	1	871
545cbbcafdf99b11ed040acf	325559	2	main	slash	30	square	global	LVF	yes	present	1	882
545cbbcafdf99b11ed040acf	327509	2	main	slash	31	square	global	LVF	yes	present	1	899
545cbbcafdf99b11ed040acf	329617	2	main	slash	32	square	global	RVF	yes	present	1	890
545cbbcafdf99b11ed040acf	332660	2	main	slash	33	absent	absent	absent	no	absent	1	2000
545cbbcafdf99b11ed040acf	335810	2	main	slash	34	absent	absent	absent	no	absent	1	2000
545cbbcafdf99b11ed040acf	338645	2	main	slash	35	circle	local	RVF	yes	present	1	852
545cbbcafdf99b11ed040acf	341860	2	main	slash	36	absent	absent	absent	no	absent	1	2000
545cbbcafdf99b11ed040acf	343874	2	main	slash	37	square	global	RVF	yes	present	1	931
545cbbcafdf99b11ed040acf	345800	2	main	slash	38	square	global	RVF	yes	present	1	773
545cbbcafdf99b11ed040acf	347518	2	main	slash	39	square	global	LVF	yes	present	1	791
545cbbcafdf99b11ed040acf	349319	2	main	slash	40	square	local	RVF	yes	present	1	826
545cbbcafdf99b11ed040acf	351202	2	main	slash	41	circle	global	RVF	yes	present	1	892
545cbbcafdf99b11ed040acf	352999	2	main	slash	42	square	global	RVF	yes	present	1	789
545cbbcafdf99b11ed040acf	354788	2	main	slash	43	square	global	LVF	yes	present	1	812
545cbbcafdf99b11ed040acf	356586	2	main	slash	44	square	local	LVF	yes	present	1	843
545cbbcafdf99b11ed040acf	358444	2	main	slash	45	circle	global	LVF	yes	present	1	868
545cbbcafdf99b11ed040acf	360497	2	main	slash	46	square	local	LVF	yes	present	1	904
545cbbcafdf99b11ed040acf	362500	2	main	slash	47	circle	global	LVF	yes	present	1	940
545cbbcafdf99b11ed040acf	364471	2	main	slash	48	square	local	RVF	yes	present	1	928
545cbbcafdf99b11ed040acf	367459	2	main	slash	49	absent	absent	absent	no	absent	1	2000
545cbbcafdf99b11ed040acf	369408	2	main	slash	50	circle	local	RVF	yes	present	1	799
545cbbcafdf99b11ed040acf	371691	2	main	slash	51	square	local	LVF	yes	present	1	948
545cbbcafdf99b11ed040acf	373848	2	main	slash	52	square	global	RVF	yes	present	1	922
545cbbcafdf99b11ed040acf	375967	2	main	slash	53	square	global	RVF	yes	present	1	674
545cbbcafdf99b11ed040acf	377945	2	main	slash	54	circle	local	LVF	yes	present	1	669
545cbbcafdf99b11ed040acf	381109	2	main	slash	55	absent	absent	absent	no	absent	1	2000
545cbbcafdf99b11ed040acf	382937	2	main	slash	56	square	global	LVF	yes	present	1	844
545cbbcafdf99b11ed040acf	384666	2	main	slash	57	circle	local	LVF	yes	present	1	757
545cbbcafdf99b11ed040acf	386362	2	main	slash	58	square	local	RVF	yes	present	1	803
545cbbcafdf99b11ed040acf	388206	2	main	slash	59	circle	local	LVF	yes	present	1	880
545cbbcafdf99b11ed040acf	389960	2	main	slash	60	square	local	RVF	yes	present	1	752
545cbbcafdf99b11ed040acf	391678	2	main	slash	61	square	global	LVF	yes	present	1	702
545cbbcafdf99b11ed040acf	393593	2	main	slash	62	square	local	LVF	yes	present	1	884
545cbbcafdf99b11ed040acf	395349	2	main	slash	63	circle	local	RVF	yes	present	1	807
545cbbcafdf99b11ed040acf	397032	2	main	slash	64	circle	local	LVF	yes	present	1	840
545cbbcafdf99b11ed040acf	398979	2	main	slash	65	circle	global	RVF	yes	present	1	903
545cbbcafdf99b11ed040acf	400853	2	main	slash	66	circle	global	LVF	yes	present	1	861
545cbbcafdf99b11ed040acf	403893	2	main	slash	67	absent	absent	absent	no	absent	1	2000
545cbbcafdf99b11ed040acf	409775	2	main	slash	68	absent	absent	absent	no	absent	1	2000
545cbbcafdf99b11ed040acf	411608	2	main	slash	69	circle	global	RVF	yes	present	1	783
545cbbcafdf99b11ed040acf	414659	2	main	slash	70	absent	absent	absent	no	absent	1	2000
545cbbcafdf99b11ed040acf	417692	2	main	slash	71	absent	absent	absent	no	absent	1	2000
545cbbcafdf99b11ed040acf	419514	2	main	slash	72	square	local	RVF	yes	present	1	772
545cbbcafdf99b11ed040acf	422525	2	main	slash	73	absent	absent	absent	no	absent	1	2000
545cbbcafdf99b11ed040acf	424058	2	main	slash	74	circle	global	RVF	yes	present	1	650
545cbbcafdf99b11ed040acf	425623	2	main	slash	75	circle	local	RVF	yes	present	1	581
545cbbcafdf99b11ed040acf	427384	2	main	slash	76	circle	local	RVF	yes	present	1	792
545cbbcafdf99b11ed040acf	429171	2	main	slash	77	circle	global	LVF	yes	present	1	779
545cbbcafdf99b11ed040acf	430837	2	main	slash	78	square	global	RVF	yes	present	1	762
545cbbcafdf99b11ed040acf	433642	2	main	slash	79	absent	absent	absent	no	absent	1	2000
545cbbcafdf99b11ed040acf	435354	2	main	slash	80	square	global	LVF	yes	present	1	596
545cbbcafdf99b11ed040acf	454827	3	practice	z	1	absent	absent	absent	no	absent	1	2000
545cbbcafdf99b11ed040acf	457556	3	practice	z	2	circle	local	RVF	yes	present	1	496
545cbbcafdf99b11ed040acf	460243	3	practice	z	3	circle	local	RVF	yes	present	1	532
545cbbcafdf99b11ed040acf	462678	3	practice	z	4	circle	local	RVF	yes	present	1	485
545cbbcafdf99b11ed040acf	465165	3	practice	z	5	circle	global	LVF	yes	present	1	305
545cbbcafdf99b11ed040acf	467540	3	practice	z	6	absent	absent	absent	no	present	0	280
545cbbcafdf99b11ed040acf	470545	3	practice	z	7	square	global	RVF	yes	present	1	918
545cbbcafdf99b11ed040acf	474543	3	practice	z	8	absent	absent	absent	no	absent	1	2000
545cbbcafdf99b11ed040acf	478560	3	practice	z	9	absent	absent	absent	no	absent	1	2000
545cbbcafdf99b11ed040acf	481504	3	practice	z	10	circle	global	RVF	yes	present	1	829
545cbbcafdf99b11ed040acf	484455	3	practice	z	11	square	global	LVF	yes	present	1	863
545cbbcafdf99b11ed040acf	487254	3	practice	z	12	square	global	LVF	yes	present	1	761
545cbbcafdf99b11ed040acf	490056	3	practice	z	13	square	local	LVF	yes	present	1	813
545cbbcafdf99b11ed040acf	492913	3	practice	z	14	circle	global	LVF	yes	present	1	804
545cbbcafdf99b11ed040acf	495690	3	practice	z	15	circle	global	RVF	yes	present	1	797
545cbbcafdf99b11ed040acf	498523	3	practice	z	16	square	local	LVF	yes	present	1	830
545cbbcafdf99b11ed040acf	507169	4	main	z	1	square	local	RVF	yes	present	1	479
545cbbcafdf99b11ed040acf	511792	4	main	z	2	square	local	LVF	yes	present	1	668
545cbbcafdf99b11ed040acf	515257	4	main	z	3	absent	absent	absent	no	absent	1	2000
545cbbcafdf99b11ed040acf	518607	4	main	z	4	absent	absent	absent	no	absent	1	2000
545cbbcafdf99b11ed040acf	520607	4	main	z	5	square	global	LVF	yes	present	1	767
545cbbcafdf99b11ed040acf	523027	4	main	z	6	circle	global	LVF	yes	present	1	1236
545cbbcafdf99b11ed040acf	526423	4	main	z	7	absent	absent	absent	no	absent	1	2000
545cbbcafdf99b11ed040acf	528129	4	main	z	8	square	global	RVF	yes	present	1	706
545cbbcafdf99b11ed040acf	529953	4	main	z	9	circle	global	LVF	yes	present	1	730
545cbbcafdf99b11ed040acf	531711	4	main	z	10	square	global	RVF	yes	present	1	739
545cbbcafdf99b11ed040acf	534590	4	main	z	11	square	local	LVF	yes	absent	0	2000
545cbbcafdf99b11ed040acf	537790	4	main	z	12	absent	absent	absent	no	absent	1	2000
545cbbcafdf99b11ed040acf	539560	4	main	z	13	square	local	RVF	yes	present	1	836
545cbbcafdf99b11ed040acf	542020	4	main	z	14	square	local	RVF	yes	present	1	679
545cbbcafdf99b11ed040acf	545040	4	main	z	15	absent	absent	absent	no	absent	1	2000
545cbbcafdf99b11ed040acf	546801	4	main	z	16	circle	local	RVF	yes	present	1	678
545cbbcafdf99b11ed040acf	550073	4	main	z	17	absent	absent	absent	no	absent	1	2000
545cbbcafdf99b11ed040acf	553206	4	main	z	18	absent	absent	absent	no	absent	1	2000
545cbbcafdf99b11ed040acf	555111	4	main	z	19	square	local	LVF	yes	present	1	738
545cbbcafdf99b11ed040acf	557462	4	main	z	20	square	global	LVF	yes	present	1	772
545cbbcafdf99b11ed040acf	559492	4	main	z	21	square	global	RVF	yes	present	1	852
545cbbcafdf99b11ed040acf	561423	4	main	z	22	square	local	RVF	yes	present	1	883
545cbbcafdf99b11ed040acf	563421	4	main	z	23	circle	local	LVF	yes	present	1	698
545cbbcafdf99b11ed040acf	565253	4	main	z	24	circle	local	RVF	yes	present	1	747
545cbbcafdf99b11ed040acf	567039	4	main	z	25	circle	local	RVF	yes	present	1	766
545cbbcafdf99b11ed040acf	568805	4	main	z	26	circle	global	RVF	yes	present	1	782
545cbbcafdf99b11ed040acf	570370	4	main	z	27	circle	global	LVF	yes	present	1	647
545cbbcafdf99b11ed040acf	572033	4	main	z	28	circle	local	LVF	yes	present	1	644
545cbbcafdf99b11ed040acf	573528	4	main	z	29	square	local	LVF	yes	present	1	539
545cbbcafdf99b11ed040acf	574977	4	main	z	30	circle	local	LVF	yes	present	1	521
545cbbcafdf99b11ed040acf	576410	4	main	z	31	circle	global	RVF	yes	present	1	521
545cbbcafdf99b11ed040acf	577702	4	main	z	32	circle	local	LVF	yes	present	1	396
545cbbcafdf99b11ed040acf	579634	4	main	z	33	square	global	LVF	yes	present	1	1078
545cbbcafdf99b11ed040acf	581354	4	main	z	34	square	global	LVF	yes	present	1	765
545cbbcafdf99b11ed040acf	582827	4	main	z	35	circle	global	LVF	yes	present	1	587
545cbbcafdf99b11ed040acf	584407	4	main	z	36	square	global	RVF	yes	present	1	635
545cbbcafdf99b11ed040acf	586032	4	main	z	37	circle	global	RVF	yes	present	1	710
545cbbcafdf99b11ed040acf	587569	4	main	z	38	circle	global	RVF	yes	present	1	580
545cbbcafdf99b11ed040acf	589412	4	main	z	39	circle	local	RVF	yes	present	1	890
545cbbcafdf99b11ed040acf	592322	4	main	z	40	absent	absent	absent	no	absent	1	2000
545cbbcafdf99b11ed040acf	596572	4	main	z	41	absent	absent	absent	no	absent	1	2000
545cbbcafdf99b11ed040acf	599622	4	main	z	42	absent	absent	absent	no	absent	1	2000
545cbbcafdf99b11ed040acf	601271	4	main	z	43	circle	global	LVF	yes	present	1	665
545cbbcafdf99b11ed040acf	604256	4	main	z	44	absent	absent	absent	no	absent	1	2000
545cbbcafdf99b11ed040acf	605828	4	main	z	45	square	global	RVF	yes	present	1	656
545cbbcafdf99b11ed040acf	607546	4	main	z	46	square	local	LVF	yes	present	1	741
545cbbcafdf99b11ed040acf	609262	4	main	z	47	circle	global	LVF	yes	present	1	773
545cbbcafdf99b11ed040acf	611033	4	main	z	48	square	global	RVF	yes	present	1	828
545cbbcafdf99b11ed040acf	612616	4	main	z	49	square	local	RVF	yes	present	1	694
545cbbcafdf99b11ed040acf	615622	4	main	z	50	absent	absent	absent	no	absent	1	2000
545cbbcafdf99b11ed040acf	617253	4	main	z	51	circle	local	LVF	yes	present	1	664
545cbbcafdf99b11ed040acf	618832	4	main	z	52	circle	local	LVF	yes	present	1	627
545cbbcafdf99b11ed040acf	621838	4	main	z	53	absent	absent	absent	no	absent	1	2000
545cbbcafdf99b11ed040acf	623554	4	main	z	54	square	local	RVF	yes	present	1	732
545cbbcafdf99b11ed040acf	625113	4	main	z	55	square	local	LVF	yes	present	1	608
545cbbcafdf99b11ed040acf	626548	4	main	z	56	circle	global	LVF	yes	present	1	526
545cbbcafdf99b11ed040acf	627924	4	main	z	57	circle	local	RVF	yes	present	1	519
545cbbcafdf99b11ed040acf	629268	4	main	z	58	circle	local	RVF	yes	present	1	480
545cbbcafdf99b11ed040acf	630604	4	main	z	59	circle	global	RVF	yes	present	1	516
545cbbcafdf99b11ed040acf	632029	4	main	z	60	square	global	LVF	yes	present	1	541
545cbbcafdf99b11ed040acf	633398	4	main	z	61	circle	global	RVF	yes	present	1	493
545cbbcafdf99b11ed040acf	634794	4	main	z	62	square	local	LVF	yes	present	1	606
545cbbcafdf99b11ed040acf	636205	4	main	z	63	square	global	LVF	yes	present	1	583
545cbbcafdf99b11ed040acf	637580	4	main	z	64	circle	local	RVF	yes	present	1	558
545cbbcafdf99b11ed040acf	638851	4	main	z	65	circle	local	LVF	yes	present	1	480
545cbbcafdf99b11ed040acf	640267	4	main	z	66	square	global	LVF	yes	present	1	545
545cbbcafdf99b11ed040acf	641617	4	main	z	67	square	global	RVF	yes	present	1	496
545cbbcafdf99b11ed040acf	642926	4	main	z	68	circle	local	LVF	yes	present	1	521
545cbbcafdf99b11ed040acf	644296	4	main	z	69	square	local	LVF	yes	present	1	558
545cbbcafdf99b11ed040acf	645562	4	main	z	70	circle	global	LVF	yes	present	1	491
545cbbcafdf99b11ed040acf	646841	4	main	z	71	square	global	LVF	yes	present	1	470
545cbbcafdf99b11ed040acf	648264	4	main	z	72	square	local	RVF	yes	present	1	627
545cbbcafdf99b11ed040acf	649520	4	main	z	73	square	local	RVF	yes	present	1	504
545cbbcafdf99b11ed040acf	652271	4	main	z	74	absent	absent	absent	no	absent	1	2000
545cbbcafdf99b11ed040acf	657838	4	main	z	75	absent	absent	absent	no	absent	1	2000
545cbbcafdf99b11ed040acf	659309	4	main	z	76	circle	global	RVF	yes	present	1	554
545cbbcafdf99b11ed040acf	660682	4	main	z	77	square	global	RVF	yes	present	1	594
545cbbcafdf99b11ed040acf	662125	4	main	z	78	circle	global	RVF	yes	present	1	520
545cbbcafdf99b11ed040acf	663483	4	main	z	79	circle	local	RVF	yes	present	1	562
545cbbcafdf99b11ed040acf	666221	4	main	z	80	absent	absent	absent	no	absent	1	2000
55bb9ae7fdf99b26d27fda01	310773	1	practice	z	1	circle	global	RVF	yes	present	1	1153
55bb9ae7fdf99b26d27fda01	315120	1	practice	z	2	absent	absent	absent	no	absent	1	2000
55bb9ae7fdf99b26d27fda01	319953	1	practice	z	3	absent	absent	absent	no	present	0	1985
55bb9ae7fdf99b26d27fda01	323396	1	practice	z	4	square	global	LVF	yes	present	1	1219
55bb9ae7fdf99b26d27fda01	327244	1	practice	z	5	square	local	LVF	yes	present	1	1259
55bb9ae7fdf99b26d27fda01	331137	1	practice	z	6	circle	local	RVF	yes	present	1	810
55bb9ae7fdf99b26d27fda01	334327	1	practice	z	7	circle	global	LVF	yes	present	1	633
55bb9ae7fdf99b26d27fda01	337932	1	practice	z	8	absent	absent	absent	no	present	0	1322
55bb9ae7fdf99b26d27fda01	341413	1	practice	z	9	square	global	LVF	yes	present	1	1245
55bb9ae7fdf99b26d27fda01	344801	1	practice	z	10	square	global	RVF	yes	present	1	1024
55bb9ae7fdf99b26d27fda01	347770	1	practice	z	11	circle	global	RVF	yes	present	1	761
55bb9ae7fdf99b26d27fda01	351063	1	practice	z	12	circle	local	RVF	yes	present	1	1344
55bb9ae7fdf99b26d27fda01	355851	1	practice	z	13	absent	absent	absent	no	absent	1	2000
55bb9ae7fdf99b26d27fda01	359364	1	practice	z	14	circle	global	LVF	yes	present	1	1021
55bb9ae7fdf99b26d27fda01	362986	1	practice	z	15	circle	local	RVF	yes	present	1	1043
55bb9ae7fdf99b26d27fda01	367643	1	practice	z	16	square	local	LVF	yes	absent	0	2000
55bb9ae7fdf99b26d27fda01	377567	2	main	z	1	absent	absent	absent	no	present	0	1384
55bb9ae7fdf99b26d27fda01	379896	2	main	z	2	circle	global	RVF	yes	present	1	771
55bb9ae7fdf99b26d27fda01	382591	2	main	z	3	circle	global	LVF	yes	present	1	957
55bb9ae7fdf99b26d27fda01	385020	2	main	z	4	square	local	RVF	yes	present	1	1204
55bb9ae7fdf99b26d27fda01	387235	2	main	z	5	circle	local	RVF	yes	present	1	1093
55bb9ae7fdf99b26d27fda01	389378	2	main	z	6	absent	absent	absent	no	present	0	912
55bb9ae7fdf99b26d27fda01	392032	2	main	z	7	square	global	LVF	yes	present	1	1366
55bb9ae7fdf99b26d27fda01	395808	2	main	z	8	absent	absent	absent	no	absent	1	2000
55bb9ae7fdf99b26d27fda01	398088	2	main	z	9	square	local	LVF	yes	present	1	1197
55bb9ae7fdf99b26d27fda01	400909	2	main	z	10	circle	local	RVF	yes	present	1	1051
55bb9ae7fdf99b26d27fda01	404692	2	main	z	11	circle	local	LVF	yes	absent	0	2000
55bb9ae7fdf99b26d27fda01	407374	2	main	z	12	square	global	LVF	yes	absent	0	2000
55bb9ae7fdf99b26d27fda01	410194	2	main	z	13	absent	absent	absent	no	present	0	1629
55bb9ae7fdf99b26d27fda01	413026	2	main	z	14	square	local	LVF	yes	present	1	1052
55bb9ae7fdf99b26d27fda01	416243	2	main	z	15	circle	local	RVF	yes	present	1	1277
55bb9ae7fdf99b26d27fda01	419544	2	main	z	16	circle	global	RVF	yes	present	1	1129
55bb9ae7fdf99b26d27fda01	422708	2	main	z	17	absent	absent	absent	no	absent	1	2000
55bb9ae7fdf99b26d27fda01	425422	2	main	z	18	circle	global	LVF	yes	present	1	1174
55bb9ae7fdf99b26d27fda01	427984	2	main	z	19	square	local	RVF	yes	present	1	1202
55bb9ae7fdf99b26d27fda01	430895	2	main	z	20	square	global	RVF	yes	present	1	1262
55bb9ae7fdf99b26d27fda01	433408	2	main	z	21	square	global	RVF	yes	present	1	793
55bb9ae7fdf99b26d27fda01	435996	2	main	z	22	circle	global	RVF	yes	present	1	890
55bb9ae7fdf99b26d27fda01	438632	2	main	z	23	circle	global	LVF	yes	present	1	692
55bb9ae7fdf99b26d27fda01	442623	2	main	z	24	absent	absent	absent	no	absent	1	2000
55bb9ae7fdf99b26d27fda01	445328	2	main	z	25	circle	local	LVF	yes	present	1	1239
55bb9ae7fdf99b26d27fda01	448028	2	main	z	26	square	global	LVF	yes	present	1	1047
55bb9ae7fdf99b26d27fda01	450931	2	main	z	27	square	local	LVF	yes	present	1	1292
55bb9ae7fdf99b26d27fda01	453471	2	main	z	28	circle	local	LVF	yes	present	1	1265
55bb9ae7fdf99b26d27fda01	456528	2	main	z	29	square	local	RVF	yes	present	1	1314
55bb9ae7fdf99b26d27fda01	459952	2	main	z	30	square	global	RVF	yes	present	1	1471
55bb9ae7fdf99b26d27fda01	462765	2	main	z	31	square	local	LVF	yes	present	1	1293
55bb9ae7fdf99b26d27fda01	464748	2	main	z	32	circle	global	LVF	yes	present	1	834
55bb9ae7fdf99b26d27fda01	467931	2	main	z	33	absent	absent	absent	no	absent	1	2000
55bb9ae7fdf99b26d27fda01	470225	2	main	z	34	square	global	LVF	yes	present	1	968
55bb9ae7fdf99b26d27fda01	473964	2	main	z	35	circle	local	LVF	yes	absent	0	2000
55bb9ae7fdf99b26d27fda01	476549	2	main	z	36	square	global	RVF	yes	present	1	1351
55bb9ae7fdf99b26d27fda01	481589	2	main	z	37	square	local	RVF	yes	absent	0	2000
55bb9ae7fdf99b26d27fda01	485651	2	main	z	38	circle	local	RVF	yes	present	1	1613
55bb9ae7fdf99b26d27fda01	489340	2	main	z	39	circle	global	RVF	yes	present	1	1177
55bb9ae7fdf99b26d27fda01	498859	2	main	z	40	absent	absent	absent	no	present	0	1838
55bb9ae7fdf99b26d27fda01	500921	2	main	z	41	square	global	LVF	yes	present	1	875
55bb9ae7fdf99b26d27fda01	504846	2	main	z	42	absent	absent	absent	no	absent	1	2000
55bb9ae7fdf99b26d27fda01	507896	2	main	z	43	absent	absent	absent	no	absent	1	2000
55bb9ae7fdf99b26d27fda01	509685	2	main	z	44	circle	global	LVF	yes	present	1	731
55bb9ae7fdf99b26d27fda01	513471	2	main	z	45	square	local	LVF	yes	absent	0	2000
55bb9ae7fdf99b26d27fda01	515858	2	main	z	46	square	local	RVF	yes	present	1	1403
55bb9ae7fdf99b26d27fda01	519755	2	main	z	47	absent	absent	absent	no	absent	1	2000
55bb9ae7fdf99b26d27fda01	523707	2	main	z	48	circle	local	LVF	yes	present	1	1311
55bb9ae7fdf99b26d27fda01	527337	2	main	z	49	absent	absent	absent	no	absent	1	2000
55bb9ae7fdf99b26d27fda01	529449	2	main	z	50	circle	local	LVF	yes	present	1	504
55bb9ae7fdf99b26d27fda01	532369	2	main	z	51	square	global	RVF	yes	present	1	1240
55bb9ae7fdf99b26d27fda01	534050	2	main	z	52	circle	global	LVF	yes	present	1	529
55bb9ae7fdf99b26d27fda01	537254	2	main	z	53	absent	absent	absent	no	absent	1	2000
55bb9ae7fdf99b26d27fda01	539558	2	main	z	54	square	local	RVF	yes	present	1	1153
55bb9ae7fdf99b26d27fda01	542629	2	main	z	55	square	local	LVF	yes	absent	0	2000
55bb9ae7fdf99b26d27fda01	546262	2	main	z	56	circle	local	RVF	yes	present	1	792
55bb9ae7fdf99b26d27fda01	548970	2	main	z	57	square	local	RVF	yes	present	1	1249
55bb9ae7fdf99b26d27fda01	551047	2	main	z	58	circle	global	RVF	yes	present	1	844
55bb9ae7fdf99b26d27fda01	554287	2	main	z	59	circle	global	RVF	yes	absent	0	2000
55bb9ae7fdf99b26d27fda01	556815	2	main	z	60	square	global	LVF	yes	present	1	1237
55bb9ae7fdf99b26d27fda01	559639	2	main	z	61	square	global	RVF	yes	present	1	994
55bb9ae7fdf99b26d27fda01	561655	2	main	z	62	square	local	LVF	yes	present	1	794
55bb9ae7fdf99b26d27fda01	563497	2	main	z	63	square	global	LVF	yes	present	1	653
55bb9ae7fdf99b26d27fda01	566129	2	main	z	64	absent	absent	absent	no	present	0	1368
55bb9ae7fdf99b26d27fda01	568321	2	main	z	65	circle	local	LVF	yes	present	1	910
55bb9ae7fdf99b26d27fda01	571661	2	main	z	66	absent	absent	absent	no	absent	1	2000
55bb9ae7fdf99b26d27fda01	573954	2	main	z	67	square	global	RVF	yes	present	1	1227
55bb9ae7fdf99b26d27fda01	575944	2	main	z	68	square	global	LVF	yes	present	1	899
55bb9ae7fdf99b26d27fda01	578143	2	main	z	69	circle	local	RVF	yes	present	1	832
55bb9ae7fdf99b26d27fda01	580170	2	main	z	70	circle	local	RVF	yes	present	1	775
55bb9ae7fdf99b26d27fda01	582071	2	main	z	71	circle	global	LVF	yes	present	1	735
55bb9ae7fdf99b26d27fda01	583895	2	main	z	72	circle	global	RVF	yes	present	1	643
55bb9ae7fdf99b26d27fda01	585873	2	main	z	73	square	local	LVF	yes	present	1	938
55bb9ae7fdf99b26d27fda01	588995	2	main	z	74	absent	absent	absent	no	absent	1	2000
55bb9ae7fdf99b26d27fda01	590817	2	main	z	75	circle	local	LVF	yes	present	1	773
55bb9ae7fdf99b26d27fda01	593786	2	main	z	76	square	local	RVF	yes	absent	0	2000
55bb9ae7fdf99b26d27fda01	595477	2	main	z	77	square	global	RVF	yes	present	1	699
55bb9ae7fdf99b26d27fda01	597254	2	main	z	78	circle	global	RVF	yes	present	1	668
55bb9ae7fdf99b26d27fda01	598682	2	main	z	79	circle	global	LVF	yes	present	1	538
55bb9ae7fdf99b26d27fda01	600358	2	main	z	80	circle	local	RVF	yes	present	1	740
55bb9ae7fdf99b26d27fda01	624903	3	practice	slash	1	circle	global	RVF	yes	present	1	484
55bb9ae7fdf99b26d27fda01	629461	3	practice	slash	2	circle	local	RVF	yes	absent	0	2000
55bb9ae7fdf99b26d27fda01	633719	3	practice	slash	3	absent	absent	absent	no	absent	1	2000
55bb9ae7fdf99b26d27fda01	636845	3	practice	slash	4	circle	global	LVF	yes	present	1	810
55bb9ae7fdf99b26d27fda01	640594	3	practice	slash	5	circle	local	RVF	yes	present	1	1283
55bb9ae7fdf99b26d27fda01	644213	3	practice	slash	6	absent	absent	absent	no	present	0	761
55bb9ae7fdf99b26d27fda01	648561	3	practice	slash	7	square	global	LVF	yes	present	1	801
55bb9ae7fdf99b26d27fda01	651896	3	practice	slash	8	square	local	LVF	yes	present	1	1077
55bb9ae7fdf99b26d27fda01	655068	3	practice	slash	9	square	global	LVF	yes	present	1	974
55bb9ae7fdf99b26d27fda01	659019	3	practice	slash	10	square	local	LVF	yes	absent	0	2000
55bb9ae7fdf99b26d27fda01	663194	3	practice	slash	11	absent	absent	absent	no	absent	1	2000
55bb9ae7fdf99b26d27fda01	666310	3	practice	slash	12	circle	local	RVF	yes	present	1	783
55bb9ae7fdf99b26d27fda01	672598	3	practice	slash	13	circle	global	RVF	yes	present	1	821
55bb9ae7fdf99b26d27fda01	677509	3	practice	slash	14	absent	absent	absent	no	present	0	1700
55bb9ae7fdf99b26d27fda01	680505	3	practice	slash	15	circle	global	LVF	yes	present	1	763
55bb9ae7fdf99b26d27fda01	684222	3	practice	slash	16	square	global	RVF	yes	present	1	1588
55bb9ae7fdf99b26d27fda01	688428	4	main	slash	1	square	local	LVF	yes	present	1	628
55bb9ae7fdf99b26d27fda01	690276	4	main	slash	2	square	local	RVF	yes	present	1	718
55bb9ae7fdf99b26d27fda01	692023	4	main	slash	3	circle	global	RVF	yes	present	1	657
55bb9ae7fdf99b26d27fda01	693865	4	main	slash	4	circle	global	RVF	yes	present	1	624
55bb9ae7fdf99b26d27fda01	695777	4	main	slash	5	absent	absent	absent	no	present	0	703
55bb9ae7fdf99b26d27fda01	698916	4	main	slash	6	absent	absent	absent	no	absent	1	2000
55bb9ae7fdf99b26d27fda01	700665	4	main	slash	7	circle	global	LVF	yes	present	1	716
55bb9ae7fdf99b26d27fda01	703740	4	main	slash	8	absent	absent	absent	no	absent	1	2000
55bb9ae7fdf99b26d27fda01	705630	4	main	slash	9	square	global	LVF	yes	present	1	663
55bb9ae7fdf99b26d27fda01	708269	4	main	slash	10	absent	absent	absent	no	present	0	979
55bb9ae7fdf99b26d27fda01	711416	4	main	slash	11	absent	absent	absent	no	absent	1	2000
55bb9ae7fdf99b26d27fda01	713511	4	main	slash	12	absent	absent	absent	no	present	0	1012
55bb9ae7fdf99b26d27fda01	715074	4	main	slash	13	square	local	LVF	yes	present	1	574
55bb9ae7fdf99b26d27fda01	717084	4	main	slash	14	square	local	RVF	yes	present	1	610
55bb9ae7fdf99b26d27fda01	718898	4	main	slash	15	circle	local	RVF	yes	present	1	732
55bb9ae7fdf99b26d27fda01	720689	4	main	slash	16	circle	local	RVF	yes	present	1	641
55bb9ae7fdf99b26d27fda01	722533	4	main	slash	17	square	local	RVF	yes	present	1	718
55bb9ae7fdf99b26d27fda01	725574	4	main	slash	18	circle	global	LVF	yes	absent	0	2000
55bb9ae7fdf99b26d27fda01	727561	4	main	slash	19	circle	global	LVF	yes	present	1	471
55bb9ae7fdf99b26d27fda01	729126	4	main	slash	20	square	global	LVF	yes	present	1	585
55bb9ae7fdf99b26d27fda01	731999	4	main	slash	21	circle	local	LVF	yes	absent	0	2000
55bb9ae7fdf99b26d27fda01	733628	4	main	slash	22	circle	global	RVF	yes	present	1	489
55bb9ae7fdf99b26d27fda01	735393	4	main	slash	23	circle	local	RVF	yes	present	1	728
55bb9ae7fdf99b26d27fda01	737208	4	main	slash	24	circle	global	LVF	yes	present	1	977
55bb9ae7fdf99b26d27fda01	740115	4	main	slash	25	absent	absent	absent	no	absent	1	2000
55bb9ae7fdf99b26d27fda01	742257	4	main	slash	26	circle	global	RVF	yes	present	1	801
55bb9ae7fdf99b26d27fda01	744241	4	main	slash	27	square	local	LVF	yes	present	1	793
55bb9ae7fdf99b26d27fda01	745914	4	main	slash	28	circle	local	RVF	yes	present	1	674
55bb9ae7fdf99b26d27fda01	748873	4	main	slash	29	square	global	LVF	yes	absent	0	2000
55bb9ae7fdf99b26d27fda01	750883	4	main	slash	30	circle	local	LVF	yes	present	1	685
55bb9ae7fdf99b26d27fda01	752694	4	main	slash	31	circle	local	LVF	yes	present	1	637
55bb9ae7fdf99b26d27fda01	754561	4	main	slash	32	circle	local	LVF	yes	present	1	655
55bb9ae7fdf99b26d27fda01	756329	4	main	slash	33	square	global	RVF	yes	present	1	657
55bb9ae7fdf99b26d27fda01	757927	4	main	slash	34	square	global	RVF	yes	present	1	526
55bb9ae7fdf99b26d27fda01	759523	4	main	slash	35	square	local	LVF	yes	present	1	683
55bb9ae7fdf99b26d27fda01	761002	4	main	slash	36	square	global	RVF	yes	present	1	522
55bb9ae7fdf99b26d27fda01	763806	4	main	slash	37	square	local	RVF	yes	absent	0	2000
55bb9ae7fdf99b26d27fda01	765637	4	main	slash	38	square	global	RVF	yes	present	1	640
55bb9ae7fdf99b26d27fda01	767247	4	main	slash	39	absent	absent	absent	no	present	0	675
55bb9ae7fdf99b26d27fda01	768879	4	main	slash	40	square	global	LVF	yes	present	1	674
55bb9ae7fdf99b26d27fda01	770457	4	main	slash	41	absent	absent	absent	no	present	0	618
55bb9ae7fdf99b26d27fda01	772010	4	main	slash	42	circle	local	RVF	yes	present	1	606
55bb9ae7fdf99b26d27fda01	774881	4	main	slash	43	square	local	LVF	yes	absent	0	2000
55bb9ae7fdf99b26d27fda01	776537	4	main	slash	44	square	global	RVF	yes	present	1	690
55bb9ae7fdf99b26d27fda01	778207	4	main	slash	45	circle	global	RVF	yes	present	1	602
55bb9ae7fdf99b26d27fda01	781214	4	main	slash	46	circle	local	LVF	yes	absent	0	2000
55bb9ae7fdf99b26d27fda01	783231	4	main	slash	47	circle	global	RVF	yes	present	1	709
55bb9ae7fdf99b26d27fda01	786247	4	main	slash	48	square	local	RVF	yes	absent	0	2000
55bb9ae7fdf99b26d27fda01	789280	4	main	slash	49	absent	absent	absent	no	absent	1	2000
55bb9ae7fdf99b26d27fda01	791840	4	main	slash	50	circle	local	RVF	yes	present	1	1267
55bb9ae7fdf99b26d27fda01	794805	4	main	slash	51	absent	absent	absent	no	absent	1	2000
55bb9ae7fdf99b26d27fda01	796677	4	main	slash	52	square	global	RVF	yes	present	1	889
55bb9ae7fdf99b26d27fda01	798243	4	main	slash	53	square	global	LVF	yes	present	1	713
55bb9ae7fdf99b26d27fda01	801322	4	main	slash	54	absent	absent	absent	no	absent	1	2000
55bb9ae7fdf99b26d27fda01	804031	4	main	slash	55	circle	local	LVF	yes	present	1	819
55bb9ae7fdf99b26d27fda01	805609	4	main	slash	56	circle	global	LVF	yes	present	1	526
55bb9ae7fdf99b26d27fda01	807605	4	main	slash	57	square	local	RVF	yes	present	1	991
55bb9ae7fdf99b26d27fda01	810647	4	main	slash	58	square	global	LVF	yes	absent	0	2000
55bb9ae7fdf99b26d27fda01	812674	4	main	slash	59	square	local	RVF	yes	present	1	761
55bb9ae7fdf99b26d27fda01	814466	4	main	slash	60	absent	absent	absent	no	present	0	837
55bb9ae7fdf99b26d27fda01	816004	4	main	slash	61	circle	global	RVF	yes	present	1	641
55bb9ae7fdf99b26d27fda01	818930	4	main	slash	62	absent	absent	absent	no	absent	1	2000
55bb9ae7fdf99b26d27fda01	821510	4	main	slash	63	square	global	RVF	yes	present	1	598
55bb9ae7fdf99b26d27fda01	824563	4	main	slash	64	square	local	LVF	yes	absent	0	2000
55bb9ae7fdf99b26d27fda01	826955	4	main	slash	65	circle	global	LVF	yes	present	1	1742
55bb9ae7fdf99b26d27fda01	830579	4	main	slash	66	square	local	LVF	yes	absent	0	2000
55bb9ae7fdf99b26d27fda01	832571	4	main	slash	67	circle	global	LVF	yes	present	1	583
55bb9ae7fdf99b26d27fda01	834250	4	main	slash	68	square	global	LVF	yes	present	1	654
55bb9ae7fdf99b26d27fda01	835784	4	main	slash	69	square	global	LVF	yes	present	1	664
55bb9ae7fdf99b26d27fda01	838620	4	main	slash	70	absent	absent	absent	no	absent	1	2000
55bb9ae7fdf99b26d27fda01	841072	4	main	slash	71	absent	absent	absent	no	present	0	759
55bb9ae7fdf99b26d27fda01	842630	4	main	slash	72	square	local	RVF	yes	present	1	768
55bb9ae7fdf99b26d27fda01	844204	4	main	slash	73	circle	local	RVF	yes	present	1	766
55bb9ae7fdf99b26d27fda01	845842	4	main	slash	74	circle	local	RVF	yes	present	1	822
55bb9ae7fdf99b26d27fda01	847522	4	main	slash	75	square	global	RVF	yes	present	1	685
55bb9ae7fdf99b26d27fda01	850387	4	main	slash	76	circle	local	LVF	yes	absent	0	2000
55bb9ae7fdf99b26d27fda01	852173	4	main	slash	77	circle	global	RVF	yes	present	1	654
55bb9ae7fdf99b26d27fda01	854012	4	main	slash	78	circle	global	LVF	yes	present	1	859
55bb9ae7fdf99b26d27fda01	857470	4	main	slash	79	square	local	LVF	yes	absent	0	2000
55bb9ae7fdf99b26d27fda01	860420	4	main	slash	80	circle	local	LVF	yes	present	1	824
55c82012fdf99b02adc2a36e	476085	1	practice	z	1	absent	absent	absent	no	present	0	1285
55c82012fdf99b02adc2a36e	479962	1	practice	z	2	circle	global	RVF	yes	present	1	864
55c82012fdf99b02adc2a36e	485513	1	practice	z	3	square	local	LVF	yes	absent	0	2000
55c82012fdf99b02adc2a36e	490228	1	practice	z	4	square	local	LVF	yes	absent	0	2000
55c82012fdf99b02adc2a36e	494250	1	practice	z	5	square	global	LVF	yes	present	1	1824
55c82012fdf99b02adc2a36e	497253	1	practice	z	6	square	global	RVF	yes	present	1	813
55c82012fdf99b02adc2a36e	501839	1	practice	z	7	circle	local	RVF	yes	absent	0	2000
55c82012fdf99b02adc2a36e	504861	1	practice	z	8	circle	global	LVF	yes	present	1	773
55c82012fdf99b02adc2a36e	509585	1	practice	z	9	circle	local	RVF	yes	absent	0	2000
55c82012fdf99b02adc2a36e	512860	1	practice	z	10	circle	global	RVF	yes	present	1	708
55c82012fdf99b02adc2a36e	515882	1	practice	z	11	circle	global	LVF	yes	present	1	949
55c82012fdf99b02adc2a36e	520447	1	practice	z	12	absent	absent	absent	no	absent	1	2000
55c82012fdf99b02adc2a36e	524295	1	practice	z	13	circle	local	RVF	yes	absent	0	2000
55c82012fdf99b02adc2a36e	530426	1	practice	z	14	absent	absent	absent	no	absent	1	2000
55c82012fdf99b02adc2a36e	534474	1	practice	z	15	absent	absent	absent	no	absent	1	2000
55c82012fdf99b02adc2a36e	537553	1	practice	z	16	square	global	LVF	yes	present	1	780
55c82012fdf99b02adc2a36e	870353	2	main	z	1	absent	absent	absent	no	absent	1	2000
55c82012fdf99b02adc2a36e	874251	2	main	z	2	absent	absent	absent	no	absent	1	2000
55c82012fdf99b02adc2a36e	876358	2	main	z	3	square	global	LVF	yes	present	1	1009
55c82012fdf99b02adc2a36e	879295	2	main	z	4	circle	local	RVF	yes	present	1	1180
55c82012fdf99b02adc2a36e	882480	2	main	z	5	absent	absent	absent	no	absent	1	2000
55c82012fdf99b02adc2a36e	884193	2	main	z	6	circle	global	LVF	yes	present	1	731
55c82012fdf99b02adc2a36e	887826	2	main	z	7	square	global	LVF	yes	present	1	782
55c82012fdf99b02adc2a36e	891210	2	main	z	8	square	local	RVF	yes	absent	0	2000
55c82012fdf99b02adc2a36e	894575	2	main	z	9	square	local	LVF	yes	absent	0	2000
55c82012fdf99b02adc2a36e	896045	2	main	z	10	circle	global	RVF	yes	present	1	687
55c82012fdf99b02adc2a36e	899225	2	main	z	11	circle	local	RVF	yes	present	1	785
55c82012fdf99b02adc2a36e	901808	2	main	z	12	circle	global	RVF	yes	present	1	854
55c82012fdf99b02adc2a36e	903902	2	main	z	13	square	global	LVF	yes	present	1	849
55c82012fdf99b02adc2a36e	905902	2	main	z	14	circle	local	LVF	yes	present	1	899
55c82012fdf99b02adc2a36e	907806	2	main	z	15	square	global	RVF	yes	present	1	838
55c82012fdf99b02adc2a36e	909543	2	main	z	16	square	global	RVF	yes	present	1	693
55c82012fdf99b02adc2a36e	911673	2	main	z	17	circle	global	LVF	yes	present	1	823
55c82012fdf99b02adc2a36e	914716	2	main	z	18	absent	absent	absent	no	absent	1	2000
55c82012fdf99b02adc2a36e	916590	2	main	z	19	circle	global	LVF	yes	present	1	943
55c82012fdf99b02adc2a36e	918851	2	main	z	20	circle	local	RVF	yes	present	1	870
55c82012fdf99b02adc2a36e	920920	2	main	z	21	square	local	LVF	yes	present	1	923
55c82012fdf99b02adc2a36e	923204	2	main	z	22	circle	local	LVF	yes	present	1	908
55c82012fdf99b02adc2a36e	932374	2	main	z	23	square	local	RVF	yes	absent	0	2000
55c82012fdf99b02adc2a36e	934327	2	main	z	24	square	global	LVF	yes	present	1	737
55c82012fdf99b02adc2a36e	937394	2	main	z	25	square	local	LVF	yes	present	1	1805
55c82012fdf99b02adc2a36e	941803	2	main	z	26	absent	absent	absent	no	absent	1	2000
55c82012fdf99b02adc2a36e	945202	2	main	z	27	square	global	RVF	yes	absent	0	2000
55c82012fdf99b02adc2a36e	947865	2	main	z	28	circle	global	RVF	yes	present	1	682
55c82012fdf99b02adc2a36e	951399	2	main	z	29	absent	absent	absent	no	absent	1	2000
55c82012fdf99b02adc2a36e	954397	2	main	z	30	absent	absent	absent	no	absent	1	2000
55c82012fdf99b02adc2a36e	956166	2	main	z	31	circle	global	RVF	yes	present	1	803
55c82012fdf99b02adc2a36e	959595	2	main	z	32	square	local	RVF	yes	present	1	1284
55c82012fdf99b02adc2a36e	961806	2	main	z	33	square	local	LVF	yes	present	1	995
55c82012fdf99b02adc2a36e	964629	2	main	z	34	circle	global	LVF	yes	present	1	837
55c82012fdf99b02adc2a36e	966955	2	main	z	35	square	local	RVF	yes	present	1	962
55c82012fdf99b02adc2a36e	969331	2	main	z	36	absent	absent	absent	no	present	0	973
55c82012fdf99b02adc2a36e	971699	2	main	z	37	circle	local	LVF	yes	present	1	892
55c82012fdf99b02adc2a36e	974035	2	main	z	38	circle	local	LVF	yes	present	1	930
55c82012fdf99b02adc2a36e	976329	2	main	z	39	circle	local	RVF	yes	present	1	859
55c82012fdf99b02adc2a36e	978962	2	main	z	40	square	global	RVF	yes	present	1	1343
55c82012fdf99b02adc2a36e	981077	2	main	z	41	square	local	LVF	yes	present	1	909
55c82012fdf99b02adc2a36e	983613	2	main	z	42	square	global	LVF	yes	present	1	1146
55c82012fdf99b02adc2a36e	986833	2	main	z	43	absent	absent	absent	no	absent	1	2000
55c82012fdf99b02adc2a36e	988583	2	main	z	44	circle	local	LVF	yes	present	1	817
55c82012fdf99b02adc2a36e	990587	2	main	z	45	square	global	LVF	yes	present	1	822
55c82012fdf99b02adc2a36e	992672	2	main	z	46	square	local	RVF	yes	present	1	842
55c82012fdf99b02adc2a36e	995001	2	main	z	47	circle	local	LVF	yes	present	1	1038
55c82012fdf99b02adc2a36e	997031	2	main	z	48	circle	local	RVF	yes	present	1	903
55c82012fdf99b02adc2a36e	1000627	2	main	z	49	absent	absent	absent	no	absent	1	2000
55c82012fdf99b02adc2a36e	1002424	2	main	z	50	circle	local	RVF	yes	present	1	732
55c82012fdf99b02adc2a36e	1004314	2	main	z	51	circle	global	LVF	yes	present	1	723
55c82012fdf99b02adc2a36e	1006392	2	main	z	52	circle	global	RVF	yes	present	1	769
55c82012fdf99b02adc2a36e	1008326	2	main	z	53	circle	global	LVF	yes	present	1	753
55c82012fdf99b02adc2a36e	1011705	2	main	z	54	square	local	LVF	yes	absent	0	2000
55c82012fdf99b02adc2a36e	1014754	2	main	z	55	square	local	LVF	yes	absent	0	2000
55c82012fdf99b02adc2a36e	1025057	2	main	z	56	square	global	LVF	yes	present	1	691
55c82012fdf99b02adc2a36e	1028331	2	main	z	57	square	local	RVF	yes	absent	0	2000
55c82012fdf99b02adc2a36e	1031423	2	main	z	58	square	global	LVF	yes	present	1	961
55c82012fdf99b02adc2a36e	1033860	2	main	z	59	square	local	RVF	yes	present	1	1249
55c82012fdf99b02adc2a36e	1035826	2	main	z	60	circle	global	RVF	yes	present	1	783
55c82012fdf99b02adc2a36e	1037990	2	main	z	61	circle	global	LVF	yes	present	1	830
55c82012fdf99b02adc2a36e	1041341	2	main	z	62	absent	absent	absent	no	absent	1	2000
55c82012fdf99b02adc2a36e	1044423	2	main	z	63	absent	absent	absent	no	absent	1	2000
55c82012fdf99b02adc2a36e	1046249	2	main	z	64	circle	global	RVF	yes	present	1	759
55c82012fdf99b02adc2a36e	1048223	2	main	z	65	circle	global	RVF	yes	present	1	751
55c82012fdf99b02adc2a36e	1051853	2	main	z	66	absent	absent	absent	no	absent	1	2000
55c82012fdf99b02adc2a36e	1055185	2	main	z	67	absent	absent	absent	no	absent	1	2000
55c82012fdf99b02adc2a36e	1056902	2	main	z	68	square	global	RVF	yes	present	1	784
55c82012fdf99b02adc2a36e	1059536	2	main	z	69	square	local	RVF	yes	present	1	1002
55c82012fdf99b02adc2a36e	1061907	2	main	z	70	square	global	RVF	yes	present	1	942
55c82012fdf99b02adc2a36e	1064273	2	main	z	71	square	global	RVF	yes	present	1	925
55c82012fdf99b02adc2a36e	1067613	2	main	z	72	absent	absent	absent	no	absent	1	2000
55c82012fdf99b02adc2a36e	1070645	2	main	z	73	absent	absent	absent	no	absent	1	2000
55c82012fdf99b02adc2a36e	1072721	2	main	z	74	circle	local	RVF	yes	present	1	861
55c82012fdf99b02adc2a36e	1075358	2	main	z	75	circle	local	LVF	yes	present	1	865
55c82012fdf99b02adc2a36e	1078501	2	main	z	76	square	global	RVF	yes	present	1	710
55c82012fdf99b02adc2a36e	1080962	2	main	z	77	circle	local	RVF	yes	present	1	605
55c82012fdf99b02adc2a36e	1082820	2	main	z	78	circle	local	LVF	yes	present	1	530
55c82012fdf99b02adc2a36e	1084968	2	main	z	79	circle	global	LVF	yes	present	1	513
55c82012fdf99b02adc2a36e	1086968	2	main	z	80	square	local	LVF	yes	present	1	648
55c82012fdf99b02adc2a36e	1111012	3	practice	slash	1	circle	local	RVF	yes	absent	0	2000
55c82012fdf99b02adc2a36e	1115360	3	practice	slash	2	circle	local	RVF	yes	absent	0	2000
55c82012fdf99b02adc2a36e	1121363	3	practice	slash	3	circle	global	LVF	yes	present	1	638
55c82012fdf99b02adc2a36e	1125706	3	practice	slash	4	absent	absent	absent	no	absent	1	2000
55c82012fdf99b02adc2a36e	1128616	3	practice	slash	5	square	global	LVF	yes	present	1	611
55c82012fdf99b02adc2a36e	1131462	3	practice	slash	6	circle	global	LVF	yes	present	1	643
55c82012fdf99b02adc2a36e	1135668	3	practice	slash	7	square	local	LVF	yes	absent	0	2000
55c82012fdf99b02adc2a36e	1138534	3	practice	slash	8	square	global	LVF	yes	present	1	667
55c82012fdf99b02adc2a36e	1141548	3	practice	slash	9	square	global	RVF	yes	present	1	799
55c82012fdf99b02adc2a36e	1145897	3	practice	slash	10	absent	absent	absent	no	absent	1	2000
55c82012fdf99b02adc2a36e	1148636	3	practice	slash	11	circle	global	RVF	yes	present	1	525
55c82012fdf99b02adc2a36e	1152057	3	practice	slash	12	square	local	LVF	yes	present	1	1146
55c82012fdf99b02adc2a36e	1154791	3	practice	slash	13	circle	global	RVF	yes	present	1	498
55c82012fdf99b02adc2a36e	1158958	3	practice	slash	14	absent	absent	absent	no	absent	1	2000
55c82012fdf99b02adc2a36e	1163239	3	practice	slash	15	absent	absent	absent	no	absent	1	2000
55c82012fdf99b02adc2a36e	1167670	3	practice	slash	16	circle	local	RVF	yes	absent	0	2000
55c82012fdf99b02adc2a36e	1173448	4	main	slash	1	circle	local	RVF	yes	absent	0	2000
55c82012fdf99b02adc2a36e	1175039	4	main	slash	2	circle	global	RVF	yes	present	1	441
55c82012fdf99b02adc2a36e	1176970	4	main	slash	3	circle	global	LVF	yes	present	1	424
55c82012fdf99b02adc2a36e	1180278	4	main	slash	4	square	local	LVF	yes	absent	0	2000
55c82012fdf99b02adc2a36e	1182653	4	main	slash	5	square	local	LVF	yes	present	1	1393
55c82012fdf99b02adc2a36e	1184926	4	main	slash	6	square	global	RVF	yes	present	1	817
55c82012fdf99b02adc2a36e	1186752	4	main	slash	7	square	global	LVF	yes	present	1	560
55c82012fdf99b02adc2a36e	1189891	4	main	slash	8	absent	absent	absent	no	absent	1	2000
55c82012fdf99b02adc2a36e	1192839	4	main	slash	9	absent	absent	absent	no	absent	1	2000
55c82012fdf99b02adc2a36e	1194370	4	main	slash	10	square	global	RVF	yes	present	1	549
55c82012fdf99b02adc2a36e	1196370	4	main	slash	11	circle	local	LVF	yes	present	1	866
55c82012fdf99b02adc2a36e	1197791	4	main	slash	12	circle	global	RVF	yes	present	1	354
55c82012fdf99b02adc2a36e	1200853	4	main	slash	13	square	local	RVF	yes	absent	0	2000
55c82012fdf99b02adc2a36e	1202637	4	main	slash	14	circle	local	RVF	yes	present	1	752
55c82012fdf99b02adc2a36e	1204602	4	main	slash	15	circle	local	RVF	yes	present	1	718
55c82012fdf99b02adc2a36e	1207799	4	main	slash	16	absent	absent	absent	no	absent	1	2000
55c82012fdf99b02adc2a36e	1210748	4	main	slash	17	square	global	RVF	yes	absent	0	2000
55c82012fdf99b02adc2a36e	1213697	4	main	slash	18	square	global	LVF	yes	absent	0	2000
55c82012fdf99b02adc2a36e	1215515	4	main	slash	19	square	local	RVF	yes	present	1	887
55c82012fdf99b02adc2a36e	1217190	4	main	slash	20	circle	global	RVF	yes	present	1	478
55c82012fdf99b02adc2a36e	1220293	4	main	slash	21	square	local	LVF	yes	absent	0	2000
55c82012fdf99b02adc2a36e	1223259	4	main	slash	22	absent	absent	absent	no	absent	1	2000
55c82012fdf99b02adc2a36e	1224798	4	main	slash	23	circle	local	LVF	yes	present	1	574
55c82012fdf99b02adc2a36e	1226560	4	main	slash	24	square	local	RVF	yes	present	1	570
55c82012fdf99b02adc2a36e	1228266	4	main	slash	25	circle	global	LVF	yes	present	1	477
55c82012fdf99b02adc2a36e	1230063	4	main	slash	26	circle	local	LVF	yes	present	1	408
55c82012fdf99b02adc2a36e	1231565	4	main	slash	27	square	global	LVF	yes	present	1	344
55c82012fdf99b02adc2a36e	1233199	4	main	slash	28	square	global	LVF	yes	present	1	345
55c82012fdf99b02adc2a36e	1236386	4	main	slash	29	square	local	LVF	yes	absent	0	2000
55c82012fdf99b02adc2a36e	1238425	4	main	slash	30	circle	local	LVF	yes	present	1	924
55c82012fdf99b02adc2a36e	1241484	4	main	slash	31	absent	absent	absent	no	absent	1	2000
55c82012fdf99b02adc2a36e	1244449	4	main	slash	32	absent	absent	absent	no	absent	1	2000
55c82012fdf99b02adc2a36e	1246133	4	main	slash	33	square	local	RVF	yes	present	1	668
55c82012fdf99b02adc2a36e	1248485	4	main	slash	34	circle	global	RVF	yes	present	1	488
55c82012fdf99b02adc2a36e	1250289	4	main	slash	35	circle	global	LVF	yes	present	1	525
55c82012fdf99b02adc2a36e	1253462	4	main	slash	36	absent	absent	absent	no	absent	1	2000
55c82012fdf99b02adc2a36e	1254994	4	main	slash	37	circle	local	RVF	yes	present	1	483
55c82012fdf99b02adc2a36e	1256449	4	main	slash	38	circle	global	LVF	yes	present	1	423
55c82012fdf99b02adc2a36e	1258120	4	main	slash	39	square	global	RVF	yes	present	1	428
55c82012fdf99b02adc2a36e	1261208	4	main	slash	40	absent	absent	absent	no	absent	1	2000
55c82012fdf99b02adc2a36e	1262542	4	main	slash	41	circle	global	RVF	yes	present	1	384
55c82012fdf99b02adc2a36e	1265639	4	main	slash	42	square	global	LVF	yes	absent	0	2000
55c82012fdf99b02adc2a36e	1268655	4	main	slash	43	absent	absent	absent	no	absent	1	2000
55c82012fdf99b02adc2a36e	1270397	4	main	slash	44	circle	local	LVF	yes	present	1	660
55c82012fdf99b02adc2a36e	1271878	4	main	slash	45	circle	global	RVF	yes	present	1	408
55c82012fdf99b02adc2a36e	1273599	4	main	slash	46	circle	local	LVF	yes	present	1	512
55c82012fdf99b02adc2a36e	1275379	4	main	slash	47	square	local	RVF	yes	present	1	711
55c82012fdf99b02adc2a36e	1276990	4	main	slash	48	square	local	RVF	yes	present	1	390
55c82012fdf99b02adc2a36e	1280117	4	main	slash	49	square	local	LVF	yes	absent	0	2000
55c82012fdf99b02adc2a36e	1281812	4	main	slash	50	square	local	RVF	yes	present	1	747
55c82012fdf99b02adc2a36e	1284865	4	main	slash	51	absent	absent	absent	no	absent	1	2000
55c82012fdf99b02adc2a36e	1287996	4	main	slash	52	absent	absent	absent	no	absent	1	2000
55c82012fdf99b02adc2a36e	1289485	4	main	slash	53	square	global	RVF	yes	present	1	556
55c82012fdf99b02adc2a36e	1291032	4	main	slash	54	circle	local	RVF	yes	present	1	538
55c82012fdf99b02adc2a36e	1292727	4	main	slash	55	circle	local	LVF	yes	present	1	617
55c82012fdf99b02adc2a36e	1296059	4	main	slash	56	absent	absent	absent	no	absent	1	2000
55c82012fdf99b02adc2a36e	1298991	4	main	slash	57	absent	absent	absent	no	absent	1	2000
55c82012fdf99b02adc2a36e	1300399	4	main	slash	58	square	global	RVF	yes	present	1	426
55c82012fdf99b02adc2a36e	1302050	4	main	slash	59	circle	global	LVF	yes	present	1	544
55c82012fdf99b02adc2a36e	1303562	4	main	slash	60	circle	global	LVF	yes	present	1	406
55c82012fdf99b02adc2a36e	1306638	4	main	slash	61	absent	absent	absent	no	absent	1	2000
55c82012fdf99b02adc2a36e	1308250	4	main	slash	62	circle	local	RVF	yes	present	1	612
55c82012fdf99b02adc2a36e	1309761	4	main	slash	63	circle	local	RVF	yes	present	1	392
55c82012fdf99b02adc2a36e	1311624	4	main	slash	64	square	local	LVF	yes	present	1	655
55c82012fdf99b02adc2a36e	1313319	4	main	slash	65	circle	local	LVF	yes	present	1	467
55c82012fdf99b02adc2a36e	1314813	4	main	slash	66	square	local	RVF	yes	present	1	346
55c82012fdf99b02adc2a36e	1316536	4	main	slash	67	circle	local	RVF	yes	present	1	387
55c82012fdf99b02adc2a36e	1319715	4	main	slash	68	square	local	LVF	yes	absent	0	2000
55c82012fdf99b02adc2a36e	1322697	4	main	slash	69	absent	absent	absent	no	absent	1	2000
55c82012fdf99b02adc2a36e	1324050	4	main	slash	70	circle	global	LVF	yes	present	1	438
55c82012fdf99b02adc2a36e	1325622	4	main	slash	71	square	global	LVF	yes	present	1	543
55c82012fdf99b02adc2a36e	1327025	4	main	slash	72	circle	global	RVF	yes	present	1	371
55c82012fdf99b02adc2a36e	1330094	4	main	slash	73	absent	absent	absent	no	absent	1	2000
55c82012fdf99b02adc2a36e	1331767	4	main	slash	74	square	local	LVF	yes	present	1	575
55c82012fdf99b02adc2a36e	1333981	4	main	slash	75	square	global	LVF	yes	present	1	1038
55c82012fdf99b02adc2a36e	1335523	4	main	slash	76	square	global	RVF	yes	present	1	465
55c82012fdf99b02adc2a36e	1337120	4	main	slash	77	circle	global	LVF	yes	present	1	463
55c82012fdf99b02adc2a36e	1338800	4	main	slash	78	square	global	LVF	yes	present	1	544
55c82012fdf99b02adc2a36e	1340329	4	main	slash	79	circle	global	RVF	yes	present	1	424
55c82012fdf99b02adc2a36e	1341884	4	main	slash	80	square	global	RVF	yes	present	1	395
56d0f57421cd29000a9737e4	251729	1	practice	slash	1	square	local	LVF	yes	present	1	1697
56d0f57421cd29000a9737e4	255704	1	practice	slash	2	circle	local	RVF	yes	present	1	1089
56d0f57421cd29000a9737e4	258920	1	practice	slash	3	circle	global	RVF	yes	present	1	1040
56d0f57421cd29000a9737e4	263014	1	practice	slash	4	absent	absent	absent	no	absent	1	2000
56d0f57421cd29000a9737e4	266054	1	practice	slash	5	circle	local	RVF	yes	present	1	989
56d0f57421cd29000a9737e4	270149	1	practice	slash	6	absent	absent	absent	no	absent	1	2000
56d0f57421cd29000a9737e4	273132	1	practice	slash	7	circle	global	LVF	yes	present	1	884
56d0f57421cd29000a9737e4	277246	1	practice	slash	8	absent	absent	absent	no	absent	1	2000
56d0f57421cd29000a9737e4	280265	1	practice	slash	9	circle	global	LVF	yes	present	1	885
56d0f57421cd29000a9737e4	283481	1	practice	slash	10	circle	global	RVF	yes	present	1	1133
56d0f57421cd29000a9737e4	286883	1	practice	slash	11	square	global	LVF	yes	present	1	1067
56d0f57421cd29000a9737e4	290981	1	practice	slash	12	square	local	LVF	yes	absent	0	2000
56d0f57421cd29000a9737e4	294040	1	practice	slash	13	square	global	LVF	yes	present	1	958
56d0f57421cd29000a9737e4	300240	1	practice	slash	14	square	global	RVF	yes	present	1	942
56d0f57421cd29000a9737e4	304264	1	practice	slash	15	absent	absent	absent	no	absent	1	2000
56d0f57421cd29000a9737e4	312738	1	practice	slash	16	circle	local	RVF	yes	present	1	1356
56d0f57421cd29000a9737e4	321364	2	main	slash	1	absent	absent	absent	no	absent	1	2000
56d0f57421cd29000a9737e4	323565	2	main	slash	2	square	global	LVF	yes	present	1	952
56d0f57421cd29000a9737e4	327097	2	main	slash	3	square	local	LVF	yes	absent	0	2000
56d0f57421cd29000a9737e4	329235	2	main	slash	4	circle	global	RVF	yes	present	1	921
56d0f57421cd29000a9737e4	332414	2	main	slash	5	absent	absent	absent	no	absent	1	2000
56d0f57421cd29000a9737e4	334493	2	main	slash	6	square	global	LVF	yes	present	1	895
56d0f57421cd29000a9737e4	337714	2	main	slash	7	square	local	LVF	yes	absent	0	2000
56d0f57421cd29000a9737e4	339927	2	main	slash	8	square	local	LVF	yes	present	1	1046
56d0f57421cd29000a9737e4	399896	2	main	slash	9	absent	absent	absent	no	absent	1	2000
56d0f57421cd29000a9737e4	404203	2	main	slash	10	circle	global	LVF	yes	present	1	1038
56d0f57421cd29000a9737e4	407663	2	main	slash	11	absent	absent	absent	no	absent	1	2000
56d0f57421cd29000a9737e4	409649	2	main	slash	12	circle	local	LVF	yes	present	1	852
56d0f57421cd29000a9737e4	411914	2	main	slash	13	square	global	LVF	yes	present	1	1034
56d0f57421cd29000a9737e4	414028	2	main	slash	14	square	global	RVF	yes	present	1	981
56d0f57421cd29000a9737e4	415814	2	main	slash	15	circle	global	RVF	yes	present	1	767
56d0f57421cd29000a9737e4	418948	2	main	slash	16	absent	absent	absent	no	absent	1	2000
56d0f57421cd29000a9737e4	420965	2	main	slash	17	square	local	RVF	yes	present	1	985
56d0f57421cd29000a9737e4	422924	2	main	slash	18	square	local	RVF	yes	present	1	894
56d0f57421cd29000a9737e4	425000	2	main	slash	19	circle	local	LVF	yes	present	1	1053
56d0f57421cd29000a9737e4	427009	2	main	slash	20	square	local	RVF	yes	present	1	979
56d0f57421cd29000a9737e4	429137	2	main	slash	21	circle	local	RVF	yes	present	1	1107
56d0f57421cd29000a9737e4	431265	2	main	slash	22	circle	global	RVF	yes	present	1	1085
56d0f57421cd29000a9737e4	433209	2	main	slash	23	circle	global	LVF	yes	present	1	928
56d0f57421cd29000a9737e4	435189	2	main	slash	24	circle	local	LVF	yes	present	1	1042
56d0f57421cd29000a9737e4	437455	2	main	slash	25	square	global	LVF	yes	present	1	1291
56d0f57421cd29000a9737e4	440431	2	main	slash	26	absent	absent	absent	no	absent	1	2000
56d0f57421cd29000a9737e4	442408	2	main	slash	27	circle	local	LVF	yes	present	1	911
56d0f57421cd29000a9737e4	444197	2	main	slash	28	circle	local	RVF	yes	present	1	883
56d0f57421cd29000a9737e4	446199	2	main	slash	29	circle	global	LVF	yes	present	1	1019
56d0f57421cd29000a9737e4	448051	2	main	slash	30	circle	global	RVF	yes	present	1	937
56d0f57421cd29000a9737e4	449928	2	main	slash	31	square	global	RVF	yes	present	1	865
56d0f57421cd29000a9737e4	452948	2	main	slash	32	square	local	RVF	yes	absent	0	2000
56d0f57421cd29000a9737e4	456081	2	main	slash	33	absent	absent	absent	no	absent	1	2000
56d0f57421cd29000a9737e4	458263	2	main	slash	34	circle	local	RVF	yes	present	1	950
56d0f57421cd29000a9737e4	460163	2	main	slash	35	square	global	RVF	yes	present	1	883
56d0f57421cd29000a9737e4	462047	2	main	slash	36	circle	local	RVF	yes	present	1	884
56d0f57421cd29000a9737e4	465080	2	main	slash	37	absent	absent	absent	no	absent	1	2000
56d0f57421cd29000a9737e4	466959	2	main	slash	38	circle	global	LVF	yes	present	1	879
56d0f57421cd29000a9737e4	468842	2	main	slash	39	square	local	LVF	yes	present	1	977
56d0f57421cd29000a9737e4	471171	2	main	slash	40	square	global	RVF	yes	present	1	1424
56d0f57421cd29000a9737e4	473260	2	main	slash	41	circle	local	LVF	yes	present	1	1080
56d0f57421cd29000a9737e4	475241	2	main	slash	42	circle	local	RVF	yes	present	1	944
56d0f57421cd29000a9737e4	478147	2	main	slash	43	absent	absent	absent	no	absent	1	2000
56d0f57421cd29000a9737e4	480126	2	main	slash	44	square	local	LVF	yes	present	1	946
56d0f57421cd29000a9737e4	482002	2	main	slash	45	square	global	RVF	yes	present	1	1005
56d0f57421cd29000a9737e4	483934	2	main	slash	46	circle	local	RVF	yes	present	1	887
56d0f57421cd29000a9737e4	486880	2	main	slash	47	square	global	RVF	yes	absent	0	2000
56d0f57421cd29000a9737e4	490863	2	main	slash	48	absent	absent	absent	no	absent	1	2000
56d0f57421cd29000a9737e4	493172	2	main	slash	49	square	global	RVF	yes	present	1	909
56d0f57421cd29000a9737e4	495077	2	main	slash	50	square	local	RVF	yes	present	1	997
56d0f57421cd29000a9737e4	497040	2	main	slash	51	circle	local	LVF	yes	present	1	893
56d0f57421cd29000a9737e4	498884	2	main	slash	52	square	global	RVF	yes	present	1	886
56d0f57421cd29000a9737e4	500721	2	main	slash	53	square	global	LVF	yes	present	1	940
56d0f57421cd29000a9737e4	502733	2	main	slash	54	circle	global	LVF	yes	present	1	1069
56d0f57421cd29000a9737e4	505730	2	main	slash	55	absent	absent	absent	no	absent	1	2000
56d0f57421cd29000a9737e4	507645	2	main	slash	56	circle	local	LVF	yes	present	1	831
56d0f57421cd29000a9737e4	509408	2	main	slash	57	circle	global	LVF	yes	present	1	878
56d0f57421cd29000a9737e4	512077	2	main	slash	58	absent	absent	absent	no	present	0	1579
56d0f57421cd29000a9737e4	515097	2	main	slash	59	absent	absent	absent	no	absent	1	2000
56d0f57421cd29000a9737e4	517082	2	main	slash	60	square	global	LVF	yes	present	1	952
56d0f57421cd29000a9737e4	518842	2	main	slash	61	square	local	RVF	yes	present	1	828
56d0f57421cd29000a9737e4	520788	2	main	slash	62	circle	global	RVF	yes	present	1	858
56d0f57421cd29000a9737e4	522610	2	main	slash	63	circle	global	RVF	yes	present	1	880
56d0f57421cd29000a9737e4	524471	2	main	slash	64	circle	local	LVF	yes	present	1	807
56d0f57421cd29000a9737e4	526533	2	main	slash	65	square	local	LVF	yes	present	1	1019
56d0f57421cd29000a9737e4	528313	2	main	slash	66	circle	local	RVF	yes	present	1	765
56d0f57421cd29000a9737e4	530745	2	main	slash	67	circle	global	LVF	yes	present	1	948
56d0f57421cd29000a9737e4	533931	2	main	slash	68	absent	absent	absent	no	absent	1	2000
56d0f57421cd29000a9737e4	536195	2	main	slash	69	square	local	LVF	yes	present	1	948
56d0f57421cd29000a9737e4	538287	2	main	slash	70	square	local	RVF	yes	present	1	1007
56d0f57421cd29000a9737e4	540324	2	main	slash	71	square	global	LVF	yes	present	1	944
56d0f57421cd29000a9737e4	543364	2	main	slash	72	absent	absent	absent	no	absent	1	2000
56d0f57421cd29000a9737e4	545056	2	main	slash	73	square	global	LVF	yes	present	1	692
56d0f57421cd29000a9737e4	547387	2	main	slash	74	circle	global	RVF	yes	present	1	1157
56d0f57421cd29000a9737e4	549453	2	main	slash	75	circle	global	RVF	yes	present	1	956
56d0f57421cd29000a9737e4	552797	2	main	slash	76	absent	absent	absent	no	absent	1	2000
56d0f57421cd29000a9737e4	555158	2	main	slash	77	square	local	RVF	yes	present	1	1028
56d0f57421cd29000a9737e4	557411	2	main	slash	78	square	local	LVF	yes	present	1	1231
56d0f57421cd29000a9737e4	559553	2	main	slash	79	circle	global	LVF	yes	present	1	1138
56d0f57421cd29000a9737e4	562627	2	main	slash	80	circle	local	RVF	yes	present	1	979
56d0f57421cd29000a9737e4	610208	3	practice	z	1	square	global	RVF	yes	present	1	859
56d0f57421cd29000a9737e4	613954	3	practice	z	2	circle	global	LVF	yes	present	1	973
56d0f57421cd29000a9737e4	616826	3	practice	z	3	circle	global	RVF	yes	present	1	928
56d0f57421cd29000a9737e4	620898	3	practice	z	4	absent	absent	absent	no	absent	1	2000
56d0f57421cd29000a9737e4	623807	3	practice	z	5	circle	local	RVF	yes	present	1	944
56d0f57421cd29000a9737e4	626914	3	practice	z	6	square	local	LVF	yes	present	1	966
56d0f57421cd29000a9737e4	630981	3	practice	z	7	absent	absent	absent	no	absent	1	2000
56d0f57421cd29000a9737e4	633931	3	practice	z	8	circle	local	RVF	yes	present	1	868
56d0f57421cd29000a9737e4	637054	3	practice	z	9	circle	global	RVF	yes	present	1	991
56d0f57421cd29000a9737e4	640202	3	practice	z	10	square	global	LVF	yes	present	1	1037
56d0f57421cd29000a9737e4	643211	3	practice	z	11	square	global	LVF	yes	present	1	1030
56d0f57421cd29000a9737e4	647667	3	practice	z	12	absent	absent	absent	no	present	0	1319
56d0f57421cd29000a9737e4	650546	3	practice	z	13	circle	local	RVF	yes	present	1	730
56d0f57421cd29000a9737e4	653670	3	practice	z	14	square	local	LVF	yes	present	1	1005
56d0f57421cd29000a9737e4	656568	3	practice	z	15	circle	global	LVF	yes	present	1	954
56d0f57421cd29000a9737e4	660481	3	practice	z	16	absent	absent	absent	no	absent	1	2000
56d0f57421cd29000a9737e4	665595	4	main	z	1	square	local	RVF	yes	present	1	980
56d0f57421cd29000a9737e4	667652	4	main	z	2	square	global	LVF	yes	present	1	871
56d0f57421cd29000a9737e4	669819	4	main	z	3	square	global	LVF	yes	present	1	1038
56d0f57421cd29000a9737e4	671791	4	main	z	4	circle	global	RVF	yes	present	1	944
56d0f57421cd29000a9737e4	674147	4	main	z	5	square	local	RVF	yes	present	1	984
56d0f57421cd29000a9737e4	676230	4	main	z	6	square	local	LVF	yes	present	1	983
56d0f57421cd29000a9737e4	678141	4	main	z	7	square	local	LVF	yes	present	1	878
56d0f57421cd29000a9737e4	679992	4	main	z	8	circle	local	LVF	yes	present	1	879
56d0f57421cd29000a9737e4	681835	4	main	z	9	circle	local	LVF	yes	present	1	905
56d0f57421cd29000a9737e4	683644	4	main	z	10	square	global	LVF	yes	present	1	881
56d0f57421cd29000a9737e4	686498	4	main	z	11	absent	absent	absent	no	absent	1	2000
56d0f57421cd29000a9737e4	688457	4	main	z	12	circle	global	RVF	yes	present	1	909
56d0f57421cd29000a9737e4	691830	4	main	z	13	absent	absent	absent	no	absent	1	2000
56d0f57421cd29000a9737e4	694163	4	main	z	14	square	global	RVF	yes	present	1	1216
56d0f57421cd29000a9737e4	695825	4	main	z	15	circle	global	LVF	yes	present	1	695
56d0f57421cd29000a9737e4	697718	4	main	z	16	circle	local	RVF	yes	present	1	871
56d0f57421cd29000a9737e4	699390	4	main	z	17	circle	global	LVF	yes	present	1	743
56d0f57421cd29000a9737e4	702347	4	main	z	18	absent	absent	absent	no	absent	1	2000
56d0f57421cd29000a9737e4	703959	4	main	z	19	circle	global	LVF	yes	present	1	579
56d0f57421cd29000a9737e4	705772	4	main	z	20	square	local	RVF	yes	present	1	675
56d0f57421cd29000a9737e4	707443	4	main	z	21	square	local	RVF	yes	present	1	680
56d0f57421cd29000a9737e4	709580	4	main	z	22	square	local	LVF	yes	present	1	1083
56d0f57421cd29000a9737e4	712496	4	main	z	23	absent	absent	absent	no	absent	1	2000
56d0f57421cd29000a9737e4	714385	4	main	z	24	circle	local	RVF	yes	present	1	855
56d0f57421cd29000a9737e4	716262	4	main	z	25	square	global	LVF	yes	present	1	899
56d0f57421cd29000a9737e4	718226	4	main	z	26	circle	global	RVF	yes	present	1	962
56d0f57421cd29000a9737e4	720043	4	main	z	27	square	global	RVF	yes	present	1	896
56d0f57421cd29000a9737e4	722980	4	main	z	28	absent	absent	absent	no	absent	1	2000
56d0f57421cd29000a9737e4	725997	4	main	z	29	absent	absent	absent	no	absent	1	2000
56d0f57421cd29000a9737e4	729098	4	main	z	30	absent	absent	absent	no	absent	1	2000
56d0f57421cd29000a9737e4	730960	4	main	z	31	circle	global	LVF	yes	present	1	813
56d0f57421cd29000a9737e4	732994	4	main	z	32	circle	local	LVF	yes	present	1	947
56d0f57421cd29000a9737e4	734555	4	main	z	33	circle	local	LVF	yes	present	1	608
56d0f57421cd29000a9737e4	736542	4	main	z	34	square	global	RVF	yes	present	1	895
56d0f57421cd29000a9737e4	738460	4	main	z	35	circle	local	RVF	yes	present	1	963
56d0f57421cd29000a9737e4	740303	4	main	z	36	circle	global	RVF	yes	present	1	905
56d0f57421cd29000a9737e4	743247	4	main	z	37	absent	absent	absent	no	absent	1	2000
56d0f57421cd29000a9737e4	745102	4	main	z	38	circle	local	RVF	yes	present	1	655
56d0f57421cd29000a9737e4	746996	4	main	z	39	square	global	RVF	yes	present	1	849
56d0f57421cd29000a9737e4	748586	4	main	z	40	square	local	LVF	yes	present	1	605
56d0f57421cd29000a9737e4	751747	4	main	z	41	absent	absent	absent	no	absent	1	2000
56d0f57421cd29000a9737e4	753458	4	main	z	42	square	global	RVF	yes	present	1	745
56d0f57421cd29000a9737e4	755329	4	main	z	43	circle	local	RVF	yes	present	1	848
56d0f57421cd29000a9737e4	758314	4	main	z	44	absent	absent	absent	no	absent	1	2000
56d0f57421cd29000a9737e4	759965	4	main	z	45	circle	local	RVF	yes	present	1	651
56d0f57421cd29000a9737e4	761785	4	main	z	46	square	local	RVF	yes	present	1	822
56d0f57421cd29000a9737e4	763707	4	main	z	47	circle	local	RVF	yes	present	1	777
56d0f57421cd29000a9737e4	765693	4	main	z	48	circle	global	LVF	yes	present	1	996
56d0f57421cd29000a9737e4	767517	4	main	z	49	square	global	LVF	yes	present	1	904
56d0f57421cd29000a9737e4	769240	4	main	z	50	square	global	RVF	yes	present	1	810
56d0f57421cd29000a9737e4	770916	4	main	z	51	circle	global	RVF	yes	present	1	803
56d0f57421cd29000a9737e4	772758	4	main	z	52	square	global	RVF	yes	present	1	828
56d0f57421cd29000a9737e4	774358	4	main	z	53	circle	global	LVF	yes	present	1	611
56d0f57421cd29000a9737e4	777547	4	main	z	54	absent	absent	absent	no	absent	1	2000
56d0f57421cd29000a9737e4	779149	4	main	z	55	circle	global	LVF	yes	present	1	469
56d0f57421cd29000a9737e4	781044	4	main	z	56	circle	global	RVF	yes	present	1	764
56d0f57421cd29000a9737e4	784413	4	main	z	57	absent	absent	absent	no	absent	1	2000
56d0f57421cd29000a9737e4	786443	4	main	z	58	circle	local	RVF	yes	present	1	763
56d0f57421cd29000a9737e4	788332	4	main	z	59	circle	global	RVF	yes	present	1	902
56d0f57421cd29000a9737e4	790401	4	main	z	60	square	local	RVF	yes	present	1	1004
56d0f57421cd29000a9737e4	792013	4	main	z	61	square	global	LVF	yes	present	1	650
56d0f57421cd29000a9737e4	794234	4	main	z	62	square	local	RVF	yes	present	1	771
56d0f57421cd29000a9737e4	796131	4	main	z	63	square	local	LVF	yes	present	1	901
56d0f57421cd29000a9737e4	797879	4	main	z	64	square	local	RVF	yes	present	1	782
56d0f57421cd29000a9737e4	801030	4	main	z	65	absent	absent	absent	no	absent	1	2000
56d0f57421cd29000a9737e4	804114	4	main	z	66	absent	absent	absent	no	absent	1	2000
56d0f57421cd29000a9737e4	805732	4	main	z	67	square	global	LVF	yes	present	1	602
56d0f57421cd29000a9737e4	807805	4	main	z	68	square	local	LVF	yes	present	1	1025
56d0f57421cd29000a9737e4	810053	4	main	z	69	circle	global	RVF	yes	present	1	1323
56d0f57421cd29000a9737e4	811694	4	main	z	70	circle	local	LVF	yes	present	1	647
56d0f57421cd29000a9737e4	813518	4	main	z	71	square	global	RVF	yes	present	1	838
56d0f57421cd29000a9737e4	816513	4	main	z	72	absent	absent	absent	no	absent	1	2000
56d0f57421cd29000a9737e4	818217	4	main	z	73	circle	local	LVF	yes	present	1	603
56d0f57421cd29000a9737e4	819791	4	main	z	74	circle	local	LVF	yes	present	1	544
56d0f57421cd29000a9737e4	822997	4	main	z	75	absent	absent	absent	no	absent	1	2000
56d0f57421cd29000a9737e4	824720	4	main	z	76	circle	global	LVF	yes	present	1	540
56d0f57421cd29000a9737e4	826516	4	main	z	77	square	local	LVF	yes	present	1	586
56d0f57421cd29000a9737e4	829345	4	main	z	78	circle	local	LVF	yes	present	1	830
56d0f57421cd29000a9737e4	831305	4	main	z	79	square	local	LVF	yes	present	1	925
56d0f57421cd29000a9737e4	833453	4	main	z	80	square	global	LVF	yes	present	1	1123
57901207c9abeb0001af353e	181058	1	practice	z	1	absent	absent	absent	no	present	0	1316
57901207c9abeb0001af353e	185814	1	practice	z	2	square	local	LVF	yes	absent	0	2000
57901207c9abeb0001af353e	189153	1	practice	z	3	square	global	LVF	yes	present	1	753
57901207c9abeb0001af353e	192494	1	practice	z	4	circle	local	RVF	yes	present	1	968
57901207c9abeb0001af353e	196867	1	practice	z	5	absent	absent	absent	no	absent	1	2000
57901207c9abeb0001af353e	199551	1	practice	z	6	circle	global	LVF	yes	present	1	495
57901207c9abeb0001af353e	202385	1	practice	z	7	square	global	LVF	yes	present	1	737
57901207c9abeb0001af353e	205610	1	practice	z	8	circle	global	RVF	yes	present	1	1004
57901207c9abeb0001af353e	208345	1	practice	z	9	circle	local	RVF	yes	present	1	680
57901207c9abeb0001af353e	211298	1	practice	z	10	absent	absent	absent	no	present	0	873
57901207c9abeb0001af353e	214162	1	practice	z	11	square	global	RVF	yes	present	1	530
57901207c9abeb0001af353e	218325	1	practice	z	12	square	local	LVF	yes	absent	0	2000
57901207c9abeb0001af353e	221008	1	practice	z	13	circle	global	LVF	yes	present	1	594
57901207c9abeb0001af353e	225190	1	practice	z	14	absent	absent	absent	no	absent	1	2000
57901207c9abeb0001af353e	227850	1	practice	z	15	circle	global	RVF	yes	present	1	539
57901207c9abeb0001af353e	231132	1	practice	z	16	circle	local	RVF	yes	present	1	928
57901207c9abeb0001af353e	246932	2	main	z	1	absent	absent	absent	no	present	0	659
57901207c9abeb0001af353e	249110	2	main	z	2	circle	global	RVF	yes	present	1	428
57901207c9abeb0001af353e	250717	2	main	z	3	square	global	RVF	yes	present	1	456
57901207c9abeb0001af353e	253824	2	main	z	4	absent	absent	absent	no	absent	1	2000
57901207c9abeb0001af353e	255239	2	main	z	5	circle	local	LVF	yes	present	1	407
57901207c9abeb0001af353e	258346	2	main	z	6	absent	absent	absent	no	absent	1	2000
57901207c9abeb0001af353e	259962	2	main	z	7	circle	local	RVF	yes	present	1	408
57901207c9abeb0001af353e	261602	2	main	z	8	square	global	RVF	yes	present	1	503
57901207c9abeb0001af353e	264778	2	main	z	9	absent	absent	absent	no	absent	1	2000
57901207c9abeb0001af353e	267886	2	main	z	10	absent	absent	absent	no	absent	1	2000
57901207c9abeb0001af353e	269655	2	main	z	11	square	global	LVF	yes	present	1	529
57901207c9abeb0001af353e	272972	2	main	z	12	square	local	LVF	yes	absent	0	2000
57901207c9abeb0001af353e	274445	2	main	z	13	square	global	LVF	yes	present	1	481
57901207c9abeb0001af353e	276341	2	main	z	14	square	local	LVF	yes	present	1	632
57901207c9abeb0001af353e	279488	2	main	z	15	absent	absent	absent	no	absent	1	2000
57901207c9abeb0001af353e	281184	2	main	z	16	circle	global	RVF	yes	present	1	738
57901207c9abeb0001af353e	283030	2	main	z	17	circle	local	RVF	yes	present	1	507
57901207c9abeb0001af353e	284736	2	main	z	18	circle	global	RVF	yes	present	1	583
57901207c9abeb0001af353e	286867	2	main	z	19	square	global	LVF	yes	present	1	1002
57901207c9abeb0001af353e	288566	2	main	z	20	circle	global	LVF	yes	present	1	558
57901207c9abeb0001af353e	290442	2	main	z	21	square	global	RVF	yes	present	1	689
57901207c9abeb0001af353e	292567	2	main	z	22	square	local	RVF	yes	present	1	836
57901207c9abeb0001af353e	294468	2	main	z	23	square	local	RVF	yes	present	1	658
57901207c9abeb0001af353e	297621	2	main	z	24	square	local	LVF	yes	absent	0	2000
57901207c9abeb0001af353e	299233	2	main	z	25	square	global	RVF	yes	present	1	488
57901207c9abeb0001af353e	300875	2	main	z	26	circle	global	LVF	yes	present	1	483
57901207c9abeb0001af353e	302621	2	main	z	27	circle	global	LVF	yes	present	1	568
57901207c9abeb0001af353e	304249	2	main	z	28	circle	global	RVF	yes	present	1	483
57901207c9abeb0001af353e	306000	2	main	z	29	circle	local	RVF	yes	present	1	639
57901207c9abeb0001af353e	307806	2	main	z	30	circle	local	LVF	yes	present	1	516
57901207c9abeb0001af353e	310902	2	main	z	31	square	local	LVF	yes	absent	0	2000
57901207c9abeb0001af353e	312338	2	main	z	32	circle	local	LVF	yes	present	1	445
57901207c9abeb0001af353e	315506	2	main	z	33	absent	absent	absent	no	absent	1	2000
57901207c9abeb0001af353e	318498	2	main	z	34	absent	absent	absent	no	absent	1	2000
57901207c9abeb0001af353e	320190	2	main	z	35	circle	global	LVF	yes	present	1	419
57901207c9abeb0001af353e	321834	2	main	z	36	square	global	LVF	yes	present	1	484
57901207c9abeb0001af353e	324930	2	main	z	37	square	local	RVF	yes	absent	0	2000
57901207c9abeb0001af353e	327789	2	main	z	38	square	local	RVF	yes	absent	0	2000
57901207c9abeb0001af353e	329382	2	main	z	39	circle	local	LVF	yes	present	1	419
57901207c9abeb0001af353e	331138	2	main	z	40	circle	local	RVF	yes	present	1	645
57901207c9abeb0001af353e	332982	2	main	z	41	circle	global	RVF	yes	present	1	561
57901207c9abeb0001af353e	336067	2	main	z	42	absent	absent	absent	no	absent	1	2000
57901207c9abeb0001af353e	339125	2	main	z	43	square	local	LVF	yes	absent	0	2000
57901207c9abeb0001af353e	342100	2	main	z	44	absent	absent	absent	no	absent	1	2000
57901207c9abeb0001af353e	343459	2	main	z	45	circle	global	RVF	yes	present	1	433
57901207c9abeb0001af353e	346538	2	main	z	46	absent	absent	absent	no	absent	1	2000
57901207c9abeb0001af353e	348087	2	main	z	47	square	global	RVF	yes	present	1	458
57901207c9abeb0001af353e	350340	2	main	z	48	square	local	LVF	yes	present	1	1149
57901207c9abeb0001af353e	352390	2	main	z	49	circle	global	LVF	yes	present	1	988
57901207c9abeb0001af353e	354983	2	main	z	50	square	global	RVF	yes	present	1	1519
57901207c9abeb0001af353e	358538	2	main	z	51	absent	absent	absent	no	absent	1	2000
57901207c9abeb0001af353e	360153	2	main	z	52	square	global	LVF	yes	present	1	539
57901207c9abeb0001af353e	363242	2	main	z	53	square	local	LVF	yes	absent	0	2000
57901207c9abeb0001af353e	366168	2	main	z	54	absent	absent	absent	no	absent	1	2000
57901207c9abeb0001af353e	369076	2	main	z	55	absent	absent	absent	no	absent	1	2000
57901207c9abeb0001af353e	370430	2	main	z	56	square	global	RVF	yes	present	1	461
57901207c9abeb0001af353e	372141	2	main	z	57	circle	local	LVF	yes	present	1	561
57901207c9abeb0001af353e	373756	2	main	z	58	circle	local	LVF	yes	present	1	514
57901207c9abeb0001af353e	376872	2	main	z	59	absent	absent	absent	no	absent	1	2000
57901207c9abeb0001af353e	378488	2	main	z	60	circle	local	RVF	yes	present	1	508
57901207c9abeb0001af353e	380075	2	main	z	61	circle	global	LVF	yes	present	1	533
57901207c9abeb0001af353e	381734	2	main	z	62	circle	local	RVF	yes	present	1	562
57901207c9abeb0001af353e	383327	2	main	z	63	square	global	RVF	yes	present	1	526
57901207c9abeb0001af353e	384910	2	main	z	64	square	global	LVF	yes	present	1	447
57901207c9abeb0001af353e	386834	2	main	z	65	square	local	LVF	yes	present	1	792
57901207c9abeb0001af353e	388434	2	main	z	66	circle	global	RVF	yes	present	1	498
57901207c9abeb0001af353e	389959	2	main	z	67	circle	local	RVF	yes	present	1	443
57901207c9abeb0001af353e	393011	2	main	z	68	square	local	RVF	yes	absent	0	2000
57901207c9abeb0001af353e	394468	2	main	z	69	square	local	RVF	yes	present	1	466
57901207c9abeb0001af353e	397781	2	main	z	70	absent	absent	absent	no	absent	1	2000
57901207c9abeb0001af353e	399384	2	main	z	71	square	local	RVF	yes	present	1	876
57901207c9abeb0001af353e	400993	2	main	z	72	circle	local	RVF	yes	present	1	558
57901207c9abeb0001af353e	402683	2	main	z	73	circle	local	LVF	yes	present	1	469
57901207c9abeb0001af353e	404368	2	main	z	74	circle	global	LVF	yes	present	1	558
57901207c9abeb0001af353e	406128	2	main	z	75	square	global	LVF	yes	present	1	607
57901207c9abeb0001af353e	407724	2	main	z	76	circle	global	LVF	yes	present	1	508
57901207c9abeb0001af353e	409483	2	main	z	77	circle	global	RVF	yes	present	1	621
57901207c9abeb0001af353e	411123	2	main	z	78	square	global	LVF	yes	present	1	533
57901207c9abeb0001af353e	414303	2	main	z	79	square	local	RVF	yes	absent	0	2000
57901207c9abeb0001af353e	415949	2	main	z	80	circle	local	LVF	yes	present	1	688
57901207c9abeb0001af353e	449375	3	practice	slash	1	square	global	LVF	yes	present	1	452
57901207c9abeb0001af353e	452588	3	practice	slash	2	circle	global	RVF	yes	present	1	855
57901207c9abeb0001af353e	455414	3	practice	slash	3	circle	local	RVF	yes	present	1	557
57901207c9abeb0001af353e	457865	3	practice	slash	4	circle	local	RVF	yes	present	1	499
57901207c9abeb0001af353e	461943	3	practice	slash	5	absent	absent	absent	no	absent	1	2000
57901207c9abeb0001af353e	464727	3	practice	slash	6	square	global	RVF	yes	present	1	546
57901207c9abeb0001af353e	467337	3	practice	slash	7	square	global	LVF	yes	present	1	530
57901207c9abeb0001af353e	471335	3	practice	slash	8	absent	absent	absent	no	absent	1	2000
57901207c9abeb0001af353e	475473	3	practice	slash	9	absent	absent	absent	no	absent	1	2000
57901207c9abeb0001af353e	479662	3	practice	slash	10	square	local	LVF	yes	absent	0	2000
57901207c9abeb0001af353e	482288	3	practice	slash	11	circle	local	RVF	yes	present	1	454
57901207c9abeb0001af353e	486493	3	practice	slash	12	absent	absent	absent	no	absent	1	2000
57901207c9abeb0001af353e	489042	3	practice	slash	13	circle	global	LVF	yes	present	1	544
57901207c9abeb0001af353e	493125	3	practice	slash	14	square	local	LVF	yes	absent	0	2000
57901207c9abeb0001af353e	495622	3	practice	slash	15	circle	global	RVF	yes	present	1	475
57901207c9abeb0001af353e	498325	3	practice	slash	16	circle	global	LVF	yes	present	1	551
57901207c9abeb0001af353e	510207	4	main	slash	1	square	local	RVF	yes	present	1	1418
57901207c9abeb0001af353e	513465	4	main	slash	2	absent	absent	absent	no	absent	1	2000
57901207c9abeb0001af353e	514900	4	main	slash	3	square	global	LVF	yes	present	1	525
57901207c9abeb0001af353e	516591	4	main	slash	4	square	global	RVF	yes	present	1	389
57901207c9abeb0001af353e	518212	4	main	slash	5	circle	global	RVF	yes	present	1	430
57901207c9abeb0001af353e	519782	4	main	slash	6	circle	local	RVF	yes	present	1	487
57901207c9abeb0001af353e	521939	4	main	slash	7	square	global	RVF	yes	present	1	1082
57901207c9abeb0001af353e	523560	4	main	slash	8	circle	local	RVF	yes	present	1	476
57901207c9abeb0001af353e	525152	4	main	slash	9	circle	local	RVF	yes	present	1	506
57901207c9abeb0001af353e	526739	4	main	slash	10	circle	local	LVF	yes	present	1	497
57901207c9abeb0001af353e	528312	4	main	slash	11	circle	local	LVF	yes	present	1	490
57901207c9abeb0001af353e	529929	4	main	slash	12	circle	global	LVF	yes	present	1	579
57901207c9abeb0001af353e	531538	4	main	slash	13	square	local	RVF	yes	present	1	593
57901207c9abeb0001af353e	533155	4	main	slash	14	circle	global	LVF	yes	present	1	547
57901207c9abeb0001af353e	534951	4	main	slash	15	circle	global	RVF	yes	present	1	615
57901207c9abeb0001af353e	538049	4	main	slash	16	absent	absent	absent	no	absent	1	2000
57901207c9abeb0001af353e	541074	4	main	slash	17	absent	absent	absent	no	absent	1	2000
57901207c9abeb0001af353e	542499	4	main	slash	18	circle	global	LVF	yes	present	1	400
57901207c9abeb0001af353e	544418	4	main	slash	19	square	global	LVF	yes	present	1	857
57901207c9abeb0001af353e	546193	4	main	slash	20	circle	local	RVF	yes	present	1	454
57901207c9abeb0001af353e	548387	4	main	slash	21	square	local	RVF	yes	present	1	502
57901207c9abeb0001af353e	549991	4	main	slash	22	circle	global	RVF	yes	present	1	479
57901207c9abeb0001af353e	551625	4	main	slash	23	circle	global	RVF	yes	present	1	551
57901207c9abeb0001af353e	554720	4	main	slash	24	absent	absent	absent	no	absent	1	2000
57901207c9abeb0001af353e	556242	4	main	slash	25	square	global	RVF	yes	present	1	430
57901207c9abeb0001af353e	557865	4	main	slash	26	square	global	LVF	yes	present	1	491
57901207c9abeb0001af353e	559703	4	main	slash	27	circle	local	LVF	yes	present	1	601
57901207c9abeb0001af353e	562781	4	main	slash	28	absent	absent	absent	no	absent	1	2000
57901207c9abeb0001af353e	564290	4	main	slash	29	square	local	LVF	yes	present	1	517
57901207c9abeb0001af353e	566445	4	main	slash	30	circle	global	LVF	yes	present	1	428
57901207c9abeb0001af353e	569629	4	main	slash	31	absent	absent	absent	no	absent	1	2000
57901207c9abeb0001af353e	570996	4	main	slash	32	square	global	LVF	yes	present	1	474
57901207c9abeb0001af353e	574134	4	main	slash	33	square	local	LVF	yes	absent	0	2000
57901207c9abeb0001af353e	577209	4	main	slash	34	absent	absent	absent	no	absent	1	2000
57901207c9abeb0001af353e	578667	4	main	slash	35	square	global	RVF	yes	present	1	384
57901207c9abeb0001af353e	581796	4	main	slash	36	square	local	LVF	yes	absent	0	2000
57901207c9abeb0001af353e	583585	4	main	slash	37	square	local	RVF	yes	present	1	632
57901207c9abeb0001af353e	585408	4	main	slash	38	square	local	LVF	yes	present	1	743
57901207c9abeb0001af353e	588478	4	main	slash	39	absent	absent	absent	no	absent	1	2000
57901207c9abeb0001af353e	589969	4	main	slash	40	circle	local	LVF	yes	present	1	566
57901207c9abeb0001af353e	591584	4	main	slash	41	circle	global	LVF	yes	present	1	553
57901207c9abeb0001af353e	593155	4	main	slash	42	circle	local	LVF	yes	present	1	512
57901207c9abeb0001af353e	594962	4	main	slash	43	square	local	RVF	yes	present	1	788
57901207c9abeb0001af353e	596593	4	main	slash	44	square	local	LVF	yes	present	1	526
57901207c9abeb0001af353e	598584	4	main	slash	45	circle	global	LVF	yes	present	1	903
57901207c9abeb0001af353e	600192	4	main	slash	46	circle	global	LVF	yes	present	1	467
57901207c9abeb0001af353e	603254	4	main	slash	47	absent	absent	absent	no	absent	1	2000
57901207c9abeb0001af353e	604549	4	main	slash	48	square	local	RVF	yes	present	1	386
57901207c9abeb0001af353e	606166	4	main	slash	49	square	global	LVF	yes	present	1	491
57901207c9abeb0001af353e	607704	4	main	slash	50	square	global	LVF	yes	present	1	434
57901207c9abeb0001af353e	609572	4	main	slash	51	square	global	LVF	yes	present	1	490
57901207c9abeb0001af353e	611060	4	main	slash	52	circle	global	RVF	yes	present	1	431
57901207c9abeb0001af353e	614158	4	main	slash	53	absent	absent	absent	no	absent	1	2000
57901207c9abeb0001af353e	617149	4	main	slash	54	absent	absent	absent	no	absent	1	2000
57901207c9abeb0001af353e	618573	4	main	slash	55	square	global	LVF	yes	present	1	416
57901207c9abeb0001af353e	621525	4	main	slash	56	circle	global	LVF	yes	present	1	526
57901207c9abeb0001af353e	624779	4	main	slash	57	absent	absent	absent	no	absent	1	2000
57901207c9abeb0001af353e	627687	4	main	slash	58	absent	absent	absent	no	absent	1	2000
57901207c9abeb0001af353e	628832	4	main	slash	59	circle	local	RVF	yes	present	1	436
57901207c9abeb0001af353e	630523	4	main	slash	60	square	local	LVF	yes	present	1	564
57901207c9abeb0001af353e	632311	4	main	slash	61	circle	local	RVF	yes	present	1	540
57901207c9abeb0001af353e	634478	4	main	slash	62	square	global	RVF	yes	present	1	446
57901207c9abeb0001af353e	635999	4	main	slash	63	square	global	RVF	yes	present	1	438
57901207c9abeb0001af353e	637579	4	main	slash	64	circle	local	LVF	yes	present	1	539
57901207c9abeb0001af353e	639131	4	main	slash	65	circle	local	RVF	yes	present	1	482
57901207c9abeb0001af353e	640743	4	main	slash	66	square	local	LVF	yes	present	1	562
57901207c9abeb0001af353e	642406	4	main	slash	67	square	global	RVF	yes	present	1	647
57901207c9abeb0001af353e	645422	4	main	slash	68	absent	absent	absent	no	absent	1	2000
57901207c9abeb0001af353e	646827	4	main	slash	69	circle	local	RVF	yes	present	1	463
57901207c9abeb0001af353e	648440	4	main	slash	70	square	local	RVF	yes	present	1	580
57901207c9abeb0001af353e	650128	4	main	slash	71	circle	global	RVF	yes	present	1	639
57901207c9abeb0001af353e	651680	4	main	slash	72	circle	global	RVF	yes	present	1	512
57901207c9abeb0001af353e	653241	4	main	slash	73	circle	global	RVF	yes	present	1	561
57901207c9abeb0001af353e	654924	4	main	slash	74	square	global	RVF	yes	present	1	599
57901207c9abeb0001af353e	656672	4	main	slash	75	square	local	LVF	yes	present	1	767
57901207c9abeb0001af353e	659633	4	main	slash	76	absent	absent	absent	no	absent	1	2000
57901207c9abeb0001af353e	662792	4	main	slash	77	absent	absent	absent	no	absent	1	2000
57901207c9abeb0001af353e	664357	4	main	slash	78	circle	local	LVF	yes	present	1	475
57901207c9abeb0001af353e	665914	4	main	slash	79	circle	local	LVF	yes	present	1	551
57901207c9abeb0001af353e	667760	4	main	slash	80	square	local	RVF	yes	present	1	868
581bd344930a280001062c90	181742	1	practice	slash	1	absent	absent	absent	no	absent	1	2000
581bd344930a280001062c90	185799	1	practice	slash	2	circle	global	RVF	yes	present	1	900
581bd344930a280001062c90	189504	1	practice	slash	3	circle	local	RVF	yes	present	1	1004
581bd344930a280001062c90	194947	1	practice	slash	4	square	global	LVF	yes	absent	0	2000
581bd344930a280001062c90	199241	1	practice	slash	5	square	local	LVF	yes	absent	0	2000
581bd344930a280001062c90	203759	1	practice	slash	6	absent	absent	absent	no	absent	1	2000
581bd344930a280001062c90	208162	1	practice	slash	7	square	global	RVF	yes	absent	0	2000
581bd344930a280001062c90	211316	1	practice	slash	8	circle	global	RVF	yes	present	1	886
581bd344930a280001062c90	214591	1	practice	slash	9	circle	global	LVF	yes	present	1	885
581bd344930a280001062c90	218831	1	practice	slash	10	absent	absent	absent	no	absent	1	2000
581bd344930a280001062c90	221954	1	practice	slash	11	circle	global	LVF	yes	present	1	968
581bd344930a280001062c90	226308	1	practice	slash	12	square	global	LVF	yes	absent	0	2000
581bd344930a280001062c90	229728	1	practice	slash	13	square	local	LVF	yes	present	1	1132
581bd344930a280001062c90	233044	1	practice	slash	14	circle	local	RVF	yes	present	1	840
581bd344930a280001062c90	236872	1	practice	slash	15	absent	absent	absent	no	present	0	1479
581bd344930a280001062c90	240301	1	practice	slash	16	circle	local	RVF	yes	present	1	1043
581bd344930a280001062c90	254286	2	main	slash	1	square	global	RVF	yes	absent	0	2000
581bd344930a280001062c90	256026	2	main	slash	2	circle	global	LVF	yes	present	1	554
581bd344930a280001062c90	258858	2	main	slash	3	square	local	RVF	yes	present	1	853
581bd344930a280001062c90	262522	2	main	slash	4	absent	absent	absent	no	absent	1	2000
581bd344930a280001062c90	264828	2	main	slash	5	square	local	LVF	yes	present	1	999
581bd344930a280001062c90	267484	2	main	slash	6	square	local	LVF	yes	present	1	886
581bd344930a280001062c90	270328	2	main	slash	7	circle	local	LVF	yes	present	1	881
581bd344930a280001062c90	272711	2	main	slash	8	circle	local	RVF	yes	present	1	822
581bd344930a280001062c90	275227	2	main	slash	9	circle	local	LVF	yes	present	1	825
581bd344930a280001062c90	277782	2	main	slash	10	circle	global	RVF	yes	present	1	1143
581bd344930a280001062c90	281249	2	main	slash	11	square	global	LVF	yes	present	1	1679
581bd344930a280001062c90	284681	2	main	slash	12	absent	absent	absent	no	absent	1	2000
581bd344930a280001062c90	286685	2	main	slash	13	square	global	LVF	yes	present	1	854
581bd344930a280001062c90	290220	2	main	slash	14	square	local	RVF	yes	present	1	1020
581bd344930a280001062c90	292854	2	main	slash	15	absent	absent	absent	no	present	0	1173
581bd344930a280001062c90	295114	2	main	slash	16	circle	global	LVF	yes	present	1	902
581bd344930a280001062c90	298834	2	main	slash	17	absent	absent	absent	no	absent	1	2000
581bd344930a280001062c90	300898	2	main	slash	18	circle	global	RVF	yes	present	1	863
581bd344930a280001062c90	303356	2	main	slash	19	circle	local	RVF	yes	present	1	893
581bd344930a280001062c90	305891	2	main	slash	20	circle	global	LVF	yes	present	1	914
581bd344930a280001062c90	309247	2	main	slash	21	circle	local	LVF	yes	present	1	978
581bd344930a280001062c90	312912	2	main	slash	22	square	global	RVF	yes	present	1	1160
581bd344930a280001062c90	316879	2	main	slash	23	absent	absent	absent	no	absent	1	2000
581bd344930a280001062c90	319233	2	main	slash	24	circle	global	RVF	yes	present	1	871
581bd344930a280001062c90	322151	2	main	slash	25	square	local	LVF	yes	present	1	1051
581bd344930a280001062c90	324649	2	main	slash	26	square	local	LVF	yes	present	1	913
581bd344930a280001062c90	328117	2	main	slash	27	absent	absent	absent	no	absent	1	2000
581bd344930a280001062c90	330230	2	main	slash	28	square	global	LVF	yes	present	1	938
581bd344930a280001062c90	332811	2	main	slash	29	square	local	RVF	yes	present	1	909
581bd344930a280001062c90	335328	2	main	slash	30	square	global	RVF	yes	present	1	1029
581bd344930a280001062c90	338718	2	main	slash	31	square	global	RVF	yes	absent	0	2000
581bd344930a280001062c90	341209	2	main	slash	32	circle	local	RVF	yes	present	1	917
581bd344930a280001062c90	343675	2	main	slash	33	circle	global	LVF	yes	present	1	770
581bd344930a280001062c90	346918	2	main	slash	34	absent	absent	absent	no	absent	1	2000
581bd344930a280001062c90	349060	2	main	slash	35	square	local	RVF	yes	present	1	740
581bd344930a280001062c90	351219	2	main	slash	36	circle	global	RVF	yes	present	1	603
581bd344930a280001062c90	354485	2	main	slash	37	absent	absent	absent	no	absent	1	2000
581bd344930a280001062c90	356559	2	main	slash	38	square	global	LVF	yes	present	1	579
581bd344930a280001062c90	358313	2	main	slash	39	circle	local	RVF	yes	present	1	605
581bd344930a280001062c90	360166	2	main	slash	40	circle	local	LVF	yes	present	1	676
581bd344930a280001062c90	362029	2	main	slash	41	circle	global	RVF	yes	present	1	573
581bd344930a280001062c90	364435	2	main	slash	42	square	global	RVF	yes	present	1	1123
581bd344930a280001062c90	366457	2	main	slash	43	circle	global	LVF	yes	present	1	788
581bd344930a280001062c90	368336	2	main	slash	44	circle	global	LVF	yes	present	1	671
581bd344930a280001062c90	370130	2	main	slash	45	circle	local	LVF	yes	present	1	666
581bd344930a280001062c90	373145	2	main	slash	46	absent	absent	absent	no	absent	1	2000
581bd344930a280001062c90	375097	2	main	slash	47	circle	global	RVF	yes	present	1	566
581bd344930a280001062c90	377240	2	main	slash	48	circle	local	RVF	yes	present	1	840
581bd344930a280001062c90	380339	2	main	slash	49	absent	absent	absent	no	absent	1	2000
581bd344930a280001062c90	382104	2	main	slash	50	square	local	RVF	yes	present	1	693
581bd344930a280001062c90	384485	2	main	slash	51	square	global	RVF	yes	present	1	877
581bd344930a280001062c90	386921	2	main	slash	52	square	local	LVF	yes	present	1	1029
581bd344930a280001062c90	389135	2	main	slash	53	circle	local	LVF	yes	present	1	996
581bd344930a280001062c90	391530	2	main	slash	54	circle	local	RVF	yes	present	1	1048
581bd344930a280001062c90	394310	2	main	slash	55	circle	local	RVF	yes	present	1	1425
581bd344930a280001062c90	397774	2	main	slash	56	absent	absent	absent	no	absent	1	2000
581bd344930a280001062c90	399840	2	main	slash	57	square	local	RVF	yes	present	1	751
581bd344930a280001062c90	402137	2	main	slash	58	circle	global	RVF	yes	present	1	856
581bd344930a280001062c90	405466	2	main	slash	59	absent	absent	absent	no	absent	1	2000
581bd344930a280001062c90	407357	2	main	slash	60	circle	local	LVF	yes	present	1	775
581bd344930a280001062c90	410585	2	main	slash	61	absent	absent	absent	no	absent	1	2000
581bd344930a280001062c90	412734	2	main	slash	62	circle	global	LVF	yes	present	1	859
581bd344930a280001062c90	415095	2	main	slash	63	square	global	LVF	yes	present	1	956
581bd344930a280001062c90	417494	2	main	slash	64	square	local	RVF	yes	present	1	1007
581bd344930a280001062c90	419609	2	main	slash	65	circle	local	LVF	yes	present	1	729
581bd344930a280001062c90	421889	2	main	slash	66	square	global	RVF	yes	present	1	974
581bd344930a280001062c90	424049	2	main	slash	67	square	local	RVF	yes	present	1	843
581bd344930a280001062c90	426369	2	main	slash	68	square	global	RVF	yes	present	1	944
581bd344930a280001062c90	428617	2	main	slash	69	circle	local	RVF	yes	present	1	597
581bd344930a280001062c90	430856	2	main	slash	70	square	local	LVF	yes	present	1	819
581bd344930a280001062c90	433066	2	main	slash	71	square	global	LVF	yes	present	1	814
581bd344930a280001062c90	436533	2	main	slash	72	absent	absent	absent	no	absent	1	2000
581bd344930a280001062c90	439823	2	main	slash	73	absent	absent	absent	no	absent	1	2000
581bd344930a280001062c90	441685	2	main	slash	74	square	global	LVF	yes	present	1	753
581bd344930a280001062c90	443740	2	main	slash	75	square	local	LVF	yes	present	1	786
581bd344930a280001062c90	446012	2	main	slash	76	circle	global	LVF	yes	present	1	899
581bd344930a280001062c90	448450	2	main	slash	77	circle	global	RVF	yes	present	1	1119
581bd344930a280001062c90	450762	2	main	slash	78	absent	absent	absent	no	present	0	925
581bd344930a280001062c90	452852	2	main	slash	79	square	global	LVF	yes	present	1	748
581bd344930a280001062c90	454630	2	main	slash	80	square	local	LVF	yes	present	1	662
581bd344930a280001062c90	485302	3	practice	z	1	square	global	LVF	yes	present	1	634
581bd344930a280001062c90	488163	3	practice	z	2	circle	local	RVF	yes	present	1	730
581bd344930a280001062c90	492240	3	practice	z	3	absent	absent	absent	no	absent	1	2000
581bd344930a280001062c90	495176	3	practice	z	4	square	global	RVF	yes	present	1	878
581bd344930a280001062c90	499350	3	practice	z	5	absent	absent	absent	no	absent	1	2000
581bd344930a280001062c90	501913	3	practice	z	6	absent	absent	absent	no	present	0	839
581bd344930a280001062c90	504986	3	practice	z	7	square	global	LVF	yes	present	1	763
581bd344930a280001062c90	508062	3	practice	z	8	circle	global	RVF	yes	present	1	839
581bd344930a280001062c90	510710	3	practice	z	9	circle	global	LVF	yes	present	1	699
581bd344930a280001062c90	513570	3	practice	z	10	circle	global	RVF	yes	present	1	668
581bd344930a280001062c90	516399	3	practice	z	11	circle	local	RVF	yes	present	1	638
581bd344930a280001062c90	519294	3	practice	z	12	circle	local	RVF	yes	present	1	726
581bd344930a280001062c90	522803	3	practice	z	13	square	local	LVF	yes	present	1	1344
581bd344930a280001062c90	525527	3	practice	z	14	square	local	LVF	yes	present	1	829
581bd344930a280001062c90	529776	3	practice	z	15	absent	absent	absent	no	absent	1	2000
581bd344930a280001062c90	532820	3	practice	z	16	circle	global	LVF	yes	present	1	697
581bd344930a280001062c90	541906	4	main	z	1	absent	absent	absent	no	absent	1	2000
581bd344930a280001062c90	543293	4	main	z	2	circle	local	RVF	yes	present	1	496
581bd344930a280001062c90	545157	4	main	z	3	circle	local	LVF	yes	present	1	653
581bd344930a280001062c90	547461	4	main	z	4	absent	absent	absent	no	present	0	982
581bd344930a280001062c90	550659	4	main	z	5	absent	absent	absent	no	absent	1	2000
581bd344930a280001062c90	552454	4	main	z	6	circle	local	LVF	yes	present	1	510
581bd344930a280001062c90	554254	4	main	z	7	square	global	LVF	yes	present	1	621
581bd344930a280001062c90	556113	4	main	z	8	square	local	RVF	yes	present	1	717
581bd344930a280001062c90	557984	4	main	z	9	square	local	LVF	yes	present	1	749
581bd344930a280001062c90	559846	4	main	z	10	circle	local	RVF	yes	present	1	696
581bd344930a280001062c90	561729	4	main	z	11	square	global	LVF	yes	present	1	661
581bd344930a280001062c90	563416	4	main	z	12	circle	global	RVF	yes	present	1	586
581bd344930a280001062c90	565456	4	main	z	13	square	global	RVF	yes	present	1	956
581bd344930a280001062c90	566983	4	main	z	14	circle	global	LVF	yes	present	1	516
581bd344930a280001062c90	568664	4	main	z	15	circle	global	LVF	yes	present	1	545
581bd344930a280001062c90	570648	4	main	z	16	circle	local	RVF	yes	present	1	815
581bd344930a280001062c90	572548	4	main	z	17	square	local	RVF	yes	present	1	649
581bd344930a280001062c90	574844	4	main	z	18	circle	global	LVF	yes	present	1	1218
581bd344930a280001062c90	577857	4	main	z	19	absent	absent	absent	no	absent	1	2000
581bd344930a280001062c90	579404	4	main	z	20	square	global	LVF	yes	present	1	592
581bd344930a280001062c90	582547	4	main	z	21	absent	absent	absent	no	absent	1	2000
581bd344930a280001062c90	584131	4	main	z	22	square	global	RVF	yes	present	1	598
581bd344930a280001062c90	586023	4	main	z	23	square	local	RVF	yes	present	1	782
581bd344930a280001062c90	589177	4	main	z	24	absent	absent	absent	no	absent	1	2000
581bd344930a280001062c90	591160	4	main	z	25	absent	absent	absent	no	present	0	686
581bd344930a280001062c90	594939	4	main	z	26	absent	absent	absent	no	absent	1	2000
581bd344930a280001062c90	596720	4	main	z	27	circle	global	LVF	yes	present	1	622
581bd344930a280001062c90	598808	4	main	z	28	square	global	RVF	yes	present	1	924
581bd344930a280001062c90	601076	4	main	z	29	circle	local	RVF	yes	present	1	1085
581bd344930a280001062c90	603396	4	main	z	30	circle	local	LVF	yes	present	1	1045
581bd344930a280001062c90	605762	4	main	z	31	square	local	RVF	yes	present	1	764
581bd344930a280001062c90	607875	4	main	z	32	square	local	LVF	yes	present	1	809
581bd344930a280001062c90	610047	4	main	z	33	square	global	LVF	yes	present	1	886
581bd344930a280001062c90	612422	4	main	z	34	square	local	LVF	yes	present	1	1171
581bd344930a280001062c90	614817	4	main	z	35	square	global	RVF	yes	present	1	908
581bd344930a280001062c90	617392	4	main	z	36	circle	global	RVF	yes	present	1	957
581bd344930a280001062c90	619950	4	main	z	37	square	local	LVF	yes	present	1	1025
581bd344930a280001062c90	622303	4	main	z	38	circle	global	RVF	yes	present	1	910
581bd344930a280001062c90	624488	4	main	z	39	circle	local	LVF	yes	present	1	754
581bd344930a280001062c90	626791	4	main	z	40	circle	global	RVF	yes	present	1	688
581bd344930a280001062c90	630101	4	main	z	41	absent	absent	absent	no	absent	1	2000
581bd344930a280001062c90	631652	4	main	z	42	square	local	RVF	yes	present	1	602
581bd344930a280001062c90	634285	4	main	z	43	square	local	LVF	yes	present	1	1234
581bd344930a280001062c90	637073	4	main	z	44	square	global	RVF	yes	present	1	1283
581bd344930a280001062c90	639370	4	main	z	45	square	global	RVF	yes	present	1	876
581bd344930a280001062c90	641345	4	main	z	46	circle	local	LVF	yes	present	1	722
581bd344930a280001062c90	644694	4	main	z	47	absent	absent	absent	no	absent	1	2000
581bd344930a280001062c90	646379	4	main	z	48	square	local	RVF	yes	present	1	707
581bd344930a280001062c90	648291	4	main	z	49	square	local	RVF	yes	present	1	626
581bd344930a280001062c90	650954	4	main	z	50	absent	absent	absent	no	present	0	1342
581bd344930a280001062c90	652698	4	main	z	51	circle	local	RVF	yes	present	1	717
581bd344930a280001062c90	655821	4	main	z	52	absent	absent	absent	no	absent	1	2000
581bd344930a280001062c90	658731	4	main	z	53	absent	absent	absent	no	absent	1	2000
581bd344930a280001062c90	660412	4	main	z	54	square	local	LVF	yes	present	1	693
581bd344930a280001062c90	662348	4	main	z	55	circle	global	RVF	yes	present	1	655
581bd344930a280001062c90	664834	4	main	z	56	square	global	LVF	yes	present	1	1108
581bd344930a280001062c90	666676	4	main	z	57	square	global	LVF	yes	present	1	743
581bd344930a280001062c90	668623	4	main	z	58	circle	global	RVF	yes	present	1	657
581bd344930a280001062c90	670561	4	main	z	59	circle	global	LVF	yes	present	1	682
581bd344930a280001062c90	673637	4	main	z	60	absent	absent	absent	no	absent	1	2000
581bd344930a280001062c90	675151	4	main	z	61	circle	global	LVF	yes	present	1	570
581bd344930a280001062c90	677190	4	main	z	62	circle	local	RVF	yes	present	1	732
581bd344930a280001062c90	679154	4	main	z	63	circle	global	RVF	yes	present	1	719
581bd344930a280001062c90	681104	4	main	z	64	square	local	LVF	yes	present	1	763
581bd344930a280001062c90	683498	4	main	z	65	square	global	LVF	yes	present	1	1013
581bd344930a280001062c90	685687	4	main	z	66	circle	global	LVF	yes	present	1	603
581bd344930a280001062c90	687574	4	main	z	67	circle	local	RVF	yes	present	1	623
581bd344930a280001062c90	690129	4	main	z	68	absent	absent	absent	no	present	0	1274
581bd344930a280001062c90	692617	4	main	z	69	square	global	RVF	yes	present	1	1486
581bd344930a280001062c90	694426	4	main	z	70	circle	local	RVF	yes	present	1	802
581bd344930a280001062c90	696267	4	main	z	71	circle	local	LVF	yes	present	1	588
581bd344930a280001062c90	698226	4	main	z	72	circle	global	LVF	yes	present	1	758
581bd344930a280001062c90	700181	4	main	z	73	circle	local	LVF	yes	present	1	697
581bd344930a280001062c90	701946	4	main	z	74	circle	local	LVF	yes	present	1	532
581bd344930a280001062c90	703897	4	main	z	75	square	local	LVF	yes	present	1	715
581bd344930a280001062c90	705997	4	main	z	76	circle	global	RVF	yes	present	1	821
581bd344930a280001062c90	708039	4	main	z	77	square	local	RVF	yes	present	1	899
581bd344930a280001062c90	710210	4	main	z	78	square	global	LVF	yes	present	1	910
581bd344930a280001062c90	713483	4	main	z	79	absent	absent	absent	no	absent	1	2000
581bd344930a280001062c90	716092	4	main	z	80	square	global	RVF	yes	present	1	1638
5928b6414a05920001393ecf	222603	1	practice	z	1	square	global	LVF	yes	absent	0	2000
5928b6414a05920001393ecf	227807	1	practice	z	2	square	global	LVF	yes	present	1	599
5928b6414a05920001393ecf	230733	1	practice	z	3	circle	global	RVF	yes	present	1	487
5928b6414a05920001393ecf	233825	1	practice	z	4	circle	local	RVF	yes	present	1	608
5928b6414a05920001393ecf	237125	1	practice	z	5	circle	global	RVF	yes	present	1	806
5928b6414a05920001393ecf	243129	1	practice	z	6	absent	absent	absent	no	absent	1	2000
5928b6414a05920001393ecf	248100	1	practice	z	7	absent	absent	absent	no	absent	1	2000
5928b6414a05920001393ecf	251906	1	practice	z	8	circle	global	LVF	yes	present	1	730
5928b6414a05920001393ecf	257824	1	practice	z	9	absent	absent	absent	no	absent	1	2000
5928b6414a05920001393ecf	261277	1	practice	z	10	square	global	RVF	yes	present	1	895
5928b6414a05920001393ecf	267303	1	practice	z	11	absent	absent	absent	no	absent	1	2000
5928b6414a05920001393ecf	270181	1	practice	z	12	circle	local	RVF	yes	present	1	609
5928b6414a05920001393ecf	273087	1	practice	z	13	circle	local	RVF	yes	present	1	600
5928b6414a05920001393ecf	276257	1	practice	z	14	circle	global	LVF	yes	present	1	717
5928b6414a05920001393ecf	280054	1	practice	z	15	square	local	LVF	yes	present	1	605
5928b6414a05920001393ecf	282789	1	practice	z	16	square	local	LVF	yes	present	1	629
5928b6414a05920001393ecf	294443	2	main	z	1	square	global	LVF	yes	present	1	614
5928b6414a05920001393ecf	298094	2	main	z	2	circle	local	RVF	yes	present	1	579
5928b6414a05920001393ecf	302321	2	main	z	3	absent	absent	absent	no	absent	1	2000
5928b6414a05920001393ecf	304353	2	main	z	4	square	global	LVF	yes	present	1	574
5928b6414a05920001393ecf	308488	2	main	z	5	square	local	RVF	yes	absent	0	2000
5928b6414a05920001393ecf	311929	2	main	z	6	absent	absent	absent	no	absent	1	2000
5928b6414a05920001393ecf	313707	2	main	z	7	square	global	LVF	yes	present	1	779
5928b6414a05920001393ecf	317815	2	main	z	8	circle	global	RVF	yes	present	1	1632
5928b6414a05920001393ecf	320294	2	main	z	9	circle	global	LVF	yes	present	1	659
5928b6414a05920001393ecf	322387	2	main	z	10	circle	local	LVF	yes	present	1	462
5928b6414a05920001393ecf	324479	2	main	z	11	square	local	RVF	yes	present	1	672
5928b6414a05920001393ecf	326696	2	main	z	12	circle	global	RVF	yes	present	1	656
5928b6414a05920001393ecf	330288	2	main	z	13	square	global	RVF	yes	absent	0	2000
5928b6414a05920001393ecf	332394	2	main	z	14	square	global	RVF	yes	present	1	1061
5928b6414a05920001393ecf	334296	2	main	z	15	square	local	LVF	yes	present	1	619
5928b6414a05920001393ecf	337671	2	main	z	16	absent	absent	absent	no	absent	1	2000
5928b6414a05920001393ecf	340800	2	main	z	17	absent	absent	absent	no	absent	1	2000
5928b6414a05920001393ecf	344153	2	main	z	18	absent	absent	absent	no	absent	1	2000
5928b6414a05920001393ecf	345811	2	main	z	19	circle	local	RVF	yes	present	1	607
5928b6414a05920001393ecf	348179	2	main	z	20	circle	global	LVF	yes	present	1	749
5928b6414a05920001393ecf	351055	2	main	z	21	square	global	RVF	yes	present	1	1458
5928b6414a05920001393ecf	354704	2	main	z	22	absent	absent	absent	no	absent	1	2000
5928b6414a05920001393ecf	357319	2	main	z	23	square	local	LVF	yes	present	1	889
5928b6414a05920001393ecf	359314	2	main	z	24	circle	local	LVF	yes	present	1	528
5928b6414a05920001393ecf	361776	2	main	z	25	square	global	LVF	yes	present	1	910
5928b6414a05920001393ecf	363630	2	main	z	26	circle	local	LVF	yes	present	1	582
5928b6414a05920001393ecf	365723	2	main	z	27	circle	global	RVF	yes	present	1	912
5928b6414a05920001393ecf	367903	2	main	z	28	square	local	RVF	yes	present	1	939
5928b6414a05920001393ecf	371096	2	main	z	29	absent	absent	absent	no	absent	1	2000
5928b6414a05920001393ecf	373470	2	main	z	30	circle	global	RVF	yes	present	1	702
5928b6414a05920001393ecf	375843	2	main	z	31	circle	global	LVF	yes	present	1	620
5928b6414a05920001393ecf	377840	2	main	z	32	circle	global	LVF	yes	present	1	688
5928b6414a05920001393ecf	379984	2	main	z	33	circle	local	RVF	yes	present	1	916
5928b6414a05920001393ecf	383184	2	main	z	34	absent	absent	absent	no	absent	1	2000
5928b6414a05920001393ecf	386076	2	main	z	35	square	local	LVF	yes	present	1	631
5928b6414a05920001393ecf	387830	2	main	z	36	square	global	RVF	yes	present	1	595
5928b6414a05920001393ecf	389672	2	main	z	37	circle	local	LVF	yes	present	1	638
5928b6414a05920001393ecf	391550	2	main	z	38	square	local	RVF	yes	present	1	748
5928b6414a05920001393ecf	393298	2	main	z	39	circle	local	RVF	yes	present	1	594
5928b6414a05920001393ecf	395076	2	main	z	40	square	local	LVF	yes	present	1	622
