subject	block	trialnum	DL_leftSound	DL_rightSound	DL_dualSound	DL_choice	response	correct	rt
5e282e43266894a3e79a6eaa	headphonecheck_testphase	3	NA	NA	0	NA	second	1	1103
5e282e43266894a3e79a6eaa	headphonecheck_testphase	6	NA	NA	0	NA	second	1	339
5e282e43266894a3e79a6eaa	headphonecheck_testphase	9	NA	NA	0	NA	first	1	476
5e282e43266894a3e79a6eaa	headphonecheck_testphase	12	NA	NA	0	NA	third	1	642
5e282e43266894a3e79a6eaa	headphonecheck_testphase	15	NA	NA	0	NA	first	1	352
5e282e43266894a3e79a6eaa	headphonecheck_testphase	18	NA	NA	0	NA	third	1	328
5e282e43266894a3e79a6eaa	stereocheck_testphase	3	NA	NA	0	NA	stereocheck_left	1	951
5e282e43266894a3e79a6eaa	stereocheck_testphase	6	NA	NA	0	NA	stereocheck_left	1	361
5e282e43266894a3e79a6eaa	stereocheck_testphase	9	NA	NA	0	NA	stereocheck_right	1	235
5e282e43266894a3e79a6eaa	stereocheck_testphase	12	NA	NA	0	NA	stereocheck_right	1	191
5e282e43266894a3e79a6eaa	stereocheck_testphase	15	NA	NA	0	NA	stereocheck_left	1	192
5e282e43266894a3e79a6eaa	stereocheck_testphase	18	NA	NA	0	NA	stereocheck_right	1	113
5e282e43266894a3e79a6eaa	DL_practice	2	ga	ta	1	other	ka	0	1878
5e282e43266894a3e79a6eaa	DL_practice	3	pa	pa	0	left	pa	1	1076
5e282e43266894a3e79a6eaa	DL_practice	4	ka	pa	1	left	ka	1	1060
5e282e43266894a3e79a6eaa	DL_practice	5	ta	ta	0	left	ta	1	2334
5e282e43266894a3e79a6eaa	DL_practice	6	da	ba	1	left	da	1	1417
5e282e43266894a3e79a6eaa	DL_practice	7	ga	ga	0	left	ga	1	1005
5e282e43266894a3e79a6eaa	DL_practice	8	da	da	0	left	da	1	896
5e282e43266894a3e79a6eaa	DL_practice	9	ba	ba	0	left	ba	1	1242
5e282e43266894a3e79a6eaa	DL_practice	10	ka	ka	0	left	ka	1	1055
5e282e43266894a3e79a6eaa	DL_test	1	ga	ba	1	left	ga	1	1069
5e282e43266894a3e79a6eaa	DL_test	2	ta	ba	1	other	ka	0	1624
5e282e43266894a3e79a6eaa	DL_test	3	pa	ta	1	left	pa	1	1096
5e282e43266894a3e79a6eaa	DL_test	4	da	ga	1	left	da	1	1016
5e282e43266894a3e79a6eaa	DL_test	5	ta	pa	1	left	ta	1	1353
5e282e43266894a3e79a6eaa	DL_test	6	da	ka	1	other	pa	0	2390
5e282e43266894a3e79a6eaa	DL_test	7	pa	pa	0	left	pa	1	818
5e282e43266894a3e79a6eaa	DL_test	8	ga	da	1	right	da	1	1171
5e282e43266894a3e79a6eaa	DL_test	9	da	ba	1	left	da	1	898
5e282e43266894a3e79a6eaa	DL_test	10	ka	ta	1	left	ka	1	1289
5e282e43266894a3e79a6eaa	DL_test	11	pa	ga	1	left	pa	1	1245
5e282e43266894a3e79a6eaa	DL_test	12	ba	pa	1	right	pa	1	1312
5e282e43266894a3e79a6eaa	DL_test	13	ga	ga	0	left	ga	1	977
5e282e43266894a3e79a6eaa	DL_test	14	ba	ka	1	right	ka	1	1047
5e282e43266894a3e79a6eaa	DL_test	15	ta	ta	0	left	ta	1	1194
5e282e43266894a3e79a6eaa	DL_test	16	ba	ga	1	left	ba	1	1497
5e282e43266894a3e79a6eaa	DL_test	17	ta	ka	1	right	ka	1	778
5e282e43266894a3e79a6eaa	DL_test	18	da	ta	1	left	da	1	1193
5e282e43266894a3e79a6eaa	DL_test	19	pa	da	1	left	pa	1	1042
5e282e43266894a3e79a6eaa	DL_test	20	ga	ka	1	right	ka	1	1040
5e282e43266894a3e79a6eaa	DL_test	21	ta	da	1	left	ta	1	1060
5e282e43266894a3e79a6eaa	DL_test	22	pa	ka	1	right	ka	1	1044
5e282e43266894a3e79a6eaa	DL_test	23	ka	ga	1	left	ka	1	1044
5e282e43266894a3e79a6eaa	DL_test	24	da	pa	1	right	pa	1	1219
5e282e43266894a3e79a6eaa	DL_test	25	ba	ba	0	left	ba	1	1955
5e282e43266894a3e79a6eaa	DL_test	26	ga	ta	1	other	ka	0	956
5e282e43266894a3e79a6eaa	DL_test	27	ga	pa	1	right	pa	1	1401
5e282e43266894a3e79a6eaa	DL_test	28	ba	ta	1	right	ta	1	1552
5e282e43266894a3e79a6eaa	DL_test	29	ka	ka	0	left	ka	1	916
5e282e43266894a3e79a6eaa	DL_test	30	ba	da	1	right	da	1	2803
5e282e43266894a3e79a6eaa	DL_test	31	pa	ba	1	left	pa	1	1277
5e282e43266894a3e79a6eaa	DL_test	32	ka	ba	1	left	ka	1	1357
5e282e43266894a3e79a6eaa	DL_test	33	da	da	0	left	da	1	1263
5e282e43266894a3e79a6eaa	DL_test	34	ka	pa	1	left	ka	1	980
5e282e43266894a3e79a6eaa	DL_test	35	ka	da	1	left	ka	1	860
5e282e43266894a3e79a6eaa	DL_test	36	ta	ga	1	other	ka	0	1129
5e282e43266894a3e79a6eaa	DL_test	1	ga	pa	1	right	pa	1	2350
5e282e43266894a3e79a6eaa	DL_test	2	ka	ga	1	left	ka	1	984
5e282e43266894a3e79a6eaa	DL_test	3	ta	ta	0	left	ta	1	1021
5e282e43266894a3e79a6eaa	DL_test	4	pa	ta	1	left	pa	1	1087
5e282e43266894a3e79a6eaa	DL_test	5	ga	ka	1	left	ga	1	980
5e282e43266894a3e79a6eaa	DL_test	6	ka	ta	1	left	ka	1	816
5e282e43266894a3e79a6eaa	DL_test	7	ga	ga	0	left	ga	1	784
5e282e43266894a3e79a6eaa	DL_test	8	pa	ga	1	left	pa	1	926
5e282e43266894a3e79a6eaa	DL_test	9	ka	ka	0	left	ka	1	748
5e282e43266894a3e79a6eaa	DL_test	10	ta	da	1	left	ta	1	1195
5e282e43266894a3e79a6eaa	DL_test	11	ka	da	1	left	ka	1	2797
5e282e43266894a3e79a6eaa	DL_test	12	da	da	0	left	da	1	1054
5e282e43266894a3e79a6eaa	DL_test	13	ba	da	1	left	ba	1	1960
5e282e43266894a3e79a6eaa	DL_test	14	da	ka	1	other	pa	0	1322
5e282e43266894a3e79a6eaa	DL_test	15	ga	da	1	right	da	1	1786
5e282e43266894a3e79a6eaa	DL_test	16	ka	pa	1	left	ka	1	893
5e282e43266894a3e79a6eaa	DL_test	17	ba	ga	1	left	ba	1	1430
5e282e43266894a3e79a6eaa	DL_test	18	ta	ga	1	left	ta	1	1101
5e282e43266894a3e79a6eaa	DL_test	19	ga	ba	1	right	ba	1	1682
5e282e43266894a3e79a6eaa	DL_test	20	da	ta	1	left	da	1	2482
5e282e43266894a3e79a6eaa	DL_test	21	ba	pa	1	right	pa	1	1607
5e282e43266894a3e79a6eaa	DL_test	22	da	ba	1	left	da	1	1683
5e282e43266894a3e79a6eaa	DL_test	23	ta	ka	1	right	ka	1	960
5e282e43266894a3e79a6eaa	DL_test	24	ta	ba	1	right	ba	1	2654
5e282e43266894a3e79a6eaa	DL_test	25	pa	da	1	left	pa	1	975
5e282e43266894a3e79a6eaa	DL_test	26	ba	ta	1	right	ta	1	1581
5e282e43266894a3e79a6eaa	DL_test	27	ka	ba	1	left	ka	1	1145
5e282e43266894a3e79a6eaa	DL_test	28	pa	ka	1	left	pa	1	995
5e282e43266894a3e79a6eaa	DL_test	29	da	ga	1	left	da	1	890
5e282e43266894a3e79a6eaa	DL_test	30	da	pa	1	right	pa	1	1056
5e282e43266894a3e79a6eaa	DL_test	31	pa	ba	1	left	pa	1	941
5e282e43266894a3e79a6eaa	DL_test	32	ga	ta	1	other	ka	0	2615
5e282e43266894a3e79a6eaa	DL_test	33	pa	pa	0	left	pa	1	972
5e282e43266894a3e79a6eaa	DL_test	34	ba	ba	0	left	ba	1	1284
5e282e43266894a3e79a6eaa	DL_test	35	ta	pa	1	other	ka	0	1222
5e282e43266894a3e79a6eaa	DL_test	36	ba	ka	1	other	ta	0	1276
5e282e43266894a3e79a6eaa	DL_test	1	ka	ka	0	left	ka	1	1020
5e282e43266894a3e79a6eaa	DL_test	2	da	da	0	left	da	1	1415
5e282e43266894a3e79a6eaa	DL_test	3	da	ga	1	left	da	1	902
5e282e43266894a3e79a6eaa	DL_test	4	da	ta	1	right	ta	1	1273
5e282e43266894a3e79a6eaa	DL_test	5	ka	pa	1	left	ka	1	1072
5e282e43266894a3e79a6eaa	DL_test	6	da	ka	1	other	pa	0	1095
5e282e43266894a3e79a6eaa	DL_test	7	pa	pa	0	left	pa	1	840
5e282e43266894a3e79a6eaa	DL_test	8	ga	ba	1	left	ga	1	1079
5e282e43266894a3e79a6eaa	DL_test	9	pa	da	1	left	pa	1	900
5e282e43266894a3e79a6eaa	DL_test	10	ba	ga	1	left	ba	1	1102
5e282e43266894a3e79a6eaa	DL_test	11	ga	ka	1	right	ka	1	966
5e282e43266894a3e79a6eaa	DL_test	12	ga	pa	1	right	pa	1	1003
5e282e43266894a3e79a6eaa	DL_test	13	da	ba	1	left	da	1	1013
5e282e43266894a3e79a6eaa	DL_test	14	ta	ba	1	left	ta	1	1256
5e282e43266894a3e79a6eaa	DL_test	15	ka	ga	1	left	ka	1	907
5e282e43266894a3e79a6eaa	DL_test	16	ta	ga	1	other	ka	0	2671
5e282e43266894a3e79a6eaa	DL_test	17	ga	ga	0	left	ga	1	890
5e282e43266894a3e79a6eaa	DL_test	18	ka	da	1	left	ka	1	884
5e282e43266894a3e79a6eaa	DL_test	19	ta	da	1	left	ta	1	2540
5e282e43266894a3e79a6eaa	DL_test	20	pa	ga	1	left	pa	1	1515
5e282e43266894a3e79a6eaa	DL_test	21	pa	ta	1	left	pa	1	995
5e282e43266894a3e79a6eaa	DL_test	22	ba	ta	1	left	ba	1	2084
5e282e43266894a3e79a6eaa	DL_test	23	ba	da	1	left	ba	1	1726
5e282e43266894a3e79a6eaa	DL_test	24	da	pa	1	right	pa	1	1674
5e282e43266894a3e79a6eaa	DL_test	25	ka	ba	1	left	ka	1	1011
5e282e43266894a3e79a6eaa	DL_test	26	ba	ba	0	left	ba	1	1319
5e282e43266894a3e79a6eaa	DL_test	27	ta	ka	1	right	ka	1	1534
5e282e43266894a3e79a6eaa	DL_test	28	ga	da	1	left	ga	1	1395
5e282e43266894a3e79a6eaa	DL_test	29	ta	pa	1	left	ta	1	1068
5e282e43266894a3e79a6eaa	DL_test	30	pa	ba	1	left	pa	1	823
5e282e43266894a3e79a6eaa	DL_test	31	ga	ta	1	other	ka	0	1131
5e282e43266894a3e79a6eaa	DL_test	32	pa	ka	1	right	ka	1	1934
5e282e43266894a3e79a6eaa	DL_test	33	ba	ka	1	left	ba	1	1396
5e282e43266894a3e79a6eaa	DL_test	34	ta	ta	0	other	ka	0	1362
5e282e43266894a3e79a6eaa	DL_test	35	ka	ta	1	left	ka	1	877
5e282e43266894a3e79a6eaa	DL_test	36	ba	pa	1	right	pa	1	1187
5e282e43266894a3e79a6eaa	DL_test	1	ka	da	1	left	ka	1	895
5e282e43266894a3e79a6eaa	DL_test	2	pa	ga	1	left	pa	1	1358
5e282e43266894a3e79a6eaa	DL_test	3	ta	ta	0	left	ta	1	1368
5e282e43266894a3e79a6eaa	DL_test	4	da	pa	1	right	pa	1	2476
5e282e43266894a3e79a6eaa	DL_test	5	ta	ba	1	right	ba	1	2330
5e282e43266894a3e79a6eaa	DL_test	6	pa	ba	1	left	pa	1	1030
5e282e43266894a3e79a6eaa	DL_test	7	pa	ta	1	left	pa	1	989
5e282e43266894a3e79a6eaa	DL_test	8	ta	ga	1	right	ga	1	1509
5e282e43266894a3e79a6eaa	DL_test	9	pa	pa	0	left	pa	1	851
5e282e43266894a3e79a6eaa	DL_test	10	da	ba	1	left	da	1	1337
5e282e43266894a3e79a6eaa	DL_test	11	ba	ka	1	right	ka	1	984
5e282e43266894a3e79a6eaa	DL_test	12	ga	ta	1	other	ka	0	859
5e282e43266894a3e79a6eaa	DL_test	13	ga	ba	1	left	ga	1	885
5e282e43266894a3e79a6eaa	DL_test	14	da	ka	1	other	pa	0	1365
5e282e43266894a3e79a6eaa	DL_test	15	ga	da	1	left	ga	1	1037
5e282e43266894a3e79a6eaa	DL_test	16	da	da	0	left	da	1	1387
5e282e43266894a3e79a6eaa	DL_test	17	ba	ga	1	left	ba	1	1256
5e282e43266894a3e79a6eaa	DL_test	18	ba	ta	1	other	ka	0	956
5e282e43266894a3e79a6eaa	DL_test	19	ga	ka	1	right	ka	1	950
5e282e43266894a3e79a6eaa	DL_test	20	ga	ga	0	left	ga	1	760
5e282e43266894a3e79a6eaa	DL_test	21	da	ga	1	left	da	1	1308
5e282e43266894a3e79a6eaa	DL_test	22	da	ta	1	right	ta	1	1206
5e282e43266894a3e79a6eaa	DL_test	23	ka	ba	1	left	ka	1	1403
5e282e43266894a3e79a6eaa	DL_test	24	ba	ba	0	left	ba	1	1640
5e282e43266894a3e79a6eaa	DL_test	25	ta	pa	1	other	ka	0	985
5e282e43266894a3e79a6eaa	DL_test	26	ka	pa	1	left	ka	1	712
5e282e43266894a3e79a6eaa	DL_test	27	ka	ka	0	left	ka	1	646
5e282e43266894a3e79a6eaa	DL_test	28	ga	pa	1	left	ga	1	784
5e282e43266894a3e79a6eaa	DL_test	29	ka	ga	1	right	ga	1	1583
5e282e43266894a3e79a6eaa	DL_test	30	ka	ta	1	left	ka	1	833
5e282e43266894a3e79a6eaa	DL_test	31	ba	da	1	right	da	1	1636
5e282e43266894a3e79a6eaa	DL_test	32	pa	da	1	left	pa	1	1002
5e282e43266894a3e79a6eaa	DL_test	33	ta	da	1	left	ta	1	1424
5e282e43266894a3e79a6eaa	DL_test	34	ta	ka	1	right	ka	1	1390
5e282e43266894a3e79a6eaa	DL_test	35	pa	ka	1	left	pa	1	1610
5e282e43266894a3e79a6eaa	DL_test	36	ba	pa	1	right	pa	1	1196
