subject	block	trialnum	DL_leftSound	DL_rightSound	DL_dualSound	DL_choice	response	correct	rt
5ea92954ef7ece00096faf5a	headphonecheck_testphase	3	NA	NA	0	NA	second	1	41891
5ea92954ef7ece00096faf5a	headphonecheck_testphase	6	NA	NA	0	NA	third	0	1388
5ea92954ef7ece00096faf5a	headphonecheck_testphase	9	NA	NA	0	NA	third	1	690
5ea92954ef7ece00096faf5a	headphonecheck_testphase	12	NA	NA	0	NA	second	0	444
5ea92954ef7ece00096faf5a	headphonecheck_testphase	15	NA	NA	0	NA	third	0	1022
5ea92954ef7ece00096faf5a	headphonecheck_testphase	18	NA	NA	0	NA	third	0	702
5ea92954ef7ece00096faf5a	stereocheck_testphase	3	NA	NA	0	NA	stereocheck_left	1	279
5ea92954ef7ece00096faf5a	stereocheck_testphase	6	NA	NA	0	NA	stereocheck_left	1	290
5ea92954ef7ece00096faf5a	stereocheck_testphase	9	NA	NA	0	NA	stereocheck_left	1	293
5ea92954ef7ece00096faf5a	stereocheck_testphase	12	NA	NA	0	NA	stereocheck_right	1	269
5ea92954ef7ece00096faf5a	stereocheck_testphase	15	NA	NA	0	NA	stereocheck_right	1	285
5ea92954ef7ece00096faf5a	stereocheck_testphase	18	NA	NA	0	NA	stereocheck_right	1	341
5ea92954ef7ece00096faf5a	DL_practice	2	pa	pa	0	left	pa	1	1151
5ea92954ef7ece00096faf5a	DL_practice	3	ka	pa	1	left	ka	1	1109
5ea92954ef7ece00096faf5a	DL_practice	4	ga	ta	1	left	ga	1	791
5ea92954ef7ece00096faf5a	DL_practice	5	ba	ba	0	left	ba	1	1539
5ea92954ef7ece00096faf5a	DL_practice	6	da	ba	1	right	ba	1	1136
5ea92954ef7ece00096faf5a	DL_practice	7	ga	ga	0	left	ga	1	780
5ea92954ef7ece00096faf5a	DL_practice	8	ka	ka	0	left	ka	1	732
5ea92954ef7ece00096faf5a	DL_practice	9	da	da	0	left	da	1	818
5ea92954ef7ece00096faf5a	DL_practice	10	ta	ta	0	left	ta	1	980
5ea92954ef7ece00096faf5a	DL_test	1	ba	ta	1	other	ga	0	1788
5ea92954ef7ece00096faf5a	DL_test	2	ga	ka	1	left	ga	1	840
5ea92954ef7ece00096faf5a	DL_test	3	da	da	0	left	da	1	932
5ea92954ef7ece00096faf5a	DL_test	4	ta	ta	0	left	ta	1	813
5ea92954ef7ece00096faf5a	DL_test	5	pa	ga	1	other	ka	0	1554
5ea92954ef7ece00096faf5a	DL_test	6	pa	da	1	other	ka	0	1170
5ea92954ef7ece00096faf5a	DL_test	7	ta	pa	1	left	ta	1	1664
5ea92954ef7ece00096faf5a	DL_test	8	ga	da	1	right	da	1	1189
5ea92954ef7ece00096faf5a	DL_test	9	ka	ba	1	left	ka	1	1288
5ea92954ef7ece00096faf5a	DL_test	10	da	pa	1	left	da	1	947
5ea92954ef7ece00096faf5a	DL_test	11	ga	ta	1	left	ga	1	609
5ea92954ef7ece00096faf5a	DL_test	12	ka	ta	1	left	ka	1	713
5ea92954ef7ece00096faf5a	DL_test	13	ba	ka	1	left	ba	1	1963
5ea92954ef7ece00096faf5a	DL_test	14	ta	ka	1	right	ka	1	695
5ea92954ef7ece00096faf5a	DL_test	15	da	ka	1	left	da	1	741
5ea92954ef7ece00096faf5a	DL_test	16	pa	pa	0	left	pa	1	878
5ea92954ef7ece00096faf5a	DL_test	17	ba	da	1	left	ba	1	1075
5ea92954ef7ece00096faf5a	DL_test	18	da	ba	1	right	ba	1	854
5ea92954ef7ece00096faf5a	DL_test	19	da	ga	1	right	ga	1	696
5ea92954ef7ece00096faf5a	DL_test	20	ga	pa	1	left	ga	1	642
5ea92954ef7ece00096faf5a	DL_test	21	ka	ga	1	left	ka	1	875
5ea92954ef7ece00096faf5a	DL_test	22	ga	ga	0	left	ga	1	645
5ea92954ef7ece00096faf5a	DL_test	23	ba	ba	0	left	ba	1	871
5ea92954ef7ece00096faf5a	DL_test	24	ba	ga	1	left	ba	1	875
5ea92954ef7ece00096faf5a	DL_test	25	ta	da	1	left	ta	1	1332
5ea92954ef7ece00096faf5a	DL_test	26	pa	ka	1	right	ka	1	704
5ea92954ef7ece00096faf5a	DL_test	27	ka	da	1	left	ka	1	870
5ea92954ef7ece00096faf5a	DL_test	28	pa	ta	1	right	ta	1	1032
5ea92954ef7ece00096faf5a	DL_test	29	da	ta	1	left	da	1	826
5ea92954ef7ece00096faf5a	DL_test	30	ka	ka	0	left	ka	1	745
5ea92954ef7ece00096faf5a	DL_test	31	ga	ba	1	right	ba	1	1075
5ea92954ef7ece00096faf5a	DL_test	32	ta	ba	1	left	ta	1	1356
5ea92954ef7ece00096faf5a	DL_test	33	ka	pa	1	left	ka	1	1096
5ea92954ef7ece00096faf5a	DL_test	34	ba	pa	1	left	ba	1	781
5ea92954ef7ece00096faf5a	DL_test	35	pa	ba	1	left	pa	1	1612
5ea92954ef7ece00096faf5a	DL_test	36	ta	ga	1	other	ka	0	1093
5ea92954ef7ece00096faf5a	DL_test	1	ba	ga	1	left	ba	1	1364
5ea92954ef7ece00096faf5a	DL_test	2	pa	ka	1	right	ka	1	1170
5ea92954ef7ece00096faf5a	DL_test	3	da	ga	1	right	ga	1	825
5ea92954ef7ece00096faf5a	DL_test	4	ta	ga	1	other	ka	0	921
5ea92954ef7ece00096faf5a	DL_test	5	ba	da	1	left	ba	1	751
5ea92954ef7ece00096faf5a	DL_test	6	da	da	0	left	da	1	769
5ea92954ef7ece00096faf5a	DL_test	7	ga	pa	1	left	ga	1	757
5ea92954ef7ece00096faf5a	DL_test	8	ta	da	1	left	ta	1	1184
5ea92954ef7ece00096faf5a	DL_test	9	pa	ta	1	right	ta	1	701
5ea92954ef7ece00096faf5a	DL_test	10	ka	da	1	left	ka	1	1428
5ea92954ef7ece00096faf5a	DL_test	11	da	pa	1	other	ga	0	902
5ea92954ef7ece00096faf5a	DL_test	12	da	ta	1	left	da	1	1205
5ea92954ef7ece00096faf5a	DL_test	13	ba	ta	1	left	ba	1	1042
5ea92954ef7ece00096faf5a	DL_test	14	da	ba	1	right	ba	1	710
5ea92954ef7ece00096faf5a	DL_test	15	ga	ta	1	left	ga	1	750
5ea92954ef7ece00096faf5a	DL_test	16	ga	ka	1	left	ga	1	627
5ea92954ef7ece00096faf5a	DL_test	17	pa	ba	1	left	pa	1	618
5ea92954ef7ece00096faf5a	DL_test	18	ka	ga	1	left	ka	1	1253
5ea92954ef7ece00096faf5a	DL_test	19	ba	pa	1	left	ba	1	949
5ea92954ef7ece00096faf5a	DL_test	20	ka	ka	0	left	ka	1	825
5ea92954ef7ece00096faf5a	DL_test	21	da	ka	1	left	da	1	797
5ea92954ef7ece00096faf5a	DL_test	22	ga	ga	0	left	ga	1	799
5ea92954ef7ece00096faf5a	DL_test	23	ba	ka	1	left	ba	1	960
5ea92954ef7ece00096faf5a	DL_test	24	ka	ta	1	left	ka	1	1021
5ea92954ef7ece00096faf5a	DL_test	25	ka	pa	1	left	ka	1	803
5ea92954ef7ece00096faf5a	DL_test	26	ta	pa	1	left	ta	1	931
5ea92954ef7ece00096faf5a	DL_test	27	pa	da	1	other	ta	0	1116
5ea92954ef7ece00096faf5a	DL_test	28	pa	pa	0	left	pa	1	530
5ea92954ef7ece00096faf5a	DL_test	29	ta	ba	1	other	ka	0	1252
5ea92954ef7ece00096faf5a	DL_test	30	ga	ba	1	right	ba	1	1063
5ea92954ef7ece00096faf5a	DL_test	31	ga	da	1	left	ga	1	803
5ea92954ef7ece00096faf5a	DL_test	32	ba	ba	0	left	ba	1	1049
5ea92954ef7ece00096faf5a	DL_test	33	ta	ta	0	left	ta	1	880
5ea92954ef7ece00096faf5a	DL_test	34	pa	ga	1	other	ka	0	1055
5ea92954ef7ece00096faf5a	DL_test	35	ta	ka	1	right	ka	1	633
5ea92954ef7ece00096faf5a	DL_test	36	ka	ba	1	left	ka	1	1319
5ea92954ef7ece00096faf5a	DL_test	1	ka	ta	1	left	ka	1	1095
5ea92954ef7ece00096faf5a	DL_test	2	ga	ta	1	left	ga	1	696
5ea92954ef7ece00096faf5a	DL_test	3	ga	ka	1	left	ga	1	698
5ea92954ef7ece00096faf5a	DL_test	4	pa	ka	1	right	ka	1	826
5ea92954ef7ece00096faf5a	DL_test	5	da	ka	1	other	ga	0	887
5ea92954ef7ece00096faf5a	DL_test	6	pa	ga	1	other	ka	0	788
5ea92954ef7ece00096faf5a	DL_test	7	da	ta	1	left	da	1	657
5ea92954ef7ece00096faf5a	DL_test	8	ba	ta	1	left	ba	1	1246
5ea92954ef7ece00096faf5a	DL_test	9	ba	pa	1	left	ba	1	1566
5ea92954ef7ece00096faf5a	DL_test	10	ta	ga	1	other	ka	0	981
5ea92954ef7ece00096faf5a	DL_test	11	ta	da	1	left	ta	1	1428
5ea92954ef7ece00096faf5a	DL_test	12	ga	da	1	left	ga	1	966
5ea92954ef7ece00096faf5a	DL_test	13	ga	ga	0	left	ga	1	696
5ea92954ef7ece00096faf5a	DL_test	14	ba	ka	1	other	da	0	963
5ea92954ef7ece00096faf5a	DL_test	15	ta	ta	0	left	ta	1	1282
5ea92954ef7ece00096faf5a	DL_test	16	pa	da	1	other	ta	0	902
5ea92954ef7ece00096faf5a	DL_test	17	ka	ka	0	left	ka	1	626
5ea92954ef7ece00096faf5a	DL_test	18	ka	ga	1	left	ka	1	889
5ea92954ef7ece00096faf5a	DL_test	19	ka	da	1	other	ta	0	1337
5ea92954ef7ece00096faf5a	DL_test	20	ga	pa	1	left	ga	1	1015
5ea92954ef7ece00096faf5a	DL_test	21	da	pa	1	other	ga	0	823
5ea92954ef7ece00096faf5a	DL_test	22	ka	pa	1	left	ka	1	804
5ea92954ef7ece00096faf5a	DL_test	23	ba	ba	0	left	ba	1	976
5ea92954ef7ece00096faf5a	DL_test	24	pa	ta	1	right	ta	1	1287
5ea92954ef7ece00096faf5a	DL_test	25	da	ba	1	right	ba	1	1255
5ea92954ef7ece00096faf5a	DL_test	26	ta	ba	1	other	pa	0	1590
5ea92954ef7ece00096faf5a	DL_test	27	pa	ba	1	left	pa	1	789
5ea92954ef7ece00096faf5a	DL_test	28	ta	ka	1	right	ka	1	753
5ea92954ef7ece00096faf5a	DL_test	29	pa	pa	0	left	pa	1	788
5ea92954ef7ece00096faf5a	DL_test	30	ba	ga	1	left	ba	1	1037
5ea92954ef7ece00096faf5a	DL_test	31	da	ga	1	right	ga	1	711
5ea92954ef7ece00096faf5a	DL_test	32	ta	pa	1	left	ta	1	1060
5ea92954ef7ece00096faf5a	DL_test	33	ka	ba	1	left	ka	1	1052
5ea92954ef7ece00096faf5a	DL_test	34	ga	ba	1	right	ba	1	1139
5ea92954ef7ece00096faf5a	DL_test	35	da	da	0	left	da	1	1004
5ea92954ef7ece00096faf5a	DL_test	36	ba	da	1	left	ba	1	778
5ea92954ef7ece00096faf5a	DL_test	1	ga	ba	1	right	ba	1	827
5ea92954ef7ece00096faf5a	DL_test	2	pa	ba	1	left	pa	1	1083
5ea92954ef7ece00096faf5a	DL_test	3	ta	pa	1	left	ta	1	846
5ea92954ef7ece00096faf5a	DL_test	4	ga	ga	0	left	ga	1	717
5ea92954ef7ece00096faf5a	DL_test	5	pa	ga	1	other	ka	0	799
5ea92954ef7ece00096faf5a	DL_test	6	ba	pa	1	left	ba	1	740
5ea92954ef7ece00096faf5a	DL_test	7	pa	da	1	other	ta	0	997
5ea92954ef7ece00096faf5a	DL_test	8	ka	da	1	left	ka	1	597
5ea92954ef7ece00096faf5a	DL_test	9	da	ga	1	right	ga	1	646
5ea92954ef7ece00096faf5a	DL_test	10	ba	ba	0	left	ba	1	730
5ea92954ef7ece00096faf5a	DL_test	11	pa	ta	1	right	ta	1	808
5ea92954ef7ece00096faf5a	DL_test	12	ga	pa	1	left	ga	1	578
5ea92954ef7ece00096faf5a	DL_test	13	ba	ka	1	other	da	0	751
5ea92954ef7ece00096faf5a	DL_test	14	da	pa	1	left	da	1	1080
5ea92954ef7ece00096faf5a	DL_test	15	ga	da	1	left	ga	1	835
5ea92954ef7ece00096faf5a	DL_test	16	da	ba	1	right	ba	1	999
5ea92954ef7ece00096faf5a	DL_test	17	ta	ka	1	right	ka	1	723
5ea92954ef7ece00096faf5a	DL_test	18	ka	ta	1	left	ka	1	763
5ea92954ef7ece00096faf5a	DL_test	19	ka	pa	1	left	ka	1	789
5ea92954ef7ece00096faf5a	DL_test	20	ga	ta	1	left	ga	1	693
5ea92954ef7ece00096faf5a	DL_test	21	ga	ka	1	left	ga	1	1044
5ea92954ef7ece00096faf5a	DL_test	22	ba	da	1	left	ba	1	1027
5ea92954ef7ece00096faf5a	DL_test	23	ka	ka	0	left	ka	1	1076
5ea92954ef7ece00096faf5a	DL_test	24	ba	ga	1	left	ba	1	794
5ea92954ef7ece00096faf5a	DL_test	25	da	da	0	left	da	1	778
5ea92954ef7ece00096faf5a	DL_test	26	ka	ba	1	left	ka	1	1211
5ea92954ef7ece00096faf5a	DL_test	27	ta	ba	1	other	ka	0	1456
5ea92954ef7ece00096faf5a	DL_test	28	ta	ga	1	right	ga	1	1024
5ea92954ef7ece00096faf5a	DL_test	29	pa	ka	1	right	ka	1	955
5ea92954ef7ece00096faf5a	DL_test	30	ka	ga	1	left	ka	1	860
5ea92954ef7ece00096faf5a	DL_test	31	ba	ta	1	left	ba	1	1073
5ea92954ef7ece00096faf5a	DL_test	32	ta	ta	0	left	ta	1	1048
5ea92954ef7ece00096faf5a	DL_test	33	da	ta	1	left	da	1	1269
5ea92954ef7ece00096faf5a	DL_test	34	ta	da	1	other	ka	0	1076
5ea92954ef7ece00096faf5a	DL_test	35	da	ka	1	left	da	1	1011
5ea92954ef7ece00096faf5a	DL_test	36	pa	pa	0	left	pa	1	1370
