subject	block	trialnum	DL_leftSound	DL_rightSound	DL_dualSound	DL_choice	response	correct	rt
61005ada2ffbf75efed5deb5	headphonecheck_testphase	3	NA	NA	0	NA	first	0	1941
61005ada2ffbf75efed5deb5	headphonecheck_testphase	6	NA	NA	0	NA	first	0	1092
61005ada2ffbf75efed5deb5	headphonecheck_testphase	9	NA	NA	0	NA	third	0	249
61005ada2ffbf75efed5deb5	headphonecheck_testphase	12	NA	NA	0	NA	third	0	437
61005ada2ffbf75efed5deb5	headphonecheck_testphase	15	NA	NA	0	NA	second	0	470
61005ada2ffbf75efed5deb5	headphonecheck_testphase	18	NA	NA	0	NA	second	0	311
61005ada2ffbf75efed5deb5	stereocheck_testphase	3	NA	NA	0	NA	stereocheck_right	1	888
61005ada2ffbf75efed5deb5	stereocheck_testphase	6	NA	NA	0	NA	stereocheck_left	1	289
61005ada2ffbf75efed5deb5	stereocheck_testphase	9	NA	NA	0	NA	stereocheck_right	1	310
61005ada2ffbf75efed5deb5	stereocheck_testphase	12	NA	NA	0	NA	stereocheck_left	1	294
61005ada2ffbf75efed5deb5	stereocheck_testphase	15	NA	NA	0	NA	stereocheck_right	1	294
61005ada2ffbf75efed5deb5	stereocheck_testphase	18	NA	NA	0	NA	stereocheck_left	1	275
61005ada2ffbf75efed5deb5	DL_practice	2	ka	ka	0	left	ka	1	1108
61005ada2ffbf75efed5deb5	DL_practice	3	ta	ta	0	left	ta	1	8161
61005ada2ffbf75efed5deb5	DL_practice	4	ga	ta	1	right	ta	1	31438
61005ada2ffbf75efed5deb5	DL_practice	5	ga	ga	0	left	ga	1	1083
61005ada2ffbf75efed5deb5	DL_practice	6	ba	ba	0	left	ba	1	2370
61005ada2ffbf75efed5deb5	DL_practice	7	ka	pa	1	left	ka	1	1069
61005ada2ffbf75efed5deb5	DL_practice	8	da	da	0	left	da	1	993
61005ada2ffbf75efed5deb5	DL_practice	9	da	ba	1	other	ga	0	1797
61005ada2ffbf75efed5deb5	DL_practice	10	pa	pa	0	left	pa	1	960
61005ada2ffbf75efed5deb5	DL_test	1	ka	da	1	other	ga	0	823
61005ada2ffbf75efed5deb5	DL_test	2	da	da	0	left	da	1	970
61005ada2ffbf75efed5deb5	DL_test	3	ta	ka	1	right	ka	1	1177
61005ada2ffbf75efed5deb5	DL_test	4	ga	ta	1	left	ga	1	998
61005ada2ffbf75efed5deb5	DL_test	5	ba	da	1	left	ba	1	1621
61005ada2ffbf75efed5deb5	DL_test	6	pa	da	1	right	da	1	757
61005ada2ffbf75efed5deb5	DL_test	7	ga	ba	1	right	ba	1	1389
61005ada2ffbf75efed5deb5	DL_test	8	pa	ka	1	right	ka	1	876
61005ada2ffbf75efed5deb5	DL_test	9	ka	ga	1	right	ga	1	755
61005ada2ffbf75efed5deb5	DL_test	10	ga	pa	1	left	ga	1	717
61005ada2ffbf75efed5deb5	DL_test	11	da	ka	1	left	da	1	994
61005ada2ffbf75efed5deb5	DL_test	12	ba	ta	1	right	ta	1	1098
61005ada2ffbf75efed5deb5	DL_test	13	da	pa	1	left	da	1	1269
61005ada2ffbf75efed5deb5	DL_test	14	ka	ba	1	right	ba	1	757
61005ada2ffbf75efed5deb5	DL_test	15	da	ta	1	left	da	1	781
61005ada2ffbf75efed5deb5	DL_test	16	da	ga	1	right	ga	1	720
61005ada2ffbf75efed5deb5	DL_test	17	ta	ta	0	left	ta	1	1139
61005ada2ffbf75efed5deb5	DL_test	18	pa	pa	0	left	pa	1	1007
61005ada2ffbf75efed5deb5	DL_test	19	ga	ka	1	left	ga	1	840
61005ada2ffbf75efed5deb5	DL_test	20	ta	pa	1	left	ta	1	1579
61005ada2ffbf75efed5deb5	DL_test	21	ba	pa	1	left	ba	1	1053
61005ada2ffbf75efed5deb5	DL_test	22	ga	ga	0	left	ga	1	851
61005ada2ffbf75efed5deb5	DL_test	23	pa	ba	1	right	ba	1	1516
61005ada2ffbf75efed5deb5	DL_test	24	ka	pa	1	left	ka	1	989
61005ada2ffbf75efed5deb5	DL_test	25	ka	ka	0	left	ka	1	136
61005ada2ffbf75efed5deb5	DL_test	26	da	ba	1	right	ba	1	1184
61005ada2ffbf75efed5deb5	DL_test	27	pa	ga	1	right	ga	1	1690
61005ada2ffbf75efed5deb5	DL_test	28	ga	da	1	right	da	1	2052
61005ada2ffbf75efed5deb5	DL_test	29	ba	ga	1	left	ba	1	1016
61005ada2ffbf75efed5deb5	DL_test	30	ba	ba	0	left	ba	1	908
61005ada2ffbf75efed5deb5	DL_test	31	ta	ba	1	other	da	0	1035
61005ada2ffbf75efed5deb5	DL_test	32	pa	ta	1	right	ta	1	1563
61005ada2ffbf75efed5deb5	DL_test	33	ba	ka	1	right	ka	1	989
61005ada2ffbf75efed5deb5	DL_test	34	ka	ta	1	left	ka	1	560
61005ada2ffbf75efed5deb5	DL_test	35	ta	ga	1	right	ga	1	839
61005ada2ffbf75efed5deb5	DL_test	36	ta	da	1	right	da	1	808
61005ada2ffbf75efed5deb5	DL_test	1	pa	da	1	right	da	1	870
61005ada2ffbf75efed5deb5	DL_test	2	ka	da	1	other	ga	0	1375
61005ada2ffbf75efed5deb5	DL_test	3	pa	ba	1	left	pa	1	861
61005ada2ffbf75efed5deb5	DL_test	4	ta	ba	1	other	pa	0	1016
61005ada2ffbf75efed5deb5	DL_test	5	da	pa	1	other	ga	0	963
61005ada2ffbf75efed5deb5	DL_test	6	ta	ga	1	right	ga	1	715
61005ada2ffbf75efed5deb5	DL_test	7	da	ka	1	left	da	1	708
61005ada2ffbf75efed5deb5	DL_test	8	pa	ka	1	right	ka	1	1041
61005ada2ffbf75efed5deb5	DL_test	9	ga	pa	1	left	ga	1	980
61005ada2ffbf75efed5deb5	DL_test	10	ta	ta	0	left	ta	1	1154
61005ada2ffbf75efed5deb5	DL_test	11	ba	ta	1	other	da	0	2366
61005ada2ffbf75efed5deb5	DL_test	12	ba	ka	1	right	ka	1	1287
61005ada2ffbf75efed5deb5	DL_test	13	ga	ka	1	left	ga	1	1063
61005ada2ffbf75efed5deb5	DL_test	14	da	ga	1	left	da	1	955
61005ada2ffbf75efed5deb5	DL_test	15	ta	pa	1	left	ta	1	1133
61005ada2ffbf75efed5deb5	DL_test	16	da	da	0	left	da	1	1058
61005ada2ffbf75efed5deb5	DL_test	17	pa	ga	1	right	ga	1	858
61005ada2ffbf75efed5deb5	DL_test	18	ba	ba	0	left	ba	1	1359
61005ada2ffbf75efed5deb5	DL_test	19	ba	pa	1	left	ba	1	1080
61005ada2ffbf75efed5deb5	DL_test	20	pa	ta	1	right	ta	1	1469
61005ada2ffbf75efed5deb5	DL_test	21	ga	ta	1	left	ga	1	781
61005ada2ffbf75efed5deb5	DL_test	22	ka	ga	1	right	ga	1	840
61005ada2ffbf75efed5deb5	DL_test	23	ga	ba	1	right	ba	1	978
61005ada2ffbf75efed5deb5	DL_test	24	ga	ga	0	left	ga	1	814
61005ada2ffbf75efed5deb5	DL_test	25	pa	pa	0	left	pa	1	781
61005ada2ffbf75efed5deb5	DL_test	26	ba	da	1	right	da	1	1734
61005ada2ffbf75efed5deb5	DL_test	27	ka	ba	1	left	ka	1	2688
61005ada2ffbf75efed5deb5	DL_test	28	ka	ta	1	left	ka	1	967
61005ada2ffbf75efed5deb5	DL_test	29	ka	pa	1	left	ka	1	922
61005ada2ffbf75efed5deb5	DL_test	30	ga	da	1	right	da	1	975
61005ada2ffbf75efed5deb5	DL_test	31	ka	ka	0	left	ka	1	1210
61005ada2ffbf75efed5deb5	DL_test	32	da	ta	1	left	da	1	1440
61005ada2ffbf75efed5deb5	DL_test	33	ba	ga	1	left	ba	1	1040
61005ada2ffbf75efed5deb5	DL_test	34	ta	da	1	right	da	1	997
61005ada2ffbf75efed5deb5	DL_test	35	da	ba	1	right	ba	1	907
61005ada2ffbf75efed5deb5	DL_test	36	ta	ka	1	right	ka	1	1183
61005ada2ffbf75efed5deb5	DL_test	1	ka	ta	1	left	ka	1	1455
61005ada2ffbf75efed5deb5	DL_test	2	ka	da	1	other	ga	0	714
61005ada2ffbf75efed5deb5	DL_test	3	ta	da	1	right	da	1	583
61005ada2ffbf75efed5deb5	DL_test	4	ba	ba	0	left	ba	1	700
61005ada2ffbf75efed5deb5	DL_test	5	ka	ka	0	left	ka	1	752
61005ada2ffbf75efed5deb5	DL_test	6	ga	ka	1	left	ga	1	746
61005ada2ffbf75efed5deb5	DL_test	7	da	ba	1	right	ba	1	843
61005ada2ffbf75efed5deb5	DL_test	8	pa	ta	1	right	ta	1	1344
61005ada2ffbf75efed5deb5	DL_test	9	ta	pa	1	left	ta	1	830
61005ada2ffbf75efed5deb5	DL_test	10	ba	da	1	left	ba	1	1413
61005ada2ffbf75efed5deb5	DL_test	11	ga	pa	1	left	ga	1	741
61005ada2ffbf75efed5deb5	DL_test	12	ga	ta	1	left	ga	1	764
61005ada2ffbf75efed5deb5	DL_test	13	pa	ka	1	right	ka	1	1313
61005ada2ffbf75efed5deb5	DL_test	14	ga	da	1	left	ga	1	793
61005ada2ffbf75efed5deb5	DL_test	15	pa	da	1	right	da	1	1150
61005ada2ffbf75efed5deb5	DL_test	16	ta	ba	1	right	ba	1	1315
61005ada2ffbf75efed5deb5	DL_test	17	ta	ga	1	right	ga	1	1133
61005ada2ffbf75efed5deb5	DL_test	18	pa	ba	1	right	ba	1	1640
61005ada2ffbf75efed5deb5	DL_test	19	ka	pa	1	left	ka	1	846
61005ada2ffbf75efed5deb5	DL_test	20	pa	pa	0	left	pa	1	821
61005ada2ffbf75efed5deb5	DL_test	21	da	ta	1	left	da	1	990
61005ada2ffbf75efed5deb5	DL_test	22	ta	ta	0	left	ta	1	1319
61005ada2ffbf75efed5deb5	DL_test	23	ga	ga	0	left	ga	1	721
61005ada2ffbf75efed5deb5	DL_test	24	ba	ga	1	left	ba	1	1365
61005ada2ffbf75efed5deb5	DL_test	25	ka	ga	1	right	ga	1	939
61005ada2ffbf75efed5deb5	DL_test	26	ta	ka	1	right	ka	1	685
61005ada2ffbf75efed5deb5	DL_test	27	da	pa	1	left	da	1	1167
61005ada2ffbf75efed5deb5	DL_test	28	ba	ta	1	right	ta	1	1172
61005ada2ffbf75efed5deb5	DL_test	29	da	ga	1	left	da	1	920
61005ada2ffbf75efed5deb5	DL_test	30	ga	ba	1	right	ba	1	1266
61005ada2ffbf75efed5deb5	DL_test	31	ka	ba	1	left	ka	1	1365
61005ada2ffbf75efed5deb5	DL_test	32	pa	ga	1	right	ga	1	752
61005ada2ffbf75efed5deb5	DL_test	33	da	ka	1	left	da	1	726
61005ada2ffbf75efed5deb5	DL_test	34	ba	pa	1	right	pa	1	1649
61005ada2ffbf75efed5deb5	DL_test	35	ba	ka	1	right	ka	1	998
61005ada2ffbf75efed5deb5	DL_test	36	da	da	0	left	da	1	871
61005ada2ffbf75efed5deb5	DL_test	1	ba	ka	1	left	ba	1	2553
61005ada2ffbf75efed5deb5	DL_test	2	ta	ta	0	left	ta	1	1430
61005ada2ffbf75efed5deb5	DL_test	3	ta	ga	1	right	ga	1	914
61005ada2ffbf75efed5deb5	DL_test	4	ka	ta	1	left	ka	1	1136
61005ada2ffbf75efed5deb5	DL_test	5	da	ka	1	left	da	1	1139
61005ada2ffbf75efed5deb5	DL_test	6	da	ba	1	right	ba	1	1385
61005ada2ffbf75efed5deb5	DL_test	7	ka	ka	0	left	ka	1	1009
61005ada2ffbf75efed5deb5	DL_test	8	ga	ta	1	left	ga	1	931
61005ada2ffbf75efed5deb5	DL_test	9	ga	pa	1	left	ga	1	883
61005ada2ffbf75efed5deb5	DL_test	10	ta	ba	1	other	da	0	980
61005ada2ffbf75efed5deb5	DL_test	11	da	pa	1	left	da	1	939
61005ada2ffbf75efed5deb5	DL_test	12	ba	ta	1	right	ta	1	1265
61005ada2ffbf75efed5deb5	DL_test	13	ka	ga	1	right	ga	1	862
61005ada2ffbf75efed5deb5	DL_test	14	ta	ka	1	right	ka	1	975
61005ada2ffbf75efed5deb5	DL_test	15	ga	ga	0	left	ga	1	976
61005ada2ffbf75efed5deb5	DL_test	16	ka	da	1	right	da	1	1167
61005ada2ffbf75efed5deb5	DL_test	17	ba	ba	0	left	ba	1	1249
61005ada2ffbf75efed5deb5	DL_test	18	ga	da	1	right	da	1	1292
61005ada2ffbf75efed5deb5	DL_test	19	pa	pa	0	left	pa	1	992
61005ada2ffbf75efed5deb5	DL_test	20	ka	ba	1	left	ka	1	881
61005ada2ffbf75efed5deb5	DL_test	21	ta	pa	1	left	ta	1	1243
61005ada2ffbf75efed5deb5	DL_test	22	ba	da	1	right	da	1	1774
61005ada2ffbf75efed5deb5	DL_test	23	pa	da	1	right	da	1	773
61005ada2ffbf75efed5deb5	DL_test	24	pa	ka	1	right	ka	1	995
61005ada2ffbf75efed5deb5	DL_test	25	da	ta	1	left	da	1	1151
61005ada2ffbf75efed5deb5	DL_test	26	da	da	0	left	da	1	896
61005ada2ffbf75efed5deb5	DL_test	27	ba	ga	1	left	ba	1	1294
61005ada2ffbf75efed5deb5	DL_test	28	pa	ba	1	left	pa	1	1333
61005ada2ffbf75efed5deb5	DL_test	29	ga	ba	1	other	pa	0	1142
61005ada2ffbf75efed5deb5	DL_test	30	ta	da	1	right	da	1	974
61005ada2ffbf75efed5deb5	DL_test	31	ka	pa	1	left	ka	1	1062
61005ada2ffbf75efed5deb5	DL_test	32	da	ga	1	left	da	1	1008
61005ada2ffbf75efed5deb5	DL_test	33	ga	ka	1	left	ga	1	976
61005ada2ffbf75efed5deb5	DL_test	34	ba	pa	1	right	pa	1	1136
61005ada2ffbf75efed5deb5	DL_test	35	pa	ga	1	right	ga	1	1369
61005ada2ffbf75efed5deb5	DL_test	36	pa	ta	1	right	ta	1	1160
