subject	block	trialnum	DL_leftSound	DL_rightSound	DL_dualSound	DL_choice	response	correct	rt
6290d930eb8f73a88e290de6	headphonecheck_testphase	3	NA	NA	0	NA	second	1	760
6290d930eb8f73a88e290de6	headphonecheck_testphase	6	NA	NA	0	NA	first	1	254
6290d930eb8f73a88e290de6	headphonecheck_testphase	9	NA	NA	0	NA	first	1	297
6290d930eb8f73a88e290de6	headphonecheck_testphase	12	NA	NA	0	NA	third	1	206
6290d930eb8f73a88e290de6	headphonecheck_testphase	15	NA	NA	0	NA	third	1	245
6290d930eb8f73a88e290de6	headphonecheck_testphase	18	NA	NA	0	NA	second	1	217
6290d930eb8f73a88e290de6	stereocheck_testphase	3	NA	NA	0	NA	stereocheck_left	1	484
6290d930eb8f73a88e290de6	stereocheck_testphase	6	NA	NA	0	NA	stereocheck_right	1	150
6290d930eb8f73a88e290de6	stereocheck_testphase	9	NA	NA	0	NA	stereocheck_left	1	225
6290d930eb8f73a88e290de6	stereocheck_testphase	12	NA	NA	0	NA	stereocheck_right	1	164
6290d930eb8f73a88e290de6	stereocheck_testphase	15	NA	NA	0	NA	stereocheck_right	1	169
6290d930eb8f73a88e290de6	stereocheck_testphase	18	NA	NA	0	NA	stereocheck_left	1	220
6290d930eb8f73a88e290de6	DL_practice	2	pa	pa	0	left	pa	1	1665
6290d930eb8f73a88e290de6	DL_practice	3	ta	ta	0	left	ta	1	817
6290d930eb8f73a88e290de6	DL_practice	4	da	ba	1	other	ga	0	3998
6290d930eb8f73a88e290de6	DL_practice	5	ka	ka	0	left	ka	1	778
6290d930eb8f73a88e290de6	DL_practice	6	ga	ta	1	other	ka	0	2166
6290d930eb8f73a88e290de6	DL_practice	7	ka	pa	1	left	ka	1	1577
6290d930eb8f73a88e290de6	DL_practice	8	ga	ga	0	left	ga	1	1019
6290d930eb8f73a88e290de6	DL_practice	9	da	da	0	left	da	1	1116
6290d930eb8f73a88e290de6	DL_practice	10	ba	ba	0	left	ba	1	1946
6290d930eb8f73a88e290de6	DL_test	1	ga	ta	1	other	ka	0	1245
6290d930eb8f73a88e290de6	DL_test	2	pa	ka	1	right	ka	1	914
6290d930eb8f73a88e290de6	DL_test	3	ga	ga	0	left	ga	1	1349
6290d930eb8f73a88e290de6	DL_test	4	ba	da	1	right	da	1	1085
6290d930eb8f73a88e290de6	DL_test	5	pa	pa	0	left	pa	1	939
6290d930eb8f73a88e290de6	DL_test	6	ta	ta	0	left	ta	1	1282
6290d930eb8f73a88e290de6	DL_test	7	ta	ga	1	right	ga	1	2752
6290d930eb8f73a88e290de6	DL_test	8	da	da	0	left	da	1	1014
6290d930eb8f73a88e290de6	DL_test	9	ka	ta	1	left	ka	1	1171
6290d930eb8f73a88e290de6	DL_test	10	ba	ga	1	right	ga	1	1170
6290d930eb8f73a88e290de6	DL_test	11	ba	pa	1	right	pa	1	1021
6290d930eb8f73a88e290de6	DL_test	12	ta	ka	1	right	ka	1	763
6290d930eb8f73a88e290de6	DL_test	13	da	ba	1	left	da	1	1218
6290d930eb8f73a88e290de6	DL_test	14	ga	ka	1	right	ka	1	905
6290d930eb8f73a88e290de6	DL_test	15	pa	ba	1	left	pa	1	1654
6290d930eb8f73a88e290de6	DL_test	16	da	ta	1	right	ta	1	900
6290d930eb8f73a88e290de6	DL_test	17	da	ka	1	other	pa	0	1342
6290d930eb8f73a88e290de6	DL_test	18	ba	ka	1	right	ka	1	858
6290d930eb8f73a88e290de6	DL_test	19	ba	ba	0	left	ba	1	1413
6290d930eb8f73a88e290de6	DL_test	20	ba	ta	1	other	ka	0	1656
6290d930eb8f73a88e290de6	DL_test	21	pa	da	1	right	da	1	5102
6290d930eb8f73a88e290de6	DL_test	22	ta	da	1	right	da	1	3294
6290d930eb8f73a88e290de6	DL_test	23	ka	ga	1	right	ga	1	1387
6290d930eb8f73a88e290de6	DL_test	24	da	ga	1	right	ga	1	1220
6290d930eb8f73a88e290de6	DL_test	25	ta	ba	1	other	ka	0	1040
6290d930eb8f73a88e290de6	DL_test	26	ka	da	1	left	ka	1	1080
6290d930eb8f73a88e290de6	DL_test	27	ka	ba	1	left	ka	1	693
6290d930eb8f73a88e290de6	DL_test	28	da	pa	1	right	pa	1	1338
6290d930eb8f73a88e290de6	DL_test	29	ga	ba	1	right	ba	1	1354
6290d930eb8f73a88e290de6	DL_test	30	pa	ta	1	left	pa	1	1581
6290d930eb8f73a88e290de6	DL_test	31	ga	pa	1	right	pa	1	942
6290d930eb8f73a88e290de6	DL_test	32	ka	ka	0	left	ka	1	754
6290d930eb8f73a88e290de6	DL_test	33	ta	pa	1	right	pa	1	857
6290d930eb8f73a88e290de6	DL_test	34	ka	pa	1	left	ka	1	956
6290d930eb8f73a88e290de6	DL_test	35	ga	da	1	left	ga	1	631
6290d930eb8f73a88e290de6	DL_test	36	pa	ga	1	right	ga	1	1628
6290d930eb8f73a88e290de6	DL_test	1	ka	ka	0	left	ka	1	2321
6290d930eb8f73a88e290de6	DL_test	2	ta	ba	1	other	ka	0	1134
6290d930eb8f73a88e290de6	DL_test	3	ba	ga	1	right	ga	1	1566
6290d930eb8f73a88e290de6	DL_test	4	pa	pa	0	left	pa	1	1735
6290d930eb8f73a88e290de6	DL_test	5	ga	pa	1	right	pa	1	884
6290d930eb8f73a88e290de6	DL_test	6	ba	ka	1	right	ka	1	812
6290d930eb8f73a88e290de6	DL_test	7	ta	da	1	other	ga	0	1635
6290d930eb8f73a88e290de6	DL_test	8	ka	ba	1	left	ka	1	853
6290d930eb8f73a88e290de6	DL_test	9	da	ga	1	right	ga	1	1435
6290d930eb8f73a88e290de6	DL_test	10	ga	ga	0	left	ga	1	855
6290d930eb8f73a88e290de6	DL_test	11	ka	pa	1	right	pa	1	2019
6290d930eb8f73a88e290de6	DL_test	12	pa	ba	1	left	pa	1	751
6290d930eb8f73a88e290de6	DL_test	13	ta	ta	0	left	ta	1	1481
6290d930eb8f73a88e290de6	DL_test	14	ba	pa	1	right	pa	1	1538
6290d930eb8f73a88e290de6	DL_test	15	ka	ta	1	left	ka	1	1049
6290d930eb8f73a88e290de6	DL_test	16	pa	ta	1	left	pa	1	1634
6290d930eb8f73a88e290de6	DL_test	17	ga	ba	1	right	ba	1	1553
6290d930eb8f73a88e290de6	DL_test	18	ba	ba	0	left	ba	1	834
6290d930eb8f73a88e290de6	DL_test	19	da	ba	1	other	ga	0	1501
6290d930eb8f73a88e290de6	DL_test	20	pa	ka	1	right	ka	1	1099
6290d930eb8f73a88e290de6	DL_test	21	da	ta	1	right	ta	1	1347
6290d930eb8f73a88e290de6	DL_test	22	ka	ga	1	right	ga	1	1304
6290d930eb8f73a88e290de6	DL_test	23	da	pa	1	right	pa	1	1044
6290d930eb8f73a88e290de6	DL_test	24	ta	ka	1	right	ka	1	1455
6290d930eb8f73a88e290de6	DL_test	25	ba	ta	1	right	ta	1	1997
6290d930eb8f73a88e290de6	DL_test	26	da	ka	1	other	pa	0	922
6290d930eb8f73a88e290de6	DL_test	27	ga	ka	1	right	ka	1	1018
6290d930eb8f73a88e290de6	DL_test	28	ga	ta	1	other	ka	0	600
6290d930eb8f73a88e290de6	DL_test	29	ka	da	1	other	ga	0	1128
6290d930eb8f73a88e290de6	DL_test	30	ta	ga	1	right	ga	1	948
6290d930eb8f73a88e290de6	DL_test	31	ba	da	1	right	da	1	1777
6290d930eb8f73a88e290de6	DL_test	32	da	da	0	left	da	1	839
6290d930eb8f73a88e290de6	DL_test	33	ta	pa	1	right	pa	1	1053
6290d930eb8f73a88e290de6	DL_test	34	ga	da	1	left	ga	1	1210
6290d930eb8f73a88e290de6	DL_test	35	pa	ga	1	right	ga	1	1257
6290d930eb8f73a88e290de6	DL_test	36	pa	da	1	other	ga	0	823
6290d930eb8f73a88e290de6	DL_test	1	pa	ga	1	right	ga	1	1330
6290d930eb8f73a88e290de6	DL_test	2	ba	ba	0	left	ba	1	2320
6290d930eb8f73a88e290de6	DL_test	3	ba	ga	1	right	ga	1	2544
6290d930eb8f73a88e290de6	DL_test	4	pa	ba	1	left	pa	1	1303
6290d930eb8f73a88e290de6	DL_test	5	pa	ka	1	right	ka	1	1329
6290d930eb8f73a88e290de6	DL_test	6	da	ba	1	left	da	1	1636
6290d930eb8f73a88e290de6	DL_test	7	da	da	0	left	da	1	861
6290d930eb8f73a88e290de6	DL_test	8	da	pa	1	right	pa	1	1546
6290d930eb8f73a88e290de6	DL_test	9	pa	ta	1	right	ta	1	2699
6290d930eb8f73a88e290de6	DL_test	10	ka	da	1	other	ga	0	1750
6290d930eb8f73a88e290de6	DL_test	11	ba	ka	1	right	ka	1	734
6290d930eb8f73a88e290de6	DL_test	12	ta	ka	1	right	ka	1	597
6290d930eb8f73a88e290de6	DL_test	13	ga	pa	1	right	pa	1	2297
6290d930eb8f73a88e290de6	DL_test	14	ba	pa	1	right	pa	1	1208
6290d930eb8f73a88e290de6	DL_test	15	ga	ba	1	left	ga	1	1338
6290d930eb8f73a88e290de6	DL_test	16	ga	ka	1	right	ka	1	841
6290d930eb8f73a88e290de6	DL_test	17	ka	ga	1	right	ga	1	1098
6290d930eb8f73a88e290de6	DL_test	18	ta	ta	0	left	ta	1	1201
6290d930eb8f73a88e290de6	DL_test	19	ta	pa	1	right	pa	1	927
6290d930eb8f73a88e290de6	DL_test	20	da	ga	1	right	ga	1	874
6290d930eb8f73a88e290de6	DL_test	21	ka	ba	1	left	ka	1	954
6290d930eb8f73a88e290de6	DL_test	22	ta	da	1	right	da	1	1077
6290d930eb8f73a88e290de6	DL_test	23	ga	ta	1	other	ka	0	707
6290d930eb8f73a88e290de6	DL_test	24	da	ta	1	right	ta	1	1205
6290d930eb8f73a88e290de6	DL_test	25	da	ka	1	other	pa	0	910
6290d930eb8f73a88e290de6	DL_test	26	pa	da	1	left	pa	1	2915
6290d930eb8f73a88e290de6	DL_test	27	ba	ta	1	other	pa	0	594
6290d930eb8f73a88e290de6	DL_test	28	pa	pa	0	left	pa	1	1253
6290d930eb8f73a88e290de6	DL_test	29	ga	da	1	left	ga	1	962
6290d930eb8f73a88e290de6	DL_test	30	ka	pa	1	left	ka	1	851
6290d930eb8f73a88e290de6	DL_test	31	ga	ga	0	left	ga	1	1039
6290d930eb8f73a88e290de6	DL_test	32	ta	ba	1	other	pa	0	1419
6290d930eb8f73a88e290de6	DL_test	33	ka	ka	0	left	ka	1	745
6290d930eb8f73a88e290de6	DL_test	34	ka	ta	1	left	ka	1	821
6290d930eb8f73a88e290de6	DL_test	35	ta	ga	1	right	ga	1	835
6290d930eb8f73a88e290de6	DL_test	36	ba	da	1	right	da	1	1204
6290d930eb8f73a88e290de6	DL_test	1	ba	pa	1	right	pa	1	1144
6290d930eb8f73a88e290de6	DL_test	2	ga	ga	0	left	ga	1	711
6290d930eb8f73a88e290de6	DL_test	3	ta	ka	1	right	ka	1	591
6290d930eb8f73a88e290de6	DL_test	4	ka	ba	1	left	ka	1	1674
6290d930eb8f73a88e290de6	DL_test	5	pa	ka	1	right	ka	1	582
6290d930eb8f73a88e290de6	DL_test	6	ta	pa	1	right	pa	1	949
6290d930eb8f73a88e290de6	DL_test	7	ka	pa	1	left	ka	1	986
6290d930eb8f73a88e290de6	DL_test	8	ga	ka	1	right	ka	1	974
6290d930eb8f73a88e290de6	DL_test	9	da	ta	1	right	ta	1	1171
6290d930eb8f73a88e290de6	DL_test	10	da	pa	1	right	pa	1	763
6290d930eb8f73a88e290de6	DL_test	11	pa	ba	1	left	pa	1	889
6290d930eb8f73a88e290de6	DL_test	12	ka	da	1	other	ga	0	1094
6290d930eb8f73a88e290de6	DL_test	13	pa	ga	1	right	ga	1	630
6290d930eb8f73a88e290de6	DL_test	14	da	ka	1	other	pa	0	709
6290d930eb8f73a88e290de6	DL_test	15	da	da	0	left	da	1	1147
6290d930eb8f73a88e290de6	DL_test	16	ba	ga	1	right	ga	1	994
6290d930eb8f73a88e290de6	DL_test	17	ka	ta	1	left	ka	1	747
6290d930eb8f73a88e290de6	DL_test	18	ta	da	1	right	da	1	1151
6290d930eb8f73a88e290de6	DL_test	19	ba	ta	1	right	ta	1	1541
6290d930eb8f73a88e290de6	DL_test	20	ba	da	1	right	da	1	855
6290d930eb8f73a88e290de6	DL_test	21	ba	ka	1	right	ka	1	853
6290d930eb8f73a88e290de6	DL_test	22	ta	ba	1	other	ka	0	1258
6290d930eb8f73a88e290de6	DL_test	23	ta	ga	1	right	ga	1	835
6290d930eb8f73a88e290de6	DL_test	24	ga	ta	1	other	ka	0	681
6290d930eb8f73a88e290de6	DL_test	25	ka	ka	0	left	ka	1	818
6290d930eb8f73a88e290de6	DL_test	26	ga	pa	1	right	pa	1	1399
6290d930eb8f73a88e290de6	DL_test	27	ga	da	1	right	da	1	948
6290d930eb8f73a88e290de6	DL_test	28	da	ba	1	left	da	1	1619
6290d930eb8f73a88e290de6	DL_test	29	da	ga	1	right	ga	1	781
6290d930eb8f73a88e290de6	DL_test	30	pa	pa	0	left	pa	1	896
6290d930eb8f73a88e290de6	DL_test	31	ba	ba	0	other	da	0	983
6290d930eb8f73a88e290de6	DL_test	32	ga	ba	1	right	ba	1	997
6290d930eb8f73a88e290de6	DL_test	33	pa	ta	1	left	pa	1	1123
6290d930eb8f73a88e290de6	DL_test	34	ka	ga	1	left	ka	1	1070
6290d930eb8f73a88e290de6	DL_test	35	ta	ta	0	left	ta	1	1101
6290d930eb8f73a88e290de6	DL_test	36	pa	da	1	right	da	1	1116
