subject	block	trialnum	DL_leftSound	DL_rightSound	DL_dualSound	DL_choice	response	correct	rt
63d3f99eac52371a49e65825	headphonecheck_testphase	3	NA	NA	0	NA	first	1	1878
63d3f99eac52371a49e65825	headphonecheck_testphase	6	NA	NA	0	NA	third	1	644
63d3f99eac52371a49e65825	headphonecheck_testphase	9	NA	NA	0	NA	first	1	251
63d3f99eac52371a49e65825	headphonecheck_testphase	12	NA	NA	0	NA	second	1	448
63d3f99eac52371a49e65825	headphonecheck_testphase	15	NA	NA	0	NA	second	1	194
63d3f99eac52371a49e65825	headphonecheck_testphase	18	NA	NA	0	NA	third	1	692
63d3f99eac52371a49e65825	stereocheck_testphase	3	NA	NA	0	NA	stereocheck_left	1	1943
63d3f99eac52371a49e65825	stereocheck_testphase	6	NA	NA	0	NA	stereocheck_right	1	68
63d3f99eac52371a49e65825	stereocheck_testphase	9	NA	NA	0	NA	stereocheck_right	1	346
63d3f99eac52371a49e65825	stereocheck_testphase	12	NA	NA	0	NA	stereocheck_right	1	152
63d3f99eac52371a49e65825	stereocheck_testphase	15	NA	NA	0	NA	stereocheck_left	1	1127
63d3f99eac52371a49e65825	stereocheck_testphase	18	NA	NA	0	NA	stereocheck_left	1	169
63d3f99eac52371a49e65825	DL_practice	2	da	ba	1	left	da	1	969
63d3f99eac52371a49e65825	DL_practice	3	ka	ka	0	other	ga	0	1095
63d3f99eac52371a49e65825	DL_practice	4	ta	ta	0	left	ta	1	1523
63d3f99eac52371a49e65825	DL_practice	5	da	da	0	left	da	1	1020
63d3f99eac52371a49e65825	DL_practice	6	pa	pa	0	left	pa	1	1326
63d3f99eac52371a49e65825	DL_practice	7	ba	ba	0	left	ba	1	1325
63d3f99eac52371a49e65825	DL_practice	8	ga	ta	1	other	ka	0	1133
63d3f99eac52371a49e65825	DL_practice	9	ka	pa	1	left	ka	1	1003
63d3f99eac52371a49e65825	DL_practice	10	ga	ga	0	left	ga	1	893
63d3f99eac52371a49e65825	DL_test	1	ta	ba	1	other	ga	0	992
63d3f99eac52371a49e65825	DL_test	2	pa	ta	1	left	pa	1	2066
63d3f99eac52371a49e65825	DL_test	3	da	ba	1	left	da	1	1041
63d3f99eac52371a49e65825	DL_test	4	ga	ta	1	other	ka	0	1454
63d3f99eac52371a49e65825	DL_test	5	ta	ka	1	right	ka	1	996
63d3f99eac52371a49e65825	DL_test	6	ka	ka	0	left	ka	1	585
63d3f99eac52371a49e65825	DL_test	7	ka	pa	1	right	pa	1	956
63d3f99eac52371a49e65825	DL_test	8	ga	da	1	right	da	1	1146
63d3f99eac52371a49e65825	DL_test	9	da	da	0	left	da	1	843
63d3f99eac52371a49e65825	DL_test	10	pa	da	1	right	da	1	1197
63d3f99eac52371a49e65825	DL_test	11	ta	ga	1	right	ga	1	1126
63d3f99eac52371a49e65825	DL_test	12	ba	ga	1	right	ga	1	671
63d3f99eac52371a49e65825	DL_test	13	ka	ba	1	left	ka	1	941
63d3f99eac52371a49e65825	DL_test	14	ga	pa	1	right	pa	1	1231
63d3f99eac52371a49e65825	DL_test	15	ba	ba	0	other	pa	0	2336
63d3f99eac52371a49e65825	DL_test	16	pa	ka	1	right	ka	1	1150
63d3f99eac52371a49e65825	DL_test	17	pa	ga	1	right	ga	1	1807
63d3f99eac52371a49e65825	DL_test	18	ba	da	1	right	da	1	690
63d3f99eac52371a49e65825	DL_test	19	ba	pa	1	right	pa	1	1265
63d3f99eac52371a49e65825	DL_test	20	da	ta	1	other	ka	0	705
63d3f99eac52371a49e65825	DL_test	21	ka	ta	1	left	ka	1	755
63d3f99eac52371a49e65825	DL_test	22	pa	pa	0	left	pa	1	1323
63d3f99eac52371a49e65825	DL_test	23	da	ka	1	right	ka	1	794
63d3f99eac52371a49e65825	DL_test	24	ta	ta	0	other	ka	0	628
63d3f99eac52371a49e65825	DL_test	25	pa	ba	1	left	pa	1	1046
63d3f99eac52371a49e65825	DL_test	26	da	pa	1	left	da	1	1064
63d3f99eac52371a49e65825	DL_test	27	ta	pa	1	left	ta	1	2423
63d3f99eac52371a49e65825	DL_test	28	ga	ba	1	left	ga	1	870
63d3f99eac52371a49e65825	DL_test	29	ta	da	1	right	da	1	1430
63d3f99eac52371a49e65825	DL_test	30	da	ga	1	right	ga	1	1261
63d3f99eac52371a49e65825	DL_test	31	ka	ga	1	right	ga	1	1257
63d3f99eac52371a49e65825	DL_test	32	ga	ka	1	right	ka	1	1231
63d3f99eac52371a49e65825	DL_test	33	ga	ga	0	left	ga	1	1590
63d3f99eac52371a49e65825	DL_test	34	ka	da	1	other	ga	0	613
63d3f99eac52371a49e65825	DL_test	35	ba	ka	1	other	ga	0	457
63d3f99eac52371a49e65825	DL_test	36	ba	ta	1	other	ka	0	887
63d3f99eac52371a49e65825	DL_test	1	da	ta	1	other	ka	0	1040
63d3f99eac52371a49e65825	DL_test	2	ta	ba	1	other	ka	0	600
63d3f99eac52371a49e65825	DL_test	3	ka	ka	0	left	ka	1	462
63d3f99eac52371a49e65825	DL_test	4	pa	ta	1	other	ka	0	390
63d3f99eac52371a49e65825	DL_test	5	ga	ta	1	other	ka	0	320
63d3f99eac52371a49e65825	DL_test	6	da	ka	1	other	pa	0	1201
63d3f99eac52371a49e65825	DL_test	7	ga	ba	1	right	ba	1	1844
63d3f99eac52371a49e65825	DL_test	8	da	ba	1	left	da	1	760
63d3f99eac52371a49e65825	DL_test	9	ka	ga	1	right	ga	1	692
63d3f99eac52371a49e65825	DL_test	10	ka	pa	1	right	pa	1	1115
63d3f99eac52371a49e65825	DL_test	11	ba	da	1	right	da	1	1083
63d3f99eac52371a49e65825	DL_test	12	ba	ga	1	right	ga	1	703
63d3f99eac52371a49e65825	DL_test	13	da	pa	1	right	pa	1	1139
63d3f99eac52371a49e65825	DL_test	14	ba	ba	0	left	ba	1	2221
63d3f99eac52371a49e65825	DL_test	15	pa	pa	0	left	pa	1	851
63d3f99eac52371a49e65825	DL_test	16	ka	da	1	other	ga	0	674
63d3f99eac52371a49e65825	DL_test	17	ga	da	1	left	ga	1	651
63d3f99eac52371a49e65825	DL_test	18	ta	ta	0	other	ka	0	806
63d3f99eac52371a49e65825	DL_test	19	pa	ba	1	left	pa	1	1277
63d3f99eac52371a49e65825	DL_test	20	ba	ka	1	right	ka	1	874
63d3f99eac52371a49e65825	DL_test	21	ka	ba	1	left	ka	1	636
63d3f99eac52371a49e65825	DL_test	22	ba	ta	1	other	ka	0	491
63d3f99eac52371a49e65825	DL_test	23	ba	pa	1	right	pa	1	715
63d3f99eac52371a49e65825	DL_test	24	pa	da	1	right	da	1	1603
63d3f99eac52371a49e65825	DL_test	25	da	ga	1	left	da	1	1384
63d3f99eac52371a49e65825	DL_test	26	ta	ka	1	right	ka	1	1017
63d3f99eac52371a49e65825	DL_test	27	ta	da	1	right	da	1	1830
63d3f99eac52371a49e65825	DL_test	28	pa	ga	1	other	da	0	986
63d3f99eac52371a49e65825	DL_test	29	ta	ga	1	right	ga	1	597
63d3f99eac52371a49e65825	DL_test	30	da	da	0	left	da	1	1779
63d3f99eac52371a49e65825	DL_test	31	ta	pa	1	right	pa	1	2496
63d3f99eac52371a49e65825	DL_test	32	ga	ga	0	left	ga	1	563
63d3f99eac52371a49e65825	DL_test	33	ga	pa	1	right	pa	1	1593
63d3f99eac52371a49e65825	DL_test	34	ga	ka	1	right	ka	1	634
63d3f99eac52371a49e65825	DL_test	35	pa	ka	1	right	ka	1	585
63d3f99eac52371a49e65825	DL_test	36	ka	ta	1	left	ka	1	482
63d3f99eac52371a49e65825	DL_test	1	pa	ba	1	left	pa	1	1342
63d3f99eac52371a49e65825	DL_test	2	da	ka	1	other	pa	0	886
63d3f99eac52371a49e65825	DL_test	3	pa	pa	0	left	pa	1	713
63d3f99eac52371a49e65825	DL_test	4	pa	ta	1	other	ka	0	769
63d3f99eac52371a49e65825	DL_test	5	ka	ka	0	left	ka	1	566
63d3f99eac52371a49e65825	DL_test	6	da	pa	1	left	da	1	916
63d3f99eac52371a49e65825	DL_test	7	ba	da	1	right	da	1	567
63d3f99eac52371a49e65825	DL_test	8	ta	ga	1	right	ga	1	1548
63d3f99eac52371a49e65825	DL_test	9	ga	ka	1	right	ka	1	950
63d3f99eac52371a49e65825	DL_test	10	da	ba	1	other	pa	0	1604
63d3f99eac52371a49e65825	DL_test	11	ta	ka	1	right	ka	1	732
63d3f99eac52371a49e65825	DL_test	12	ga	ba	1	other	da	0	1030
63d3f99eac52371a49e65825	DL_test	13	ka	ta	1	left	ka	1	811
63d3f99eac52371a49e65825	DL_test	14	ga	ga	0	left	ga	1	1090
63d3f99eac52371a49e65825	DL_test	15	ba	ta	1	right	ta	1	2403
63d3f99eac52371a49e65825	DL_test	16	ka	ga	1	right	ga	1	647
63d3f99eac52371a49e65825	DL_test	17	ka	ba	1	other	ga	0	937
63d3f99eac52371a49e65825	DL_test	18	ga	ta	1	other	ka	0	1039
63d3f99eac52371a49e65825	DL_test	19	da	da	0	left	da	1	1148
63d3f99eac52371a49e65825	DL_test	20	pa	ga	1	right	ga	1	1369
63d3f99eac52371a49e65825	DL_test	21	ta	ba	1	other	ga	0	1846
63d3f99eac52371a49e65825	DL_test	22	pa	ka	1	right	ka	1	858
63d3f99eac52371a49e65825	DL_test	23	ba	pa	1	right	pa	1	941
63d3f99eac52371a49e65825	DL_test	24	ba	ba	0	left	ba	1	1320
63d3f99eac52371a49e65825	DL_test	25	ka	pa	1	left	ka	1	710
63d3f99eac52371a49e65825	DL_test	26	da	ta	1	other	pa	0	1074
63d3f99eac52371a49e65825	DL_test	27	ta	pa	1	other	ka	0	252
63d3f99eac52371a49e65825	DL_test	28	pa	da	1	other	ga	0	315
63d3f99eac52371a49e65825	DL_test	29	ga	pa	1	other	da	0	32
63d3f99eac52371a49e65825	DL_test	30	ka	da	1	left	ka	1	1430
63d3f99eac52371a49e65825	DL_test	31	ta	da	1	right	da	1	1209
63d3f99eac52371a49e65825	DL_test	32	ga	da	1	left	ga	1	449
63d3f99eac52371a49e65825	DL_test	33	ta	ta	0	left	ta	1	1265
63d3f99eac52371a49e65825	DL_test	34	da	ga	1	right	ga	1	1174
63d3f99eac52371a49e65825	DL_test	35	ba	ga	1	right	ga	1	0
63d3f99eac52371a49e65825	DL_test	36	ba	ka	1	right	ka	1	657
63d3f99eac52371a49e65825	DL_test	1	pa	ka	1	right	ka	1	696
63d3f99eac52371a49e65825	DL_test	2	ga	ka	1	right	ka	1	492
63d3f99eac52371a49e65825	DL_test	3	ka	ka	0	left	ka	1	385
63d3f99eac52371a49e65825	DL_test	4	ga	ga	0	left	ga	1	733
63d3f99eac52371a49e65825	DL_test	5	da	ba	1	other	ga	0	677
63d3f99eac52371a49e65825	DL_test	6	ba	pa	1	right	pa	1	1077
63d3f99eac52371a49e65825	DL_test	7	ka	da	1	other	ga	0	686
63d3f99eac52371a49e65825	DL_test	8	pa	ta	1	right	ta	1	1324
63d3f99eac52371a49e65825	DL_test	9	ba	da	1	right	da	1	1156
63d3f99eac52371a49e65825	DL_test	10	ga	pa	1	right	pa	1	730
63d3f99eac52371a49e65825	DL_test	11	ga	ba	1	other	pa	0	1806
63d3f99eac52371a49e65825	DL_test	12	ta	da	1	left	ta	1	1280
63d3f99eac52371a49e65825	DL_test	13	ga	ta	1	other	ka	0	811
63d3f99eac52371a49e65825	DL_test	14	ba	ta	1	right	ta	1	1105
63d3f99eac52371a49e65825	DL_test	15	da	pa	1	other	ta	0	1590
63d3f99eac52371a49e65825	DL_test	16	ba	ga	1	right	ga	1	671
63d3f99eac52371a49e65825	DL_test	17	ba	ba	0	left	ba	1	863
63d3f99eac52371a49e65825	DL_test	18	ba	ka	1	right	ka	1	838
63d3f99eac52371a49e65825	DL_test	19	da	ga	1	left	da	1	1299
63d3f99eac52371a49e65825	DL_test	20	ta	ga	1	right	ga	1	1137
63d3f99eac52371a49e65825	DL_test	21	pa	ga	1	other	ka	0	904
63d3f99eac52371a49e65825	DL_test	22	pa	pa	0	other	ka	0	1614
63d3f99eac52371a49e65825	DL_test	23	da	ta	1	right	ta	1	1284
63d3f99eac52371a49e65825	DL_test	24	da	ka	1	other	pa	0	767
63d3f99eac52371a49e65825	DL_test	25	ka	ga	1	right	ga	1	816
63d3f99eac52371a49e65825	DL_test	26	ta	ta	0	left	ta	1	1240
63d3f99eac52371a49e65825	DL_test	27	pa	da	1	right	da	1	1157
63d3f99eac52371a49e65825	DL_test	28	da	da	0	left	da	1	2031
63d3f99eac52371a49e65825	DL_test	29	ga	da	1	right	da	1	1929
63d3f99eac52371a49e65825	DL_test	30	ta	ka	1	right	ka	1	1559
63d3f99eac52371a49e65825	DL_test	31	ka	ta	1	left	ka	1	865
63d3f99eac52371a49e65825	DL_test	32	pa	ba	1	left	pa	1	880
63d3f99eac52371a49e65825	DL_test	33	ta	ba	1	other	pa	0	869
63d3f99eac52371a49e65825	DL_test	34	ta	pa	1	left	ta	1	1672
63d3f99eac52371a49e65825	DL_test	35	ka	pa	1	left	ka	1	1235
63d3f99eac52371a49e65825	DL_test	36	ka	ba	1	left	ka	1	644
