build	computer.platform	date	time	timestamp	time_elapsed_ms	subject	group	session	blockcode	blocknum	trialcode	trialnum	stimulus_left	stimulus_right	stim_index	target_present	response	correct	latency	headphonecheck_countTestTrials	headphonecheck_index	headphonecheck_testSound	headphonecheck_correctResponse	stereocheck_countTestTrials	stereocheck_index	stereocheck_testSound	stereocheck_correctResponse	DL_index	DL_soundfile	DL_leftSound	DL_rightSound	DL_dualSound	DL_choice
6.6.1	win	2023-06-24	12:54:04	0	0	6290d930eb8f73a88e290de6	2	1	headphonecheck_calibration	4	headphonecheck_calibrationIntro	1			0		calibrationButton	0	2239	0	0			0	0			1				0	
6.6.1	win	2023-06-24	12:54:04	0	0	6290d930eb8f73a88e290de6	2	1	headphonecheck_testphase	5	test_collectResponse	3			0		second	1	760	1	1	antiphase_hc_iso.wav	2	0	0			1				0	
6.6.1	win	2023-06-24	12:54:04	0	0	6290d930eb8f73a88e290de6	2	1	headphonecheck_testphase	5	test_collectResponse	6			0		first	1	254	2	4	antiphase_hc_sio.wav	1	0	0			1				0	
6.6.1	win	2023-06-24	12:54:04	0	0	6290d930eb8f73a88e290de6	2	1	headphonecheck_testphase	5	test_collectResponse	9			0		first	1	297	3	3	antiphase_hc_soi.wav	1	0	0			1				0	
6.6.1	win	2023-06-24	12:54:04	0	0	6290d930eb8f73a88e290de6	2	1	headphonecheck_testphase	5	test_collectResponse	12			0		third	1	206	4	6	antiphase_hc_ois.wav	3	0	0			1				0	
6.6.1	win	2023-06-24	12:54:04	0	0	6290d930eb8f73a88e290de6	2	1	headphonecheck_testphase	5	test_collectResponse	15			0		third	1	245	5	2	antiphase_hc_ios.wav	3	0	0			1				0	
6.6.1	win	2023-06-24	12:54:04	0	0	6290d930eb8f73a88e290de6	2	1	headphonecheck_testphase	5	test_collectResponse	18			0		second	1	217	6	5	antiphase_hc_osi.wav	2	0	0			1				0	
6.6.1	win	2023-06-24	12:54:04	0	0	6290d930eb8f73a88e290de6	2	1	stereocheck_calibration	7	stereocheck_calibrationIntro	1			0		stereocheck_calibrationButton	0	5337	6	5	antiphase_hc_osi.wav	2	0	0			1				0	
6.6.1	win	2023-06-24	12:54:04	0	0	6290d930eb8f73a88e290de6	2	1	stereocheck_testphase	8	stereocheck_test_collectResponse	3			0		stereocheck_left	1	484	6	5	antiphase_hc_osi.wav	2	1	3	noise_calib_stim_LEFT.wav	1	1				0	
6.6.1	win	2023-06-24	12:54:04	0	0	6290d930eb8f73a88e290de6	2	1	stereocheck_testphase	8	stereocheck_test_collectResponse	6			0		stereocheck_right	1	150	6	5	antiphase_hc_osi.wav	2	2	4	noise_calib_stim_RIGHT.wav	2	1				0	
6.6.1	win	2023-06-24	12:54:04	0	0	6290d930eb8f73a88e290de6	2	1	stereocheck_testphase	8	stereocheck_test_collectResponse	9			0		stereocheck_left	1	225	6	5	antiphase_hc_osi.wav	2	3	2	noise_calib_stim_LEFT.wav	1	1				0	
6.6.1	win	2023-06-24	12:54:04	0	0	6290d930eb8f73a88e290de6	2	1	stereocheck_testphase	8	stereocheck_test_collectResponse	12			0		stereocheck_right	1	164	6	5	antiphase_hc_osi.wav	2	4	5	noise_calib_stim_RIGHT.wav	2	1				0	
6.6.1	win	2023-06-24	12:54:04	0	0	6290d930eb8f73a88e290de6	2	1	stereocheck_testphase	8	stereocheck_test_collectResponse	15			0		stereocheck_right	1	169	6	5	antiphase_hc_osi.wav	2	5	6	noise_calib_stim_RIGHT.wav	2	1				0	
6.6.1	win	2023-06-24	12:54:04	0	0	6290d930eb8f73a88e290de6	2	1	stereocheck_testphase	8	stereocheck_test_collectResponse	18			0		stereocheck_left	1	220	6	5	antiphase_hc_osi.wav	2	6	1	noise_calib_stim_LEFT.wav	1	1				0	
6.6.1	win	2023-06-24	12:54:04	0	0	6290d930eb8f73a88e290de6	2	1	DL_practice	11	DL_practice	2			0		pa	1	1665	6	5	antiphase_hc_osi.wav	2	6	1	noise_calib_stim_LEFT.wav	1	29	blb_dichoticlistening_pa-pa.mp3	pa	pa	0	left
6.6.1	win	2023-06-24	12:54:04	0	0	6290d930eb8f73a88e290de6	2	1	DL_practice	11	DL_practice	3			0		ta	1	817	6	5	antiphase_hc_osi.wav	2	6	1	noise_calib_stim_LEFT.wav	1	36	blb_dichoticlistening_ta-ta.mp3	ta	ta	0	left
6.6.1	win	2023-06-24	12:54:04	0	0	6290d930eb8f73a88e290de6	2	1	DL_practice	11	DL_practice	4			0		ga	0	3998	6	5	antiphase_hc_osi.wav	2	6	1	noise_calib_stim_LEFT.wav	1	7	blb_dichoticlistening_da-ba.mp3	da	ba	1	other
6.6.1	win	2023-06-24	12:54:04	0	0	6290d930eb8f73a88e290de6	2	1	DL_practice	11	DL_practice	5			0		ka	1	778	6	5	antiphase_hc_osi.wav	2	6	1	noise_calib_stim_LEFT.wav	1	22	blb_dichoticlistening_ka-ka.mp3	ka	ka	0	left
6.6.1	win	2023-06-24	12:54:04	0	0	6290d930eb8f73a88e290de6	2	1	DL_practice	11	DL_practice	6			0		ka	0	2166	6	5	antiphase_hc_osi.wav	2	6	1	noise_calib_stim_LEFT.wav	1	18	blb_dichoticlistening_ga-ta.mp3	ga	ta	1	other
6.6.1	win	2023-06-24	12:54:04	0	0	6290d930eb8f73a88e290de6	2	1	DL_practice	11	DL_practice	7			0		ka	1	1577	6	5	antiphase_hc_osi.wav	2	6	1	noise_calib_stim_LEFT.wav	1	23	blb_dichoticlistening_ka-pa.mp3	ka	pa	1	left
6.6.1	win	2023-06-24	12:54:04	0	0	6290d930eb8f73a88e290de6	2	1	DL_practice	11	DL_practice	8			0		ga	1	1019	6	5	antiphase_hc_osi.wav	2	6	1	noise_calib_stim_LEFT.wav	1	15	blb_dichoticlistening_ga-ga.mp3	ga	ga	0	left
6.6.1	win	2023-06-24	12:54:04	0	0	6290d930eb8f73a88e290de6	2	1	DL_practice	11	DL_practice	9			0		da	1	1116	6	5	antiphase_hc_osi.wav	2	6	1	noise_calib_stim_LEFT.wav	1	8	blb_dichoticlistening_da-da.mp3	da	da	0	left
6.6.1	win	2023-06-24	12:54:04	0	0	6290d930eb8f73a88e290de6	2	1	DL_practice	11	DL_practice	10			0		ba	1	1946	6	5	antiphase_hc_osi.wav	2	6	1	noise_calib_stim_LEFT.wav	1	1	blb_dichoticlistening_ba-ba.mp3	ba	ba	0	left
6.6.1	win	2023-06-24	12:54:04	0	0	6290d930eb8f73a88e290de6	2	1	DL_test	13	DL_test	1			0		ka	0	1245	6	5	antiphase_hc_osi.wav	2	6	1	noise_calib_stim_LEFT.wav	1	18	blb_dichoticlistening_ga-ta.mp3	ga	ta	1	other
6.6.1	win	2023-06-24	12:54:04	0	0	6290d930eb8f73a88e290de6	2	1	DL_test	13	DL_test	2			0		ka	1	914	6	5	antiphase_hc_osi.wav	2	6	1	noise_calib_stim_LEFT.wav	1	28	blb_dichoticlistening_pa-ka.mp3	pa	ka	1	right
6.6.1	win	2023-06-24	12:54:04	0	0	6290d930eb8f73a88e290de6	2	1	DL_test	13	DL_test	3			0		ga	1	1349	6	5	antiphase_hc_osi.wav	2	6	1	noise_calib_stim_LEFT.wav	1	15	blb_dichoticlistening_ga-ga.mp3	ga	ga	0	left
6.6.1	win	2023-06-24	12:54:04	0	0	6290d930eb8f73a88e290de6	2	1	DL_test	13	DL_test	4			0		da	1	1085	6	5	antiphase_hc_osi.wav	2	6	1	noise_calib_stim_LEFT.wav	1	2	blb_dichoticlistening_ba-da.mp3	ba	da	1	right
6.6.1	win	2023-06-24	12:54:04	0	0	6290d930eb8f73a88e290de6	2	1	DL_test	13	DL_test	5			0		pa	1	939	6	5	antiphase_hc_osi.wav	2	6	1	noise_calib_stim_LEFT.wav	1	29	blb_dichoticlistening_pa-pa.mp3	pa	pa	0	left
6.6.1	win	2023-06-24	12:54:04	0	0	6290d930eb8f73a88e290de6	2	1	DL_test	13	DL_test	6			0		ta	1	1282	6	5	antiphase_hc_osi.wav	2	6	1	noise_calib_stim_LEFT.wav	1	36	blb_dichoticlistening_ta-ta.mp3	ta	ta	0	left
6.6.1	win	2023-06-24	12:54:04	0	0	6290d930eb8f73a88e290de6	2	1	DL_test	13	DL_test	7			0		ga	1	2752	6	5	antiphase_hc_osi.wav	2	6	1	noise_calib_stim_LEFT.wav	1	33	blb_dichoticlistening_ta-ga.mp3	ta	ga	1	right
6.6.1	win	2023-06-24	12:54:04	0	0	6290d930eb8f73a88e290de6	2	1	DL_test	13	DL_test	8			0		da	1	1014	6	5	antiphase_hc_osi.wav	2	6	1	noise_calib_stim_LEFT.wav	1	8	blb_dichoticlistening_da-da.mp3	da	da	0	left
6.6.1	win	2023-06-24	12:54:04	0	0	6290d930eb8f73a88e290de6	2	1	DL_test	13	DL_test	9			0		ka	1	1171	6	5	antiphase_hc_osi.wav	2	6	1	noise_calib_stim_LEFT.wav	1	24	blb_dichoticlistening_ka-ta.mp3	ka	ta	1	left
6.6.1	win	2023-06-24	12:54:04	0	0	6290d930eb8f73a88e290de6	2	1	DL_test	13	DL_test	10			0		ga	1	1170	6	5	antiphase_hc_osi.wav	2	6	1	noise_calib_stim_LEFT.wav	1	3	blb_dichoticlistening_ba-ga.mp3	ba	ga	1	right
6.6.1	win	2023-06-24	12:54:04	0	0	6290d930eb8f73a88e290de6	2	1	DL_test	13	DL_test	11			0		pa	1	1021	6	5	antiphase_hc_osi.wav	2	6	1	noise_calib_stim_LEFT.wav	1	5	blb_dichoticlistening_ba-pa.mp3	ba	pa	1	right
6.6.1	win	2023-06-24	12:54:04	0	0	6290d930eb8f73a88e290de6	2	1	DL_test	13	DL_test	12			0		ka	1	763	6	5	antiphase_hc_osi.wav	2	6	1	noise_calib_stim_LEFT.wav	1	34	blb_dichoticlistening_ta-ka.mp3	ta	ka	1	right
6.6.1	win	2023-06-24	12:54:04	0	0	6290d930eb8f73a88e290de6	2	1	DL_test	13	DL_test	13			0		da	1	1218	6	5	antiphase_hc_osi.wav	2	6	1	noise_calib_stim_LEFT.wav	1	7	blb_dichoticlistening_da-ba.mp3	da	ba	1	left
6.6.1	win	2023-06-24	12:54:04	0	0	6290d930eb8f73a88e290de6	2	1	DL_test	13	DL_test	14			0		ka	1	905	6	5	antiphase_hc_osi.wav	2	6	1	noise_calib_stim_LEFT.wav	1	16	blb_dichoticlistening_ga-ka.mp3	ga	ka	1	right
6.6.1	win	2023-06-24	12:54:04	0	0	6290d930eb8f73a88e290de6	2	1	DL_test	13	DL_test	15			0		pa	1	1654	6	5	antiphase_hc_osi.wav	2	6	1	noise_calib_stim_LEFT.wav	1	25	blb_dichoticlistening_pa-ba.mp3	pa	ba	1	left
6.6.1	win	2023-06-24	12:54:04	0	0	6290d930eb8f73a88e290de6	2	1	DL_test	13	DL_test	16			0		ta	1	900	6	5	antiphase_hc_osi.wav	2	6	1	noise_calib_stim_LEFT.wav	1	12	blb_dichoticlistening_da-ta.mp3	da	ta	1	right
6.6.1	win	2023-06-24	12:54:04	0	0	6290d930eb8f73a88e290de6	2	1	DL_test	13	DL_test	17			0		pa	0	1342	6	5	antiphase_hc_osi.wav	2	6	1	noise_calib_stim_LEFT.wav	1	10	blb_dichoticlistening_da-ka.mp3	da	ka	1	other
6.6.1	win	2023-06-24	12:54:04	0	0	6290d930eb8f73a88e290de6	2	1	DL_test	13	DL_test	18			0		ka	1	858	6	5	antiphase_hc_osi.wav	2	6	1	noise_calib_stim_LEFT.wav	1	4	blb_dichoticlistening_ba-ka.mp3	ba	ka	1	right
6.6.1	win	2023-06-24	12:54:04	0	0	6290d930eb8f73a88e290de6	2	1	DL_test	13	DL_test	19			0		ba	1	1413	6	5	antiphase_hc_osi.wav	2	6	1	noise_calib_stim_LEFT.wav	1	1	blb_dichoticlistening_ba-ba.mp3	ba	ba	0	left
6.6.1	win	2023-06-24	12:54:04	0	0	6290d930eb8f73a88e290de6	2	1	DL_test	13	DL_test	20			0		ka	0	1656	6	5	antiphase_hc_osi.wav	2	6	1	noise_calib_stim_LEFT.wav	1	6	blb_dichoticlistening_ba-ta.mp3	ba	ta	1	other
6.6.1	win	2023-06-24	12:54:04	0	0	6290d930eb8f73a88e290de6	2	1	DL_test	13	DL_test	21			0		da	1	5102	6	5	antiphase_hc_osi.wav	2	6	1	noise_calib_stim_LEFT.wav	1	26	blb_dichoticlistening_pa-da.mp3	pa	da	1	right
6.6.1	win	2023-06-24	12:54:04	0	0	6290d930eb8f73a88e290de6	2	1	DL_test	13	DL_test	22			0		da	1	3294	6	5	antiphase_hc_osi.wav	2	6	1	noise_calib_stim_LEFT.wav	1	32	blb_dichoticlistening_ta-da.mp3	ta	da	1	right
6.6.1	win	2023-06-24	12:54:04	0	0	6290d930eb8f73a88e290de6	2	1	DL_test	13	DL_test	23			0		ga	1	1387	6	5	antiphase_hc_osi.wav	2	6	1	noise_calib_stim_LEFT.wav	1	21	blb_dichoticlistening_ka-ga.mp3	ka	ga	1	right
6.6.1	win	2023-06-24	12:54:04	0	0	6290d930eb8f73a88e290de6	2	1	DL_test	13	DL_test	24			0		ga	1	1220	6	5	antiphase_hc_osi.wav	2	6	1	noise_calib_stim_LEFT.wav	1	9	blb_dichoticlistening_da-ga.mp3	da	ga	1	right
6.6.1	win	2023-06-24	12:54:04	0	0	6290d930eb8f73a88e290de6	2	1	DL_test	13	DL_test	25			0		ka	0	1040	6	5	antiphase_hc_osi.wav	2	6	1	noise_calib_stim_LEFT.wav	1	31	blb_dichoticlistening_ta-ba.mp3	ta	ba	1	other
6.6.1	win	2023-06-24	12:54:04	0	0	6290d930eb8f73a88e290de6	2	1	DL_test	13	DL_test	26			0		ka	1	1080	6	5	antiphase_hc_osi.wav	2	6	1	noise_calib_stim_LEFT.wav	1	20	blb_dichoticlistening_ka-da.mp3	ka	da	1	left
6.6.1	win	2023-06-24	12:54:04	0	0	6290d930eb8f73a88e290de6	2	1	DL_test	13	DL_test	27			0		ka	1	693	6	5	antiphase_hc_osi.wav	2	6	1	noise_calib_stim_LEFT.wav	1	19	blb_dichoticlistening_ka-ba.mp3	ka	ba	1	left
6.6.1	win	2023-06-24	12:54:04	0	0	6290d930eb8f73a88e290de6	2	1	DL_test	13	DL_test	28			0		pa	1	1338	6	5	antiphase_hc_osi.wav	2	6	1	noise_calib_stim_LEFT.wav	1	11	blb_dichoticlistening_da-pa.mp3	da	pa	1	right
6.6.1	win	2023-06-24	12:54:04	0	0	6290d930eb8f73a88e290de6	2	1	DL_test	13	DL_test	29			0		ba	1	1354	6	5	antiphase_hc_osi.wav	2	6	1	noise_calib_stim_LEFT.wav	1	13	blb_dichoticlistening_ga-ba.mp3	ga	ba	1	right
6.6.1	win	2023-06-24	12:54:04	0	0	6290d930eb8f73a88e290de6	2	1	DL_test	13	DL_test	30			0		pa	1	1581	6	5	antiphase_hc_osi.wav	2	6	1	noise_calib_stim_LEFT.wav	1	30	blb_dichoticlistening_pa-ta.mp3	pa	ta	1	left
6.6.1	win	2023-06-24	12:54:04	0	0	6290d930eb8f73a88e290de6	2	1	DL_test	13	DL_test	31			0		pa	1	942	6	5	antiphase_hc_osi.wav	2	6	1	noise_calib_stim_LEFT.wav	1	17	blb_dichoticlistening_ga-pa.mp3	ga	pa	1	right
6.6.1	win	2023-06-24	12:54:04	0	0	6290d930eb8f73a88e290de6	2	1	DL_test	13	DL_test	32			0		ka	1	754	6	5	antiphase_hc_osi.wav	2	6	1	noise_calib_stim_LEFT.wav	1	22	blb_dichoticlistening_ka-ka.mp3	ka	ka	0	left
6.6.1	win	2023-06-24	12:54:04	0	0	6290d930eb8f73a88e290de6	2	1	DL_test	13	DL_test	33			0		pa	1	857	6	5	antiphase_hc_osi.wav	2	6	1	noise_calib_stim_LEFT.wav	1	35	blb_dichoticlistening_ta-pa.mp3	ta	pa	1	right
6.6.1	win	2023-06-24	12:54:04	0	0	6290d930eb8f73a88e290de6	2	1	DL_test	13	DL_test	34			0		ka	1	956	6	5	antiphase_hc_osi.wav	2	6	1	noise_calib_stim_LEFT.wav	1	23	blb_dichoticlistening_ka-pa.mp3	ka	pa	1	left
6.6.1	win	2023-06-24	12:54:04	0	0	6290d930eb8f73a88e290de6	2	1	DL_test	13	DL_test	35			0		ga	1	631	6	5	antiphase_hc_osi.wav	2	6	1	noise_calib_stim_LEFT.wav	1	14	blb_dichoticlistening_ga-da.mp3	ga	da	1	left
6.6.1	win	2023-06-24	12:54:04	0	0	6290d930eb8f73a88e290de6	2	1	DL_test	13	DL_test	36			0		ga	1	1628	6	5	antiphase_hc_osi.wav	2	6	1	noise_calib_stim_LEFT.wav	1	27	blb_dichoticlistening_pa-ga.mp3	pa	ga	1	right
6.6.1	win	2023-06-24	12:54:04	0	0	6290d930eb8f73a88e290de6	2	1	DL_test	14	DL_test	1			0		ka	1	2321	6	5	antiphase_hc_osi.wav	2	6	1	noise_calib_stim_LEFT.wav	1	22	blb_dichoticlistening_ka-ka.mp3	ka	ka	0	left
6.6.1	win	2023-06-24	12:54:04	0	0	6290d930eb8f73a88e290de6	2	1	DL_test	14	DL_test	2			0		ka	0	1134	6	5	antiphase_hc_osi.wav	2	6	1	noise_calib_stim_LEFT.wav	1	31	blb_dichoticlistening_ta-ba.mp3	ta	ba	1	other
6.6.1	win	2023-06-24	12:54:04	0	0	6290d930eb8f73a88e290de6	2	1	DL_test	14	DL_test	3			0		ga	1	1566	6	5	antiphase_hc_osi.wav	2	6	1	noise_calib_stim_LEFT.wav	1	3	blb_dichoticlistening_ba-ga.mp3	ba	ga	1	right
6.6.1	win	2023-06-24	12:54:04	0	0	6290d930eb8f73a88e290de6	2	1	DL_test	14	DL_test	4			0		pa	1	1735	6	5	antiphase_hc_osi.wav	2	6	1	noise_calib_stim_LEFT.wav	1	29	blb_dichoticlistening_pa-pa.mp3	pa	pa	0	left
6.6.1	win	2023-06-24	12:54:04	0	0	6290d930eb8f73a88e290de6	2	1	DL_test	14	DL_test	5			0		pa	1	884	6	5	antiphase_hc_osi.wav	2	6	1	noise_calib_stim_LEFT.wav	1	17	blb_dichoticlistening_ga-pa.mp3	ga	pa	1	right
6.6.1	win	2023-06-24	12:54:04	0	0	6290d930eb8f73a88e290de6	2	1	DL_test	14	DL_test	6			0		ka	1	812	6	5	antiphase_hc_osi.wav	2	6	1	noise_calib_stim_LEFT.wav	1	4	blb_dichoticlistening_ba-ka.mp3	ba	ka	1	right
6.6.1	win	2023-06-24	12:54:04	0	0	6290d930eb8f73a88e290de6	2	1	DL_test	14	DL_test	7			0		ga	0	1635	6	5	antiphase_hc_osi.wav	2	6	1	noise_calib_stim_LEFT.wav	1	32	blb_dichoticlistening_ta-da.mp3	ta	da	1	other
6.6.1	win	2023-06-24	12:54:04	0	0	6290d930eb8f73a88e290de6	2	1	DL_test	14	DL_test	8			0		ka	1	853	6	5	antiphase_hc_osi.wav	2	6	1	noise_calib_stim_LEFT.wav	1	19	blb_dichoticlistening_ka-ba.mp3	ka	ba	1	left
6.6.1	win	2023-06-24	12:54:04	0	0	6290d930eb8f73a88e290de6	2	1	DL_test	14	DL_test	9			0		ga	1	1435	6	5	antiphase_hc_osi.wav	2	6	1	noise_calib_stim_LEFT.wav	1	9	blb_dichoticlistening_da-ga.mp3	da	ga	1	right
6.6.1	win	2023-06-24	12:54:04	0	0	6290d930eb8f73a88e290de6	2	1	DL_test	14	DL_test	10			0		ga	1	855	6	5	antiphase_hc_osi.wav	2	6	1	noise_calib_stim_LEFT.wav	1	15	blb_dichoticlistening_ga-ga.mp3	ga	ga	0	left
6.6.1	win	2023-06-24	12:54:04	0	0	6290d930eb8f73a88e290de6	2	1	DL_test	14	DL_test	11			0		pa	1	2019	6	5	antiphase_hc_osi.wav	2	6	1	noise_calib_stim_LEFT.wav	1	23	blb_dichoticlistening_ka-pa.mp3	ka	pa	1	right
6.6.1	win	2023-06-24	12:54:04	0	0	6290d930eb8f73a88e290de6	2	1	DL_test	14	DL_test	12			0		pa	1	751	6	5	antiphase_hc_osi.wav	2	6	1	noise_calib_stim_LEFT.wav	1	25	blb_dichoticlistening_pa-ba.mp3	pa	ba	1	left
6.6.1	win	2023-06-24	12:54:04	0	0	6290d930eb8f73a88e290de6	2	1	DL_test	14	DL_test	13			0		ta	1	1481	6	5	antiphase_hc_osi.wav	2	6	1	noise_calib_stim_LEFT.wav	1	36	blb_dichoticlistening_ta-ta.mp3	ta	ta	0	left
6.6.1	win	2023-06-24	12:54:04	0	0	6290d930eb8f73a88e290de6	2	1	DL_test	14	DL_test	14			0		pa	1	1538	6	5	antiphase_hc_osi.wav	2	6	1	noise_calib_stim_LEFT.wav	1	5	blb_dichoticlistening_ba-pa.mp3	ba	pa	1	right
6.6.1	win	2023-06-24	12:54:04	0	0	6290d930eb8f73a88e290de6	2	1	DL_test	14	DL_test	15			0		ka	1	1049	6	5	antiphase_hc_osi.wav	2	6	1	noise_calib_stim_LEFT.wav	1	24	blb_dichoticlistening_ka-ta.mp3	ka	ta	1	left
6.6.1	win	2023-06-24	12:54:04	0	0	6290d930eb8f73a88e290de6	2	1	DL_test	14	DL_test	16			0		pa	1	1634	6	5	antiphase_hc_osi.wav	2	6	1	noise_calib_stim_LEFT.wav	1	30	blb_dichoticlistening_pa-ta.mp3	pa	ta	1	left
6.6.1	win	2023-06-24	12:54:04	0	0	6290d930eb8f73a88e290de6	2	1	DL_test	14	DL_test	17			0		ba	1	1553	6	5	antiphase_hc_osi.wav	2	6	1	noise_calib_stim_LEFT.wav	1	13	blb_dichoticlistening_ga-ba.mp3	ga	ba	1	right
6.6.1	win	2023-06-24	12:54:04	0	0	6290d930eb8f73a88e290de6	2	1	DL_test	14	DL_test	18			0		ba	1	834	6	5	antiphase_hc_osi.wav	2	6	1	noise_calib_stim_LEFT.wav	1	1	blb_dichoticlistening_ba-ba.mp3	ba	ba	0	left
6.6.1	win	2023-06-24	12:54:04	0	0	6290d930eb8f73a88e290de6	2	1	DL_test	14	DL_test	19			0		ga	0	1501	6	5	antiphase_hc_osi.wav	2	6	1	noise_calib_stim_LEFT.wav	1	7	blb_dichoticlistening_da-ba.mp3	da	ba	1	other
6.6.1	win	2023-06-24	12:54:04	0	0	6290d930eb8f73a88e290de6	2	1	DL_test	14	DL_test	20			0		ka	1	1099	6	5	antiphase_hc_osi.wav	2	6	1	noise_calib_stim_LEFT.wav	1	28	blb_dichoticlistening_pa-ka.mp3	pa	ka	1	right
6.6.1	win	2023-06-24	12:54:04	0	0	6290d930eb8f73a88e290de6	2	1	DL_test	14	DL_test	21			0		ta	1	1347	6	5	antiphase_hc_osi.wav	2	6	1	noise_calib_stim_LEFT.wav	1	12	blb_dichoticlistening_da-ta.mp3	da	ta	1	right
6.6.1	win	2023-06-24	12:54:04	0	0	6290d930eb8f73a88e290de6	2	1	DL_test	14	DL_test	22			0		ga	1	1304	6	5	antiphase_hc_osi.wav	2	6	1	noise_calib_stim_LEFT.wav	1	21	blb_dichoticlistening_ka-ga.mp3	ka	ga	1	right
6.6.1	win	2023-06-24	12:54:04	0	0	6290d930eb8f73a88e290de6	2	1	DL_test	14	DL_test	23			0		pa	1	1044	6	5	antiphase_hc_osi.wav	2	6	1	noise_calib_stim_LEFT.wav	1	11	blb_dichoticlistening_da-pa.mp3	da	pa	1	right
6.6.1	win	2023-06-24	12:54:04	0	0	6290d930eb8f73a88e290de6	2	1	DL_test	14	DL_test	24			0		ka	1	1455	6	5	antiphase_hc_osi.wav	2	6	1	noise_calib_stim_LEFT.wav	1	34	blb_dichoticlistening_ta-ka.mp3	ta	ka	1	right
6.6.1	win	2023-06-24	12:54:04	0	0	6290d930eb8f73a88e290de6	2	1	DL_test	14	DL_test	25			0		ta	1	1997	6	5	antiphase_hc_osi.wav	2	6	1	noise_calib_stim_LEFT.wav	1	6	blb_dichoticlistening_ba-ta.mp3	ba	ta	1	right
6.6.1	win	2023-06-24	12:54:04	0	0	6290d930eb8f73a88e290de6	2	1	DL_test	14	DL_test	26			0		pa	0	922	6	5	antiphase_hc_osi.wav	2	6	1	noise_calib_stim_LEFT.wav	1	10	blb_dichoticlistening_da-ka.mp3	da	ka	1	other
6.6.1	win	2023-06-24	12:54:04	0	0	6290d930eb8f73a88e290de6	2	1	DL_test	14	DL_test	27			0		ka	1	1018	6	5	antiphase_hc_osi.wav	2	6	1	noise_calib_stim_LEFT.wav	1	16	blb_dichoticlistening_ga-ka.mp3	ga	ka	1	right
6.6.1	win	2023-06-24	12:54:04	0	0	6290d930eb8f73a88e290de6	2	1	DL_test	14	DL_test	28			0		ka	0	600	6	5	antiphase_hc_osi.wav	2	6	1	noise_calib_stim_LEFT.wav	1	18	blb_dichoticlistening_ga-ta.mp3	ga	ta	1	other
6.6.1	win	2023-06-24	12:54:04	0	0	6290d930eb8f73a88e290de6	2	1	DL_test	14	DL_test	29			0		ga	0	1128	6	5	antiphase_hc_osi.wav	2	6	1	noise_calib_stim_LEFT.wav	1	20	blb_dichoticlistening_ka-da.mp3	ka	da	1	other
6.6.1	win	2023-06-24	12:54:04	0	0	6290d930eb8f73a88e290de6	2	1	DL_test	14	DL_test	30			0		ga	1	948	6	5	antiphase_hc_osi.wav	2	6	1	noise_calib_stim_LEFT.wav	1	33	blb_dichoticlistening_ta-ga.mp3	ta	ga	1	right
6.6.1	win	2023-06-24	12:54:04	0	0	6290d930eb8f73a88e290de6	2	1	DL_test	14	DL_test	31			0		da	1	1777	6	5	antiphase_hc_osi.wav	2	6	1	noise_calib_stim_LEFT.wav	1	2	blb_dichoticlistening_ba-da.mp3	ba	da	1	right
6.6.1	win	2023-06-24	12:54:04	0	0	6290d930eb8f73a88e290de6	2	1	DL_test	14	DL_test	32			0		da	1	839	6	5	antiphase_hc_osi.wav	2	6	1	noise_calib_stim_LEFT.wav	1	8	blb_dichoticlistening_da-da.mp3	da	da	0	left
6.6.1	win	2023-06-24	12:54:04	0	0	6290d930eb8f73a88e290de6	2	1	DL_test	14	DL_test	33			0		pa	1	1053	6	5	antiphase_hc_osi.wav	2	6	1	noise_calib_stim_LEFT.wav	1	35	blb_dichoticlistening_ta-pa.mp3	ta	pa	1	right
6.6.1	win	2023-06-24	12:54:04	0	0	6290d930eb8f73a88e290de6	2	1	DL_test	14	DL_test	34			0		ga	1	1210	6	5	antiphase_hc_osi.wav	2	6	1	noise_calib_stim_LEFT.wav	1	14	blb_dichoticlistening_ga-da.mp3	ga	da	1	left
6.6.1	win	2023-06-24	12:54:04	0	0	6290d930eb8f73a88e290de6	2	1	DL_test	14	DL_test	35			0		ga	1	1257	6	5	antiphase_hc_osi.wav	2	6	1	noise_calib_stim_LEFT.wav	1	27	blb_dichoticlistening_pa-ga.mp3	pa	ga	1	right
6.6.1	win	2023-06-24	12:54:04	0	0	6290d930eb8f73a88e290de6	2	1	DL_test	14	DL_test	36			0		ga	0	823	6	5	antiphase_hc_osi.wav	2	6	1	noise_calib_stim_LEFT.wav	1	26	blb_dichoticlistening_pa-da.mp3	pa	da	1	other
6.6.1	win	2023-06-24	12:54:04	0	0	6290d930eb8f73a88e290de6	2	1	DL_test	15	DL_test	1			0		ga	1	1330	6	5	antiphase_hc_osi.wav	2	6	1	noise_calib_stim_LEFT.wav	1	27	blb_dichoticlistening_pa-ga.mp3	pa	ga	1	right
6.6.1	win	2023-06-24	12:54:04	0	0	6290d930eb8f73a88e290de6	2	1	DL_test	15	DL_test	2			0		ba	1	2320	6	5	antiphase_hc_osi.wav	2	6	1	noise_calib_stim_LEFT.wav	1	1	blb_dichoticlistening_ba-ba.mp3	ba	ba	0	left
6.6.1	win	2023-06-24	12:54:04	0	0	6290d930eb8f73a88e290de6	2	1	DL_test	15	DL_test	3			0		ga	1	2544	6	5	antiphase_hc_osi.wav	2	6	1	noise_calib_stim_LEFT.wav	1	3	blb_dichoticlistening_ba-ga.mp3	ba	ga	1	right
6.6.1	win	2023-06-24	12:54:04	0	0	6290d930eb8f73a88e290de6	2	1	DL_test	15	DL_test	4			0		pa	1	1303	6	5	antiphase_hc_osi.wav	2	6	1	noise_calib_stim_LEFT.wav	1	25	blb_dichoticlistening_pa-ba.mp3	pa	ba	1	left
6.6.1	win	2023-06-24	12:54:04	0	0	6290d930eb8f73a88e290de6	2	1	DL_test	15	DL_test	5			0		ka	1	1329	6	5	antiphase_hc_osi.wav	2	6	1	noise_calib_stim_LEFT.wav	1	28	blb_dichoticlistening_pa-ka.mp3	pa	ka	1	right
6.6.1	win	2023-06-24	12:54:04	0	0	6290d930eb8f73a88e290de6	2	1	DL_test	15	DL_test	6			0		da	1	1636	6	5	antiphase_hc_osi.wav	2	6	1	noise_calib_stim_LEFT.wav	1	7	blb_dichoticlistening_da-ba.mp3	da	ba	1	left
6.6.1	win	2023-06-24	12:54:04	0	0	6290d930eb8f73a88e290de6	2	1	DL_test	15	DL_test	7			0		da	1	861	6	5	antiphase_hc_osi.wav	2	6	1	noise_calib_stim_LEFT.wav	1	8	blb_dichoticlistening_da-da.mp3	da	da	0	left
6.6.1	win	2023-06-24	12:54:04	0	0	6290d930eb8f73a88e290de6	2	1	DL_test	15	DL_test	8			0		pa	1	1546	6	5	antiphase_hc_osi.wav	2	6	1	noise_calib_stim_LEFT.wav	1	11	blb_dichoticlistening_da-pa.mp3	da	pa	1	right
6.6.1	win	2023-06-24	12:54:04	0	0	6290d930eb8f73a88e290de6	2	1	DL_test	15	DL_test	9			0		ta	1	2699	6	5	antiphase_hc_osi.wav	2	6	1	noise_calib_stim_LEFT.wav	1	30	blb_dichoticlistening_pa-ta.mp3	pa	ta	1	right
6.6.1	win	2023-06-24	12:54:04	0	0	6290d930eb8f73a88e290de6	2	1	DL_test	15	DL_test	10			0		ga	0	1750	6	5	antiphase_hc_osi.wav	2	6	1	noise_calib_stim_LEFT.wav	1	20	blb_dichoticlistening_ka-da.mp3	ka	da	1	other
6.6.1	win	2023-06-24	12:54:04	0	0	6290d930eb8f73a88e290de6	2	1	DL_test	15	DL_test	11			0		ka	1	734	6	5	antiphase_hc_osi.wav	2	6	1	noise_calib_stim_LEFT.wav	1	4	blb_dichoticlistening_ba-ka.mp3	ba	ka	1	right
6.6.1	win	2023-06-24	12:54:04	0	0	6290d930eb8f73a88e290de6	2	1	DL_test	15	DL_test	12			0		ka	1	597	6	5	antiphase_hc_osi.wav	2	6	1	noise_calib_stim_LEFT.wav	1	34	blb_dichoticlistening_ta-ka.mp3	ta	ka	1	right
6.6.1	win	2023-06-24	12:54:04	0	0	6290d930eb8f73a88e290de6	2	1	DL_test	15	DL_test	13			0		pa	1	2297	6	5	antiphase_hc_osi.wav	2	6	1	noise_calib_stim_LEFT.wav	1	17	blb_dichoticlistening_ga-pa.mp3	ga	pa	1	right
6.6.1	win	2023-06-24	12:54:04	0	0	6290d930eb8f73a88e290de6	2	1	DL_test	15	DL_test	14			0		pa	1	1208	6	5	antiphase_hc_osi.wav	2	6	1	noise_calib_stim_LEFT.wav	1	5	blb_dichoticlistening_ba-pa.mp3	ba	pa	1	right
6.6.1	win	2023-06-24	12:54:04	0	0	6290d930eb8f73a88e290de6	2	1	DL_test	15	DL_test	15			0		ga	1	1338	6	5	antiphase_hc_osi.wav	2	6	1	noise_calib_stim_LEFT.wav	1	13	blb_dichoticlistening_ga-ba.mp3	ga	ba	1	left
6.6.1	win	2023-06-24	12:54:04	0	0	6290d930eb8f73a88e290de6	2	1	DL_test	15	DL_test	16			0		ka	1	841	6	5	antiphase_hc_osi.wav	2	6	1	noise_calib_stim_LEFT.wav	1	16	blb_dichoticlistening_ga-ka.mp3	ga	ka	1	right
6.6.1	win	2023-06-24	12:54:04	0	0	6290d930eb8f73a88e290de6	2	1	DL_test	15	DL_test	17			0		ga	1	1098	6	5	antiphase_hc_osi.wav	2	6	1	noise_calib_stim_LEFT.wav	1	21	blb_dichoticlistening_ka-ga.mp3	ka	ga	1	right
6.6.1	win	2023-06-24	12:54:04	0	0	6290d930eb8f73a88e290de6	2	1	DL_test	15	DL_test	18			0		ta	1	1201	6	5	antiphase_hc_osi.wav	2	6	1	noise_calib_stim_LEFT.wav	1	36	blb_dichoticlistening_ta-ta.mp3	ta	ta	0	left
6.6.1	win	2023-06-24	12:54:04	0	0	6290d930eb8f73a88e290de6	2	1	DL_test	15	DL_test	19			0		pa	1	927	6	5	antiphase_hc_osi.wav	2	6	1	noise_calib_stim_LEFT.wav	1	35	blb_dichoticlistening_ta-pa.mp3	ta	pa	1	right
6.6.1	win	2023-06-24	12:54:04	0	0	6290d930eb8f73a88e290de6	2	1	DL_test	15	DL_test	20			0		ga	1	874	6	5	antiphase_hc_osi.wav	2	6	1	noise_calib_stim_LEFT.wav	1	9	blb_dichoticlistening_da-ga.mp3	da	ga	1	right
6.6.1	win	2023-06-24	12:54:04	0	0	6290d930eb8f73a88e290de6	2	1	DL_test	15	DL_test	21			0		ka	1	954	6	5	antiphase_hc_osi.wav	2	6	1	noise_calib_stim_LEFT.wav	1	19	blb_dichoticlistening_ka-ba.mp3	ka	ba	1	left
6.6.1	win	2023-06-24	12:54:04	0	0	6290d930eb8f73a88e290de6	2	1	DL_test	15	DL_test	22			0		da	1	1077	6	5	antiphase_hc_osi.wav	2	6	1	noise_calib_stim_LEFT.wav	1	32	blb_dichoticlistening_ta-da.mp3	ta	da	1	right
6.6.1	win	2023-06-24	12:54:04	0	0	6290d930eb8f73a88e290de6	2	1	DL_test	15	DL_test	23			0		ka	0	707	6	5	antiphase_hc_osi.wav	2	6	1	noise_calib_stim_LEFT.wav	1	18	blb_dichoticlistening_ga-ta.mp3	ga	ta	1	other
6.6.1	win	2023-06-24	12:54:04	0	0	6290d930eb8f73a88e290de6	2	1	DL_test	15	DL_test	24			0		ta	1	1205	6	5	antiphase_hc_osi.wav	2	6	1	noise_calib_stim_LEFT.wav	1	12	blb_dichoticlistening_da-ta.mp3	da	ta	1	right
6.6.1	win	2023-06-24	12:54:04	0	0	6290d930eb8f73a88e290de6	2	1	DL_test	15	DL_test	25			0		pa	0	910	6	5	antiphase_hc_osi.wav	2	6	1	noise_calib_stim_LEFT.wav	1	10	blb_dichoticlistening_da-ka.mp3	da	ka	1	other
6.6.1	win	2023-06-24	12:54:04	0	0	6290d930eb8f73a88e290de6	2	1	DL_test	15	DL_test	26			0		pa	1	2915	6	5	antiphase_hc_osi.wav	2	6	1	noise_calib_stim_LEFT.wav	1	26	blb_dichoticlistening_pa-da.mp3	pa	da	1	left
6.6.1	win	2023-06-24	12:54:04	0	0	6290d930eb8f73a88e290de6	2	1	DL_test	15	DL_test	27			0		pa	0	594	6	5	antiphase_hc_osi.wav	2	6	1	noise_calib_stim_LEFT.wav	1	6	blb_dichoticlistening_ba-ta.mp3	ba	ta	1	other
6.6.1	win	2023-06-24	12:54:04	0	0	6290d930eb8f73a88e290de6	2	1	DL_test	15	DL_test	28			0		pa	1	1253	6	5	antiphase_hc_osi.wav	2	6	1	noise_calib_stim_LEFT.wav	1	29	blb_dichoticlistening_pa-pa.mp3	pa	pa	0	left
6.6.1	win	2023-06-24	12:54:04	0	0	6290d930eb8f73a88e290de6	2	1	DL_test	15	DL_test	29			0		ga	1	962	6	5	antiphase_hc_osi.wav	2	6	1	noise_calib_stim_LEFT.wav	1	14	blb_dichoticlistening_ga-da.mp3	ga	da	1	left
6.6.1	win	2023-06-24	12:54:04	0	0	6290d930eb8f73a88e290de6	2	1	DL_test	15	DL_test	30			0		ka	1	851	6	5	antiphase_hc_osi.wav	2	6	1	noise_calib_stim_LEFT.wav	1	23	blb_dichoticlistening_ka-pa.mp3	ka	pa	1	left
6.6.1	win	2023-06-24	12:54:04	0	0	6290d930eb8f73a88e290de6	2	1	DL_test	15	DL_test	31			0		ga	1	1039	6	5	antiphase_hc_osi.wav	2	6	1	noise_calib_stim_LEFT.wav	1	15	blb_dichoticlistening_ga-ga.mp3	ga	ga	0	left
6.6.1	win	2023-06-24	12:54:04	0	0	6290d930eb8f73a88e290de6	2	1	DL_test	15	DL_test	32			0		pa	0	1419	6	5	antiphase_hc_osi.wav	2	6	1	noise_calib_stim_LEFT.wav	1	31	blb_dichoticlistening_ta-ba.mp3	ta	ba	1	other
6.6.1	win	2023-06-24	12:54:04	0	0	6290d930eb8f73a88e290de6	2	1	DL_test	15	DL_test	33			0		ka	1	745	6	5	antiphase_hc_osi.wav	2	6	1	noise_calib_stim_LEFT.wav	1	22	blb_dichoticlistening_ka-ka.mp3	ka	ka	0	left
6.6.1	win	2023-06-24	12:54:04	0	0	6290d930eb8f73a88e290de6	2	1	DL_test	15	DL_test	34			0		ka	1	821	6	5	antiphase_hc_osi.wav	2	6	1	noise_calib_stim_LEFT.wav	1	24	blb_dichoticlistening_ka-ta.mp3	ka	ta	1	left
6.6.1	win	2023-06-24	12:54:04	0	0	6290d930eb8f73a88e290de6	2	1	DL_test	15	DL_test	35			0		ga	1	835	6	5	antiphase_hc_osi.wav	2	6	1	noise_calib_stim_LEFT.wav	1	33	blb_dichoticlistening_ta-ga.mp3	ta	ga	1	right
6.6.1	win	2023-06-24	12:54:04	0	0	6290d930eb8f73a88e290de6	2	1	DL_test	15	DL_test	36			0		da	1	1204	6	5	antiphase_hc_osi.wav	2	6	1	noise_calib_stim_LEFT.wav	1	2	blb_dichoticlistening_ba-da.mp3	ba	da	1	right
6.6.1	win	2023-06-24	12:54:04	0	0	6290d930eb8f73a88e290de6	2	1	DL_test	16	DL_test	1			0		pa	1	1144	6	5	antiphase_hc_osi.wav	2	6	1	noise_calib_stim_LEFT.wav	1	5	blb_dichoticlistening_ba-pa.mp3	ba	pa	1	right
6.6.1	win	2023-06-24	12:54:04	0	0	6290d930eb8f73a88e290de6	2	1	DL_test	16	DL_test	2			0		ga	1	711	6	5	antiphase_hc_osi.wav	2	6	1	noise_calib_stim_LEFT.wav	1	15	blb_dichoticlistening_ga-ga.mp3	ga	ga	0	left
6.6.1	win	2023-06-24	12:54:04	0	0	6290d930eb8f73a88e290de6	2	1	DL_test	16	DL_test	3			0		ka	1	591	6	5	antiphase_hc_osi.wav	2	6	1	noise_calib_stim_LEFT.wav	1	34	blb_dichoticlistening_ta-ka.mp3	ta	ka	1	right
6.6.1	win	2023-06-24	12:54:04	0	0	6290d930eb8f73a88e290de6	2	1	DL_test	16	DL_test	4			0		ka	1	1674	6	5	antiphase_hc_osi.wav	2	6	1	noise_calib_stim_LEFT.wav	1	19	blb_dichoticlistening_ka-ba.mp3	ka	ba	1	left
6.6.1	win	2023-06-24	12:54:04	0	0	6290d930eb8f73a88e290de6	2	1	DL_test	16	DL_test	5			0		ka	1	582	6	5	antiphase_hc_osi.wav	2	6	1	noise_calib_stim_LEFT.wav	1	28	blb_dichoticlistening_pa-ka.mp3	pa	ka	1	right
6.6.1	win	2023-06-24	12:54:04	0	0	6290d930eb8f73a88e290de6	2	1	DL_test	16	DL_test	6			0		pa	1	949	6	5	antiphase_hc_osi.wav	2	6	1	noise_calib_stim_LEFT.wav	1	35	blb_dichoticlistening_ta-pa.mp3	ta	pa	1	right
6.6.1	win	2023-06-24	12:54:04	0	0	6290d930eb8f73a88e290de6	2	1	DL_test	16	DL_test	7			0		ka	1	986	6	5	antiphase_hc_osi.wav	2	6	1	noise_calib_stim_LEFT.wav	1	23	blb_dichoticlistening_ka-pa.mp3	ka	pa	1	left
6.6.1	win	2023-06-24	12:54:04	0	0	6290d930eb8f73a88e290de6	2	1	DL_test	16	DL_test	8			0		ka	1	974	6	5	antiphase_hc_osi.wav	2	6	1	noise_calib_stim_LEFT.wav	1	16	blb_dichoticlistening_ga-ka.mp3	ga	ka	1	right
6.6.1	win	2023-06-24	12:54:04	0	0	6290d930eb8f73a88e290de6	2	1	DL_test	16	DL_test	9			0		ta	1	1171	6	5	antiphase_hc_osi.wav	2	6	1	noise_calib_stim_LEFT.wav	1	12	blb_dichoticlistening_da-ta.mp3	da	ta	1	right
6.6.1	win	2023-06-24	12:54:04	0	0	6290d930eb8f73a88e290de6	2	1	DL_test	16	DL_test	10			0		pa	1	763	6	5	antiphase_hc_osi.wav	2	6	1	noise_calib_stim_LEFT.wav	1	11	blb_dichoticlistening_da-pa.mp3	da	pa	1	right
6.6.1	win	2023-06-24	12:54:04	0	0	6290d930eb8f73a88e290de6	2	1	DL_test	16	DL_test	11			0		pa	1	889	6	5	antiphase_hc_osi.wav	2	6	1	noise_calib_stim_LEFT.wav	1	25	blb_dichoticlistening_pa-ba.mp3	pa	ba	1	left
6.6.1	win	2023-06-24	12:54:04	0	0	6290d930eb8f73a88e290de6	2	1	DL_test	16	DL_test	12			0		ga	0	1094	6	5	antiphase_hc_osi.wav	2	6	1	noise_calib_stim_LEFT.wav	1	20	blb_dichoticlistening_ka-da.mp3	ka	da	1	other
6.6.1	win	2023-06-24	12:54:04	0	0	6290d930eb8f73a88e290de6	2	1	DL_test	16	DL_test	13			0		ga	1	630	6	5	antiphase_hc_osi.wav	2	6	1	noise_calib_stim_LEFT.wav	1	27	blb_dichoticlistening_pa-ga.mp3	pa	ga	1	right
6.6.1	win	2023-06-24	12:54:04	0	0	6290d930eb8f73a88e290de6	2	1	DL_test	16	DL_test	14			0		pa	0	709	6	5	antiphase_hc_osi.wav	2	6	1	noise_calib_stim_LEFT.wav	1	10	blb_dichoticlistening_da-ka.mp3	da	ka	1	other
6.6.1	win	2023-06-24	12:54:04	0	0	6290d930eb8f73a88e290de6	2	1	DL_test	16	DL_test	15			0		da	1	1147	6	5	antiphase_hc_osi.wav	2	6	1	noise_calib_stim_LEFT.wav	1	8	blb_dichoticlistening_da-da.mp3	da	da	0	left
6.6.1	win	2023-06-24	12:54:04	0	0	6290d930eb8f73a88e290de6	2	1	DL_test	16	DL_test	16			0		ga	1	994	6	5	antiphase_hc_osi.wav	2	6	1	noise_calib_stim_LEFT.wav	1	3	blb_dichoticlistening_ba-ga.mp3	ba	ga	1	right
6.6.1	win	2023-06-24	12:54:04	0	0	6290d930eb8f73a88e290de6	2	1	DL_test	16	DL_test	17			0		ka	1	747	6	5	antiphase_hc_osi.wav	2	6	1	noise_calib_stim_LEFT.wav	1	24	blb_dichoticlistening_ka-ta.mp3	ka	ta	1	left
6.6.1	win	2023-06-24	12:54:04	0	0	6290d930eb8f73a88e290de6	2	1	DL_test	16	DL_test	18			0		da	1	1151	6	5	antiphase_hc_osi.wav	2	6	1	noise_calib_stim_LEFT.wav	1	32	blb_dichoticlistening_ta-da.mp3	ta	da	1	right
6.6.1	win	2023-06-24	12:54:04	0	0	6290d930eb8f73a88e290de6	2	1	DL_test	16	DL_test	19			0		ta	1	1541	6	5	antiphase_hc_osi.wav	2	6	1	noise_calib_stim_LEFT.wav	1	6	blb_dichoticlistening_ba-ta.mp3	ba	ta	1	right
6.6.1	win	2023-06-24	12:54:04	0	0	6290d930eb8f73a88e290de6	2	1	DL_test	16	DL_test	20			0		da	1	855	6	5	antiphase_hc_osi.wav	2	6	1	noise_calib_stim_LEFT.wav	1	2	blb_dichoticlistening_ba-da.mp3	ba	da	1	right
6.6.1	win	2023-06-24	12:54:04	0	0	6290d930eb8f73a88e290de6	2	1	DL_test	16	DL_test	21			0		ka	1	853	6	5	antiphase_hc_osi.wav	2	6	1	noise_calib_stim_LEFT.wav	1	4	blb_dichoticlistening_ba-ka.mp3	ba	ka	1	right
6.6.1	win	2023-06-24	12:54:04	0	0	6290d930eb8f73a88e290de6	2	1	DL_test	16	DL_test	22			0		ka	0	1258	6	5	antiphase_hc_osi.wav	2	6	1	noise_calib_stim_LEFT.wav	1	31	blb_dichoticlistening_ta-ba.mp3	ta	ba	1	other
6.6.1	win	2023-06-24	12:54:04	0	0	6290d930eb8f73a88e290de6	2	1	DL_test	16	DL_test	23			0		ga	1	835	6	5	antiphase_hc_osi.wav	2	6	1	noise_calib_stim_LEFT.wav	1	33	blb_dichoticlistening_ta-ga.mp3	ta	ga	1	right
6.6.1	win	2023-06-24	12:54:04	0	0	6290d930eb8f73a88e290de6	2	1	DL_test	16	DL_test	24			0		ka	0	681	6	5	antiphase_hc_osi.wav	2	6	1	noise_calib_stim_LEFT.wav	1	18	blb_dichoticlistening_ga-ta.mp3	ga	ta	1	other
6.6.1	win	2023-06-24	12:54:04	0	0	6290d930eb8f73a88e290de6	2	1	DL_test	16	DL_test	25			0		ka	1	818	6	5	antiphase_hc_osi.wav	2	6	1	noise_calib_stim_LEFT.wav	1	22	blb_dichoticlistening_ka-ka.mp3	ka	ka	0	left
6.6.1	win	2023-06-24	12:54:04	0	0	6290d930eb8f73a88e290de6	2	1	DL_test	16	DL_test	26			0		pa	1	1399	6	5	antiphase_hc_osi.wav	2	6	1	noise_calib_stim_LEFT.wav	1	17	blb_dichoticlistening_ga-pa.mp3	ga	pa	1	right
6.6.1	win	2023-06-24	12:54:04	0	0	6290d930eb8f73a88e290de6	2	1	DL_test	16	DL_test	27			0		da	1	948	6	5	antiphase_hc_osi.wav	2	6	1	noise_calib_stim_LEFT.wav	1	14	blb_dichoticlistening_ga-da.mp3	ga	da	1	right
6.6.1	win	2023-06-24	12:54:04	0	0	6290d930eb8f73a88e290de6	2	1	DL_test	16	DL_test	28			0		da	1	1619	6	5	antiphase_hc_osi.wav	2	6	1	noise_calib_stim_LEFT.wav	1	7	blb_dichoticlistening_da-ba.mp3	da	ba	1	left
6.6.1	win	2023-06-24	12:54:04	0	0	6290d930eb8f73a88e290de6	2	1	DL_test	16	DL_test	29			0		ga	1	781	6	5	antiphase_hc_osi.wav	2	6	1	noise_calib_stim_LEFT.wav	1	9	blb_dichoticlistening_da-ga.mp3	da	ga	1	right
6.6.1	win	2023-06-24	12:54:04	0	0	6290d930eb8f73a88e290de6	2	1	DL_test	16	DL_test	30			0		pa	1	896	6	5	antiphase_hc_osi.wav	2	6	1	noise_calib_stim_LEFT.wav	1	29	blb_dichoticlistening_pa-pa.mp3	pa	pa	0	left
6.6.1	win	2023-06-24	12:54:04	0	0	6290d930eb8f73a88e290de6	2	1	DL_test	16	DL_test	31			0		da	0	983	6	5	antiphase_hc_osi.wav	2	6	1	noise_calib_stim_LEFT.wav	1	1	blb_dichoticlistening_ba-ba.mp3	ba	ba	0	other
6.6.1	win	2023-06-24	12:54:04	0	0	6290d930eb8f73a88e290de6	2	1	DL_test	16	DL_test	32			0		ba	1	997	6	5	antiphase_hc_osi.wav	2	6	1	noise_calib_stim_LEFT.wav	1	13	blb_dichoticlistening_ga-ba.mp3	ga	ba	1	right
6.6.1	win	2023-06-24	12:54:04	0	0	6290d930eb8f73a88e290de6	2	1	DL_test	16	DL_test	33			0		pa	1	1123	6	5	antiphase_hc_osi.wav	2	6	1	noise_calib_stim_LEFT.wav	1	30	blb_dichoticlistening_pa-ta.mp3	pa	ta	1	left
6.6.1	win	2023-06-24	12:54:04	0	0	6290d930eb8f73a88e290de6	2	1	DL_test	16	DL_test	34			0		ka	1	1070	6	5	antiphase_hc_osi.wav	2	6	1	noise_calib_stim_LEFT.wav	1	21	blb_dichoticlistening_ka-ga.mp3	ka	ga	1	left
6.6.1	win	2023-06-24	12:54:04	0	0	6290d930eb8f73a88e290de6	2	1	DL_test	16	DL_test	35			0		ta	1	1101	6	5	antiphase_hc_osi.wav	2	6	1	noise_calib_stim_LEFT.wav	1	36	blb_dichoticlistening_ta-ta.mp3	ta	ta	0	left
6.6.1	win	2023-06-24	12:54:04	0	0	6290d930eb8f73a88e290de6	2	1	DL_test	16	DL_test	36			0		da	1	1116	6	5	antiphase_hc_osi.wav	2	6	1	noise_calib_stim_LEFT.wav	1	26	blb_dichoticlistening_pa-da.mp3	pa	da	1	right
6.6.1	win	2023-06-24	12:54:04	13:04:54	647213	6290d930eb8f73a88e290de6	2	1	practice_z	22	practice_z	1	stimuli_target_squarediamonds.svg	stimuli_distractor_trianglediamonds.svg	5	yes	44	1	734	6	5	antiphase_hc_osi.wav	2	6	1	noise_calib_stim_LEFT.wav	1	26	blb_dichoticlistening_pa-da.mp3	pa	da	1	right
6.6.1	win	2023-06-24	12:54:04	13:04:54	647213	6290d930eb8f73a88e290de6	2	1	practice_z	22	advance_on_keypress_ZEE	2	stimuli_target_squarediamonds.svg	stimuli_distractor_trianglediamonds.svg	5	yes	57	0	1488	6	5	antiphase_hc_osi.wav	2	6	1	noise_calib_stim_LEFT.wav	1	26	blb_dichoticlistening_pa-da.mp3	pa	da	1	right
6.6.1	win	2023-06-24	12:54:04	13:04:58	651265	6290d930eb8f73a88e290de6	2	1	practice_z	22	practice_z	3	stimuli_distractor_trianglediamonds.svg	stimuli_target_diamondrectangles.svg	12	yes	44	1	923	6	5	antiphase_hc_osi.wav	2	6	1	noise_calib_stim_LEFT.wav	1	26	blb_dichoticlistening_pa-da.mp3	pa	da	1	right
6.6.1	win	2023-06-24	12:54:04	13:04:58	651265	6290d930eb8f73a88e290de6	2	1	practice_z	22	advance_on_keypress_ZEE	4	stimuli_distractor_trianglediamonds.svg	stimuli_target_diamondrectangles.svg	12	yes	57	0	558	6	5	antiphase_hc_osi.wav	2	6	1	noise_calib_stim_LEFT.wav	1	26	blb_dichoticlistening_pa-da.mp3	pa	da	1	right
6.6.1	win	2023-06-24	12:54:04	13:05:01	654578	6290d930eb8f73a88e290de6	2	1	practice_z	22	practice_z	5	stimuli_target_diamondsquares.svg	stimuli_distractor_trianglediamonds.svg	6	yes	44	1	1119	6	5	antiphase_hc_osi.wav	2	6	1	noise_calib_stim_LEFT.wav	1	26	blb_dichoticlistening_pa-da.mp3	pa	da	1	right
6.6.1	win	2023-06-24	12:54:04	13:05:01	654578	6290d930eb8f73a88e290de6	2	1	practice_z	22	advance_on_keypress_ZEE	6	stimuli_target_diamondsquares.svg	stimuli_distractor_trianglediamonds.svg	6	yes	57	0	393	6	5	antiphase_hc_osi.wav	2	6	1	noise_calib_stim_LEFT.wav	1	26	blb_dichoticlistening_pa-da.mp3	pa	da	1	right
6.6.1	win	2023-06-24	12:54:04	13:05:05	658609	6290d930eb8f73a88e290de6	2	1	practice_z	22	practice_z	7	stimuli_distractor_diamondtriangles.svg	stimuli_target_rectangletriangles.svg	7	yes	0	0	2000	6	5	antiphase_hc_osi.wav	2	6	1	noise_calib_stim_LEFT.wav	1	26	blb_dichoticlistening_pa-da.mp3	pa	da	1	right
6.6.1	win	2023-06-24	12:54:04	13:05:05	658609	6290d930eb8f73a88e290de6	2	1	practice_z	22	advance_on_keypress_ZEE	8	stimuli_distractor_diamondtriangles.svg	stimuli_target_rectangletriangles.svg	7	yes	57	0	760	6	5	antiphase_hc_osi.wav	2	6	1	noise_calib_stim_LEFT.wav	1	26	blb_dichoticlistening_pa-da.mp3	pa	da	1	right
6.6.1	win	2023-06-24	12:54:04	13:05:10	663009	6290d930eb8f73a88e290de6	2	1	practice_z	22	practice_z	9	stimuli_distractor_diamondtriangles.svg	stimuli_distractor_diamondtriangles.svg	13	no	0	1	2000	6	5	antiphase_hc_osi.wav	2	6	1	noise_calib_stim_LEFT.wav	1	26	blb_dichoticlistening_pa-da.mp3	pa	da	1	right
6.6.1	win	2023-06-24	12:54:04	13:05:10	663009	6290d930eb8f73a88e290de6	2	1	practice_z	22	advance_on_keypress_ZEE	10	stimuli_distractor_diamondtriangles.svg	stimuli_distractor_diamondtriangles.svg	13	no	57	0	1672	6	5	antiphase_hc_osi.wav	2	6	1	noise_calib_stim_LEFT.wav	1	26	blb_dichoticlistening_pa-da.mp3	pa	da	1	right
6.6.1	win	2023-06-24	12:54:04	13:05:14	667258	6290d930eb8f73a88e290de6	2	1	practice_z	22	practice_z	11	stimuli_distractor_diamondtriangles.svg	stimuli_target_trianglerectangles.svg	9	yes	44	1	932	6	5	antiphase_hc_osi.wav	2	6	1	noise_calib_stim_LEFT.wav	1	26	blb_dichoticlistening_pa-da.mp3	pa	da	1	right
6.6.1	win	2023-06-24	12:54:04	13:05:14	667258	6290d930eb8f73a88e290de6	2	1	practice_z	22	advance_on_keypress_ZEE	12	stimuli_distractor_diamondtriangles.svg	stimuli_target_trianglerectangles.svg	9	yes	57	0	446	6	5	antiphase_hc_osi.wav	2	6	1	noise_calib_stim_LEFT.wav	1	26	blb_dichoticlistening_pa-da.mp3	pa	da	1	right
6.6.1	win	2023-06-24	12:54:04	13:05:17	669962	6290d930eb8f73a88e290de6	2	1	practice_z	22	practice_z	13	stimuli_distractor_diamondtriangles.svg	stimuli_target_diamondrectangles.svg	8	yes	44	1	619	6	5	antiphase_hc_osi.wav	2	6	1	noise_calib_stim_LEFT.wav	1	26	blb_dichoticlistening_pa-da.mp3	pa	da	1	right
6.6.1	win	2023-06-24	12:54:04	13:05:17	669962	6290d930eb8f73a88e290de6	2	1	practice_z	22	advance_on_keypress_ZEE	14	stimuli_distractor_diamondtriangles.svg	stimuli_target_diamondrectangles.svg	8	yes	57	0	418	6	5	antiphase_hc_osi.wav	2	6	1	noise_calib_stim_LEFT.wav	1	26	blb_dichoticlistening_pa-da.mp3	pa	da	1	right
6.6.1	win	2023-06-24	12:54:04	13:05:20	672818	6290d930eb8f73a88e290de6	2	1	practice_z	22	practice_z	15	stimuli_distractor_trianglediamonds.svg	stimuli_target_squarediamonds.svg	11	yes	44	1	792	6	5	antiphase_hc_osi.wav	2	6	1	noise_calib_stim_LEFT.wav	1	26	blb_dichoticlistening_pa-da.mp3	pa	da	1	right
6.6.1	win	2023-06-24	12:54:04	13:05:20	672818	6290d930eb8f73a88e290de6	2	1	practice_z	22	advance_on_keypress_ZEE	16	stimuli_distractor_trianglediamonds.svg	stimuli_target_squarediamonds.svg	11	yes	57	0	368	6	5	antiphase_hc_osi.wav	2	6	1	noise_calib_stim_LEFT.wav	1	26	blb_dichoticlistening_pa-da.mp3	pa	da	1	right
6.6.1	win	2023-06-24	12:54:04	13:05:22	675402	6290d930eb8f73a88e290de6	2	1	practice_z	22	practice_z	17	stimuli_target_diamondsquares.svg	stimuli_distractor_diamondtriangles.svg	3	yes	44	1	576	6	5	antiphase_hc_osi.wav	2	6	1	noise_calib_stim_LEFT.wav	1	26	blb_dichoticlistening_pa-da.mp3	pa	da	1	right
6.6.1	win	2023-06-24	12:54:04	13:05:22	675402	6290d930eb8f73a88e290de6	2	1	practice_z	22	advance_on_keypress_ZEE	18	stimuli_target_diamondsquares.svg	stimuli_distractor_diamondtriangles.svg	3	yes	57	0	545	6	5	antiphase_hc_osi.wav	2	6	1	noise_calib_stim_LEFT.wav	1	26	blb_dichoticlistening_pa-da.mp3	pa	da	1	right
6.6.1	win	2023-06-24	12:54:04	13:05:26	678842	6290d930eb8f73a88e290de6	2	1	practice_z	22	practice_z	19	stimuli_target_rectanglediamonds.svg	stimuli_distractor_trianglediamonds.svg	4	yes	44	1	1249	6	5	antiphase_hc_osi.wav	2	6	1	noise_calib_stim_LEFT.wav	1	26	blb_dichoticlistening_pa-da.mp3	pa	da	1	right
6.6.1	win	2023-06-24	12:54:04	13:05:26	678842	6290d930eb8f73a88e290de6	2	1	practice_z	22	advance_on_keypress_ZEE	20	stimuli_target_rectanglediamonds.svg	stimuli_distractor_trianglediamonds.svg	4	yes	57	0	1207	6	5	antiphase_hc_osi.wav	2	6	1	noise_calib_stim_LEFT.wav	1	26	blb_dichoticlistening_pa-da.mp3	pa	da	1	right
6.6.1	win	2023-06-24	12:54:04	13:05:30	683692	6290d930eb8f73a88e290de6	2	1	practice_z	22	practice_z	21	stimuli_distractor_diamondtriangles.svg	stimuli_distractor_trianglediamonds.svg	14	no	0	1	2000	6	5	antiphase_hc_osi.wav	2	6	1	noise_calib_stim_LEFT.wav	1	26	blb_dichoticlistening_pa-da.mp3	pa	da	1	right
6.6.1	win	2023-06-24	12:54:04	13:05:30	683692	6290d930eb8f73a88e290de6	2	1	practice_z	22	advance_on_keypress_ZEE	22	stimuli_distractor_diamondtriangles.svg	stimuli_distractor_trianglediamonds.svg	14	no	57	0	421	6	5	antiphase_hc_osi.wav	2	6	1	noise_calib_stim_LEFT.wav	1	26	blb_dichoticlistening_pa-da.mp3	pa	da	1	right
6.6.1	win	2023-06-24	12:54:04	13:05:34	687759	6290d930eb8f73a88e290de6	2	1	practice_z	22	practice_z	23	stimuli_distractor_trianglediamonds.svg	stimuli_distractor_trianglediamonds.svg	15	no	0	1	2000	6	5	antiphase_hc_osi.wav	2	6	1	noise_calib_stim_LEFT.wav	1	26	blb_dichoticlistening_pa-da.mp3	pa	da	1	right
6.6.1	win	2023-06-24	12:54:04	13:05:34	687759	6290d930eb8f73a88e290de6	2	1	practice_z	22	advance_on_keypress_ZEE	24	stimuli_distractor_trianglediamonds.svg	stimuli_distractor_trianglediamonds.svg	15	no	57	0	234	6	5	antiphase_hc_osi.wav	2	6	1	noise_calib_stim_LEFT.wav	1	26	blb_dichoticlistening_pa-da.mp3	pa	da	1	right
6.6.1	win	2023-06-24	12:54:04	13:05:38	690793	6290d930eb8f73a88e290de6	2	1	practice_z	22	practice_z	25	stimuli_distractor_trianglediamonds.svg	stimuli_target_rectanglediamonds.svg	10	yes	44	1	1151	6	5	antiphase_hc_osi.wav	2	6	1	noise_calib_stim_LEFT.wav	1	26	blb_dichoticlistening_pa-da.mp3	pa	da	1	right
6.6.1	win	2023-06-24	12:54:04	13:05:38	690793	6290d930eb8f73a88e290de6	2	1	practice_z	22	advance_on_keypress_ZEE	26	stimuli_distractor_trianglediamonds.svg	stimuli_target_rectanglediamonds.svg	10	yes	57	0	417	6	5	antiphase_hc_osi.wav	2	6	1	noise_calib_stim_LEFT.wav	1	26	blb_dichoticlistening_pa-da.mp3	pa	da	1	right
6.6.1	win	2023-06-24	12:54:04	13:05:40	693482	6290d930eb8f73a88e290de6	2	1	practice_z	22	practice_z	27	stimuli_target_rectanglediamonds.svg	stimuli_distractor_diamondtriangles.svg	1	yes	44	1	623	6	5	antiphase_hc_osi.wav	2	6	1	noise_calib_stim_LEFT.wav	1	26	blb_dichoticlistening_pa-da.mp3	pa	da	1	right
6.6.1	win	2023-06-24	12:54:04	13:05:40	693482	6290d930eb8f73a88e290de6	2	1	practice_z	22	advance_on_keypress_ZEE	28	stimuli_target_rectanglediamonds.svg	stimuli_distractor_diamondtriangles.svg	1	yes	57	0	261	6	5	antiphase_hc_osi.wav	2	6	1	noise_calib_stim_LEFT.wav	1	26	blb_dichoticlistening_pa-da.mp3	pa	da	1	right
6.6.1	win	2023-06-24	12:54:04	13:05:44	697376	6290d930eb8f73a88e290de6	2	1	practice_z	22	practice_z	29	stimuli_distractor_trianglediamonds.svg	stimuli_distractor_diamondtriangles.svg	16	no	0	1	2000	6	5	antiphase_hc_osi.wav	2	6	1	noise_calib_stim_LEFT.wav	1	26	blb_dichoticlistening_pa-da.mp3	pa	da	1	right
6.6.1	win	2023-06-24	12:54:04	13:05:44	697376	6290d930eb8f73a88e290de6	2	1	practice_z	22	advance_on_keypress_ZEE	30	stimuli_distractor_trianglediamonds.svg	stimuli_distractor_diamondtriangles.svg	16	no	57	0	81	6	5	antiphase_hc_osi.wav	2	6	1	noise_calib_stim_LEFT.wav	1	26	blb_dichoticlistening_pa-da.mp3	pa	da	1	right
6.6.1	win	2023-06-24	12:54:04	13:05:46	699665	6290d930eb8f73a88e290de6	2	1	practice_z	22	practice_z	31	stimuli_target_squarediamonds.svg	stimuli_distractor_diamondtriangles.svg	2	yes	44	1	557	6	5	antiphase_hc_osi.wav	2	6	1	noise_calib_stim_LEFT.wav	1	26	blb_dichoticlistening_pa-da.mp3	pa	da	1	right
6.6.1	win	2023-06-24	12:54:04	13:05:46	699665	6290d930eb8f73a88e290de6	2	1	practice_z	22	advance_on_keypress_ZEE	32	stimuli_target_squarediamonds.svg	stimuli_distractor_diamondtriangles.svg	2	yes	57	0	246	6	5	antiphase_hc_osi.wav	2	6	1	noise_calib_stim_LEFT.wav	1	26	blb_dichoticlistening_pa-da.mp3	pa	da	1	right
6.6.1	win	2023-06-24	12:54:04	13:05:55	708465	6290d930eb8f73a88e290de6	2	1	main_z	24	main_z	1	stimuli_target_diamondsquares.svg	stimuli_distractor_trianglediamonds.svg	20	yes	44	1	573	6	5	antiphase_hc_osi.wav	2	6	1	noise_calib_stim_LEFT.wav	1	26	blb_dichoticlistening_pa-da.mp3	pa	da	1	right
6.6.1	win	2023-06-24	12:54:04	13:05:55	708465	6290d930eb8f73a88e290de6	2	1	main_z	24	advance_on_keypress_ZEE	2	stimuli_target_diamondsquares.svg	stimuli_distractor_trianglediamonds.svg	20	yes	57	0	702	6	5	antiphase_hc_osi.wav	2	6	1	noise_calib_stim_LEFT.wav	1	26	blb_dichoticlistening_pa-da.mp3	pa	da	1	right
6.6.1	win	2023-06-24	12:54:04	13:05:57	710377	6290d930eb8f73a88e290de6	2	1	main_z	24	main_z	3	stimuli_target_rectanglediamonds.svg	stimuli_distractor_diamondtriangles.svg	6	yes	44	1	569	6	5	antiphase_hc_osi.wav	2	6	1	noise_calib_stim_LEFT.wav	1	26	blb_dichoticlistening_pa-da.mp3	pa	da	1	right
6.6.1	win	2023-06-24	12:54:04	13:05:57	710377	6290d930eb8f73a88e290de6	2	1	main_z	24	advance_on_keypress_ZEE	4	stimuli_target_rectanglediamonds.svg	stimuli_distractor_diamondtriangles.svg	6	yes	57	0	209	6	5	antiphase_hc_osi.wav	2	6	1	noise_calib_stim_LEFT.wav	1	26	blb_dichoticlistening_pa-da.mp3	pa	da	1	right
6.6.1	win	2023-06-24	12:54:04	13:05:58	711745	6290d930eb8f73a88e290de6	2	1	main_z	24	main_z	5	stimuli_target_squarediamonds.svg	stimuli_distractor_diamondtriangles.svg	8	yes	44	1	520	6	5	antiphase_hc_osi.wav	2	6	1	noise_calib_stim_LEFT.wav	1	26	blb_dichoticlistening_pa-da.mp3	pa	da	1	right
6.6.1	win	2023-06-24	12:54:04	13:05:58	711745	6290d930eb8f73a88e290de6	2	1	main_z	24	advance_on_keypress_ZEE	6	stimuli_target_squarediamonds.svg	stimuli_distractor_diamondtriangles.svg	8	yes	57	0	259	6	5	antiphase_hc_osi.wav	2	6	1	noise_calib_stim_LEFT.wav	1	26	blb_dichoticlistening_pa-da.mp3	pa	da	1	right
6.6.1	win	2023-06-24	12:54:04	13:06:01	714642	6290d930eb8f73a88e290de6	2	1	main_z	24	main_z	7	stimuli_distractor_trianglediamonds.svg	stimuli_target_rectangletriangles.svg	9	yes	0	0	2000	6	5	antiphase_hc_osi.wav	2	6	1	noise_calib_stim_LEFT.wav	1	26	blb_dichoticlistening_pa-da.mp3	pa	da	1	right
6.6.1	win	2023-06-24	12:54:04	13:06:01	714642	6290d930eb8f73a88e290de6	2	1	main_z	24	advance_on_keypress_ZEE	8	stimuli_distractor_trianglediamonds.svg	stimuli_target_rectangletriangles.svg	9	yes	57	0	359	6	5	antiphase_hc_osi.wav	2	6	1	noise_calib_stim_LEFT.wav	1	26	blb_dichoticlistening_pa-da.mp3	pa	da	1	right
6.6.1	win	2023-06-24	12:54:04	13:06:03	716201	6290d930eb8f73a88e290de6	2	1	main_z	24	main_z	9	stimuli_target_squaretriangles.svg	stimuli_distractor_diamondtriangles.svg	7	yes	44	1	559	6	5	antiphase_hc_osi.wav	2	6	1	noise_calib_stim_LEFT.wav	1	26	blb_dichoticlistening_pa-da.mp3	pa	da	1	right
6.6.1	win	2023-06-24	12:54:04	13:06:03	716201	6290d930eb8f73a88e290de6	2	1	main_z	24	advance_on_keypress_ZEE	10	stimuli_target_squaretriangles.svg	stimuli_distractor_diamondtriangles.svg	7	yes	57	0	425	6	5	antiphase_hc_osi.wav	2	6	1	noise_calib_stim_LEFT.wav	1	26	blb_dichoticlistening_pa-da.mp3	pa	da	1	right
6.6.1	win	2023-06-24	12:54:04	13:06:05	717774	6290d930eb8f73a88e290de6	2	1	main_z	24	main_z	11	stimuli_distractor_diamondtriangles.svg	stimuli_target_squaretriangles.svg	15	yes	44	1	511	6	5	antiphase_hc_osi.wav	2	6	1	noise_calib_stim_LEFT.wav	1	26	blb_dichoticlistening_pa-da.mp3	pa	da	1	right
6.6.1	win	2023-06-24	12:54:04	13:06:05	717774	6290d930eb8f73a88e290de6	2	1	main_z	24	advance_on_keypress_ZEE	12	stimuli_distractor_diamondtriangles.svg	stimuli_target_squaretriangles.svg	15	yes	57	0	305	6	5	antiphase_hc_osi.wav	2	6	1	noise_calib_stim_LEFT.wav	1	26	blb_dichoticlistening_pa-da.mp3	pa	da	1	right
6.6.1	win	2023-06-24	12:54:04	13:06:07	720145	6290d930eb8f73a88e290de6	2	1	main_z	24	main_z	13	stimuli_distractor_trianglediamonds.svg	stimuli_distractor_diamondtriangles.svg	36	no	44	0	1420	6	5	antiphase_hc_osi.wav	2	6	1	noise_calib_stim_LEFT.wav	1	26	blb_dichoticlistening_pa-da.mp3	pa	da	1	right
6.6.1	win	2023-06-24	12:54:04	13:06:07	720145	6290d930eb8f73a88e290de6	2	1	main_z	24	advance_on_keypress_ZEE	14	stimuli_distractor_trianglediamonds.svg	stimuli_distractor_diamondtriangles.svg	36	no	57	0	419	6	5	antiphase_hc_osi.wav	2	6	1	noise_calib_stim_LEFT.wav	1	26	blb_dichoticlistening_pa-da.mp3	pa	da	1	right
6.6.1	win	2023-06-24	12:54:04	13:06:10	723209	6290d930eb8f73a88e290de6	2	1	main_z	24	main_z	15	stimuli_distractor_trianglediamonds.svg	stimuli_distractor_diamondtriangles.svg	35	no	0	1	2000	6	5	antiphase_hc_osi.wav	2	6	1	noise_calib_stim_LEFT.wav	1	26	blb_dichoticlistening_pa-da.mp3	pa	da	1	right
6.6.1	win	2023-06-24	12:54:04	13:06:10	723209	6290d930eb8f73a88e290de6	2	1	main_z	24	advance_on_keypress_ZEE	16	stimuli_distractor_trianglediamonds.svg	stimuli_distractor_diamondtriangles.svg	35	no	57	0	456	6	5	antiphase_hc_osi.wav	2	6	1	noise_calib_stim_LEFT.wav	1	26	blb_dichoticlistening_pa-da.mp3	pa	da	1	right
6.6.1	win	2023-06-24	12:54:04	13:06:13	726309	6290d930eb8f73a88e290de6	2	1	main_z	24	main_z	17	stimuli_distractor_diamondtriangles.svg	stimuli_distractor_trianglediamonds.svg	37	no	0	1	2000	6	5	antiphase_hc_osi.wav	2	6	1	noise_calib_stim_LEFT.wav	1	26	blb_dichoticlistening_pa-da.mp3	pa	da	1	right
6.6.1	win	2023-06-24	12:54:04	13:06:13	726309	6290d930eb8f73a88e290de6	2	1	main_z	24	advance_on_keypress_ZEE	18	stimuli_distractor_diamondtriangles.svg	stimuli_distractor_trianglediamonds.svg	37	no	57	0	300	6	5	antiphase_hc_osi.wav	2	6	1	noise_calib_stim_LEFT.wav	1	26	blb_dichoticlistening_pa-da.mp3	pa	da	1	right
6.6.1	win	2023-06-24	12:54:04	13:06:16	729259	6290d930eb8f73a88e290de6	2	1	main_z	24	main_z	19	stimuli_distractor_diamondtriangles.svg	stimuli_distractor_diamondtriangles.svg	39	no	0	1	2000	6	5	antiphase_hc_osi.wav	2	6	1	noise_calib_stim_LEFT.wav	1	26	blb_dichoticlistening_pa-da.mp3	pa	da	1	right
6.6.1	win	2023-06-24	12:54:04	13:06:16	729259	6290d930eb8f73a88e290de6	2	1	main_z	24	advance_on_keypress_ZEE	20	stimuli_distractor_diamondtriangles.svg	stimuli_distractor_diamondtriangles.svg	39	no	57	0	566	6	5	antiphase_hc_osi.wav	2	6	1	noise_calib_stim_LEFT.wav	1	26	blb_dichoticlistening_pa-da.mp3	pa	da	1	right
6.6.1	win	2023-06-24	12:54:04	13:06:18	731129	6290d930eb8f73a88e290de6	2	1	main_z	24	main_z	21	stimuli_target_rectangletriangles.svg	stimuli_distractor_diamondtriangles.svg	5	yes	44	1	654	6	5	antiphase_hc_osi.wav	2	6	1	noise_calib_stim_LEFT.wav	1	26	blb_dichoticlistening_pa-da.mp3	pa	da	1	right
6.6.1	win	2023-06-24	12:54:04	13:06:18	731129	6290d930eb8f73a88e290de6	2	1	main_z	24	advance_on_keypress_ZEE	22	stimuli_target_rectangletriangles.svg	stimuli_distractor_diamondtriangles.svg	5	yes	57	0	451	6	5	antiphase_hc_osi.wav	2	6	1	noise_calib_stim_LEFT.wav	1	26	blb_dichoticlistening_pa-da.mp3	pa	da	1	right
6.6.1	win	2023-06-24	12:54:04	13:06:21	734225	6290d930eb8f73a88e290de6	2	1	main_z	24	main_z	23	stimuli_distractor_trianglediamonds.svg	stimuli_distractor_trianglediamonds.svg	34	no	0	1	2000	6	5	antiphase_hc_osi.wav	2	6	1	noise_calib_stim_LEFT.wav	1	26	blb_dichoticlistening_pa-da.mp3	pa	da	1	right
6.6.1	win	2023-06-24	12:54:04	13:06:21	734225	6290d930eb8f73a88e290de6	2	1	main_z	24	advance_on_keypress_ZEE	24	stimuli_distractor_trianglediamonds.svg	stimuli_distractor_trianglediamonds.svg	34	no	57	0	279	6	5	antiphase_hc_osi.wav	2	6	1	noise_calib_stim_LEFT.wav	1	26	blb_dichoticlistening_pa-da.mp3	pa	da	1	right
6.6.1	win	2023-06-24	12:54:04	13:06:22	735753	6290d930eb8f73a88e290de6	2	1	main_z	24	main_z	25	stimuli_distractor_trianglediamonds.svg	stimuli_target_squaretriangles.svg	11	yes	44	1	611	6	5	antiphase_hc_osi.wav	2	6	1	noise_calib_stim_LEFT.wav	1	26	blb_dichoticlistening_pa-da.mp3	pa	da	1	right
6.6.1	win	2023-06-24	12:54:04	13:06:22	735753	6290d930eb8f73a88e290de6	2	1	main_z	24	advance_on_keypress_ZEE	26	stimuli_distractor_trianglediamonds.svg	stimuli_target_squaretriangles.svg	11	yes	57	0	410	6	5	antiphase_hc_osi.wav	2	6	1	noise_calib_stim_LEFT.wav	1	26	blb_dichoticlistening_pa-da.mp3	pa	da	1	right
6.6.1	win	2023-06-24	12:54:04	13:06:24	737393	6290d930eb8f73a88e290de6	2	1	main_z	24	main_z	27	stimuli_target_diamondrectangles.svg	stimuli_distractor_trianglediamonds.svg	19	yes	44	1	601	6	5	antiphase_hc_osi.wav	2	6	1	noise_calib_stim_LEFT.wav	1	26	blb_dichoticlistening_pa-da.mp3	pa	da	1	right
6.6.1	win	2023-06-24	12:54:04	13:06:24	737393	6290d930eb8f73a88e290de6	2	1	main_z	24	advance_on_keypress_ZEE	28	stimuli_target_diamondrectangles.svg	stimuli_distractor_trianglediamonds.svg	19	yes	57	0	512	6	5	antiphase_hc_osi.wav	2	6	1	noise_calib_stim_LEFT.wav	1	26	blb_dichoticlistening_pa-da.mp3	pa	da	1	right
6.6.1	win	2023-06-24	12:54:04	13:06:26	739225	6290d930eb8f73a88e290de6	2	1	main_z	24	main_z	29	stimuli_distractor_diamondtriangles.svg	stimuli_target_rectanglediamonds.svg	14	yes	44	1	683	6	5	antiphase_hc_osi.wav	2	6	1	noise_calib_stim_LEFT.wav	1	26	blb_dichoticlistening_pa-da.mp3	pa	da	1	right
6.6.1	win	2023-06-24	12:54:04	13:06:26	739225	6290d930eb8f73a88e290de6	2	1	main_z	24	advance_on_keypress_ZEE	30	stimuli_distractor_diamondtriangles.svg	stimuli_target_rectanglediamonds.svg	14	yes	57	0	327	6	5	antiphase_hc_osi.wav	2	6	1	noise_calib_stim_LEFT.wav	1	26	blb_dichoticlistening_pa-da.mp3	pa	da	1	right
6.6.1	win	2023-06-24	12:54:04	13:06:28	740937	6290d930eb8f73a88e290de6	2	1	main_z	24	main_z	31	stimuli_target_diamondsquares.svg	stimuli_distractor_diamondtriangles.svg	24	yes	44	1	745	6	5	antiphase_hc_osi.wav	2	6	1	noise_calib_stim_LEFT.wav	1	26	blb_dichoticlistening_pa-da.mp3	pa	da	1	right
6.6.1	win	2023-06-24	12:54:04	13:06:28	740937	6290d930eb8f73a88e290de6	2	1	main_z	24	advance_on_keypress_ZEE	32	stimuli_target_diamondsquares.svg	stimuli_distractor_diamondtriangles.svg	24	yes	57	0	299	6	5	antiphase_hc_osi.wav	2	6	1	noise_calib_stim_LEFT.wav	1	26	blb_dichoticlistening_pa-da.mp3	pa	da	1	right
6.6.1	win	2023-06-24	12:54:04	13:06:29	742441	6290d930eb8f73a88e290de6	2	1	main_z	24	main_z	33	stimuli_distractor_trianglediamonds.svg	stimuli_target_trianglesquares.svg	26	yes	44	1	566	6	5	antiphase_hc_osi.wav	2	6	1	noise_calib_stim_LEFT.wav	1	26	blb_dichoticlistening_pa-da.mp3	pa	da	1	right
6.6.1	win	2023-06-24	12:54:04	13:06:29	742441	6290d930eb8f73a88e290de6	2	1	main_z	24	advance_on_keypress_ZEE	34	stimuli_distractor_trianglediamonds.svg	stimuli_target_trianglesquares.svg	26	yes	57	0	350	6	5	antiphase_hc_osi.wav	2	6	1	noise_calib_stim_LEFT.wav	1	26	blb_dichoticlistening_pa-da.mp3	pa	da	1	right
6.6.1	win	2023-06-24	12:54:04	13:06:31	743937	6290d930eb8f73a88e290de6	2	1	main_z	24	main_z	35	stimuli_target_trianglerectangles.svg	stimuli_distractor_diamondtriangles.svg	21	yes	44	1	495	6	5	antiphase_hc_osi.wav	2	6	1	noise_calib_stim_LEFT.wav	1	26	blb_dichoticlistening_pa-da.mp3	pa	da	1	right
6.6.1	win	2023-06-24	12:54:04	13:06:31	743937	6290d930eb8f73a88e290de6	2	1	main_z	24	advance_on_keypress_ZEE	36	stimuli_target_trianglerectangles.svg	stimuli_distractor_diamondtriangles.svg	21	yes	57	0	307	6	5	antiphase_hc_osi.wav	2	6	1	noise_calib_stim_LEFT.wav	1	26	blb_dichoticlistening_pa-da.mp3	pa	da	1	right
6.6.1	win	2023-06-24	12:54:04	13:06:32	745585	6290d930eb8f73a88e290de6	2	1	main_z	24	main_z	37	stimuli_distractor_diamondtriangles.svg	stimuli_target_squarediamonds.svg	16	yes	44	1	710	6	5	antiphase_hc_osi.wav	2	6	1	noise_calib_stim_LEFT.wav	1	26	blb_dichoticlistening_pa-da.mp3	pa	da	1	right
6.6.1	win	2023-06-24	12:54:04	13:06:32	745585	6290d930eb8f73a88e290de6	2	1	main_z	24	advance_on_keypress_ZEE	38	stimuli_distractor_diamondtriangles.svg	stimuli_target_squarediamonds.svg	16	yes	57	0	185	6	5	antiphase_hc_osi.wav	2	6	1	noise_calib_stim_LEFT.wav	1	26	blb_dichoticlistening_pa-da.mp3	pa	da	1	right
6.6.1	win	2023-06-24	12:54:04	13:06:35	748409	6290d930eb8f73a88e290de6	2	1	main_z	24	main_z	39	stimuli_distractor_diamondtriangles.svg	stimuli_distractor_diamondtriangles.svg	40	no	0	1	2000	6	5	antiphase_hc_osi.wav	2	6	1	noise_calib_stim_LEFT.wav	1	26	blb_dichoticlistening_pa-da.mp3	pa	da	1	right
6.6.1	win	2023-06-24	12:54:04	13:06:35	748409	6290d930eb8f73a88e290de6	2	1	main_z	24	advance_on_keypress_ZEE	40	stimuli_distractor_diamondtriangles.svg	stimuli_distractor_diamondtriangles.svg	40	no	57	0	424	6	5	antiphase_hc_osi.wav	2	6	1	noise_calib_stim_LEFT.wav	1	26	blb_dichoticlistening_pa-da.mp3	pa	da	1	right
6.6.1	win	2023-06-24	12:54:04	13:06:37	750033	6290d930eb8f73a88e290de6	2	1	main_z	24	main_z	41	stimuli_target_trianglesquares.svg	stimuli_distractor_trianglediamonds.svg	18	yes	44	1	558	6	5	antiphase_hc_osi.wav	2	6	1	noise_calib_stim_LEFT.wav	1	26	blb_dichoticlistening_pa-da.mp3	pa	da	1	right
6.6.1	win	2023-06-24	12:54:04	13:06:37	750033	6290d930eb8f73a88e290de6	2	1	main_z	24	advance_on_keypress_ZEE	42	stimuli_target_trianglesquares.svg	stimuli_distractor_trianglediamonds.svg	18	yes	57	0	95	6	5	antiphase_hc_osi.wav	2	6	1	noise_calib_stim_LEFT.wav	1	26	blb_dichoticlistening_pa-da.mp3	pa	da	1	right
6.6.1	win	2023-06-24	12:54:04	13:06:38	751401	6290d930eb8f73a88e290de6	2	1	main_z	24	main_z	43	stimuli_distractor_diamondtriangles.svg	stimuli_target_diamondsquares.svg	32	yes	44	1	642	6	5	antiphase_hc_osi.wav	2	6	1	noise_calib_stim_LEFT.wav	1	26	blb_dichoticlistening_pa-da.mp3	pa	da	1	right
6.6.1	win	2023-06-24	12:54:04	13:06:38	751401	6290d930eb8f73a88e290de6	2	1	main_z	24	advance_on_keypress_ZEE	44	stimuli_distractor_diamondtriangles.svg	stimuli_target_diamondsquares.svg	32	yes	57	0	216	6	5	antiphase_hc_osi.wav	2	6	1	noise_calib_stim_LEFT.wav	1	26	blb_dichoticlistening_pa-da.mp3	pa	da	1	right
6.6.1	win	2023-06-24	12:54:04	13:06:40	752913	6290d930eb8f73a88e290de6	2	1	main_z	24	main_z	45	stimuli_target_rectanglediamonds.svg	stimuli_distractor_trianglediamonds.svg	2	yes	44	1	654	6	5	antiphase_hc_osi.wav	2	6	1	noise_calib_stim_LEFT.wav	1	26	blb_dichoticlistening_pa-da.mp3	pa	da	1	right
6.6.1	win	2023-06-24	12:54:04	13:06:40	752913	6290d930eb8f73a88e290de6	2	1	main_z	24	advance_on_keypress_ZEE	46	stimuli_target_rectanglediamonds.svg	stimuli_distractor_trianglediamonds.svg	2	yes	57	0	108	6	5	antiphase_hc_osi.wav	2	6	1	noise_calib_stim_LEFT.wav	1	26	blb_dichoticlistening_pa-da.mp3	pa	da	1	right
6.6.1	win	2023-06-24	12:54:04	13:06:41	754329	6290d930eb8f73a88e290de6	2	1	main_z	24	main_z	47	stimuli_distractor_diamondtriangles.svg	stimuli_target_rectangletriangles.svg	13	yes	44	1	670	6	5	antiphase_hc_osi.wav	2	6	1	noise_calib_stim_LEFT.wav	1	26	blb_dichoticlistening_pa-da.mp3	pa	da	1	right
6.6.1	win	2023-06-24	12:54:04	13:06:41	754329	6290d930eb8f73a88e290de6	2	1	main_z	24	advance_on_keypress_ZEE	48	stimuli_distractor_diamondtriangles.svg	stimuli_target_rectangletriangles.svg	13	yes	57	0	91	6	5	antiphase_hc_osi.wav	2	6	1	noise_calib_stim_LEFT.wav	1	26	blb_dichoticlistening_pa-da.mp3	pa	da	1	right
6.6.1	win	2023-06-24	12:54:04	13:06:42	755625	6290d930eb8f73a88e290de6	2	1	main_z	24	main_z	49	stimuli_distractor_trianglediamonds.svg	stimuli_target_squarediamonds.svg	12	yes	44	1	566	6	5	antiphase_hc_osi.wav	2	6	1	noise_calib_stim_LEFT.wav	1	26	blb_dichoticlistening_pa-da.mp3	pa	da	1	right
6.6.1	win	2023-06-24	12:54:04	13:06:42	755625	6290d930eb8f73a88e290de6	2	1	main_z	24	advance_on_keypress_ZEE	50	stimuli_distractor_trianglediamonds.svg	stimuli_target_squarediamonds.svg	12	yes	57	0	135	6	5	antiphase_hc_osi.wav	2	6	1	noise_calib_stim_LEFT.wav	1	26	blb_dichoticlistening_pa-da.mp3	pa	da	1	right
6.6.1	win	2023-06-24	12:54:04	13:06:44	756925	6290d930eb8f73a88e290de6	2	1	main_z	24	main_z	51	stimuli_target_squaretriangles.svg	stimuli_distractor_trianglediamonds.svg	3	yes	44	1	504	6	5	antiphase_hc_osi.wav	2	6	1	noise_calib_stim_LEFT.wav	1	26	blb_dichoticlistening_pa-da.mp3	pa	da	1	right
6.6.1	win	2023-06-24	12:54:04	13:06:44	756925	6290d930eb8f73a88e290de6	2	1	main_z	24	advance_on_keypress_ZEE	52	stimuli_target_squaretriangles.svg	stimuli_distractor_trianglediamonds.svg	3	yes	57	0	51	6	5	antiphase_hc_osi.wav	2	6	1	noise_calib_stim_LEFT.wav	1	26	blb_dichoticlistening_pa-da.mp3	pa	da	1	right
6.6.1	win	2023-06-24	12:54:04	13:06:45	758233	6290d930eb8f73a88e290de6	2	1	main_z	24	main_z	53	stimuli_distractor_trianglediamonds.svg	stimuli_target_rectanglediamonds.svg	10	yes	44	1	608	6	5	antiphase_hc_osi.wav	2	6	1	noise_calib_stim_LEFT.wav	1	26	blb_dichoticlistening_pa-da.mp3	pa	da	1	right
6.6.1	win	2023-06-24	12:54:04	13:06:45	758233	6290d930eb8f73a88e290de6	2	1	main_z	24	advance_on_keypress_ZEE	54	stimuli_distractor_trianglediamonds.svg	stimuli_target_rectanglediamonds.svg	10	yes	57	0	71	6	5	antiphase_hc_osi.wav	2	6	1	noise_calib_stim_LEFT.wav	1	26	blb_dichoticlistening_pa-da.mp3	pa	da	1	right
6.6.1	win	2023-06-24	12:54:04	13:06:46	759577	6290d930eb8f73a88e290de6	2	1	main_z	24	main_z	55	stimuli_distractor_trianglediamonds.svg	stimuli_target_diamondrectangles.svg	27	yes	44	1	635	6	5	antiphase_hc_osi.wav	2	6	1	noise_calib_stim_LEFT.wav	1	26	blb_dichoticlistening_pa-da.mp3	pa	da	1	right
6.6.1	win	2023-06-24	12:54:04	13:06:46	759577	6290d930eb8f73a88e290de6	2	1	main_z	24	advance_on_keypress_ZEE	56	stimuli_distractor_trianglediamonds.svg	stimuli_target_diamondrectangles.svg	27	yes	57	0	65	6	5	antiphase_hc_osi.wav	2	6	1	noise_calib_stim_LEFT.wav	1	26	blb_dichoticlistening_pa-da.mp3	pa	da	1	right
6.6.1	win	2023-06-24	12:54:04	13:06:48	760849	6290d930eb8f73a88e290de6	2	1	main_z	24	main_z	57	stimuli_target_trianglesquares.svg	stimuli_distractor_diamondtriangles.svg	22	yes	44	1	557	6	5	antiphase_hc_osi.wav	2	6	1	noise_calib_stim_LEFT.wav	1	26	blb_dichoticlistening_pa-da.mp3	pa	da	1	right
6.6.1	win	2023-06-24	12:54:04	13:06:48	760849	6290d930eb8f73a88e290de6	2	1	main_z	24	advance_on_keypress_ZEE	58	stimuli_target_trianglesquares.svg	stimuli_distractor_diamondtriangles.svg	22	yes	57	0	70	6	5	antiphase_hc_osi.wav	2	6	1	noise_calib_stim_LEFT.wav	1	26	blb_dichoticlistening_pa-da.mp3	pa	da	1	right
6.6.1	win	2023-06-24	12:54:04	13:06:49	762113	6290d930eb8f73a88e290de6	2	1	main_z	24	main_z	59	stimuli_target_diamondrectangles.svg	stimuli_distractor_diamondtriangles.svg	23	yes	44	1	554	6	5	antiphase_hc_osi.wav	2	6	1	noise_calib_stim_LEFT.wav	1	26	blb_dichoticlistening_pa-da.mp3	pa	da	1	right
6.6.1	win	2023-06-24	12:54:04	13:06:49	762113	6290d930eb8f73a88e290de6	2	1	main_z	24	advance_on_keypress_ZEE	60	stimuli_target_diamondrectangles.svg	stimuli_distractor_diamondtriangles.svg	23	yes	57	0	76	6	5	antiphase_hc_osi.wav	2	6	1	noise_calib_stim_LEFT.wav	1	26	blb_dichoticlistening_pa-da.mp3	pa	da	1	right
6.6.1	win	2023-06-24	12:54:04	13:06:50	763345	6290d930eb8f73a88e290de6	2	1	main_z	24	main_z	61	stimuli_distractor_diamondtriangles.svg	stimuli_target_trianglesquares.svg	30	yes	44	1	520	6	5	antiphase_hc_osi.wav	2	6	1	noise_calib_stim_LEFT.wav	1	26	blb_dichoticlistening_pa-da.mp3	pa	da	1	right
6.6.1	win	2023-06-24	12:54:04	13:06:50	763345	6290d930eb8f73a88e290de6	2	1	main_z	24	advance_on_keypress_ZEE	62	stimuli_distractor_diamondtriangles.svg	stimuli_target_trianglesquares.svg	30	yes	57	0	74	6	5	antiphase_hc_osi.wav	2	6	1	noise_calib_stim_LEFT.wav	1	26	blb_dichoticlistening_pa-da.mp3	pa	da	1	right
6.6.1	win	2023-06-24	12:54:04	13:06:51	764545	6290d930eb8f73a88e290de6	2	1	main_z	24	main_z	63	stimuli_distractor_trianglediamonds.svg	stimuli_target_diamondsquares.svg	28	yes	44	1	486	6	5	antiphase_hc_osi.wav	2	6	1	noise_calib_stim_LEFT.wav	1	26	blb_dichoticlistening_pa-da.mp3	pa	da	1	right
6.6.1	win	2023-06-24	12:54:04	13:06:51	764545	6290d930eb8f73a88e290de6	2	1	main_z	24	advance_on_keypress_ZEE	64	stimuli_distractor_trianglediamonds.svg	stimuli_target_diamondsquares.svg	28	yes	57	0	42	6	5	antiphase_hc_osi.wav	2	6	1	noise_calib_stim_LEFT.wav	1	26	blb_dichoticlistening_pa-da.mp3	pa	da	1	right
6.6.1	win	2023-06-24	12:54:04	13:06:53	765841	6290d930eb8f73a88e290de6	2	1	main_z	24	main_z	65	stimuli_distractor_diamondtriangles.svg	stimuli_target_diamondrectangles.svg	31	yes	44	1	616	6	5	antiphase_hc_osi.wav	2	6	1	noise_calib_stim_LEFT.wav	1	26	blb_dichoticlistening_pa-da.mp3	pa	da	1	right
6.6.1	win	2023-06-24	12:54:04	13:06:53	765841	6290d930eb8f73a88e290de6	2	1	main_z	24	advance_on_keypress_ZEE	66	stimuli_distractor_diamondtriangles.svg	stimuli_target_diamondrectangles.svg	31	yes	57	0	54	6	5	antiphase_hc_osi.wav	2	6	1	noise_calib_stim_LEFT.wav	1	26	blb_dichoticlistening_pa-da.mp3	pa	da	1	right
6.6.1	win	2023-06-24	12:54:04	13:06:54	767145	6290d930eb8f73a88e290de6	2	1	main_z	24	main_z	67	stimuli_distractor_trianglediamonds.svg	stimuli_target_trianglerectangles.svg	25	yes	44	1	603	6	5	antiphase_hc_osi.wav	2	6	1	noise_calib_stim_LEFT.wav	1	26	blb_dichoticlistening_pa-da.mp3	pa	da	1	right
6.6.1	win	2023-06-24	12:54:04	13:06:54	767145	6290d930eb8f73a88e290de6	2	1	main_z	24	advance_on_keypress_ZEE	68	stimuli_distractor_trianglediamonds.svg	stimuli_target_trianglerectangles.svg	25	yes	57	0	42	6	5	antiphase_hc_osi.wav	2	6	1	noise_calib_stim_LEFT.wav	1	26	blb_dichoticlistening_pa-da.mp3	pa	da	1	right
6.6.1	win	2023-06-24	12:54:04	13:06:55	768401	6290d930eb8f73a88e290de6	2	1	main_z	24	main_z	69	stimuli_target_squarediamonds.svg	stimuli_distractor_trianglediamonds.svg	4	yes	44	1	576	6	5	antiphase_hc_osi.wav	2	6	1	noise_calib_stim_LEFT.wav	1	26	blb_dichoticlistening_pa-da.mp3	pa	da	1	right
6.6.1	win	2023-06-24	12:54:04	13:06:55	768401	6290d930eb8f73a88e290de6	2	1	main_z	24	advance_on_keypress_ZEE	70	stimuli_target_squarediamonds.svg	stimuli_distractor_trianglediamonds.svg	4	yes	57	0	72	6	5	antiphase_hc_osi.wav	2	6	1	noise_calib_stim_LEFT.wav	1	26	blb_dichoticlistening_pa-da.mp3	pa	da	1	right
6.6.1	win	2023-06-24	12:54:04	13:06:56	769753	6290d930eb8f73a88e290de6	2	1	main_z	24	main_z	71	stimuli_target_trianglerectangles.svg	stimuli_distractor_trianglediamonds.svg	17	yes	44	1	644	6	5	antiphase_hc_osi.wav	2	6	1	noise_calib_stim_LEFT.wav	1	26	blb_dichoticlistening_pa-da.mp3	pa	da	1	right
6.6.1	win	2023-06-24	12:54:04	13:06:56	769753	6290d930eb8f73a88e290de6	2	1	main_z	24	advance_on_keypress_ZEE	72	stimuli_target_trianglerectangles.svg	stimuli_distractor_trianglediamonds.svg	17	yes	57	0	58	6	5	antiphase_hc_osi.wav	2	6	1	noise_calib_stim_LEFT.wav	1	26	blb_dichoticlistening_pa-da.mp3	pa	da	1	right
6.6.1	win	2023-06-24	12:54:04	13:06:59	772442	6290d930eb8f73a88e290de6	2	1	main_z	24	main_z	73	stimuli_distractor_trianglediamonds.svg	stimuli_distractor_trianglediamonds.svg	33	no	0	1	2000	6	5	antiphase_hc_osi.wav	2	6	1	noise_calib_stim_LEFT.wav	1	26	blb_dichoticlistening_pa-da.mp3	pa	da	1	right
6.6.1	win	2023-06-24	12:54:04	13:06:59	772442	6290d930eb8f73a88e290de6	2	1	main_z	24	advance_on_keypress_ZEE	74	stimuli_distractor_trianglediamonds.svg	stimuli_distractor_trianglediamonds.svg	33	no	57	0	334	6	5	antiphase_hc_osi.wav	2	6	1	noise_calib_stim_LEFT.wav	1	26	blb_dichoticlistening_pa-da.mp3	pa	da	1	right
6.6.1	win	2023-06-24	12:54:04	13:07:01	773913	6290d930eb8f73a88e290de6	2	1	main_z	24	main_z	75	stimuli_distractor_diamondtriangles.svg	stimuli_target_trianglerectangles.svg	29	yes	44	1	488	6	5	antiphase_hc_osi.wav	2	6	1	noise_calib_stim_LEFT.wav	1	26	blb_dichoticlistening_pa-da.mp3	pa	da	1	right
6.6.1	win	2023-06-24	12:54:04	13:07:01	773913	6290d930eb8f73a88e290de6	2	1	main_z	24	advance_on_keypress_ZEE	76	stimuli_distractor_diamondtriangles.svg	stimuli_target_trianglerectangles.svg	29	yes	57	0	60	6	5	antiphase_hc_osi.wav	2	6	1	noise_calib_stim_LEFT.wav	1	26	blb_dichoticlistening_pa-da.mp3	pa	da	1	right
6.6.1	win	2023-06-24	12:54:04	13:07:03	776609	6290d930eb8f73a88e290de6	2	1	main_z	24	main_z	77	stimuli_distractor_diamondtriangles.svg	stimuli_distractor_trianglediamonds.svg	38	no	0	1	2000	6	5	antiphase_hc_osi.wav	2	6	1	noise_calib_stim_LEFT.wav	1	26	blb_dichoticlistening_pa-da.mp3	pa	da	1	right
6.6.1	win	2023-06-24	12:54:04	13:07:03	776609	6290d930eb8f73a88e290de6	2	1	main_z	24	advance_on_keypress_ZEE	78	stimuli_distractor_diamondtriangles.svg	stimuli_distractor_trianglediamonds.svg	38	no	57	0	360	6	5	antiphase_hc_osi.wav	2	6	1	noise_calib_stim_LEFT.wav	1	26	blb_dichoticlistening_pa-da.mp3	pa	da	1	right
6.6.1	win	2023-06-24	12:54:04	13:07:05	778057	6290d930eb8f73a88e290de6	2	1	main_z	24	main_z	79	stimuli_target_rectangletriangles.svg	stimuli_distractor_trianglediamonds.svg	1	yes	44	1	448	6	5	antiphase_hc_osi.wav	2	6	1	noise_calib_stim_LEFT.wav	1	26	blb_dichoticlistening_pa-da.mp3	pa	da	1	right
6.6.1	win	2023-06-24	12:54:04	13:07:05	778057	6290d930eb8f73a88e290de6	2	1	main_z	24	advance_on_keypress_ZEE	80	stimuli_target_rectangletriangles.svg	stimuli_distractor_trianglediamonds.svg	1	yes	57	0	46	6	5	antiphase_hc_osi.wav	2	6	1	noise_calib_stim_LEFT.wav	1	26	blb_dichoticlistening_pa-da.mp3	pa	da	1	right
6.6.1	win	2023-06-24	12:54:04	13:07:06	779105	6290d930eb8f73a88e290de6	2	1	main_z	24	main_z	81	stimuli_target_rectangletriangles.svg	stimuli_distractor_trianglediamonds.svg	1	yes	44	1	363	6	5	antiphase_hc_osi.wav	2	6	1	noise_calib_stim_LEFT.wav	1	26	blb_dichoticlistening_pa-da.mp3	pa	da	1	right
6.6.1	win	2023-06-24	12:54:04	13:07:06	779105	6290d930eb8f73a88e290de6	2	1	main_z	24	advance_on_keypress_ZEE	82	stimuli_target_rectangletriangles.svg	stimuli_distractor_trianglediamonds.svg	1	yes	57	0	60	6	5	antiphase_hc_osi.wav	2	6	1	noise_calib_stim_LEFT.wav	1	26	blb_dichoticlistening_pa-da.mp3	pa	da	1	right
6.6.1	win	2023-06-24	12:54:04	13:07:07	780465	6290d930eb8f73a88e290de6	2	1	main_z	24	main_z	83	stimuli_target_trianglesquares.svg	stimuli_distractor_trianglediamonds.svg	18	yes	44	1	673	6	5	antiphase_hc_osi.wav	2	6	1	noise_calib_stim_LEFT.wav	1	26	blb_dichoticlistening_pa-da.mp3	pa	da	1	right
6.6.1	win	2023-06-24	12:54:04	13:07:07	780465	6290d930eb8f73a88e290de6	2	1	main_z	24	advance_on_keypress_ZEE	84	stimuli_target_trianglesquares.svg	stimuli_distractor_trianglediamonds.svg	18	yes	57	0	46	6	5	antiphase_hc_osi.wav	2	6	1	noise_calib_stim_LEFT.wav	1	26	blb_dichoticlistening_pa-da.mp3	pa	da	1	right
6.6.1	win	2023-06-24	12:54:04	13:07:08	781609	6290d930eb8f73a88e290de6	2	1	main_z	24	main_z	85	stimuli_target_diamondrectangles.svg	stimuli_distractor_diamondtriangles.svg	23	yes	44	1	467	6	5	antiphase_hc_osi.wav	2	6	1	noise_calib_stim_LEFT.wav	1	26	blb_dichoticlistening_pa-da.mp3	pa	da	1	right
6.6.1	win	2023-06-24	12:54:04	13:07:08	781609	6290d930eb8f73a88e290de6	2	1	main_z	24	advance_on_keypress_ZEE	86	stimuli_target_diamondrectangles.svg	stimuli_distractor_diamondtriangles.svg	23	yes	57	0	48	6	5	antiphase_hc_osi.wav	2	6	1	noise_calib_stim_LEFT.wav	1	26	blb_dichoticlistening_pa-da.mp3	pa	da	1	right
6.6.1	win	2023-06-24	12:54:04	13:07:10	782777	6290d930eb8f73a88e290de6	2	1	main_z	24	main_z	87	stimuli_distractor_trianglediamonds.svg	stimuli_target_rectanglediamonds.svg	10	yes	44	1	485	6	5	antiphase_hc_osi.wav	2	6	1	noise_calib_stim_LEFT.wav	1	26	blb_dichoticlistening_pa-da.mp3	pa	da	1	right
6.6.1	win	2023-06-24	12:54:04	13:07:10	782777	6290d930eb8f73a88e290de6	2	1	main_z	24	advance_on_keypress_ZEE	88	stimuli_distractor_trianglediamonds.svg	stimuli_target_rectanglediamonds.svg	10	yes	57	0	137	6	5	antiphase_hc_osi.wav	2	6	1	noise_calib_stim_LEFT.wav	1	26	blb_dichoticlistening_pa-da.mp3	pa	da	1	right
6.6.1	win	2023-06-24	12:54:04	13:07:12	785559	6290d930eb8f73a88e290de6	2	1	main_z	24	main_z	89	stimuli_target_squaretriangles.svg	stimuli_distractor_trianglediamonds.svg	3	yes	0	0	2000	6	5	antiphase_hc_osi.wav	2	6	1	noise_calib_stim_LEFT.wav	1	26	blb_dichoticlistening_pa-da.mp3	pa	da	1	right
6.6.1	win	2023-06-24	12:54:04	13:07:12	785559	6290d930eb8f73a88e290de6	2	1	main_z	24	advance_on_keypress_ZEE	90	stimuli_target_squaretriangles.svg	stimuli_distractor_trianglediamonds.svg	3	yes	57	0	298	6	5	antiphase_hc_osi.wav	2	6	1	noise_calib_stim_LEFT.wav	1	26	blb_dichoticlistening_pa-da.mp3	pa	da	1	right
6.6.1	win	2023-06-24	12:54:04	13:07:15	788492	6290d930eb8f73a88e290de6	2	1	main_z	24	main_z	91	stimuli_distractor_diamondtriangles.svg	stimuli_distractor_diamondtriangles.svg	40	no	0	1	2000	6	5	antiphase_hc_osi.wav	2	6	1	noise_calib_stim_LEFT.wav	1	26	blb_dichoticlistening_pa-da.mp3	pa	da	1	right
6.6.1	win	2023-06-24	12:54:04	13:07:15	788492	6290d930eb8f73a88e290de6	2	1	main_z	24	advance_on_keypress_ZEE	92	stimuli_distractor_diamondtriangles.svg	stimuli_distractor_diamondtriangles.svg	40	no	57	0	516	6	5	antiphase_hc_osi.wav	2	6	1	noise_calib_stim_LEFT.wav	1	26	blb_dichoticlistening_pa-da.mp3	pa	da	1	right
6.6.1	win	2023-06-24	12:54:04	13:07:17	790193	6290d930eb8f73a88e290de6	2	1	main_z	24	main_z	93	stimuli_distractor_trianglediamonds.svg	stimuli_target_diamondsquares.svg	28	yes	44	1	534	6	5	antiphase_hc_osi.wav	2	6	1	noise_calib_stim_LEFT.wav	1	26	blb_dichoticlistening_pa-da.mp3	pa	da	1	right
6.6.1	win	2023-06-24	12:54:04	13:07:17	790193	6290d930eb8f73a88e290de6	2	1	main_z	24	advance_on_keypress_ZEE	94	stimuli_distractor_trianglediamonds.svg	stimuli_target_diamondsquares.svg	28	yes	57	0	32	6	5	antiphase_hc_osi.wav	2	6	1	noise_calib_stim_LEFT.wav	1	26	blb_dichoticlistening_pa-da.mp3	pa	da	1	right
6.6.1	win	2023-06-24	12:54:04	13:07:18	791391	6290d930eb8f73a88e290de6	2	1	main_z	24	main_z	95	stimuli_distractor_diamondtriangles.svg	stimuli_target_trianglerectangles.svg	29	yes	44	1	502	6	5	antiphase_hc_osi.wav	2	6	1	noise_calib_stim_LEFT.wav	1	26	blb_dichoticlistening_pa-da.mp3	pa	da	1	right
6.6.1	win	2023-06-24	12:54:04	13:07:18	791391	6290d930eb8f73a88e290de6	2	1	main_z	24	advance_on_keypress_ZEE	96	stimuli_distractor_diamondtriangles.svg	stimuli_target_trianglerectangles.svg	29	yes	57	0	16	6	5	antiphase_hc_osi.wav	2	6	1	noise_calib_stim_LEFT.wav	1	26	blb_dichoticlistening_pa-da.mp3	pa	da	1	right
6.6.1	win	2023-06-24	12:54:04	13:07:21	794059	6290d930eb8f73a88e290de6	2	1	main_z	24	main_z	97	stimuli_distractor_trianglediamonds.svg	stimuli_distractor_trianglediamonds.svg	33	no	0	1	2000	6	5	antiphase_hc_osi.wav	2	6	1	noise_calib_stim_LEFT.wav	1	26	blb_dichoticlistening_pa-da.mp3	pa	da	1	right
6.6.1	win	2023-06-24	12:54:04	13:07:21	794059	6290d930eb8f73a88e290de6	2	1	main_z	24	advance_on_keypress_ZEE	98	stimuli_distractor_trianglediamonds.svg	stimuli_distractor_trianglediamonds.svg	33	no	57	0	542	6	5	antiphase_hc_osi.wav	2	6	1	noise_calib_stim_LEFT.wav	1	26	blb_dichoticlistening_pa-da.mp3	pa	da	1	right
6.6.1	win	2023-06-24	12:54:04	13:07:24	797242	6290d930eb8f73a88e290de6	2	1	main_z	24	main_z	99	stimuli_distractor_trianglediamonds.svg	stimuli_distractor_diamondtriangles.svg	35	no	0	1	2000	6	5	antiphase_hc_osi.wav	2	6	1	noise_calib_stim_LEFT.wav	1	26	blb_dichoticlistening_pa-da.mp3	pa	da	1	right
6.6.1	win	2023-06-24	12:54:04	13:07:24	797242	6290d930eb8f73a88e290de6	2	1	main_z	24	advance_on_keypress_ZEE	100	stimuli_distractor_trianglediamonds.svg	stimuli_distractor_diamondtriangles.svg	35	no	57	0	334	6	5	antiphase_hc_osi.wav	2	6	1	noise_calib_stim_LEFT.wav	1	26	blb_dichoticlistening_pa-da.mp3	pa	da	1	right
6.6.1	win	2023-06-24	12:54:04	13:07:26	798937	6290d930eb8f73a88e290de6	2	1	main_z	24	main_z	101	stimuli_target_rectangletriangles.svg	stimuli_distractor_diamondtriangles.svg	5	yes	44	1	712	6	5	antiphase_hc_osi.wav	2	6	1	noise_calib_stim_LEFT.wav	1	26	blb_dichoticlistening_pa-da.mp3	pa	da	1	right
6.6.1	win	2023-06-24	12:54:04	13:07:26	798937	6290d930eb8f73a88e290de6	2	1	main_z	24	advance_on_keypress_ZEE	102	stimuli_target_rectangletriangles.svg	stimuli_distractor_diamondtriangles.svg	5	yes	57	0	43	6	5	antiphase_hc_osi.wav	2	6	1	noise_calib_stim_LEFT.wav	1	26	blb_dichoticlistening_pa-da.mp3	pa	da	1	right
6.6.1	win	2023-06-24	12:54:04	13:07:27	800153	6290d930eb8f73a88e290de6	2	1	main_z	24	main_z	103	stimuli_target_diamondrectangles.svg	stimuli_distractor_trianglediamonds.svg	19	yes	44	1	544	6	5	antiphase_hc_osi.wav	2	6	1	noise_calib_stim_LEFT.wav	1	26	blb_dichoticlistening_pa-da.mp3	pa	da	1	right
6.6.1	win	2023-06-24	12:54:04	13:07:27	800153	6290d930eb8f73a88e290de6	2	1	main_z	24	advance_on_keypress_ZEE	104	stimuli_target_diamondrectangles.svg	stimuli_distractor_trianglediamonds.svg	19	yes	57	0	50	6	5	antiphase_hc_osi.wav	2	6	1	noise_calib_stim_LEFT.wav	1	26	blb_dichoticlistening_pa-da.mp3	pa	da	1	right
6.6.1	win	2023-06-24	12:54:04	13:07:28	801313	6290d930eb8f73a88e290de6	2	1	main_z	24	main_z	105	stimuli_distractor_trianglediamonds.svg	stimuli_target_squarediamonds.svg	12	yes	44	1	471	6	5	antiphase_hc_osi.wav	2	6	1	noise_calib_stim_LEFT.wav	1	26	blb_dichoticlistening_pa-da.mp3	pa	da	1	right
6.6.1	win	2023-06-24	12:54:04	13:07:28	801313	6290d930eb8f73a88e290de6	2	1	main_z	24	advance_on_keypress_ZEE	106	stimuli_distractor_trianglediamonds.svg	stimuli_target_squarediamonds.svg	12	yes	57	0	20	6	5	antiphase_hc_osi.wav	2	6	1	noise_calib_stim_LEFT.wav	1	26	blb_dichoticlistening_pa-da.mp3	pa	da	1	right
6.6.1	win	2023-06-24	12:54:04	13:07:31	803976	6290d930eb8f73a88e290de6	2	1	main_z	24	main_z	107	stimuli_distractor_diamondtriangles.svg	stimuli_distractor_trianglediamonds.svg	37	no	0	1	2000	6	5	antiphase_hc_osi.wav	2	6	1	noise_calib_stim_LEFT.wav	1	26	blb_dichoticlistening_pa-da.mp3	pa	da	1	right
6.6.1	win	2023-06-24	12:54:04	13:07:31	803976	6290d930eb8f73a88e290de6	2	1	main_z	24	advance_on_keypress_ZEE	108	stimuli_distractor_diamondtriangles.svg	stimuli_distractor_trianglediamonds.svg	37	no	57	0	337	6	5	antiphase_hc_osi.wav	2	6	1	noise_calib_stim_LEFT.wav	1	26	blb_dichoticlistening_pa-da.mp3	pa	da	1	right
6.6.1	win	2023-06-24	12:54:04	13:07:32	805475	6290d930eb8f73a88e290de6	2	1	main_z	24	main_z	109	stimuli_target_trianglesquares.svg	stimuli_distractor_diamondtriangles.svg	22	yes	44	1	514	6	5	antiphase_hc_osi.wav	2	6	1	noise_calib_stim_LEFT.wav	1	26	blb_dichoticlistening_pa-da.mp3	pa	da	1	right
6.6.1	win	2023-06-24	12:54:04	13:07:32	805475	6290d930eb8f73a88e290de6	2	1	main_z	24	advance_on_keypress_ZEE	110	stimuli_target_trianglesquares.svg	stimuli_distractor_diamondtriangles.svg	22	yes	57	0	61	6	5	antiphase_hc_osi.wav	2	6	1	noise_calib_stim_LEFT.wav	1	26	blb_dichoticlistening_pa-da.mp3	pa	da	1	right
6.6.1	win	2023-06-24	12:54:04	13:07:33	806657	6290d930eb8f73a88e290de6	2	1	main_z	24	main_z	111	stimuli_target_diamondsquares.svg	stimuli_distractor_trianglediamonds.svg	20	yes	44	1	481	6	5	antiphase_hc_osi.wav	2	6	1	noise_calib_stim_LEFT.wav	1	26	blb_dichoticlistening_pa-da.mp3	pa	da	1	right
6.6.1	win	2023-06-24	12:54:04	13:07:33	806657	6290d930eb8f73a88e290de6	2	1	main_z	24	advance_on_keypress_ZEE	112	stimuli_target_diamondsquares.svg	stimuli_distractor_trianglediamonds.svg	20	yes	57	0	37	6	5	antiphase_hc_osi.wav	2	6	1	noise_calib_stim_LEFT.wav	1	26	blb_dichoticlistening_pa-da.mp3	pa	da	1	right
6.6.1	win	2023-06-24	12:54:04	13:07:35	807881	6290d930eb8f73a88e290de6	2	1	main_z	24	main_z	113	stimuli_distractor_trianglediamonds.svg	stimuli_target_rectangletriangles.svg	9	yes	44	1	539	6	5	antiphase_hc_osi.wav	2	6	1	noise_calib_stim_LEFT.wav	1	26	blb_dichoticlistening_pa-da.mp3	pa	da	1	right
6.6.1	win	2023-06-24	12:54:04	13:07:35	807881	6290d930eb8f73a88e290de6	2	1	main_z	24	advance_on_keypress_ZEE	114	stimuli_distractor_trianglediamonds.svg	stimuli_target_rectangletriangles.svg	9	yes	57	0	53	6	5	antiphase_hc_osi.wav	2	6	1	noise_calib_stim_LEFT.wav	1	26	blb_dichoticlistening_pa-da.mp3	pa	da	1	right
6.6.1	win	2023-06-24	12:54:04	13:07:36	809041	6290d930eb8f73a88e290de6	2	1	main_z	24	main_z	115	stimuli_distractor_trianglediamonds.svg	stimuli_target_trianglerectangles.svg	25	yes	44	1	465	6	5	antiphase_hc_osi.wav	2	6	1	noise_calib_stim_LEFT.wav	1	26	blb_dichoticlistening_pa-da.mp3	pa	da	1	right
6.6.1	win	2023-06-24	12:54:04	13:07:36	809041	6290d930eb8f73a88e290de6	2	1	main_z	24	advance_on_keypress_ZEE	116	stimuli_distractor_trianglediamonds.svg	stimuli_target_trianglerectangles.svg	25	yes	57	0	30	6	5	antiphase_hc_osi.wav	2	6	1	noise_calib_stim_LEFT.wav	1	26	blb_dichoticlistening_pa-da.mp3	pa	da	1	right
6.6.1	win	2023-06-24	12:54:04	13:07:38	811709	6290d930eb8f73a88e290de6	2	1	main_z	24	main_z	117	stimuli_distractor_diamondtriangles.svg	stimuli_distractor_diamondtriangles.svg	39	no	0	1	2000	6	5	antiphase_hc_osi.wav	2	6	1	noise_calib_stim_LEFT.wav	1	26	blb_dichoticlistening_pa-da.mp3	pa	da	1	right
6.6.1	win	2023-06-24	12:54:04	13:07:38	811709	6290d930eb8f73a88e290de6	2	1	main_z	24	advance_on_keypress_ZEE	118	stimuli_distractor_diamondtriangles.svg	stimuli_distractor_diamondtriangles.svg	39	no	57	0	323	6	5	antiphase_hc_osi.wav	2	6	1	noise_calib_stim_LEFT.wav	1	26	blb_dichoticlistening_pa-da.mp3	pa	da	1	right
6.6.1	win	2023-06-24	12:54:04	13:07:40	813073	6290d930eb8f73a88e290de6	2	1	main_z	24	main_z	119	stimuli_target_rectanglediamonds.svg	stimuli_distractor_trianglediamonds.svg	2	yes	44	1	397	6	5	antiphase_hc_osi.wav	2	6	1	noise_calib_stim_LEFT.wav	1	26	blb_dichoticlistening_pa-da.mp3	pa	da	1	right
6.6.1	win	2023-06-24	12:54:04	13:07:40	813073	6290d930eb8f73a88e290de6	2	1	main_z	24	advance_on_keypress_ZEE	120	stimuli_target_rectanglediamonds.svg	stimuli_distractor_trianglediamonds.svg	2	yes	57	0	53	6	5	antiphase_hc_osi.wav	2	6	1	noise_calib_stim_LEFT.wav	1	26	blb_dichoticlistening_pa-da.mp3	pa	da	1	right
6.6.1	win	2023-06-24	12:54:04	13:07:42	815759	6290d930eb8f73a88e290de6	2	1	main_z	24	main_z	121	stimuli_distractor_trianglediamonds.svg	stimuli_distractor_trianglediamonds.svg	34	no	0	1	2000	6	5	antiphase_hc_osi.wav	2	6	1	noise_calib_stim_LEFT.wav	1	26	blb_dichoticlistening_pa-da.mp3	pa	da	1	right
6.6.1	win	2023-06-24	12:54:04	13:07:42	815759	6290d930eb8f73a88e290de6	2	1	main_z	24	advance_on_keypress_ZEE	122	stimuli_distractor_trianglediamonds.svg	stimuli_distractor_trianglediamonds.svg	34	no	57	0	265	6	5	antiphase_hc_osi.wav	2	6	1	noise_calib_stim_LEFT.wav	1	26	blb_dichoticlistening_pa-da.mp3	pa	da	1	right
6.6.1	win	2023-06-24	12:54:04	13:07:44	817089	6290d930eb8f73a88e290de6	2	1	main_z	24	main_z	123	stimuli_distractor_diamondtriangles.svg	stimuli_target_diamondsquares.svg	32	yes	44	1	413	6	5	antiphase_hc_osi.wav	2	6	1	noise_calib_stim_LEFT.wav	1	26	blb_dichoticlistening_pa-da.mp3	pa	da	1	right
6.6.1	win	2023-06-24	12:54:04	13:07:44	817089	6290d930eb8f73a88e290de6	2	1	main_z	24	advance_on_keypress_ZEE	124	stimuli_distractor_diamondtriangles.svg	stimuli_target_diamondsquares.svg	32	yes	57	0	53	6	5	antiphase_hc_osi.wav	2	6	1	noise_calib_stim_LEFT.wav	1	26	blb_dichoticlistening_pa-da.mp3	pa	da	1	right
6.6.1	win	2023-06-24	12:54:04	13:07:45	818209	6290d930eb8f73a88e290de6	2	1	main_z	24	main_z	125	stimuli_target_trianglerectangles.svg	stimuli_distractor_diamondtriangles.svg	21	yes	44	1	433	6	5	antiphase_hc_osi.wav	2	6	1	noise_calib_stim_LEFT.wav	1	26	blb_dichoticlistening_pa-da.mp3	pa	da	1	right
6.6.1	win	2023-06-24	12:54:04	13:07:45	818209	6290d930eb8f73a88e290de6	2	1	main_z	24	advance_on_keypress_ZEE	126	stimuli_target_trianglerectangles.svg	stimuli_distractor_diamondtriangles.svg	21	yes	57	0	31	6	5	antiphase_hc_osi.wav	2	6	1	noise_calib_stim_LEFT.wav	1	26	blb_dichoticlistening_pa-da.mp3	pa	da	1	right
6.6.1	win	2023-06-24	12:54:04	13:07:46	819289	6290d930eb8f73a88e290de6	2	1	main_z	24	main_z	127	stimuli_target_squarediamonds.svg	stimuli_distractor_trianglediamonds.svg	4	yes	44	1	397	6	5	antiphase_hc_osi.wav	2	6	1	noise_calib_stim_LEFT.wav	1	26	blb_dichoticlistening_pa-da.mp3	pa	da	1	right
6.6.1	win	2023-06-24	12:54:04	13:07:46	819289	6290d930eb8f73a88e290de6	2	1	main_z	24	advance_on_keypress_ZEE	128	stimuli_target_squarediamonds.svg	stimuli_distractor_trianglediamonds.svg	4	yes	57	0	37	6	5	antiphase_hc_osi.wav	2	6	1	noise_calib_stim_LEFT.wav	1	26	blb_dichoticlistening_pa-da.mp3	pa	da	1	right
6.6.1	win	2023-06-24	12:54:04	13:07:47	820345	6290d930eb8f73a88e290de6	2	1	main_z	24	main_z	129	stimuli_distractor_diamondtriangles.svg	stimuli_target_trianglesquares.svg	30	yes	44	1	386	6	5	antiphase_hc_osi.wav	2	6	1	noise_calib_stim_LEFT.wav	1	26	blb_dichoticlistening_pa-da.mp3	pa	da	1	right
6.6.1	win	2023-06-24	12:54:04	13:07:47	820345	6290d930eb8f73a88e290de6	2	1	main_z	24	advance_on_keypress_ZEE	130	stimuli_distractor_diamondtriangles.svg	stimuli_target_trianglesquares.svg	30	yes	57	0	42	6	5	antiphase_hc_osi.wav	2	6	1	noise_calib_stim_LEFT.wav	1	26	blb_dichoticlistening_pa-da.mp3	pa	da	1	right
6.6.1	win	2023-06-24	12:54:04	13:07:48	821665	6290d930eb8f73a88e290de6	2	1	main_z	24	main_z	131	stimuli_distractor_diamondtriangles.svg	stimuli_target_rectangletriangles.svg	13	yes	44	1	639	6	5	antiphase_hc_osi.wav	2	6	1	noise_calib_stim_LEFT.wav	1	26	blb_dichoticlistening_pa-da.mp3	pa	da	1	right
6.6.1	win	2023-06-24	12:54:04	13:07:48	821665	6290d930eb8f73a88e290de6	2	1	main_z	24	advance_on_keypress_ZEE	132	stimuli_distractor_diamondtriangles.svg	stimuli_target_rectangletriangles.svg	13	yes	57	0	37	6	5	antiphase_hc_osi.wav	2	6	1	noise_calib_stim_LEFT.wav	1	26	blb_dichoticlistening_pa-da.mp3	pa	da	1	right
6.6.1	win	2023-06-24	12:54:04	13:07:50	822769	6290d930eb8f73a88e290de6	2	1	main_z	24	main_z	133	stimuli_target_squaretriangles.svg	stimuli_distractor_diamondtriangles.svg	7	yes	44	1	427	6	5	antiphase_hc_osi.wav	2	6	1	noise_calib_stim_LEFT.wav	1	26	blb_dichoticlistening_pa-da.mp3	pa	da	1	right
6.6.1	win	2023-06-24	12:54:04	13:07:50	822769	6290d930eb8f73a88e290de6	2	1	main_z	24	advance_on_keypress_ZEE	134	stimuli_target_squaretriangles.svg	stimuli_distractor_diamondtriangles.svg	7	yes	57	0	49	6	5	antiphase_hc_osi.wav	2	6	1	noise_calib_stim_LEFT.wav	1	26	blb_dichoticlistening_pa-da.mp3	pa	da	1	right
6.6.1	win	2023-06-24	12:54:04	13:07:51	824033	6290d930eb8f73a88e290de6	2	1	main_z	24	main_z	135	stimuli_target_rectanglediamonds.svg	stimuli_distractor_diamondtriangles.svg	6	yes	44	1	574	6	5	antiphase_hc_osi.wav	2	6	1	noise_calib_stim_LEFT.wav	1	26	blb_dichoticlistening_pa-da.mp3	pa	da	1	right
6.6.1	win	2023-06-24	12:54:04	13:07:51	824033	6290d930eb8f73a88e290de6	2	1	main_z	24	advance_on_keypress_ZEE	136	stimuli_target_rectanglediamonds.svg	stimuli_distractor_diamondtriangles.svg	6	yes	57	0	71	6	5	antiphase_hc_osi.wav	2	6	1	noise_calib_stim_LEFT.wav	1	26	blb_dichoticlistening_pa-da.mp3	pa	da	1	right
6.6.1	win	2023-06-24	12:54:04	13:07:52	825265	6290d930eb8f73a88e290de6	2	1	main_z	24	main_z	137	stimuli_distractor_trianglediamonds.svg	stimuli_target_diamondrectangles.svg	27	yes	44	1	523	6	5	antiphase_hc_osi.wav	2	6	1	noise_calib_stim_LEFT.wav	1	26	blb_dichoticlistening_pa-da.mp3	pa	da	1	right
6.6.1	win	2023-06-24	12:54:04	13:07:52	825265	6290d930eb8f73a88e290de6	2	1	main_z	24	advance_on_keypress_ZEE	138	stimuli_distractor_trianglediamonds.svg	stimuli_target_diamondrectangles.svg	27	yes	57	0	53	6	5	antiphase_hc_osi.wav	2	6	1	noise_calib_stim_LEFT.wav	1	26	blb_dichoticlistening_pa-da.mp3	pa	da	1	right
6.6.1	win	2023-06-24	12:54:04	13:07:54	826833	6290d930eb8f73a88e290de6	2	1	main_z	24	main_z	139	stimuli_distractor_diamondtriangles.svg	stimuli_target_squarediamonds.svg	16	yes	44	1	874	6	5	antiphase_hc_osi.wav	2	6	1	noise_calib_stim_LEFT.wav	1	26	blb_dichoticlistening_pa-da.mp3	pa	da	1	right
6.6.1	win	2023-06-24	12:54:04	13:07:54	826833	6290d930eb8f73a88e290de6	2	1	main_z	24	advance_on_keypress_ZEE	140	stimuli_distractor_diamondtriangles.svg	stimuli_target_squarediamonds.svg	16	yes	57	0	55	6	5	antiphase_hc_osi.wav	2	6	1	noise_calib_stim_LEFT.wav	1	26	blb_dichoticlistening_pa-da.mp3	pa	da	1	right
6.6.1	win	2023-06-24	12:54:04	13:07:56	829526	6290d930eb8f73a88e290de6	2	1	main_z	24	main_z	141	stimuli_distractor_trianglediamonds.svg	stimuli_distractor_diamondtriangles.svg	36	no	0	1	2000	6	5	antiphase_hc_osi.wav	2	6	1	noise_calib_stim_LEFT.wav	1	26	blb_dichoticlistening_pa-da.mp3	pa	da	1	right
6.6.1	win	2023-06-24	12:54:04	13:07:56	829526	6290d930eb8f73a88e290de6	2	1	main_z	24	advance_on_keypress_ZEE	142	stimuli_distractor_trianglediamonds.svg	stimuli_distractor_diamondtriangles.svg	36	no	57	0	443	6	5	antiphase_hc_osi.wav	2	6	1	noise_calib_stim_LEFT.wav	1	26	blb_dichoticlistening_pa-da.mp3	pa	da	1	right
6.6.1	win	2023-06-24	12:54:04	13:07:58	831125	6290d930eb8f73a88e290de6	2	1	main_z	24	main_z	143	stimuli_distractor_trianglediamonds.svg	stimuli_target_trianglesquares.svg	26	yes	44	1	504	6	5	antiphase_hc_osi.wav	2	6	1	noise_calib_stim_LEFT.wav	1	26	blb_dichoticlistening_pa-da.mp3	pa	da	1	right
6.6.1	win	2023-06-24	12:54:04	13:07:58	831125	6290d930eb8f73a88e290de6	2	1	main_z	24	advance_on_keypress_ZEE	144	stimuli_distractor_trianglediamonds.svg	stimuli_target_trianglesquares.svg	26	yes	57	0	43	6	5	antiphase_hc_osi.wav	2	6	1	noise_calib_stim_LEFT.wav	1	26	blb_dichoticlistening_pa-da.mp3	pa	da	1	right
6.6.1	win	2023-06-24	12:54:04	13:07:59	832361	6290d930eb8f73a88e290de6	2	1	main_z	24	main_z	145	stimuli_distractor_diamondtriangles.svg	stimuli_target_squaretriangles.svg	15	yes	44	1	552	6	5	antiphase_hc_osi.wav	2	6	1	noise_calib_stim_LEFT.wav	1	26	blb_dichoticlistening_pa-da.mp3	pa	da	1	right
6.6.1	win	2023-06-24	12:54:04	13:07:59	832361	6290d930eb8f73a88e290de6	2	1	main_z	24	advance_on_keypress_ZEE	146	stimuli_distractor_diamondtriangles.svg	stimuli_target_squaretriangles.svg	15	yes	57	0	49	6	5	antiphase_hc_osi.wav	2	6	1	noise_calib_stim_LEFT.wav	1	26	blb_dichoticlistening_pa-da.mp3	pa	da	1	right
6.6.1	win	2023-06-24	12:54:04	13:08:00	833489	6290d930eb8f73a88e290de6	2	1	main_z	24	main_z	147	stimuli_distractor_diamondtriangles.svg	stimuli_target_diamondrectangles.svg	31	yes	44	1	430	6	5	antiphase_hc_osi.wav	2	6	1	noise_calib_stim_LEFT.wav	1	26	blb_dichoticlistening_pa-da.mp3	pa	da	1	right
6.6.1	win	2023-06-24	12:54:04	13:08:00	833489	6290d930eb8f73a88e290de6	2	1	main_z	24	advance_on_keypress_ZEE	148	stimuli_distractor_diamondtriangles.svg	stimuli_target_diamondrectangles.svg	31	yes	57	0	53	6	5	antiphase_hc_osi.wav	2	6	1	noise_calib_stim_LEFT.wav	1	26	blb_dichoticlistening_pa-da.mp3	pa	da	1	right
6.6.1	win	2023-06-24	12:54:04	13:08:01	834673	6290d930eb8f73a88e290de6	2	1	main_z	24	main_z	149	stimuli_target_diamondsquares.svg	stimuli_distractor_diamondtriangles.svg	24	yes	44	1	497	6	5	antiphase_hc_osi.wav	2	6	1	noise_calib_stim_LEFT.wav	1	26	blb_dichoticlistening_pa-da.mp3	pa	da	1	right
6.6.1	win	2023-06-24	12:54:04	13:08:01	834673	6290d930eb8f73a88e290de6	2	1	main_z	24	advance_on_keypress_ZEE	150	stimuli_target_diamondsquares.svg	stimuli_distractor_diamondtriangles.svg	24	yes	57	0	53	6	5	antiphase_hc_osi.wav	2	6	1	noise_calib_stim_LEFT.wav	1	26	blb_dichoticlistening_pa-da.mp3	pa	da	1	right
6.6.1	win	2023-06-24	12:54:04	13:08:03	835833	6290d930eb8f73a88e290de6	2	1	main_z	24	main_z	151	stimuli_target_squarediamonds.svg	stimuli_distractor_diamondtriangles.svg	8	yes	44	1	474	6	5	antiphase_hc_osi.wav	2	6	1	noise_calib_stim_LEFT.wav	1	26	blb_dichoticlistening_pa-da.mp3	pa	da	1	right
6.6.1	win	2023-06-24	12:54:04	13:08:03	835833	6290d930eb8f73a88e290de6	2	1	main_z	24	advance_on_keypress_ZEE	152	stimuli_target_squarediamonds.svg	stimuli_distractor_diamondtriangles.svg	8	yes	57	0	63	6	5	antiphase_hc_osi.wav	2	6	1	noise_calib_stim_LEFT.wav	1	26	blb_dichoticlistening_pa-da.mp3	pa	da	1	right
6.6.1	win	2023-06-24	12:54:04	13:08:04	836969	6290d930eb8f73a88e290de6	2	1	main_z	24	main_z	153	stimuli_distractor_trianglediamonds.svg	stimuli_target_squaretriangles.svg	11	yes	44	1	443	6	5	antiphase_hc_osi.wav	2	6	1	noise_calib_stim_LEFT.wav	1	26	blb_dichoticlistening_pa-da.mp3	pa	da	1	right
6.6.1	win	2023-06-24	12:54:04	13:08:04	836969	6290d930eb8f73a88e290de6	2	1	main_z	24	advance_on_keypress_ZEE	154	stimuli_distractor_trianglediamonds.svg	stimuli_target_squaretriangles.svg	11	yes	57	0	49	6	5	antiphase_hc_osi.wav	2	6	1	noise_calib_stim_LEFT.wav	1	26	blb_dichoticlistening_pa-da.mp3	pa	da	1	right
6.6.1	win	2023-06-24	12:54:04	13:08:05	838153	6290d930eb8f73a88e290de6	2	1	main_z	24	main_z	155	stimuli_distractor_diamondtriangles.svg	stimuli_target_rectanglediamonds.svg	14	yes	44	1	494	6	5	antiphase_hc_osi.wav	2	6	1	noise_calib_stim_LEFT.wav	1	26	blb_dichoticlistening_pa-da.mp3	pa	da	1	right
6.6.1	win	2023-06-24	12:54:04	13:08:05	838153	6290d930eb8f73a88e290de6	2	1	main_z	24	advance_on_keypress_ZEE	156	stimuli_distractor_diamondtriangles.svg	stimuli_target_rectanglediamonds.svg	14	yes	57	0	74	6	5	antiphase_hc_osi.wav	2	6	1	noise_calib_stim_LEFT.wav	1	26	blb_dichoticlistening_pa-da.mp3	pa	da	1	right
6.6.1	win	2023-06-24	12:54:04	13:08:08	840859	6290d930eb8f73a88e290de6	2	1	main_z	24	main_z	157	stimuli_distractor_diamondtriangles.svg	stimuli_distractor_trianglediamonds.svg	38	no	0	1	2000	6	5	antiphase_hc_osi.wav	2	6	1	noise_calib_stim_LEFT.wav	1	26	blb_dichoticlistening_pa-da.mp3	pa	da	1	right
6.6.1	win	2023-06-24	12:54:04	13:08:08	840859	6290d930eb8f73a88e290de6	2	1	main_z	24	advance_on_keypress_ZEE	158	stimuli_distractor_diamondtriangles.svg	stimuli_distractor_trianglediamonds.svg	38	no	57	0	509	6	5	antiphase_hc_osi.wav	2	6	1	noise_calib_stim_LEFT.wav	1	26	blb_dichoticlistening_pa-da.mp3	pa	da	1	right
6.6.1	win	2023-06-24	12:54:04	13:08:09	842745	6290d930eb8f73a88e290de6	2	1	main_z	24	main_z	159	stimuli_target_trianglerectangles.svg	stimuli_distractor_trianglediamonds.svg	17	yes	44	1	736	6	5	antiphase_hc_osi.wav	2	6	1	noise_calib_stim_LEFT.wav	1	26	blb_dichoticlistening_pa-da.mp3	pa	da	1	right
6.6.1	win	2023-06-24	12:54:04	13:08:09	842745	6290d930eb8f73a88e290de6	2	1	main_z	24	advance_on_keypress_ZEE	160	stimuli_target_trianglerectangles.svg	stimuli_distractor_trianglediamonds.svg	17	yes	57	0	34	6	5	antiphase_hc_osi.wav	2	6	1	noise_calib_stim_LEFT.wav	1	26	blb_dichoticlistening_pa-da.mp3	pa	da	1	right
6.6.1	win	2023-06-24	12:54:04	13:08:42	875290	6290d930eb8f73a88e290de6	2	1	practice_slash	26	practice_slash	1	stimuli_target_diamondsquares.svg	stimuli_distractor_diamondtriangles.svg	3	yes	53	1	697	6	5	antiphase_hc_osi.wav	2	6	1	noise_calib_stim_LEFT.wav	1	26	blb_dichoticlistening_pa-da.mp3	pa	da	1	right
6.6.1	win	2023-06-24	12:54:04	13:08:42	875290	6290d930eb8f73a88e290de6	2	1	practice_slash	26	advance_on_keypress_SLASH	2	stimuli_target_diamondsquares.svg	stimuli_distractor_diamondtriangles.svg	3	yes	57	0	460	6	5	antiphase_hc_osi.wav	2	6	1	noise_calib_stim_LEFT.wav	1	26	blb_dichoticlistening_pa-da.mp3	pa	da	1	right
6.6.1	win	2023-06-24	12:54:04	13:08:45	877881	6290d930eb8f73a88e290de6	2	1	practice_slash	26	practice_slash	3	stimuli_target_rectanglediamonds.svg	stimuli_distractor_diamondtriangles.svg	1	yes	53	1	489	6	5	antiphase_hc_osi.wav	2	6	1	noise_calib_stim_LEFT.wav	1	26	blb_dichoticlistening_pa-da.mp3	pa	da	1	right
6.6.1	win	2023-06-24	12:54:04	13:08:45	877881	6290d930eb8f73a88e290de6	2	1	practice_slash	26	advance_on_keypress_SLASH	4	stimuli_target_rectanglediamonds.svg	stimuli_distractor_diamondtriangles.svg	1	yes	57	0	389	6	5	antiphase_hc_osi.wav	2	6	1	noise_calib_stim_LEFT.wav	1	26	blb_dichoticlistening_pa-da.mp3	pa	da	1	right
6.6.1	win	2023-06-24	12:54:04	13:08:47	880433	6290d930eb8f73a88e290de6	2	1	practice_slash	26	practice_slash	5	stimuli_target_diamondsquares.svg	stimuli_distractor_trianglediamonds.svg	6	yes	53	1	524	6	5	antiphase_hc_osi.wav	2	6	1	noise_calib_stim_LEFT.wav	1	26	blb_dichoticlistening_pa-da.mp3	pa	da	1	right
6.6.1	win	2023-06-24	12:54:04	13:08:47	880433	6290d930eb8f73a88e290de6	2	1	practice_slash	26	advance_on_keypress_SLASH	6	stimuli_target_diamondsquares.svg	stimuli_distractor_trianglediamonds.svg	6	yes	57	0	391	6	5	antiphase_hc_osi.wav	2	6	1	noise_calib_stim_LEFT.wav	1	26	blb_dichoticlistening_pa-da.mp3	pa	da	1	right
6.6.1	win	2023-06-24	12:54:04	13:08:51	884460	6290d930eb8f73a88e290de6	2	1	practice_slash	26	practice_slash	7	stimuli_distractor_diamondtriangles.svg	stimuli_distractor_trianglediamonds.svg	14	no	0	1	2000	6	5	antiphase_hc_osi.wav	2	6	1	noise_calib_stim_LEFT.wav	1	26	blb_dichoticlistening_pa-da.mp3	pa	da	1	right
6.6.1	win	2023-06-24	12:54:04	13:08:51	884460	6290d930eb8f73a88e290de6	2	1	practice_slash	26	advance_on_keypress_SLASH	8	stimuli_distractor_diamondtriangles.svg	stimuli_distractor_trianglediamonds.svg	14	no	57	0	309	6	5	antiphase_hc_osi.wav	2	6	1	noise_calib_stim_LEFT.wav	1	26	blb_dichoticlistening_pa-da.mp3	pa	da	1	right
6.6.1	win	2023-06-24	12:54:04	13:08:54	886833	6290d930eb8f73a88e290de6	2	1	practice_slash	26	practice_slash	9	stimuli_distractor_diamondtriangles.svg	stimuli_target_diamondrectangles.svg	8	yes	53	1	424	6	5	antiphase_hc_osi.wav	2	6	1	noise_calib_stim_LEFT.wav	1	26	blb_dichoticlistening_pa-da.mp3	pa	da	1	right
6.6.1	win	2023-06-24	12:54:04	13:08:54	886833	6290d930eb8f73a88e290de6	2	1	practice_slash	26	advance_on_keypress_SLASH	10	stimuli_distractor_diamondtriangles.svg	stimuli_target_diamondrectangles.svg	8	yes	57	0	319	6	5	antiphase_hc_osi.wav	2	6	1	noise_calib_stim_LEFT.wav	1	26	blb_dichoticlistening_pa-da.mp3	pa	da	1	right
6.6.1	win	2023-06-24	12:54:04	13:08:56	889210	6290d930eb8f73a88e290de6	2	1	practice_slash	26	practice_slash	11	stimuli_distractor_trianglediamonds.svg	stimuli_target_diamondrectangles.svg	12	yes	53	1	416	6	5	antiphase_hc_osi.wav	2	6	1	noise_calib_stim_LEFT.wav	1	26	blb_dichoticlistening_pa-da.mp3	pa	da	1	right
6.6.1	win	2023-06-24	12:54:04	13:08:56	889210	6290d930eb8f73a88e290de6	2	1	practice_slash	26	advance_on_keypress_SLASH	12	stimuli_distractor_trianglediamonds.svg	stimuli_target_diamondrectangles.svg	12	yes	57	0	367	6	5	antiphase_hc_osi.wav	2	6	1	noise_calib_stim_LEFT.wav	1	26	blb_dichoticlistening_pa-da.mp3	pa	da	1	right
6.6.1	win	2023-06-24	12:54:04	13:08:58	891666	6290d930eb8f73a88e290de6	2	1	practice_slash	26	practice_slash	13	stimuli_distractor_trianglediamonds.svg	stimuli_target_rectanglediamonds.svg	10	yes	53	1	439	6	5	antiphase_hc_osi.wav	2	6	1	noise_calib_stim_LEFT.wav	1	26	blb_dichoticlistening_pa-da.mp3	pa	da	1	right
6.6.1	win	2023-06-24	12:54:04	13:08:58	891666	6290d930eb8f73a88e290de6	2	1	practice_slash	26	advance_on_keypress_SLASH	14	stimuli_distractor_trianglediamonds.svg	stimuli_target_rectanglediamonds.svg	10	yes	57	0	253	6	5	antiphase_hc_osi.wav	2	6	1	noise_calib_stim_LEFT.wav	1	26	blb_dichoticlistening_pa-da.mp3	pa	da	1	right
6.6.1	win	2023-06-24	12:54:04	13:09:01	893969	6290d930eb8f73a88e290de6	2	1	practice_slash	26	practice_slash	15	stimuli_target_rectanglediamonds.svg	stimuli_distractor_trianglediamonds.svg	4	yes	53	1	410	6	5	antiphase_hc_osi.wav	2	6	1	noise_calib_stim_LEFT.wav	1	26	blb_dichoticlistening_pa-da.mp3	pa	da	1	right
6.6.1	win	2023-06-24	12:54:04	13:09:01	893969	6290d930eb8f73a88e290de6	2	1	practice_slash	26	advance_on_keypress_SLASH	16	stimuli_target_rectanglediamonds.svg	stimuli_distractor_trianglediamonds.svg	4	yes	57	0	385	6	5	antiphase_hc_osi.wav	2	6	1	noise_calib_stim_LEFT.wav	1	26	blb_dichoticlistening_pa-da.mp3	pa	da	1	right
6.6.1	win	2023-06-24	12:54:04	13:09:03	896393	6290d930eb8f73a88e290de6	2	1	practice_slash	26	practice_slash	17	stimuli_distractor_trianglediamonds.svg	stimuli_target_squarediamonds.svg	11	yes	53	1	400	6	5	antiphase_hc_osi.wav	2	6	1	noise_calib_stim_LEFT.wav	1	26	blb_dichoticlistening_pa-da.mp3	pa	da	1	right
6.6.1	win	2023-06-24	12:54:04	13:09:03	896393	6290d930eb8f73a88e290de6	2	1	practice_slash	26	advance_on_keypress_SLASH	18	stimuli_distractor_trianglediamonds.svg	stimuli_target_squarediamonds.svg	11	yes	57	0	240	6	5	antiphase_hc_osi.wav	2	6	1	noise_calib_stim_LEFT.wav	1	26	blb_dichoticlistening_pa-da.mp3	pa	da	1	right
6.6.1	win	2023-06-24	12:54:04	13:09:07	900277	6290d930eb8f73a88e290de6	2	1	practice_slash	26	practice_slash	19	stimuli_distractor_trianglediamonds.svg	stimuli_distractor_trianglediamonds.svg	15	no	0	1	2000	6	5	antiphase_hc_osi.wav	2	6	1	noise_calib_stim_LEFT.wav	1	26	blb_dichoticlistening_pa-da.mp3	pa	da	1	right
