build	computer.platform	date	time	timestamp	time_elapsed_ms	subject	group	session	blockcode	blocknum	trialcode	trialnum	stimulus_left	stimulus_right	stim_index	target_present	response	correct	latency	headphonecheck_countTestTrials	headphonecheck_index	headphonecheck_testSound	headphonecheck_correctResponse	stereocheck_countTestTrials	stereocheck_index	stereocheck_testSound	stereocheck_correctResponse	DL_index	DL_soundfile	DL_leftSound	DL_rightSound	DL_dualSound	DL_choice
6.6.1	win	2023-06-26	18:31:17	0	0	63d7f3f4e50de685d3d5b4fb	2	1	headphonecheck_calibration	4	headphonecheck_calibrationIntro	1			0		calibrationButton	0	1617	0	0			0	0			1				0	
6.6.1	win	2023-06-26	18:31:17	0	0	63d7f3f4e50de685d3d5b4fb	2	1	headphonecheck_testphase	5	test_collectResponse	3			0		second	1	5046	1	5	antiphase_hc_osi.wav	2	0	0			1				0	
6.6.1	win	2023-06-26	18:31:17	0	0	63d7f3f4e50de685d3d5b4fb	2	1	headphonecheck_testphase	5	test_collectResponse	6			0		third	1	2452	2	2	antiphase_hc_ios.wav	3	0	0			1				0	
6.6.1	win	2023-06-26	18:31:17	0	0	63d7f3f4e50de685d3d5b4fb	2	1	headphonecheck_testphase	5	test_collectResponse	9			0		first	1	351	3	3	antiphase_hc_soi.wav	1	0	0			1				0	
6.6.1	win	2023-06-26	18:31:17	0	0	63d7f3f4e50de685d3d5b4fb	2	1	headphonecheck_testphase	5	test_collectResponse	12			0		second	1	1190	4	1	antiphase_hc_iso.wav	2	0	0			1				0	
6.6.1	win	2023-06-26	18:31:17	0	0	63d7f3f4e50de685d3d5b4fb	2	1	headphonecheck_testphase	5	test_collectResponse	15			0		first	0	1080	5	6	antiphase_hc_ois.wav	3	0	0			1				0	
6.6.1	win	2023-06-26	18:31:17	0	0	63d7f3f4e50de685d3d5b4fb	2	1	headphonecheck_testphase	5	test_collectResponse	18			0		first	1	1521	6	4	antiphase_hc_sio.wav	1	0	0			1				0	
6.6.1	win	2023-06-26	18:31:17	0	0	63d7f3f4e50de685d3d5b4fb	2	1	stereocheck_calibration	7	stereocheck_calibrationIntro	1			0		stereocheck_calibrationButton	0	11230	6	4	antiphase_hc_sio.wav	1	0	0			1				0	
6.6.1	win	2023-06-26	18:31:17	0	0	63d7f3f4e50de685d3d5b4fb	2	1	stereocheck_testphase	8	stereocheck_test_collectResponse	3			0		stereocheck_right	1	1026	6	4	antiphase_hc_sio.wav	1	1	5	noise_calib_stim_RIGHT.wav	2	1				0	
6.6.1	win	2023-06-26	18:31:17	0	0	63d7f3f4e50de685d3d5b4fb	2	1	stereocheck_testphase	8	stereocheck_test_collectResponse	6			0		stereocheck_left	1	274	6	4	antiphase_hc_sio.wav	1	2	2	noise_calib_stim_LEFT.wav	1	1				0	
6.6.1	win	2023-06-26	18:31:17	0	0	63d7f3f4e50de685d3d5b4fb	2	1	stereocheck_testphase	8	stereocheck_test_collectResponse	9			0		stereocheck_right	1	262	6	4	antiphase_hc_sio.wav	1	3	4	noise_calib_stim_RIGHT.wav	2	1				0	
6.6.1	win	2023-06-26	18:31:17	0	0	63d7f3f4e50de685d3d5b4fb	2	1	stereocheck_testphase	8	stereocheck_test_collectResponse	12			0		stereocheck_left	1	392	6	4	antiphase_hc_sio.wav	1	4	1	noise_calib_stim_LEFT.wav	1	1				0	
6.6.1	win	2023-06-26	18:31:17	0	0	63d7f3f4e50de685d3d5b4fb	2	1	stereocheck_testphase	8	stereocheck_test_collectResponse	15			0		stereocheck_right	1	356	6	4	antiphase_hc_sio.wav	1	5	6	noise_calib_stim_RIGHT.wav	2	1				0	
6.6.1	win	2023-06-26	18:31:17	0	0	63d7f3f4e50de685d3d5b4fb	2	1	stereocheck_testphase	8	stereocheck_test_collectResponse	18			0		stereocheck_left	1	390	6	4	antiphase_hc_sio.wav	1	6	3	noise_calib_stim_LEFT.wav	1	1				0	
6.6.1	win	2023-06-26	18:31:17	0	0	63d7f3f4e50de685d3d5b4fb	2	1	DL_practice	11	DL_practice	2			0		ta	1	1433	6	4	antiphase_hc_sio.wav	1	6	3	noise_calib_stim_LEFT.wav	1	18	blb_dichoticlistening_ga-ta.mp3	ga	ta	1	right
6.6.1	win	2023-06-26	18:31:17	0	0	63d7f3f4e50de685d3d5b4fb	2	1	DL_practice	11	DL_practice	3			0		ta	1	850	6	4	antiphase_hc_sio.wav	1	6	3	noise_calib_stim_LEFT.wav	1	36	blb_dichoticlistening_ta-ta.mp3	ta	ta	0	left
6.6.1	win	2023-06-26	18:31:17	0	0	63d7f3f4e50de685d3d5b4fb	2	1	DL_practice	11	DL_practice	4			0		da	1	1170	6	4	antiphase_hc_sio.wav	1	6	3	noise_calib_stim_LEFT.wav	1	7	blb_dichoticlistening_da-ba.mp3	da	ba	1	left
6.6.1	win	2023-06-26	18:31:17	0	0	63d7f3f4e50de685d3d5b4fb	2	1	DL_practice	11	DL_practice	5			0		ba	1	1652	6	4	antiphase_hc_sio.wav	1	6	3	noise_calib_stim_LEFT.wav	1	1	blb_dichoticlistening_ba-ba.mp3	ba	ba	0	left
6.6.1	win	2023-06-26	18:31:17	0	0	63d7f3f4e50de685d3d5b4fb	2	1	DL_practice	11	DL_practice	6			0		ba	0	138	6	4	antiphase_hc_sio.wav	1	6	3	noise_calib_stim_LEFT.wav	1	23	blb_dichoticlistening_ka-pa.mp3	ka	pa	1	other
6.6.1	win	2023-06-26	18:31:17	0	0	63d7f3f4e50de685d3d5b4fb	2	1	DL_practice	11	DL_practice	7			0		pa	0	1393	6	4	antiphase_hc_sio.wav	1	6	3	noise_calib_stim_LEFT.wav	1	15	blb_dichoticlistening_ga-ga.mp3	ga	ga	0	other
6.6.1	win	2023-06-26	18:31:17	0	0	63d7f3f4e50de685d3d5b4fb	2	1	DL_practice	11	DL_practice	8			0		pa	1	1021	6	4	antiphase_hc_sio.wav	1	6	3	noise_calib_stim_LEFT.wav	1	29	blb_dichoticlistening_pa-pa.mp3	pa	pa	0	left
6.6.1	win	2023-06-26	18:31:17	0	0	63d7f3f4e50de685d3d5b4fb	2	1	DL_practice	11	DL_practice	9			0		ka	1	1046	6	4	antiphase_hc_sio.wav	1	6	3	noise_calib_stim_LEFT.wav	1	22	blb_dichoticlistening_ka-ka.mp3	ka	ka	0	left
6.6.1	win	2023-06-26	18:31:17	0	0	63d7f3f4e50de685d3d5b4fb	2	1	DL_practice	11	DL_practice	10			0		da	1	994	6	4	antiphase_hc_sio.wav	1	6	3	noise_calib_stim_LEFT.wav	1	8	blb_dichoticlistening_da-da.mp3	da	da	0	left
6.6.1	win	2023-06-26	18:31:17	0	0	63d7f3f4e50de685d3d5b4fb	2	1	DL_test	13	DL_test	1			0		da	0	866	6	4	antiphase_hc_sio.wav	1	6	3	noise_calib_stim_LEFT.wav	1	3	blb_dichoticlistening_ba-ga.mp3	ba	ga	1	other
6.6.1	win	2023-06-26	18:31:17	0	0	63d7f3f4e50de685d3d5b4fb	2	1	DL_test	13	DL_test	2			0		ka	1	1113	6	4	antiphase_hc_sio.wav	1	6	3	noise_calib_stim_LEFT.wav	1	20	blb_dichoticlistening_ka-da.mp3	ka	da	1	left
6.6.1	win	2023-06-26	18:31:17	0	0	63d7f3f4e50de685d3d5b4fb	2	1	DL_test	13	DL_test	3			0		pa	1	852	6	4	antiphase_hc_sio.wav	1	6	3	noise_calib_stim_LEFT.wav	1	5	blb_dichoticlistening_ba-pa.mp3	ba	pa	1	right
6.6.1	win	2023-06-26	18:31:17	0	0	63d7f3f4e50de685d3d5b4fb	2	1	DL_test	13	DL_test	4			0		ka	1	1107	6	4	antiphase_hc_sio.wav	1	6	3	noise_calib_stim_LEFT.wav	1	4	blb_dichoticlistening_ba-ka.mp3	ba	ka	1	right
6.6.1	win	2023-06-26	18:31:17	0	0	63d7f3f4e50de685d3d5b4fb	2	1	DL_test	13	DL_test	5			0		ta	1	1107	6	4	antiphase_hc_sio.wav	1	6	3	noise_calib_stim_LEFT.wav	1	35	blb_dichoticlistening_ta-pa.mp3	ta	pa	1	left
6.6.1	win	2023-06-26	18:31:17	0	0	63d7f3f4e50de685d3d5b4fb	2	1	DL_test	13	DL_test	6			0		da	0	1117	6	4	antiphase_hc_sio.wav	1	6	3	noise_calib_stim_LEFT.wav	1	15	blb_dichoticlistening_ga-ga.mp3	ga	ga	0	other
6.6.1	win	2023-06-26	18:31:17	0	0	63d7f3f4e50de685d3d5b4fb	2	1	DL_test	13	DL_test	7			0		ka	1	888	6	4	antiphase_hc_sio.wav	1	6	3	noise_calib_stim_LEFT.wav	1	16	blb_dichoticlistening_ga-ka.mp3	ga	ka	1	right
6.6.1	win	2023-06-26	18:31:17	0	0	63d7f3f4e50de685d3d5b4fb	2	1	DL_test	13	DL_test	8			0		pa	1	934	6	4	antiphase_hc_sio.wav	1	6	3	noise_calib_stim_LEFT.wav	1	27	blb_dichoticlistening_pa-ga.mp3	pa	ga	1	left
6.6.1	win	2023-06-26	18:31:17	0	0	63d7f3f4e50de685d3d5b4fb	2	1	DL_test	13	DL_test	9			0		pa	1	829	6	4	antiphase_hc_sio.wav	1	6	3	noise_calib_stim_LEFT.wav	1	29	blb_dichoticlistening_pa-pa.mp3	pa	pa	0	left
6.6.1	win	2023-06-26	18:31:17	0	0	63d7f3f4e50de685d3d5b4fb	2	1	DL_test	13	DL_test	10			0		ta	1	904	6	4	antiphase_hc_sio.wav	1	6	3	noise_calib_stim_LEFT.wav	1	36	blb_dichoticlistening_ta-ta.mp3	ta	ta	0	left
6.6.1	win	2023-06-26	18:31:17	0	0	63d7f3f4e50de685d3d5b4fb	2	1	DL_test	13	DL_test	11			0		ta	1	693	6	4	antiphase_hc_sio.wav	1	6	3	noise_calib_stim_LEFT.wav	1	12	blb_dichoticlistening_da-ta.mp3	da	ta	1	right
6.6.1	win	2023-06-26	18:31:17	0	0	63d7f3f4e50de685d3d5b4fb	2	1	DL_test	13	DL_test	12			0		ba	0	911	6	4	antiphase_hc_sio.wav	1	6	3	noise_calib_stim_LEFT.wav	1	11	blb_dichoticlistening_da-pa.mp3	da	pa	1	other
6.6.1	win	2023-06-26	18:31:17	0	0	63d7f3f4e50de685d3d5b4fb	2	1	DL_test	13	DL_test	13			0		da	1	832	6	4	antiphase_hc_sio.wav	1	6	3	noise_calib_stim_LEFT.wav	1	2	blb_dichoticlistening_ba-da.mp3	ba	da	1	right
6.6.1	win	2023-06-26	18:31:17	0	0	63d7f3f4e50de685d3d5b4fb	2	1	DL_test	13	DL_test	14			0		ka	1	1185	6	4	antiphase_hc_sio.wav	1	6	3	noise_calib_stim_LEFT.wav	1	19	blb_dichoticlistening_ka-ba.mp3	ka	ba	1	left
6.6.1	win	2023-06-26	18:31:17	0	0	63d7f3f4e50de685d3d5b4fb	2	1	DL_test	13	DL_test	15			0		ta	1	1002	6	4	antiphase_hc_sio.wav	1	6	3	noise_calib_stim_LEFT.wav	1	6	blb_dichoticlistening_ba-ta.mp3	ba	ta	1	right
6.6.1	win	2023-06-26	18:31:17	0	0	63d7f3f4e50de685d3d5b4fb	2	1	DL_test	13	DL_test	16			0		da	1	959	6	4	antiphase_hc_sio.wav	1	6	3	noise_calib_stim_LEFT.wav	1	14	blb_dichoticlistening_ga-da.mp3	ga	da	1	right
6.6.1	win	2023-06-26	18:31:17	0	0	63d7f3f4e50de685d3d5b4fb	2	1	DL_test	13	DL_test	17			0		ka	1	1222	6	4	antiphase_hc_sio.wav	1	6	3	noise_calib_stim_LEFT.wav	1	34	blb_dichoticlistening_ta-ka.mp3	ta	ka	1	right
6.6.1	win	2023-06-26	18:31:17	0	0	63d7f3f4e50de685d3d5b4fb	2	1	DL_test	13	DL_test	18			0		pa	0	1209	6	4	antiphase_hc_sio.wav	1	6	3	noise_calib_stim_LEFT.wav	1	10	blb_dichoticlistening_da-ka.mp3	da	ka	1	other
6.6.1	win	2023-06-26	18:31:17	0	0	63d7f3f4e50de685d3d5b4fb	2	1	DL_test	13	DL_test	19			0		pa	0	820	6	4	antiphase_hc_sio.wav	1	6	3	noise_calib_stim_LEFT.wav	1	31	blb_dichoticlistening_ta-ba.mp3	ta	ba	1	other
6.6.1	win	2023-06-26	18:31:17	0	0	63d7f3f4e50de685d3d5b4fb	2	1	DL_test	13	DL_test	20			0		da	1	891	6	4	antiphase_hc_sio.wav	1	6	3	noise_calib_stim_LEFT.wav	1	9	blb_dichoticlistening_da-ga.mp3	da	ga	1	left
6.6.1	win	2023-06-26	18:31:17	0	0	63d7f3f4e50de685d3d5b4fb	2	1	DL_test	13	DL_test	21			0		ka	1	1114	6	4	antiphase_hc_sio.wav	1	6	3	noise_calib_stim_LEFT.wav	1	28	blb_dichoticlistening_pa-ka.mp3	pa	ka	1	right
6.6.1	win	2023-06-26	18:31:17	0	0	63d7f3f4e50de685d3d5b4fb	2	1	DL_test	13	DL_test	22			0		ta	1	947	6	4	antiphase_hc_sio.wav	1	6	3	noise_calib_stim_LEFT.wav	1	18	blb_dichoticlistening_ga-ta.mp3	ga	ta	1	right
6.6.1	win	2023-06-26	18:31:17	0	0	63d7f3f4e50de685d3d5b4fb	2	1	DL_test	13	DL_test	23			0		da	0	1805	6	4	antiphase_hc_sio.wav	1	6	3	noise_calib_stim_LEFT.wav	1	17	blb_dichoticlistening_ga-pa.mp3	ga	pa	1	other
6.6.1	win	2023-06-26	18:31:17	0	0	63d7f3f4e50de685d3d5b4fb	2	1	DL_test	13	DL_test	24			0		pa	1	1333	6	4	antiphase_hc_sio.wav	1	6	3	noise_calib_stim_LEFT.wav	1	25	blb_dichoticlistening_pa-ba.mp3	pa	ba	1	left
6.6.1	win	2023-06-26	18:31:17	0	0	63d7f3f4e50de685d3d5b4fb	2	1	DL_test	13	DL_test	25			0		ka	1	1213	6	4	antiphase_hc_sio.wav	1	6	3	noise_calib_stim_LEFT.wav	1	24	blb_dichoticlistening_ka-ta.mp3	ka	ta	1	left
6.6.1	win	2023-06-26	18:31:17	0	0	63d7f3f4e50de685d3d5b4fb	2	1	DL_test	13	DL_test	26			0		ka	1	734	6	4	antiphase_hc_sio.wav	1	6	3	noise_calib_stim_LEFT.wav	1	21	blb_dichoticlistening_ka-ga.mp3	ka	ga	1	left
6.6.1	win	2023-06-26	18:31:17	0	0	63d7f3f4e50de685d3d5b4fb	2	1	DL_test	13	DL_test	27			0		ba	1	1089	6	4	antiphase_hc_sio.wav	1	6	3	noise_calib_stim_LEFT.wav	1	1	blb_dichoticlistening_ba-ba.mp3	ba	ba	0	left
6.6.1	win	2023-06-26	18:31:17	0	0	63d7f3f4e50de685d3d5b4fb	2	1	DL_test	13	DL_test	28			0		pa	1	1540	6	4	antiphase_hc_sio.wav	1	6	3	noise_calib_stim_LEFT.wav	1	23	blb_dichoticlistening_ka-pa.mp3	ka	pa	1	right
6.6.1	win	2023-06-26	18:31:17	0	0	63d7f3f4e50de685d3d5b4fb	2	1	DL_test	13	DL_test	29			0		da	1	1559	6	4	antiphase_hc_sio.wav	1	6	3	noise_calib_stim_LEFT.wav	1	7	blb_dichoticlistening_da-ba.mp3	da	ba	1	left
6.6.1	win	2023-06-26	18:31:17	0	0	63d7f3f4e50de685d3d5b4fb	2	1	DL_test	13	DL_test	30			0		ka	1	1026	6	4	antiphase_hc_sio.wav	1	6	3	noise_calib_stim_LEFT.wav	1	22	blb_dichoticlistening_ka-ka.mp3	ka	ka	0	left
6.6.1	win	2023-06-26	18:31:17	0	0	63d7f3f4e50de685d3d5b4fb	2	1	DL_test	13	DL_test	31			0		ta	1	1246	6	4	antiphase_hc_sio.wav	1	6	3	noise_calib_stim_LEFT.wav	1	32	blb_dichoticlistening_ta-da.mp3	ta	da	1	left
6.6.1	win	2023-06-26	18:31:17	0	0	63d7f3f4e50de685d3d5b4fb	2	1	DL_test	13	DL_test	32			0		da	1	954	6	4	antiphase_hc_sio.wav	1	6	3	noise_calib_stim_LEFT.wav	1	8	blb_dichoticlistening_da-da.mp3	da	da	0	left
6.6.1	win	2023-06-26	18:31:17	0	0	63d7f3f4e50de685d3d5b4fb	2	1	DL_test	13	DL_test	33			0		ta	1	1068	6	4	antiphase_hc_sio.wav	1	6	3	noise_calib_stim_LEFT.wav	1	30	blb_dichoticlistening_pa-ta.mp3	pa	ta	1	right
6.6.1	win	2023-06-26	18:31:17	0	0	63d7f3f4e50de685d3d5b4fb	2	1	DL_test	13	DL_test	34			0		pa	1	996	6	4	antiphase_hc_sio.wav	1	6	3	noise_calib_stim_LEFT.wav	1	26	blb_dichoticlistening_pa-da.mp3	pa	da	1	left
6.6.1	win	2023-06-26	18:31:17	0	0	63d7f3f4e50de685d3d5b4fb	2	1	DL_test	13	DL_test	35			0		da	0	1250	6	4	antiphase_hc_sio.wav	1	6	3	noise_calib_stim_LEFT.wav	1	13	blb_dichoticlistening_ga-ba.mp3	ga	ba	1	other
6.6.1	win	2023-06-26	18:31:17	0	0	63d7f3f4e50de685d3d5b4fb	2	1	DL_test	13	DL_test	36			0		ta	1	1479	6	4	antiphase_hc_sio.wav	1	6	3	noise_calib_stim_LEFT.wav	1	33	blb_dichoticlistening_ta-ga.mp3	ta	ga	1	left
6.6.1	win	2023-06-26	18:31:17	0	0	63d7f3f4e50de685d3d5b4fb	2	1	DL_test	14	DL_test	1			0		ta	0	1213	6	4	antiphase_hc_sio.wav	1	6	3	noise_calib_stim_LEFT.wav	1	20	blb_dichoticlistening_ka-da.mp3	ka	da	1	other
6.6.1	win	2023-06-26	18:31:17	0	0	63d7f3f4e50de685d3d5b4fb	2	1	DL_test	14	DL_test	2			0		ta	0	1268	6	4	antiphase_hc_sio.wav	1	6	3	noise_calib_stim_LEFT.wav	1	10	blb_dichoticlistening_da-ka.mp3	da	ka	1	other
6.6.1	win	2023-06-26	18:31:17	0	0	63d7f3f4e50de685d3d5b4fb	2	1	DL_test	14	DL_test	3			0		ta	0	1110	6	4	antiphase_hc_sio.wav	1	6	3	noise_calib_stim_LEFT.wav	1	27	blb_dichoticlistening_pa-ga.mp3	pa	ga	1	other
6.6.1	win	2023-06-26	18:31:17	0	0	63d7f3f4e50de685d3d5b4fb	2	1	DL_test	14	DL_test	4			0		ta	1	930	6	4	antiphase_hc_sio.wav	1	6	3	noise_calib_stim_LEFT.wav	1	6	blb_dichoticlistening_ba-ta.mp3	ba	ta	1	right
6.6.1	win	2023-06-26	18:31:17	0	0	63d7f3f4e50de685d3d5b4fb	2	1	DL_test	14	DL_test	5			0		ka	1	1001	6	4	antiphase_hc_sio.wav	1	6	3	noise_calib_stim_LEFT.wav	1	28	blb_dichoticlistening_pa-ka.mp3	pa	ka	1	right
6.6.1	win	2023-06-26	18:31:17	0	0	63d7f3f4e50de685d3d5b4fb	2	1	DL_test	14	DL_test	6			0		pa	1	1300	6	4	antiphase_hc_sio.wav	1	6	3	noise_calib_stim_LEFT.wav	1	26	blb_dichoticlistening_pa-da.mp3	pa	da	1	left
6.6.1	win	2023-06-26	18:31:17	0	0	63d7f3f4e50de685d3d5b4fb	2	1	DL_test	14	DL_test	7			0		ta	1	1031	6	4	antiphase_hc_sio.wav	1	6	3	noise_calib_stim_LEFT.wav	1	32	blb_dichoticlistening_ta-da.mp3	ta	da	1	left
6.6.1	win	2023-06-26	18:31:17	0	0	63d7f3f4e50de685d3d5b4fb	2	1	DL_test	14	DL_test	8			0		da	1	777	6	4	antiphase_hc_sio.wav	1	6	3	noise_calib_stim_LEFT.wav	1	2	blb_dichoticlistening_ba-da.mp3	ba	da	1	right
6.6.1	win	2023-06-26	18:31:17	0	0	63d7f3f4e50de685d3d5b4fb	2	1	DL_test	14	DL_test	9			0		pa	1	1110	6	4	antiphase_hc_sio.wav	1	6	3	noise_calib_stim_LEFT.wav	1	29	blb_dichoticlistening_pa-pa.mp3	pa	pa	0	left
6.6.1	win	2023-06-26	18:31:17	0	0	63d7f3f4e50de685d3d5b4fb	2	1	DL_test	14	DL_test	10			0		da	0	976	6	4	antiphase_hc_sio.wav	1	6	3	noise_calib_stim_LEFT.wav	1	3	blb_dichoticlistening_ba-ga.mp3	ba	ga	1	other
6.6.1	win	2023-06-26	18:31:17	0	0	63d7f3f4e50de685d3d5b4fb	2	1	DL_test	14	DL_test	11			0		ta	1	1177	6	4	antiphase_hc_sio.wav	1	6	3	noise_calib_stim_LEFT.wav	1	30	blb_dichoticlistening_pa-ta.mp3	pa	ta	1	right
6.6.1	win	2023-06-26	18:31:17	0	0	63d7f3f4e50de685d3d5b4fb	2	1	DL_test	14	DL_test	12			0		pa	1	1043	6	4	antiphase_hc_sio.wav	1	6	3	noise_calib_stim_LEFT.wav	1	5	blb_dichoticlistening_ba-pa.mp3	ba	pa	1	right
6.6.1	win	2023-06-26	18:31:17	0	0	63d7f3f4e50de685d3d5b4fb	2	1	DL_test	14	DL_test	13			0		ka	1	1100	6	4	antiphase_hc_sio.wav	1	6	3	noise_calib_stim_LEFT.wav	1	24	blb_dichoticlistening_ka-ta.mp3	ka	ta	1	left
6.6.1	win	2023-06-26	18:31:17	0	0	63d7f3f4e50de685d3d5b4fb	2	1	DL_test	14	DL_test	14			0		da	1	908	6	4	antiphase_hc_sio.wav	1	6	3	noise_calib_stim_LEFT.wav	1	9	blb_dichoticlistening_da-ga.mp3	da	ga	1	left
6.6.1	win	2023-06-26	18:31:17	0	0	63d7f3f4e50de685d3d5b4fb	2	1	DL_test	14	DL_test	15			0		pa	1	1993	6	4	antiphase_hc_sio.wav	1	6	3	noise_calib_stim_LEFT.wav	1	17	blb_dichoticlistening_ga-pa.mp3	ga	pa	1	right
6.6.1	win	2023-06-26	18:31:17	0	0	63d7f3f4e50de685d3d5b4fb	2	1	DL_test	14	DL_test	16			0		da	0	1168	6	4	antiphase_hc_sio.wav	1	6	3	noise_calib_stim_LEFT.wav	1	15	blb_dichoticlistening_ga-ga.mp3	ga	ga	0	other
6.6.1	win	2023-06-26	18:31:17	0	0	63d7f3f4e50de685d3d5b4fb	2	1	DL_test	14	DL_test	17			0		ka	1	1065	6	4	antiphase_hc_sio.wav	1	6	3	noise_calib_stim_LEFT.wav	1	34	blb_dichoticlistening_ta-ka.mp3	ta	ka	1	right
6.6.1	win	2023-06-26	18:31:17	0	0	63d7f3f4e50de685d3d5b4fb	2	1	DL_test	14	DL_test	18			0		ta	1	1228	6	4	antiphase_hc_sio.wav	1	6	3	noise_calib_stim_LEFT.wav	1	35	blb_dichoticlistening_ta-pa.mp3	ta	pa	1	left
6.6.1	win	2023-06-26	18:31:17	0	0	63d7f3f4e50de685d3d5b4fb	2	1	DL_test	14	DL_test	19			0		da	1	736	6	4	antiphase_hc_sio.wav	1	6	3	noise_calib_stim_LEFT.wav	1	14	blb_dichoticlistening_ga-da.mp3	ga	da	1	right
6.6.1	win	2023-06-26	18:31:17	0	0	63d7f3f4e50de685d3d5b4fb	2	1	DL_test	14	DL_test	20			0		ta	1	1091	6	4	antiphase_hc_sio.wav	1	6	3	noise_calib_stim_LEFT.wav	1	12	blb_dichoticlistening_da-ta.mp3	da	ta	1	right
6.6.1	win	2023-06-26	18:31:17	0	0	63d7f3f4e50de685d3d5b4fb	2	1	DL_test	14	DL_test	21			0		ka	1	1554	6	4	antiphase_hc_sio.wav	1	6	3	noise_calib_stim_LEFT.wav	1	4	blb_dichoticlistening_ba-ka.mp3	ba	ka	1	right
6.6.1	win	2023-06-26	18:31:17	0	0	63d7f3f4e50de685d3d5b4fb	2	1	DL_test	14	DL_test	22			0		pa	1	1247	6	4	antiphase_hc_sio.wav	1	6	3	noise_calib_stim_LEFT.wav	1	25	blb_dichoticlistening_pa-ba.mp3	pa	ba	1	left
6.6.1	win	2023-06-26	18:31:17	0	0	63d7f3f4e50de685d3d5b4fb	2	1	DL_test	14	DL_test	23			0		pa	1	1034	6	4	antiphase_hc_sio.wav	1	6	3	noise_calib_stim_LEFT.wav	1	11	blb_dichoticlistening_da-pa.mp3	da	pa	1	right
6.6.1	win	2023-06-26	18:31:17	0	0	63d7f3f4e50de685d3d5b4fb	2	1	DL_test	14	DL_test	24			0		da	0	1699	6	4	antiphase_hc_sio.wav	1	6	3	noise_calib_stim_LEFT.wav	1	18	blb_dichoticlistening_ga-ta.mp3	ga	ta	1	other
6.6.1	win	2023-06-26	18:31:17	0	0	63d7f3f4e50de685d3d5b4fb	2	1	DL_test	14	DL_test	25			0		ba	1	950	6	4	antiphase_hc_sio.wav	1	6	3	noise_calib_stim_LEFT.wav	1	1	blb_dichoticlistening_ba-ba.mp3	ba	ba	0	left
6.6.1	win	2023-06-26	18:31:17	0	0	63d7f3f4e50de685d3d5b4fb	2	1	DL_test	14	DL_test	26			0		ka	1	1184	6	4	antiphase_hc_sio.wav	1	6	3	noise_calib_stim_LEFT.wav	1	22	blb_dichoticlistening_ka-ka.mp3	ka	ka	0	left
6.6.1	win	2023-06-26	18:31:17	0	0	63d7f3f4e50de685d3d5b4fb	2	1	DL_test	14	DL_test	27			0		ka	1	905	6	4	antiphase_hc_sio.wav	1	6	3	noise_calib_stim_LEFT.wav	1	23	blb_dichoticlistening_ka-pa.mp3	ka	pa	1	left
6.6.1	win	2023-06-26	18:31:17	0	0	63d7f3f4e50de685d3d5b4fb	2	1	DL_test	14	DL_test	28			0		ga	1	1195	6	4	antiphase_hc_sio.wav	1	6	3	noise_calib_stim_LEFT.wav	1	16	blb_dichoticlistening_ga-ka.mp3	ga	ka	1	left
6.6.1	win	2023-06-26	18:31:17	0	0	63d7f3f4e50de685d3d5b4fb	2	1	DL_test	14	DL_test	29			0		da	1	1011	6	4	antiphase_hc_sio.wav	1	6	3	noise_calib_stim_LEFT.wav	1	7	blb_dichoticlistening_da-ba.mp3	da	ba	1	left
6.6.1	win	2023-06-26	18:31:17	0	0	63d7f3f4e50de685d3d5b4fb	2	1	DL_test	14	DL_test	30			0		da	0	821	6	4	antiphase_hc_sio.wav	1	6	3	noise_calib_stim_LEFT.wav	1	13	blb_dichoticlistening_ga-ba.mp3	ga	ba	1	other
6.6.1	win	2023-06-26	18:31:17	0	0	63d7f3f4e50de685d3d5b4fb	2	1	DL_test	14	DL_test	31			0		ta	1	1328	6	4	antiphase_hc_sio.wav	1	6	3	noise_calib_stim_LEFT.wav	1	31	blb_dichoticlistening_ta-ba.mp3	ta	ba	1	left
6.6.1	win	2023-06-26	18:31:17	0	0	63d7f3f4e50de685d3d5b4fb	2	1	DL_test	14	DL_test	32			0		da	1	1048	6	4	antiphase_hc_sio.wav	1	6	3	noise_calib_stim_LEFT.wav	1	8	blb_dichoticlistening_da-da.mp3	da	da	0	left
6.6.1	win	2023-06-26	18:31:17	0	0	63d7f3f4e50de685d3d5b4fb	2	1	DL_test	14	DL_test	33			0		ka	1	1256	6	4	antiphase_hc_sio.wav	1	6	3	noise_calib_stim_LEFT.wav	1	21	blb_dichoticlistening_ka-ga.mp3	ka	ga	1	left
6.6.1	win	2023-06-26	18:31:17	0	0	63d7f3f4e50de685d3d5b4fb	2	1	DL_test	14	DL_test	34			0		ta	1	1109	6	4	antiphase_hc_sio.wav	1	6	3	noise_calib_stim_LEFT.wav	1	33	blb_dichoticlistening_ta-ga.mp3	ta	ga	1	left
6.6.1	win	2023-06-26	18:31:17	0	0	63d7f3f4e50de685d3d5b4fb	2	1	DL_test	14	DL_test	35			0		ka	1	1141	6	4	antiphase_hc_sio.wav	1	6	3	noise_calib_stim_LEFT.wav	1	19	blb_dichoticlistening_ka-ba.mp3	ka	ba	1	left
6.6.1	win	2023-06-26	18:31:17	0	0	63d7f3f4e50de685d3d5b4fb	2	1	DL_test	14	DL_test	36			0		ta	1	937	6	4	antiphase_hc_sio.wav	1	6	3	noise_calib_stim_LEFT.wav	1	36	blb_dichoticlistening_ta-ta.mp3	ta	ta	0	left
6.6.1	win	2023-06-26	18:31:17	0	0	63d7f3f4e50de685d3d5b4fb	2	1	DL_test	15	DL_test	1			0		da	0	2002	6	4	antiphase_hc_sio.wav	1	6	3	noise_calib_stim_LEFT.wav	1	17	blb_dichoticlistening_ga-pa.mp3	ga	pa	1	other
6.6.1	win	2023-06-26	18:31:17	0	0	63d7f3f4e50de685d3d5b4fb	2	1	DL_test	15	DL_test	2			0		ta	1	2060	6	4	antiphase_hc_sio.wav	1	6	3	noise_calib_stim_LEFT.wav	1	33	blb_dichoticlistening_ta-ga.mp3	ta	ga	1	left
6.6.1	win	2023-06-26	18:31:17	0	0	63d7f3f4e50de685d3d5b4fb	2	1	DL_test	15	DL_test	3			0		ka	1	990	6	4	antiphase_hc_sio.wav	1	6	3	noise_calib_stim_LEFT.wav	1	34	blb_dichoticlistening_ta-ka.mp3	ta	ka	1	right
6.6.1	win	2023-06-26	18:31:17	0	0	63d7f3f4e50de685d3d5b4fb	2	1	DL_test	15	DL_test	4			0		ta	1	1113	6	4	antiphase_hc_sio.wav	1	6	3	noise_calib_stim_LEFT.wav	1	6	blb_dichoticlistening_ba-ta.mp3	ba	ta	1	right
6.6.1	win	2023-06-26	18:31:17	0	0	63d7f3f4e50de685d3d5b4fb	2	1	DL_test	15	DL_test	5			0		pa	1	1392	6	4	antiphase_hc_sio.wav	1	6	3	noise_calib_stim_LEFT.wav	1	26	blb_dichoticlistening_pa-da.mp3	pa	da	1	left
6.6.1	win	2023-06-26	18:31:17	0	0	63d7f3f4e50de685d3d5b4fb	2	1	DL_test	15	DL_test	6			0		da	1	934	6	4	antiphase_hc_sio.wav	1	6	3	noise_calib_stim_LEFT.wav	1	14	blb_dichoticlistening_ga-da.mp3	ga	da	1	right
6.6.1	win	2023-06-26	18:31:17	0	0	63d7f3f4e50de685d3d5b4fb	2	1	DL_test	15	DL_test	7			0		ta	1	1047	6	4	antiphase_hc_sio.wav	1	6	3	noise_calib_stim_LEFT.wav	1	31	blb_dichoticlistening_ta-ba.mp3	ta	ba	1	left
6.6.1	win	2023-06-26	18:31:17	0	0	63d7f3f4e50de685d3d5b4fb	2	1	DL_test	15	DL_test	8			0		ta	1	560	6	4	antiphase_hc_sio.wav	1	6	3	noise_calib_stim_LEFT.wav	1	30	blb_dichoticlistening_pa-ta.mp3	pa	ta	1	right
6.6.1	win	2023-06-26	18:31:17	0	0	63d7f3f4e50de685d3d5b4fb	2	1	DL_test	15	DL_test	9			0		da	1	1216	6	4	antiphase_hc_sio.wav	1	6	3	noise_calib_stim_LEFT.wav	1	2	blb_dichoticlistening_ba-da.mp3	ba	da	1	right
6.6.1	win	2023-06-26	18:31:17	0	0	63d7f3f4e50de685d3d5b4fb	2	1	DL_test	15	DL_test	10			0		da	1	739	6	4	antiphase_hc_sio.wav	1	6	3	noise_calib_stim_LEFT.wav	1	9	blb_dichoticlistening_da-ga.mp3	da	ga	1	left
6.6.1	win	2023-06-26	18:31:17	0	0	63d7f3f4e50de685d3d5b4fb	2	1	DL_test	15	DL_test	11			0		ka	1	1268	6	4	antiphase_hc_sio.wav	1	6	3	noise_calib_stim_LEFT.wav	1	16	blb_dichoticlistening_ga-ka.mp3	ga	ka	1	right
6.6.1	win	2023-06-26	18:31:17	0	0	63d7f3f4e50de685d3d5b4fb	2	1	DL_test	15	DL_test	12			0		da	0	833	6	4	antiphase_hc_sio.wav	1	6	3	noise_calib_stim_LEFT.wav	1	3	blb_dichoticlistening_ba-ga.mp3	ba	ga	1	other
6.6.1	win	2023-06-26	18:31:17	0	0	63d7f3f4e50de685d3d5b4fb	2	1	DL_test	15	DL_test	13			0		ta	1	1136	6	4	antiphase_hc_sio.wav	1	6	3	noise_calib_stim_LEFT.wav	1	32	blb_dichoticlistening_ta-da.mp3	ta	da	1	left
6.6.1	win	2023-06-26	18:31:17	0	0	63d7f3f4e50de685d3d5b4fb	2	1	DL_test	15	DL_test	14			0		pa	1	800	6	4	antiphase_hc_sio.wav	1	6	3	noise_calib_stim_LEFT.wav	1	5	blb_dichoticlistening_ba-pa.mp3	ba	pa	1	right
6.6.1	win	2023-06-26	18:31:17	0	0	63d7f3f4e50de685d3d5b4fb	2	1	DL_test	15	DL_test	15			0		ta	0	1256	6	4	antiphase_hc_sio.wav	1	6	3	noise_calib_stim_LEFT.wav	1	23	blb_dichoticlistening_ka-pa.mp3	ka	pa	1	other
6.6.1	win	2023-06-26	18:31:17	0	0	63d7f3f4e50de685d3d5b4fb	2	1	DL_test	15	DL_test	16			0		ka	1	1106	6	4	antiphase_hc_sio.wav	1	6	3	noise_calib_stim_LEFT.wav	1	22	blb_dichoticlistening_ka-ka.mp3	ka	ka	0	left
6.6.1	win	2023-06-26	18:31:17	0	0	63d7f3f4e50de685d3d5b4fb	2	1	DL_test	15	DL_test	17			0		da	1	953	6	4	antiphase_hc_sio.wav	1	6	3	noise_calib_stim_LEFT.wav	1	7	blb_dichoticlistening_da-ba.mp3	da	ba	1	left
6.6.1	win	2023-06-26	18:31:17	0	0	63d7f3f4e50de685d3d5b4fb	2	1	DL_test	15	DL_test	18			0		ka	1	754	6	4	antiphase_hc_sio.wav	1	6	3	noise_calib_stim_LEFT.wav	1	4	blb_dichoticlistening_ba-ka.mp3	ba	ka	1	right
6.6.1	win	2023-06-26	18:31:17	0	0	63d7f3f4e50de685d3d5b4fb	2	1	DL_test	15	DL_test	19			0		ta	0	1268	6	4	antiphase_hc_sio.wav	1	6	3	noise_calib_stim_LEFT.wav	1	27	blb_dichoticlistening_pa-ga.mp3	pa	ga	1	other
6.6.1	win	2023-06-26	18:31:17	0	0	63d7f3f4e50de685d3d5b4fb	2	1	DL_test	15	DL_test	20			0		ka	1	1957	6	4	antiphase_hc_sio.wav	1	6	3	noise_calib_stim_LEFT.wav	1	28	blb_dichoticlistening_pa-ka.mp3	pa	ka	1	right
6.6.1	win	2023-06-26	18:31:17	0	0	63d7f3f4e50de685d3d5b4fb	2	1	DL_test	15	DL_test	21			0		da	1	1072	6	4	antiphase_hc_sio.wav	1	6	3	noise_calib_stim_LEFT.wav	1	8	blb_dichoticlistening_da-da.mp3	da	da	0	left
6.6.1	win	2023-06-26	18:31:17	0	0	63d7f3f4e50de685d3d5b4fb	2	1	DL_test	15	DL_test	22			0		pa	0	1168	6	4	antiphase_hc_sio.wav	1	6	3	noise_calib_stim_LEFT.wav	1	10	blb_dichoticlistening_da-ka.mp3	da	ka	1	other
6.6.1	win	2023-06-26	18:31:17	0	0	63d7f3f4e50de685d3d5b4fb	2	1	DL_test	15	DL_test	23			0		ta	1	972	6	4	antiphase_hc_sio.wav	1	6	3	noise_calib_stim_LEFT.wav	1	36	blb_dichoticlistening_ta-ta.mp3	ta	ta	0	left
6.6.1	win	2023-06-26	18:31:17	0	0	63d7f3f4e50de685d3d5b4fb	2	1	DL_test	15	DL_test	24			0		ka	1	1156	6	4	antiphase_hc_sio.wav	1	6	3	noise_calib_stim_LEFT.wav	1	21	blb_dichoticlistening_ka-ga.mp3	ka	ga	1	left
6.6.1	win	2023-06-26	18:31:17	0	0	63d7f3f4e50de685d3d5b4fb	2	1	DL_test	15	DL_test	25			0		pa	1	1048	6	4	antiphase_hc_sio.wav	1	6	3	noise_calib_stim_LEFT.wav	1	29	blb_dichoticlistening_pa-pa.mp3	pa	pa	0	left
6.6.1	win	2023-06-26	18:31:17	0	0	63d7f3f4e50de685d3d5b4fb	2	1	DL_test	15	DL_test	26			0		da	1	1598	6	4	antiphase_hc_sio.wav	1	6	3	noise_calib_stim_LEFT.wav	1	11	blb_dichoticlistening_da-pa.mp3	da	pa	1	left
6.6.1	win	2023-06-26	18:31:17	0	0	63d7f3f4e50de685d3d5b4fb	2	1	DL_test	15	DL_test	27			0		ka	1	1082	6	4	antiphase_hc_sio.wav	1	6	3	noise_calib_stim_LEFT.wav	1	19	blb_dichoticlistening_ka-ba.mp3	ka	ba	1	left
6.6.1	win	2023-06-26	18:31:17	0	0	63d7f3f4e50de685d3d5b4fb	2	1	DL_test	15	DL_test	28			0		pa	1	1264	6	4	antiphase_hc_sio.wav	1	6	3	noise_calib_stim_LEFT.wav	1	25	blb_dichoticlistening_pa-ba.mp3	pa	ba	1	left
6.6.1	win	2023-06-26	18:31:17	0	0	63d7f3f4e50de685d3d5b4fb	2	1	DL_test	15	DL_test	29			0		da	0	1072	6	4	antiphase_hc_sio.wav	1	6	3	noise_calib_stim_LEFT.wav	1	13	blb_dichoticlistening_ga-ba.mp3	ga	ba	1	other
6.6.1	win	2023-06-26	18:31:17	0	0	63d7f3f4e50de685d3d5b4fb	2	1	DL_test	15	DL_test	30			0		ba	1	1066	6	4	antiphase_hc_sio.wav	1	6	3	noise_calib_stim_LEFT.wav	1	1	blb_dichoticlistening_ba-ba.mp3	ba	ba	0	left
6.6.1	win	2023-06-26	18:31:17	0	0	63d7f3f4e50de685d3d5b4fb	2	1	DL_test	15	DL_test	31			0		ta	1	1050	6	4	antiphase_hc_sio.wav	1	6	3	noise_calib_stim_LEFT.wav	1	35	blb_dichoticlistening_ta-pa.mp3	ta	pa	1	left
6.6.1	win	2023-06-26	18:31:17	0	0	63d7f3f4e50de685d3d5b4fb	2	1	DL_test	15	DL_test	32			0		ka	1	1190	6	4	antiphase_hc_sio.wav	1	6	3	noise_calib_stim_LEFT.wav	1	20	blb_dichoticlistening_ka-da.mp3	ka	da	1	left
6.6.1	win	2023-06-26	18:31:17	0	0	63d7f3f4e50de685d3d5b4fb	2	1	DL_test	15	DL_test	33			0		da	0	1362	6	4	antiphase_hc_sio.wav	1	6	3	noise_calib_stim_LEFT.wav	1	18	blb_dichoticlistening_ga-ta.mp3	ga	ta	1	other
6.6.1	win	2023-06-26	18:31:17	0	0	63d7f3f4e50de685d3d5b4fb	2	1	DL_test	15	DL_test	34			0		ka	1	936	6	4	antiphase_hc_sio.wav	1	6	3	noise_calib_stim_LEFT.wav	1	24	blb_dichoticlistening_ka-ta.mp3	ka	ta	1	left
6.6.1	win	2023-06-26	18:31:17	0	0	63d7f3f4e50de685d3d5b4fb	2	1	DL_test	15	DL_test	35			0		ta	1	1313	6	4	antiphase_hc_sio.wav	1	6	3	noise_calib_stim_LEFT.wav	1	12	blb_dichoticlistening_da-ta.mp3	da	ta	1	right
6.6.1	win	2023-06-26	18:31:17	0	0	63d7f3f4e50de685d3d5b4fb	2	1	DL_test	15	DL_test	36			0		da	0	773	6	4	antiphase_hc_sio.wav	1	6	3	noise_calib_stim_LEFT.wav	1	15	blb_dichoticlistening_ga-ga.mp3	ga	ga	0	other
6.6.1	win	2023-06-26	18:31:17	0	0	63d7f3f4e50de685d3d5b4fb	2	1	DL_test	16	DL_test	1			0		ka	1	1095	6	4	antiphase_hc_sio.wav	1	6	3	noise_calib_stim_LEFT.wav	1	28	blb_dichoticlistening_pa-ka.mp3	pa	ka	1	right
6.6.1	win	2023-06-26	18:31:17	0	0	63d7f3f4e50de685d3d5b4fb	2	1	DL_test	16	DL_test	2			0		ta	1	1204	6	4	antiphase_hc_sio.wav	1	6	3	noise_calib_stim_LEFT.wav	1	6	blb_dichoticlistening_ba-ta.mp3	ba	ta	1	right
6.6.1	win	2023-06-26	18:31:17	0	0	63d7f3f4e50de685d3d5b4fb	2	1	DL_test	16	DL_test	3			0		pa	1	800	6	4	antiphase_hc_sio.wav	1	6	3	noise_calib_stim_LEFT.wav	1	17	blb_dichoticlistening_ga-pa.mp3	ga	pa	1	right
6.6.1	win	2023-06-26	18:31:17	0	0	63d7f3f4e50de685d3d5b4fb	2	1	DL_test	16	DL_test	4			0		da	0	972	6	4	antiphase_hc_sio.wav	1	6	3	noise_calib_stim_LEFT.wav	1	27	blb_dichoticlistening_pa-ga.mp3	pa	ga	1	other
6.6.1	win	2023-06-26	18:31:17	0	0	63d7f3f4e50de685d3d5b4fb	2	1	DL_test	16	DL_test	5			0		da	1	779	6	4	antiphase_hc_sio.wav	1	6	3	noise_calib_stim_LEFT.wav	1	2	blb_dichoticlistening_ba-da.mp3	ba	da	1	right
6.6.1	win	2023-06-26	18:31:17	0	0	63d7f3f4e50de685d3d5b4fb	2	1	DL_test	16	DL_test	6			0		pa	1	1209	6	4	antiphase_hc_sio.wav	1	6	3	noise_calib_stim_LEFT.wav	1	11	blb_dichoticlistening_da-pa.mp3	da	pa	1	right
6.6.1	win	2023-06-26	18:31:17	0	0	63d7f3f4e50de685d3d5b4fb	2	1	DL_test	16	DL_test	7			0		ta	1	995	6	4	antiphase_hc_sio.wav	1	6	3	noise_calib_stim_LEFT.wav	1	32	blb_dichoticlistening_ta-da.mp3	ta	da	1	left
6.6.1	win	2023-06-26	18:31:17	0	0	63d7f3f4e50de685d3d5b4fb	2	1	DL_test	16	DL_test	8			0		pa	1	1069	6	4	antiphase_hc_sio.wav	1	6	3	noise_calib_stim_LEFT.wav	1	30	blb_dichoticlistening_pa-ta.mp3	pa	ta	1	left
6.6.1	win	2023-06-26	18:31:17	0	0	63d7f3f4e50de685d3d5b4fb	2	1	DL_test	16	DL_test	9			0		ka	1	1051	6	4	antiphase_hc_sio.wav	1	6	3	noise_calib_stim_LEFT.wav	1	16	blb_dichoticlistening_ga-ka.mp3	ga	ka	1	right
6.6.1	win	2023-06-26	18:31:17	0	0	63d7f3f4e50de685d3d5b4fb	2	1	DL_test	16	DL_test	10			0		ka	1	639	6	4	antiphase_hc_sio.wav	1	6	3	noise_calib_stim_LEFT.wav	1	22	blb_dichoticlistening_ka-ka.mp3	ka	ka	0	left
6.6.1	win	2023-06-26	18:31:17	0	0	63d7f3f4e50de685d3d5b4fb	2	1	DL_test	16	DL_test	11			0		ga	1	1252	6	4	antiphase_hc_sio.wav	1	6	3	noise_calib_stim_LEFT.wav	1	21	blb_dichoticlistening_ka-ga.mp3	ka	ga	1	right
6.6.1	win	2023-06-26	18:31:17	0	0	63d7f3f4e50de685d3d5b4fb	2	1	DL_test	16	DL_test	12			0		da	0	843	6	4	antiphase_hc_sio.wav	1	6	3	noise_calib_stim_LEFT.wav	1	3	blb_dichoticlistening_ba-ga.mp3	ba	ga	1	other
6.6.1	win	2023-06-26	18:31:17	0	0	63d7f3f4e50de685d3d5b4fb	2	1	DL_test	16	DL_test	13			0		ka	1	1274	6	4	antiphase_hc_sio.wav	1	6	3	noise_calib_stim_LEFT.wav	1	20	blb_dichoticlistening_ka-da.mp3	ka	da	1	left
6.6.1	win	2023-06-26	18:31:17	0	0	63d7f3f4e50de685d3d5b4fb	2	1	DL_test	16	DL_test	14			0		pa	1	1453	6	4	antiphase_hc_sio.wav	1	6	3	noise_calib_stim_LEFT.wav	1	29	blb_dichoticlistening_pa-pa.mp3	pa	pa	0	left
6.6.1	win	2023-06-26	18:31:17	0	0	63d7f3f4e50de685d3d5b4fb	2	1	DL_test	16	DL_test	15			0		ta	1	818	6	4	antiphase_hc_sio.wav	1	6	3	noise_calib_stim_LEFT.wav	1	12	blb_dichoticlistening_da-ta.mp3	da	ta	1	right
6.6.1	win	2023-06-26	18:31:17	0	0	63d7f3f4e50de685d3d5b4fb	2	1	DL_test	16	DL_test	16			0		ka	1	1328	6	4	antiphase_hc_sio.wav	1	6	3	noise_calib_stim_LEFT.wav	1	23	blb_dichoticlistening_ka-pa.mp3	ka	pa	1	left
6.6.1	win	2023-06-26	18:31:17	0	0	63d7f3f4e50de685d3d5b4fb	2	1	DL_test	16	DL_test	17			0		da	0	801	6	4	antiphase_hc_sio.wav	1	6	3	noise_calib_stim_LEFT.wav	1	15	blb_dichoticlistening_ga-ga.mp3	ga	ga	0	other
6.6.1	win	2023-06-26	18:31:17	0	0	63d7f3f4e50de685d3d5b4fb	2	1	DL_test	16	DL_test	18			0		ka	1	901	6	4	antiphase_hc_sio.wav	1	6	3	noise_calib_stim_LEFT.wav	1	24	blb_dichoticlistening_ka-ta.mp3	ka	ta	1	left
6.6.1	win	2023-06-26	18:31:17	0	0	63d7f3f4e50de685d3d5b4fb	2	1	DL_test	16	DL_test	19			0		ba	1	1432	6	4	antiphase_hc_sio.wav	1	6	3	noise_calib_stim_LEFT.wav	1	7	blb_dichoticlistening_da-ba.mp3	da	ba	1	right
6.6.1	win	2023-06-26	18:31:17	0	0	63d7f3f4e50de685d3d5b4fb	2	1	DL_test	16	DL_test	20			0		pa	1	1407	6	4	antiphase_hc_sio.wav	1	6	3	noise_calib_stim_LEFT.wav	1	25	blb_dichoticlistening_pa-ba.mp3	pa	ba	1	left
6.6.1	win	2023-06-26	18:31:17	0	0	63d7f3f4e50de685d3d5b4fb	2	1	DL_test	16	DL_test	21			0		pa	1	764	6	4	antiphase_hc_sio.wav	1	6	3	noise_calib_stim_LEFT.wav	1	5	blb_dichoticlistening_ba-pa.mp3	ba	pa	1	right
6.6.1	win	2023-06-26	18:31:17	0	0	63d7f3f4e50de685d3d5b4fb	2	1	DL_test	16	DL_test	22			0		ka	1	855	6	4	antiphase_hc_sio.wav	1	6	3	noise_calib_stim_LEFT.wav	1	34	blb_dichoticlistening_ta-ka.mp3	ta	ka	1	right
6.6.1	win	2023-06-26	18:31:17	0	0	63d7f3f4e50de685d3d5b4fb	2	1	DL_test	16	DL_test	23			0		ka	1	919	6	4	antiphase_hc_sio.wav	1	6	3	noise_calib_stim_LEFT.wav	1	19	blb_dichoticlistening_ka-ba.mp3	ka	ba	1	left
6.6.1	win	2023-06-26	18:31:17	0	0	63d7f3f4e50de685d3d5b4fb	2	1	DL_test	16	DL_test	24			0		da	1	945	6	4	antiphase_hc_sio.wav	1	6	3	noise_calib_stim_LEFT.wav	1	9	blb_dichoticlistening_da-ga.mp3	da	ga	1	left
6.6.1	win	2023-06-26	18:31:17	0	0	63d7f3f4e50de685d3d5b4fb	2	1	DL_test	16	DL_test	25			0		ga	1	1286	6	4	antiphase_hc_sio.wav	1	6	3	noise_calib_stim_LEFT.wav	1	18	blb_dichoticlistening_ga-ta.mp3	ga	ta	1	left
6.6.1	win	2023-06-26	18:31:17	0	0	63d7f3f4e50de685d3d5b4fb	2	1	DL_test	16	DL_test	26			0		da	1	851	6	4	antiphase_hc_sio.wav	1	6	3	noise_calib_stim_LEFT.wav	1	14	blb_dichoticlistening_ga-da.mp3	ga	da	1	right
6.6.1	win	2023-06-26	18:31:17	0	0	63d7f3f4e50de685d3d5b4fb	2	1	DL_test	16	DL_test	27			0		ba	1	903	6	4	antiphase_hc_sio.wav	1	6	3	noise_calib_stim_LEFT.wav	1	1	blb_dichoticlistening_ba-ba.mp3	ba	ba	0	left
6.6.1	win	2023-06-26	18:31:17	0	0	63d7f3f4e50de685d3d5b4fb	2	1	DL_test	16	DL_test	28			0		pa	0	977	6	4	antiphase_hc_sio.wav	1	6	3	noise_calib_stim_LEFT.wav	1	10	blb_dichoticlistening_da-ka.mp3	da	ka	1	other
6.6.1	win	2023-06-26	18:31:17	0	0	63d7f3f4e50de685d3d5b4fb	2	1	DL_test	16	DL_test	29			0		ba	1	1541	6	4	antiphase_hc_sio.wav	1	6	3	noise_calib_stim_LEFT.wav	1	13	blb_dichoticlistening_ga-ba.mp3	ga	ba	1	right
6.6.1	win	2023-06-26	18:31:17	0	0	63d7f3f4e50de685d3d5b4fb	2	1	DL_test	16	DL_test	30			0		ta	1	1262	6	4	antiphase_hc_sio.wav	1	6	3	noise_calib_stim_LEFT.wav	1	31	blb_dichoticlistening_ta-ba.mp3	ta	ba	1	left
6.6.1	win	2023-06-26	18:31:17	0	0	63d7f3f4e50de685d3d5b4fb	2	1	DL_test	16	DL_test	31			0		ga	1	1238	6	4	antiphase_hc_sio.wav	1	6	3	noise_calib_stim_LEFT.wav	1	33	blb_dichoticlistening_ta-ga.mp3	ta	ga	1	right
6.6.1	win	2023-06-26	18:31:17	0	0	63d7f3f4e50de685d3d5b4fb	2	1	DL_test	16	DL_test	32			0		ka	1	890	6	4	antiphase_hc_sio.wav	1	6	3	noise_calib_stim_LEFT.wav	1	4	blb_dichoticlistening_ba-ka.mp3	ba	ka	1	right
6.6.1	win	2023-06-26	18:31:17	0	0	63d7f3f4e50de685d3d5b4fb	2	1	DL_test	16	DL_test	33			0		pa	1	1080	6	4	antiphase_hc_sio.wav	1	6	3	noise_calib_stim_LEFT.wav	1	26	blb_dichoticlistening_pa-da.mp3	pa	da	1	left
6.6.1	win	2023-06-26	18:31:17	0	0	63d7f3f4e50de685d3d5b4fb	2	1	DL_test	16	DL_test	34			0		ta	1	1428	6	4	antiphase_hc_sio.wav	1	6	3	noise_calib_stim_LEFT.wav	1	36	blb_dichoticlistening_ta-ta.mp3	ta	ta	0	left
6.6.1	win	2023-06-26	18:31:17	0	0	63d7f3f4e50de685d3d5b4fb	2	1	DL_test	16	DL_test	35			0		ta	1	1119	6	4	antiphase_hc_sio.wav	1	6	3	noise_calib_stim_LEFT.wav	1	35	blb_dichoticlistening_ta-pa.mp3	ta	pa	1	left
6.6.1	win	2023-06-26	18:31:17	0	0	63d7f3f4e50de685d3d5b4fb	2	1	DL_test	16	DL_test	36			0		da	1	1085	6	4	antiphase_hc_sio.wav	1	6	3	noise_calib_stim_LEFT.wav	1	8	blb_dichoticlistening_da-da.mp3	da	da	0	left
6.6.1	win	2023-06-26	18:31:17	18:42:45	685426	63d7f3f4e50de685d3d5b4fb	2	1	practice_z	22	practice_z	1	stimuli_distractor_diamondtriangles.svg	stimuli_distractor_diamondtriangles.svg	13	no	0	1	2000	6	4	antiphase_hc_sio.wav	1	6	3	noise_calib_stim_LEFT.wav	1	8	blb_dichoticlistening_da-da.mp3	da	da	0	left
6.6.1	win	2023-06-26	18:31:17	18:42:45	685426	63d7f3f4e50de685d3d5b4fb	2	1	practice_z	22	advance_on_keypress_ZEE	2	stimuli_distractor_diamondtriangles.svg	stimuli_distractor_diamondtriangles.svg	13	no	57	0	1306	6	4	antiphase_hc_sio.wav	1	6	3	noise_calib_stim_LEFT.wav	1	8	blb_dichoticlistening_da-da.mp3	da	da	0	left
6.6.1	win	2023-06-26	18:31:17	18:42:49	688772	63d7f3f4e50de685d3d5b4fb	2	1	practice_z	22	practice_z	3	stimuli_distractor_trianglediamonds.svg	stimuli_target_squarediamonds.svg	11	yes	44	1	372	6	4	antiphase_hc_sio.wav	1	6	3	noise_calib_stim_LEFT.wav	1	8	blb_dichoticlistening_da-da.mp3	da	da	0	left
6.6.1	win	2023-06-26	18:31:17	18:42:49	688772	63d7f3f4e50de685d3d5b4fb	2	1	practice_z	22	advance_on_keypress_ZEE	4	stimuli_distractor_trianglediamonds.svg	stimuli_target_squarediamonds.svg	11	yes	57	0	418	6	4	antiphase_hc_sio.wav	1	6	3	noise_calib_stim_LEFT.wav	1	8	blb_dichoticlistening_da-da.mp3	da	da	0	left
6.6.1	win	2023-06-26	18:31:17	18:42:51	691435	63d7f3f4e50de685d3d5b4fb	2	1	practice_z	22	practice_z	5	stimuli_target_diamondsquares.svg	stimuli_distractor_trianglediamonds.svg	6	yes	44	1	597	6	4	antiphase_hc_sio.wav	1	6	3	noise_calib_stim_LEFT.wav	1	8	blb_dichoticlistening_da-da.mp3	da	da	0	left
6.6.1	win	2023-06-26	18:31:17	18:42:51	691435	63d7f3f4e50de685d3d5b4fb	2	1	practice_z	22	advance_on_keypress_ZEE	6	stimuli_target_diamondsquares.svg	stimuli_distractor_trianglediamonds.svg	6	yes	57	0	449	6	4	antiphase_hc_sio.wav	1	6	3	noise_calib_stim_LEFT.wav	1	8	blb_dichoticlistening_da-da.mp3	da	da	0	left
6.6.1	win	2023-06-26	18:31:17	18:42:54	693999	63d7f3f4e50de685d3d5b4fb	2	1	practice_z	22	practice_z	7	stimuli_target_squarediamonds.svg	stimuli_distractor_trianglediamonds.svg	5	yes	44	1	462	6	4	antiphase_hc_sio.wav	1	6	3	noise_calib_stim_LEFT.wav	1	8	blb_dichoticlistening_da-da.mp3	da	da	0	left
6.6.1	win	2023-06-26	18:31:17	18:42:54	693999	63d7f3f4e50de685d3d5b4fb	2	1	practice_z	22	advance_on_keypress_ZEE	8	stimuli_target_squarediamonds.svg	stimuli_distractor_trianglediamonds.svg	5	yes	57	0	402	6	4	antiphase_hc_sio.wav	1	6	3	noise_calib_stim_LEFT.wav	1	8	blb_dichoticlistening_da-da.mp3	da	da	0	left
6.6.1	win	2023-06-26	18:31:17	18:42:56	696461	63d7f3f4e50de685d3d5b4fb	2	1	practice_z	22	practice_z	9	stimuli_distractor_trianglediamonds.svg	stimuli_target_rectanglediamonds.svg	10	yes	44	1	409	6	4	antiphase_hc_sio.wav	1	6	3	noise_calib_stim_LEFT.wav	1	8	blb_dichoticlistening_da-da.mp3	da	da	0	left
6.6.1	win	2023-06-26	18:31:17	18:42:56	696461	63d7f3f4e50de685d3d5b4fb	2	1	practice_z	22	advance_on_keypress_ZEE	10	stimuli_distractor_trianglediamonds.svg	stimuli_target_rectanglediamonds.svg	10	yes	57	0	1607	6	4	antiphase_hc_sio.wav	1	6	3	noise_calib_stim_LEFT.wav	1	8	blb_dichoticlistening_da-da.mp3	da	da	0	left
6.6.1	win	2023-06-26	18:31:17	18:43:00	700178	63d7f3f4e50de685d3d5b4fb	2	1	practice_z	22	practice_z	11	stimuli_distractor_diamondtriangles.svg	stimuli_target_trianglerectangles.svg	9	yes	44	1	444	6	4	antiphase_hc_sio.wav	1	6	3	noise_calib_stim_LEFT.wav	1	8	blb_dichoticlistening_da-da.mp3	da	da	0	left
6.6.1	win	2023-06-26	18:31:17	18:43:00	700178	63d7f3f4e50de685d3d5b4fb	2	1	practice_z	22	advance_on_keypress_ZEE	12	stimuli_distractor_diamondtriangles.svg	stimuli_target_trianglerectangles.svg	9	yes	57	0	349	6	4	antiphase_hc_sio.wav	1	6	3	noise_calib_stim_LEFT.wav	1	8	blb_dichoticlistening_da-da.mp3	da	da	0	left
6.6.1	win	2023-06-26	18:31:17	18:43:04	704183	63d7f3f4e50de685d3d5b4fb	2	1	practice_z	22	practice_z	13	stimuli_distractor_trianglediamonds.svg	stimuli_distractor_diamondtriangles.svg	16	no	0	1	2000	6	4	antiphase_hc_sio.wav	1	6	3	noise_calib_stim_LEFT.wav	1	8	blb_dichoticlistening_da-da.mp3	da	da	0	left
6.6.1	win	2023-06-26	18:31:17	18:43:04	704183	63d7f3f4e50de685d3d5b4fb	2	1	practice_z	22	advance_on_keypress_ZEE	14	stimuli_distractor_trianglediamonds.svg	stimuli_distractor_diamondtriangles.svg	16	no	57	0	1335	6	4	antiphase_hc_sio.wav	1	6	3	noise_calib_stim_LEFT.wav	1	8	blb_dichoticlistening_da-da.mp3	da	da	0	left
6.6.1	win	2023-06-26	18:31:17	18:43:09	709163	63d7f3f4e50de685d3d5b4fb	2	1	practice_z	22	practice_z	15	stimuli_target_diamondsquares.svg	stimuli_distractor_diamondtriangles.svg	3	yes	0	0	2000	6	4	antiphase_hc_sio.wav	1	6	3	noise_calib_stim_LEFT.wav	1	8	blb_dichoticlistening_da-da.mp3	da	da	0	left
6.6.1	win	2023-06-26	18:31:17	18:43:09	709163	63d7f3f4e50de685d3d5b4fb	2	1	practice_z	22	advance_on_keypress_ZEE	16	stimuli_target_diamondsquares.svg	stimuli_distractor_diamondtriangles.svg	3	yes	57	0	712	6	4	antiphase_hc_sio.wav	1	6	3	noise_calib_stim_LEFT.wav	1	8	blb_dichoticlistening_da-da.mp3	da	da	0	left
6.6.1	win	2023-06-26	18:31:17	18:43:12	712067	63d7f3f4e50de685d3d5b4fb	2	1	practice_z	22	practice_z	17	stimuli_target_rectanglediamonds.svg	stimuli_distractor_trianglediamonds.svg	4	yes	44	1	539	6	4	antiphase_hc_sio.wav	1	6	3	noise_calib_stim_LEFT.wav	1	8	blb_dichoticlistening_da-da.mp3	da	da	0	left
6.6.1	win	2023-06-26	18:31:17	18:43:12	712067	63d7f3f4e50de685d3d5b4fb	2	1	practice_z	22	advance_on_keypress_ZEE	18	stimuli_target_rectanglediamonds.svg	stimuli_distractor_trianglediamonds.svg	4	yes	57	0	526	6	4	antiphase_hc_sio.wav	1	6	3	noise_calib_stim_LEFT.wav	1	8	blb_dichoticlistening_da-da.mp3	da	da	0	left
6.6.1	win	2023-06-26	18:31:17	18:43:15	714786	63d7f3f4e50de685d3d5b4fb	2	1	practice_z	22	practice_z	19	stimuli_target_rectanglediamonds.svg	stimuli_distractor_diamondtriangles.svg	1	yes	44	1	543	6	4	antiphase_hc_sio.wav	1	6	3	noise_calib_stim_LEFT.wav	1	8	blb_dichoticlistening_da-da.mp3	da	da	0	left
6.6.1	win	2023-06-26	18:31:17	18:43:15	714786	63d7f3f4e50de685d3d5b4fb	2	1	practice_z	22	advance_on_keypress_ZEE	20	stimuli_target_rectanglediamonds.svg	stimuli_distractor_diamondtriangles.svg	1	yes	57	0	471	6	4	antiphase_hc_sio.wav	1	6	3	noise_calib_stim_LEFT.wav	1	8	blb_dichoticlistening_da-da.mp3	da	da	0	left
6.6.1	win	2023-06-26	18:31:17	18:43:18	718077	63d7f3f4e50de685d3d5b4fb	2	1	practice_z	22	practice_z	21	stimuli_distractor_trianglediamonds.svg	stimuli_target_diamondrectangles.svg	12	yes	44	1	1170	6	4	antiphase_hc_sio.wav	1	6	3	noise_calib_stim_LEFT.wav	1	8	blb_dichoticlistening_da-da.mp3	da	da	0	left
6.6.1	win	2023-06-26	18:31:17	18:43:18	718077	63d7f3f4e50de685d3d5b4fb	2	1	practice_z	22	advance_on_keypress_ZEE	22	stimuli_distractor_trianglediamonds.svg	stimuli_target_diamondrectangles.svg	12	yes	57	0	379	6	4	antiphase_hc_sio.wav	1	6	3	noise_calib_stim_LEFT.wav	1	8	blb_dichoticlistening_da-da.mp3	da	da	0	left
6.6.1	win	2023-06-26	18:31:17	18:43:21	720540	63d7f3f4e50de685d3d5b4fb	2	1	practice_z	22	practice_z	23	stimuli_target_squarediamonds.svg	stimuli_distractor_diamondtriangles.svg	2	yes	44	1	433	6	4	antiphase_hc_sio.wav	1	6	3	noise_calib_stim_LEFT.wav	1	8	blb_dichoticlistening_da-da.mp3	da	da	0	left
6.6.1	win	2023-06-26	18:31:17	18:43:21	720540	63d7f3f4e50de685d3d5b4fb	2	1	practice_z	22	advance_on_keypress_ZEE	24	stimuli_target_squarediamonds.svg	stimuli_distractor_diamondtriangles.svg	2	yes	57	0	328	6	4	antiphase_hc_sio.wav	1	6	3	noise_calib_stim_LEFT.wav	1	8	blb_dichoticlistening_da-da.mp3	da	da	0	left
6.6.1	win	2023-06-26	18:31:17	18:43:24	724522	63d7f3f4e50de685d3d5b4fb	2	1	practice_z	22	practice_z	25	stimuli_distractor_trianglediamonds.svg	stimuli_distractor_trianglediamonds.svg	15	no	0	1	2000	6	4	antiphase_hc_sio.wav	1	6	3	noise_calib_stim_LEFT.wav	1	8	blb_dichoticlistening_da-da.mp3	da	da	0	left
6.6.1	win	2023-06-26	18:31:17	18:43:24	724522	63d7f3f4e50de685d3d5b4fb	2	1	practice_z	22	advance_on_keypress_ZEE	26	stimuli_distractor_trianglediamonds.svg	stimuli_distractor_trianglediamonds.svg	15	no	57	0	318	6	4	antiphase_hc_sio.wav	1	6	3	noise_calib_stim_LEFT.wav	1	8	blb_dichoticlistening_da-da.mp3	da	da	0	left
6.6.1	win	2023-06-26	18:31:17	18:43:27	726908	63d7f3f4e50de685d3d5b4fb	2	1	practice_z	22	practice_z	27	stimuli_distractor_diamondtriangles.svg	stimuli_target_rectangletriangles.svg	7	yes	44	1	421	6	4	antiphase_hc_sio.wav	1	6	3	noise_calib_stim_LEFT.wav	1	8	blb_dichoticlistening_da-da.mp3	da	da	0	left
6.6.1	win	2023-06-26	18:31:17	18:43:27	726908	63d7f3f4e50de685d3d5b4fb	2	1	practice_z	22	advance_on_keypress_ZEE	28	stimuli_distractor_diamondtriangles.svg	stimuli_target_rectangletriangles.svg	7	yes	57	0	215	6	4	antiphase_hc_sio.wav	1	6	3	noise_calib_stim_LEFT.wav	1	8	blb_dichoticlistening_da-da.mp3	da	da	0	left
6.6.1	win	2023-06-26	18:31:17	18:43:31	730769	63d7f3f4e50de685d3d5b4fb	2	1	practice_z	22	practice_z	29	stimuli_distractor_diamondtriangles.svg	stimuli_distractor_trianglediamonds.svg	14	no	0	1	2000	6	4	antiphase_hc_sio.wav	1	6	3	noise_calib_stim_LEFT.wav	1	8	blb_dichoticlistening_da-da.mp3	da	da	0	left
6.6.1	win	2023-06-26	18:31:17	18:43:31	730769	63d7f3f4e50de685d3d5b4fb	2	1	practice_z	22	advance_on_keypress_ZEE	30	stimuli_distractor_diamondtriangles.svg	stimuli_distractor_trianglediamonds.svg	14	no	57	0	464	6	4	antiphase_hc_sio.wav	1	6	3	noise_calib_stim_LEFT.wav	1	8	blb_dichoticlistening_da-da.mp3	da	da	0	left
6.6.1	win	2023-06-26	18:31:17	18:43:33	733409	63d7f3f4e50de685d3d5b4fb	2	1	practice_z	22	practice_z	31	stimuli_distractor_diamondtriangles.svg	stimuli_target_diamondrectangles.svg	8	yes	44	1	527	6	4	antiphase_hc_sio.wav	1	6	3	noise_calib_stim_LEFT.wav	1	8	blb_dichoticlistening_da-da.mp3	da	da	0	left
6.6.1	win	2023-06-26	18:31:17	18:43:33	733409	63d7f3f4e50de685d3d5b4fb	2	1	practice_z	22	advance_on_keypress_ZEE	32	stimuli_distractor_diamondtriangles.svg	stimuli_target_diamondrectangles.svg	8	yes	57	0	378	6	4	antiphase_hc_sio.wav	1	6	3	noise_calib_stim_LEFT.wav	1	8	blb_dichoticlistening_da-da.mp3	da	da	0	left
6.6.1	win	2023-06-26	18:31:17	18:44:05	765484	63d7f3f4e50de685d3d5b4fb	2	1	main_z	24	main_z	1	stimuli_distractor_trianglediamonds.svg	stimuli_target_diamondrectangles.svg	27	yes	0	0	2000	6	4	antiphase_hc_sio.wav	1	6	3	noise_calib_stim_LEFT.wav	1	8	blb_dichoticlistening_da-da.mp3	da	da	0	left
6.6.1	win	2023-06-26	18:31:17	18:44:05	765484	63d7f3f4e50de685d3d5b4fb	2	1	main_z	24	advance_on_keypress_ZEE	2	stimuli_distractor_trianglediamonds.svg	stimuli_target_diamondrectangles.svg	27	yes	57	0	1668	6	4	antiphase_hc_sio.wav	1	6	3	noise_calib_stim_LEFT.wav	1	8	blb_dichoticlistening_da-da.mp3	da	da	0	left
6.6.1	win	2023-06-26	18:31:17	18:44:08	768292	63d7f3f4e50de685d3d5b4fb	2	1	main_z	24	main_z	3	stimuli_distractor_diamondtriangles.svg	stimuli_target_trianglesquares.svg	30	yes	44	1	496	6	4	antiphase_hc_sio.wav	1	6	3	noise_calib_stim_LEFT.wav	1	8	blb_dichoticlistening_da-da.mp3	da	da	0	left
6.6.1	win	2023-06-26	18:31:17	18:44:08	768292	63d7f3f4e50de685d3d5b4fb	2	1	main_z	24	advance_on_keypress_ZEE	4	stimuli_distractor_diamondtriangles.svg	stimuli_target_trianglesquares.svg	30	yes	57	0	683	6	4	antiphase_hc_sio.wav	1	6	3	noise_calib_stim_LEFT.wav	1	8	blb_dichoticlistening_da-da.mp3	da	da	0	left
6.6.1	win	2023-06-26	18:31:17	18:44:10	770109	63d7f3f4e50de685d3d5b4fb	2	1	main_z	24	main_z	5	stimuli_target_squarediamonds.svg	stimuli_distractor_diamondtriangles.svg	8	yes	44	1	480	6	4	antiphase_hc_sio.wav	1	6	3	noise_calib_stim_LEFT.wav	1	8	blb_dichoticlistening_da-da.mp3	da	da	0	left
6.6.1	win	2023-06-26	18:31:17	18:44:10	770109	63d7f3f4e50de685d3d5b4fb	2	1	main_z	24	advance_on_keypress_ZEE	6	stimuli_target_squarediamonds.svg	stimuli_distractor_diamondtriangles.svg	8	yes	57	0	535	6	4	antiphase_hc_sio.wav	1	6	3	noise_calib_stim_LEFT.wav	1	8	blb_dichoticlistening_da-da.mp3	da	da	0	left
6.6.1	win	2023-06-26	18:31:17	18:44:12	772459	63d7f3f4e50de685d3d5b4fb	2	1	main_z	24	main_z	7	stimuli_target_trianglerectangles.svg	stimuli_distractor_trianglediamonds.svg	17	yes	44	1	1164	6	4	antiphase_hc_sio.wav	1	6	3	noise_calib_stim_LEFT.wav	1	8	blb_dichoticlistening_da-da.mp3	da	da	0	left
6.6.1	win	2023-06-26	18:31:17	18:44:12	772459	63d7f3f4e50de685d3d5b4fb	2	1	main_z	24	advance_on_keypress_ZEE	8	stimuli_target_trianglerectangles.svg	stimuli_distractor_trianglediamonds.svg	17	yes	57	0	670	6	4	antiphase_hc_sio.wav	1	6	3	noise_calib_stim_LEFT.wav	1	8	blb_dichoticlistening_da-da.mp3	da	da	0	left
6.6.1	win	2023-06-26	18:31:17	18:44:14	774436	63d7f3f4e50de685d3d5b4fb	2	1	main_z	24	main_z	9	stimuli_target_diamondrectangles.svg	stimuli_distractor_diamondtriangles.svg	23	yes	44	1	659	6	4	antiphase_hc_sio.wav	1	6	3	noise_calib_stim_LEFT.wav	1	8	blb_dichoticlistening_da-da.mp3	da	da	0	left
6.6.1	win	2023-06-26	18:31:17	18:44:14	774436	63d7f3f4e50de685d3d5b4fb	2	1	main_z	24	advance_on_keypress_ZEE	10	stimuli_target_diamondrectangles.svg	stimuli_distractor_diamondtriangles.svg	23	yes	57	0	570	6	4	antiphase_hc_sio.wav	1	6	3	noise_calib_stim_LEFT.wav	1	8	blb_dichoticlistening_da-da.mp3	da	da	0	left
6.6.1	win	2023-06-26	18:31:17	18:44:16	775952	63d7f3f4e50de685d3d5b4fb	2	1	main_z	24	main_z	11	stimuli_target_trianglesquares.svg	stimuli_distractor_diamondtriangles.svg	22	yes	44	1	310	6	4	antiphase_hc_sio.wav	1	6	3	noise_calib_stim_LEFT.wav	1	8	blb_dichoticlistening_da-da.mp3	da	da	0	left
6.6.1	win	2023-06-26	18:31:17	18:44:16	775952	63d7f3f4e50de685d3d5b4fb	2	1	main_z	24	advance_on_keypress_ZEE	12	stimuli_target_trianglesquares.svg	stimuli_distractor_diamondtriangles.svg	22	yes	57	0	720	6	4	antiphase_hc_sio.wav	1	6	3	noise_calib_stim_LEFT.wav	1	8	blb_dichoticlistening_da-da.mp3	da	da	0	left
6.6.1	win	2023-06-26	18:31:17	18:44:18	778030	63d7f3f4e50de685d3d5b4fb	2	1	main_z	24	main_z	13	stimuli_distractor_diamondtriangles.svg	stimuli_target_squaretriangles.svg	15	yes	44	1	722	6	4	antiphase_hc_sio.wav	1	6	3	noise_calib_stim_LEFT.wav	1	8	blb_dichoticlistening_da-da.mp3	da	da	0	left
6.6.1	win	2023-06-26	18:31:17	18:44:18	778030	63d7f3f4e50de685d3d5b4fb	2	1	main_z	24	advance_on_keypress_ZEE	14	stimuli_distractor_diamondtriangles.svg	stimuli_target_squaretriangles.svg	15	yes	57	0	459	6	4	antiphase_hc_sio.wav	1	6	3	noise_calib_stim_LEFT.wav	1	8	blb_dichoticlistening_da-da.mp3	da	da	0	left
6.6.1	win	2023-06-26	18:31:17	18:44:20	779771	63d7f3f4e50de685d3d5b4fb	2	1	main_z	24	main_z	15	stimuli_distractor_trianglediamonds.svg	stimuli_target_trianglesquares.svg	26	yes	44	1	647	6	4	antiphase_hc_sio.wav	1	6	3	noise_calib_stim_LEFT.wav	1	8	blb_dichoticlistening_da-da.mp3	da	da	0	left
6.6.1	win	2023-06-26	18:31:17	18:44:20	779771	63d7f3f4e50de685d3d5b4fb	2	1	main_z	24	advance_on_keypress_ZEE	16	stimuli_distractor_trianglediamonds.svg	stimuli_target_trianglesquares.svg	26	yes	57	0	380	6	4	antiphase_hc_sio.wav	1	6	3	noise_calib_stim_LEFT.wav	1	8	blb_dichoticlistening_da-da.mp3	da	da	0	left
6.6.1	win	2023-06-26	18:31:17	18:44:23	782806	63d7f3f4e50de685d3d5b4fb	2	1	main_z	24	main_z	17	stimuli_distractor_trianglediamonds.svg	stimuli_distractor_diamondtriangles.svg	35	no	0	1	2000	6	4	antiphase_hc_sio.wav	1	6	3	noise_calib_stim_LEFT.wav	1	8	blb_dichoticlistening_da-da.mp3	da	da	0	left
6.6.1	win	2023-06-26	18:31:17	18:44:23	782806	63d7f3f4e50de685d3d5b4fb	2	1	main_z	24	advance_on_keypress_ZEE	18	stimuli_distractor_trianglediamonds.svg	stimuli_distractor_diamondtriangles.svg	35	no	57	0	478	6	4	antiphase_hc_sio.wav	1	6	3	noise_calib_stim_LEFT.wav	1	8	blb_dichoticlistening_da-da.mp3	da	da	0	left
6.6.1	win	2023-06-26	18:31:17	18:44:26	785938	63d7f3f4e50de685d3d5b4fb	2	1	main_z	24	main_z	19	stimuli_distractor_trianglediamonds.svg	stimuli_distractor_trianglediamonds.svg	34	no	0	1	2000	6	4	antiphase_hc_sio.wav	1	6	3	noise_calib_stim_LEFT.wav	1	8	blb_dichoticlistening_da-da.mp3	da	da	0	left
6.6.1	win	2023-06-26	18:31:17	18:44:26	785938	63d7f3f4e50de685d3d5b4fb	2	1	main_z	24	advance_on_keypress_ZEE	20	stimuli_distractor_trianglediamonds.svg	stimuli_distractor_trianglediamonds.svg	34	no	57	0	1381	6	4	antiphase_hc_sio.wav	1	6	3	noise_calib_stim_LEFT.wav	1	8	blb_dichoticlistening_da-da.mp3	da	da	0	left
6.6.1	win	2023-06-26	18:31:17	18:44:28	788500	63d7f3f4e50de685d3d5b4fb	2	1	main_z	24	main_z	21	stimuli_target_rectangletriangles.svg	stimuli_distractor_trianglediamonds.svg	1	yes	44	1	531	6	4	antiphase_hc_sio.wav	1	6	3	noise_calib_stim_LEFT.wav	1	8	blb_dichoticlistening_da-da.mp3	da	da	0	left
6.6.1	win	2023-06-26	18:31:17	18:44:28	788500	63d7f3f4e50de685d3d5b4fb	2	1	main_z	24	advance_on_keypress_ZEE	22	stimuli_target_rectangletriangles.svg	stimuli_distractor_trianglediamonds.svg	1	yes	57	0	974	6	4	antiphase_hc_sio.wav	1	6	3	noise_calib_stim_LEFT.wav	1	8	blb_dichoticlistening_da-da.mp3	da	da	0	left
6.6.1	win	2023-06-26	18:31:17	18:44:31	790633	63d7f3f4e50de685d3d5b4fb	2	1	main_z	24	main_z	23	stimuli_distractor_trianglediamonds.svg	stimuli_target_rectanglediamonds.svg	10	yes	44	1	503	6	4	antiphase_hc_sio.wav	1	6	3	noise_calib_stim_LEFT.wav	1	8	blb_dichoticlistening_da-da.mp3	da	da	0	left
6.6.1	win	2023-06-26	18:31:17	18:44:31	790633	63d7f3f4e50de685d3d5b4fb	2	1	main_z	24	advance_on_keypress_ZEE	24	stimuli_distractor_trianglediamonds.svg	stimuli_target_rectanglediamonds.svg	10	yes	57	0	354	6	4	antiphase_hc_sio.wav	1	6	3	noise_calib_stim_LEFT.wav	1	8	blb_dichoticlistening_da-da.mp3	da	da	0	left
6.6.1	win	2023-06-26	18:31:17	18:44:32	792016	63d7f3f4e50de685d3d5b4fb	2	1	main_z	24	main_z	25	stimuli_target_rectangletriangles.svg	stimuli_distractor_diamondtriangles.svg	5	yes	44	1	372	6	4	antiphase_hc_sio.wav	1	6	3	noise_calib_stim_LEFT.wav	1	8	blb_dichoticlistening_da-da.mp3	da	da	0	left
6.6.1	win	2023-06-26	18:31:17	18:44:32	792016	63d7f3f4e50de685d3d5b4fb	2	1	main_z	24	advance_on_keypress_ZEE	26	stimuli_target_rectangletriangles.svg	stimuli_distractor_diamondtriangles.svg	5	yes	57	0	331	6	4	antiphase_hc_sio.wav	1	6	3	noise_calib_stim_LEFT.wav	1	8	blb_dichoticlistening_da-da.mp3	da	da	0	left
6.6.1	win	2023-06-26	18:31:17	18:44:34	793715	63d7f3f4e50de685d3d5b4fb	2	1	main_z	24	main_z	27	stimuli_distractor_diamondtriangles.svg	stimuli_distractor_trianglediamonds.svg	37	no	44	0	715	6	4	antiphase_hc_sio.wav	1	6	3	noise_calib_stim_LEFT.wav	1	8	blb_dichoticlistening_da-da.mp3	da	da	0	left
6.6.1	win	2023-06-26	18:31:17	18:44:34	793715	63d7f3f4e50de685d3d5b4fb	2	1	main_z	24	advance_on_keypress_ZEE	28	stimuli_distractor_diamondtriangles.svg	stimuli_distractor_trianglediamonds.svg	37	no	57	0	460	6	4	antiphase_hc_sio.wav	1	6	3	noise_calib_stim_LEFT.wav	1	8	blb_dichoticlistening_da-da.mp3	da	da	0	left
6.6.1	win	2023-06-26	18:31:17	18:44:35	795386	63d7f3f4e50de685d3d5b4fb	2	1	main_z	24	main_z	29	stimuli_distractor_trianglediamonds.svg	stimuli_target_squarediamonds.svg	12	yes	44	1	554	6	4	antiphase_hc_sio.wav	1	6	3	noise_calib_stim_LEFT.wav	1	8	blb_dichoticlistening_da-da.mp3	da	da	0	left
6.6.1	win	2023-06-26	18:31:17	18:44:35	795386	63d7f3f4e50de685d3d5b4fb	2	1	main_z	24	advance_on_keypress_ZEE	30	stimuli_distractor_trianglediamonds.svg	stimuli_target_squarediamonds.svg	12	yes	57	0	348	6	4	antiphase_hc_sio.wav	1	6	3	noise_calib_stim_LEFT.wav	1	8	blb_dichoticlistening_da-da.mp3	da	da	0	left
6.6.1	win	2023-06-26	18:31:17	18:44:38	798382	63d7f3f4e50de685d3d5b4fb	2	1	main_z	24	main_z	31	stimuli_distractor_trianglediamonds.svg	stimuli_distractor_diamondtriangles.svg	36	no	0	1	2000	6	4	antiphase_hc_sio.wav	1	6	3	noise_calib_stim_LEFT.wav	1	8	blb_dichoticlistening_da-da.mp3	da	da	0	left
6.6.1	win	2023-06-26	18:31:17	18:44:38	798382	63d7f3f4e50de685d3d5b4fb	2	1	main_z	24	advance_on_keypress_ZEE	32	stimuli_distractor_trianglediamonds.svg	stimuli_distractor_diamondtriangles.svg	36	no	57	0	334	6	4	antiphase_hc_sio.wav	1	6	3	noise_calib_stim_LEFT.wav	1	8	blb_dichoticlistening_da-da.mp3	da	da	0	left
6.6.1	win	2023-06-26	18:31:17	18:44:40	799897	63d7f3f4e50de685d3d5b4fb	2	1	main_z	24	main_z	33	stimuli_distractor_diamondtriangles.svg	stimuli_target_diamondsquares.svg	32	yes	44	1	534	6	4	antiphase_hc_sio.wav	1	6	3	noise_calib_stim_LEFT.wav	1	8	blb_dichoticlistening_da-da.mp3	da	da	0	left
6.6.1	win	2023-06-26	18:31:17	18:44:40	799897	63d7f3f4e50de685d3d5b4fb	2	1	main_z	24	advance_on_keypress_ZEE	34	stimuli_distractor_diamondtriangles.svg	stimuli_target_diamondsquares.svg	32	yes	57	0	374	6	4	antiphase_hc_sio.wav	1	6	3	noise_calib_stim_LEFT.wav	1	8	blb_dichoticlistening_da-da.mp3	da	da	0	left
6.6.1	win	2023-06-26	18:31:17	18:44:43	802913	63d7f3f4e50de685d3d5b4fb	2	1	main_z	24	main_z	35	stimuli_distractor_diamondtriangles.svg	stimuli_distractor_diamondtriangles.svg	40	no	0	1	2000	6	4	antiphase_hc_sio.wav	1	6	3	noise_calib_stim_LEFT.wav	1	8	blb_dichoticlistening_da-da.mp3	da	da	0	left
6.6.1	win	2023-06-26	18:31:17	18:44:43	802913	63d7f3f4e50de685d3d5b4fb	2	1	main_z	24	advance_on_keypress_ZEE	36	stimuli_distractor_diamondtriangles.svg	stimuli_distractor_diamondtriangles.svg	40	no	57	0	442	6	4	antiphase_hc_sio.wav	1	6	3	noise_calib_stim_LEFT.wav	1	8	blb_dichoticlistening_da-da.mp3	da	da	0	left
6.6.1	win	2023-06-26	18:31:17	18:44:45	804629	63d7f3f4e50de685d3d5b4fb	2	1	main_z	24	main_z	37	stimuli_distractor_diamondtriangles.svg	stimuli_distractor_trianglediamonds.svg	38	no	44	0	634	6	4	antiphase_hc_sio.wav	1	6	3	noise_calib_stim_LEFT.wav	1	8	blb_dichoticlistening_da-da.mp3	da	da	0	left
6.6.1	win	2023-06-26	18:31:17	18:44:45	804629	63d7f3f4e50de685d3d5b4fb	2	1	main_z	24	advance_on_keypress_ZEE	38	stimuli_distractor_diamondtriangles.svg	stimuli_distractor_trianglediamonds.svg	38	no	57	0	307	6	4	antiphase_hc_sio.wav	1	6	3	noise_calib_stim_LEFT.wav	1	8	blb_dichoticlistening_da-da.mp3	da	da	0	left
6.6.1	win	2023-06-26	18:31:17	18:44:46	806263	63d7f3f4e50de685d3d5b4fb	2	1	main_z	24	main_z	39	stimuli_target_squaretriangles.svg	stimuli_distractor_diamondtriangles.svg	7	yes	44	1	685	6	4	antiphase_hc_sio.wav	1	6	3	noise_calib_stim_LEFT.wav	1	8	blb_dichoticlistening_da-da.mp3	da	da	0	left
6.6.1	win	2023-06-26	18:31:17	18:44:46	806263	63d7f3f4e50de685d3d5b4fb	2	1	main_z	24	advance_on_keypress_ZEE	40	stimuli_target_squaretriangles.svg	stimuli_distractor_diamondtriangles.svg	7	yes	57	0	304	6	4	antiphase_hc_sio.wav	1	6	3	noise_calib_stim_LEFT.wav	1	8	blb_dichoticlistening_da-da.mp3	da	da	0	left
6.6.1	win	2023-06-26	18:31:17	18:44:49	809209	63d7f3f4e50de685d3d5b4fb	2	1	main_z	24	main_z	41	stimuli_target_trianglerectangles.svg	stimuli_distractor_diamondtriangles.svg	21	yes	0	0	2000	6	4	antiphase_hc_sio.wav	1	6	3	noise_calib_stim_LEFT.wav	1	8	blb_dichoticlistening_da-da.mp3	da	da	0	left
6.6.1	win	2023-06-26	18:31:17	18:44:49	809209	63d7f3f4e50de685d3d5b4fb	2	1	main_z	24	advance_on_keypress_ZEE	42	stimuli_target_trianglerectangles.svg	stimuli_distractor_diamondtriangles.svg	21	yes	57	0	415	6	4	antiphase_hc_sio.wav	1	6	3	noise_calib_stim_LEFT.wav	1	8	blb_dichoticlistening_da-da.mp3	da	da	0	left
6.6.1	win	2023-06-26	18:31:17	18:44:51	811195	63d7f3f4e50de685d3d5b4fb	2	1	main_z	24	main_z	43	stimuli_target_trianglesquares.svg	stimuli_distractor_trianglediamonds.svg	18	yes	44	1	921	6	4	antiphase_hc_sio.wav	1	6	3	noise_calib_stim_LEFT.wav	1	8	blb_dichoticlistening_da-da.mp3	da	da	0	left
6.6.1	win	2023-06-26	18:31:17	18:44:51	811195	63d7f3f4e50de685d3d5b4fb	2	1	main_z	24	advance_on_keypress_ZEE	44	stimuli_target_trianglesquares.svg	stimuli_distractor_trianglediamonds.svg	18	yes	57	0	279	6	4	antiphase_hc_sio.wav	1	6	3	noise_calib_stim_LEFT.wav	1	8	blb_dichoticlistening_da-da.mp3	da	da	0	left
6.6.1	win	2023-06-26	18:31:17	18:44:53	812827	63d7f3f4e50de685d3d5b4fb	2	1	main_z	24	main_z	45	stimuli_distractor_trianglediamonds.svg	stimuli_target_squaretriangles.svg	11	yes	44	1	704	6	4	antiphase_hc_sio.wav	1	6	3	noise_calib_stim_LEFT.wav	1	8	blb_dichoticlistening_da-da.mp3	da	da	0	left
6.6.1	win	2023-06-26	18:31:17	18:44:53	812827	63d7f3f4e50de685d3d5b4fb	2	1	main_z	24	advance_on_keypress_ZEE	46	stimuli_distractor_trianglediamonds.svg	stimuli_target_squaretriangles.svg	11	yes	57	0	285	6	4	antiphase_hc_sio.wav	1	6	3	noise_calib_stim_LEFT.wav	1	8	blb_dichoticlistening_da-da.mp3	da	da	0	left
6.6.1	win	2023-06-26	18:31:17	18:44:54	814157	63d7f3f4e50de685d3d5b4fb	2	1	main_z	24	main_z	47	stimuli_target_squarediamonds.svg	stimuli_distractor_trianglediamonds.svg	4	yes	44	1	402	6	4	antiphase_hc_sio.wav	1	6	3	noise_calib_stim_LEFT.wav	1	8	blb_dichoticlistening_da-da.mp3	da	da	0	left
6.6.1	win	2023-06-26	18:31:17	18:44:54	814157	63d7f3f4e50de685d3d5b4fb	2	1	main_z	24	advance_on_keypress_ZEE	48	stimuli_target_squarediamonds.svg	stimuli_distractor_trianglediamonds.svg	4	yes	57	0	344	6	4	antiphase_hc_sio.wav	1	6	3	noise_calib_stim_LEFT.wav	1	8	blb_dichoticlistening_da-da.mp3	da	da	0	left
6.6.1	win	2023-06-26	18:31:17	18:44:56	815770	63d7f3f4e50de685d3d5b4fb	2	1	main_z	24	main_z	49	stimuli_distractor_diamondtriangles.svg	stimuli_target_diamondrectangles.svg	31	yes	44	1	615	6	4	antiphase_hc_sio.wav	1	6	3	noise_calib_stim_LEFT.wav	1	8	blb_dichoticlistening_da-da.mp3	da	da	0	left
6.6.1	win	2023-06-26	18:31:17	18:44:56	815770	63d7f3f4e50de685d3d5b4fb	2	1	main_z	24	advance_on_keypress_ZEE	50	stimuli_distractor_diamondtriangles.svg	stimuli_target_diamondrectangles.svg	31	yes	57	0	279	6	4	antiphase_hc_sio.wav	1	6	3	noise_calib_stim_LEFT.wav	1	8	blb_dichoticlistening_da-da.mp3	da	da	0	left
6.6.1	win	2023-06-26	18:31:17	18:44:57	817203	63d7f3f4e50de685d3d5b4fb	2	1	main_z	24	main_z	51	stimuli_target_diamondsquares.svg	stimuli_distractor_trianglediamonds.svg	20	yes	44	1	499	6	4	antiphase_hc_sio.wav	1	6	3	noise_calib_stim_LEFT.wav	1	8	blb_dichoticlistening_da-da.mp3	da	da	0	left
6.6.1	win	2023-06-26	18:31:17	18:44:57	817203	63d7f3f4e50de685d3d5b4fb	2	1	main_z	24	advance_on_keypress_ZEE	52	stimuli_target_diamondsquares.svg	stimuli_distractor_trianglediamonds.svg	20	yes	57	0	291	6	4	antiphase_hc_sio.wav	1	6	3	noise_calib_stim_LEFT.wav	1	8	blb_dichoticlistening_da-da.mp3	da	da	0	left
6.6.1	win	2023-06-26	18:31:17	18:44:59	818544	63d7f3f4e50de685d3d5b4fb	2	1	main_z	24	main_z	53	stimuli_distractor_trianglediamonds.svg	stimuli_target_rectangletriangles.svg	9	yes	44	1	407	6	4	antiphase_hc_sio.wav	1	6	3	noise_calib_stim_LEFT.wav	1	8	blb_dichoticlistening_da-da.mp3	da	da	0	left
6.6.1	win	2023-06-26	18:31:17	18:44:59	818544	63d7f3f4e50de685d3d5b4fb	2	1	main_z	24	advance_on_keypress_ZEE	54	stimuli_distractor_trianglediamonds.svg	stimuli_target_rectangletriangles.svg	9	yes	57	0	620	6	4	antiphase_hc_sio.wav	1	6	3	noise_calib_stim_LEFT.wav	1	8	blb_dichoticlistening_da-da.mp3	da	da	0	left
6.6.1	win	2023-06-26	18:31:17	18:45:01	820560	63d7f3f4e50de685d3d5b4fb	2	1	main_z	24	main_z	55	stimuli_distractor_trianglediamonds.svg	stimuli_target_trianglerectangles.svg	25	yes	44	1	757	6	4	antiphase_hc_sio.wav	1	6	3	noise_calib_stim_LEFT.wav	1	8	blb_dichoticlistening_da-da.mp3	da	da	0	left
6.6.1	win	2023-06-26	18:31:17	18:45:01	820560	63d7f3f4e50de685d3d5b4fb	2	1	main_z	24	advance_on_keypress_ZEE	56	stimuli_distractor_trianglediamonds.svg	stimuli_target_trianglerectangles.svg	25	yes	57	0	292	6	4	antiphase_hc_sio.wav	1	6	3	noise_calib_stim_LEFT.wav	1	8	blb_dichoticlistening_da-da.mp3	da	da	0	left
6.6.1	win	2023-06-26	18:31:17	18:45:02	822018	63d7f3f4e50de685d3d5b4fb	2	1	main_z	24	main_z	57	stimuli_distractor_diamondtriangles.svg	stimuli_target_trianglerectangles.svg	29	yes	44	1	533	6	4	antiphase_hc_sio.wav	1	6	3	noise_calib_stim_LEFT.wav	1	8	blb_dichoticlistening_da-da.mp3	da	da	0	left
6.6.1	win	2023-06-26	18:31:17	18:45:02	822018	63d7f3f4e50de685d3d5b4fb	2	1	main_z	24	advance_on_keypress_ZEE	58	stimuli_distractor_diamondtriangles.svg	stimuli_target_trianglerectangles.svg	29	yes	57	0	362	6	4	antiphase_hc_sio.wav	1	6	3	noise_calib_stim_LEFT.wav	1	8	blb_dichoticlistening_da-da.mp3	da	da	0	left
6.6.1	win	2023-06-26	18:31:17	18:45:03	823328	63d7f3f4e50de685d3d5b4fb	2	1	main_z	24	main_z	59	stimuli_distractor_diamondtriangles.svg	stimuli_target_squarediamonds.svg	16	yes	44	1	294	6	4	antiphase_hc_sio.wav	1	6	3	noise_calib_stim_LEFT.wav	1	8	blb_dichoticlistening_da-da.mp3	da	da	0	left
6.6.1	win	2023-06-26	18:31:17	18:45:03	823328	63d7f3f4e50de685d3d5b4fb	2	1	main_z	24	advance_on_keypress_ZEE	60	stimuli_distractor_diamondtriangles.svg	stimuli_target_squarediamonds.svg	16	yes	57	0	378	6	4	antiphase_hc_sio.wav	1	6	3	noise_calib_stim_LEFT.wav	1	8	blb_dichoticlistening_da-da.mp3	da	da	0	left
6.6.1	win	2023-06-26	18:31:17	18:45:05	824926	63d7f3f4e50de685d3d5b4fb	2	1	main_z	24	main_z	61	stimuli_target_squaretriangles.svg	stimuli_distractor_trianglediamonds.svg	3	yes	44	1	559	6	4	antiphase_hc_sio.wav	1	6	3	noise_calib_stim_LEFT.wav	1	8	blb_dichoticlistening_da-da.mp3	da	da	0	left
6.6.1	win	2023-06-26	18:31:17	18:45:05	824926	63d7f3f4e50de685d3d5b4fb	2	1	main_z	24	advance_on_keypress_ZEE	62	stimuli_target_squaretriangles.svg	stimuli_distractor_trianglediamonds.svg	3	yes	57	0	342	6	4	antiphase_hc_sio.wav	1	6	3	noise_calib_stim_LEFT.wav	1	8	blb_dichoticlistening_da-da.mp3	da	da	0	left
6.6.1	win	2023-06-26	18:31:17	18:45:06	826396	63d7f3f4e50de685d3d5b4fb	2	1	main_z	24	main_z	63	stimuli_target_diamondrectangles.svg	stimuli_distractor_trianglediamonds.svg	19	yes	44	1	497	6	4	antiphase_hc_sio.wav	1	6	3	noise_calib_stim_LEFT.wav	1	8	blb_dichoticlistening_da-da.mp3	da	da	0	left
6.6.1	win	2023-06-26	18:31:17	18:45:06	826396	63d7f3f4e50de685d3d5b4fb	2	1	main_z	24	advance_on_keypress_ZEE	64	stimuli_target_diamondrectangles.svg	stimuli_distractor_trianglediamonds.svg	19	yes	57	0	367	6	4	antiphase_hc_sio.wav	1	6	3	noise_calib_stim_LEFT.wav	1	8	blb_dichoticlistening_da-da.mp3	da	da	0	left
6.6.1	win	2023-06-26	18:31:17	18:45:08	827732	63d7f3f4e50de685d3d5b4fb	2	1	main_z	24	main_z	65	stimuli_distractor_diamondtriangles.svg	stimuli_target_rectanglediamonds.svg	14	yes	44	1	317	6	4	antiphase_hc_sio.wav	1	6	3	noise_calib_stim_LEFT.wav	1	8	blb_dichoticlistening_da-da.mp3	da	da	0	left
6.6.1	win	2023-06-26	18:31:17	18:45:08	827732	63d7f3f4e50de685d3d5b4fb	2	1	main_z	24	advance_on_keypress_ZEE	66	stimuli_distractor_diamondtriangles.svg	stimuli_target_rectanglediamonds.svg	14	yes	57	0	414	6	4	antiphase_hc_sio.wav	1	6	3	noise_calib_stim_LEFT.wav	1	8	blb_dichoticlistening_da-da.mp3	da	da	0	left
6.6.1	win	2023-06-26	18:31:17	18:45:09	829212	63d7f3f4e50de685d3d5b4fb	2	1	main_z	24	main_z	67	stimuli_target_rectanglediamonds.svg	stimuli_distractor_diamondtriangles.svg	6	yes	44	1	414	6	4	antiphase_hc_sio.wav	1	6	3	noise_calib_stim_LEFT.wav	1	8	blb_dichoticlistening_da-da.mp3	da	da	0	left
6.6.1	win	2023-06-26	18:31:17	18:45:09	829212	63d7f3f4e50de685d3d5b4fb	2	1	main_z	24	advance_on_keypress_ZEE	68	stimuli_target_rectanglediamonds.svg	stimuli_distractor_diamondtriangles.svg	6	yes	57	0	318	6	4	antiphase_hc_sio.wav	1	6	3	noise_calib_stim_LEFT.wav	1	8	blb_dichoticlistening_da-da.mp3	da	da	0	left
6.6.1	win	2023-06-26	18:31:17	18:45:11	830780	63d7f3f4e50de685d3d5b4fb	2	1	main_z	24	main_z	69	stimuli_target_diamondsquares.svg	stimuli_distractor_diamondtriangles.svg	24	yes	44	1	599	6	4	antiphase_hc_sio.wav	1	6	3	noise_calib_stim_LEFT.wav	1	8	blb_dichoticlistening_da-da.mp3	da	da	0	left
6.6.1	win	2023-06-26	18:31:17	18:45:11	830780	63d7f3f4e50de685d3d5b4fb	2	1	main_z	24	advance_on_keypress_ZEE	70	stimuli_target_diamondsquares.svg	stimuli_distractor_diamondtriangles.svg	24	yes	57	0	275	6	4	antiphase_hc_sio.wav	1	6	3	noise_calib_stim_LEFT.wav	1	8	blb_dichoticlistening_da-da.mp3	da	da	0	left
6.6.1	win	2023-06-26	18:31:17	18:45:12	832352	63d7f3f4e50de685d3d5b4fb	2	1	main_z	24	main_z	71	stimuli_distractor_diamondtriangles.svg	stimuli_target_rectangletriangles.svg	13	yes	44	1	655	6	4	antiphase_hc_sio.wav	1	6	3	noise_calib_stim_LEFT.wav	1	8	blb_dichoticlistening_da-da.mp3	da	da	0	left
6.6.1	win	2023-06-26	18:31:17	18:45:12	832352	63d7f3f4e50de685d3d5b4fb	2	1	main_z	24	advance_on_keypress_ZEE	72	stimuli_distractor_diamondtriangles.svg	stimuli_target_rectangletriangles.svg	13	yes	57	0	352	6	4	antiphase_hc_sio.wav	1	6	3	noise_calib_stim_LEFT.wav	1	8	blb_dichoticlistening_da-da.mp3	da	da	0	left
6.6.1	win	2023-06-26	18:31:17	18:45:15	835346	63d7f3f4e50de685d3d5b4fb	2	1	main_z	24	main_z	73	stimuli_distractor_diamondtriangles.svg	stimuli_distractor_diamondtriangles.svg	39	no	0	1	2000	6	4	antiphase_hc_sio.wav	1	6	3	noise_calib_stim_LEFT.wav	1	8	blb_dichoticlistening_da-da.mp3	da	da	0	left
6.6.1	win	2023-06-26	18:31:17	18:45:15	835346	63d7f3f4e50de685d3d5b4fb	2	1	main_z	24	advance_on_keypress_ZEE	74	stimuli_distractor_diamondtriangles.svg	stimuli_distractor_diamondtriangles.svg	39	no	57	0	501	6	4	antiphase_hc_sio.wav	1	6	3	noise_calib_stim_LEFT.wav	1	8	blb_dichoticlistening_da-da.mp3	da	da	0	left
6.6.1	win	2023-06-26	18:31:17	18:45:18	838494	63d7f3f4e50de685d3d5b4fb	2	1	main_z	24	main_z	75	stimuli_distractor_trianglediamonds.svg	stimuli_distractor_trianglediamonds.svg	33	no	0	1	2000	6	4	antiphase_hc_sio.wav	1	6	3	noise_calib_stim_LEFT.wav	1	8	blb_dichoticlistening_da-da.mp3	da	da	0	left
6.6.1	win	2023-06-26	18:31:17	18:45:18	838494	63d7f3f4e50de685d3d5b4fb	2	1	main_z	24	advance_on_keypress_ZEE	76	stimuli_distractor_trianglediamonds.svg	stimuli_distractor_trianglediamonds.svg	33	no	57	0	1348	6	4	antiphase_hc_sio.wav	1	6	3	noise_calib_stim_LEFT.wav	1	8	blb_dichoticlistening_da-da.mp3	da	da	0	left
6.6.1	win	2023-06-26	18:31:17	18:45:21	840850	63d7f3f4e50de685d3d5b4fb	2	1	main_z	24	main_z	77	stimuli_distractor_trianglediamonds.svg	stimuli_target_diamondsquares.svg	28	yes	44	1	358	6	4	antiphase_hc_sio.wav	1	6	3	noise_calib_stim_LEFT.wav	1	8	blb_dichoticlistening_da-da.mp3	da	da	0	left
6.6.1	win	2023-06-26	18:31:17	18:45:21	840850	63d7f3f4e50de685d3d5b4fb	2	1	main_z	24	advance_on_keypress_ZEE	78	stimuli_distractor_trianglediamonds.svg	stimuli_target_diamondsquares.svg	28	yes	57	0	823	6	4	antiphase_hc_sio.wav	1	6	3	noise_calib_stim_LEFT.wav	1	8	blb_dichoticlistening_da-da.mp3	da	da	0	left
6.6.1	win	2023-06-26	18:31:17	18:45:23	842756	63d7f3f4e50de685d3d5b4fb	2	1	main_z	24	main_z	79	stimuli_target_rectanglediamonds.svg	stimuli_distractor_trianglediamonds.svg	2	yes	44	1	448	6	4	antiphase_hc_sio.wav	1	6	3	noise_calib_stim_LEFT.wav	1	8	blb_dichoticlistening_da-da.mp3	da	da	0	left
6.6.1	win	2023-06-26	18:31:17	18:45:23	842756	63d7f3f4e50de685d3d5b4fb	2	1	main_z	24	advance_on_keypress_ZEE	80	stimuli_target_rectanglediamonds.svg	stimuli_distractor_trianglediamonds.svg	2	yes	57	0	487	6	4	antiphase_hc_sio.wav	1	6	3	noise_calib_stim_LEFT.wav	1	8	blb_dichoticlistening_da-da.mp3	da	da	0	left
6.6.1	win	2023-06-26	18:31:17	18:45:24	844406	63d7f3f4e50de685d3d5b4fb	2	1	main_z	24	main_z	81	stimuli_distractor_trianglediamonds.svg	stimuli_target_squaretriangles.svg	11	yes	44	1	513	6	4	antiphase_hc_sio.wav	1	6	3	noise_calib_stim_LEFT.wav	1	8	blb_dichoticlistening_da-da.mp3	da	da	0	left
6.6.1	win	2023-06-26	18:31:17	18:45:24	844406	63d7f3f4e50de685d3d5b4fb	2	1	main_z	24	advance_on_keypress_ZEE	82	stimuli_distractor_trianglediamonds.svg	stimuli_target_squaretriangles.svg	11	yes	57	0	216	6	4	antiphase_hc_sio.wav	1	6	3	noise_calib_stim_LEFT.wav	1	8	blb_dichoticlistening_da-da.mp3	da	da	0	left
6.6.1	win	2023-06-26	18:31:17	18:45:26	845832	63d7f3f4e50de685d3d5b4fb	2	1	main_z	24	main_z	83	stimuli_distractor_trianglediamonds.svg	stimuli_target_trianglerectangles.svg	25	yes	44	1	559	6	4	antiphase_hc_sio.wav	1	6	3	noise_calib_stim_LEFT.wav	1	8	blb_dichoticlistening_da-da.mp3	da	da	0	left
6.6.1	win	2023-06-26	18:31:17	18:45:26	845832	63d7f3f4e50de685d3d5b4fb	2	1	main_z	24	advance_on_keypress_ZEE	84	stimuli_distractor_trianglediamonds.svg	stimuli_target_trianglerectangles.svg	25	yes	57	0	274	6	4	antiphase_hc_sio.wav	1	6	3	noise_calib_stim_LEFT.wav	1	8	blb_dichoticlistening_da-da.mp3	da	da	0	left
6.6.1	win	2023-06-26	18:31:17	18:45:27	847189	63d7f3f4e50de685d3d5b4fb	2	1	main_z	24	main_z	85	stimuli_distractor_diamondtriangles.svg	stimuli_target_squarediamonds.svg	16	yes	44	1	450	6	4	antiphase_hc_sio.wav	1	6	3	noise_calib_stim_LEFT.wav	1	8	blb_dichoticlistening_da-da.mp3	da	da	0	left
6.6.1	win	2023-06-26	18:31:17	18:45:27	847189	63d7f3f4e50de685d3d5b4fb	2	1	main_z	24	advance_on_keypress_ZEE	86	stimuli_distractor_diamondtriangles.svg	stimuli_target_squarediamonds.svg	16	yes	57	0	242	6	4	antiphase_hc_sio.wav	1	6	3	noise_calib_stim_LEFT.wav	1	8	blb_dichoticlistening_da-da.mp3	da	da	0	left
6.6.1	win	2023-06-26	18:31:17	18:45:28	848366	63d7f3f4e50de685d3d5b4fb	2	1	main_z	24	main_z	87	stimuli_target_rectanglediamonds.svg	stimuli_distractor_diamondtriangles.svg	6	yes	44	1	295	6	4	antiphase_hc_sio.wav	1	6	3	noise_calib_stim_LEFT.wav	1	8	blb_dichoticlistening_da-da.mp3	da	da	0	left
6.6.1	win	2023-06-26	18:31:17	18:45:28	848366	63d7f3f4e50de685d3d5b4fb	2	1	main_z	24	advance_on_keypress_ZEE	88	stimuli_target_rectanglediamonds.svg	stimuli_distractor_diamondtriangles.svg	6	yes	57	0	202	6	4	antiphase_hc_sio.wav	1	6	3	noise_calib_stim_LEFT.wav	1	8	blb_dichoticlistening_da-da.mp3	da	da	0	left
6.6.1	win	2023-06-26	18:31:17	18:45:30	849554	63d7f3f4e50de685d3d5b4fb	2	1	main_z	24	main_z	89	stimuli_distractor_diamondtriangles.svg	stimuli_target_diamondsquares.svg	32	yes	44	1	333	6	4	antiphase_hc_sio.wav	1	6	3	noise_calib_stim_LEFT.wav	1	8	blb_dichoticlistening_da-da.mp3	da	da	0	left
6.6.1	win	2023-06-26	18:31:17	18:45:30	849554	63d7f3f4e50de685d3d5b4fb	2	1	main_z	24	advance_on_keypress_ZEE	90	stimuli_distractor_diamondtriangles.svg	stimuli_target_diamondsquares.svg	32	yes	57	0	319	6	4	antiphase_hc_sio.wav	1	6	3	noise_calib_stim_LEFT.wav	1	8	blb_dichoticlistening_da-da.mp3	da	da	0	left
6.6.1	win	2023-06-26	18:31:17	18:45:31	851007	63d7f3f4e50de685d3d5b4fb	2	1	main_z	24	main_z	91	stimuli_target_squaretriangles.svg	stimuli_distractor_diamondtriangles.svg	7	yes	44	1	487	6	4	antiphase_hc_sio.wav	1	6	3	noise_calib_stim_LEFT.wav	1	8	blb_dichoticlistening_da-da.mp3	da	da	0	left
6.6.1	win	2023-06-26	18:31:17	18:45:31	851007	63d7f3f4e50de685d3d5b4fb	2	1	main_z	24	advance_on_keypress_ZEE	92	stimuli_target_squaretriangles.svg	stimuli_distractor_diamondtriangles.svg	7	yes	57	0	228	6	4	antiphase_hc_sio.wav	1	6	3	noise_calib_stim_LEFT.wav	1	8	blb_dichoticlistening_da-da.mp3	da	da	0	left
6.6.1	win	2023-06-26	18:31:17	18:45:32	852149	63d7f3f4e50de685d3d5b4fb	2	1	main_z	24	main_z	93	stimuli_target_diamondsquares.svg	stimuli_distractor_trianglediamonds.svg	20	yes	44	1	263	6	4	antiphase_hc_sio.wav	1	6	3	noise_calib_stim_LEFT.wav	1	8	blb_dichoticlistening_da-da.mp3	da	da	0	left
6.6.1	win	2023-06-26	18:31:17	18:45:32	852149	63d7f3f4e50de685d3d5b4fb	2	1	main_z	24	advance_on_keypress_ZEE	94	stimuli_target_diamondsquares.svg	stimuli_distractor_trianglediamonds.svg	20	yes	57	0	769	6	4	antiphase_hc_sio.wav	1	6	3	noise_calib_stim_LEFT.wav	1	8	blb_dichoticlistening_da-da.mp3	da	da	0	left
6.6.1	win	2023-06-26	18:31:17	18:45:34	854131	63d7f3f4e50de685d3d5b4fb	2	1	main_z	24	main_z	95	stimuli_target_diamondrectangles.svg	stimuli_distractor_trianglediamonds.svg	19	yes	44	1	563	6	4	antiphase_hc_sio.wav	1	6	3	noise_calib_stim_LEFT.wav	1	8	blb_dichoticlistening_da-da.mp3	da	da	0	left
6.6.1	win	2023-06-26	18:31:17	18:45:34	854131	63d7f3f4e50de685d3d5b4fb	2	1	main_z	24	advance_on_keypress_ZEE	96	stimuli_target_diamondrectangles.svg	stimuli_distractor_trianglediamonds.svg	19	yes	57	0	337	6	4	antiphase_hc_sio.wav	1	6	3	noise_calib_stim_LEFT.wav	1	8	blb_dichoticlistening_da-da.mp3	da	da	0	left
6.6.1	win	2023-06-26	18:31:17	18:45:36	855667	63d7f3f4e50de685d3d5b4fb	2	1	main_z	24	main_z	97	stimuli_distractor_trianglediamonds.svg	stimuli_target_trianglesquares.svg	26	yes	44	1	549	6	4	antiphase_hc_sio.wav	1	6	3	noise_calib_stim_LEFT.wav	1	8	blb_dichoticlistening_da-da.mp3	da	da	0	left
6.6.1	win	2023-06-26	18:31:17	18:45:36	855667	63d7f3f4e50de685d3d5b4fb	2	1	main_z	24	advance_on_keypress_ZEE	98	stimuli_distractor_trianglediamonds.svg	stimuli_target_trianglesquares.svg	26	yes	57	0	267	6	4	antiphase_hc_sio.wav	1	6	3	noise_calib_stim_LEFT.wav	1	8	blb_dichoticlistening_da-da.mp3	da	da	0	left
6.6.1	win	2023-06-26	18:31:17	18:45:37	856919	63d7f3f4e50de685d3d5b4fb	2	1	main_z	24	main_z	99	stimuli_distractor_trianglediamonds.svg	stimuli_target_rectanglediamonds.svg	10	yes	44	1	336	6	4	antiphase_hc_sio.wav	1	6	3	noise_calib_stim_LEFT.wav	1	8	blb_dichoticlistening_da-da.mp3	da	da	0	left
6.6.1	win	2023-06-26	18:31:17	18:45:37	856919	63d7f3f4e50de685d3d5b4fb	2	1	main_z	24	advance_on_keypress_ZEE	100	stimuli_distractor_trianglediamonds.svg	stimuli_target_rectanglediamonds.svg	10	yes	57	0	438	6	4	antiphase_hc_sio.wav	1	6	3	noise_calib_stim_LEFT.wav	1	8	blb_dichoticlistening_da-da.mp3	da	da	0	left
6.6.1	win	2023-06-26	18:31:17	18:45:38	858308	63d7f3f4e50de685d3d5b4fb	2	1	main_z	24	main_z	101	stimuli_distractor_diamondtriangles.svg	stimuli_distractor_diamondtriangles.svg	40	no	44	0	309	6	4	antiphase_hc_sio.wav	1	6	3	noise_calib_stim_LEFT.wav	1	8	blb_dichoticlistening_da-da.mp3	da	da	0	left
6.6.1	win	2023-06-26	18:31:17	18:45:38	858308	63d7f3f4e50de685d3d5b4fb	2	1	main_z	24	advance_on_keypress_ZEE	102	stimuli_distractor_diamondtriangles.svg	stimuli_distractor_diamondtriangles.svg	40	no	57	0	1107	6	4	antiphase_hc_sio.wav	1	6	3	noise_calib_stim_LEFT.wav	1	8	blb_dichoticlistening_da-da.mp3	da	da	0	left
6.6.1	win	2023-06-26	18:31:17	18:45:42	861906	63d7f3f4e50de685d3d5b4fb	2	1	main_z	24	main_z	103	stimuli_target_squaretriangles.svg	stimuli_distractor_trianglediamonds.svg	3	yes	44	1	1858	6	4	antiphase_hc_sio.wav	1	6	3	noise_calib_stim_LEFT.wav	1	8	blb_dichoticlistening_da-da.mp3	da	da	0	left
6.6.1	win	2023-06-26	18:31:17	18:45:42	861906	63d7f3f4e50de685d3d5b4fb	2	1	main_z	24	advance_on_keypress_ZEE	104	stimuli_target_squaretriangles.svg	stimuli_distractor_trianglediamonds.svg	3	yes	57	0	366	6	4	antiphase_hc_sio.wav	1	6	3	noise_calib_stim_LEFT.wav	1	8	blb_dichoticlistening_da-da.mp3	da	da	0	left
6.6.1	win	2023-06-26	18:31:17	18:45:43	863277	63d7f3f4e50de685d3d5b4fb	2	1	main_z	24	main_z	105	stimuli_target_rectangletriangles.svg	stimuli_distractor_trianglediamonds.svg	1	yes	44	1	363	6	4	antiphase_hc_sio.wav	1	6	3	noise_calib_stim_LEFT.wav	1	8	blb_dichoticlistening_da-da.mp3	da	da	0	left
6.6.1	win	2023-06-26	18:31:17	18:45:43	863277	63d7f3f4e50de685d3d5b4fb	2	1	main_z	24	advance_on_keypress_ZEE	106	stimuli_target_rectangletriangles.svg	stimuli_distractor_trianglediamonds.svg	1	yes	57	0	420	6	4	antiphase_hc_sio.wav	1	6	3	noise_calib_stim_LEFT.wav	1	8	blb_dichoticlistening_da-da.mp3	da	da	0	left
6.6.1	win	2023-06-26	18:31:17	18:45:45	865139	63d7f3f4e50de685d3d5b4fb	2	1	main_z	24	main_z	107	stimuli_distractor_trianglediamonds.svg	stimuli_distractor_diamondtriangles.svg	35	no	44	0	792	6	4	antiphase_hc_sio.wav	1	6	3	noise_calib_stim_LEFT.wav	1	8	blb_dichoticlistening_da-da.mp3	da	da	0	left
6.6.1	win	2023-06-26	18:31:17	18:45:45	865139	63d7f3f4e50de685d3d5b4fb	2	1	main_z	24	advance_on_keypress_ZEE	108	stimuli_distractor_trianglediamonds.svg	stimuli_distractor_diamondtriangles.svg	35	no	57	0	833	6	4	antiphase_hc_sio.wav	1	6	3	noise_calib_stim_LEFT.wav	1	8	blb_dichoticlistening_da-da.mp3	da	da	0	left
6.6.1	win	2023-06-26	18:31:17	18:45:47	867105	63d7f3f4e50de685d3d5b4fb	2	1	main_z	24	main_z	109	stimuli_target_squarediamonds.svg	stimuli_distractor_trianglediamonds.svg	4	yes	44	1	493	6	4	antiphase_hc_sio.wav	1	6	3	noise_calib_stim_LEFT.wav	1	8	blb_dichoticlistening_da-da.mp3	da	da	0	left
6.6.1	win	2023-06-26	18:31:17	18:45:47	867105	63d7f3f4e50de685d3d5b4fb	2	1	main_z	24	advance_on_keypress_ZEE	110	stimuli_target_squarediamonds.svg	stimuli_distractor_trianglediamonds.svg	4	yes	57	0	322	6	4	antiphase_hc_sio.wav	1	6	3	noise_calib_stim_LEFT.wav	1	8	blb_dichoticlistening_da-da.mp3	da	da	0	left
6.6.1	win	2023-06-26	18:31:17	18:45:49	868701	63d7f3f4e50de685d3d5b4fb	2	1	main_z	24	main_z	111	stimuli_distractor_diamondtriangles.svg	stimuli_distractor_trianglediamonds.svg	37	no	44	0	624	6	4	antiphase_hc_sio.wav	1	6	3	noise_calib_stim_LEFT.wav	1	8	blb_dichoticlistening_da-da.mp3	da	da	0	left
6.6.1	win	2023-06-26	18:31:17	18:45:49	868701	63d7f3f4e50de685d3d5b4fb	2	1	main_z	24	advance_on_keypress_ZEE	112	stimuli_distractor_diamondtriangles.svg	stimuli_distractor_trianglediamonds.svg	37	no	57	0	1578	6	4	antiphase_hc_sio.wav	1	6	3	noise_calib_stim_LEFT.wav	1	8	blb_dichoticlistening_da-da.mp3	da	da	0	left
6.6.1	win	2023-06-26	18:31:17	18:45:52	871675	63d7f3f4e50de685d3d5b4fb	2	1	main_z	24	main_z	113	stimuli_target_trianglerectangles.svg	stimuli_distractor_trianglediamonds.svg	17	yes	44	1	749	6	4	antiphase_hc_sio.wav	1	6	3	noise_calib_stim_LEFT.wav	1	8	blb_dichoticlistening_da-da.mp3	da	da	0	left
6.6.1	win	2023-06-26	18:31:17	18:45:52	871675	63d7f3f4e50de685d3d5b4fb	2	1	main_z	24	advance_on_keypress_ZEE	114	stimuli_target_trianglerectangles.svg	stimuli_distractor_trianglediamonds.svg	17	yes	57	0	332	6	4	antiphase_hc_sio.wav	1	6	3	noise_calib_stim_LEFT.wav	1	8	blb_dichoticlistening_da-da.mp3	da	da	0	left
6.6.1	win	2023-06-26	18:31:17	18:45:55	874658	63d7f3f4e50de685d3d5b4fb	2	1	main_z	24	main_z	115	stimuli_distractor_trianglediamonds.svg	stimuli_target_squarediamonds.svg	12	yes	0	0	2000	6	4	antiphase_hc_sio.wav	1	6	3	noise_calib_stim_LEFT.wav	1	8	blb_dichoticlistening_da-da.mp3	da	da	0	left
6.6.1	win	2023-06-26	18:31:17	18:45:55	874658	63d7f3f4e50de685d3d5b4fb	2	1	main_z	24	advance_on_keypress_ZEE	116	stimuli_distractor_trianglediamonds.svg	stimuli_target_squarediamonds.svg	12	yes	57	0	282	6	4	antiphase_hc_sio.wav	1	6	3	noise_calib_stim_LEFT.wav	1	8	blb_dichoticlistening_da-da.mp3	da	da	0	left
6.6.1	win	2023-06-26	18:31:17	18:45:56	876129	63d7f3f4e50de685d3d5b4fb	2	1	main_z	24	main_z	117	stimuli_distractor_diamondtriangles.svg	stimuli_target_trianglesquares.svg	30	yes	44	1	539	6	4	antiphase_hc_sio.wav	1	6	3	noise_calib_stim_LEFT.wav	1	8	blb_dichoticlistening_da-da.mp3	da	da	0	left
6.6.1	win	2023-06-26	18:31:17	18:45:56	876129	63d7f3f4e50de685d3d5b4fb	2	1	main_z	24	advance_on_keypress_ZEE	118	stimuli_distractor_diamondtriangles.svg	stimuli_target_trianglesquares.svg	30	yes	57	0	387	6	4	antiphase_hc_sio.wav	1	6	3	noise_calib_stim_LEFT.wav	1	8	blb_dichoticlistening_da-da.mp3	da	da	0	left
6.6.1	win	2023-06-26	18:31:17	18:45:58	877736	63d7f3f4e50de685d3d5b4fb	2	1	main_z	24	main_z	119	stimuli_target_trianglesquares.svg	stimuli_distractor_diamondtriangles.svg	22	yes	44	1	580	6	4	antiphase_hc_sio.wav	1	6	3	noise_calib_stim_LEFT.wav	1	8	blb_dichoticlistening_da-da.mp3	da	da	0	left
6.6.1	win	2023-06-26	18:31:17	18:45:58	877736	63d7f3f4e50de685d3d5b4fb	2	1	main_z	24	advance_on_keypress_ZEE	120	stimuli_target_trianglesquares.svg	stimuli_distractor_diamondtriangles.svg	22	yes	57	0	376	6	4	antiphase_hc_sio.wav	1	6	3	noise_calib_stim_LEFT.wav	1	8	blb_dichoticlistening_da-da.mp3	da	da	0	left
6.6.1	win	2023-06-26	18:31:17	18:45:59	879241	63d7f3f4e50de685d3d5b4fb	2	1	main_z	24	main_z	121	stimuli_target_trianglesquares.svg	stimuli_distractor_trianglediamonds.svg	18	yes	44	1	486	6	4	antiphase_hc_sio.wav	1	6	3	noise_calib_stim_LEFT.wav	1	8	blb_dichoticlistening_da-da.mp3	da	da	0	left
6.6.1	win	2023-06-26	18:31:17	18:45:59	879241	63d7f3f4e50de685d3d5b4fb	2	1	main_z	24	advance_on_keypress_ZEE	122	stimuli_target_trianglesquares.svg	stimuli_distractor_trianglediamonds.svg	18	yes	57	0	372	6	4	antiphase_hc_sio.wav	1	6	3	noise_calib_stim_LEFT.wav	1	8	blb_dichoticlistening_da-da.mp3	da	da	0	left
6.6.1	win	2023-06-26	18:31:17	18:46:01	880905	63d7f3f4e50de685d3d5b4fb	2	1	main_z	24	main_z	123	stimuli_distractor_diamondtriangles.svg	stimuli_distractor_trianglediamonds.svg	38	no	44	0	650	6	4	antiphase_hc_sio.wav	1	6	3	noise_calib_stim_LEFT.wav	1	8	blb_dichoticlistening_da-da.mp3	da	da	0	left
6.6.1	win	2023-06-26	18:31:17	18:46:01	880905	63d7f3f4e50de685d3d5b4fb	2	1	main_z	24	advance_on_keypress_ZEE	124	stimuli_distractor_diamondtriangles.svg	stimuli_distractor_trianglediamonds.svg	38	no	57	0	425	6	4	antiphase_hc_sio.wav	1	6	3	noise_calib_stim_LEFT.wav	1	8	blb_dichoticlistening_da-da.mp3	da	da	0	left
6.6.1	win	2023-06-26	18:31:17	18:46:04	883970	63d7f3f4e50de685d3d5b4fb	2	1	main_z	24	main_z	125	stimuli_distractor_trianglediamonds.svg	stimuli_distractor_trianglediamonds.svg	33	no	0	1	2000	6	4	antiphase_hc_sio.wav	1	6	3	noise_calib_stim_LEFT.wav	1	8	blb_dichoticlistening_da-da.mp3	da	da	0	left
6.6.1	win	2023-06-26	18:31:17	18:46:04	883970	63d7f3f4e50de685d3d5b4fb	2	1	main_z	24	advance_on_keypress_ZEE	126	stimuli_distractor_trianglediamonds.svg	stimuli_distractor_trianglediamonds.svg	33	no	57	0	605	6	4	antiphase_hc_sio.wav	1	6	3	noise_calib_stim_LEFT.wav	1	8	blb_dichoticlistening_da-da.mp3	da	da	0	left
6.6.1	win	2023-06-26	18:31:17	18:46:06	885657	63d7f3f4e50de685d3d5b4fb	2	1	main_z	24	main_z	127	stimuli_target_rectanglediamonds.svg	stimuli_distractor_trianglediamonds.svg	2	yes	44	1	438	6	4	antiphase_hc_sio.wav	1	6	3	noise_calib_stim_LEFT.wav	1	8	blb_dichoticlistening_da-da.mp3	da	da	0	left
6.6.1	win	2023-06-26	18:31:17	18:46:06	885657	63d7f3f4e50de685d3d5b4fb	2	1	main_z	24	advance_on_keypress_ZEE	128	stimuli_target_rectanglediamonds.svg	stimuli_distractor_trianglediamonds.svg	2	yes	57	0	284	6	4	antiphase_hc_sio.wav	1	6	3	noise_calib_stim_LEFT.wav	1	8	blb_dichoticlistening_da-da.mp3	da	da	0	left
6.6.1	win	2023-06-26	18:31:17	18:46:09	888585	63d7f3f4e50de685d3d5b4fb	2	1	main_z	24	main_z	129	stimuli_distractor_diamondtriangles.svg	stimuli_target_squaretriangles.svg	15	yes	0	0	2000	6	4	antiphase_hc_sio.wav	1	6	3	noise_calib_stim_LEFT.wav	1	8	blb_dichoticlistening_da-da.mp3	da	da	0	left
6.6.1	win	2023-06-26	18:31:17	18:46:09	888585	63d7f3f4e50de685d3d5b4fb	2	1	main_z	24	advance_on_keypress_ZEE	130	stimuli_distractor_diamondtriangles.svg	stimuli_target_squaretriangles.svg	15	yes	57	0	901	6	4	antiphase_hc_sio.wav	1	6	3	noise_calib_stim_LEFT.wav	1	8	blb_dichoticlistening_da-da.mp3	da	da	0	left
6.6.1	win	2023-06-26	18:31:17	18:46:11	890664	63d7f3f4e50de685d3d5b4fb	2	1	main_z	24	main_z	131	stimuli_target_diamondsquares.svg	stimuli_distractor_diamondtriangles.svg	24	yes	44	1	531	6	4	antiphase_hc_sio.wav	1	6	3	noise_calib_stim_LEFT.wav	1	8	blb_dichoticlistening_da-da.mp3	da	da	0	left
6.6.1	win	2023-06-26	18:31:17	18:46:11	890664	63d7f3f4e50de685d3d5b4fb	2	1	main_z	24	advance_on_keypress_ZEE	132	stimuli_target_diamondsquares.svg	stimuli_distractor_diamondtriangles.svg	24	yes	57	0	361	6	4	antiphase_hc_sio.wav	1	6	3	noise_calib_stim_LEFT.wav	1	8	blb_dichoticlistening_da-da.mp3	da	da	0	left
6.6.1	win	2023-06-26	18:31:17	18:46:12	892197	63d7f3f4e50de685d3d5b4fb	2	1	main_z	24	main_z	133	stimuli_distractor_diamondtriangles.svg	stimuli_target_rectanglediamonds.svg	14	yes	44	1	504	6	4	antiphase_hc_sio.wav	1	6	3	noise_calib_stim_LEFT.wav	1	8	blb_dichoticlistening_da-da.mp3	da	da	0	left
6.6.1	win	2023-06-26	18:31:17	18:46:12	892197	63d7f3f4e50de685d3d5b4fb	2	1	main_z	24	advance_on_keypress_ZEE	134	stimuli_distractor_diamondtriangles.svg	stimuli_target_rectanglediamonds.svg	14	yes	57	0	315	6	4	antiphase_hc_sio.wav	1	6	3	noise_calib_stim_LEFT.wav	1	8	blb_dichoticlistening_da-da.mp3	da	da	0	left
6.6.1	win	2023-06-26	18:31:17	18:46:15	895164	63d7f3f4e50de685d3d5b4fb	2	1	main_z	24	main_z	135	stimuli_distractor_trianglediamonds.svg	stimuli_distractor_diamondtriangles.svg	36	no	0	1	2000	6	4	antiphase_hc_sio.wav	1	6	3	noise_calib_stim_LEFT.wav	1	8	blb_dichoticlistening_da-da.mp3	da	da	0	left
6.6.1	win	2023-06-26	18:31:17	18:46:15	895164	63d7f3f4e50de685d3d5b4fb	2	1	main_z	24	advance_on_keypress_ZEE	136	stimuli_distractor_trianglediamonds.svg	stimuli_distractor_diamondtriangles.svg	36	no	57	0	454	6	4	antiphase_hc_sio.wav	1	6	3	noise_calib_stim_LEFT.wav	1	8	blb_dichoticlistening_da-da.mp3	da	da	0	left
6.6.1	win	2023-06-26	18:31:17	18:46:17	896668	63d7f3f4e50de685d3d5b4fb	2	1	main_z	24	main_z	137	stimuli_target_rectangletriangles.svg	stimuli_distractor_diamondtriangles.svg	5	yes	44	1	405	6	4	antiphase_hc_sio.wav	1	6	3	noise_calib_stim_LEFT.wav	1	8	blb_dichoticlistening_da-da.mp3	da	da	0	left
6.6.1	win	2023-06-26	18:31:17	18:46:17	896668	63d7f3f4e50de685d3d5b4fb	2	1	main_z	24	advance_on_keypress_ZEE	138	stimuli_target_rectangletriangles.svg	stimuli_distractor_diamondtriangles.svg	5	yes	57	0	534	6	4	antiphase_hc_sio.wav	1	6	3	noise_calib_stim_LEFT.wav	1	8	blb_dichoticlistening_da-da.mp3	da	da	0	left
6.6.1	win	2023-06-26	18:31:17	18:46:18	898491	63d7f3f4e50de685d3d5b4fb	2	1	main_z	24	main_z	139	stimuli_distractor_trianglediamonds.svg	stimuli_target_rectangletriangles.svg	9	yes	44	1	646	6	4	antiphase_hc_sio.wav	1	6	3	noise_calib_stim_LEFT.wav	1	8	blb_dichoticlistening_da-da.mp3	da	da	0	left
6.6.1	win	2023-06-26	18:31:17	18:46:18	898491	63d7f3f4e50de685d3d5b4fb	2	1	main_z	24	advance_on_keypress_ZEE	140	stimuli_distractor_trianglediamonds.svg	stimuli_target_rectangletriangles.svg	9	yes	57	0	428	6	4	antiphase_hc_sio.wav	1	6	3	noise_calib_stim_LEFT.wav	1	8	blb_dichoticlistening_da-da.mp3	da	da	0	left
6.6.1	win	2023-06-26	18:31:17	18:46:20	900004	63d7f3f4e50de685d3d5b4fb	2	1	main_z	24	main_z	141	stimuli_distractor_trianglediamonds.svg	stimuli_target_diamondrectangles.svg	27	yes	44	1	426	6	4	antiphase_hc_sio.wav	1	6	3	noise_calib_stim_LEFT.wav	1	8	blb_dichoticlistening_da-da.mp3	da	da	0	left
6.6.1	win	2023-06-26	18:31:17	18:46:20	900004	63d7f3f4e50de685d3d5b4fb	2	1	main_z	24	advance_on_keypress_ZEE	142	stimuli_distractor_trianglediamonds.svg	stimuli_target_diamondrectangles.svg	27	yes	57	0	396	6	4	antiphase_hc_sio.wav	1	6	3	noise_calib_stim_LEFT.wav	1	8	blb_dichoticlistening_da-da.mp3	da	da	0	left
6.6.1	win	2023-06-26	18:31:17	18:46:21	901287	63d7f3f4e50de685d3d5b4fb	2	1	main_z	24	main_z	143	stimuli_distractor_diamondtriangles.svg	stimuli_target_rectangletriangles.svg	13	yes	44	1	243	6	4	antiphase_hc_sio.wav	1	6	3	noise_calib_stim_LEFT.wav	1	8	blb_dichoticlistening_da-da.mp3	da	da	0	left
6.6.1	win	2023-06-26	18:31:17	18:46:21	901287	63d7f3f4e50de685d3d5b4fb	2	1	main_z	24	advance_on_keypress_ZEE	144	stimuli_distractor_diamondtriangles.svg	stimuli_target_rectangletriangles.svg	13	yes	57	0	731	6	4	antiphase_hc_sio.wav	1	6	3	noise_calib_stim_LEFT.wav	1	8	blb_dichoticlistening_da-da.mp3	da	da	0	left
6.6.1	win	2023-06-26	18:31:17	18:46:23	903116	63d7f3f4e50de685d3d5b4fb	2	1	main_z	24	main_z	145	stimuli_distractor_trianglediamonds.svg	stimuli_target_diamondsquares.svg	28	yes	44	1	457	6	4	antiphase_hc_sio.wav	1	6	3	noise_calib_stim_LEFT.wav	1	8	blb_dichoticlistening_da-da.mp3	da	da	0	left
6.6.1	win	2023-06-26	18:31:17	18:46:23	903116	63d7f3f4e50de685d3d5b4fb	2	1	main_z	24	advance_on_keypress_ZEE	146	stimuli_distractor_trianglediamonds.svg	stimuli_target_diamondsquares.svg	28	yes	57	0	881	6	4	antiphase_hc_sio.wav	1	6	3	noise_calib_stim_LEFT.wav	1	8	blb_dichoticlistening_da-da.mp3	da	da	0	left
6.6.1	win	2023-06-26	18:31:17	18:46:25	905316	63d7f3f4e50de685d3d5b4fb	2	1	main_z	24	main_z	147	stimuli_distractor_diamondtriangles.svg	stimuli_target_trianglerectangles.svg	29	yes	44	1	674	6	4	antiphase_hc_sio.wav	1	6	3	noise_calib_stim_LEFT.wav	1	8	blb_dichoticlistening_da-da.mp3	da	da	0	left
6.6.1	win	2023-06-26	18:31:17	18:46:25	905316	63d7f3f4e50de685d3d5b4fb	2	1	main_z	24	advance_on_keypress_ZEE	148	stimuli_distractor_diamondtriangles.svg	stimuli_target_trianglerectangles.svg	29	yes	57	0	290	6	4	antiphase_hc_sio.wav	1	6	3	noise_calib_stim_LEFT.wav	1	8	blb_dichoticlistening_da-da.mp3	da	da	0	left
6.6.1	win	2023-06-26	18:31:17	18:46:27	907098	63d7f3f4e50de685d3d5b4fb	2	1	main_z	24	main_z	149	stimuli_target_squarediamonds.svg	stimuli_distractor_diamondtriangles.svg	8	yes	44	1	857	6	4	antiphase_hc_sio.wav	1	6	3	noise_calib_stim_LEFT.wav	1	8	blb_dichoticlistening_da-da.mp3	da	da	0	left
6.6.1	win	2023-06-26	18:31:17	18:46:27	907098	63d7f3f4e50de685d3d5b4fb	2	1	main_z	24	advance_on_keypress_ZEE	150	stimuli_target_squarediamonds.svg	stimuli_distractor_diamondtriangles.svg	8	yes	57	0	213	6	4	antiphase_hc_sio.wav	1	6	3	noise_calib_stim_LEFT.wav	1	8	blb_dichoticlistening_da-da.mp3	da	da	0	left
6.6.1	win	2023-06-26	18:31:17	18:46:30	909957	63d7f3f4e50de685d3d5b4fb	2	1	main_z	24	main_z	151	stimuli_distractor_trianglediamonds.svg	stimuli_distractor_trianglediamonds.svg	34	no	0	1	2000	6	4	antiphase_hc_sio.wav	1	6	3	noise_calib_stim_LEFT.wav	1	8	blb_dichoticlistening_da-da.mp3	da	da	0	left
6.6.1	win	2023-06-26	18:31:17	18:46:30	909957	63d7f3f4e50de685d3d5b4fb	2	1	main_z	24	advance_on_keypress_ZEE	152	stimuli_distractor_trianglediamonds.svg	stimuli_distractor_trianglediamonds.svg	34	no	57	0	829	6	4	antiphase_hc_sio.wav	1	6	3	noise_calib_stim_LEFT.wav	1	8	blb_dichoticlistening_da-da.mp3	da	da	0	left
6.6.1	win	2023-06-26	18:31:17	18:46:33	913438	63d7f3f4e50de685d3d5b4fb	2	1	main_z	24	main_z	153	stimuli_distractor_diamondtriangles.svg	stimuli_distractor_diamondtriangles.svg	39	no	0	1	2000	6	4	antiphase_hc_sio.wav	1	6	3	noise_calib_stim_LEFT.wav	1	8	blb_dichoticlistening_da-da.mp3	da	da	0	left
6.6.1	win	2023-06-26	18:31:17	18:46:33	913438	63d7f3f4e50de685d3d5b4fb	2	1	main_z	24	advance_on_keypress_ZEE	154	stimuli_distractor_diamondtriangles.svg	stimuli_distractor_diamondtriangles.svg	39	no	57	0	556	6	4	antiphase_hc_sio.wav	1	6	3	noise_calib_stim_LEFT.wav	1	8	blb_dichoticlistening_da-da.mp3	da	da	0	left
6.6.1	win	2023-06-26	18:31:17	18:46:35	915324	63d7f3f4e50de685d3d5b4fb	2	1	main_z	24	main_z	155	stimuli_distractor_diamondtriangles.svg	stimuli_target_diamondrectangles.svg	31	yes	44	1	687	6	4	antiphase_hc_sio.wav	1	6	3	noise_calib_stim_LEFT.wav	1	8	blb_dichoticlistening_da-da.mp3	da	da	0	left
6.6.1	win	2023-06-26	18:31:17	18:46:35	915324	63d7f3f4e50de685d3d5b4fb	2	1	main_z	24	advance_on_keypress_ZEE	156	stimuli_distractor_diamondtriangles.svg	stimuli_target_diamondrectangles.svg	31	yes	57	0	239	6	4	antiphase_hc_sio.wav	1	6	3	noise_calib_stim_LEFT.wav	1	8	blb_dichoticlistening_da-da.mp3	da	da	0	left
6.6.1	win	2023-06-26	18:31:17	18:46:37	916702	63d7f3f4e50de685d3d5b4fb	2	1	main_z	24	main_z	157	stimuli_target_diamondrectangles.svg	stimuli_distractor_diamondtriangles.svg	23	yes	44	1	500	6	4	antiphase_hc_sio.wav	1	6	3	noise_calib_stim_LEFT.wav	1	8	blb_dichoticlistening_da-da.mp3	da	da	0	left
6.6.1	win	2023-06-26	18:31:17	18:46:37	916702	63d7f3f4e50de685d3d5b4fb	2	1	main_z	24	advance_on_keypress_ZEE	158	stimuli_target_diamondrectangles.svg	stimuli_distractor_diamondtriangles.svg	23	yes	57	0	411	6	4	antiphase_hc_sio.wav	1	6	3	noise_calib_stim_LEFT.wav	1	8	blb_dichoticlistening_da-da.mp3	da	da	0	left
6.6.1	win	2023-06-26	18:31:17	18:46:39	918644	63d7f3f4e50de685d3d5b4fb	2	1	main_z	24	main_z	159	stimuli_target_trianglerectangles.svg	stimuli_distractor_diamondtriangles.svg	21	yes	44	1	876	6	4	antiphase_hc_sio.wav	1	6	3	noise_calib_stim_LEFT.wav	1	8	blb_dichoticlistening_da-da.mp3	da	da	0	left
6.6.1	win	2023-06-26	18:31:17	18:46:39	918644	63d7f3f4e50de685d3d5b4fb	2	1	main_z	24	advance_on_keypress_ZEE	160	stimuli_target_trianglerectangles.svg	stimuli_distractor_diamondtriangles.svg	21	yes	57	0	403	6	4	antiphase_hc_sio.wav	1	6	3	noise_calib_stim_LEFT.wav	1	8	blb_dichoticlistening_da-da.mp3	da	da	0	left
6.6.1	win	2023-06-26	18:31:17	18:47:14	953854	63d7f3f4e50de685d3d5b4fb	2	1	practice_slash	26	practice_slash	1	stimuli_distractor_trianglediamonds.svg	stimuli_target_diamondrectangles.svg	12	yes	53	1	484	6	4	antiphase_hc_sio.wav	1	6	3	noise_calib_stim_LEFT.wav	1	8	blb_dichoticlistening_da-da.mp3	da	da	0	left
6.6.1	win	2023-06-26	18:31:17	18:47:14	953854	63d7f3f4e50de685d3d5b4fb	2	1	practice_slash	26	advance_on_keypress_SLASH	2	stimuli_distractor_trianglediamonds.svg	stimuli_target_diamondrectangles.svg	12	yes	57	0	676	6	4	antiphase_hc_sio.wav	1	6	3	noise_calib_stim_LEFT.wav	1	8	blb_dichoticlistening_da-da.mp3	da	da	0	left
6.6.1	win	2023-06-26	18:31:17	18:47:18	958187	63d7f3f4e50de685d3d5b4fb	2	1	practice_slash	26	practice_slash	3	stimuli_distractor_diamondtriangles.svg	stimuli_distractor_trianglediamonds.svg	14	no	0	1	2000	6	4	antiphase_hc_sio.wav	1	6	3	noise_calib_stim_LEFT.wav	1	8	blb_dichoticlistening_da-da.mp3	da	da	0	left
6.6.1	win	2023-06-26	18:31:17	18:47:18	958187	63d7f3f4e50de685d3d5b4fb	2	1	practice_slash	26	advance_on_keypress_SLASH	4	stimuli_distractor_diamondtriangles.svg	stimuli_distractor_trianglediamonds.svg	14	no	57	0	586	6	4	antiphase_hc_sio.wav	1	6	3	noise_calib_stim_LEFT.wav	1	8	blb_dichoticlistening_da-da.mp3	da	da	0	left
6.6.1	win	2023-06-26	18:31:17	18:47:22	962418	63d7f3f4e50de685d3d5b4fb	2	1	practice_slash	26	practice_slash	5	stimuli_distractor_trianglediamonds.svg	stimuli_distractor_diamondtriangles.svg	16	no	0	1	2000	6	4	antiphase_hc_sio.wav	1	6	3	noise_calib_stim_LEFT.wav	1	8	blb_dichoticlistening_da-da.mp3	da	da	0	left
6.6.1	win	2023-06-26	18:31:17	18:47:22	962418	63d7f3f4e50de685d3d5b4fb	2	1	practice_slash	26	advance_on_keypress_SLASH	6	stimuli_distractor_trianglediamonds.svg	stimuli_distractor_diamondtriangles.svg	16	no	57	0	983	6	4	antiphase_hc_sio.wav	1	6	3	noise_calib_stim_LEFT.wav	1	8	blb_dichoticlistening_da-da.mp3	da	da	0	left
6.6.1	win	2023-06-26	18:31:17	18:47:25	965363	63d7f3f4e50de685d3d5b4fb	2	1	practice_slash	26	practice_slash	7	stimuli_target_rectanglediamonds.svg	stimuli_distractor_trianglediamonds.svg	4	yes	53	1	315	6	4	antiphase_hc_sio.wav	1	6	3	noise_calib_stim_LEFT.wav	1	8	blb_dichoticlistening_da-da.mp3	da	da	0	left
6.6.1	win	2023-06-26	18:31:17	18:47:25	965363	63d7f3f4e50de685d3d5b4fb	2	1	practice_slash	26	advance_on_keypress_SLASH	8	stimuli_target_rectanglediamonds.svg	stimuli_distractor_trianglediamonds.svg	4	yes	57	0	1194	6	4	antiphase_hc_sio.wav	1	6	3	noise_calib_stim_LEFT.wav	1	8	blb_dichoticlistening_da-da.mp3	da	da	0	left
6.6.1	win	2023-06-26	18:31:17	18:47:29	968676	63d7f3f4e50de685d3d5b4fb	2	1	practice_slash	26	practice_slash	9	stimuli_distractor_diamondtriangles.svg	stimuli_target_trianglerectangles.svg	9	yes	53	1	462	6	4	antiphase_hc_sio.wav	1	6	3	noise_calib_stim_LEFT.wav	1	8	blb_dichoticlistening_da-da.mp3	da	da	0	left
6.6.1	win	2023-06-26	18:31:17	18:47:29	968676	63d7f3f4e50de685d3d5b4fb	2	1	practice_slash	26	advance_on_keypress_SLASH	10	stimuli_distractor_diamondtriangles.svg	stimuli_target_trianglerectangles.svg	9	yes	57	0	435	6	4	antiphase_hc_sio.wav	1	6	3	noise_calib_stim_LEFT.wav	1	8	blb_dichoticlistening_da-da.mp3	da	da	0	left
6.6.1	win	2023-06-26	18:31:17	18:47:31	971243	63d7f3f4e50de685d3d5b4fb	2	1	practice_slash	26	practice_slash	11	stimuli_target_diamondsquares.svg	stimuli_distractor_diamondtriangles.svg	3	yes	53	1	481	6	4	antiphase_hc_sio.wav	1	6	3	noise_calib_stim_LEFT.wav	1	8	blb_dichoticlistening_da-da.mp3	da	da	0	left
6.6.1	win	2023-06-26	18:31:17	18:47:31	971243	63d7f3f4e50de685d3d5b4fb	2	1	practice_slash	26	advance_on_keypress_SLASH	12	stimuli_target_diamondsquares.svg	stimuli_distractor_diamondtriangles.svg	3	yes	57	0	811	6	4	antiphase_hc_sio.wav	1	6	3	noise_calib_stim_LEFT.wav	1	8	blb_dichoticlistening_da-da.mp3	da	da	0	left
6.6.1	win	2023-06-26	18:31:17	18:47:34	973984	63d7f3f4e50de685d3d5b4fb	2	1	practice_slash	26	practice_slash	13	stimuli_target_rectanglediamonds.svg	stimuli_distractor_diamondtriangles.svg	1	yes	53	1	273	6	4	antiphase_hc_sio.wav	1	6	3	noise_calib_stim_LEFT.wav	1	8	blb_dichoticlistening_da-da.mp3	da	da	0	left
6.6.1	win	2023-06-26	18:31:17	18:47:34	973984	63d7f3f4e50de685d3d5b4fb	2	1	practice_slash	26	advance_on_keypress_SLASH	14	stimuli_target_rectanglediamonds.svg	stimuli_distractor_diamondtriangles.svg	1	yes	57	0	640	6	4	antiphase_hc_sio.wav	1	6	3	noise_calib_stim_LEFT.wav	1	8	blb_dichoticlistening_da-da.mp3	da	da	0	left
6.6.1	win	2023-06-26	18:31:17	18:47:37	976562	63d7f3f4e50de685d3d5b4fb	2	1	practice_slash	26	practice_slash	15	stimuli_target_squarediamonds.svg	stimuli_distractor_diamondtriangles.svg	2	yes	53	1	302	6	4	antiphase_hc_sio.wav	1	6	3	noise_calib_stim_LEFT.wav	1	8	blb_dichoticlistening_da-da.mp3	da	da	0	left
6.6.1	win	2023-06-26	18:31:17	18:47:37	976562	63d7f3f4e50de685d3d5b4fb	2	1	practice_slash	26	advance_on_keypress_SLASH	16	stimuli_target_squarediamonds.svg	stimuli_distractor_diamondtriangles.svg	2	yes	57	0	342	6	4	antiphase_hc_sio.wav	1	6	3	noise_calib_stim_LEFT.wav	1	8	blb_dichoticlistening_da-da.mp3	da	da	0	left
6.6.1	win	2023-06-26	18:31:17	18:47:39	978998	63d7f3f4e50de685d3d5b4fb	2	1	practice_slash	26	practice_slash	17	stimuli_target_diamondsquares.svg	stimuli_distractor_trianglediamonds.svg	6	yes	53	1	441	6	4	antiphase_hc_sio.wav	1	6	3	noise_calib_stim_LEFT.wav	1	8	blb_dichoticlistening_da-da.mp3	da	da	0	left
6.6.1	win	2023-06-26	18:31:17	18:47:39	978998	63d7f3f4e50de685d3d5b4fb	2	1	practice_slash	26	advance_on_keypress_SLASH	18	stimuli_target_diamondsquares.svg	stimuli_distractor_trianglediamonds.svg	6	yes	57	0	416	6	4	antiphase_hc_sio.wav	1	6	3	noise_calib_stim_LEFT.wav	1	8	blb_dichoticlistening_da-da.mp3	da	da	0	left
6.6.1	win	2023-06-26	18:31:17	18:47:41	981356	63d7f3f4e50de685d3d5b4fb	2	1	practice_slash	26	practice_slash	19	stimuli_target_squarediamonds.svg	stimuli_distractor_trianglediamonds.svg	5	yes	53	1	299	6	4	antiphase_hc_sio.wav	1	6	3	noise_calib_stim_LEFT.wav	1	8	blb_dichoticlistening_da-da.mp3	da	da	0	left
6.6.1	win	2023-06-26	18:31:17	18:47:41	981356	63d7f3f4e50de685d3d5b4fb	2	1	practice_slash	26	advance_on_keypress_SLASH	20	stimuli_target_squarediamonds.svg	stimuli_distractor_trianglediamonds.svg	5	yes	57	0	319	6	4	antiphase_hc_sio.wav	1	6	3	noise_calib_stim_LEFT.wav	1	8	blb_dichoticlistening_da-da.mp3	da	da	0	left
