build	computer.platform	date	time	timestamp	time_elapsed_ms	subject	group	session	blockcode	blocknum	trialcode	trialnum	stimulus_left	stimulus_right	stim_index	target_present	response	correct	latency	headphonecheck_countTestTrials	headphonecheck_index	headphonecheck_testSound	headphonecheck_correctResponse	stereocheck_countTestTrials	stereocheck_index	stereocheck_testSound	stereocheck_correctResponse	DL_index	DL_soundfile	DL_leftSound	DL_rightSound	DL_dualSound	DL_choice
6.6.1	win	2023-06-12	20:32:08	0	0	63d40f21ea1c311723c7c847	2	1	headphonecheck_calibration	4	headphonecheck_calibrationIntro	1			0		calibrationButton	0	2882	0	0			0	0			1				0	
6.6.1	win	2023-06-12	20:32:08	0	0	63d40f21ea1c311723c7c847	2	1	headphonecheck_testphase	5	test_collectResponse	3			0		third	1	282	1	6	antiphase_hc_ois.wav	3	0	0			1				0	
6.6.1	win	2023-06-12	20:32:08	0	0	63d40f21ea1c311723c7c847	2	1	headphonecheck_testphase	5	test_collectResponse	6			0		second	1	4267	2	5	antiphase_hc_osi.wav	2	0	0			1				0	
6.6.1	win	2023-06-12	20:32:08	0	0	63d40f21ea1c311723c7c847	2	1	headphonecheck_testphase	5	test_collectResponse	9			0		third	1	642	3	2	antiphase_hc_ios.wav	3	0	0			1				0	
6.6.1	win	2023-06-12	20:32:08	0	0	63d40f21ea1c311723c7c847	2	1	headphonecheck_testphase	5	test_collectResponse	12			0		first	1	206	4	3	antiphase_hc_soi.wav	1	0	0			1				0	
6.6.1	win	2023-06-12	20:32:08	0	0	63d40f21ea1c311723c7c847	2	1	headphonecheck_testphase	5	test_collectResponse	15			0		second	1	165	5	1	antiphase_hc_iso.wav	2	0	0			1				0	
6.6.1	win	2023-06-12	20:32:08	0	0	63d40f21ea1c311723c7c847	2	1	headphonecheck_testphase	5	test_collectResponse	18			0		first	1	324	6	4	antiphase_hc_sio.wav	1	0	0			1				0	
6.6.1	win	2023-06-12	20:32:08	0	0	63d40f21ea1c311723c7c847	2	1	stereocheck_calibration	7	stereocheck_calibrationIntro	1			0		stereocheck_calibrationButton	0	3909	6	4	antiphase_hc_sio.wav	1	0	0			1				0	
6.6.1	win	2023-06-12	20:32:08	0	0	63d40f21ea1c311723c7c847	2	1	stereocheck_testphase	8	stereocheck_test_collectResponse	3			0		stereocheck_left	1	318	6	4	antiphase_hc_sio.wav	1	1	2	noise_calib_stim_LEFT.wav	1	1				0	
6.6.1	win	2023-06-12	20:32:08	0	0	63d40f21ea1c311723c7c847	2	1	stereocheck_testphase	8	stereocheck_test_collectResponse	6			0		stereocheck_left	1	277	6	4	antiphase_hc_sio.wav	1	2	3	noise_calib_stim_LEFT.wav	1	1				0	
6.6.1	win	2023-06-12	20:32:08	0	0	63d40f21ea1c311723c7c847	2	1	stereocheck_testphase	8	stereocheck_test_collectResponse	9			0		stereocheck_left	1	267	6	4	antiphase_hc_sio.wav	1	3	1	noise_calib_stim_LEFT.wav	1	1				0	
6.6.1	win	2023-06-12	20:32:08	0	0	63d40f21ea1c311723c7c847	2	1	stereocheck_testphase	8	stereocheck_test_collectResponse	12			0		stereocheck_right	1	248	6	4	antiphase_hc_sio.wav	1	4	5	noise_calib_stim_RIGHT.wav	2	1				0	
6.6.1	win	2023-06-12	20:32:08	0	0	63d40f21ea1c311723c7c847	2	1	stereocheck_testphase	8	stereocheck_test_collectResponse	15			0		stereocheck_right	1	276	6	4	antiphase_hc_sio.wav	1	5	6	noise_calib_stim_RIGHT.wav	2	1				0	
6.6.1	win	2023-06-12	20:32:08	0	0	63d40f21ea1c311723c7c847	2	1	stereocheck_testphase	8	stereocheck_test_collectResponse	18			0		stereocheck_right	1	253	6	4	antiphase_hc_sio.wav	1	6	4	noise_calib_stim_RIGHT.wav	2	1				0	
6.6.1	win	2023-06-12	20:32:08	0	0	63d40f21ea1c311723c7c847	2	1	DL_practice	11	DL_practice	2			0		ka	1	1339	6	4	antiphase_hc_sio.wav	1	6	4	noise_calib_stim_RIGHT.wav	2	22	blb_dichoticlistening_ka-ka.mp3	ka	ka	0	left
6.6.1	win	2023-06-12	20:32:08	0	0	63d40f21ea1c311723c7c847	2	1	DL_practice	11	DL_practice	3			0		ga	1	1394	6	4	antiphase_hc_sio.wav	1	6	4	noise_calib_stim_RIGHT.wav	2	18	blb_dichoticlistening_ga-ta.mp3	ga	ta	1	left
6.6.1	win	2023-06-12	20:32:08	0	0	63d40f21ea1c311723c7c847	2	1	DL_practice	11	DL_practice	4			0		da	1	896	6	4	antiphase_hc_sio.wav	1	6	4	noise_calib_stim_RIGHT.wav	2	7	blb_dichoticlistening_da-ba.mp3	da	ba	1	left
6.6.1	win	2023-06-12	20:32:08	0	0	63d40f21ea1c311723c7c847	2	1	DL_practice	11	DL_practice	5			0		ka	1	922	6	4	antiphase_hc_sio.wav	1	6	4	noise_calib_stim_RIGHT.wav	2	23	blb_dichoticlistening_ka-pa.mp3	ka	pa	1	left
6.6.1	win	2023-06-12	20:32:08	0	0	63d40f21ea1c311723c7c847	2	1	DL_practice	11	DL_practice	6			0		ta	1	1019	6	4	antiphase_hc_sio.wav	1	6	4	noise_calib_stim_RIGHT.wav	2	36	blb_dichoticlistening_ta-ta.mp3	ta	ta	0	left
6.6.1	win	2023-06-12	20:32:08	0	0	63d40f21ea1c311723c7c847	2	1	DL_practice	11	DL_practice	7			0		da	1	928	6	4	antiphase_hc_sio.wav	1	6	4	noise_calib_stim_RIGHT.wav	2	8	blb_dichoticlistening_da-da.mp3	da	da	0	left
6.6.1	win	2023-06-12	20:32:08	0	0	63d40f21ea1c311723c7c847	2	1	DL_practice	11	DL_practice	8			0		ga	1	712	6	4	antiphase_hc_sio.wav	1	6	4	noise_calib_stim_RIGHT.wav	2	15	blb_dichoticlistening_ga-ga.mp3	ga	ga	0	left
6.6.1	win	2023-06-12	20:32:08	0	0	63d40f21ea1c311723c7c847	2	1	DL_practice	11	DL_practice	9			0		ba	1	1050	6	4	antiphase_hc_sio.wav	1	6	4	noise_calib_stim_RIGHT.wav	2	1	blb_dichoticlistening_ba-ba.mp3	ba	ba	0	left
6.6.1	win	2023-06-12	20:32:08	0	0	63d40f21ea1c311723c7c847	2	1	DL_practice	11	DL_practice	10			0		pa	1	951	6	4	antiphase_hc_sio.wav	1	6	4	noise_calib_stim_RIGHT.wav	2	29	blb_dichoticlistening_pa-pa.mp3	pa	pa	0	left
6.6.1	win	2023-06-12	20:32:08	0	0	63d40f21ea1c311723c7c847	2	1	DL_test	13	DL_test	1			0		pa	1	2193	6	4	antiphase_hc_sio.wav	1	6	4	noise_calib_stim_RIGHT.wav	2	27	blb_dichoticlistening_pa-ga.mp3	pa	ga	1	left
6.6.1	win	2023-06-12	20:32:08	0	0	63d40f21ea1c311723c7c847	2	1	DL_test	13	DL_test	2			0		ga	1	998	6	4	antiphase_hc_sio.wav	1	6	4	noise_calib_stim_RIGHT.wav	2	15	blb_dichoticlistening_ga-ga.mp3	ga	ga	0	left
6.6.1	win	2023-06-12	20:32:08	0	0	63d40f21ea1c311723c7c847	2	1	DL_test	13	DL_test	3			0		ga	0	1396	6	4	antiphase_hc_sio.wav	1	6	4	noise_calib_stim_RIGHT.wav	2	11	blb_dichoticlistening_da-pa.mp3	da	pa	1	other
6.6.1	win	2023-06-12	20:32:08	0	0	63d40f21ea1c311723c7c847	2	1	DL_test	13	DL_test	4			0		da	1	1137	6	4	antiphase_hc_sio.wav	1	6	4	noise_calib_stim_RIGHT.wav	2	12	blb_dichoticlistening_da-ta.mp3	da	ta	1	left
6.6.1	win	2023-06-12	20:32:08	0	0	63d40f21ea1c311723c7c847	2	1	DL_test	13	DL_test	5			0		ka	1	977	6	4	antiphase_hc_sio.wav	1	6	4	noise_calib_stim_RIGHT.wav	2	23	blb_dichoticlistening_ka-pa.mp3	ka	pa	1	left
6.6.1	win	2023-06-12	20:32:08	0	0	63d40f21ea1c311723c7c847	2	1	DL_test	13	DL_test	6			0		ka	0	1352	6	4	antiphase_hc_sio.wav	1	6	4	noise_calib_stim_RIGHT.wav	2	31	blb_dichoticlistening_ta-ba.mp3	ta	ba	1	other
6.6.1	win	2023-06-12	20:32:08	0	0	63d40f21ea1c311723c7c847	2	1	DL_test	13	DL_test	7			0		da	1	975	6	4	antiphase_hc_sio.wav	1	6	4	noise_calib_stim_RIGHT.wav	2	7	blb_dichoticlistening_da-ba.mp3	da	ba	1	left
6.6.1	win	2023-06-12	20:32:08	0	0	63d40f21ea1c311723c7c847	2	1	DL_test	13	DL_test	8			0		ta	1	933	6	4	antiphase_hc_sio.wav	1	6	4	noise_calib_stim_RIGHT.wav	2	30	blb_dichoticlistening_pa-ta.mp3	pa	ta	1	right
6.6.1	win	2023-06-12	20:32:08	0	0	63d40f21ea1c311723c7c847	2	1	DL_test	13	DL_test	9			0		da	1	1013	6	4	antiphase_hc_sio.wav	1	6	4	noise_calib_stim_RIGHT.wav	2	8	blb_dichoticlistening_da-da.mp3	da	da	0	left
6.6.1	win	2023-06-12	20:32:08	0	0	63d40f21ea1c311723c7c847	2	1	DL_test	13	DL_test	10			0		ta	1	1074	6	4	antiphase_hc_sio.wav	1	6	4	noise_calib_stim_RIGHT.wav	2	6	blb_dichoticlistening_ba-ta.mp3	ba	ta	1	right
6.6.1	win	2023-06-12	20:32:08	0	0	63d40f21ea1c311723c7c847	2	1	DL_test	13	DL_test	11			0		ka	1	837	6	4	antiphase_hc_sio.wav	1	6	4	noise_calib_stim_RIGHT.wav	2	22	blb_dichoticlistening_ka-ka.mp3	ka	ka	0	left
6.6.1	win	2023-06-12	20:32:08	0	0	63d40f21ea1c311723c7c847	2	1	DL_test	13	DL_test	12			0		ga	1	1521	6	4	antiphase_hc_sio.wav	1	6	4	noise_calib_stim_RIGHT.wav	2	21	blb_dichoticlistening_ka-ga.mp3	ka	ga	1	right
6.6.1	win	2023-06-12	20:32:08	0	0	63d40f21ea1c311723c7c847	2	1	DL_test	13	DL_test	13			0		pa	1	1814	6	4	antiphase_hc_sio.wav	1	6	4	noise_calib_stim_RIGHT.wav	2	26	blb_dichoticlistening_pa-da.mp3	pa	da	1	left
6.6.1	win	2023-06-12	20:32:08	0	0	63d40f21ea1c311723c7c847	2	1	DL_test	13	DL_test	14			0		ka	1	1682	6	4	antiphase_hc_sio.wav	1	6	4	noise_calib_stim_RIGHT.wav	2	20	blb_dichoticlistening_ka-da.mp3	ka	da	1	left
6.6.1	win	2023-06-12	20:32:08	0	0	63d40f21ea1c311723c7c847	2	1	DL_test	13	DL_test	15			0		da	1	908	6	4	antiphase_hc_sio.wav	1	6	4	noise_calib_stim_RIGHT.wav	2	2	blb_dichoticlistening_ba-da.mp3	ba	da	1	right
6.6.1	win	2023-06-12	20:32:08	0	0	63d40f21ea1c311723c7c847	2	1	DL_test	13	DL_test	16			0		ka	1	694	6	4	antiphase_hc_sio.wav	1	6	4	noise_calib_stim_RIGHT.wav	2	28	blb_dichoticlistening_pa-ka.mp3	pa	ka	1	right
6.6.1	win	2023-06-12	20:32:08	0	0	63d40f21ea1c311723c7c847	2	1	DL_test	13	DL_test	17			0		ga	1	959	6	4	antiphase_hc_sio.wav	1	6	4	noise_calib_stim_RIGHT.wav	2	9	blb_dichoticlistening_da-ga.mp3	da	ga	1	right
6.6.1	win	2023-06-12	20:32:08	0	0	63d40f21ea1c311723c7c847	2	1	DL_test	13	DL_test	18			0		ka	1	727	6	4	antiphase_hc_sio.wav	1	6	4	noise_calib_stim_RIGHT.wav	2	34	blb_dichoticlistening_ta-ka.mp3	ta	ka	1	right
6.6.1	win	2023-06-12	20:32:08	0	0	63d40f21ea1c311723c7c847	2	1	DL_test	13	DL_test	19			0		ka	1	959	6	4	antiphase_hc_sio.wav	1	6	4	noise_calib_stim_RIGHT.wav	2	4	blb_dichoticlistening_ba-ka.mp3	ba	ka	1	right
6.6.1	win	2023-06-12	20:32:08	0	0	63d40f21ea1c311723c7c847	2	1	DL_test	13	DL_test	20			0		ka	1	1325	6	4	antiphase_hc_sio.wav	1	6	4	noise_calib_stim_RIGHT.wav	2	19	blb_dichoticlistening_ka-ba.mp3	ka	ba	1	left
6.6.1	win	2023-06-12	20:32:08	0	0	63d40f21ea1c311723c7c847	2	1	DL_test	13	DL_test	21			0		pa	1	862	6	4	antiphase_hc_sio.wav	1	6	4	noise_calib_stim_RIGHT.wav	2	25	blb_dichoticlistening_pa-ba.mp3	pa	ba	1	left
6.6.1	win	2023-06-12	20:32:08	0	0	63d40f21ea1c311723c7c847	2	1	DL_test	13	DL_test	22			0		pa	0	1064	6	4	antiphase_hc_sio.wav	1	6	4	noise_calib_stim_RIGHT.wav	2	10	blb_dichoticlistening_da-ka.mp3	da	ka	1	other
6.6.1	win	2023-06-12	20:32:08	0	0	63d40f21ea1c311723c7c847	2	1	DL_test	13	DL_test	23			0		da	1	972	6	4	antiphase_hc_sio.wav	1	6	4	noise_calib_stim_RIGHT.wav	2	14	blb_dichoticlistening_ga-da.mp3	ga	da	1	right
6.6.1	win	2023-06-12	20:32:08	0	0	63d40f21ea1c311723c7c847	2	1	DL_test	13	DL_test	24			0		pa	1	1018	6	4	antiphase_hc_sio.wav	1	6	4	noise_calib_stim_RIGHT.wav	2	5	blb_dichoticlistening_ba-pa.mp3	ba	pa	1	right
6.6.1	win	2023-06-12	20:32:08	0	0	63d40f21ea1c311723c7c847	2	1	DL_test	13	DL_test	25			0		da	1	1279	6	4	antiphase_hc_sio.wav	1	6	4	noise_calib_stim_RIGHT.wav	2	32	blb_dichoticlistening_ta-da.mp3	ta	da	1	right
6.6.1	win	2023-06-12	20:32:08	0	0	63d40f21ea1c311723c7c847	2	1	DL_test	13	DL_test	26			0		ka	0	2065	6	4	antiphase_hc_sio.wav	1	6	4	noise_calib_stim_RIGHT.wav	2	33	blb_dichoticlistening_ta-ga.mp3	ta	ga	1	other
6.6.1	win	2023-06-12	20:32:08	0	0	63d40f21ea1c311723c7c847	2	1	DL_test	13	DL_test	27			0		ga	1	1747	6	4	antiphase_hc_sio.wav	1	6	4	noise_calib_stim_RIGHT.wav	2	18	blb_dichoticlistening_ga-ta.mp3	ga	ta	1	left
6.6.1	win	2023-06-12	20:32:08	0	0	63d40f21ea1c311723c7c847	2	1	DL_test	13	DL_test	28			0		pa	1	899	6	4	antiphase_hc_sio.wav	1	6	4	noise_calib_stim_RIGHT.wav	2	17	blb_dichoticlistening_ga-pa.mp3	ga	pa	1	right
6.6.1	win	2023-06-12	20:32:08	0	0	63d40f21ea1c311723c7c847	2	1	DL_test	13	DL_test	29			0		pa	1	1132	6	4	antiphase_hc_sio.wav	1	6	4	noise_calib_stim_RIGHT.wav	2	35	blb_dichoticlistening_ta-pa.mp3	ta	pa	1	right
6.6.1	win	2023-06-12	20:32:08	0	0	63d40f21ea1c311723c7c847	2	1	DL_test	13	DL_test	30			0		da	0	1405	6	4	antiphase_hc_sio.wav	1	6	4	noise_calib_stim_RIGHT.wav	2	3	blb_dichoticlistening_ba-ga.mp3	ba	ga	1	other
6.6.1	win	2023-06-12	20:32:08	0	0	63d40f21ea1c311723c7c847	2	1	DL_test	13	DL_test	31			0		ba	1	922	6	4	antiphase_hc_sio.wav	1	6	4	noise_calib_stim_RIGHT.wav	2	13	blb_dichoticlistening_ga-ba.mp3	ga	ba	1	right
6.6.1	win	2023-06-12	20:32:08	0	0	63d40f21ea1c311723c7c847	2	1	DL_test	13	DL_test	32			0		ka	1	1451	6	4	antiphase_hc_sio.wav	1	6	4	noise_calib_stim_RIGHT.wav	2	16	blb_dichoticlistening_ga-ka.mp3	ga	ka	1	right
6.6.1	win	2023-06-12	20:32:08	0	0	63d40f21ea1c311723c7c847	2	1	DL_test	13	DL_test	33			0		ba	1	1130	6	4	antiphase_hc_sio.wav	1	6	4	noise_calib_stim_RIGHT.wav	2	1	blb_dichoticlistening_ba-ba.mp3	ba	ba	0	left
6.6.1	win	2023-06-12	20:32:08	0	0	63d40f21ea1c311723c7c847	2	1	DL_test	13	DL_test	34			0		ta	1	1186	6	4	antiphase_hc_sio.wav	1	6	4	noise_calib_stim_RIGHT.wav	2	36	blb_dichoticlistening_ta-ta.mp3	ta	ta	0	left
6.6.1	win	2023-06-12	20:32:08	0	0	63d40f21ea1c311723c7c847	2	1	DL_test	13	DL_test	35			0		ka	1	897	6	4	antiphase_hc_sio.wav	1	6	4	noise_calib_stim_RIGHT.wav	2	24	blb_dichoticlistening_ka-ta.mp3	ka	ta	1	left
6.6.1	win	2023-06-12	20:32:08	0	0	63d40f21ea1c311723c7c847	2	1	DL_test	13	DL_test	36			0		pa	1	1307	6	4	antiphase_hc_sio.wav	1	6	4	noise_calib_stim_RIGHT.wav	2	29	blb_dichoticlistening_pa-pa.mp3	pa	pa	0	left
6.6.1	win	2023-06-12	20:32:08	0	0	63d40f21ea1c311723c7c847	2	1	DL_test	14	DL_test	1			0		pa	1	781	6	4	antiphase_hc_sio.wav	1	6	4	noise_calib_stim_RIGHT.wav	2	25	blb_dichoticlistening_pa-ba.mp3	pa	ba	1	left
6.6.1	win	2023-06-12	20:32:08	0	0	63d40f21ea1c311723c7c847	2	1	DL_test	14	DL_test	2			0		ka	1	2324	6	4	antiphase_hc_sio.wav	1	6	4	noise_calib_stim_RIGHT.wav	2	20	blb_dichoticlistening_ka-da.mp3	ka	da	1	left
6.6.1	win	2023-06-12	20:32:08	0	0	63d40f21ea1c311723c7c847	2	1	DL_test	14	DL_test	3			0		ka	1	1004	6	4	antiphase_hc_sio.wav	1	6	4	noise_calib_stim_RIGHT.wav	2	24	blb_dichoticlistening_ka-ta.mp3	ka	ta	1	left
6.6.1	win	2023-06-12	20:32:08	0	0	63d40f21ea1c311723c7c847	2	1	DL_test	14	DL_test	4			0		pa	1	1361	6	4	antiphase_hc_sio.wav	1	6	4	noise_calib_stim_RIGHT.wav	2	11	blb_dichoticlistening_da-pa.mp3	da	pa	1	right
6.6.1	win	2023-06-12	20:32:08	0	0	63d40f21ea1c311723c7c847	2	1	DL_test	14	DL_test	5			0		ba	1	1041	6	4	antiphase_hc_sio.wav	1	6	4	noise_calib_stim_RIGHT.wav	2	1	blb_dichoticlistening_ba-ba.mp3	ba	ba	0	left
6.6.1	win	2023-06-12	20:32:08	0	0	63d40f21ea1c311723c7c847	2	1	DL_test	14	DL_test	6			0		pa	1	1325	6	4	antiphase_hc_sio.wav	1	6	4	noise_calib_stim_RIGHT.wav	2	29	blb_dichoticlistening_pa-pa.mp3	pa	pa	0	left
6.6.1	win	2023-06-12	20:32:08	0	0	63d40f21ea1c311723c7c847	2	1	DL_test	14	DL_test	7			0		pa	1	1046	6	4	antiphase_hc_sio.wav	1	6	4	noise_calib_stim_RIGHT.wav	2	5	blb_dichoticlistening_ba-pa.mp3	ba	pa	1	right
6.6.1	win	2023-06-12	20:32:08	0	0	63d40f21ea1c311723c7c847	2	1	DL_test	14	DL_test	8			0		ba	1	1497	6	4	antiphase_hc_sio.wav	1	6	4	noise_calib_stim_RIGHT.wav	2	13	blb_dichoticlistening_ga-ba.mp3	ga	ba	1	right
6.6.1	win	2023-06-12	20:32:08	0	0	63d40f21ea1c311723c7c847	2	1	DL_test	14	DL_test	9			0		ka	1	835	6	4	antiphase_hc_sio.wav	1	6	4	noise_calib_stim_RIGHT.wav	2	28	blb_dichoticlistening_pa-ka.mp3	pa	ka	1	right
6.6.1	win	2023-06-12	20:32:08	0	0	63d40f21ea1c311723c7c847	2	1	DL_test	14	DL_test	10			0		ka	1	543	6	4	antiphase_hc_sio.wav	1	6	4	noise_calib_stim_RIGHT.wav	2	34	blb_dichoticlistening_ta-ka.mp3	ta	ka	1	right
6.6.1	win	2023-06-12	20:32:08	0	0	63d40f21ea1c311723c7c847	2	1	DL_test	14	DL_test	11			0		ka	1	671	6	4	antiphase_hc_sio.wav	1	6	4	noise_calib_stim_RIGHT.wav	2	4	blb_dichoticlistening_ba-ka.mp3	ba	ka	1	right
6.6.1	win	2023-06-12	20:32:08	0	0	63d40f21ea1c311723c7c847	2	1	DL_test	14	DL_test	12			0		da	1	1707	6	4	antiphase_hc_sio.wav	1	6	4	noise_calib_stim_RIGHT.wav	2	8	blb_dichoticlistening_da-da.mp3	da	da	0	left
6.6.1	win	2023-06-12	20:32:08	0	0	63d40f21ea1c311723c7c847	2	1	DL_test	14	DL_test	13			0		pa	1	1028	6	4	antiphase_hc_sio.wav	1	6	4	noise_calib_stim_RIGHT.wav	2	17	blb_dichoticlistening_ga-pa.mp3	ga	pa	1	right
6.6.1	win	2023-06-12	20:32:08	0	0	63d40f21ea1c311723c7c847	2	1	DL_test	14	DL_test	14			0		pa	0	1064	6	4	antiphase_hc_sio.wav	1	6	4	noise_calib_stim_RIGHT.wav	2	10	blb_dichoticlistening_da-ka.mp3	da	ka	1	other
6.6.1	win	2023-06-12	20:32:08	0	0	63d40f21ea1c311723c7c847	2	1	DL_test	14	DL_test	15			0		ka	1	1010	6	4	antiphase_hc_sio.wav	1	6	4	noise_calib_stim_RIGHT.wav	2	16	blb_dichoticlistening_ga-ka.mp3	ga	ka	1	right
6.6.1	win	2023-06-12	20:32:08	0	0	63d40f21ea1c311723c7c847	2	1	DL_test	14	DL_test	16			0		ga	1	2070	6	4	antiphase_hc_sio.wav	1	6	4	noise_calib_stim_RIGHT.wav	2	15	blb_dichoticlistening_ga-ga.mp3	ga	ga	0	left
6.6.1	win	2023-06-12	20:32:08	0	0	63d40f21ea1c311723c7c847	2	1	DL_test	14	DL_test	17			0		ka	0	1257	6	4	antiphase_hc_sio.wav	1	6	4	noise_calib_stim_RIGHT.wav	2	18	blb_dichoticlistening_ga-ta.mp3	ga	ta	1	other
6.6.1	win	2023-06-12	20:32:08	0	0	63d40f21ea1c311723c7c847	2	1	DL_test	14	DL_test	18			0		ga	0	1581	6	4	antiphase_hc_sio.wav	1	6	4	noise_calib_stim_RIGHT.wav	2	19	blb_dichoticlistening_ka-ba.mp3	ka	ba	1	other
6.6.1	win	2023-06-12	20:32:08	0	0	63d40f21ea1c311723c7c847	2	1	DL_test	14	DL_test	19			0		ga	1	1282	6	4	antiphase_hc_sio.wav	1	6	4	noise_calib_stim_RIGHT.wav	2	33	blb_dichoticlistening_ta-ga.mp3	ta	ga	1	right
6.6.1	win	2023-06-12	20:32:08	0	0	63d40f21ea1c311723c7c847	2	1	DL_test	14	DL_test	20			0		pa	1	869	6	4	antiphase_hc_sio.wav	1	6	4	noise_calib_stim_RIGHT.wav	2	35	blb_dichoticlistening_ta-pa.mp3	ta	pa	1	right
6.6.1	win	2023-06-12	20:32:08	0	0	63d40f21ea1c311723c7c847	2	1	DL_test	14	DL_test	21			0		ka	1	1048	6	4	antiphase_hc_sio.wav	1	6	4	noise_calib_stim_RIGHT.wav	2	22	blb_dichoticlistening_ka-ka.mp3	ka	ka	0	left
6.6.1	win	2023-06-12	20:32:08	0	0	63d40f21ea1c311723c7c847	2	1	DL_test	14	DL_test	22			0		ta	1	1042	6	4	antiphase_hc_sio.wav	1	6	4	noise_calib_stim_RIGHT.wav	2	36	blb_dichoticlistening_ta-ta.mp3	ta	ta	0	left
6.6.1	win	2023-06-12	20:32:08	0	0	63d40f21ea1c311723c7c847	2	1	DL_test	14	DL_test	23			0		da	1	1206	6	4	antiphase_hc_sio.wav	1	6	4	noise_calib_stim_RIGHT.wav	2	14	blb_dichoticlistening_ga-da.mp3	ga	da	1	right
6.6.1	win	2023-06-12	20:32:08	0	0	63d40f21ea1c311723c7c847	2	1	DL_test	14	DL_test	24			0		ka	1	1091	6	4	antiphase_hc_sio.wav	1	6	4	noise_calib_stim_RIGHT.wav	2	23	blb_dichoticlistening_ka-pa.mp3	ka	pa	1	left
6.6.1	win	2023-06-12	20:32:08	0	0	63d40f21ea1c311723c7c847	2	1	DL_test	14	DL_test	25			0		ga	1	997	6	4	antiphase_hc_sio.wav	1	6	4	noise_calib_stim_RIGHT.wav	2	3	blb_dichoticlistening_ba-ga.mp3	ba	ga	1	right
6.6.1	win	2023-06-12	20:32:08	0	0	63d40f21ea1c311723c7c847	2	1	DL_test	14	DL_test	26			0		da	1	1270	6	4	antiphase_hc_sio.wav	1	6	4	noise_calib_stim_RIGHT.wav	2	32	blb_dichoticlistening_ta-da.mp3	ta	da	1	right
6.6.1	win	2023-06-12	20:32:08	0	0	63d40f21ea1c311723c7c847	2	1	DL_test	14	DL_test	27			0		ka	0	2116	6	4	antiphase_hc_sio.wav	1	6	4	noise_calib_stim_RIGHT.wav	2	31	blb_dichoticlistening_ta-ba.mp3	ta	ba	1	other
6.6.1	win	2023-06-12	20:32:08	0	0	63d40f21ea1c311723c7c847	2	1	DL_test	14	DL_test	28			0		da	1	965	6	4	antiphase_hc_sio.wav	1	6	4	noise_calib_stim_RIGHT.wav	2	7	blb_dichoticlistening_da-ba.mp3	da	ba	1	left
6.6.1	win	2023-06-12	20:32:08	0	0	63d40f21ea1c311723c7c847	2	1	DL_test	14	DL_test	29			0		ka	0	1122	6	4	antiphase_hc_sio.wav	1	6	4	noise_calib_stim_RIGHT.wav	2	6	blb_dichoticlistening_ba-ta.mp3	ba	ta	1	other
6.6.1	win	2023-06-12	20:32:08	0	0	63d40f21ea1c311723c7c847	2	1	DL_test	14	DL_test	30			0		da	1	1376	6	4	antiphase_hc_sio.wav	1	6	4	noise_calib_stim_RIGHT.wav	2	2	blb_dichoticlistening_ba-da.mp3	ba	da	1	right
6.6.1	win	2023-06-12	20:32:08	0	0	63d40f21ea1c311723c7c847	2	1	DL_test	14	DL_test	31			0		ta	1	1042	6	4	antiphase_hc_sio.wav	1	6	4	noise_calib_stim_RIGHT.wav	2	30	blb_dichoticlistening_pa-ta.mp3	pa	ta	1	right
6.6.1	win	2023-06-12	20:32:08	0	0	63d40f21ea1c311723c7c847	2	1	DL_test	14	DL_test	32			0		ta	1	1085	6	4	antiphase_hc_sio.wav	1	6	4	noise_calib_stim_RIGHT.wav	2	12	blb_dichoticlistening_da-ta.mp3	da	ta	1	right
6.6.1	win	2023-06-12	20:32:08	0	0	63d40f21ea1c311723c7c847	2	1	DL_test	14	DL_test	33			0		ga	1	784	6	4	antiphase_hc_sio.wav	1	6	4	noise_calib_stim_RIGHT.wav	2	9	blb_dichoticlistening_da-ga.mp3	da	ga	1	right
6.6.1	win	2023-06-12	20:32:08	0	0	63d40f21ea1c311723c7c847	2	1	DL_test	14	DL_test	34			0		ga	1	837	6	4	antiphase_hc_sio.wav	1	6	4	noise_calib_stim_RIGHT.wav	2	27	blb_dichoticlistening_pa-ga.mp3	pa	ga	1	right
6.6.1	win	2023-06-12	20:32:08	0	0	63d40f21ea1c311723c7c847	2	1	DL_test	14	DL_test	35			0		ga	1	673	6	4	antiphase_hc_sio.wav	1	6	4	noise_calib_stim_RIGHT.wav	2	21	blb_dichoticlistening_ka-ga.mp3	ka	ga	1	right
6.6.1	win	2023-06-12	20:32:08	0	0	63d40f21ea1c311723c7c847	2	1	DL_test	14	DL_test	36			0		da	1	923	6	4	antiphase_hc_sio.wav	1	6	4	noise_calib_stim_RIGHT.wav	2	26	blb_dichoticlistening_pa-da.mp3	pa	da	1	right
6.6.1	win	2023-06-12	20:32:08	0	0	63d40f21ea1c311723c7c847	2	1	DL_test	15	DL_test	1			0		ka	1	908	6	4	antiphase_hc_sio.wav	1	6	4	noise_calib_stim_RIGHT.wav	2	24	blb_dichoticlistening_ka-ta.mp3	ka	ta	1	left
6.6.1	win	2023-06-12	20:32:08	0	0	63d40f21ea1c311723c7c847	2	1	DL_test	15	DL_test	2			0		ta	1	1046	6	4	antiphase_hc_sio.wav	1	6	4	noise_calib_stim_RIGHT.wav	2	30	blb_dichoticlistening_pa-ta.mp3	pa	ta	1	right
6.6.1	win	2023-06-12	20:32:08	0	0	63d40f21ea1c311723c7c847	2	1	DL_test	15	DL_test	3			0		da	1	1112	6	4	antiphase_hc_sio.wav	1	6	4	noise_calib_stim_RIGHT.wav	2	9	blb_dichoticlistening_da-ga.mp3	da	ga	1	left
6.6.1	win	2023-06-12	20:32:08	0	0	63d40f21ea1c311723c7c847	2	1	DL_test	15	DL_test	4			0		pa	1	1042	6	4	antiphase_hc_sio.wav	1	6	4	noise_calib_stim_RIGHT.wav	2	27	blb_dichoticlistening_pa-ga.mp3	pa	ga	1	left
6.6.1	win	2023-06-12	20:32:08	0	0	63d40f21ea1c311723c7c847	2	1	DL_test	15	DL_test	5			0		ka	1	853	6	4	antiphase_hc_sio.wav	1	6	4	noise_calib_stim_RIGHT.wav	2	19	blb_dichoticlistening_ka-ba.mp3	ka	ba	1	left
6.6.1	win	2023-06-12	20:32:08	0	0	63d40f21ea1c311723c7c847	2	1	DL_test	15	DL_test	6			0		ta	1	969	6	4	antiphase_hc_sio.wav	1	6	4	noise_calib_stim_RIGHT.wav	2	12	blb_dichoticlistening_da-ta.mp3	da	ta	1	right
6.6.1	win	2023-06-12	20:32:08	0	0	63d40f21ea1c311723c7c847	2	1	DL_test	15	DL_test	7			0		da	1	1130	6	4	antiphase_hc_sio.wav	1	6	4	noise_calib_stim_RIGHT.wav	2	2	blb_dichoticlistening_ba-da.mp3	ba	da	1	right
6.6.1	win	2023-06-12	20:32:08	0	0	63d40f21ea1c311723c7c847	2	1	DL_test	15	DL_test	8			0		ka	1	861	6	4	antiphase_hc_sio.wav	1	6	4	noise_calib_stim_RIGHT.wav	2	21	blb_dichoticlistening_ka-ga.mp3	ka	ga	1	left
6.6.1	win	2023-06-12	20:32:08	0	0	63d40f21ea1c311723c7c847	2	1	DL_test	15	DL_test	9			0		pa	1	1536	6	4	antiphase_hc_sio.wav	1	6	4	noise_calib_stim_RIGHT.wav	2	5	blb_dichoticlistening_ba-pa.mp3	ba	pa	1	right
6.6.1	win	2023-06-12	20:32:08	0	0	63d40f21ea1c311723c7c847	2	1	DL_test	15	DL_test	10			0		pa	1	776	6	4	antiphase_hc_sio.wav	1	6	4	noise_calib_stim_RIGHT.wav	2	29	blb_dichoticlistening_pa-pa.mp3	pa	pa	0	left
6.6.1	win	2023-06-12	20:32:08	0	0	63d40f21ea1c311723c7c847	2	1	DL_test	15	DL_test	11			0		ga	1	1196	6	4	antiphase_hc_sio.wav	1	6	4	noise_calib_stim_RIGHT.wav	2	3	blb_dichoticlistening_ba-ga.mp3	ba	ga	1	right
6.6.1	win	2023-06-12	20:32:08	0	0	63d40f21ea1c311723c7c847	2	1	DL_test	15	DL_test	12			0		ka	1	683	6	4	antiphase_hc_sio.wav	1	6	4	noise_calib_stim_RIGHT.wav	2	28	blb_dichoticlistening_pa-ka.mp3	pa	ka	1	right
6.6.1	win	2023-06-12	20:32:08	0	0	63d40f21ea1c311723c7c847	2	1	DL_test	15	DL_test	13			0		da	1	869	6	4	antiphase_hc_sio.wav	1	6	4	noise_calib_stim_RIGHT.wav	2	8	blb_dichoticlistening_da-da.mp3	da	da	0	left
6.6.1	win	2023-06-12	20:32:08	0	0	63d40f21ea1c311723c7c847	2	1	DL_test	15	DL_test	14			0		ta	1	1169	6	4	antiphase_hc_sio.wav	1	6	4	noise_calib_stim_RIGHT.wav	2	31	blb_dichoticlistening_ta-ba.mp3	ta	ba	1	left
6.6.1	win	2023-06-12	20:32:08	0	0	63d40f21ea1c311723c7c847	2	1	DL_test	15	DL_test	15			0		ta	0	1000	6	4	antiphase_hc_sio.wav	1	6	4	noise_calib_stim_RIGHT.wav	2	20	blb_dichoticlistening_ka-da.mp3	ka	da	1	other
6.6.1	win	2023-06-12	20:32:08	0	0	63d40f21ea1c311723c7c847	2	1	DL_test	15	DL_test	16			0		pa	0	1340	6	4	antiphase_hc_sio.wav	1	6	4	noise_calib_stim_RIGHT.wav	2	10	blb_dichoticlistening_da-ka.mp3	da	ka	1	other
6.6.1	win	2023-06-12	20:32:08	0	0	63d40f21ea1c311723c7c847	2	1	DL_test	15	DL_test	17			0		da	1	1100	6	4	antiphase_hc_sio.wav	1	6	4	noise_calib_stim_RIGHT.wav	2	26	blb_dichoticlistening_pa-da.mp3	pa	da	1	right
6.6.1	win	2023-06-12	20:32:08	0	0	63d40f21ea1c311723c7c847	2	1	DL_test	15	DL_test	18			0		ba	1	1430	6	4	antiphase_hc_sio.wav	1	6	4	noise_calib_stim_RIGHT.wav	2	7	blb_dichoticlistening_da-ba.mp3	da	ba	1	right
6.6.1	win	2023-06-12	20:32:08	0	0	63d40f21ea1c311723c7c847	2	1	DL_test	15	DL_test	19			0		ka	0	1178	6	4	antiphase_hc_sio.wav	1	6	4	noise_calib_stim_RIGHT.wav	2	18	blb_dichoticlistening_ga-ta.mp3	ga	ta	1	other
6.6.1	win	2023-06-12	20:32:08	0	0	63d40f21ea1c311723c7c847	2	1	DL_test	15	DL_test	20			0		pa	1	1097	6	4	antiphase_hc_sio.wav	1	6	4	noise_calib_stim_RIGHT.wav	2	35	blb_dichoticlistening_ta-pa.mp3	ta	pa	1	right
6.6.1	win	2023-06-12	20:32:08	0	0	63d40f21ea1c311723c7c847	2	1	DL_test	15	DL_test	21			0		ta	1	1083	6	4	antiphase_hc_sio.wav	1	6	4	noise_calib_stim_RIGHT.wav	2	6	blb_dichoticlistening_ba-ta.mp3	ba	ta	1	right
6.6.1	win	2023-06-12	20:32:08	0	0	63d40f21ea1c311723c7c847	2	1	DL_test	15	DL_test	22			0		ka	1	901	6	4	antiphase_hc_sio.wav	1	6	4	noise_calib_stim_RIGHT.wav	2	34	blb_dichoticlistening_ta-ka.mp3	ta	ka	1	right
6.6.1	win	2023-06-12	20:32:08	0	0	63d40f21ea1c311723c7c847	2	1	DL_test	15	DL_test	23			0		ga	1	1518	6	4	antiphase_hc_sio.wav	1	6	4	noise_calib_stim_RIGHT.wav	2	13	blb_dichoticlistening_ga-ba.mp3	ga	ba	1	left
6.6.1	win	2023-06-12	20:32:08	0	0	63d40f21ea1c311723c7c847	2	1	DL_test	15	DL_test	24			0		pa	1	840	6	4	antiphase_hc_sio.wav	1	6	4	noise_calib_stim_RIGHT.wav	2	17	blb_dichoticlistening_ga-pa.mp3	ga	pa	1	right
6.6.1	win	2023-06-12	20:32:08	0	0	63d40f21ea1c311723c7c847	2	1	DL_test	15	DL_test	25			0		da	1	908	6	4	antiphase_hc_sio.wav	1	6	4	noise_calib_stim_RIGHT.wav	2	14	blb_dichoticlistening_ga-da.mp3	ga	da	1	right
6.6.1	win	2023-06-12	20:32:08	0	0	63d40f21ea1c311723c7c847	2	1	DL_test	15	DL_test	26			0		ba	1	1158	6	4	antiphase_hc_sio.wav	1	6	4	noise_calib_stim_RIGHT.wav	2	1	blb_dichoticlistening_ba-ba.mp3	ba	ba	0	left
6.6.1	win	2023-06-12	20:32:08	0	0	63d40f21ea1c311723c7c847	2	1	DL_test	15	DL_test	27			0		ka	1	1206	6	4	antiphase_hc_sio.wav	1	6	4	noise_calib_stim_RIGHT.wav	2	16	blb_dichoticlistening_ga-ka.mp3	ga	ka	1	right
6.6.1	win	2023-06-12	20:32:08	0	0	63d40f21ea1c311723c7c847	2	1	DL_test	15	DL_test	28			0		pa	1	859	6	4	antiphase_hc_sio.wav	1	6	4	noise_calib_stim_RIGHT.wav	2	11	blb_dichoticlistening_da-pa.mp3	da	pa	1	right
6.6.1	win	2023-06-12	20:32:08	0	0	63d40f21ea1c311723c7c847	2	1	DL_test	15	DL_test	29			0		ta	1	1079	6	4	antiphase_hc_sio.wav	1	6	4	noise_calib_stim_RIGHT.wav	2	36	blb_dichoticlistening_ta-ta.mp3	ta	ta	0	left
6.6.1	win	2023-06-12	20:32:08	0	0	63d40f21ea1c311723c7c847	2	1	DL_test	15	DL_test	30			0		ka	1	994	6	4	antiphase_hc_sio.wav	1	6	4	noise_calib_stim_RIGHT.wav	2	4	blb_dichoticlistening_ba-ka.mp3	ba	ka	1	right
6.6.1	win	2023-06-12	20:32:08	0	0	63d40f21ea1c311723c7c847	2	1	DL_test	15	DL_test	31			0		ga	1	824	6	4	antiphase_hc_sio.wav	1	6	4	noise_calib_stim_RIGHT.wav	2	15	blb_dichoticlistening_ga-ga.mp3	ga	ga	0	left
6.6.1	win	2023-06-12	20:32:08	0	0	63d40f21ea1c311723c7c847	2	1	DL_test	15	DL_test	32			0		ka	1	669	6	4	antiphase_hc_sio.wav	1	6	4	noise_calib_stim_RIGHT.wav	2	22	blb_dichoticlistening_ka-ka.mp3	ka	ka	0	left
6.6.1	win	2023-06-12	20:32:08	0	0	63d40f21ea1c311723c7c847	2	1	DL_test	15	DL_test	33			0		ga	1	1191	6	4	antiphase_hc_sio.wav	1	6	4	noise_calib_stim_RIGHT.wav	2	33	blb_dichoticlistening_ta-ga.mp3	ta	ga	1	right
6.6.1	win	2023-06-12	20:32:08	0	0	63d40f21ea1c311723c7c847	2	1	DL_test	15	DL_test	34			0		ka	1	1125	6	4	antiphase_hc_sio.wav	1	6	4	noise_calib_stim_RIGHT.wav	2	23	blb_dichoticlistening_ka-pa.mp3	ka	pa	1	left
6.6.1	win	2023-06-12	20:32:08	0	0	63d40f21ea1c311723c7c847	2	1	DL_test	15	DL_test	35			0		pa	1	774	6	4	antiphase_hc_sio.wav	1	6	4	noise_calib_stim_RIGHT.wav	2	25	blb_dichoticlistening_pa-ba.mp3	pa	ba	1	left
6.6.1	win	2023-06-12	20:32:08	0	0	63d40f21ea1c311723c7c847	2	1	DL_test	15	DL_test	36			0		da	1	860	6	4	antiphase_hc_sio.wav	1	6	4	noise_calib_stim_RIGHT.wav	2	32	blb_dichoticlistening_ta-da.mp3	ta	da	1	right
6.6.1	win	2023-06-12	20:32:08	0	0	63d40f21ea1c311723c7c847	2	1	DL_test	16	DL_test	1			0		ka	1	1036	6	4	antiphase_hc_sio.wav	1	6	4	noise_calib_stim_RIGHT.wav	2	34	blb_dichoticlistening_ta-ka.mp3	ta	ka	1	right
6.6.1	win	2023-06-12	20:32:08	0	0	63d40f21ea1c311723c7c847	2	1	DL_test	16	DL_test	2			0		ta	1	935	6	4	antiphase_hc_sio.wav	1	6	4	noise_calib_stim_RIGHT.wav	2	35	blb_dichoticlistening_ta-pa.mp3	ta	pa	1	left
6.6.1	win	2023-06-12	20:32:08	0	0	63d40f21ea1c311723c7c847	2	1	DL_test	16	DL_test	3			0		ta	1	1143	6	4	antiphase_hc_sio.wav	1	6	4	noise_calib_stim_RIGHT.wav	2	12	blb_dichoticlistening_da-ta.mp3	da	ta	1	right
6.6.1	win	2023-06-12	20:32:08	0	0	63d40f21ea1c311723c7c847	2	1	DL_test	16	DL_test	4			0		ka	1	711	6	4	antiphase_hc_sio.wav	1	6	4	noise_calib_stim_RIGHT.wav	2	19	blb_dichoticlistening_ka-ba.mp3	ka	ba	1	left
6.6.1	win	2023-06-12	20:32:08	0	0	63d40f21ea1c311723c7c847	2	1	DL_test	16	DL_test	5			0		da	1	865	6	4	antiphase_hc_sio.wav	1	6	4	noise_calib_stim_RIGHT.wav	2	32	blb_dichoticlistening_ta-da.mp3	ta	da	1	right
6.6.1	win	2023-06-12	20:32:08	0	0	63d40f21ea1c311723c7c847	2	1	DL_test	16	DL_test	6			0		ga	1	724	6	4	antiphase_hc_sio.wav	1	6	4	noise_calib_stim_RIGHT.wav	2	33	blb_dichoticlistening_ta-ga.mp3	ta	ga	1	right
6.6.1	win	2023-06-12	20:32:08	0	0	63d40f21ea1c311723c7c847	2	1	DL_test	16	DL_test	7			0		pa	0	1140	6	4	antiphase_hc_sio.wav	1	6	4	noise_calib_stim_RIGHT.wav	2	31	blb_dichoticlistening_ta-ba.mp3	ta	ba	1	other
6.6.1	win	2023-06-12	20:32:08	0	0	63d40f21ea1c311723c7c847	2	1	DL_test	16	DL_test	8			0		ka	1	1076	6	4	antiphase_hc_sio.wav	1	6	4	noise_calib_stim_RIGHT.wav	2	23	blb_dichoticlistening_ka-pa.mp3	ka	pa	1	left
6.6.1	win	2023-06-12	20:32:08	0	0	63d40f21ea1c311723c7c847	2	1	DL_test	16	DL_test	9			0		pa	0	919	6	4	antiphase_hc_sio.wav	1	6	4	noise_calib_stim_RIGHT.wav	2	10	blb_dichoticlistening_da-ka.mp3	da	ka	1	other
6.6.1	win	2023-06-12	20:32:08	0	0	63d40f21ea1c311723c7c847	2	1	DL_test	16	DL_test	10			0		pa	0	1033	6	4	antiphase_hc_sio.wav	1	6	4	noise_calib_stim_RIGHT.wav	2	22	blb_dichoticlistening_ka-ka.mp3	ka	ka	0	other
6.6.1	win	2023-06-12	20:32:08	0	0	63d40f21ea1c311723c7c847	2	1	DL_test	16	DL_test	11			0		ta	1	1309	6	4	antiphase_hc_sio.wav	1	6	4	noise_calib_stim_RIGHT.wav	2	30	blb_dichoticlistening_pa-ta.mp3	pa	ta	1	right
6.6.1	win	2023-06-12	20:32:08	0	0	63d40f21ea1c311723c7c847	2	1	DL_test	16	DL_test	12			0		da	1	886	6	4	antiphase_hc_sio.wav	1	6	4	noise_calib_stim_RIGHT.wav	2	2	blb_dichoticlistening_ba-da.mp3	ba	da	1	right
6.6.1	win	2023-06-12	20:32:08	0	0	63d40f21ea1c311723c7c847	2	1	DL_test	16	DL_test	13			0		pa	1	887	6	4	antiphase_hc_sio.wav	1	6	4	noise_calib_stim_RIGHT.wav	2	25	blb_dichoticlistening_pa-ba.mp3	pa	ba	1	left
6.6.1	win	2023-06-12	20:32:08	0	0	63d40f21ea1c311723c7c847	2	1	DL_test	16	DL_test	14			0		da	1	1090	6	4	antiphase_hc_sio.wav	1	6	4	noise_calib_stim_RIGHT.wav	2	7	blb_dichoticlistening_da-ba.mp3	da	ba	1	left
6.6.1	win	2023-06-12	20:32:08	0	0	63d40f21ea1c311723c7c847	2	1	DL_test	16	DL_test	15			0		ka	0	836	6	4	antiphase_hc_sio.wav	1	6	4	noise_calib_stim_RIGHT.wav	2	18	blb_dichoticlistening_ga-ta.mp3	ga	ta	1	other
6.6.1	win	2023-06-12	20:32:08	0	0	63d40f21ea1c311723c7c847	2	1	DL_test	16	DL_test	16			0		da	1	849	6	4	antiphase_hc_sio.wav	1	6	4	noise_calib_stim_RIGHT.wav	2	8	blb_dichoticlistening_da-da.mp3	da	da	0	left
6.6.1	win	2023-06-12	20:32:08	0	0	63d40f21ea1c311723c7c847	2	1	DL_test	16	DL_test	17			0		pa	1	1029	6	4	antiphase_hc_sio.wav	1	6	4	noise_calib_stim_RIGHT.wav	2	29	blb_dichoticlistening_pa-pa.mp3	pa	pa	0	left
6.6.1	win	2023-06-12	20:32:08	0	0	63d40f21ea1c311723c7c847	2	1	DL_test	16	DL_test	18			0		pa	1	1017	6	4	antiphase_hc_sio.wav	1	6	4	noise_calib_stim_RIGHT.wav	2	11	blb_dichoticlistening_da-pa.mp3	da	pa	1	right
6.6.1	win	2023-06-12	20:32:08	0	0	63d40f21ea1c311723c7c847	2	1	DL_test	16	DL_test	19			0		ka	1	662	6	4	antiphase_hc_sio.wav	1	6	4	noise_calib_stim_RIGHT.wav	2	4	blb_dichoticlistening_ba-ka.mp3	ba	ka	1	right
6.6.1	win	2023-06-12	20:32:08	0	0	63d40f21ea1c311723c7c847	2	1	DL_test	16	DL_test	20			0		ga	1	761	6	4	antiphase_hc_sio.wav	1	6	4	noise_calib_stim_RIGHT.wav	2	15	blb_dichoticlistening_ga-ga.mp3	ga	ga	0	left
6.6.1	win	2023-06-12	20:32:08	0	0	63d40f21ea1c311723c7c847	2	1	DL_test	16	DL_test	21			0		da	1	992	6	4	antiphase_hc_sio.wav	1	6	4	noise_calib_stim_RIGHT.wav	2	9	blb_dichoticlistening_da-ga.mp3	da	ga	1	left
6.6.1	win	2023-06-12	20:32:08	0	0	63d40f21ea1c311723c7c847	2	1	DL_test	16	DL_test	22			0		pa	1	1134	6	4	antiphase_hc_sio.wav	1	6	4	noise_calib_stim_RIGHT.wav	2	5	blb_dichoticlistening_ba-pa.mp3	ba	pa	1	right
6.6.1	win	2023-06-12	20:32:08	0	0	63d40f21ea1c311723c7c847	2	1	DL_test	16	DL_test	23			0		ga	1	1254	6	4	antiphase_hc_sio.wav	1	6	4	noise_calib_stim_RIGHT.wav	2	21	blb_dichoticlistening_ka-ga.mp3	ka	ga	1	right
6.6.1	win	2023-06-12	20:32:08	0	0	63d40f21ea1c311723c7c847	2	1	DL_test	16	DL_test	24			0		ga	1	1041	6	4	antiphase_hc_sio.wav	1	6	4	noise_calib_stim_RIGHT.wav	2	27	blb_dichoticlistening_pa-ga.mp3	pa	ga	1	right
6.6.1	win	2023-06-12	20:32:08	0	0	63d40f21ea1c311723c7c847	2	1	DL_test	16	DL_test	25			0		ka	1	861	6	4	antiphase_hc_sio.wav	1	6	4	noise_calib_stim_RIGHT.wav	2	16	blb_dichoticlistening_ga-ka.mp3	ga	ka	1	right
6.6.1	win	2023-06-12	20:32:08	0	0	63d40f21ea1c311723c7c847	2	1	DL_test	16	DL_test	26			0		ka	1	640	6	4	antiphase_hc_sio.wav	1	6	4	noise_calib_stim_RIGHT.wav	2	28	blb_dichoticlistening_pa-ka.mp3	pa	ka	1	right
6.6.1	win	2023-06-12	20:32:08	0	0	63d40f21ea1c311723c7c847	2	1	DL_test	16	DL_test	27			0		ba	1	1451	6	4	antiphase_hc_sio.wav	1	6	4	noise_calib_stim_RIGHT.wav	2	1	blb_dichoticlistening_ba-ba.mp3	ba	ba	0	left
6.6.1	win	2023-06-12	20:32:08	0	0	63d40f21ea1c311723c7c847	2	1	DL_test	16	DL_test	28			0		ta	1	1087	6	4	antiphase_hc_sio.wav	1	6	4	noise_calib_stim_RIGHT.wav	2	6	blb_dichoticlistening_ba-ta.mp3	ba	ta	1	right
6.6.1	win	2023-06-12	20:32:08	0	0	63d40f21ea1c311723c7c847	2	1	DL_test	16	DL_test	29			0		da	1	1058	6	4	antiphase_hc_sio.wav	1	6	4	noise_calib_stim_RIGHT.wav	2	26	blb_dichoticlistening_pa-da.mp3	pa	da	1	right
6.6.1	win	2023-06-12	20:32:08	0	0	63d40f21ea1c311723c7c847	2	1	DL_test	16	DL_test	30			0		pa	1	1029	6	4	antiphase_hc_sio.wav	1	6	4	noise_calib_stim_RIGHT.wav	2	17	blb_dichoticlistening_ga-pa.mp3	ga	pa	1	right
6.6.1	win	2023-06-12	20:32:08	0	0	63d40f21ea1c311723c7c847	2	1	DL_test	16	DL_test	31			0		ka	1	777	6	4	antiphase_hc_sio.wav	1	6	4	noise_calib_stim_RIGHT.wav	2	24	blb_dichoticlistening_ka-ta.mp3	ka	ta	1	left
6.6.1	win	2023-06-12	20:32:08	0	0	63d40f21ea1c311723c7c847	2	1	DL_test	16	DL_test	32			0		ka	1	1321	6	4	antiphase_hc_sio.wav	1	6	4	noise_calib_stim_RIGHT.wav	2	20	blb_dichoticlistening_ka-da.mp3	ka	da	1	left
6.6.1	win	2023-06-12	20:32:08	0	0	63d40f21ea1c311723c7c847	2	1	DL_test	16	DL_test	33			0		ga	1	858	6	4	antiphase_hc_sio.wav	1	6	4	noise_calib_stim_RIGHT.wav	2	13	blb_dichoticlistening_ga-ba.mp3	ga	ba	1	left
6.6.1	win	2023-06-12	20:32:08	0	0	63d40f21ea1c311723c7c847	2	1	DL_test	16	DL_test	34			0		ta	1	918	6	4	antiphase_hc_sio.wav	1	6	4	noise_calib_stim_RIGHT.wav	2	36	blb_dichoticlistening_ta-ta.mp3	ta	ta	0	left
6.6.1	win	2023-06-12	20:32:08	0	0	63d40f21ea1c311723c7c847	2	1	DL_test	16	DL_test	35			0		ga	1	1190	6	4	antiphase_hc_sio.wav	1	6	4	noise_calib_stim_RIGHT.wav	2	3	blb_dichoticlistening_ba-ga.mp3	ba	ga	1	right
6.6.1	win	2023-06-12	20:32:08	0	0	63d40f21ea1c311723c7c847	2	1	DL_test	16	DL_test	36			0		da	1	805	6	4	antiphase_hc_sio.wav	1	6	4	noise_calib_stim_RIGHT.wav	2	14	blb_dichoticlistening_ga-da.mp3	ga	da	1	right
6.6.1	win	2023-06-12	20:32:08	20:41:53	581680	63d40f21ea1c311723c7c847	2	1	practice_z	22	practice_z	1	stimuli_target_squarediamonds.svg	stimuli_distractor_diamondtriangles.svg	2	yes	44	1	1377	6	4	antiphase_hc_sio.wav	1	6	4	noise_calib_stim_RIGHT.wav	2	14	blb_dichoticlistening_ga-da.mp3	ga	da	1	right
6.6.1	win	2023-06-12	20:32:08	20:41:53	581680	63d40f21ea1c311723c7c847	2	1	practice_z	22	advance_on_keypress_ZEE	2	stimuli_target_squarediamonds.svg	stimuli_distractor_diamondtriangles.svg	2	yes	57	0	1145	6	4	antiphase_hc_sio.wav	1	6	4	noise_calib_stim_RIGHT.wav	2	14	blb_dichoticlistening_ga-da.mp3	ga	da	1	right
6.6.1	win	2023-06-12	20:32:08	20:41:58	586499	63d40f21ea1c311723c7c847	2	1	practice_z	22	practice_z	3	stimuli_distractor_trianglediamonds.svg	stimuli_distractor_trianglediamonds.svg	15	no	0	1	2000	6	4	antiphase_hc_sio.wav	1	6	4	noise_calib_stim_RIGHT.wav	2	14	blb_dichoticlistening_ga-da.mp3	ga	da	1	right
6.6.1	win	2023-06-12	20:32:08	20:41:58	586499	63d40f21ea1c311723c7c847	2	1	practice_z	22	advance_on_keypress_ZEE	4	stimuli_distractor_trianglediamonds.svg	stimuli_distractor_trianglediamonds.svg	15	no	57	0	1032	6	4	antiphase_hc_sio.wav	1	6	4	noise_calib_stim_RIGHT.wav	2	14	blb_dichoticlistening_ga-da.mp3	ga	da	1	right
6.6.1	win	2023-06-12	20:32:08	20:42:02	590736	63d40f21ea1c311723c7c847	2	1	practice_z	22	practice_z	5	stimuli_distractor_trianglediamonds.svg	stimuli_distractor_diamondtriangles.svg	16	no	44	0	1549	6	4	antiphase_hc_sio.wav	1	6	4	noise_calib_stim_RIGHT.wav	2	14	blb_dichoticlistening_ga-da.mp3	ga	da	1	right
6.6.1	win	2023-06-12	20:32:08	20:42:02	590736	63d40f21ea1c311723c7c847	2	1	practice_z	22	advance_on_keypress_ZEE	6	stimuli_distractor_trianglediamonds.svg	stimuli_distractor_diamondtriangles.svg	16	no	57	0	862	6	4	antiphase_hc_sio.wav	1	6	4	noise_calib_stim_RIGHT.wav	2	14	blb_dichoticlistening_ga-da.mp3	ga	da	1	right
6.6.1	win	2023-06-12	20:32:08	20:42:07	595274	63d40f21ea1c311723c7c847	2	1	practice_z	22	practice_z	7	stimuli_target_diamondsquares.svg	stimuli_distractor_diamondtriangles.svg	3	yes	0	0	2000	6	4	antiphase_hc_sio.wav	1	6	4	noise_calib_stim_RIGHT.wav	2	14	blb_dichoticlistening_ga-da.mp3	ga	da	1	right
6.6.1	win	2023-06-12	20:32:08	20:42:07	595274	63d40f21ea1c311723c7c847	2	1	practice_z	22	advance_on_keypress_ZEE	8	stimuli_target_diamondsquares.svg	stimuli_distractor_diamondtriangles.svg	3	yes	57	0	825	6	4	antiphase_hc_sio.wav	1	6	4	noise_calib_stim_RIGHT.wav	2	14	blb_dichoticlistening_ga-da.mp3	ga	da	1	right
6.6.1	win	2023-06-12	20:32:08	20:42:10	598621	63d40f21ea1c311723c7c847	2	1	practice_z	22	practice_z	9	stimuli_target_squarediamonds.svg	stimuli_distractor_trianglediamonds.svg	5	yes	44	1	846	6	4	antiphase_hc_sio.wav	1	6	4	noise_calib_stim_RIGHT.wav	2	14	blb_dichoticlistening_ga-da.mp3	ga	da	1	right
6.6.1	win	2023-06-12	20:32:08	20:42:10	598621	63d40f21ea1c311723c7c847	2	1	practice_z	22	advance_on_keypress_ZEE	10	stimuli_target_squarediamonds.svg	stimuli_distractor_trianglediamonds.svg	5	yes	57	0	858	6	4	antiphase_hc_sio.wav	1	6	4	noise_calib_stim_RIGHT.wav	2	14	blb_dichoticlistening_ga-da.mp3	ga	da	1	right
6.6.1	win	2023-06-12	20:32:08	20:42:13	602063	63d40f21ea1c311723c7c847	2	1	practice_z	22	practice_z	11	stimuli_target_rectanglediamonds.svg	stimuli_distractor_diamondtriangles.svg	1	yes	44	1	910	6	4	antiphase_hc_sio.wav	1	6	4	noise_calib_stim_RIGHT.wav	2	14	blb_dichoticlistening_ga-da.mp3	ga	da	1	right
6.6.1	win	2023-06-12	20:32:08	20:42:13	602063	63d40f21ea1c311723c7c847	2	1	practice_z	22	advance_on_keypress_ZEE	12	stimuli_target_rectanglediamonds.svg	stimuli_distractor_diamondtriangles.svg	1	yes	57	0	536	6	4	antiphase_hc_sio.wav	1	6	4	noise_calib_stim_RIGHT.wav	2	14	blb_dichoticlistening_ga-da.mp3	ga	da	1	right
6.6.1	win	2023-06-12	20:32:08	20:42:16	605085	63d40f21ea1c311723c7c847	2	1	practice_z	22	practice_z	13	stimuli_distractor_diamondtriangles.svg	stimuli_target_rectangletriangles.svg	7	yes	44	1	809	6	4	antiphase_hc_sio.wav	1	6	4	noise_calib_stim_RIGHT.wav	2	14	blb_dichoticlistening_ga-da.mp3	ga	da	1	right
6.6.1	win	2023-06-12	20:32:08	20:42:16	605085	63d40f21ea1c311723c7c847	2	1	practice_z	22	advance_on_keypress_ZEE	14	stimuli_distractor_diamondtriangles.svg	stimuli_target_rectangletriangles.svg	7	yes	57	0	415	6	4	antiphase_hc_sio.wav	1	6	4	noise_calib_stim_RIGHT.wav	2	14	blb_dichoticlistening_ga-da.mp3	ga	da	1	right
6.6.1	win	2023-06-12	20:32:08	20:42:20	609170	63d40f21ea1c311723c7c847	2	1	practice_z	22	practice_z	15	stimuli_distractor_diamondtriangles.svg	stimuli_distractor_trianglediamonds.svg	14	no	0	1	2000	6	4	antiphase_hc_sio.wav	1	6	4	noise_calib_stim_RIGHT.wav	2	14	blb_dichoticlistening_ga-da.mp3	ga	da	1	right
6.6.1	win	2023-06-12	20:32:08	20:42:20	609170	63d40f21ea1c311723c7c847	2	1	practice_z	22	advance_on_keypress_ZEE	16	stimuli_distractor_diamondtriangles.svg	stimuli_distractor_trianglediamonds.svg	14	no	57	0	708	6	4	antiphase_hc_sio.wav	1	6	4	noise_calib_stim_RIGHT.wav	2	14	blb_dichoticlistening_ga-da.mp3	ga	da	1	right
6.6.1	win	2023-06-12	20:32:08	20:42:24	612335	63d40f21ea1c311723c7c847	2	1	practice_z	22	practice_z	17	stimuli_distractor_trianglediamonds.svg	stimuli_target_rectanglediamonds.svg	10	yes	44	1	814	6	4	antiphase_hc_sio.wav	1	6	4	noise_calib_stim_RIGHT.wav	2	14	blb_dichoticlistening_ga-da.mp3	ga	da	1	right
6.6.1	win	2023-06-12	20:32:08	20:42:24	612335	63d40f21ea1c311723c7c847	2	1	practice_z	22	advance_on_keypress_ZEE	18	stimuli_distractor_trianglediamonds.svg	stimuli_target_rectanglediamonds.svg	10	yes	57	0	525	6	4	antiphase_hc_sio.wav	1	6	4	noise_calib_stim_RIGHT.wav	2	14	blb_dichoticlistening_ga-da.mp3	ga	da	1	right
6.6.1	win	2023-06-12	20:32:08	20:42:28	616549	63d40f21ea1c311723c7c847	2	1	practice_z	22	practice_z	19	stimuli_distractor_diamondtriangles.svg	stimuli_target_diamondrectangles.svg	8	yes	0	0	2000	6	4	antiphase_hc_sio.wav	1	6	4	noise_calib_stim_RIGHT.wav	2	14	blb_dichoticlistening_ga-da.mp3	ga	da	1	right
6.6.1	win	2023-06-12	20:32:08	20:42:28	616549	63d40f21ea1c311723c7c847	2	1	practice_z	22	advance_on_keypress_ZEE	20	stimuli_distractor_diamondtriangles.svg	stimuli_target_diamondrectangles.svg	8	yes	57	0	388	6	4	antiphase_hc_sio.wav	1	6	4	noise_calib_stim_RIGHT.wav	2	14	blb_dichoticlistening_ga-da.mp3	ga	da	1	right
6.6.1	win	2023-06-12	20:32:08	20:42:31	619567	63d40f21ea1c311723c7c847	2	1	practice_z	22	practice_z	21	stimuli_target_diamondsquares.svg	stimuli_distractor_trianglediamonds.svg	6	yes	44	1	963	6	4	antiphase_hc_sio.wav	1	6	4	noise_calib_stim_RIGHT.wav	2	14	blb_dichoticlistening_ga-da.mp3	ga	da	1	right
6.6.1	win	2023-06-12	20:32:08	20:42:31	619567	63d40f21ea1c311723c7c847	2	1	practice_z	22	advance_on_keypress_ZEE	22	stimuli_target_diamondsquares.svg	stimuli_distractor_trianglediamonds.svg	6	yes	57	0	387	6	4	antiphase_hc_sio.wav	1	6	4	noise_calib_stim_RIGHT.wav	2	14	blb_dichoticlistening_ga-da.mp3	ga	da	1	right
6.6.1	win	2023-06-12	20:32:08	20:42:34	622610	63d40f21ea1c311723c7c847	2	1	practice_z	22	practice_z	23	stimuli_target_rectanglediamonds.svg	stimuli_distractor_trianglediamonds.svg	4	yes	44	1	986	6	4	antiphase_hc_sio.wav	1	6	4	noise_calib_stim_RIGHT.wav	2	14	blb_dichoticlistening_ga-da.mp3	ga	da	1	right
6.6.1	win	2023-06-12	20:32:08	20:42:34	622610	63d40f21ea1c311723c7c847	2	1	practice_z	22	advance_on_keypress_ZEE	24	stimuli_target_rectanglediamonds.svg	stimuli_distractor_trianglediamonds.svg	4	yes	57	0	370	6	4	antiphase_hc_sio.wav	1	6	4	noise_calib_stim_RIGHT.wav	2	14	blb_dichoticlistening_ga-da.mp3	ga	da	1	right
6.6.1	win	2023-06-12	20:32:08	20:42:37	625436	63d40f21ea1c311723c7c847	2	1	practice_z	22	practice_z	25	stimuli_distractor_trianglediamonds.svg	stimuli_target_squarediamonds.svg	11	yes	44	1	777	6	4	antiphase_hc_sio.wav	1	6	4	noise_calib_stim_RIGHT.wav	2	14	blb_dichoticlistening_ga-da.mp3	ga	da	1	right
6.6.1	win	2023-06-12	20:32:08	20:42:37	625436	63d40f21ea1c311723c7c847	2	1	practice_z	22	advance_on_keypress_ZEE	26	stimuli_distractor_trianglediamonds.svg	stimuli_target_squarediamonds.svg	11	yes	57	0	280	6	4	antiphase_hc_sio.wav	1	6	4	noise_calib_stim_RIGHT.wav	2	14	blb_dichoticlistening_ga-da.mp3	ga	da	1	right
6.6.1	win	2023-06-12	20:32:08	20:42:40	628204	63d40f21ea1c311723c7c847	2	1	practice_z	22	practice_z	27	stimuli_distractor_diamondtriangles.svg	stimuli_target_trianglerectangles.svg	9	yes	44	1	811	6	4	antiphase_hc_sio.wav	1	6	4	noise_calib_stim_RIGHT.wav	2	14	blb_dichoticlistening_ga-da.mp3	ga	da	1	right
6.6.1	win	2023-06-12	20:32:08	20:42:40	628204	63d40f21ea1c311723c7c847	2	1	practice_z	22	advance_on_keypress_ZEE	28	stimuli_distractor_diamondtriangles.svg	stimuli_target_trianglerectangles.svg	9	yes	57	0	361	6	4	antiphase_hc_sio.wav	1	6	4	noise_calib_stim_RIGHT.wav	2	14	blb_dichoticlistening_ga-da.mp3	ga	da	1	right
6.6.1	win	2023-06-12	20:32:08	20:42:42	630982	63d40f21ea1c311723c7c847	2	1	practice_z	22	practice_z	29	stimuli_distractor_trianglediamonds.svg	stimuli_target_diamondrectangles.svg	12	yes	44	1	745	6	4	antiphase_hc_sio.wav	1	6	4	noise_calib_stim_RIGHT.wav	2	14	blb_dichoticlistening_ga-da.mp3	ga	da	1	right
6.6.1	win	2023-06-12	20:32:08	20:42:42	630982	63d40f21ea1c311723c7c847	2	1	practice_z	22	advance_on_keypress_ZEE	30	stimuli_distractor_trianglediamonds.svg	stimuli_target_diamondrectangles.svg	12	yes	57	0	458	6	4	antiphase_hc_sio.wav	1	6	4	noise_calib_stim_RIGHT.wav	2	14	blb_dichoticlistening_ga-da.mp3	ga	da	1	right
6.6.1	win	2023-06-12	20:32:08	20:42:46	635126	63d40f21ea1c311723c7c847	2	1	practice_z	22	practice_z	31	stimuli_distractor_diamondtriangles.svg	stimuli_distractor_diamondtriangles.svg	13	no	0	1	2000	6	4	antiphase_hc_sio.wav	1	6	4	noise_calib_stim_RIGHT.wav	2	14	blb_dichoticlistening_ga-da.mp3	ga	da	1	right
6.6.1	win	2023-06-12	20:32:08	20:42:46	635126	63d40f21ea1c311723c7c847	2	1	practice_z	22	advance_on_keypress_ZEE	32	stimuli_distractor_diamondtriangles.svg	stimuli_distractor_diamondtriangles.svg	13	no	57	0	452	6	4	antiphase_hc_sio.wav	1	6	4	noise_calib_stim_RIGHT.wav	2	14	blb_dichoticlistening_ga-da.mp3	ga	da	1	right
6.6.1	win	2023-06-12	20:32:08	20:42:54	642455	63d40f21ea1c311723c7c847	2	1	main_z	24	main_z	1	stimuli_distractor_diamondtriangles.svg	stimuli_distractor_trianglediamonds.svg	37	no	0	1	2000	6	4	antiphase_hc_sio.wav	1	6	4	noise_calib_stim_RIGHT.wav	2	14	blb_dichoticlistening_ga-da.mp3	ga	da	1	right
6.6.1	win	2023-06-12	20:32:08	20:42:54	642455	63d40f21ea1c311723c7c847	2	1	main_z	24	advance_on_keypress_ZEE	2	stimuli_distractor_diamondtriangles.svg	stimuli_distractor_trianglediamonds.svg	37	no	57	0	655	6	4	antiphase_hc_sio.wav	1	6	4	noise_calib_stim_RIGHT.wav	2	14	blb_dichoticlistening_ga-da.mp3	ga	da	1	right
6.6.1	win	2023-06-12	20:32:08	20:42:56	644575	63d40f21ea1c311723c7c847	2	1	main_z	24	main_z	3	stimuli_distractor_trianglediamonds.svg	stimuli_target_trianglerectangles.svg	25	yes	44	1	793	6	4	antiphase_hc_sio.wav	1	6	4	noise_calib_stim_RIGHT.wav	2	14	blb_dichoticlistening_ga-da.mp3	ga	da	1	right
6.6.1	win	2023-06-12	20:32:08	20:42:56	644575	63d40f21ea1c311723c7c847	2	1	main_z	24	advance_on_keypress_ZEE	4	stimuli_distractor_trianglediamonds.svg	stimuli_target_trianglerectangles.svg	25	yes	57	0	754	6	4	antiphase_hc_sio.wav	1	6	4	noise_calib_stim_RIGHT.wav	2	14	blb_dichoticlistening_ga-da.mp3	ga	da	1	right
6.6.1	win	2023-06-12	20:32:08	20:42:58	646737	63d40f21ea1c311723c7c847	2	1	main_z	24	main_z	5	stimuli_distractor_trianglediamonds.svg	stimuli_target_squarediamonds.svg	12	yes	44	1	754	6	4	antiphase_hc_sio.wav	1	6	4	noise_calib_stim_RIGHT.wav	2	14	blb_dichoticlistening_ga-da.mp3	ga	da	1	right
6.6.1	win	2023-06-12	20:32:08	20:42:58	646737	63d40f21ea1c311723c7c847	2	1	main_z	24	advance_on_keypress_ZEE	6	stimuli_distractor_trianglediamonds.svg	stimuli_target_squarediamonds.svg	12	yes	57	0	467	6	4	antiphase_hc_sio.wav	1	6	4	noise_calib_stim_RIGHT.wav	2	14	blb_dichoticlistening_ga-da.mp3	ga	da	1	right
6.6.1	win	2023-06-12	20:32:08	20:43:00	648623	63d40f21ea1c311723c7c847	2	1	main_z	24	main_z	7	stimuli_target_diamondrectangles.svg	stimuli_distractor_diamondtriangles.svg	23	yes	44	1	767	6	4	antiphase_hc_sio.wav	1	6	4	noise_calib_stim_RIGHT.wav	2	14	blb_dichoticlistening_ga-da.mp3	ga	da	1	right
6.6.1	win	2023-06-12	20:32:08	20:43:00	648623	63d40f21ea1c311723c7c847	2	1	main_z	24	advance_on_keypress_ZEE	8	stimuli_target_diamondrectangles.svg	stimuli_distractor_diamondtriangles.svg	23	yes	57	0	416	6	4	antiphase_hc_sio.wav	1	6	4	noise_calib_stim_RIGHT.wav	2	14	blb_dichoticlistening_ga-da.mp3	ga	da	1	right
6.6.1	win	2023-06-12	20:32:08	20:43:02	650454	63d40f21ea1c311723c7c847	2	1	main_z	24	main_z	9	stimuli_target_diamondsquares.svg	stimuli_distractor_diamondtriangles.svg	24	yes	44	1	757	6	4	antiphase_hc_sio.wav	1	6	4	noise_calib_stim_RIGHT.wav	2	14	blb_dichoticlistening_ga-da.mp3	ga	da	1	right
6.6.1	win	2023-06-12	20:32:08	20:43:02	650454	63d40f21ea1c311723c7c847	2	1	main_z	24	advance_on_keypress_ZEE	10	stimuli_target_diamondsquares.svg	stimuli_distractor_diamondtriangles.svg	24	yes	57	0	398	6	4	antiphase_hc_sio.wav	1	6	4	noise_calib_stim_RIGHT.wav	2	14	blb_dichoticlistening_ga-da.mp3	ga	da	1	right
6.6.1	win	2023-06-12	20:32:08	20:43:04	652237	63d40f21ea1c311723c7c847	2	1	main_z	24	main_z	11	stimuli_distractor_trianglediamonds.svg	stimuli_target_rectanglediamonds.svg	10	yes	44	1	733	6	4	antiphase_hc_sio.wav	1	6	4	noise_calib_stim_RIGHT.wav	2	14	blb_dichoticlistening_ga-da.mp3	ga	da	1	right
6.6.1	win	2023-06-12	20:32:08	20:43:04	652237	63d40f21ea1c311723c7c847	2	1	main_z	24	advance_on_keypress_ZEE	12	stimuli_distractor_trianglediamonds.svg	stimuli_target_rectanglediamonds.svg	10	yes	57	0	335	6	4	antiphase_hc_sio.wav	1	6	4	noise_calib_stim_RIGHT.wav	2	14	blb_dichoticlistening_ga-da.mp3	ga	da	1	right
6.6.1	win	2023-06-12	20:32:08	20:43:05	654036	63d40f21ea1c311723c7c847	2	1	main_z	24	main_z	13	stimuli_distractor_diamondtriangles.svg	stimuli_target_trianglerectangles.svg	29	yes	44	1	800	6	4	antiphase_hc_sio.wav	1	6	4	noise_calib_stim_RIGHT.wav	2	14	blb_dichoticlistening_ga-da.mp3	ga	da	1	right
6.6.1	win	2023-06-12	20:32:08	20:43:05	654036	63d40f21ea1c311723c7c847	2	1	main_z	24	advance_on_keypress_ZEE	14	stimuli_distractor_diamondtriangles.svg	stimuli_target_trianglerectangles.svg	29	yes	57	0	279	6	4	antiphase_hc_sio.wav	1	6	4	noise_calib_stim_RIGHT.wav	2	14	blb_dichoticlistening_ga-da.mp3	ga	da	1	right
6.6.1	win	2023-06-12	20:32:08	20:43:07	656090	63d40f21ea1c311723c7c847	2	1	main_z	24	main_z	15	stimuli_distractor_diamondtriangles.svg	stimuli_target_squaretriangles.svg	15	yes	44	1	1103	6	4	antiphase_hc_sio.wav	1	6	4	noise_calib_stim_RIGHT.wav	2	14	blb_dichoticlistening_ga-da.mp3	ga	da	1	right
6.6.1	win	2023-06-12	20:32:08	20:43:07	656090	63d40f21ea1c311723c7c847	2	1	main_z	24	advance_on_keypress_ZEE	16	stimuli_distractor_diamondtriangles.svg	stimuli_target_squaretriangles.svg	15	yes	57	0	572	6	4	antiphase_hc_sio.wav	1	6	4	noise_calib_stim_RIGHT.wav	2	14	blb_dichoticlistening_ga-da.mp3	ga	da	1	right
6.6.1	win	2023-06-12	20:32:08	20:43:09	658125	63d40f21ea1c311723c7c847	2	1	main_z	24	main_z	17	stimuli_target_trianglerectangles.svg	stimuli_distractor_trianglediamonds.svg	17	yes	44	1	788	6	4	antiphase_hc_sio.wav	1	6	4	noise_calib_stim_RIGHT.wav	2	14	blb_dichoticlistening_ga-da.mp3	ga	da	1	right
6.6.1	win	2023-06-12	20:32:08	20:43:09	658125	63d40f21ea1c311723c7c847	2	1	main_z	24	advance_on_keypress_ZEE	18	stimuli_target_trianglerectangles.svg	stimuli_distractor_trianglediamonds.svg	17	yes	57	0	307	6	4	antiphase_hc_sio.wav	1	6	4	noise_calib_stim_RIGHT.wav	2	14	blb_dichoticlistening_ga-da.mp3	ga	da	1	right
6.6.1	win	2023-06-12	20:32:08	20:43:12	661090	63d40f21ea1c311723c7c847	2	1	main_z	24	main_z	19	stimuli_distractor_diamondtriangles.svg	stimuli_distractor_diamondtriangles.svg	40	no	0	1	2000	6	4	antiphase_hc_sio.wav	1	6	4	noise_calib_stim_RIGHT.wav	2	14	blb_dichoticlistening_ga-da.mp3	ga	da	1	right
6.6.1	win	2023-06-12	20:32:08	20:43:12	661090	63d40f21ea1c311723c7c847	2	1	main_z	24	advance_on_keypress_ZEE	20	stimuli_distractor_diamondtriangles.svg	stimuli_distractor_diamondtriangles.svg	40	no	57	0	428	6	4	antiphase_hc_sio.wav	1	6	4	noise_calib_stim_RIGHT.wav	2	14	blb_dichoticlistening_ga-da.mp3	ga	da	1	right
6.6.1	win	2023-06-12	20:32:08	20:43:14	662973	63d40f21ea1c311723c7c847	2	1	main_z	24	main_z	21	stimuli_distractor_diamondtriangles.svg	stimuli_target_rectanglediamonds.svg	14	yes	44	1	793	6	4	antiphase_hc_sio.wav	1	6	4	noise_calib_stim_RIGHT.wav	2	14	blb_dichoticlistening_ga-da.mp3	ga	da	1	right
6.6.1	win	2023-06-12	20:32:08	20:43:14	662973	63d40f21ea1c311723c7c847	2	1	main_z	24	advance_on_keypress_ZEE	22	stimuli_distractor_diamondtriangles.svg	stimuli_target_rectanglediamonds.svg	14	yes	57	0	265	6	4	antiphase_hc_sio.wav	1	6	4	noise_calib_stim_RIGHT.wav	2	14	blb_dichoticlistening_ga-da.mp3	ga	da	1	right
6.6.1	win	2023-06-12	20:32:08	20:43:16	664825	63d40f21ea1c311723c7c847	2	1	main_z	24	main_z	23	stimuli_distractor_trianglediamonds.svg	stimuli_target_diamondrectangles.svg	27	yes	44	1	924	6	4	antiphase_hc_sio.wav	1	6	4	noise_calib_stim_RIGHT.wav	2	14	blb_dichoticlistening_ga-da.mp3	ga	da	1	right
6.6.1	win	2023-06-12	20:32:08	20:43:16	664825	63d40f21ea1c311723c7c847	2	1	main_z	24	advance_on_keypress_ZEE	24	stimuli_distractor_trianglediamonds.svg	stimuli_target_diamondrectangles.svg	27	yes	57	0	223	6	4	antiphase_hc_sio.wav	1	6	4	noise_calib_stim_RIGHT.wav	2	14	blb_dichoticlistening_ga-da.mp3	ga	da	1	right
6.6.1	win	2023-06-12	20:32:08	20:43:18	666495	63d40f21ea1c311723c7c847	2	1	main_z	24	main_z	25	stimuli_distractor_trianglediamonds.svg	stimuli_target_trianglesquares.svg	26	yes	44	1	805	6	4	antiphase_hc_sio.wav	1	6	4	noise_calib_stim_RIGHT.wav	2	14	blb_dichoticlistening_ga-da.mp3	ga	da	1	right
6.6.1	win	2023-06-12	20:32:08	20:43:18	666495	63d40f21ea1c311723c7c847	2	1	main_z	24	advance_on_keypress_ZEE	26	stimuli_distractor_trianglediamonds.svg	stimuli_target_trianglesquares.svg	26	yes	57	0	204	6	4	antiphase_hc_sio.wav	1	6	4	noise_calib_stim_RIGHT.wav	2	14	blb_dichoticlistening_ga-da.mp3	ga	da	1	right
6.6.1	win	2023-06-12	20:32:08	20:43:20	668253	63d40f21ea1c311723c7c847	2	1	main_z	24	main_z	27	stimuli_distractor_trianglediamonds.svg	stimuli_target_rectangletriangles.svg	9	yes	44	1	914	6	4	antiphase_hc_sio.wav	1	6	4	noise_calib_stim_RIGHT.wav	2	14	blb_dichoticlistening_ga-da.mp3	ga	da	1	right
6.6.1	win	2023-06-12	20:32:08	20:43:20	668253	63d40f21ea1c311723c7c847	2	1	main_z	24	advance_on_keypress_ZEE	28	stimuli_distractor_trianglediamonds.svg	stimuli_target_rectangletriangles.svg	9	yes	57	0	189	6	4	antiphase_hc_sio.wav	1	6	4	noise_calib_stim_RIGHT.wav	2	14	blb_dichoticlistening_ga-da.mp3	ga	da	1	right
6.6.1	win	2023-06-12	20:32:08	20:43:21	669889	63d40f21ea1c311723c7c847	2	1	main_z	24	main_z	29	stimuli_distractor_diamondtriangles.svg	stimuli_target_squarediamonds.svg	16	yes	44	1	772	6	4	antiphase_hc_sio.wav	1	6	4	noise_calib_stim_RIGHT.wav	2	14	blb_dichoticlistening_ga-da.mp3	ga	da	1	right
6.6.1	win	2023-06-12	20:32:08	20:43:21	669889	63d40f21ea1c311723c7c847	2	1	main_z	24	advance_on_keypress_ZEE	30	stimuli_distractor_diamondtriangles.svg	stimuli_target_squarediamonds.svg	16	yes	57	0	212	6	4	antiphase_hc_sio.wav	1	6	4	noise_calib_stim_RIGHT.wav	2	14	blb_dichoticlistening_ga-da.mp3	ga	da	1	right
6.6.1	win	2023-06-12	20:32:08	20:43:23	671601	63d40f21ea1c311723c7c847	2	1	main_z	24	main_z	31	stimuli_distractor_diamondtriangles.svg	stimuli_target_diamondsquares.svg	32	yes	44	1	842	6	4	antiphase_hc_sio.wav	1	6	4	noise_calib_stim_RIGHT.wav	2	14	blb_dichoticlistening_ga-da.mp3	ga	da	1	right
6.6.1	win	2023-06-12	20:32:08	20:43:23	671601	63d40f21ea1c311723c7c847	2	1	main_z	24	advance_on_keypress_ZEE	32	stimuli_distractor_diamondtriangles.svg	stimuli_target_diamondsquares.svg	32	yes	57	0	159	6	4	antiphase_hc_sio.wav	1	6	4	noise_calib_stim_RIGHT.wav	2	14	blb_dichoticlistening_ga-da.mp3	ga	da	1	right
6.6.1	win	2023-06-12	20:32:08	20:43:26	674428	63d40f21ea1c311723c7c847	2	1	main_z	24	main_z	33	stimuli_distractor_diamondtriangles.svg	stimuli_distractor_trianglediamonds.svg	38	no	0	1	2000	6	4	antiphase_hc_sio.wav	1	6	4	noise_calib_stim_RIGHT.wav	2	14	blb_dichoticlistening_ga-da.mp3	ga	da	1	right
6.6.1	win	2023-06-12	20:32:08	20:43:26	674428	63d40f21ea1c311723c7c847	2	1	main_z	24	advance_on_keypress_ZEE	34	stimuli_distractor_diamondtriangles.svg	stimuli_distractor_trianglediamonds.svg	38	no	57	0	382	6	4	antiphase_hc_sio.wav	1	6	4	noise_calib_stim_RIGHT.wav	2	14	blb_dichoticlistening_ga-da.mp3	ga	da	1	right
6.6.1	win	2023-06-12	20:32:08	20:43:27	676158	63d40f21ea1c311723c7c847	2	1	main_z	24	main_z	35	stimuli_target_rectanglediamonds.svg	stimuli_distractor_diamondtriangles.svg	6	yes	44	1	700	6	4	antiphase_hc_sio.wav	1	6	4	noise_calib_stim_RIGHT.wav	2	14	blb_dichoticlistening_ga-da.mp3	ga	da	1	right
6.6.1	win	2023-06-12	20:32:08	20:43:27	676158	63d40f21ea1c311723c7c847	2	1	main_z	24	advance_on_keypress_ZEE	36	stimuli_target_rectanglediamonds.svg	stimuli_distractor_diamondtriangles.svg	6	yes	57	0	265	6	4	antiphase_hc_sio.wav	1	6	4	noise_calib_stim_RIGHT.wav	2	14	blb_dichoticlistening_ga-da.mp3	ga	da	1	right
6.6.1	win	2023-06-12	20:32:08	20:43:29	677879	63d40f21ea1c311723c7c847	2	1	main_z	24	main_z	37	stimuli_target_squaretriangles.svg	stimuli_distractor_diamondtriangles.svg	7	yes	44	1	805	6	4	antiphase_hc_sio.wav	1	6	4	noise_calib_stim_RIGHT.wav	2	14	blb_dichoticlistening_ga-da.mp3	ga	da	1	right
6.6.1	win	2023-06-12	20:32:08	20:43:29	677879	63d40f21ea1c311723c7c847	2	1	main_z	24	advance_on_keypress_ZEE	38	stimuli_target_squaretriangles.svg	stimuli_distractor_diamondtriangles.svg	7	yes	57	0	164	6	4	antiphase_hc_sio.wav	1	6	4	noise_calib_stim_RIGHT.wav	2	14	blb_dichoticlistening_ga-da.mp3	ga	da	1	right
6.6.1	win	2023-06-12	20:32:08	20:43:31	679540	63d40f21ea1c311723c7c847	2	1	main_z	24	main_z	39	stimuli_target_rectangletriangles.svg	stimuli_distractor_diamondtriangles.svg	5	yes	44	1	852	6	4	antiphase_hc_sio.wav	1	6	4	noise_calib_stim_RIGHT.wav	2	14	blb_dichoticlistening_ga-da.mp3	ga	da	1	right
6.6.1	win	2023-06-12	20:32:08	20:43:31	679540	63d40f21ea1c311723c7c847	2	1	main_z	24	advance_on_keypress_ZEE	40	stimuli_target_rectangletriangles.svg	stimuli_distractor_diamondtriangles.svg	5	yes	57	0	160	6	4	antiphase_hc_sio.wav	1	6	4	noise_calib_stim_RIGHT.wav	2	14	blb_dichoticlistening_ga-da.mp3	ga	da	1	right
6.6.1	win	2023-06-12	20:32:08	20:43:32	681162	63d40f21ea1c311723c7c847	2	1	main_z	24	main_z	41	stimuli_target_squaretriangles.svg	stimuli_distractor_trianglediamonds.svg	3	yes	44	1	801	6	4	antiphase_hc_sio.wav	1	6	4	noise_calib_stim_RIGHT.wav	2	14	blb_dichoticlistening_ga-da.mp3	ga	da	1	right
6.6.1	win	2023-06-12	20:32:08	20:43:32	681162	63d40f21ea1c311723c7c847	2	1	main_z	24	advance_on_keypress_ZEE	42	stimuli_target_squaretriangles.svg	stimuli_distractor_trianglediamonds.svg	3	yes	57	0	176	6	4	antiphase_hc_sio.wav	1	6	4	noise_calib_stim_RIGHT.wav	2	14	blb_dichoticlistening_ga-da.mp3	ga	da	1	right
6.6.1	win	2023-06-12	20:32:08	20:43:34	682819	63d40f21ea1c311723c7c847	2	1	main_z	24	main_z	43	stimuli_distractor_trianglediamonds.svg	stimuli_target_diamondsquares.svg	28	yes	44	1	832	6	4	antiphase_hc_sio.wav	1	6	4	noise_calib_stim_RIGHT.wav	2	14	blb_dichoticlistening_ga-da.mp3	ga	da	1	right
6.6.1	win	2023-06-12	20:32:08	20:43:34	682819	63d40f21ea1c311723c7c847	2	1	main_z	24	advance_on_keypress_ZEE	44	stimuli_distractor_trianglediamonds.svg	stimuli_target_diamondsquares.svg	28	yes	57	0	150	6	4	antiphase_hc_sio.wav	1	6	4	noise_calib_stim_RIGHT.wav	2	14	blb_dichoticlistening_ga-da.mp3	ga	da	1	right
6.6.1	win	2023-06-12	20:32:08	20:43:36	684414	63d40f21ea1c311723c7c847	2	1	main_z	24	main_z	45	stimuli_target_squarediamonds.svg	stimuli_distractor_trianglediamonds.svg	4	yes	44	1	790	6	4	antiphase_hc_sio.wav	1	6	4	noise_calib_stim_RIGHT.wav	2	14	blb_dichoticlistening_ga-da.mp3	ga	da	1	right
6.6.1	win	2023-06-12	20:32:08	20:43:36	684414	63d40f21ea1c311723c7c847	2	1	main_z	24	advance_on_keypress_ZEE	46	stimuli_target_squarediamonds.svg	stimuli_distractor_trianglediamonds.svg	4	yes	57	0	158	6	4	antiphase_hc_sio.wav	1	6	4	noise_calib_stim_RIGHT.wav	2	14	blb_dichoticlistening_ga-da.mp3	ga	da	1	right
6.6.1	win	2023-06-12	20:32:08	20:43:39	687233	63d40f21ea1c311723c7c847	2	1	main_z	24	main_z	47	stimuli_distractor_trianglediamonds.svg	stimuli_distractor_diamondtriangles.svg	35	no	0	1	2000	6	4	antiphase_hc_sio.wav	1	6	4	noise_calib_stim_RIGHT.wav	2	14	blb_dichoticlistening_ga-da.mp3	ga	da	1	right
6.6.1	win	2023-06-12	20:32:08	20:43:39	687233	63d40f21ea1c311723c7c847	2	1	main_z	24	advance_on_keypress_ZEE	48	stimuli_distractor_trianglediamonds.svg	stimuli_distractor_diamondtriangles.svg	35	no	57	0	309	6	4	antiphase_hc_sio.wav	1	6	4	noise_calib_stim_RIGHT.wav	2	14	blb_dichoticlistening_ga-da.mp3	ga	da	1	right
6.6.1	win	2023-06-12	20:32:08	20:43:42	690209	63d40f21ea1c311723c7c847	2	1	main_z	24	main_z	49	stimuli_distractor_diamondtriangles.svg	stimuli_distractor_diamondtriangles.svg	39	no	0	1	2000	6	4	antiphase_hc_sio.wav	1	6	4	noise_calib_stim_RIGHT.wav	2	14	blb_dichoticlistening_ga-da.mp3	ga	da	1	right
6.6.1	win	2023-06-12	20:32:08	20:43:42	690209	63d40f21ea1c311723c7c847	2	1	main_z	24	advance_on_keypress_ZEE	50	stimuli_distractor_diamondtriangles.svg	stimuli_distractor_diamondtriangles.svg	39	no	57	0	318	6	4	antiphase_hc_sio.wav	1	6	4	noise_calib_stim_RIGHT.wav	2	14	blb_dichoticlistening_ga-da.mp3	ga	da	1	right
6.6.1	win	2023-06-12	20:32:08	20:43:45	693198	63d40f21ea1c311723c7c847	2	1	main_z	24	main_z	51	stimuli_distractor_trianglediamonds.svg	stimuli_distractor_diamondtriangles.svg	36	no	0	1	2000	6	4	antiphase_hc_sio.wav	1	6	4	noise_calib_stim_RIGHT.wav	2	14	blb_dichoticlistening_ga-da.mp3	ga	da	1	right
6.6.1	win	2023-06-12	20:32:08	20:43:45	693198	63d40f21ea1c311723c7c847	2	1	main_z	24	advance_on_keypress_ZEE	52	stimuli_distractor_trianglediamonds.svg	stimuli_distractor_diamondtriangles.svg	36	no	57	0	366	6	4	antiphase_hc_sio.wav	1	6	4	noise_calib_stim_RIGHT.wav	2	14	blb_dichoticlistening_ga-da.mp3	ga	da	1	right
6.6.1	win	2023-06-12	20:32:08	20:43:46	694959	63d40f21ea1c311723c7c847	2	1	main_z	24	main_z	53	stimuli_distractor_diamondtriangles.svg	stimuli_target_rectangletriangles.svg	13	yes	44	1	742	6	4	antiphase_hc_sio.wav	1	6	4	noise_calib_stim_RIGHT.wav	2	14	blb_dichoticlistening_ga-da.mp3	ga	da	1	right
6.6.1	win	2023-06-12	20:32:08	20:43:46	694959	63d40f21ea1c311723c7c847	2	1	main_z	24	advance_on_keypress_ZEE	54	stimuli_distractor_diamondtriangles.svg	stimuli_target_rectangletriangles.svg	13	yes	57	0	216	6	4	antiphase_hc_sio.wav	1	6	4	noise_calib_stim_RIGHT.wav	2	14	blb_dichoticlistening_ga-da.mp3	ga	da	1	right
6.6.1	win	2023-06-12	20:32:08	20:43:48	696650	63d40f21ea1c311723c7c847	2	1	main_z	24	main_z	55	stimuli_target_trianglesquares.svg	stimuli_distractor_diamondtriangles.svg	22	yes	44	1	814	6	4	antiphase_hc_sio.wav	1	6	4	noise_calib_stim_RIGHT.wav	2	14	blb_dichoticlistening_ga-da.mp3	ga	da	1	right
6.6.1	win	2023-06-12	20:32:08	20:43:48	696650	63d40f21ea1c311723c7c847	2	1	main_z	24	advance_on_keypress_ZEE	56	stimuli_target_trianglesquares.svg	stimuli_distractor_diamondtriangles.svg	22	yes	57	0	178	6	4	antiphase_hc_sio.wav	1	6	4	noise_calib_stim_RIGHT.wav	2	14	blb_dichoticlistening_ga-da.mp3	ga	da	1	right
6.6.1	win	2023-06-12	20:32:08	20:43:50	698304	63d40f21ea1c311723c7c847	2	1	main_z	24	main_z	57	stimuli_distractor_diamondtriangles.svg	stimuli_target_diamondrectangles.svg	31	yes	44	1	811	6	4	antiphase_hc_sio.wav	1	6	4	noise_calib_stim_RIGHT.wav	2	14	blb_dichoticlistening_ga-da.mp3	ga	da	1	right
6.6.1	win	2023-06-12	20:32:08	20:43:50	698304	63d40f21ea1c311723c7c847	2	1	main_z	24	advance_on_keypress_ZEE	58	stimuli_distractor_diamondtriangles.svg	stimuli_target_diamondrectangles.svg	31	yes	57	0	121	6	4	antiphase_hc_sio.wav	1	6	4	noise_calib_stim_RIGHT.wav	2	14	blb_dichoticlistening_ga-da.mp3	ga	da	1	right
6.6.1	win	2023-06-12	20:32:08	20:43:51	699901	63d40f21ea1c311723c7c847	2	1	main_z	24	main_z	59	stimuli_target_diamondsquares.svg	stimuli_distractor_trianglediamonds.svg	20	yes	44	1	819	6	4	antiphase_hc_sio.wav	1	6	4	noise_calib_stim_RIGHT.wav	2	14	blb_dichoticlistening_ga-da.mp3	ga	da	1	right
6.6.1	win	2023-06-12	20:32:08	20:43:51	699901	63d40f21ea1c311723c7c847	2	1	main_z	24	advance_on_keypress_ZEE	60	stimuli_target_diamondsquares.svg	stimuli_distractor_trianglediamonds.svg	20	yes	57	0	128	6	4	antiphase_hc_sio.wav	1	6	4	noise_calib_stim_RIGHT.wav	2	14	blb_dichoticlistening_ga-da.mp3	ga	da	1	right
6.6.1	win	2023-06-12	20:32:08	20:43:53	701513	63d40f21ea1c311723c7c847	2	1	main_z	24	main_z	61	stimuli_distractor_diamondtriangles.svg	stimuli_target_trianglesquares.svg	30	yes	44	1	811	6	4	antiphase_hc_sio.wav	1	6	4	noise_calib_stim_RIGHT.wav	2	14	blb_dichoticlistening_ga-da.mp3	ga	da	1	right
6.6.1	win	2023-06-12	20:32:08	20:43:53	701513	63d40f21ea1c311723c7c847	2	1	main_z	24	advance_on_keypress_ZEE	62	stimuli_distractor_diamondtriangles.svg	stimuli_target_trianglesquares.svg	30	yes	57	0	161	6	4	antiphase_hc_sio.wav	1	6	4	noise_calib_stim_RIGHT.wav	2	14	blb_dichoticlistening_ga-da.mp3	ga	da	1	right
6.6.1	win	2023-06-12	20:32:08	20:43:56	704338	63d40f21ea1c311723c7c847	2	1	main_z	24	main_z	63	stimuli_distractor_trianglediamonds.svg	stimuli_distractor_trianglediamonds.svg	33	no	0	1	2000	6	4	antiphase_hc_sio.wav	1	6	4	noise_calib_stim_RIGHT.wav	2	14	blb_dichoticlistening_ga-da.mp3	ga	da	1	right
6.6.1	win	2023-06-12	20:32:08	20:43:56	704338	63d40f21ea1c311723c7c847	2	1	main_z	24	advance_on_keypress_ZEE	64	stimuli_distractor_trianglediamonds.svg	stimuli_distractor_trianglediamonds.svg	33	no	57	0	1024	6	4	antiphase_hc_sio.wav	1	6	4	noise_calib_stim_RIGHT.wav	2	14	blb_dichoticlistening_ga-da.mp3	ga	da	1	right
6.6.1	win	2023-06-12	20:32:08	20:43:58	706827	63d40f21ea1c311723c7c847	2	1	main_z	24	main_z	65	stimuli_target_squarediamonds.svg	stimuli_distractor_diamondtriangles.svg	8	yes	44	1	789	6	4	antiphase_hc_sio.wav	1	6	4	noise_calib_stim_RIGHT.wav	2	14	blb_dichoticlistening_ga-da.mp3	ga	da	1	right
6.6.1	win	2023-06-12	20:32:08	20:43:58	706827	63d40f21ea1c311723c7c847	2	1	main_z	24	advance_on_keypress_ZEE	66	stimuli_target_squarediamonds.svg	stimuli_distractor_diamondtriangles.svg	8	yes	57	0	180	6	4	antiphase_hc_sio.wav	1	6	4	noise_calib_stim_RIGHT.wav	2	14	blb_dichoticlistening_ga-da.mp3	ga	da	1	right
6.6.1	win	2023-06-12	20:32:08	20:44:00	708496	63d40f21ea1c311723c7c847	2	1	main_z	24	main_z	67	stimuli_target_rectangletriangles.svg	stimuli_distractor_trianglediamonds.svg	1	yes	44	1	836	6	4	antiphase_hc_sio.wav	1	6	4	noise_calib_stim_RIGHT.wav	2	14	blb_dichoticlistening_ga-da.mp3	ga	da	1	right
6.6.1	win	2023-06-12	20:32:08	20:44:00	708496	63d40f21ea1c311723c7c847	2	1	main_z	24	advance_on_keypress_ZEE	68	stimuli_target_rectangletriangles.svg	stimuli_distractor_trianglediamonds.svg	1	yes	57	0	152	6	4	antiphase_hc_sio.wav	1	6	4	noise_calib_stim_RIGHT.wav	2	14	blb_dichoticlistening_ga-da.mp3	ga	da	1	right
6.6.1	win	2023-06-12	20:32:08	20:44:01	710114	63d40f21ea1c311723c7c847	2	1	main_z	24	main_z	69	stimuli_distractor_trianglediamonds.svg	stimuli_distractor_trianglediamonds.svg	34	no	44	0	810	6	4	antiphase_hc_sio.wav	1	6	4	noise_calib_stim_RIGHT.wav	2	14	blb_dichoticlistening_ga-da.mp3	ga	da	1	right
6.6.1	win	2023-06-12	20:32:08	20:44:01	710114	63d40f21ea1c311723c7c847	2	1	main_z	24	advance_on_keypress_ZEE	70	stimuli_distractor_trianglediamonds.svg	stimuli_distractor_trianglediamonds.svg	34	no	57	0	136	6	4	antiphase_hc_sio.wav	1	6	4	noise_calib_stim_RIGHT.wav	2	14	blb_dichoticlistening_ga-da.mp3	ga	da	1	right
6.6.1	win	2023-06-12	20:32:08	20:44:03	711715	63d40f21ea1c311723c7c847	2	1	main_z	24	main_z	71	stimuli_target_trianglesquares.svg	stimuli_distractor_trianglediamonds.svg	18	yes	44	1	792	6	4	antiphase_hc_sio.wav	1	6	4	noise_calib_stim_RIGHT.wav	2	14	blb_dichoticlistening_ga-da.mp3	ga	da	1	right
6.6.1	win	2023-06-12	20:32:08	20:44:03	711715	63d40f21ea1c311723c7c847	2	1	main_z	24	advance_on_keypress_ZEE	72	stimuli_target_trianglesquares.svg	stimuli_distractor_trianglediamonds.svg	18	yes	57	0	136	6	4	antiphase_hc_sio.wav	1	6	4	noise_calib_stim_RIGHT.wav	2	14	blb_dichoticlistening_ga-da.mp3	ga	da	1	right
6.6.1	win	2023-06-12	20:32:08	20:44:05	713295	63d40f21ea1c311723c7c847	2	1	main_z	24	main_z	73	stimuli_target_diamondrectangles.svg	stimuli_distractor_trianglediamonds.svg	19	yes	44	1	777	6	4	antiphase_hc_sio.wav	1	6	4	noise_calib_stim_RIGHT.wav	2	14	blb_dichoticlistening_ga-da.mp3	ga	da	1	right
6.6.1	win	2023-06-12	20:32:08	20:44:05	713295	63d40f21ea1c311723c7c847	2	1	main_z	24	advance_on_keypress_ZEE	74	stimuli_target_diamondrectangles.svg	stimuli_distractor_trianglediamonds.svg	19	yes	57	0	161	6	4	antiphase_hc_sio.wav	1	6	4	noise_calib_stim_RIGHT.wav	2	14	blb_dichoticlistening_ga-da.mp3	ga	da	1	right
6.6.1	win	2023-06-12	20:32:08	20:44:06	715175	63d40f21ea1c311723c7c847	2	1	main_z	24	main_z	75	stimuli_distractor_trianglediamonds.svg	stimuli_target_squaretriangles.svg	11	yes	44	1	1057	6	4	antiphase_hc_sio.wav	1	6	4	noise_calib_stim_RIGHT.wav	2	14	blb_dichoticlistening_ga-da.mp3	ga	da	1	right
6.6.1	win	2023-06-12	20:32:08	20:44:06	715175	63d40f21ea1c311723c7c847	2	1	main_z	24	advance_on_keypress_ZEE	76	stimuli_distractor_trianglediamonds.svg	stimuli_target_squaretriangles.svg	11	yes	57	0	182	6	4	antiphase_hc_sio.wav	1	6	4	noise_calib_stim_RIGHT.wav	2	14	blb_dichoticlistening_ga-da.mp3	ga	da	1	right
6.6.1	win	2023-06-12	20:32:08	20:44:08	716863	63d40f21ea1c311723c7c847	2	1	main_z	24	main_z	77	stimuli_target_trianglerectangles.svg	stimuli_distractor_diamondtriangles.svg	21	yes	44	1	853	6	4	antiphase_hc_sio.wav	1	6	4	noise_calib_stim_RIGHT.wav	2	14	blb_dichoticlistening_ga-da.mp3	ga	da	1	right
6.6.1	win	2023-06-12	20:32:08	20:44:08	716863	63d40f21ea1c311723c7c847	2	1	main_z	24	advance_on_keypress_ZEE	78	stimuli_target_trianglerectangles.svg	stimuli_distractor_diamondtriangles.svg	21	yes	57	0	202	6	4	antiphase_hc_sio.wav	1	6	4	noise_calib_stim_RIGHT.wav	2	14	blb_dichoticlistening_ga-da.mp3	ga	da	1	right
6.6.1	win	2023-06-12	20:32:08	20:44:10	718515	63d40f21ea1c311723c7c847	2	1	main_z	24	main_z	79	stimuli_target_rectanglediamonds.svg	stimuli_distractor_trianglediamonds.svg	2	yes	44	1	793	6	4	antiphase_hc_sio.wav	1	6	4	noise_calib_stim_RIGHT.wav	2	14	blb_dichoticlistening_ga-da.mp3	ga	da	1	right
6.6.1	win	2023-06-12	20:32:08	20:44:10	718515	63d40f21ea1c311723c7c847	2	1	main_z	24	advance_on_keypress_ZEE	80	stimuli_target_rectanglediamonds.svg	stimuli_distractor_trianglediamonds.svg	2	yes	57	0	176	6	4	antiphase_hc_sio.wav	1	6	4	noise_calib_stim_RIGHT.wav	2	14	blb_dichoticlistening_ga-da.mp3	ga	da	1	right
6.6.1	win	2023-06-12	20:32:08	20:44:11	720105	63d40f21ea1c311723c7c847	2	1	main_z	24	main_z	81	stimuli_distractor_diamondtriangles.svg	stimuli_target_diamondsquares.svg	32	yes	44	1	768	6	4	antiphase_hc_sio.wav	1	6	4	noise_calib_stim_RIGHT.wav	2	14	blb_dichoticlistening_ga-da.mp3	ga	da	1	right
6.6.1	win	2023-06-12	20:32:08	20:44:11	720105	63d40f21ea1c311723c7c847	2	1	main_z	24	advance_on_keypress_ZEE	82	stimuli_distractor_diamondtriangles.svg	stimuli_target_diamondsquares.svg	32	yes	57	0	127	6	4	antiphase_hc_sio.wav	1	6	4	noise_calib_stim_RIGHT.wav	2	14	blb_dichoticlistening_ga-da.mp3	ga	da	1	right
6.6.1	win	2023-06-12	20:32:08	20:44:13	721700	63d40f21ea1c311723c7c847	2	1	main_z	24	main_z	83	stimuli_target_rectangletriangles.svg	stimuli_distractor_trianglediamonds.svg	1	yes	44	1	793	6	4	antiphase_hc_sio.wav	1	6	4	noise_calib_stim_RIGHT.wav	2	14	blb_dichoticlistening_ga-da.mp3	ga	da	1	right
6.6.1	win	2023-06-12	20:32:08	20:44:13	721700	63d40f21ea1c311723c7c847	2	1	main_z	24	advance_on_keypress_ZEE	84	stimuli_target_rectangletriangles.svg	stimuli_distractor_trianglediamonds.svg	1	yes	57	0	168	6	4	antiphase_hc_sio.wav	1	6	4	noise_calib_stim_RIGHT.wav	2	14	blb_dichoticlistening_ga-da.mp3	ga	da	1	right
6.6.1	win	2023-06-12	20:32:08	20:44:15	723294	63d40f21ea1c311723c7c847	2	1	main_z	24	main_z	85	stimuli_distractor_trianglediamonds.svg	stimuli_distractor_diamondtriangles.svg	36	no	44	0	785	6	4	antiphase_hc_sio.wav	1	6	4	noise_calib_stim_RIGHT.wav	2	14	blb_dichoticlistening_ga-da.mp3	ga	da	1	right
6.6.1	win	2023-06-12	20:32:08	20:44:15	723294	63d40f21ea1c311723c7c847	2	1	main_z	24	advance_on_keypress_ZEE	86	stimuli_distractor_trianglediamonds.svg	stimuli_distractor_diamondtriangles.svg	36	no	57	0	161	6	4	antiphase_hc_sio.wav	1	6	4	noise_calib_stim_RIGHT.wav	2	14	blb_dichoticlistening_ga-da.mp3	ga	da	1	right
6.6.1	win	2023-06-12	20:32:08	20:44:16	725029	63d40f21ea1c311723c7c847	2	1	main_z	24	main_z	87	stimuli_distractor_trianglediamonds.svg	stimuli_target_rectangletriangles.svg	9	yes	44	1	905	6	4	antiphase_hc_sio.wav	1	6	4	noise_calib_stim_RIGHT.wav	2	14	blb_dichoticlistening_ga-da.mp3	ga	da	1	right
6.6.1	win	2023-06-12	20:32:08	20:44:16	725029	63d40f21ea1c311723c7c847	2	1	main_z	24	advance_on_keypress_ZEE	88	stimuli_distractor_trianglediamonds.svg	stimuli_target_rectangletriangles.svg	9	yes	57	0	155	6	4	antiphase_hc_sio.wav	1	6	4	noise_calib_stim_RIGHT.wav	2	14	blb_dichoticlistening_ga-da.mp3	ga	da	1	right
6.6.1	win	2023-06-12	20:32:08	20:44:18	726610	63d40f21ea1c311723c7c847	2	1	main_z	24	main_z	89	stimuli_distractor_trianglediamonds.svg	stimuli_target_trianglesquares.svg	26	yes	44	1	780	6	4	antiphase_hc_sio.wav	1	6	4	noise_calib_stim_RIGHT.wav	2	14	blb_dichoticlistening_ga-da.mp3	ga	da	1	right
6.6.1	win	2023-06-12	20:32:08	20:44:18	726610	63d40f21ea1c311723c7c847	2	1	main_z	24	advance_on_keypress_ZEE	90	stimuli_distractor_trianglediamonds.svg	stimuli_target_trianglesquares.svg	26	yes	57	0	156	6	4	antiphase_hc_sio.wav	1	6	4	noise_calib_stim_RIGHT.wav	2	14	blb_dichoticlistening_ga-da.mp3	ga	da	1	right
6.6.1	win	2023-06-12	20:32:08	20:44:19	728149	63d40f21ea1c311723c7c847	2	1	main_z	24	main_z	91	stimuli_target_trianglerectangles.svg	stimuli_distractor_trianglediamonds.svg	17	yes	44	1	740	6	4	antiphase_hc_sio.wav	1	6	4	noise_calib_stim_RIGHT.wav	2	14	blb_dichoticlistening_ga-da.mp3	ga	da	1	right
6.6.1	win	2023-06-12	20:32:08	20:44:19	728149	63d40f21ea1c311723c7c847	2	1	main_z	24	advance_on_keypress_ZEE	92	stimuli_target_trianglerectangles.svg	stimuli_distractor_trianglediamonds.svg	17	yes	57	0	222	6	4	antiphase_hc_sio.wav	1	6	4	noise_calib_stim_RIGHT.wav	2	14	blb_dichoticlistening_ga-da.mp3	ga	da	1	right
6.6.1	win	2023-06-12	20:32:08	20:44:21	729763	63d40f21ea1c311723c7c847	2	1	main_z	24	main_z	93	stimuli_distractor_trianglediamonds.svg	stimuli_target_squaretriangles.svg	11	yes	44	1	748	6	4	antiphase_hc_sio.wav	1	6	4	noise_calib_stim_RIGHT.wav	2	14	blb_dichoticlistening_ga-da.mp3	ga	da	1	right
6.6.1	win	2023-06-12	20:32:08	20:44:21	729763	63d40f21ea1c311723c7c847	2	1	main_z	24	advance_on_keypress_ZEE	94	stimuli_distractor_trianglediamonds.svg	stimuli_target_squaretriangles.svg	11	yes	57	0	166	6	4	antiphase_hc_sio.wav	1	6	4	noise_calib_stim_RIGHT.wav	2	14	blb_dichoticlistening_ga-da.mp3	ga	da	1	right
6.6.1	win	2023-06-12	20:32:08	20:44:23	731326	63d40f21ea1c311723c7c847	2	1	main_z	24	main_z	95	stimuli_distractor_trianglediamonds.svg	stimuli_target_trianglerectangles.svg	25	yes	44	1	742	6	4	antiphase_hc_sio.wav	1	6	4	noise_calib_stim_RIGHT.wav	2	14	blb_dichoticlistening_ga-da.mp3	ga	da	1	right
6.6.1	win	2023-06-12	20:32:08	20:44:23	731326	63d40f21ea1c311723c7c847	2	1	main_z	24	advance_on_keypress_ZEE	96	stimuli_distractor_trianglediamonds.svg	stimuli_target_trianglerectangles.svg	25	yes	57	0	175	6	4	antiphase_hc_sio.wav	1	6	4	noise_calib_stim_RIGHT.wav	2	14	blb_dichoticlistening_ga-da.mp3	ga	da	1	right
6.6.1	win	2023-06-12	20:32:08	20:44:24	732958	63d40f21ea1c311723c7c847	2	1	main_z	24	main_z	97	stimuli_target_rectanglediamonds.svg	stimuli_distractor_diamondtriangles.svg	6	yes	44	1	815	6	4	antiphase_hc_sio.wav	1	6	4	noise_calib_stim_RIGHT.wav	2	14	blb_dichoticlistening_ga-da.mp3	ga	da	1	right
6.6.1	win	2023-06-12	20:32:08	20:44:24	732958	63d40f21ea1c311723c7c847	2	1	main_z	24	advance_on_keypress_ZEE	98	stimuli_target_rectanglediamonds.svg	stimuli_distractor_diamondtriangles.svg	6	yes	57	0	148	6	4	antiphase_hc_sio.wav	1	6	4	noise_calib_stim_RIGHT.wav	2	14	blb_dichoticlistening_ga-da.mp3	ga	da	1	right
6.6.1	win	2023-06-12	20:32:08	20:44:27	735776	63d40f21ea1c311723c7c847	2	1	main_z	24	main_z	99	stimuli_distractor_diamondtriangles.svg	stimuli_distractor_diamondtriangles.svg	40	no	0	1	2000	6	4	antiphase_hc_sio.wav	1	6	4	noise_calib_stim_RIGHT.wav	2	14	blb_dichoticlistening_ga-da.mp3	ga	da	1	right
6.6.1	win	2023-06-12	20:32:08	20:44:27	735776	63d40f21ea1c311723c7c847	2	1	main_z	24	advance_on_keypress_ZEE	100	stimuli_distractor_diamondtriangles.svg	stimuli_distractor_diamondtriangles.svg	40	no	57	0	357	6	4	antiphase_hc_sio.wav	1	6	4	noise_calib_stim_RIGHT.wav	2	14	blb_dichoticlistening_ga-da.mp3	ga	da	1	right
6.6.1	win	2023-06-12	20:32:08	20:44:29	737621	63d40f21ea1c311723c7c847	2	1	main_z	24	main_z	101	stimuli_distractor_diamondtriangles.svg	stimuli_target_trianglesquares.svg	30	yes	44	1	845	6	4	antiphase_hc_sio.wav	1	6	4	noise_calib_stim_RIGHT.wav	2	14	blb_dichoticlistening_ga-da.mp3	ga	da	1	right
6.6.1	win	2023-06-12	20:32:08	20:44:29	737621	63d40f21ea1c311723c7c847	2	1	main_z	24	advance_on_keypress_ZEE	102	stimuli_distractor_diamondtriangles.svg	stimuli_target_trianglesquares.svg	30	yes	57	0	129	6	4	antiphase_hc_sio.wav	1	6	4	noise_calib_stim_RIGHT.wav	2	14	blb_dichoticlistening_ga-da.mp3	ga	da	1	right
6.6.1	win	2023-06-12	20:32:08	20:44:31	739249	63d40f21ea1c311723c7c847	2	1	main_z	24	main_z	103	stimuli_target_squaretriangles.svg	stimuli_distractor_trianglediamonds.svg	3	yes	44	1	853	6	4	antiphase_hc_sio.wav	1	6	4	noise_calib_stim_RIGHT.wav	2	14	blb_dichoticlistening_ga-da.mp3	ga	da	1	right
6.6.1	win	2023-06-12	20:32:08	20:44:31	739249	63d40f21ea1c311723c7c847	2	1	main_z	24	advance_on_keypress_ZEE	104	stimuli_target_squaretriangles.svg	stimuli_distractor_trianglediamonds.svg	3	yes	57	0	177	6	4	antiphase_hc_sio.wav	1	6	4	noise_calib_stim_RIGHT.wav	2	14	blb_dichoticlistening_ga-da.mp3	ga	da	1	right
6.6.1	win	2023-06-12	20:32:08	20:44:32	740908	63d40f21ea1c311723c7c847	2	1	main_z	24	main_z	105	stimuli_distractor_trianglediamonds.svg	stimuli_target_squarediamonds.svg	12	yes	44	1	834	6	4	antiphase_hc_sio.wav	1	6	4	noise_calib_stim_RIGHT.wav	2	14	blb_dichoticlistening_ga-da.mp3	ga	da	1	right
6.6.1	win	2023-06-12	20:32:08	20:44:32	740908	63d40f21ea1c311723c7c847	2	1	main_z	24	advance_on_keypress_ZEE	106	stimuli_distractor_trianglediamonds.svg	stimuli_target_squarediamonds.svg	12	yes	57	0	126	6	4	antiphase_hc_sio.wav	1	6	4	noise_calib_stim_RIGHT.wav	2	14	blb_dichoticlistening_ga-da.mp3	ga	da	1	right
6.6.1	win	2023-06-12	20:32:08	20:44:34	742485	63d40f21ea1c311723c7c847	2	1	main_z	24	main_z	107	stimuli_distractor_diamondtriangles.svg	stimuli_target_trianglerectangles.svg	29	yes	44	1	784	6	4	antiphase_hc_sio.wav	1	6	4	noise_calib_stim_RIGHT.wav	2	14	blb_dichoticlistening_ga-da.mp3	ga	da	1	right
6.6.1	win	2023-06-12	20:32:08	20:44:34	742485	63d40f21ea1c311723c7c847	2	1	main_z	24	advance_on_keypress_ZEE	108	stimuli_distractor_diamondtriangles.svg	stimuli_target_trianglerectangles.svg	29	yes	57	0	167	6	4	antiphase_hc_sio.wav	1	6	4	noise_calib_stim_RIGHT.wav	2	14	blb_dichoticlistening_ga-da.mp3	ga	da	1	right
6.6.1	win	2023-06-12	20:32:08	20:44:35	744096	63d40f21ea1c311723c7c847	2	1	main_z	24	main_z	109	stimuli_target_squaretriangles.svg	stimuli_distractor_diamondtriangles.svg	7	yes	44	1	800	6	4	antiphase_hc_sio.wav	1	6	4	noise_calib_stim_RIGHT.wav	2	14	blb_dichoticlistening_ga-da.mp3	ga	da	1	right
6.6.1	win	2023-06-12	20:32:08	20:44:35	744096	63d40f21ea1c311723c7c847	2	1	main_z	24	advance_on_keypress_ZEE	110	stimuli_target_squaretriangles.svg	stimuli_distractor_diamondtriangles.svg	7	yes	57	0	167	6	4	antiphase_hc_sio.wav	1	6	4	noise_calib_stim_RIGHT.wav	2	14	blb_dichoticlistening_ga-da.mp3	ga	da	1	right
6.6.1	win	2023-06-12	20:32:08	20:44:38	746924	63d40f21ea1c311723c7c847	2	1	main_z	24	main_z	111	stimuli_distractor_trianglediamonds.svg	stimuli_distractor_trianglediamonds.svg	34	no	0	1	2000	6	4	antiphase_hc_sio.wav	1	6	4	noise_calib_stim_RIGHT.wav	2	14	blb_dichoticlistening_ga-da.mp3	ga	da	1	right
6.6.1	win	2023-06-12	20:32:08	20:44:38	746924	63d40f21ea1c311723c7c847	2	1	main_z	24	advance_on_keypress_ZEE	112	stimuli_distractor_trianglediamonds.svg	stimuli_distractor_trianglediamonds.svg	34	no	57	0	454	6	4	antiphase_hc_sio.wav	1	6	4	noise_calib_stim_RIGHT.wav	2	14	blb_dichoticlistening_ga-da.mp3	ga	da	1	right
6.6.1	win	2023-06-12	20:32:08	20:44:40	748836	63d40f21ea1c311723c7c847	2	1	main_z	24	main_z	113	stimuli_target_squarediamonds.svg	stimuli_distractor_trianglediamonds.svg	4	yes	44	1	795	6	4	antiphase_hc_sio.wav	1	6	4	noise_calib_stim_RIGHT.wav	2	14	blb_dichoticlistening_ga-da.mp3	ga	da	1	right
6.6.1	win	2023-06-12	20:32:08	20:44:40	748836	63d40f21ea1c311723c7c847	2	1	main_z	24	advance_on_keypress_ZEE	114	stimuli_target_squarediamonds.svg	stimuli_distractor_trianglediamonds.svg	4	yes	57	0	154	6	4	antiphase_hc_sio.wav	1	6	4	noise_calib_stim_RIGHT.wav	2	14	blb_dichoticlistening_ga-da.mp3	ga	da	1	right
6.6.1	win	2023-06-12	20:32:08	20:44:43	751656	63d40f21ea1c311723c7c847	2	1	main_z	24	main_z	115	stimuli_distractor_trianglediamonds.svg	stimuli_distractor_trianglediamonds.svg	33	no	0	1	2000	6	4	antiphase_hc_sio.wav	1	6	4	noise_calib_stim_RIGHT.wav	2	14	blb_dichoticlistening_ga-da.mp3	ga	da	1	right
6.6.1	win	2023-06-12	20:32:08	20:44:43	751656	63d40f21ea1c311723c7c847	2	1	main_z	24	advance_on_keypress_ZEE	116	stimuli_distractor_trianglediamonds.svg	stimuli_distractor_trianglediamonds.svg	33	no	57	0	336	6	4	antiphase_hc_sio.wav	1	6	4	noise_calib_stim_RIGHT.wav	2	14	blb_dichoticlistening_ga-da.mp3	ga	da	1	right
6.6.1	win	2023-06-12	20:32:08	20:44:45	753437	63d40f21ea1c311723c7c847	2	1	main_z	24	main_z	117	stimuli_distractor_diamondtriangles.svg	stimuli_target_rectangletriangles.svg	13	yes	44	1	794	6	4	antiphase_hc_sio.wav	1	6	4	noise_calib_stim_RIGHT.wav	2	14	blb_dichoticlistening_ga-da.mp3	ga	da	1	right
6.6.1	win	2023-06-12	20:32:08	20:44:45	753437	63d40f21ea1c311723c7c847	2	1	main_z	24	advance_on_keypress_ZEE	118	stimuli_distractor_diamondtriangles.svg	stimuli_target_rectangletriangles.svg	13	yes	57	0	168	6	4	antiphase_hc_sio.wav	1	6	4	noise_calib_stim_RIGHT.wav	2	14	blb_dichoticlistening_ga-da.mp3	ga	da	1	right
6.6.1	win	2023-06-12	20:32:08	20:44:46	755119	63d40f21ea1c311723c7c847	2	1	main_z	24	main_z	119	stimuli_target_rectanglediamonds.svg	stimuli_distractor_trianglediamonds.svg	2	yes	44	1	854	6	4	antiphase_hc_sio.wav	1	6	4	noise_calib_stim_RIGHT.wav	2	14	blb_dichoticlistening_ga-da.mp3	ga	da	1	right
6.6.1	win	2023-06-12	20:32:08	20:44:46	755119	63d40f21ea1c311723c7c847	2	1	main_z	24	advance_on_keypress_ZEE	120	stimuli_target_rectanglediamonds.svg	stimuli_distractor_trianglediamonds.svg	2	yes	57	0	173	6	4	antiphase_hc_sio.wav	1	6	4	noise_calib_stim_RIGHT.wav	2	14	blb_dichoticlistening_ga-da.mp3	ga	da	1	right
6.6.1	win	2023-06-12	20:32:08	20:44:48	756743	63d40f21ea1c311723c7c847	2	1	main_z	24	main_z	121	stimuli_target_rectangletriangles.svg	stimuli_distractor_diamondtriangles.svg	5	yes	44	1	797	6	4	antiphase_hc_sio.wav	1	6	4	noise_calib_stim_RIGHT.wav	2	14	blb_dichoticlistening_ga-da.mp3	ga	da	1	right
6.6.1	win	2023-06-12	20:32:08	20:44:48	756743	63d40f21ea1c311723c7c847	2	1	main_z	24	advance_on_keypress_ZEE	122	stimuli_target_rectangletriangles.svg	stimuli_distractor_diamondtriangles.svg	5	yes	57	0	237	6	4	antiphase_hc_sio.wav	1	6	4	noise_calib_stim_RIGHT.wav	2	14	blb_dichoticlistening_ga-da.mp3	ga	da	1	right
6.6.1	win	2023-06-12	20:32:08	20:44:51	759656	63d40f21ea1c311723c7c847	2	1	main_z	24	main_z	123	stimuli_distractor_diamondtriangles.svg	stimuli_distractor_diamondtriangles.svg	39	no	0	1	2000	6	4	antiphase_hc_sio.wav	1	6	4	noise_calib_stim_RIGHT.wav	2	14	blb_dichoticlistening_ga-da.mp3	ga	da	1	right
6.6.1	win	2023-06-12	20:32:08	20:44:51	759656	63d40f21ea1c311723c7c847	2	1	main_z	24	advance_on_keypress_ZEE	124	stimuli_distractor_diamondtriangles.svg	stimuli_distractor_diamondtriangles.svg	39	no	57	0	392	6	4	antiphase_hc_sio.wav	1	6	4	noise_calib_stim_RIGHT.wav	2	14	blb_dichoticlistening_ga-da.mp3	ga	da	1	right
6.6.1	win	2023-06-12	20:32:08	20:44:53	761547	63d40f21ea1c311723c7c847	2	1	main_z	24	main_z	125	stimuli_target_diamondsquares.svg	stimuli_distractor_trianglediamonds.svg	20	yes	44	1	830	6	4	antiphase_hc_sio.wav	1	6	4	noise_calib_stim_RIGHT.wav	2	14	blb_dichoticlistening_ga-da.mp3	ga	da	1	right
6.6.1	win	2023-06-12	20:32:08	20:44:53	761547	63d40f21ea1c311723c7c847	2	1	main_z	24	advance_on_keypress_ZEE	126	stimuli_target_diamondsquares.svg	stimuli_distractor_trianglediamonds.svg	20	yes	57	0	139	6	4	antiphase_hc_sio.wav	1	6	4	noise_calib_stim_RIGHT.wav	2	14	blb_dichoticlistening_ga-da.mp3	ga	da	1	right
6.6.1	win	2023-06-12	20:32:08	20:44:54	763144	63d40f21ea1c311723c7c847	2	1	main_z	24	main_z	127	stimuli_distractor_trianglediamonds.svg	stimuli_target_diamondsquares.svg	28	yes	44	1	814	6	4	antiphase_hc_sio.wav	1	6	4	noise_calib_stim_RIGHT.wav	2	14	blb_dichoticlistening_ga-da.mp3	ga	da	1	right
6.6.1	win	2023-06-12	20:32:08	20:44:54	763144	63d40f21ea1c311723c7c847	2	1	main_z	24	advance_on_keypress_ZEE	128	stimuli_distractor_trianglediamonds.svg	stimuli_target_diamondsquares.svg	28	yes	57	0	156	6	4	antiphase_hc_sio.wav	1	6	4	noise_calib_stim_RIGHT.wav	2	14	blb_dichoticlistening_ga-da.mp3	ga	da	1	right
6.6.1	win	2023-06-12	20:32:08	20:44:56	764795	63d40f21ea1c311723c7c847	2	1	main_z	24	main_z	129	stimuli_target_diamondrectangles.svg	stimuli_distractor_trianglediamonds.svg	19	yes	44	1	828	6	4	antiphase_hc_sio.wav	1	6	4	noise_calib_stim_RIGHT.wav	2	14	blb_dichoticlistening_ga-da.mp3	ga	da	1	right
6.6.1	win	2023-06-12	20:32:08	20:44:56	764795	63d40f21ea1c311723c7c847	2	1	main_z	24	advance_on_keypress_ZEE	130	stimuli_target_diamondrectangles.svg	stimuli_distractor_trianglediamonds.svg	19	yes	57	0	122	6	4	antiphase_hc_sio.wav	1	6	4	noise_calib_stim_RIGHT.wav	2	14	blb_dichoticlistening_ga-da.mp3	ga	da	1	right
6.6.1	win	2023-06-12	20:32:08	20:44:58	766373	63d40f21ea1c311723c7c847	2	1	main_z	24	main_z	131	stimuli_distractor_diamondtriangles.svg	stimuli_target_squarediamonds.svg	16	yes	44	1	804	6	4	antiphase_hc_sio.wav	1	6	4	noise_calib_stim_RIGHT.wav	2	14	blb_dichoticlistening_ga-da.mp3	ga	da	1	right
6.6.1	win	2023-06-12	20:32:08	20:44:58	766373	63d40f21ea1c311723c7c847	2	1	main_z	24	advance_on_keypress_ZEE	132	stimuli_distractor_diamondtriangles.svg	stimuli_target_squarediamonds.svg	16	yes	57	0	131	6	4	antiphase_hc_sio.wav	1	6	4	noise_calib_stim_RIGHT.wav	2	14	blb_dichoticlistening_ga-da.mp3	ga	da	1	right
6.6.1	win	2023-06-12	20:32:08	20:44:59	767956	63d40f21ea1c311723c7c847	2	1	main_z	24	main_z	133	stimuli_target_diamondsquares.svg	stimuli_distractor_diamondtriangles.svg	24	yes	44	1	780	6	4	antiphase_hc_sio.wav	1	6	4	noise_calib_stim_RIGHT.wav	2	14	blb_dichoticlistening_ga-da.mp3	ga	da	1	right
6.6.1	win	2023-06-12	20:32:08	20:44:59	767956	63d40f21ea1c311723c7c847	2	1	main_z	24	advance_on_keypress_ZEE	134	stimuli_target_diamondsquares.svg	stimuli_distractor_diamondtriangles.svg	24	yes	57	0	114	6	4	antiphase_hc_sio.wav	1	6	4	noise_calib_stim_RIGHT.wav	2	14	blb_dichoticlistening_ga-da.mp3	ga	da	1	right
6.6.1	win	2023-06-12	20:32:08	20:45:01	769521	63d40f21ea1c311723c7c847	2	1	main_z	24	main_z	135	stimuli_distractor_diamondtriangles.svg	stimuli_target_diamondrectangles.svg	31	yes	44	1	781	6	4	antiphase_hc_sio.wav	1	6	4	noise_calib_stim_RIGHT.wav	2	14	blb_dichoticlistening_ga-da.mp3	ga	da	1	right
6.6.1	win	2023-06-12	20:32:08	20:45:01	769521	63d40f21ea1c311723c7c847	2	1	main_z	24	advance_on_keypress_ZEE	136	stimuli_distractor_diamondtriangles.svg	stimuli_target_diamondrectangles.svg	31	yes	57	0	141	6	4	antiphase_hc_sio.wav	1	6	4	noise_calib_stim_RIGHT.wav	2	14	blb_dichoticlistening_ga-da.mp3	ga	da	1	right
6.6.1	win	2023-06-12	20:32:08	20:45:02	771125	63d40f21ea1c311723c7c847	2	1	main_z	24	main_z	137	stimuli_distractor_diamondtriangles.svg	stimuli_target_squaretriangles.svg	15	yes	44	1	797	6	4	antiphase_hc_sio.wav	1	6	4	noise_calib_stim_RIGHT.wav	2	14	blb_dichoticlistening_ga-da.mp3	ga	da	1	right
6.6.1	win	2023-06-12	20:32:08	20:45:02	771125	63d40f21ea1c311723c7c847	2	1	main_z	24	advance_on_keypress_ZEE	138	stimuli_distractor_diamondtriangles.svg	stimuli_target_squaretriangles.svg	15	yes	57	0	117	6	4	antiphase_hc_sio.wav	1	6	4	noise_calib_stim_RIGHT.wav	2	14	blb_dichoticlistening_ga-da.mp3	ga	da	1	right
6.6.1	win	2023-06-12	20:32:08	20:45:04	772703	63d40f21ea1c311723c7c847	2	1	main_z	24	main_z	139	stimuli_target_diamondrectangles.svg	stimuli_distractor_diamondtriangles.svg	23	yes	44	1	799	6	4	antiphase_hc_sio.wav	1	6	4	noise_calib_stim_RIGHT.wav	2	14	blb_dichoticlistening_ga-da.mp3	ga	da	1	right
6.6.1	win	2023-06-12	20:32:08	20:45:04	772703	63d40f21ea1c311723c7c847	2	1	main_z	24	advance_on_keypress_ZEE	140	stimuli_target_diamondrectangles.svg	stimuli_distractor_diamondtriangles.svg	23	yes	57	0	157	6	4	antiphase_hc_sio.wav	1	6	4	noise_calib_stim_RIGHT.wav	2	14	blb_dichoticlistening_ga-da.mp3	ga	da	1	right
6.6.1	win	2023-06-12	20:32:08	20:45:06	774243	63d40f21ea1c311723c7c847	2	1	main_z	24	main_z	141	stimuli_distractor_diamondtriangles.svg	stimuli_target_rectanglediamonds.svg	14	yes	44	1	726	6	4	antiphase_hc_sio.wav	1	6	4	noise_calib_stim_RIGHT.wav	2	14	blb_dichoticlistening_ga-da.mp3	ga	da	1	right
6.6.1	win	2023-06-12	20:32:08	20:45:06	774243	63d40f21ea1c311723c7c847	2	1	main_z	24	advance_on_keypress_ZEE	142	stimuli_distractor_diamondtriangles.svg	stimuli_target_rectanglediamonds.svg	14	yes	57	0	159	6	4	antiphase_hc_sio.wav	1	6	4	noise_calib_stim_RIGHT.wav	2	14	blb_dichoticlistening_ga-da.mp3	ga	da	1	right
6.6.1	win	2023-06-12	20:32:08	20:45:07	775890	63d40f21ea1c311723c7c847	2	1	main_z	24	main_z	143	stimuli_target_trianglerectangles.svg	stimuli_distractor_diamondtriangles.svg	21	yes	44	1	816	6	4	antiphase_hc_sio.wav	1	6	4	noise_calib_stim_RIGHT.wav	2	14	blb_dichoticlistening_ga-da.mp3	ga	da	1	right
6.6.1	win	2023-06-12	20:32:08	20:45:07	775890	63d40f21ea1c311723c7c847	2	1	main_z	24	advance_on_keypress_ZEE	144	stimuli_target_trianglerectangles.svg	stimuli_distractor_diamondtriangles.svg	21	yes	57	0	109	6	4	antiphase_hc_sio.wav	1	6	4	noise_calib_stim_RIGHT.wav	2	14	blb_dichoticlistening_ga-da.mp3	ga	da	1	right
6.6.1	win	2023-06-12	20:32:08	20:45:09	777383	63d40f21ea1c311723c7c847	2	1	main_z	24	main_z	145	stimuli_distractor_trianglediamonds.svg	stimuli_target_rectanglediamonds.svg	10	yes	44	1	711	6	4	antiphase_hc_sio.wav	1	6	4	noise_calib_stim_RIGHT.wav	2	14	blb_dichoticlistening_ga-da.mp3	ga	da	1	right
6.6.1	win	2023-06-12	20:32:08	20:45:09	777383	63d40f21ea1c311723c7c847	2	1	main_z	24	advance_on_keypress_ZEE	146	stimuli_distractor_trianglediamonds.svg	stimuli_target_rectanglediamonds.svg	10	yes	57	0	162	6	4	antiphase_hc_sio.wav	1	6	4	noise_calib_stim_RIGHT.wav	2	14	blb_dichoticlistening_ga-da.mp3	ga	da	1	right
6.6.1	win	2023-06-12	20:32:08	20:45:12	780199	63d40f21ea1c311723c7c847	2	1	main_z	24	main_z	147	stimuli_distractor_diamondtriangles.svg	stimuli_distractor_trianglediamonds.svg	37	no	0	1	2000	6	4	antiphase_hc_sio.wav	1	6	4	noise_calib_stim_RIGHT.wav	2	14	blb_dichoticlistening_ga-da.mp3	ga	da	1	right
6.6.1	win	2023-06-12	20:32:08	20:45:12	780199	63d40f21ea1c311723c7c847	2	1	main_z	24	advance_on_keypress_ZEE	148	stimuli_distractor_diamondtriangles.svg	stimuli_distractor_trianglediamonds.svg	37	no	57	0	313	6	4	antiphase_hc_sio.wav	1	6	4	noise_calib_stim_RIGHT.wav	2	14	blb_dichoticlistening_ga-da.mp3	ga	da	1	right
6.6.1	win	2023-06-12	20:32:08	20:45:14	782285	63d40f21ea1c311723c7c847	2	1	main_z	24	main_z	149	stimuli_distractor_diamondtriangles.svg	stimuli_distractor_trianglediamonds.svg	38	no	44	0	1123	6	4	antiphase_hc_sio.wav	1	6	4	noise_calib_stim_RIGHT.wav	2	14	blb_dichoticlistening_ga-da.mp3	ga	da	1	right
6.6.1	win	2023-06-12	20:32:08	20:45:14	782285	63d40f21ea1c311723c7c847	2	1	main_z	24	advance_on_keypress_ZEE	150	stimuli_distractor_diamondtriangles.svg	stimuli_distractor_trianglediamonds.svg	38	no	57	0	118	6	4	antiphase_hc_sio.wav	1	6	4	noise_calib_stim_RIGHT.wav	2	14	blb_dichoticlistening_ga-da.mp3	ga	da	1	right
6.6.1	win	2023-06-12	20:32:08	20:45:16	785061	63d40f21ea1c311723c7c847	2	1	main_z	24	main_z	151	stimuli_distractor_trianglediamonds.svg	stimuli_distractor_diamondtriangles.svg	35	no	0	1	2000	6	4	antiphase_hc_sio.wav	1	6	4	noise_calib_stim_RIGHT.wav	2	14	blb_dichoticlistening_ga-da.mp3	ga	da	1	right
6.6.1	win	2023-06-12	20:32:08	20:45:16	785061	63d40f21ea1c311723c7c847	2	1	main_z	24	advance_on_keypress_ZEE	152	stimuli_distractor_trianglediamonds.svg	stimuli_distractor_diamondtriangles.svg	35	no	57	0	646	6	4	antiphase_hc_sio.wav	1	6	4	noise_calib_stim_RIGHT.wav	2	14	blb_dichoticlistening_ga-da.mp3	ga	da	1	right
6.6.1	win	2023-06-12	20:32:08	20:45:19	787352	63d40f21ea1c311723c7c847	2	1	main_z	24	main_z	153	stimuli_distractor_trianglediamonds.svg	stimuli_target_diamondrectangles.svg	27	yes	44	1	979	6	4	antiphase_hc_sio.wav	1	6	4	noise_calib_stim_RIGHT.wav	2	14	blb_dichoticlistening_ga-da.mp3	ga	da	1	right
6.6.1	win	2023-06-12	20:32:08	20:45:19	787352	63d40f21ea1c311723c7c847	2	1	main_z	24	advance_on_keypress_ZEE	154	stimuli_distractor_trianglediamonds.svg	stimuli_target_diamondrectangles.svg	27	yes	57	0	99	6	4	antiphase_hc_sio.wav	1	6	4	noise_calib_stim_RIGHT.wav	2	14	blb_dichoticlistening_ga-da.mp3	ga	da	1	right
6.6.1	win	2023-06-12	20:32:08	20:45:20	788938	63d40f21ea1c311723c7c847	2	1	main_z	24	main_z	155	stimuli_target_squarediamonds.svg	stimuli_distractor_diamondtriangles.svg	8	yes	44	1	813	6	4	antiphase_hc_sio.wav	1	6	4	noise_calib_stim_RIGHT.wav	2	14	blb_dichoticlistening_ga-da.mp3	ga	da	1	right
6.6.1	win	2023-06-12	20:32:08	20:45:20	788938	63d40f21ea1c311723c7c847	2	1	main_z	24	advance_on_keypress_ZEE	156	stimuli_target_squarediamonds.svg	stimuli_distractor_diamondtriangles.svg	8	yes	57	0	148	6	4	antiphase_hc_sio.wav	1	6	4	noise_calib_stim_RIGHT.wav	2	14	blb_dichoticlistening_ga-da.mp3	ga	da	1	right
6.6.1	win	2023-06-12	20:32:08	20:45:22	790405	63d40f21ea1c311723c7c847	2	1	main_z	24	main_z	157	stimuli_target_trianglesquares.svg	stimuli_distractor_diamondtriangles.svg	22	yes	44	1	676	6	4	antiphase_hc_sio.wav	1	6	4	noise_calib_stim_RIGHT.wav	2	14	blb_dichoticlistening_ga-da.mp3	ga	da	1	right
6.6.1	win	2023-06-12	20:32:08	20:45:22	790405	63d40f21ea1c311723c7c847	2	1	main_z	24	advance_on_keypress_ZEE	158	stimuli_target_trianglesquares.svg	stimuli_distractor_diamondtriangles.svg	22	yes	57	0	184	6	4	antiphase_hc_sio.wav	1	6	4	noise_calib_stim_RIGHT.wav	2	14	blb_dichoticlistening_ga-da.mp3	ga	da	1	right
6.6.1	win	2023-06-12	20:32:08	20:45:23	791995	63d40f21ea1c311723c7c847	2	1	main_z	24	main_z	159	stimuli_target_trianglesquares.svg	stimuli_distractor_trianglediamonds.svg	18	yes	44	1	760	6	4	antiphase_hc_sio.wav	1	6	4	noise_calib_stim_RIGHT.wav	2	14	blb_dichoticlistening_ga-da.mp3	ga	da	1	right
6.6.1	win	2023-06-12	20:32:08	20:45:23	791995	63d40f21ea1c311723c7c847	2	1	main_z	24	advance_on_keypress_ZEE	160	stimuli_target_trianglesquares.svg	stimuli_distractor_trianglediamonds.svg	18	yes	57	0	168	6	4	antiphase_hc_sio.wav	1	6	4	noise_calib_stim_RIGHT.wav	2	14	blb_dichoticlistening_ga-da.mp3	ga	da	1	right
6.6.1	win	2023-06-12	20:32:08	20:46:21	849845	63d40f21ea1c311723c7c847	2	1	practice_slash	26	practice_slash	1	stimuli_target_squarediamonds.svg	stimuli_distractor_diamondtriangles.svg	2	yes	53	1	430	6	4	antiphase_hc_sio.wav	1	6	4	noise_calib_stim_RIGHT.wav	2	14	blb_dichoticlistening_ga-da.mp3	ga	da	1	right
6.6.1	win	2023-06-12	20:32:08	20:46:21	849845	63d40f21ea1c311723c7c847	2	1	practice_slash	26	advance_on_keypress_SLASH	2	stimuli_target_squarediamonds.svg	stimuli_distractor_diamondtriangles.svg	2	yes	57	0	563	6	4	antiphase_hc_sio.wav	1	6	4	noise_calib_stim_RIGHT.wav	2	14	blb_dichoticlistening_ga-da.mp3	ga	da	1	right
6.6.1	win	2023-06-12	20:32:08	20:46:24	852921	63d40f21ea1c311723c7c847	2	1	practice_slash	26	practice_slash	3	stimuli_distractor_trianglediamonds.svg	stimuli_target_diamondrectangles.svg	12	yes	53	1	851	6	4	antiphase_hc_sio.wav	1	6	4	noise_calib_stim_RIGHT.wav	2	14	blb_dichoticlistening_ga-da.mp3	ga	da	1	right
6.6.1	win	2023-06-12	20:32:08	20:46:24	852921	63d40f21ea1c311723c7c847	2	1	practice_slash	26	advance_on_keypress_SLASH	4	stimuli_distractor_trianglediamonds.svg	stimuli_target_diamondrectangles.svg	12	yes	57	0	417	6	4	antiphase_hc_sio.wav	1	6	4	noise_calib_stim_RIGHT.wav	2	14	blb_dichoticlistening_ga-da.mp3	ga	da	1	right
6.6.1	win	2023-06-12	20:32:08	20:46:27	855656	63d40f21ea1c311723c7c847	2	1	practice_slash	26	practice_slash	5	stimuli_distractor_trianglediamonds.svg	stimuli_target_rectanglediamonds.svg	10	yes	53	1	655	6	4	antiphase_hc_sio.wav	1	6	4	noise_calib_stim_RIGHT.wav	2	14	blb_dichoticlistening_ga-da.mp3	ga	da	1	right
6.6.1	win	2023-06-12	20:32:08	20:46:27	855656	63d40f21ea1c311723c7c847	2	1	practice_slash	26	advance_on_keypress_SLASH	6	stimuli_distractor_trianglediamonds.svg	stimuli_target_rectanglediamonds.svg	10	yes	57	0	371	6	4	antiphase_hc_sio.wav	1	6	4	noise_calib_stim_RIGHT.wav	2	14	blb_dichoticlistening_ga-da.mp3	ga	da	1	right
6.6.1	win	2023-06-12	20:32:08	20:46:30	858453	63d40f21ea1c311723c7c847	2	1	practice_slash	26	practice_slash	7	stimuli_target_squarediamonds.svg	stimuli_distractor_trianglediamonds.svg	5	yes	53	1	754	6	4	antiphase_hc_sio.wav	1	6	4	noise_calib_stim_RIGHT.wav	2	14	blb_dichoticlistening_ga-da.mp3	ga	da	1	right
6.6.1	win	2023-06-12	20:32:08	20:46:30	858453	63d40f21ea1c311723c7c847	2	1	practice_slash	26	advance_on_keypress_SLASH	8	stimuli_target_squarediamonds.svg	stimuli_distractor_trianglediamonds.svg	5	yes	57	0	371	6	4	antiphase_hc_sio.wav	1	6	4	noise_calib_stim_RIGHT.wav	2	14	blb_dichoticlistening_ga-da.mp3	ga	da	1	right
6.6.1	win	2023-06-12	20:32:08	20:46:32	861126	63d40f21ea1c311723c7c847	2	1	practice_slash	26	practice_slash	9	stimuli_target_diamondsquares.svg	stimuli_distractor_diamondtriangles.svg	3	yes	53	1	625	6	4	antiphase_hc_sio.wav	1	6	4	noise_calib_stim_RIGHT.wav	2	14	blb_dichoticlistening_ga-da.mp3	ga	da	1	right
6.6.1	win	2023-06-12	20:32:08	20:46:32	861126	63d40f21ea1c311723c7c847	2	1	practice_slash	26	advance_on_keypress_SLASH	10	stimuli_target_diamondsquares.svg	stimuli_distractor_diamondtriangles.svg	3	yes	57	0	312	6	4	antiphase_hc_sio.wav	1	6	4	noise_calib_stim_RIGHT.wav	2	14	blb_dichoticlistening_ga-da.mp3	ga	da	1	right
6.6.1	win	2023-06-12	20:32:08	20:46:36	865104	63d40f21ea1c311723c7c847	2	1	practice_slash	26	practice_slash	11	stimuli_distractor_diamondtriangles.svg	stimuli_distractor_diamondtriangles.svg	13	no	0	1	2000	6	4	antiphase_hc_sio.wav	1	6	4	noise_calib_stim_RIGHT.wav	2	14	blb_dichoticlistening_ga-da.mp3	ga	da	1	right
6.6.1	win	2023-06-12	20:32:08	20:46:36	865104	63d40f21ea1c311723c7c847	2	1	practice_slash	26	advance_on_keypress_SLASH	12	stimuli_distractor_diamondtriangles.svg	stimuli_distractor_diamondtriangles.svg	13	no	57	0	569	6	4	antiphase_hc_sio.wav	1	6	4	noise_calib_stim_RIGHT.wav	2	14	blb_dichoticlistening_ga-da.mp3	ga	da	1	right
6.6.1	win	2023-06-12	20:32:08	20:46:41	869354	63d40f21ea1c311723c7c847	2	1	practice_slash	26	practice_slash	13	stimuli_distractor_trianglediamonds.svg	stimuli_distractor_trianglediamonds.svg	15	no	0	1	2000	6	4	antiphase_hc_sio.wav	1	6	4	noise_calib_stim_RIGHT.wav	2	14	blb_dichoticlistening_ga-da.mp3	ga	da	1	right
6.6.1	win	2023-06-12	20:32:08	20:46:41	869354	63d40f21ea1c311723c7c847	2	1	practice_slash	26	advance_on_keypress_SLASH	14	stimuli_distractor_trianglediamonds.svg	stimuli_distractor_trianglediamonds.svg	15	no	57	0	422	6	4	antiphase_hc_sio.wav	1	6	4	noise_calib_stim_RIGHT.wav	2	14	blb_dichoticlistening_ga-da.mp3	ga	da	1	right
6.6.1	win	2023-06-12	20:32:08	20:46:44	872274	63d40f21ea1c311723c7c847	2	1	practice_slash	26	practice_slash	15	stimuli_distractor_trianglediamonds.svg	stimuli_distractor_diamondtriangles.svg	16	no	53	0	820	6	4	antiphase_hc_sio.wav	1	6	4	noise_calib_stim_RIGHT.wav	2	14	blb_dichoticlistening_ga-da.mp3	ga	da	1	right
6.6.1	win	2023-06-12	20:32:08	20:46:44	872274	63d40f21ea1c311723c7c847	2	1	practice_slash	26	advance_on_keypress_SLASH	16	stimuli_distractor_trianglediamonds.svg	stimuli_distractor_diamondtriangles.svg	16	no	57	0	858	6	4	antiphase_hc_sio.wav	1	6	4	noise_calib_stim_RIGHT.wav	2	14	blb_dichoticlistening_ga-da.mp3	ga	da	1	right
6.6.1	win	2023-06-12	20:32:08	20:46:47	875547	63d40f21ea1c311723c7c847	2	1	practice_slash	26	practice_slash	17	stimuli_distractor_diamondtriangles.svg	stimuli_target_rectangletriangles.svg	7	yes	53	1	741	6	4	antiphase_hc_sio.wav	1	6	4	noise_calib_stim_RIGHT.wav	2	14	blb_dichoticlistening_ga-da.mp3	ga	da	1	right
6.6.1	win	2023-06-12	20:32:08	20:46:47	875547	63d40f21ea1c311723c7c847	2	1	practice_slash	26	advance_on_keypress_SLASH	18	stimuli_distractor_diamondtriangles.svg	stimuli_target_rectangletriangles.svg	7	yes	57	0	414	6	4	antiphase_hc_sio.wav	1	6	4	noise_calib_stim_RIGHT.wav	2	14	blb_dichoticlistening_ga-da.mp3	ga	da	1	right
