build	computer.platform	date	time	timestamp	time_elapsed_ms	subject	group	session	blockcode	blocknum	trialcode	trialnum	stimulus_left	stimulus_right	stim_index	target_present	response	correct	latency	headphonecheck_countTestTrials	headphonecheck_index	headphonecheck_testSound	headphonecheck_correctResponse	stereocheck_countTestTrials	stereocheck_index	stereocheck_testSound	stereocheck_correctResponse	DL_index	DL_soundfile	DL_leftSound	DL_rightSound	DL_dualSound	DL_choice
6.6.1	win	2023-06-26	22:34:00	22:37:30	181748	5dcb6fb005be6f8311d7e836	4	1	practice_z	5	practice_z	1	stimuli_distractor_diamondtriangles.svg	stimuli_target_trianglerectangles.svg	9	yes	44	1	800	0	0			0	0			1				0	
6.6.1	win	2023-06-26	22:34:00	22:37:30	181748	5dcb6fb005be6f8311d7e836	4	1	practice_z	5	advance_on_keypress_ZEE	2	stimuli_distractor_diamondtriangles.svg	stimuli_target_trianglerectangles.svg	9	yes	57	0	1454	0	0			0	0			1				0	
6.6.1	win	2023-06-26	22:34:00	22:37:36	187714	5dcb6fb005be6f8311d7e836	4	1	practice_z	5	practice_z	3	stimuli_distractor_trianglediamonds.svg	stimuli_distractor_trianglediamonds.svg	15	no	0	1	2000	0	0			0	0			1				0	
6.6.1	win	2023-06-26	22:34:00	22:37:36	187714	5dcb6fb005be6f8311d7e836	4	1	practice_z	5	advance_on_keypress_ZEE	4	stimuli_distractor_trianglediamonds.svg	stimuli_distractor_trianglediamonds.svg	15	no	57	0	507	0	0			0	0			1				0	
6.6.1	win	2023-06-26	22:34:00	22:37:39	190904	5dcb6fb005be6f8311d7e836	4	1	practice_z	5	practice_z	5	stimuli_target_diamondsquares.svg	stimuli_distractor_diamondtriangles.svg	3	yes	44	1	773	0	0			0	0			1				0	
6.6.1	win	2023-06-26	22:34:00	22:37:39	190904	5dcb6fb005be6f8311d7e836	4	1	practice_z	5	advance_on_keypress_ZEE	6	stimuli_target_diamondsquares.svg	stimuli_distractor_diamondtriangles.svg	3	yes	57	0	757	0	0			0	0			1				0	
6.6.1	win	2023-06-26	22:34:00	22:37:44	195312	5dcb6fb005be6f8311d7e836	4	1	practice_z	5	practice_z	7	stimuli_distractor_diamondtriangles.svg	stimuli_distractor_diamondtriangles.svg	13	no	0	1	2000	0	0			0	0			1				0	
6.6.1	win	2023-06-26	22:34:00	22:37:44	195312	5dcb6fb005be6f8311d7e836	4	1	practice_z	5	advance_on_keypress_ZEE	8	stimuli_distractor_diamondtriangles.svg	stimuli_distractor_diamondtriangles.svg	13	no	57	0	534	0	0			0	0			1				0	
6.6.1	win	2023-06-26	22:34:00	22:37:47	198084	5dcb6fb005be6f8311d7e836	4	1	practice_z	5	practice_z	9	stimuli_target_squarediamonds.svg	stimuli_distractor_trianglediamonds.svg	5	yes	44	1	572	0	0			0	0			1				0	
6.6.1	win	2023-06-26	22:34:00	22:37:47	198084	5dcb6fb005be6f8311d7e836	4	1	practice_z	5	advance_on_keypress_ZEE	10	stimuli_target_squarediamonds.svg	stimuli_distractor_trianglediamonds.svg	5	yes	57	0	628	0	0			0	0			1				0	
6.6.1	win	2023-06-26	22:34:00	22:37:49	200987	5dcb6fb005be6f8311d7e836	4	1	practice_z	5	practice_z	11	stimuli_distractor_trianglediamonds.svg	stimuli_target_rectanglediamonds.svg	10	yes	44	1	592	0	0			0	0			1				0	
6.6.1	win	2023-06-26	22:34:00	22:37:49	200987	5dcb6fb005be6f8311d7e836	4	1	practice_z	5	advance_on_keypress_ZEE	12	stimuli_distractor_trianglediamonds.svg	stimuli_target_rectanglediamonds.svg	10	yes	57	0	1039	0	0			0	0			1				0	
6.6.1	win	2023-06-26	22:34:00	22:37:53	204784	5dcb6fb005be6f8311d7e836	4	1	practice_z	5	practice_z	13	stimuli_distractor_trianglediamonds.svg	stimuli_target_squarediamonds.svg	11	yes	44	1	1108	0	0			0	0			1				0	
6.6.1	win	2023-06-26	22:34:00	22:37:53	204784	5dcb6fb005be6f8311d7e836	4	1	practice_z	5	advance_on_keypress_ZEE	14	stimuli_distractor_trianglediamonds.svg	stimuli_target_squarediamonds.svg	11	yes	57	0	586	0	0			0	0			1				0	
6.6.1	win	2023-06-26	22:34:00	22:37:56	207719	5dcb6fb005be6f8311d7e836	4	1	practice_z	5	practice_z	15	stimuli_target_rectanglediamonds.svg	stimuli_distractor_trianglediamonds.svg	4	yes	44	1	693	0	0			0	0			1				0	
6.6.1	win	2023-06-26	22:34:00	22:37:56	207719	5dcb6fb005be6f8311d7e836	4	1	practice_z	5	advance_on_keypress_ZEE	16	stimuli_target_rectanglediamonds.svg	stimuli_distractor_trianglediamonds.svg	4	yes	57	0	518	0	0			0	0			1				0	
6.6.1	win	2023-06-26	22:34:00	22:38:00	211893	5dcb6fb005be6f8311d7e836	4	1	practice_z	5	practice_z	17	stimuli_distractor_trianglediamonds.svg	stimuli_distractor_diamondtriangles.svg	16	no	0	1	2000	0	0			0	0			1				0	
6.6.1	win	2023-06-26	22:34:00	22:38:00	211893	5dcb6fb005be6f8311d7e836	4	1	practice_z	5	advance_on_keypress_ZEE	18	stimuli_distractor_trianglediamonds.svg	stimuli_distractor_diamondtriangles.svg	16	no	57	0	455	0	0			0	0			1				0	
6.6.1	win	2023-06-26	22:34:00	22:38:04	215104	5dcb6fb005be6f8311d7e836	4	1	practice_z	5	practice_z	19	stimuli_target_rectanglediamonds.svg	stimuli_distractor_diamondtriangles.svg	1	yes	44	1	680	0	0			0	0			1				0	
6.6.1	win	2023-06-26	22:34:00	22:38:04	215104	5dcb6fb005be6f8311d7e836	4	1	practice_z	5	advance_on_keypress_ZEE	20	stimuli_target_rectanglediamonds.svg	stimuli_distractor_diamondtriangles.svg	1	yes	57	0	836	0	0			0	0			1				0	
6.6.1	win	2023-06-26	22:34:00	22:38:08	219590	5dcb6fb005be6f8311d7e836	4	1	practice_z	5	practice_z	21	stimuli_distractor_diamondtriangles.svg	stimuli_distractor_trianglediamonds.svg	14	no	0	1	2000	0	0			0	0			1				0	
6.6.1	win	2023-06-26	22:34:00	22:38:08	219590	5dcb6fb005be6f8311d7e836	4	1	practice_z	5	advance_on_keypress_ZEE	22	stimuli_distractor_diamondtriangles.svg	stimuli_distractor_trianglediamonds.svg	14	no	57	0	451	0	0			0	0			1				0	
6.6.1	win	2023-06-26	22:34:00	22:38:11	222400	5dcb6fb005be6f8311d7e836	4	1	practice_z	5	practice_z	23	stimuli_distractor_trianglediamonds.svg	stimuli_target_diamondrectangles.svg	12	yes	44	1	694	0	0			0	0			1				0	
6.6.1	win	2023-06-26	22:34:00	22:38:11	222400	5dcb6fb005be6f8311d7e836	4	1	practice_z	5	advance_on_keypress_ZEE	24	stimuli_distractor_trianglediamonds.svg	stimuli_target_diamondrectangles.svg	12	yes	57	0	591	0	0			0	0			1				0	
6.6.1	win	2023-06-26	22:34:00	22:38:14	225624	5dcb6fb005be6f8311d7e836	4	1	practice_z	5	practice_z	25	stimuli_target_diamondsquares.svg	stimuli_distractor_trianglediamonds.svg	6	yes	44	1	869	0	0			0	0			1				0	
6.6.1	win	2023-06-26	22:34:00	22:38:14	225624	5dcb6fb005be6f8311d7e836	4	1	practice_z	5	advance_on_keypress_ZEE	26	stimuli_target_diamondsquares.svg	stimuli_distractor_trianglediamonds.svg	6	yes	57	0	569	0	0			0	0			1				0	
6.6.1	win	2023-06-26	22:34:00	22:38:17	228644	5dcb6fb005be6f8311d7e836	4	1	practice_z	5	practice_z	27	stimuli_target_squarediamonds.svg	stimuli_distractor_diamondtriangles.svg	2	yes	44	1	807	0	0			0	0			1				0	
6.6.1	win	2023-06-26	22:34:00	22:38:17	228644	5dcb6fb005be6f8311d7e836	4	1	practice_z	5	advance_on_keypress_ZEE	28	stimuli_target_squarediamonds.svg	stimuli_distractor_diamondtriangles.svg	2	yes	57	0	536	0	0			0	0			1				0	
6.6.1	win	2023-06-26	22:34:00	22:38:20	231688	5dcb6fb005be6f8311d7e836	4	1	practice_z	5	practice_z	29	stimuli_distractor_diamondtriangles.svg	stimuli_target_diamondrectangles.svg	8	yes	44	1	852	0	0			0	0			1				0	
6.6.1	win	2023-06-26	22:34:00	22:38:20	231688	5dcb6fb005be6f8311d7e836	4	1	practice_z	5	advance_on_keypress_ZEE	30	stimuli_distractor_diamondtriangles.svg	stimuli_target_diamondrectangles.svg	8	yes	57	0	503	0	0			0	0			1				0	
6.6.1	win	2023-06-26	22:34:00	22:38:24	235135	5dcb6fb005be6f8311d7e836	4	1	practice_z	5	practice_z	31	stimuli_distractor_diamondtriangles.svg	stimuli_target_rectangletriangles.svg	7	yes	44	1	1264	0	0			0	0			1				0	
6.6.1	win	2023-06-26	22:34:00	22:38:24	235135	5dcb6fb005be6f8311d7e836	4	1	practice_z	5	advance_on_keypress_ZEE	32	stimuli_distractor_diamondtriangles.svg	stimuli_target_rectangletriangles.svg	7	yes	57	0	461	0	0			0	0			1				0	
6.6.1	win	2023-06-26	22:34:00	22:38:29	240955	5dcb6fb005be6f8311d7e836	4	1	main_z	7	main_z	1	stimuli_distractor_trianglediamonds.svg	stimuli_target_squarediamonds.svg	12	yes	44	1	692	0	0			0	0			1				0	
6.6.1	win	2023-06-26	22:34:00	22:38:29	240955	5dcb6fb005be6f8311d7e836	4	1	main_z	7	advance_on_keypress_ZEE	2	stimuli_distractor_trianglediamonds.svg	stimuli_target_squarediamonds.svg	12	yes	57	0	2312	0	0			0	0			1				0	
6.6.1	win	2023-06-26	22:34:00	22:38:35	246463	5dcb6fb005be6f8311d7e836	4	1	main_z	7	main_z	3	stimuli_distractor_diamondtriangles.svg	stimuli_distractor_trianglediamonds.svg	38	no	0	1	2000	0	0			0	0			1				0	
6.6.1	win	2023-06-26	22:34:00	22:38:35	246463	5dcb6fb005be6f8311d7e836	4	1	main_z	7	advance_on_keypress_ZEE	4	stimuli_distractor_diamondtriangles.svg	stimuli_distractor_trianglediamonds.svg	38	no	57	0	1371	0	0			0	0			1				0	
6.6.1	win	2023-06-26	22:34:00	22:38:38	249429	5dcb6fb005be6f8311d7e836	4	1	main_z	7	main_z	5	stimuli_target_diamondrectangles.svg	stimuli_distractor_diamondtriangles.svg	23	yes	44	1	950	0	0			0	0			1				0	
6.6.1	win	2023-06-26	22:34:00	22:38:38	249429	5dcb6fb005be6f8311d7e836	4	1	main_z	7	advance_on_keypress_ZEE	6	stimuli_target_diamondrectangles.svg	stimuli_distractor_diamondtriangles.svg	23	yes	57	0	624	0	0			0	0			1				0	
6.6.1	win	2023-06-26	22:34:00	22:38:41	252711	5dcb6fb005be6f8311d7e836	4	1	main_z	7	main_z	7	stimuli_distractor_trianglediamonds.svg	stimuli_distractor_trianglediamonds.svg	33	no	0	1	2000	0	0			0	0			1				0	
6.6.1	win	2023-06-26	22:34:00	22:38:41	252711	5dcb6fb005be6f8311d7e836	4	1	main_z	7	advance_on_keypress_ZEE	8	stimuli_distractor_trianglediamonds.svg	stimuli_distractor_trianglediamonds.svg	33	no	57	0	272	0	0			0	0			1				0	
6.6.1	win	2023-06-26	22:34:00	22:38:43	254344	5dcb6fb005be6f8311d7e836	4	1	main_z	7	main_z	9	stimuli_distractor_diamondtriangles.svg	stimuli_target_rectanglediamonds.svg	14	yes	44	1	700	0	0			0	0			1				0	
6.6.1	win	2023-06-26	22:34:00	22:38:43	254344	5dcb6fb005be6f8311d7e836	4	1	main_z	7	advance_on_keypress_ZEE	10	stimuli_distractor_diamondtriangles.svg	stimuli_target_rectanglediamonds.svg	14	yes	57	0	819	0	0			0	0			1				0	
6.6.1	win	2023-06-26	22:34:00	22:38:45	256525	5dcb6fb005be6f8311d7e836	4	1	main_z	7	main_z	11	stimuli_distractor_trianglediamonds.svg	stimuli_target_squaretriangles.svg	11	yes	44	1	715	0	0			0	0			1				0	
6.6.1	win	2023-06-26	22:34:00	22:38:45	256525	5dcb6fb005be6f8311d7e836	4	1	main_z	7	advance_on_keypress_ZEE	12	stimuli_distractor_trianglediamonds.svg	stimuli_target_squaretriangles.svg	11	yes	57	0	580	0	0			0	0			1				0	
6.6.1	win	2023-06-26	22:34:00	22:38:48	259759	5dcb6fb005be6f8311d7e836	4	1	main_z	7	main_z	13	stimuli_distractor_trianglediamonds.svg	stimuli_distractor_diamondtriangles.svg	36	no	0	1	2000	0	0			0	0			1				0	
6.6.1	win	2023-06-26	22:34:00	22:38:48	259759	5dcb6fb005be6f8311d7e836	4	1	main_z	7	advance_on_keypress_ZEE	14	stimuli_distractor_trianglediamonds.svg	stimuli_distractor_diamondtriangles.svg	36	no	57	0	405	0	0			0	0			1				0	
6.6.1	win	2023-06-26	22:34:00	22:38:50	261588	5dcb6fb005be6f8311d7e836	4	1	main_z	7	main_z	15	stimuli_distractor_diamondtriangles.svg	stimuli_target_squaretriangles.svg	15	yes	44	1	779	0	0			0	0			1				0	
6.6.1	win	2023-06-26	22:34:00	22:38:50	261588	5dcb6fb005be6f8311d7e836	4	1	main_z	7	advance_on_keypress_ZEE	16	stimuli_distractor_diamondtriangles.svg	stimuli_target_squaretriangles.svg	15	yes	57	0	534	0	0			0	0			1				0	
6.6.1	win	2023-06-26	22:34:00	22:38:52	263522	5dcb6fb005be6f8311d7e836	4	1	main_z	7	main_z	17	stimuli_target_squaretriangles.svg	stimuli_distractor_trianglediamonds.svg	3	yes	44	1	748	0	0			0	0			1				0	
6.6.1	win	2023-06-26	22:34:00	22:38:52	263522	5dcb6fb005be6f8311d7e836	4	1	main_z	7	advance_on_keypress_ZEE	18	stimuli_target_squaretriangles.svg	stimuli_distractor_trianglediamonds.svg	3	yes	57	0	490	0	0			0	0			1				0	
6.6.1	win	2023-06-26	22:34:00	22:38:55	266658	5dcb6fb005be6f8311d7e836	4	1	main_z	7	main_z	19	stimuli_distractor_diamondtriangles.svg	stimuli_distractor_trianglediamonds.svg	37	no	0	1	2000	0	0			0	0			1				0	
6.6.1	win	2023-06-26	22:34:00	22:38:55	266658	5dcb6fb005be6f8311d7e836	4	1	main_z	7	advance_on_keypress_ZEE	20	stimuli_distractor_diamondtriangles.svg	stimuli_distractor_trianglediamonds.svg	37	no	57	0	461	0	0			0	0			1				0	
6.6.1	win	2023-06-26	22:34:00	22:38:57	268532	5dcb6fb005be6f8311d7e836	4	1	main_z	7	main_z	21	stimuli_distractor_trianglediamonds.svg	stimuli_target_diamondsquares.svg	28	yes	44	1	759	0	0			0	0			1				0	
6.6.1	win	2023-06-26	22:34:00	22:38:57	268532	5dcb6fb005be6f8311d7e836	4	1	main_z	7	advance_on_keypress_ZEE	22	stimuli_distractor_trianglediamonds.svg	stimuli_target_diamondsquares.svg	28	yes	57	0	552	0	0			0	0			1				0	
6.6.1	win	2023-06-26	22:34:00	22:38:59	270799	5dcb6fb005be6f8311d7e836	4	1	main_z	7	main_z	23	stimuli_target_trianglesquares.svg	stimuli_distractor_trianglediamonds.svg	18	yes	44	1	1075	0	0			0	0			1				0	
6.6.1	win	2023-06-26	22:34:00	22:38:59	270799	5dcb6fb005be6f8311d7e836	4	1	main_z	7	advance_on_keypress_ZEE	24	stimuli_target_trianglesquares.svg	stimuli_distractor_trianglediamonds.svg	18	yes	57	0	525	0	0			0	0			1				0	
6.6.1	win	2023-06-26	22:34:00	22:39:02	273956	5dcb6fb005be6f8311d7e836	4	1	main_z	7	main_z	25	stimuli_distractor_trianglediamonds.svg	stimuli_distractor_diamondtriangles.svg	35	no	0	1	2000	0	0			0	0			1				0	
6.6.1	win	2023-06-26	22:34:00	22:39:02	273956	5dcb6fb005be6f8311d7e836	4	1	main_z	7	advance_on_keypress_ZEE	26	stimuli_distractor_trianglediamonds.svg	stimuli_distractor_diamondtriangles.svg	35	no	57	0	309	0	0			0	0			1				0	
6.6.1	win	2023-06-26	22:34:00	22:39:04	275716	5dcb6fb005be6f8311d7e836	4	1	main_z	7	main_z	27	stimuli_distractor_trianglediamonds.svg	stimuli_target_trianglerectangles.svg	25	yes	44	1	812	0	0			0	0			1				0	
6.6.1	win	2023-06-26	22:34:00	22:39:04	275716	5dcb6fb005be6f8311d7e836	4	1	main_z	7	advance_on_keypress_ZEE	28	stimuli_distractor_trianglediamonds.svg	stimuli_target_trianglerectangles.svg	25	yes	57	0	373	0	0			0	0			1				0	
6.6.1	win	2023-06-26	22:34:00	22:39:06	277508	5dcb6fb005be6f8311d7e836	4	1	main_z	7	main_z	29	stimuli_target_squaretriangles.svg	stimuli_distractor_diamondtriangles.svg	7	yes	44	1	770	0	0			0	0			1				0	
6.6.1	win	2023-06-26	22:34:00	22:39:06	277508	5dcb6fb005be6f8311d7e836	4	1	main_z	7	advance_on_keypress_ZEE	30	stimuli_target_squaretriangles.svg	stimuli_distractor_diamondtriangles.svg	7	yes	57	0	364	0	0			0	0			1				0	
6.6.1	win	2023-06-26	22:34:00	22:39:08	279440	5dcb6fb005be6f8311d7e836	4	1	main_z	7	main_z	31	stimuli_distractor_diamondtriangles.svg	stimuli_target_squarediamonds.svg	16	yes	44	1	918	0	0			0	0			1				0	
6.6.1	win	2023-06-26	22:34:00	22:39:08	279440	5dcb6fb005be6f8311d7e836	4	1	main_z	7	advance_on_keypress_ZEE	32	stimuli_distractor_diamondtriangles.svg	stimuli_target_squarediamonds.svg	16	yes	57	0	417	0	0			0	0			1				0	
6.6.1	win	2023-06-26	22:34:00	22:39:11	282504	5dcb6fb005be6f8311d7e836	4	1	main_z	7	main_z	33	stimuli_distractor_diamondtriangles.svg	stimuli_distractor_diamondtriangles.svg	40	no	0	1	2000	0	0			0	0			1				0	
6.6.1	win	2023-06-26	22:34:00	22:39:11	282504	5dcb6fb005be6f8311d7e836	4	1	main_z	7	advance_on_keypress_ZEE	34	stimuli_distractor_diamondtriangles.svg	stimuli_distractor_diamondtriangles.svg	40	no	57	0	504	0	0			0	0			1				0	
6.6.1	win	2023-06-26	22:34:00	22:39:13	284383	5dcb6fb005be6f8311d7e836	4	1	main_z	7	main_z	35	stimuli_target_rectangletriangles.svg	stimuli_distractor_trianglediamonds.svg	1	yes	44	1	730	0	0			0	0			1				0	
6.6.1	win	2023-06-26	22:34:00	22:39:13	284383	5dcb6fb005be6f8311d7e836	4	1	main_z	7	advance_on_keypress_ZEE	36	stimuli_target_rectangletriangles.svg	stimuli_distractor_trianglediamonds.svg	1	yes	57	0	486	0	0			0	0			1				0	
6.6.1	win	2023-06-26	22:34:00	22:39:15	286189	5dcb6fb005be6f8311d7e836	4	1	main_z	7	main_z	37	stimuli_target_squarediamonds.svg	stimuli_distractor_diamondtriangles.svg	8	yes	44	1	669	0	0			0	0			1				0	
6.6.1	win	2023-06-26	22:34:00	22:39:15	286189	5dcb6fb005be6f8311d7e836	4	1	main_z	7	advance_on_keypress_ZEE	38	stimuli_target_squarediamonds.svg	stimuli_distractor_diamondtriangles.svg	8	yes	57	0	475	0	0			0	0			1				0	
6.6.1	win	2023-06-26	22:34:00	22:39:17	288239	5dcb6fb005be6f8311d7e836	4	1	main_z	7	main_z	39	stimuli_target_trianglesquares.svg	stimuli_distractor_diamondtriangles.svg	22	yes	44	1	921	0	0			0	0			1				0	
6.6.1	win	2023-06-26	22:34:00	22:39:17	288239	5dcb6fb005be6f8311d7e836	4	1	main_z	7	advance_on_keypress_ZEE	40	stimuli_target_trianglesquares.svg	stimuli_distractor_diamondtriangles.svg	22	yes	57	0	427	0	0			0	0			1				0	
6.6.1	win	2023-06-26	22:34:00	22:39:19	290087	5dcb6fb005be6f8311d7e836	4	1	main_z	7	main_z	41	stimuli_distractor_trianglediamonds.svg	stimuli_target_trianglesquares.svg	26	yes	44	1	768	0	0			0	0			1				0	
6.6.1	win	2023-06-26	22:34:00	22:39:19	290087	5dcb6fb005be6f8311d7e836	4	1	main_z	7	advance_on_keypress_ZEE	42	stimuli_distractor_trianglediamonds.svg	stimuli_target_trianglesquares.svg	26	yes	57	0	461	0	0			0	0			1				0	
6.6.1	win	2023-06-26	22:34:00	22:39:20	291897	5dcb6fb005be6f8311d7e836	4	1	main_z	7	main_z	43	stimuli_target_diamondsquares.svg	stimuli_distractor_trianglediamonds.svg	20	yes	44	1	695	0	0			0	0			1				0	
6.6.1	win	2023-06-26	22:34:00	22:39:20	291897	5dcb6fb005be6f8311d7e836	4	1	main_z	7	advance_on_keypress_ZEE	44	stimuli_target_diamondsquares.svg	stimuli_distractor_trianglediamonds.svg	20	yes	57	0	584	0	0			0	0			1				0	
6.6.1	win	2023-06-26	22:34:00	22:39:22	293885	5dcb6fb005be6f8311d7e836	4	1	main_z	7	main_z	45	stimuli_target_squarediamonds.svg	stimuli_distractor_trianglediamonds.svg	4	yes	44	1	750	0	0			0	0			1				0	
6.6.1	win	2023-06-26	22:34:00	22:39:22	293885	5dcb6fb005be6f8311d7e836	4	1	main_z	7	advance_on_keypress_ZEE	46	stimuli_target_squarediamonds.svg	stimuli_distractor_trianglediamonds.svg	4	yes	57	0	438	0	0			0	0			1				0	
6.6.1	win	2023-06-26	22:34:00	22:39:24	295677	5dcb6fb005be6f8311d7e836	4	1	main_z	7	main_z	47	stimuli_distractor_trianglediamonds.svg	stimuli_target_rectanglediamonds.svg	10	yes	44	1	709	0	0			0	0			1				0	
6.6.1	win	2023-06-26	22:34:00	22:39:24	295677	5dcb6fb005be6f8311d7e836	4	1	main_z	7	advance_on_keypress_ZEE	48	stimuli_distractor_trianglediamonds.svg	stimuli_target_rectanglediamonds.svg	10	yes	57	0	510	0	0			0	0			1				0	
6.6.1	win	2023-06-26	22:34:00	22:39:26	297601	5dcb6fb005be6f8311d7e836	4	1	main_z	7	main_z	49	stimuli_target_diamondsquares.svg	stimuli_distractor_diamondtriangles.svg	24	yes	44	1	751	0	0			0	0			1				0	
6.6.1	win	2023-06-26	22:34:00	22:39:26	297601	5dcb6fb005be6f8311d7e836	4	1	main_z	7	advance_on_keypress_ZEE	50	stimuli_target_diamondsquares.svg	stimuli_distractor_diamondtriangles.svg	24	yes	57	0	352	0	0			0	0			1				0	
6.6.1	win	2023-06-26	22:34:00	22:39:28	299319	5dcb6fb005be6f8311d7e836	4	1	main_z	7	main_z	51	stimuli_distractor_diamondtriangles.svg	stimuli_target_trianglesquares.svg	30	yes	44	1	719	0	0			0	0			1				0	
6.6.1	win	2023-06-26	22:34:00	22:39:28	299319	5dcb6fb005be6f8311d7e836	4	1	main_z	7	advance_on_keypress_ZEE	52	stimuli_distractor_diamondtriangles.svg	stimuli_target_trianglesquares.svg	30	yes	57	0	587	0	0			0	0			1				0	
6.6.1	win	2023-06-26	22:34:00	22:39:30	301278	5dcb6fb005be6f8311d7e836	4	1	main_z	7	main_z	53	stimuli_distractor_diamondtriangles.svg	stimuli_distractor_diamondtriangles.svg	39	no	44	0	695	0	0			0	0			1				0	
6.6.1	win	2023-06-26	22:34:00	22:39:30	301278	5dcb6fb005be6f8311d7e836	4	1	main_z	7	advance_on_keypress_ZEE	54	stimuli_distractor_diamondtriangles.svg	stimuli_distractor_diamondtriangles.svg	39	no	57	0	643	0	0			0	0			1				0	
6.6.1	win	2023-06-26	22:34:00	22:39:32	303290	5dcb6fb005be6f8311d7e836	4	1	main_z	7	main_z	55	stimuli_target_diamondrectangles.svg	stimuli_distractor_trianglediamonds.svg	19	yes	44	1	708	0	0			0	0			1				0	
6.6.1	win	2023-06-26	22:34:00	22:39:32	303290	5dcb6fb005be6f8311d7e836	4	1	main_z	7	advance_on_keypress_ZEE	56	stimuli_target_diamondrectangles.svg	stimuli_distractor_trianglediamonds.svg	19	yes	57	0	456	0	0			0	0			1				0	
6.6.1	win	2023-06-26	22:34:00	22:39:34	305303	5dcb6fb005be6f8311d7e836	4	1	main_z	7	main_z	57	stimuli_distractor_diamondtriangles.svg	stimuli_target_rectangletriangles.svg	13	yes	44	1	922	0	0			0	0			1				0	
6.6.1	win	2023-06-26	22:34:00	22:39:34	305303	5dcb6fb005be6f8311d7e836	4	1	main_z	7	advance_on_keypress_ZEE	58	stimuli_distractor_diamondtriangles.svg	stimuli_target_rectangletriangles.svg	13	yes	57	0	475	0	0			0	0			1				0	
6.6.1	win	2023-06-26	22:34:00	22:39:36	307133	5dcb6fb005be6f8311d7e836	4	1	main_z	7	main_z	59	stimuli_target_rectangletriangles.svg	stimuli_distractor_diamondtriangles.svg	5	yes	44	1	719	0	0			0	0			1				0	
6.6.1	win	2023-06-26	22:34:00	22:39:36	307133	5dcb6fb005be6f8311d7e836	4	1	main_z	7	advance_on_keypress_ZEE	60	stimuli_target_rectangletriangles.svg	stimuli_distractor_diamondtriangles.svg	5	yes	57	0	414	0	0			0	0			1				0	
6.6.1	win	2023-06-26	22:34:00	22:39:38	309151	5dcb6fb005be6f8311d7e836	4	1	main_z	7	main_z	61	stimuli_distractor_diamondtriangles.svg	stimuli_target_trianglerectangles.svg	29	yes	44	1	955	0	0			0	0			1				0	
6.6.1	win	2023-06-26	22:34:00	22:39:38	309151	5dcb6fb005be6f8311d7e836	4	1	main_z	7	advance_on_keypress_ZEE	62	stimuli_distractor_diamondtriangles.svg	stimuli_target_trianglerectangles.svg	29	yes	57	0	432	0	0			0	0			1				0	
6.6.1	win	2023-06-26	22:34:00	22:39:39	310934	5dcb6fb005be6f8311d7e836	4	1	main_z	7	main_z	63	stimuli_distractor_diamondtriangles.svg	stimuli_target_diamondsquares.svg	32	yes	44	1	704	0	0			0	0			1				0	
6.6.1	win	2023-06-26	22:34:00	22:39:39	310934	5dcb6fb005be6f8311d7e836	4	1	main_z	7	advance_on_keypress_ZEE	64	stimuli_distractor_diamondtriangles.svg	stimuli_target_diamondsquares.svg	32	yes	57	0	414	0	0			0	0			1				0	
6.6.1	win	2023-06-26	22:34:00	22:39:41	312789	5dcb6fb005be6f8311d7e836	4	1	main_z	7	main_z	65	stimuli_distractor_trianglediamonds.svg	stimuli_target_diamondrectangles.svg	27	yes	44	1	793	0	0			0	0			1				0	
6.6.1	win	2023-06-26	22:34:00	22:39:41	312789	5dcb6fb005be6f8311d7e836	4	1	main_z	7	advance_on_keypress_ZEE	66	stimuli_distractor_trianglediamonds.svg	stimuli_target_diamondrectangles.svg	27	yes	57	0	441	0	0			0	0			1				0	
6.6.1	win	2023-06-26	22:34:00	22:39:43	314620	5dcb6fb005be6f8311d7e836	4	1	main_z	7	main_z	67	stimuli_target_rectanglediamonds.svg	stimuli_distractor_diamondtriangles.svg	6	yes	44	1	741	0	0			0	0			1				0	
6.6.1	win	2023-06-26	22:34:00	22:39:43	314620	5dcb6fb005be6f8311d7e836	4	1	main_z	7	advance_on_keypress_ZEE	68	stimuli_target_rectanglediamonds.svg	stimuli_distractor_diamondtriangles.svg	6	yes	57	0	451	0	0			0	0			1				0	
6.6.1	win	2023-06-26	22:34:00	22:39:45	316452	5dcb6fb005be6f8311d7e836	4	1	main_z	7	main_z	69	stimuli_distractor_diamondtriangles.svg	stimuli_target_diamondrectangles.svg	31	yes	44	1	740	0	0			0	0			1				0	
6.6.1	win	2023-06-26	22:34:00	22:39:45	316452	5dcb6fb005be6f8311d7e836	4	1	main_z	7	advance_on_keypress_ZEE	70	stimuli_distractor_diamondtriangles.svg	stimuli_target_diamondrectangles.svg	31	yes	57	0	412	0	0			0	0			1				0	
6.6.1	win	2023-06-26	22:34:00	22:39:47	318338	5dcb6fb005be6f8311d7e836	4	1	main_z	7	main_z	71	stimuli_target_rectanglediamonds.svg	stimuli_distractor_trianglediamonds.svg	2	yes	44	1	826	0	0			0	0			1				0	
6.6.1	win	2023-06-26	22:34:00	22:39:47	318338	5dcb6fb005be6f8311d7e836	4	1	main_z	7	advance_on_keypress_ZEE	72	stimuli_target_rectanglediamonds.svg	stimuli_distractor_trianglediamonds.svg	2	yes	57	0	393	0	0			0	0			1				0	
6.6.1	win	2023-06-26	22:34:00	22:39:50	321378	5dcb6fb005be6f8311d7e836	4	1	main_z	7	main_z	73	stimuli_target_trianglerectangles.svg	stimuli_distractor_trianglediamonds.svg	17	yes	0	0	2000	0	0			0	0			1				0	
6.6.1	win	2023-06-26	22:34:00	22:39:50	321378	5dcb6fb005be6f8311d7e836	4	1	main_z	7	advance_on_keypress_ZEE	74	stimuli_target_trianglerectangles.svg	stimuli_distractor_trianglediamonds.svg	17	yes	57	0	361	0	0			0	0			1				0	
6.6.1	win	2023-06-26	22:34:00	22:39:52	323241	5dcb6fb005be6f8311d7e836	4	1	main_z	7	main_z	75	stimuli_target_trianglerectangles.svg	stimuli_distractor_diamondtriangles.svg	21	yes	44	1	847	0	0			0	0			1				0	
6.6.1	win	2023-06-26	22:34:00	22:39:52	323241	5dcb6fb005be6f8311d7e836	4	1	main_z	7	advance_on_keypress_ZEE	76	stimuli_target_trianglerectangles.svg	stimuli_distractor_diamondtriangles.svg	21	yes	57	0	659	0	0			0	0			1				0	
6.6.1	win	2023-06-26	22:34:00	22:39:55	326561	5dcb6fb005be6f8311d7e836	4	1	main_z	7	main_z	77	stimuli_distractor_trianglediamonds.svg	stimuli_distractor_trianglediamonds.svg	34	no	0	1	2000	0	0			0	0			1				0	
6.6.1	win	2023-06-26	22:34:00	22:39:55	326561	5dcb6fb005be6f8311d7e836	4	1	main_z	7	advance_on_keypress_ZEE	78	stimuli_distractor_trianglediamonds.svg	stimuli_distractor_trianglediamonds.svg	34	no	57	0	538	0	0			0	0			1				0	
6.6.1	win	2023-06-26	22:34:00	22:39:57	328732	5dcb6fb005be6f8311d7e836	4	1	main_z	7	main_z	79	stimuli_distractor_trianglediamonds.svg	stimuli_target_rectangletriangles.svg	9	yes	44	1	990	0	0			0	0			1				0	
6.6.1	win	2023-06-26	22:34:00	22:39:57	328732	5dcb6fb005be6f8311d7e836	4	1	main_z	7	advance_on_keypress_ZEE	80	stimuli_distractor_trianglediamonds.svg	stimuli_target_rectangletriangles.svg	9	yes	57	0	512	0	0			0	0			1				0	
6.6.1	win	2023-06-26	22:34:00	22:39:59	330732	5dcb6fb005be6f8311d7e836	4	1	main_z	7	main_z	81	stimuli_distractor_diamondtriangles.svg	stimuli_target_squarediamonds.svg	16	yes	44	1	841	0	0			0	0			1				0	
6.6.1	win	2023-06-26	22:34:00	22:39:59	330732	5dcb6fb005be6f8311d7e836	4	1	main_z	7	advance_on_keypress_ZEE	82	stimuli_distractor_diamondtriangles.svg	stimuli_target_squarediamonds.svg	16	yes	57	0	476	0	0			0	0			1				0	
6.6.1	win	2023-06-26	22:34:00	22:40:02	333069	5dcb6fb005be6f8311d7e836	4	1	main_z	7	main_z	83	stimuli_distractor_diamondtriangles.svg	stimuli_target_trianglerectangles.svg	29	yes	44	1	1227	0	0			0	0			1				0	
6.6.1	win	2023-06-26	22:34:00	22:40:02	333069	5dcb6fb005be6f8311d7e836	4	1	main_z	7	advance_on_keypress_ZEE	84	stimuli_distractor_diamondtriangles.svg	stimuli_target_trianglerectangles.svg	29	yes	57	0	430	0	0			0	0			1				0	
6.6.1	win	2023-06-26	22:34:00	22:40:03	334889	5dcb6fb005be6f8311d7e836	4	1	main_z	7	main_z	85	stimuli_target_squaretriangles.svg	stimuli_distractor_trianglediamonds.svg	3	yes	44	1	732	0	0			0	0			1				0	
6.6.1	win	2023-06-26	22:34:00	22:40:03	334889	5dcb6fb005be6f8311d7e836	4	1	main_z	7	advance_on_keypress_ZEE	86	stimuli_target_squaretriangles.svg	stimuli_distractor_trianglediamonds.svg	3	yes	57	0	361	0	0			0	0			1				0	
6.6.1	win	2023-06-26	22:34:00	22:40:05	336673	5dcb6fb005be6f8311d7e836	4	1	main_z	7	main_z	87	stimuli_distractor_diamondtriangles.svg	stimuli_target_rectangletriangles.svg	13	yes	44	1	766	0	0			0	0			1				0	
6.6.1	win	2023-06-26	22:34:00	22:40:05	336673	5dcb6fb005be6f8311d7e836	4	1	main_z	7	advance_on_keypress_ZEE	88	stimuli_distractor_diamondtriangles.svg	stimuli_target_rectangletriangles.svg	13	yes	57	0	362	0	0			0	0			1				0	
6.6.1	win	2023-06-26	22:34:00	22:40:08	339690	5dcb6fb005be6f8311d7e836	4	1	main_z	7	main_z	89	stimuli_distractor_diamondtriangles.svg	stimuli_distractor_trianglediamonds.svg	37	no	0	1	2000	0	0			0	0			1				0	
6.6.1	win	2023-06-26	22:34:00	22:40:08	339690	5dcb6fb005be6f8311d7e836	4	1	main_z	7	advance_on_keypress_ZEE	90	stimuli_distractor_diamondtriangles.svg	stimuli_distractor_trianglediamonds.svg	37	no	57	0	412	0	0			0	0			1				0	
6.6.1	win	2023-06-26	22:34:00	22:40:11	342756	5dcb6fb005be6f8311d7e836	4	1	main_z	7	main_z	91	stimuli_distractor_diamondtriangles.svg	stimuli_distractor_diamondtriangles.svg	39	no	0	1	2000	0	0			0	0			1				0	
6.6.1	win	2023-06-26	22:34:00	22:40:11	342756	5dcb6fb005be6f8311d7e836	4	1	main_z	7	advance_on_keypress_ZEE	92	stimuli_distractor_diamondtriangles.svg	stimuli_distractor_diamondtriangles.svg	39	no	57	0	336	0	0			0	0			1				0	
6.6.1	win	2023-06-26	22:34:00	22:40:13	344444	5dcb6fb005be6f8311d7e836	4	1	main_z	7	main_z	93	stimuli_target_diamondsquares.svg	stimuli_distractor_trianglediamonds.svg	20	yes	44	1	705	0	0			0	0			1				0	
6.6.1	win	2023-06-26	22:34:00	22:40:13	344444	5dcb6fb005be6f8311d7e836	4	1	main_z	7	advance_on_keypress_ZEE	94	stimuli_target_diamondsquares.svg	stimuli_distractor_trianglediamonds.svg	20	yes	57	0	400	0	0			0	0			1				0	
6.6.1	win	2023-06-26	22:34:00	22:40:15	346250	5dcb6fb005be6f8311d7e836	4	1	main_z	7	main_z	95	stimuli_distractor_diamondtriangles.svg	stimuli_target_trianglesquares.svg	30	yes	44	1	762	0	0			0	0			1				0	
6.6.1	win	2023-06-26	22:34:00	22:40:15	346250	5dcb6fb005be6f8311d7e836	4	1	main_z	7	advance_on_keypress_ZEE	96	stimuli_distractor_diamondtriangles.svg	stimuli_target_trianglesquares.svg	30	yes	57	0	346	0	0			0	0			1				0	
6.6.1	win	2023-06-26	22:34:00	22:40:18	349254	5dcb6fb005be6f8311d7e836	4	1	main_z	7	main_z	97	stimuli_distractor_diamondtriangles.svg	stimuli_distractor_trianglediamonds.svg	38	no	0	1	2000	0	0			0	0			1				0	
6.6.1	win	2023-06-26	22:34:00	22:40:18	349254	5dcb6fb005be6f8311d7e836	4	1	main_z	7	advance_on_keypress_ZEE	98	stimuli_distractor_diamondtriangles.svg	stimuli_distractor_trianglediamonds.svg	38	no	57	0	470	0	0			0	0			1				0	
6.6.1	win	2023-06-26	22:34:00	22:40:20	351058	5dcb6fb005be6f8311d7e836	4	1	main_z	7	main_z	99	stimuli_target_squaretriangles.svg	stimuli_distractor_diamondtriangles.svg	7	yes	44	1	687	0	0			0	0			1				0	
6.6.1	win	2023-06-26	22:34:00	22:40:20	351058	5dcb6fb005be6f8311d7e836	4	1	main_z	7	advance_on_keypress_ZEE	100	stimuli_target_squaretriangles.svg	stimuli_distractor_diamondtriangles.svg	7	yes	57	0	484	0	0			0	0			1				0	
6.6.1	win	2023-06-26	22:34:00	22:40:21	352915	5dcb6fb005be6f8311d7e836	4	1	main_z	7	main_z	101	stimuli_distractor_trianglediamonds.svg	stimuli_target_squaretriangles.svg	11	yes	44	1	728	0	0			0	0			1				0	
6.6.1	win	2023-06-26	22:34:00	22:40:21	352915	5dcb6fb005be6f8311d7e836	4	1	main_z	7	advance_on_keypress_ZEE	102	stimuli_distractor_trianglediamonds.svg	stimuli_target_squaretriangles.svg	11	yes	57	0	381	0	0			0	0			1				0	
6.6.1	win	2023-06-26	22:34:00	22:40:23	354626	5dcb6fb005be6f8311d7e836	4	1	main_z	7	main_z	103	stimuli_target_diamondrectangles.svg	stimuli_distractor_diamondtriangles.svg	23	yes	44	1	674	0	0			0	0			1				0	
6.6.1	win	2023-06-26	22:34:00	22:40:23	354626	5dcb6fb005be6f8311d7e836	4	1	main_z	7	advance_on_keypress_ZEE	104	stimuli_target_diamondrectangles.svg	stimuli_distractor_diamondtriangles.svg	23	yes	57	0	342	0	0			0	0			1				0	
6.6.1	win	2023-06-26	22:34:00	22:40:26	357602	5dcb6fb005be6f8311d7e836	4	1	main_z	7	main_z	105	stimuli_distractor_trianglediamonds.svg	stimuli_distractor_trianglediamonds.svg	34	no	0	1	2000	0	0			0	0			1				0	
6.6.1	win	2023-06-26	22:34:00	22:40:26	357602	5dcb6fb005be6f8311d7e836	4	1	main_z	7	advance_on_keypress_ZEE	106	stimuli_distractor_trianglediamonds.svg	stimuli_distractor_trianglediamonds.svg	34	no	57	0	479	0	0			0	0			1				0	
6.6.1	win	2023-06-26	22:34:00	22:40:28	359400	5dcb6fb005be6f8311d7e836	4	1	main_z	7	main_z	107	stimuli_distractor_diamondtriangles.svg	stimuli_target_diamondsquares.svg	32	yes	44	1	664	0	0			0	0			1				0	
6.6.1	win	2023-06-26	22:34:00	22:40:28	359400	5dcb6fb005be6f8311d7e836	4	1	main_z	7	advance_on_keypress_ZEE	108	stimuli_distractor_diamondtriangles.svg	stimuli_target_diamondsquares.svg	32	yes	57	0	592	0	0			0	0			1				0	
6.6.1	win	2023-06-26	22:34:00	22:40:30	361386	5dcb6fb005be6f8311d7e836	4	1	main_z	7	main_z	109	stimuli_distractor_trianglediamonds.svg	stimuli_target_rectangletriangles.svg	9	yes	44	1	734	0	0			0	0			1				0	
6.6.1	win	2023-06-26	22:34:00	22:40:30	361386	5dcb6fb005be6f8311d7e836	4	1	main_z	7	advance_on_keypress_ZEE	110	stimuli_distractor_trianglediamonds.svg	stimuli_target_rectangletriangles.svg	9	yes	57	0	319	0	0			0	0			1				0	
6.6.1	win	2023-06-26	22:34:00	22:40:32	363071	5dcb6fb005be6f8311d7e836	4	1	main_z	7	main_z	111	stimuli_target_squarediamonds.svg	stimuli_distractor_trianglediamonds.svg	4	yes	44	1	720	0	0			0	0			1				0	
6.6.1	win	2023-06-26	22:34:00	22:40:32	363071	5dcb6fb005be6f8311d7e836	4	1	main_z	7	advance_on_keypress_ZEE	112	stimuli_target_squarediamonds.svg	stimuli_distractor_trianglediamonds.svg	4	yes	57	0	417	0	0			0	0			1				0	
6.6.1	win	2023-06-26	22:34:00	22:40:33	364840	5dcb6fb005be6f8311d7e836	4	1	main_z	7	main_z	113	stimuli_target_rectangletriangles.svg	stimuli_distractor_trianglediamonds.svg	1	yes	44	1	707	0	0			0	0			1				0	
6.6.1	win	2023-06-26	22:34:00	22:40:33	364840	5dcb6fb005be6f8311d7e836	4	1	main_z	7	advance_on_keypress_ZEE	114	stimuli_target_rectangletriangles.svg	stimuli_distractor_trianglediamonds.svg	1	yes	57	0	410	0	0			0	0			1				0	
6.6.1	win	2023-06-26	22:34:00	22:40:35	366673	5dcb6fb005be6f8311d7e836	4	1	main_z	7	main_z	115	stimuli_distractor_trianglediamonds.svg	stimuli_target_diamondrectangles.svg	27	yes	44	1	772	0	0			0	0			1				0	
6.6.1	win	2023-06-26	22:34:00	22:40:35	366673	5dcb6fb005be6f8311d7e836	4	1	main_z	7	advance_on_keypress_ZEE	116	stimuli_distractor_trianglediamonds.svg	stimuli_target_diamondrectangles.svg	27	yes	57	0	353	0	0			0	0			1				0	
6.6.1	win	2023-06-26	22:34:00	22:40:38	369667	5dcb6fb005be6f8311d7e836	4	1	main_z	7	main_z	117	stimuli_target_trianglerectangles.svg	stimuli_distractor_trianglediamonds.svg	17	yes	0	0	2000	0	0			0	0			1				0	
6.6.1	win	2023-06-26	22:34:00	22:40:38	369667	5dcb6fb005be6f8311d7e836	4	1	main_z	7	advance_on_keypress_ZEE	118	stimuli_target_trianglerectangles.svg	stimuli_distractor_trianglediamonds.svg	17	yes	57	0	3604	0	0			0	0			1				0	
6.6.1	win	2023-06-26	22:34:00	22:40:44	375915	5dcb6fb005be6f8311d7e836	4	1	main_z	7	main_z	119	stimuli_distractor_trianglediamonds.svg	stimuli_distractor_trianglediamonds.svg	33	no	0	1	2000	0	0			0	0			1				0	
6.6.1	win	2023-06-26	22:34:00	22:40:44	375915	5dcb6fb005be6f8311d7e836	4	1	main_z	7	advance_on_keypress_ZEE	120	stimuli_distractor_trianglediamonds.svg	stimuli_distractor_trianglediamonds.svg	33	no	57	0	322	0	0			0	0			1				0	
6.6.1	win	2023-06-26	22:34:00	22:40:46	377550	5dcb6fb005be6f8311d7e836	4	1	main_z	7	main_z	121	stimuli_target_rectanglediamonds.svg	stimuli_distractor_diamondtriangles.svg	6	yes	44	1	669	0	0			0	0			1				0	
6.6.1	win	2023-06-26	22:34:00	22:40:46	377550	5dcb6fb005be6f8311d7e836	4	1	main_z	7	advance_on_keypress_ZEE	122	stimuli_target_rectanglediamonds.svg	stimuli_distractor_diamondtriangles.svg	6	yes	57	0	398	0	0			0	0			1				0	
6.6.1	win	2023-06-26	22:34:00	22:40:49	380598	5dcb6fb005be6f8311d7e836	4	1	main_z	7	main_z	123	stimuli_distractor_diamondtriangles.svg	stimuli_distractor_diamondtriangles.svg	40	no	0	1	2000	0	0			0	0			1				0	
6.6.1	win	2023-06-26	22:34:00	22:40:49	380598	5dcb6fb005be6f8311d7e836	4	1	main_z	7	advance_on_keypress_ZEE	124	stimuli_distractor_diamondtriangles.svg	stimuli_distractor_diamondtriangles.svg	40	no	57	0	327	0	0			0	0			1				0	
6.6.1	win	2023-06-26	22:34:00	22:40:51	382145	5dcb6fb005be6f8311d7e836	4	1	main_z	7	main_z	125	stimuli_target_squarediamonds.svg	stimuli_distractor_diamondtriangles.svg	8	yes	44	1	566	0	0			0	0			1				0	
6.6.1	win	2023-06-26	22:34:00	22:40:51	382145	5dcb6fb005be6f8311d7e836	4	1	main_z	7	advance_on_keypress_ZEE	126	stimuli_target_squarediamonds.svg	stimuli_distractor_diamondtriangles.svg	8	yes	57	0	481	0	0			0	0			1				0	
6.6.1	win	2023-06-26	22:34:00	22:40:52	383942	5dcb6fb005be6f8311d7e836	4	1	main_z	7	main_z	127	stimuli_target_rectanglediamonds.svg	stimuli_distractor_trianglediamonds.svg	2	yes	44	1	662	0	0			0	0			1				0	
6.6.1	win	2023-06-26	22:34:00	22:40:52	383942	5dcb6fb005be6f8311d7e836	4	1	main_z	7	advance_on_keypress_ZEE	128	stimuli_target_rectanglediamonds.svg	stimuli_distractor_trianglediamonds.svg	2	yes	57	0	459	0	0			0	0			1				0	
6.6.1	win	2023-06-26	22:34:00	22:40:54	385694	5dcb6fb005be6f8311d7e836	4	1	main_z	7	main_z	129	stimuli_distractor_diamondtriangles.svg	stimuli_target_diamondrectangles.svg	31	yes	44	1	647	0	0			0	0			1				0	
6.6.1	win	2023-06-26	22:34:00	22:40:54	385694	5dcb6fb005be6f8311d7e836	4	1	main_z	7	advance_on_keypress_ZEE	130	stimuli_distractor_diamondtriangles.svg	stimuli_target_diamondrectangles.svg	31	yes	57	0	412	0	0			0	0			1				0	
6.6.1	win	2023-06-26	22:34:00	22:40:56	387578	5dcb6fb005be6f8311d7e836	4	1	main_z	7	main_z	131	stimuli_distractor_trianglediamonds.svg	stimuli_target_diamondsquares.svg	28	yes	44	1	814	0	0			0	0			1				0	
6.6.1	win	2023-06-26	22:34:00	22:40:56	387578	5dcb6fb005be6f8311d7e836	4	1	main_z	7	advance_on_keypress_ZEE	132	stimuli_distractor_trianglediamonds.svg	stimuli_target_diamondsquares.svg	28	yes	57	0	447	0	0			0	0			1				0	
6.6.1	win	2023-06-26	22:34:00	22:40:59	390678	5dcb6fb005be6f8311d7e836	4	1	main_z	7	main_z	133	stimuli_distractor_trianglediamonds.svg	stimuli_distractor_diamondtriangles.svg	36	no	0	1	2000	0	0			0	0			1				0	
6.6.1	win	2023-06-26	22:34:00	22:40:59	390678	5dcb6fb005be6f8311d7e836	4	1	main_z	7	advance_on_keypress_ZEE	134	stimuli_distractor_trianglediamonds.svg	stimuli_distractor_diamondtriangles.svg	36	no	57	0	40	0	0			0	0			1				0	
6.6.1	win	2023-06-26	22:34:00	22:41:01	392028	5dcb6fb005be6f8311d7e836	4	1	main_z	7	main_z	135	stimuli_distractor_diamondtriangles.svg	stimuli_target_rectanglediamonds.svg	14	yes	44	1	650	0	0			0	0			1				0	
6.6.1	win	2023-06-26	22:34:00	22:41:01	392028	5dcb6fb005be6f8311d7e836	4	1	main_z	7	advance_on_keypress_ZEE	136	stimuli_distractor_diamondtriangles.svg	stimuli_target_rectanglediamonds.svg	14	yes	57	0	400	0	0			0	0			1				0	
6.6.1	win	2023-06-26	22:34:00	22:41:02	393780	5dcb6fb005be6f8311d7e836	4	1	main_z	7	main_z	137	stimuli_target_trianglesquares.svg	stimuli_distractor_diamondtriangles.svg	22	yes	44	1	703	0	0			0	0			1				0	
6.6.1	win	2023-06-26	22:34:00	22:41:02	393780	5dcb6fb005be6f8311d7e836	4	1	main_z	7	advance_on_keypress_ZEE	138	stimuli_target_trianglesquares.svg	stimuli_distractor_diamondtriangles.svg	22	yes	57	0	372	0	0			0	0			1				0	
6.6.1	win	2023-06-26	22:34:00	22:41:04	395484	5dcb6fb005be6f8311d7e836	4	1	main_z	7	main_z	139	stimuli_distractor_diamondtriangles.svg	stimuli_target_squaretriangles.svg	15	yes	44	1	690	0	0			0	0			1				0	
6.6.1	win	2023-06-26	22:34:00	22:41:04	395484	5dcb6fb005be6f8311d7e836	4	1	main_z	7	advance_on_keypress_ZEE	140	stimuli_distractor_diamondtriangles.svg	stimuli_target_squaretriangles.svg	15	yes	57	0	462	0	0			0	0			1				0	
6.6.1	win	2023-06-26	22:34:00	22:41:06	397256	5dcb6fb005be6f8311d7e836	4	1	main_z	7	main_z	141	stimuli_target_diamondrectangles.svg	stimuli_distractor_trianglediamonds.svg	19	yes	44	1	664	0	0			0	0			1				0	
6.6.1	win	2023-06-26	22:34:00	22:41:06	397256	5dcb6fb005be6f8311d7e836	4	1	main_z	7	advance_on_keypress_ZEE	142	stimuli_target_diamondrectangles.svg	stimuli_distractor_trianglediamonds.svg	19	yes	57	0	397	0	0			0	0			1				0	
6.6.1	win	2023-06-26	22:34:00	22:41:08	399073	5dcb6fb005be6f8311d7e836	4	1	main_z	7	main_z	143	stimuli_distractor_trianglediamonds.svg	stimuli_distractor_diamondtriangles.svg	35	no	44	0	765	0	0			0	0			1				0	
6.6.1	win	2023-06-26	22:34:00	22:41:08	399073	5dcb6fb005be6f8311d7e836	4	1	main_z	7	advance_on_keypress_ZEE	144	stimuli_distractor_trianglediamonds.svg	stimuli_distractor_diamondtriangles.svg	35	no	57	0	604	0	0			0	0			1				0	
6.6.1	win	2023-06-26	22:34:00	22:41:10	401022	5dcb6fb005be6f8311d7e836	4	1	main_z	7	main_z	145	stimuli_distractor_trianglediamonds.svg	stimuli_target_squarediamonds.svg	12	yes	44	1	696	0	0			0	0			1				0	
6.6.1	win	2023-06-26	22:34:00	22:41:10	401022	5dcb6fb005be6f8311d7e836	4	1	main_z	7	advance_on_keypress_ZEE	146	stimuli_distractor_trianglediamonds.svg	stimuli_target_squarediamonds.svg	12	yes	57	0	475	0	0			0	0			1				0	
6.6.1	win	2023-06-26	22:34:00	22:41:11	402721	5dcb6fb005be6f8311d7e836	4	1	main_z	7	main_z	147	stimuli_target_diamondsquares.svg	stimuli_distractor_diamondtriangles.svg	24	yes	44	1	579	0	0			0	0			1				0	
6.6.1	win	2023-06-26	22:34:00	22:41:11	402721	5dcb6fb005be6f8311d7e836	4	1	main_z	7	advance_on_keypress_ZEE	148	stimuli_target_diamondsquares.svg	stimuli_distractor_diamondtriangles.svg	24	yes	57	0	425	0	0			0	0			1				0	
6.6.1	win	2023-06-26	22:34:00	22:41:13	404321	5dcb6fb005be6f8311d7e836	4	1	main_z	7	main_z	149	stimuli_target_rectangletriangles.svg	stimuli_distractor_diamondtriangles.svg	5	yes	44	1	518	0	0			0	0			1				0	
6.6.1	win	2023-06-26	22:34:00	22:41:13	404321	5dcb6fb005be6f8311d7e836	4	1	main_z	7	advance_on_keypress_ZEE	150	stimuli_target_rectangletriangles.svg	stimuli_distractor_diamondtriangles.svg	5	yes	57	0	610	0	0			0	0			1				0	
6.6.1	win	2023-06-26	22:34:00	22:41:15	406224	5dcb6fb005be6f8311d7e836	4	1	main_z	7	main_z	151	stimuli_distractor_trianglediamonds.svg	stimuli_target_trianglesquares.svg	26	yes	44	1	633	0	0			0	0			1				0	
6.6.1	win	2023-06-26	22:34:00	22:41:15	406224	5dcb6fb005be6f8311d7e836	4	1	main_z	7	advance_on_keypress_ZEE	152	stimuli_distractor_trianglediamonds.svg	stimuli_target_trianglesquares.svg	26	yes	57	0	339	0	0			0	0			1				0	
6.6.1	win	2023-06-26	22:34:00	22:41:16	407836	5dcb6fb005be6f8311d7e836	4	1	main_z	7	main_z	153	stimuli_target_trianglesquares.svg	stimuli_distractor_trianglediamonds.svg	18	yes	44	1	629	0	0			0	0			1				0	
6.6.1	win	2023-06-26	22:34:00	22:41:16	407836	5dcb6fb005be6f8311d7e836	4	1	main_z	7	advance_on_keypress_ZEE	154	stimuli_target_trianglesquares.svg	stimuli_distractor_trianglediamonds.svg	18	yes	57	0	350	0	0			0	0			1				0	
6.6.1	win	2023-06-26	22:34:00	22:41:18	409411	5dcb6fb005be6f8311d7e836	4	1	main_z	7	main_z	155	stimuli_distractor_trianglediamonds.svg	stimuli_target_trianglerectangles.svg	25	yes	44	1	572	0	0			0	0			1				0	
6.6.1	win	2023-06-26	22:34:00	22:41:18	409411	5dcb6fb005be6f8311d7e836	4	1	main_z	7	advance_on_keypress_ZEE	156	stimuli_distractor_trianglediamonds.svg	stimuli_target_trianglerectangles.svg	25	yes	57	0	524	0	0			0	0			1				0	
6.6.1	win	2023-06-26	22:34:00	22:41:20	411410	5dcb6fb005be6f8311d7e836	4	1	main_z	7	main_z	157	stimuli_target_trianglerectangles.svg	stimuli_distractor_diamondtriangles.svg	21	yes	44	1	838	0	0			0	0			1				0	
6.6.1	win	2023-06-26	22:34:00	22:41:20	411410	5dcb6fb005be6f8311d7e836	4	1	main_z	7	advance_on_keypress_ZEE	158	stimuli_target_trianglerectangles.svg	stimuli_distractor_diamondtriangles.svg	21	yes	57	0	254	0	0			0	0			1				0	
6.6.1	win	2023-06-26	22:34:00	22:41:23	414306	5dcb6fb005be6f8311d7e836	4	1	main_z	7	main_z	159	stimuli_distractor_trianglediamonds.svg	stimuli_target_rectanglediamonds.svg	10	yes	0	0	2000	0	0			0	0			1				0	
6.6.1	win	2023-06-26	22:34:00	22:41:23	414306	5dcb6fb005be6f8311d7e836	4	1	main_z	7	advance_on_keypress_ZEE	160	stimuli_distractor_trianglediamonds.svg	stimuli_target_rectanglediamonds.svg	10	yes	57	0	408	0	0			0	0			1				0	
6.6.1	win	2023-06-26	22:34:00	22:42:18	469934	5dcb6fb005be6f8311d7e836	4	1	practice_slash	9	practice_slash	1	stimuli_target_diamondsquares.svg	stimuli_distractor_trianglediamonds.svg	6	yes	53	1	671	0	0			0	0			1				0	
6.6.1	win	2023-06-26	22:34:00	22:42:18	469934	5dcb6fb005be6f8311d7e836	4	1	practice_slash	9	advance_on_keypress_SLASH	2	stimuli_target_diamondsquares.svg	stimuli_distractor_trianglediamonds.svg	6	yes	57	0	852	0	0			0	0			1				0	
6.6.1	win	2023-06-26	22:34:00	22:42:22	473090	5dcb6fb005be6f8311d7e836	4	1	practice_slash	9	practice_slash	3	stimuli_target_squarediamonds.svg	stimuli_distractor_trianglediamonds.svg	5	yes	53	1	643	0	0			0	0			1				0	
6.6.1	win	2023-06-26	22:34:00	22:42:22	473090	5dcb6fb005be6f8311d7e836	4	1	practice_slash	9	advance_on_keypress_SLASH	4	stimuli_target_squarediamonds.svg	stimuli_distractor_trianglediamonds.svg	5	yes	57	0	973	0	0			0	0			1				0	
6.6.1	win	2023-06-26	22:34:00	22:42:25	476413	5dcb6fb005be6f8311d7e836	4	1	practice_slash	9	practice_slash	5	stimuli_distractor_diamondtriangles.svg	stimuli_target_rectangletriangles.svg	7	yes	53	1	702	0	0			0	0			1				0	
6.6.1	win	2023-06-26	22:34:00	22:42:25	476413	5dcb6fb005be6f8311d7e836	4	1	practice_slash	9	advance_on_keypress_SLASH	6	stimuli_distractor_diamondtriangles.svg	stimuli_target_rectangletriangles.svg	7	yes	57	0	377	0	0			0	0			1				0	
6.6.1	win	2023-06-26	22:34:00	22:42:29	480444	5dcb6fb005be6f8311d7e836	4	1	practice_slash	9	practice_slash	7	stimuli_distractor_diamondtriangles.svg	stimuli_distractor_trianglediamonds.svg	14	no	0	1	2000	0	0			0	0			1				0	
6.6.1	win	2023-06-26	22:34:00	22:42:29	480444	5dcb6fb005be6f8311d7e836	4	1	practice_slash	9	advance_on_keypress_SLASH	8	stimuli_distractor_diamondtriangles.svg	stimuli_distractor_trianglediamonds.svg	14	no	57	0	396	0	0			0	0			1				0	
6.6.1	win	2023-06-26	22:34:00	22:42:33	484494	5dcb6fb005be6f8311d7e836	4	1	practice_slash	9	practice_slash	9	stimuli_distractor_diamondtriangles.svg	stimuli_distractor_diamondtriangles.svg	13	no	0	1	2000	0	0			0	0			1				0	
6.6.1	win	2023-06-26	22:34:00	22:42:33	484494	5dcb6fb005be6f8311d7e836	4	1	practice_slash	9	advance_on_keypress_SLASH	10	stimuli_distractor_diamondtriangles.svg	stimuli_distractor_diamondtriangles.svg	13	no	57	0	304	0	0			0	0			1				0	
6.6.1	win	2023-06-26	22:34:00	22:42:36	487120	5dcb6fb005be6f8311d7e836	4	1	practice_slash	9	practice_slash	11	stimuli_target_rectanglediamonds.svg	stimuli_distractor_diamondtriangles.svg	1	yes	53	1	677	0	0			0	0			1				0	
6.6.1	win	2023-06-26	22:34:00	22:42:36	487120	5dcb6fb005be6f8311d7e836	4	1	practice_slash	9	advance_on_keypress_SLASH	12	stimuli_target_rectanglediamonds.svg	stimuli_distractor_diamondtriangles.svg	1	yes	57	0	486	0	0			0	0			1				0	
6.6.1	win	2023-06-26	22:34:00	22:42:38	489945	5dcb6fb005be6f8311d7e836	4	1	practice_slash	9	practice_slash	13	stimuli_distractor_diamondtriangles.svg	stimuli_target_trianglerectangles.svg	9	yes	53	1	687	0	0			0	0			1				0	
6.6.1	win	2023-06-26	22:34:00	22:42:38	489945	5dcb6fb005be6f8311d7e836	4	1	practice_slash	9	advance_on_keypress_SLASH	14	stimuli_distractor_diamondtriangles.svg	stimuli_target_trianglerectangles.svg	9	yes	57	0	529	0	0			0	0			1				0	
6.6.1	win	2023-06-26	22:34:00	22:42:41	492725	5dcb6fb005be6f8311d7e836	4	1	practice_slash	9	practice_slash	15	stimuli_distractor_diamondtriangles.svg	stimuli_target_diamondrectangles.svg	8	yes	53	1	600	0	0			0	0			1				0	
6.6.1	win	2023-06-26	22:34:00	22:42:41	492725	5dcb6fb005be6f8311d7e836	4	1	practice_slash	9	advance_on_keypress_SLASH	16	stimuli_distractor_diamondtriangles.svg	stimuli_target_diamondrectangles.svg	8	yes	57	0	464	0	0			0	0			1				0	
6.6.1	win	2023-06-26	22:34:00	22:42:45	496840	5dcb6fb005be6f8311d7e836	4	1	practice_slash	9	practice_slash	17	stimuli_distractor_trianglediamonds.svg	stimuli_distractor_diamondtriangles.svg	16	no	0	1	2000	0	0			0	0			1				0	
6.6.1	win	2023-06-26	22:34:00	22:42:45	496840	5dcb6fb005be6f8311d7e836	4	1	practice_slash	9	advance_on_keypress_SLASH	18	stimuli_distractor_trianglediamonds.svg	stimuli_distractor_diamondtriangles.svg	16	no	57	0	390	0	0			0	0			1				0	
6.6.1	win	2023-06-26	22:34:00	22:42:48	499514	5dcb6fb005be6f8311d7e836	4	1	practice_slash	9	practice_slash	19	stimuli_distractor_trianglediamonds.svg	stimuli_target_diamondrectangles.svg	12	yes	53	1	640	0	0			0	0			1				0	
6.6.1	win	2023-06-26	22:34:00	22:42:48	499514	5dcb6fb005be6f8311d7e836	4	1	practice_slash	9	advance_on_keypress_SLASH	20	stimuli_distractor_trianglediamonds.svg	stimuli_target_diamondrectangles.svg	12	yes	57	0	2727	0	0			0	0			1				0	
6.6.1	win	2023-06-26	22:34:00	22:42:53	504587	5dcb6fb005be6f8311d7e836	4	1	practice_slash	9	practice_slash	21	stimuli_distractor_trianglediamonds.svg	stimuli_target_rectanglediamonds.svg	10	yes	53	1	683	0	0			0	0			1				0	
6.6.1	win	2023-06-26	22:34:00	22:42:53	504587	5dcb6fb005be6f8311d7e836	4	1	practice_slash	9	advance_on_keypress_SLASH	22	stimuli_distractor_trianglediamonds.svg	stimuli_target_rectanglediamonds.svg	10	yes	57	0	383	0	0			0	0			1				0	
6.6.1	win	2023-06-26	22:34:00	22:42:57	508621	5dcb6fb005be6f8311d7e836	4	1	practice_slash	9	practice_slash	23	stimuli_distractor_trianglediamonds.svg	stimuli_distractor_trianglediamonds.svg	15	no	0	1	2000	0	0			0	0			1				0	
6.6.1	win	2023-06-26	22:34:00	22:42:57	508621	5dcb6fb005be6f8311d7e836	4	1	practice_slash	9	advance_on_keypress_SLASH	24	stimuli_distractor_trianglediamonds.svg	stimuli_distractor_trianglediamonds.svg	15	no	57	0	409	0	0			0	0			1				0	
6.6.1	win	2023-06-26	22:34:00	22:43:00	511298	5dcb6fb005be6f8311d7e836	4	1	practice_slash	9	practice_slash	25	stimuli_target_rectanglediamonds.svg	stimuli_distractor_trianglediamonds.svg	4	yes	53	1	611	0	0			0	0			1				0	
6.6.1	win	2023-06-26	22:34:00	22:43:00	511298	5dcb6fb005be6f8311d7e836	4	1	practice_slash	9	advance_on_keypress_SLASH	26	stimuli_target_rectanglediamonds.svg	stimuli_distractor_trianglediamonds.svg	4	yes	57	0	461	0	0			0	0			1				0	
6.6.1	win	2023-06-26	22:34:00	22:43:03	514058	5dcb6fb005be6f8311d7e836	4	1	practice_slash	9	practice_slash	27	stimuli_distractor_trianglediamonds.svg	stimuli_target_squarediamonds.svg	11	yes	53	1	640	0	0			0	0			1				0	
6.6.1	win	2023-06-26	22:34:00	22:43:03	514058	5dcb6fb005be6f8311d7e836	4	1	practice_slash	9	advance_on_keypress_SLASH	28	stimuli_distractor_trianglediamonds.svg	stimuli_target_squarediamonds.svg	11	yes	57	0	481	0	0			0	0			1				0	
6.6.1	win	2023-06-26	22:34:00	22:43:05	516808	5dcb6fb005be6f8311d7e836	4	1	practice_slash	9	practice_slash	29	stimuli_target_squarediamonds.svg	stimuli_distractor_diamondtriangles.svg	2	yes	53	1	607	0	0			0	0			1				0	
6.6.1	win	2023-06-26	22:34:00	22:43:05	516808	5dcb6fb005be6f8311d7e836	4	1	practice_slash	9	advance_on_keypress_SLASH	30	stimuli_target_squarediamonds.svg	stimuli_distractor_diamondtriangles.svg	2	yes	57	0	445	0	0			0	0			1				0	
6.6.1	win	2023-06-26	22:34:00	22:43:08	519884	5dcb6fb005be6f8311d7e836	4	1	practice_slash	9	practice_slash	31	stimuli_target_diamondsquares.svg	stimuli_distractor_diamondtriangles.svg	3	yes	53	1	967	0	0			0	0			1				0	
6.6.1	win	2023-06-26	22:34:00	22:43:08	519884	5dcb6fb005be6f8311d7e836	4	1	practice_slash	9	advance_on_keypress_SLASH	32	stimuli_target_diamondsquares.svg	stimuli_distractor_diamondtriangles.svg	3	yes	57	0	346	0	0			0	0			1				0	
6.6.1	win	2023-06-26	22:34:00	22:43:12	523955	5dcb6fb005be6f8311d7e836	4	1	main_slash	11	main_slash	1	stimuli_distractor_diamondtriangles.svg	stimuli_target_trianglesquares.svg	30	yes	53	1	559	0	0			0	0			1				0	
6.6.1	win	2023-06-26	22:34:00	22:43:12	523955	5dcb6fb005be6f8311d7e836	4	1	main_slash	11	advance_on_keypress_SLASH	2	stimuli_distractor_diamondtriangles.svg	stimuli_target_trianglesquares.svg	30	yes	57	0	506	0	0			0	0			1				0	
6.6.1	win	2023-06-26	22:34:00	22:43:14	525715	5dcb6fb005be6f8311d7e836	4	1	main_slash	11	main_slash	3	stimuli_distractor_trianglediamonds.svg	stimuli_target_rectangletriangles.svg	9	yes	53	1	602	0	0			0	0			1				0	
6.6.1	win	2023-06-26	22:34:00	22:43:14	525715	5dcb6fb005be6f8311d7e836	4	1	main_slash	11	advance_on_keypress_SLASH	4	stimuli_distractor_trianglediamonds.svg	stimuli_target_rectangletriangles.svg	9	yes	57	0	634	0	0			0	0			1				0	
6.6.1	win	2023-06-26	22:34:00	22:43:16	527613	5dcb6fb005be6f8311d7e836	4	1	main_slash	11	main_slash	5	stimuli_target_trianglesquares.svg	stimuli_distractor_trianglediamonds.svg	18	yes	53	1	618	0	0			0	0			1				0	
6.6.1	win	2023-06-26	22:34:00	22:43:16	527613	5dcb6fb005be6f8311d7e836	4	1	main_slash	11	advance_on_keypress_SLASH	6	stimuli_target_trianglesquares.svg	stimuli_distractor_trianglediamonds.svg	18	yes	57	0	356	0	0			0	0			1				0	
6.6.1	win	2023-06-26	22:34:00	22:43:18	529376	5dcb6fb005be6f8311d7e836	4	1	main_slash	11	main_slash	7	stimuli_target_diamondsquares.svg	stimuli_distractor_trianglediamonds.svg	20	yes	53	1	765	0	0			0	0			1				0	
6.6.1	win	2023-06-26	22:34:00	22:43:18	529376	5dcb6fb005be6f8311d7e836	4	1	main_slash	11	advance_on_keypress_SLASH	8	stimuli_target_diamondsquares.svg	stimuli_distractor_trianglediamonds.svg	20	yes	57	0	414	0	0			0	0			1				0	
6.6.1	win	2023-06-26	22:34:00	22:43:20	531076	5dcb6fb005be6f8311d7e836	4	1	main_slash	11	main_slash	9	stimuli_distractor_diamondtriangles.svg	stimuli_target_diamondsquares.svg	32	yes	53	1	632	0	0			0	0			1				0	
6.6.1	win	2023-06-26	22:34:00	22:43:20	531076	5dcb6fb005be6f8311d7e836	4	1	main_slash	11	advance_on_keypress_SLASH	10	stimuli_distractor_diamondtriangles.svg	stimuli_target_diamondsquares.svg	32	yes	57	0	28	0	0			0	0			1				0	
6.6.1	win	2023-06-26	22:34:00	22:43:21	532659	5dcb6fb005be6f8311d7e836	4	1	main_slash	11	main_slash	11	stimuli_distractor_diamondtriangles.svg	stimuli_target_squaretriangles.svg	15	yes	53	1	699	0	0			0	0			1				0	
6.6.1	win	2023-06-26	22:34:00	22:43:21	532659	5dcb6fb005be6f8311d7e836	4	1	main_slash	11	advance_on_keypress_SLASH	12	stimuli_distractor_diamondtriangles.svg	stimuli_target_squaretriangles.svg	15	yes	57	0	282	0	0			0	0			1				0	
6.6.1	win	2023-06-26	22:34:00	22:43:23	534269	5dcb6fb005be6f8311d7e836	4	1	main_slash	11	main_slash	13	stimuli_distractor_trianglediamonds.svg	stimuli_target_diamondsquares.svg	28	yes	53	1	675	0	0			0	0			1				0	
6.6.1	win	2023-06-26	22:34:00	22:43:23	534269	5dcb6fb005be6f8311d7e836	4	1	main_slash	11	advance_on_keypress_SLASH	14	stimuli_distractor_trianglediamonds.svg	stimuli_target_diamondsquares.svg	28	yes	57	0	143	0	0			0	0			1				0	
6.6.1	win	2023-06-26	22:34:00	22:43:26	537060	5dcb6fb005be6f8311d7e836	4	1	main_slash	11	main_slash	15	stimuli_distractor_diamondtriangles.svg	stimuli_distractor_diamondtriangles.svg	39	no	0	1	2000	0	0			0	0			1				0	
6.6.1	win	2023-06-26	22:34:00	22:43:26	537060	5dcb6fb005be6f8311d7e836	4	1	main_slash	11	advance_on_keypress_SLASH	16	stimuli_distractor_diamondtriangles.svg	stimuli_distractor_diamondtriangles.svg	39	no	57	0	363	0	0			0	0			1				0	
6.6.1	win	2023-06-26	22:34:00	22:43:29	540076	5dcb6fb005be6f8311d7e836	4	1	main_slash	11	main_slash	17	stimuli_distractor_diamondtriangles.svg	stimuli_distractor_trianglediamonds.svg	37	no	0	1	2000	0	0			0	0			1				0	
6.6.1	win	2023-06-26	22:34:00	22:43:29	540076	5dcb6fb005be6f8311d7e836	4	1	main_slash	11	advance_on_keypress_SLASH	18	stimuli_distractor_diamondtriangles.svg	stimuli_distractor_trianglediamonds.svg	37	no	57	0	442	0	0			0	0			1				0	
6.6.1	win	2023-06-26	22:34:00	22:43:30	541820	5dcb6fb005be6f8311d7e836	4	1	main_slash	11	main_slash	19	stimuli_target_diamondsquares.svg	stimuli_distractor_diamondtriangles.svg	24	yes	53	1	645	0	0			0	0			1				0	
6.6.1	win	2023-06-26	22:34:00	22:43:30	541820	5dcb6fb005be6f8311d7e836	4	1	main_slash	11	advance_on_keypress_SLASH	20	stimuli_target_diamondsquares.svg	stimuli_distractor_diamondtriangles.svg	24	yes	57	0	293	0	0			0	0			1				0	
6.6.1	win	2023-06-26	22:34:00	22:43:33	544775	5dcb6fb005be6f8311d7e836	4	1	main_slash	11	main_slash	21	stimuli_target_trianglerectangles.svg	stimuli_distractor_diamondtriangles.svg	21	yes	0	0	2000	0	0			0	0			1				0	
6.6.1	win	2023-06-26	22:34:00	22:43:33	544775	5dcb6fb005be6f8311d7e836	4	1	main_slash	11	advance_on_keypress_SLASH	22	stimuli_target_trianglerectangles.svg	stimuli_distractor_diamondtriangles.svg	21	yes	57	0	330	0	0			0	0			1				0	
6.6.1	win	2023-06-26	22:34:00	22:43:35	546343	5dcb6fb005be6f8311d7e836	4	1	main_slash	11	main_slash	23	stimuli_distractor_trianglediamonds.svg	stimuli_target_trianglesquares.svg	26	yes	53	1	586	0	0			0	0			1				0	
6.6.1	win	2023-06-26	22:34:00	22:43:35	546343	5dcb6fb005be6f8311d7e836	4	1	main_slash	11	advance_on_keypress_SLASH	24	stimuli_distractor_trianglediamonds.svg	stimuli_target_trianglesquares.svg	26	yes	57	0	328	0	0			0	0			1				0	
6.6.1	win	2023-06-26	22:34:00	22:43:37	548229	5dcb6fb005be6f8311d7e836	4	1	main_slash	11	main_slash	25	stimuli_distractor_diamondtriangles.svg	stimuli_target_rectanglediamonds.svg	14	yes	53	1	905	0	0			0	0			1				0	
6.6.1	win	2023-06-26	22:34:00	22:43:37	548229	5dcb6fb005be6f8311d7e836	4	1	main_slash	11	advance_on_keypress_SLASH	26	stimuli_distractor_diamondtriangles.svg	stimuli_target_rectanglediamonds.svg	14	yes	57	0	458	0	0			0	0			1				0	
6.6.1	win	2023-06-26	22:34:00	22:43:39	550017	5dcb6fb005be6f8311d7e836	4	1	main_slash	11	main_slash	27	stimuli_distractor_trianglediamonds.svg	stimuli_target_rectanglediamonds.svg	10	yes	53	1	694	0	0			0	0			1				0	
6.6.1	win	2023-06-26	22:34:00	22:43:39	550017	5dcb6fb005be6f8311d7e836	4	1	main_slash	11	advance_on_keypress_SLASH	28	stimuli_distractor_trianglediamonds.svg	stimuli_target_rectanglediamonds.svg	10	yes	57	0	313	0	0			0	0			1				0	
6.6.1	win	2023-06-26	22:34:00	22:43:41	552991	5dcb6fb005be6f8311d7e836	4	1	main_slash	11	main_slash	29	stimuli_distractor_trianglediamonds.svg	stimuli_distractor_diamondtriangles.svg	36	no	0	1	2000	0	0			0	0			1				0	
6.6.1	win	2023-06-26	22:34:00	22:43:41	552991	5dcb6fb005be6f8311d7e836	4	1	main_slash	11	advance_on_keypress_SLASH	30	stimuli_distractor_trianglediamonds.svg	stimuli_distractor_diamondtriangles.svg	36	no	57	0	360	0	0			0	0			1				0	
6.6.1	win	2023-06-26	22:34:00	22:43:44	556006	5dcb6fb005be6f8311d7e836	4	1	main_slash	11	main_slash	31	stimuli_distractor_trianglediamonds.svg	stimuli_distractor_trianglediamonds.svg	34	no	0	1	2000	0	0			0	0			1				0	
6.6.1	win	2023-06-26	22:34:00	22:43:44	556006	5dcb6fb005be6f8311d7e836	4	1	main_slash	11	advance_on_keypress_SLASH	32	stimuli_distractor_trianglediamonds.svg	stimuli_distractor_trianglediamonds.svg	34	no	57	0	343	0	0			0	0			1				0	
6.6.1	win	2023-06-26	22:34:00	22:43:46	557607	5dcb6fb005be6f8311d7e836	4	1	main_slash	11	main_slash	33	stimuli_target_rectangletriangles.svg	stimuli_distractor_diamondtriangles.svg	5	yes	53	1	602	0	0			0	0			1				0	
6.6.1	win	2023-06-26	22:34:00	22:43:46	557607	5dcb6fb005be6f8311d7e836	4	1	main_slash	11	advance_on_keypress_SLASH	34	stimuli_target_rectangletriangles.svg	stimuli_distractor_diamondtriangles.svg	5	yes	57	0	373	0	0			0	0			1				0	
6.6.1	win	2023-06-26	22:34:00	22:43:49	560623	5dcb6fb005be6f8311d7e836	4	1	main_slash	11	main_slash	35	stimuli_distractor_trianglediamonds.svg	stimuli_distractor_diamondtriangles.svg	35	no	0	1	2000	0	0			0	0			1				0	
6.6.1	win	2023-06-26	22:34:00	22:43:49	560623	5dcb6fb005be6f8311d7e836	4	1	main_slash	11	advance_on_keypress_SLASH	36	stimuli_distractor_trianglediamonds.svg	stimuli_distractor_diamondtriangles.svg	35	no	57	0	1031	0	0			0	0			1				0	
6.6.1	win	2023-06-26	22:34:00	22:43:53	564303	5dcb6fb005be6f8311d7e836	4	1	main_slash	11	main_slash	37	stimuli_distractor_diamondtriangles.svg	stimuli_distractor_trianglediamonds.svg	38	no	0	1	2000	0	0			0	0			1				0	
6.6.1	win	2023-06-26	22:34:00	22:43:53	564303	5dcb6fb005be6f8311d7e836	4	1	main_slash	11	advance_on_keypress_SLASH	38	stimuli_distractor_diamondtriangles.svg	stimuli_distractor_trianglediamonds.svg	38	no	57	0	297	0	0			0	0			1				0	
6.6.1	win	2023-06-26	22:34:00	22:43:54	565822	5dcb6fb005be6f8311d7e836	4	1	main_slash	11	main_slash	39	stimuli_distractor_trianglediamonds.svg	stimuli_target_squarediamonds.svg	12	yes	53	1	570	0	0			0	0			1				0	
6.6.1	win	2023-06-26	22:34:00	22:43:54	565822	5dcb6fb005be6f8311d7e836	4	1	main_slash	11	advance_on_keypress_SLASH	40	stimuli_distractor_trianglediamonds.svg	stimuli_target_squarediamonds.svg	12	yes	57	0	342	0	0			0	0			1				0	
6.6.1	win	2023-06-26	22:34:00	22:43:56	567868	5dcb6fb005be6f8311d7e836	4	1	main_slash	11	main_slash	41	stimuli_target_trianglerectangles.svg	stimuli_distractor_trianglediamonds.svg	17	yes	53	1	1065	0	0			0	0			1				0	
6.6.1	win	2023-06-26	22:34:00	22:43:56	567868	5dcb6fb005be6f8311d7e836	4	1	main_slash	11	advance_on_keypress_SLASH	42	stimuli_target_trianglerectangles.svg	stimuli_distractor_trianglediamonds.svg	17	yes	57	0	411	0	0			0	0			1				0	
6.6.1	win	2023-06-26	22:34:00	22:43:58	569675	5dcb6fb005be6f8311d7e836	4	1	main_slash	11	main_slash	43	stimuli_target_squarediamonds.svg	stimuli_distractor_diamondtriangles.svg	8	yes	53	1	739	0	0			0	0			1				0	
6.6.1	win	2023-06-26	22:34:00	22:43:58	569675	5dcb6fb005be6f8311d7e836	4	1	main_slash	11	advance_on_keypress_SLASH	44	stimuli_target_squarediamonds.svg	stimuli_distractor_diamondtriangles.svg	8	yes	57	0	278	0	0			0	0			1				0	
6.6.1	win	2023-06-26	22:34:00	22:44:00	571384	5dcb6fb005be6f8311d7e836	4	1	main_slash	11	main_slash	45	stimuli_target_diamondrectangles.svg	stimuli_distractor_diamondtriangles.svg	23	yes	53	1	782	0	0			0	0			1				0	
6.6.1	win	2023-06-26	22:34:00	22:44:00	571384	5dcb6fb005be6f8311d7e836	4	1	main_slash	11	advance_on_keypress_SLASH	46	stimuli_target_diamondrectangles.svg	stimuli_distractor_diamondtriangles.svg	23	yes	57	0	188	0	0			0	0			1				0	
6.6.1	win	2023-06-26	22:34:00	22:44:01	572919	5dcb6fb005be6f8311d7e836	4	1	main_slash	11	main_slash	47	stimuli_distractor_trianglediamonds.svg	stimuli_target_trianglerectangles.svg	25	yes	53	1	700	0	0			0	0			1				0	
6.6.1	win	2023-06-26	22:34:00	22:44:01	572919	5dcb6fb005be6f8311d7e836	4	1	main_slash	11	advance_on_keypress_SLASH	48	stimuli_distractor_trianglediamonds.svg	stimuli_target_trianglerectangles.svg	25	yes	57	0	251	0	0			0	0			1				0	
6.6.1	win	2023-06-26	22:34:00	22:44:04	575045	5dcb6fb005be6f8311d7e836	4	1	main_slash	11	main_slash	49	stimuli_distractor_trianglediamonds.svg	stimuli_target_squaretriangles.svg	11	yes	53	1	1227	0	0			0	0			1				0	
6.6.1	win	2023-06-26	22:34:00	22:44:04	575045	5dcb6fb005be6f8311d7e836	4	1	main_slash	11	advance_on_keypress_SLASH	50	stimuli_distractor_trianglediamonds.svg	stimuli_target_squaretriangles.svg	11	yes	57	0	308	0	0			0	0			1				0	
6.6.1	win	2023-06-26	22:34:00	22:44:05	576694	5dcb6fb005be6f8311d7e836	4	1	main_slash	11	main_slash	51	stimuli_target_squaretriangles.svg	stimuli_distractor_diamondtriangles.svg	7	yes	53	1	693	0	0			0	0			1				0	
6.6.1	win	2023-06-26	22:34:00	22:44:05	576694	5dcb6fb005be6f8311d7e836	4	1	main_slash	11	advance_on_keypress_SLASH	52	stimuli_target_squaretriangles.svg	stimuli_distractor_diamondtriangles.svg	7	yes	57	0	166	0	0			0	0			1				0	
6.6.1	win	2023-06-26	22:34:00	22:44:07	578264	5dcb6fb005be6f8311d7e836	4	1	main_slash	11	main_slash	53	stimuli_target_rectanglediamonds.svg	stimuli_distractor_trianglediamonds.svg	2	yes	53	1	748	0	0			0	0			1				0	
6.6.1	win	2023-06-26	22:34:00	22:44:07	578264	5dcb6fb005be6f8311d7e836	4	1	main_slash	11	advance_on_keypress_SLASH	54	stimuli_target_rectanglediamonds.svg	stimuli_distractor_trianglediamonds.svg	2	yes	57	0	102	0	0			0	0			1				0	
6.6.1	win	2023-06-26	22:34:00	22:44:08	579719	5dcb6fb005be6f8311d7e836	4	1	main_slash	11	main_slash	55	stimuli_distractor_diamondtriangles.svg	stimuli_target_squarediamonds.svg	16	yes	53	1	703	0	0			0	0			1				0	
6.6.1	win	2023-06-26	22:34:00	22:44:08	579719	5dcb6fb005be6f8311d7e836	4	1	main_slash	11	advance_on_keypress_SLASH	56	stimuli_distractor_diamondtriangles.svg	stimuli_target_squarediamonds.svg	16	yes	57	0	122	0	0			0	0			1				0	
6.6.1	win	2023-06-26	22:34:00	22:44:10	581661	5dcb6fb005be6f8311d7e836	4	1	main_slash	11	main_slash	57	stimuli_target_rectangletriangles.svg	stimuli_distractor_trianglediamonds.svg	1	yes	53	1	1179	0	0			0	0			1				0	
6.6.1	win	2023-06-26	22:34:00	22:44:10	581661	5dcb6fb005be6f8311d7e836	4	1	main_slash	11	advance_on_keypress_SLASH	58	stimuli_target_rectangletriangles.svg	stimuli_distractor_trianglediamonds.svg	1	yes	57	0	400	0	0			0	0			1				0	
6.6.1	win	2023-06-26	22:34:00	22:44:12	583372	5dcb6fb005be6f8311d7e836	4	1	main_slash	11	main_slash	59	stimuli_distractor_diamondtriangles.svg	stimuli_target_diamondrectangles.svg	31	yes	53	1	656	0	0			0	0			1				0	
6.6.1	win	2023-06-26	22:34:00	22:44:12	583372	5dcb6fb005be6f8311d7e836	4	1	main_slash	11	advance_on_keypress_SLASH	60	stimuli_distractor_diamondtriangles.svg	stimuli_target_diamondrectangles.svg	31	yes	57	0	116	0	0			0	0			1				0	
6.6.1	win	2023-06-26	22:34:00	22:44:13	584859	5dcb6fb005be6f8311d7e836	4	1	main_slash	11	main_slash	61	stimuli_target_diamondrectangles.svg	stimuli_distractor_trianglediamonds.svg	19	yes	53	1	727	0	0			0	0			1				0	
6.6.1	win	2023-06-26	22:34:00	22:44:13	584859	5dcb6fb005be6f8311d7e836	4	1	main_slash	11	advance_on_keypress_SLASH	62	stimuli_target_diamondrectangles.svg	stimuli_distractor_trianglediamonds.svg	19	yes	57	0	118	0	0			0	0			1				0	
6.6.1	win	2023-06-26	22:34:00	22:44:15	586345	5dcb6fb005be6f8311d7e836	4	1	main_slash	11	main_slash	63	stimuli_target_rectanglediamonds.svg	stimuli_distractor_diamondtriangles.svg	6	yes	53	1	713	0	0			0	0			1				0	
6.6.1	win	2023-06-26	22:34:00	22:44:15	586345	5dcb6fb005be6f8311d7e836	4	1	main_slash	11	advance_on_keypress_SLASH	64	stimuli_target_rectanglediamonds.svg	stimuli_distractor_diamondtriangles.svg	6	yes	57	0	85	0	0			0	0			1				0	
6.6.1	win	2023-06-26	22:34:00	22:44:16	587823	5dcb6fb005be6f8311d7e836	4	1	main_slash	11	main_slash	65	stimuli_target_squaretriangles.svg	stimuli_distractor_trianglediamonds.svg	3	yes	53	1	724	0	0			0	0			1				0	
6.6.1	win	2023-06-26	22:34:00	22:44:16	587823	5dcb6fb005be6f8311d7e836	4	1	main_slash	11	advance_on_keypress_SLASH	66	stimuli_target_squaretriangles.svg	stimuli_distractor_trianglediamonds.svg	3	yes	57	0	103	0	0			0	0			1				0	
6.6.1	win	2023-06-26	22:34:00	22:44:19	590581	5dcb6fb005be6f8311d7e836	4	1	main_slash	11	main_slash	67	stimuli_distractor_trianglediamonds.svg	stimuli_distractor_trianglediamonds.svg	33	no	0	1	2000	0	0			0	0			1				0	
6.6.1	win	2023-06-26	22:34:00	22:44:19	590581	5dcb6fb005be6f8311d7e836	4	1	main_slash	11	advance_on_keypress_SLASH	68	stimuli_distractor_trianglediamonds.svg	stimuli_distractor_trianglediamonds.svg	33	no	57	0	598	0	0			0	0			1				0	
6.6.1	win	2023-06-26	22:34:00	22:44:22	593148	5dcb6fb005be6f8311d7e836	4	1	main_slash	11	main_slash	69	stimuli_target_trianglesquares.svg	stimuli_distractor_diamondtriangles.svg	22	yes	53	1	1051	0	0			0	0			1				0	
6.6.1	win	2023-06-26	22:34:00	22:44:22	593148	5dcb6fb005be6f8311d7e836	4	1	main_slash	11	advance_on_keypress_SLASH	70	stimuli_target_trianglesquares.svg	stimuli_distractor_diamondtriangles.svg	22	yes	57	0	146	0	0			0	0			1				0	
6.6.1	win	2023-06-26	22:34:00	22:44:23	594605	5dcb6fb005be6f8311d7e836	4	1	main_slash	11	main_slash	71	stimuli_distractor_diamondtriangles.svg	stimuli_target_trianglerectangles.svg	29	yes	53	1	659	0	0			0	0			1				0	
6.6.1	win	2023-06-26	22:34:00	22:44:23	594605	5dcb6fb005be6f8311d7e836	4	1	main_slash	11	advance_on_keypress_SLASH	72	stimuli_distractor_diamondtriangles.svg	stimuli_target_trianglerectangles.svg	29	yes	57	0	103	0	0			0	0			1				0	
6.6.1	win	2023-06-26	22:34:00	22:44:26	597346	5dcb6fb005be6f8311d7e836	4	1	main_slash	11	main_slash	73	stimuli_distractor_diamondtriangles.svg	stimuli_distractor_diamondtriangles.svg	40	no	0	1	2000	0	0			0	0			1				0	
6.6.1	win	2023-06-26	22:34:00	22:44:26	597346	5dcb6fb005be6f8311d7e836	4	1	main_slash	11	advance_on_keypress_SLASH	74	stimuli_distractor_diamondtriangles.svg	stimuli_distractor_diamondtriangles.svg	40	no	57	0	314	0	0			0	0			1				0	
6.6.1	win	2023-06-26	22:34:00	22:44:28	599219	5dcb6fb005be6f8311d7e836	4	1	main_slash	11	main_slash	75	stimuli_distractor_diamondtriangles.svg	stimuli_target_rectangletriangles.svg	13	yes	53	1	874	0	0			0	0			1				0	
6.6.1	win	2023-06-26	22:34:00	22:44:28	599219	5dcb6fb005be6f8311d7e836	4	1	main_slash	11	advance_on_keypress_SLASH	76	stimuli_distractor_diamondtriangles.svg	stimuli_target_rectangletriangles.svg	13	yes	57	0	124	0	0			0	0			1				0	
6.6.1	win	2023-06-26	22:34:00	22:44:29	600541	5dcb6fb005be6f8311d7e836	4	1	main_slash	11	main_slash	77	stimuli_target_squarediamonds.svg	stimuli_distractor_trianglediamonds.svg	4	yes	53	1	564	0	0			0	0			1				0	
6.6.1	win	2023-06-26	22:34:00	22:44:29	600541	5dcb6fb005be6f8311d7e836	4	1	main_slash	11	advance_on_keypress_SLASH	78	stimuli_target_squarediamonds.svg	stimuli_distractor_trianglediamonds.svg	4	yes	57	0	127	0	0			0	0			1				0	
6.6.1	win	2023-06-26	22:34:00	22:44:30	601907	5dcb6fb005be6f8311d7e836	4	1	main_slash	11	main_slash	79	stimuli_distractor_trianglediamonds.svg	stimuli_target_diamondrectangles.svg	27	yes	53	1	579	0	0			0	0			1				0	
6.6.1	win	2023-06-26	22:34:00	22:44:30	601907	5dcb6fb005be6f8311d7e836	4	1	main_slash	11	advance_on_keypress_SLASH	80	stimuli_distractor_trianglediamonds.svg	stimuli_target_diamondrectangles.svg	27	yes	57	0	112	0	0			0	0			1				0	
6.6.1	win	2023-06-26	22:34:00	22:44:32	603349	5dcb6fb005be6f8311d7e836	4	1	main_slash	11	main_slash	81	stimuli_target_diamondrectangles.svg	stimuli_distractor_trianglediamonds.svg	19	yes	53	1	672	0	0			0	0			1				0	
6.6.1	win	2023-06-26	22:34:00	22:44:32	603349	5dcb6fb005be6f8311d7e836	4	1	main_slash	11	advance_on_keypress_SLASH	82	stimuli_target_diamondrectangles.svg	stimuli_distractor_trianglediamonds.svg	19	yes	57	0	120	0	0			0	0			1				0	
6.6.1	win	2023-06-26	22:34:00	22:44:33	604751	5dcb6fb005be6f8311d7e836	4	1	main_slash	11	main_slash	83	stimuli_distractor_trianglediamonds.svg	stimuli_distractor_diamondtriangles.svg	36	no	53	0	641	0	0			0	0			1				0	
6.6.1	win	2023-06-26	22:34:00	22:44:33	604751	5dcb6fb005be6f8311d7e836	4	1	main_slash	11	advance_on_keypress_SLASH	84	stimuli_distractor_trianglediamonds.svg	stimuli_distractor_diamondtriangles.svg	36	no	57	0	698	0	0			0	0			1				0	
6.6.1	win	2023-06-26	22:34:00	22:44:35	606702	5dcb6fb005be6f8311d7e836	4	1	main_slash	11	main_slash	85	stimuli_distractor_diamondtriangles.svg	stimuli_target_diamondsquares.svg	32	yes	53	1	476	0	0			0	0			1				0	
6.6.1	win	2023-06-26	22:34:00	22:44:35	606702	5dcb6fb005be6f8311d7e836	4	1	main_slash	11	advance_on_keypress_SLASH	86	stimuli_distractor_diamondtriangles.svg	stimuli_target_diamondsquares.svg	32	yes	57	0	93	0	0			0	0			1				0	
6.6.1	win	2023-06-26	22:34:00	22:44:37	608162	5dcb6fb005be6f8311d7e836	4	1	main_slash	11	main_slash	87	stimuli_target_trianglerectangles.svg	stimuli_distractor_diamondtriangles.svg	21	yes	53	1	636	0	0			0	0			1				0	
6.6.1	win	2023-06-26	22:34:00	22:44:37	608162	5dcb6fb005be6f8311d7e836	4	1	main_slash	11	advance_on_keypress_SLASH	88	stimuli_target_trianglerectangles.svg	stimuli_distractor_diamondtriangles.svg	21	yes	57	0	604	0	0			0	0			1				0	
6.6.1	win	2023-06-26	22:34:00	22:44:39	610274	5dcb6fb005be6f8311d7e836	4	1	main_slash	11	main_slash	89	stimuli_distractor_trianglediamonds.svg	stimuli_target_rectangletriangles.svg	9	yes	53	1	865	0	0			0	0			1				0	
6.6.1	win	2023-06-26	22:34:00	22:44:39	610274	5dcb6fb005be6f8311d7e836	4	1	main_slash	11	advance_on_keypress_SLASH	90	stimuli_distractor_trianglediamonds.svg	stimuli_target_rectangletriangles.svg	9	yes	57	0	633	0	0			0	0			1				0	
6.6.1	win	2023-06-26	22:34:00	22:44:41	612392	5dcb6fb005be6f8311d7e836	4	1	main_slash	11	main_slash	91	stimuli_target_diamondrectangles.svg	stimuli_distractor_diamondtriangles.svg	23	yes	53	1	650	0	0			0	0			1				0	
6.6.1	win	2023-06-26	22:34:00	22:44:41	612392	5dcb6fb005be6f8311d7e836	4	1	main_slash	11	advance_on_keypress_SLASH	92	stimuli_target_diamondrectangles.svg	stimuli_distractor_diamondtriangles.svg	23	yes	57	0	123	0	0			0	0			1				0	
6.6.1	win	2023-06-26	22:34:00	22:44:42	613747	5dcb6fb005be6f8311d7e836	4	1	main_slash	11	main_slash	93	stimuli_target_trianglesquares.svg	stimuli_distractor_diamondtriangles.svg	22	yes	53	1	588	0	0			0	0			1				0	
6.6.1	win	2023-06-26	22:34:00	22:44:42	613747	5dcb6fb005be6f8311d7e836	4	1	main_slash	11	advance_on_keypress_SLASH	94	stimuli_target_trianglesquares.svg	stimuli_distractor_diamondtriangles.svg	22	yes	57	0	139	0	0			0	0			1				0	
6.6.1	win	2023-06-26	22:34:00	22:44:44	615089	5dcb6fb005be6f8311d7e836	4	1	main_slash	11	main_slash	95	stimuli_distractor_trianglediamonds.svg	stimuli_target_diamondrectangles.svg	27	yes	53	1	564	0	0			0	0			1				0	
6.6.1	win	2023-06-26	22:34:00	22:44:44	615089	5dcb6fb005be6f8311d7e836	4	1	main_slash	11	advance_on_keypress_SLASH	96	stimuli_distractor_trianglediamonds.svg	stimuli_target_diamondrectangles.svg	27	yes	57	0	172	0	0			0	0			1				0	
6.6.1	win	2023-06-26	22:34:00	22:44:46	618007	5dcb6fb005be6f8311d7e836	4	1	main_slash	11	main_slash	97	stimuli_distractor_diamondtriangles.svg	stimuli_distractor_trianglediamonds.svg	37	no	0	1	2000	0	0			0	0			1				0	
6.6.1	win	2023-06-26	22:34:00	22:44:46	618007	5dcb6fb005be6f8311d7e836	4	1	main_slash	11	advance_on_keypress_SLASH	98	stimuli_distractor_diamondtriangles.svg	stimuli_distractor_trianglediamonds.svg	37	no	57	0	720	0	0			0	0			1				0	
6.6.1	win	2023-06-26	22:34:00	22:44:49	620036	5dcb6fb005be6f8311d7e836	4	1	main_slash	11	main_slash	99	stimuli_distractor_trianglediamonds.svg	stimuli_target_rectanglediamonds.svg	10	yes	53	1	663	0	0			0	0			1				0	
6.6.1	win	2023-06-26	22:34:00	22:44:49	620036	5dcb6fb005be6f8311d7e836	4	1	main_slash	11	advance_on_keypress_SLASH	100	stimuli_distractor_trianglediamonds.svg	stimuli_target_rectanglediamonds.svg	10	yes	57	0	123	0	0			0	0			1				0	
6.6.1	win	2023-06-26	22:34:00	22:44:50	621348	5dcb6fb005be6f8311d7e836	4	1	main_slash	11	main_slash	101	stimuli_target_squaretriangles.svg	stimuli_distractor_diamondtriangles.svg	7	yes	53	1	535	0	0			0	0			1				0	
6.6.1	win	2023-06-26	22:34:00	22:44:50	621348	5dcb6fb005be6f8311d7e836	4	1	main_slash	11	advance_on_keypress_SLASH	102	stimuli_target_squaretriangles.svg	stimuli_distractor_diamondtriangles.svg	7	yes	57	0	1065	0	0			0	0			1				0	
6.6.1	win	2023-06-26	22:34:00	22:44:54	625823	5dcb6fb005be6f8311d7e836	4	1	main_slash	11	main_slash	103	stimuli_distractor_trianglediamonds.svg	stimuli_distractor_diamondtriangles.svg	35	no	0	1	2000	0	0			0	0			1				0	
6.6.1	win	2023-06-26	22:34:00	22:44:54	625823	5dcb6fb005be6f8311d7e836	4	1	main_slash	11	advance_on_keypress_SLASH	104	stimuli_distractor_trianglediamonds.svg	stimuli_distractor_diamondtriangles.svg	35	no	57	0	352	0	0			0	0			1				0	
6.6.1	win	2023-06-26	22:34:00	22:44:56	627372	5dcb6fb005be6f8311d7e836	4	1	main_slash	11	main_slash	105	stimuli_distractor_trianglediamonds.svg	stimuli_target_diamondsquares.svg	28	yes	53	1	551	0	0			0	0			1				0	
6.6.1	win	2023-06-26	22:34:00	22:44:56	627372	5dcb6fb005be6f8311d7e836	4	1	main_slash	11	advance_on_keypress_SLASH	106	stimuli_distractor_trianglediamonds.svg	stimuli_target_diamondsquares.svg	28	yes	57	0	133	0	0			0	0			1				0	
6.6.1	win	2023-06-26	22:34:00	22:44:59	630155	5dcb6fb005be6f8311d7e836	4	1	main_slash	11	main_slash	107	stimuli_distractor_diamondtriangles.svg	stimuli_distractor_diamondtriangles.svg	39	no	0	1	2000	0	0			0	0			1				0	
6.6.1	win	2023-06-26	22:34:00	22:44:59	630155	5dcb6fb005be6f8311d7e836	4	1	main_slash	11	advance_on_keypress_SLASH	108	stimuli_distractor_diamondtriangles.svg	stimuli_distractor_diamondtriangles.svg	39	no	57	0	334	0	0			0	0			1				0	
6.6.1	win	2023-06-26	22:34:00	22:45:00	631858	5dcb6fb005be6f8311d7e836	4	1	main_slash	11	main_slash	109	stimuli_distractor_diamondtriangles.svg	stimuli_target_trianglerectangles.svg	29	yes	53	1	720	0	0			0	0			1				0	
6.6.1	win	2023-06-26	22:34:00	22:45:00	631858	5dcb6fb005be6f8311d7e836	4	1	main_slash	11	advance_on_keypress_SLASH	110	stimuli_distractor_diamondtriangles.svg	stimuli_target_trianglerectangles.svg	29	yes	57	0	114	0	0			0	0			1				0	
6.6.1	win	2023-06-26	22:34:00	22:45:02	633551	5dcb6fb005be6f8311d7e836	4	1	main_slash	11	main_slash	111	stimuli_distractor_trianglediamonds.svg	stimuli_target_trianglerectangles.svg	25	yes	53	1	931	0	0			0	0			1				0	
6.6.1	win	2023-06-26	22:34:00	22:45:02	633551	5dcb6fb005be6f8311d7e836	4	1	main_slash	11	advance_on_keypress_SLASH	112	stimuli_distractor_trianglediamonds.svg	stimuli_target_trianglerectangles.svg	25	yes	57	0	93	0	0			0	0			1				0	
6.6.1	win	2023-06-26	22:34:00	22:45:03	635004	5dcb6fb005be6f8311d7e836	4	1	main_slash	11	main_slash	113	stimuli_target_rectanglediamonds.svg	stimuli_distractor_diamondtriangles.svg	6	yes	53	1	701	0	0			0	0			1				0	
6.6.1	win	2023-06-26	22:34:00	22:45:03	635004	5dcb6fb005be6f8311d7e836	4	1	main_slash	11	advance_on_keypress_SLASH	114	stimuli_target_rectanglediamonds.svg	stimuli_distractor_diamondtriangles.svg	6	yes	57	0	102	0	0			0	0			1				0	
6.6.1	win	2023-06-26	22:34:00	22:45:06	637753	5dcb6fb005be6f8311d7e836	4	1	main_slash	11	main_slash	115	stimuli_distractor_diamondtriangles.svg	stimuli_distractor_trianglediamonds.svg	38	no	0	1	2000	0	0			0	0			1				0	
6.6.1	win	2023-06-26	22:34:00	22:45:06	637753	5dcb6fb005be6f8311d7e836	4	1	main_slash	11	advance_on_keypress_SLASH	116	stimuli_distractor_diamondtriangles.svg	stimuli_distractor_trianglediamonds.svg	38	no	57	0	369	0	0			0	0			1				0	
6.6.1	win	2023-06-26	22:34:00	22:45:08	639350	5dcb6fb005be6f8311d7e836	4	1	main_slash	11	main_slash	117	stimuli_target_squaretriangles.svg	stimuli_distractor_trianglediamonds.svg	3	yes	53	1	581	0	0			0	0			1				0	
6.6.1	win	2023-06-26	22:34:00	22:45:08	639350	5dcb6fb005be6f8311d7e836	4	1	main_slash	11	advance_on_keypress_SLASH	118	stimuli_target_squaretriangles.svg	stimuli_distractor_trianglediamonds.svg	3	yes	57	0	173	0	0			0	0			1				0	
6.6.1	win	2023-06-26	22:34:00	22:45:10	641057	5dcb6fb005be6f8311d7e836	4	1	main_slash	11	main_slash	119	stimuli_target_trianglerectangles.svg	stimuli_distractor_trianglediamonds.svg	17	yes	53	1	888	0	0			0	0			1				0	
6.6.1	win	2023-06-26	22:34:00	22:45:10	641057	5dcb6fb005be6f8311d7e836	4	1	main_slash	11	advance_on_keypress_SLASH	120	stimuli_target_trianglerectangles.svg	stimuli_distractor_trianglediamonds.svg	17	yes	57	0	90	0	0			0	0			1				0	
6.6.1	win	2023-06-26	22:34:00	22:45:11	642452	5dcb6fb005be6f8311d7e836	4	1	main_slash	11	main_slash	121	stimuli_target_rectangletriangles.svg	stimuli_distractor_trianglediamonds.svg	1	yes	53	1	667	0	0			0	0			1				0	
6.6.1	win	2023-06-26	22:34:00	22:45:11	642452	5dcb6fb005be6f8311d7e836	4	1	main_slash	11	advance_on_keypress_SLASH	122	stimuli_target_rectangletriangles.svg	stimuli_distractor_trianglediamonds.svg	1	yes	57	0	97	0	0			0	0			1				0	
6.6.1	win	2023-06-26	22:34:00	22:45:12	643860	5dcb6fb005be6f8311d7e836	4	1	main_slash	11	main_slash	123	stimuli_distractor_diamondtriangles.svg	stimuli_target_rectanglediamonds.svg	14	yes	53	1	659	0	0			0	0			1				0	
6.6.1	win	2023-06-26	22:34:00	22:45:12	643860	5dcb6fb005be6f8311d7e836	4	1	main_slash	11	advance_on_keypress_SLASH	124	stimuli_distractor_diamondtriangles.svg	stimuli_target_rectanglediamonds.svg	14	yes	57	0	98	0	0			0	0			1				0	
6.6.1	win	2023-06-26	22:34:00	22:45:14	645275	5dcb6fb005be6f8311d7e836	4	1	main_slash	11	main_slash	125	stimuli_target_diamondsquares.svg	stimuli_distractor_diamondtriangles.svg	24	yes	53	1	674	0	0			0	0			1				0	
6.6.1	win	2023-06-26	22:34:00	22:45:14	645275	5dcb6fb005be6f8311d7e836	4	1	main_slash	11	advance_on_keypress_SLASH	126	stimuli_target_diamondsquares.svg	stimuli_distractor_diamondtriangles.svg	24	yes	57	0	115	0	0			0	0			1				0	
6.6.1	win	2023-06-26	22:34:00	22:45:15	646989	5dcb6fb005be6f8311d7e836	4	1	main_slash	11	main_slash	127	stimuli_target_rectangletriangles.svg	stimuli_distractor_diamondtriangles.svg	5	yes	53	1	955	0	0			0	0			1				0	
6.6.1	win	2023-06-26	22:34:00	22:45:15	646989	5dcb6fb005be6f8311d7e836	4	1	main_slash	11	advance_on_keypress_SLASH	128	stimuli_target_rectangletriangles.svg	stimuli_distractor_diamondtriangles.svg	5	yes	57	0	96	0	0			0	0			1				0	
6.6.1	win	2023-06-26	22:34:00	22:45:17	648424	5dcb6fb005be6f8311d7e836	4	1	main_slash	11	main_slash	129	stimuli_distractor_trianglediamonds.svg	stimuli_target_squarediamonds.svg	12	yes	53	1	689	0	0			0	0			1				0	
6.6.1	win	2023-06-26	22:34:00	22:45:17	648424	5dcb6fb005be6f8311d7e836	4	1	main_slash	11	advance_on_keypress_SLASH	130	stimuli_distractor_trianglediamonds.svg	stimuli_target_squarediamonds.svg	12	yes	57	0	122	0	0			0	0			1				0	
6.6.1	win	2023-06-26	22:34:00	22:45:18	649807	5dcb6fb005be6f8311d7e836	4	1	main_slash	11	main_slash	131	stimuli_distractor_diamondtriangles.svg	stimuli_target_squarediamonds.svg	16	yes	53	1	624	0	0			0	0			1				0	
6.6.1	win	2023-06-26	22:34:00	22:45:18	649807	5dcb6fb005be6f8311d7e836	4	1	main_slash	11	advance_on_keypress_SLASH	132	stimuli_distractor_diamondtriangles.svg	stimuli_target_squarediamonds.svg	16	yes	57	0	110	0	0			0	0			1				0	
6.6.1	win	2023-06-26	22:34:00	22:45:21	652566	5dcb6fb005be6f8311d7e836	4	1	main_slash	11	main_slash	133	stimuli_distractor_trianglediamonds.svg	stimuli_distractor_trianglediamonds.svg	34	no	0	1	2000	0	0			0	0			1				0	
6.6.1	win	2023-06-26	22:34:00	22:45:21	652566	5dcb6fb005be6f8311d7e836	4	1	main_slash	11	advance_on_keypress_SLASH	134	stimuli_distractor_trianglediamonds.svg	stimuli_distractor_trianglediamonds.svg	34	no	57	0	354	0	0			0	0			1				0	
6.6.1	win	2023-06-26	22:34:00	22:45:23	654137	5dcb6fb005be6f8311d7e836	4	1	main_slash	11	main_slash	135	stimuli_target_trianglesquares.svg	stimuli_distractor_trianglediamonds.svg	18	yes	53	1	571	0	0			0	0			1				0	
6.6.1	win	2023-06-26	22:34:00	22:45:23	654137	5dcb6fb005be6f8311d7e836	4	1	main_slash	11	advance_on_keypress_SLASH	136	stimuli_target_trianglesquares.svg	stimuli_distractor_trianglediamonds.svg	18	yes	57	0	147	0	0			0	0			1				0	
6.6.1	win	2023-06-26	22:34:00	22:45:24	655461	5dcb6fb005be6f8311d7e836	4	1	main_slash	11	main_slash	137	stimuli_distractor_diamondtriangles.svg	stimuli_target_diamondrectangles.svg	31	yes	53	1	520	0	0			0	0			1				0	
6.6.1	win	2023-06-26	22:34:00	22:45:24	655461	5dcb6fb005be6f8311d7e836	4	1	main_slash	11	advance_on_keypress_SLASH	138	stimuli_distractor_diamondtriangles.svg	stimuli_target_diamondrectangles.svg	31	yes	57	0	107	0	0			0	0			1				0	
6.6.1	win	2023-06-26	22:34:00	22:45:25	656870	5dcb6fb005be6f8311d7e836	4	1	main_slash	11	main_slash	139	stimuli_target_rectanglediamonds.svg	stimuli_distractor_trianglediamonds.svg	2	yes	53	1	655	0	0			0	0			1				0	
6.6.1	win	2023-06-26	22:34:00	22:45:25	656870	5dcb6fb005be6f8311d7e836	4	1	main_slash	11	advance_on_keypress_SLASH	140	stimuli_target_rectanglediamonds.svg	stimuli_distractor_trianglediamonds.svg	2	yes	57	0	123	0	0			0	0			1				0	
6.6.1	win	2023-06-26	22:34:00	22:45:28	659631	5dcb6fb005be6f8311d7e836	4	1	main_slash	11	main_slash	141	stimuli_distractor_diamondtriangles.svg	stimuli_distractor_diamondtriangles.svg	40	no	0	1	2000	0	0			0	0			1				0	
6.6.1	win	2023-06-26	22:34:00	22:45:28	659631	5dcb6fb005be6f8311d7e836	4	1	main_slash	11	advance_on_keypress_SLASH	142	stimuli_distractor_diamondtriangles.svg	stimuli_distractor_diamondtriangles.svg	40	no	57	0	551	0	0			0	0			1				0	
6.6.1	win	2023-06-26	22:34:00	22:45:30	661380	5dcb6fb005be6f8311d7e836	4	1	main_slash	11	main_slash	143	stimuli_distractor_trianglediamonds.svg	stimuli_target_trianglesquares.svg	26	yes	53	1	550	0	0			0	0			1				0	
6.6.1	win	2023-06-26	22:34:00	22:45:30	661380	5dcb6fb005be6f8311d7e836	4	1	main_slash	11	advance_on_keypress_SLASH	144	stimuli_distractor_trianglediamonds.svg	stimuli_target_trianglesquares.svg	26	yes	57	0	131	0	0			0	0			1				0	
6.6.1	win	2023-06-26	22:34:00	22:45:33	664164	5dcb6fb005be6f8311d7e836	4	1	main_slash	11	main_slash	145	stimuli_distractor_trianglediamonds.svg	stimuli_distractor_trianglediamonds.svg	33	no	0	1	2000	0	0			0	0			1				0	
6.6.1	win	2023-06-26	22:34:00	22:45:33	664164	5dcb6fb005be6f8311d7e836	4	1	main_slash	11	advance_on_keypress_SLASH	146	stimuli_distractor_trianglediamonds.svg	stimuli_distractor_trianglediamonds.svg	33	no	57	0	329	0	0			0	0			1				0	
6.6.1	win	2023-06-26	22:34:00	22:45:34	665755	5dcb6fb005be6f8311d7e836	4	1	main_slash	11	main_slash	147	stimuli_distractor_diamondtriangles.svg	stimuli_target_squaretriangles.svg	15	yes	53	1	610	0	0			0	0			1				0	
6.6.1	win	2023-06-26	22:34:00	22:45:34	665755	5dcb6fb005be6f8311d7e836	4	1	main_slash	11	advance_on_keypress_SLASH	148	stimuli_distractor_diamondtriangles.svg	stimuli_target_squaretriangles.svg	15	yes	57	0	105	0	0			0	0			1				0	
6.6.1	win	2023-06-26	22:34:00	22:45:36	667109	5dcb6fb005be6f8311d7e836	4	1	main_slash	11	main_slash	149	stimuli_distractor_trianglediamonds.svg	stimuli_target_squaretriangles.svg	11	yes	53	1	596	0	0			0	0			1				0	
6.6.1	win	2023-06-26	22:34:00	22:45:36	667109	5dcb6fb005be6f8311d7e836	4	1	main_slash	11	advance_on_keypress_SLASH	150	stimuli_distractor_trianglediamonds.svg	stimuli_target_squaretriangles.svg	11	yes	57	0	86	0	0			0	0			1				0	
6.6.1	win	2023-06-26	22:34:00	22:45:37	668337	5dcb6fb005be6f8311d7e836	4	1	main_slash	11	main_slash	151	stimuli_target_squarediamonds.svg	stimuli_distractor_diamondtriangles.svg	8	yes	53	1	491	0	0			0	0			1				0	
6.6.1	win	2023-06-26	22:34:00	22:45:37	668337	5dcb6fb005be6f8311d7e836	4	1	main_slash	11	advance_on_keypress_SLASH	152	stimuli_target_squarediamonds.svg	stimuli_distractor_diamondtriangles.svg	8	yes	57	0	263	0	0			0	0			1				0	
6.6.1	win	2023-06-26	22:34:00	22:45:38	669855	5dcb6fb005be6f8311d7e836	4	1	main_slash	11	main_slash	153	stimuli_target_squarediamonds.svg	stimuli_distractor_trianglediamonds.svg	4	yes	53	1	611	0	0			0	0			1				0	
6.6.1	win	2023-06-26	22:34:00	22:45:38	669855	5dcb6fb005be6f8311d7e836	4	1	main_slash	11	advance_on_keypress_SLASH	154	stimuli_target_squarediamonds.svg	stimuli_distractor_trianglediamonds.svg	4	yes	57	0	128	0	0			0	0			1				0	
6.6.1	win	2023-06-26	22:34:00	22:45:40	671174	5dcb6fb005be6f8311d7e836	4	1	main_slash	11	main_slash	155	stimuli_distractor_diamondtriangles.svg	stimuli_target_trianglesquares.svg	30	yes	53	1	509	0	0			0	0			1				0	
6.6.1	win	2023-06-26	22:34:00	22:45:40	671174	5dcb6fb005be6f8311d7e836	4	1	main_slash	11	advance_on_keypress_SLASH	156	stimuli_distractor_diamondtriangles.svg	stimuli_target_trianglesquares.svg	30	yes	57	0	155	0	0			0	0			1				0	
6.6.1	win	2023-06-26	22:34:00	22:45:41	672602	5dcb6fb005be6f8311d7e836	4	1	main_slash	11	main_slash	157	stimuli_distractor_diamondtriangles.svg	stimuli_target_rectangletriangles.svg	13	yes	53	1	623	0	0			0	0			1				0	
6.6.1	win	2023-06-26	22:34:00	22:45:41	672602	5dcb6fb005be6f8311d7e836	4	1	main_slash	11	advance_on_keypress_SLASH	158	stimuli_distractor_diamondtriangles.svg	stimuli_target_rectangletriangles.svg	13	yes	57	0	109	0	0			0	0			1				0	
6.6.1	win	2023-06-26	22:34:00	22:45:43	674066	5dcb6fb005be6f8311d7e836	4	1	main_slash	11	main_slash	159	stimuli_target_diamondsquares.svg	stimuli_distractor_trianglediamonds.svg	20	yes	53	1	705	0	0			0	0			1				0	
6.6.1	win	2023-06-26	22:34:00	22:45:43	674066	5dcb6fb005be6f8311d7e836	4	1	main_slash	11	advance_on_keypress_SLASH	160	stimuli_target_diamondsquares.svg	stimuli_distractor_trianglediamonds.svg	20	yes	57	0	101	0	0			0	0			1				0	
6.6.1	win	2023-06-26	22:34:00	22:45:43	674066	5dcb6fb005be6f8311d7e836	4	1	headphonecheck_calibration	14	headphonecheck_calibrationIntro	1	stimuli_target_diamondsquares.svg	stimuli_distractor_trianglediamonds.svg	20	yes	calibrationButton	0	1868	0	0			0	0			1				0	
6.6.1	win	2023-06-26	22:34:00	22:45:43	674066	5dcb6fb005be6f8311d7e836	4	1	headphonecheck_testphase	15	test_collectResponse	3	stimuli_target_diamondsquares.svg	stimuli_distractor_trianglediamonds.svg	20	yes	third	1	436	1	6	antiphase_hc_ois.wav	3	0	0			1				0	
6.6.1	win	2023-06-26	22:34:00	22:45:43	674066	5dcb6fb005be6f8311d7e836	4	1	headphonecheck_testphase	15	test_collectResponse	6	stimuli_target_diamondsquares.svg	stimuli_distractor_trianglediamonds.svg	20	yes	first	1	551	2	3	antiphase_hc_soi.wav	1	0	0			1				0	
6.6.1	win	2023-06-26	22:34:00	22:45:43	674066	5dcb6fb005be6f8311d7e836	4	1	headphonecheck_testphase	15	test_collectResponse	9	stimuli_target_diamondsquares.svg	stimuli_distractor_trianglediamonds.svg	20	yes	first	1	874	3	4	antiphase_hc_sio.wav	1	0	0			1				0	
6.6.1	win	2023-06-26	22:34:00	22:45:43	674066	5dcb6fb005be6f8311d7e836	4	1	headphonecheck_testphase	15	test_collectResponse	12	stimuli_target_diamondsquares.svg	stimuli_distractor_trianglediamonds.svg	20	yes	third	1	384	4	2	antiphase_hc_ios.wav	3	0	0			1				0	
6.6.1	win	2023-06-26	22:34:00	22:45:43	674066	5dcb6fb005be6f8311d7e836	4	1	headphonecheck_testphase	15	test_collectResponse	15	stimuli_target_diamondsquares.svg	stimuli_distractor_trianglediamonds.svg	20	yes	second	1	330	5	1	antiphase_hc_iso.wav	2	0	0			1				0	
6.6.1	win	2023-06-26	22:34:00	22:45:43	674066	5dcb6fb005be6f8311d7e836	4	1	headphonecheck_testphase	15	test_collectResponse	18	stimuli_target_diamondsquares.svg	stimuli_distractor_trianglediamonds.svg	20	yes	second	1	269	6	5	antiphase_hc_osi.wav	2	0	0			1				0	
6.6.1	win	2023-06-26	22:34:00	22:45:43	674066	5dcb6fb005be6f8311d7e836	4	1	stereocheck_calibration	17	stereocheck_calibrationIntro	1	stimuli_target_diamondsquares.svg	stimuli_distractor_trianglediamonds.svg	20	yes	stereocheck_calibrationButton	0	3139	6	5	antiphase_hc_osi.wav	2	0	0			1				0	
6.6.1	win	2023-06-26	22:34:00	22:45:43	674066	5dcb6fb005be6f8311d7e836	4	1	stereocheck_testphase	18	stereocheck_test_collectResponse	3	stimuli_target_diamondsquares.svg	stimuli_distractor_trianglediamonds.svg	20	yes	stereocheck_right	1	353	6	5	antiphase_hc_osi.wav	2	1	5	noise_calib_stim_RIGHT.wav	2	1				0	
6.6.1	win	2023-06-26	22:34:00	22:45:43	674066	5dcb6fb005be6f8311d7e836	4	1	stereocheck_testphase	18	stereocheck_test_collectResponse	6	stimuli_target_diamondsquares.svg	stimuli_distractor_trianglediamonds.svg	20	yes	stereocheck_left	1	323	6	5	antiphase_hc_osi.wav	2	2	3	noise_calib_stim_LEFT.wav	1	1				0	
6.6.1	win	2023-06-26	22:34:00	22:45:43	674066	5dcb6fb005be6f8311d7e836	4	1	stereocheck_testphase	18	stereocheck_test_collectResponse	9	stimuli_target_diamondsquares.svg	stimuli_distractor_trianglediamonds.svg	20	yes	stereocheck_left	1	294	6	5	antiphase_hc_osi.wav	2	3	1	noise_calib_stim_LEFT.wav	1	1				0	
6.6.1	win	2023-06-26	22:34:00	22:45:43	674066	5dcb6fb005be6f8311d7e836	4	1	stereocheck_testphase	18	stereocheck_test_collectResponse	12	stimuli_target_diamondsquares.svg	stimuli_distractor_trianglediamonds.svg	20	yes	stereocheck_right	1	271	6	5	antiphase_hc_osi.wav	2	4	6	noise_calib_stim_RIGHT.wav	2	1				0	
6.6.1	win	2023-06-26	22:34:00	22:45:43	674066	5dcb6fb005be6f8311d7e836	4	1	stereocheck_testphase	18	stereocheck_test_collectResponse	15	stimuli_target_diamondsquares.svg	stimuli_distractor_trianglediamonds.svg	20	yes	stereocheck_right	1	176	6	5	antiphase_hc_osi.wav	2	5	4	noise_calib_stim_RIGHT.wav	2	1				0	
6.6.1	win	2023-06-26	22:34:00	22:45:43	674066	5dcb6fb005be6f8311d7e836	4	1	stereocheck_testphase	18	stereocheck_test_collectResponse	18	stimuli_target_diamondsquares.svg	stimuli_distractor_trianglediamonds.svg	20	yes	stereocheck_left	1	300	6	5	antiphase_hc_osi.wav	2	6	2	noise_calib_stim_LEFT.wav	1	1				0	
6.6.1	win	2023-06-26	22:34:00	22:45:43	674066	5dcb6fb005be6f8311d7e836	4	1	DL_practice	21	DL_practice	2	stimuli_target_diamondsquares.svg	stimuli_distractor_trianglediamonds.svg	20	yes	ba	1	1877	6	5	antiphase_hc_osi.wav	2	6	2	noise_calib_stim_LEFT.wav	1	7	blb_dichoticlistening_da-ba.mp3	da	ba	1	right
6.6.1	win	2023-06-26	22:34:00	22:45:43	674066	5dcb6fb005be6f8311d7e836	4	1	DL_practice	21	DL_practice	3	stimuli_target_diamondsquares.svg	stimuli_distractor_trianglediamonds.svg	20	yes	ta	1	1839	6	5	antiphase_hc_osi.wav	2	6	2	noise_calib_stim_LEFT.wav	1	36	blb_dichoticlistening_ta-ta.mp3	ta	ta	0	left
6.6.1	win	2023-06-26	22:34:00	22:45:43	674066	5dcb6fb005be6f8311d7e836	4	1	DL_practice	21	DL_practice	4	stimuli_target_diamondsquares.svg	stimuli_distractor_trianglediamonds.svg	20	yes	pa	1	1221	6	5	antiphase_hc_osi.wav	2	6	2	noise_calib_stim_LEFT.wav	1	29	blb_dichoticlistening_pa-pa.mp3	pa	pa	0	left
6.6.1	win	2023-06-26	22:34:00	22:45:43	674066	5dcb6fb005be6f8311d7e836	4	1	DL_practice	21	DL_practice	5	stimuli_target_diamondsquares.svg	stimuli_distractor_trianglediamonds.svg	20	yes	ba	1	1215	6	5	antiphase_hc_osi.wav	2	6	2	noise_calib_stim_LEFT.wav	1	1	blb_dichoticlistening_ba-ba.mp3	ba	ba	0	left
6.6.1	win	2023-06-26	22:34:00	22:45:43	674066	5dcb6fb005be6f8311d7e836	4	1	DL_practice	21	DL_practice	6	stimuli_target_diamondsquares.svg	stimuli_distractor_trianglediamonds.svg	20	yes	ga	1	809	6	5	antiphase_hc_osi.wav	2	6	2	noise_calib_stim_LEFT.wav	1	15	blb_dichoticlistening_ga-ga.mp3	ga	ga	0	left
6.6.1	win	2023-06-26	22:34:00	22:45:43	674066	5dcb6fb005be6f8311d7e836	4	1	DL_practice	21	DL_practice	7	stimuli_target_diamondsquares.svg	stimuli_distractor_trianglediamonds.svg	20	yes	ka	1	1087	6	5	antiphase_hc_osi.wav	2	6	2	noise_calib_stim_LEFT.wav	1	23	blb_dichoticlistening_ka-pa.mp3	ka	pa	1	left
6.6.1	win	2023-06-26	22:34:00	22:45:43	674066	5dcb6fb005be6f8311d7e836	4	1	DL_practice	21	DL_practice	8	stimuli_target_diamondsquares.svg	stimuli_distractor_trianglediamonds.svg	20	yes	da	1	1046	6	5	antiphase_hc_osi.wav	2	6	2	noise_calib_stim_LEFT.wav	1	8	blb_dichoticlistening_da-da.mp3	da	da	0	left
6.6.1	win	2023-06-26	22:34:00	22:45:43	674066	5dcb6fb005be6f8311d7e836	4	1	DL_practice	21	DL_practice	9	stimuli_target_diamondsquares.svg	stimuli_distractor_trianglediamonds.svg	20	yes	ga	1	1017	6	5	antiphase_hc_osi.wav	2	6	2	noise_calib_stim_LEFT.wav	1	18	blb_dichoticlistening_ga-ta.mp3	ga	ta	1	left
6.6.1	win	2023-06-26	22:34:00	22:45:43	674066	5dcb6fb005be6f8311d7e836	4	1	DL_practice	21	DL_practice	10	stimuli_target_diamondsquares.svg	stimuli_distractor_trianglediamonds.svg	20	yes	ka	1	892	6	5	antiphase_hc_osi.wav	2	6	2	noise_calib_stim_LEFT.wav	1	22	blb_dichoticlistening_ka-ka.mp3	ka	ka	0	left
6.6.1	win	2023-06-26	22:34:00	22:45:43	674066	5dcb6fb005be6f8311d7e836	4	1	DL_test	23	DL_test	1	stimuli_target_diamondsquares.svg	stimuli_distractor_trianglediamonds.svg	20	yes	ga	1	992	6	5	antiphase_hc_osi.wav	2	6	2	noise_calib_stim_LEFT.wav	1	27	blb_dichoticlistening_pa-ga.mp3	pa	ga	1	right
6.6.1	win	2023-06-26	22:34:00	22:45:43	674066	5dcb6fb005be6f8311d7e836	4	1	DL_test	23	DL_test	2	stimuli_target_diamondsquares.svg	stimuli_distractor_trianglediamonds.svg	20	yes	ga	1	788	6	5	antiphase_hc_osi.wav	2	6	2	noise_calib_stim_LEFT.wav	1	15	blb_dichoticlistening_ga-ga.mp3	ga	ga	0	left
6.6.1	win	2023-06-26	22:34:00	22:45:43	674066	5dcb6fb005be6f8311d7e836	4	1	DL_test	23	DL_test	3	stimuli_target_diamondsquares.svg	stimuli_distractor_trianglediamonds.svg	20	yes	ka	1	1118	6	5	antiphase_hc_osi.wav	2	6	2	noise_calib_stim_LEFT.wav	1	23	blb_dichoticlistening_ka-pa.mp3	ka	pa	1	left
6.6.1	win	2023-06-26	22:34:00	22:45:43	674066	5dcb6fb005be6f8311d7e836	4	1	DL_test	23	DL_test	4	stimuli_target_diamondsquares.svg	stimuli_distractor_trianglediamonds.svg	20	yes	ba	1	2123	6	5	antiphase_hc_osi.wav	2	6	2	noise_calib_stim_LEFT.wav	1	3	blb_dichoticlistening_ba-ga.mp3	ba	ga	1	left
6.6.1	win	2023-06-26	22:34:00	22:45:43	674066	5dcb6fb005be6f8311d7e836	4	1	DL_test	23	DL_test	5	stimuli_target_diamondsquares.svg	stimuli_distractor_trianglediamonds.svg	20	yes	ga	1	800	6	5	antiphase_hc_osi.wav	2	6	2	noise_calib_stim_LEFT.wav	1	17	blb_dichoticlistening_ga-pa.mp3	ga	pa	1	left
6.6.1	win	2023-06-26	22:34:00	22:45:43	674066	5dcb6fb005be6f8311d7e836	4	1	DL_test	23	DL_test	6	stimuli_target_diamondsquares.svg	stimuli_distractor_trianglediamonds.svg	20	yes	ga	1	580	6	5	antiphase_hc_osi.wav	2	6	2	noise_calib_stim_LEFT.wav	1	18	blb_dichoticlistening_ga-ta.mp3	ga	ta	1	left
6.6.1	win	2023-06-26	22:34:00	22:45:43	674066	5dcb6fb005be6f8311d7e836	4	1	DL_test	23	DL_test	7	stimuli_target_diamondsquares.svg	stimuli_distractor_trianglediamonds.svg	20	yes	ga	1	586	6	5	antiphase_hc_osi.wav	2	6	2	noise_calib_stim_LEFT.wav	1	16	blb_dichoticlistening_ga-ka.mp3	ga	ka	1	left
6.6.1	win	2023-06-26	22:34:00	22:45:43	674066	5dcb6fb005be6f8311d7e836	4	1	DL_test	23	DL_test	8	stimuli_target_diamondsquares.svg	stimuli_distractor_trianglediamonds.svg	20	yes	ga	1	550	6	5	antiphase_hc_osi.wav	2	6	2	noise_calib_stim_LEFT.wav	1	9	blb_dichoticlistening_da-ga.mp3	da	ga	1	right
6.6.1	win	2023-06-26	22:34:00	22:45:43	674066	5dcb6fb005be6f8311d7e836	4	1	DL_test	23	DL_test	9	stimuli_target_diamondsquares.svg	stimuli_distractor_trianglediamonds.svg	20	yes	da	1	1152	6	5	antiphase_hc_osi.wav	2	6	2	noise_calib_stim_LEFT.wav	1	26	blb_dichoticlistening_pa-da.mp3	pa	da	1	right
6.6.1	win	2023-06-26	22:34:00	22:45:43	674066	5dcb6fb005be6f8311d7e836	4	1	DL_test	23	DL_test	10	stimuli_target_diamondsquares.svg	stimuli_distractor_trianglediamonds.svg	20	yes	ga	1	1073	6	5	antiphase_hc_osi.wav	2	6	2	noise_calib_stim_LEFT.wav	1	13	blb_dichoticlistening_ga-ba.mp3	ga	ba	1	left
6.6.1	win	2023-06-26	22:34:00	22:45:43	674066	5dcb6fb005be6f8311d7e836	4	1	DL_test	23	DL_test	11	stimuli_target_diamondsquares.svg	stimuli_distractor_trianglediamonds.svg	20	yes	ba	1	2717	6	5	antiphase_hc_osi.wav	2	6	2	noise_calib_stim_LEFT.wav	1	2	blb_dichoticlistening_ba-da.mp3	ba	da	1	left
6.6.1	win	2023-06-26	22:34:00	22:45:43	674066	5dcb6fb005be6f8311d7e836	4	1	DL_test	23	DL_test	12	stimuli_target_diamondsquares.svg	stimuli_distractor_trianglediamonds.svg	20	yes	ba	1	1141	6	5	antiphase_hc_osi.wav	2	6	2	noise_calib_stim_LEFT.wav	1	5	blb_dichoticlistening_ba-pa.mp3	ba	pa	1	left
6.6.1	win	2023-06-26	22:34:00	22:45:43	674066	5dcb6fb005be6f8311d7e836	4	1	DL_test	23	DL_test	13	stimuli_target_diamondsquares.svg	stimuli_distractor_trianglediamonds.svg	20	yes	da	1	900	6	5	antiphase_hc_osi.wav	2	6	2	noise_calib_stim_LEFT.wav	1	10	blb_dichoticlistening_da-ka.mp3	da	ka	1	left
6.6.1	win	2023-06-26	22:34:00	22:45:43	674066	5dcb6fb005be6f8311d7e836	4	1	DL_test	23	DL_test	14	stimuli_target_diamondsquares.svg	stimuli_distractor_trianglediamonds.svg	20	yes	ga	0	2136	6	5	antiphase_hc_osi.wav	2	6	2	noise_calib_stim_LEFT.wav	1	20	blb_dichoticlistening_ka-da.mp3	ka	da	1	other
6.6.1	win	2023-06-26	22:34:00	22:45:43	674066	5dcb6fb005be6f8311d7e836	4	1	DL_test	23	DL_test	15	stimuli_target_diamondsquares.svg	stimuli_distractor_trianglediamonds.svg	20	yes	ba	1	2540	6	5	antiphase_hc_osi.wav	2	6	2	noise_calib_stim_LEFT.wav	1	7	blb_dichoticlistening_da-ba.mp3	da	ba	1	right
6.6.1	win	2023-06-26	22:34:00	22:45:43	674066	5dcb6fb005be6f8311d7e836	4	1	DL_test	23	DL_test	16	stimuli_target_diamondsquares.svg	stimuli_distractor_trianglediamonds.svg	20	yes	ta	1	2210	6	5	antiphase_hc_osi.wav	2	6	2	noise_calib_stim_LEFT.wav	1	31	blb_dichoticlistening_ta-ba.mp3	ta	ba	1	left
6.6.1	win	2023-06-26	22:34:00	22:45:43	674066	5dcb6fb005be6f8311d7e836	4	1	DL_test	23	DL_test	17	stimuli_target_diamondsquares.svg	stimuli_distractor_trianglediamonds.svg	20	yes	ka	1	1461	6	5	antiphase_hc_osi.wav	2	6	2	noise_calib_stim_LEFT.wav	1	19	blb_dichoticlistening_ka-ba.mp3	ka	ba	1	left
6.6.1	win	2023-06-26	22:34:00	22:45:43	674066	5dcb6fb005be6f8311d7e836	4	1	DL_test	23	DL_test	18	stimuli_target_diamondsquares.svg	stimuli_distractor_trianglediamonds.svg	20	yes	ta	1	1280	6	5	antiphase_hc_osi.wav	2	6	2	noise_calib_stim_LEFT.wav	1	35	blb_dichoticlistening_ta-pa.mp3	ta	pa	1	left
6.6.1	win	2023-06-26	22:34:00	22:45:43	674066	5dcb6fb005be6f8311d7e836	4	1	DL_test	23	DL_test	19	stimuli_target_diamondsquares.svg	stimuli_distractor_trianglediamonds.svg	20	yes	ba	1	1317	6	5	antiphase_hc_osi.wav	2	6	2	noise_calib_stim_LEFT.wav	1	1	blb_dichoticlistening_ba-ba.mp3	ba	ba	0	left
6.6.1	win	2023-06-26	22:34:00	22:45:43	674066	5dcb6fb005be6f8311d7e836	4	1	DL_test	23	DL_test	20	stimuli_target_diamondsquares.svg	stimuli_distractor_trianglediamonds.svg	20	yes	da	1	870	6	5	antiphase_hc_osi.wav	2	6	2	noise_calib_stim_LEFT.wav	1	11	blb_dichoticlistening_da-pa.mp3	da	pa	1	left
6.6.1	win	2023-06-26	22:34:00	22:45:43	674066	5dcb6fb005be6f8311d7e836	4	1	DL_test	23	DL_test	21	stimuli_target_diamondsquares.svg	stimuli_distractor_trianglediamonds.svg	20	yes	ta	1	1077	6	5	antiphase_hc_osi.wav	2	6	2	noise_calib_stim_LEFT.wav	1	36	blb_dichoticlistening_ta-ta.mp3	ta	ta	0	left
6.6.1	win	2023-06-26	22:34:00	22:45:43	674066	5dcb6fb005be6f8311d7e836	4	1	DL_test	23	DL_test	22	stimuli_target_diamondsquares.svg	stimuli_distractor_trianglediamonds.svg	20	yes	ga	1	1302	6	5	antiphase_hc_osi.wav	2	6	2	noise_calib_stim_LEFT.wav	1	21	blb_dichoticlistening_ka-ga.mp3	ka	ga	1	right
6.6.1	win	2023-06-26	22:34:00	22:45:43	674066	5dcb6fb005be6f8311d7e836	4	1	DL_test	23	DL_test	23	stimuli_target_diamondsquares.svg	stimuli_distractor_trianglediamonds.svg	20	yes	ga	1	732	6	5	antiphase_hc_osi.wav	2	6	2	noise_calib_stim_LEFT.wav	1	33	blb_dichoticlistening_ta-ga.mp3	ta	ga	1	right
6.6.1	win	2023-06-26	22:34:00	22:45:43	674066	5dcb6fb005be6f8311d7e836	4	1	DL_test	23	DL_test	24	stimuli_target_diamondsquares.svg	stimuli_distractor_trianglediamonds.svg	20	yes	pa	1	1572	6	5	antiphase_hc_osi.wav	2	6	2	noise_calib_stim_LEFT.wav	1	29	blb_dichoticlistening_pa-pa.mp3	pa	pa	0	left
6.6.1	win	2023-06-26	22:34:00	22:45:43	674066	5dcb6fb005be6f8311d7e836	4	1	DL_test	23	DL_test	25	stimuli_target_diamondsquares.svg	stimuli_distractor_trianglediamonds.svg	20	yes	da	1	1499	6	5	antiphase_hc_osi.wav	2	6	2	noise_calib_stim_LEFT.wav	1	12	blb_dichoticlistening_da-ta.mp3	da	ta	1	left
6.6.1	win	2023-06-26	22:34:00	22:45:43	674066	5dcb6fb005be6f8311d7e836	4	1	DL_test	23	DL_test	26	stimuli_target_diamondsquares.svg	stimuli_distractor_trianglediamonds.svg	20	yes	pa	1	1675	6	5	antiphase_hc_osi.wav	2	6	2	noise_calib_stim_LEFT.wav	1	30	blb_dichoticlistening_pa-ta.mp3	pa	ta	1	left
