build	computer.platform	date	time	timestamp	time_elapsed_ms	subject	group	session	blockcode	blocknum	trialcode	trialnum	stimulus_left	stimulus_right	stim_index	target_present	response	correct	latency	headphonecheck_countTestTrials	headphonecheck_index	headphonecheck_testSound	headphonecheck_correctResponse	stereocheck_countTestTrials	stereocheck_index	stereocheck_testSound	stereocheck_correctResponse	DL_index	DL_soundfile	DL_leftSound	DL_rightSound	DL_dualSound	DL_choice
6.6.1	mac	2023-06-27	21:13:55	21:16:42	163846	63d3a3629d0b9452d3f32c7e	3	1	practice_slash	5	practice_slash	1	stimuli_distractor_diamondtriangles.svg	stimuli_distractor_trianglediamonds.svg	14	no	0	1	2000	0	0			0	0			1				0	
6.6.1	mac	2023-06-27	21:13:55	21:16:42	163846	63d3a3629d0b9452d3f32c7e	3	1	practice_slash	5	advance_on_keypress_SLASH	2	stimuli_distractor_diamondtriangles.svg	stimuli_distractor_trianglediamonds.svg	14	no	57	0	1752	0	0			0	0			1				0	
6.6.1	mac	2023-06-27	21:13:55	21:16:46	168154	63d3a3629d0b9452d3f32c7e	3	1	practice_slash	5	practice_slash	3	stimuli_distractor_diamondtriangles.svg	stimuli_target_rectangletriangles.svg	7	yes	53	1	921	0	0			0	0			1				0	
6.6.1	mac	2023-06-27	21:13:55	21:16:46	168154	63d3a3629d0b9452d3f32c7e	3	1	practice_slash	5	advance_on_keypress_SLASH	4	stimuli_distractor_diamondtriangles.svg	stimuli_target_rectangletriangles.svg	7	yes	57	0	1179	0	0			0	0			1				0	
6.6.1	mac	2023-06-27	21:13:55	21:16:50	171762	63d3a3629d0b9452d3f32c7e	3	1	practice_slash	5	practice_slash	5	stimuli_distractor_diamondtriangles.svg	stimuli_target_diamondrectangles.svg	8	yes	53	1	796	0	0			0	0			1				0	
6.6.1	mac	2023-06-27	21:13:55	21:16:50	171762	63d3a3629d0b9452d3f32c7e	3	1	practice_slash	5	advance_on_keypress_SLASH	6	stimuli_distractor_diamondtriangles.svg	stimuli_target_diamondrectangles.svg	8	yes	57	0	675	0	0			0	0			1				0	
6.6.1	mac	2023-06-27	21:13:55	21:16:53	174867	63d3a3629d0b9452d3f32c7e	3	1	practice_slash	5	practice_slash	7	stimuli_distractor_trianglediamonds.svg	stimuli_target_diamondrectangles.svg	12	yes	53	1	816	0	0			0	0			1				0	
6.6.1	mac	2023-06-27	21:13:55	21:16:53	174867	63d3a3629d0b9452d3f32c7e	3	1	practice_slash	5	advance_on_keypress_SLASH	8	stimuli_distractor_trianglediamonds.svg	stimuli_target_diamondrectangles.svg	12	yes	57	0	293	0	0			0	0			1				0	
6.6.1	mac	2023-06-27	21:13:55	21:16:56	177994	63d3a3629d0b9452d3f32c7e	3	1	practice_slash	5	practice_slash	9	stimuli_distractor_trianglediamonds.svg	stimuli_target_rectanglediamonds.svg	10	yes	53	1	1192	0	0			0	0			1				0	
6.6.1	mac	2023-06-27	21:13:55	21:16:56	177994	63d3a3629d0b9452d3f32c7e	3	1	practice_slash	5	advance_on_keypress_SLASH	10	stimuli_distractor_trianglediamonds.svg	stimuli_target_rectanglediamonds.svg	10	yes	57	0	520	0	0			0	0			1				0	
6.6.1	mac	2023-06-27	21:13:55	21:16:59	181226	63d3a3629d0b9452d3f32c7e	3	1	practice_slash	5	practice_slash	11	stimuli_target_rectanglediamonds.svg	stimuli_distractor_trianglediamonds.svg	4	yes	53	1	1091	0	0			0	0			1				0	
6.6.1	mac	2023-06-27	21:13:55	21:16:59	181226	63d3a3629d0b9452d3f32c7e	3	1	practice_slash	5	advance_on_keypress_SLASH	12	stimuli_target_rectanglediamonds.svg	stimuli_distractor_trianglediamonds.svg	4	yes	57	0	630	0	0			0	0			1				0	
6.6.1	mac	2023-06-27	21:13:55	21:17:03	184402	63d3a3629d0b9452d3f32c7e	3	1	practice_slash	5	practice_slash	13	stimuli_distractor_diamondtriangles.svg	stimuli_target_trianglerectangles.svg	9	yes	53	1	916	0	0			0	0			1				0	
6.6.1	mac	2023-06-27	21:13:55	21:17:03	184402	63d3a3629d0b9452d3f32c7e	3	1	practice_slash	5	advance_on_keypress_SLASH	14	stimuli_distractor_diamondtriangles.svg	stimuli_target_trianglerectangles.svg	9	yes	57	0	334	0	0			0	0			1				0	
6.6.1	mac	2023-06-27	21:13:55	21:17:05	187322	63d3a3629d0b9452d3f32c7e	3	1	practice_slash	5	practice_slash	15	stimuli_distractor_trianglediamonds.svg	stimuli_distractor_trianglediamonds.svg	15	no	53	0	953	0	0			0	0			1				0	
6.6.1	mac	2023-06-27	21:13:55	21:17:05	187322	63d3a3629d0b9452d3f32c7e	3	1	practice_slash	5	advance_on_keypress_SLASH	16	stimuli_distractor_trianglediamonds.svg	stimuli_distractor_trianglediamonds.svg	15	no	57	0	522	0	0			0	0			1				0	
6.6.1	mac	2023-06-27	21:13:55	21:17:08	190322	63d3a3629d0b9452d3f32c7e	3	1	practice_slash	5	practice_slash	17	stimuli_target_squarediamonds.svg	stimuli_distractor_diamondtriangles.svg	2	yes	53	1	853	0	0			0	0			1				0	
6.6.1	mac	2023-06-27	21:13:55	21:17:08	190322	63d3a3629d0b9452d3f32c7e	3	1	practice_slash	5	advance_on_keypress_SLASH	18	stimuli_target_squarediamonds.svg	stimuli_distractor_diamondtriangles.svg	2	yes	57	0	290	0	0			0	0			1				0	
6.6.1	mac	2023-06-27	21:13:55	21:17:11	193114	63d3a3629d0b9452d3f32c7e	3	1	practice_slash	5	practice_slash	19	stimuli_target_squarediamonds.svg	stimuli_distractor_trianglediamonds.svg	5	yes	53	1	878	0	0			0	0			1				0	
6.6.1	mac	2023-06-27	21:13:55	21:17:11	193114	63d3a3629d0b9452d3f32c7e	3	1	practice_slash	5	advance_on_keypress_SLASH	20	stimuli_target_squarediamonds.svg	stimuli_distractor_trianglediamonds.svg	5	yes	57	0	209	0	0			0	0			1				0	
6.6.1	mac	2023-06-27	21:13:55	21:17:15	196951	63d3a3629d0b9452d3f32c7e	3	1	practice_slash	5	practice_slash	21	stimuli_distractor_trianglediamonds.svg	stimuli_distractor_diamondtriangles.svg	16	no	0	1	2000	0	0			0	0			1				0	
6.6.1	mac	2023-06-27	21:13:55	21:17:15	196951	63d3a3629d0b9452d3f32c7e	3	1	practice_slash	5	advance_on_keypress_SLASH	22	stimuli_distractor_trianglediamonds.svg	stimuli_distractor_diamondtriangles.svg	16	no	57	0	535	0	0			0	0			1				0	
6.6.1	mac	2023-06-27	21:13:55	21:17:18	199818	63d3a3629d0b9452d3f32c7e	3	1	practice_slash	5	practice_slash	23	stimuli_distractor_trianglediamonds.svg	stimuli_target_squarediamonds.svg	11	yes	53	1	697	0	0			0	0			1				0	
6.6.1	mac	2023-06-27	21:13:55	21:17:18	199818	63d3a3629d0b9452d3f32c7e	3	1	practice_slash	5	advance_on_keypress_SLASH	24	stimuli_distractor_trianglediamonds.svg	stimuli_target_squarediamonds.svg	11	yes	57	0	308	0	0			0	0			1				0	
6.6.1	mac	2023-06-27	21:13:55	21:17:21	202578	63d3a3629d0b9452d3f32c7e	3	1	practice_slash	5	practice_slash	25	stimuli_target_diamondsquares.svg	stimuli_distractor_trianglediamonds.svg	6	yes	53	1	824	0	0			0	0			1				0	
6.6.1	mac	2023-06-27	21:13:55	21:17:21	202578	63d3a3629d0b9452d3f32c7e	3	1	practice_slash	5	advance_on_keypress_SLASH	26	stimuli_target_diamondsquares.svg	stimuli_distractor_trianglediamonds.svg	6	yes	57	0	294	0	0			0	0			1				0	
6.6.1	mac	2023-06-27	21:13:55	21:17:24	205370	63d3a3629d0b9452d3f32c7e	3	1	practice_slash	5	practice_slash	27	stimuli_target_rectanglediamonds.svg	stimuli_distractor_diamondtriangles.svg	1	yes	53	1	882	0	0			0	0			1				0	
6.6.1	mac	2023-06-27	21:13:55	21:17:24	205370	63d3a3629d0b9452d3f32c7e	3	1	practice_slash	5	advance_on_keypress_SLASH	28	stimuli_target_rectanglediamonds.svg	stimuli_distractor_diamondtriangles.svg	1	yes	57	0	237	0	0			0	0			1				0	
6.6.1	mac	2023-06-27	21:13:55	21:17:27	209235	63d3a3629d0b9452d3f32c7e	3	1	practice_slash	5	practice_slash	29	stimuli_distractor_diamondtriangles.svg	stimuli_distractor_diamondtriangles.svg	13	no	0	1	2000	0	0			0	0			1				0	
6.6.1	mac	2023-06-27	21:13:55	21:17:27	209235	63d3a3629d0b9452d3f32c7e	3	1	practice_slash	5	advance_on_keypress_SLASH	30	stimuli_distractor_diamondtriangles.svg	stimuli_distractor_diamondtriangles.svg	13	no	57	0	434	0	0			0	0			1				0	
6.6.1	mac	2023-06-27	21:13:55	21:17:30	212098	63d3a3629d0b9452d3f32c7e	3	1	practice_slash	5	practice_slash	31	stimuli_target_diamondsquares.svg	stimuli_distractor_diamondtriangles.svg	3	yes	53	1	792	0	0			0	0			1				0	
6.6.1	mac	2023-06-27	21:13:55	21:17:30	212098	63d3a3629d0b9452d3f32c7e	3	1	practice_slash	5	advance_on_keypress_SLASH	32	stimuli_target_diamondsquares.svg	stimuli_distractor_diamondtriangles.svg	3	yes	57	0	441	0	0			0	0			1				0	
6.6.1	mac	2023-06-27	21:13:55	21:17:36	217586	63d3a3629d0b9452d3f32c7e	3	1	main_slash	7	main_slash	1	stimuli_distractor_diamondtriangles.svg	stimuli_distractor_diamondtriangles.svg	39	no	53	0	963	0	0			0	0			1				0	
6.6.1	mac	2023-06-27	21:13:55	21:17:36	217586	63d3a3629d0b9452d3f32c7e	3	1	main_slash	7	advance_on_keypress_SLASH	2	stimuli_distractor_diamondtriangles.svg	stimuli_distractor_diamondtriangles.svg	39	no	57	0	1923	0	0			0	0			1				0	
6.6.1	mac	2023-06-27	21:13:55	21:17:39	221010	63d3a3629d0b9452d3f32c7e	3	1	main_slash	7	main_slash	3	stimuli_target_squaretriangles.svg	stimuli_distractor_diamondtriangles.svg	7	yes	53	1	870	0	0			0	0			1				0	
6.6.1	mac	2023-06-27	21:13:55	21:17:39	221010	63d3a3629d0b9452d3f32c7e	3	1	main_slash	7	advance_on_keypress_SLASH	4	stimuli_target_squaretriangles.svg	stimuli_distractor_diamondtriangles.svg	7	yes	57	0	1114	0	0			0	0			1				0	
6.6.1	mac	2023-06-27	21:13:55	21:17:42	223594	63d3a3629d0b9452d3f32c7e	3	1	main_slash	7	main_slash	5	stimuli_distractor_diamondtriangles.svg	stimuli_target_rectangletriangles.svg	13	yes	53	1	837	0	0			0	0			1				0	
6.6.1	mac	2023-06-27	21:13:55	21:17:42	223594	63d3a3629d0b9452d3f32c7e	3	1	main_slash	7	advance_on_keypress_SLASH	6	stimuli_distractor_diamondtriangles.svg	stimuli_target_rectangletriangles.svg	13	yes	57	0	1115	0	0			0	0			1				0	
6.6.1	mac	2023-06-27	21:13:55	21:17:44	226186	63d3a3629d0b9452d3f32c7e	3	1	main_slash	7	main_slash	7	stimuli_target_diamondsquares.svg	stimuli_distractor_trianglediamonds.svg	20	yes	53	1	845	0	0			0	0			1				0	
6.6.1	mac	2023-06-27	21:13:55	21:17:44	226186	63d3a3629d0b9452d3f32c7e	3	1	main_slash	7	advance_on_keypress_SLASH	8	stimuli_target_diamondsquares.svg	stimuli_distractor_trianglediamonds.svg	20	yes	57	0	578	0	0			0	0			1				0	
6.6.1	mac	2023-06-27	21:13:55	21:17:48	229388	63d3a3629d0b9452d3f32c7e	3	1	main_slash	7	main_slash	9	stimuli_distractor_diamondtriangles.svg	stimuli_target_squaretriangles.svg	15	yes	0	0	2000	0	0			0	0			1				0	
6.6.1	mac	2023-06-27	21:13:55	21:17:48	229388	63d3a3629d0b9452d3f32c7e	3	1	main_slash	7	advance_on_keypress_SLASH	10	stimuli_distractor_diamondtriangles.svg	stimuli_target_squaretriangles.svg	15	yes	57	0	601	0	0			0	0			1				0	
6.6.1	mac	2023-06-27	21:13:55	21:17:51	232622	63d3a3629d0b9452d3f32c7e	3	1	main_slash	7	main_slash	11	stimuli_distractor_trianglediamonds.svg	stimuli_distractor_diamondtriangles.svg	36	no	0	1	2000	0	0			0	0			1				0	
6.6.1	mac	2023-06-27	21:13:55	21:17:51	232622	63d3a3629d0b9452d3f32c7e	3	1	main_slash	7	advance_on_keypress_SLASH	12	stimuli_distractor_trianglediamonds.svg	stimuli_distractor_diamondtriangles.svg	36	no	57	0	264	0	0			0	0			1				0	
6.6.1	mac	2023-06-27	21:13:55	21:17:54	235522	63d3a3629d0b9452d3f32c7e	3	1	main_slash	7	main_slash	13	stimuli_distractor_diamondtriangles.svg	stimuli_distractor_trianglediamonds.svg	37	no	0	1	2000	0	0			0	0			1				0	
6.6.1	mac	2023-06-27	21:13:55	21:17:54	235522	63d3a3629d0b9452d3f32c7e	3	1	main_slash	7	advance_on_keypress_SLASH	14	stimuli_distractor_diamondtriangles.svg	stimuli_distractor_trianglediamonds.svg	37	no	57	0	275	0	0			0	0			1				0	
6.6.1	mac	2023-06-27	21:13:55	21:17:55	237314	63d3a3629d0b9452d3f32c7e	3	1	main_slash	7	main_slash	15	stimuli_target_rectanglediamonds.svg	stimuli_distractor_diamondtriangles.svg	6	yes	53	1	889	0	0			0	0			1				0	
6.6.1	mac	2023-06-27	21:13:55	21:17:55	237314	63d3a3629d0b9452d3f32c7e	3	1	main_slash	7	advance_on_keypress_SLASH	16	stimuli_target_rectanglediamonds.svg	stimuli_distractor_diamondtriangles.svg	6	yes	57	0	660	0	0			0	0			1				0	
6.6.1	mac	2023-06-27	21:13:55	21:17:59	240589	63d3a3629d0b9452d3f32c7e	3	1	main_slash	7	main_slash	17	stimuli_distractor_trianglediamonds.svg	stimuli_distractor_diamondtriangles.svg	35	no	0	1	2000	0	0			0	0			1				0	
6.6.1	mac	2023-06-27	21:13:55	21:17:59	240589	63d3a3629d0b9452d3f32c7e	3	1	main_slash	7	advance_on_keypress_SLASH	18	stimuli_distractor_trianglediamonds.svg	stimuli_distractor_diamondtriangles.svg	35	no	57	0	321	0	0			0	0			1				0	
6.6.1	mac	2023-06-27	21:13:55	21:18:01	242410	63d3a3629d0b9452d3f32c7e	3	1	main_slash	7	main_slash	19	stimuli_target_trianglesquares.svg	stimuli_distractor_trianglediamonds.svg	18	yes	53	1	867	0	0			0	0			1				0	
6.6.1	mac	2023-06-27	21:13:55	21:18:01	242410	63d3a3629d0b9452d3f32c7e	3	1	main_slash	7	advance_on_keypress_SLASH	20	stimuli_target_trianglesquares.svg	stimuli_distractor_trianglediamonds.svg	18	yes	57	0	599	0	0			0	0			1				0	
6.6.1	mac	2023-06-27	21:13:55	21:18:03	244562	63d3a3629d0b9452d3f32c7e	3	1	main_slash	7	main_slash	21	stimuli_distractor_trianglediamonds.svg	stimuli_target_trianglesquares.svg	26	yes	53	1	919	0	0			0	0			1				0	
6.6.1	mac	2023-06-27	21:13:55	21:18:03	244562	63d3a3629d0b9452d3f32c7e	3	1	main_slash	7	advance_on_keypress_SLASH	22	stimuli_distractor_trianglediamonds.svg	stimuli_target_trianglesquares.svg	26	yes	57	0	457	0	0			0	0			1				0	
6.6.1	mac	2023-06-27	21:13:55	21:18:05	246514	63d3a3629d0b9452d3f32c7e	3	1	main_slash	7	main_slash	23	stimuli_distractor_trianglediamonds.svg	stimuli_target_rectanglediamonds.svg	10	yes	53	1	871	0	0			0	0			1				0	
6.6.1	mac	2023-06-27	21:13:55	21:18:05	246514	63d3a3629d0b9452d3f32c7e	3	1	main_slash	7	advance_on_keypress_SLASH	24	stimuli_distractor_trianglediamonds.svg	stimuli_target_rectanglediamonds.svg	10	yes	57	0	451	0	0			0	0			1				0	
6.6.1	mac	2023-06-27	21:13:55	21:18:07	248450	63d3a3629d0b9452d3f32c7e	3	1	main_slash	7	main_slash	25	stimuli_distractor_trianglediamonds.svg	stimuli_target_squarediamonds.svg	12	yes	53	1	857	0	0			0	0			1				0	
6.6.1	mac	2023-06-27	21:13:55	21:18:07	248450	63d3a3629d0b9452d3f32c7e	3	1	main_slash	7	advance_on_keypress_SLASH	26	stimuli_distractor_trianglediamonds.svg	stimuli_target_squarediamonds.svg	12	yes	57	0	462	0	0			0	0			1				0	
6.6.1	mac	2023-06-27	21:13:55	21:18:08	250322	63d3a3629d0b9452d3f32c7e	3	1	main_slash	7	main_slash	27	stimuli_target_rectanglediamonds.svg	stimuli_distractor_trianglediamonds.svg	2	yes	53	1	779	0	0			0	0			1				0	
6.6.1	mac	2023-06-27	21:13:55	21:18:08	250322	63d3a3629d0b9452d3f32c7e	3	1	main_slash	7	advance_on_keypress_SLASH	28	stimuli_target_rectanglediamonds.svg	stimuli_distractor_trianglediamonds.svg	2	yes	57	0	411	0	0			0	0			1				0	
6.6.1	mac	2023-06-27	21:13:55	21:18:11	253358	63d3a3629d0b9452d3f32c7e	3	1	main_slash	7	main_slash	29	stimuli_distractor_trianglediamonds.svg	stimuli_distractor_trianglediamonds.svg	33	no	0	1	2000	0	0			0	0			1				0	
6.6.1	mac	2023-06-27	21:13:55	21:18:11	253358	63d3a3629d0b9452d3f32c7e	3	1	main_slash	7	advance_on_keypress_SLASH	30	stimuli_distractor_trianglediamonds.svg	stimuli_distractor_trianglediamonds.svg	33	no	57	0	264	0	0			0	0			1				0	
6.6.1	mac	2023-06-27	21:13:55	21:18:13	255010	63d3a3629d0b9452d3f32c7e	3	1	main_slash	7	main_slash	31	stimuli_target_squarediamonds.svg	stimuli_distractor_diamondtriangles.svg	8	yes	53	1	749	0	0			0	0			1				0	
6.6.1	mac	2023-06-27	21:13:55	21:18:13	255010	63d3a3629d0b9452d3f32c7e	3	1	main_slash	7	advance_on_keypress_SLASH	32	stimuli_target_squarediamonds.svg	stimuli_distractor_diamondtriangles.svg	8	yes	57	0	501	0	0			0	0			1				0	
6.6.1	mac	2023-06-27	21:13:55	21:18:15	256890	63d3a3629d0b9452d3f32c7e	3	1	main_slash	7	main_slash	33	stimuli_distractor_diamondtriangles.svg	stimuli_target_trianglesquares.svg	30	yes	53	1	746	0	0			0	0			1				0	
6.6.1	mac	2023-06-27	21:13:55	21:18:15	256890	63d3a3629d0b9452d3f32c7e	3	1	main_slash	7	advance_on_keypress_SLASH	34	stimuli_distractor_diamondtriangles.svg	stimuli_target_trianglesquares.svg	30	yes	57	0	459	0	0			0	0			1				0	
6.6.1	mac	2023-06-27	21:13:55	21:18:17	258634	63d3a3629d0b9452d3f32c7e	3	1	main_slash	7	main_slash	35	stimuli_distractor_diamondtriangles.svg	stimuli_target_diamondrectangles.svg	31	yes	53	1	656	0	0			0	0			1				0	
6.6.1	mac	2023-06-27	21:13:55	21:18:17	258634	63d3a3629d0b9452d3f32c7e	3	1	main_slash	7	advance_on_keypress_SLASH	36	stimuli_distractor_diamondtriangles.svg	stimuli_target_diamondrectangles.svg	31	yes	57	0	406	0	0			0	0			1				0	
6.6.1	mac	2023-06-27	21:13:55	21:18:18	260354	63d3a3629d0b9452d3f32c7e	3	1	main_slash	7	main_slash	37	stimuli_distractor_diamondtriangles.svg	stimuli_target_diamondsquares.svg	32	yes	53	1	693	0	0			0	0			1				0	
6.6.1	mac	2023-06-27	21:13:55	21:18:18	260354	63d3a3629d0b9452d3f32c7e	3	1	main_slash	7	advance_on_keypress_SLASH	38	stimuli_distractor_diamondtriangles.svg	stimuli_target_diamondsquares.svg	32	yes	57	0	337	0	0			0	0			1				0	
6.6.1	mac	2023-06-27	21:13:55	21:18:20	262058	63d3a3629d0b9452d3f32c7e	3	1	main_slash	7	main_slash	39	stimuli_target_diamondsquares.svg	stimuli_distractor_diamondtriangles.svg	24	yes	53	1	746	0	0			0	0			1				0	
6.6.1	mac	2023-06-27	21:13:55	21:18:20	262058	63d3a3629d0b9452d3f32c7e	3	1	main_slash	7	advance_on_keypress_SLASH	40	stimuli_target_diamondsquares.svg	stimuli_distractor_diamondtriangles.svg	24	yes	57	0	307	0	0			0	0			1				0	
6.6.1	mac	2023-06-27	21:13:55	21:18:22	263690	63d3a3629d0b9452d3f32c7e	3	1	main_slash	7	main_slash	41	stimuli_distractor_diamondtriangles.svg	stimuli_target_squarediamonds.svg	16	yes	53	1	695	0	0			0	0			1				0	
6.6.1	mac	2023-06-27	21:13:55	21:18:22	263690	63d3a3629d0b9452d3f32c7e	3	1	main_slash	7	advance_on_keypress_SLASH	42	stimuli_distractor_diamondtriangles.svg	stimuli_target_squarediamonds.svg	16	yes	57	0	329	0	0			0	0			1				0	
6.6.1	mac	2023-06-27	21:13:55	21:18:24	265818	63d3a3629d0b9452d3f32c7e	3	1	main_slash	7	main_slash	43	stimuli_distractor_diamondtriangles.svg	stimuli_target_rectanglediamonds.svg	14	yes	53	1	1156	0	0			0	0			1				0	
6.6.1	mac	2023-06-27	21:13:55	21:18:24	265818	63d3a3629d0b9452d3f32c7e	3	1	main_slash	7	advance_on_keypress_SLASH	44	stimuli_distractor_diamondtriangles.svg	stimuli_target_rectanglediamonds.svg	14	yes	57	0	501	0	0			0	0			1				0	
6.6.1	mac	2023-06-27	21:13:55	21:18:26	267930	63d3a3629d0b9452d3f32c7e	3	1	main_slash	7	main_slash	45	stimuli_target_diamondrectangles.svg	stimuli_distractor_trianglediamonds.svg	19	yes	53	1	984	0	0			0	0			1				0	
6.6.1	mac	2023-06-27	21:13:55	21:18:26	267930	63d3a3629d0b9452d3f32c7e	3	1	main_slash	7	advance_on_keypress_SLASH	46	stimuli_target_diamondrectangles.svg	stimuli_distractor_trianglediamonds.svg	19	yes	57	0	528	0	0			0	0			1				0	
6.6.1	mac	2023-06-27	21:13:55	21:18:28	269906	63d3a3629d0b9452d3f32c7e	3	1	main_slash	7	main_slash	47	stimuli_target_squaretriangles.svg	stimuli_distractor_trianglediamonds.svg	3	yes	53	1	827	0	0			0	0			1				0	
6.6.1	mac	2023-06-27	21:13:55	21:18:28	269906	63d3a3629d0b9452d3f32c7e	3	1	main_slash	7	advance_on_keypress_SLASH	48	stimuli_target_squaretriangles.svg	stimuli_distractor_trianglediamonds.svg	3	yes	57	0	385	0	0			0	0			1				0	
6.6.1	mac	2023-06-27	21:13:55	21:18:30	271834	63d3a3629d0b9452d3f32c7e	3	1	main_slash	7	main_slash	49	stimuli_distractor_trianglediamonds.svg	stimuli_target_diamondrectangles.svg	27	yes	53	1	921	0	0			0	0			1				0	
6.6.1	mac	2023-06-27	21:13:55	21:18:30	271834	63d3a3629d0b9452d3f32c7e	3	1	main_slash	7	advance_on_keypress_SLASH	50	stimuli_distractor_trianglediamonds.svg	stimuli_target_diamondrectangles.svg	27	yes	57	0	323	0	0			0	0			1				0	
6.6.1	mac	2023-06-27	21:13:55	21:18:32	273642	63d3a3629d0b9452d3f32c7e	3	1	main_slash	7	main_slash	51	stimuli_target_trianglerectangles.svg	stimuli_distractor_trianglediamonds.svg	17	yes	53	1	862	0	0			0	0			1				0	
6.6.1	mac	2023-06-27	21:13:55	21:18:32	273642	63d3a3629d0b9452d3f32c7e	3	1	main_slash	7	advance_on_keypress_SLASH	52	stimuli_target_trianglerectangles.svg	stimuli_distractor_trianglediamonds.svg	17	yes	57	0	322	0	0			0	0			1				0	
6.6.1	mac	2023-06-27	21:13:55	21:18:35	276594	63d3a3629d0b9452d3f32c7e	3	1	main_slash	7	main_slash	53	stimuli_distractor_diamondtriangles.svg	stimuli_distractor_trianglediamonds.svg	38	no	0	1	2000	0	0			0	0			1				0	
6.6.1	mac	2023-06-27	21:13:55	21:18:35	276594	63d3a3629d0b9452d3f32c7e	3	1	main_slash	7	advance_on_keypress_SLASH	54	stimuli_distractor_diamondtriangles.svg	stimuli_distractor_trianglediamonds.svg	38	no	57	0	492	0	0			0	0			1				0	
6.6.1	mac	2023-06-27	21:13:55	21:18:38	279711	63d3a3629d0b9452d3f32c7e	3	1	main_slash	7	main_slash	55	stimuli_distractor_diamondtriangles.svg	stimuli_distractor_diamondtriangles.svg	40	no	0	1	2000	0	0			0	0			1				0	
6.6.1	mac	2023-06-27	21:13:55	21:18:38	279711	63d3a3629d0b9452d3f32c7e	3	1	main_slash	7	advance_on_keypress_SLASH	56	stimuli_distractor_diamondtriangles.svg	stimuli_distractor_diamondtriangles.svg	40	no	57	0	256	0	0			0	0			1				0	
6.6.1	mac	2023-06-27	21:13:55	21:18:39	281338	63d3a3629d0b9452d3f32c7e	3	1	main_slash	7	main_slash	57	stimuli_target_rectangletriangles.svg	stimuli_distractor_diamondtriangles.svg	5	yes	53	1	741	0	0			0	0			1				0	
6.6.1	mac	2023-06-27	21:13:55	21:18:39	281338	63d3a3629d0b9452d3f32c7e	3	1	main_slash	7	advance_on_keypress_SLASH	58	stimuli_target_rectangletriangles.svg	stimuli_distractor_diamondtriangles.svg	5	yes	57	0	479	0	0			0	0			1				0	
6.6.1	mac	2023-06-27	21:13:55	21:18:41	283162	63d3a3629d0b9452d3f32c7e	3	1	main_slash	7	main_slash	59	stimuli_target_rectangletriangles.svg	stimuli_distractor_trianglediamonds.svg	1	yes	53	1	714	0	0			0	0			1				0	
6.6.1	mac	2023-06-27	21:13:55	21:18:41	283162	63d3a3629d0b9452d3f32c7e	3	1	main_slash	7	advance_on_keypress_SLASH	60	stimuli_target_rectangletriangles.svg	stimuli_distractor_trianglediamonds.svg	1	yes	57	0	292	0	0			0	0			1				0	
6.6.1	mac	2023-06-27	21:13:55	21:18:43	284818	63d3a3629d0b9452d3f32c7e	3	1	main_slash	7	main_slash	61	stimuli_target_diamondrectangles.svg	stimuli_distractor_diamondtriangles.svg	23	yes	53	1	736	0	0			0	0			1				0	
6.6.1	mac	2023-06-27	21:13:55	21:18:43	284818	63d3a3629d0b9452d3f32c7e	3	1	main_slash	7	advance_on_keypress_SLASH	62	stimuli_target_diamondrectangles.svg	stimuli_distractor_diamondtriangles.svg	23	yes	57	0	243	0	0			0	0			1				0	
6.6.1	mac	2023-06-27	21:13:55	21:18:45	286586	63d3a3629d0b9452d3f32c7e	3	1	main_slash	7	main_slash	63	stimuli_target_trianglerectangles.svg	stimuli_distractor_diamondtriangles.svg	21	yes	53	1	904	0	0			0	0			1				0	
6.6.1	mac	2023-06-27	21:13:55	21:18:45	286586	63d3a3629d0b9452d3f32c7e	3	1	main_slash	7	advance_on_keypress_SLASH	64	stimuli_target_trianglerectangles.svg	stimuli_distractor_diamondtriangles.svg	21	yes	57	0	331	0	0			0	0			1				0	
6.6.1	mac	2023-06-27	21:13:55	21:18:47	288394	63d3a3629d0b9452d3f32c7e	3	1	main_slash	7	main_slash	65	stimuli_distractor_diamondtriangles.svg	stimuli_target_trianglerectangles.svg	29	yes	53	1	845	0	0			0	0			1				0	
6.6.1	mac	2023-06-27	21:13:55	21:18:47	288394	63d3a3629d0b9452d3f32c7e	3	1	main_slash	7	advance_on_keypress_SLASH	66	stimuli_distractor_diamondtriangles.svg	stimuli_target_trianglerectangles.svg	29	yes	57	0	226	0	0			0	0			1				0	
6.6.1	mac	2023-06-27	21:13:55	21:18:48	290098	63d3a3629d0b9452d3f32c7e	3	1	main_slash	7	main_slash	67	stimuli_target_trianglesquares.svg	stimuli_distractor_diamondtriangles.svg	22	yes	53	1	850	0	0			0	0			1				0	
6.6.1	mac	2023-06-27	21:13:55	21:18:48	290098	63d3a3629d0b9452d3f32c7e	3	1	main_slash	7	advance_on_keypress_SLASH	68	stimuli_target_trianglesquares.svg	stimuli_distractor_diamondtriangles.svg	22	yes	57	0	255	0	0			0	0			1				0	
6.6.1	mac	2023-06-27	21:13:55	21:18:50	292354	63d3a3629d0b9452d3f32c7e	3	1	main_slash	7	main_slash	69	stimuli_distractor_trianglediamonds.svg	stimuli_target_diamondsquares.svg	28	yes	53	1	1372	0	0			0	0			1				0	
6.6.1	mac	2023-06-27	21:13:55	21:18:50	292354	63d3a3629d0b9452d3f32c7e	3	1	main_slash	7	advance_on_keypress_SLASH	70	stimuli_distractor_trianglediamonds.svg	stimuli_target_diamondsquares.svg	28	yes	57	0	716	0	0			0	0			1				0	
6.6.1	mac	2023-06-27	21:13:55	21:18:53	294698	63d3a3629d0b9452d3f32c7e	3	1	main_slash	7	main_slash	71	stimuli_distractor_trianglediamonds.svg	stimuli_target_rectangletriangles.svg	9	yes	53	1	999	0	0			0	0			1				0	
6.6.1	mac	2023-06-27	21:13:55	21:18:53	294698	63d3a3629d0b9452d3f32c7e	3	1	main_slash	7	advance_on_keypress_SLASH	72	stimuli_distractor_trianglediamonds.svg	stimuli_target_rectangletriangles.svg	9	yes	57	0	206	0	0			0	0			1				0	
6.6.1	mac	2023-06-27	21:13:55	21:18:55	296522	63d3a3629d0b9452d3f32c7e	3	1	main_slash	7	main_slash	73	stimuli_distractor_trianglediamonds.svg	stimuli_target_squaretriangles.svg	11	yes	53	1	989	0	0			0	0			1				0	
6.6.1	mac	2023-06-27	21:13:55	21:18:55	296522	63d3a3629d0b9452d3f32c7e	3	1	main_slash	7	advance_on_keypress_SLASH	74	stimuli_distractor_trianglediamonds.svg	stimuli_target_squaretriangles.svg	11	yes	57	0	390	0	0			0	0			1				0	
6.6.1	mac	2023-06-27	21:13:55	21:18:57	298434	63d3a3629d0b9452d3f32c7e	3	1	main_slash	7	main_slash	75	stimuli_distractor_trianglediamonds.svg	stimuli_target_trianglerectangles.svg	25	yes	53	1	901	0	0			0	0			1				0	
6.6.1	mac	2023-06-27	21:13:55	21:18:57	298434	63d3a3629d0b9452d3f32c7e	3	1	main_slash	7	advance_on_keypress_SLASH	76	stimuli_distractor_trianglediamonds.svg	stimuli_target_trianglerectangles.svg	25	yes	57	0	239	0	0			0	0			1				0	
6.6.1	mac	2023-06-27	21:13:55	21:18:59	301297	63d3a3629d0b9452d3f32c7e	3	1	main_slash	7	main_slash	77	stimuli_distractor_trianglediamonds.svg	stimuli_distractor_trianglediamonds.svg	34	no	0	1	2000	0	0			0	0			1				0	
6.6.1	mac	2023-06-27	21:13:55	21:18:59	301297	63d3a3629d0b9452d3f32c7e	3	1	main_slash	7	advance_on_keypress_SLASH	78	stimuli_distractor_trianglediamonds.svg	stimuli_distractor_trianglediamonds.svg	34	no	57	0	572	0	0			0	0			1				0	
6.6.1	mac	2023-06-27	21:13:55	21:19:02	303402	63d3a3629d0b9452d3f32c7e	3	1	main_slash	7	main_slash	79	stimuli_target_squarediamonds.svg	stimuli_distractor_trianglediamonds.svg	4	yes	53	1	902	0	0			0	0			1				0	
6.6.1	mac	2023-06-27	21:13:55	21:19:02	303402	63d3a3629d0b9452d3f32c7e	3	1	main_slash	7	advance_on_keypress_SLASH	80	stimuli_target_squarediamonds.svg	stimuli_distractor_trianglediamonds.svg	4	yes	57	0	304	0	0			0	0			1				0	
6.6.1	mac	2023-06-27	21:13:55	21:19:03	305282	63d3a3629d0b9452d3f32c7e	3	1	main_slash	7	main_slash	81	stimuli_target_squarediamonds.svg	stimuli_distractor_trianglediamonds.svg	4	yes	53	1	948	0	0			0	0			1				0	
6.6.1	mac	2023-06-27	21:13:55	21:19:03	305282	63d3a3629d0b9452d3f32c7e	3	1	main_slash	7	advance_on_keypress_SLASH	82	stimuli_target_squarediamonds.svg	stimuli_distractor_trianglediamonds.svg	4	yes	57	0	253	0	0			0	0			1				0	
6.6.1	mac	2023-06-27	21:13:55	21:19:06	308165	63d3a3629d0b9452d3f32c7e	3	1	main_slash	7	main_slash	83	stimuli_distractor_trianglediamonds.svg	stimuli_distractor_diamondtriangles.svg	35	no	0	1	2000	0	0			0	0			1				0	
6.6.1	mac	2023-06-27	21:13:55	21:19:06	308165	63d3a3629d0b9452d3f32c7e	3	1	main_slash	7	advance_on_keypress_SLASH	84	stimuli_distractor_trianglediamonds.svg	stimuli_distractor_diamondtriangles.svg	35	no	57	0	6153	0	0			0	0			1				0	
6.6.1	mac	2023-06-27	21:13:55	21:19:14	315770	63d3a3629d0b9452d3f32c7e	3	1	main_slash	7	main_slash	85	stimuli_target_rectanglediamonds.svg	stimuli_distractor_trianglediamonds.svg	2	yes	53	1	818	0	0			0	0			1				0	
6.6.1	mac	2023-06-27	21:13:55	21:19:14	315770	63d3a3629d0b9452d3f32c7e	3	1	main_slash	7	advance_on_keypress_SLASH	86	stimuli_target_rectanglediamonds.svg	stimuli_distractor_trianglediamonds.svg	2	yes	57	0	433	0	0			0	0			1				0	
6.6.1	mac	2023-06-27	21:13:55	21:19:16	317722	63d3a3629d0b9452d3f32c7e	3	1	main_slash	7	main_slash	87	stimuli_target_trianglerectangles.svg	stimuli_distractor_diamondtriangles.svg	21	yes	53	1	887	0	0			0	0			1				0	
6.6.1	mac	2023-06-27	21:13:55	21:19:16	317722	63d3a3629d0b9452d3f32c7e	3	1	main_slash	7	advance_on_keypress_SLASH	88	stimuli_target_trianglerectangles.svg	stimuli_distractor_diamondtriangles.svg	21	yes	57	0	643	0	0			0	0			1				0	
6.6.1	mac	2023-06-27	21:13:55	21:19:18	319826	63d3a3629d0b9452d3f32c7e	3	1	main_slash	7	main_slash	89	stimuli_target_rectangletriangles.svg	stimuli_distractor_diamondtriangles.svg	5	yes	53	1	841	0	0			0	0			1				0	
6.6.1	mac	2023-06-27	21:13:55	21:19:18	319826	63d3a3629d0b9452d3f32c7e	3	1	main_slash	7	advance_on_keypress_SLASH	90	stimuli_target_rectangletriangles.svg	stimuli_distractor_diamondtriangles.svg	5	yes	57	0	358	0	0			0	0			1				0	
6.6.1	mac	2023-06-27	21:13:55	21:19:20	321778	63d3a3629d0b9452d3f32c7e	3	1	main_slash	7	main_slash	91	stimuli_target_diamondsquares.svg	stimuli_distractor_trianglediamonds.svg	20	yes	53	1	976	0	0			0	0			1				0	
6.6.1	mac	2023-06-27	21:13:55	21:19:20	321778	63d3a3629d0b9452d3f32c7e	3	1	main_slash	7	advance_on_keypress_SLASH	92	stimuli_target_diamondsquares.svg	stimuli_distractor_trianglediamonds.svg	20	yes	57	0	296	0	0			0	0			1				0	
6.6.1	mac	2023-06-27	21:13:55	21:19:22	323618	63d3a3629d0b9452d3f32c7e	3	1	main_slash	7	main_slash	93	stimuli_target_squaretriangles.svg	stimuli_distractor_trianglediamonds.svg	3	yes	53	1	915	0	0			0	0			1				0	
6.6.1	mac	2023-06-27	21:13:55	21:19:22	323618	63d3a3629d0b9452d3f32c7e	3	1	main_slash	7	advance_on_keypress_SLASH	94	stimuli_target_squaretriangles.svg	stimuli_distractor_trianglediamonds.svg	3	yes	57	0	350	0	0			0	0			1				0	
6.6.1	mac	2023-06-27	21:13:55	21:19:25	326600	63d3a3629d0b9452d3f32c7e	3	1	main_slash	7	main_slash	95	stimuli_distractor_diamondtriangles.svg	stimuli_target_rectanglediamonds.svg	14	yes	0	0	2000	0	0			0	0			1				0	
6.6.1	mac	2023-06-27	21:13:55	21:19:25	326600	63d3a3629d0b9452d3f32c7e	3	1	main_slash	7	advance_on_keypress_SLASH	96	stimuli_distractor_diamondtriangles.svg	stimuli_target_rectanglediamonds.svg	14	yes	57	0	710	0	0			0	0			1				0	
6.6.1	mac	2023-06-27	21:13:55	21:19:27	328706	63d3a3629d0b9452d3f32c7e	3	1	main_slash	7	main_slash	97	stimuli_distractor_trianglediamonds.svg	stimuli_target_rectangletriangles.svg	9	yes	53	1	769	0	0			0	0			1				0	
6.6.1	mac	2023-06-27	21:13:55	21:19:27	328706	63d3a3629d0b9452d3f32c7e	3	1	main_slash	7	advance_on_keypress_SLASH	98	stimuli_distractor_trianglediamonds.svg	stimuli_target_rectangletriangles.svg	9	yes	57	0	401	0	0			0	0			1				0	
6.6.1	mac	2023-06-27	21:13:55	21:19:30	331734	63d3a3629d0b9452d3f32c7e	3	1	main_slash	7	main_slash	99	stimuli_distractor_trianglediamonds.svg	stimuli_distractor_trianglediamonds.svg	33	no	0	1	2000	0	0			0	0			1				0	
6.6.1	mac	2023-06-27	21:13:55	21:19:30	331734	63d3a3629d0b9452d3f32c7e	3	1	main_slash	7	advance_on_keypress_SLASH	100	stimuli_distractor_trianglediamonds.svg	stimuli_distractor_trianglediamonds.svg	33	no	57	0	407	0	0			0	0			1				0	
6.6.1	mac	2023-06-27	21:13:55	21:19:32	333786	63d3a3629d0b9452d3f32c7e	3	1	main_slash	7	main_slash	101	stimuli_distractor_diamondtriangles.svg	stimuli_target_trianglerectangles.svg	29	yes	53	1	1015	0	0			0	0			1				0	
6.6.1	mac	2023-06-27	21:13:55	21:19:32	333786	63d3a3629d0b9452d3f32c7e	3	1	main_slash	7	advance_on_keypress_SLASH	102	stimuli_distractor_diamondtriangles.svg	stimuli_target_trianglerectangles.svg	29	yes	57	0	485	0	0			0	0			1				0	
6.6.1	mac	2023-06-27	21:13:55	21:19:34	335978	63d3a3629d0b9452d3f32c7e	3	1	main_slash	7	main_slash	103	stimuli_distractor_trianglediamonds.svg	stimuli_target_trianglerectangles.svg	25	yes	53	1	1073	0	0			0	0			1				0	
6.6.1	mac	2023-06-27	21:13:55	21:19:34	335978	63d3a3629d0b9452d3f32c7e	3	1	main_slash	7	advance_on_keypress_SLASH	104	stimuli_distractor_trianglediamonds.svg	stimuli_target_trianglerectangles.svg	25	yes	57	0	382	0	0			0	0			1				0	
6.6.1	mac	2023-06-27	21:13:55	21:19:36	338026	63d3a3629d0b9452d3f32c7e	3	1	main_slash	7	main_slash	105	stimuli_distractor_trianglediamonds.svg	stimuli_target_diamondrectangles.svg	27	yes	53	1	1038	0	0			0	0			1				0	
6.6.1	mac	2023-06-27	21:13:55	21:19:36	338026	63d3a3629d0b9452d3f32c7e	3	1	main_slash	7	advance_on_keypress_SLASH	106	stimuli_distractor_trianglediamonds.svg	stimuli_target_diamondrectangles.svg	27	yes	57	0	244	0	0			0	0			1				0	
6.6.1	mac	2023-06-27	21:13:55	21:19:38	339842	63d3a3629d0b9452d3f32c7e	3	1	main_slash	7	main_slash	107	stimuli_distractor_diamondtriangles.svg	stimuli_target_squaretriangles.svg	15	yes	53	1	954	0	0			0	0			1				0	
6.6.1	mac	2023-06-27	21:13:55	21:19:38	339842	63d3a3629d0b9452d3f32c7e	3	1	main_slash	7	advance_on_keypress_SLASH	108	stimuli_distractor_diamondtriangles.svg	stimuli_target_squaretriangles.svg	15	yes	57	0	195	0	0			0	0			1				0	
6.6.1	mac	2023-06-27	21:13:55	21:19:40	341562	63d3a3629d0b9452d3f32c7e	3	1	main_slash	7	main_slash	109	stimuli_distractor_trianglediamonds.svg	stimuli_target_squaretriangles.svg	11	yes	53	1	890	0	0			0	0			1				0	
6.6.1	mac	2023-06-27	21:13:55	21:19:40	341562	63d3a3629d0b9452d3f32c7e	3	1	main_slash	7	advance_on_keypress_SLASH	110	stimuli_distractor_trianglediamonds.svg	stimuli_target_squaretriangles.svg	11	yes	57	0	166	0	0			0	0			1				0	
6.6.1	mac	2023-06-27	21:13:55	21:19:41	343282	63d3a3629d0b9452d3f32c7e	3	1	main_slash	7	main_slash	111	stimuli_target_diamondrectangles.svg	stimuli_distractor_trianglediamonds.svg	19	yes	53	1	926	0	0			0	0			1				0	
6.6.1	mac	2023-06-27	21:13:55	21:19:41	343282	63d3a3629d0b9452d3f32c7e	3	1	main_slash	7	advance_on_keypress_SLASH	112	stimuli_target_diamondrectangles.svg	stimuli_distractor_trianglediamonds.svg	19	yes	57	0	177	0	0			0	0			1				0	
6.6.1	mac	2023-06-27	21:13:55	21:19:44	346069	63d3a3629d0b9452d3f32c7e	3	1	main_slash	7	main_slash	113	stimuli_distractor_diamondtriangles.svg	stimuli_distractor_diamondtriangles.svg	39	no	0	1	2000	0	0			0	0			1				0	
6.6.1	mac	2023-06-27	21:13:55	21:19:44	346069	63d3a3629d0b9452d3f32c7e	3	1	main_slash	7	advance_on_keypress_SLASH	114	stimuli_distractor_diamondtriangles.svg	stimuli_distractor_diamondtriangles.svg	39	no	57	0	272	0	0			0	0			1				0	
6.6.1	mac	2023-06-27	21:13:55	21:19:46	347778	63d3a3629d0b9452d3f32c7e	3	1	main_slash	7	main_slash	115	stimuli_distractor_diamondtriangles.svg	stimuli_target_diamondrectangles.svg	31	yes	53	1	806	0	0			0	0			1				0	
6.6.1	mac	2023-06-27	21:13:55	21:19:46	347778	63d3a3629d0b9452d3f32c7e	3	1	main_slash	7	advance_on_keypress_SLASH	116	stimuli_distractor_diamondtriangles.svg	stimuli_target_diamondrectangles.svg	31	yes	57	0	252	0	0			0	0			1				0	
6.6.1	mac	2023-06-27	21:13:55	21:19:49	350654	63d3a3629d0b9452d3f32c7e	3	1	main_slash	7	main_slash	117	stimuli_target_trianglerectangles.svg	stimuli_distractor_trianglediamonds.svg	17	yes	0	0	2000	0	0			0	0			1				0	
6.6.1	mac	2023-06-27	21:13:55	21:19:49	350654	63d3a3629d0b9452d3f32c7e	3	1	main_slash	7	advance_on_keypress_SLASH	118	stimuli_target_trianglerectangles.svg	stimuli_distractor_trianglediamonds.svg	17	yes	57	0	313	0	0			0	0			1				0	
6.6.1	mac	2023-06-27	21:13:55	21:19:51	352650	63d3a3629d0b9452d3f32c7e	3	1	main_slash	7	main_slash	119	stimuli_target_trianglesquares.svg	stimuli_distractor_trianglediamonds.svg	18	yes	53	1	1043	0	0			0	0			1				0	
6.6.1	mac	2023-06-27	21:13:55	21:19:51	352650	63d3a3629d0b9452d3f32c7e	3	1	main_slash	7	advance_on_keypress_SLASH	120	stimuli_target_trianglesquares.svg	stimuli_distractor_trianglediamonds.svg	18	yes	57	0	186	0	0			0	0			1				0	
6.6.1	mac	2023-06-27	21:13:55	21:19:53	354586	63d3a3629d0b9452d3f32c7e	3	1	main_slash	7	main_slash	121	stimuli_distractor_trianglediamonds.svg	stimuli_target_trianglesquares.svg	26	yes	53	1	1129	0	0			0	0			1				0	
6.6.1	mac	2023-06-27	21:13:55	21:19:53	354586	63d3a3629d0b9452d3f32c7e	3	1	main_slash	7	advance_on_keypress_SLASH	122	stimuli_distractor_trianglediamonds.svg	stimuli_target_trianglesquares.svg	26	yes	57	0	170	0	0			0	0			1				0	
6.6.1	mac	2023-06-27	21:13:55	21:19:54	356306	63d3a3629d0b9452d3f32c7e	3	1	main_slash	7	main_slash	123	stimuli_target_squarediamonds.svg	stimuli_distractor_diamondtriangles.svg	8	yes	53	1	915	0	0			0	0			1				0	
6.6.1	mac	2023-06-27	21:13:55	21:19:54	356306	63d3a3629d0b9452d3f32c7e	3	1	main_slash	7	advance_on_keypress_SLASH	124	stimuli_target_squarediamonds.svg	stimuli_distractor_diamondtriangles.svg	8	yes	57	0	150	0	0			0	0			1				0	
6.6.1	mac	2023-06-27	21:13:55	21:19:56	358026	63d3a3629d0b9452d3f32c7e	3	1	main_slash	7	main_slash	125	stimuli_distractor_diamondtriangles.svg	stimuli_target_diamondsquares.svg	32	yes	53	1	936	0	0			0	0			1				0	
6.6.1	mac	2023-06-27	21:13:55	21:19:56	358026	63d3a3629d0b9452d3f32c7e	3	1	main_slash	7	advance_on_keypress_SLASH	126	stimuli_distractor_diamondtriangles.svg	stimuli_target_diamondsquares.svg	32	yes	57	0	161	0	0			0	0			1				0	
6.6.1	mac	2023-06-27	21:13:55	21:19:58	359810	63d3a3629d0b9452d3f32c7e	3	1	main_slash	7	main_slash	127	stimuli_distractor_trianglediamonds.svg	stimuli_target_squarediamonds.svg	12	yes	53	1	1003	0	0			0	0			1				0	
6.6.1	mac	2023-06-27	21:13:55	21:19:58	359810	63d3a3629d0b9452d3f32c7e	3	1	main_slash	7	advance_on_keypress_SLASH	128	stimuli_distractor_trianglediamonds.svg	stimuli_target_squarediamonds.svg	12	yes	57	0	154	0	0			0	0			1				0	
6.6.1	mac	2023-06-27	21:13:55	21:20:00	361850	63d3a3629d0b9452d3f32c7e	3	1	main_slash	7	main_slash	129	stimuli_target_trianglesquares.svg	stimuli_distractor_diamondtriangles.svg	22	yes	53	1	1259	0	0			0	0			1				0	
6.6.1	mac	2023-06-27	21:13:55	21:20:00	361850	63d3a3629d0b9452d3f32c7e	3	1	main_slash	7	advance_on_keypress_SLASH	130	stimuli_target_trianglesquares.svg	stimuli_distractor_diamondtriangles.svg	22	yes	57	0	160	0	0			0	0			1				0	
6.6.1	mac	2023-06-27	21:13:55	21:20:03	364621	63d3a3629d0b9452d3f32c7e	3	1	main_slash	7	main_slash	131	stimuli_distractor_diamondtriangles.svg	stimuli_target_rectangletriangles.svg	13	yes	0	0	2000	0	0			0	0			1				0	
6.6.1	mac	2023-06-27	21:13:55	21:20:03	364621	63d3a3629d0b9452d3f32c7e	3	1	main_slash	7	advance_on_keypress_SLASH	132	stimuli_distractor_diamondtriangles.svg	stimuli_target_rectangletriangles.svg	13	yes	57	0	520	0	0			0	0			1				0	
6.6.1	mac	2023-06-27	21:13:55	21:20:06	367773	63d3a3629d0b9452d3f32c7e	3	1	main_slash	7	main_slash	133	stimuli_distractor_diamondtriangles.svg	stimuli_distractor_diamondtriangles.svg	40	no	0	1	2000	0	0			0	0			1				0	
6.6.1	mac	2023-06-27	21:13:55	21:20:06	367773	63d3a3629d0b9452d3f32c7e	3	1	main_slash	7	advance_on_keypress_SLASH	134	stimuli_distractor_diamondtriangles.svg	stimuli_distractor_diamondtriangles.svg	40	no	57	0	265	0	0			0	0			1				0	
6.6.1	mac	2023-06-27	21:13:55	21:20:08	369522	63d3a3629d0b9452d3f32c7e	3	1	main_slash	7	main_slash	135	stimuli_distractor_diamondtriangles.svg	stimuli_target_trianglesquares.svg	30	yes	53	1	846	0	0			0	0			1				0	
6.6.1	mac	2023-06-27	21:13:55	21:20:08	369522	63d3a3629d0b9452d3f32c7e	3	1	main_slash	7	advance_on_keypress_SLASH	136	stimuli_distractor_diamondtriangles.svg	stimuli_target_trianglesquares.svg	30	yes	57	0	171	0	0			0	0			1				0	
6.6.1	mac	2023-06-27	21:13:55	21:20:09	371146	63d3a3629d0b9452d3f32c7e	3	1	main_slash	7	main_slash	137	stimuli_target_diamondrectangles.svg	stimuli_distractor_diamondtriangles.svg	23	yes	53	1	821	0	0			0	0			1				0	
6.6.1	mac	2023-06-27	21:13:55	21:20:09	371146	63d3a3629d0b9452d3f32c7e	3	1	main_slash	7	advance_on_keypress_SLASH	138	stimuli_target_diamondrectangles.svg	stimuli_distractor_diamondtriangles.svg	23	yes	57	0	140	0	0			0	0			1				0	
6.6.1	mac	2023-06-27	21:13:55	21:20:11	372650	63d3a3629d0b9452d3f32c7e	3	1	main_slash	7	main_slash	139	stimuli_distractor_diamondtriangles.svg	stimuli_target_squarediamonds.svg	16	yes	53	1	741	0	0			0	0			1				0	
6.6.1	mac	2023-06-27	21:13:55	21:20:11	372650	63d3a3629d0b9452d3f32c7e	3	1	main_slash	7	advance_on_keypress_SLASH	140	stimuli_distractor_diamondtriangles.svg	stimuli_target_squarediamonds.svg	16	yes	57	0	166	0	0			0	0			1				0	
6.6.1	mac	2023-06-27	21:13:55	21:20:12	374266	63d3a3629d0b9452d3f32c7e	3	1	main_slash	7	main_slash	141	stimuli_distractor_trianglediamonds.svg	stimuli_target_diamondsquares.svg	28	yes	53	1	824	0	0			0	0			1				0	
6.6.1	mac	2023-06-27	21:13:55	21:20:12	374266	63d3a3629d0b9452d3f32c7e	3	1	main_slash	7	advance_on_keypress_SLASH	142	stimuli_distractor_trianglediamonds.svg	stimuli_target_diamondsquares.svg	28	yes	57	0	142	0	0			0	0			1				0	
6.6.1	mac	2023-06-27	21:13:55	21:20:15	377023	63d3a3629d0b9452d3f32c7e	3	1	main_slash	7	main_slash	143	stimuli_distractor_trianglediamonds.svg	stimuli_distractor_trianglediamonds.svg	34	no	0	1	2000	0	0			0	0			1				0	
6.6.1	mac	2023-06-27	21:13:55	21:20:15	377023	63d3a3629d0b9452d3f32c7e	3	1	main_slash	7	advance_on_keypress_SLASH	144	stimuli_distractor_trianglediamonds.svg	stimuli_distractor_trianglediamonds.svg	34	no	57	0	351	0	0			0	0			1				0	
6.6.1	mac	2023-06-27	21:13:55	21:20:18	380007	63d3a3629d0b9452d3f32c7e	3	1	main_slash	7	main_slash	145	stimuli_distractor_diamondtriangles.svg	stimuli_distractor_trianglediamonds.svg	37	no	0	1	2000	0	0			0	0			1				0	
6.6.1	mac	2023-06-27	21:13:55	21:20:18	380007	63d3a3629d0b9452d3f32c7e	3	1	main_slash	7	advance_on_keypress_SLASH	146	stimuli_distractor_diamondtriangles.svg	stimuli_distractor_trianglediamonds.svg	37	no	57	0	287	0	0			0	0			1				0	
6.6.1	mac	2023-06-27	21:13:55	21:20:21	382924	63d3a3629d0b9452d3f32c7e	3	1	main_slash	7	main_slash	147	stimuli_distractor_trianglediamonds.svg	stimuli_distractor_diamondtriangles.svg	36	no	0	1	2000	0	0			0	0			1				0	
6.6.1	mac	2023-06-27	21:13:55	21:20:21	382924	63d3a3629d0b9452d3f32c7e	3	1	main_slash	7	advance_on_keypress_SLASH	148	stimuli_distractor_trianglediamonds.svg	stimuli_distractor_diamondtriangles.svg	36	no	57	0	289	0	0			0	0			1				0	
6.6.1	mac	2023-06-27	21:13:55	21:20:23	384594	63d3a3629d0b9452d3f32c7e	3	1	main_slash	7	main_slash	149	stimuli_target_rectanglediamonds.svg	stimuli_distractor_diamondtriangles.svg	6	yes	53	1	750	0	0			0	0			1				0	
6.6.1	mac	2023-06-27	21:13:55	21:20:23	384594	63d3a3629d0b9452d3f32c7e	3	1	main_slash	7	advance_on_keypress_SLASH	150	stimuli_target_rectanglediamonds.svg	stimuli_distractor_diamondtriangles.svg	6	yes	57	0	199	0	0			0	0			1				0	
6.6.1	mac	2023-06-27	21:13:55	21:20:24	386250	63d3a3629d0b9452d3f32c7e	3	1	main_slash	7	main_slash	151	stimuli_target_diamondsquares.svg	stimuli_distractor_diamondtriangles.svg	24	yes	53	1	822	0	0			0	0			1				0	
6.6.1	mac	2023-06-27	21:13:55	21:20:24	386250	63d3a3629d0b9452d3f32c7e	3	1	main_slash	7	advance_on_keypress_SLASH	152	stimuli_target_diamondsquares.svg	stimuli_distractor_diamondtriangles.svg	24	yes	57	0	206	0	0			0	0			1				0	
6.6.1	mac	2023-06-27	21:13:55	21:20:26	387818	63d3a3629d0b9452d3f32c7e	3	1	main_slash	7	main_slash	153	stimuli_target_squaretriangles.svg	stimuli_distractor_diamondtriangles.svg	7	yes	53	1	740	0	0			0	0			1				0	
6.6.1	mac	2023-06-27	21:13:55	21:20:26	387818	63d3a3629d0b9452d3f32c7e	3	1	main_slash	7	advance_on_keypress_SLASH	154	stimuli_target_squaretriangles.svg	stimuli_distractor_diamondtriangles.svg	7	yes	57	0	191	0	0			0	0			1				0	
6.6.1	mac	2023-06-27	21:13:55	21:20:27	389338	63d3a3629d0b9452d3f32c7e	3	1	main_slash	7	main_slash	155	stimuli_target_rectangletriangles.svg	stimuli_distractor_trianglediamonds.svg	1	yes	53	1	710	0	0			0	0			1				0	
6.6.1	mac	2023-06-27	21:13:55	21:20:27	389338	63d3a3629d0b9452d3f32c7e	3	1	main_slash	7	advance_on_keypress_SLASH	156	stimuli_target_rectangletriangles.svg	stimuli_distractor_trianglediamonds.svg	1	yes	57	0	178	0	0			0	0			1				0	
6.6.1	mac	2023-06-27	21:13:55	21:20:30	392125	63d3a3629d0b9452d3f32c7e	3	1	main_slash	7	main_slash	157	stimuli_distractor_diamondtriangles.svg	stimuli_distractor_trianglediamonds.svg	38	no	0	1	2000	0	0			0	0			1				0	
6.6.1	mac	2023-06-27	21:13:55	21:20:30	392125	63d3a3629d0b9452d3f32c7e	3	1	main_slash	7	advance_on_keypress_SLASH	158	stimuli_distractor_diamondtriangles.svg	stimuli_distractor_trianglediamonds.svg	38	no	57	0	169	0	0			0	0			1				0	
6.6.1	mac	2023-06-27	21:13:55	21:20:32	393674	63d3a3629d0b9452d3f32c7e	3	1	main_slash	7	main_slash	159	stimuli_distractor_trianglediamonds.svg	stimuli_target_rectanglediamonds.svg	10	yes	53	1	745	0	0			0	0			1				0	
6.6.1	mac	2023-06-27	21:13:55	21:20:32	393674	63d3a3629d0b9452d3f32c7e	3	1	main_slash	7	advance_on_keypress_SLASH	160	stimuli_distractor_trianglediamonds.svg	stimuli_target_rectanglediamonds.svg	10	yes	57	0	202	0	0			0	0			1				0	
6.6.1	mac	2023-06-27	21:13:55	21:20:52	413712	63d3a3629d0b9452d3f32c7e	3	1	practice_z	9	practice_z	1	stimuli_distractor_diamondtriangles.svg	stimuli_distractor_trianglediamonds.svg	14	no	0	1	2000	0	0			0	0			1				0	
6.6.1	mac	2023-06-27	21:13:55	21:20:52	413712	63d3a3629d0b9452d3f32c7e	3	1	practice_z	9	advance_on_keypress_ZEE	2	stimuli_distractor_diamondtriangles.svg	stimuli_distractor_trianglediamonds.svg	14	no	57	0	438	0	0			0	0			1				0	
6.6.1	mac	2023-06-27	21:13:55	21:20:56	417778	63d3a3629d0b9452d3f32c7e	3	1	practice_z	9	practice_z	3	stimuli_distractor_trianglediamonds.svg	stimuli_distractor_diamondtriangles.svg	16	no	0	1	2000	0	0			0	0			1				0	
6.6.1	mac	2023-06-27	21:13:55	21:20:56	417778	63d3a3629d0b9452d3f32c7e	3	1	practice_z	9	advance_on_keypress_ZEE	4	stimuli_distractor_trianglediamonds.svg	stimuli_distractor_diamondtriangles.svg	16	no	57	0	275	0	0			0	0			1				0	
6.6.1	mac	2023-06-27	21:13:55	21:20:59	420386	63d3a3629d0b9452d3f32c7e	3	1	practice_z	9	practice_z	5	stimuli_distractor_trianglediamonds.svg	stimuli_target_squarediamonds.svg	11	yes	44	1	704	0	0			0	0			1				0	
6.6.1	mac	2023-06-27	21:13:55	21:20:59	420386	63d3a3629d0b9452d3f32c7e	3	1	practice_z	9	advance_on_keypress_ZEE	6	stimuli_distractor_trianglediamonds.svg	stimuli_target_squarediamonds.svg	11	yes	57	0	299	0	0			0	0			1				0	
6.6.1	mac	2023-06-27	21:13:55	21:21:01	423162	63d3a3629d0b9452d3f32c7e	3	1	practice_z	9	practice_z	7	stimuli_distractor_diamondtriangles.svg	stimuli_distractor_diamondtriangles.svg	13	no	44	0	846	0	0			0	0			1				0	
6.6.1	mac	2023-06-27	21:13:55	21:21:01	423162	63d3a3629d0b9452d3f32c7e	3	1	practice_z	9	advance_on_keypress_ZEE	8	stimuli_distractor_diamondtriangles.svg	stimuli_distractor_diamondtriangles.svg	13	no	57	0	571	0	0			0	0			1				0	
6.6.1	mac	2023-06-27	21:13:55	21:21:04	426226	63d3a3629d0b9452d3f32c7e	3	1	practice_z	9	practice_z	9	stimuli_target_rectanglediamonds.svg	stimuli_distractor_diamondtriangles.svg	1	yes	44	1	860	0	0			0	0			1				0	
6.6.1	mac	2023-06-27	21:13:55	21:21:04	426226	63d3a3629d0b9452d3f32c7e	3	1	practice_z	9	advance_on_keypress_ZEE	10	stimuli_target_rectanglediamonds.svg	stimuli_distractor_diamondtriangles.svg	1	yes	57	0	458	0	0			0	0			1				0	
6.6.1	mac	2023-06-27	21:13:55	21:21:07	429074	63d3a3629d0b9452d3f32c7e	3	1	practice_z	9	practice_z	11	stimuli_distractor_diamondtriangles.svg	stimuli_target_diamondrectangles.svg	8	yes	44	1	774	0	0			0	0			1				0	
6.6.1	mac	2023-06-27	21:13:55	21:21:07	429074	63d3a3629d0b9452d3f32c7e	3	1	practice_z	9	advance_on_keypress_ZEE	12	stimuli_distractor_diamondtriangles.svg	stimuli_target_diamondrectangles.svg	8	yes	57	0	232	0	0			0	0			1				0	
6.6.1	mac	2023-06-27	21:13:55	21:21:10	431618	63d3a3629d0b9452d3f32c7e	3	1	practice_z	9	practice_z	13	stimuli_target_rectanglediamonds.svg	stimuli_distractor_trianglediamonds.svg	4	yes	44	1	685	0	0			0	0			1				0	
6.6.1	mac	2023-06-27	21:13:55	21:21:10	431618	63d3a3629d0b9452d3f32c7e	3	1	practice_z	9	advance_on_keypress_ZEE	14	stimuli_target_rectanglediamonds.svg	stimuli_distractor_trianglediamonds.svg	4	yes	57	0	256	0	0			0	0			1				0	
6.6.1	mac	2023-06-27	21:13:55	21:21:12	434146	63d3a3629d0b9452d3f32c7e	3	1	practice_z	9	practice_z	15	stimuli_distractor_diamondtriangles.svg	stimuli_target_trianglerectangles.svg	9	yes	44	1	646	0	0			0	0			1				0	
6.6.1	mac	2023-06-27	21:13:55	21:21:12	434146	63d3a3629d0b9452d3f32c7e	3	1	practice_z	9	advance_on_keypress_ZEE	16	stimuli_distractor_diamondtriangles.svg	stimuli_target_trianglerectangles.svg	9	yes	57	0	322	0	0			0	0			1				0	
6.6.1	mac	2023-06-27	21:13:55	21:21:15	436770	63d3a3629d0b9452d3f32c7e	3	1	practice_z	9	practice_z	17	stimuli_target_squarediamonds.svg	stimuli_distractor_trianglediamonds.svg	5	yes	44	1	670	0	0			0	0			1				0	
6.6.1	mac	2023-06-27	21:13:55	21:21:15	436770	63d3a3629d0b9452d3f32c7e	3	1	practice_z	9	advance_on_keypress_ZEE	18	stimuli_target_squarediamonds.svg	stimuli_distractor_trianglediamonds.svg	5	yes	57	0	258	0	0			0	0			1				0	
6.6.1	mac	2023-06-27	21:13:55	21:21:18	439442	63d3a3629d0b9452d3f32c7e	3	1	practice_z	9	practice_z	19	stimuli_target_squarediamonds.svg	stimuli_distractor_diamondtriangles.svg	2	yes	44	1	792	0	0			0	0			1				0	
6.6.1	mac	2023-06-27	21:13:55	21:21:18	439442	63d3a3629d0b9452d3f32c7e	3	1	practice_z	9	advance_on_keypress_ZEE	20	stimuli_target_squarediamonds.svg	stimuli_distractor_diamondtriangles.svg	2	yes	57	0	447	0	0			0	0			1				0	
6.6.1	mac	2023-06-27	21:13:55	21:21:20	442162	63d3a3629d0b9452d3f32c7e	3	1	practice_z	9	practice_z	21	stimuli_distractor_trianglediamonds.svg	stimuli_target_diamondrectangles.svg	12	yes	44	1	644	0	0			0	0			1				0	
6.6.1	mac	2023-06-27	21:13:55	21:21:20	442162	63d3a3629d0b9452d3f32c7e	3	1	practice_z	9	advance_on_keypress_ZEE	22	stimuli_distractor_trianglediamonds.svg	stimuli_target_diamondrectangles.svg	12	yes	57	0	274	0	0			0	0			1				0	
6.6.1	mac	2023-06-27	21:13:55	21:21:23	444874	63d3a3629d0b9452d3f32c7e	3	1	practice_z	9	practice_z	23	stimuli_target_diamondsquares.svg	stimuli_distractor_diamondtriangles.svg	3	yes	44	1	823	0	0			0	0			1				0	
6.6.1	mac	2023-06-27	21:13:55	21:21:23	444874	63d3a3629d0b9452d3f32c7e	3	1	practice_z	9	advance_on_keypress_ZEE	24	stimuli_target_diamondsquares.svg	stimuli_distractor_diamondtriangles.svg	3	yes	57	0	286	0	0			0	0			1				0	
6.6.1	mac	2023-06-27	21:13:55	21:21:27	448783	63d3a3629d0b9452d3f32c7e	3	1	practice_z	9	practice_z	25	stimuli_distractor_trianglediamonds.svg	stimuli_distractor_trianglediamonds.svg	15	no	0	1	2000	0	0			0	0			1				0	
6.6.1	mac	2023-06-27	21:13:55	21:21:27	448783	63d3a3629d0b9452d3f32c7e	3	1	practice_z	9	advance_on_keypress_ZEE	26	stimuli_distractor_trianglediamonds.svg	stimuli_distractor_trianglediamonds.svg	15	no	57	0	463	0	0			0	0			1				0	
6.6.1	mac	2023-06-27	21:13:55	21:21:30	451554	63d3a3629d0b9452d3f32c7e	3	1	practice_z	9	practice_z	27	stimuli_distractor_trianglediamonds.svg	stimuli_target_rectanglediamonds.svg	10	yes	44	1	669	0	0			0	0			1				0	
6.6.1	mac	2023-06-27	21:13:55	21:21:30	451554	63d3a3629d0b9452d3f32c7e	3	1	practice_z	9	advance_on_keypress_ZEE	28	stimuli_distractor_trianglediamonds.svg	stimuli_target_rectanglediamonds.svg	10	yes	57	0	376	0	0			0	0			1				0	
6.6.1	mac	2023-06-27	21:13:55	21:21:32	454114	63d3a3629d0b9452d3f32c7e	3	1	practice_z	9	practice_z	29	stimuli_target_diamondsquares.svg	stimuli_distractor_trianglediamonds.svg	6	yes	44	1	562	0	0			0	0			1				0	
6.6.1	mac	2023-06-27	21:13:55	21:21:32	454114	63d3a3629d0b9452d3f32c7e	3	1	practice_z	9	advance_on_keypress_ZEE	30	stimuli_target_diamondsquares.svg	stimuli_distractor_trianglediamonds.svg	6	yes	57	0	345	0	0			0	0			1				0	
6.6.1	mac	2023-06-27	21:13:55	21:21:35	456730	63d3a3629d0b9452d3f32c7e	3	1	practice_z	9	practice_z	31	stimuli_distractor_diamondtriangles.svg	stimuli_target_rectangletriangles.svg	7	yes	44	1	627	0	0			0	0			1				0	
6.6.1	mac	2023-06-27	21:13:55	21:21:35	456730	63d3a3629d0b9452d3f32c7e	3	1	practice_z	9	advance_on_keypress_ZEE	32	stimuli_distractor_diamondtriangles.svg	stimuli_target_rectangletriangles.svg	7	yes	57	0	377	0	0			0	0			1				0	
6.6.1	mac	2023-06-27	21:13:55	21:21:38	459794	63d3a3629d0b9452d3f32c7e	3	1	main_z	11	main_z	1	stimuli_distractor_diamondtriangles.svg	stimuli_target_trianglerectangles.svg	29	yes	44	1	641	0	0			0	0			1				0	
6.6.1	mac	2023-06-27	21:13:55	21:21:38	459794	63d3a3629d0b9452d3f32c7e	3	1	main_z	11	advance_on_keypress_ZEE	2	stimuli_distractor_diamondtriangles.svg	stimuli_target_trianglerectangles.svg	29	yes	57	0	1439	0	0			0	0			1				0	
6.6.1	mac	2023-06-27	21:13:55	21:21:42	463851	63d3a3629d0b9452d3f32c7e	3	1	main_z	11	main_z	3	stimuli_distractor_diamondtriangles.svg	stimuli_distractor_diamondtriangles.svg	39	no	0	1	2000	0	0			0	0			1				0	
6.6.1	mac	2023-06-27	21:13:55	21:21:42	463851	63d3a3629d0b9452d3f32c7e	3	1	main_z	11	advance_on_keypress_ZEE	4	stimuli_distractor_diamondtriangles.svg	stimuli_distractor_diamondtriangles.svg	39	no	57	0	259	0	0			0	0			1				0	
6.6.1	mac	2023-06-27	21:13:55	21:21:43	465250	63d3a3629d0b9452d3f32c7e	3	1	main_z	11	main_z	5	stimuli_distractor_trianglediamonds.svg	stimuli_target_squarediamonds.svg	12	yes	44	1	513	0	0			0	0			1				0	
6.6.1	mac	2023-06-27	21:13:55	21:21:43	465250	63d3a3629d0b9452d3f32c7e	3	1	main_z	11	advance_on_keypress_ZEE	6	stimuli_distractor_trianglediamonds.svg	stimuli_target_squarediamonds.svg	12	yes	57	0	603	0	0			0	0			1				0	
6.6.1	mac	2023-06-27	21:13:55	21:21:45	467090	63d3a3629d0b9452d3f32c7e	3	1	main_z	11	main_z	7	stimuli_target_rectanglediamonds.svg	stimuli_distractor_diamondtriangles.svg	6	yes	44	1	603	0	0			0	0			1				0	
6.6.1	mac	2023-06-27	21:13:55	21:21:45	467090	63d3a3629d0b9452d3f32c7e	3	1	main_z	11	advance_on_keypress_ZEE	8	stimuli_target_rectanglediamonds.svg	stimuli_distractor_diamondtriangles.svg	6	yes	57	0	169	0	0			0	0			1				0	
6.6.1	mac	2023-06-27	21:13:55	21:21:47	468402	63d3a3629d0b9452d3f32c7e	3	1	main_z	11	main_z	9	stimuli_target_diamondrectangles.svg	stimuli_distractor_trianglediamonds.svg	19	yes	44	1	515	0	0			0	0			1				0	
6.6.1	mac	2023-06-27	21:13:55	21:21:47	468402	63d3a3629d0b9452d3f32c7e	3	1	main_z	11	advance_on_keypress_ZEE	10	stimuli_target_diamondrectangles.svg	stimuli_distractor_trianglediamonds.svg	19	yes	57	0	109	0	0			0	0			1				0	
6.6.1	mac	2023-06-27	21:13:55	21:21:49	471134	63d3a3629d0b9452d3f32c7e	3	1	main_z	11	main_z	11	stimuli_distractor_trianglediamonds.svg	stimuli_distractor_diamondtriangles.svg	36	no	0	1	2000	0	0			0	0			1				0	
6.6.1	mac	2023-06-27	21:13:55	21:21:49	471134	63d3a3629d0b9452d3f32c7e	3	1	main_z	11	advance_on_keypress_ZEE	12	stimuli_distractor_trianglediamonds.svg	stimuli_distractor_diamondtriangles.svg	36	no	57	0	399	0	0			0	0			1				0	
6.6.1	mac	2023-06-27	21:13:55	21:21:51	472697	63d3a3629d0b9452d3f32c7e	3	1	main_z	11	main_z	13	stimuli_target_diamondrectangles.svg	stimuli_distractor_diamondtriangles.svg	23	yes	44	1	526	0	0			0	0			1				0	
6.6.1	mac	2023-06-27	21:13:55	21:21:51	472697	63d3a3629d0b9452d3f32c7e	3	1	main_z	11	advance_on_keypress_ZEE	14	stimuli_target_diamondrectangles.svg	stimuli_distractor_diamondtriangles.svg	23	yes	57	0	96	0	0			0	0			1				0	
6.6.1	mac	2023-06-27	21:13:55	21:21:52	473938	63d3a3629d0b9452d3f32c7e	3	1	main_z	11	main_z	15	stimuli_target_trianglerectangles.svg	stimuli_distractor_trianglediamonds.svg	17	yes	44	1	517	0	0			0	0			1				0	
6.6.1	mac	2023-06-27	21:13:55	21:21:52	473938	63d3a3629d0b9452d3f32c7e	3	1	main_z	11	advance_on_keypress_ZEE	16	stimuli_target_trianglerectangles.svg	stimuli_distractor_trianglediamonds.svg	17	yes	57	0	118	0	0			0	0			1				0	
6.6.1	mac	2023-06-27	21:13:55	21:21:55	476686	63d3a3629d0b9452d3f32c7e	3	1	main_z	11	main_z	17	stimuli_distractor_diamondtriangles.svg	stimuli_distractor_diamondtriangles.svg	40	no	0	1	2000	0	0			0	0			1				0	
6.6.1	mac	2023-06-27	21:13:55	21:21:55	476686	63d3a3629d0b9452d3f32c7e	3	1	main_z	11	advance_on_keypress_ZEE	18	stimuli_distractor_diamondtriangles.svg	stimuli_distractor_diamondtriangles.svg	40	no	57	0	465	0	0			0	0			1				0	
6.6.1	mac	2023-06-27	21:13:55	21:21:57	478394	63d3a3629d0b9452d3f32c7e	3	1	main_z	11	main_z	19	stimuli_target_squarediamonds.svg	stimuli_distractor_trianglediamonds.svg	4	yes	44	1	605	0	0			0	0			1				0	
6.6.1	mac	2023-06-27	21:13:55	21:21:57	478394	63d3a3629d0b9452d3f32c7e	3	1	main_z	11	advance_on_keypress_ZEE	20	stimuli_target_squarediamonds.svg	stimuli_distractor_trianglediamonds.svg	4	yes	57	0	99	0	0			0	0			1				0	
6.6.1	mac	2023-06-27	21:13:55	21:21:58	479538	63d3a3629d0b9452d3f32c7e	3	1	main_z	11	main_z	21	stimuli_distractor_diamondtriangles.svg	stimuli_target_diamondsquares.svg	32	yes	44	1	415	0	0			0	0			1				0	
6.6.1	mac	2023-06-27	21:13:55	21:21:58	479538	63d3a3629d0b9452d3f32c7e	3	1	main_z	11	advance_on_keypress_ZEE	22	stimuli_distractor_diamondtriangles.svg	stimuli_target_diamondsquares.svg	32	yes	57	0	125	0	0			0	0			1				0	
6.6.1	mac	2023-06-27	21:13:55	21:21:59	480650	63d3a3629d0b9452d3f32c7e	3	1	main_z	11	main_z	23	stimuli_target_squarediamonds.svg	stimuli_distractor_diamondtriangles.svg	8	yes	44	1	360	0	0			0	0			1				0	
6.6.1	mac	2023-06-27	21:13:55	21:21:59	480650	63d3a3629d0b9452d3f32c7e	3	1	main_z	11	advance_on_keypress_ZEE	24	stimuli_target_squarediamonds.svg	stimuli_distractor_diamondtriangles.svg	8	yes	57	0	154	0	0			0	0			1				0	
6.6.1	mac	2023-06-27	21:13:55	21:22:00	481850	63d3a3629d0b9452d3f32c7e	3	1	main_z	11	main_z	25	stimuli_distractor_trianglediamonds.svg	stimuli_target_rectangletriangles.svg	9	yes	44	1	427	0	0			0	0			1				0	
6.6.1	mac	2023-06-27	21:13:55	21:22:00	481850	63d3a3629d0b9452d3f32c7e	3	1	main_z	11	advance_on_keypress_ZEE	26	stimuli_distractor_trianglediamonds.svg	stimuli_target_rectangletriangles.svg	9	yes	57	0	193	0	0			0	0			1				0	
6.6.1	mac	2023-06-27	21:13:55	21:22:01	483210	63d3a3629d0b9452d3f32c7e	3	1	main_z	11	main_z	27	stimuli_target_diamondsquares.svg	stimuli_distractor_diamondtriangles.svg	24	yes	44	1	537	0	0			0	0			1				0	
6.6.1	mac	2023-06-27	21:13:55	21:22:01	483210	63d3a3629d0b9452d3f32c7e	3	1	main_z	11	advance_on_keypress_ZEE	28	stimuli_target_diamondsquares.svg	stimuli_distractor_diamondtriangles.svg	24	yes	57	0	106	0	0			0	0			1				0	
6.6.1	mac	2023-06-27	21:13:55	21:22:04	485954	63d3a3629d0b9452d3f32c7e	3	1	main_z	11	main_z	29	stimuli_distractor_diamondtriangles.svg	stimuli_distractor_trianglediamonds.svg	38	no	0	1	2000	0	0			0	0			1				0	
6.6.1	mac	2023-06-27	21:13:55	21:22:04	485954	63d3a3629d0b9452d3f32c7e	3	1	main_z	11	advance_on_keypress_ZEE	30	stimuli_distractor_diamondtriangles.svg	stimuli_distractor_trianglediamonds.svg	38	no	57	0	300	0	0			0	0			1				0	
6.6.1	mac	2023-06-27	21:13:55	21:22:06	487466	63d3a3629d0b9452d3f32c7e	3	1	main_z	11	main_z	31	stimuli_target_trianglesquares.svg	stimuli_distractor_diamondtriangles.svg	22	yes	44	1	576	0	0			0	0			1				0	
6.6.1	mac	2023-06-27	21:13:55	21:22:06	487466	63d3a3629d0b9452d3f32c7e	3	1	main_z	11	advance_on_keypress_ZEE	32	stimuli_target_trianglesquares.svg	stimuli_distractor_diamondtriangles.svg	22	yes	57	0	104	0	0			0	0			1				0	
6.6.1	mac	2023-06-27	21:13:55	21:22:07	488650	63d3a3629d0b9452d3f32c7e	3	1	main_z	11	main_z	33	stimuli_target_squaretriangles.svg	stimuli_distractor_trianglediamonds.svg	3	yes	44	1	443	0	0			0	0			1				0	
6.6.1	mac	2023-06-27	21:13:55	21:22:07	488650	63d3a3629d0b9452d3f32c7e	3	1	main_z	11	advance_on_keypress_ZEE	34	stimuli_target_squaretriangles.svg	stimuli_distractor_trianglediamonds.svg	3	yes	57	0	192	0	0			0	0			1				0	
6.6.1	mac	2023-06-27	21:13:55	21:22:08	489882	63d3a3629d0b9452d3f32c7e	3	1	main_z	11	main_z	35	stimuli_target_rectanglediamonds.svg	stimuli_distractor_trianglediamonds.svg	2	yes	44	1	408	0	0			0	0			1				0	
6.6.1	mac	2023-06-27	21:13:55	21:22:08	489882	63d3a3629d0b9452d3f32c7e	3	1	main_z	11	advance_on_keypress_ZEE	36	stimuli_target_rectanglediamonds.svg	stimuli_distractor_trianglediamonds.svg	2	yes	57	0	127	0	0			0	0			1				0	
6.6.1	mac	2023-06-27	21:13:55	21:22:09	491010	63d3a3629d0b9452d3f32c7e	3	1	main_z	11	main_z	37	stimuli_distractor_diamondtriangles.svg	stimuli_target_rectanglediamonds.svg	14	yes	44	1	369	0	0			0	0			1				0	
6.6.1	mac	2023-06-27	21:13:55	21:22:09	491010	63d3a3629d0b9452d3f32c7e	3	1	main_z	11	advance_on_keypress_ZEE	38	stimuli_distractor_diamondtriangles.svg	stimuli_target_rectanglediamonds.svg	14	yes	57	0	130	0	0			0	0			1				0	
6.6.1	mac	2023-06-27	21:13:55	21:22:10	492250	63d3a3629d0b9452d3f32c7e	3	1	main_z	11	main_z	39	stimuli_target_trianglerectangles.svg	stimuli_distractor_diamondtriangles.svg	21	yes	44	1	476	0	0			0	0			1				0	
6.6.1	mac	2023-06-27	21:13:55	21:22:10	492250	63d3a3629d0b9452d3f32c7e	3	1	main_z	11	advance_on_keypress_ZEE	40	stimuli_target_trianglerectangles.svg	stimuli_distractor_diamondtriangles.svg	21	yes	57	0	128	0	0			0	0			1				0	
6.6.1	mac	2023-06-27	21:13:55	21:22:12	493482	63d3a3629d0b9452d3f32c7e	3	1	main_z	11	main_z	41	stimuli_distractor_diamondtriangles.svg	stimuli_target_trianglesquares.svg	30	yes	44	1	474	0	0			0	0			1				0	
6.6.1	mac	2023-06-27	21:13:55	21:22:12	493482	63d3a3629d0b9452d3f32c7e	3	1	main_z	11	advance_on_keypress_ZEE	42	stimuli_distractor_diamondtriangles.svg	stimuli_target_trianglesquares.svg	30	yes	57	0	136	0	0			0	0			1				0	
6.6.1	mac	2023-06-27	21:13:55	21:22:14	496238	63d3a3629d0b9452d3f32c7e	3	1	main_z	11	main_z	43	stimuli_distractor_diamondtriangles.svg	stimuli_distractor_trianglediamonds.svg	37	no	0	1	2000	0	0			0	0			1				0	
6.6.1	mac	2023-06-27	21:13:55	21:22:14	496238	63d3a3629d0b9452d3f32c7e	3	1	main_z	11	advance_on_keypress_ZEE	44	stimuli_distractor_diamondtriangles.svg	stimuli_distractor_trianglediamonds.svg	37	no	57	0	239	0	0			0	0			1				0	
6.6.1	mac	2023-06-27	21:13:55	21:22:16	497714	63d3a3629d0b9452d3f32c7e	3	1	main_z	11	main_z	45	stimuli_target_rectangletriangles.svg	stimuli_distractor_diamondtriangles.svg	5	yes	44	1	606	0	0			0	0			1				0	
6.6.1	mac	2023-06-27	21:13:55	21:22:16	497714	63d3a3629d0b9452d3f32c7e	3	1	main_z	11	advance_on_keypress_ZEE	46	stimuli_target_rectangletriangles.svg	stimuli_distractor_diamondtriangles.svg	5	yes	57	0	117	0	0			0	0			1				0	
6.6.1	mac	2023-06-27	21:13:55	21:22:17	498954	63d3a3629d0b9452d3f32c7e	3	1	main_z	11	main_z	47	stimuli_distractor_trianglediamonds.svg	stimuli_target_diamondsquares.svg	28	yes	44	1	495	0	0			0	0			1				0	
6.6.1	mac	2023-06-27	21:13:55	21:22:17	498954	63d3a3629d0b9452d3f32c7e	3	1	main_z	11	advance_on_keypress_ZEE	48	stimuli_distractor_trianglediamonds.svg	stimuli_target_diamondsquares.svg	28	yes	57	0	130	0	0			0	0			1				0	
6.6.1	mac	2023-06-27	21:13:55	21:22:20	501723	63d3a3629d0b9452d3f32c7e	3	1	main_z	11	main_z	49	stimuli_distractor_trianglediamonds.svg	stimuli_distractor_trianglediamonds.svg	34	no	0	1	2000	0	0			0	0			1				0	
6.6.1	mac	2023-06-27	21:13:55	21:22:20	501723	63d3a3629d0b9452d3f32c7e	3	1	main_z	11	advance_on_keypress_ZEE	50	stimuli_distractor_trianglediamonds.svg	stimuli_distractor_trianglediamonds.svg	34	no	57	0	243	0	0			0	0			1				0	
6.6.1	mac	2023-06-27	21:13:55	21:22:21	503106	63d3a3629d0b9452d3f32c7e	3	1	main_z	11	main_z	51	stimuli_distractor_diamondtriangles.svg	stimuli_target_diamondrectangles.svg	31	yes	44	1	514	0	0			0	0			1				0	
6.6.1	mac	2023-06-27	21:13:55	21:22:21	503106	63d3a3629d0b9452d3f32c7e	3	1	main_z	11	advance_on_keypress_ZEE	52	stimuli_distractor_diamondtriangles.svg	stimuli_target_diamondrectangles.svg	31	yes	57	0	92	0	0			0	0			1				0	
6.6.1	mac	2023-06-27	21:13:55	21:22:22	504162	63d3a3629d0b9452d3f32c7e	3	1	main_z	11	main_z	53	stimuli_distractor_trianglediamonds.svg	stimuli_target_squaretriangles.svg	11	yes	44	1	337	0	0			0	0			1				0	
6.6.1	mac	2023-06-27	21:13:55	21:22:22	504162	63d3a3629d0b9452d3f32c7e	3	1	main_z	11	advance_on_keypress_ZEE	54	stimuli_distractor_trianglediamonds.svg	stimuli_target_squaretriangles.svg	11	yes	57	0	98	0	0			0	0			1				0	
6.6.1	mac	2023-06-27	21:13:55	21:22:23	505298	63d3a3629d0b9452d3f32c7e	3	1	main_z	11	main_z	55	stimuli_target_diamondsquares.svg	stimuli_distractor_trianglediamonds.svg	20	yes	44	1	405	0	0			0	0			1				0	
6.6.1	mac	2023-06-27	21:13:55	21:22:23	505298	63d3a3629d0b9452d3f32c7e	3	1	main_z	11	advance_on_keypress_ZEE	56	stimuli_target_diamondsquares.svg	stimuli_distractor_trianglediamonds.svg	20	yes	57	0	92	0	0			0	0			1				0	
6.6.1	mac	2023-06-27	21:13:55	21:22:25	506362	63d3a3629d0b9452d3f32c7e	3	1	main_z	11	main_z	57	stimuli_distractor_diamondtriangles.svg	stimuli_target_squarediamonds.svg	16	yes	44	1	337	0	0			0	0			1				0	
6.6.1	mac	2023-06-27	21:13:55	21:22:25	506362	63d3a3629d0b9452d3f32c7e	3	1	main_z	11	advance_on_keypress_ZEE	58	stimuli_distractor_diamondtriangles.svg	stimuli_target_squarediamonds.svg	16	yes	57	0	90	0	0			0	0			1				0	
6.6.1	mac	2023-06-27	21:13:55	21:22:26	507402	63d3a3629d0b9452d3f32c7e	3	1	main_z	11	main_z	59	stimuli_distractor_trianglediamonds.svg	stimuli_target_rectanglediamonds.svg	10	yes	44	1	326	0	0			0	0			1				0	
6.6.1	mac	2023-06-27	21:13:55	21:22:26	507402	63d3a3629d0b9452d3f32c7e	3	1	main_z	11	advance_on_keypress_ZEE	60	stimuli_distractor_trianglediamonds.svg	stimuli_target_rectanglediamonds.svg	10	yes	57	0	96	0	0			0	0			1				0	
6.6.1	mac	2023-06-27	21:13:55	21:22:27	508410	63d3a3629d0b9452d3f32c7e	3	1	main_z	11	main_z	61	stimuli_distractor_diamondtriangles.svg	stimuli_target_rectangletriangles.svg	13	yes	44	1	283	0	0			0	0			1				0	
6.6.1	mac	2023-06-27	21:13:55	21:22:27	508410	63d3a3629d0b9452d3f32c7e	3	1	main_z	11	advance_on_keypress_ZEE	62	stimuli_distractor_diamondtriangles.svg	stimuli_target_rectangletriangles.svg	13	yes	57	0	96	0	0			0	0			1				0	
6.6.1	mac	2023-06-27	21:13:55	21:22:28	509578	63d3a3629d0b9452d3f32c7e	3	1	main_z	11	main_z	63	stimuli_target_trianglesquares.svg	stimuli_distractor_trianglediamonds.svg	18	yes	44	1	435	0	0			0	0			1				0	
6.6.1	mac	2023-06-27	21:13:55	21:22:28	509578	63d3a3629d0b9452d3f32c7e	3	1	main_z	11	advance_on_keypress_ZEE	64	stimuli_target_trianglesquares.svg	stimuli_distractor_trianglediamonds.svg	18	yes	57	0	97	0	0			0	0			1				0	
6.6.1	mac	2023-06-27	21:13:55	21:22:30	512306	63d3a3629d0b9452d3f32c7e	3	1	main_z	11	main_z	65	stimuli_distractor_trianglediamonds.svg	stimuli_distractor_trianglediamonds.svg	33	no	0	1	2000	0	0			0	0			1				0	
6.6.1	mac	2023-06-27	21:13:55	21:22:30	512306	63d3a3629d0b9452d3f32c7e	3	1	main_z	11	advance_on_keypress_ZEE	66	stimuli_distractor_trianglediamonds.svg	stimuli_distractor_trianglediamonds.svg	33	no	57	0	316	0	0			0	0			1				0	
6.6.1	mac	2023-06-27	21:13:55	21:22:32	513938	63d3a3629d0b9452d3f32c7e	3	1	main_z	11	main_z	67	stimuli_distractor_trianglediamonds.svg	stimuli_target_trianglesquares.svg	26	yes	44	1	678	0	0			0	0			1				0	
6.6.1	mac	2023-06-27	21:13:55	21:22:32	513938	63d3a3629d0b9452d3f32c7e	3	1	main_z	11	advance_on_keypress_ZEE	68	stimuli_distractor_trianglediamonds.svg	stimuli_target_trianglesquares.svg	26	yes	57	0	113	0	0			0	0			1				0	
6.6.1	mac	2023-06-27	21:13:55	21:22:33	515026	63d3a3629d0b9452d3f32c7e	3	1	main_z	11	main_z	69	stimuli_target_rectangletriangles.svg	stimuli_distractor_trianglediamonds.svg	1	yes	44	1	332	0	0			0	0			1				0	
6.6.1	mac	2023-06-27	21:13:55	21:22:33	515026	63d3a3629d0b9452d3f32c7e	3	1	main_z	11	advance_on_keypress_ZEE	70	stimuli_target_rectangletriangles.svg	stimuli_distractor_trianglediamonds.svg	1	yes	57	0	126	0	0			0	0			1				0	
6.6.1	mac	2023-06-27	21:13:55	21:22:34	516306	63d3a3629d0b9452d3f32c7e	3	1	main_z	11	main_z	71	stimuli_distractor_trianglediamonds.svg	stimuli_target_diamondrectangles.svg	27	yes	44	1	529	0	0			0	0			1				0	
6.6.1	mac	2023-06-27	21:13:55	21:22:34	516306	63d3a3629d0b9452d3f32c7e	3	1	main_z	11	advance_on_keypress_ZEE	72	stimuli_distractor_trianglediamonds.svg	stimuli_target_diamondrectangles.svg	27	yes	57	0	115	0	0			0	0			1				0	
6.6.1	mac	2023-06-27	21:13:55	21:22:37	519057	63d3a3629d0b9452d3f32c7e	3	1	main_z	11	main_z	73	stimuli_distractor_trianglediamonds.svg	stimuli_distractor_diamondtriangles.svg	35	no	0	1	2000	0	0			0	0			1				0	
6.6.1	mac	2023-06-27	21:13:55	21:22:37	519057	63d3a3629d0b9452d3f32c7e	3	1	main_z	11	advance_on_keypress_ZEE	74	stimuli_distractor_trianglediamonds.svg	stimuli_distractor_diamondtriangles.svg	35	no	57	0	252	0	0			0	0			1				0	
6.6.1	mac	2023-06-27	21:13:55	21:22:39	520370	63d3a3629d0b9452d3f32c7e	3	1	main_z	11	main_z	75	stimuli_target_squaretriangles.svg	stimuli_distractor_diamondtriangles.svg	7	yes	44	1	425	0	0			0	0			1				0	
6.6.1	mac	2023-06-27	21:13:55	21:22:39	520370	63d3a3629d0b9452d3f32c7e	3	1	main_z	11	advance_on_keypress_ZEE	76	stimuli_target_squaretriangles.svg	stimuli_distractor_diamondtriangles.svg	7	yes	57	0	112	0	0			0	0			1				0	
6.6.1	mac	2023-06-27	21:13:55	21:22:40	521505	63d3a3629d0b9452d3f32c7e	3	1	main_z	11	main_z	77	stimuli_distractor_trianglediamonds.svg	stimuli_target_trianglerectangles.svg	25	yes	44	1	395	0	0			0	0			1				0	
6.6.1	mac	2023-06-27	21:13:55	21:22:40	521505	63d3a3629d0b9452d3f32c7e	3	1	main_z	11	advance_on_keypress_ZEE	78	stimuli_distractor_trianglediamonds.svg	stimuli_target_trianglerectangles.svg	25	yes	57	0	114	0	0			0	0			1				0	
6.6.1	mac	2023-06-27	21:13:55	21:22:41	522650	63d3a3629d0b9452d3f32c7e	3	1	main_z	11	main_z	79	stimuli_distractor_diamondtriangles.svg	stimuli_target_squaretriangles.svg	15	yes	44	1	388	0	0			0	0			1				0	
6.6.1	mac	2023-06-27	21:13:55	21:22:41	522650	63d3a3629d0b9452d3f32c7e	3	1	main_z	11	advance_on_keypress_ZEE	80	stimuli_distractor_diamondtriangles.svg	stimuli_target_squaretriangles.svg	15	yes	57	0	116	0	0			0	0			1				0	
6.6.1	mac	2023-06-27	21:13:55	21:22:44	525391	63d3a3629d0b9452d3f32c7e	3	1	main_z	11	main_z	81	stimuli_distractor_diamondtriangles.svg	stimuli_distractor_diamondtriangles.svg	39	no	0	1	2000	0	0			0	0			1				0	
6.6.1	mac	2023-06-27	21:13:55	21:22:44	525391	63d3a3629d0b9452d3f32c7e	3	1	main_z	11	advance_on_keypress_ZEE	82	stimuli_distractor_diamondtriangles.svg	stimuli_distractor_diamondtriangles.svg	39	no	57	0	222	0	0			0	0			1				0	
6.6.1	mac	2023-06-27	21:13:55	21:22:45	526746	63d3a3629d0b9452d3f32c7e	3	1	main_z	11	main_z	83	stimuli_distractor_diamondtriangles.svg	stimuli_target_trianglesquares.svg	30	yes	44	1	501	0	0			0	0			1				0	
6.6.1	mac	2023-06-27	21:13:55	21:22:45	526746	63d3a3629d0b9452d3f32c7e	3	1	main_z	11	advance_on_keypress_ZEE	84	stimuli_distractor_diamondtriangles.svg	stimuli_target_trianglesquares.svg	30	yes	57	0	121	0	0			0	0			1				0	
6.6.1	mac	2023-06-27	21:13:55	21:22:46	527906	63d3a3629d0b9452d3f32c7e	3	1	main_z	11	main_z	85	stimuli_distractor_trianglediamonds.svg	stimuli_target_squarediamonds.svg	12	yes	44	1	410	0	0			0	0			1				0	
6.6.1	mac	2023-06-27	21:13:55	21:22:46	527906	63d3a3629d0b9452d3f32c7e	3	1	main_z	11	advance_on_keypress_ZEE	86	stimuli_distractor_trianglediamonds.svg	stimuli_target_squarediamonds.svg	12	yes	57	0	121	0	0			0	0			1				0	
6.6.1	mac	2023-06-27	21:13:55	21:22:47	529162	63d3a3629d0b9452d3f32c7e	3	1	main_z	11	main_z	87	stimuli_target_trianglerectangles.svg	stimuli_distractor_trianglediamonds.svg	17	yes	44	1	500	0	0			0	0			1				0	
6.6.1	mac	2023-06-27	21:13:55	21:22:47	529162	63d3a3629d0b9452d3f32c7e	3	1	main_z	11	advance_on_keypress_ZEE	88	stimuli_target_trianglerectangles.svg	stimuli_distractor_trianglediamonds.svg	17	yes	57	0	128	0	0			0	0			1				0	
6.6.1	mac	2023-06-27	21:13:55	21:22:48	530306	63d3a3629d0b9452d3f32c7e	3	1	main_z	11	main_z	89	stimuli_target_rectanglediamonds.svg	stimuli_distractor_trianglediamonds.svg	2	yes	44	1	394	0	0			0	0			1				0	
6.6.1	mac	2023-06-27	21:13:55	21:22:48	530306	63d3a3629d0b9452d3f32c7e	3	1	main_z	11	advance_on_keypress_ZEE	90	stimuli_target_rectanglediamonds.svg	stimuli_distractor_trianglediamonds.svg	2	yes	57	0	121	0	0			0	0			1				0	
6.6.1	mac	2023-06-27	21:13:55	21:22:50	531618	63d3a3629d0b9452d3f32c7e	3	1	main_z	11	main_z	91	stimuli_target_diamondrectangles.svg	stimuli_distractor_diamondtriangles.svg	23	yes	44	1	555	0	0			0	0			1				0	
6.6.1	mac	2023-06-27	21:13:55	21:22:50	531618	63d3a3629d0b9452d3f32c7e	3	1	main_z	11	advance_on_keypress_ZEE	92	stimuli_target_diamondrectangles.svg	stimuli_distractor_diamondtriangles.svg	23	yes	57	0	92	0	0			0	0			1				0	
6.6.1	mac	2023-06-27	21:13:55	21:22:52	534342	63d3a3629d0b9452d3f32c7e	3	1	main_z	11	main_z	93	stimuli_distractor_trianglediamonds.svg	stimuli_distractor_diamondtriangles.svg	36	no	0	1	2000	0	0			0	0			1				0	
6.6.1	mac	2023-06-27	21:13:55	21:22:52	534342	63d3a3629d0b9452d3f32c7e	3	1	main_z	11	advance_on_keypress_ZEE	94	stimuli_distractor_trianglediamonds.svg	stimuli_distractor_diamondtriangles.svg	36	no	57	0	271	0	0			0	0			1				0	
6.6.1	mac	2023-06-27	21:13:55	21:22:54	535610	63d3a3629d0b9452d3f32c7e	3	1	main_z	11	main_z	95	stimuli_distractor_trianglediamonds.svg	stimuli_target_diamondsquares.svg	28	yes	44	1	363	0	0			0	0			1				0	
6.6.1	mac	2023-06-27	21:13:55	21:22:54	535610	63d3a3629d0b9452d3f32c7e	3	1	main_z	11	advance_on_keypress_ZEE	96	stimuli_distractor_trianglediamonds.svg	stimuli_target_diamondsquares.svg	28	yes	57	0	92	0	0			0	0			1				0	
6.6.1	mac	2023-06-27	21:13:55	21:22:55	536706	63d3a3629d0b9452d3f32c7e	3	1	main_z	11	main_z	97	stimuli_distractor_trianglediamonds.svg	stimuli_target_rectanglediamonds.svg	10	yes	44	1	376	0	0			0	0			1				0	
6.6.1	mac	2023-06-27	21:13:55	21:22:55	536706	63d3a3629d0b9452d3f32c7e	3	1	main_z	11	advance_on_keypress_ZEE	98	stimuli_distractor_trianglediamonds.svg	stimuli_target_rectanglediamonds.svg	10	yes	57	0	105	0	0			0	0			1				0	
6.6.1	mac	2023-06-27	21:13:55	21:22:56	537794	63d3a3629d0b9452d3f32c7e	3	1	main_z	11	main_z	99	stimuli_target_squaretriangles.svg	stimuli_distractor_diamondtriangles.svg	7	yes	44	1	364	0	0			0	0			1				0	
6.6.1	mac	2023-06-27	21:13:55	21:22:56	537794	63d3a3629d0b9452d3f32c7e	3	1	main_z	11	advance_on_keypress_ZEE	100	stimuli_target_squaretriangles.svg	stimuli_distractor_diamondtriangles.svg	7	yes	57	0	94	0	0			0	0			1				0	
6.6.1	mac	2023-06-27	21:13:55	21:22:57	538994	63d3a3629d0b9452d3f32c7e	3	1	main_z	11	main_z	101	stimuli_target_diamondsquares.svg	stimuli_distractor_trianglediamonds.svg	20	yes	44	1	482	0	0			0	0			1				0	
6.6.1	mac	2023-06-27	21:13:55	21:22:57	538994	63d3a3629d0b9452d3f32c7e	3	1	main_z	11	advance_on_keypress_ZEE	102	stimuli_target_diamondsquares.svg	stimuli_distractor_trianglediamonds.svg	20	yes	57	0	77	0	0			0	0			1				0	
6.6.1	mac	2023-06-27	21:13:55	21:22:58	540338	63d3a3629d0b9452d3f32c7e	3	1	main_z	11	main_z	103	stimuli_distractor_diamondtriangles.svg	stimuli_target_rectanglediamonds.svg	14	yes	44	1	642	0	0			0	0			1				0	
6.6.1	mac	2023-06-27	21:13:55	21:22:58	540338	63d3a3629d0b9452d3f32c7e	3	1	main_z	11	advance_on_keypress_ZEE	104	stimuli_distractor_diamondtriangles.svg	stimuli_target_rectanglediamonds.svg	14	yes	57	0	120	0	0			0	0			1				0	
6.6.1	mac	2023-06-27	21:13:55	21:23:01	543078	63d3a3629d0b9452d3f32c7e	3	1	main_z	11	main_z	105	stimuli_distractor_trianglediamonds.svg	stimuli_distractor_trianglediamonds.svg	34	no	0	1	2000	0	0			0	0			1				0	
6.6.1	mac	2023-06-27	21:13:55	21:23:01	543078	63d3a3629d0b9452d3f32c7e	3	1	main_z	11	advance_on_keypress_ZEE	106	stimuli_distractor_trianglediamonds.svg	stimuli_distractor_trianglediamonds.svg	34	no	57	0	320	0	0			0	0			1				0	
6.6.1	mac	2023-06-27	21:13:55	21:23:04	546028	63d3a3629d0b9452d3f32c7e	3	1	main_z	11	main_z	107	stimuli_distractor_diamondtriangles.svg	stimuli_distractor_trianglediamonds.svg	38	no	0	1	2000	0	0			0	0			1				0	
6.6.1	mac	2023-06-27	21:13:55	21:23:04	546028	63d3a3629d0b9452d3f32c7e	3	1	main_z	11	advance_on_keypress_ZEE	108	stimuli_distractor_diamondtriangles.svg	stimuli_distractor_trianglediamonds.svg	38	no	57	0	170	0	0			0	0			1				0	
6.6.1	mac	2023-06-27	21:13:55	21:23:05	547274	63d3a3629d0b9452d3f32c7e	3	1	main_z	11	main_z	109	stimuli_target_squaretriangles.svg	stimuli_distractor_trianglediamonds.svg	3	yes	44	1	444	0	0			0	0			1				0	
6.6.1	mac	2023-06-27	21:13:55	21:23:05	547274	63d3a3629d0b9452d3f32c7e	3	1	main_z	11	advance_on_keypress_ZEE	110	stimuli_target_squaretriangles.svg	stimuli_distractor_trianglediamonds.svg	3	yes	57	0	88	0	0			0	0			1				0	
6.6.1	mac	2023-06-27	21:13:55	21:23:07	548370	63d3a3629d0b9452d3f32c7e	3	1	main_z	11	main_z	111	stimuli_target_rectangletriangles.svg	stimuli_distractor_trianglediamonds.svg	1	yes	44	1	372	0	0			0	0			1				0	
6.6.1	mac	2023-06-27	21:13:55	21:23:07	548370	63d3a3629d0b9452d3f32c7e	3	1	main_z	11	advance_on_keypress_ZEE	112	stimuli_target_rectangletriangles.svg	stimuli_distractor_trianglediamonds.svg	1	yes	57	0	94	0	0			0	0			1				0	
6.6.1	mac	2023-06-27	21:13:55	21:23:08	549458	63d3a3629d0b9452d3f32c7e	3	1	main_z	11	main_z	113	stimuli_distractor_diamondtriangles.svg	stimuli_target_squarediamonds.svg	16	yes	44	1	377	0	0			0	0			1				0	
6.6.1	mac	2023-06-27	21:13:55	21:23:08	549458	63d3a3629d0b9452d3f32c7e	3	1	main_z	11	advance_on_keypress_ZEE	114	stimuli_distractor_diamondtriangles.svg	stimuli_target_squarediamonds.svg	16	yes	57	0	122	0	0			0	0			1				0	
6.6.1	mac	2023-06-27	21:13:55	21:23:09	550570	63d3a3629d0b9452d3f32c7e	3	1	main_z	11	main_z	115	stimuli_distractor_trianglediamonds.svg	stimuli_target_squaretriangles.svg	11	yes	44	1	372	0	0			0	0			1				0	
6.6.1	mac	2023-06-27	21:13:55	21:23:09	550570	63d3a3629d0b9452d3f32c7e	3	1	main_z	11	advance_on_keypress_ZEE	116	stimuli_distractor_trianglediamonds.svg	stimuli_target_squaretriangles.svg	11	yes	57	0	117	0	0			0	0			1				0	
6.6.1	mac	2023-06-27	21:13:55	21:23:10	551658	63d3a3629d0b9452d3f32c7e	3	1	main_z	11	main_z	117	stimuli_target_rectanglediamonds.svg	stimuli_distractor_diamondtriangles.svg	6	yes	44	1	343	0	0			0	0			1				0	
6.6.1	mac	2023-06-27	21:13:55	21:23:10	551658	63d3a3629d0b9452d3f32c7e	3	1	main_z	11	advance_on_keypress_ZEE	118	stimuli_target_rectanglediamonds.svg	stimuli_distractor_diamondtriangles.svg	6	yes	57	0	106	0	0			0	0			1				0	
6.6.1	mac	2023-06-27	21:13:55	21:23:11	552890	63d3a3629d0b9452d3f32c7e	3	1	main_z	11	main_z	119	stimuli_target_trianglerectangles.svg	stimuli_distractor_diamondtriangles.svg	21	yes	44	1	509	0	0			0	0			1				0	
6.6.1	mac	2023-06-27	21:13:55	21:23:11	552890	63d3a3629d0b9452d3f32c7e	3	1	main_z	11	advance_on_keypress_ZEE	120	stimuli_target_trianglerectangles.svg	stimuli_distractor_diamondtriangles.svg	21	yes	57	0	96	0	0			0	0			1				0	
6.6.1	mac	2023-06-27	21:13:55	21:23:12	554114	63d3a3629d0b9452d3f32c7e	3	1	main_z	11	main_z	121	stimuli_target_trianglesquares.svg	stimuli_distractor_diamondtriangles.svg	22	yes	44	1	499	0	0			0	0			1				0	
6.6.1	mac	2023-06-27	21:13:55	21:23:12	554114	63d3a3629d0b9452d3f32c7e	3	1	main_z	11	advance_on_keypress_ZEE	122	stimuli_target_trianglesquares.svg	stimuli_distractor_diamondtriangles.svg	22	yes	57	0	102	0	0			0	0			1				0	
6.6.1	mac	2023-06-27	21:13:55	21:23:15	556845	63d3a3629d0b9452d3f32c7e	3	1	main_z	11	main_z	123	stimuli_distractor_diamondtriangles.svg	stimuli_distractor_trianglediamonds.svg	37	no	0	1	2000	0	0			0	0			1				0	
6.6.1	mac	2023-06-27	21:13:55	21:23:15	556845	63d3a3629d0b9452d3f32c7e	3	1	main_z	11	advance_on_keypress_ZEE	124	stimuli_distractor_diamondtriangles.svg	stimuli_distractor_trianglediamonds.svg	37	no	57	0	248	0	0			0	0			1				0	
6.6.1	mac	2023-06-27	21:13:55	21:23:16	558258	63d3a3629d0b9452d3f32c7e	3	1	main_z	11	main_z	125	stimuli_target_squarediamonds.svg	stimuli_distractor_diamondtriangles.svg	8	yes	44	1	525	0	0			0	0			1				0	
6.6.1	mac	2023-06-27	21:13:55	21:23:16	558258	63d3a3629d0b9452d3f32c7e	3	1	main_z	11	advance_on_keypress_ZEE	126	stimuli_target_squarediamonds.svg	stimuli_distractor_diamondtriangles.svg	8	yes	57	0	96	0	0			0	0			1				0	
6.6.1	mac	2023-06-27	21:13:55	21:23:18	559402	63d3a3629d0b9452d3f32c7e	3	1	main_z	11	main_z	127	stimuli_target_trianglesquares.svg	stimuli_distractor_trianglediamonds.svg	18	yes	44	1	419	0	0			0	0			1				0	
6.6.1	mac	2023-06-27	21:13:55	21:23:18	559402	63d3a3629d0b9452d3f32c7e	3	1	main_z	11	advance_on_keypress_ZEE	128	stimuli_target_trianglesquares.svg	stimuli_distractor_trianglediamonds.svg	18	yes	57	0	130	0	0			0	0			1				0	
6.6.1	mac	2023-06-27	21:13:55	21:23:20	562163	63d3a3629d0b9452d3f32c7e	3	1	main_z	11	main_z	129	stimuli_distractor_trianglediamonds.svg	stimuli_distractor_diamondtriangles.svg	35	no	0	1	2000	0	0			0	0			1				0	
6.6.1	mac	2023-06-27	21:13:55	21:23:20	562163	63d3a3629d0b9452d3f32c7e	3	1	main_z	11	advance_on_keypress_ZEE	130	stimuli_distractor_trianglediamonds.svg	stimuli_distractor_diamondtriangles.svg	35	no	57	0	99	0	0			0	0			1				0	
6.6.1	mac	2023-06-27	21:13:55	21:23:23	564897	63d3a3629d0b9452d3f32c7e	3	1	main_z	11	main_z	131	stimuli_distractor_diamondtriangles.svg	stimuli_distractor_diamondtriangles.svg	40	no	0	1	2000	0	0			0	0			1				0	
6.6.1	mac	2023-06-27	21:13:55	21:23:23	564897	63d3a3629d0b9452d3f32c7e	3	1	main_z	11	advance_on_keypress_ZEE	132	stimuli_distractor_diamondtriangles.svg	stimuli_distractor_diamondtriangles.svg	40	no	57	0	286	0	0			0	0			1				0	
6.6.1	mac	2023-06-27	21:13:55	21:23:24	566250	63d3a3629d0b9452d3f32c7e	3	1	main_z	11	main_z	133	stimuli_distractor_diamondtriangles.svg	stimuli_target_squaretriangles.svg	15	yes	44	1	434	0	0			0	0			1				0	
6.6.1	mac	2023-06-27	21:13:55	21:23:24	566250	63d3a3629d0b9452d3f32c7e	3	1	main_z	11	advance_on_keypress_ZEE	134	stimuli_distractor_diamondtriangles.svg	stimuli_target_squaretriangles.svg	15	yes	57	0	127	0	0			0	0			1				0	
6.6.1	mac	2023-06-27	21:13:55	21:23:26	567394	63d3a3629d0b9452d3f32c7e	3	1	main_z	11	main_z	135	stimuli_target_rectangletriangles.svg	stimuli_distractor_diamondtriangles.svg	5	yes	44	1	395	0	0			0	0			1				0	
6.6.1	mac	2023-06-27	21:13:55	21:23:26	567394	63d3a3629d0b9452d3f32c7e	3	1	main_z	11	advance_on_keypress_ZEE	136	stimuli_target_rectangletriangles.svg	stimuli_distractor_diamondtriangles.svg	5	yes	57	0	121	0	0			0	0			1				0	
6.6.1	mac	2023-06-27	21:13:55	21:23:27	568490	63d3a3629d0b9452d3f32c7e	3	1	main_z	11	main_z	137	stimuli_target_diamondrectangles.svg	stimuli_distractor_trianglediamonds.svg	19	yes	44	1	340	0	0			0	0			1				0	
6.6.1	mac	2023-06-27	21:13:55	21:23:27	568490	63d3a3629d0b9452d3f32c7e	3	1	main_z	11	advance_on_keypress_ZEE	138	stimuli_target_diamondrectangles.svg	stimuli_distractor_trianglediamonds.svg	19	yes	57	0	126	0	0			0	0			1				0	
6.6.1	mac	2023-06-27	21:13:55	21:23:28	569618	63d3a3629d0b9452d3f32c7e	3	1	main_z	11	main_z	139	stimuli_distractor_diamondtriangles.svg	stimuli_target_trianglerectangles.svg	29	yes	44	1	384	0	0			0	0			1				0	
6.6.1	mac	2023-06-27	21:13:55	21:23:28	569618	63d3a3629d0b9452d3f32c7e	3	1	main_z	11	advance_on_keypress_ZEE	140	stimuli_distractor_diamondtriangles.svg	stimuli_target_trianglerectangles.svg	29	yes	57	0	96	0	0			0	0			1				0	
6.6.1	mac	2023-06-27	21:13:55	21:23:29	570818	63d3a3629d0b9452d3f32c7e	3	1	main_z	11	main_z	141	stimuli_target_diamondsquares.svg	stimuli_distractor_diamondtriangles.svg	24	yes	44	1	467	0	0			0	0			1				0	
6.6.1	mac	2023-06-27	21:13:55	21:23:29	570818	63d3a3629d0b9452d3f32c7e	3	1	main_z	11	advance_on_keypress_ZEE	142	stimuli_target_diamondsquares.svg	stimuli_distractor_diamondtriangles.svg	24	yes	57	0	96	0	0			0	0			1				0	
6.6.1	mac	2023-06-27	21:13:55	21:23:30	572002	63d3a3629d0b9452d3f32c7e	3	1	main_z	11	main_z	143	stimuli_distractor_trianglediamonds.svg	stimuli_target_trianglesquares.svg	26	yes	44	1	451	0	0			0	0			1				0	
6.6.1	mac	2023-06-27	21:13:55	21:23:30	572002	63d3a3629d0b9452d3f32c7e	3	1	main_z	11	advance_on_keypress_ZEE	144	stimuli_distractor_trianglediamonds.svg	stimuli_target_trianglesquares.svg	26	yes	57	0	97	0	0			0	0			1				0	
6.6.1	mac	2023-06-27	21:13:55	21:23:32	573450	63d3a3629d0b9452d3f32c7e	3	1	main_z	11	main_z	145	stimuli_distractor_trianglediamonds.svg	stimuli_target_trianglerectangles.svg	25	yes	44	1	716	0	0			0	0			1				0	
6.6.1	mac	2023-06-27	21:13:55	21:23:32	573450	63d3a3629d0b9452d3f32c7e	3	1	main_z	11	advance_on_keypress_ZEE	146	stimuli_distractor_trianglediamonds.svg	stimuli_target_trianglerectangles.svg	25	yes	57	0	94	0	0			0	0			1				0	
6.6.1	mac	2023-06-27	21:13:55	21:23:33	574707	63d3a3629d0b9452d3f32c7e	3	1	main_z	11	main_z	147	stimuli_distractor_diamondtriangles.svg	stimuli_target_diamondrectangles.svg	31	yes	44	1	521	0	0			0	0			1				0	
6.6.1	mac	2023-06-27	21:13:55	21:23:33	574707	63d3a3629d0b9452d3f32c7e	3	1	main_z	11	advance_on_keypress_ZEE	148	stimuli_distractor_diamondtriangles.svg	stimuli_target_diamondrectangles.svg	31	yes	57	0	132	0	0			0	0			1				0	
6.6.1	mac	2023-06-27	21:13:55	21:23:34	575994	63d3a3629d0b9452d3f32c7e	3	1	main_z	11	main_z	149	stimuli_distractor_trianglediamonds.svg	stimuli_target_diamondrectangles.svg	27	yes	44	1	527	0	0			0	0			1				0	
6.6.1	mac	2023-06-27	21:13:55	21:23:34	575994	63d3a3629d0b9452d3f32c7e	3	1	main_z	11	advance_on_keypress_ZEE	150	stimuli_distractor_trianglediamonds.svg	stimuli_target_diamondrectangles.svg	27	yes	57	0	112	0	0			0	0			1				0	
6.6.1	mac	2023-06-27	21:13:55	21:23:35	577186	63d3a3629d0b9452d3f32c7e	3	1	main_z	11	main_z	151	stimuli_target_squarediamonds.svg	stimuli_distractor_trianglediamonds.svg	4	yes	44	1	451	0	0			0	0			1				0	
6.6.1	mac	2023-06-27	21:13:55	21:23:35	577186	63d3a3629d0b9452d3f32c7e	3	1	main_z	11	advance_on_keypress_ZEE	152	stimuli_target_squarediamonds.svg	stimuli_distractor_trianglediamonds.svg	4	yes	57	0	104	0	0			0	0			1				0	
6.6.1	mac	2023-06-27	21:13:55	21:23:36	578346	63d3a3629d0b9452d3f32c7e	3	1	main_z	11	main_z	153	stimuli_distractor_trianglediamonds.svg	stimuli_target_rectangletriangles.svg	9	yes	44	1	428	0	0			0	0			1				0	
6.6.1	mac	2023-06-27	21:13:55	21:23:36	578346	63d3a3629d0b9452d3f32c7e	3	1	main_z	11	advance_on_keypress_ZEE	154	stimuli_distractor_trianglediamonds.svg	stimuli_target_rectangletriangles.svg	9	yes	57	0	106	0	0			0	0			1				0	
6.6.1	mac	2023-06-27	21:13:55	21:23:38	579490	63d3a3629d0b9452d3f32c7e	3	1	main_z	11	main_z	155	stimuli_distractor_diamondtriangles.svg	stimuli_target_rectangletriangles.svg	13	yes	44	1	406	0	0			0	0			1				0	
6.6.1	mac	2023-06-27	21:13:55	21:23:38	579490	63d3a3629d0b9452d3f32c7e	3	1	main_z	11	advance_on_keypress_ZEE	156	stimuli_distractor_diamondtriangles.svg	stimuli_target_rectangletriangles.svg	13	yes	57	0	99	0	0			0	0			1				0	
6.6.1	mac	2023-06-27	21:13:55	21:23:39	580786	63d3a3629d0b9452d3f32c7e	3	1	main_z	11	main_z	157	stimuli_distractor_diamondtriangles.svg	stimuli_target_diamondsquares.svg	32	yes	44	1	568	0	0			0	0			1				0	
6.6.1	mac	2023-06-27	21:13:55	21:23:39	580786	63d3a3629d0b9452d3f32c7e	3	1	main_z	11	advance_on_keypress_ZEE	158	stimuli_distractor_diamondtriangles.svg	stimuli_target_diamondsquares.svg	32	yes	57	0	135	0	0			0	0			1				0	
6.6.1	mac	2023-06-27	21:13:55	21:23:42	583549	63d3a3629d0b9452d3f32c7e	3	1	main_z	11	main_z	159	stimuli_distractor_trianglediamonds.svg	stimuli_distractor_trianglediamonds.svg	33	no	0	1	2000	0	0			0	0			1				0	
6.6.1	mac	2023-06-27	21:13:55	21:23:42	583549	63d3a3629d0b9452d3f32c7e	3	1	main_z	11	advance_on_keypress_ZEE	160	stimuli_distractor_trianglediamonds.svg	stimuli_distractor_trianglediamonds.svg	33	no	57	0	257	0	0			0	0			1				0	
6.6.1	mac	2023-06-27	21:13:55	21:23:42	583549	63d3a3629d0b9452d3f32c7e	3	1	headphonecheck_calibration	14	headphonecheck_calibrationIntro	1	stimuli_distractor_trianglediamonds.svg	stimuli_distractor_trianglediamonds.svg	33	no	calibrationButton	0	2062	0	0			0	0			1				0	
6.6.1	mac	2023-06-27	21:13:55	21:23:42	583549	63d3a3629d0b9452d3f32c7e	3	1	headphonecheck_testphase	15	test_collectResponse	3	stimuli_distractor_trianglediamonds.svg	stimuli_distractor_trianglediamonds.svg	33	no	second	0	17220	1	2	antiphase_hc_ios.wav	3	0	0			1				0	
6.6.1	mac	2023-06-27	21:13:55	21:23:42	583549	63d3a3629d0b9452d3f32c7e	3	1	headphonecheck_testphase	15	test_collectResponse	6	stimuli_distractor_trianglediamonds.svg	stimuli_distractor_trianglediamonds.svg	33	no	third	1	852	2	6	antiphase_hc_ois.wav	3	0	0			1				0	
6.6.1	mac	2023-06-27	21:13:55	21:23:42	583549	63d3a3629d0b9452d3f32c7e	3	1	headphonecheck_testphase	15	test_collectResponse	9	stimuli_distractor_trianglediamonds.svg	stimuli_distractor_trianglediamonds.svg	33	no	first	1	348	3	3	antiphase_hc_soi.wav	1	0	0			1				0	
6.6.1	mac	2023-06-27	21:13:55	21:23:42	583549	63d3a3629d0b9452d3f32c7e	3	1	headphonecheck_testphase	15	test_collectResponse	12	stimuli_distractor_trianglediamonds.svg	stimuli_distractor_trianglediamonds.svg	33	no	second	1	473	4	5	antiphase_hc_osi.wav	2	0	0			1				0	
6.6.1	mac	2023-06-27	21:13:55	21:23:42	583549	63d3a3629d0b9452d3f32c7e	3	1	headphonecheck_testphase	15	test_collectResponse	15	stimuli_distractor_trianglediamonds.svg	stimuli_distractor_trianglediamonds.svg	33	no	first	1	276	5	4	antiphase_hc_sio.wav	1	0	0			1				0	
6.6.1	mac	2023-06-27	21:13:55	21:23:42	583549	63d3a3629d0b9452d3f32c7e	3	1	headphonecheck_testphase	15	test_collectResponse	18	stimuli_distractor_trianglediamonds.svg	stimuli_distractor_trianglediamonds.svg	33	no	second	1	414	6	1	antiphase_hc_iso.wav	2	0	0			1				0	
6.6.1	mac	2023-06-27	21:13:55	21:23:42	583549	63d3a3629d0b9452d3f32c7e	3	1	stereocheck_calibration	17	stereocheck_calibrationIntro	1	stimuli_distractor_trianglediamonds.svg	stimuli_distractor_trianglediamonds.svg	33	no	stereocheck_calibrationButton	0	4884	6	1	antiphase_hc_iso.wav	2	0	0			1				0	
6.6.1	mac	2023-06-27	21:13:55	21:23:42	583549	63d3a3629d0b9452d3f32c7e	3	1	stereocheck_testphase	18	stereocheck_test_collectResponse	3	stimuli_distractor_trianglediamonds.svg	stimuli_distractor_trianglediamonds.svg	33	no	stereocheck_left	1	35	6	1	antiphase_hc_iso.wav	2	1	2	noise_calib_stim_LEFT.wav	1	1				0	
6.6.1	mac	2023-06-27	21:13:55	21:23:42	583549	63d3a3629d0b9452d3f32c7e	3	1	stereocheck_testphase	18	stereocheck_test_collectResponse	6	stimuli_distractor_trianglediamonds.svg	stimuli_distractor_trianglediamonds.svg	33	no	stereocheck_right	1	495	6	1	antiphase_hc_iso.wav	2	2	6	noise_calib_stim_RIGHT.wav	2	1				0	
6.6.1	mac	2023-06-27	21:13:55	21:23:42	583549	63d3a3629d0b9452d3f32c7e	3	1	stereocheck_testphase	18	stereocheck_test_collectResponse	9	stimuli_distractor_trianglediamonds.svg	stimuli_distractor_trianglediamonds.svg	33	no	stereocheck_left	1	2200	6	1	antiphase_hc_iso.wav	2	3	1	noise_calib_stim_LEFT.wav	1	1				0	
6.6.1	mac	2023-06-27	21:13:55	21:23:42	583549	63d3a3629d0b9452d3f32c7e	3	1	stereocheck_testphase	18	stereocheck_test_collectResponse	12	stimuli_distractor_trianglediamonds.svg	stimuli_distractor_trianglediamonds.svg	33	no	stereocheck_left	1	175	6	1	antiphase_hc_iso.wav	2	4	3	noise_calib_stim_LEFT.wav	1	1				0	
6.6.1	mac	2023-06-27	21:13:55	21:23:42	583549	63d3a3629d0b9452d3f32c7e	3	1	stereocheck_testphase	18	stereocheck_test_collectResponse	15	stimuli_distractor_trianglediamonds.svg	stimuli_distractor_trianglediamonds.svg	33	no	stereocheck_right	1	2096	6	1	antiphase_hc_iso.wav	2	5	4	noise_calib_stim_RIGHT.wav	2	1				0	
6.6.1	mac	2023-06-27	21:13:55	21:23:42	583549	63d3a3629d0b9452d3f32c7e	3	1	stereocheck_testphase	18	stereocheck_test_collectResponse	18	stimuli_distractor_trianglediamonds.svg	stimuli_distractor_trianglediamonds.svg	33	no	stereocheck_right	1	475	6	1	antiphase_hc_iso.wav	2	6	5	noise_calib_stim_RIGHT.wav	2	1				0	
6.6.1	mac	2023-06-27	21:13:55	21:23:42	583549	63d3a3629d0b9452d3f32c7e	3	1	DL_practice	21	DL_practice	2	stimuli_distractor_trianglediamonds.svg	stimuli_distractor_trianglediamonds.svg	33	no	da	1	1423	6	1	antiphase_hc_iso.wav	2	6	5	noise_calib_stim_RIGHT.wav	2	8	blb_dichoticlistening_da-da.mp3	da	da	0	left
6.6.1	mac	2023-06-27	21:13:55	21:23:42	583549	63d3a3629d0b9452d3f32c7e	3	1	DL_practice	21	DL_practice	3	stimuli_distractor_trianglediamonds.svg	stimuli_distractor_trianglediamonds.svg	33	no	ga	0	2995	6	1	antiphase_hc_iso.wav	2	6	5	noise_calib_stim_RIGHT.wav	2	7	blb_dichoticlistening_da-ba.mp3	da	ba	1	other
6.6.1	mac	2023-06-27	21:13:55	21:23:42	583549	63d3a3629d0b9452d3f32c7e	3	1	DL_practice	21	DL_practice	4	stimuli_distractor_trianglediamonds.svg	stimuli_distractor_trianglediamonds.svg	33	no	pa	1	1539	6	1	antiphase_hc_iso.wav	2	6	5	noise_calib_stim_RIGHT.wav	2	29	blb_dichoticlistening_pa-pa.mp3	pa	pa	0	left
6.6.1	mac	2023-06-27	21:13:55	21:23:42	583549	63d3a3629d0b9452d3f32c7e	3	1	DL_practice	21	DL_practice	5	stimuli_distractor_trianglediamonds.svg	stimuli_distractor_trianglediamonds.svg	33	no	ba	1	1348	6	1	antiphase_hc_iso.wav	2	6	5	noise_calib_stim_RIGHT.wav	2	1	blb_dichoticlistening_ba-ba.mp3	ba	ba	0	left
6.6.1	mac	2023-06-27	21:13:55	21:23:42	583549	63d3a3629d0b9452d3f32c7e	3	1	DL_practice	21	DL_practice	6	stimuli_distractor_trianglediamonds.svg	stimuli_distractor_trianglediamonds.svg	33	no	ga	1	758	6	1	antiphase_hc_iso.wav	2	6	5	noise_calib_stim_RIGHT.wav	2	15	blb_dichoticlistening_ga-ga.mp3	ga	ga	0	left
6.6.1	mac	2023-06-27	21:13:55	21:23:42	583549	63d3a3629d0b9452d3f32c7e	3	1	DL_practice	21	DL_practice	7	stimuli_distractor_trianglediamonds.svg	stimuli_distractor_trianglediamonds.svg	33	no	ka	0	1020	6	1	antiphase_hc_iso.wav	2	6	5	noise_calib_stim_RIGHT.wav	2	36	blb_dichoticlistening_ta-ta.mp3	ta	ta	0	other
6.6.1	mac	2023-06-27	21:13:55	21:23:42	583549	63d3a3629d0b9452d3f32c7e	3	1	DL_practice	21	DL_practice	8	stimuli_distractor_trianglediamonds.svg	stimuli_distractor_trianglediamonds.svg	33	no	ga	1	892	6	1	antiphase_hc_iso.wav	2	6	5	noise_calib_stim_RIGHT.wav	2	18	blb_dichoticlistening_ga-ta.mp3	ga	ta	1	left
6.6.1	mac	2023-06-27	21:13:55	21:23:42	583549	63d3a3629d0b9452d3f32c7e	3	1	DL_practice	21	DL_practice	9	stimuli_distractor_trianglediamonds.svg	stimuli_distractor_trianglediamonds.svg	33	no	ka	1	977	6	1	antiphase_hc_iso.wav	2	6	5	noise_calib_stim_RIGHT.wav	2	23	blb_dichoticlistening_ka-pa.mp3	ka	pa	1	left
6.6.1	mac	2023-06-27	21:13:55	21:23:42	583549	63d3a3629d0b9452d3f32c7e	3	1	DL_practice	21	DL_practice	10	stimuli_distractor_trianglediamonds.svg	stimuli_distractor_trianglediamonds.svg	33	no	ka	1	606	6	1	antiphase_hc_iso.wav	2	6	5	noise_calib_stim_RIGHT.wav	2	22	blb_dichoticlistening_ka-ka.mp3	ka	ka	0	left
6.6.1	mac	2023-06-27	21:13:55	21:23:42	583549	63d3a3629d0b9452d3f32c7e	3	1	DL_test	23	DL_test	1	stimuli_distractor_trianglediamonds.svg	stimuli_distractor_trianglediamonds.svg	33	no	ba	1	1643	6	1	antiphase_hc_iso.wav	2	6	5	noise_calib_stim_RIGHT.wav	2	5	blb_dichoticlistening_ba-pa.mp3	ba	pa	1	left
6.6.1	mac	2023-06-27	21:13:55	21:23:42	583549	63d3a3629d0b9452d3f32c7e	3	1	DL_test	23	DL_test	2	stimuli_distractor_trianglediamonds.svg	stimuli_distractor_trianglediamonds.svg	33	no	pa	1	1301	6	1	antiphase_hc_iso.wav	2	6	5	noise_calib_stim_RIGHT.wav	2	25	blb_dichoticlistening_pa-ba.mp3	pa	ba	1	left
6.6.1	mac	2023-06-27	21:13:55	21:23:42	583549	63d3a3629d0b9452d3f32c7e	3	1	DL_test	23	DL_test	3	stimuli_distractor_trianglediamonds.svg	stimuli_distractor_trianglediamonds.svg	33	no	ta	0	1831	6	1	antiphase_hc_iso.wav	2	6	5	noise_calib_stim_RIGHT.wav	2	7	blb_dichoticlistening_da-ba.mp3	da	ba	1	other
6.6.1	mac	2023-06-27	21:13:55	21:23:42	583549	63d3a3629d0b9452d3f32c7e	3	1	DL_test	23	DL_test	4	stimuli_distractor_trianglediamonds.svg	stimuli_distractor_trianglediamonds.svg	33	no	ga	1	695	6	1	antiphase_hc_iso.wav	2	6	5	noise_calib_stim_RIGHT.wav	2	17	blb_dichoticlistening_ga-pa.mp3	ga	pa	1	left
6.6.1	mac	2023-06-27	21:13:55	21:23:42	583549	63d3a3629d0b9452d3f32c7e	3	1	DL_test	23	DL_test	5	stimuli_distractor_trianglediamonds.svg	stimuli_distractor_trianglediamonds.svg	33	no	da	1	1034	6	1	antiphase_hc_iso.wav	2	6	5	noise_calib_stim_RIGHT.wav	2	32	blb_dichoticlistening_ta-da.mp3	ta	da	1	right
6.6.1	mac	2023-06-27	21:13:55	21:23:42	583549	63d3a3629d0b9452d3f32c7e	3	1	DL_test	23	DL_test	6	stimuli_distractor_trianglediamonds.svg	stimuli_distractor_trianglediamonds.svg	33	no	ka	1	653	6	1	antiphase_hc_iso.wav	2	6	5	noise_calib_stim_RIGHT.wav	2	22	blb_dichoticlistening_ka-ka.mp3	ka	ka	0	left
6.6.1	mac	2023-06-27	21:13:55	21:23:42	583549	63d3a3629d0b9452d3f32c7e	3	1	DL_test	23	DL_test	7	stimuli_distractor_trianglediamonds.svg	stimuli_distractor_trianglediamonds.svg	33	no	ga	1	610	6	1	antiphase_hc_iso.wav	2	6	5	noise_calib_stim_RIGHT.wav	2	14	blb_dichoticlistening_ga-da.mp3	ga	da	1	left
6.6.1	mac	2023-06-27	21:13:55	21:23:42	583549	63d3a3629d0b9452d3f32c7e	3	1	DL_test	23	DL_test	8	stimuli_distractor_trianglediamonds.svg	stimuli_distractor_trianglediamonds.svg	33	no	pa	0	1268	6	1	antiphase_hc_iso.wav	2	6	5	noise_calib_stim_RIGHT.wav	2	2	blb_dichoticlistening_ba-da.mp3	ba	da	1	other
6.6.1	mac	2023-06-27	21:13:55	21:23:42	583549	63d3a3629d0b9452d3f32c7e	3	1	DL_test	23	DL_test	9	stimuli_distractor_trianglediamonds.svg	stimuli_distractor_trianglediamonds.svg	33	no	ka	1	1039	6	1	antiphase_hc_iso.wav	2	6	5	noise_calib_stim_RIGHT.wav	2	4	blb_dichoticlistening_ba-ka.mp3	ba	ka	1	right
6.6.1	mac	2023-06-27	21:13:55	21:23:42	583549	63d3a3629d0b9452d3f32c7e	3	1	DL_test	23	DL_test	10	stimuli_distractor_trianglediamonds.svg	stimuli_distractor_trianglediamonds.svg	33	no	ta	1	2001	6	1	antiphase_hc_iso.wav	2	6	5	noise_calib_stim_RIGHT.wav	2	35	blb_dichoticlistening_ta-pa.mp3	ta	pa	1	left
6.6.1	mac	2023-06-27	21:13:55	21:23:42	583549	63d3a3629d0b9452d3f32c7e	3	1	DL_test	23	DL_test	11	stimuli_distractor_trianglediamonds.svg	stimuli_distractor_trianglediamonds.svg	33	no	da	1	835	6	1	antiphase_hc_iso.wav	2	6	5	noise_calib_stim_RIGHT.wav	2	8	blb_dichoticlistening_da-da.mp3	da	da	0	left
6.6.1	mac	2023-06-27	21:13:55	21:23:42	583549	63d3a3629d0b9452d3f32c7e	3	1	DL_test	23	DL_test	12	stimuli_distractor_trianglediamonds.svg	stimuli_distractor_trianglediamonds.svg	33	no	da	0	1823	6	1	antiphase_hc_iso.wav	2	6	5	noise_calib_stim_RIGHT.wav	2	31	blb_dichoticlistening_ta-ba.mp3	ta	ba	1	other
6.6.1	mac	2023-06-27	21:13:55	21:23:42	583549	63d3a3629d0b9452d3f32c7e	3	1	DL_test	23	DL_test	13	stimuli_distractor_trianglediamonds.svg	stimuli_distractor_trianglediamonds.svg	33	no	ka	0	919	6	1	antiphase_hc_iso.wav	2	6	5	noise_calib_stim_RIGHT.wav	2	11	blb_dichoticlistening_da-pa.mp3	da	pa	1	other
6.6.1	mac	2023-06-27	21:13:55	21:23:42	583549	63d3a3629d0b9452d3f32c7e	3	1	DL_test	23	DL_test	14	stimuli_distractor_trianglediamonds.svg	stimuli_distractor_trianglediamonds.svg	33	no	ta	1	929	6	1	antiphase_hc_iso.wav	2	6	5	noise_calib_stim_RIGHT.wav	2	30	blb_dichoticlistening_pa-ta.mp3	pa	ta	1	right
6.6.1	mac	2023-06-27	21:13:55	21:23:42	583549	63d3a3629d0b9452d3f32c7e	3	1	DL_test	23	DL_test	15	stimuli_distractor_trianglediamonds.svg	stimuli_distractor_trianglediamonds.svg	33	no	ga	1	1196	6	1	antiphase_hc_iso.wav	2	6	5	noise_calib_stim_RIGHT.wav	2	21	blb_dichoticlistening_ka-ga.mp3	ka	ga	1	right
6.6.1	mac	2023-06-27	21:13:55	21:23:42	583549	63d3a3629d0b9452d3f32c7e	3	1	DL_test	23	DL_test	16	stimuli_distractor_trianglediamonds.svg	stimuli_distractor_trianglediamonds.svg	33	no	ga	0	805	6	1	antiphase_hc_iso.wav	2	6	5	noise_calib_stim_RIGHT.wav	2	20	blb_dichoticlistening_ka-da.mp3	ka	da	1	other
6.6.1	mac	2023-06-27	21:13:55	21:23:42	583549	63d3a3629d0b9452d3f32c7e	3	1	DL_test	23	DL_test	17	stimuli_distractor_trianglediamonds.svg	stimuli_distractor_trianglediamonds.svg	33	no	ka	0	747	6	1	antiphase_hc_iso.wav	2	6	5	noise_calib_stim_RIGHT.wav	2	27	blb_dichoticlistening_pa-ga.mp3	pa	ga	1	other
6.6.1	mac	2023-06-27	21:13:55	21:23:42	583549	63d3a3629d0b9452d3f32c7e	3	1	DL_test	23	DL_test	18	stimuli_distractor_trianglediamonds.svg	stimuli_distractor_trianglediamonds.svg	33	no	pa	1	638	6	1	antiphase_hc_iso.wav	2	6	5	noise_calib_stim_RIGHT.wav	2	29	blb_dichoticlistening_pa-pa.mp3	pa	pa	0	left
6.6.1	mac	2023-06-27	21:13:55	21:23:42	583549	63d3a3629d0b9452d3f32c7e	3	1	DL_test	23	DL_test	19	stimuli_distractor_trianglediamonds.svg	stimuli_distractor_trianglediamonds.svg	33	no	ga	1	739	6	1	antiphase_hc_iso.wav	2	6	5	noise_calib_stim_RIGHT.wav	2	15	blb_dichoticlistening_ga-ga.mp3	ga	ga	0	left
6.6.1	mac	2023-06-27	21:13:55	21:23:42	583549	63d3a3629d0b9452d3f32c7e	3	1	DL_test	23	DL_test	20	stimuli_distractor_trianglediamonds.svg	stimuli_distractor_trianglediamonds.svg	33	no	ka	1	798	6	1	antiphase_hc_iso.wav	2	6	5	noise_calib_stim_RIGHT.wav	2	34	blb_dichoticlistening_ta-ka.mp3	ta	ka	1	right
6.6.1	mac	2023-06-27	21:13:55	21:23:42	583549	63d3a3629d0b9452d3f32c7e	3	1	DL_test	23	DL_test	21	stimuli_distractor_trianglediamonds.svg	stimuli_distractor_trianglediamonds.svg	33	no	ka	1	718	6	1	antiphase_hc_iso.wav	2	6	5	noise_calib_stim_RIGHT.wav	2	28	blb_dichoticlistening_pa-ka.mp3	pa	ka	1	right
6.6.1	mac	2023-06-27	21:13:55	21:23:42	583549	63d3a3629d0b9452d3f32c7e	3	1	DL_test	23	DL_test	22	stimuli_distractor_trianglediamonds.svg	stimuli_distractor_trianglediamonds.svg	33	no	ba	1	1170	6	1	antiphase_hc_iso.wav	2	6	5	noise_calib_stim_RIGHT.wav	2	1	blb_dichoticlistening_ba-ba.mp3	ba	ba	0	left
6.6.1	mac	2023-06-27	21:13:55	21:23:42	583549	63d3a3629d0b9452d3f32c7e	3	1	DL_test	23	DL_test	23	stimuli_distractor_trianglediamonds.svg	stimuli_distractor_trianglediamonds.svg	33	no	da	1	584	6	1	antiphase_hc_iso.wav	2	6	5	noise_calib_stim_RIGHT.wav	2	26	blb_dichoticlistening_pa-da.mp3	pa	da	1	right
6.6.1	mac	2023-06-27	21:13:55	21:23:42	583549	63d3a3629d0b9452d3f32c7e	3	1	DL_test	23	DL_test	24	stimuli_distractor_trianglediamonds.svg	stimuli_distractor_trianglediamonds.svg	33	no	ka	1	690	6	1	antiphase_hc_iso.wav	2	6	5	noise_calib_stim_RIGHT.wav	2	23	blb_dichoticlistening_ka-pa.mp3	ka	pa	1	left
6.6.1	mac	2023-06-27	21:13:55	21:23:42	583549	63d3a3629d0b9452d3f32c7e	3	1	DL_test	23	DL_test	25	stimuli_distractor_trianglediamonds.svg	stimuli_distractor_trianglediamonds.svg	33	no	ga	1	692	6	1	antiphase_hc_iso.wav	2	6	5	noise_calib_stim_RIGHT.wav	2	9	blb_dichoticlistening_da-ga.mp3	da	ga	1	right
6.6.1	mac	2023-06-27	21:13:55	21:23:42	583549	63d3a3629d0b9452d3f32c7e	3	1	DL_test	23	DL_test	26	stimuli_distractor_trianglediamonds.svg	stimuli_distractor_trianglediamonds.svg	33	no	ka	0	619	6	1	antiphase_hc_iso.wav	2	6	5	noise_calib_stim_RIGHT.wav	2	36	blb_dichoticlistening_ta-ta.mp3	ta	ta	0	other
