build	computer.platform	date	time	timestamp	time_elapsed_ms	subject	group	session	blockcode	blocknum	trialcode	trialnum	stimulus_left	stimulus_right	stim_index	target_present	response	correct	latency	headphonecheck_countTestTrials	headphonecheck_index	headphonecheck_testSound	headphonecheck_correctResponse	stereocheck_countTestTrials	stereocheck_index	stereocheck_testSound	stereocheck_correctResponse	DL_index	DL_soundfile	DL_leftSound	DL_rightSound	DL_dualSound	DL_choice
6.6.1	win	2023-06-27	02:27:37	02:30:15	152845	5eecd2e3a38fd009dd9d1f3d	4	1	practice_z	5	practice_z	1	stimuli_distractor_trianglediamonds.svg	stimuli_distractor_trianglediamonds.svg	15	no	0	1	2000	0	0			0	0			1				0	
6.6.1	win	2023-06-27	02:27:37	02:30:15	152845	5eecd2e3a38fd009dd9d1f3d	4	1	practice_z	5	advance_on_keypress_ZEE	2	stimuli_distractor_trianglediamonds.svg	stimuli_distractor_trianglediamonds.svg	15	no	57	0	2055	0	0			0	0			1				0	
6.6.1	win	2023-06-27	02:27:37	02:30:19	157222	5eecd2e3a38fd009dd9d1f3d	4	1	practice_z	5	practice_z	3	stimuli_distractor_trianglediamonds.svg	stimuli_target_diamondrectangles.svg	12	yes	44	1	675	0	0			0	0			1				0	
6.6.1	win	2023-06-27	02:27:37	02:30:19	157222	5eecd2e3a38fd009dd9d1f3d	4	1	practice_z	5	advance_on_keypress_ZEE	4	stimuli_distractor_trianglediamonds.svg	stimuli_target_diamondrectangles.svg	12	yes	57	0	727	0	0			0	0			1				0	
6.6.1	win	2023-06-27	02:27:37	02:30:22	160230	5eecd2e3a38fd009dd9d1f3d	4	1	practice_z	5	practice_z	5	stimuli_distractor_diamondtriangles.svg	stimuli_target_diamondrectangles.svg	8	yes	44	1	649	0	0			0	0			1				0	
6.6.1	win	2023-06-27	02:27:37	02:30:22	160230	5eecd2e3a38fd009dd9d1f3d	4	1	practice_z	5	advance_on_keypress_ZEE	6	stimuli_distractor_diamondtriangles.svg	stimuli_target_diamondrectangles.svg	8	yes	57	0	750	0	0			0	0			1				0	
6.6.1	win	2023-06-27	02:27:37	02:30:26	164198	5eecd2e3a38fd009dd9d1f3d	4	1	practice_z	5	practice_z	7	stimuli_target_diamondsquares.svg	stimuli_distractor_trianglediamonds.svg	6	yes	44	1	1566	0	0			0	0			1				0	
6.6.1	win	2023-06-27	02:27:37	02:30:26	164198	5eecd2e3a38fd009dd9d1f3d	4	1	practice_z	5	advance_on_keypress_ZEE	8	stimuli_target_diamondsquares.svg	stimuli_distractor_trianglediamonds.svg	6	yes	57	0	5182	0	0			0	0			1				0	
6.6.1	win	2023-06-27	02:27:37	02:30:33	171358	5eecd2e3a38fd009dd9d1f3d	4	1	practice_z	5	practice_z	9	stimuli_distractor_diamondtriangles.svg	stimuli_target_rectangletriangles.svg	7	yes	44	1	324	0	0			0	0			1				0	
6.6.1	win	2023-06-27	02:27:37	02:30:33	171358	5eecd2e3a38fd009dd9d1f3d	4	1	practice_z	5	advance_on_keypress_ZEE	10	stimuli_distractor_diamondtriangles.svg	stimuli_target_rectangletriangles.svg	7	yes	57	0	606	0	0			0	0			1				0	
6.6.1	win	2023-06-27	02:27:37	02:30:36	174120	5eecd2e3a38fd009dd9d1f3d	4	1	practice_z	5	practice_z	11	stimuli_target_diamondsquares.svg	stimuli_distractor_diamondtriangles.svg	3	yes	44	1	508	0	0			0	0			1				0	
6.6.1	win	2023-06-27	02:27:37	02:30:36	174120	5eecd2e3a38fd009dd9d1f3d	4	1	practice_z	5	advance_on_keypress_ZEE	12	stimuli_target_diamondsquares.svg	stimuli_distractor_diamondtriangles.svg	3	yes	57	0	671	0	0			0	0			1				0	
6.6.1	win	2023-06-27	02:27:37	02:30:40	178287	5eecd2e3a38fd009dd9d1f3d	4	1	practice_z	5	practice_z	13	stimuli_distractor_diamondtriangles.svg	stimuli_distractor_diamondtriangles.svg	13	no	44	0	1850	0	0			0	0			1				0	
6.6.1	win	2023-06-27	02:27:37	02:30:40	178287	5eecd2e3a38fd009dd9d1f3d	4	1	practice_z	5	advance_on_keypress_ZEE	14	stimuli_distractor_diamondtriangles.svg	stimuli_distractor_diamondtriangles.svg	13	no	57	0	831	0	0			0	0			1				0	
6.6.1	win	2023-06-27	02:27:37	02:30:43	181366	5eecd2e3a38fd009dd9d1f3d	4	1	practice_z	5	practice_z	15	stimuli_distractor_trianglediamonds.svg	stimuli_target_squarediamonds.svg	11	yes	44	1	596	0	0			0	0			1				0	
6.6.1	win	2023-06-27	02:27:37	02:30:43	181366	5eecd2e3a38fd009dd9d1f3d	4	1	practice_z	5	advance_on_keypress_ZEE	16	stimuli_distractor_trianglediamonds.svg	stimuli_target_squarediamonds.svg	11	yes	57	0	643	0	0			0	0			1				0	
6.6.1	win	2023-06-27	02:27:37	02:30:47	185638	5eecd2e3a38fd009dd9d1f3d	4	1	practice_z	5	practice_z	17	stimuli_distractor_trianglediamonds.svg	stimuli_distractor_diamondtriangles.svg	16	no	0	1	2000	0	0			0	0			1				0	
6.6.1	win	2023-06-27	02:27:37	02:30:47	185638	5eecd2e3a38fd009dd9d1f3d	4	1	practice_z	5	advance_on_keypress_ZEE	18	stimuli_distractor_trianglediamonds.svg	stimuli_distractor_diamondtriangles.svg	16	no	57	0	839	0	0			0	0			1				0	
6.6.1	win	2023-06-27	02:27:37	02:30:50	188582	5eecd2e3a38fd009dd9d1f3d	4	1	practice_z	5	practice_z	19	stimuli_target_rectanglediamonds.svg	stimuli_distractor_trianglediamonds.svg	4	yes	44	1	460	0	0			0	0			1				0	
6.6.1	win	2023-06-27	02:27:37	02:30:50	188582	5eecd2e3a38fd009dd9d1f3d	4	1	practice_z	5	advance_on_keypress_ZEE	20	stimuli_target_rectanglediamonds.svg	stimuli_distractor_trianglediamonds.svg	4	yes	57	0	745	0	0			0	0			1				0	
6.6.1	win	2023-06-27	02:27:37	02:30:53	191646	5eecd2e3a38fd009dd9d1f3d	4	1	practice_z	5	practice_z	21	stimuli_target_rectanglediamonds.svg	stimuli_distractor_diamondtriangles.svg	1	yes	44	1	690	0	0			0	0			1				0	
6.6.1	win	2023-06-27	02:27:37	02:30:53	191646	5eecd2e3a38fd009dd9d1f3d	4	1	practice_z	5	advance_on_keypress_ZEE	22	stimuli_target_rectanglediamonds.svg	stimuli_distractor_diamondtriangles.svg	1	yes	57	0	997	0	0			0	0			1				0	
6.6.1	win	2023-06-27	02:27:37	02:30:57	195126	5eecd2e3a38fd009dd9d1f3d	4	1	practice_z	5	practice_z	23	stimuli_target_squarediamonds.svg	stimuli_distractor_diamondtriangles.svg	2	yes	44	1	835	0	0			0	0			1				0	
6.6.1	win	2023-06-27	02:27:37	02:30:57	195126	5eecd2e3a38fd009dd9d1f3d	4	1	practice_z	5	advance_on_keypress_ZEE	24	stimuli_target_squarediamonds.svg	stimuli_distractor_diamondtriangles.svg	2	yes	57	0	609	0	0			0	0			1				0	
6.6.1	win	2023-06-27	02:27:37	02:31:00	198079	5eecd2e3a38fd009dd9d1f3d	4	1	practice_z	5	practice_z	25	stimuli_distractor_trianglediamonds.svg	stimuli_target_rectanglediamonds.svg	10	yes	44	1	703	0	0			0	0			1				0	
6.6.1	win	2023-06-27	02:27:37	02:31:00	198079	5eecd2e3a38fd009dd9d1f3d	4	1	practice_z	5	advance_on_keypress_ZEE	26	stimuli_distractor_trianglediamonds.svg	stimuli_target_rectanglediamonds.svg	10	yes	57	0	594	0	0			0	0			1				0	
6.6.1	win	2023-06-27	02:27:37	02:31:04	202326	5eecd2e3a38fd009dd9d1f3d	4	1	practice_z	5	practice_z	27	stimuli_distractor_diamondtriangles.svg	stimuli_target_trianglerectangles.svg	9	yes	0	0	2000	0	0			0	0			1				0	
6.6.1	win	2023-06-27	02:27:37	02:31:04	202326	5eecd2e3a38fd009dd9d1f3d	4	1	practice_z	5	advance_on_keypress_ZEE	28	stimuli_distractor_diamondtriangles.svg	stimuli_target_trianglerectangles.svg	9	yes	57	0	591	0	0			0	0			1				0	
6.6.1	win	2023-06-27	02:27:37	02:31:08	206560	5eecd2e3a38fd009dd9d1f3d	4	1	practice_z	5	practice_z	29	stimuli_distractor_diamondtriangles.svg	stimuli_distractor_trianglediamonds.svg	14	no	0	1	2000	0	0			0	0			1				0	
6.6.1	win	2023-06-27	02:27:37	02:31:08	206560	5eecd2e3a38fd009dd9d1f3d	4	1	practice_z	5	advance_on_keypress_ZEE	30	stimuli_distractor_diamondtriangles.svg	stimuli_distractor_trianglediamonds.svg	14	no	57	0	500	0	0			0	0			1				0	
6.6.1	win	2023-06-27	02:27:37	02:31:11	209638	5eecd2e3a38fd009dd9d1f3d	4	1	practice_z	5	practice_z	31	stimuli_target_squarediamonds.svg	stimuli_distractor_trianglediamonds.svg	5	yes	44	1	927	0	0			0	0			1				0	
6.6.1	win	2023-06-27	02:27:37	02:31:11	209638	5eecd2e3a38fd009dd9d1f3d	4	1	practice_z	5	advance_on_keypress_ZEE	32	stimuli_target_squarediamonds.svg	stimuli_distractor_trianglediamonds.svg	5	yes	57	0	633	0	0			0	0			1				0	
6.6.1	win	2023-06-27	02:27:37	02:31:27	225198	5eecd2e3a38fd009dd9d1f3d	4	1	main_z	7	main_z	1	stimuli_target_trianglerectangles.svg	stimuli_distractor_trianglediamonds.svg	17	yes	0	0	2000	0	0			0	0			1				0	
6.6.1	win	2023-06-27	02:27:37	02:31:27	225198	5eecd2e3a38fd009dd9d1f3d	4	1	main_z	7	advance_on_keypress_ZEE	2	stimuli_target_trianglerectangles.svg	stimuli_distractor_trianglediamonds.svg	17	yes	57	0	1198	0	0			0	0			1				0	
6.6.1	win	2023-06-27	02:27:37	02:31:30	227869	5eecd2e3a38fd009dd9d1f3d	4	1	main_z	7	main_z	3	stimuli_target_rectanglediamonds.svg	stimuli_distractor_diamondtriangles.svg	6	yes	44	1	820	0	0			0	0			1				0	
6.6.1	win	2023-06-27	02:27:37	02:31:30	227869	5eecd2e3a38fd009dd9d1f3d	4	1	main_z	7	advance_on_keypress_ZEE	4	stimuli_target_rectanglediamonds.svg	stimuli_distractor_diamondtriangles.svg	6	yes	57	0	1002	0	0			0	0			1				0	
6.6.1	win	2023-06-27	02:27:37	02:31:32	230237	5eecd2e3a38fd009dd9d1f3d	4	1	main_z	7	main_z	5	stimuli_target_rectanglediamonds.svg	stimuli_distractor_trianglediamonds.svg	2	yes	44	1	721	0	0			0	0			1				0	
6.6.1	win	2023-06-27	02:27:37	02:31:32	230237	5eecd2e3a38fd009dd9d1f3d	4	1	main_z	7	advance_on_keypress_ZEE	6	stimuli_target_rectanglediamonds.svg	stimuli_distractor_trianglediamonds.svg	2	yes	57	0	587	0	0			0	0			1				0	
6.6.1	win	2023-06-27	02:27:37	02:31:34	232245	5eecd2e3a38fd009dd9d1f3d	4	1	main_z	7	main_z	7	stimuli_target_squaretriangles.svg	stimuli_distractor_diamondtriangles.svg	7	yes	44	1	778	0	0			0	0			1				0	
6.6.1	win	2023-06-27	02:27:37	02:31:34	232245	5eecd2e3a38fd009dd9d1f3d	4	1	main_z	7	advance_on_keypress_ZEE	8	stimuli_target_squaretriangles.svg	stimuli_distractor_diamondtriangles.svg	7	yes	57	0	874	0	0			0	0			1				0	
6.6.1	win	2023-06-27	02:27:37	02:31:37	235751	5eecd2e3a38fd009dd9d1f3d	4	1	main_z	7	main_z	9	stimuli_distractor_trianglediamonds.svg	stimuli_target_trianglerectangles.svg	25	yes	0	0	2000	0	0			0	0			1				0	
6.6.1	win	2023-06-27	02:27:37	02:31:37	235751	5eecd2e3a38fd009dd9d1f3d	4	1	main_z	7	advance_on_keypress_ZEE	10	stimuli_distractor_trianglediamonds.svg	stimuli_target_trianglerectangles.svg	25	yes	57	0	597	0	0			0	0			1				0	
6.6.1	win	2023-06-27	02:27:37	02:31:41	239002	5eecd2e3a38fd009dd9d1f3d	4	1	main_z	7	main_z	11	stimuli_distractor_diamondtriangles.svg	stimuli_target_trianglesquares.svg	30	yes	0	0	2000	0	0			0	0			1				0	
6.6.1	win	2023-06-27	02:27:37	02:31:41	239002	5eecd2e3a38fd009dd9d1f3d	4	1	main_z	7	advance_on_keypress_ZEE	12	stimuli_distractor_diamondtriangles.svg	stimuli_target_trianglesquares.svg	30	yes	57	0	618	0	0			0	0			1				0	
6.6.1	win	2023-06-27	02:27:37	02:31:43	241405	5eecd2e3a38fd009dd9d1f3d	4	1	main_z	7	main_z	13	stimuli_target_diamondsquares.svg	stimuli_distractor_diamondtriangles.svg	24	yes	44	1	1136	0	0			0	0			1				0	
6.6.1	win	2023-06-27	02:27:37	02:31:43	241405	5eecd2e3a38fd009dd9d1f3d	4	1	main_z	7	advance_on_keypress_ZEE	14	stimuli_target_diamondsquares.svg	stimuli_distractor_diamondtriangles.svg	24	yes	57	0	921	0	0			0	0			1				0	
6.6.1	win	2023-06-27	02:27:37	02:31:47	244970	5eecd2e3a38fd009dd9d1f3d	4	1	main_z	7	main_z	15	stimuli_distractor_diamondtriangles.svg	stimuli_target_trianglerectangles.svg	29	yes	0	0	2000	0	0			0	0			1				0	
6.6.1	win	2023-06-27	02:27:37	02:31:47	244970	5eecd2e3a38fd009dd9d1f3d	4	1	main_z	7	advance_on_keypress_ZEE	16	stimuli_distractor_diamondtriangles.svg	stimuli_target_trianglerectangles.svg	29	yes	57	0	585	0	0			0	0			1				0	
6.6.1	win	2023-06-27	02:27:37	02:31:49	247069	5eecd2e3a38fd009dd9d1f3d	4	1	main_z	7	main_z	17	stimuli_target_diamondrectangles.svg	stimuli_distractor_trianglediamonds.svg	19	yes	44	1	865	0	0			0	0			1				0	
6.6.1	win	2023-06-27	02:27:37	02:31:49	247069	5eecd2e3a38fd009dd9d1f3d	4	1	main_z	7	advance_on_keypress_ZEE	18	stimuli_target_diamondrectangles.svg	stimuli_distractor_trianglediamonds.svg	19	yes	57	0	965	0	0			0	0			1				0	
6.6.1	win	2023-06-27	02:27:37	02:31:51	249645	5eecd2e3a38fd009dd9d1f3d	4	1	main_z	7	main_z	19	stimuli_target_rectangletriangles.svg	stimuli_distractor_trianglediamonds.svg	1	yes	44	1	957	0	0			0	0			1				0	
6.6.1	win	2023-06-27	02:27:37	02:31:51	249645	5eecd2e3a38fd009dd9d1f3d	4	1	main_z	7	advance_on_keypress_ZEE	20	stimuli_target_rectangletriangles.svg	stimuli_distractor_trianglediamonds.svg	1	yes	57	0	693	0	0			0	0			1				0	
6.6.1	win	2023-06-27	02:27:37	02:31:54	251901	5eecd2e3a38fd009dd9d1f3d	4	1	main_z	7	main_z	21	stimuli_target_squaretriangles.svg	stimuli_distractor_trianglediamonds.svg	3	yes	44	1	929	0	0			0	0			1				0	
6.6.1	win	2023-06-27	02:27:37	02:31:54	251901	5eecd2e3a38fd009dd9d1f3d	4	1	main_z	7	advance_on_keypress_ZEE	22	stimuli_target_squaretriangles.svg	stimuli_distractor_trianglediamonds.svg	3	yes	57	0	555	0	0			0	0			1				0	
6.6.1	win	2023-06-27	02:27:37	02:31:57	255090	5eecd2e3a38fd009dd9d1f3d	4	1	main_z	7	main_z	23	stimuli_distractor_trianglediamonds.svg	stimuli_distractor_diamondtriangles.svg	35	no	0	1	2000	0	0			0	0			1				0	
6.6.1	win	2023-06-27	02:27:37	02:31:57	255090	5eecd2e3a38fd009dd9d1f3d	4	1	main_z	7	advance_on_keypress_ZEE	24	stimuli_distractor_trianglediamonds.svg	stimuli_distractor_diamondtriangles.svg	35	no	57	0	514	0	0			0	0			1				0	
6.6.1	win	2023-06-27	02:27:37	02:31:59	257085	5eecd2e3a38fd009dd9d1f3d	4	1	main_z	7	main_z	25	stimuli_distractor_diamondtriangles.svg	stimuli_target_diamondrectangles.svg	31	yes	44	1	828	0	0			0	0			1				0	
6.6.1	win	2023-06-27	02:27:37	02:31:59	257085	5eecd2e3a38fd009dd9d1f3d	4	1	main_z	7	advance_on_keypress_ZEE	26	stimuli_distractor_diamondtriangles.svg	stimuli_target_diamondrectangles.svg	31	yes	57	0	666	0	0			0	0			1				0	
6.6.1	win	2023-06-27	02:27:37	02:32:02	260391	5eecd2e3a38fd009dd9d1f3d	4	1	main_z	7	main_z	27	stimuli_target_trianglesquares.svg	stimuli_distractor_diamondtriangles.svg	22	yes	0	0	2000	0	0			0	0			1				0	
6.6.1	win	2023-06-27	02:27:37	02:32:02	260391	5eecd2e3a38fd009dd9d1f3d	4	1	main_z	7	advance_on_keypress_ZEE	28	stimuli_target_trianglesquares.svg	stimuli_distractor_diamondtriangles.svg	22	yes	57	0	508	0	0			0	0			1				0	
6.6.1	win	2023-06-27	02:27:37	02:32:05	263542	5eecd2e3a38fd009dd9d1f3d	4	1	main_z	7	main_z	29	stimuli_distractor_diamondtriangles.svg	stimuli_distractor_trianglediamonds.svg	37	no	0	1	2000	0	0			0	0			1				0	
6.6.1	win	2023-06-27	02:27:37	02:32:05	263542	5eecd2e3a38fd009dd9d1f3d	4	1	main_z	7	advance_on_keypress_ZEE	30	stimuli_distractor_diamondtriangles.svg	stimuli_distractor_trianglediamonds.svg	37	no	57	0	534	0	0			0	0			1				0	
6.6.1	win	2023-06-27	02:27:37	02:32:07	265549	5eecd2e3a38fd009dd9d1f3d	4	1	main_z	7	main_z	31	stimuli_distractor_diamondtriangles.svg	stimuli_target_squarediamonds.svg	16	yes	44	1	823	0	0			0	0			1				0	
6.6.1	win	2023-06-27	02:27:37	02:32:07	265549	5eecd2e3a38fd009dd9d1f3d	4	1	main_z	7	advance_on_keypress_ZEE	32	stimuli_distractor_diamondtriangles.svg	stimuli_target_squarediamonds.svg	16	yes	57	0	845	0	0			0	0			1				0	
6.6.1	win	2023-06-27	02:27:37	02:32:11	269027	5eecd2e3a38fd009dd9d1f3d	4	1	main_z	7	main_z	33	stimuli_distractor_trianglediamonds.svg	stimuli_distractor_trianglediamonds.svg	33	no	0	1	2000	0	0			0	0			1				0	
6.6.1	win	2023-06-27	02:27:37	02:32:11	269027	5eecd2e3a38fd009dd9d1f3d	4	1	main_z	7	advance_on_keypress_ZEE	34	stimuli_distractor_trianglediamonds.svg	stimuli_distractor_trianglediamonds.svg	33	no	57	0	409	0	0			0	0			1				0	
6.6.1	win	2023-06-27	02:27:37	02:32:12	270821	5eecd2e3a38fd009dd9d1f3d	4	1	main_z	7	main_z	35	stimuli_distractor_diamondtriangles.svg	stimuli_target_squaretriangles.svg	15	yes	44	1	743	0	0			0	0			1				0	
6.6.1	win	2023-06-27	02:27:37	02:32:12	270821	5eecd2e3a38fd009dd9d1f3d	4	1	main_z	7	advance_on_keypress_ZEE	36	stimuli_distractor_diamondtriangles.svg	stimuli_target_squaretriangles.svg	15	yes	57	0	721	0	0			0	0			1				0	
6.6.1	win	2023-06-27	02:27:37	02:32:15	273149	5eecd2e3a38fd009dd9d1f3d	4	1	main_z	7	main_z	37	stimuli_distractor_trianglediamonds.svg	stimuli_target_diamondrectangles.svg	27	yes	44	1	971	0	0			0	0			1				0	
6.6.1	win	2023-06-27	02:27:37	02:32:15	273149	5eecd2e3a38fd009dd9d1f3d	4	1	main_z	7	advance_on_keypress_ZEE	38	stimuli_distractor_trianglediamonds.svg	stimuli_target_diamondrectangles.svg	27	yes	57	0	443	0	0			0	0			1				0	
6.6.1	win	2023-06-27	02:27:37	02:32:17	275309	5eecd2e3a38fd009dd9d1f3d	4	1	main_z	7	main_z	39	stimuli_distractor_trianglediamonds.svg	stimuli_target_squaretriangles.svg	11	yes	44	1	1080	0	0			0	0			1				0	
6.6.1	win	2023-06-27	02:27:37	02:32:17	275309	5eecd2e3a38fd009dd9d1f3d	4	1	main_z	7	advance_on_keypress_ZEE	40	stimuli_distractor_trianglediamonds.svg	stimuli_target_squaretriangles.svg	11	yes	57	0	420	0	0			0	0			1				0	
6.6.1	win	2023-06-27	02:27:37	02:32:20	278363	5eecd2e3a38fd009dd9d1f3d	4	1	main_z	7	main_z	41	stimuli_target_squarediamonds.svg	stimuli_distractor_diamondtriangles.svg	8	yes	0	0	2000	0	0			0	0			1				0	
6.6.1	win	2023-06-27	02:27:37	02:32:20	278363	5eecd2e3a38fd009dd9d1f3d	4	1	main_z	7	advance_on_keypress_ZEE	42	stimuli_target_squarediamonds.svg	stimuli_distractor_diamondtriangles.svg	8	yes	57	0	497	0	0			0	0			1				0	
6.6.1	win	2023-06-27	02:27:37	02:32:22	280429	5eecd2e3a38fd009dd9d1f3d	4	1	main_z	7	main_z	43	stimuli_target_trianglerectangles.svg	stimuli_distractor_diamondtriangles.svg	21	yes	44	1	932	0	0			0	0			1				0	
6.6.1	win	2023-06-27	02:27:37	02:32:22	280429	5eecd2e3a38fd009dd9d1f3d	4	1	main_z	7	advance_on_keypress_ZEE	44	stimuli_target_trianglerectangles.svg	stimuli_distractor_diamondtriangles.svg	21	yes	57	0	446	0	0			0	0			1				0	
6.6.1	win	2023-06-27	02:27:37	02:32:24	282477	5eecd2e3a38fd009dd9d1f3d	4	1	main_z	7	main_z	45	stimuli_distractor_diamondtriangles.svg	stimuli_target_rectangletriangles.svg	13	yes	44	1	963	0	0			0	0			1				0	
6.6.1	win	2023-06-27	02:27:37	02:32:24	282477	5eecd2e3a38fd009dd9d1f3d	4	1	main_z	7	advance_on_keypress_ZEE	46	stimuli_distractor_diamondtriangles.svg	stimuli_target_rectangletriangles.svg	13	yes	57	0	276	0	0			0	0			1				0	
6.6.1	win	2023-06-27	02:27:37	02:32:27	285381	5eecd2e3a38fd009dd9d1f3d	4	1	main_z	7	main_z	47	stimuli_distractor_trianglediamonds.svg	stimuli_distractor_diamondtriangles.svg	36	no	0	1	2000	0	0			0	0			1				0	
6.6.1	win	2023-06-27	02:27:37	02:32:27	285381	5eecd2e3a38fd009dd9d1f3d	4	1	main_z	7	advance_on_keypress_ZEE	48	stimuli_distractor_trianglediamonds.svg	stimuli_distractor_diamondtriangles.svg	36	no	57	0	574	0	0			0	0			1				0	
6.6.1	win	2023-06-27	02:27:37	02:32:30	288599	5eecd2e3a38fd009dd9d1f3d	4	1	main_z	7	main_z	49	stimuli_distractor_trianglediamonds.svg	stimuli_distractor_trianglediamonds.svg	34	no	0	1	2000	0	0			0	0			1				0	
6.6.1	win	2023-06-27	02:27:37	02:32:30	288599	5eecd2e3a38fd009dd9d1f3d	4	1	main_z	7	advance_on_keypress_ZEE	50	stimuli_distractor_trianglediamonds.svg	stimuli_distractor_trianglediamonds.svg	34	no	57	0	421	0	0			0	0			1				0	
6.6.1	win	2023-06-27	02:27:37	02:32:32	290533	5eecd2e3a38fd009dd9d1f3d	4	1	main_z	7	main_z	51	stimuli_distractor_diamondtriangles.svg	stimuli_target_rectanglediamonds.svg	14	yes	44	1	866	0	0			0	0			1				0	
6.6.1	win	2023-06-27	02:27:37	02:32:32	290533	5eecd2e3a38fd009dd9d1f3d	4	1	main_z	7	advance_on_keypress_ZEE	52	stimuli_distractor_diamondtriangles.svg	stimuli_target_rectanglediamonds.svg	14	yes	57	0	687	0	0			0	0			1				0	
6.6.1	win	2023-06-27	02:27:37	02:32:36	293867	5eecd2e3a38fd009dd9d1f3d	4	1	main_z	7	main_z	53	stimuli_distractor_diamondtriangles.svg	stimuli_distractor_diamondtriangles.svg	40	no	0	1	2000	0	0			0	0			1				0	
6.6.1	win	2023-06-27	02:27:37	02:32:36	293867	5eecd2e3a38fd009dd9d1f3d	4	1	main_z	7	advance_on_keypress_ZEE	54	stimuli_distractor_diamondtriangles.svg	stimuli_distractor_diamondtriangles.svg	40	no	57	0	448	0	0			0	0			1				0	
6.6.1	win	2023-06-27	02:27:37	02:32:38	295901	5eecd2e3a38fd009dd9d1f3d	4	1	main_z	7	main_z	55	stimuli_distractor_trianglediamonds.svg	stimuli_target_rectangletriangles.svg	9	yes	44	1	933	0	0			0	0			1				0	
6.6.1	win	2023-06-27	02:27:37	02:32:38	295901	5eecd2e3a38fd009dd9d1f3d	4	1	main_z	7	advance_on_keypress_ZEE	56	stimuli_distractor_trianglediamonds.svg	stimuli_target_rectangletriangles.svg	9	yes	57	0	671	0	0			0	0			1				0	
6.6.1	win	2023-06-27	02:27:37	02:32:40	298253	5eecd2e3a38fd009dd9d1f3d	4	1	main_z	7	main_z	57	stimuli_distractor_trianglediamonds.svg	stimuli_target_trianglesquares.svg	26	yes	44	1	1034	0	0			0	0			1				0	
6.6.1	win	2023-06-27	02:27:37	02:32:40	298253	5eecd2e3a38fd009dd9d1f3d	4	1	main_z	7	advance_on_keypress_ZEE	58	stimuli_distractor_trianglediamonds.svg	stimuli_target_trianglesquares.svg	26	yes	57	0	648	0	0			0	0			1				0	
6.6.1	win	2023-06-27	02:27:37	02:32:42	300597	5eecd2e3a38fd009dd9d1f3d	4	1	main_z	7	main_z	59	stimuli_distractor_trianglediamonds.svg	stimuli_target_rectanglediamonds.svg	10	yes	44	1	1044	0	0			0	0			1				0	
6.6.1	win	2023-06-27	02:27:37	02:32:42	300597	5eecd2e3a38fd009dd9d1f3d	4	1	main_z	7	advance_on_keypress_ZEE	60	stimuli_distractor_trianglediamonds.svg	stimuli_target_rectanglediamonds.svg	10	yes	57	0	482	0	0			0	0			1				0	
6.6.1	win	2023-06-27	02:27:37	02:32:44	302821	5eecd2e3a38fd009dd9d1f3d	4	1	main_z	7	main_z	61	stimuli_target_rectangletriangles.svg	stimuli_distractor_diamondtriangles.svg	5	yes	44	1	1101	0	0			0	0			1				0	
6.6.1	win	2023-06-27	02:27:37	02:32:44	302821	5eecd2e3a38fd009dd9d1f3d	4	1	main_z	7	advance_on_keypress_ZEE	62	stimuli_target_rectangletriangles.svg	stimuli_distractor_diamondtriangles.svg	5	yes	57	0	752	0	0			0	0			1				0	
6.6.1	win	2023-06-27	02:27:37	02:32:48	306221	5eecd2e3a38fd009dd9d1f3d	4	1	main_z	7	main_z	63	stimuli_distractor_diamondtriangles.svg	stimuli_distractor_trianglediamonds.svg	38	no	0	1	2000	0	0			0	0			1				0	
6.6.1	win	2023-06-27	02:27:37	02:32:48	306221	5eecd2e3a38fd009dd9d1f3d	4	1	main_z	7	advance_on_keypress_ZEE	64	stimuli_distractor_diamondtriangles.svg	stimuli_distractor_trianglediamonds.svg	38	no	57	0	463	0	0			0	0			1				0	
6.6.1	win	2023-06-27	02:27:37	02:32:50	308421	5eecd2e3a38fd009dd9d1f3d	4	1	main_z	7	main_z	65	stimuli_target_diamondrectangles.svg	stimuli_distractor_diamondtriangles.svg	23	yes	44	1	1100	0	0			0	0			1				0	
6.6.1	win	2023-06-27	02:27:37	02:32:50	308421	5eecd2e3a38fd009dd9d1f3d	4	1	main_z	7	advance_on_keypress_ZEE	66	stimuli_target_diamondrectangles.svg	stimuli_distractor_diamondtriangles.svg	23	yes	57	0	470	0	0			0	0			1				0	
6.6.1	win	2023-06-27	02:27:37	02:32:52	310621	5eecd2e3a38fd009dd9d1f3d	4	1	main_z	7	main_z	67	stimuli_distractor_trianglediamonds.svg	stimuli_target_diamondsquares.svg	28	yes	44	1	1082	0	0			0	0			1				0	
6.6.1	win	2023-06-27	02:27:37	02:32:52	310621	5eecd2e3a38fd009dd9d1f3d	4	1	main_z	7	advance_on_keypress_ZEE	68	stimuli_distractor_trianglediamonds.svg	stimuli_target_diamondsquares.svg	28	yes	57	0	454	0	0			0	0			1				0	
6.6.1	win	2023-06-27	02:27:37	02:32:55	312949	5eecd2e3a38fd009dd9d1f3d	4	1	main_z	7	main_z	69	stimuli_distractor_trianglediamonds.svg	stimuli_target_squarediamonds.svg	12	yes	44	1	1226	0	0			0	0			1				0	
6.6.1	win	2023-06-27	02:27:37	02:32:55	312949	5eecd2e3a38fd009dd9d1f3d	4	1	main_z	7	advance_on_keypress_ZEE	70	stimuli_distractor_trianglediamonds.svg	stimuli_target_squarediamonds.svg	12	yes	57	0	441	0	0			0	0			1				0	
6.6.1	win	2023-06-27	02:27:37	02:32:57	314989	5eecd2e3a38fd009dd9d1f3d	4	1	main_z	7	main_z	71	stimuli_distractor_diamondtriangles.svg	stimuli_target_diamondsquares.svg	32	yes	44	1	966	0	0			0	0			1				0	
6.6.1	win	2023-06-27	02:27:37	02:32:57	314989	5eecd2e3a38fd009dd9d1f3d	4	1	main_z	7	advance_on_keypress_ZEE	72	stimuli_distractor_diamondtriangles.svg	stimuli_target_diamondsquares.svg	32	yes	57	0	254	0	0			0	0			1				0	
6.6.1	win	2023-06-27	02:27:37	02:32:59	316861	5eecd2e3a38fd009dd9d1f3d	4	1	main_z	7	main_z	73	stimuli_target_diamondsquares.svg	stimuli_distractor_trianglediamonds.svg	20	yes	44	1	971	0	0			0	0			1				0	
6.6.1	win	2023-06-27	02:27:37	02:32:59	316861	5eecd2e3a38fd009dd9d1f3d	4	1	main_z	7	advance_on_keypress_ZEE	74	stimuli_target_diamondsquares.svg	stimuli_distractor_trianglediamonds.svg	20	yes	57	0	411	0	0			0	0			1				0	
6.6.1	win	2023-06-27	02:27:37	02:33:01	319093	5eecd2e3a38fd009dd9d1f3d	4	1	main_z	7	main_z	75	stimuli_target_squarediamonds.svg	stimuli_distractor_trianglediamonds.svg	4	yes	44	1	1185	0	0			0	0			1				0	
6.6.1	win	2023-06-27	02:27:37	02:33:01	319093	5eecd2e3a38fd009dd9d1f3d	4	1	main_z	7	advance_on_keypress_ZEE	76	stimuli_target_squarediamonds.svg	stimuli_distractor_trianglediamonds.svg	4	yes	57	0	345	0	0			0	0			1				0	
6.6.1	win	2023-06-27	02:27:37	02:33:04	322075	5eecd2e3a38fd009dd9d1f3d	4	1	main_z	7	main_z	77	stimuli_distractor_diamondtriangles.svg	stimuli_distractor_diamondtriangles.svg	39	no	0	1	2000	0	0			0	0			1				0	
6.6.1	win	2023-06-27	02:27:37	02:33:04	322075	5eecd2e3a38fd009dd9d1f3d	4	1	main_z	7	advance_on_keypress_ZEE	78	stimuli_distractor_diamondtriangles.svg	stimuli_distractor_diamondtriangles.svg	39	no	57	0	497	0	0			0	0			1				0	
6.6.1	win	2023-06-27	02:27:37	02:33:06	324285	5eecd2e3a38fd009dd9d1f3d	4	1	main_z	7	main_z	79	stimuli_target_trianglesquares.svg	stimuli_distractor_trianglediamonds.svg	18	yes	44	1	1076	0	0			0	0			1				0	
6.6.1	win	2023-06-27	02:27:37	02:33:06	324285	5eecd2e3a38fd009dd9d1f3d	4	1	main_z	7	advance_on_keypress_ZEE	80	stimuli_target_trianglesquares.svg	stimuli_distractor_trianglediamonds.svg	18	yes	57	0	352	0	0			0	0			1				0	
6.6.1	win	2023-06-27	02:27:37	02:33:08	326285	5eecd2e3a38fd009dd9d1f3d	4	1	main_z	7	main_z	81	stimuli_distractor_trianglediamonds.svg	stimuli_target_diamondsquares.svg	28	yes	44	1	1009	0	0			0	0			1				0	
6.6.1	win	2023-06-27	02:27:37	02:33:08	326285	5eecd2e3a38fd009dd9d1f3d	4	1	main_z	7	advance_on_keypress_ZEE	82	stimuli_distractor_trianglediamonds.svg	stimuli_target_diamondsquares.svg	28	yes	57	0	359	0	0			0	0			1				0	
6.6.1	win	2023-06-27	02:27:37	02:33:10	328309	5eecd2e3a38fd009dd9d1f3d	4	1	main_z	7	main_z	83	stimuli_distractor_diamondtriangles.svg	stimuli_target_squaretriangles.svg	15	yes	44	1	1032	0	0			0	0			1				0	
6.6.1	win	2023-06-27	02:27:37	02:33:10	328309	5eecd2e3a38fd009dd9d1f3d	4	1	main_z	7	advance_on_keypress_ZEE	84	stimuli_distractor_diamondtriangles.svg	stimuli_target_squaretriangles.svg	15	yes	57	0	238	0	0			0	0			1				0	
6.6.1	win	2023-06-27	02:27:37	02:33:12	330325	5eecd2e3a38fd009dd9d1f3d	4	1	main_z	7	main_z	85	stimuli_target_rectanglediamonds.svg	stimuli_distractor_trianglediamonds.svg	2	yes	44	1	1131	0	0			0	0			1				0	
6.6.1	win	2023-06-27	02:27:37	02:33:12	330325	5eecd2e3a38fd009dd9d1f3d	4	1	main_z	7	advance_on_keypress_ZEE	86	stimuli_target_rectanglediamonds.svg	stimuli_distractor_trianglediamonds.svg	2	yes	57	0	309	0	0			0	0			1				0	
6.6.1	win	2023-06-27	02:27:37	02:33:14	332277	5eecd2e3a38fd009dd9d1f3d	4	1	main_z	7	main_z	87	stimuli_target_rectanglediamonds.svg	stimuli_distractor_diamondtriangles.svg	6	yes	44	1	1016	0	0			0	0			1				0	
6.6.1	win	2023-06-27	02:27:37	02:33:14	332277	5eecd2e3a38fd009dd9d1f3d	4	1	main_z	7	advance_on_keypress_ZEE	88	stimuli_target_rectanglediamonds.svg	stimuli_distractor_diamondtriangles.svg	6	yes	57	0	310	0	0			0	0			1				0	
6.6.1	win	2023-06-27	02:27:37	02:33:16	334317	5eecd2e3a38fd009dd9d1f3d	4	1	main_z	7	main_z	89	stimuli_distractor_diamondtriangles.svg	stimuli_target_diamondrectangles.svg	31	yes	44	1	1088	0	0			0	0			1				0	
6.6.1	win	2023-06-27	02:27:37	02:33:16	334317	5eecd2e3a38fd009dd9d1f3d	4	1	main_z	7	advance_on_keypress_ZEE	90	stimuli_distractor_diamondtriangles.svg	stimuli_target_diamondrectangles.svg	31	yes	57	0	244	0	0			0	0			1				0	
6.6.1	win	2023-06-27	02:27:37	02:33:18	336333	5eecd2e3a38fd009dd9d1f3d	4	1	main_z	7	main_z	91	stimuli_distractor_trianglediamonds.svg	stimuli_target_rectangletriangles.svg	9	yes	44	1	1137	0	0			0	0			1				0	
6.6.1	win	2023-06-27	02:27:37	02:33:18	336333	5eecd2e3a38fd009dd9d1f3d	4	1	main_z	7	advance_on_keypress_ZEE	92	stimuli_distractor_trianglediamonds.svg	stimuli_target_rectangletriangles.svg	9	yes	57	0	331	0	0			0	0			1				0	
6.6.1	win	2023-06-27	02:27:37	02:33:21	339313	5eecd2e3a38fd009dd9d1f3d	4	1	main_z	7	main_z	93	stimuli_distractor_diamondtriangles.svg	stimuli_distractor_diamondtriangles.svg	40	no	0	1	2000	0	0			0	0			1				0	
6.6.1	win	2023-06-27	02:27:37	02:33:21	339313	5eecd2e3a38fd009dd9d1f3d	4	1	main_z	7	advance_on_keypress_ZEE	94	stimuli_distractor_diamondtriangles.svg	stimuli_distractor_diamondtriangles.svg	40	no	57	0	538	0	0			0	0			1				0	
6.6.1	win	2023-06-27	02:27:37	02:33:23	341437	5eecd2e3a38fd009dd9d1f3d	4	1	main_z	7	main_z	95	stimuli_target_squaretriangles.svg	stimuli_distractor_diamondtriangles.svg	7	yes	44	1	940	0	0			0	0			1				0	
6.6.1	win	2023-06-27	02:27:37	02:33:23	341437	5eecd2e3a38fd009dd9d1f3d	4	1	main_z	7	advance_on_keypress_ZEE	96	stimuli_target_squaretriangles.svg	stimuli_distractor_diamondtriangles.svg	7	yes	57	0	773	0	0			0	0			1				0	
6.6.1	win	2023-06-27	02:27:37	02:33:26	343925	5eecd2e3a38fd009dd9d1f3d	4	1	main_z	7	main_z	97	stimuli_target_squaretriangles.svg	stimuli_distractor_trianglediamonds.svg	3	yes	44	1	1077	0	0			0	0			1				0	
6.6.1	win	2023-06-27	02:27:37	02:33:26	343925	5eecd2e3a38fd009dd9d1f3d	4	1	main_z	7	advance_on_keypress_ZEE	98	stimuli_target_squaretriangles.svg	stimuli_distractor_trianglediamonds.svg	3	yes	57	0	393	0	0			0	0			1				0	
6.6.1	win	2023-06-27	02:27:37	02:33:28	346053	5eecd2e3a38fd009dd9d1f3d	4	1	main_z	7	main_z	99	stimuli_distractor_diamondtriangles.svg	stimuli_target_diamondsquares.svg	32	yes	44	1	1104	0	0			0	0			1				0	
6.6.1	win	2023-06-27	02:27:37	02:33:28	346053	5eecd2e3a38fd009dd9d1f3d	4	1	main_z	7	advance_on_keypress_ZEE	100	stimuli_distractor_diamondtriangles.svg	stimuli_target_diamondsquares.svg	32	yes	57	0	403	0	0			0	0			1				0	
6.6.1	win	2023-06-27	02:27:37	02:33:30	348293	5eecd2e3a38fd009dd9d1f3d	4	1	main_z	7	main_z	101	stimuli_target_trianglesquares.svg	stimuli_distractor_diamondtriangles.svg	22	yes	44	1	1194	0	0			0	0			1				0	
6.6.1	win	2023-06-27	02:27:37	02:33:30	348293	5eecd2e3a38fd009dd9d1f3d	4	1	main_z	7	advance_on_keypress_ZEE	102	stimuli_target_trianglesquares.svg	stimuli_distractor_diamondtriangles.svg	22	yes	57	0	385	0	0			0	0			1				0	
6.6.1	win	2023-06-27	02:27:37	02:33:32	350509	5eecd2e3a38fd009dd9d1f3d	4	1	main_z	7	main_z	103	stimuli_distractor_diamondtriangles.svg	stimuli_target_trianglesquares.svg	30	yes	44	1	1193	0	0			0	0			1				0	
6.6.1	win	2023-06-27	02:27:37	02:33:32	350509	5eecd2e3a38fd009dd9d1f3d	4	1	main_z	7	advance_on_keypress_ZEE	104	stimuli_distractor_diamondtriangles.svg	stimuli_target_trianglesquares.svg	30	yes	57	0	384	0	0			0	0			1				0	
6.6.1	win	2023-06-27	02:27:37	02:33:34	352661	5eecd2e3a38fd009dd9d1f3d	4	1	main_z	7	main_z	105	stimuli_distractor_diamondtriangles.svg	stimuli_target_squarediamonds.svg	16	yes	44	1	1127	0	0			0	0			1				0	
6.6.1	win	2023-06-27	02:27:37	02:33:34	352661	5eecd2e3a38fd009dd9d1f3d	4	1	main_z	7	advance_on_keypress_ZEE	106	stimuli_distractor_diamondtriangles.svg	stimuli_target_squarediamonds.svg	16	yes	57	0	337	0	0			0	0			1				0	
6.6.1	win	2023-06-27	02:27:37	02:33:36	354685	5eecd2e3a38fd009dd9d1f3d	4	1	main_z	7	main_z	107	stimuli_target_squarediamonds.svg	stimuli_distractor_trianglediamonds.svg	4	yes	44	1	1051	0	0			0	0			1				0	
6.6.1	win	2023-06-27	02:27:37	02:33:36	354685	5eecd2e3a38fd009dd9d1f3d	4	1	main_z	7	advance_on_keypress_ZEE	108	stimuli_target_squarediamonds.svg	stimuli_distractor_trianglediamonds.svg	4	yes	57	0	368	0	0			0	0			1				0	
6.6.1	win	2023-06-27	02:27:37	02:33:38	356709	5eecd2e3a38fd009dd9d1f3d	4	1	main_z	7	main_z	109	stimuli_distractor_diamondtriangles.svg	stimuli_target_rectangletriangles.svg	13	yes	44	1	1007	0	0			0	0			1				0	
6.6.1	win	2023-06-27	02:27:37	02:33:38	356709	5eecd2e3a38fd009dd9d1f3d	4	1	main_z	7	advance_on_keypress_ZEE	110	stimuli_distractor_diamondtriangles.svg	stimuli_target_rectangletriangles.svg	13	yes	57	0	374	0	0			0	0			1				0	
6.6.1	win	2023-06-27	02:27:37	02:33:41	359589	5eecd2e3a38fd009dd9d1f3d	4	1	main_z	7	main_z	111	stimuli_target_diamondsquares.svg	stimuli_distractor_trianglediamonds.svg	20	yes	44	1	1870	0	0			0	0			1				0	
6.6.1	win	2023-06-27	02:27:37	02:33:41	359589	5eecd2e3a38fd009dd9d1f3d	4	1	main_z	7	advance_on_keypress_ZEE	112	stimuli_target_diamondsquares.svg	stimuli_distractor_trianglediamonds.svg	20	yes	57	0	594	0	0			0	0			1				0	
6.6.1	win	2023-06-27	02:27:37	02:33:44	362820	5eecd2e3a38fd009dd9d1f3d	4	1	main_z	7	main_z	113	stimuli_distractor_trianglediamonds.svg	stimuli_distractor_diamondtriangles.svg	36	no	0	1	2000	0	0			0	0			1				0	
6.6.1	win	2023-06-27	02:27:37	02:33:44	362820	5eecd2e3a38fd009dd9d1f3d	4	1	main_z	7	advance_on_keypress_ZEE	114	stimuli_distractor_trianglediamonds.svg	stimuli_distractor_diamondtriangles.svg	36	no	57	0	904	0	0			0	0			1				0	
6.6.1	win	2023-06-27	02:27:37	02:33:48	366371	5eecd2e3a38fd009dd9d1f3d	4	1	main_z	7	main_z	115	stimuli_distractor_diamondtriangles.svg	stimuli_distractor_diamondtriangles.svg	39	no	0	1	2000	0	0			0	0			1				0	
6.6.1	win	2023-06-27	02:27:37	02:33:48	366371	5eecd2e3a38fd009dd9d1f3d	4	1	main_z	7	advance_on_keypress_ZEE	116	stimuli_distractor_diamondtriangles.svg	stimuli_distractor_diamondtriangles.svg	39	no	57	0	497	0	0			0	0			1				0	
6.6.1	win	2023-06-27	02:27:37	02:33:50	368565	5eecd2e3a38fd009dd9d1f3d	4	1	main_z	7	main_z	117	stimuli_target_rectangletriangles.svg	stimuli_distractor_trianglediamonds.svg	1	yes	44	1	1043	0	0			0	0			1				0	
6.6.1	win	2023-06-27	02:27:37	02:33:50	368565	5eecd2e3a38fd009dd9d1f3d	4	1	main_z	7	advance_on_keypress_ZEE	118	stimuli_target_rectangletriangles.svg	stimuli_distractor_trianglediamonds.svg	1	yes	57	0	393	0	0			0	0			1				0	
6.6.1	win	2023-06-27	02:27:37	02:33:53	370933	5eecd2e3a38fd009dd9d1f3d	4	1	main_z	7	main_z	119	stimuli_target_diamondrectangles.svg	stimuli_distractor_trianglediamonds.svg	19	yes	44	1	1344	0	0			0	0			1				0	
6.6.1	win	2023-06-27	02:27:37	02:33:53	370933	5eecd2e3a38fd009dd9d1f3d	4	1	main_z	7	advance_on_keypress_ZEE	120	stimuli_target_diamondrectangles.svg	stimuli_distractor_trianglediamonds.svg	19	yes	57	0	450	0	0			0	0			1				0	
6.6.1	win	2023-06-27	02:27:37	02:33:55	373117	5eecd2e3a38fd009dd9d1f3d	4	1	main_z	7	main_z	121	stimuli_distractor_trianglediamonds.svg	stimuli_target_squaretriangles.svg	11	yes	44	1	1094	0	0			0	0			1				0	
6.6.1	win	2023-06-27	02:27:37	02:33:55	373117	5eecd2e3a38fd009dd9d1f3d	4	1	main_z	7	advance_on_keypress_ZEE	122	stimuli_distractor_trianglediamonds.svg	stimuli_target_squaretriangles.svg	11	yes	57	0	266	0	0			0	0			1				0	
6.6.1	win	2023-06-27	02:27:37	02:33:57	375541	5eecd2e3a38fd009dd9d1f3d	4	1	main_z	7	main_z	123	stimuli_distractor_trianglediamonds.svg	stimuli_distractor_trianglediamonds.svg	33	no	44	0	1518	0	0			0	0			1				0	
6.6.1	win	2023-06-27	02:27:37	02:33:57	375541	5eecd2e3a38fd009dd9d1f3d	4	1	main_z	7	advance_on_keypress_ZEE	124	stimuli_distractor_trianglediamonds.svg	stimuli_distractor_trianglediamonds.svg	33	no	57	0	280	0	0			0	0			1				0	
6.6.1	win	2023-06-27	02:27:37	02:33:59	377525	5eecd2e3a38fd009dd9d1f3d	4	1	main_z	7	main_z	125	stimuli_distractor_trianglediamonds.svg	stimuli_target_rectanglediamonds.svg	10	yes	44	1	1068	0	0			0	0			1				0	
6.6.1	win	2023-06-27	02:27:37	02:33:59	377525	5eecd2e3a38fd009dd9d1f3d	4	1	main_z	7	advance_on_keypress_ZEE	126	stimuli_distractor_trianglediamonds.svg	stimuli_target_rectanglediamonds.svg	10	yes	57	0	352	0	0			0	0			1				0	
6.6.1	win	2023-06-27	02:27:37	02:34:02	380524	5eecd2e3a38fd009dd9d1f3d	4	1	main_z	7	main_z	127	stimuli_target_squarediamonds.svg	stimuli_distractor_diamondtriangles.svg	8	yes	0	0	2000	0	0			0	0			1				0	
6.6.1	win	2023-06-27	02:27:37	02:34:02	380524	5eecd2e3a38fd009dd9d1f3d	4	1	main_z	7	advance_on_keypress_ZEE	128	stimuli_target_squarediamonds.svg	stimuli_distractor_diamondtriangles.svg	8	yes	57	0	535	0	0			0	0			1				0	
6.6.1	win	2023-06-27	02:27:37	02:34:04	382645	5eecd2e3a38fd009dd9d1f3d	4	1	main_z	7	main_z	129	stimuli_target_trianglerectangles.svg	stimuli_distractor_diamondtriangles.svg	21	yes	44	1	936	0	0			0	0			1				0	
6.6.1	win	2023-06-27	02:27:37	02:34:04	382645	5eecd2e3a38fd009dd9d1f3d	4	1	main_z	7	advance_on_keypress_ZEE	130	stimuli_target_trianglerectangles.svg	stimuli_distractor_diamondtriangles.svg	21	yes	57	0	506	0	0			0	0			1				0	
6.6.1	win	2023-06-27	02:27:37	02:34:07	385793	5eecd2e3a38fd009dd9d1f3d	4	1	main_z	7	main_z	131	stimuli_distractor_diamondtriangles.svg	stimuli_distractor_trianglediamonds.svg	37	no	0	1	2000	0	0			0	0			1				0	
6.6.1	win	2023-06-27	02:27:37	02:34:07	385793	5eecd2e3a38fd009dd9d1f3d	4	1	main_z	7	advance_on_keypress_ZEE	132	stimuli_distractor_diamondtriangles.svg	stimuli_distractor_trianglediamonds.svg	37	no	57	0	539	0	0			0	0			1				0	
6.6.1	win	2023-06-27	02:27:37	02:34:10	387965	5eecd2e3a38fd009dd9d1f3d	4	1	main_z	7	main_z	133	stimuli_distractor_trianglediamonds.svg	stimuli_target_squarediamonds.svg	12	yes	44	1	988	0	0			0	0			1				0	
6.6.1	win	2023-06-27	02:27:37	02:34:10	387965	5eecd2e3a38fd009dd9d1f3d	4	1	main_z	7	advance_on_keypress_ZEE	134	stimuli_distractor_trianglediamonds.svg	stimuli_target_squarediamonds.svg	12	yes	57	0	380	0	0			0	0			1				0	
6.6.1	win	2023-06-27	02:27:37	02:34:12	390317	5eecd2e3a38fd009dd9d1f3d	4	1	main_z	7	main_z	135	stimuli_distractor_trianglediamonds.svg	stimuli_target_diamondrectangles.svg	27	yes	44	1	1339	0	0			0	0			1				0	
6.6.1	win	2023-06-27	02:27:37	02:34:12	390317	5eecd2e3a38fd009dd9d1f3d	4	1	main_z	7	advance_on_keypress_ZEE	136	stimuli_distractor_trianglediamonds.svg	stimuli_target_diamondrectangles.svg	27	yes	57	0	453	0	0			0	0			1				0	
6.6.1	win	2023-06-27	02:27:37	02:34:14	392781	5eecd2e3a38fd009dd9d1f3d	4	1	main_z	7	main_z	137	stimuli_target_diamondrectangles.svg	stimuli_distractor_diamondtriangles.svg	23	yes	44	1	1369	0	0			0	0			1				0	
6.6.1	win	2023-06-27	02:27:37	02:34:14	392781	5eecd2e3a38fd009dd9d1f3d	4	1	main_z	7	advance_on_keypress_ZEE	138	stimuli_target_diamondrectangles.svg	stimuli_distractor_diamondtriangles.svg	23	yes	57	0	362	0	0			0	0			1				0	
6.6.1	win	2023-06-27	02:27:37	02:34:17	395779	5eecd2e3a38fd009dd9d1f3d	4	1	main_z	7	main_z	139	stimuli_distractor_trianglediamonds.svg	stimuli_distractor_trianglediamonds.svg	34	no	0	1	2000	0	0			0	0			1				0	
6.6.1	win	2023-06-27	02:27:37	02:34:17	395779	5eecd2e3a38fd009dd9d1f3d	4	1	main_z	7	advance_on_keypress_ZEE	140	stimuli_distractor_trianglediamonds.svg	stimuli_distractor_trianglediamonds.svg	34	no	57	0	697	0	0			0	0			1				0	
6.6.1	win	2023-06-27	02:27:37	02:34:21	399113	5eecd2e3a38fd009dd9d1f3d	4	1	main_z	7	main_z	141	stimuli_distractor_diamondtriangles.svg	stimuli_distractor_trianglediamonds.svg	38	no	0	1	2000	0	0			0	0			1				0	
6.6.1	win	2023-06-27	02:27:37	02:34:21	399113	5eecd2e3a38fd009dd9d1f3d	4	1	main_z	7	advance_on_keypress_ZEE	142	stimuli_distractor_diamondtriangles.svg	stimuli_distractor_trianglediamonds.svg	38	no	57	0	498	0	0			0	0			1				0	
6.6.1	win	2023-06-27	02:27:37	02:34:23	401445	5eecd2e3a38fd009dd9d1f3d	4	1	main_z	7	main_z	143	stimuli_distractor_trianglediamonds.svg	stimuli_target_trianglesquares.svg	26	yes	44	1	1181	0	0			0	0			1				0	
6.6.1	win	2023-06-27	02:27:37	02:34:23	401445	5eecd2e3a38fd009dd9d1f3d	4	1	main_z	7	advance_on_keypress_ZEE	144	stimuli_distractor_trianglediamonds.svg	stimuli_target_trianglesquares.svg	26	yes	57	0	309	0	0			0	0			1				0	
6.6.1	win	2023-06-27	02:27:37	02:34:25	403805	5eecd2e3a38fd009dd9d1f3d	4	1	main_z	7	main_z	145	stimuli_distractor_trianglediamonds.svg	stimuli_distractor_diamondtriangles.svg	35	no	44	0	1424	0	0			0	0			1				0	
6.6.1	win	2023-06-27	02:27:37	02:34:25	403805	5eecd2e3a38fd009dd9d1f3d	4	1	main_z	7	advance_on_keypress_ZEE	146	stimuli_distractor_trianglediamonds.svg	stimuli_distractor_diamondtriangles.svg	35	no	57	0	262	0	0			0	0			1				0	
6.6.1	win	2023-06-27	02:27:37	02:34:27	405789	5eecd2e3a38fd009dd9d1f3d	4	1	main_z	7	main_z	147	stimuli_target_trianglerectangles.svg	stimuli_distractor_trianglediamonds.svg	17	yes	44	1	1090	0	0			0	0			1				0	
6.6.1	win	2023-06-27	02:27:37	02:34:27	405789	5eecd2e3a38fd009dd9d1f3d	4	1	main_z	7	advance_on_keypress_ZEE	148	stimuli_target_trianglerectangles.svg	stimuli_distractor_trianglediamonds.svg	17	yes	57	0	286	0	0			0	0			1				0	
6.6.1	win	2023-06-27	02:27:37	02:34:29	407725	5eecd2e3a38fd009dd9d1f3d	4	1	main_z	7	main_z	149	stimuli_distractor_trianglediamonds.svg	stimuli_target_trianglerectangles.svg	25	yes	44	1	1009	0	0			0	0			1				0	
6.6.1	win	2023-06-27	02:27:37	02:34:29	407725	5eecd2e3a38fd009dd9d1f3d	4	1	main_z	7	advance_on_keypress_ZEE	150	stimuli_distractor_trianglediamonds.svg	stimuli_target_trianglerectangles.svg	25	yes	57	0	272	0	0			0	0			1				0	
6.6.1	win	2023-06-27	02:27:37	02:34:31	409629	5eecd2e3a38fd009dd9d1f3d	4	1	main_z	7	main_z	151	stimuli_distractor_diamondtriangles.svg	stimuli_target_trianglerectangles.svg	29	yes	44	1	996	0	0			0	0			1				0	
6.6.1	win	2023-06-27	02:27:37	02:34:31	409629	5eecd2e3a38fd009dd9d1f3d	4	1	main_z	7	advance_on_keypress_ZEE	152	stimuli_distractor_diamondtriangles.svg	stimuli_target_trianglerectangles.svg	29	yes	57	0	292	0	0			0	0			1				0	
6.6.1	win	2023-06-27	02:27:37	02:34:33	411629	5eecd2e3a38fd009dd9d1f3d	4	1	main_z	7	main_z	153	stimuli_target_trianglesquares.svg	stimuli_distractor_trianglediamonds.svg	18	yes	44	1	1079	0	0			0	0			1				0	
6.6.1	win	2023-06-27	02:27:37	02:34:33	411629	5eecd2e3a38fd009dd9d1f3d	4	1	main_z	7	advance_on_keypress_ZEE	154	stimuli_target_trianglesquares.svg	stimuli_distractor_trianglediamonds.svg	18	yes	57	0	275	0	0			0	0			1				0	
6.6.1	win	2023-06-27	02:27:37	02:34:35	413613	5eecd2e3a38fd009dd9d1f3d	4	1	main_z	7	main_z	155	stimuli_target_diamondsquares.svg	stimuli_distractor_diamondtriangles.svg	24	yes	44	1	1079	0	0			0	0			1				0	
6.6.1	win	2023-06-27	02:27:37	02:34:35	413613	5eecd2e3a38fd009dd9d1f3d	4	1	main_z	7	advance_on_keypress_ZEE	156	stimuli_target_diamondsquares.svg	stimuli_distractor_diamondtriangles.svg	24	yes	57	0	275	0	0			0	0			1				0	
6.6.1	win	2023-06-27	02:27:37	02:34:37	415461	5eecd2e3a38fd009dd9d1f3d	4	1	main_z	7	main_z	157	stimuli_distractor_diamondtriangles.svg	stimuli_target_rectanglediamonds.svg	14	yes	44	1	943	0	0			0	0			1				0	
6.6.1	win	2023-06-27	02:27:37	02:34:37	415461	5eecd2e3a38fd009dd9d1f3d	4	1	main_z	7	advance_on_keypress_ZEE	158	stimuli_distractor_diamondtriangles.svg	stimuli_target_rectanglediamonds.svg	14	yes	57	0	305	0	0			0	0			1				0	
6.6.1	win	2023-06-27	02:27:37	02:34:39	417341	5eecd2e3a38fd009dd9d1f3d	4	1	main_z	7	main_z	159	stimuli_target_rectangletriangles.svg	stimuli_distractor_diamondtriangles.svg	5	yes	44	1	939	0	0			0	0			1				0	
6.6.1	win	2023-06-27	02:27:37	02:34:39	417341	5eecd2e3a38fd009dd9d1f3d	4	1	main_z	7	advance_on_keypress_ZEE	160	stimuli_target_rectangletriangles.svg	stimuli_distractor_diamondtriangles.svg	5	yes	57	0	309	0	0			0	0			1				0	
6.6.1	win	2023-06-27	02:27:37	02:35:05	443150	5eecd2e3a38fd009dd9d1f3d	4	1	practice_slash	9	practice_slash	1	stimuli_distractor_diamondtriangles.svg	stimuli_target_trianglerectangles.svg	9	yes	53	1	1007	0	0			0	0			1				0	
6.6.1	win	2023-06-27	02:27:37	02:35:05	443150	5eecd2e3a38fd009dd9d1f3d	4	1	practice_slash	9	advance_on_keypress_SLASH	2	stimuli_distractor_diamondtriangles.svg	stimuli_target_trianglerectangles.svg	9	yes	57	0	542	0	0			0	0			1				0	
6.6.1	win	2023-06-27	02:27:37	02:35:08	445869	5eecd2e3a38fd009dd9d1f3d	4	1	practice_slash	9	practice_slash	3	stimuli_distractor_diamondtriangles.svg	stimuli_target_diamondrectangles.svg	8	yes	53	1	543	0	0			0	0			1				0	
6.6.1	win	2023-06-27	02:27:37	02:35:08	445869	5eecd2e3a38fd009dd9d1f3d	4	1	practice_slash	9	advance_on_keypress_SLASH	4	stimuli_distractor_diamondtriangles.svg	stimuli_target_diamondrectangles.svg	8	yes	57	0	360	0	0			0	0			1				0	
6.6.1	win	2023-06-27	02:27:37	02:35:12	449861	5eecd2e3a38fd009dd9d1f3d	4	1	practice_slash	9	practice_slash	5	stimuli_distractor_trianglediamonds.svg	stimuli_distractor_trianglediamonds.svg	15	no	0	1	2000	0	0			0	0			1				0	
6.6.1	win	2023-06-27	02:27:37	02:35:12	449861	5eecd2e3a38fd009dd9d1f3d	4	1	practice_slash	9	advance_on_keypress_SLASH	6	stimuli_distractor_trianglediamonds.svg	stimuli_distractor_trianglediamonds.svg	15	no	57	0	503	0	0			0	0			1				0	
6.6.1	win	2023-06-27	02:27:37	02:35:16	454013	5eecd2e3a38fd009dd9d1f3d	4	1	practice_slash	9	practice_slash	7	stimuli_distractor_diamondtriangles.svg	stimuli_distractor_trianglediamonds.svg	14	no	0	1	2000	0	0			0	0			1				0	
6.6.1	win	2023-06-27	02:27:37	02:35:16	454013	5eecd2e3a38fd009dd9d1f3d	4	1	practice_slash	9	advance_on_keypress_SLASH	8	stimuli_distractor_diamondtriangles.svg	stimuli_distractor_trianglediamonds.svg	14	no	57	0	584	0	0			0	0			1				0	
6.6.1	win	2023-06-27	02:27:37	02:35:19	457030	5eecd2e3a38fd009dd9d1f3d	4	1	practice_slash	9	practice_slash	9	stimuli_distractor_trianglediamonds.svg	stimuli_target_rectanglediamonds.svg	10	yes	53	1	783	0	0			0	0			1				0	
6.6.1	win	2023-06-27	02:27:37	02:35:19	457030	5eecd2e3a38fd009dd9d1f3d	4	1	practice_slash	9	advance_on_keypress_SLASH	10	stimuli_distractor_trianglediamonds.svg	stimuli_target_rectanglediamonds.svg	10	yes	57	0	430	0	0			0	0			1				0	
6.6.1	win	2023-06-27	02:27:37	02:35:21	459718	5eecd2e3a38fd009dd9d1f3d	4	1	practice_slash	9	practice_slash	11	stimuli_target_rectanglediamonds.svg	stimuli_distractor_diamondtriangles.svg	1	yes	53	1	603	0	0			0	0			1				0	
6.6.1	win	2023-06-27	02:27:37	02:35:21	459718	5eecd2e3a38fd009dd9d1f3d	4	1	practice_slash	9	advance_on_keypress_SLASH	12	stimuli_target_rectanglediamonds.svg	stimuli_distractor_diamondtriangles.svg	1	yes	57	0	610	0	0			0	0			1				0	
6.6.1	win	2023-06-27	02:27:37	02:35:24	462445	5eecd2e3a38fd009dd9d1f3d	4	1	practice_slash	9	practice_slash	13	stimuli_distractor_diamondtriangles.svg	stimuli_target_rectangletriangles.svg	7	yes	53	1	481	0	0			0	0			1				0	
6.6.1	win	2023-06-27	02:27:37	02:35:24	462445	5eecd2e3a38fd009dd9d1f3d	4	1	practice_slash	9	advance_on_keypress_SLASH	14	stimuli_distractor_diamondtriangles.svg	stimuli_target_rectangletriangles.svg	7	yes	57	0	493	0	0			0	0			1				0	
6.6.1	win	2023-06-27	02:27:37	02:35:27	465022	5eecd2e3a38fd009dd9d1f3d	4	1	practice_slash	9	practice_slash	15	stimuli_distractor_trianglediamonds.svg	stimuli_target_squarediamonds.svg	11	yes	53	1	456	0	0			0	0			1				0	
6.6.1	win	2023-06-27	02:27:37	02:35:27	465022	5eecd2e3a38fd009dd9d1f3d	4	1	practice_slash	9	advance_on_keypress_SLASH	16	stimuli_distractor_trianglediamonds.svg	stimuli_target_squarediamonds.svg	11	yes	57	0	477	0	0			0	0			1				0	
6.6.1	win	2023-06-27	02:27:37	02:35:29	467534	5eecd2e3a38fd009dd9d1f3d	4	1	practice_slash	9	practice_slash	17	stimuli_target_squarediamonds.svg	stimuli_distractor_trianglediamonds.svg	5	yes	53	1	401	0	0			0	0			1				0	
6.6.1	win	2023-06-27	02:27:37	02:35:29	467534	5eecd2e3a38fd009dd9d1f3d	4	1	practice_slash	9	advance_on_keypress_SLASH	18	stimuli_target_squarediamonds.svg	stimuli_distractor_trianglediamonds.svg	5	yes	57	0	463	0	0			0	0			1				0	
6.6.1	win	2023-06-27	02:27:37	02:35:32	470118	5eecd2e3a38fd009dd9d1f3d	4	1	practice_slash	9	practice_slash	19	stimuli_target_squarediamonds.svg	stimuli_distractor_diamondtriangles.svg	2	yes	53	1	467	0	0			0	0			1				0	
6.6.1	win	2023-06-27	02:27:37	02:35:32	470118	5eecd2e3a38fd009dd9d1f3d	4	1	practice_slash	9	advance_on_keypress_SLASH	20	stimuli_target_squarediamonds.svg	stimuli_distractor_diamondtriangles.svg	2	yes	57	0	463	0	0			0	0			1				0	
6.6.1	win	2023-06-27	02:27:37	02:35:36	474235	5eecd2e3a38fd009dd9d1f3d	4	1	practice_slash	9	practice_slash	21	stimuli_distractor_trianglediamonds.svg	stimuli_distractor_diamondtriangles.svg	16	no	0	1	2000	0	0			0	0			1				0	
6.6.1	win	2023-06-27	02:27:37	02:35:36	474235	5eecd2e3a38fd009dd9d1f3d	4	1	practice_slash	9	advance_on_keypress_SLASH	22	stimuli_distractor_trianglediamonds.svg	stimuli_distractor_diamondtriangles.svg	16	no	57	0	626	0	0			0	0			1				0	
6.6.1	win	2023-06-27	02:27:37	02:35:39	477398	5eecd2e3a38fd009dd9d1f3d	4	1	practice_slash	9	practice_slash	23	stimuli_target_diamondsquares.svg	stimuli_distractor_trianglediamonds.svg	6	yes	53	1	895	0	0			0	0			1				0	
6.6.1	win	2023-06-27	02:27:37	02:35:39	477398	5eecd2e3a38fd009dd9d1f3d	4	1	practice_slash	9	advance_on_keypress_SLASH	24	stimuli_target_diamondsquares.svg	stimuli_distractor_trianglediamonds.svg	6	yes	57	0	451	0	0			0	0			1				0	
6.6.1	win	2023-06-27	02:27:37	02:35:42	479966	5eecd2e3a38fd009dd9d1f3d	4	1	practice_slash	9	practice_slash	25	stimuli_target_rectanglediamonds.svg	stimuli_distractor_trianglediamonds.svg	4	yes	53	1	479	0	0			0	0			1				0	
6.6.1	win	2023-06-27	02:27:37	02:35:42	479966	5eecd2e3a38fd009dd9d1f3d	4	1	practice_slash	9	advance_on_keypress_SLASH	26	stimuli_target_rectanglediamonds.svg	stimuli_distractor_trianglediamonds.svg	4	yes	57	0	355	0	0			0	0			1				0	
6.6.1	win	2023-06-27	02:27:37	02:35:44	482558	5eecd2e3a38fd009dd9d1f3d	4	1	practice_slash	9	practice_slash	27	stimuli_target_diamondsquares.svg	stimuli_distractor_diamondtriangles.svg	3	yes	53	1	604	0	0			0	0			1				0	
6.6.1	win	2023-06-27	02:27:37	02:35:44	482558	5eecd2e3a38fd009dd9d1f3d	4	1	practice_slash	9	advance_on_keypress_SLASH	28	stimuli_target_diamondsquares.svg	stimuli_distractor_diamondtriangles.svg	3	yes	57	0	459	0	0			0	0			1				0	
6.6.1	win	2023-06-27	02:27:37	02:35:47	485302	5eecd2e3a38fd009dd9d1f3d	4	1	practice_slash	9	practice_slash	29	stimuli_distractor_trianglediamonds.svg	stimuli_target_diamondrectangles.svg	12	yes	53	1	647	0	0			0	0			1				0	
6.6.1	win	2023-06-27	02:27:37	02:35:47	485302	5eecd2e3a38fd009dd9d1f3d	4	1	practice_slash	9	advance_on_keypress_SLASH	30	stimuli_distractor_trianglediamonds.svg	stimuli_target_diamondrectangles.svg	12	yes	57	0	420	0	0			0	0			1				0	
6.6.1	win	2023-06-27	02:27:37	02:35:51	489372	5eecd2e3a38fd009dd9d1f3d	4	1	practice_slash	9	practice_slash	31	stimuli_distractor_diamondtriangles.svg	stimuli_distractor_diamondtriangles.svg	13	no	0	1	2000	0	0			0	0			1				0	
6.6.1	win	2023-06-27	02:27:37	02:35:51	489372	5eecd2e3a38fd009dd9d1f3d	4	1	practice_slash	9	advance_on_keypress_SLASH	32	stimuli_distractor_diamondtriangles.svg	stimuli_distractor_diamondtriangles.svg	13	no	57	0	504	0	0			0	0			1				0	
6.6.1	win	2023-06-27	02:27:37	02:36:00	498021	5eecd2e3a38fd009dd9d1f3d	4	1	main_slash	11	main_slash	1	stimuli_target_trianglerectangles.svg	stimuli_distractor_trianglediamonds.svg	17	yes	53	1	697	0	0			0	0			1				0	
6.6.1	win	2023-06-27	02:27:37	02:36:00	498021	5eecd2e3a38fd009dd9d1f3d	4	1	main_slash	11	advance_on_keypress_SLASH	2	stimuli_target_trianglerectangles.svg	stimuli_distractor_trianglediamonds.svg	17	yes	57	0	628	0	0			0	0			1				0	
6.6.1	win	2023-06-27	02:27:37	02:36:02	499997	5eecd2e3a38fd009dd9d1f3d	4	1	main_slash	11	main_slash	3	stimuli_distractor_diamondtriangles.svg	stimuli_target_squaretriangles.svg	15	yes	53	1	705	0	0			0	0			1				0	
6.6.1	win	2023-06-27	02:27:37	02:36:02	499997	5eecd2e3a38fd009dd9d1f3d	4	1	main_slash	11	advance_on_keypress_SLASH	4	stimuli_distractor_diamondtriangles.svg	stimuli_target_squaretriangles.svg	15	yes	57	0	364	0	0			0	0			1				0	
6.6.1	win	2023-06-27	02:27:37	02:36:03	501565	5eecd2e3a38fd009dd9d1f3d	4	1	main_slash	11	main_slash	5	stimuli_distractor_trianglediamonds.svg	stimuli_target_rectangletriangles.svg	9	yes	53	1	556	0	0			0	0			1				0	
6.6.1	win	2023-06-27	02:27:37	02:36:03	501565	5eecd2e3a38fd009dd9d1f3d	4	1	main_slash	11	advance_on_keypress_SLASH	6	stimuli_distractor_trianglediamonds.svg	stimuli_target_rectangletriangles.svg	9	yes	57	0	389	0	0			0	0			1				0	
6.6.1	win	2023-06-27	02:27:37	02:36:05	503133	5eecd2e3a38fd009dd9d1f3d	4	1	main_slash	11	main_slash	7	stimuli_distractor_diamondtriangles.svg	stimuli_target_squarediamonds.svg	16	yes	53	1	540	0	0			0	0			1				0	
6.6.1	win	2023-06-27	02:27:37	02:36:05	503133	5eecd2e3a38fd009dd9d1f3d	4	1	main_slash	11	advance_on_keypress_SLASH	8	stimuli_distractor_diamondtriangles.svg	stimuli_target_squarediamonds.svg	16	yes	57	0	326	0	0			0	0			1				0	
6.6.1	win	2023-06-27	02:27:37	02:36:06	504549	5eecd2e3a38fd009dd9d1f3d	4	1	main_slash	11	main_slash	9	stimuli_target_rectanglediamonds.svg	stimuli_distractor_diamondtriangles.svg	6	yes	53	1	456	0	0			0	0			1				0	
6.6.1	win	2023-06-27	02:27:37	02:36:06	504549	5eecd2e3a38fd009dd9d1f3d	4	1	main_slash	11	advance_on_keypress_SLASH	10	stimuli_target_rectanglediamonds.svg	stimuli_distractor_diamondtriangles.svg	6	yes	57	0	389	0	0			0	0			1				0	
6.6.1	win	2023-06-27	02:27:37	02:36:08	506253	5eecd2e3a38fd009dd9d1f3d	4	1	main_slash	11	main_slash	11	stimuli_distractor_diamondtriangles.svg	stimuli_target_diamondrectangles.svg	31	yes	53	1	676	0	0			0	0			1				0	
6.6.1	win	2023-06-27	02:27:37	02:36:08	506253	5eecd2e3a38fd009dd9d1f3d	4	1	main_slash	11	advance_on_keypress_SLASH	12	stimuli_distractor_diamondtriangles.svg	stimuli_target_diamondrectangles.svg	31	yes	57	0	392	0	0			0	0			1				0	
6.6.1	win	2023-06-27	02:27:37	02:36:11	509277	5eecd2e3a38fd009dd9d1f3d	4	1	main_slash	11	main_slash	13	stimuli_target_squaretriangles.svg	stimuli_distractor_trianglediamonds.svg	3	yes	0	0	2000	0	0			0	0			1				0	
6.6.1	win	2023-06-27	02:27:37	02:36:11	509277	5eecd2e3a38fd009dd9d1f3d	4	1	main_slash	11	advance_on_keypress_SLASH	14	stimuli_target_squaretriangles.svg	stimuli_distractor_trianglediamonds.svg	3	yes	57	0	350	0	0			0	0			1				0	
6.6.1	win	2023-06-27	02:27:37	02:36:12	510797	5eecd2e3a38fd009dd9d1f3d	4	1	main_slash	11	main_slash	15	stimuli_distractor_trianglediamonds.svg	stimuli_target_trianglerectangles.svg	25	yes	53	1	519	0	0			0	0			1				0	
6.6.1	win	2023-06-27	02:27:37	02:36:12	510797	5eecd2e3a38fd009dd9d1f3d	4	1	main_slash	11	advance_on_keypress_SLASH	16	stimuli_distractor_trianglediamonds.svg	stimuli_target_trianglerectangles.svg	25	yes	57	0	417	0	0			0	0			1				0	
6.6.1	win	2023-06-27	02:27:37	02:36:14	512341	5eecd2e3a38fd009dd9d1f3d	4	1	main_slash	11	main_slash	17	stimuli_target_diamondsquares.svg	stimuli_distractor_diamondtriangles.svg	24	yes	53	1	479	0	0			0	0			1				0	
6.6.1	win	2023-06-27	02:27:37	02:36:14	512341	5eecd2e3a38fd009dd9d1f3d	4	1	main_slash	11	advance_on_keypress_SLASH	18	stimuli_target_diamondsquares.svg	stimuli_distractor_diamondtriangles.svg	24	yes	57	0	340	0	0			0	0			1				0	
6.6.1	win	2023-06-27	02:27:37	02:36:15	513749	5eecd2e3a38fd009dd9d1f3d	4	1	main_slash	11	main_slash	19	stimuli_target_diamondrectangles.svg	stimuli_distractor_trianglediamonds.svg	19	yes	53	1	437	0	0			0	0			1				0	
6.6.1	win	2023-06-27	02:27:37	02:36:15	513749	5eecd2e3a38fd009dd9d1f3d	4	1	main_slash	11	advance_on_keypress_SLASH	20	stimuli_target_diamondrectangles.svg	stimuli_distractor_trianglediamonds.svg	19	yes	57	0	379	0	0			0	0			1				0	
6.6.1	win	2023-06-27	02:27:37	02:36:17	515237	5eecd2e3a38fd009dd9d1f3d	4	1	main_slash	11	main_slash	21	stimuli_distractor_trianglediamonds.svg	stimuli_target_diamondsquares.svg	28	yes	53	1	474	0	0			0	0			1				0	
6.6.1	win	2023-06-27	02:27:37	02:36:17	515237	5eecd2e3a38fd009dd9d1f3d	4	1	main_slash	11	advance_on_keypress_SLASH	22	stimuli_distractor_trianglediamonds.svg	stimuli_target_diamondsquares.svg	28	yes	57	0	319	0	0			0	0			1				0	
6.6.1	win	2023-06-27	02:27:37	02:36:18	516757	5eecd2e3a38fd009dd9d1f3d	4	1	main_slash	11	main_slash	23	stimuli_distractor_diamondtriangles.svg	stimuli_target_diamondsquares.svg	32	yes	53	1	561	0	0			0	0			1				0	
6.6.1	win	2023-06-27	02:27:37	02:36:18	516757	5eecd2e3a38fd009dd9d1f3d	4	1	main_slash	11	advance_on_keypress_SLASH	24	stimuli_distractor_diamondtriangles.svg	stimuli_target_diamondsquares.svg	32	yes	57	0	282	0	0			0	0			1				0	
6.6.1	win	2023-06-27	02:27:37	02:36:21	519680	5eecd2e3a38fd009dd9d1f3d	4	1	main_slash	11	main_slash	25	stimuli_distractor_diamondtriangles.svg	stimuli_distractor_trianglediamonds.svg	37	no	0	1	2000	0	0			0	0			1				0	
6.6.1	win	2023-06-27	02:27:37	02:36:21	519680	5eecd2e3a38fd009dd9d1f3d	4	1	main_slash	11	advance_on_keypress_SLASH	26	stimuli_distractor_diamondtriangles.svg	stimuli_distractor_trianglediamonds.svg	37	no	57	0	371	0	0			0	0			1				0	
6.6.1	win	2023-06-27	02:27:37	02:36:23	521037	5eecd2e3a38fd009dd9d1f3d	4	1	main_slash	11	main_slash	27	stimuli_distractor_diamondtriangles.svg	stimuli_target_trianglerectangles.svg	29	yes	53	1	339	0	0			0	0			1				0	
6.6.1	win	2023-06-27	02:27:37	02:36:23	521037	5eecd2e3a38fd009dd9d1f3d	4	1	main_slash	11	advance_on_keypress_SLASH	28	stimuli_distractor_diamondtriangles.svg	stimuli_target_trianglerectangles.svg	29	yes	57	0	445	0	0			0	0			1				0	
6.6.1	win	2023-06-27	02:27:37	02:36:24	522461	5eecd2e3a38fd009dd9d1f3d	4	1	main_slash	11	main_slash	29	stimuli_distractor_trianglediamonds.svg	stimuli_target_diamondrectangles.svg	27	yes	53	1	346	0	0			0	0			1				0	
6.6.1	win	2023-06-27	02:27:37	02:36:24	522461	5eecd2e3a38fd009dd9d1f3d	4	1	main_slash	11	advance_on_keypress_SLASH	30	stimuli_distractor_trianglediamonds.svg	stimuli_target_diamondrectangles.svg	27	yes	57	0	284	0	0			0	0			1				0	
6.6.1	win	2023-06-27	02:27:37	02:36:26	523837	5eecd2e3a38fd009dd9d1f3d	4	1	main_slash	11	main_slash	31	stimuli_target_trianglesquares.svg	stimuli_distractor_diamondtriangles.svg	22	yes	53	1	455	0	0			0	0			1				0	
6.6.1	win	2023-06-27	02:27:37	02:36:26	523837	5eecd2e3a38fd009dd9d1f3d	4	1	main_slash	11	advance_on_keypress_SLASH	32	stimuli_target_trianglesquares.svg	stimuli_distractor_diamondtriangles.svg	22	yes	57	0	268	0	0			0	0			1				0	
6.6.1	win	2023-06-27	02:27:37	02:36:27	525132	5eecd2e3a38fd009dd9d1f3d	4	1	main_slash	11	main_slash	33	stimuli_target_diamondsquares.svg	stimuli_distractor_trianglediamonds.svg	20	yes	53	1	368	0	0			0	0			1				0	
6.6.1	win	2023-06-27	02:27:37	02:36:27	525132	5eecd2e3a38fd009dd9d1f3d	4	1	main_slash	11	advance_on_keypress_SLASH	34	stimuli_target_diamondsquares.svg	stimuli_distractor_trianglediamonds.svg	20	yes	57	0	232	0	0			0	0			1				0	
6.6.1	win	2023-06-27	02:27:37	02:36:30	528016	5eecd2e3a38fd009dd9d1f3d	4	1	main_slash	11	main_slash	35	stimuli_distractor_trianglediamonds.svg	stimuli_distractor_diamondtriangles.svg	36	no	0	1	2000	0	0			0	0			1				0	
6.6.1	win	2023-06-27	02:27:37	02:36:30	528016	5eecd2e3a38fd009dd9d1f3d	4	1	main_slash	11	advance_on_keypress_SLASH	36	stimuli_distractor_trianglediamonds.svg	stimuli_distractor_diamondtriangles.svg	36	no	57	0	460	0	0			0	0			1				0	
6.6.1	win	2023-06-27	02:27:37	02:36:31	529477	5eecd2e3a38fd009dd9d1f3d	4	1	main_slash	11	main_slash	37	stimuli_target_rectangletriangles.svg	stimuli_distractor_diamondtriangles.svg	5	yes	53	1	360	0	0			0	0			1				0	
6.6.1	win	2023-06-27	02:27:37	02:36:31	529477	5eecd2e3a38fd009dd9d1f3d	4	1	main_slash	11	advance_on_keypress_SLASH	38	stimuli_target_rectangletriangles.svg	stimuli_distractor_diamondtriangles.svg	5	yes	57	0	513	0	0			0	0			1				0	
6.6.1	win	2023-06-27	02:27:37	02:36:33	531189	5eecd2e3a38fd009dd9d1f3d	4	1	main_slash	11	main_slash	39	stimuli_target_trianglerectangles.svg	stimuli_distractor_diamondtriangles.svg	21	yes	53	1	572	0	0			0	0			1				0	
6.6.1	win	2023-06-27	02:27:37	02:36:33	531189	5eecd2e3a38fd009dd9d1f3d	4	1	main_slash	11	advance_on_keypress_SLASH	40	stimuli_target_trianglerectangles.svg	stimuli_distractor_diamondtriangles.svg	21	yes	57	0	268	0	0			0	0			1				0	
6.6.1	win	2023-06-27	02:27:37	02:36:36	534103	5eecd2e3a38fd009dd9d1f3d	4	1	main_slash	11	main_slash	41	stimuli_distractor_diamondtriangles.svg	stimuli_distractor_diamondtriangles.svg	39	no	0	1	2000	0	0			0	0			1				0	
6.6.1	win	2023-06-27	02:27:37	02:36:36	534103	5eecd2e3a38fd009dd9d1f3d	4	1	main_slash	11	advance_on_keypress_SLASH	42	stimuli_distractor_diamondtriangles.svg	stimuli_distractor_diamondtriangles.svg	39	no	57	0	295	0	0			0	0			1				0	
6.6.1	win	2023-06-27	02:27:37	02:36:37	535485	5eecd2e3a38fd009dd9d1f3d	4	1	main_slash	11	main_slash	43	stimuli_distractor_diamondtriangles.svg	stimuli_target_rectangletriangles.svg	13	yes	53	1	450	0	0			0	0			1				0	
6.6.1	win	2023-06-27	02:27:37	02:36:37	535485	5eecd2e3a38fd009dd9d1f3d	4	1	main_slash	11	advance_on_keypress_SLASH	44	stimuli_distractor_diamondtriangles.svg	stimuli_target_rectangletriangles.svg	13	yes	57	0	455	0	0			0	0			1				0	
6.6.1	win	2023-06-27	02:27:37	02:36:39	537117	5eecd2e3a38fd009dd9d1f3d	4	1	main_slash	11	main_slash	45	stimuli_distractor_diamondtriangles.svg	stimuli_target_trianglesquares.svg	30	yes	53	1	532	0	0			0	0			1				0	
6.6.1	win	2023-06-27	02:27:37	02:36:39	537117	5eecd2e3a38fd009dd9d1f3d	4	1	main_slash	11	advance_on_keypress_SLASH	46	stimuli_distractor_diamondtriangles.svg	stimuli_target_trianglesquares.svg	30	yes	57	0	285	0	0			0	0			1				0	
6.6.1	win	2023-06-27	02:27:37	02:36:42	540052	5eecd2e3a38fd009dd9d1f3d	4	1	main_slash	11	main_slash	47	stimuli_distractor_trianglediamonds.svg	stimuli_distractor_diamondtriangles.svg	35	no	0	1	2000	0	0			0	0			1				0	
6.6.1	win	2023-06-27	02:27:37	02:36:42	540052	5eecd2e3a38fd009dd9d1f3d	4	1	main_slash	11	advance_on_keypress_SLASH	48	stimuli_distractor_trianglediamonds.svg	stimuli_distractor_diamondtriangles.svg	35	no	57	0	415	0	0			0	0			1				0	
6.6.1	win	2023-06-27	02:27:37	02:36:43	541485	5eecd2e3a38fd009dd9d1f3d	4	1	main_slash	11	main_slash	49	stimuli_target_rectanglediamonds.svg	stimuli_distractor_trianglediamonds.svg	2	yes	53	1	365	0	0			0	0			1				0	
6.6.1	win	2023-06-27	02:27:37	02:36:43	541485	5eecd2e3a38fd009dd9d1f3d	4	1	main_slash	11	advance_on_keypress_SLASH	50	stimuli_target_rectanglediamonds.svg	stimuli_distractor_trianglediamonds.svg	2	yes	57	0	405	0	0			0	0			1				0	
6.6.1	win	2023-06-27	02:27:37	02:36:45	543013	5eecd2e3a38fd009dd9d1f3d	4	1	main_slash	11	main_slash	51	stimuli_distractor_trianglediamonds.svg	stimuli_target_squaretriangles.svg	11	yes	53	1	476	0	0			0	0			1				0	
6.6.1	win	2023-06-27	02:27:37	02:36:45	543013	5eecd2e3a38fd009dd9d1f3d	4	1	main_slash	11	advance_on_keypress_SLASH	52	stimuli_distractor_trianglediamonds.svg	stimuli_target_squaretriangles.svg	11	yes	57	0	248	0	0			0	0			1				0	
6.6.1	win	2023-06-27	02:27:37	02:36:46	544325	5eecd2e3a38fd009dd9d1f3d	4	1	main_slash	11	main_slash	53	stimuli_distractor_diamondtriangles.svg	stimuli_target_rectanglediamonds.svg	14	yes	53	1	421	0	0			0	0			1				0	
6.6.1	win	2023-06-27	02:27:37	02:36:46	544325	5eecd2e3a38fd009dd9d1f3d	4	1	main_slash	11	advance_on_keypress_SLASH	54	stimuli_distractor_diamondtriangles.svg	stimuli_target_rectanglediamonds.svg	14	yes	57	0	235	0	0			0	0			1				0	
6.6.1	win	2023-06-27	02:27:37	02:36:49	547204	5eecd2e3a38fd009dd9d1f3d	4	1	main_slash	11	main_slash	55	stimuli_distractor_trianglediamonds.svg	stimuli_distractor_trianglediamonds.svg	34	no	0	1	2000	0	0			0	0			1				0	
6.6.1	win	2023-06-27	02:27:37	02:36:49	547204	5eecd2e3a38fd009dd9d1f3d	4	1	main_slash	11	advance_on_keypress_SLASH	56	stimuli_distractor_trianglediamonds.svg	stimuli_distractor_trianglediamonds.svg	34	no	57	0	327	0	0			0	0			1				0	
6.6.1	win	2023-06-27	02:27:37	02:36:50	548597	5eecd2e3a38fd009dd9d1f3d	4	1	main_slash	11	main_slash	57	stimuli_distractor_trianglediamonds.svg	stimuli_target_trianglesquares.svg	26	yes	53	1	425	0	0			0	0			1				0	
6.6.1	win	2023-06-27	02:27:37	02:36:50	548597	5eecd2e3a38fd009dd9d1f3d	4	1	main_slash	11	advance_on_keypress_SLASH	58	stimuli_distractor_trianglediamonds.svg	stimuli_target_trianglesquares.svg	26	yes	57	0	375	0	0			0	0			1				0	
6.6.1	win	2023-06-27	02:27:37	02:36:52	550093	5eecd2e3a38fd009dd9d1f3d	4	1	main_slash	11	main_slash	59	stimuli_target_diamondrectangles.svg	stimuli_distractor_diamondtriangles.svg	23	yes	53	1	487	0	0			0	0			1				0	
6.6.1	win	2023-06-27	02:27:37	02:36:52	550093	5eecd2e3a38fd009dd9d1f3d	4	1	main_slash	11	advance_on_keypress_SLASH	60	stimuli_target_diamondrectangles.svg	stimuli_distractor_diamondtriangles.svg	23	yes	57	0	387	0	0			0	0			1				0	
6.6.1	win	2023-06-27	02:27:37	02:36:53	551549	5eecd2e3a38fd009dd9d1f3d	4	1	main_slash	11	main_slash	61	stimuli_target_squarediamonds.svg	stimuli_distractor_trianglediamonds.svg	4	yes	53	1	426	0	0			0	0			1				0	
6.6.1	win	2023-06-27	02:27:37	02:36:53	551549	5eecd2e3a38fd009dd9d1f3d	4	1	main_slash	11	advance_on_keypress_SLASH	62	stimuli_target_squarediamonds.svg	stimuli_distractor_trianglediamonds.svg	4	yes	57	0	345	0	0			0	0			1				0	
6.6.1	win	2023-06-27	02:27:37	02:36:55	552909	5eecd2e3a38fd009dd9d1f3d	4	1	main_slash	11	main_slash	63	stimuli_distractor_trianglediamonds.svg	stimuli_target_rectanglediamonds.svg	10	yes	53	1	386	0	0			0	0			1				0	
6.6.1	win	2023-06-27	02:27:37	02:36:55	552909	5eecd2e3a38fd009dd9d1f3d	4	1	main_slash	11	advance_on_keypress_SLASH	64	stimuli_distractor_trianglediamonds.svg	stimuli_target_rectanglediamonds.svg	10	yes	57	0	314	0	0			0	0			1				0	
6.6.1	win	2023-06-27	02:27:37	02:36:58	555873	5eecd2e3a38fd009dd9d1f3d	4	1	main_slash	11	main_slash	65	stimuli_distractor_diamondtriangles.svg	stimuli_distractor_trianglediamonds.svg	38	no	0	1	2000	0	0			0	0			1				0	
6.6.1	win	2023-06-27	02:27:37	02:36:58	555873	5eecd2e3a38fd009dd9d1f3d	4	1	main_slash	11	advance_on_keypress_SLASH	66	stimuli_distractor_diamondtriangles.svg	stimuli_distractor_trianglediamonds.svg	38	no	57	0	378	0	0			0	0			1				0	
6.6.1	win	2023-06-27	02:27:37	02:36:59	557253	5eecd2e3a38fd009dd9d1f3d	4	1	main_slash	11	main_slash	67	stimuli_distractor_trianglediamonds.svg	stimuli_target_squarediamonds.svg	12	yes	53	1	362	0	0			0	0			1				0	
6.6.1	win	2023-06-27	02:27:37	02:36:59	557253	5eecd2e3a38fd009dd9d1f3d	4	1	main_slash	11	advance_on_keypress_SLASH	68	stimuli_distractor_trianglediamonds.svg	stimuli_target_squarediamonds.svg	12	yes	57	0	355	0	0			0	0			1				0	
6.6.1	win	2023-06-27	02:27:37	02:37:02	560241	5eecd2e3a38fd009dd9d1f3d	4	1	main_slash	11	main_slash	69	stimuli_distractor_diamondtriangles.svg	stimuli_distractor_diamondtriangles.svg	40	no	0	1	2000	0	0			0	0			1				0	
6.6.1	win	2023-06-27	02:27:37	02:37:02	560241	5eecd2e3a38fd009dd9d1f3d	4	1	main_slash	11	advance_on_keypress_SLASH	70	stimuli_distractor_diamondtriangles.svg	stimuli_distractor_diamondtriangles.svg	40	no	57	0	354	0	0			0	0			1				0	
6.6.1	win	2023-06-27	02:27:37	02:37:03	561701	5eecd2e3a38fd009dd9d1f3d	4	1	main_slash	11	main_slash	71	stimuli_target_rectangletriangles.svg	stimuli_distractor_trianglediamonds.svg	1	yes	53	1	459	0	0			0	0			1				0	
6.6.1	win	2023-06-27	02:27:37	02:37:03	561701	5eecd2e3a38fd009dd9d1f3d	4	1	main_slash	11	advance_on_keypress_SLASH	72	stimuli_target_rectangletriangles.svg	stimuli_distractor_trianglediamonds.svg	1	yes	57	0	384	0	0			0	0			1				0	
6.6.1	win	2023-06-27	02:27:37	02:37:06	564726	5eecd2e3a38fd009dd9d1f3d	4	1	main_slash	11	main_slash	73	stimuli_distractor_trianglediamonds.svg	stimuli_distractor_trianglediamonds.svg	33	no	0	1	2000	0	0			0	0			1				0	
6.6.1	win	2023-06-27	02:27:37	02:37:06	564726	5eecd2e3a38fd009dd9d1f3d	4	1	main_slash	11	advance_on_keypress_SLASH	74	stimuli_distractor_trianglediamonds.svg	stimuli_distractor_trianglediamonds.svg	33	no	57	0	342	0	0			0	0			1				0	
6.6.1	win	2023-06-27	02:27:37	02:37:08	566117	5eecd2e3a38fd009dd9d1f3d	4	1	main_slash	11	main_slash	75	stimuli_target_trianglesquares.svg	stimuli_distractor_trianglediamonds.svg	18	yes	53	1	407	0	0			0	0			1				0	
6.6.1	win	2023-06-27	02:27:37	02:37:08	566117	5eecd2e3a38fd009dd9d1f3d	4	1	main_slash	11	advance_on_keypress_SLASH	76	stimuli_target_trianglesquares.svg	stimuli_distractor_trianglediamonds.svg	18	yes	57	0	326	0	0			0	0			1				0	
6.6.1	win	2023-06-27	02:27:37	02:37:09	567637	5eecd2e3a38fd009dd9d1f3d	4	1	main_slash	11	main_slash	77	stimuli_target_squaretriangles.svg	stimuli_distractor_diamondtriangles.svg	7	yes	53	1	560	0	0			0	0			1				0	
6.6.1	win	2023-06-27	02:27:37	02:37:09	567637	5eecd2e3a38fd009dd9d1f3d	4	1	main_slash	11	advance_on_keypress_SLASH	78	stimuli_target_squaretriangles.svg	stimuli_distractor_diamondtriangles.svg	7	yes	57	0	265	0	0			0	0			1				0	
6.6.1	win	2023-06-27	02:27:37	02:37:11	569005	5eecd2e3a38fd009dd9d1f3d	4	1	main_slash	11	main_slash	79	stimuli_target_squarediamonds.svg	stimuli_distractor_diamondtriangles.svg	8	yes	53	1	461	0	0			0	0			1				0	
6.6.1	win	2023-06-27	02:27:37	02:37:11	569005	5eecd2e3a38fd009dd9d1f3d	4	1	main_slash	11	advance_on_keypress_SLASH	80	stimuli_target_squarediamonds.svg	stimuli_distractor_diamondtriangles.svg	8	yes	57	0	314	0	0			0	0			1				0	
6.6.1	win	2023-06-27	02:27:37	02:37:12	570373	5eecd2e3a38fd009dd9d1f3d	4	1	main_slash	11	main_slash	81	stimuli_distractor_diamondtriangles.svg	stimuli_target_squaretriangles.svg	15	yes	53	1	412	0	0			0	0			1				0	
6.6.1	win	2023-06-27	02:27:37	02:37:12	570373	5eecd2e3a38fd009dd9d1f3d	4	1	main_slash	11	advance_on_keypress_SLASH	82	stimuli_distractor_diamondtriangles.svg	stimuli_target_squaretriangles.svg	15	yes	57	0	283	0	0			0	0			1				0	
6.6.1	win	2023-06-27	02:27:37	02:37:13	571741	5eecd2e3a38fd009dd9d1f3d	4	1	main_slash	11	main_slash	83	stimuli_target_squaretriangles.svg	stimuli_distractor_diamondtriangles.svg	7	yes	53	1	446	0	0			0	0			1				0	
6.6.1	win	2023-06-27	02:27:37	02:37:13	571741	5eecd2e3a38fd009dd9d1f3d	4	1	main_slash	11	advance_on_keypress_SLASH	84	stimuli_target_squaretriangles.svg	stimuli_distractor_diamondtriangles.svg	7	yes	57	0	308	0	0			0	0			1				0	
6.6.1	win	2023-06-27	02:27:37	02:37:16	574679	5eecd2e3a38fd009dd9d1f3d	4	1	main_slash	11	main_slash	85	stimuli_distractor_diamondtriangles.svg	stimuli_distractor_diamondtriangles.svg	40	no	0	1	2000	0	0			0	0			1				0	
6.6.1	win	2023-06-27	02:27:37	02:37:16	574679	5eecd2e3a38fd009dd9d1f3d	4	1	main_slash	11	advance_on_keypress_SLASH	86	stimuli_distractor_diamondtriangles.svg	stimuli_distractor_diamondtriangles.svg	40	no	57	0	381	0	0			0	0			1				0	
6.6.1	win	2023-06-27	02:27:37	02:37:18	576165	5eecd2e3a38fd009dd9d1f3d	4	1	main_slash	11	main_slash	87	stimuli_distractor_trianglediamonds.svg	stimuli_target_squarediamonds.svg	12	yes	53	1	452	0	0			0	0			1				0	
6.6.1	win	2023-06-27	02:27:37	02:37:18	576165	5eecd2e3a38fd009dd9d1f3d	4	1	main_slash	11	advance_on_keypress_SLASH	88	stimuli_distractor_trianglediamonds.svg	stimuli_target_squarediamonds.svg	12	yes	57	0	401	0	0			0	0			1				0	
6.6.1	win	2023-06-27	02:27:37	02:37:19	577645	5eecd2e3a38fd009dd9d1f3d	4	1	main_slash	11	main_slash	89	stimuli_distractor_trianglediamonds.svg	stimuli_target_rectanglediamonds.svg	10	yes	53	1	432	0	0			0	0			1				0	
6.6.1	win	2023-06-27	02:27:37	02:37:19	577645	5eecd2e3a38fd009dd9d1f3d	4	1	main_slash	11	advance_on_keypress_SLASH	90	stimuli_distractor_trianglediamonds.svg	stimuli_target_rectanglediamonds.svg	10	yes	57	0	333	0	0			0	0			1				0	
6.6.1	win	2023-06-27	02:27:37	02:37:22	580630	5eecd2e3a38fd009dd9d1f3d	4	1	main_slash	11	main_slash	91	stimuli_distractor_trianglediamonds.svg	stimuli_distractor_diamondtriangles.svg	36	no	0	1	2000	0	0			0	0			1				0	
6.6.1	win	2023-06-27	02:27:37	02:37:22	580630	5eecd2e3a38fd009dd9d1f3d	4	1	main_slash	11	advance_on_keypress_SLASH	92	stimuli_distractor_trianglediamonds.svg	stimuli_distractor_diamondtriangles.svg	36	no	57	0	357	0	0			0	0			1				0	
6.6.1	win	2023-06-27	02:27:37	02:37:24	582341	5eecd2e3a38fd009dd9d1f3d	4	1	main_slash	11	main_slash	93	stimuli_target_trianglerectangles.svg	stimuli_distractor_diamondtriangles.svg	21	yes	53	1	710	0	0			0	0			1				0	
6.6.1	win	2023-06-27	02:27:37	02:37:24	582341	5eecd2e3a38fd009dd9d1f3d	4	1	main_slash	11	advance_on_keypress_SLASH	94	stimuli_target_trianglerectangles.svg	stimuli_distractor_diamondtriangles.svg	21	yes	57	0	385	0	0			0	0			1				0	
6.6.1	win	2023-06-27	02:27:37	02:37:26	583917	5eecd2e3a38fd009dd9d1f3d	4	1	main_slash	11	main_slash	95	stimuli_target_squaretriangles.svg	stimuli_distractor_trianglediamonds.svg	3	yes	53	1	552	0	0			0	0			1				0	
6.6.1	win	2023-06-27	02:27:37	02:37:26	583917	5eecd2e3a38fd009dd9d1f3d	4	1	main_slash	11	advance_on_keypress_SLASH	96	stimuli_target_squaretriangles.svg	stimuli_distractor_trianglediamonds.svg	3	yes	57	0	545	0	0			0	0			1				0	
6.6.1	win	2023-06-27	02:27:37	02:37:27	585781	5eecd2e3a38fd009dd9d1f3d	4	1	main_slash	11	main_slash	97	stimuli_distractor_trianglediamonds.svg	stimuli_target_trianglerectangles.svg	25	yes	53	1	682	0	0			0	0			1				0	
6.6.1	win	2023-06-27	02:27:37	02:37:27	585781	5eecd2e3a38fd009dd9d1f3d	4	1	main_slash	11	advance_on_keypress_SLASH	98	stimuli_distractor_trianglediamonds.svg	stimuli_target_trianglerectangles.svg	25	yes	57	0	350	0	0			0	0			1				0	
6.6.1	win	2023-06-27	02:27:37	02:37:29	587299	5eecd2e3a38fd009dd9d1f3d	4	1	main_slash	11	main_slash	99	stimuli_distractor_trianglediamonds.svg	stimuli_target_trianglesquares.svg	26	yes	53	1	510	0	0			0	0			1				0	
6.6.1	win	2023-06-27	02:27:37	02:37:29	587299	5eecd2e3a38fd009dd9d1f3d	4	1	main_slash	11	advance_on_keypress_SLASH	100	stimuli_distractor_trianglediamonds.svg	stimuli_target_trianglesquares.svg	26	yes	57	0	313	0	0			0	0			1				0	
6.6.1	win	2023-06-27	02:27:37	02:37:30	588709	5eecd2e3a38fd009dd9d1f3d	4	1	main_slash	11	main_slash	101	stimuli_target_trianglesquares.svg	stimuli_distractor_diamondtriangles.svg	22	yes	53	1	459	0	0			0	0			1				0	
6.6.1	win	2023-06-27	02:27:37	02:37:30	588709	5eecd2e3a38fd009dd9d1f3d	4	1	main_slash	11	advance_on_keypress_SLASH	102	stimuli_target_trianglesquares.svg	stimuli_distractor_diamondtriangles.svg	22	yes	57	0	312	0	0			0	0			1				0	
6.6.1	win	2023-06-27	02:27:37	02:37:32	590189	5eecd2e3a38fd009dd9d1f3d	4	1	main_slash	11	main_slash	103	stimuli_distractor_trianglediamonds.svg	stimuli_target_squaretriangles.svg	11	yes	53	1	539	0	0			0	0			1				0	
6.6.1	win	2023-06-27	02:27:37	02:37:32	590189	5eecd2e3a38fd009dd9d1f3d	4	1	main_slash	11	advance_on_keypress_SLASH	104	stimuli_distractor_trianglediamonds.svg	stimuli_target_squaretriangles.svg	11	yes	57	0	301	0	0			0	0			1				0	
6.6.1	win	2023-06-27	02:27:37	02:37:34	591869	5eecd2e3a38fd009dd9d1f3d	4	1	main_slash	11	main_slash	105	stimuli_distractor_trianglediamonds.svg	stimuli_target_diamondsquares.svg	28	yes	53	1	735	0	0			0	0			1				0	
6.6.1	win	2023-06-27	02:27:37	02:37:34	591869	5eecd2e3a38fd009dd9d1f3d	4	1	main_slash	11	advance_on_keypress_SLASH	106	stimuli_distractor_trianglediamonds.svg	stimuli_target_diamondsquares.svg	28	yes	57	0	257	0	0			0	0			1				0	
6.6.1	win	2023-06-27	02:27:37	02:37:35	593317	5eecd2e3a38fd009dd9d1f3d	4	1	main_slash	11	main_slash	107	stimuli_distractor_diamondtriangles.svg	stimuli_target_trianglesquares.svg	30	yes	53	1	549	0	0			0	0			1				0	
6.6.1	win	2023-06-27	02:27:37	02:37:35	593317	5eecd2e3a38fd009dd9d1f3d	4	1	main_slash	11	advance_on_keypress_SLASH	108	stimuli_distractor_diamondtriangles.svg	stimuli_target_trianglesquares.svg	30	yes	57	0	238	0	0			0	0			1				0	
6.6.1	win	2023-06-27	02:27:37	02:37:38	596201	5eecd2e3a38fd009dd9d1f3d	4	1	main_slash	11	main_slash	109	stimuli_distractor_trianglediamonds.svg	stimuli_distractor_trianglediamonds.svg	34	no	0	1	2000	0	0			0	0			1				0	
6.6.1	win	2023-06-27	02:27:37	02:37:38	596201	5eecd2e3a38fd009dd9d1f3d	4	1	main_slash	11	advance_on_keypress_SLASH	110	stimuli_distractor_trianglediamonds.svg	stimuli_distractor_trianglediamonds.svg	34	no	57	0	402	0	0			0	0			1				0	
6.6.1	win	2023-06-27	02:27:37	02:37:40	598005	5eecd2e3a38fd009dd9d1f3d	4	1	main_slash	11	main_slash	111	stimuli_distractor_trianglediamonds.svg	stimuli_distractor_diamondtriangles.svg	35	no	53	0	753	0	0			0	0			1				0	
6.6.1	win	2023-06-27	02:27:37	02:37:40	598005	5eecd2e3a38fd009dd9d1f3d	4	1	main_slash	11	advance_on_keypress_SLASH	112	stimuli_distractor_trianglediamonds.svg	stimuli_distractor_diamondtriangles.svg	35	no	57	0	714	0	0			0	0			1				0	
6.6.1	win	2023-06-27	02:27:37	02:37:43	601353	5eecd2e3a38fd009dd9d1f3d	4	1	main_slash	11	main_slash	113	stimuli_distractor_trianglediamonds.svg	stimuli_distractor_trianglediamonds.svg	33	no	0	1	2000	0	0			0	0			1				0	
6.6.1	win	2023-06-27	02:27:37	02:37:43	601353	5eecd2e3a38fd009dd9d1f3d	4	1	main_slash	11	advance_on_keypress_SLASH	114	stimuli_distractor_trianglediamonds.svg	stimuli_distractor_trianglediamonds.svg	33	no	57	0	507	0	0			0	0			1				0	
6.6.1	win	2023-06-27	02:27:37	02:37:45	603069	5eecd2e3a38fd009dd9d1f3d	4	1	main_slash	11	main_slash	115	stimuli_distractor_diamondtriangles.svg	stimuli_target_rectanglediamonds.svg	14	yes	53	1	565	0	0			0	0			1				0	
6.6.1	win	2023-06-27	02:27:37	02:37:45	603069	5eecd2e3a38fd009dd9d1f3d	4	1	main_slash	11	advance_on_keypress_SLASH	116	stimuli_distractor_diamondtriangles.svg	stimuli_target_rectanglediamonds.svg	14	yes	57	0	318	0	0			0	0			1				0	
6.6.1	win	2023-06-27	02:27:37	02:37:46	604621	5eecd2e3a38fd009dd9d1f3d	4	1	main_slash	11	main_slash	117	stimuli_target_rectangletriangles.svg	stimuli_distractor_diamondtriangles.svg	5	yes	53	1	583	0	0			0	0			1				0	
6.6.1	win	2023-06-27	02:27:37	02:37:46	604621	5eecd2e3a38fd009dd9d1f3d	4	1	main_slash	11	advance_on_keypress_SLASH	118	stimuli_target_rectangletriangles.svg	stimuli_distractor_diamondtriangles.svg	5	yes	57	0	279	0	0			0	0			1				0	
6.6.1	win	2023-06-27	02:27:37	02:37:48	606085	5eecd2e3a38fd009dd9d1f3d	4	1	main_slash	11	main_slash	119	stimuli_distractor_diamondtriangles.svg	stimuli_target_squarediamonds.svg	16	yes	53	1	547	0	0			0	0			1				0	
6.6.1	win	2023-06-27	02:27:37	02:37:48	606085	5eecd2e3a38fd009dd9d1f3d	4	1	main_slash	11	advance_on_keypress_SLASH	120	stimuli_distractor_diamondtriangles.svg	stimuli_target_squarediamonds.svg	16	yes	57	0	205	0	0			0	0			1				0	
6.6.1	win	2023-06-27	02:27:37	02:37:49	607645	5eecd2e3a38fd009dd9d1f3d	4	1	main_slash	11	main_slash	121	stimuli_distractor_diamondtriangles.svg	stimuli_target_diamondsquares.svg	32	yes	53	1	723	0	0			0	0			1				0	
6.6.1	win	2023-06-27	02:27:37	02:37:49	607645	5eecd2e3a38fd009dd9d1f3d	4	1	main_slash	11	advance_on_keypress_SLASH	122	stimuli_distractor_diamondtriangles.svg	stimuli_target_diamondsquares.svg	32	yes	57	0	342	0	0			0	0			1				0	
6.6.1	win	2023-06-27	02:27:37	02:37:51	609277	5eecd2e3a38fd009dd9d1f3d	4	1	main_slash	11	main_slash	123	stimuli_target_rectanglediamonds.svg	stimuli_distractor_diamondtriangles.svg	6	yes	53	1	655	0	0			0	0			1				0	
6.6.1	win	2023-06-27	02:27:37	02:37:51	609277	5eecd2e3a38fd009dd9d1f3d	4	1	main_slash	11	advance_on_keypress_SLASH	124	stimuli_target_rectanglediamonds.svg	stimuli_distractor_diamondtriangles.svg	6	yes	57	0	412	0	0			0	0			1				0	
6.6.1	win	2023-06-27	02:27:37	02:37:53	610869	5eecd2e3a38fd009dd9d1f3d	4	1	main_slash	11	main_slash	125	stimuli_target_diamondsquares.svg	stimuli_distractor_diamondtriangles.svg	24	yes	53	1	546	0	0			0	0			1				0	
6.6.1	win	2023-06-27	02:27:37	02:37:53	610869	5eecd2e3a38fd009dd9d1f3d	4	1	main_slash	11	advance_on_keypress_SLASH	126	stimuli_target_diamondsquares.svg	stimuli_distractor_diamondtriangles.svg	24	yes	57	0	300	0	0			0	0			1				0	
6.6.1	win	2023-06-27	02:27:37	02:37:54	612381	5eecd2e3a38fd009dd9d1f3d	4	1	main_slash	11	main_slash	127	stimuli_distractor_diamondtriangles.svg	stimuli_target_trianglerectangles.svg	29	yes	53	1	575	0	0			0	0			1				0	
6.6.1	win	2023-06-27	02:27:37	02:37:54	612381	5eecd2e3a38fd009dd9d1f3d	4	1	main_slash	11	advance_on_keypress_SLASH	128	stimuli_distractor_diamondtriangles.svg	stimuli_target_trianglerectangles.svg	29	yes	57	0	343	0	0			0	0			1				0	
6.6.1	win	2023-06-27	02:27:37	02:37:56	613965	5eecd2e3a38fd009dd9d1f3d	4	1	main_slash	11	main_slash	129	stimuli_target_rectangletriangles.svg	stimuli_distractor_trianglediamonds.svg	1	yes	53	1	608	0	0			0	0			1				0	
6.6.1	win	2023-06-27	02:27:37	02:37:56	613965	5eecd2e3a38fd009dd9d1f3d	4	1	main_slash	11	advance_on_keypress_SLASH	130	stimuli_target_rectangletriangles.svg	stimuli_distractor_trianglediamonds.svg	1	yes	57	0	295	0	0			0	0			1				0	
6.6.1	win	2023-06-27	02:27:37	02:37:59	616891	5eecd2e3a38fd009dd9d1f3d	4	1	main_slash	11	main_slash	131	stimuli_distractor_diamondtriangles.svg	stimuli_distractor_diamondtriangles.svg	39	no	0	1	2000	0	0			0	0			1				0	
6.6.1	win	2023-06-27	02:27:37	02:37:59	616891	5eecd2e3a38fd009dd9d1f3d	4	1	main_slash	11	advance_on_keypress_SLASH	132	stimuli_distractor_diamondtriangles.svg	stimuli_distractor_diamondtriangles.svg	39	no	57	0	249	0	0			0	0			1				0	
6.6.1	win	2023-06-27	02:27:37	02:38:00	618325	5eecd2e3a38fd009dd9d1f3d	4	1	main_slash	11	main_slash	133	stimuli_target_diamondrectangles.svg	stimuli_distractor_trianglediamonds.svg	19	yes	53	1	534	0	0			0	0			1				0	
6.6.1	win	2023-06-27	02:27:37	02:38:00	618325	5eecd2e3a38fd009dd9d1f3d	4	1	main_slash	11	advance_on_keypress_SLASH	134	stimuli_target_diamondrectangles.svg	stimuli_distractor_trianglediamonds.svg	19	yes	57	0	319	0	0			0	0			1				0	
6.6.1	win	2023-06-27	02:27:37	02:38:02	619861	5eecd2e3a38fd009dd9d1f3d	4	1	main_slash	11	main_slash	135	stimuli_target_diamondsquares.svg	stimuli_distractor_trianglediamonds.svg	20	yes	53	1	569	0	0			0	0			1				0	
6.6.1	win	2023-06-27	02:27:37	02:38:02	619861	5eecd2e3a38fd009dd9d1f3d	4	1	main_slash	11	advance_on_keypress_SLASH	136	stimuli_target_diamondsquares.svg	stimuli_distractor_trianglediamonds.svg	20	yes	57	0	250	0	0			0	0			1				0	
6.6.1	win	2023-06-27	02:27:37	02:38:03	621213	5eecd2e3a38fd009dd9d1f3d	4	1	main_slash	11	main_slash	137	stimuli_distractor_diamondtriangles.svg	stimuli_target_rectangletriangles.svg	13	yes	53	1	454	0	0			0	0			1				0	
6.6.1	win	2023-06-27	02:27:37	02:38:03	621213	5eecd2e3a38fd009dd9d1f3d	4	1	main_slash	11	advance_on_keypress_SLASH	138	stimuli_distractor_diamondtriangles.svg	stimuli_target_rectangletriangles.svg	13	yes	57	0	491	0	0			0	0			1				0	
6.6.1	win	2023-06-27	02:27:37	02:38:06	624343	5eecd2e3a38fd009dd9d1f3d	4	1	main_slash	11	main_slash	139	stimuli_distractor_diamondtriangles.svg	stimuli_distractor_trianglediamonds.svg	37	no	0	1	2000	0	0			0	0			1				0	
6.6.1	win	2023-06-27	02:27:37	02:38:06	624343	5eecd2e3a38fd009dd9d1f3d	4	1	main_slash	11	advance_on_keypress_SLASH	140	stimuli_distractor_diamondtriangles.svg	stimuli_distractor_trianglediamonds.svg	37	no	57	0	325	0	0			0	0			1				0	
6.6.1	win	2023-06-27	02:27:37	02:38:07	625829	5eecd2e3a38fd009dd9d1f3d	4	1	main_slash	11	main_slash	141	stimuli_target_diamondrectangles.svg	stimuli_distractor_diamondtriangles.svg	23	yes	53	1	519	0	0			0	0			1				0	
6.6.1	win	2023-06-27	02:27:37	02:38:07	625829	5eecd2e3a38fd009dd9d1f3d	4	1	main_slash	11	advance_on_keypress_SLASH	142	stimuli_target_diamondrectangles.svg	stimuli_distractor_diamondtriangles.svg	23	yes	57	0	361	0	0			0	0			1				0	
6.6.1	win	2023-06-27	02:27:37	02:38:09	627344	5eecd2e3a38fd009dd9d1f3d	4	1	main_slash	11	main_slash	143	stimuli_target_trianglesquares.svg	stimuli_distractor_trianglediamonds.svg	18	yes	53	1	514	0	0			0	0			1				0	
6.6.1	win	2023-06-27	02:27:37	02:38:09	627344	5eecd2e3a38fd009dd9d1f3d	4	1	main_slash	11	advance_on_keypress_SLASH	144	stimuli_target_trianglesquares.svg	stimuli_distractor_trianglediamonds.svg	18	yes	57	0	316	0	0			0	0			1				0	
6.6.1	win	2023-06-27	02:27:37	02:38:12	630311	5eecd2e3a38fd009dd9d1f3d	4	1	main_slash	11	main_slash	145	stimuli_distractor_diamondtriangles.svg	stimuli_distractor_trianglediamonds.svg	38	no	0	1	2000	0	0			0	0			1				0	
6.6.1	win	2023-06-27	02:27:37	02:38:12	630311	5eecd2e3a38fd009dd9d1f3d	4	1	main_slash	11	advance_on_keypress_SLASH	146	stimuli_distractor_diamondtriangles.svg	stimuli_distractor_trianglediamonds.svg	38	no	57	0	453	0	0			0	0			1				0	
6.6.1	win	2023-06-27	02:27:37	02:38:14	631981	5eecd2e3a38fd009dd9d1f3d	4	1	main_slash	11	main_slash	147	stimuli_target_squarediamonds.svg	stimuli_distractor_trianglediamonds.svg	4	yes	53	1	569	0	0			0	0			1				0	
6.6.1	win	2023-06-27	02:27:37	02:38:14	631981	5eecd2e3a38fd009dd9d1f3d	4	1	main_slash	11	advance_on_keypress_SLASH	148	stimuli_target_squarediamonds.svg	stimuli_distractor_trianglediamonds.svg	4	yes	57	0	258	0	0			0	0			1				0	
6.6.1	win	2023-06-27	02:27:37	02:38:15	633533	5eecd2e3a38fd009dd9d1f3d	4	1	main_slash	11	main_slash	149	stimuli_distractor_trianglediamonds.svg	stimuli_target_diamondrectangles.svg	27	yes	53	1	654	0	0			0	0			1				0	
6.6.1	win	2023-06-27	02:27:37	02:38:15	633533	5eecd2e3a38fd009dd9d1f3d	4	1	main_slash	11	advance_on_keypress_SLASH	150	stimuli_distractor_trianglediamonds.svg	stimuli_target_diamondrectangles.svg	27	yes	57	0	291	0	0			0	0			1				0	
6.6.1	win	2023-06-27	02:27:37	02:38:17	634981	5eecd2e3a38fd009dd9d1f3d	4	1	main_slash	11	main_slash	151	stimuli_target_trianglerectangles.svg	stimuli_distractor_trianglediamonds.svg	17	yes	53	1	518	0	0			0	0			1				0	
6.6.1	win	2023-06-27	02:27:37	02:38:17	634981	5eecd2e3a38fd009dd9d1f3d	4	1	main_slash	11	advance_on_keypress_SLASH	152	stimuli_target_trianglerectangles.svg	stimuli_distractor_trianglediamonds.svg	17	yes	57	0	233	0	0			0	0			1				0	
6.6.1	win	2023-06-27	02:27:37	02:38:18	636421	5eecd2e3a38fd009dd9d1f3d	4	1	main_slash	11	main_slash	153	stimuli_distractor_diamondtriangles.svg	stimuli_target_diamondrectangles.svg	31	yes	53	1	558	0	0			0	0			1				0	
6.6.1	win	2023-06-27	02:27:37	02:38:18	636421	5eecd2e3a38fd009dd9d1f3d	4	1	main_slash	11	advance_on_keypress_SLASH	154	stimuli_distractor_diamondtriangles.svg	stimuli_target_diamondrectangles.svg	31	yes	57	0	239	0	0			0	0			1				0	
6.6.1	win	2023-06-27	02:27:37	02:38:20	637893	5eecd2e3a38fd009dd9d1f3d	4	1	main_slash	11	main_slash	155	stimuli_distractor_trianglediamonds.svg	stimuli_target_rectangletriangles.svg	9	yes	53	1	596	0	0			0	0			1				0	
6.6.1	win	2023-06-27	02:27:37	02:38:20	637893	5eecd2e3a38fd009dd9d1f3d	4	1	main_slash	11	advance_on_keypress_SLASH	156	stimuli_distractor_trianglediamonds.svg	stimuli_target_rectangletriangles.svg	9	yes	57	0	260	0	0			0	0			1				0	
6.6.1	win	2023-06-27	02:27:37	02:38:21	639197	5eecd2e3a38fd009dd9d1f3d	4	1	main_slash	11	main_slash	157	stimuli_target_squarediamonds.svg	stimuli_distractor_diamondtriangles.svg	8	yes	53	1	416	0	0			0	0			1				0	
6.6.1	win	2023-06-27	02:27:37	02:38:21	639197	5eecd2e3a38fd009dd9d1f3d	4	1	main_slash	11	advance_on_keypress_SLASH	158	stimuli_target_squarediamonds.svg	stimuli_distractor_diamondtriangles.svg	8	yes	57	0	223	0	0			0	0			1				0	
6.6.1	win	2023-06-27	02:27:37	02:38:22	640549	5eecd2e3a38fd009dd9d1f3d	4	1	main_slash	11	main_slash	159	stimuli_target_rectanglediamonds.svg	stimuli_distractor_trianglediamonds.svg	2	yes	53	1	485	0	0			0	0			1				0	
6.6.1	win	2023-06-27	02:27:37	02:38:22	640549	5eecd2e3a38fd009dd9d1f3d	4	1	main_slash	11	advance_on_keypress_SLASH	160	stimuli_target_rectanglediamonds.svg	stimuli_distractor_trianglediamonds.svg	2	yes	57	0	184	0	0			0	0			1				0	
6.6.1	win	2023-06-27	02:27:37	02:38:22	640549	5eecd2e3a38fd009dd9d1f3d	4	1	headphonecheck_calibration	14	headphonecheck_calibrationIntro	1	stimuli_target_rectanglediamonds.svg	stimuli_distractor_trianglediamonds.svg	2	yes	calibrationButton	0	2811	0	0			0	0			1				0	
6.6.1	win	2023-06-27	02:27:37	02:38:22	640549	5eecd2e3a38fd009dd9d1f3d	4	1	headphonecheck_testphase	15	test_collectResponse	3	stimuli_target_rectanglediamonds.svg	stimuli_distractor_trianglediamonds.svg	2	yes	first	1	1186	1	3	antiphase_hc_soi.wav	1	0	0			1				0	
6.6.1	win	2023-06-27	02:27:37	02:38:22	640549	5eecd2e3a38fd009dd9d1f3d	4	1	headphonecheck_testphase	15	test_collectResponse	6	stimuli_target_rectanglediamonds.svg	stimuli_distractor_trianglediamonds.svg	2	yes	third	1	243	2	6	antiphase_hc_ois.wav	3	0	0			1				0	
6.6.1	win	2023-06-27	02:27:37	02:38:22	640549	5eecd2e3a38fd009dd9d1f3d	4	1	headphonecheck_testphase	15	test_collectResponse	9	stimuli_target_rectanglediamonds.svg	stimuli_distractor_trianglediamonds.svg	2	yes	second	1	86	3	5	antiphase_hc_osi.wav	2	0	0			1				0	
6.6.1	win	2023-06-27	02:27:37	02:38:22	640549	5eecd2e3a38fd009dd9d1f3d	4	1	headphonecheck_testphase	15	test_collectResponse	12	stimuli_target_rectanglediamonds.svg	stimuli_distractor_trianglediamonds.svg	2	yes	first	1	575	4	4	antiphase_hc_sio.wav	1	0	0			1				0	
6.6.1	win	2023-06-27	02:27:37	02:38:22	640549	5eecd2e3a38fd009dd9d1f3d	4	1	headphonecheck_testphase	15	test_collectResponse	15	stimuli_target_rectanglediamonds.svg	stimuli_distractor_trianglediamonds.svg	2	yes	third	1	485	5	2	antiphase_hc_ios.wav	3	0	0			1				0	
6.6.1	win	2023-06-27	02:27:37	02:38:22	640549	5eecd2e3a38fd009dd9d1f3d	4	1	headphonecheck_testphase	15	test_collectResponse	18	stimuli_target_rectanglediamonds.svg	stimuli_distractor_trianglediamonds.svg	2	yes	second	1	238	6	1	antiphase_hc_iso.wav	2	0	0			1				0	
6.6.1	win	2023-06-27	02:27:37	02:38:22	640549	5eecd2e3a38fd009dd9d1f3d	4	1	stereocheck_calibration	17	stereocheck_calibrationIntro	1	stimuli_target_rectanglediamonds.svg	stimuli_distractor_trianglediamonds.svg	2	yes	stereocheck_calibrationButton	0	5250	6	1	antiphase_hc_iso.wav	2	0	0			1				0	
6.6.1	win	2023-06-27	02:27:37	02:38:22	640549	5eecd2e3a38fd009dd9d1f3d	4	1	stereocheck_testphase	18	stereocheck_test_collectResponse	3	stimuli_target_rectanglediamonds.svg	stimuli_distractor_trianglediamonds.svg	2	yes	stereocheck_left	1	357	6	1	antiphase_hc_iso.wav	2	1	1	noise_calib_stim_LEFT.wav	1	1				0	
6.6.1	win	2023-06-27	02:27:37	02:38:22	640549	5eecd2e3a38fd009dd9d1f3d	4	1	stereocheck_testphase	18	stereocheck_test_collectResponse	6	stimuli_target_rectanglediamonds.svg	stimuli_distractor_trianglediamonds.svg	2	yes	stereocheck_right	1	205	6	1	antiphase_hc_iso.wav	2	2	6	noise_calib_stim_RIGHT.wav	2	1				0	
6.6.1	win	2023-06-27	02:27:37	02:38:22	640549	5eecd2e3a38fd009dd9d1f3d	4	1	stereocheck_testphase	18	stereocheck_test_collectResponse	9	stimuli_target_rectanglediamonds.svg	stimuli_distractor_trianglediamonds.svg	2	yes	stereocheck_left	1	457	6	1	antiphase_hc_iso.wav	2	3	3	noise_calib_stim_LEFT.wav	1	1				0	
6.6.1	win	2023-06-27	02:27:37	02:38:22	640549	5eecd2e3a38fd009dd9d1f3d	4	1	stereocheck_testphase	18	stereocheck_test_collectResponse	12	stimuli_target_rectanglediamonds.svg	stimuli_distractor_trianglediamonds.svg	2	yes	stereocheck_right	1	217	6	1	antiphase_hc_iso.wav	2	4	4	noise_calib_stim_RIGHT.wav	2	1				0	
6.6.1	win	2023-06-27	02:27:37	02:38:22	640549	5eecd2e3a38fd009dd9d1f3d	4	1	stereocheck_testphase	18	stereocheck_test_collectResponse	15	stimuli_target_rectanglediamonds.svg	stimuli_distractor_trianglediamonds.svg	2	yes	stereocheck_left	1	236	6	1	antiphase_hc_iso.wav	2	5	2	noise_calib_stim_LEFT.wav	1	1				0	
6.6.1	win	2023-06-27	02:27:37	02:38:22	640549	5eecd2e3a38fd009dd9d1f3d	4	1	stereocheck_testphase	18	stereocheck_test_collectResponse	18	stimuli_target_rectanglediamonds.svg	stimuli_distractor_trianglediamonds.svg	2	yes	stereocheck_right	1	322	6	1	antiphase_hc_iso.wav	2	6	5	noise_calib_stim_RIGHT.wav	2	1				0	
6.6.1	win	2023-06-27	02:27:37	02:38:22	640549	5eecd2e3a38fd009dd9d1f3d	4	1	DL_practice	21	DL_practice	2	stimuli_target_rectanglediamonds.svg	stimuli_distractor_trianglediamonds.svg	2	yes	ba	1	1735	6	1	antiphase_hc_iso.wav	2	6	5	noise_calib_stim_RIGHT.wav	2	1	blb_dichoticlistening_ba-ba.mp3	ba	ba	0	left
6.6.1	win	2023-06-27	02:27:37	02:38:22	640549	5eecd2e3a38fd009dd9d1f3d	4	1	DL_practice	21	DL_practice	3	stimuli_target_rectanglediamonds.svg	stimuli_distractor_trianglediamonds.svg	2	yes	ka	0	1321	6	1	antiphase_hc_iso.wav	2	6	5	noise_calib_stim_RIGHT.wav	2	18	blb_dichoticlistening_ga-ta.mp3	ga	ta	1	other
6.6.1	win	2023-06-27	02:27:37	02:38:22	640549	5eecd2e3a38fd009dd9d1f3d	4	1	DL_practice	21	DL_practice	4	stimuli_target_rectanglediamonds.svg	stimuli_distractor_trianglediamonds.svg	2	yes	pa	1	1038	6	1	antiphase_hc_iso.wav	2	6	5	noise_calib_stim_RIGHT.wav	2	23	blb_dichoticlistening_ka-pa.mp3	ka	pa	1	right
6.6.1	win	2023-06-27	02:27:37	02:38:22	640549	5eecd2e3a38fd009dd9d1f3d	4	1	DL_practice	21	DL_practice	5	stimuli_target_rectanglediamonds.svg	stimuli_distractor_trianglediamonds.svg	2	yes	pa	1	623	6	1	antiphase_hc_iso.wav	2	6	5	noise_calib_stim_RIGHT.wav	2	29	blb_dichoticlistening_pa-pa.mp3	pa	pa	0	left
6.6.1	win	2023-06-27	02:27:37	02:38:22	640549	5eecd2e3a38fd009dd9d1f3d	4	1	DL_practice	21	DL_practice	6	stimuli_target_rectanglediamonds.svg	stimuli_distractor_trianglediamonds.svg	2	yes	ka	1	610	6	1	antiphase_hc_iso.wav	2	6	5	noise_calib_stim_RIGHT.wav	2	22	blb_dichoticlistening_ka-ka.mp3	ka	ka	0	left
6.6.1	win	2023-06-27	02:27:37	02:38:22	640549	5eecd2e3a38fd009dd9d1f3d	4	1	DL_practice	21	DL_practice	7	stimuli_target_rectanglediamonds.svg	stimuli_distractor_trianglediamonds.svg	2	yes	da	1	1086	6	1	antiphase_hc_iso.wav	2	6	5	noise_calib_stim_RIGHT.wav	2	7	blb_dichoticlistening_da-ba.mp3	da	ba	1	left
6.6.1	win	2023-06-27	02:27:37	02:38:22	640549	5eecd2e3a38fd009dd9d1f3d	4	1	DL_practice	21	DL_practice	8	stimuli_target_rectanglediamonds.svg	stimuli_distractor_trianglediamonds.svg	2	yes	ga	1	702	6	1	antiphase_hc_iso.wav	2	6	5	noise_calib_stim_RIGHT.wav	2	15	blb_dichoticlistening_ga-ga.mp3	ga	ga	0	left
6.6.1	win	2023-06-27	02:27:37	02:38:22	640549	5eecd2e3a38fd009dd9d1f3d	4	1	DL_practice	21	DL_practice	9	stimuli_target_rectanglediamonds.svg	stimuli_distractor_trianglediamonds.svg	2	yes	da	1	1125	6	1	antiphase_hc_iso.wav	2	6	5	noise_calib_stim_RIGHT.wav	2	8	blb_dichoticlistening_da-da.mp3	da	da	0	left
6.6.1	win	2023-06-27	02:27:37	02:38:22	640549	5eecd2e3a38fd009dd9d1f3d	4	1	DL_practice	21	DL_practice	10	stimuli_target_rectanglediamonds.svg	stimuli_distractor_trianglediamonds.svg	2	yes	ka	0	1006	6	1	antiphase_hc_iso.wav	2	6	5	noise_calib_stim_RIGHT.wav	2	36	blb_dichoticlistening_ta-ta.mp3	ta	ta	0	other
6.6.1	win	2023-06-27	02:27:37	02:38:22	640549	5eecd2e3a38fd009dd9d1f3d	4	1	DL_test	23	DL_test	1	stimuli_target_rectanglediamonds.svg	stimuli_distractor_trianglediamonds.svg	2	yes	pa	1	885	6	1	antiphase_hc_iso.wav	2	6	5	noise_calib_stim_RIGHT.wav	2	25	blb_dichoticlistening_pa-ba.mp3	pa	ba	1	left
6.6.1	win	2023-06-27	02:27:37	02:38:22	640549	5eecd2e3a38fd009dd9d1f3d	4	1	DL_test	23	DL_test	2	stimuli_target_rectanglediamonds.svg	stimuli_distractor_trianglediamonds.svg	2	yes	ka	1	769	6	1	antiphase_hc_iso.wav	2	6	5	noise_calib_stim_RIGHT.wav	2	19	blb_dichoticlistening_ka-ba.mp3	ka	ba	1	left
6.6.1	win	2023-06-27	02:27:37	02:38:22	640549	5eecd2e3a38fd009dd9d1f3d	4	1	DL_test	23	DL_test	3	stimuli_target_rectanglediamonds.svg	stimuli_distractor_trianglediamonds.svg	2	yes	ka	1	515	6	1	antiphase_hc_iso.wav	2	6	5	noise_calib_stim_RIGHT.wav	2	22	blb_dichoticlistening_ka-ka.mp3	ka	ka	0	left
6.6.1	win	2023-06-27	02:27:37	02:38:22	640549	5eecd2e3a38fd009dd9d1f3d	4	1	DL_test	23	DL_test	4	stimuli_target_rectanglediamonds.svg	stimuli_distractor_trianglediamonds.svg	2	yes	da	1	1021	6	1	antiphase_hc_iso.wav	2	6	5	noise_calib_stim_RIGHT.wav	2	8	blb_dichoticlistening_da-da.mp3	da	da	0	left
6.6.1	win	2023-06-27	02:27:37	02:38:22	640549	5eecd2e3a38fd009dd9d1f3d	4	1	DL_test	23	DL_test	5	stimuli_target_rectanglediamonds.svg	stimuli_distractor_trianglediamonds.svg	2	yes	pa	1	898	6	1	antiphase_hc_iso.wav	2	6	5	noise_calib_stim_RIGHT.wav	2	11	blb_dichoticlistening_da-pa.mp3	da	pa	1	right
6.6.1	win	2023-06-27	02:27:37	02:38:22	640549	5eecd2e3a38fd009dd9d1f3d	4	1	DL_test	23	DL_test	6	stimuli_target_rectanglediamonds.svg	stimuli_distractor_trianglediamonds.svg	2	yes	ka	0	695	6	1	antiphase_hc_iso.wav	2	6	5	noise_calib_stim_RIGHT.wav	2	18	blb_dichoticlistening_ga-ta.mp3	ga	ta	1	other
6.6.1	win	2023-06-27	02:27:37	02:38:22	640549	5eecd2e3a38fd009dd9d1f3d	4	1	DL_test	23	DL_test	7	stimuli_target_rectanglediamonds.svg	stimuli_distractor_trianglediamonds.svg	2	yes	pa	1	742	6	1	antiphase_hc_iso.wav	2	6	5	noise_calib_stim_RIGHT.wav	2	30	blb_dichoticlistening_pa-ta.mp3	pa	ta	1	left
6.6.1	win	2023-06-27	02:27:37	02:38:22	640549	5eecd2e3a38fd009dd9d1f3d	4	1	DL_test	23	DL_test	8	stimuli_target_rectanglediamonds.svg	stimuli_distractor_trianglediamonds.svg	2	yes	pa	1	581	6	1	antiphase_hc_iso.wav	2	6	5	noise_calib_stim_RIGHT.wav	2	5	blb_dichoticlistening_ba-pa.mp3	ba	pa	1	right
6.6.1	win	2023-06-27	02:27:37	02:38:22	640549	5eecd2e3a38fd009dd9d1f3d	4	1	DL_test	23	DL_test	9	stimuli_target_rectanglediamonds.svg	stimuli_distractor_trianglediamonds.svg	2	yes	ka	1	704	6	1	antiphase_hc_iso.wav	2	6	5	noise_calib_stim_RIGHT.wav	2	23	blb_dichoticlistening_ka-pa.mp3	ka	pa	1	left
6.6.1	win	2023-06-27	02:27:37	02:38:22	640549	5eecd2e3a38fd009dd9d1f3d	4	1	DL_test	23	DL_test	10	stimuli_target_rectanglediamonds.svg	stimuli_distractor_trianglediamonds.svg	2	yes	ba	1	1130	6	1	antiphase_hc_iso.wav	2	6	5	noise_calib_stim_RIGHT.wav	2	1	blb_dichoticlistening_ba-ba.mp3	ba	ba	0	left
6.6.1	win	2023-06-27	02:27:37	02:38:22	640549	5eecd2e3a38fd009dd9d1f3d	4	1	DL_test	23	DL_test	11	stimuli_target_rectanglediamonds.svg	stimuli_distractor_trianglediamonds.svg	2	yes	ka	1	1054	6	1	antiphase_hc_iso.wav	2	6	5	noise_calib_stim_RIGHT.wav	2	16	blb_dichoticlistening_ga-ka.mp3	ga	ka	1	right
6.6.1	win	2023-06-27	02:27:37	02:38:22	640549	5eecd2e3a38fd009dd9d1f3d	4	1	DL_test	23	DL_test	12	stimuli_target_rectanglediamonds.svg	stimuli_distractor_trianglediamonds.svg	2	yes	ka	0	751	6	1	antiphase_hc_iso.wav	2	6	5	noise_calib_stim_RIGHT.wav	2	32	blb_dichoticlistening_ta-da.mp3	ta	da	1	other
6.6.1	win	2023-06-27	02:27:37	02:38:22	640549	5eecd2e3a38fd009dd9d1f3d	4	1	DL_test	23	DL_test	13	stimuli_target_rectanglediamonds.svg	stimuli_distractor_trianglediamonds.svg	2	yes	ka	1	765	6	1	antiphase_hc_iso.wav	2	6	5	noise_calib_stim_RIGHT.wav	2	4	blb_dichoticlistening_ba-ka.mp3	ba	ka	1	right
6.6.1	win	2023-06-27	02:27:37	02:38:22	640549	5eecd2e3a38fd009dd9d1f3d	4	1	DL_test	23	DL_test	14	stimuli_target_rectanglediamonds.svg	stimuli_distractor_trianglediamonds.svg	2	yes	ka	0	621	6	1	antiphase_hc_iso.wav	2	6	5	noise_calib_stim_RIGHT.wav	2	36	blb_dichoticlistening_ta-ta.mp3	ta	ta	0	other
6.6.1	win	2023-06-27	02:27:37	02:38:22	640549	5eecd2e3a38fd009dd9d1f3d	4	1	DL_test	23	DL_test	15	stimuli_target_rectanglediamonds.svg	stimuli_distractor_trianglediamonds.svg	2	yes	ka	1	591	6	1	antiphase_hc_iso.wav	2	6	5	noise_calib_stim_RIGHT.wav	2	34	blb_dichoticlistening_ta-ka.mp3	ta	ka	1	right
6.6.1	win	2023-06-27	02:27:37	02:38:22	640549	5eecd2e3a38fd009dd9d1f3d	4	1	DL_test	23	DL_test	16	stimuli_target_rectanglediamonds.svg	stimuli_distractor_trianglediamonds.svg	2	yes	pa	0	1210	6	1	antiphase_hc_iso.wav	2	6	5	noise_calib_stim_RIGHT.wav	2	31	blb_dichoticlistening_ta-ba.mp3	ta	ba	1	other
6.6.1	win	2023-06-27	02:27:37	02:38:22	640549	5eecd2e3a38fd009dd9d1f3d	4	1	DL_test	23	DL_test	17	stimuli_target_rectanglediamonds.svg	stimuli_distractor_trianglediamonds.svg	2	yes	ga	1	959	6	1	antiphase_hc_iso.wav	2	6	5	noise_calib_stim_RIGHT.wav	2	15	blb_dichoticlistening_ga-ga.mp3	ga	ga	0	left
6.6.1	win	2023-06-27	02:27:37	02:38:22	640549	5eecd2e3a38fd009dd9d1f3d	4	1	DL_test	23	DL_test	18	stimuli_target_rectanglediamonds.svg	stimuli_distractor_trianglediamonds.svg	2	yes	pa	1	1058	6	1	antiphase_hc_iso.wav	2	6	5	noise_calib_stim_RIGHT.wav	2	17	blb_dichoticlistening_ga-pa.mp3	ga	pa	1	right
6.6.1	win	2023-06-27	02:27:37	02:38:22	640549	5eecd2e3a38fd009dd9d1f3d	4	1	DL_test	23	DL_test	19	stimuli_target_rectanglediamonds.svg	stimuli_distractor_trianglediamonds.svg	2	yes	pa	1	583	6	1	antiphase_hc_iso.wav	2	6	5	noise_calib_stim_RIGHT.wav	2	29	blb_dichoticlistening_pa-pa.mp3	pa	pa	0	left
6.6.1	win	2023-06-27	02:27:37	02:38:22	640549	5eecd2e3a38fd009dd9d1f3d	4	1	DL_test	23	DL_test	20	stimuli_target_rectanglediamonds.svg	stimuli_distractor_trianglediamonds.svg	2	yes	pa	1	762	6	1	antiphase_hc_iso.wav	2	6	5	noise_calib_stim_RIGHT.wav	2	27	blb_dichoticlistening_pa-ga.mp3	pa	ga	1	left
6.6.1	win	2023-06-27	02:27:37	02:38:22	640549	5eecd2e3a38fd009dd9d1f3d	4	1	DL_test	23	DL_test	21	stimuli_target_rectanglediamonds.svg	stimuli_distractor_trianglediamonds.svg	2	yes	ka	1	787	6	1	antiphase_hc_iso.wav	2	6	5	noise_calib_stim_RIGHT.wav	2	24	blb_dichoticlistening_ka-ta.mp3	ka	ta	1	left
6.6.1	win	2023-06-27	02:27:37	02:38:22	640549	5eecd2e3a38fd009dd9d1f3d	4	1	DL_test	23	DL_test	22	stimuli_target_rectanglediamonds.svg	stimuli_distractor_trianglediamonds.svg	2	yes	ka	1	663	6	1	antiphase_hc_iso.wav	2	6	5	noise_calib_stim_RIGHT.wav	2	21	blb_dichoticlistening_ka-ga.mp3	ka	ga	1	left
6.6.1	win	2023-06-27	02:27:37	02:38:22	640549	5eecd2e3a38fd009dd9d1f3d	4	1	DL_test	23	DL_test	23	stimuli_target_rectanglediamonds.svg	stimuli_distractor_trianglediamonds.svg	2	yes	ka	0	713	6	1	antiphase_hc_iso.wav	2	6	5	noise_calib_stim_RIGHT.wav	2	12	blb_dichoticlistening_da-ta.mp3	da	ta	1	other
6.6.1	win	2023-06-27	02:27:37	02:38:22	640549	5eecd2e3a38fd009dd9d1f3d	4	1	DL_test	23	DL_test	24	stimuli_target_rectanglediamonds.svg	stimuli_distractor_trianglediamonds.svg	2	yes	ga	1	1093	6	1	antiphase_hc_iso.wav	2	6	5	noise_calib_stim_RIGHT.wav	2	13	blb_dichoticlistening_ga-ba.mp3	ga	ba	1	left
6.6.1	win	2023-06-27	02:27:37	02:38:22	640549	5eecd2e3a38fd009dd9d1f3d	4	1	DL_test	23	DL_test	25	stimuli_target_rectanglediamonds.svg	stimuli_distractor_trianglediamonds.svg	2	yes	pa	1	910	6	1	antiphase_hc_iso.wav	2	6	5	noise_calib_stim_RIGHT.wav	2	26	blb_dichoticlistening_pa-da.mp3	pa	da	1	left
6.6.1	win	2023-06-27	02:27:37	02:38:22	640549	5eecd2e3a38fd009dd9d1f3d	4	1	DL_test	23	DL_test	26	stimuli_target_rectanglediamonds.svg	stimuli_distractor_trianglediamonds.svg	2	yes	ga	1	1145	6	1	antiphase_hc_iso.wav	2	6	5	noise_calib_stim_RIGHT.wav	2	14	blb_dichoticlistening_ga-da.mp3	ga	da	1	left
