build	computer.platform	date	time	timestamp	time_elapsed_ms	subject	group	session	blockcode	blocknum	trialcode	trialnum	stimulus_left	stimulus_right	stim_index	target_present	response	correct	latency	headphonecheck_countTestTrials	headphonecheck_index	headphonecheck_testSound	headphonecheck_correctResponse	stereocheck_countTestTrials	stereocheck_index	stereocheck_testSound	stereocheck_correctResponse	DL_index	DL_soundfile	DL_leftSound	DL_rightSound	DL_dualSound	DL_choice
6.6.1	win	2023-06-27	16:49:54	0	0	63e51c373af1cc5baf0c727f	1	1	headphonecheck_calibration	4	headphonecheck_calibrationIntro	1			0		calibrationButton	0	5140	0	0			0	0			1				0	
6.6.1	win	2023-06-27	16:49:54	0	0	63e51c373af1cc5baf0c727f	1	1	headphonecheck_testphase	5	test_collectResponse	3			0		first	0	8289	1	5	antiphase_hc_osi.wav	2	0	0			1				0	
6.6.1	win	2023-06-27	16:49:54	0	0	63e51c373af1cc5baf0c727f	1	1	headphonecheck_testphase	5	test_collectResponse	6			0		second	1	750	2	1	antiphase_hc_iso.wav	2	0	0			1				0	
6.6.1	win	2023-06-27	16:49:54	0	0	63e51c373af1cc5baf0c727f	1	1	headphonecheck_testphase	5	test_collectResponse	9			0		first	1	729	3	3	antiphase_hc_soi.wav	1	0	0			1				0	
6.6.1	win	2023-06-27	16:49:54	0	0	63e51c373af1cc5baf0c727f	1	1	headphonecheck_testphase	5	test_collectResponse	12			0		third	1	659	4	2	antiphase_hc_ios.wav	3	0	0			1				0	
6.6.1	win	2023-06-27	16:49:54	0	0	63e51c373af1cc5baf0c727f	1	1	headphonecheck_testphase	5	test_collectResponse	15			0		third	1	401	5	6	antiphase_hc_ois.wav	3	0	0			1				0	
6.6.1	win	2023-06-27	16:49:54	0	0	63e51c373af1cc5baf0c727f	1	1	headphonecheck_testphase	5	test_collectResponse	18			0		third	0	797	6	4	antiphase_hc_sio.wav	1	0	0			1				0	
6.6.1	win	2023-06-27	16:49:54	0	0	63e51c373af1cc5baf0c727f	1	1	stereocheck_calibration	7	stereocheck_calibrationIntro	1			0		stereocheck_calibrationButton	0	14096	6	4	antiphase_hc_sio.wav	1	0	0			1				0	
6.6.1	win	2023-06-27	16:49:54	0	0	63e51c373af1cc5baf0c727f	1	1	stereocheck_testphase	8	stereocheck_test_collectResponse	3			0		stereocheck_right	1	841	6	4	antiphase_hc_sio.wav	1	1	4	noise_calib_stim_RIGHT.wav	2	1				0	
6.6.1	win	2023-06-27	16:49:54	0	0	63e51c373af1cc5baf0c727f	1	1	stereocheck_testphase	8	stereocheck_test_collectResponse	6			0		stereocheck_left	1	723	6	4	antiphase_hc_sio.wav	1	2	3	noise_calib_stim_LEFT.wav	1	1				0	
6.6.1	win	2023-06-27	16:49:54	0	0	63e51c373af1cc5baf0c727f	1	1	stereocheck_testphase	8	stereocheck_test_collectResponse	9			0		stereocheck_left	1	625	6	4	antiphase_hc_sio.wav	1	3	1	noise_calib_stim_LEFT.wav	1	1				0	
6.6.1	win	2023-06-27	16:49:54	0	0	63e51c373af1cc5baf0c727f	1	1	stereocheck_testphase	8	stereocheck_test_collectResponse	12			0		stereocheck_right	1	464	6	4	antiphase_hc_sio.wav	1	4	6	noise_calib_stim_RIGHT.wav	2	1				0	
6.6.1	win	2023-06-27	16:49:54	0	0	63e51c373af1cc5baf0c727f	1	1	stereocheck_testphase	8	stereocheck_test_collectResponse	15			0		stereocheck_right	1	311	6	4	antiphase_hc_sio.wav	1	5	5	noise_calib_stim_RIGHT.wav	2	1				0	
6.6.1	win	2023-06-27	16:49:54	0	0	63e51c373af1cc5baf0c727f	1	1	stereocheck_testphase	8	stereocheck_test_collectResponse	18			0		stereocheck_left	1	397	6	4	antiphase_hc_sio.wav	1	6	2	noise_calib_stim_LEFT.wav	1	1				0	
6.6.1	win	2023-06-27	16:49:54	0	0	63e51c373af1cc5baf0c727f	1	1	DL_practice	11	DL_practice	2			0		ba	1	3169	6	4	antiphase_hc_sio.wav	1	6	2	noise_calib_stim_LEFT.wav	1	7	blb_dichoticlistening_da-ba.mp3	da	ba	1	right
6.6.1	win	2023-06-27	16:49:54	0	0	63e51c373af1cc5baf0c727f	1	1	DL_practice	11	DL_practice	3			0		ga	1	1520	6	4	antiphase_hc_sio.wav	1	6	2	noise_calib_stim_LEFT.wav	1	18	blb_dichoticlistening_ga-ta.mp3	ga	ta	1	left
6.6.1	win	2023-06-27	16:49:54	0	0	63e51c373af1cc5baf0c727f	1	1	DL_practice	11	DL_practice	4			0		ta	1	1895	6	4	antiphase_hc_sio.wav	1	6	2	noise_calib_stim_LEFT.wav	1	36	blb_dichoticlistening_ta-ta.mp3	ta	ta	0	left
6.6.1	win	2023-06-27	16:49:54	0	0	63e51c373af1cc5baf0c727f	1	1	DL_practice	11	DL_practice	5			0		da	1	1505	6	4	antiphase_hc_sio.wav	1	6	2	noise_calib_stim_LEFT.wav	1	8	blb_dichoticlistening_da-da.mp3	da	da	0	left
6.6.1	win	2023-06-27	16:49:54	0	0	63e51c373af1cc5baf0c727f	1	1	DL_practice	11	DL_practice	6			0		ka	1	1404	6	4	antiphase_hc_sio.wav	1	6	2	noise_calib_stim_LEFT.wav	1	22	blb_dichoticlistening_ka-ka.mp3	ka	ka	0	left
6.6.1	win	2023-06-27	16:49:54	0	0	63e51c373af1cc5baf0c727f	1	1	DL_practice	11	DL_practice	7			0		ga	1	1190	6	4	antiphase_hc_sio.wav	1	6	2	noise_calib_stim_LEFT.wav	1	15	blb_dichoticlistening_ga-ga.mp3	ga	ga	0	left
6.6.1	win	2023-06-27	16:49:54	0	0	63e51c373af1cc5baf0c727f	1	1	DL_practice	11	DL_practice	8			0		pa	1	2398	6	4	antiphase_hc_sio.wav	1	6	2	noise_calib_stim_LEFT.wav	1	29	blb_dichoticlistening_pa-pa.mp3	pa	pa	0	left
6.6.1	win	2023-06-27	16:49:54	0	0	63e51c373af1cc5baf0c727f	1	1	DL_practice	11	DL_practice	9			0		ka	1	3976	6	4	antiphase_hc_sio.wav	1	6	2	noise_calib_stim_LEFT.wav	1	23	blb_dichoticlistening_ka-pa.mp3	ka	pa	1	left
6.6.1	win	2023-06-27	16:49:54	0	0	63e51c373af1cc5baf0c727f	1	1	DL_practice	11	DL_practice	10			0		pa	0	1628	6	4	antiphase_hc_sio.wav	1	6	2	noise_calib_stim_LEFT.wav	1	1	blb_dichoticlistening_ba-ba.mp3	ba	ba	0	other
6.6.1	win	2023-06-27	16:49:54	0	0	63e51c373af1cc5baf0c727f	1	1	DL_test	13	DL_test	1			0		da	1	1843	6	4	antiphase_hc_sio.wav	1	6	2	noise_calib_stim_LEFT.wav	1	8	blb_dichoticlistening_da-da.mp3	da	da	0	left
6.6.1	win	2023-06-27	16:49:54	0	0	63e51c373af1cc5baf0c727f	1	1	DL_test	13	DL_test	2			0		ga	1	1013	6	4	antiphase_hc_sio.wav	1	6	2	noise_calib_stim_LEFT.wav	1	21	blb_dichoticlistening_ka-ga.mp3	ka	ga	1	right
6.6.1	win	2023-06-27	16:49:54	0	0	63e51c373af1cc5baf0c727f	1	1	DL_test	13	DL_test	3			0		ka	1	1078	6	4	antiphase_hc_sio.wav	1	6	2	noise_calib_stim_LEFT.wav	1	23	blb_dichoticlistening_ka-pa.mp3	ka	pa	1	left
6.6.1	win	2023-06-27	16:49:54	0	0	63e51c373af1cc5baf0c727f	1	1	DL_test	13	DL_test	4			0		ga	1	1073	6	4	antiphase_hc_sio.wav	1	6	2	noise_calib_stim_LEFT.wav	1	15	blb_dichoticlistening_ga-ga.mp3	ga	ga	0	left
6.6.1	win	2023-06-27	16:49:54	0	0	63e51c373af1cc5baf0c727f	1	1	DL_test	13	DL_test	5			0		ta	1	1936	6	4	antiphase_hc_sio.wav	1	6	2	noise_calib_stim_LEFT.wav	1	30	blb_dichoticlistening_pa-ta.mp3	pa	ta	1	right
6.6.1	win	2023-06-27	16:49:54	0	0	63e51c373af1cc5baf0c727f	1	1	DL_test	13	DL_test	6			0		da	1	1338	6	4	antiphase_hc_sio.wav	1	6	2	noise_calib_stim_LEFT.wav	1	10	blb_dichoticlistening_da-ka.mp3	da	ka	1	left
6.6.1	win	2023-06-27	16:49:54	0	0	63e51c373af1cc5baf0c727f	1	1	DL_test	13	DL_test	7			0		ba	1	1387	6	4	antiphase_hc_sio.wav	1	6	2	noise_calib_stim_LEFT.wav	1	3	blb_dichoticlistening_ba-ga.mp3	ba	ga	1	left
6.6.1	win	2023-06-27	16:49:54	0	0	63e51c373af1cc5baf0c727f	1	1	DL_test	13	DL_test	8			0		ka	1	988	6	4	antiphase_hc_sio.wav	1	6	2	noise_calib_stim_LEFT.wav	1	22	blb_dichoticlistening_ka-ka.mp3	ka	ka	0	left
6.6.1	win	2023-06-27	16:49:54	0	0	63e51c373af1cc5baf0c727f	1	1	DL_test	13	DL_test	9			0		ka	1	708	6	4	antiphase_hc_sio.wav	1	6	2	noise_calib_stim_LEFT.wav	1	34	blb_dichoticlistening_ta-ka.mp3	ta	ka	1	right
6.6.1	win	2023-06-27	16:49:54	0	0	63e51c373af1cc5baf0c727f	1	1	DL_test	13	DL_test	10			0		ba	1	1517	6	4	antiphase_hc_sio.wav	1	6	2	noise_calib_stim_LEFT.wav	1	13	blb_dichoticlistening_ga-ba.mp3	ga	ba	1	right
6.6.1	win	2023-06-27	16:49:54	0	0	63e51c373af1cc5baf0c727f	1	1	DL_test	13	DL_test	11			0		da	1	1357	6	4	antiphase_hc_sio.wav	1	6	2	noise_calib_stim_LEFT.wav	1	26	blb_dichoticlistening_pa-da.mp3	pa	da	1	right
6.6.1	win	2023-06-27	16:49:54	0	0	63e51c373af1cc5baf0c727f	1	1	DL_test	13	DL_test	12			0		ka	1	1096	6	4	antiphase_hc_sio.wav	1	6	2	noise_calib_stim_LEFT.wav	1	28	blb_dichoticlistening_pa-ka.mp3	pa	ka	1	right
6.6.1	win	2023-06-27	16:49:54	0	0	63e51c373af1cc5baf0c727f	1	1	DL_test	13	DL_test	13			0		ga	0	1142	6	4	antiphase_hc_sio.wav	1	6	2	noise_calib_stim_LEFT.wav	1	20	blb_dichoticlistening_ka-da.mp3	ka	da	1	other
6.6.1	win	2023-06-27	16:49:54	0	0	63e51c373af1cc5baf0c727f	1	1	DL_test	13	DL_test	14			0		pa	1	1110	6	4	antiphase_hc_sio.wav	1	6	2	noise_calib_stim_LEFT.wav	1	25	blb_dichoticlistening_pa-ba.mp3	pa	ba	1	left
6.6.1	win	2023-06-27	16:49:54	0	0	63e51c373af1cc5baf0c727f	1	1	DL_test	13	DL_test	15			0		pa	0	970	6	4	antiphase_hc_sio.wav	1	6	2	noise_calib_stim_LEFT.wav	1	1	blb_dichoticlistening_ba-ba.mp3	ba	ba	0	other
6.6.1	win	2023-06-27	16:49:54	0	0	63e51c373af1cc5baf0c727f	1	1	DL_test	13	DL_test	16			0		ta	1	1245	6	4	antiphase_hc_sio.wav	1	6	2	noise_calib_stim_LEFT.wav	1	36	blb_dichoticlistening_ta-ta.mp3	ta	ta	0	left
6.6.1	win	2023-06-27	16:49:54	0	0	63e51c373af1cc5baf0c727f	1	1	DL_test	13	DL_test	17			0		ga	1	1267	6	4	antiphase_hc_sio.wav	1	6	2	noise_calib_stim_LEFT.wav	1	33	blb_dichoticlistening_ta-ga.mp3	ta	ga	1	right
6.6.1	win	2023-06-27	16:49:54	0	0	63e51c373af1cc5baf0c727f	1	1	DL_test	13	DL_test	18			0		ga	1	1204	6	4	antiphase_hc_sio.wav	1	6	2	noise_calib_stim_LEFT.wav	1	17	blb_dichoticlistening_ga-pa.mp3	ga	pa	1	left
6.6.1	win	2023-06-27	16:49:54	0	0	63e51c373af1cc5baf0c727f	1	1	DL_test	13	DL_test	19			0		ta	1	2943	6	4	antiphase_hc_sio.wav	1	6	2	noise_calib_stim_LEFT.wav	1	31	blb_dichoticlistening_ta-ba.mp3	ta	ba	1	left
6.6.1	win	2023-06-27	16:49:54	0	0	63e51c373af1cc5baf0c727f	1	1	DL_test	13	DL_test	20			0		ta	1	1293	6	4	antiphase_hc_sio.wav	1	6	2	noise_calib_stim_LEFT.wav	1	35	blb_dichoticlistening_ta-pa.mp3	ta	pa	1	left
6.6.1	win	2023-06-27	16:49:54	0	0	63e51c373af1cc5baf0c727f	1	1	DL_test	13	DL_test	21			0		ka	1	1048	6	4	antiphase_hc_sio.wav	1	6	2	noise_calib_stim_LEFT.wav	1	24	blb_dichoticlistening_ka-ta.mp3	ka	ta	1	left
6.6.1	win	2023-06-27	16:49:54	0	0	63e51c373af1cc5baf0c727f	1	1	DL_test	13	DL_test	22			0		pa	0	928	6	4	antiphase_hc_sio.wav	1	6	2	noise_calib_stim_LEFT.wav	1	6	blb_dichoticlistening_ba-ta.mp3	ba	ta	1	other
6.6.1	win	2023-06-27	16:49:54	0	0	63e51c373af1cc5baf0c727f	1	1	DL_test	13	DL_test	23			0		ga	1	858	6	4	antiphase_hc_sio.wav	1	6	2	noise_calib_stim_LEFT.wav	1	27	blb_dichoticlistening_pa-ga.mp3	pa	ga	1	right
6.6.1	win	2023-06-27	16:49:54	0	0	63e51c373af1cc5baf0c727f	1	1	DL_test	13	DL_test	24			0		ga	1	1239	6	4	antiphase_hc_sio.wav	1	6	2	noise_calib_stim_LEFT.wav	1	9	blb_dichoticlistening_da-ga.mp3	da	ga	1	right
6.6.1	win	2023-06-27	16:49:54	0	0	63e51c373af1cc5baf0c727f	1	1	DL_test	13	DL_test	25			0		da	1	2244	6	4	antiphase_hc_sio.wav	1	6	2	noise_calib_stim_LEFT.wav	1	14	blb_dichoticlistening_ga-da.mp3	ga	da	1	right
6.6.1	win	2023-06-27	16:49:54	0	0	63e51c373af1cc5baf0c727f	1	1	DL_test	13	DL_test	26			0		da	1	757	6	4	antiphase_hc_sio.wav	1	6	2	noise_calib_stim_LEFT.wav	1	32	blb_dichoticlistening_ta-da.mp3	ta	da	1	right
6.6.1	win	2023-06-27	16:49:54	0	0	63e51c373af1cc5baf0c727f	1	1	DL_test	13	DL_test	27			0		da	1	803	6	4	antiphase_hc_sio.wav	1	6	2	noise_calib_stim_LEFT.wav	1	12	blb_dichoticlistening_da-ta.mp3	da	ta	1	left
6.6.1	win	2023-06-27	16:49:54	0	0	63e51c373af1cc5baf0c727f	1	1	DL_test	13	DL_test	28			0		ga	1	912	6	4	antiphase_hc_sio.wav	1	6	2	noise_calib_stim_LEFT.wav	1	16	blb_dichoticlistening_ga-ka.mp3	ga	ka	1	left
6.6.1	win	2023-06-27	16:49:54	0	0	63e51c373af1cc5baf0c727f	1	1	DL_test	13	DL_test	29			0		pa	0	1057	6	4	antiphase_hc_sio.wav	1	6	2	noise_calib_stim_LEFT.wav	1	19	blb_dichoticlistening_ka-ba.mp3	ka	ba	1	other
6.6.1	win	2023-06-27	16:49:54	0	0	63e51c373af1cc5baf0c727f	1	1	DL_test	13	DL_test	30			0		pa	0	954	6	4	antiphase_hc_sio.wav	1	6	2	noise_calib_stim_LEFT.wav	1	7	blb_dichoticlistening_da-ba.mp3	da	ba	1	other
6.6.1	win	2023-06-27	16:49:54	0	0	63e51c373af1cc5baf0c727f	1	1	DL_test	13	DL_test	31			0		pa	0	818	6	4	antiphase_hc_sio.wav	1	6	2	noise_calib_stim_LEFT.wav	1	4	blb_dichoticlistening_ba-ka.mp3	ba	ka	1	other
6.6.1	win	2023-06-27	16:49:54	0	0	63e51c373af1cc5baf0c727f	1	1	DL_test	13	DL_test	32			0		pa	0	1632	6	4	antiphase_hc_sio.wav	1	6	2	noise_calib_stim_LEFT.wav	1	2	blb_dichoticlistening_ba-da.mp3	ba	da	1	other
6.6.1	win	2023-06-27	16:49:54	0	0	63e51c373af1cc5baf0c727f	1	1	DL_test	13	DL_test	33			0		pa	1	849	6	4	antiphase_hc_sio.wav	1	6	2	noise_calib_stim_LEFT.wav	1	29	blb_dichoticlistening_pa-pa.mp3	pa	pa	0	left
6.6.1	win	2023-06-27	16:49:54	0	0	63e51c373af1cc5baf0c727f	1	1	DL_test	13	DL_test	34			0		pa	1	756	6	4	antiphase_hc_sio.wav	1	6	2	noise_calib_stim_LEFT.wav	1	5	blb_dichoticlistening_ba-pa.mp3	ba	pa	1	right
6.6.1	win	2023-06-27	16:49:54	0	0	63e51c373af1cc5baf0c727f	1	1	DL_test	13	DL_test	35			0		ga	1	950	6	4	antiphase_hc_sio.wav	1	6	2	noise_calib_stim_LEFT.wav	1	18	blb_dichoticlistening_ga-ta.mp3	ga	ta	1	left
6.6.1	win	2023-06-27	16:49:54	0	0	63e51c373af1cc5baf0c727f	1	1	DL_test	13	DL_test	36			0		da	1	1043	6	4	antiphase_hc_sio.wav	1	6	2	noise_calib_stim_LEFT.wav	1	11	blb_dichoticlistening_da-pa.mp3	da	pa	1	left
6.6.1	win	2023-06-27	16:49:54	0	0	63e51c373af1cc5baf0c727f	1	1	DL_test	14	DL_test	1			0		pa	1	1146	6	4	antiphase_hc_sio.wav	1	6	2	noise_calib_stim_LEFT.wav	1	5	blb_dichoticlistening_ba-pa.mp3	ba	pa	1	right
6.6.1	win	2023-06-27	16:49:54	0	0	63e51c373af1cc5baf0c727f	1	1	DL_test	14	DL_test	2			0		ka	1	835	6	4	antiphase_hc_sio.wav	1	6	2	noise_calib_stim_LEFT.wav	1	22	blb_dichoticlistening_ka-ka.mp3	ka	ka	0	left
6.6.1	win	2023-06-27	16:49:54	0	0	63e51c373af1cc5baf0c727f	1	1	DL_test	14	DL_test	3			0		pa	1	902	6	4	antiphase_hc_sio.wav	1	6	2	noise_calib_stim_LEFT.wav	1	29	blb_dichoticlistening_pa-pa.mp3	pa	pa	0	left
6.6.1	win	2023-06-27	16:49:54	0	0	63e51c373af1cc5baf0c727f	1	1	DL_test	14	DL_test	4			0		da	1	1440	6	4	antiphase_hc_sio.wav	1	6	2	noise_calib_stim_LEFT.wav	1	11	blb_dichoticlistening_da-pa.mp3	da	pa	1	left
6.6.1	win	2023-06-27	16:49:54	0	0	63e51c373af1cc5baf0c727f	1	1	DL_test	14	DL_test	5			0		ta	1	1602	6	4	antiphase_hc_sio.wav	1	6	2	noise_calib_stim_LEFT.wav	1	36	blb_dichoticlistening_ta-ta.mp3	ta	ta	0	left
6.6.1	win	2023-06-27	16:49:54	0	0	63e51c373af1cc5baf0c727f	1	1	DL_test	14	DL_test	6			0		ka	1	1154	6	4	antiphase_hc_sio.wav	1	6	2	noise_calib_stim_LEFT.wav	1	28	blb_dichoticlistening_pa-ka.mp3	pa	ka	1	right
6.6.1	win	2023-06-27	16:49:54	0	0	63e51c373af1cc5baf0c727f	1	1	DL_test	14	DL_test	7			0		ga	1	1047	6	4	antiphase_hc_sio.wav	1	6	2	noise_calib_stim_LEFT.wav	1	14	blb_dichoticlistening_ga-da.mp3	ga	da	1	left
6.6.1	win	2023-06-27	16:49:54	0	0	63e51c373af1cc5baf0c727f	1	1	DL_test	14	DL_test	8			0		da	1	808	6	4	antiphase_hc_sio.wav	1	6	2	noise_calib_stim_LEFT.wav	1	32	blb_dichoticlistening_ta-da.mp3	ta	da	1	right
6.6.1	win	2023-06-27	16:49:54	0	0	63e51c373af1cc5baf0c727f	1	1	DL_test	14	DL_test	9			0		da	1	1563	6	4	antiphase_hc_sio.wav	1	6	2	noise_calib_stim_LEFT.wav	1	26	blb_dichoticlistening_pa-da.mp3	pa	da	1	right
6.6.1	win	2023-06-27	16:49:54	0	0	63e51c373af1cc5baf0c727f	1	1	DL_test	14	DL_test	10			0		pa	0	1394	6	4	antiphase_hc_sio.wav	1	6	2	noise_calib_stim_LEFT.wav	1	3	blb_dichoticlistening_ba-ga.mp3	ba	ga	1	other
6.6.1	win	2023-06-27	16:49:54	0	0	63e51c373af1cc5baf0c727f	1	1	DL_test	14	DL_test	11			0		ka	1	1165	6	4	antiphase_hc_sio.wav	1	6	2	noise_calib_stim_LEFT.wav	1	23	blb_dichoticlistening_ka-pa.mp3	ka	pa	1	left
6.6.1	win	2023-06-27	16:49:54	0	0	63e51c373af1cc5baf0c727f	1	1	DL_test	14	DL_test	12			0		ga	1	1117	6	4	antiphase_hc_sio.wav	1	6	2	noise_calib_stim_LEFT.wav	1	9	blb_dichoticlistening_da-ga.mp3	da	ga	1	right
6.6.1	win	2023-06-27	16:49:54	0	0	63e51c373af1cc5baf0c727f	1	1	DL_test	14	DL_test	13			0		ga	1	1052	6	4	antiphase_hc_sio.wav	1	6	2	noise_calib_stim_LEFT.wav	1	27	blb_dichoticlistening_pa-ga.mp3	pa	ga	1	right
6.6.1	win	2023-06-27	16:49:54	0	0	63e51c373af1cc5baf0c727f	1	1	DL_test	14	DL_test	14			0		ta	1	1480	6	4	antiphase_hc_sio.wav	1	6	2	noise_calib_stim_LEFT.wav	1	30	blb_dichoticlistening_pa-ta.mp3	pa	ta	1	right
6.6.1	win	2023-06-27	16:49:54	0	0	63e51c373af1cc5baf0c727f	1	1	DL_test	14	DL_test	15			0		ba	1	1811	6	4	antiphase_hc_sio.wav	1	6	2	noise_calib_stim_LEFT.wav	1	13	blb_dichoticlistening_ga-ba.mp3	ga	ba	1	right
6.6.1	win	2023-06-27	16:49:54	0	0	63e51c373af1cc5baf0c727f	1	1	DL_test	14	DL_test	16			0		pa	0	1416	6	4	antiphase_hc_sio.wav	1	6	2	noise_calib_stim_LEFT.wav	1	2	blb_dichoticlistening_ba-da.mp3	ba	da	1	other
6.6.1	win	2023-06-27	16:49:54	0	0	63e51c373af1cc5baf0c727f	1	1	DL_test	14	DL_test	17			0		pa	0	796	6	4	antiphase_hc_sio.wav	1	6	2	noise_calib_stim_LEFT.wav	1	6	blb_dichoticlistening_ba-ta.mp3	ba	ta	1	other
6.6.1	win	2023-06-27	16:49:54	0	0	63e51c373af1cc5baf0c727f	1	1	DL_test	14	DL_test	18			0		pa	1	818	6	4	antiphase_hc_sio.wav	1	6	2	noise_calib_stim_LEFT.wav	1	25	blb_dichoticlistening_pa-ba.mp3	pa	ba	1	left
6.6.1	win	2023-06-27	16:49:54	0	0	63e51c373af1cc5baf0c727f	1	1	DL_test	14	DL_test	19			0		ka	1	1165	6	4	antiphase_hc_sio.wav	1	6	2	noise_calib_stim_LEFT.wav	1	24	blb_dichoticlistening_ka-ta.mp3	ka	ta	1	left
6.6.1	win	2023-06-27	16:49:54	0	0	63e51c373af1cc5baf0c727f	1	1	DL_test	14	DL_test	20			0		da	1	1135	6	4	antiphase_hc_sio.wav	1	6	2	noise_calib_stim_LEFT.wav	1	10	blb_dichoticlistening_da-ka.mp3	da	ka	1	left
6.6.1	win	2023-06-27	16:49:54	0	0	63e51c373af1cc5baf0c727f	1	1	DL_test	14	DL_test	21			0		da	1	816	6	4	antiphase_hc_sio.wav	1	6	2	noise_calib_stim_LEFT.wav	1	8	blb_dichoticlistening_da-da.mp3	da	da	0	left
6.6.1	win	2023-06-27	16:49:54	0	0	63e51c373af1cc5baf0c727f	1	1	DL_test	14	DL_test	22			0		pa	0	1007	6	4	antiphase_hc_sio.wav	1	6	2	noise_calib_stim_LEFT.wav	1	19	blb_dichoticlistening_ka-ba.mp3	ka	ba	1	other
6.6.1	win	2023-06-27	16:49:54	0	0	63e51c373af1cc5baf0c727f	1	1	DL_test	14	DL_test	23			0		ga	1	1301	6	4	antiphase_hc_sio.wav	1	6	2	noise_calib_stim_LEFT.wav	1	15	blb_dichoticlistening_ga-ga.mp3	ga	ga	0	left
6.6.1	win	2023-06-27	16:49:54	0	0	63e51c373af1cc5baf0c727f	1	1	DL_test	14	DL_test	24			0		ga	1	986	6	4	antiphase_hc_sio.wav	1	6	2	noise_calib_stim_LEFT.wav	1	21	blb_dichoticlistening_ka-ga.mp3	ka	ga	1	right
6.6.1	win	2023-06-27	16:49:54	0	0	63e51c373af1cc5baf0c727f	1	1	DL_test	14	DL_test	25			0		pa	0	804	6	4	antiphase_hc_sio.wav	1	6	2	noise_calib_stim_LEFT.wav	1	7	blb_dichoticlistening_da-ba.mp3	da	ba	1	other
6.6.1	win	2023-06-27	16:49:54	0	0	63e51c373af1cc5baf0c727f	1	1	DL_test	14	DL_test	26			0		pa	0	879	6	4	antiphase_hc_sio.wav	1	6	2	noise_calib_stim_LEFT.wav	1	1	blb_dichoticlistening_ba-ba.mp3	ba	ba	0	other
6.6.1	win	2023-06-27	16:49:54	0	0	63e51c373af1cc5baf0c727f	1	1	DL_test	14	DL_test	27			0		pa	0	951	6	4	antiphase_hc_sio.wav	1	6	2	noise_calib_stim_LEFT.wav	1	4	blb_dichoticlistening_ba-ka.mp3	ba	ka	1	other
6.6.1	win	2023-06-27	16:49:54	0	0	63e51c373af1cc5baf0c727f	1	1	DL_test	14	DL_test	28			0		ga	1	1015	6	4	antiphase_hc_sio.wav	1	6	2	noise_calib_stim_LEFT.wav	1	33	blb_dichoticlistening_ta-ga.mp3	ta	ga	1	right
6.6.1	win	2023-06-27	16:49:54	0	0	63e51c373af1cc5baf0c727f	1	1	DL_test	14	DL_test	29			0		da	1	1239	6	4	antiphase_hc_sio.wav	1	6	2	noise_calib_stim_LEFT.wav	1	20	blb_dichoticlistening_ka-da.mp3	ka	da	1	right
6.6.1	win	2023-06-27	16:49:54	0	0	63e51c373af1cc5baf0c727f	1	1	DL_test	14	DL_test	30			0		pa	0	1004	6	4	antiphase_hc_sio.wav	1	6	2	noise_calib_stim_LEFT.wav	1	31	blb_dichoticlistening_ta-ba.mp3	ta	ba	1	other
6.6.1	win	2023-06-27	16:49:54	0	0	63e51c373af1cc5baf0c727f	1	1	DL_test	14	DL_test	31			0		ka	1	947	6	4	antiphase_hc_sio.wav	1	6	2	noise_calib_stim_LEFT.wav	1	34	blb_dichoticlistening_ta-ka.mp3	ta	ka	1	right
6.6.1	win	2023-06-27	16:49:54	0	0	63e51c373af1cc5baf0c727f	1	1	DL_test	14	DL_test	32			0		ga	1	1036	6	4	antiphase_hc_sio.wav	1	6	2	noise_calib_stim_LEFT.wav	1	18	blb_dichoticlistening_ga-ta.mp3	ga	ta	1	left
6.6.1	win	2023-06-27	16:49:54	0	0	63e51c373af1cc5baf0c727f	1	1	DL_test	14	DL_test	33			0		ta	1	1356	6	4	antiphase_hc_sio.wav	1	6	2	noise_calib_stim_LEFT.wav	1	35	blb_dichoticlistening_ta-pa.mp3	ta	pa	1	left
6.6.1	win	2023-06-27	16:49:54	0	0	63e51c373af1cc5baf0c727f	1	1	DL_test	14	DL_test	34			0		ga	1	1006	6	4	antiphase_hc_sio.wav	1	6	2	noise_calib_stim_LEFT.wav	1	17	blb_dichoticlistening_ga-pa.mp3	ga	pa	1	left
6.6.1	win	2023-06-27	16:49:54	0	0	63e51c373af1cc5baf0c727f	1	1	DL_test	14	DL_test	35			0		ga	1	738	6	4	antiphase_hc_sio.wav	1	6	2	noise_calib_stim_LEFT.wav	1	16	blb_dichoticlistening_ga-ka.mp3	ga	ka	1	left
6.6.1	win	2023-06-27	16:49:54	0	0	63e51c373af1cc5baf0c727f	1	1	DL_test	14	DL_test	36			0		da	1	1102	6	4	antiphase_hc_sio.wav	1	6	2	noise_calib_stim_LEFT.wav	1	12	blb_dichoticlistening_da-ta.mp3	da	ta	1	left
6.6.1	win	2023-06-27	16:49:54	0	0	63e51c373af1cc5baf0c727f	1	1	DL_test	15	DL_test	1			0		da	1	2214	6	4	antiphase_hc_sio.wav	1	6	2	noise_calib_stim_LEFT.wav	1	8	blb_dichoticlistening_da-da.mp3	da	da	0	left
6.6.1	win	2023-06-27	16:49:54	0	0	63e51c373af1cc5baf0c727f	1	1	DL_test	15	DL_test	2			0		da	1	960	6	4	antiphase_hc_sio.wav	1	6	2	noise_calib_stim_LEFT.wav	1	12	blb_dichoticlistening_da-ta.mp3	da	ta	1	left
6.6.1	win	2023-06-27	16:49:54	0	0	63e51c373af1cc5baf0c727f	1	1	DL_test	15	DL_test	3			0		pa	1	1344	6	4	antiphase_hc_sio.wav	1	6	2	noise_calib_stim_LEFT.wav	1	5	blb_dichoticlistening_ba-pa.mp3	ba	pa	1	right
6.6.1	win	2023-06-27	16:49:54	0	0	63e51c373af1cc5baf0c727f	1	1	DL_test	15	DL_test	4			0		ka	1	792	6	4	antiphase_hc_sio.wav	1	6	2	noise_calib_stim_LEFT.wav	1	28	blb_dichoticlistening_pa-ka.mp3	pa	ka	1	right
6.6.1	win	2023-06-27	16:49:54	0	0	63e51c373af1cc5baf0c727f	1	1	DL_test	15	DL_test	5			0		pa	0	1788	6	4	antiphase_hc_sio.wav	1	6	2	noise_calib_stim_LEFT.wav	1	2	blb_dichoticlistening_ba-da.mp3	ba	da	1	other
6.6.1	win	2023-06-27	16:49:54	0	0	63e51c373af1cc5baf0c727f	1	1	DL_test	15	DL_test	6			0		ga	1	916	6	4	antiphase_hc_sio.wav	1	6	2	noise_calib_stim_LEFT.wav	1	14	blb_dichoticlistening_ga-da.mp3	ga	da	1	left
6.6.1	win	2023-06-27	16:49:54	0	0	63e51c373af1cc5baf0c727f	1	1	DL_test	15	DL_test	7			0		ga	1	610	6	4	antiphase_hc_sio.wav	1	6	2	noise_calib_stim_LEFT.wav	1	33	blb_dichoticlistening_ta-ga.mp3	ta	ga	1	right
6.6.1	win	2023-06-27	16:49:54	0	0	63e51c373af1cc5baf0c727f	1	1	DL_test	15	DL_test	8			0		pa	1	1187	6	4	antiphase_hc_sio.wav	1	6	2	noise_calib_stim_LEFT.wav	1	25	blb_dichoticlistening_pa-ba.mp3	pa	ba	1	left
6.6.1	win	2023-06-27	16:49:54	0	0	63e51c373af1cc5baf0c727f	1	1	DL_test	15	DL_test	9			0		ga	1	2086	6	4	antiphase_hc_sio.wav	1	6	2	noise_calib_stim_LEFT.wav	1	16	blb_dichoticlistening_ga-ka.mp3	ga	ka	1	left
6.6.1	win	2023-06-27	16:49:54	0	0	63e51c373af1cc5baf0c727f	1	1	DL_test	15	DL_test	10			0		da	1	1563	6	4	antiphase_hc_sio.wav	1	6	2	noise_calib_stim_LEFT.wav	1	10	blb_dichoticlistening_da-ka.mp3	da	ka	1	left
6.6.1	win	2023-06-27	16:49:54	0	0	63e51c373af1cc5baf0c727f	1	1	DL_test	15	DL_test	11			0		ta	1	1529	6	4	antiphase_hc_sio.wav	1	6	2	noise_calib_stim_LEFT.wav	1	35	blb_dichoticlistening_ta-pa.mp3	ta	pa	1	left
6.6.1	win	2023-06-27	16:49:54	0	0	63e51c373af1cc5baf0c727f	1	1	DL_test	15	DL_test	12			0		da	1	2200	6	4	antiphase_hc_sio.wav	1	6	2	noise_calib_stim_LEFT.wav	1	26	blb_dichoticlistening_pa-da.mp3	pa	da	1	right
6.6.1	win	2023-06-27	16:49:54	0	0	63e51c373af1cc5baf0c727f	1	1	DL_test	15	DL_test	13			0		ga	1	1247	6	4	antiphase_hc_sio.wav	1	6	2	noise_calib_stim_LEFT.wav	1	18	blb_dichoticlistening_ga-ta.mp3	ga	ta	1	left
6.6.1	win	2023-06-27	16:49:54	0	0	63e51c373af1cc5baf0c727f	1	1	DL_test	15	DL_test	14			0		pa	1	1048	6	4	antiphase_hc_sio.wav	1	6	2	noise_calib_stim_LEFT.wav	1	29	blb_dichoticlistening_pa-pa.mp3	pa	pa	0	left
6.6.1	win	2023-06-27	16:49:54	0	0	63e51c373af1cc5baf0c727f	1	1	DL_test	15	DL_test	15			0		pa	0	804	6	4	antiphase_hc_sio.wav	1	6	2	noise_calib_stim_LEFT.wav	1	31	blb_dichoticlistening_ta-ba.mp3	ta	ba	1	other
6.6.1	win	2023-06-27	16:49:54	0	0	63e51c373af1cc5baf0c727f	1	1	DL_test	15	DL_test	16			0		ta	1	989	6	4	antiphase_hc_sio.wav	1	6	2	noise_calib_stim_LEFT.wav	1	24	blb_dichoticlistening_ka-ta.mp3	ka	ta	1	right
6.6.1	win	2023-06-27	16:49:54	0	0	63e51c373af1cc5baf0c727f	1	1	DL_test	15	DL_test	17			0		pa	0	857	6	4	antiphase_hc_sio.wav	1	6	2	noise_calib_stim_LEFT.wav	1	7	blb_dichoticlistening_da-ba.mp3	da	ba	1	other
6.6.1	win	2023-06-27	16:49:54	0	0	63e51c373af1cc5baf0c727f	1	1	DL_test	15	DL_test	18			0		ga	1	900	6	4	antiphase_hc_sio.wav	1	6	2	noise_calib_stim_LEFT.wav	1	9	blb_dichoticlistening_da-ga.mp3	da	ga	1	right
6.6.1	win	2023-06-27	16:49:54	0	0	63e51c373af1cc5baf0c727f	1	1	DL_test	15	DL_test	19			0		ga	1	717	6	4	antiphase_hc_sio.wav	1	6	2	noise_calib_stim_LEFT.wav	1	27	blb_dichoticlistening_pa-ga.mp3	pa	ga	1	right
6.6.1	win	2023-06-27	16:49:54	0	0	63e51c373af1cc5baf0c727f	1	1	DL_test	15	DL_test	20			0		da	1	1087	6	4	antiphase_hc_sio.wav	1	6	2	noise_calib_stim_LEFT.wav	1	11	blb_dichoticlistening_da-pa.mp3	da	pa	1	left
6.6.1	win	2023-06-27	16:49:54	0	0	63e51c373af1cc5baf0c727f	1	1	DL_test	15	DL_test	21			0		pa	0	1106	6	4	antiphase_hc_sio.wav	1	6	2	noise_calib_stim_LEFT.wav	1	4	blb_dichoticlistening_ba-ka.mp3	ba	ka	1	other
6.6.1	win	2023-06-27	16:49:54	0	0	63e51c373af1cc5baf0c727f	1	1	DL_test	15	DL_test	22			0		pa	0	989	6	4	antiphase_hc_sio.wav	1	6	2	noise_calib_stim_LEFT.wav	1	1	blb_dichoticlistening_ba-ba.mp3	ba	ba	0	other
6.6.1	win	2023-06-27	16:49:54	0	0	63e51c373af1cc5baf0c727f	1	1	DL_test	15	DL_test	23			0		ga	1	984	6	4	antiphase_hc_sio.wav	1	6	2	noise_calib_stim_LEFT.wav	1	21	blb_dichoticlistening_ka-ga.mp3	ka	ga	1	right
6.6.1	win	2023-06-27	16:49:54	0	0	63e51c373af1cc5baf0c727f	1	1	DL_test	15	DL_test	24			0		ga	1	694	6	4	antiphase_hc_sio.wav	1	6	2	noise_calib_stim_LEFT.wav	1	17	blb_dichoticlistening_ga-pa.mp3	ga	pa	1	left
6.6.1	win	2023-06-27	16:49:54	0	0	63e51c373af1cc5baf0c727f	1	1	DL_test	15	DL_test	25			0		ka	1	895	6	4	antiphase_hc_sio.wav	1	6	2	noise_calib_stim_LEFT.wav	1	34	blb_dichoticlistening_ta-ka.mp3	ta	ka	1	right
6.6.1	win	2023-06-27	16:49:54	0	0	63e51c373af1cc5baf0c727f	1	1	DL_test	15	DL_test	26			0		ta	1	1133	6	4	antiphase_hc_sio.wav	1	6	2	noise_calib_stim_LEFT.wav	1	30	blb_dichoticlistening_pa-ta.mp3	pa	ta	1	right
6.6.1	win	2023-06-27	16:49:54	0	0	63e51c373af1cc5baf0c727f	1	1	DL_test	15	DL_test	27			0		ga	0	817	6	4	antiphase_hc_sio.wav	1	6	2	noise_calib_stim_LEFT.wav	1	20	blb_dichoticlistening_ka-da.mp3	ka	da	1	other
6.6.1	win	2023-06-27	16:49:54	0	0	63e51c373af1cc5baf0c727f	1	1	DL_test	15	DL_test	28			0		pa	0	1267	6	4	antiphase_hc_sio.wav	1	6	2	noise_calib_stim_LEFT.wav	1	13	blb_dichoticlistening_ga-ba.mp3	ga	ba	1	other
6.6.1	win	2023-06-27	16:49:54	0	0	63e51c373af1cc5baf0c727f	1	1	DL_test	15	DL_test	29			0		da	1	1043	6	4	antiphase_hc_sio.wav	1	6	2	noise_calib_stim_LEFT.wav	1	32	blb_dichoticlistening_ta-da.mp3	ta	da	1	right
6.6.1	win	2023-06-27	16:49:54	0	0	63e51c373af1cc5baf0c727f	1	1	DL_test	15	DL_test	30			0		pa	0	1450	6	4	antiphase_hc_sio.wav	1	6	2	noise_calib_stim_LEFT.wav	1	6	blb_dichoticlistening_ba-ta.mp3	ba	ta	1	other
6.6.1	win	2023-06-27	16:49:54	0	0	63e51c373af1cc5baf0c727f	1	1	DL_test	15	DL_test	31			0		ka	1	836	6	4	antiphase_hc_sio.wav	1	6	2	noise_calib_stim_LEFT.wav	1	22	blb_dichoticlistening_ka-ka.mp3	ka	ka	0	left
6.6.1	win	2023-06-27	16:49:54	0	0	63e51c373af1cc5baf0c727f	1	1	DL_test	15	DL_test	32			0		ta	1	1055	6	4	antiphase_hc_sio.wav	1	6	2	noise_calib_stim_LEFT.wav	1	36	blb_dichoticlistening_ta-ta.mp3	ta	ta	0	left
6.6.1	win	2023-06-27	16:49:54	0	0	63e51c373af1cc5baf0c727f	1	1	DL_test	15	DL_test	33			0		ka	1	1739	6	4	antiphase_hc_sio.wav	1	6	2	noise_calib_stim_LEFT.wav	1	23	blb_dichoticlistening_ka-pa.mp3	ka	pa	1	left
6.6.1	win	2023-06-27	16:49:54	0	0	63e51c373af1cc5baf0c727f	1	1	DL_test	15	DL_test	34			0		pa	0	935	6	4	antiphase_hc_sio.wav	1	6	2	noise_calib_stim_LEFT.wav	1	3	blb_dichoticlistening_ba-ga.mp3	ba	ga	1	other
6.6.1	win	2023-06-27	16:49:54	0	0	63e51c373af1cc5baf0c727f	1	1	DL_test	15	DL_test	35			0		pa	0	1022	6	4	antiphase_hc_sio.wav	1	6	2	noise_calib_stim_LEFT.wav	1	19	blb_dichoticlistening_ka-ba.mp3	ka	ba	1	other
6.6.1	win	2023-06-27	16:49:54	0	0	63e51c373af1cc5baf0c727f	1	1	DL_test	15	DL_test	36			0		ga	1	771	6	4	antiphase_hc_sio.wav	1	6	2	noise_calib_stim_LEFT.wav	1	15	blb_dichoticlistening_ga-ga.mp3	ga	ga	0	left
6.6.1	win	2023-06-27	16:49:54	0	0	63e51c373af1cc5baf0c727f	1	1	DL_test	16	DL_test	1			0		pa	1	1043	6	4	antiphase_hc_sio.wav	1	6	2	noise_calib_stim_LEFT.wav	1	29	blb_dichoticlistening_pa-pa.mp3	pa	pa	0	left
6.6.1	win	2023-06-27	16:49:54	0	0	63e51c373af1cc5baf0c727f	1	1	DL_test	16	DL_test	2			0		ka	1	815	6	4	antiphase_hc_sio.wav	1	6	2	noise_calib_stim_LEFT.wav	1	22	blb_dichoticlistening_ka-ka.mp3	ka	ka	0	left
6.6.1	win	2023-06-27	16:49:54	0	0	63e51c373af1cc5baf0c727f	1	1	DL_test	16	DL_test	3			0		ka	1	1021	6	4	antiphase_hc_sio.wav	1	6	2	noise_calib_stim_LEFT.wav	1	23	blb_dichoticlistening_ka-pa.mp3	ka	pa	1	left
6.6.1	win	2023-06-27	16:49:54	0	0	63e51c373af1cc5baf0c727f	1	1	DL_test	16	DL_test	4			0		ta	1	1047	6	4	antiphase_hc_sio.wav	1	6	2	noise_calib_stim_LEFT.wav	1	35	blb_dichoticlistening_ta-pa.mp3	ta	pa	1	left
6.6.1	win	2023-06-27	16:49:54	0	0	63e51c373af1cc5baf0c727f	1	1	DL_test	16	DL_test	5			0		ga	1	955	6	4	antiphase_hc_sio.wav	1	6	2	noise_calib_stim_LEFT.wav	1	15	blb_dichoticlistening_ga-ga.mp3	ga	ga	0	left
6.6.1	win	2023-06-27	16:49:54	0	0	63e51c373af1cc5baf0c727f	1	1	DL_test	16	DL_test	6			0		da	1	1056	6	4	antiphase_hc_sio.wav	1	6	2	noise_calib_stim_LEFT.wav	1	8	blb_dichoticlistening_da-da.mp3	da	da	0	left
6.6.1	win	2023-06-27	16:49:54	0	0	63e51c373af1cc5baf0c727f	1	1	DL_test	16	DL_test	7			0		pa	0	1071	6	4	antiphase_hc_sio.wav	1	6	2	noise_calib_stim_LEFT.wav	1	7	blb_dichoticlistening_da-ba.mp3	da	ba	1	other
6.6.1	win	2023-06-27	16:49:54	0	0	63e51c373af1cc5baf0c727f	1	1	DL_test	16	DL_test	8			0		ka	1	960	6	4	antiphase_hc_sio.wav	1	6	2	noise_calib_stim_LEFT.wav	1	28	blb_dichoticlistening_pa-ka.mp3	pa	ka	1	right
6.6.1	win	2023-06-27	16:49:54	0	0	63e51c373af1cc5baf0c727f	1	1	DL_test	16	DL_test	9			0		ka	1	734	6	4	antiphase_hc_sio.wav	1	6	2	noise_calib_stim_LEFT.wav	1	34	blb_dichoticlistening_ta-ka.mp3	ta	ka	1	right
6.6.1	win	2023-06-27	16:49:54	0	0	63e51c373af1cc5baf0c727f	1	1	DL_test	16	DL_test	10			0		pa	0	973	6	4	antiphase_hc_sio.wav	1	6	2	noise_calib_stim_LEFT.wav	1	3	blb_dichoticlistening_ba-ga.mp3	ba	ga	1	other
6.6.1	win	2023-06-27	16:49:54	0	0	63e51c373af1cc5baf0c727f	1	1	DL_test	16	DL_test	11			0		ga	1	903	6	4	antiphase_hc_sio.wav	1	6	2	noise_calib_stim_LEFT.wav	1	14	blb_dichoticlistening_ga-da.mp3	ga	da	1	left
6.6.1	win	2023-06-27	16:49:54	0	0	63e51c373af1cc5baf0c727f	1	1	DL_test	16	DL_test	12			0		ga	1	665	6	4	antiphase_hc_sio.wav	1	6	2	noise_calib_stim_LEFT.wav	1	17	blb_dichoticlistening_ga-pa.mp3	ga	pa	1	left
6.6.1	win	2023-06-27	16:49:54	0	0	63e51c373af1cc5baf0c727f	1	1	DL_test	16	DL_test	13			0		da	1	720	6	4	antiphase_hc_sio.wav	1	6	2	noise_calib_stim_LEFT.wav	1	11	blb_dichoticlistening_da-pa.mp3	da	pa	1	left
6.6.1	win	2023-06-27	16:49:54	0	0	63e51c373af1cc5baf0c727f	1	1	DL_test	16	DL_test	14			0		pa	0	1101	6	4	antiphase_hc_sio.wav	1	6	2	noise_calib_stim_LEFT.wav	1	19	blb_dichoticlistening_ka-ba.mp3	ka	ba	1	other
6.6.1	win	2023-06-27	16:49:54	0	0	63e51c373af1cc5baf0c727f	1	1	DL_test	16	DL_test	15			0		pa	0	1755	6	4	antiphase_hc_sio.wav	1	6	2	noise_calib_stim_LEFT.wav	1	4	blb_dichoticlistening_ba-ka.mp3	ba	ka	1	other
6.6.1	win	2023-06-27	16:49:54	0	0	63e51c373af1cc5baf0c727f	1	1	DL_test	16	DL_test	16			0		pa	1	1197	6	4	antiphase_hc_sio.wav	1	6	2	noise_calib_stim_LEFT.wav	1	25	blb_dichoticlistening_pa-ba.mp3	pa	ba	1	left
6.6.1	win	2023-06-27	16:49:54	0	0	63e51c373af1cc5baf0c727f	1	1	DL_test	16	DL_test	17			0		ga	1	1837	6	4	antiphase_hc_sio.wav	1	6	2	noise_calib_stim_LEFT.wav	1	21	blb_dichoticlistening_ka-ga.mp3	ka	ga	1	right
6.6.1	win	2023-06-27	16:49:54	0	0	63e51c373af1cc5baf0c727f	1	1	DL_test	16	DL_test	18			0		pa	0	2581	6	4	antiphase_hc_sio.wav	1	6	2	noise_calib_stim_LEFT.wav	1	13	blb_dichoticlistening_ga-ba.mp3	ga	ba	1	other
6.6.1	win	2023-06-27	16:49:54	0	0	63e51c373af1cc5baf0c727f	1	1	DL_test	16	DL_test	19			0		ga	1	2120	6	4	antiphase_hc_sio.wav	1	6	2	noise_calib_stim_LEFT.wav	1	9	blb_dichoticlistening_da-ga.mp3	da	ga	1	right
6.6.1	win	2023-06-27	16:49:54	0	0	63e51c373af1cc5baf0c727f	1	1	DL_test	16	DL_test	20			0		ga	1	2531	6	4	antiphase_hc_sio.wav	1	6	2	noise_calib_stim_LEFT.wav	1	33	blb_dichoticlistening_ta-ga.mp3	ta	ga	1	right
6.6.1	win	2023-06-27	16:49:54	0	0	63e51c373af1cc5baf0c727f	1	1	DL_test	16	DL_test	21			0		ta	1	1429	6	4	antiphase_hc_sio.wav	1	6	2	noise_calib_stim_LEFT.wav	1	30	blb_dichoticlistening_pa-ta.mp3	pa	ta	1	right
6.6.1	win	2023-06-27	16:49:54	0	0	63e51c373af1cc5baf0c727f	1	1	DL_test	16	DL_test	22			0		pa	0	2755	6	4	antiphase_hc_sio.wav	1	6	2	noise_calib_stim_LEFT.wav	1	1	blb_dichoticlistening_ba-ba.mp3	ba	ba	0	other
6.6.1	win	2023-06-27	16:49:54	0	0	63e51c373af1cc5baf0c727f	1	1	DL_test	16	DL_test	23			0		ga	1	1285	6	4	antiphase_hc_sio.wav	1	6	2	noise_calib_stim_LEFT.wav	1	27	blb_dichoticlistening_pa-ga.mp3	pa	ga	1	right
6.6.1	win	2023-06-27	16:49:54	0	0	63e51c373af1cc5baf0c727f	1	1	DL_test	16	DL_test	24			0		ga	0	1084	6	4	antiphase_hc_sio.wav	1	6	2	noise_calib_stim_LEFT.wav	1	32	blb_dichoticlistening_ta-da.mp3	ta	da	1	other
6.6.1	win	2023-06-27	16:49:54	0	0	63e51c373af1cc5baf0c727f	1	1	DL_test	16	DL_test	25			0		pa	0	1069	6	4	antiphase_hc_sio.wav	1	6	2	noise_calib_stim_LEFT.wav	1	2	blb_dichoticlistening_ba-da.mp3	ba	da	1	other
6.6.1	win	2023-06-27	16:49:54	0	0	63e51c373af1cc5baf0c727f	1	1	DL_test	16	DL_test	26			0		pa	0	739	6	4	antiphase_hc_sio.wav	1	6	2	noise_calib_stim_LEFT.wav	1	6	blb_dichoticlistening_ba-ta.mp3	ba	ta	1	other
6.6.1	win	2023-06-27	16:49:54	0	0	63e51c373af1cc5baf0c727f	1	1	DL_test	16	DL_test	27			0		ga	1	1361	6	4	antiphase_hc_sio.wav	1	6	2	noise_calib_stim_LEFT.wav	1	16	blb_dichoticlistening_ga-ka.mp3	ga	ka	1	left
6.6.1	win	2023-06-27	16:49:54	0	0	63e51c373af1cc5baf0c727f	1	1	DL_test	16	DL_test	28			0		ga	0	1188	6	4	antiphase_hc_sio.wav	1	6	2	noise_calib_stim_LEFT.wav	1	26	blb_dichoticlistening_pa-da.mp3	pa	da	1	other
6.6.1	win	2023-06-27	16:49:54	0	0	63e51c373af1cc5baf0c727f	1	1	DL_test	16	DL_test	29			0		pa	1	1260	6	4	antiphase_hc_sio.wav	1	6	2	noise_calib_stim_LEFT.wav	1	5	blb_dichoticlistening_ba-pa.mp3	ba	pa	1	right
6.6.1	win	2023-06-27	16:49:54	0	0	63e51c373af1cc5baf0c727f	1	1	DL_test	16	DL_test	30			0		ga	0	1097	6	4	antiphase_hc_sio.wav	1	6	2	noise_calib_stim_LEFT.wav	1	20	blb_dichoticlistening_ka-da.mp3	ka	da	1	other
6.6.1	win	2023-06-27	16:49:54	0	0	63e51c373af1cc5baf0c727f	1	1	DL_test	16	DL_test	31			0		da	1	867	6	4	antiphase_hc_sio.wav	1	6	2	noise_calib_stim_LEFT.wav	1	10	blb_dichoticlistening_da-ka.mp3	da	ka	1	left
6.6.1	win	2023-06-27	16:49:54	0	0	63e51c373af1cc5baf0c727f	1	1	DL_test	16	DL_test	32			0		pa	0	1903	6	4	antiphase_hc_sio.wav	1	6	2	noise_calib_stim_LEFT.wav	1	31	blb_dichoticlistening_ta-ba.mp3	ta	ba	1	other
6.6.1	win	2023-06-27	16:49:54	0	0	63e51c373af1cc5baf0c727f	1	1	DL_test	16	DL_test	33			0		da	1	1388	6	4	antiphase_hc_sio.wav	1	6	2	noise_calib_stim_LEFT.wav	1	12	blb_dichoticlistening_da-ta.mp3	da	ta	1	left
6.6.1	win	2023-06-27	16:49:54	0	0	63e51c373af1cc5baf0c727f	1	1	DL_test	16	DL_test	34			0		ga	1	5936	6	4	antiphase_hc_sio.wav	1	6	2	noise_calib_stim_LEFT.wav	1	18	blb_dichoticlistening_ga-ta.mp3	ga	ta	1	left
6.6.1	win	2023-06-27	16:49:54	0	0	63e51c373af1cc5baf0c727f	1	1	DL_test	16	DL_test	35			0		ka	0	1368	6	4	antiphase_hc_sio.wav	1	6	2	noise_calib_stim_LEFT.wav	1	36	blb_dichoticlistening_ta-ta.mp3	ta	ta	0	other
6.6.1	win	2023-06-27	16:49:54	0	0	63e51c373af1cc5baf0c727f	1	1	DL_test	16	DL_test	36			0		ka	1	2996	6	4	antiphase_hc_sio.wav	1	6	2	noise_calib_stim_LEFT.wav	1	24	blb_dichoticlistening_ka-ta.mp3	ka	ta	1	left
6.6.1	win	2023-06-27	16:49:54	17:19:12	1752697	63e51c373af1cc5baf0c727f	1	1	practice_slash	22	practice_slash	1	stimuli_distractor_diamondtriangles.svg	stimuli_distractor_trianglediamonds.svg	14	no	53	0	521	6	4	antiphase_hc_sio.wav	1	6	2	noise_calib_stim_LEFT.wav	1	24	blb_dichoticlistening_ka-ta.mp3	ka	ta	1	left
6.6.1	win	2023-06-27	16:49:54	17:19:12	1752697	63e51c373af1cc5baf0c727f	1	1	practice_slash	22	advance_on_keypress_SLASH	2	stimuli_distractor_diamondtriangles.svg	stimuli_distractor_trianglediamonds.svg	14	no	57	0	2058	6	4	antiphase_hc_sio.wav	1	6	2	noise_calib_stim_LEFT.wav	1	24	blb_dichoticlistening_ka-ta.mp3	ka	ta	1	left
6.6.1	win	2023-06-27	16:49:54	17:19:16	1756826	63e51c373af1cc5baf0c727f	1	1	practice_slash	22	practice_slash	3	stimuli_target_rectanglediamonds.svg	stimuli_distractor_diamondtriangles.svg	1	yes	53	1	415	6	4	antiphase_hc_sio.wav	1	6	2	noise_calib_stim_LEFT.wav	1	24	blb_dichoticlistening_ka-ta.mp3	ka	ta	1	left
6.6.1	win	2023-06-27	16:49:54	17:19:16	1756826	63e51c373af1cc5baf0c727f	1	1	practice_slash	22	advance_on_keypress_SLASH	4	stimuli_target_rectanglediamonds.svg	stimuli_distractor_diamondtriangles.svg	1	yes	57	0	916	6	4	antiphase_hc_sio.wav	1	6	2	noise_calib_stim_LEFT.wav	1	24	blb_dichoticlistening_ka-ta.mp3	ka	ta	1	left
6.6.1	win	2023-06-27	16:49:54	17:19:19	1759802	63e51c373af1cc5baf0c727f	1	1	practice_slash	22	practice_slash	5	stimuli_distractor_diamondtriangles.svg	stimuli_target_rectangletriangles.svg	7	yes	53	1	402	6	4	antiphase_hc_sio.wav	1	6	2	noise_calib_stim_LEFT.wav	1	24	blb_dichoticlistening_ka-ta.mp3	ka	ta	1	left
6.6.1	win	2023-06-27	16:49:54	17:19:19	1759802	63e51c373af1cc5baf0c727f	1	1	practice_slash	22	advance_on_keypress_SLASH	6	stimuli_distractor_diamondtriangles.svg	stimuli_target_rectangletriangles.svg	7	yes	57	0	649	6	4	antiphase_hc_sio.wav	1	6	2	noise_calib_stim_LEFT.wav	1	24	blb_dichoticlistening_ka-ta.mp3	ka	ta	1	left
6.6.1	win	2023-06-27	16:49:54	17:19:21	1762426	63e51c373af1cc5baf0c727f	1	1	practice_slash	22	practice_slash	7	stimuli_distractor_trianglediamonds.svg	stimuli_distractor_trianglediamonds.svg	15	no	53	0	336	6	4	antiphase_hc_sio.wav	1	6	2	noise_calib_stim_LEFT.wav	1	24	blb_dichoticlistening_ka-ta.mp3	ka	ta	1	left
6.6.1	win	2023-06-27	16:49:54	17:19:21	1762426	63e51c373af1cc5baf0c727f	1	1	practice_slash	22	advance_on_keypress_SLASH	8	stimuli_distractor_trianglediamonds.svg	stimuli_distractor_trianglediamonds.svg	15	no	57	0	461	6	4	antiphase_hc_sio.wav	1	6	2	noise_calib_stim_LEFT.wav	1	24	blb_dichoticlistening_ka-ta.mp3	ka	ta	1	left
6.6.1	win	2023-06-27	16:49:54	17:19:24	1765211	63e51c373af1cc5baf0c727f	1	1	practice_slash	22	practice_slash	9	stimuli_target_squarediamonds.svg	stimuli_distractor_diamondtriangles.svg	2	yes	53	1	674	6	4	antiphase_hc_sio.wav	1	6	2	noise_calib_stim_LEFT.wav	1	24	blb_dichoticlistening_ka-ta.mp3	ka	ta	1	left
6.6.1	win	2023-06-27	16:49:54	17:19:24	1765211	63e51c373af1cc5baf0c727f	1	1	practice_slash	22	advance_on_keypress_SLASH	10	stimuli_target_squarediamonds.svg	stimuli_distractor_diamondtriangles.svg	2	yes	57	0	533	6	4	antiphase_hc_sio.wav	1	6	2	noise_calib_stim_LEFT.wav	1	24	blb_dichoticlistening_ka-ta.mp3	ka	ta	1	left
6.6.1	win	2023-06-27	16:49:54	17:19:27	1767859	63e51c373af1cc5baf0c727f	1	1	practice_slash	22	practice_slash	11	stimuli_target_squarediamonds.svg	stimuli_distractor_trianglediamonds.svg	5	yes	53	1	476	6	4	antiphase_hc_sio.wav	1	6	2	noise_calib_stim_LEFT.wav	1	24	blb_dichoticlistening_ka-ta.mp3	ka	ta	1	left
6.6.1	win	2023-06-27	16:49:54	17:19:27	1767859	63e51c373af1cc5baf0c727f	1	1	practice_slash	22	advance_on_keypress_SLASH	12	stimuli_target_squarediamonds.svg	stimuli_distractor_trianglediamonds.svg	5	yes	57	0	466	6	4	antiphase_hc_sio.wav	1	6	2	noise_calib_stim_LEFT.wav	1	24	blb_dichoticlistening_ka-ta.mp3	ka	ta	1	left
6.6.1	win	2023-06-27	16:49:54	17:19:31	1771970	63e51c373af1cc5baf0c727f	1	1	practice_slash	22	practice_slash	13	stimuli_distractor_trianglediamonds.svg	stimuli_distractor_diamondtriangles.svg	16	no	0	1	2000	6	4	antiphase_hc_sio.wav	1	6	2	noise_calib_stim_LEFT.wav	1	24	blb_dichoticlistening_ka-ta.mp3	ka	ta	1	left
6.6.1	win	2023-06-27	16:49:54	17:19:31	1771970	63e51c373af1cc5baf0c727f	1	1	practice_slash	22	advance_on_keypress_SLASH	14	stimuli_distractor_trianglediamonds.svg	stimuli_distractor_diamondtriangles.svg	16	no	57	0	465	6	4	antiphase_hc_sio.wav	1	6	2	noise_calib_stim_LEFT.wav	1	24	blb_dichoticlistening_ka-ta.mp3	ka	ta	1	left
6.6.1	win	2023-06-27	16:49:54	17:19:34	1774667	63e51c373af1cc5baf0c727f	1	1	practice_slash	22	practice_slash	15	stimuli_distractor_trianglediamonds.svg	stimuli_target_squarediamonds.svg	11	yes	53	1	582	6	4	antiphase_hc_sio.wav	1	6	2	noise_calib_stim_LEFT.wav	1	24	blb_dichoticlistening_ka-ta.mp3	ka	ta	1	left
6.6.1	win	2023-06-27	16:49:54	17:19:34	1774667	63e51c373af1cc5baf0c727f	1	1	practice_slash	22	advance_on_keypress_SLASH	16	stimuli_distractor_trianglediamonds.svg	stimuli_target_squarediamonds.svg	11	yes	57	0	1665	6	4	antiphase_hc_sio.wav	1	6	2	noise_calib_stim_LEFT.wav	1	24	blb_dichoticlistening_ka-ta.mp3	ka	ta	1	left
6.6.1	win	2023-06-27	16:49:54	17:19:37	1778499	63e51c373af1cc5baf0c727f	1	1	practice_slash	22	practice_slash	17	stimuli_distractor_diamondtriangles.svg	stimuli_distractor_diamondtriangles.svg	13	no	53	0	526	6	4	antiphase_hc_sio.wav	1	6	2	noise_calib_stim_LEFT.wav	1	24	blb_dichoticlistening_ka-ta.mp3	ka	ta	1	left
6.6.1	win	2023-06-27	16:49:54	17:19:37	1778499	63e51c373af1cc5baf0c727f	1	1	practice_slash	22	advance_on_keypress_SLASH	18	stimuli_distractor_diamondtriangles.svg	stimuli_distractor_diamondtriangles.svg	13	no	57	0	456	6	4	antiphase_hc_sio.wav	1	6	2	noise_calib_stim_LEFT.wav	1	24	blb_dichoticlistening_ka-ta.mp3	ka	ta	1	left
6.6.1	win	2023-06-27	16:49:54	17:19:42	1782604	63e51c373af1cc5baf0c727f	1	1	practice_slash	22	practice_slash	19	stimuli_distractor_diamondtriangles.svg	stimuli_target_trianglerectangles.svg	9	yes	0	0	2000	6	4	antiphase_hc_sio.wav	1	6	2	noise_calib_stim_LEFT.wav	1	24	blb_dichoticlistening_ka-ta.mp3	ka	ta	1	left
6.6.1	win	2023-06-27	16:49:54	17:19:42	1782604	63e51c373af1cc5baf0c727f	1	1	practice_slash	22	advance_on_keypress_SLASH	20	stimuli_distractor_diamondtriangles.svg	stimuli_target_trianglerectangles.svg	9	yes	57	0	913	6	4	antiphase_hc_sio.wav	1	6	2	noise_calib_stim_LEFT.wav	1	24	blb_dichoticlistening_ka-ta.mp3	ka	ta	1	left
6.6.1	win	2023-06-27	16:49:54	17:19:45	1785689	63e51c373af1cc5baf0c727f	1	1	practice_slash	22	practice_slash	21	stimuli_distractor_diamondtriangles.svg	stimuli_target_diamondrectangles.svg	8	yes	53	1	514	6	4	antiphase_hc_sio.wav	1	6	2	noise_calib_stim_LEFT.wav	1	24	blb_dichoticlistening_ka-ta.mp3	ka	ta	1	left
6.6.1	win	2023-06-27	16:49:54	17:19:45	1785689	63e51c373af1cc5baf0c727f	1	1	practice_slash	22	advance_on_keypress_SLASH	22	stimuli_distractor_diamondtriangles.svg	stimuli_target_diamondrectangles.svg	8	yes	57	0	630	6	4	antiphase_hc_sio.wav	1	6	2	noise_calib_stim_LEFT.wav	1	24	blb_dichoticlistening_ka-ta.mp3	ka	ta	1	left
6.6.1	win	2023-06-27	16:49:54	17:19:48	1788871	63e51c373af1cc5baf0c727f	1	1	practice_slash	22	practice_slash	23	stimuli_target_diamondsquares.svg	stimuli_distractor_diamondtriangles.svg	3	yes	53	1	896	6	4	antiphase_hc_sio.wav	1	6	2	noise_calib_stim_LEFT.wav	1	24	blb_dichoticlistening_ka-ta.mp3	ka	ta	1	left
6.6.1	win	2023-06-27	16:49:54	17:19:48	1788871	63e51c373af1cc5baf0c727f	1	1	practice_slash	22	advance_on_keypress_SLASH	24	stimuli_target_diamondsquares.svg	stimuli_distractor_diamondtriangles.svg	3	yes	57	0	570	6	4	antiphase_hc_sio.wav	1	6	2	noise_calib_stim_LEFT.wav	1	24	blb_dichoticlistening_ka-ta.mp3	ka	ta	1	left
6.6.1	win	2023-06-27	16:49:54	17:19:51	1792306	63e51c373af1cc5baf0c727f	1	1	practice_slash	22	practice_slash	25	stimuli_target_rectanglediamonds.svg	stimuli_distractor_trianglediamonds.svg	4	yes	53	1	1227	6	4	antiphase_hc_sio.wav	1	6	2	noise_calib_stim_LEFT.wav	1	24	blb_dichoticlistening_ka-ta.mp3	ka	ta	1	left
6.6.1	win	2023-06-27	16:49:54	17:19:51	1792306	63e51c373af1cc5baf0c727f	1	1	practice_slash	22	advance_on_keypress_SLASH	26	stimuli_target_rectanglediamonds.svg	stimuli_distractor_trianglediamonds.svg	4	yes	57	0	588	6	4	antiphase_hc_sio.wav	1	6	2	noise_calib_stim_LEFT.wav	1	24	blb_dichoticlistening_ka-ta.mp3	ka	ta	1	left
6.6.1	win	2023-06-27	16:49:54	17:19:54	1795256	63e51c373af1cc5baf0c727f	1	1	practice_slash	22	practice_slash	27	stimuli_target_diamondsquares.svg	stimuli_distractor_trianglediamonds.svg	6	yes	53	1	723	6	4	antiphase_hc_sio.wav	1	6	2	noise_calib_stim_LEFT.wav	1	24	blb_dichoticlistening_ka-ta.mp3	ka	ta	1	left
6.6.1	win	2023-06-27	16:49:54	17:19:54	1795256	63e51c373af1cc5baf0c727f	1	1	practice_slash	22	advance_on_keypress_SLASH	28	stimuli_target_diamondsquares.svg	stimuli_distractor_trianglediamonds.svg	6	yes	57	0	519	6	4	antiphase_hc_sio.wav	1	6	2	noise_calib_stim_LEFT.wav	1	24	blb_dichoticlistening_ka-ta.mp3	ka	ta	1	left
6.6.1	win	2023-06-27	16:49:54	17:19:57	1798354	63e51c373af1cc5baf0c727f	1	1	practice_slash	22	practice_slash	29	stimuli_distractor_trianglediamonds.svg	stimuli_target_rectanglediamonds.svg	10	yes	53	1	941	6	4	antiphase_hc_sio.wav	1	6	2	noise_calib_stim_LEFT.wav	1	24	blb_dichoticlistening_ka-ta.mp3	ka	ta	1	left
6.6.1	win	2023-06-27	16:49:54	17:19:57	1798354	63e51c373af1cc5baf0c727f	1	1	practice_slash	22	advance_on_keypress_SLASH	30	stimuli_distractor_trianglediamonds.svg	stimuli_target_rectanglediamonds.svg	10	yes	57	0	1162	6	4	antiphase_hc_sio.wav	1	6	2	noise_calib_stim_LEFT.wav	1	24	blb_dichoticlistening_ka-ta.mp3	ka	ta	1	left
6.6.1	win	2023-06-27	16:49:54	17:20:01	1802145	63e51c373af1cc5baf0c727f	1	1	practice_slash	22	practice_slash	31	stimuli_distractor_trianglediamonds.svg	stimuli_target_diamondrectangles.svg	12	yes	53	1	989	6	4	antiphase_hc_sio.wav	1	6	2	noise_calib_stim_LEFT.wav	1	24	blb_dichoticlistening_ka-ta.mp3	ka	ta	1	left
6.6.1	win	2023-06-27	16:49:54	17:20:01	1802145	63e51c373af1cc5baf0c727f	1	1	practice_slash	22	advance_on_keypress_SLASH	32	stimuli_distractor_trianglediamonds.svg	stimuli_target_diamondrectangles.svg	12	yes	57	0	528	6	4	antiphase_hc_sio.wav	1	6	2	noise_calib_stim_LEFT.wav	1	24	blb_dichoticlistening_ka-ta.mp3	ka	ta	1	left
6.6.1	win	2023-06-27	16:49:54	17:20:28	1829558	63e51c373af1cc5baf0c727f	1	1	main_slash	24	main_slash	1	stimuli_distractor_diamondtriangles.svg	stimuli_target_rectangletriangles.svg	13	yes	53	1	806	6	4	antiphase_hc_sio.wav	1	6	2	noise_calib_stim_LEFT.wav	1	24	blb_dichoticlistening_ka-ta.mp3	ka	ta	1	left
6.6.1	win	2023-06-27	16:49:54	17:20:28	1829558	63e51c373af1cc5baf0c727f	1	1	main_slash	24	advance_on_keypress_SLASH	2	stimuli_distractor_diamondtriangles.svg	stimuli_target_rectangletriangles.svg	13	yes	57	0	1660	6	4	antiphase_hc_sio.wav	1	6	2	noise_calib_stim_LEFT.wav	1	24	blb_dichoticlistening_ka-ta.mp3	ka	ta	1	left
6.6.1	win	2023-06-27	16:49:54	17:20:31	1832431	63e51c373af1cc5baf0c727f	1	1	main_slash	24	main_slash	3	stimuli_target_rectangletriangles.svg	stimuli_distractor_trianglediamonds.svg	1	yes	53	1	577	6	4	antiphase_hc_sio.wav	1	6	2	noise_calib_stim_LEFT.wav	1	24	blb_dichoticlistening_ka-ta.mp3	ka	ta	1	left
6.6.1	win	2023-06-27	16:49:54	17:20:31	1832431	63e51c373af1cc5baf0c727f	1	1	main_slash	24	advance_on_keypress_SLASH	4	stimuli_target_rectangletriangles.svg	stimuli_distractor_trianglediamonds.svg	1	yes	57	0	996	6	4	antiphase_hc_sio.wav	1	6	2	noise_calib_stim_LEFT.wav	1	24	blb_dichoticlistening_ka-ta.mp3	ka	ta	1	left
6.6.1	win	2023-06-27	16:49:54	17:20:35	1836071	63e51c373af1cc5baf0c727f	1	1	main_slash	24	main_slash	5	stimuli_distractor_diamondtriangles.svg	stimuli_distractor_diamondtriangles.svg	40	no	0	1	2000	6	4	antiphase_hc_sio.wav	1	6	2	noise_calib_stim_LEFT.wav	1	24	blb_dichoticlistening_ka-ta.mp3	ka	ta	1	left
6.6.1	win	2023-06-27	16:49:54	17:20:35	1836071	63e51c373af1cc5baf0c727f	1	1	main_slash	24	advance_on_keypress_SLASH	6	stimuli_distractor_diamondtriangles.svg	stimuli_distractor_diamondtriangles.svg	40	no	57	0	621	6	4	antiphase_hc_sio.wav	1	6	2	noise_calib_stim_LEFT.wav	1	24	blb_dichoticlistening_ka-ta.mp3	ka	ta	1	left
6.6.1	win	2023-06-27	16:49:54	17:20:37	1837875	63e51c373af1cc5baf0c727f	1	1	main_slash	24	main_slash	7	stimuli_distractor_trianglediamonds.svg	stimuli_target_rectanglediamonds.svg	10	yes	53	1	548	6	4	antiphase_hc_sio.wav	1	6	2	noise_calib_stim_LEFT.wav	1	24	blb_dichoticlistening_ka-ta.mp3	ka	ta	1	left
6.6.1	win	2023-06-27	16:49:54	17:20:37	1837875	63e51c373af1cc5baf0c727f	1	1	main_slash	24	advance_on_keypress_SLASH	8	stimuli_distractor_trianglediamonds.svg	stimuli_target_rectanglediamonds.svg	10	yes	57	0	717	6	4	antiphase_hc_sio.wav	1	6	2	noise_calib_stim_LEFT.wav	1	24	blb_dichoticlistening_ka-ta.mp3	ka	ta	1	left
6.6.1	win	2023-06-27	16:49:54	17:20:39	1839873	63e51c373af1cc5baf0c727f	1	1	main_slash	24	main_slash	9	stimuli_target_rectangletriangles.svg	stimuli_distractor_diamondtriangles.svg	5	yes	53	1	643	6	4	antiphase_hc_sio.wav	1	6	2	noise_calib_stim_LEFT.wav	1	24	blb_dichoticlistening_ka-ta.mp3	ka	ta	1	left
6.6.1	win	2023-06-27	16:49:54	17:20:39	1839873	63e51c373af1cc5baf0c727f	1	1	main_slash	24	advance_on_keypress_SLASH	10	stimuli_target_rectangletriangles.svg	stimuli_distractor_diamondtriangles.svg	5	yes	57	0	1111	6	4	antiphase_hc_sio.wav	1	6	2	noise_calib_stim_LEFT.wav	1	24	blb_dichoticlistening_ka-ta.mp3	ka	ta	1	left
6.6.1	win	2023-06-27	16:49:54	17:20:41	1842261	63e51c373af1cc5baf0c727f	1	1	main_slash	24	main_slash	11	stimuli_target_diamondsquares.svg	stimuli_distractor_trianglediamonds.svg	20	yes	53	1	628	6	4	antiphase_hc_sio.wav	1	6	2	noise_calib_stim_LEFT.wav	1	24	blb_dichoticlistening_ka-ta.mp3	ka	ta	1	left
6.6.1	win	2023-06-27	16:49:54	17:20:41	1842261	63e51c373af1cc5baf0c727f	1	1	main_slash	24	advance_on_keypress_SLASH	12	stimuli_target_diamondsquares.svg	stimuli_distractor_trianglediamonds.svg	20	yes	57	0	2511	6	4	antiphase_hc_sio.wav	1	6	2	noise_calib_stim_LEFT.wav	1	24	blb_dichoticlistening_ka-ta.mp3	ka	ta	1	left
6.6.1	win	2023-06-27	16:49:54	17:20:45	1846017	63e51c373af1cc5baf0c727f	1	1	main_slash	24	main_slash	13	stimuli_target_rectanglediamonds.svg	stimuli_distractor_diamondtriangles.svg	6	yes	53	1	603	6	4	antiphase_hc_sio.wav	1	6	2	noise_calib_stim_LEFT.wav	1	24	blb_dichoticlistening_ka-ta.mp3	ka	ta	1	left
6.6.1	win	2023-06-27	16:49:54	17:20:45	1846017	63e51c373af1cc5baf0c727f	1	1	main_slash	24	advance_on_keypress_SLASH	14	stimuli_target_rectanglediamonds.svg	stimuli_distractor_diamondtriangles.svg	6	yes	57	0	1231	6	4	antiphase_hc_sio.wav	1	6	2	noise_calib_stim_LEFT.wav	1	24	blb_dichoticlistening_ka-ta.mp3	ka	ta	1	left
6.6.1	win	2023-06-27	16:49:54	17:20:49	1849882	63e51c373af1cc5baf0c727f	1	1	main_slash	24	main_slash	15	stimuli_distractor_diamondtriangles.svg	stimuli_distractor_trianglediamonds.svg	37	no	0	1	2000	6	4	antiphase_hc_sio.wav	1	6	2	noise_calib_stim_LEFT.wav	1	24	blb_dichoticlistening_ka-ta.mp3	ka	ta	1	left
6.6.1	win	2023-06-27	16:49:54	17:20:49	1849882	63e51c373af1cc5baf0c727f	1	1	main_slash	24	advance_on_keypress_SLASH	16	stimuli_distractor_diamondtriangles.svg	stimuli_distractor_trianglediamonds.svg	37	no	57	0	392	6	4	antiphase_hc_sio.wav	1	6	2	noise_calib_stim_LEFT.wav	1	24	blb_dichoticlistening_ka-ta.mp3	ka	ta	1	left
6.6.1	win	2023-06-27	16:49:54	17:20:51	1852402	63e51c373af1cc5baf0c727f	1	1	main_slash	24	main_slash	17	stimuli_distractor_trianglediamonds.svg	stimuli_distractor_trianglediamonds.svg	33	no	53	0	1483	6	4	antiphase_hc_sio.wav	1	6	2	noise_calib_stim_LEFT.wav	1	24	blb_dichoticlistening_ka-ta.mp3	ka	ta	1	left
6.6.1	win	2023-06-27	16:49:54	17:20:51	1852402	63e51c373af1cc5baf0c727f	1	1	main_slash	24	advance_on_keypress_SLASH	18	stimuli_distractor_trianglediamonds.svg	stimuli_distractor_trianglediamonds.svg	33	no	57	0	490	6	4	antiphase_hc_sio.wav	1	6	2	noise_calib_stim_LEFT.wav	1	24	blb_dichoticlistening_ka-ta.mp3	ka	ta	1	left
6.6.1	win	2023-06-27	16:49:54	17:20:53	1854365	63e51c373af1cc5baf0c727f	1	1	main_slash	24	main_slash	19	stimuli_target_trianglerectangles.svg	stimuli_distractor_trianglediamonds.svg	17	yes	53	1	826	6	4	antiphase_hc_sio.wav	1	6	2	noise_calib_stim_LEFT.wav	1	24	blb_dichoticlistening_ka-ta.mp3	ka	ta	1	left
6.6.1	win	2023-06-27	16:49:54	17:20:53	1854365	63e51c373af1cc5baf0c727f	1	1	main_slash	24	advance_on_keypress_SLASH	20	stimuli_target_trianglerectangles.svg	stimuli_distractor_trianglediamonds.svg	17	yes	57	0	938	6	4	antiphase_hc_sio.wav	1	6	2	noise_calib_stim_LEFT.wav	1	24	blb_dichoticlistening_ka-ta.mp3	ka	ta	1	left
6.6.1	win	2023-06-27	16:49:54	17:20:56	1856723	63e51c373af1cc5baf0c727f	1	1	main_slash	24	main_slash	21	stimuli_target_diamondrectangles.svg	stimuli_distractor_diamondtriangles.svg	23	yes	53	1	782	6	4	antiphase_hc_sio.wav	1	6	2	noise_calib_stim_LEFT.wav	1	24	blb_dichoticlistening_ka-ta.mp3	ka	ta	1	left
6.6.1	win	2023-06-27	16:49:54	17:20:56	1856723	63e51c373af1cc5baf0c727f	1	1	main_slash	24	advance_on_keypress_SLASH	22	stimuli_target_diamondrectangles.svg	stimuli_distractor_diamondtriangles.svg	23	yes	57	0	845	6	4	antiphase_hc_sio.wav	1	6	2	noise_calib_stim_LEFT.wav	1	24	blb_dichoticlistening_ka-ta.mp3	ka	ta	1	left
6.6.1	win	2023-06-27	16:49:54	17:20:58	1858862	63e51c373af1cc5baf0c727f	1	1	main_slash	24	main_slash	23	stimuli_target_rectanglediamonds.svg	stimuli_distractor_trianglediamonds.svg	2	yes	53	1	659	6	4	antiphase_hc_sio.wav	1	6	2	noise_calib_stim_LEFT.wav	1	24	blb_dichoticlistening_ka-ta.mp3	ka	ta	1	left
6.6.1	win	2023-06-27	16:49:54	17:20:58	1858862	63e51c373af1cc5baf0c727f	1	1	main_slash	24	advance_on_keypress_SLASH	24	stimuli_target_rectanglediamonds.svg	stimuli_distractor_trianglediamonds.svg	2	yes	57	0	807	6	4	antiphase_hc_sio.wav	1	6	2	noise_calib_stim_LEFT.wav	1	24	blb_dichoticlistening_ka-ta.mp3	ka	ta	1	left
6.6.1	win	2023-06-27	16:49:54	17:21:00	1861295	63e51c373af1cc5baf0c727f	1	1	main_slash	24	main_slash	25	stimuli_distractor_trianglediamonds.svg	stimuli_target_diamondsquares.svg	28	yes	53	1	980	6	4	antiphase_hc_sio.wav	1	6	2	noise_calib_stim_LEFT.wav	1	24	blb_dichoticlistening_ka-ta.mp3	ka	ta	1	left
6.6.1	win	2023-06-27	16:49:54	17:21:00	1861295	63e51c373af1cc5baf0c727f	1	1	main_slash	24	advance_on_keypress_SLASH	26	stimuli_distractor_trianglediamonds.svg	stimuli_target_diamondsquares.svg	28	yes	57	0	589	6	4	antiphase_hc_sio.wav	1	6	2	noise_calib_stim_LEFT.wav	1	24	blb_dichoticlistening_ka-ta.mp3	ka	ta	1	left
6.6.1	win	2023-06-27	16:49:54	17:21:02	1863193	63e51c373af1cc5baf0c727f	1	1	main_slash	24	main_slash	27	stimuli_distractor_diamondtriangles.svg	stimuli_target_squarediamonds.svg	16	yes	53	1	665	6	4	antiphase_hc_sio.wav	1	6	2	noise_calib_stim_LEFT.wav	1	24	blb_dichoticlistening_ka-ta.mp3	ka	ta	1	left
6.6.1	win	2023-06-27	16:49:54	17:21:02	1863193	63e51c373af1cc5baf0c727f	1	1	main_slash	24	advance_on_keypress_SLASH	28	stimuli_distractor_diamondtriangles.svg	stimuli_target_squarediamonds.svg	16	yes	57	0	602	6	4	antiphase_hc_sio.wav	1	6	2	noise_calib_stim_LEFT.wav	1	24	blb_dichoticlistening_ka-ta.mp3	ka	ta	1	left
6.6.1	win	2023-06-27	16:49:54	17:21:04	1865258	63e51c373af1cc5baf0c727f	1	1	main_slash	24	main_slash	29	stimuli_distractor_trianglediamonds.svg	stimuli_distractor_diamondtriangles.svg	35	no	53	0	818	6	4	antiphase_hc_sio.wav	1	6	2	noise_calib_stim_LEFT.wav	1	24	blb_dichoticlistening_ka-ta.mp3	ka	ta	1	left
6.6.1	win	2023-06-27	16:49:54	17:21:04	1865258	63e51c373af1cc5baf0c727f	1	1	main_slash	24	advance_on_keypress_SLASH	30	stimuli_distractor_trianglediamonds.svg	stimuli_distractor_diamondtriangles.svg	35	no	57	0	407	6	4	antiphase_hc_sio.wav	1	6	2	noise_calib_stim_LEFT.wav	1	24	blb_dichoticlistening_ka-ta.mp3	ka	ta	1	left
6.6.1	win	2023-06-27	16:49:54	17:21:06	1866965	63e51c373af1cc5baf0c727f	1	1	main_slash	24	main_slash	31	stimuli_target_diamondsquares.svg	stimuli_distractor_diamondtriangles.svg	24	yes	53	1	663	6	4	antiphase_hc_sio.wav	1	6	2	noise_calib_stim_LEFT.wav	1	24	blb_dichoticlistening_ka-ta.mp3	ka	ta	1	left
6.6.1	win	2023-06-27	16:49:54	17:21:06	1866965	63e51c373af1cc5baf0c727f	1	1	main_slash	24	advance_on_keypress_SLASH	32	stimuli_target_diamondsquares.svg	stimuli_distractor_diamondtriangles.svg	24	yes	57	0	1453	6	4	antiphase_hc_sio.wav	1	6	2	noise_calib_stim_LEFT.wav	1	24	blb_dichoticlistening_ka-ta.mp3	ka	ta	1	left
6.6.1	win	2023-06-27	16:49:54	17:21:09	1869674	63e51c373af1cc5baf0c727f	1	1	main_slash	24	main_slash	33	stimuli_distractor_diamondtriangles.svg	stimuli_target_diamondrectangles.svg	31	yes	53	1	617	6	4	antiphase_hc_sio.wav	1	6	2	noise_calib_stim_LEFT.wav	1	24	blb_dichoticlistening_ka-ta.mp3	ka	ta	1	left
6.6.1	win	2023-06-27	16:49:54	17:21:09	1869674	63e51c373af1cc5baf0c727f	1	1	main_slash	24	advance_on_keypress_SLASH	34	stimuli_distractor_diamondtriangles.svg	stimuli_target_diamondrectangles.svg	31	yes	57	0	781	6	4	antiphase_hc_sio.wav	1	6	2	noise_calib_stim_LEFT.wav	1	24	blb_dichoticlistening_ka-ta.mp3	ka	ta	1	left
6.6.1	win	2023-06-27	16:49:54	17:21:10	1871442	63e51c373af1cc5baf0c727f	1	1	main_slash	24	main_slash	35	stimuli_distractor_trianglediamonds.svg	stimuli_target_squarediamonds.svg	12	yes	53	1	350	6	4	antiphase_hc_sio.wav	1	6	2	noise_calib_stim_LEFT.wav	1	24	blb_dichoticlistening_ka-ta.mp3	ka	ta	1	left
6.6.1	win	2023-06-27	16:49:54	17:21:10	1871442	63e51c373af1cc5baf0c727f	1	1	main_slash	24	advance_on_keypress_SLASH	36	stimuli_distractor_trianglediamonds.svg	stimuli_target_squarediamonds.svg	12	yes	57	0	1133	6	4	antiphase_hc_sio.wav	1	6	2	noise_calib_stim_LEFT.wav	1	24	blb_dichoticlistening_ka-ta.mp3	ka	ta	1	left
6.6.1	win	2023-06-27	16:49:54	17:21:12	1873429	63e51c373af1cc5baf0c727f	1	1	main_slash	24	main_slash	37	stimuli_distractor_diamondtriangles.svg	stimuli_distractor_diamondtriangles.svg	39	no	53	0	220	6	4	antiphase_hc_sio.wav	1	6	2	noise_calib_stim_LEFT.wav	1	24	blb_dichoticlistening_ka-ta.mp3	ka	ta	1	left
6.6.1	win	2023-06-27	16:49:54	17:21:12	1873429	63e51c373af1cc5baf0c727f	1	1	main_slash	24	advance_on_keypress_SLASH	38	stimuli_distractor_diamondtriangles.svg	stimuli_distractor_diamondtriangles.svg	39	no	57	0	684	6	4	antiphase_hc_sio.wav	1	6	2	noise_calib_stim_LEFT.wav	1	24	blb_dichoticlistening_ka-ta.mp3	ka	ta	1	left
6.6.1	win	2023-06-27	16:49:54	17:21:14	1875056	63e51c373af1cc5baf0c727f	1	1	main_slash	24	main_slash	39	stimuli_distractor_trianglediamonds.svg	stimuli_target_rectangletriangles.svg	9	yes	53	1	311	6	4	antiphase_hc_sio.wav	1	6	2	noise_calib_stim_LEFT.wav	1	24	blb_dichoticlistening_ka-ta.mp3	ka	ta	1	left
6.6.1	win	2023-06-27	16:49:54	17:21:14	1875056	63e51c373af1cc5baf0c727f	1	1	main_slash	24	advance_on_keypress_SLASH	40	stimuli_distractor_trianglediamonds.svg	stimuli_target_rectangletriangles.svg	9	yes	57	0	907	6	4	antiphase_hc_sio.wav	1	6	2	noise_calib_stim_LEFT.wav	1	24	blb_dichoticlistening_ka-ta.mp3	ka	ta	1	left
6.6.1	win	2023-06-27	16:49:54	17:21:16	1877246	63e51c373af1cc5baf0c727f	1	1	main_slash	24	main_slash	41	stimuli_distractor_trianglediamonds.svg	stimuli_target_trianglerectangles.svg	25	yes	53	1	646	6	4	antiphase_hc_sio.wav	1	6	2	noise_calib_stim_LEFT.wav	1	24	blb_dichoticlistening_ka-ta.mp3	ka	ta	1	left
6.6.1	win	2023-06-27	16:49:54	17:21:16	1877246	63e51c373af1cc5baf0c727f	1	1	main_slash	24	advance_on_keypress_SLASH	42	stimuli_distractor_trianglediamonds.svg	stimuli_target_trianglerectangles.svg	25	yes	57	0	575	6	4	antiphase_hc_sio.wav	1	6	2	noise_calib_stim_LEFT.wav	1	24	blb_dichoticlistening_ka-ta.mp3	ka	ta	1	left
6.6.1	win	2023-06-27	16:49:54	17:21:18	1878935	63e51c373af1cc5baf0c727f	1	1	main_slash	24	main_slash	43	stimuli_distractor_trianglediamonds.svg	stimuli_target_diamondrectangles.svg	27	yes	53	1	472	6	4	antiphase_hc_sio.wav	1	6	2	noise_calib_stim_LEFT.wav	1	24	blb_dichoticlistening_ka-ta.mp3	ka	ta	1	left
6.6.1	win	2023-06-27	16:49:54	17:21:18	1878935	63e51c373af1cc5baf0c727f	1	1	main_slash	24	advance_on_keypress_SLASH	44	stimuli_distractor_trianglediamonds.svg	stimuli_target_diamondrectangles.svg	27	yes	57	0	690	6	4	antiphase_hc_sio.wav	1	6	2	noise_calib_stim_LEFT.wav	1	24	blb_dichoticlistening_ka-ta.mp3	ka	ta	1	left
6.6.1	win	2023-06-27	16:49:54	17:21:20	1880645	63e51c373af1cc5baf0c727f	1	1	main_slash	24	main_slash	45	stimuli_distractor_diamondtriangles.svg	stimuli_target_trianglerectangles.svg	29	yes	53	1	381	6	4	antiphase_hc_sio.wav	1	6	2	noise_calib_stim_LEFT.wav	1	24	blb_dichoticlistening_ka-ta.mp3	ka	ta	1	left
6.6.1	win	2023-06-27	16:49:54	17:21:20	1880645	63e51c373af1cc5baf0c727f	1	1	main_slash	24	advance_on_keypress_SLASH	46	stimuli_distractor_diamondtriangles.svg	stimuli_target_trianglerectangles.svg	29	yes	57	0	617	6	4	antiphase_hc_sio.wav	1	6	2	noise_calib_stim_LEFT.wav	1	24	blb_dichoticlistening_ka-ta.mp3	ka	ta	1	left
6.6.1	win	2023-06-27	16:49:54	17:21:21	1882282	63e51c373af1cc5baf0c727f	1	1	main_slash	24	main_slash	47	stimuli_target_squarediamonds.svg	stimuli_distractor_trianglediamonds.svg	4	yes	53	1	381	6	4	antiphase_hc_sio.wav	1	6	2	noise_calib_stim_LEFT.wav	1	24	blb_dichoticlistening_ka-ta.mp3	ka	ta	1	left
6.6.1	win	2023-06-27	16:49:54	17:21:21	1882282	63e51c373af1cc5baf0c727f	1	1	main_slash	24	advance_on_keypress_SLASH	48	stimuli_target_squarediamonds.svg	stimuli_distractor_trianglediamonds.svg	4	yes	57	0	647	6	4	antiphase_hc_sio.wav	1	6	2	noise_calib_stim_LEFT.wav	1	24	blb_dichoticlistening_ka-ta.mp3	ka	ta	1	left
6.6.1	win	2023-06-27	16:49:54	17:21:23	1883752	63e51c373af1cc5baf0c727f	1	1	main_slash	24	main_slash	49	stimuli_target_squaretriangles.svg	stimuli_distractor_trianglediamonds.svg	3	yes	53	1	181	6	4	antiphase_hc_sio.wav	1	6	2	noise_calib_stim_LEFT.wav	1	24	blb_dichoticlistening_ka-ta.mp3	ka	ta	1	left
6.6.1	win	2023-06-27	16:49:54	17:21:23	1883752	63e51c373af1cc5baf0c727f	1	1	main_slash	24	advance_on_keypress_SLASH	50	stimuli_target_squaretriangles.svg	stimuli_distractor_trianglediamonds.svg	3	yes	57	0	2355	6	4	antiphase_hc_sio.wav	1	6	2	noise_calib_stim_LEFT.wav	1	24	blb_dichoticlistening_ka-ta.mp3	ka	ta	1	left
6.6.1	win	2023-06-27	16:49:54	17:21:26	1887000	63e51c373af1cc5baf0c727f	1	1	main_slash	24	main_slash	51	stimuli_distractor_trianglediamonds.svg	stimuli_distractor_diamondtriangles.svg	36	no	53	0	248	6	4	antiphase_hc_sio.wav	1	6	2	noise_calib_stim_LEFT.wav	1	24	blb_dichoticlistening_ka-ta.mp3	ka	ta	1	left
6.6.1	win	2023-06-27	16:49:54	17:21:26	1887000	63e51c373af1cc5baf0c727f	1	1	main_slash	24	advance_on_keypress_SLASH	52	stimuli_distractor_trianglediamonds.svg	stimuli_distractor_diamondtriangles.svg	36	no	57	0	588	6	4	antiphase_hc_sio.wav	1	6	2	noise_calib_stim_LEFT.wav	1	24	blb_dichoticlistening_ka-ta.mp3	ka	ta	1	left
6.6.1	win	2023-06-27	16:49:54	17:21:28	1888814	63e51c373af1cc5baf0c727f	1	1	main_slash	24	main_slash	53	stimuli_target_trianglesquares.svg	stimuli_distractor_trianglediamonds.svg	18	yes	53	1	587	6	4	antiphase_hc_sio.wav	1	6	2	noise_calib_stim_LEFT.wav	1	24	blb_dichoticlistening_ka-ta.mp3	ka	ta	1	left
6.6.1	win	2023-06-27	16:49:54	17:21:28	1888814	63e51c373af1cc5baf0c727f	1	1	main_slash	24	advance_on_keypress_SLASH	54	stimuli_target_trianglesquares.svg	stimuli_distractor_trianglediamonds.svg	18	yes	57	0	863	6	4	antiphase_hc_sio.wav	1	6	2	noise_calib_stim_LEFT.wav	1	24	blb_dichoticlistening_ka-ta.mp3	ka	ta	1	left
6.6.1	win	2023-06-27	16:49:54	17:21:29	1890555	63e51c373af1cc5baf0c727f	1	1	main_slash	24	main_slash	55	stimuli_target_squarediamonds.svg	stimuli_distractor_diamondtriangles.svg	8	yes	53	1	246	6	4	antiphase_hc_sio.wav	1	6	2	noise_calib_stim_LEFT.wav	1	24	blb_dichoticlistening_ka-ta.mp3	ka	ta	1	left
6.6.1	win	2023-06-27	16:49:54	17:21:29	1890555	63e51c373af1cc5baf0c727f	1	1	main_slash	24	advance_on_keypress_SLASH	56	stimuli_target_squarediamonds.svg	stimuli_distractor_diamondtriangles.svg	8	yes	57	0	912	6	4	antiphase_hc_sio.wav	1	6	2	noise_calib_stim_LEFT.wav	1	24	blb_dichoticlistening_ka-ta.mp3	ka	ta	1	left
6.6.1	win	2023-06-27	16:49:54	17:21:32	1892735	63e51c373af1cc5baf0c727f	1	1	main_slash	24	main_slash	57	stimuli_target_squaretriangles.svg	stimuli_distractor_diamondtriangles.svg	7	yes	53	1	628	6	4	antiphase_hc_sio.wav	1	6	2	noise_calib_stim_LEFT.wav	1	24	blb_dichoticlistening_ka-ta.mp3	ka	ta	1	left
6.6.1	win	2023-06-27	16:49:54	17:21:32	1892735	63e51c373af1cc5baf0c727f	1	1	main_slash	24	advance_on_keypress_SLASH	58	stimuli_target_squaretriangles.svg	stimuli_distractor_diamondtriangles.svg	7	yes	57	0	604	6	4	antiphase_hc_sio.wav	1	6	2	noise_calib_stim_LEFT.wav	1	24	blb_dichoticlistening_ka-ta.mp3	ka	ta	1	left
6.6.1	win	2023-06-27	16:49:54	17:21:33	1894358	63e51c373af1cc5baf0c727f	1	1	main_slash	24	main_slash	59	stimuli_distractor_trianglediamonds.svg	stimuli_target_trianglesquares.svg	26	yes	53	1	376	6	4	antiphase_hc_sio.wav	1	6	2	noise_calib_stim_LEFT.wav	1	24	blb_dichoticlistening_ka-ta.mp3	ka	ta	1	left
6.6.1	win	2023-06-27	16:49:54	17:21:33	1894358	63e51c373af1cc5baf0c727f	1	1	main_slash	24	advance_on_keypress_SLASH	60	stimuli_distractor_trianglediamonds.svg	stimuli_target_trianglesquares.svg	26	yes	57	0	566	6	4	antiphase_hc_sio.wav	1	6	2	noise_calib_stim_LEFT.wav	1	24	blb_dichoticlistening_ka-ta.mp3	ka	ta	1	left
6.6.1	win	2023-06-27	16:49:54	17:21:35	1895878	63e51c373af1cc5baf0c727f	1	1	main_slash	24	main_slash	61	stimuli_distractor_trianglediamonds.svg	stimuli_target_squaretriangles.svg	11	yes	53	1	297	6	4	antiphase_hc_sio.wav	1	6	2	noise_calib_stim_LEFT.wav	1	24	blb_dichoticlistening_ka-ta.mp3	ka	ta	1	left
6.6.1	win	2023-06-27	16:49:54	17:21:35	1895878	63e51c373af1cc5baf0c727f	1	1	main_slash	24	advance_on_keypress_SLASH	62	stimuli_distractor_trianglediamonds.svg	stimuli_target_squaretriangles.svg	11	yes	57	0	2156	6	4	antiphase_hc_sio.wav	1	6	2	noise_calib_stim_LEFT.wav	1	24	blb_dichoticlistening_ka-ta.mp3	ka	ta	1	left
6.6.1	win	2023-06-27	16:49:54	17:21:38	1898939	63e51c373af1cc5baf0c727f	1	1	main_slash	24	main_slash	63	stimuli_target_diamondrectangles.svg	stimuli_distractor_trianglediamonds.svg	19	yes	53	1	260	6	4	antiphase_hc_sio.wav	1	6	2	noise_calib_stim_LEFT.wav	1	24	blb_dichoticlistening_ka-ta.mp3	ka	ta	1	left
6.6.1	win	2023-06-27	16:49:54	17:21:38	1898939	63e51c373af1cc5baf0c727f	1	1	main_slash	24	advance_on_keypress_SLASH	64	stimuli_target_diamondrectangles.svg	stimuli_distractor_trianglediamonds.svg	19	yes	57	0	1172	6	4	antiphase_hc_sio.wav	1	6	2	noise_calib_stim_LEFT.wav	1	24	blb_dichoticlistening_ka-ta.mp3	ka	ta	1	left
6.6.1	win	2023-06-27	16:49:54	17:21:40	1900858	63e51c373af1cc5baf0c727f	1	1	main_slash	24	main_slash	65	stimuli_distractor_trianglediamonds.svg	stimuli_distractor_trianglediamonds.svg	34	no	53	0	103	6	4	antiphase_hc_sio.wav	1	6	2	noise_calib_stim_LEFT.wav	1	24	blb_dichoticlistening_ka-ta.mp3	ka	ta	1	left
6.6.1	win	2023-06-27	16:49:54	17:21:40	1900858	63e51c373af1cc5baf0c727f	1	1	main_slash	24	advance_on_keypress_SLASH	66	stimuli_distractor_trianglediamonds.svg	stimuli_distractor_trianglediamonds.svg	34	no	57	0	767	6	4	antiphase_hc_sio.wav	1	6	2	noise_calib_stim_LEFT.wav	1	24	blb_dichoticlistening_ka-ta.mp3	ka	ta	1	left
6.6.1	win	2023-06-27	16:49:54	17:21:41	1902489	63e51c373af1cc5baf0c727f	1	1	main_slash	24	main_slash	67	stimuli_distractor_diamondtriangles.svg	stimuli_target_rectanglediamonds.svg	14	yes	53	1	214	6	4	antiphase_hc_sio.wav	1	6	2	noise_calib_stim_LEFT.wav	1	24	blb_dichoticlistening_ka-ta.mp3	ka	ta	1	left
6.6.1	win	2023-06-27	16:49:54	17:21:41	1902489	63e51c373af1cc5baf0c727f	1	1	main_slash	24	advance_on_keypress_SLASH	68	stimuli_distractor_diamondtriangles.svg	stimuli_target_rectanglediamonds.svg	14	yes	57	0	983	6	4	antiphase_hc_sio.wav	1	6	2	noise_calib_stim_LEFT.wav	1	24	blb_dichoticlistening_ka-ta.mp3	ka	ta	1	left
6.6.1	win	2023-06-27	16:49:54	17:21:43	1904399	63e51c373af1cc5baf0c727f	1	1	main_slash	24	main_slash	69	stimuli_target_trianglesquares.svg	stimuli_distractor_diamondtriangles.svg	22	yes	53	1	285	6	4	antiphase_hc_sio.wav	1	6	2	noise_calib_stim_LEFT.wav	1	24	blb_dichoticlistening_ka-ta.mp3	ka	ta	1	left
6.6.1	win	2023-06-27	16:49:54	17:21:43	1904399	63e51c373af1cc5baf0c727f	1	1	main_slash	24	advance_on_keypress_SLASH	70	stimuli_target_trianglesquares.svg	stimuli_distractor_diamondtriangles.svg	22	yes	57	0	755	6	4	antiphase_hc_sio.wav	1	6	2	noise_calib_stim_LEFT.wav	1	24	blb_dichoticlistening_ka-ta.mp3	ka	ta	1	left
6.6.1	win	2023-06-27	16:49:54	17:21:45	1905979	63e51c373af1cc5baf0c727f	1	1	main_slash	24	main_slash	71	stimuli_distractor_diamondtriangles.svg	stimuli_distractor_trianglediamonds.svg	38	no	53	0	189	6	4	antiphase_hc_sio.wav	1	6	2	noise_calib_stim_LEFT.wav	1	24	blb_dichoticlistening_ka-ta.mp3	ka	ta	1	left
6.6.1	win	2023-06-27	16:49:54	17:21:45	1905979	63e51c373af1cc5baf0c727f	1	1	main_slash	24	advance_on_keypress_SLASH	72	stimuli_distractor_diamondtriangles.svg	stimuli_distractor_trianglediamonds.svg	38	no	57	0	789	6	4	antiphase_hc_sio.wav	1	6	2	noise_calib_stim_LEFT.wav	1	24	blb_dichoticlistening_ka-ta.mp3	ka	ta	1	left
6.6.1	win	2023-06-27	16:49:54	17:21:47	1908038	63e51c373af1cc5baf0c727f	1	1	main_slash	24	main_slash	73	stimuli_target_trianglerectangles.svg	stimuli_distractor_diamondtriangles.svg	21	yes	53	1	622	6	4	antiphase_hc_sio.wav	1	6	2	noise_calib_stim_LEFT.wav	1	24	blb_dichoticlistening_ka-ta.mp3	ka	ta	1	left
6.6.1	win	2023-06-27	16:49:54	17:21:47	1908038	63e51c373af1cc5baf0c727f	1	1	main_slash	24	advance_on_keypress_SLASH	74	stimuli_target_trianglerectangles.svg	stimuli_distractor_diamondtriangles.svg	21	yes	57	0	497	6	4	antiphase_hc_sio.wav	1	6	2	noise_calib_stim_LEFT.wav	1	24	blb_dichoticlistening_ka-ta.mp3	ka	ta	1	left
6.6.1	win	2023-06-27	16:49:54	17:21:49	1909680	63e51c373af1cc5baf0c727f	1	1	main_slash	24	main_slash	75	stimuli_distractor_diamondtriangles.svg	stimuli_target_squaretriangles.svg	15	yes	53	1	496	6	4	antiphase_hc_sio.wav	1	6	2	noise_calib_stim_LEFT.wav	1	24	blb_dichoticlistening_ka-ta.mp3	ka	ta	1	left
6.6.1	win	2023-06-27	16:49:54	17:21:49	1909680	63e51c373af1cc5baf0c727f	1	1	main_slash	24	advance_on_keypress_SLASH	76	stimuli_distractor_diamondtriangles.svg	stimuli_target_squaretriangles.svg	15	yes	57	0	620	6	4	antiphase_hc_sio.wav	1	6	2	noise_calib_stim_LEFT.wav	1	24	blb_dichoticlistening_ka-ta.mp3	ka	ta	1	left
6.6.1	win	2023-06-27	16:49:54	17:21:52	1912942	63e51c373af1cc5baf0c727f	1	1	main_slash	24	main_slash	77	stimuli_distractor_diamondtriangles.svg	stimuli_target_trianglesquares.svg	30	yes	0	0	2000	6	4	antiphase_hc_sio.wav	1	6	2	noise_calib_stim_LEFT.wav	1	24	blb_dichoticlistening_ka-ta.mp3	ka	ta	1	left
6.6.1	win	2023-06-27	16:49:54	17:21:52	1912942	63e51c373af1cc5baf0c727f	1	1	main_slash	24	advance_on_keypress_SLASH	78	stimuli_distractor_diamondtriangles.svg	stimuli_target_trianglesquares.svg	30	yes	57	0	557	6	4	antiphase_hc_sio.wav	1	6	2	noise_calib_stim_LEFT.wav	1	24	blb_dichoticlistening_ka-ta.mp3	ka	ta	1	left
6.6.1	win	2023-06-27	16:49:54	17:21:54	1915215	63e51c373af1cc5baf0c727f	1	1	main_slash	24	main_slash	79	stimuli_distractor_diamondtriangles.svg	stimuli_target_diamondsquares.svg	32	yes	53	1	1070	6	4	antiphase_hc_sio.wav	1	6	2	noise_calib_stim_LEFT.wav	1	24	blb_dichoticlistening_ka-ta.mp3	ka	ta	1	left
6.6.1	win	2023-06-27	16:49:54	17:21:54	1915215	63e51c373af1cc5baf0c727f	1	1	main_slash	24	advance_on_keypress_SLASH	80	stimuli_distractor_diamondtriangles.svg	stimuli_target_diamondsquares.svg	32	yes	57	0	685	6	4	antiphase_hc_sio.wav	1	6	2	noise_calib_stim_LEFT.wav	1	24	blb_dichoticlistening_ka-ta.mp3	ka	ta	1	left
6.6.1	win	2023-06-27	16:49:54	17:21:56	1917264	63e51c373af1cc5baf0c727f	1	1	main_slash	24	main_slash	81	stimuli_target_squaretriangles.svg	stimuli_distractor_trianglediamonds.svg	3	yes	53	1	723	6	4	antiphase_hc_sio.wav	1	6	2	noise_calib_stim_LEFT.wav	1	24	blb_dichoticlistening_ka-ta.mp3	ka	ta	1	left
6.6.1	win	2023-06-27	16:49:54	17:21:56	1917264	63e51c373af1cc5baf0c727f	1	1	main_slash	24	advance_on_keypress_SLASH	82	stimuli_target_squaretriangles.svg	stimuli_distractor_trianglediamonds.svg	3	yes	57	0	1013	6	4	antiphase_hc_sio.wav	1	6	2	noise_calib_stim_LEFT.wav	1	24	blb_dichoticlistening_ka-ta.mp3	ka	ta	1	left
6.6.1	win	2023-06-27	16:49:54	17:21:59	1920043	63e51c373af1cc5baf0c727f	1	1	main_slash	24	main_slash	83	stimuli_target_squarediamonds.svg	stimuli_distractor_trianglediamonds.svg	4	yes	53	1	1131	6	4	antiphase_hc_sio.wav	1	6	2	noise_calib_stim_LEFT.wav	1	24	blb_dichoticlistening_ka-ta.mp3	ka	ta	1	left
6.6.1	win	2023-06-27	16:49:54	17:21:59	1920043	63e51c373af1cc5baf0c727f	1	1	main_slash	24	advance_on_keypress_SLASH	84	stimuli_target_squarediamonds.svg	stimuli_distractor_trianglediamonds.svg	4	yes	57	0	513	6	4	antiphase_hc_sio.wav	1	6	2	noise_calib_stim_LEFT.wav	1	24	blb_dichoticlistening_ka-ta.mp3	ka	ta	1	left
6.6.1	win	2023-06-27	16:49:54	17:22:01	1922305	63e51c373af1cc5baf0c727f	1	1	main_slash	24	main_slash	85	stimuli_distractor_diamondtriangles.svg	stimuli_target_rectanglediamonds.svg	14	yes	53	1	1116	6	4	antiphase_hc_sio.wav	1	6	2	noise_calib_stim_LEFT.wav	1	24	blb_dichoticlistening_ka-ta.mp3	ka	ta	1	left
6.6.1	win	2023-06-27	16:49:54	17:22:01	1922305	63e51c373af1cc5baf0c727f	1	1	main_slash	24	advance_on_keypress_SLASH	86	stimuli_distractor_diamondtriangles.svg	stimuli_target_rectanglediamonds.svg	14	yes	57	0	644	6	4	antiphase_hc_sio.wav	1	6	2	noise_calib_stim_LEFT.wav	1	24	blb_dichoticlistening_ka-ta.mp3	ka	ta	1	left
6.6.1	win	2023-06-27	16:49:54	17:22:04	1924651	63e51c373af1cc5baf0c727f	1	1	main_slash	24	main_slash	87	stimuli_target_trianglerectangles.svg	stimuli_distractor_diamondtriangles.svg	21	yes	53	1	1061	6	4	antiphase_hc_sio.wav	1	6	2	noise_calib_stim_LEFT.wav	1	24	blb_dichoticlistening_ka-ta.mp3	ka	ta	1	left
6.6.1	win	2023-06-27	16:49:54	17:22:04	1924651	63e51c373af1cc5baf0c727f	1	1	main_slash	24	advance_on_keypress_SLASH	88	stimuli_target_trianglerectangles.svg	stimuli_distractor_diamondtriangles.svg	21	yes	57	0	479	6	4	antiphase_hc_sio.wav	1	6	2	noise_calib_stim_LEFT.wav	1	24	blb_dichoticlistening_ka-ta.mp3	ka	ta	1	left
6.6.1	win	2023-06-27	16:49:54	17:22:06	1926792	63e51c373af1cc5baf0c727f	1	1	main_slash	24	main_slash	89	stimuli_distractor_trianglediamonds.svg	stimuli_target_rectangletriangles.svg	9	yes	53	1	1024	6	4	antiphase_hc_sio.wav	1	6	2	noise_calib_stim_LEFT.wav	1	24	blb_dichoticlistening_ka-ta.mp3	ka	ta	1	left
6.6.1	win	2023-06-27	16:49:54	17:22:06	1926792	63e51c373af1cc5baf0c727f	1	1	main_slash	24	advance_on_keypress_SLASH	90	stimuli_distractor_trianglediamonds.svg	stimuli_target_rectangletriangles.svg	9	yes	57	0	588	6	4	antiphase_hc_sio.wav	1	6	2	noise_calib_stim_LEFT.wav	1	24	blb_dichoticlistening_ka-ta.mp3	ka	ta	1	left
6.6.1	win	2023-06-27	16:49:54	17:22:09	1930017	63e51c373af1cc5baf0c727f	1	1	main_slash	24	main_slash	91	stimuli_distractor_trianglediamonds.svg	stimuli_distractor_diamondtriangles.svg	35	no	0	1	2000	6	4	antiphase_hc_sio.wav	1	6	2	noise_calib_stim_LEFT.wav	1	24	blb_dichoticlistening_ka-ta.mp3	ka	ta	1	left
6.6.1	win	2023-06-27	16:49:54	17:22:09	1930017	63e51c373af1cc5baf0c727f	1	1	main_slash	24	advance_on_keypress_SLASH	92	stimuli_distractor_trianglediamonds.svg	stimuli_distractor_diamondtriangles.svg	35	no	57	0	505	6	4	antiphase_hc_sio.wav	1	6	2	noise_calib_stim_LEFT.wav	1	24	blb_dichoticlistening_ka-ta.mp3	ka	ta	1	left
6.6.1	win	2023-06-27	16:49:54	17:22:11	1932058	63e51c373af1cc5baf0c727f	1	1	main_slash	24	main_slash	93	stimuli_distractor_trianglediamonds.svg	stimuli_target_diamondsquares.svg	28	yes	53	1	904	6	4	antiphase_hc_sio.wav	1	6	2	noise_calib_stim_LEFT.wav	1	24	blb_dichoticlistening_ka-ta.mp3	ka	ta	1	left
6.6.1	win	2023-06-27	16:49:54	17:22:11	1932058	63e51c373af1cc5baf0c727f	1	1	main_slash	24	advance_on_keypress_SLASH	94	stimuli_distractor_trianglediamonds.svg	stimuli_target_diamondsquares.svg	28	yes	57	0	860	6	4	antiphase_hc_sio.wav	1	6	2	noise_calib_stim_LEFT.wav	1	24	blb_dichoticlistening_ka-ta.mp3	ka	ta	1	left
6.6.1	win	2023-06-27	16:49:54	17:22:13	1934491	63e51c373af1cc5baf0c727f	1	1	main_slash	24	main_slash	95	stimuli_target_diamondsquares.svg	stimuli_distractor_diamondtriangles.svg	24	yes	53	1	935	6	4	antiphase_hc_sio.wav	1	6	2	noise_calib_stim_LEFT.wav	1	24	blb_dichoticlistening_ka-ta.mp3	ka	ta	1	left
6.6.1	win	2023-06-27	16:49:54	17:22:13	1934491	63e51c373af1cc5baf0c727f	1	1	main_slash	24	advance_on_keypress_SLASH	96	stimuli_target_diamondsquares.svg	stimuli_distractor_diamondtriangles.svg	24	yes	57	0	432	6	4	antiphase_hc_sio.wav	1	6	2	noise_calib_stim_LEFT.wav	1	24	blb_dichoticlistening_ka-ta.mp3	ka	ta	1	left
6.6.1	win	2023-06-27	16:49:54	17:22:16	1937565	63e51c373af1cc5baf0c727f	1	1	main_slash	24	main_slash	97	stimuli_distractor_trianglediamonds.svg	stimuli_distractor_diamondtriangles.svg	36	no	0	1	2000	6	4	antiphase_hc_sio.wav	1	6	2	noise_calib_stim_LEFT.wav	1	24	blb_dichoticlistening_ka-ta.mp3	ka	ta	1	left
6.6.1	win	2023-06-27	16:49:54	17:22:16	1937565	63e51c373af1cc5baf0c727f	1	1	main_slash	24	advance_on_keypress_SLASH	98	stimuli_distractor_trianglediamonds.svg	stimuli_distractor_diamondtriangles.svg	36	no	57	0	324	6	4	antiphase_hc_sio.wav	1	6	2	noise_calib_stim_LEFT.wav	1	24	blb_dichoticlistening_ka-ta.mp3	ka	ta	1	left
6.6.1	win	2023-06-27	16:49:54	17:22:18	1939571	63e51c373af1cc5baf0c727f	1	1	main_slash	24	main_slash	99	stimuli_target_trianglesquares.svg	stimuli_distractor_diamondtriangles.svg	22	yes	53	1	1040	6	4	antiphase_hc_sio.wav	1	6	2	noise_calib_stim_LEFT.wav	1	24	blb_dichoticlistening_ka-ta.mp3	ka	ta	1	left
6.6.1	win	2023-06-27	16:49:54	17:22:18	1939571	63e51c373af1cc5baf0c727f	1	1	main_slash	24	advance_on_keypress_SLASH	100	stimuli_target_trianglesquares.svg	stimuli_distractor_diamondtriangles.svg	22	yes	57	0	1732	6	4	antiphase_hc_sio.wav	1	6	2	noise_calib_stim_LEFT.wav	1	24	blb_dichoticlistening_ka-ta.mp3	ka	ta	1	left
6.6.1	win	2023-06-27	16:49:54	17:22:22	1942919	63e51c373af1cc5baf0c727f	1	1	main_slash	24	main_slash	101	stimuli_target_trianglesquares.svg	stimuli_distractor_trianglediamonds.svg	18	yes	53	1	980	6	4	antiphase_hc_sio.wav	1	6	2	noise_calib_stim_LEFT.wav	1	24	blb_dichoticlistening_ka-ta.mp3	ka	ta	1	left
6.6.1	win	2023-06-27	16:49:54	17:22:22	1942919	63e51c373af1cc5baf0c727f	1	1	main_slash	24	advance_on_keypress_SLASH	102	stimuli_target_trianglesquares.svg	stimuli_distractor_trianglediamonds.svg	18	yes	57	0	518	6	4	antiphase_hc_sio.wav	1	6	2	noise_calib_stim_LEFT.wav	1	24	blb_dichoticlistening_ka-ta.mp3	ka	ta	1	left
6.6.1	win	2023-06-27	16:49:54	17:22:25	1946084	63e51c373af1cc5baf0c727f	1	1	main_slash	24	main_slash	103	stimuli_distractor_trianglediamonds.svg	stimuli_distractor_trianglediamonds.svg	34	no	0	1	2000	6	4	antiphase_hc_sio.wav	1	6	2	noise_calib_stim_LEFT.wav	1	24	blb_dichoticlistening_ka-ta.mp3	ka	ta	1	left
6.6.1	win	2023-06-27	16:49:54	17:22:25	1946084	63e51c373af1cc5baf0c727f	1	1	main_slash	24	advance_on_keypress_SLASH	104	stimuli_distractor_trianglediamonds.svg	stimuli_distractor_trianglediamonds.svg	34	no	57	0	339	6	4	antiphase_hc_sio.wav	1	6	2	noise_calib_stim_LEFT.wav	1	24	blb_dichoticlistening_ka-ta.mp3	ka	ta	1	left
6.6.1	win	2023-06-27	16:49:54	17:22:27	1947850	63e51c373af1cc5baf0c727f	1	1	main_slash	24	main_slash	105	stimuli_distractor_diamondtriangles.svg	stimuli_target_rectangletriangles.svg	13	yes	53	1	789	6	4	antiphase_hc_sio.wav	1	6	2	noise_calib_stim_LEFT.wav	1	24	blb_dichoticlistening_ka-ta.mp3	ka	ta	1	left
6.6.1	win	2023-06-27	16:49:54	17:22:27	1947850	63e51c373af1cc5baf0c727f	1	1	main_slash	24	advance_on_keypress_SLASH	106	stimuli_distractor_diamondtriangles.svg	stimuli_target_rectangletriangles.svg	13	yes	57	0	730	6	4	antiphase_hc_sio.wav	1	6	2	noise_calib_stim_LEFT.wav	1	24	blb_dichoticlistening_ka-ta.mp3	ka	ta	1	left
6.6.1	win	2023-06-27	16:49:54	17:22:30	1951222	63e51c373af1cc5baf0c727f	1	1	main_slash	24	main_slash	107	stimuli_distractor_diamondtriangles.svg	stimuli_distractor_trianglediamonds.svg	37	no	0	1	2000	6	4	antiphase_hc_sio.wav	1	6	2	noise_calib_stim_LEFT.wav	1	24	blb_dichoticlistening_ka-ta.mp3	ka	ta	1	left
6.6.1	win	2023-06-27	16:49:54	17:22:30	1951222	63e51c373af1cc5baf0c727f	1	1	main_slash	24	advance_on_keypress_SLASH	108	stimuli_distractor_diamondtriangles.svg	stimuli_distractor_trianglediamonds.svg	37	no	57	0	273	6	4	antiphase_hc_sio.wav	1	6	2	noise_calib_stim_LEFT.wav	1	24	blb_dichoticlistening_ka-ta.mp3	ka	ta	1	left
6.6.1	win	2023-06-27	16:49:54	17:22:32	1952945	63e51c373af1cc5baf0c727f	1	1	main_slash	24	main_slash	109	stimuli_target_rectanglediamonds.svg	stimuli_distractor_diamondtriangles.svg	6	yes	53	1	814	6	4	antiphase_hc_sio.wav	1	6	2	noise_calib_stim_LEFT.wav	1	24	blb_dichoticlistening_ka-ta.mp3	ka	ta	1	left
6.6.1	win	2023-06-27	16:49:54	17:22:32	1952945	63e51c373af1cc5baf0c727f	1	1	main_slash	24	advance_on_keypress_SLASH	110	stimuli_target_rectanglediamonds.svg	stimuli_distractor_diamondtriangles.svg	6	yes	57	0	825	6	4	antiphase_hc_sio.wav	1	6	2	noise_calib_stim_LEFT.wav	1	24	blb_dichoticlistening_ka-ta.mp3	ka	ta	1	left
6.6.1	win	2023-06-27	16:49:54	17:22:34	1955438	63e51c373af1cc5baf0c727f	1	1	main_slash	24	main_slash	111	stimuli_distractor_diamondtriangles.svg	stimuli_target_diamondsquares.svg	32	yes	53	1	1025	6	4	antiphase_hc_sio.wav	1	6	2	noise_calib_stim_LEFT.wav	1	24	blb_dichoticlistening_ka-ta.mp3	ka	ta	1	left
6.6.1	win	2023-06-27	16:49:54	17:22:34	1955438	63e51c373af1cc5baf0c727f	1	1	main_slash	24	advance_on_keypress_SLASH	112	stimuli_distractor_diamondtriangles.svg	stimuli_target_diamondsquares.svg	32	yes	57	0	503	6	4	antiphase_hc_sio.wav	1	6	2	noise_calib_stim_LEFT.wav	1	24	blb_dichoticlistening_ka-ta.mp3	ka	ta	1	left
6.6.1	win	2023-06-27	16:49:54	17:22:37	1958575	63e51c373af1cc5baf0c727f	1	1	main_slash	24	main_slash	113	stimuli_distractor_diamondtriangles.svg	stimuli_distractor_diamondtriangles.svg	39	no	0	1	2000	6	4	antiphase_hc_sio.wav	1	6	2	noise_calib_stim_LEFT.wav	1	24	blb_dichoticlistening_ka-ta.mp3	ka	ta	1	left
6.6.1	win	2023-06-27	16:49:54	17:22:37	1958575	63e51c373af1cc5baf0c727f	1	1	main_slash	24	advance_on_keypress_SLASH	114	stimuli_distractor_diamondtriangles.svg	stimuli_distractor_diamondtriangles.svg	39	no	57	0	292	6	4	antiphase_hc_sio.wav	1	6	2	noise_calib_stim_LEFT.wav	1	24	blb_dichoticlistening_ka-ta.mp3	ka	ta	1	left
6.6.1	win	2023-06-27	16:49:54	17:22:39	1960423	63e51c373af1cc5baf0c727f	1	1	main_slash	24	main_slash	115	stimuli_target_rectangletriangles.svg	stimuli_distractor_diamondtriangles.svg	5	yes	53	1	916	6	4	antiphase_hc_sio.wav	1	6	2	noise_calib_stim_LEFT.wav	1	24	blb_dichoticlistening_ka-ta.mp3	ka	ta	1	left
6.6.1	win	2023-06-27	16:49:54	17:22:39	1960423	63e51c373af1cc5baf0c727f	1	1	main_slash	24	advance_on_keypress_SLASH	116	stimuli_target_rectangletriangles.svg	stimuli_distractor_diamondtriangles.svg	5	yes	57	0	387	6	4	antiphase_hc_sio.wav	1	6	2	noise_calib_stim_LEFT.wav	1	24	blb_dichoticlistening_ka-ta.mp3	ka	ta	1	left
6.6.1	win	2023-06-27	16:49:54	17:22:41	1962245	63e51c373af1cc5baf0c727f	1	1	main_slash	24	main_slash	117	stimuli_distractor_trianglediamonds.svg	stimuli_target_squaretriangles.svg	11	yes	53	1	796	6	4	antiphase_hc_sio.wav	1	6	2	noise_calib_stim_LEFT.wav	1	24	blb_dichoticlistening_ka-ta.mp3	ka	ta	1	left
6.6.1	win	2023-06-27	16:49:54	17:22:41	1962245	63e51c373af1cc5baf0c727f	1	1	main_slash	24	advance_on_keypress_SLASH	118	stimuli_distractor_trianglediamonds.svg	stimuli_target_squaretriangles.svg	11	yes	57	0	438	6	4	antiphase_hc_sio.wav	1	6	2	noise_calib_stim_LEFT.wav	1	24	blb_dichoticlistening_ka-ta.mp3	ka	ta	1	left
6.6.1	win	2023-06-27	16:49:54	17:22:43	1964012	63e51c373af1cc5baf0c727f	1	1	main_slash	24	main_slash	119	stimuli_distractor_trianglediamonds.svg	stimuli_target_trianglesquares.svg	26	yes	53	1	692	6	4	antiphase_hc_sio.wav	1	6	2	noise_calib_stim_LEFT.wav	1	24	blb_dichoticlistening_ka-ta.mp3	ka	ta	1	left
6.6.1	win	2023-06-27	16:49:54	17:22:43	1964012	63e51c373af1cc5baf0c727f	1	1	main_slash	24	advance_on_keypress_SLASH	120	stimuli_distractor_trianglediamonds.svg	stimuli_target_trianglesquares.svg	26	yes	57	0	560	6	4	antiphase_hc_sio.wav	1	6	2	noise_calib_stim_LEFT.wav	1	24	blb_dichoticlistening_ka-ta.mp3	ka	ta	1	left
6.6.1	win	2023-06-27	16:49:54	17:22:45	1965784	63e51c373af1cc5baf0c727f	1	1	main_slash	24	main_slash	121	stimuli_distractor_trianglediamonds.svg	stimuli_target_rectanglediamonds.svg	10	yes	53	1	567	6	4	antiphase_hc_sio.wav	1	6	2	noise_calib_stim_LEFT.wav	1	24	blb_dichoticlistening_ka-ta.mp3	ka	ta	1	left
6.6.1	win	2023-06-27	16:49:54	17:22:45	1965784	63e51c373af1cc5baf0c727f	1	1	main_slash	24	advance_on_keypress_SLASH	122	stimuli_distractor_trianglediamonds.svg	stimuli_target_rectanglediamonds.svg	10	yes	57	0	535	6	4	antiphase_hc_sio.wav	1	6	2	noise_calib_stim_LEFT.wav	1	24	blb_dichoticlistening_ka-ta.mp3	ka	ta	1	left
6.6.1	win	2023-06-27	16:49:54	17:22:46	1967582	63e51c373af1cc5baf0c727f	1	1	main_slash	24	main_slash	123	stimuli_distractor_trianglediamonds.svg	stimuli_target_squarediamonds.svg	12	yes	53	1	627	6	4	antiphase_hc_sio.wav	1	6	2	noise_calib_stim_LEFT.wav	1	24	blb_dichoticlistening_ka-ta.mp3	ka	ta	1	left
6.6.1	win	2023-06-27	16:49:54	17:22:46	1967582	63e51c373af1cc5baf0c727f	1	1	main_slash	24	advance_on_keypress_SLASH	124	stimuli_distractor_trianglediamonds.svg	stimuli_target_squarediamonds.svg	12	yes	57	0	467	6	4	antiphase_hc_sio.wav	1	6	2	noise_calib_stim_LEFT.wav	1	24	blb_dichoticlistening_ka-ta.mp3	ka	ta	1	left
6.6.1	win	2023-06-27	16:49:54	17:22:48	1969274	63e51c373af1cc5baf0c727f	1	1	main_slash	24	main_slash	125	stimuli_target_diamondrectangles.svg	stimuli_distractor_trianglediamonds.svg	19	yes	53	1	585	6	4	antiphase_hc_sio.wav	1	6	2	noise_calib_stim_LEFT.wav	1	24	blb_dichoticlistening_ka-ta.mp3	ka	ta	1	left
6.6.1	win	2023-06-27	16:49:54	17:22:48	1969274	63e51c373af1cc5baf0c727f	1	1	main_slash	24	advance_on_keypress_SLASH	126	stimuli_target_diamondrectangles.svg	stimuli_distractor_trianglediamonds.svg	19	yes	57	0	433	6	4	antiphase_hc_sio.wav	1	6	2	noise_calib_stim_LEFT.wav	1	24	blb_dichoticlistening_ka-ta.mp3	ka	ta	1	left
6.6.1	win	2023-06-27	16:49:54	17:22:50	1970810	63e51c373af1cc5baf0c727f	1	1	main_slash	24	main_slash	127	stimuli_target_rectangletriangles.svg	stimuli_distractor_trianglediamonds.svg	1	yes	53	1	466	6	4	antiphase_hc_sio.wav	1	6	2	noise_calib_stim_LEFT.wav	1	24	blb_dichoticlistening_ka-ta.mp3	ka	ta	1	left
6.6.1	win	2023-06-27	16:49:54	17:22:50	1970810	63e51c373af1cc5baf0c727f	1	1	main_slash	24	advance_on_keypress_SLASH	128	stimuli_target_rectangletriangles.svg	stimuli_distractor_trianglediamonds.svg	1	yes	57	0	441	6	4	antiphase_hc_sio.wav	1	6	2	noise_calib_stim_LEFT.wav	1	24	blb_dichoticlistening_ka-ta.mp3	ka	ta	1	left
6.6.1	win	2023-06-27	16:49:54	17:22:51	1972594	63e51c373af1cc5baf0c727f	1	1	main_slash	24	main_slash	129	stimuli_distractor_diamondtriangles.svg	stimuli_target_squarediamonds.svg	16	yes	53	1	703	6	4	antiphase_hc_sio.wav	1	6	2	noise_calib_stim_LEFT.wav	1	24	blb_dichoticlistening_ka-ta.mp3	ka	ta	1	left
6.6.1	win	2023-06-27	16:49:54	17:22:51	1972594	63e51c373af1cc5baf0c727f	1	1	main_slash	24	advance_on_keypress_SLASH	130	stimuli_distractor_diamondtriangles.svg	stimuli_target_squarediamonds.svg	16	yes	57	0	438	6	4	antiphase_hc_sio.wav	1	6	2	noise_calib_stim_LEFT.wav	1	24	blb_dichoticlistening_ka-ta.mp3	ka	ta	1	left
6.6.1	win	2023-06-27	16:49:54	17:22:53	1974593	63e51c373af1cc5baf0c727f	1	1	main_slash	24	main_slash	131	stimuli_distractor_diamondtriangles.svg	stimuli_target_trianglesquares.svg	30	yes	53	1	927	6	4	antiphase_hc_sio.wav	1	6	2	noise_calib_stim_LEFT.wav	1	24	blb_dichoticlistening_ka-ta.mp3	ka	ta	1	left
6.6.1	win	2023-06-27	16:49:54	17:22:53	1974593	63e51c373af1cc5baf0c727f	1	1	main_slash	24	advance_on_keypress_SLASH	132	stimuli_distractor_diamondtriangles.svg	stimuli_target_trianglesquares.svg	30	yes	57	0	387	6	4	antiphase_hc_sio.wav	1	6	2	noise_calib_stim_LEFT.wav	1	24	blb_dichoticlistening_ka-ta.mp3	ka	ta	1	left
6.6.1	win	2023-06-27	16:49:54	17:22:57	1977626	63e51c373af1cc5baf0c727f	1	1	main_slash	24	main_slash	133	stimuli_distractor_diamondtriangles.svg	stimuli_distractor_diamondtriangles.svg	40	no	0	1	2000	6	4	antiphase_hc_sio.wav	1	6	2	noise_calib_stim_LEFT.wav	1	24	blb_dichoticlistening_ka-ta.mp3	ka	ta	1	left
6.6.1	win	2023-06-27	16:49:54	17:22:57	1977626	63e51c373af1cc5baf0c727f	1	1	main_slash	24	advance_on_keypress_SLASH	134	stimuli_distractor_diamondtriangles.svg	stimuli_distractor_diamondtriangles.svg	40	no	57	0	289	6	4	antiphase_hc_sio.wav	1	6	2	noise_calib_stim_LEFT.wav	1	24	blb_dichoticlistening_ka-ta.mp3	ka	ta	1	left
6.6.1	win	2023-06-27	16:49:54	17:22:58	1979361	63e51c373af1cc5baf0c727f	1	1	main_slash	24	main_slash	135	stimuli_distractor_diamondtriangles.svg	stimuli_target_squaretriangles.svg	15	yes	53	1	802	6	4	antiphase_hc_sio.wav	1	6	2	noise_calib_stim_LEFT.wav	1	24	blb_dichoticlistening_ka-ta.mp3	ka	ta	1	left
6.6.1	win	2023-06-27	16:49:54	17:22:58	1979361	63e51c373af1cc5baf0c727f	1	1	main_slash	24	advance_on_keypress_SLASH	136	stimuli_distractor_diamondtriangles.svg	stimuli_target_squaretriangles.svg	15	yes	57	0	383	6	4	antiphase_hc_sio.wav	1	6	2	noise_calib_stim_LEFT.wav	1	24	blb_dichoticlistening_ka-ta.mp3	ka	ta	1	left
6.6.1	win	2023-06-27	16:49:54	17:23:00	1981092	63e51c373af1cc5baf0c727f	1	1	main_slash	24	main_slash	137	stimuli_distractor_diamondtriangles.svg	stimuli_target_diamondrectangles.svg	31	yes	53	1	713	6	4	antiphase_hc_sio.wav	1	6	2	noise_calib_stim_LEFT.wav	1	24	blb_dichoticlistening_ka-ta.mp3	ka	ta	1	left
6.6.1	win	2023-06-27	16:49:54	17:23:00	1981092	63e51c373af1cc5baf0c727f	1	1	main_slash	24	advance_on_keypress_SLASH	138	stimuli_distractor_diamondtriangles.svg	stimuli_target_diamondrectangles.svg	31	yes	57	0	365	6	4	antiphase_hc_sio.wav	1	6	2	noise_calib_stim_LEFT.wav	1	24	blb_dichoticlistening_ka-ta.mp3	ka	ta	1	left
6.6.1	win	2023-06-27	16:49:54	17:23:03	1984092	63e51c373af1cc5baf0c727f	1	1	main_slash	24	main_slash	139	stimuli_target_trianglerectangles.svg	stimuli_distractor_trianglediamonds.svg	17	yes	0	0	2000	6	4	antiphase_hc_sio.wav	1	6	2	noise_calib_stim_LEFT.wav	1	24	blb_dichoticlistening_ka-ta.mp3	ka	ta	1	left
6.6.1	win	2023-06-27	16:49:54	17:23:03	1984092	63e51c373af1cc5baf0c727f	1	1	main_slash	24	advance_on_keypress_SLASH	140	stimuli_target_trianglerectangles.svg	stimuli_distractor_trianglediamonds.svg	17	yes	57	0	10148	6	4	antiphase_hc_sio.wav	1	6	2	noise_calib_stim_LEFT.wav	1	24	blb_dichoticlistening_ka-ta.mp3	ka	ta	1	left
6.6.1	win	2023-06-27	16:49:54	17:23:16	1996877	63e51c373af1cc5baf0c727f	1	1	main_slash	24	main_slash	141	stimuli_distractor_trianglediamonds.svg	stimuli_distractor_trianglediamonds.svg	33	no	0	1	2000	6	4	antiphase_hc_sio.wav	1	6	2	noise_calib_stim_LEFT.wav	1	24	blb_dichoticlistening_ka-ta.mp3	ka	ta	1	left
6.6.1	win	2023-06-27	16:49:54	17:23:16	1996877	63e51c373af1cc5baf0c727f	1	1	main_slash	24	advance_on_keypress_SLASH	142	stimuli_distractor_trianglediamonds.svg	stimuli_distractor_trianglediamonds.svg	33	no	57	0	294	6	4	antiphase_hc_sio.wav	1	6	2	noise_calib_stim_LEFT.wav	1	24	blb_dichoticlistening_ka-ta.mp3	ka	ta	1	left
6.6.1	win	2023-06-27	16:49:54	17:23:18	1998606	63e51c373af1cc5baf0c727f	1	1	main_slash	24	main_slash	143	stimuli_distractor_diamondtriangles.svg	stimuli_target_trianglerectangles.svg	29	yes	53	1	799	6	4	antiphase_hc_sio.wav	1	6	2	noise_calib_stim_LEFT.wav	1	24	blb_dichoticlistening_ka-ta.mp3	ka	ta	1	left
6.6.1	win	2023-06-27	16:49:54	17:23:18	1998606	63e51c373af1cc5baf0c727f	1	1	main_slash	24	advance_on_keypress_SLASH	144	stimuli_distractor_diamondtriangles.svg	stimuli_target_trianglerectangles.svg	29	yes	57	0	685	6	4	antiphase_hc_sio.wav	1	6	2	noise_calib_stim_LEFT.wav	1	24	blb_dichoticlistening_ka-ta.mp3	ka	ta	1	left
6.6.1	win	2023-06-27	16:49:54	17:23:19	2000499	63e51c373af1cc5baf0c727f	1	1	main_slash	24	main_slash	145	stimuli_target_diamondsquares.svg	stimuli_distractor_trianglediamonds.svg	20	yes	53	1	572	6	4	antiphase_hc_sio.wav	1	6	2	noise_calib_stim_LEFT.wav	1	24	blb_dichoticlistening_ka-ta.mp3	ka	ta	1	left
6.6.1	win	2023-06-27	16:49:54	17:23:19	2000499	63e51c373af1cc5baf0c727f	1	1	main_slash	24	advance_on_keypress_SLASH	146	stimuli_target_diamondsquares.svg	stimuli_distractor_trianglediamonds.svg	20	yes	57	0	509	6	4	antiphase_hc_sio.wav	1	6	2	noise_calib_stim_LEFT.wav	1	24	blb_dichoticlistening_ka-ta.mp3	ka	ta	1	left
6.6.1	win	2023-06-27	16:49:54	17:23:21	2002373	63e51c373af1cc5baf0c727f	1	1	main_slash	24	main_slash	147	stimuli_target_squaretriangles.svg	stimuli_distractor_diamondtriangles.svg	7	yes	53	1	734	6	4	antiphase_hc_sio.wav	1	6	2	noise_calib_stim_LEFT.wav	1	24	blb_dichoticlistening_ka-ta.mp3	ka	ta	1	left
6.6.1	win	2023-06-27	16:49:54	17:23:21	2002373	63e51c373af1cc5baf0c727f	1	1	main_slash	24	advance_on_keypress_SLASH	148	stimuli_target_squaretriangles.svg	stimuli_distractor_diamondtriangles.svg	7	yes	57	0	383	6	4	antiphase_hc_sio.wav	1	6	2	noise_calib_stim_LEFT.wav	1	24	blb_dichoticlistening_ka-ta.mp3	ka	ta	1	left
6.6.1	win	2023-06-27	16:49:54	17:23:24	2005393	63e51c373af1cc5baf0c727f	1	1	main_slash	24	main_slash	149	stimuli_distractor_diamondtriangles.svg	stimuli_distractor_trianglediamonds.svg	38	no	0	1	2000	6	4	antiphase_hc_sio.wav	1	6	2	noise_calib_stim_LEFT.wav	1	24	blb_dichoticlistening_ka-ta.mp3	ka	ta	1	left
6.6.1	win	2023-06-27	16:49:54	17:23:24	2005393	63e51c373af1cc5baf0c727f	1	1	main_slash	24	advance_on_keypress_SLASH	150	stimuli_distractor_diamondtriangles.svg	stimuli_distractor_trianglediamonds.svg	38	no	57	0	97	6	4	antiphase_hc_sio.wav	1	6	2	noise_calib_stim_LEFT.wav	1	24	blb_dichoticlistening_ka-ta.mp3	ka	ta	1	left
6.6.1	win	2023-06-27	16:49:54	17:23:26	2006768	63e51c373af1cc5baf0c727f	1	1	main_slash	24	main_slash	151	stimuli_distractor_trianglediamonds.svg	stimuli_target_trianglerectangles.svg	25	yes	53	1	632	6	4	antiphase_hc_sio.wav	1	6	2	noise_calib_stim_LEFT.wav	1	24	blb_dichoticlistening_ka-ta.mp3	ka	ta	1	left
6.6.1	win	2023-06-27	16:49:54	17:23:26	2006768	63e51c373af1cc5baf0c727f	1	1	main_slash	24	advance_on_keypress_SLASH	152	stimuli_distractor_trianglediamonds.svg	stimuli_target_trianglerectangles.svg	25	yes	57	0	463	6	4	antiphase_hc_sio.wav	1	6	2	noise_calib_stim_LEFT.wav	1	24	blb_dichoticlistening_ka-ta.mp3	ka	ta	1	left
6.6.1	win	2023-06-27	16:49:54	17:23:27	2008495	63e51c373af1cc5baf0c727f	1	1	main_slash	24	main_slash	153	stimuli_target_rectanglediamonds.svg	stimuli_distractor_trianglediamonds.svg	2	yes	53	1	627	6	4	antiphase_hc_sio.wav	1	6	2	noise_calib_stim_LEFT.wav	1	24	blb_dichoticlistening_ka-ta.mp3	ka	ta	1	left
6.6.1	win	2023-06-27	16:49:54	17:23:27	2008495	63e51c373af1cc5baf0c727f	1	1	main_slash	24	advance_on_keypress_SLASH	154	stimuli_target_rectanglediamonds.svg	stimuli_distractor_trianglediamonds.svg	2	yes	57	0	345	6	4	antiphase_hc_sio.wav	1	6	2	noise_calib_stim_LEFT.wav	1	24	blb_dichoticlistening_ka-ta.mp3	ka	ta	1	left
6.6.1	win	2023-06-27	16:49:54	17:23:29	2010147	63e51c373af1cc5baf0c727f	1	1	main_slash	24	main_slash	155	stimuli_distractor_trianglediamonds.svg	stimuli_target_diamondrectangles.svg	27	yes	53	1	663	6	4	antiphase_hc_sio.wav	1	6	2	noise_calib_stim_LEFT.wav	1	24	blb_dichoticlistening_ka-ta.mp3	ka	ta	1	left
6.6.1	win	2023-06-27	16:49:54	17:23:29	2010147	63e51c373af1cc5baf0c727f	1	1	main_slash	24	advance_on_keypress_SLASH	156	stimuli_distractor_trianglediamonds.svg	stimuli_target_diamondrectangles.svg	27	yes	57	0	335	6	4	antiphase_hc_sio.wav	1	6	2	noise_calib_stim_LEFT.wav	1	24	blb_dichoticlistening_ka-ta.mp3	ka	ta	1	left
6.6.1	win	2023-06-27	16:49:54	17:23:31	2011774	63e51c373af1cc5baf0c727f	1	1	main_slash	24	main_slash	157	stimuli_target_diamondrectangles.svg	stimuli_distractor_diamondtriangles.svg	23	yes	53	1	657	6	4	antiphase_hc_sio.wav	1	6	2	noise_calib_stim_LEFT.wav	1	24	blb_dichoticlistening_ka-ta.mp3	ka	ta	1	left
6.6.1	win	2023-06-27	16:49:54	17:23:31	2011774	63e51c373af1cc5baf0c727f	1	1	main_slash	24	advance_on_keypress_SLASH	158	stimuli_target_diamondrectangles.svg	stimuli_distractor_diamondtriangles.svg	23	yes	57	0	610	6	4	antiphase_hc_sio.wav	1	6	2	noise_calib_stim_LEFT.wav	1	24	blb_dichoticlistening_ka-ta.mp3	ka	ta	1	left
6.6.1	win	2023-06-27	16:49:54	17:23:32	2013505	63e51c373af1cc5baf0c727f	1	1	main_slash	24	main_slash	159	stimuli_target_squarediamonds.svg	stimuli_distractor_diamondtriangles.svg	8	yes	53	1	487	6	4	antiphase_hc_sio.wav	1	6	2	noise_calib_stim_LEFT.wav	1	24	blb_dichoticlistening_ka-ta.mp3	ka	ta	1	left
6.6.1	win	2023-06-27	16:49:54	17:23:32	2013505	63e51c373af1cc5baf0c727f	1	1	main_slash	24	advance_on_keypress_SLASH	160	stimuli_target_squarediamonds.svg	stimuli_distractor_diamondtriangles.svg	8	yes	57	0	350	6	4	antiphase_hc_sio.wav	1	6	2	noise_calib_stim_LEFT.wav	1	24	blb_dichoticlistening_ka-ta.mp3	ka	ta	1	left
6.6.1	win	2023-06-27	16:49:54	17:23:51	2031875	63e51c373af1cc5baf0c727f	1	1	practice_z	26	practice_z	1	stimuli_distractor_trianglediamonds.svg	stimuli_target_rectanglediamonds.svg	10	yes	44	1	360	6	4	antiphase_hc_sio.wav	1	6	2	noise_calib_stim_LEFT.wav	1	24	blb_dichoticlistening_ka-ta.mp3	ka	ta	1	left
6.6.1	win	2023-06-27	16:49:54	17:23:51	2031875	63e51c373af1cc5baf0c727f	1	1	practice_z	26	advance_on_keypress_ZEE	2	stimuli_distractor_trianglediamonds.svg	stimuli_target_rectanglediamonds.svg	10	yes	57	0	472	6	4	antiphase_hc_sio.wav	1	6	2	noise_calib_stim_LEFT.wav	1	24	blb_dichoticlistening_ka-ta.mp3	ka	ta	1	left
6.6.1	win	2023-06-27	16:49:54	17:23:54	2034642	63e51c373af1cc5baf0c727f	1	1	practice_z	26	practice_z	3	stimuli_target_squarediamonds.svg	stimuli_distractor_trianglediamonds.svg	5	yes	44	1	652	6	4	antiphase_hc_sio.wav	1	6	2	noise_calib_stim_LEFT.wav	1	24	blb_dichoticlistening_ka-ta.mp3	ka	ta	1	left
6.6.1	win	2023-06-27	16:49:54	17:23:54	2034642	63e51c373af1cc5baf0c727f	1	1	practice_z	26	advance_on_keypress_ZEE	4	stimuli_target_squarediamonds.svg	stimuli_distractor_trianglediamonds.svg	5	yes	57	0	386	6	4	antiphase_hc_sio.wav	1	6	2	noise_calib_stim_LEFT.wav	1	24	blb_dichoticlistening_ka-ta.mp3	ka	ta	1	left
6.6.1	win	2023-06-27	16:49:54	17:23:56	2037411	63e51c373af1cc5baf0c727f	1	1	practice_z	26	practice_z	5	stimuli_distractor_diamondtriangles.svg	stimuli_target_diamondrectangles.svg	8	yes	44	1	733	6	4	antiphase_hc_sio.wav	1	6	2	noise_calib_stim_LEFT.wav	1	24	blb_dichoticlistening_ka-ta.mp3	ka	ta	1	left
6.6.1	win	2023-06-27	16:49:54	17:23:56	2037411	63e51c373af1cc5baf0c727f	1	1	practice_z	26	advance_on_keypress_ZEE	6	stimuli_distractor_diamondtriangles.svg	stimuli_target_diamondrectangles.svg	8	yes	57	0	411	6	4	antiphase_hc_sio.wav	1	6	2	noise_calib_stim_LEFT.wav	1	24	blb_dichoticlistening_ka-ta.mp3	ka	ta	1	left
6.6.1	win	2023-06-27	16:49:54	17:23:59	2040129	63e51c373af1cc5baf0c727f	1	1	practice_z	26	practice_z	7	stimuli_target_diamondsquares.svg	stimuli_distractor_trianglediamonds.svg	6	yes	44	1	662	6	4	antiphase_hc_sio.wav	1	6	2	noise_calib_stim_LEFT.wav	1	24	blb_dichoticlistening_ka-ta.mp3	ka	ta	1	left
6.6.1	win	2023-06-27	16:49:54	17:23:59	2040129	63e51c373af1cc5baf0c727f	1	1	practice_z	26	advance_on_keypress_ZEE	8	stimuli_target_diamondsquares.svg	stimuli_distractor_trianglediamonds.svg	6	yes	57	0	407	6	4	antiphase_hc_sio.wav	1	6	2	noise_calib_stim_LEFT.wav	1	24	blb_dichoticlistening_ka-ta.mp3	ka	ta	1	left
6.6.1	win	2023-06-27	16:49:54	17:24:02	2042877	63e51c373af1cc5baf0c727f	1	1	practice_z	26	practice_z	9	stimuli_target_rectanglediamonds.svg	stimuli_distractor_diamondtriangles.svg	1	yes	44	1	702	6	4	antiphase_hc_sio.wav	1	6	2	noise_calib_stim_LEFT.wav	1	24	blb_dichoticlistening_ka-ta.mp3	ka	ta	1	left
6.6.1	win	2023-06-27	16:49:54	17:24:02	2042877	63e51c373af1cc5baf0c727f	1	1	practice_z	26	advance_on_keypress_ZEE	10	stimuli_target_rectanglediamonds.svg	stimuli_distractor_diamondtriangles.svg	1	yes	57	0	260	6	4	antiphase_hc_sio.wav	1	6	2	noise_calib_stim_LEFT.wav	1	24	blb_dichoticlistening_ka-ta.mp3	ka	ta	1	left
6.6.1	win	2023-06-27	16:49:54	17:24:06	2046781	63e51c373af1cc5baf0c727f	1	1	practice_z	26	practice_z	11	stimuli_distractor_trianglediamonds.svg	stimuli_distractor_diamondtriangles.svg	16	no	0	1	2000	6	4	antiphase_hc_sio.wav	1	6	2	noise_calib_stim_LEFT.wav	1	24	blb_dichoticlistening_ka-ta.mp3	ka	ta	1	left
6.6.1	win	2023-06-27	16:49:54	17:24:06	2046781	63e51c373af1cc5baf0c727f	1	1	practice_z	26	advance_on_keypress_ZEE	12	stimuli_distractor_trianglediamonds.svg	stimuli_distractor_diamondtriangles.svg	16	no	57	0	362	6	4	antiphase_hc_sio.wav	1	6	2	noise_calib_stim_LEFT.wav	1	24	blb_dichoticlistening_ka-ta.mp3	ka	ta	1	left
6.6.1	win	2023-06-27	16:49:54	17:24:10	2050801	63e51c373af1cc5baf0c727f	1	1	practice_z	26	practice_z	13	stimuli_distractor_trianglediamonds.svg	stimuli_distractor_trianglediamonds.svg	15	no	0	1	2000	6	4	antiphase_hc_sio.wav	1	6	2	noise_calib_stim_LEFT.wav	1	24	blb_dichoticlistening_ka-ta.mp3	ka	ta	1	left
6.6.1	win	2023-06-27	16:49:54	17:24:10	2050801	63e51c373af1cc5baf0c727f	1	1	practice_z	26	advance_on_keypress_ZEE	14	stimuli_distractor_trianglediamonds.svg	stimuli_distractor_trianglediamonds.svg	15	no	57	0	265	6	4	antiphase_hc_sio.wav	1	6	2	noise_calib_stim_LEFT.wav	1	24	blb_dichoticlistening_ka-ta.mp3	ka	ta	1	left
6.6.1	win	2023-06-27	16:49:54	17:24:14	2054715	63e51c373af1cc5baf0c727f	1	1	practice_z	26	practice_z	15	stimuli_distractor_diamondtriangles.svg	stimuli_distractor_trianglediamonds.svg	14	no	0	1	2000	6	4	antiphase_hc_sio.wav	1	6	2	noise_calib_stim_LEFT.wav	1	24	blb_dichoticlistening_ka-ta.mp3	ka	ta	1	left
