build	computer.platform	date	time	timestamp	time_elapsed_ms	subject	group	session	blockcode	blocknum	trialcode	trialnum	stimulus_left	stimulus_right	stim_index	target_present	response	correct	latency	headphonecheck_countTestTrials	headphonecheck_index	headphonecheck_testSound	headphonecheck_correctResponse	stereocheck_countTestTrials	stereocheck_index	stereocheck_testSound	stereocheck_correctResponse	DL_index	DL_soundfile	DL_leftSound	DL_rightSound	DL_dualSound	DL_choice
6.6.1	mac	2023-06-02	05:31:00	0	0	60130d613d3ca613b04d39bb	1	1	headphonecheck_calibration	4	headphonecheck_calibrationIntro	1			0		calibrationButton	0	4100	0	0			0	0			1				0	
6.6.1	mac	2023-06-02	05:31:00	0	0	60130d613d3ca613b04d39bb	1	1	headphonecheck_testphase	5	test_collectResponse	3			0		second	1	1366	1	5	antiphase_hc_osi.wav	2	0	0			1				0	
6.6.1	mac	2023-06-02	05:31:00	0	0	60130d613d3ca613b04d39bb	1	1	headphonecheck_testphase	5	test_collectResponse	6			0		first	1	1316	2	3	antiphase_hc_soi.wav	1	0	0			1				0	
6.6.1	mac	2023-06-02	05:31:00	0	0	60130d613d3ca613b04d39bb	1	1	headphonecheck_testphase	5	test_collectResponse	9			0		first	1	1067	3	4	antiphase_hc_sio.wav	1	0	0			1				0	
6.6.1	mac	2023-06-02	05:31:00	0	0	60130d613d3ca613b04d39bb	1	1	headphonecheck_testphase	5	test_collectResponse	12			0		third	1	882	4	2	antiphase_hc_ios.wav	3	0	0			1				0	
6.6.1	mac	2023-06-02	05:31:00	0	0	60130d613d3ca613b04d39bb	1	1	headphonecheck_testphase	5	test_collectResponse	15			0		third	1	983	5	6	antiphase_hc_ois.wav	3	0	0			1				0	
6.6.1	mac	2023-06-02	05:31:00	0	0	60130d613d3ca613b04d39bb	1	1	headphonecheck_testphase	5	test_collectResponse	18			0		second	1	916	6	1	antiphase_hc_iso.wav	2	0	0			1				0	
6.6.1	mac	2023-06-02	05:31:00	0	0	60130d613d3ca613b04d39bb	1	1	stereocheck_calibration	7	stereocheck_calibrationIntro	1			0		stereocheck_calibrationButton	0	4554	6	1	antiphase_hc_iso.wav	2	0	0			1				0	
6.6.1	mac	2023-06-02	05:31:00	0	0	60130d613d3ca613b04d39bb	1	1	stereocheck_testphase	8	stereocheck_test_collectResponse	3			0		stereocheck_right	1	1218	6	1	antiphase_hc_iso.wav	2	1	6	noise_calib_stim_RIGHT.wav	2	1				0	
6.6.1	mac	2023-06-02	05:31:00	0	0	60130d613d3ca613b04d39bb	1	1	stereocheck_testphase	8	stereocheck_test_collectResponse	6			0		stereocheck_right	1	1067	6	1	antiphase_hc_iso.wav	2	2	4	noise_calib_stim_RIGHT.wav	2	1				0	
6.6.1	mac	2023-06-02	05:31:00	0	0	60130d613d3ca613b04d39bb	1	1	stereocheck_testphase	8	stereocheck_test_collectResponse	9			0		stereocheck_left	1	984	6	1	antiphase_hc_iso.wav	2	3	1	noise_calib_stim_LEFT.wav	1	1				0	
6.6.1	mac	2023-06-02	05:31:00	0	0	60130d613d3ca613b04d39bb	1	1	stereocheck_testphase	8	stereocheck_test_collectResponse	12			0		stereocheck_left	1	817	6	1	antiphase_hc_iso.wav	2	4	3	noise_calib_stim_LEFT.wav	1	1				0	
6.6.1	mac	2023-06-02	05:31:00	0	0	60130d613d3ca613b04d39bb	1	1	stereocheck_testphase	8	stereocheck_test_collectResponse	15			0		stereocheck_right	1	485	6	1	antiphase_hc_iso.wav	2	5	5	noise_calib_stim_RIGHT.wav	2	1				0	
6.6.1	mac	2023-06-02	05:31:00	0	0	60130d613d3ca613b04d39bb	1	1	stereocheck_testphase	8	stereocheck_test_collectResponse	18			0		stereocheck_left	1	501	6	1	antiphase_hc_iso.wav	2	6	2	noise_calib_stim_LEFT.wav	1	1				0	
6.6.1	mac	2023-06-02	05:31:00	0	0	60130d613d3ca613b04d39bb	1	1	DL_practice	11	DL_practice	2			0		da	1	2549	6	1	antiphase_hc_iso.wav	2	6	2	noise_calib_stim_LEFT.wav	1	8	blb_dichoticlistening_da-da.mp3	da	da	0	left
6.6.1	mac	2023-06-02	05:31:00	0	0	60130d613d3ca613b04d39bb	1	1	DL_practice	11	DL_practice	3			0		ba	1	1820	6	1	antiphase_hc_iso.wav	2	6	2	noise_calib_stim_LEFT.wav	1	1	blb_dichoticlistening_ba-ba.mp3	ba	ba	0	left
6.6.1	mac	2023-06-02	05:31:00	0	0	60130d613d3ca613b04d39bb	1	1	DL_practice	11	DL_practice	4			0		ga	1	1437	6	1	antiphase_hc_iso.wav	2	6	2	noise_calib_stim_LEFT.wav	1	15	blb_dichoticlistening_ga-ga.mp3	ga	ga	0	left
6.6.1	mac	2023-06-02	05:31:00	0	0	60130d613d3ca613b04d39bb	1	1	DL_practice	11	DL_practice	5			0		ta	1	1953	6	1	antiphase_hc_iso.wav	2	6	2	noise_calib_stim_LEFT.wav	1	36	blb_dichoticlistening_ta-ta.mp3	ta	ta	0	left
6.6.1	mac	2023-06-02	05:31:00	0	0	60130d613d3ca613b04d39bb	1	1	DL_practice	11	DL_practice	6			0		pa	1	1620	6	1	antiphase_hc_iso.wav	2	6	2	noise_calib_stim_LEFT.wav	1	23	blb_dichoticlistening_ka-pa.mp3	ka	pa	1	right
6.6.1	mac	2023-06-02	05:31:00	0	0	60130d613d3ca613b04d39bb	1	1	DL_practice	11	DL_practice	7			0		pa	1	1470	6	1	antiphase_hc_iso.wav	2	6	2	noise_calib_stim_LEFT.wav	1	29	blb_dichoticlistening_pa-pa.mp3	pa	pa	0	left
6.6.1	mac	2023-06-02	05:31:00	0	0	60130d613d3ca613b04d39bb	1	1	DL_practice	11	DL_practice	8			0		ka	1	1987	6	1	antiphase_hc_iso.wav	2	6	2	noise_calib_stim_LEFT.wav	1	22	blb_dichoticlistening_ka-ka.mp3	ka	ka	0	left
6.6.1	mac	2023-06-02	05:31:00	0	0	60130d613d3ca613b04d39bb	1	1	DL_practice	11	DL_practice	9			0		ga	1	2004	6	1	antiphase_hc_iso.wav	2	6	2	noise_calib_stim_LEFT.wav	1	18	blb_dichoticlistening_ga-ta.mp3	ga	ta	1	left
6.6.1	mac	2023-06-02	05:31:00	0	0	60130d613d3ca613b04d39bb	1	1	DL_practice	11	DL_practice	10			0		da	1	1620	6	1	antiphase_hc_iso.wav	2	6	2	noise_calib_stim_LEFT.wav	1	7	blb_dichoticlistening_da-ba.mp3	da	ba	1	left
6.6.1	mac	2023-06-02	05:31:00	0	0	60130d613d3ca613b04d39bb	1	1	DL_test	13	DL_test	1			0		pa	1	2120	6	1	antiphase_hc_iso.wav	2	6	2	noise_calib_stim_LEFT.wav	1	23	blb_dichoticlistening_ka-pa.mp3	ka	pa	1	right
6.6.1	mac	2023-06-02	05:31:00	0	0	60130d613d3ca613b04d39bb	1	1	DL_test	13	DL_test	2			0		ka	1	1420	6	1	antiphase_hc_iso.wav	2	6	2	noise_calib_stim_LEFT.wav	1	34	blb_dichoticlistening_ta-ka.mp3	ta	ka	1	right
6.6.1	mac	2023-06-02	05:31:00	0	0	60130d613d3ca613b04d39bb	1	1	DL_test	13	DL_test	3			0		ga	1	1371	6	1	antiphase_hc_iso.wav	2	6	2	noise_calib_stim_LEFT.wav	1	15	blb_dichoticlistening_ga-ga.mp3	ga	ga	0	left
6.6.1	mac	2023-06-02	05:31:00	0	0	60130d613d3ca613b04d39bb	1	1	DL_test	13	DL_test	4			0		ga	1	1671	6	1	antiphase_hc_iso.wav	2	6	2	noise_calib_stim_LEFT.wav	1	33	blb_dichoticlistening_ta-ga.mp3	ta	ga	1	right
6.6.1	mac	2023-06-02	05:31:00	0	0	60130d613d3ca613b04d39bb	1	1	DL_test	13	DL_test	5			0		da	1	1521	6	1	antiphase_hc_iso.wav	2	6	2	noise_calib_stim_LEFT.wav	1	8	blb_dichoticlistening_da-da.mp3	da	da	0	left
6.6.1	mac	2023-06-02	05:31:00	0	0	60130d613d3ca613b04d39bb	1	1	DL_test	13	DL_test	6			0		da	1	1554	6	1	antiphase_hc_iso.wav	2	6	2	noise_calib_stim_LEFT.wav	1	7	blb_dichoticlistening_da-ba.mp3	da	ba	1	left
6.6.1	mac	2023-06-02	05:31:00	0	0	60130d613d3ca613b04d39bb	1	1	DL_test	13	DL_test	7			0		pa	1	2137	6	1	antiphase_hc_iso.wav	2	6	2	noise_calib_stim_LEFT.wav	1	25	blb_dichoticlistening_pa-ba.mp3	pa	ba	1	left
6.6.1	mac	2023-06-02	05:31:00	0	0	60130d613d3ca613b04d39bb	1	1	DL_test	13	DL_test	8			0		ka	1	1937	6	1	antiphase_hc_iso.wav	2	6	2	noise_calib_stim_LEFT.wav	1	4	blb_dichoticlistening_ba-ka.mp3	ba	ka	1	right
6.6.1	mac	2023-06-02	05:31:00	0	0	60130d613d3ca613b04d39bb	1	1	DL_test	13	DL_test	9			0		ka	1	1755	6	1	antiphase_hc_iso.wav	2	6	2	noise_calib_stim_LEFT.wav	1	24	blb_dichoticlistening_ka-ta.mp3	ka	ta	1	left
6.6.1	mac	2023-06-02	05:31:00	0	0	60130d613d3ca613b04d39bb	1	1	DL_test	13	DL_test	10			0		ka	1	1537	6	1	antiphase_hc_iso.wav	2	6	2	noise_calib_stim_LEFT.wav	1	22	blb_dichoticlistening_ka-ka.mp3	ka	ka	0	left
6.6.1	mac	2023-06-02	05:31:00	0	0	60130d613d3ca613b04d39bb	1	1	DL_test	13	DL_test	11			0		pa	0	2254	6	1	antiphase_hc_iso.wav	2	6	2	noise_calib_stim_LEFT.wav	1	10	blb_dichoticlistening_da-ka.mp3	da	ka	1	other
6.6.1	mac	2023-06-02	05:31:00	0	0	60130d613d3ca613b04d39bb	1	1	DL_test	13	DL_test	12			0		ga	1	1854	6	1	antiphase_hc_iso.wav	2	6	2	noise_calib_stim_LEFT.wav	1	3	blb_dichoticlistening_ba-ga.mp3	ba	ga	1	right
6.6.1	mac	2023-06-02	05:31:00	0	0	60130d613d3ca613b04d39bb	1	1	DL_test	13	DL_test	13			0		ga	1	2204	6	1	antiphase_hc_iso.wav	2	6	2	noise_calib_stim_LEFT.wav	1	18	blb_dichoticlistening_ga-ta.mp3	ga	ta	1	left
6.6.1	mac	2023-06-02	05:31:00	0	0	60130d613d3ca613b04d39bb	1	1	DL_test	13	DL_test	14			0		da	1	1621	6	1	antiphase_hc_iso.wav	2	6	2	noise_calib_stim_LEFT.wav	1	2	blb_dichoticlistening_ba-da.mp3	ba	da	1	right
6.6.1	mac	2023-06-02	05:31:00	0	0	60130d613d3ca613b04d39bb	1	1	DL_test	13	DL_test	15			0		pa	1	1871	6	1	antiphase_hc_iso.wav	2	6	2	noise_calib_stim_LEFT.wav	1	11	blb_dichoticlistening_da-pa.mp3	da	pa	1	right
6.6.1	mac	2023-06-02	05:31:00	0	0	60130d613d3ca613b04d39bb	1	1	DL_test	13	DL_test	16			0		pa	1	1604	6	1	antiphase_hc_iso.wav	2	6	2	noise_calib_stim_LEFT.wav	1	17	blb_dichoticlistening_ga-pa.mp3	ga	pa	1	right
6.6.1	mac	2023-06-02	05:31:00	0	0	60130d613d3ca613b04d39bb	1	1	DL_test	13	DL_test	17			0		ka	1	1487	6	1	antiphase_hc_iso.wav	2	6	2	noise_calib_stim_LEFT.wav	1	28	blb_dichoticlistening_pa-ka.mp3	pa	ka	1	right
6.6.1	mac	2023-06-02	05:31:00	0	0	60130d613d3ca613b04d39bb	1	1	DL_test	13	DL_test	18			0		pa	1	1439	6	1	antiphase_hc_iso.wav	2	6	2	noise_calib_stim_LEFT.wav	1	5	blb_dichoticlistening_ba-pa.mp3	ba	pa	1	right
6.6.1	mac	2023-06-02	05:31:00	0	0	60130d613d3ca613b04d39bb	1	1	DL_test	13	DL_test	19			0		da	0	1754	6	1	antiphase_hc_iso.wav	2	6	2	noise_calib_stim_LEFT.wav	1	13	blb_dichoticlistening_ga-ba.mp3	ga	ba	1	other
6.6.1	mac	2023-06-02	05:31:00	0	0	60130d613d3ca613b04d39bb	1	1	DL_test	13	DL_test	20			0		ba	1	1888	6	1	antiphase_hc_iso.wav	2	6	2	noise_calib_stim_LEFT.wav	1	1	blb_dichoticlistening_ba-ba.mp3	ba	ba	0	left
6.6.1	mac	2023-06-02	05:31:00	0	0	60130d613d3ca613b04d39bb	1	1	DL_test	13	DL_test	21			0		ka	1	1638	6	1	antiphase_hc_iso.wav	2	6	2	noise_calib_stim_LEFT.wav	1	16	blb_dichoticlistening_ga-ka.mp3	ga	ka	1	right
6.6.1	mac	2023-06-02	05:31:00	0	0	60130d613d3ca613b04d39bb	1	1	DL_test	13	DL_test	22			0		ta	1	1471	6	1	antiphase_hc_iso.wav	2	6	2	noise_calib_stim_LEFT.wav	1	36	blb_dichoticlistening_ta-ta.mp3	ta	ta	0	left
6.6.1	mac	2023-06-02	05:31:00	0	0	60130d613d3ca613b04d39bb	1	1	DL_test	13	DL_test	23			0		ka	0	3288	6	1	antiphase_hc_iso.wav	2	6	2	noise_calib_stim_LEFT.wav	1	26	blb_dichoticlistening_pa-da.mp3	pa	da	1	other
6.6.1	mac	2023-06-02	05:31:00	0	0	60130d613d3ca613b04d39bb	1	1	DL_test	13	DL_test	24			0		da	1	2055	6	1	antiphase_hc_iso.wav	2	6	2	noise_calib_stim_LEFT.wav	1	9	blb_dichoticlistening_da-ga.mp3	da	ga	1	left
6.6.1	mac	2023-06-02	05:31:00	0	0	60130d613d3ca613b04d39bb	1	1	DL_test	13	DL_test	25			0		pa	1	2255	6	1	antiphase_hc_iso.wav	2	6	2	noise_calib_stim_LEFT.wav	1	29	blb_dichoticlistening_pa-pa.mp3	pa	pa	0	left
6.6.1	mac	2023-06-02	05:31:00	0	0	60130d613d3ca613b04d39bb	1	1	DL_test	13	DL_test	26			0		ka	0	2105	6	1	antiphase_hc_iso.wav	2	6	2	noise_calib_stim_LEFT.wav	1	6	blb_dichoticlistening_ba-ta.mp3	ba	ta	1	other
6.6.1	mac	2023-06-02	05:31:00	0	0	60130d613d3ca613b04d39bb	1	1	DL_test	13	DL_test	27			0		ta	1	1671	6	1	antiphase_hc_iso.wav	2	6	2	noise_calib_stim_LEFT.wav	1	12	blb_dichoticlistening_da-ta.mp3	da	ta	1	right
6.6.1	mac	2023-06-02	05:31:00	0	0	60130d613d3ca613b04d39bb	1	1	DL_test	13	DL_test	28			0		pa	1	2305	6	1	antiphase_hc_iso.wav	2	6	2	noise_calib_stim_LEFT.wav	1	35	blb_dichoticlistening_ta-pa.mp3	ta	pa	1	right
6.6.1	mac	2023-06-02	05:31:00	0	0	60130d613d3ca613b04d39bb	1	1	DL_test	13	DL_test	29			0		ka	1	1738	6	1	antiphase_hc_iso.wav	2	6	2	noise_calib_stim_LEFT.wav	1	20	blb_dichoticlistening_ka-da.mp3	ka	da	1	left
6.6.1	mac	2023-06-02	05:31:00	0	0	60130d613d3ca613b04d39bb	1	1	DL_test	13	DL_test	30			0		ta	1	1705	6	1	antiphase_hc_iso.wav	2	6	2	noise_calib_stim_LEFT.wav	1	30	blb_dichoticlistening_pa-ta.mp3	pa	ta	1	right
6.6.1	mac	2023-06-02	05:31:00	0	0	60130d613d3ca613b04d39bb	1	1	DL_test	13	DL_test	31			0		ta	1	2188	6	1	antiphase_hc_iso.wav	2	6	2	noise_calib_stim_LEFT.wav	1	32	blb_dichoticlistening_ta-da.mp3	ta	da	1	left
6.6.1	mac	2023-06-02	05:31:00	0	0	60130d613d3ca613b04d39bb	1	1	DL_test	13	DL_test	32			0		ka	1	1638	6	1	antiphase_hc_iso.wav	2	6	2	noise_calib_stim_LEFT.wav	1	19	blb_dichoticlistening_ka-ba.mp3	ka	ba	1	left
6.6.1	mac	2023-06-02	05:31:00	0	0	60130d613d3ca613b04d39bb	1	1	DL_test	13	DL_test	33			0		da	1	1555	6	1	antiphase_hc_iso.wav	2	6	2	noise_calib_stim_LEFT.wav	1	14	blb_dichoticlistening_ga-da.mp3	ga	da	1	right
6.6.1	mac	2023-06-02	05:31:00	0	0	60130d613d3ca613b04d39bb	1	1	DL_test	13	DL_test	34			0		ka	0	2371	6	1	antiphase_hc_iso.wav	2	6	2	noise_calib_stim_LEFT.wav	1	31	blb_dichoticlistening_ta-ba.mp3	ta	ba	1	other
6.6.1	mac	2023-06-02	05:31:00	0	0	60130d613d3ca613b04d39bb	1	1	DL_test	13	DL_test	35			0		ka	1	1705	6	1	antiphase_hc_iso.wav	2	6	2	noise_calib_stim_LEFT.wav	1	21	blb_dichoticlistening_ka-ga.mp3	ka	ga	1	left
6.6.1	mac	2023-06-02	05:31:00	0	0	60130d613d3ca613b04d39bb	1	1	DL_test	13	DL_test	36			0		pa	1	1988	6	1	antiphase_hc_iso.wav	2	6	2	noise_calib_stim_LEFT.wav	1	27	blb_dichoticlistening_pa-ga.mp3	pa	ga	1	left
6.6.1	mac	2023-06-02	05:31:00	0	0	60130d613d3ca613b04d39bb	1	1	DL_test	14	DL_test	1			0		ka	1	1355	6	1	antiphase_hc_iso.wav	2	6	2	noise_calib_stim_LEFT.wav	1	24	blb_dichoticlistening_ka-ta.mp3	ka	ta	1	left
6.6.1	mac	2023-06-02	05:31:00	0	0	60130d613d3ca613b04d39bb	1	1	DL_test	14	DL_test	2			0		ta	1	1371	6	1	antiphase_hc_iso.wav	2	6	2	noise_calib_stim_LEFT.wav	1	12	blb_dichoticlistening_da-ta.mp3	da	ta	1	right
6.6.1	mac	2023-06-02	05:31:00	0	0	60130d613d3ca613b04d39bb	1	1	DL_test	14	DL_test	3			0		ta	1	1388	6	1	antiphase_hc_iso.wav	2	6	2	noise_calib_stim_LEFT.wav	1	36	blb_dichoticlistening_ta-ta.mp3	ta	ta	0	left
6.6.1	mac	2023-06-02	05:31:00	0	0	60130d613d3ca613b04d39bb	1	1	DL_test	14	DL_test	4			0		ka	1	1922	6	1	antiphase_hc_iso.wav	2	6	2	noise_calib_stim_LEFT.wav	1	4	blb_dichoticlistening_ba-ka.mp3	ba	ka	1	right
6.6.1	mac	2023-06-02	05:31:00	0	0	60130d613d3ca613b04d39bb	1	1	DL_test	14	DL_test	5			0		ga	1	2738	6	1	antiphase_hc_iso.wav	2	6	2	noise_calib_stim_LEFT.wav	1	21	blb_dichoticlistening_ka-ga.mp3	ka	ga	1	right
6.6.1	mac	2023-06-02	05:31:00	0	0	60130d613d3ca613b04d39bb	1	1	DL_test	14	DL_test	6			0		ka	1	2422	6	1	antiphase_hc_iso.wav	2	6	2	noise_calib_stim_LEFT.wav	1	28	blb_dichoticlistening_pa-ka.mp3	pa	ka	1	right
6.6.1	mac	2023-06-02	05:31:00	0	0	60130d613d3ca613b04d39bb	1	1	DL_test	14	DL_test	7			0		ga	1	1439	6	1	antiphase_hc_iso.wav	2	6	2	noise_calib_stim_LEFT.wav	1	13	blb_dichoticlistening_ga-ba.mp3	ga	ba	1	left
6.6.1	mac	2023-06-02	05:31:00	0	0	60130d613d3ca613b04d39bb	1	1	DL_test	14	DL_test	8			0		ka	1	1355	6	1	antiphase_hc_iso.wav	2	6	2	noise_calib_stim_LEFT.wav	1	16	blb_dichoticlistening_ga-ka.mp3	ga	ka	1	right
6.6.1	mac	2023-06-02	05:31:00	0	0	60130d613d3ca613b04d39bb	1	1	DL_test	14	DL_test	9			0		ta	1	1739	6	1	antiphase_hc_iso.wav	2	6	2	noise_calib_stim_LEFT.wav	1	32	blb_dichoticlistening_ta-da.mp3	ta	da	1	left
6.6.1	mac	2023-06-02	05:31:00	0	0	60130d613d3ca613b04d39bb	1	1	DL_test	14	DL_test	10			0		ka	1	1655	6	1	antiphase_hc_iso.wav	2	6	2	noise_calib_stim_LEFT.wav	1	19	blb_dichoticlistening_ka-ba.mp3	ka	ba	1	left
6.6.1	mac	2023-06-02	05:31:00	0	0	60130d613d3ca613b04d39bb	1	1	DL_test	14	DL_test	11			0		pa	0	1556	6	1	antiphase_hc_iso.wav	2	6	2	noise_calib_stim_LEFT.wav	1	31	blb_dichoticlistening_ta-ba.mp3	ta	ba	1	other
6.6.1	mac	2023-06-02	05:31:00	0	0	60130d613d3ca613b04d39bb	1	1	DL_test	14	DL_test	12			0		ka	0	1339	6	1	antiphase_hc_iso.wav	2	6	2	noise_calib_stim_LEFT.wav	1	33	blb_dichoticlistening_ta-ga.mp3	ta	ga	1	other
6.6.1	mac	2023-06-02	05:31:00	0	0	60130d613d3ca613b04d39bb	1	1	DL_test	14	DL_test	13			0		ta	1	1473	6	1	antiphase_hc_iso.wav	2	6	2	noise_calib_stim_LEFT.wav	1	30	blb_dichoticlistening_pa-ta.mp3	pa	ta	1	right
6.6.1	mac	2023-06-02	05:31:00	0	0	60130d613d3ca613b04d39bb	1	1	DL_test	14	DL_test	14			0		ba	1	2589	6	1	antiphase_hc_iso.wav	2	6	2	noise_calib_stim_LEFT.wav	1	1	blb_dichoticlistening_ba-ba.mp3	ba	ba	0	left
6.6.1	mac	2023-06-02	05:31:00	0	0	60130d613d3ca613b04d39bb	1	1	DL_test	14	DL_test	15			0		ka	1	1521	6	1	antiphase_hc_iso.wav	2	6	2	noise_calib_stim_LEFT.wav	1	22	blb_dichoticlistening_ka-ka.mp3	ka	ka	0	left
6.6.1	mac	2023-06-02	05:31:00	0	0	60130d613d3ca613b04d39bb	1	1	DL_test	14	DL_test	16			0		ga	1	1588	6	1	antiphase_hc_iso.wav	2	6	2	noise_calib_stim_LEFT.wav	1	3	blb_dichoticlistening_ba-ga.mp3	ba	ga	1	right
6.6.1	mac	2023-06-02	05:31:00	0	0	60130d613d3ca613b04d39bb	1	1	DL_test	14	DL_test	17			0		ka	1	1956	6	1	antiphase_hc_iso.wav	2	6	2	noise_calib_stim_LEFT.wav	1	20	blb_dichoticlistening_ka-da.mp3	ka	da	1	left
6.6.1	mac	2023-06-02	05:31:00	0	0	60130d613d3ca613b04d39bb	1	1	DL_test	14	DL_test	18			0		pa	1	2055	6	1	antiphase_hc_iso.wav	2	6	2	noise_calib_stim_LEFT.wav	1	25	blb_dichoticlistening_pa-ba.mp3	pa	ba	1	left
6.6.1	mac	2023-06-02	05:31:00	0	0	60130d613d3ca613b04d39bb	1	1	DL_test	14	DL_test	19			0		da	1	1789	6	1	antiphase_hc_iso.wav	2	6	2	noise_calib_stim_LEFT.wav	1	7	blb_dichoticlistening_da-ba.mp3	da	ba	1	left
6.6.1	mac	2023-06-02	05:31:00	0	0	60130d613d3ca613b04d39bb	1	1	DL_test	14	DL_test	20			0		pa	1	1722	6	1	antiphase_hc_iso.wav	2	6	2	noise_calib_stim_LEFT.wav	1	35	blb_dichoticlistening_ta-pa.mp3	ta	pa	1	right
6.6.1	mac	2023-06-02	05:31:00	0	0	60130d613d3ca613b04d39bb	1	1	DL_test	14	DL_test	21			0		pa	1	1372	6	1	antiphase_hc_iso.wav	2	6	2	noise_calib_stim_LEFT.wav	1	23	blb_dichoticlistening_ka-pa.mp3	ka	pa	1	right
6.6.1	mac	2023-06-02	05:31:00	0	0	60130d613d3ca613b04d39bb	1	1	DL_test	14	DL_test	22			0		da	1	1922	6	1	antiphase_hc_iso.wav	2	6	2	noise_calib_stim_LEFT.wav	1	9	blb_dichoticlistening_da-ga.mp3	da	ga	1	left
6.6.1	mac	2023-06-02	05:31:00	0	0	60130d613d3ca613b04d39bb	1	1	DL_test	14	DL_test	23			0		pa	1	2006	6	1	antiphase_hc_iso.wav	2	6	2	noise_calib_stim_LEFT.wav	1	5	blb_dichoticlistening_ba-pa.mp3	ba	pa	1	right
6.6.1	mac	2023-06-02	05:31:00	0	0	60130d613d3ca613b04d39bb	1	1	DL_test	14	DL_test	24			0		ka	1	1406	6	1	antiphase_hc_iso.wav	2	6	2	noise_calib_stim_LEFT.wav	1	34	blb_dichoticlistening_ta-ka.mp3	ta	ka	1	right
6.6.1	mac	2023-06-02	05:31:00	0	0	60130d613d3ca613b04d39bb	1	1	DL_test	14	DL_test	25			0		pa	0	1456	6	1	antiphase_hc_iso.wav	2	6	2	noise_calib_stim_LEFT.wav	1	10	blb_dichoticlistening_da-ka.mp3	da	ka	1	other
6.6.1	mac	2023-06-02	05:31:00	0	0	60130d613d3ca613b04d39bb	1	1	DL_test	14	DL_test	26			0		ta	0	1939	6	1	antiphase_hc_iso.wav	2	6	2	noise_calib_stim_LEFT.wav	1	26	blb_dichoticlistening_pa-da.mp3	pa	da	1	other
6.6.1	mac	2023-06-02	05:31:00	0	0	60130d613d3ca613b04d39bb	1	1	DL_test	14	DL_test	27			0		pa	1	1556	6	1	antiphase_hc_iso.wav	2	6	2	noise_calib_stim_LEFT.wav	1	29	blb_dichoticlistening_pa-pa.mp3	pa	pa	0	left
6.6.1	mac	2023-06-02	05:31:00	0	0	60130d613d3ca613b04d39bb	1	1	DL_test	14	DL_test	28			0		da	1	1488	6	1	antiphase_hc_iso.wav	2	6	2	noise_calib_stim_LEFT.wav	1	2	blb_dichoticlistening_ba-da.mp3	ba	da	1	right
6.6.1	mac	2023-06-02	05:31:00	0	0	60130d613d3ca613b04d39bb	1	1	DL_test	14	DL_test	29			0		ka	0	1456	6	1	antiphase_hc_iso.wav	2	6	2	noise_calib_stim_LEFT.wav	1	6	blb_dichoticlistening_ba-ta.mp3	ba	ta	1	other
6.6.1	mac	2023-06-02	05:31:00	0	0	60130d613d3ca613b04d39bb	1	1	DL_test	14	DL_test	30			0		ka	0	1523	6	1	antiphase_hc_iso.wav	2	6	2	noise_calib_stim_LEFT.wav	1	18	blb_dichoticlistening_ga-ta.mp3	ga	ta	1	other
6.6.1	mac	2023-06-02	05:31:00	0	0	60130d613d3ca613b04d39bb	1	1	DL_test	14	DL_test	31			0		ga	1	1406	6	1	antiphase_hc_iso.wav	2	6	2	noise_calib_stim_LEFT.wav	1	15	blb_dichoticlistening_ga-ga.mp3	ga	ga	0	left
6.6.1	mac	2023-06-02	05:31:00	0	0	60130d613d3ca613b04d39bb	1	1	DL_test	14	DL_test	32			0		ga	1	1206	6	1	antiphase_hc_iso.wav	2	6	2	noise_calib_stim_LEFT.wav	1	14	blb_dichoticlistening_ga-da.mp3	ga	da	1	left
6.6.1	mac	2023-06-02	05:31:00	0	0	60130d613d3ca613b04d39bb	1	1	DL_test	14	DL_test	33			0		pa	1	1472	6	1	antiphase_hc_iso.wav	2	6	2	noise_calib_stim_LEFT.wav	1	27	blb_dichoticlistening_pa-ga.mp3	pa	ga	1	left
6.6.1	mac	2023-06-02	05:31:00	0	0	60130d613d3ca613b04d39bb	1	1	DL_test	14	DL_test	34			0		pa	1	1657	6	1	antiphase_hc_iso.wav	2	6	2	noise_calib_stim_LEFT.wav	1	17	blb_dichoticlistening_ga-pa.mp3	ga	pa	1	right
6.6.1	mac	2023-06-02	05:31:00	0	0	60130d613d3ca613b04d39bb	1	1	DL_test	14	DL_test	35			0		pa	1	1522	6	1	antiphase_hc_iso.wav	2	6	2	noise_calib_stim_LEFT.wav	1	11	blb_dichoticlistening_da-pa.mp3	da	pa	1	right
6.6.1	mac	2023-06-02	05:31:00	0	0	60130d613d3ca613b04d39bb	1	1	DL_test	14	DL_test	36			0		da	1	1706	6	1	antiphase_hc_iso.wav	2	6	2	noise_calib_stim_LEFT.wav	1	8	blb_dichoticlistening_da-da.mp3	da	da	0	left
6.6.1	mac	2023-06-02	05:31:00	0	0	60130d613d3ca613b04d39bb	1	1	DL_test	15	DL_test	1			0		pa	0	1322	6	1	antiphase_hc_iso.wav	2	6	2	noise_calib_stim_LEFT.wav	1	31	blb_dichoticlistening_ta-ba.mp3	ta	ba	1	other
6.6.1	mac	2023-06-02	05:31:00	0	0	60130d613d3ca613b04d39bb	1	1	DL_test	15	DL_test	2			0		pa	1	1206	6	1	antiphase_hc_iso.wav	2	6	2	noise_calib_stim_LEFT.wav	1	11	blb_dichoticlistening_da-pa.mp3	da	pa	1	right
6.6.1	mac	2023-06-02	05:31:00	0	0	60130d613d3ca613b04d39bb	1	1	DL_test	15	DL_test	3			0		ga	1	1256	6	1	antiphase_hc_iso.wav	2	6	2	noise_calib_stim_LEFT.wav	1	15	blb_dichoticlistening_ga-ga.mp3	ga	ga	0	left
6.6.1	mac	2023-06-02	05:31:00	0	0	60130d613d3ca613b04d39bb	1	1	DL_test	15	DL_test	4			0		pa	1	1223	6	1	antiphase_hc_iso.wav	2	6	2	noise_calib_stim_LEFT.wav	1	17	blb_dichoticlistening_ga-pa.mp3	ga	pa	1	right
6.6.1	mac	2023-06-02	05:31:00	0	0	60130d613d3ca613b04d39bb	1	1	DL_test	15	DL_test	5			0		pa	1	1438	6	1	antiphase_hc_iso.wav	2	6	2	noise_calib_stim_LEFT.wav	1	23	blb_dichoticlistening_ka-pa.mp3	ka	pa	1	right
6.6.1	mac	2023-06-02	05:31:00	0	0	60130d613d3ca613b04d39bb	1	1	DL_test	15	DL_test	6			0		ga	1	1406	6	1	antiphase_hc_iso.wav	2	6	2	noise_calib_stim_LEFT.wav	1	14	blb_dichoticlistening_ga-da.mp3	ga	da	1	left
6.6.1	mac	2023-06-02	05:31:00	0	0	60130d613d3ca613b04d39bb	1	1	DL_test	15	DL_test	7			0		ka	1	2372	6	1	antiphase_hc_iso.wav	2	6	2	noise_calib_stim_LEFT.wav	1	28	blb_dichoticlistening_pa-ka.mp3	pa	ka	1	right
6.6.1	mac	2023-06-02	05:31:00	0	0	60130d613d3ca613b04d39bb	1	1	DL_test	15	DL_test	8			0		ga	1	1390	6	1	antiphase_hc_iso.wav	2	6	2	noise_calib_stim_LEFT.wav	1	3	blb_dichoticlistening_ba-ga.mp3	ba	ga	1	right
6.6.1	mac	2023-06-02	05:31:00	0	0	60130d613d3ca613b04d39bb	1	1	DL_test	15	DL_test	9			0		ka	1	1273	6	1	antiphase_hc_iso.wav	2	6	2	noise_calib_stim_LEFT.wav	1	34	blb_dichoticlistening_ta-ka.mp3	ta	ka	1	right
6.6.1	mac	2023-06-02	05:31:00	0	0	60130d613d3ca613b04d39bb	1	1	DL_test	15	DL_test	10			0		pa	1	1256	6	1	antiphase_hc_iso.wav	2	6	2	noise_calib_stim_LEFT.wav	1	30	blb_dichoticlistening_pa-ta.mp3	pa	ta	1	left
6.6.1	mac	2023-06-02	05:31:00	0	0	60130d613d3ca613b04d39bb	1	1	DL_test	15	DL_test	11			0		ka	1	1406	6	1	antiphase_hc_iso.wav	2	6	2	noise_calib_stim_LEFT.wav	1	19	blb_dichoticlistening_ka-ba.mp3	ka	ba	1	left
6.6.1	mac	2023-06-02	05:31:00	0	0	60130d613d3ca613b04d39bb	1	1	DL_test	15	DL_test	12			0		pa	1	1373	6	1	antiphase_hc_iso.wav	2	6	2	noise_calib_stim_LEFT.wav	1	25	blb_dichoticlistening_pa-ba.mp3	pa	ba	1	left
6.6.1	mac	2023-06-02	05:31:00	0	0	60130d613d3ca613b04d39bb	1	1	DL_test	15	DL_test	13			0		ka	1	1356	6	1	antiphase_hc_iso.wav	2	6	2	noise_calib_stim_LEFT.wav	1	16	blb_dichoticlistening_ga-ka.mp3	ga	ka	1	right
6.6.1	mac	2023-06-02	05:31:00	0	0	60130d613d3ca613b04d39bb	1	1	DL_test	15	DL_test	14			0		ta	1	1622	6	1	antiphase_hc_iso.wav	2	6	2	noise_calib_stim_LEFT.wav	1	6	blb_dichoticlistening_ba-ta.mp3	ba	ta	1	right
6.6.1	mac	2023-06-02	05:31:00	0	0	60130d613d3ca613b04d39bb	1	1	DL_test	15	DL_test	15			0		ta	1	1390	6	1	antiphase_hc_iso.wav	2	6	2	noise_calib_stim_LEFT.wav	1	36	blb_dichoticlistening_ta-ta.mp3	ta	ta	0	left
6.6.1	mac	2023-06-02	05:31:00	0	0	60130d613d3ca613b04d39bb	1	1	DL_test	15	DL_test	16			0		ta	1	1406	6	1	antiphase_hc_iso.wav	2	6	2	noise_calib_stim_LEFT.wav	1	12	blb_dichoticlistening_da-ta.mp3	da	ta	1	right
6.6.1	mac	2023-06-02	05:31:00	0	0	60130d613d3ca613b04d39bb	1	1	DL_test	15	DL_test	17			0		ba	1	2190	6	1	antiphase_hc_iso.wav	2	6	2	noise_calib_stim_LEFT.wav	1	1	blb_dichoticlistening_ba-ba.mp3	ba	ba	0	left
6.6.1	mac	2023-06-02	05:31:00	0	0	60130d613d3ca613b04d39bb	1	1	DL_test	15	DL_test	18			0		da	1	1456	6	1	antiphase_hc_iso.wav	2	6	2	noise_calib_stim_LEFT.wav	1	2	blb_dichoticlistening_ba-da.mp3	ba	da	1	right
6.6.1	mac	2023-06-02	05:31:00	0	0	60130d613d3ca613b04d39bb	1	1	DL_test	15	DL_test	19			0		pa	1	1790	6	1	antiphase_hc_iso.wav	2	6	2	noise_calib_stim_LEFT.wav	1	35	blb_dichoticlistening_ta-pa.mp3	ta	pa	1	right
6.6.1	mac	2023-06-02	05:31:00	0	0	60130d613d3ca613b04d39bb	1	1	DL_test	15	DL_test	20			0		ka	1	1173	6	1	antiphase_hc_iso.wav	2	6	2	noise_calib_stim_LEFT.wav	1	24	blb_dichoticlistening_ka-ta.mp3	ka	ta	1	left
6.6.1	mac	2023-06-02	05:31:00	0	0	60130d613d3ca613b04d39bb	1	1	DL_test	15	DL_test	21			0		pa	1	1690	6	1	antiphase_hc_iso.wav	2	6	2	noise_calib_stim_LEFT.wav	1	5	blb_dichoticlistening_ba-pa.mp3	ba	pa	1	right
6.6.1	mac	2023-06-02	05:31:00	0	0	60130d613d3ca613b04d39bb	1	1	DL_test	15	DL_test	22			0		ka	1	1506	6	1	antiphase_hc_iso.wav	2	6	2	noise_calib_stim_LEFT.wav	1	21	blb_dichoticlistening_ka-ga.mp3	ka	ga	1	left
6.6.1	mac	2023-06-02	05:31:00	0	0	60130d613d3ca613b04d39bb	1	1	DL_test	15	DL_test	23			0		pa	0	1356	6	1	antiphase_hc_iso.wav	2	6	2	noise_calib_stim_LEFT.wav	1	10	blb_dichoticlistening_da-ka.mp3	da	ka	1	other
6.6.1	mac	2023-06-02	05:31:00	0	0	60130d613d3ca613b04d39bb	1	1	DL_test	15	DL_test	24			0		da	1	1790	6	1	antiphase_hc_iso.wav	2	6	2	noise_calib_stim_LEFT.wav	1	7	blb_dichoticlistening_da-ba.mp3	da	ba	1	left
6.6.1	mac	2023-06-02	05:31:00	0	0	60130d613d3ca613b04d39bb	1	1	DL_test	15	DL_test	25			0		ka	1	1473	6	1	antiphase_hc_iso.wav	2	6	2	noise_calib_stim_LEFT.wav	1	4	blb_dichoticlistening_ba-ka.mp3	ba	ka	1	right
6.6.1	mac	2023-06-02	05:31:00	0	0	60130d613d3ca613b04d39bb	1	1	DL_test	15	DL_test	26			0		da	1	1490	6	1	antiphase_hc_iso.wav	2	6	2	noise_calib_stim_LEFT.wav	1	9	blb_dichoticlistening_da-ga.mp3	da	ga	1	left
6.6.1	mac	2023-06-02	05:31:00	0	0	60130d613d3ca613b04d39bb	1	1	DL_test	15	DL_test	27			0		ka	1	1323	6	1	antiphase_hc_iso.wav	2	6	2	noise_calib_stim_LEFT.wav	1	22	blb_dichoticlistening_ka-ka.mp3	ka	ka	0	left
6.6.1	mac	2023-06-02	05:31:00	0	0	60130d613d3ca613b04d39bb	1	1	DL_test	15	DL_test	28			0		ka	1	1073	6	1	antiphase_hc_iso.wav	2	6	2	noise_calib_stim_LEFT.wav	1	20	blb_dichoticlistening_ka-da.mp3	ka	da	1	left
6.6.1	mac	2023-06-02	05:31:00	0	0	60130d613d3ca613b04d39bb	1	1	DL_test	15	DL_test	29			0		ka	0	1789	6	1	antiphase_hc_iso.wav	2	6	2	noise_calib_stim_LEFT.wav	1	18	blb_dichoticlistening_ga-ta.mp3	ga	ta	1	other
6.6.1	mac	2023-06-02	05:31:00	0	0	60130d613d3ca613b04d39bb	1	1	DL_test	15	DL_test	30			0		pa	1	1339	6	1	antiphase_hc_iso.wav	2	6	2	noise_calib_stim_LEFT.wav	1	26	blb_dichoticlistening_pa-da.mp3	pa	da	1	left
6.6.1	mac	2023-06-02	05:31:00	0	0	60130d613d3ca613b04d39bb	1	1	DL_test	15	DL_test	31			0		pa	1	1457	6	1	antiphase_hc_iso.wav	2	6	2	noise_calib_stim_LEFT.wav	1	29	blb_dichoticlistening_pa-pa.mp3	pa	pa	0	left
6.6.1	mac	2023-06-02	05:31:00	0	0	60130d613d3ca613b04d39bb	1	1	DL_test	15	DL_test	32			0		ka	0	1406	6	1	antiphase_hc_iso.wav	2	6	2	noise_calib_stim_LEFT.wav	1	33	blb_dichoticlistening_ta-ga.mp3	ta	ga	1	other
6.6.1	mac	2023-06-02	05:31:00	0	0	60130d613d3ca613b04d39bb	1	1	DL_test	15	DL_test	33			0		da	1	1673	6	1	antiphase_hc_iso.wav	2	6	2	noise_calib_stim_LEFT.wav	1	8	blb_dichoticlistening_da-da.mp3	da	da	0	left
6.6.1	mac	2023-06-02	05:31:00	0	0	60130d613d3ca613b04d39bb	1	1	DL_test	15	DL_test	34			0		ga	1	1389	6	1	antiphase_hc_iso.wav	2	6	2	noise_calib_stim_LEFT.wav	1	13	blb_dichoticlistening_ga-ba.mp3	ga	ba	1	left
6.6.1	mac	2023-06-02	05:31:00	0	0	60130d613d3ca613b04d39bb	1	1	DL_test	15	DL_test	35			0		pa	1	1323	6	1	antiphase_hc_iso.wav	2	6	2	noise_calib_stim_LEFT.wav	1	27	blb_dichoticlistening_pa-ga.mp3	pa	ga	1	left
6.6.1	mac	2023-06-02	05:31:00	0	0	60130d613d3ca613b04d39bb	1	1	DL_test	15	DL_test	36			0		ta	1	1473	6	1	antiphase_hc_iso.wav	2	6	2	noise_calib_stim_LEFT.wav	1	32	blb_dichoticlistening_ta-da.mp3	ta	da	1	left
6.6.1	mac	2023-06-02	05:31:00	0	0	60130d613d3ca613b04d39bb	1	1	DL_test	16	DL_test	1			0		ba	1	1857	6	1	antiphase_hc_iso.wav	2	6	2	noise_calib_stim_LEFT.wav	1	1	blb_dichoticlistening_ba-ba.mp3	ba	ba	0	left
6.6.1	mac	2023-06-02	05:31:00	0	0	60130d613d3ca613b04d39bb	1	1	DL_test	16	DL_test	2			0		pa	1	1690	6	1	antiphase_hc_iso.wav	2	6	2	noise_calib_stim_LEFT.wav	1	17	blb_dichoticlistening_ga-pa.mp3	ga	pa	1	right
6.6.1	mac	2023-06-02	05:31:00	0	0	60130d613d3ca613b04d39bb	1	1	DL_test	16	DL_test	3			0		da	1	1406	6	1	antiphase_hc_iso.wav	2	6	2	noise_calib_stim_LEFT.wav	1	14	blb_dichoticlistening_ga-da.mp3	ga	da	1	right
6.6.1	mac	2023-06-02	05:31:00	0	0	60130d613d3ca613b04d39bb	1	1	DL_test	16	DL_test	4			0		pa	0	1474	6	1	antiphase_hc_iso.wav	2	6	2	noise_calib_stim_LEFT.wav	1	10	blb_dichoticlistening_da-ka.mp3	da	ka	1	other
6.6.1	mac	2023-06-02	05:31:00	0	0	60130d613d3ca613b04d39bb	1	1	DL_test	16	DL_test	5			0		ta	1	1458	6	1	antiphase_hc_iso.wav	2	6	2	noise_calib_stim_LEFT.wav	1	6	blb_dichoticlistening_ba-ta.mp3	ba	ta	1	right
6.6.1	mac	2023-06-02	05:31:00	0	0	60130d613d3ca613b04d39bb	1	1	DL_test	16	DL_test	6			0		pa	1	1840	6	1	antiphase_hc_iso.wav	2	6	2	noise_calib_stim_LEFT.wav	1	26	blb_dichoticlistening_pa-da.mp3	pa	da	1	left
6.6.1	mac	2023-06-02	05:31:00	0	0	60130d613d3ca613b04d39bb	1	1	DL_test	16	DL_test	7			0		ta	1	1890	6	1	antiphase_hc_iso.wav	2	6	2	noise_calib_stim_LEFT.wav	1	36	blb_dichoticlistening_ta-ta.mp3	ta	ta	0	left
6.6.1	mac	2023-06-02	05:31:00	0	0	60130d613d3ca613b04d39bb	1	1	DL_test	16	DL_test	8			0		pa	1	1756	6	1	antiphase_hc_iso.wav	2	6	2	noise_calib_stim_LEFT.wav	1	35	blb_dichoticlistening_ta-pa.mp3	ta	pa	1	right
6.6.1	mac	2023-06-02	05:31:00	0	0	60130d613d3ca613b04d39bb	1	1	DL_test	16	DL_test	9			0		ga	1	1540	6	1	antiphase_hc_iso.wav	2	6	2	noise_calib_stim_LEFT.wav	1	13	blb_dichoticlistening_ga-ba.mp3	ga	ba	1	left
6.6.1	mac	2023-06-02	05:31:00	0	0	60130d613d3ca613b04d39bb	1	1	DL_test	16	DL_test	10			0		pa	1	1373	6	1	antiphase_hc_iso.wav	2	6	2	noise_calib_stim_LEFT.wav	1	11	blb_dichoticlistening_da-pa.mp3	da	pa	1	right
6.6.1	mac	2023-06-02	05:31:00	0	0	60130d613d3ca613b04d39bb	1	1	DL_test	16	DL_test	11			0		ka	1	1323	6	1	antiphase_hc_iso.wav	2	6	2	noise_calib_stim_LEFT.wav	1	20	blb_dichoticlistening_ka-da.mp3	ka	da	1	left
6.6.1	mac	2023-06-02	05:31:00	0	0	60130d613d3ca613b04d39bb	1	1	DL_test	16	DL_test	12			0		ta	1	1490	6	1	antiphase_hc_iso.wav	2	6	2	noise_calib_stim_LEFT.wav	1	30	blb_dichoticlistening_pa-ta.mp3	pa	ta	1	right
6.6.1	mac	2023-06-02	05:31:00	0	0	60130d613d3ca613b04d39bb	1	1	DL_test	16	DL_test	13			0		ka	1	1257	6	1	antiphase_hc_iso.wav	2	6	2	noise_calib_stim_LEFT.wav	1	19	blb_dichoticlistening_ka-ba.mp3	ka	ba	1	left
6.6.1	mac	2023-06-02	05:31:00	0	0	60130d613d3ca613b04d39bb	1	1	DL_test	16	DL_test	14			0		pa	1	1323	6	1	antiphase_hc_iso.wav	2	6	2	noise_calib_stim_LEFT.wav	1	5	blb_dichoticlistening_ba-pa.mp3	ba	pa	1	right
6.6.1	mac	2023-06-02	05:31:00	0	0	60130d613d3ca613b04d39bb	1	1	DL_test	16	DL_test	15			0		ka	1	1190	6	1	antiphase_hc_iso.wav	2	6	2	noise_calib_stim_LEFT.wav	1	34	blb_dichoticlistening_ta-ka.mp3	ta	ka	1	right
6.6.1	mac	2023-06-02	05:31:00	0	0	60130d613d3ca613b04d39bb	1	1	DL_test	16	DL_test	16			0		da	1	1440	6	1	antiphase_hc_iso.wav	2	6	2	noise_calib_stim_LEFT.wav	1	8	blb_dichoticlistening_da-da.mp3	da	da	0	left
6.6.1	mac	2023-06-02	05:31:00	0	0	60130d613d3ca613b04d39bb	1	1	DL_test	16	DL_test	17			0		ka	1	1357	6	1	antiphase_hc_iso.wav	2	6	2	noise_calib_stim_LEFT.wav	1	21	blb_dichoticlistening_ka-ga.mp3	ka	ga	1	left
6.6.1	mac	2023-06-02	05:31:00	0	0	60130d613d3ca613b04d39bb	1	1	DL_test	16	DL_test	18			0		ka	1	1140	6	1	antiphase_hc_iso.wav	2	6	2	noise_calib_stim_LEFT.wav	1	16	blb_dichoticlistening_ga-ka.mp3	ga	ka	1	right
6.6.1	mac	2023-06-02	05:31:00	0	0	60130d613d3ca613b04d39bb	1	1	DL_test	16	DL_test	19			0		da	1	1441	6	1	antiphase_hc_iso.wav	2	6	2	noise_calib_stim_LEFT.wav	1	9	blb_dichoticlistening_da-ga.mp3	da	ga	1	left
6.6.1	mac	2023-06-02	05:31:00	0	0	60130d613d3ca613b04d39bb	1	1	DL_test	16	DL_test	20			0		pa	1	1623	6	1	antiphase_hc_iso.wav	2	6	2	noise_calib_stim_LEFT.wav	1	29	blb_dichoticlistening_pa-pa.mp3	pa	pa	0	left
6.6.1	mac	2023-06-02	05:31:00	0	0	60130d613d3ca613b04d39bb	1	1	DL_test	16	DL_test	21			0		pa	1	1390	6	1	antiphase_hc_iso.wav	2	6	2	noise_calib_stim_LEFT.wav	1	25	blb_dichoticlistening_pa-ba.mp3	pa	ba	1	left
6.6.1	mac	2023-06-02	05:31:00	0	0	60130d613d3ca613b04d39bb	1	1	DL_test	16	DL_test	22			0		ka	1	1290	6	1	antiphase_hc_iso.wav	2	6	2	noise_calib_stim_LEFT.wav	1	24	blb_dichoticlistening_ka-ta.mp3	ka	ta	1	left
6.6.1	mac	2023-06-02	05:31:00	0	0	60130d613d3ca613b04d39bb	1	1	DL_test	16	DL_test	23			0		ta	1	1540	6	1	antiphase_hc_iso.wav	2	6	2	noise_calib_stim_LEFT.wav	1	12	blb_dichoticlistening_da-ta.mp3	da	ta	1	right
6.6.1	mac	2023-06-02	05:31:00	0	0	60130d613d3ca613b04d39bb	1	1	DL_test	16	DL_test	24			0		ka	0	2007	6	1	antiphase_hc_iso.wav	2	6	2	noise_calib_stim_LEFT.wav	1	33	blb_dichoticlistening_ta-ga.mp3	ta	ga	1	other
6.6.1	mac	2023-06-02	05:31:00	0	0	60130d613d3ca613b04d39bb	1	1	DL_test	16	DL_test	25			0		pa	1	1890	6	1	antiphase_hc_iso.wav	2	6	2	noise_calib_stim_LEFT.wav	1	23	blb_dichoticlistening_ka-pa.mp3	ka	pa	1	right
6.6.1	mac	2023-06-02	05:31:00	0	0	60130d613d3ca613b04d39bb	1	1	DL_test	16	DL_test	26			0		da	1	1824	6	1	antiphase_hc_iso.wav	2	6	2	noise_calib_stim_LEFT.wav	1	2	blb_dichoticlistening_ba-da.mp3	ba	da	1	right
6.6.1	mac	2023-06-02	05:31:00	0	0	60130d613d3ca613b04d39bb	1	1	DL_test	16	DL_test	27			0		ka	1	1474	6	1	antiphase_hc_iso.wav	2	6	2	noise_calib_stim_LEFT.wav	1	22	blb_dichoticlistening_ka-ka.mp3	ka	ka	0	left
6.6.1	mac	2023-06-02	05:31:00	0	0	60130d613d3ca613b04d39bb	1	1	DL_test	16	DL_test	28			0		ga	1	1474	6	1	antiphase_hc_iso.wav	2	6	2	noise_calib_stim_LEFT.wav	1	3	blb_dichoticlistening_ba-ga.mp3	ba	ga	1	right
6.6.1	mac	2023-06-02	05:31:00	0	0	60130d613d3ca613b04d39bb	1	1	DL_test	16	DL_test	29			0		ka	1	1657	6	1	antiphase_hc_iso.wav	2	6	2	noise_calib_stim_LEFT.wav	1	4	blb_dichoticlistening_ba-ka.mp3	ba	ka	1	right
6.6.1	mac	2023-06-02	05:31:00	0	0	60130d613d3ca613b04d39bb	1	1	DL_test	16	DL_test	30			0		pa	1	1507	6	1	antiphase_hc_iso.wav	2	6	2	noise_calib_stim_LEFT.wav	1	27	blb_dichoticlistening_pa-ga.mp3	pa	ga	1	left
6.6.1	mac	2023-06-02	05:31:00	0	0	60130d613d3ca613b04d39bb	1	1	DL_test	16	DL_test	31			0		ga	1	1641	6	1	antiphase_hc_iso.wav	2	6	2	noise_calib_stim_LEFT.wav	1	15	blb_dichoticlistening_ga-ga.mp3	ga	ga	0	left
6.6.1	mac	2023-06-02	05:31:00	0	0	60130d613d3ca613b04d39bb	1	1	DL_test	16	DL_test	32			0		pa	0	1557	6	1	antiphase_hc_iso.wav	2	6	2	noise_calib_stim_LEFT.wav	1	31	blb_dichoticlistening_ta-ba.mp3	ta	ba	1	other
6.6.1	mac	2023-06-02	05:31:00	0	0	60130d613d3ca613b04d39bb	1	1	DL_test	16	DL_test	33			0		ta	1	1407	6	1	antiphase_hc_iso.wav	2	6	2	noise_calib_stim_LEFT.wav	1	32	blb_dichoticlistening_ta-da.mp3	ta	da	1	left
6.6.1	mac	2023-06-02	05:31:00	0	0	60130d613d3ca613b04d39bb	1	1	DL_test	16	DL_test	34			0		ka	0	1140	6	1	antiphase_hc_iso.wav	2	6	2	noise_calib_stim_LEFT.wav	1	18	blb_dichoticlistening_ga-ta.mp3	ga	ta	1	other
6.6.1	mac	2023-06-02	05:31:00	0	0	60130d613d3ca613b04d39bb	1	1	DL_test	16	DL_test	35			0		ka	1	1224	6	1	antiphase_hc_iso.wav	2	6	2	noise_calib_stim_LEFT.wav	1	28	blb_dichoticlistening_pa-ka.mp3	pa	ka	1	right
6.6.1	mac	2023-06-02	05:31:00	0	0	60130d613d3ca613b04d39bb	1	1	DL_test	16	DL_test	36			0		da	1	1291	6	1	antiphase_hc_iso.wav	2	6	2	noise_calib_stim_LEFT.wav	1	7	blb_dichoticlistening_da-ba.mp3	da	ba	1	left
6.6.1	mac	2023-06-02	05:31:00	05:42:39	696372	60130d613d3ca613b04d39bb	1	1	practice_slash	22	practice_slash	1	stimuli_target_squarediamonds.svg	stimuli_distractor_trianglediamonds.svg	5	yes	53	1	509	6	1	antiphase_hc_iso.wav	2	6	2	noise_calib_stim_LEFT.wav	1	7	blb_dichoticlistening_da-ba.mp3	da	ba	1	left
6.6.1	mac	2023-06-02	05:31:00	05:42:39	696372	60130d613d3ca613b04d39bb	1	1	practice_slash	22	advance_on_keypress_SLASH	2	stimuli_target_squarediamonds.svg	stimuli_distractor_trianglediamonds.svg	5	yes	57	0	2355	6	1	antiphase_hc_iso.wav	2	6	2	noise_calib_stim_LEFT.wav	1	7	blb_dichoticlistening_da-ba.mp3	da	ba	1	left
6.6.1	mac	2023-06-02	05:31:00	05:42:45	702377	60130d613d3ca613b04d39bb	1	1	practice_slash	22	practice_slash	3	stimuli_target_diamondsquares.svg	stimuli_distractor_diamondtriangles.svg	3	yes	0	0	2000	6	1	antiphase_hc_iso.wav	2	6	2	noise_calib_stim_LEFT.wav	1	7	blb_dichoticlistening_da-ba.mp3	da	ba	1	left
6.6.1	mac	2023-06-02	05:31:00	05:42:45	702377	60130d613d3ca613b04d39bb	1	1	practice_slash	22	advance_on_keypress_SLASH	4	stimuli_target_diamondsquares.svg	stimuli_distractor_diamondtriangles.svg	3	yes	57	0	789	6	1	antiphase_hc_iso.wav	2	6	2	noise_calib_stim_LEFT.wav	1	7	blb_dichoticlistening_da-ba.mp3	da	ba	1	left
6.6.1	mac	2023-06-02	05:31:00	05:42:48	705540	60130d613d3ca613b04d39bb	1	1	practice_slash	22	practice_slash	5	stimuli_distractor_trianglediamonds.svg	stimuli_target_diamondrectangles.svg	12	yes	53	1	730	6	1	antiphase_hc_iso.wav	2	6	2	noise_calib_stim_LEFT.wav	1	7	blb_dichoticlistening_da-ba.mp3	da	ba	1	left
6.6.1	mac	2023-06-02	05:31:00	05:42:48	705540	60130d613d3ca613b04d39bb	1	1	practice_slash	22	advance_on_keypress_SLASH	6	stimuli_distractor_trianglediamonds.svg	stimuli_target_diamondrectangles.svg	12	yes	57	0	1282	6	1	antiphase_hc_iso.wav	2	6	2	noise_calib_stim_LEFT.wav	1	7	blb_dichoticlistening_da-ba.mp3	da	ba	1	left
6.6.1	mac	2023-06-02	05:31:00	05:42:52	709637	60130d613d3ca613b04d39bb	1	1	practice_slash	22	practice_slash	7	stimuli_target_diamondsquares.svg	stimuli_distractor_trianglediamonds.svg	6	yes	53	1	1176	6	1	antiphase_hc_iso.wav	2	6	2	noise_calib_stim_LEFT.wav	1	7	blb_dichoticlistening_da-ba.mp3	da	ba	1	left
6.6.1	mac	2023-06-02	05:31:00	05:42:52	709637	60130d613d3ca613b04d39bb	1	1	practice_slash	22	advance_on_keypress_SLASH	8	stimuli_target_diamondsquares.svg	stimuli_distractor_trianglediamonds.svg	6	yes	57	0	1143	6	1	antiphase_hc_iso.wav	2	6	2	noise_calib_stim_LEFT.wav	1	7	blb_dichoticlistening_da-ba.mp3	da	ba	1	left
6.6.1	mac	2023-06-02	05:31:00	05:42:56	713164	60130d613d3ca613b04d39bb	1	1	practice_slash	22	practice_slash	9	stimuli_distractor_diamondtriangles.svg	stimuli_target_diamondrectangles.svg	8	yes	53	1	739	6	1	antiphase_hc_iso.wav	2	6	2	noise_calib_stim_LEFT.wav	1	7	blb_dichoticlistening_da-ba.mp3	da	ba	1	left
6.6.1	mac	2023-06-02	05:31:00	05:42:56	713164	60130d613d3ca613b04d39bb	1	1	practice_slash	22	advance_on_keypress_SLASH	10	stimuli_distractor_diamondtriangles.svg	stimuli_target_diamondrectangles.svg	8	yes	57	0	3500	6	1	antiphase_hc_iso.wav	2	6	2	noise_calib_stim_LEFT.wav	1	7	blb_dichoticlistening_da-ba.mp3	da	ba	1	left
6.6.1	mac	2023-06-02	05:31:00	05:43:02	719053	60130d613d3ca613b04d39bb	1	1	practice_slash	22	practice_slash	11	stimuli_distractor_diamondtriangles.svg	stimuli_target_trianglerectangles.svg	9	yes	53	1	759	6	1	antiphase_hc_iso.wav	2	6	2	noise_calib_stim_LEFT.wav	1	7	blb_dichoticlistening_da-ba.mp3	da	ba	1	left
6.6.1	mac	2023-06-02	05:31:00	05:43:02	719053	60130d613d3ca613b04d39bb	1	1	practice_slash	22	advance_on_keypress_SLASH	12	stimuli_distractor_diamondtriangles.svg	stimuli_target_trianglerectangles.svg	9	yes	57	0	846	6	1	antiphase_hc_iso.wav	2	6	2	noise_calib_stim_LEFT.wav	1	7	blb_dichoticlistening_da-ba.mp3	da	ba	1	left
6.6.1	mac	2023-06-02	05:31:00	05:43:06	723544	60130d613d3ca613b04d39bb	1	1	practice_slash	22	practice_slash	13	stimuli_distractor_trianglediamonds.svg	stimuli_distractor_trianglediamonds.svg	15	no	0	1	2000	6	1	antiphase_hc_iso.wav	2	6	2	noise_calib_stim_LEFT.wav	1	7	blb_dichoticlistening_da-ba.mp3	da	ba	1	left
6.6.1	mac	2023-06-02	05:31:00	05:43:06	723544	60130d613d3ca613b04d39bb	1	1	practice_slash	22	advance_on_keypress_SLASH	14	stimuli_distractor_trianglediamonds.svg	stimuli_distractor_trianglediamonds.svg	15	no	57	0	533	6	1	antiphase_hc_iso.wav	2	6	2	noise_calib_stim_LEFT.wav	1	7	blb_dichoticlistening_da-ba.mp3	da	ba	1	left
6.6.1	mac	2023-06-02	05:31:00	05:43:09	726949	60130d613d3ca613b04d39bb	1	1	practice_slash	22	practice_slash	15	stimuli_target_rectanglediamonds.svg	stimuli_distractor_trianglediamonds.svg	4	yes	53	1	1239	6	1	antiphase_hc_iso.wav	2	6	2	noise_calib_stim_LEFT.wav	1	7	blb_dichoticlistening_da-ba.mp3	da	ba	1	left
6.6.1	mac	2023-06-02	05:31:00	05:43:09	726949	60130d613d3ca613b04d39bb	1	1	practice_slash	22	advance_on_keypress_SLASH	16	stimuli_target_rectanglediamonds.svg	stimuli_distractor_trianglediamonds.svg	4	yes	57	0	1125	6	1	antiphase_hc_iso.wav	2	6	2	noise_calib_stim_LEFT.wav	1	7	blb_dichoticlistening_da-ba.mp3	da	ba	1	left
6.6.1	mac	2023-06-02	05:31:00	05:43:13	730866	60130d613d3ca613b04d39bb	1	1	practice_slash	22	practice_slash	17	stimuli_distractor_diamondtriangles.svg	stimuli_target_rectangletriangles.svg	7	yes	53	1	1157	6	1	antiphase_hc_iso.wav	2	6	2	noise_calib_stim_LEFT.wav	1	7	blb_dichoticlistening_da-ba.mp3	da	ba	1	left
6.6.1	mac	2023-06-02	05:31:00	05:43:13	730866	60130d613d3ca613b04d39bb	1	1	practice_slash	22	advance_on_keypress_SLASH	18	stimuli_distractor_diamondtriangles.svg	stimuli_target_rectangletriangles.svg	7	yes	57	0	802	6	1	antiphase_hc_iso.wav	2	6	2	noise_calib_stim_LEFT.wav	1	7	blb_dichoticlistening_da-ba.mp3	da	ba	1	left
6.6.1	mac	2023-06-02	05:31:00	05:43:18	735294	60130d613d3ca613b04d39bb	1	1	practice_slash	22	practice_slash	19	stimuli_distractor_diamondtriangles.svg	stimuli_distractor_diamondtriangles.svg	13	no	0	1	2000	6	1	antiphase_hc_iso.wav	2	6	2	noise_calib_stim_LEFT.wav	1	7	blb_dichoticlistening_da-ba.mp3	da	ba	1	left
6.6.1	mac	2023-06-02	05:31:00	05:43:18	735294	60130d613d3ca613b04d39bb	1	1	practice_slash	22	advance_on_keypress_SLASH	20	stimuli_distractor_diamondtriangles.svg	stimuli_distractor_diamondtriangles.svg	13	no	57	0	518	6	1	antiphase_hc_iso.wav	2	6	2	noise_calib_stim_LEFT.wav	1	7	blb_dichoticlistening_da-ba.mp3	da	ba	1	left
6.6.1	mac	2023-06-02	05:31:00	05:43:22	739442	60130d613d3ca613b04d39bb	1	1	practice_slash	22	practice_slash	21	stimuli_distractor_diamondtriangles.svg	stimuli_distractor_trianglediamonds.svg	14	no	0	1	2000	6	1	antiphase_hc_iso.wav	2	6	2	noise_calib_stim_LEFT.wav	1	7	blb_dichoticlistening_da-ba.mp3	da	ba	1	left
6.6.1	mac	2023-06-02	05:31:00	05:43:22	739442	60130d613d3ca613b04d39bb	1	1	practice_slash	22	advance_on_keypress_SLASH	22	stimuli_distractor_diamondtriangles.svg	stimuli_distractor_trianglediamonds.svg	14	no	57	0	643	6	1	antiphase_hc_iso.wav	2	6	2	noise_calib_stim_LEFT.wav	1	7	blb_dichoticlistening_da-ba.mp3	da	ba	1	left
6.6.1	mac	2023-06-02	05:31:00	05:43:25	742745	60130d613d3ca613b04d39bb	1	1	practice_slash	22	practice_slash	23	stimuli_distractor_trianglediamonds.svg	stimuli_target_squarediamonds.svg	11	yes	53	1	1019	6	1	antiphase_hc_iso.wav	2	6	2	noise_calib_stim_LEFT.wav	1	7	blb_dichoticlistening_da-ba.mp3	da	ba	1	left
6.6.1	mac	2023-06-02	05:31:00	05:43:25	742745	60130d613d3ca613b04d39bb	1	1	practice_slash	22	advance_on_keypress_SLASH	24	stimuli_distractor_trianglediamonds.svg	stimuli_target_squarediamonds.svg	11	yes	57	0	840	6	1	antiphase_hc_iso.wav	2	6	2	noise_calib_stim_LEFT.wav	1	7	blb_dichoticlistening_da-ba.mp3	da	ba	1	left
6.6.1	mac	2023-06-02	05:31:00	05:43:30	747210	60130d613d3ca613b04d39bb	1	1	practice_slash	22	practice_slash	25	stimuli_distractor_trianglediamonds.svg	stimuli_distractor_diamondtriangles.svg	16	no	0	1	2000	6	1	antiphase_hc_iso.wav	2	6	2	noise_calib_stim_LEFT.wav	1	7	blb_dichoticlistening_da-ba.mp3	da	ba	1	left
6.6.1	mac	2023-06-02	05:31:00	05:43:30	747210	60130d613d3ca613b04d39bb	1	1	practice_slash	22	advance_on_keypress_SLASH	26	stimuli_distractor_trianglediamonds.svg	stimuli_distractor_diamondtriangles.svg	16	no	57	0	434	6	1	antiphase_hc_iso.wav	2	6	2	noise_calib_stim_LEFT.wav	1	7	blb_dichoticlistening_da-ba.mp3	da	ba	1	left
6.6.1	mac	2023-06-02	05:31:00	05:43:33	750088	60130d613d3ca613b04d39bb	1	1	practice_slash	22	practice_slash	27	stimuli_target_rectanglediamonds.svg	stimuli_distractor_diamondtriangles.svg	1	yes	53	1	812	6	1	antiphase_hc_iso.wav	2	6	2	noise_calib_stim_LEFT.wav	1	7	blb_dichoticlistening_da-ba.mp3	da	ba	1	left
6.6.1	mac	2023-06-02	05:31:00	05:43:33	750088	60130d613d3ca613b04d39bb	1	1	practice_slash	22	advance_on_keypress_SLASH	28	stimuli_target_rectanglediamonds.svg	stimuli_distractor_diamondtriangles.svg	1	yes	57	0	830	6	1	antiphase_hc_iso.wav	2	6	2	noise_calib_stim_LEFT.wav	1	7	blb_dichoticlistening_da-ba.mp3	da	ba	1	left
6.6.1	mac	2023-06-02	05:31:00	05:43:36	753243	60130d613d3ca613b04d39bb	1	1	practice_slash	22	practice_slash	29	stimuli_target_squarediamonds.svg	stimuli_distractor_diamondtriangles.svg	2	yes	53	1	684	6	1	antiphase_hc_iso.wav	2	6	2	noise_calib_stim_LEFT.wav	1	7	blb_dichoticlistening_da-ba.mp3	da	ba	1	left
6.6.1	mac	2023-06-02	05:31:00	05:43:36	753243	60130d613d3ca613b04d39bb	1	1	practice_slash	22	advance_on_keypress_SLASH	30	stimuli_target_squarediamonds.svg	stimuli_distractor_diamondtriangles.svg	2	yes	57	0	929	6	1	antiphase_hc_iso.wav	2	6	2	noise_calib_stim_LEFT.wav	1	7	blb_dichoticlistening_da-ba.mp3	da	ba	1	left
6.6.1	mac	2023-06-02	05:31:00	05:43:39	756652	60130d613d3ca613b04d39bb	1	1	practice_slash	22	practice_slash	31	stimuli_distractor_trianglediamonds.svg	stimuli_target_rectanglediamonds.svg	10	yes	53	1	842	6	1	antiphase_hc_iso.wav	2	6	2	noise_calib_stim_LEFT.wav	1	7	blb_dichoticlistening_da-ba.mp3	da	ba	1	left
6.6.1	mac	2023-06-02	05:31:00	05:43:39	756652	60130d613d3ca613b04d39bb	1	1	practice_slash	22	advance_on_keypress_SLASH	32	stimuli_distractor_trianglediamonds.svg	stimuli_target_rectanglediamonds.svg	10	yes	57	0	700	6	1	antiphase_hc_iso.wav	2	6	2	noise_calib_stim_LEFT.wav	1	7	blb_dichoticlistening_da-ba.mp3	da	ba	1	left
6.6.1	mac	2023-06-02	05:31:00	05:43:50	767632	60130d613d3ca613b04d39bb	1	1	main_slash	24	main_slash	1	stimuli_distractor_trianglediamonds.svg	stimuli_target_squarediamonds.svg	12	yes	53	1	739	6	1	antiphase_hc_iso.wav	2	6	2	noise_calib_stim_LEFT.wav	1	7	blb_dichoticlistening_da-ba.mp3	da	ba	1	left
6.6.1	mac	2023-06-02	05:31:00	05:43:50	767632	60130d613d3ca613b04d39bb	1	1	main_slash	24	advance_on_keypress_SLASH	2	stimuli_distractor_trianglediamonds.svg	stimuli_target_squarediamonds.svg	12	yes	57	0	1107	6	1	antiphase_hc_iso.wav	2	6	2	noise_calib_stim_LEFT.wav	1	7	blb_dichoticlistening_da-ba.mp3	da	ba	1	left
6.6.1	mac	2023-06-02	05:31:00	05:43:53	770153	60130d613d3ca613b04d39bb	1	1	main_slash	24	main_slash	3	stimuli_target_squarediamonds.svg	stimuli_distractor_trianglediamonds.svg	4	yes	53	1	794	6	1	antiphase_hc_iso.wav	2	6	2	noise_calib_stim_LEFT.wav	1	7	blb_dichoticlistening_da-ba.mp3	da	ba	1	left
6.6.1	mac	2023-06-02	05:31:00	05:43:53	770153	60130d613d3ca613b04d39bb	1	1	main_slash	24	advance_on_keypress_SLASH	4	stimuli_target_squarediamonds.svg	stimuli_distractor_trianglediamonds.svg	4	yes	57	0	1502	6	1	antiphase_hc_iso.wav	2	6	2	noise_calib_stim_LEFT.wav	1	7	blb_dichoticlistening_da-ba.mp3	da	ba	1	left
6.6.1	mac	2023-06-02	05:31:00	05:43:56	773305	60130d613d3ca613b04d39bb	1	1	main_slash	24	main_slash	5	stimuli_distractor_trianglediamonds.svg	stimuli_target_diamondrectangles.svg	27	yes	53	1	1029	6	1	antiphase_hc_iso.wav	2	6	2	noise_calib_stim_LEFT.wav	1	7	blb_dichoticlistening_da-ba.mp3	da	ba	1	left
6.6.1	mac	2023-06-02	05:31:00	05:43:56	773305	60130d613d3ca613b04d39bb	1	1	main_slash	24	advance_on_keypress_SLASH	6	stimuli_distractor_trianglediamonds.svg	stimuli_target_diamondrectangles.svg	27	yes	57	0	4530	6	1	antiphase_hc_iso.wav	2	6	2	noise_calib_stim_LEFT.wav	1	7	blb_dichoticlistening_da-ba.mp3	da	ba	1	left
6.6.1	mac	2023-06-02	05:31:00	05:44:02	779124	60130d613d3ca613b04d39bb	1	1	main_slash	24	main_slash	7	stimuli_target_rectanglediamonds.svg	stimuli_distractor_trianglediamonds.svg	2	yes	53	1	649	6	1	antiphase_hc_iso.wav	2	6	2	noise_calib_stim_LEFT.wav	1	7	blb_dichoticlistening_da-ba.mp3	da	ba	1	left
6.6.1	mac	2023-06-02	05:31:00	05:44:02	779124	60130d613d3ca613b04d39bb	1	1	main_slash	24	advance_on_keypress_SLASH	8	stimuli_target_rectanglediamonds.svg	stimuli_distractor_trianglediamonds.svg	2	yes	57	0	1493	6	1	antiphase_hc_iso.wav	2	6	2	noise_calib_stim_LEFT.wav	1	7	blb_dichoticlistening_da-ba.mp3	da	ba	1	left
6.6.1	mac	2023-06-02	05:31:00	05:44:05	782154	60130d613d3ca613b04d39bb	1	1	main_slash	24	main_slash	9	stimuli_distractor_diamondtriangles.svg	stimuli_target_rectangletriangles.svg	13	yes	53	1	895	6	1	antiphase_hc_iso.wav	2	6	2	noise_calib_stim_LEFT.wav	1	7	blb_dichoticlistening_da-ba.mp3	da	ba	1	left
6.6.1	mac	2023-06-02	05:31:00	05:44:05	782154	60130d613d3ca613b04d39bb	1	1	main_slash	24	advance_on_keypress_SLASH	10	stimuli_distractor_diamondtriangles.svg	stimuli_target_rectangletriangles.svg	13	yes	57	0	1377	6	1	antiphase_hc_iso.wav	2	6	2	noise_calib_stim_LEFT.wav	1	7	blb_dichoticlistening_da-ba.mp3	da	ba	1	left
6.6.1	mac	2023-06-02	05:31:00	05:44:08	785507	60130d613d3ca613b04d39bb	1	1	main_slash	24	main_slash	11	stimuli_distractor_trianglediamonds.svg	stimuli_target_squaretriangles.svg	11	yes	53	1	1330	6	1	antiphase_hc_iso.wav	2	6	2	noise_calib_stim_LEFT.wav	1	7	blb_dichoticlistening_da-ba.mp3	da	ba	1	left
6.6.1	mac	2023-06-02	05:31:00	05:44:08	785507	60130d613d3ca613b04d39bb	1	1	main_slash	24	advance_on_keypress_SLASH	12	stimuli_distractor_trianglediamonds.svg	stimuli_target_squaretriangles.svg	11	yes	57	0	1632	6	1	antiphase_hc_iso.wav	2	6	2	noise_calib_stim_LEFT.wav	1	7	blb_dichoticlistening_da-ba.mp3	da	ba	1	left
6.6.1	mac	2023-06-02	05:31:00	05:44:11	788668	60130d613d3ca613b04d39bb	1	1	main_slash	24	main_slash	13	stimuli_distractor_trianglediamonds.svg	stimuli_target_rectanglediamonds.svg	10	yes	53	1	893	6	1	antiphase_hc_iso.wav	2	6	2	noise_calib_stim_LEFT.wav	1	7	blb_dichoticlistening_da-ba.mp3	da	ba	1	left
6.6.1	mac	2023-06-02	05:31:00	05:44:11	788668	60130d613d3ca613b04d39bb	1	1	main_slash	24	advance_on_keypress_SLASH	14	stimuli_distractor_trianglediamonds.svg	stimuli_target_rectanglediamonds.svg	10	yes	57	0	1688	6	1	antiphase_hc_iso.wav	2	6	2	noise_calib_stim_LEFT.wav	1	7	blb_dichoticlistening_da-ba.mp3	da	ba	1	left
6.6.1	mac	2023-06-02	05:31:00	05:44:15	792179	60130d613d3ca613b04d39bb	1	1	main_slash	24	main_slash	15	stimuli_target_diamondsquares.svg	stimuli_distractor_diamondtriangles.svg	24	yes	53	1	1185	6	1	antiphase_hc_iso.wav	2	6	2	noise_calib_stim_LEFT.wav	1	7	blb_dichoticlistening_da-ba.mp3	da	ba	1	left
6.6.1	mac	2023-06-02	05:31:00	05:44:15	792179	60130d613d3ca613b04d39bb	1	1	main_slash	24	advance_on_keypress_SLASH	16	stimuli_target_diamondsquares.svg	stimuli_distractor_diamondtriangles.svg	24	yes	57	0	1434	6	1	antiphase_hc_iso.wav	2	6	2	noise_calib_stim_LEFT.wav	1	7	blb_dichoticlistening_da-ba.mp3	da	ba	1	left
6.6.1	mac	2023-06-02	05:31:00	05:44:18	795229	60130d613d3ca613b04d39bb	1	1	main_slash	24	main_slash	17	stimuli_distractor_trianglediamonds.svg	stimuli_target_rectangletriangles.svg	9	yes	53	1	985	6	1	antiphase_hc_iso.wav	2	6	2	noise_calib_stim_LEFT.wav	1	7	blb_dichoticlistening_da-ba.mp3	da	ba	1	left
6.6.1	mac	2023-06-02	05:31:00	05:44:18	795229	60130d613d3ca613b04d39bb	1	1	main_slash	24	advance_on_keypress_SLASH	18	stimuli_distractor_trianglediamonds.svg	stimuli_target_rectangletriangles.svg	9	yes	57	0	1362	6	1	antiphase_hc_iso.wav	2	6	2	noise_calib_stim_LEFT.wav	1	7	blb_dichoticlistening_da-ba.mp3	da	ba	1	left
6.6.1	mac	2023-06-02	05:31:00	05:44:21	798153	60130d613d3ca613b04d39bb	1	1	main_slash	24	main_slash	19	stimuli_target_rectanglediamonds.svg	stimuli_distractor_diamondtriangles.svg	6	yes	53	1	927	6	1	antiphase_hc_iso.wav	2	6	2	noise_calib_stim_LEFT.wav	1	7	blb_dichoticlistening_da-ba.mp3	da	ba	1	left
6.6.1	mac	2023-06-02	05:31:00	05:44:21	798153	60130d613d3ca613b04d39bb	1	1	main_slash	24	advance_on_keypress_SLASH	20	stimuli_target_rectanglediamonds.svg	stimuli_distractor_diamondtriangles.svg	6	yes	57	0	1546	6	1	antiphase_hc_iso.wav	2	6	2	noise_calib_stim_LEFT.wav	1	7	blb_dichoticlistening_da-ba.mp3	da	ba	1	left
6.6.1	mac	2023-06-02	05:31:00	05:44:25	802342	60130d613d3ca613b04d39bb	1	1	main_slash	24	main_slash	21	stimuli_distractor_diamondtriangles.svg	stimuli_distractor_trianglediamonds.svg	37	no	0	1	2000	6	1	antiphase_hc_iso.wav	2	6	2	noise_calib_stim_LEFT.wav	1	7	blb_dichoticlistening_da-ba.mp3	da	ba	1	left
6.6.1	mac	2023-06-02	05:31:00	05:44:25	802342	60130d613d3ca613b04d39bb	1	1	main_slash	24	advance_on_keypress_SLASH	22	stimuli_distractor_diamondtriangles.svg	stimuli_distractor_trianglediamonds.svg	37	no	57	0	726	6	1	antiphase_hc_iso.wav	2	6	2	noise_calib_stim_LEFT.wav	1	7	blb_dichoticlistening_da-ba.mp3	da	ba	1	left
6.6.1	mac	2023-06-02	05:31:00	05:44:27	804401	60130d613d3ca613b04d39bb	1	1	main_slash	24	main_slash	23	stimuli_target_rectangletriangles.svg	stimuli_distractor_trianglediamonds.svg	1	yes	53	1	708	6	1	antiphase_hc_iso.wav	2	6	2	noise_calib_stim_LEFT.wav	1	7	blb_dichoticlistening_da-ba.mp3	da	ba	1	left
6.6.1	mac	2023-06-02	05:31:00	05:44:27	804401	60130d613d3ca613b04d39bb	1	1	main_slash	24	advance_on_keypress_SLASH	24	stimuli_target_rectangletriangles.svg	stimuli_distractor_trianglediamonds.svg	1	yes	57	0	1661	6	1	antiphase_hc_iso.wav	2	6	2	noise_calib_stim_LEFT.wav	1	7	blb_dichoticlistening_da-ba.mp3	da	ba	1	left
6.6.1	mac	2023-06-02	05:31:00	05:44:31	808691	60130d613d3ca613b04d39bb	1	1	main_slash	24	main_slash	25	stimuli_distractor_trianglediamonds.svg	stimuli_distractor_diamondtriangles.svg	36	no	0	1	2000	6	1	antiphase_hc_iso.wav	2	6	2	noise_calib_stim_LEFT.wav	1	7	blb_dichoticlistening_da-ba.mp3	da	ba	1	left
6.6.1	mac	2023-06-02	05:31:00	05:44:31	808691	60130d613d3ca613b04d39bb	1	1	main_slash	24	advance_on_keypress_SLASH	26	stimuli_distractor_trianglediamonds.svg	stimuli_distractor_diamondtriangles.svg	36	no	57	0	700	6	1	antiphase_hc_iso.wav	2	6	2	noise_calib_stim_LEFT.wav	1	7	blb_dichoticlistening_da-ba.mp3	da	ba	1	left
6.6.1	mac	2023-06-02	05:31:00	05:44:34	811015	60130d613d3ca613b04d39bb	1	1	main_slash	24	main_slash	27	stimuli_distractor_diamondtriangles.svg	stimuli_target_squarediamonds.svg	16	yes	53	1	988	6	1	antiphase_hc_iso.wav	2	6	2	noise_calib_stim_LEFT.wav	1	7	blb_dichoticlistening_da-ba.mp3	da	ba	1	left
6.6.1	mac	2023-06-02	05:31:00	05:44:34	811015	60130d613d3ca613b04d39bb	1	1	main_slash	24	advance_on_keypress_SLASH	28	stimuli_distractor_diamondtriangles.svg	stimuli_target_squarediamonds.svg	16	yes	57	0	1399	6	1	antiphase_hc_iso.wav	2	6	2	noise_calib_stim_LEFT.wav	1	7	blb_dichoticlistening_da-ba.mp3	da	ba	1	left
6.6.1	mac	2023-06-02	05:31:00	05:44:36	813875	60130d613d3ca613b04d39bb	1	1	main_slash	24	main_slash	29	stimuli_distractor_diamondtriangles.svg	stimuli_target_trianglerectangles.svg	29	yes	53	1	833	6	1	antiphase_hc_iso.wav	2	6	2	noise_calib_stim_LEFT.wav	1	7	blb_dichoticlistening_da-ba.mp3	da	ba	1	left
6.6.1	mac	2023-06-02	05:31:00	05:44:36	813875	60130d613d3ca613b04d39bb	1	1	main_slash	24	advance_on_keypress_SLASH	30	stimuli_distractor_diamondtriangles.svg	stimuli_target_trianglerectangles.svg	29	yes	57	0	1210	6	1	antiphase_hc_iso.wav	2	6	2	noise_calib_stim_LEFT.wav	1	7	blb_dichoticlistening_da-ba.mp3	da	ba	1	left
6.6.1	mac	2023-06-02	05:31:00	05:44:39	816557	60130d613d3ca613b04d39bb	1	1	main_slash	24	main_slash	31	stimuli_target_squaretriangles.svg	stimuli_distractor_diamondtriangles.svg	7	yes	53	1	832	6	1	antiphase_hc_iso.wav	2	6	2	noise_calib_stim_LEFT.wav	1	7	blb_dichoticlistening_da-ba.mp3	da	ba	1	left
6.6.1	mac	2023-06-02	05:31:00	05:44:39	816557	60130d613d3ca613b04d39bb	1	1	main_slash	24	advance_on_keypress_SLASH	32	stimuli_target_squaretriangles.svg	stimuli_distractor_diamondtriangles.svg	7	yes	57	0	1583	6	1	antiphase_hc_iso.wav	2	6	2	noise_calib_stim_LEFT.wav	1	7	blb_dichoticlistening_da-ba.mp3	da	ba	1	left
6.6.1	mac	2023-06-02	05:31:00	05:44:42	819708	60130d613d3ca613b04d39bb	1	1	main_slash	24	main_slash	33	stimuli_target_trianglesquares.svg	stimuli_distractor_trianglediamonds.svg	18	yes	53	1	933	6	1	antiphase_hc_iso.wav	2	6	2	noise_calib_stim_LEFT.wav	1	7	blb_dichoticlistening_da-ba.mp3	da	ba	1	left
6.6.1	mac	2023-06-02	05:31:00	05:44:42	819708	60130d613d3ca613b04d39bb	1	1	main_slash	24	advance_on_keypress_SLASH	34	stimuli_target_trianglesquares.svg	stimuli_distractor_trianglediamonds.svg	18	yes	57	0	1641	6	1	antiphase_hc_iso.wav	2	6	2	noise_calib_stim_LEFT.wav	1	7	blb_dichoticlistening_da-ba.mp3	da	ba	1	left
6.6.1	mac	2023-06-02	05:31:00	05:44:45	822950	60130d613d3ca613b04d39bb	1	1	main_slash	24	main_slash	35	stimuli_target_trianglesquares.svg	stimuli_distractor_diamondtriangles.svg	22	yes	53	1	973	6	1	antiphase_hc_iso.wav	2	6	2	noise_calib_stim_LEFT.wav	1	7	blb_dichoticlistening_da-ba.mp3	da	ba	1	left
6.6.1	mac	2023-06-02	05:31:00	05:44:45	822950	60130d613d3ca613b04d39bb	1	1	main_slash	24	advance_on_keypress_SLASH	36	stimuli_target_trianglesquares.svg	stimuli_distractor_diamondtriangles.svg	22	yes	57	0	1543	6	1	antiphase_hc_iso.wav	2	6	2	noise_calib_stim_LEFT.wav	1	7	blb_dichoticlistening_da-ba.mp3	da	ba	1	left
6.6.1	mac	2023-06-02	05:31:00	05:44:49	826145	60130d613d3ca613b04d39bb	1	1	main_slash	24	main_slash	37	stimuli_target_diamondrectangles.svg	stimuli_distractor_trianglediamonds.svg	19	yes	53	1	1018	6	1	antiphase_hc_iso.wav	2	6	2	noise_calib_stim_LEFT.wav	1	7	blb_dichoticlistening_da-ba.mp3	da	ba	1	left
6.6.1	mac	2023-06-02	05:31:00	05:44:49	826145	60130d613d3ca613b04d39bb	1	1	main_slash	24	advance_on_keypress_SLASH	38	stimuli_target_diamondrectangles.svg	stimuli_distractor_trianglediamonds.svg	19	yes	57	0	1520	6	1	antiphase_hc_iso.wav	2	6	2	noise_calib_stim_LEFT.wav	1	7	blb_dichoticlistening_da-ba.mp3	da	ba	1	left
6.6.1	mac	2023-06-02	05:31:00	05:44:52	829224	60130d613d3ca613b04d39bb	1	1	main_slash	24	main_slash	39	stimuli_target_trianglerectangles.svg	stimuli_distractor_trianglediamonds.svg	17	yes	53	1	931	6	1	antiphase_hc_iso.wav	2	6	2	noise_calib_stim_LEFT.wav	1	7	blb_dichoticlistening_da-ba.mp3	da	ba	1	left
6.6.1	mac	2023-06-02	05:31:00	05:44:52	829224	60130d613d3ca613b04d39bb	1	1	main_slash	24	advance_on_keypress_SLASH	40	stimuli_target_trianglerectangles.svg	stimuli_distractor_trianglediamonds.svg	17	yes	57	0	1421	6	1	antiphase_hc_iso.wav	2	6	2	noise_calib_stim_LEFT.wav	1	7	blb_dichoticlistening_da-ba.mp3	da	ba	1	left
6.6.1	mac	2023-06-02	05:31:00	05:44:55	832098	60130d613d3ca613b04d39bb	1	1	main_slash	24	main_slash	41	stimuli_distractor_trianglediamonds.svg	stimuli_target_diamondsquares.svg	28	yes	53	1	823	6	1	antiphase_hc_iso.wav	2	6	2	noise_calib_stim_LEFT.wav	1	7	blb_dichoticlistening_da-ba.mp3	da	ba	1	left
6.6.1	mac	2023-06-02	05:31:00	05:44:55	832098	60130d613d3ca613b04d39bb	1	1	main_slash	24	advance_on_keypress_SLASH	42	stimuli_distractor_trianglediamonds.svg	stimuli_target_diamondsquares.svg	28	yes	57	0	1194	6	1	antiphase_hc_iso.wav	2	6	2	noise_calib_stim_LEFT.wav	1	7	blb_dichoticlistening_da-ba.mp3	da	ba	1	left
6.6.1	mac	2023-06-02	05:31:00	05:44:58	835926	60130d613d3ca613b04d39bb	1	1	main_slash	24	main_slash	43	stimuli_distractor_diamondtriangles.svg	stimuli_distractor_diamondtriangles.svg	40	no	0	1	2000	6	1	antiphase_hc_iso.wav	2	6	2	noise_calib_stim_LEFT.wav	1	7	blb_dichoticlistening_da-ba.mp3	da	ba	1	left
6.6.1	mac	2023-06-02	05:31:00	05:44:58	835926	60130d613d3ca613b04d39bb	1	1	main_slash	24	advance_on_keypress_SLASH	44	stimuli_distractor_diamondtriangles.svg	stimuli_distractor_diamondtriangles.svg	40	no	57	0	724	6	1	antiphase_hc_iso.wav	2	6	2	noise_calib_stim_LEFT.wav	1	7	blb_dichoticlistening_da-ba.mp3	da	ba	1	left
6.6.1	mac	2023-06-02	05:31:00	05:45:02	839195	60130d613d3ca613b04d39bb	1	1	main_slash	24	main_slash	45	stimuli_target_rectangletriangles.svg	stimuli_distractor_diamondtriangles.svg	5	yes	53	1	1916	6	1	antiphase_hc_iso.wav	2	6	2	noise_calib_stim_LEFT.wav	1	7	blb_dichoticlistening_da-ba.mp3	da	ba	1	left
6.6.1	mac	2023-06-02	05:31:00	05:45:02	839195	60130d613d3ca613b04d39bb	1	1	main_slash	24	advance_on_keypress_SLASH	46	stimuli_target_rectangletriangles.svg	stimuli_distractor_diamondtriangles.svg	5	yes	57	0	1249	6	1	antiphase_hc_iso.wav	2	6	2	noise_calib_stim_LEFT.wav	1	7	blb_dichoticlistening_da-ba.mp3	da	ba	1	left
6.6.1	mac	2023-06-02	05:31:00	05:45:04	841909	60130d613d3ca613b04d39bb	1	1	main_slash	24	main_slash	47	stimuli_distractor_trianglediamonds.svg	stimuli_target_trianglerectangles.svg	25	yes	53	1	833	6	1	antiphase_hc_iso.wav	2	6	2	noise_calib_stim_LEFT.wav	1	7	blb_dichoticlistening_da-ba.mp3	da	ba	1	left
6.6.1	mac	2023-06-02	05:31:00	05:45:04	841909	60130d613d3ca613b04d39bb	1	1	main_slash	24	advance_on_keypress_SLASH	48	stimuli_distractor_trianglediamonds.svg	stimuli_target_trianglerectangles.svg	25	yes	57	0	1772	6	1	antiphase_hc_iso.wav	2	6	2	noise_calib_stim_LEFT.wav	1	7	blb_dichoticlistening_da-ba.mp3	da	ba	1	left
6.6.1	mac	2023-06-02	05:31:00	05:45:09	846308	60130d613d3ca613b04d39bb	1	1	main_slash	24	main_slash	49	stimuli_distractor_trianglediamonds.svg	stimuli_distractor_trianglediamonds.svg	33	no	0	1	2000	6	1	antiphase_hc_iso.wav	2	6	2	noise_calib_stim_LEFT.wav	1	7	blb_dichoticlistening_da-ba.mp3	da	ba	1	left
6.6.1	mac	2023-06-02	05:31:00	05:45:09	846308	60130d613d3ca613b04d39bb	1	1	main_slash	24	advance_on_keypress_SLASH	50	stimuli_distractor_trianglediamonds.svg	stimuli_distractor_trianglediamonds.svg	33	no	57	0	993	6	1	antiphase_hc_iso.wav	2	6	2	noise_calib_stim_LEFT.wav	1	7	blb_dichoticlistening_da-ba.mp3	da	ba	1	left
6.6.1	mac	2023-06-02	05:31:00	05:45:11	848673	60130d613d3ca613b04d39bb	1	1	main_slash	24	main_slash	51	stimuli_distractor_trianglediamonds.svg	stimuli_target_trianglesquares.svg	26	yes	53	1	749	6	1	antiphase_hc_iso.wav	2	6	2	noise_calib_stim_LEFT.wav	1	7	blb_dichoticlistening_da-ba.mp3	da	ba	1	left
6.6.1	mac	2023-06-02	05:31:00	05:45:11	848673	60130d613d3ca613b04d39bb	1	1	main_slash	24	advance_on_keypress_SLASH	52	stimuli_distractor_trianglediamonds.svg	stimuli_target_trianglesquares.svg	26	yes	57	0	1526	6	1	antiphase_hc_iso.wav	2	6	2	noise_calib_stim_LEFT.wav	1	7	blb_dichoticlistening_da-ba.mp3	da	ba	1	left
6.6.1	mac	2023-06-02	05:31:00	05:45:14	851851	60130d613d3ca613b04d39bb	1	1	main_slash	24	main_slash	53	stimuli_distractor_diamondtriangles.svg	stimuli_target_squaretriangles.svg	15	yes	53	1	1025	6	1	antiphase_hc_iso.wav	2	6	2	noise_calib_stim_LEFT.wav	1	7	blb_dichoticlistening_da-ba.mp3	da	ba	1	left
6.6.1	mac	2023-06-02	05:31:00	05:45:14	851851	60130d613d3ca613b04d39bb	1	1	main_slash	24	advance_on_keypress_SLASH	54	stimuli_distractor_diamondtriangles.svg	stimuli_target_squaretriangles.svg	15	yes	57	0	1687	6	1	antiphase_hc_iso.wav	2	6	2	noise_calib_stim_LEFT.wav	1	7	blb_dichoticlistening_da-ba.mp3	da	ba	1	left
6.6.1	mac	2023-06-02	05:31:00	05:45:18	855184	60130d613d3ca613b04d39bb	1	1	main_slash	24	main_slash	55	stimuli_target_diamondsquares.svg	stimuli_distractor_trianglediamonds.svg	20	yes	53	1	1024	6	1	antiphase_hc_iso.wav	2	6	2	noise_calib_stim_LEFT.wav	1	7	blb_dichoticlistening_da-ba.mp3	da	ba	1	left
6.6.1	mac	2023-06-02	05:31:00	05:45:18	855184	60130d613d3ca613b04d39bb	1	1	main_slash	24	advance_on_keypress_SLASH	56	stimuli_target_diamondsquares.svg	stimuli_distractor_trianglediamonds.svg	20	yes	57	0	1193	6	1	antiphase_hc_iso.wav	2	6	2	noise_calib_stim_LEFT.wav	1	7	blb_dichoticlistening_da-ba.mp3	da	ba	1	left
6.6.1	mac	2023-06-02	05:31:00	05:45:20	857890	60130d613d3ca613b04d39bb	1	1	main_slash	24	main_slash	57	stimuli_distractor_diamondtriangles.svg	stimuli_target_trianglesquares.svg	30	yes	53	1	882	6	1	antiphase_hc_iso.wav	2	6	2	noise_calib_stim_LEFT.wav	1	7	blb_dichoticlistening_da-ba.mp3	da	ba	1	left
6.6.1	mac	2023-06-02	05:31:00	05:45:20	857890	60130d613d3ca613b04d39bb	1	1	main_slash	24	advance_on_keypress_SLASH	58	stimuli_distractor_diamondtriangles.svg	stimuli_target_trianglesquares.svg	30	yes	57	0	1160	6	1	antiphase_hc_iso.wav	2	6	2	noise_calib_stim_LEFT.wav	1	7	blb_dichoticlistening_da-ba.mp3	da	ba	1	left
6.6.1	mac	2023-06-02	05:31:00	05:45:24	861691	60130d613d3ca613b04d39bb	1	1	main_slash	24	main_slash	59	stimuli_distractor_diamondtriangles.svg	stimuli_distractor_diamondtriangles.svg	39	no	0	1	2000	6	1	antiphase_hc_iso.wav	2	6	2	noise_calib_stim_LEFT.wav	1	7	blb_dichoticlistening_da-ba.mp3	da	ba	1	left
6.6.1	mac	2023-06-02	05:31:00	05:45:24	861691	60130d613d3ca613b04d39bb	1	1	main_slash	24	advance_on_keypress_SLASH	60	stimuli_distractor_diamondtriangles.svg	stimuli_distractor_diamondtriangles.svg	39	no	57	0	995	6	1	antiphase_hc_iso.wav	2	6	2	noise_calib_stim_LEFT.wav	1	7	blb_dichoticlistening_da-ba.mp3	da	ba	1	left
6.6.1	mac	2023-06-02	05:31:00	05:45:27	864079	60130d613d3ca613b04d39bb	1	1	main_slash	24	main_slash	61	stimuli_target_trianglerectangles.svg	stimuli_distractor_diamondtriangles.svg	21	yes	53	1	770	6	1	antiphase_hc_iso.wav	2	6	2	noise_calib_stim_LEFT.wav	1	7	blb_dichoticlistening_da-ba.mp3	da	ba	1	left
6.6.1	mac	2023-06-02	05:31:00	05:45:27	864079	60130d613d3ca613b04d39bb	1	1	main_slash	24	advance_on_keypress_SLASH	62	stimuli_target_trianglerectangles.svg	stimuli_distractor_diamondtriangles.svg	21	yes	57	0	1494	6	1	antiphase_hc_iso.wav	2	6	2	noise_calib_stim_LEFT.wav	1	7	blb_dichoticlistening_da-ba.mp3	da	ba	1	left
6.6.1	mac	2023-06-02	05:31:00	05:45:31	868208	60130d613d3ca613b04d39bb	1	1	main_slash	24	main_slash	63	stimuli_distractor_trianglediamonds.svg	stimuli_distractor_trianglediamonds.svg	34	no	0	1	2000	6	1	antiphase_hc_iso.wav	2	6	2	noise_calib_stim_LEFT.wav	1	7	blb_dichoticlistening_da-ba.mp3	da	ba	1	left
6.6.1	mac	2023-06-02	05:31:00	05:45:31	868208	60130d613d3ca613b04d39bb	1	1	main_slash	24	advance_on_keypress_SLASH	64	stimuli_distractor_trianglediamonds.svg	stimuli_distractor_trianglediamonds.svg	34	no	57	0	1095	6	1	antiphase_hc_iso.wav	2	6	2	noise_calib_stim_LEFT.wav	1	7	blb_dichoticlistening_da-ba.mp3	da	ba	1	left
6.6.1	mac	2023-06-02	05:31:00	05:45:33	870792	60130d613d3ca613b04d39bb	1	1	main_slash	24	main_slash	65	stimuli_target_squarediamonds.svg	stimuli_distractor_diamondtriangles.svg	8	yes	53	1	850	6	1	antiphase_hc_iso.wav	2	6	2	noise_calib_stim_LEFT.wav	1	7	blb_dichoticlistening_da-ba.mp3	da	ba	1	left
6.6.1	mac	2023-06-02	05:31:00	05:45:33	870792	60130d613d3ca613b04d39bb	1	1	main_slash	24	advance_on_keypress_SLASH	66	stimuli_target_squarediamonds.svg	stimuli_distractor_diamondtriangles.svg	8	yes	57	0	1608	6	1	antiphase_hc_iso.wav	2	6	2	noise_calib_stim_LEFT.wav	1	7	blb_dichoticlistening_da-ba.mp3	da	ba	1	left
6.6.1	mac	2023-06-02	05:31:00	05:45:38	875025	60130d613d3ca613b04d39bb	1	1	main_slash	24	main_slash	67	stimuli_distractor_diamondtriangles.svg	stimuli_distractor_trianglediamonds.svg	38	no	0	1	2000	6	1	antiphase_hc_iso.wav	2	6	2	noise_calib_stim_LEFT.wav	1	7	blb_dichoticlistening_da-ba.mp3	da	ba	1	left
6.6.1	mac	2023-06-02	05:31:00	05:45:38	875025	60130d613d3ca613b04d39bb	1	1	main_slash	24	advance_on_keypress_SLASH	68	stimuli_distractor_diamondtriangles.svg	stimuli_distractor_trianglediamonds.svg	38	no	57	0	801	6	1	antiphase_hc_iso.wav	2	6	2	noise_calib_stim_LEFT.wav	1	7	blb_dichoticlistening_da-ba.mp3	da	ba	1	left
6.6.1	mac	2023-06-02	05:31:00	05:45:40	877319	60130d613d3ca613b04d39bb	1	1	main_slash	24	main_slash	69	stimuli_distractor_diamondtriangles.svg	stimuli_target_diamondsquares.svg	32	yes	53	1	861	6	1	antiphase_hc_iso.wav	2	6	2	noise_calib_stim_LEFT.wav	1	7	blb_dichoticlistening_da-ba.mp3	da	ba	1	left
6.6.1	mac	2023-06-02	05:31:00	05:45:40	877319	60130d613d3ca613b04d39bb	1	1	main_slash	24	advance_on_keypress_SLASH	70	stimuli_distractor_diamondtriangles.svg	stimuli_target_diamondsquares.svg	32	yes	57	0	1513	6	1	antiphase_hc_iso.wav	2	6	2	noise_calib_stim_LEFT.wav	1	7	blb_dichoticlistening_da-ba.mp3	da	ba	1	left
6.6.1	mac	2023-06-02	05:31:00	05:45:43	880347	60130d613d3ca613b04d39bb	1	1	main_slash	24	main_slash	71	stimuli_target_diamondrectangles.svg	stimuli_distractor_diamondtriangles.svg	23	yes	53	1	888	6	1	antiphase_hc_iso.wav	2	6	2	noise_calib_stim_LEFT.wav	1	7	blb_dichoticlistening_da-ba.mp3	da	ba	1	left
6.6.1	mac	2023-06-02	05:31:00	05:45:43	880347	60130d613d3ca613b04d39bb	1	1	main_slash	24	advance_on_keypress_SLASH	72	stimuli_target_diamondrectangles.svg	stimuli_distractor_diamondtriangles.svg	23	yes	57	0	1250	6	1	antiphase_hc_iso.wav	2	6	2	noise_calib_stim_LEFT.wav	1	7	blb_dichoticlistening_da-ba.mp3	da	ba	1	left
6.6.1	mac	2023-06-02	05:31:00	05:45:46	883083	60130d613d3ca613b04d39bb	1	1	main_slash	24	main_slash	73	stimuli_distractor_diamondtriangles.svg	stimuli_target_diamondrectangles.svg	31	yes	53	1	858	6	1	antiphase_hc_iso.wav	2	6	2	noise_calib_stim_LEFT.wav	1	7	blb_dichoticlistening_da-ba.mp3	da	ba	1	left
6.6.1	mac	2023-06-02	05:31:00	05:45:46	883083	60130d613d3ca613b04d39bb	1	1	main_slash	24	advance_on_keypress_SLASH	74	stimuli_distractor_diamondtriangles.svg	stimuli_target_diamondrectangles.svg	31	yes	57	0	1046	6	1	antiphase_hc_iso.wav	2	6	2	noise_calib_stim_LEFT.wav	1	7	blb_dichoticlistening_da-ba.mp3	da	ba	1	left
6.6.1	mac	2023-06-02	05:31:00	05:45:48	885593	60130d613d3ca613b04d39bb	1	1	main_slash	24	main_slash	75	stimuli_target_squaretriangles.svg	stimuli_distractor_trianglediamonds.svg	3	yes	53	1	834	6	1	antiphase_hc_iso.wav	2	6	2	noise_calib_stim_LEFT.wav	1	7	blb_dichoticlistening_da-ba.mp3	da	ba	1	left
6.6.1	mac	2023-06-02	05:31:00	05:45:48	885593	60130d613d3ca613b04d39bb	1	1	main_slash	24	advance_on_keypress_SLASH	76	stimuli_target_squaretriangles.svg	stimuli_distractor_trianglediamonds.svg	3	yes	57	0	1631	6	1	antiphase_hc_iso.wav	2	6	2	noise_calib_stim_LEFT.wav	1	7	blb_dichoticlistening_da-ba.mp3	da	ba	1	left
6.6.1	mac	2023-06-02	05:31:00	05:45:52	889859	60130d613d3ca613b04d39bb	1	1	main_slash	24	main_slash	77	stimuli_distractor_trianglediamonds.svg	stimuli_distractor_diamondtriangles.svg	35	no	0	1	2000	6	1	antiphase_hc_iso.wav	2	6	2	noise_calib_stim_LEFT.wav	1	7	blb_dichoticlistening_da-ba.mp3	da	ba	1	left
6.6.1	mac	2023-06-02	05:31:00	05:45:52	889859	60130d613d3ca613b04d39bb	1	1	main_slash	24	advance_on_keypress_SLASH	78	stimuli_distractor_trianglediamonds.svg	stimuli_distractor_diamondtriangles.svg	35	no	57	0	730	6	1	antiphase_hc_iso.wav	2	6	2	noise_calib_stim_LEFT.wav	1	7	blb_dichoticlistening_da-ba.mp3	da	ba	1	left
6.6.1	mac	2023-06-02	05:31:00	05:45:54	891855	60130d613d3ca613b04d39bb	1	1	main_slash	24	main_slash	79	stimuli_distractor_diamondtriangles.svg	stimuli_target_rectanglediamonds.svg	14	yes	53	1	630	6	1	antiphase_hc_iso.wav	2	6	2	noise_calib_stim_LEFT.wav	1	7	blb_dichoticlistening_da-ba.mp3	da	ba	1	left
6.6.1	mac	2023-06-02	05:31:00	05:45:54	891855	60130d613d3ca613b04d39bb	1	1	main_slash	24	advance_on_keypress_SLASH	80	stimuli_distractor_diamondtriangles.svg	stimuli_target_rectanglediamonds.svg	14	yes	57	0	1593	6	1	antiphase_hc_iso.wav	2	6	2	noise_calib_stim_LEFT.wav	1	7	blb_dichoticlistening_da-ba.mp3	da	ba	1	left
6.6.1	mac	2023-06-02	05:31:00	05:45:57	894874	60130d613d3ca613b04d39bb	1	1	main_slash	24	main_slash	81	stimuli_target_squarediamonds.svg	stimuli_distractor_diamondtriangles.svg	8	yes	53	1	781	6	1	antiphase_hc_iso.wav	2	6	2	noise_calib_stim_LEFT.wav	1	7	blb_dichoticlistening_da-ba.mp3	da	ba	1	left
6.6.1	mac	2023-06-02	05:31:00	05:45:57	894874	60130d613d3ca613b04d39bb	1	1	main_slash	24	advance_on_keypress_SLASH	82	stimuli_target_squarediamonds.svg	stimuli_distractor_diamondtriangles.svg	8	yes	57	0	1568	6	1	antiphase_hc_iso.wav	2	6	2	noise_calib_stim_LEFT.wav	1	7	blb_dichoticlistening_da-ba.mp3	da	ba	1	left
6.6.1	mac	2023-06-02	05:31:00	05:46:00	897674	60130d613d3ca613b04d39bb	1	1	main_slash	24	main_slash	83	stimuli_distractor_trianglediamonds.svg	stimuli_target_trianglerectangles.svg	25	yes	53	1	600	6	1	antiphase_hc_iso.wav	2	6	2	noise_calib_stim_LEFT.wav	1	7	blb_dichoticlistening_da-ba.mp3	da	ba	1	left
6.6.1	mac	2023-06-02	05:31:00	05:46:00	897674	60130d613d3ca613b04d39bb	1	1	main_slash	24	advance_on_keypress_SLASH	84	stimuli_distractor_trianglediamonds.svg	stimuli_target_trianglerectangles.svg	25	yes	57	0	1388	6	1	antiphase_hc_iso.wav	2	6	2	noise_calib_stim_LEFT.wav	1	7	blb_dichoticlistening_da-ba.mp3	da	ba	1	left
6.6.1	mac	2023-06-02	05:31:00	05:46:03	900359	60130d613d3ca613b04d39bb	1	1	main_slash	24	main_slash	85	stimuli_distractor_diamondtriangles.svg	stimuli_target_diamondrectangles.svg	31	yes	53	1	667	6	1	antiphase_hc_iso.wav	2	6	2	noise_calib_stim_LEFT.wav	1	7	blb_dichoticlistening_da-ba.mp3	da	ba	1	left
6.6.1	mac	2023-06-02	05:31:00	05:46:03	900359	60130d613d3ca613b04d39bb	1	1	main_slash	24	advance_on_keypress_SLASH	86	stimuli_distractor_diamondtriangles.svg	stimuli_target_diamondrectangles.svg	31	yes	57	0	1400	6	1	antiphase_hc_iso.wav	2	6	2	noise_calib_stim_LEFT.wav	1	7	blb_dichoticlistening_da-ba.mp3	da	ba	1	left
6.6.1	mac	2023-06-02	05:31:00	05:46:06	903308	60130d613d3ca613b04d39bb	1	1	main_slash	24	main_slash	87	stimuli_target_diamondsquares.svg	stimuli_distractor_diamondtriangles.svg	24	yes	53	1	916	6	1	antiphase_hc_iso.wav	2	6	2	noise_calib_stim_LEFT.wav	1	7	blb_dichoticlistening_da-ba.mp3	da	ba	1	left
6.6.1	mac	2023-06-02	05:31:00	05:46:06	903308	60130d613d3ca613b04d39bb	1	1	main_slash	24	advance_on_keypress_SLASH	88	stimuli_target_diamondsquares.svg	stimuli_distractor_diamondtriangles.svg	24	yes	57	0	1579	6	1	antiphase_hc_iso.wav	2	6	2	noise_calib_stim_LEFT.wav	1	7	blb_dichoticlistening_da-ba.mp3	da	ba	1	left
6.6.1	mac	2023-06-02	05:31:00	05:46:09	906264	60130d613d3ca613b04d39bb	1	1	main_slash	24	main_slash	89	stimuli_target_rectangletriangles.svg	stimuli_distractor_trianglediamonds.svg	1	yes	53	1	739	6	1	antiphase_hc_iso.wav	2	6	2	noise_calib_stim_LEFT.wav	1	7	blb_dichoticlistening_da-ba.mp3	da	ba	1	left
6.6.1	mac	2023-06-02	05:31:00	05:46:09	906264	60130d613d3ca613b04d39bb	1	1	main_slash	24	advance_on_keypress_SLASH	90	stimuli_target_rectangletriangles.svg	stimuli_distractor_trianglediamonds.svg	1	yes	57	0	1422	6	1	antiphase_hc_iso.wav	2	6	2	noise_calib_stim_LEFT.wav	1	7	blb_dichoticlistening_da-ba.mp3	da	ba	1	left
6.6.1	mac	2023-06-02	05:31:00	05:46:11	908945	60130d613d3ca613b04d39bb	1	1	main_slash	24	main_slash	91	stimuli_distractor_trianglediamonds.svg	stimuli_target_diamondrectangles.svg	27	yes	53	1	636	6	1	antiphase_hc_iso.wav	2	6	2	noise_calib_stim_LEFT.wav	1	7	blb_dichoticlistening_da-ba.mp3	da	ba	1	left
6.6.1	mac	2023-06-02	05:31:00	05:46:11	908945	60130d613d3ca613b04d39bb	1	1	main_slash	24	advance_on_keypress_SLASH	92	stimuli_distractor_trianglediamonds.svg	stimuli_target_diamondrectangles.svg	27	yes	57	0	1425	6	1	antiphase_hc_iso.wav	2	6	2	noise_calib_stim_LEFT.wav	1	7	blb_dichoticlistening_da-ba.mp3	da	ba	1	left
6.6.1	mac	2023-06-02	05:31:00	05:46:14	911803	60130d613d3ca613b04d39bb	1	1	main_slash	24	main_slash	93	stimuli_target_rectanglediamonds.svg	stimuli_distractor_diamondtriangles.svg	6	yes	53	1	793	6	1	antiphase_hc_iso.wav	2	6	2	noise_calib_stim_LEFT.wav	1	7	blb_dichoticlistening_da-ba.mp3	da	ba	1	left
6.6.1	mac	2023-06-02	05:31:00	05:46:14	911803	60130d613d3ca613b04d39bb	1	1	main_slash	24	advance_on_keypress_SLASH	94	stimuli_target_rectanglediamonds.svg	stimuli_distractor_diamondtriangles.svg	6	yes	57	0	1102	6	1	antiphase_hc_iso.wav	2	6	2	noise_calib_stim_LEFT.wav	1	7	blb_dichoticlistening_da-ba.mp3	da	ba	1	left
6.6.1	mac	2023-06-02	05:31:00	05:46:17	914211	60130d613d3ca613b04d39bb	1	1	main_slash	24	main_slash	95	stimuli_distractor_diamondtriangles.svg	stimuli_target_trianglesquares.svg	30	yes	53	1	669	6	1	antiphase_hc_iso.wav	2	6	2	noise_calib_stim_LEFT.wav	1	7	blb_dichoticlistening_da-ba.mp3	da	ba	1	left
6.6.1	mac	2023-06-02	05:31:00	05:46:17	914211	60130d613d3ca613b04d39bb	1	1	main_slash	24	advance_on_keypress_SLASH	96	stimuli_distractor_diamondtriangles.svg	stimuli_target_trianglesquares.svg	30	yes	57	0	1201	6	1	antiphase_hc_iso.wav	2	6	2	noise_calib_stim_LEFT.wav	1	7	blb_dichoticlistening_da-ba.mp3	da	ba	1	left
6.6.1	mac	2023-06-02	05:31:00	05:46:21	918042	60130d613d3ca613b04d39bb	1	1	main_slash	24	main_slash	97	stimuli_distractor_trianglediamonds.svg	stimuli_distractor_trianglediamonds.svg	34	no	0	1	2000	6	1	antiphase_hc_iso.wav	2	6	2	noise_calib_stim_LEFT.wav	1	7	blb_dichoticlistening_da-ba.mp3	da	ba	1	left
6.6.1	mac	2023-06-02	05:31:00	05:46:21	918042	60130d613d3ca613b04d39bb	1	1	main_slash	24	advance_on_keypress_SLASH	98	stimuli_distractor_trianglediamonds.svg	stimuli_distractor_trianglediamonds.svg	34	no	57	0	860	6	1	antiphase_hc_iso.wav	2	6	2	noise_calib_stim_LEFT.wav	1	7	blb_dichoticlistening_da-ba.mp3	da	ba	1	left
6.6.1	mac	2023-06-02	05:31:00	05:46:23	920093	60130d613d3ca613b04d39bb	1	1	main_slash	24	main_slash	99	stimuli_target_diamondsquares.svg	stimuli_distractor_trianglediamonds.svg	20	yes	53	1	568	6	1	antiphase_hc_iso.wav	2	6	2	noise_calib_stim_LEFT.wav	1	7	blb_dichoticlistening_da-ba.mp3	da	ba	1	left
6.6.1	mac	2023-06-02	05:31:00	05:46:23	920093	60130d613d3ca613b04d39bb	1	1	main_slash	24	advance_on_keypress_SLASH	100	stimuli_target_diamondsquares.svg	stimuli_distractor_trianglediamonds.svg	20	yes	57	0	1111	6	1	antiphase_hc_iso.wav	2	6	2	noise_calib_stim_LEFT.wav	1	7	blb_dichoticlistening_da-ba.mp3	da	ba	1	left
6.6.1	mac	2023-06-02	05:31:00	05:46:25	922538	60130d613d3ca613b04d39bb	1	1	main_slash	24	main_slash	101	stimuli_distractor_trianglediamonds.svg	stimuli_target_squaretriangles.svg	11	yes	53	1	694	6	1	antiphase_hc_iso.wav	2	6	2	noise_calib_stim_LEFT.wav	1	7	blb_dichoticlistening_da-ba.mp3	da	ba	1	left
6.6.1	mac	2023-06-02	05:31:00	05:46:25	922538	60130d613d3ca613b04d39bb	1	1	main_slash	24	advance_on_keypress_SLASH	102	stimuli_distractor_trianglediamonds.svg	stimuli_target_squaretriangles.svg	11	yes	57	0	1166	6	1	antiphase_hc_iso.wav	2	6	2	noise_calib_stim_LEFT.wav	1	7	blb_dichoticlistening_da-ba.mp3	da	ba	1	left
6.6.1	mac	2023-06-02	05:31:00	05:46:27	924937	60130d613d3ca613b04d39bb	1	1	main_slash	24	main_slash	103	stimuli_distractor_diamondtriangles.svg	stimuli_target_diamondsquares.svg	32	yes	53	1	595	6	1	antiphase_hc_iso.wav	2	6	2	noise_calib_stim_LEFT.wav	1	7	blb_dichoticlistening_da-ba.mp3	da	ba	1	left
6.6.1	mac	2023-06-02	05:31:00	05:46:27	924937	60130d613d3ca613b04d39bb	1	1	main_slash	24	advance_on_keypress_SLASH	104	stimuli_distractor_diamondtriangles.svg	stimuli_target_diamondsquares.svg	32	yes	57	0	1080	6	1	antiphase_hc_iso.wav	2	6	2	noise_calib_stim_LEFT.wav	1	7	blb_dichoticlistening_da-ba.mp3	da	ba	1	left
6.6.1	mac	2023-06-02	05:31:00	05:46:31	928659	60130d613d3ca613b04d39bb	1	1	main_slash	24	main_slash	105	stimuli_distractor_trianglediamonds.svg	stimuli_distractor_diamondtriangles.svg	36	no	0	1	2000	6	1	antiphase_hc_iso.wav	2	6	2	noise_calib_stim_LEFT.wav	1	7	blb_dichoticlistening_da-ba.mp3	da	ba	1	left
6.6.1	mac	2023-06-02	05:31:00	05:46:31	928659	60130d613d3ca613b04d39bb	1	1	main_slash	24	advance_on_keypress_SLASH	106	stimuli_distractor_trianglediamonds.svg	stimuli_distractor_diamondtriangles.svg	36	no	57	0	717	6	1	antiphase_hc_iso.wav	2	6	2	noise_calib_stim_LEFT.wav	1	7	blb_dichoticlistening_da-ba.mp3	da	ba	1	left
6.6.1	mac	2023-06-02	05:31:00	05:46:33	930614	60130d613d3ca613b04d39bb	1	1	main_slash	24	main_slash	107	stimuli_distractor_trianglediamonds.svg	stimuli_target_rectangletriangles.svg	9	yes	53	1	604	6	1	antiphase_hc_iso.wav	2	6	2	noise_calib_stim_LEFT.wav	1	7	blb_dichoticlistening_da-ba.mp3	da	ba	1	left
6.6.1	mac	2023-06-02	05:31:00	05:46:33	930614	60130d613d3ca613b04d39bb	1	1	main_slash	24	advance_on_keypress_SLASH	108	stimuli_distractor_trianglediamonds.svg	stimuli_target_rectangletriangles.svg	9	yes	57	0	992	6	1	antiphase_hc_iso.wav	2	6	2	noise_calib_stim_LEFT.wav	1	7	blb_dichoticlistening_da-ba.mp3	da	ba	1	left
6.6.1	mac	2023-06-02	05:31:00	05:46:35	932993	60130d613d3ca613b04d39bb	1	1	main_slash	24	main_slash	109	stimuli_target_squaretriangles.svg	stimuli_distractor_trianglediamonds.svg	3	yes	53	1	750	6	1	antiphase_hc_iso.wav	2	6	2	noise_calib_stim_LEFT.wav	1	7	blb_dichoticlistening_da-ba.mp3	da	ba	1	left
6.6.1	mac	2023-06-02	05:31:00	05:46:35	932993	60130d613d3ca613b04d39bb	1	1	main_slash	24	advance_on_keypress_SLASH	110	stimuli_target_squaretriangles.svg	stimuli_distractor_trianglediamonds.svg	3	yes	57	0	1167	6	1	antiphase_hc_iso.wav	2	6	2	noise_calib_stim_LEFT.wav	1	7	blb_dichoticlistening_da-ba.mp3	da	ba	1	left
6.6.1	mac	2023-06-02	05:31:00	05:46:39	936793	60130d613d3ca613b04d39bb	1	1	main_slash	24	main_slash	111	stimuli_distractor_diamondtriangles.svg	stimuli_distractor_diamondtriangles.svg	40	no	0	1	2000	6	1	antiphase_hc_iso.wav	2	6	2	noise_calib_stim_LEFT.wav	1	7	blb_dichoticlistening_da-ba.mp3	da	ba	1	left
6.6.1	mac	2023-06-02	05:31:00	05:46:39	936793	60130d613d3ca613b04d39bb	1	1	main_slash	24	advance_on_keypress_SLASH	112	stimuli_distractor_diamondtriangles.svg	stimuli_distractor_diamondtriangles.svg	40	no	57	0	716	6	1	antiphase_hc_iso.wav	2	6	2	noise_calib_stim_LEFT.wav	1	7	blb_dichoticlistening_da-ba.mp3	da	ba	1	left
6.6.1	mac	2023-06-02	05:31:00	05:46:41	938784	60130d613d3ca613b04d39bb	1	1	main_slash	24	main_slash	113	stimuli_distractor_trianglediamonds.svg	stimuli_target_trianglesquares.svg	26	yes	53	1	641	6	1	antiphase_hc_iso.wav	2	6	2	noise_calib_stim_LEFT.wav	1	7	blb_dichoticlistening_da-ba.mp3	da	ba	1	left
6.6.1	mac	2023-06-02	05:31:00	05:46:41	938784	60130d613d3ca613b04d39bb	1	1	main_slash	24	advance_on_keypress_SLASH	114	stimuli_distractor_trianglediamonds.svg	stimuli_target_trianglesquares.svg	26	yes	57	0	1264	6	1	antiphase_hc_iso.wav	2	6	2	noise_calib_stim_LEFT.wav	1	7	blb_dichoticlistening_da-ba.mp3	da	ba	1	left
6.6.1	mac	2023-06-02	05:31:00	05:46:44	941307	60130d613d3ca613b04d39bb	1	1	main_slash	24	main_slash	115	stimuli_target_diamondrectangles.svg	stimuli_distractor_diamondtriangles.svg	23	yes	53	1	632	6	1	antiphase_hc_iso.wav	2	6	2	noise_calib_stim_LEFT.wav	1	7	blb_dichoticlistening_da-ba.mp3	da	ba	1	left
6.6.1	mac	2023-06-02	05:31:00	05:46:44	941307	60130d613d3ca613b04d39bb	1	1	main_slash	24	advance_on_keypress_SLASH	116	stimuli_target_diamondrectangles.svg	stimuli_distractor_diamondtriangles.svg	23	yes	57	0	1308	6	1	antiphase_hc_iso.wav	2	6	2	noise_calib_stim_LEFT.wav	1	7	blb_dichoticlistening_da-ba.mp3	da	ba	1	left
6.6.1	mac	2023-06-02	05:31:00	05:46:47	944005	60130d613d3ca613b04d39bb	1	1	main_slash	24	main_slash	117	stimuli_target_trianglesquares.svg	stimuli_distractor_diamondtriangles.svg	22	yes	53	1	762	6	1	antiphase_hc_iso.wav	2	6	2	noise_calib_stim_LEFT.wav	1	7	blb_dichoticlistening_da-ba.mp3	da	ba	1	left
6.6.1	mac	2023-06-02	05:31:00	05:46:47	944005	60130d613d3ca613b04d39bb	1	1	main_slash	24	advance_on_keypress_SLASH	118	stimuli_target_trianglesquares.svg	stimuli_distractor_diamondtriangles.svg	22	yes	57	0	1068	6	1	antiphase_hc_iso.wav	2	6	2	noise_calib_stim_LEFT.wav	1	7	blb_dichoticlistening_da-ba.mp3	da	ba	1	left
6.6.1	mac	2023-06-02	05:31:00	05:46:49	946411	60130d613d3ca613b04d39bb	1	1	main_slash	24	main_slash	119	stimuli_distractor_diamondtriangles.svg	stimuli_target_rectangletriangles.svg	13	yes	53	1	703	6	1	antiphase_hc_iso.wav	2	6	2	noise_calib_stim_LEFT.wav	1	7	blb_dichoticlistening_da-ba.mp3	da	ba	1	left
6.6.1	mac	2023-06-02	05:31:00	05:46:49	946411	60130d613d3ca613b04d39bb	1	1	main_slash	24	advance_on_keypress_SLASH	120	stimuli_distractor_diamondtriangles.svg	stimuli_target_rectangletriangles.svg	13	yes	57	0	1314	6	1	antiphase_hc_iso.wav	2	6	2	noise_calib_stim_LEFT.wav	1	7	blb_dichoticlistening_da-ba.mp3	da	ba	1	left
6.6.1	mac	2023-06-02	05:31:00	05:46:51	948992	60130d613d3ca613b04d39bb	1	1	main_slash	24	main_slash	121	stimuli_distractor_trianglediamonds.svg	stimuli_target_diamondsquares.svg	28	yes	53	1	633	6	1	antiphase_hc_iso.wav	2	6	2	noise_calib_stim_LEFT.wav	1	7	blb_dichoticlistening_da-ba.mp3	da	ba	1	left
6.6.1	mac	2023-06-02	05:31:00	05:46:51	948992	60130d613d3ca613b04d39bb	1	1	main_slash	24	advance_on_keypress_SLASH	122	stimuli_distractor_trianglediamonds.svg	stimuli_target_diamondsquares.svg	28	yes	57	0	1603	6	1	antiphase_hc_iso.wav	2	6	2	noise_calib_stim_LEFT.wav	1	7	blb_dichoticlistening_da-ba.mp3	da	ba	1	left
6.6.1	mac	2023-06-02	05:31:00	05:46:54	951851	60130d613d3ca613b04d39bb	1	1	main_slash	24	main_slash	123	stimuli_distractor_trianglediamonds.svg	stimuli_target_rectanglediamonds.svg	10	yes	53	1	625	6	1	antiphase_hc_iso.wav	2	6	2	noise_calib_stim_LEFT.wav	1	7	blb_dichoticlistening_da-ba.mp3	da	ba	1	left
6.6.1	mac	2023-06-02	05:31:00	05:46:54	951851	60130d613d3ca613b04d39bb	1	1	main_slash	24	advance_on_keypress_SLASH	124	stimuli_distractor_trianglediamonds.svg	stimuli_target_rectanglediamonds.svg	10	yes	57	0	1151	6	1	antiphase_hc_iso.wav	2	6	2	noise_calib_stim_LEFT.wav	1	7	blb_dichoticlistening_da-ba.mp3	da	ba	1	left
6.6.1	mac	2023-06-02	05:31:00	05:46:57	954192	60130d613d3ca613b04d39bb	1	1	main_slash	24	main_slash	125	stimuli_target_rectanglediamonds.svg	stimuli_distractor_trianglediamonds.svg	2	yes	53	1	567	6	1	antiphase_hc_iso.wav	2	6	2	noise_calib_stim_LEFT.wav	1	7	blb_dichoticlistening_da-ba.mp3	da	ba	1	left
6.6.1	mac	2023-06-02	05:31:00	05:46:57	954192	60130d613d3ca613b04d39bb	1	1	main_slash	24	advance_on_keypress_SLASH	126	stimuli_target_rectanglediamonds.svg	stimuli_distractor_trianglediamonds.svg	2	yes	57	0	1074	6	1	antiphase_hc_iso.wav	2	6	2	noise_calib_stim_LEFT.wav	1	7	blb_dichoticlistening_da-ba.mp3	da	ba	1	left
6.6.1	mac	2023-06-02	05:31:00	05:47:00	957893	60130d613d3ca613b04d39bb	1	1	main_slash	24	main_slash	127	stimuli_distractor_trianglediamonds.svg	stimuli_distractor_trianglediamonds.svg	33	no	0	1	2000	6	1	antiphase_hc_iso.wav	2	6	2	noise_calib_stim_LEFT.wav	1	7	blb_dichoticlistening_da-ba.mp3	da	ba	1	left
6.6.1	mac	2023-06-02	05:31:00	05:47:00	957893	60130d613d3ca613b04d39bb	1	1	main_slash	24	advance_on_keypress_SLASH	128	stimuli_distractor_trianglediamonds.svg	stimuli_distractor_trianglediamonds.svg	33	no	57	0	699	6	1	antiphase_hc_iso.wav	2	6	2	noise_calib_stim_LEFT.wav	1	7	blb_dichoticlistening_da-ba.mp3	da	ba	1	left
6.6.1	mac	2023-06-02	05:31:00	05:47:02	959747	60130d613d3ca613b04d39bb	1	1	main_slash	24	main_slash	129	stimuli_target_trianglerectangles.svg	stimuli_distractor_trianglediamonds.svg	17	yes	53	1	520	6	1	antiphase_hc_iso.wav	2	6	2	noise_calib_stim_LEFT.wav	1	7	blb_dichoticlistening_da-ba.mp3	da	ba	1	left
6.6.1	mac	2023-06-02	05:31:00	05:47:02	959747	60130d613d3ca613b04d39bb	1	1	main_slash	24	advance_on_keypress_SLASH	130	stimuli_target_trianglerectangles.svg	stimuli_distractor_trianglediamonds.svg	17	yes	57	0	838	6	1	antiphase_hc_iso.wav	2	6	2	noise_calib_stim_LEFT.wav	1	7	blb_dichoticlistening_da-ba.mp3	da	ba	1	left
6.6.1	mac	2023-06-02	05:31:00	05:47:04	961743	60130d613d3ca613b04d39bb	1	1	main_slash	24	main_slash	131	stimuli_target_trianglesquares.svg	stimuli_distractor_trianglediamonds.svg	18	yes	53	1	535	6	1	antiphase_hc_iso.wav	2	6	2	noise_calib_stim_LEFT.wav	1	7	blb_dichoticlistening_da-ba.mp3	da	ba	1	left
6.6.1	mac	2023-06-02	05:31:00	05:47:04	961743	60130d613d3ca613b04d39bb	1	1	main_slash	24	advance_on_keypress_SLASH	132	stimuli_target_trianglesquares.svg	stimuli_distractor_trianglediamonds.svg	18	yes	57	0	1200	6	1	antiphase_hc_iso.wav	2	6	2	noise_calib_stim_LEFT.wav	1	7	blb_dichoticlistening_da-ba.mp3	da	ba	1	left
6.6.1	mac	2023-06-02	05:31:00	05:47:07	964164	60130d613d3ca613b04d39bb	1	1	main_slash	24	main_slash	133	stimuli_distractor_diamondtriangles.svg	stimuli_target_squaretriangles.svg	15	yes	53	1	589	6	1	antiphase_hc_iso.wav	2	6	2	noise_calib_stim_LEFT.wav	1	7	blb_dichoticlistening_da-ba.mp3	da	ba	1	left
6.6.1	mac	2023-06-02	05:31:00	05:47:07	964164	60130d613d3ca613b04d39bb	1	1	main_slash	24	advance_on_keypress_SLASH	134	stimuli_distractor_diamondtriangles.svg	stimuli_target_squaretriangles.svg	15	yes	57	0	1083	6	1	antiphase_hc_iso.wav	2	6	2	noise_calib_stim_LEFT.wav	1	7	blb_dichoticlistening_da-ba.mp3	da	ba	1	left
6.6.1	mac	2023-06-02	05:31:00	05:47:09	966348	60130d613d3ca613b04d39bb	1	1	main_slash	24	main_slash	135	stimuli_distractor_trianglediamonds.svg	stimuli_target_squarediamonds.svg	12	yes	53	1	473	6	1	antiphase_hc_iso.wav	2	6	2	noise_calib_stim_LEFT.wav	1	7	blb_dichoticlistening_da-ba.mp3	da	ba	1	left
6.6.1	mac	2023-06-02	05:31:00	05:47:09	966348	60130d613d3ca613b04d39bb	1	1	main_slash	24	advance_on_keypress_SLASH	136	stimuli_distractor_trianglediamonds.svg	stimuli_target_squarediamonds.svg	12	yes	57	0	1140	6	1	antiphase_hc_iso.wav	2	6	2	noise_calib_stim_LEFT.wav	1	7	blb_dichoticlistening_da-ba.mp3	da	ba	1	left
6.6.1	mac	2023-06-02	05:31:00	05:47:13	970126	60130d613d3ca613b04d39bb	1	1	main_slash	24	main_slash	137	stimuli_distractor_diamondtriangles.svg	stimuli_distractor_trianglediamonds.svg	37	no	0	1	2000	6	1	antiphase_hc_iso.wav	2	6	2	noise_calib_stim_LEFT.wav	1	7	blb_dichoticlistening_da-ba.mp3	da	ba	1	left
6.6.1	mac	2023-06-02	05:31:00	05:47:13	970126	60130d613d3ca613b04d39bb	1	1	main_slash	24	advance_on_keypress_SLASH	138	stimuli_distractor_diamondtriangles.svg	stimuli_distractor_trianglediamonds.svg	37	no	57	0	823	6	1	antiphase_hc_iso.wav	2	6	2	noise_calib_stim_LEFT.wav	1	7	blb_dichoticlistening_da-ba.mp3	da	ba	1	left
6.6.1	mac	2023-06-02	05:31:00	05:47:15	972139	60130d613d3ca613b04d39bb	1	1	main_slash	24	main_slash	139	stimuli_distractor_diamondtriangles.svg	stimuli_target_trianglerectangles.svg	29	yes	53	1	564	6	1	antiphase_hc_iso.wav	2	6	2	noise_calib_stim_LEFT.wav	1	7	blb_dichoticlistening_da-ba.mp3	da	ba	1	left
6.6.1	mac	2023-06-02	05:31:00	05:47:15	972139	60130d613d3ca613b04d39bb	1	1	main_slash	24	advance_on_keypress_SLASH	140	stimuli_distractor_diamondtriangles.svg	stimuli_target_trianglerectangles.svg	29	yes	57	0	1189	6	1	antiphase_hc_iso.wav	2	6	2	noise_calib_stim_LEFT.wav	1	7	blb_dichoticlistening_da-ba.mp3	da	ba	1	left
6.6.1	mac	2023-06-02	05:31:00	05:47:18	975958	60130d613d3ca613b04d39bb	1	1	main_slash	24	main_slash	141	stimuli_distractor_diamondtriangles.svg	stimuli_distractor_diamondtriangles.svg	39	no	0	1	2000	6	1	antiphase_hc_iso.wav	2	6	2	noise_calib_stim_LEFT.wav	1	7	blb_dichoticlistening_da-ba.mp3	da	ba	1	left
6.6.1	mac	2023-06-02	05:31:00	05:47:18	975958	60130d613d3ca613b04d39bb	1	1	main_slash	24	advance_on_keypress_SLASH	142	stimuli_distractor_diamondtriangles.svg	stimuli_distractor_diamondtriangles.svg	39	no	57	0	680	6	1	antiphase_hc_iso.wav	2	6	2	noise_calib_stim_LEFT.wav	1	7	blb_dichoticlistening_da-ba.mp3	da	ba	1	left
6.6.1	mac	2023-06-02	05:31:00	05:47:20	977729	60130d613d3ca613b04d39bb	1	1	main_slash	24	main_slash	143	stimuli_distractor_diamondtriangles.svg	stimuli_target_squarediamonds.svg	16	yes	53	1	454	6	1	antiphase_hc_iso.wav	2	6	2	noise_calib_stim_LEFT.wav	1	7	blb_dichoticlistening_da-ba.mp3	da	ba	1	left
6.6.1	mac	2023-06-02	05:31:00	05:47:20	977729	60130d613d3ca613b04d39bb	1	1	main_slash	24	advance_on_keypress_SLASH	144	stimuli_distractor_diamondtriangles.svg	stimuli_target_squarediamonds.svg	16	yes	57	0	1188	6	1	antiphase_hc_iso.wav	2	6	2	noise_calib_stim_LEFT.wav	1	7	blb_dichoticlistening_da-ba.mp3	da	ba	1	left
6.6.1	mac	2023-06-02	05:31:00	05:47:24	981558	60130d613d3ca613b04d39bb	1	1	main_slash	24	main_slash	145	stimuli_distractor_diamondtriangles.svg	stimuli_distractor_trianglediamonds.svg	38	no	0	1	2000	6	1	antiphase_hc_iso.wav	2	6	2	noise_calib_stim_LEFT.wav	1	7	blb_dichoticlistening_da-ba.mp3	da	ba	1	left
6.6.1	mac	2023-06-02	05:31:00	05:47:24	981558	60130d613d3ca613b04d39bb	1	1	main_slash	24	advance_on_keypress_SLASH	146	stimuli_distractor_diamondtriangles.svg	stimuli_distractor_trianglediamonds.svg	38	no	57	0	690	6	1	antiphase_hc_iso.wav	2	6	2	noise_calib_stim_LEFT.wav	1	7	blb_dichoticlistening_da-ba.mp3	da	ba	1	left
6.6.1	mac	2023-06-02	05:31:00	05:47:26	983439	60130d613d3ca613b04d39bb	1	1	main_slash	24	main_slash	147	stimuli_target_squaretriangles.svg	stimuli_distractor_diamondtriangles.svg	7	yes	53	1	564	6	1	antiphase_hc_iso.wav	2	6	2	noise_calib_stim_LEFT.wav	1	7	blb_dichoticlistening_da-ba.mp3	da	ba	1	left
6.6.1	mac	2023-06-02	05:31:00	05:47:26	983439	60130d613d3ca613b04d39bb	1	1	main_slash	24	advance_on_keypress_SLASH	148	stimuli_target_squaretriangles.svg	stimuli_distractor_diamondtriangles.svg	7	yes	57	0	1131	6	1	antiphase_hc_iso.wav	2	6	2	noise_calib_stim_LEFT.wav	1	7	blb_dichoticlistening_da-ba.mp3	da	ba	1	left
6.6.1	mac	2023-06-02	05:31:00	05:47:28	985808	60130d613d3ca613b04d39bb	1	1	main_slash	24	main_slash	149	stimuli_target_squarediamonds.svg	stimuli_distractor_trianglediamonds.svg	4	yes	53	1	599	6	1	antiphase_hc_iso.wav	2	6	2	noise_calib_stim_LEFT.wav	1	7	blb_dichoticlistening_da-ba.mp3	da	ba	1	left
6.6.1	mac	2023-06-02	05:31:00	05:47:28	985808	60130d613d3ca613b04d39bb	1	1	main_slash	24	advance_on_keypress_SLASH	150	stimuli_target_squarediamonds.svg	stimuli_distractor_trianglediamonds.svg	4	yes	57	0	1301	6	1	antiphase_hc_iso.wav	2	6	2	noise_calib_stim_LEFT.wav	1	7	blb_dichoticlistening_da-ba.mp3	da	ba	1	left
6.6.1	mac	2023-06-02	05:31:00	05:47:31	988260	60130d613d3ca613b04d39bb	1	1	main_slash	24	main_slash	151	stimuli_distractor_diamondtriangles.svg	stimuli_target_rectanglediamonds.svg	14	yes	53	1	519	6	1	antiphase_hc_iso.wav	2	6	2	noise_calib_stim_LEFT.wav	1	7	blb_dichoticlistening_da-ba.mp3	da	ba	1	left
6.6.1	mac	2023-06-02	05:31:00	05:47:31	988260	60130d613d3ca613b04d39bb	1	1	main_slash	24	advance_on_keypress_SLASH	152	stimuli_distractor_diamondtriangles.svg	stimuli_target_rectanglediamonds.svg	14	yes	57	0	1351	6	1	antiphase_hc_iso.wav	2	6	2	noise_calib_stim_LEFT.wav	1	7	blb_dichoticlistening_da-ba.mp3	da	ba	1	left
6.6.1	mac	2023-06-02	05:31:00	05:47:33	990904	60130d613d3ca613b04d39bb	1	1	main_slash	24	main_slash	153	stimuli_target_rectangletriangles.svg	stimuli_distractor_diamondtriangles.svg	5	yes	53	1	662	6	1	antiphase_hc_iso.wav	2	6	2	noise_calib_stim_LEFT.wav	1	7	blb_dichoticlistening_da-ba.mp3	da	ba	1	left
6.6.1	mac	2023-06-02	05:31:00	05:47:33	990904	60130d613d3ca613b04d39bb	1	1	main_slash	24	advance_on_keypress_SLASH	154	stimuli_target_rectangletriangles.svg	stimuli_distractor_diamondtriangles.svg	5	yes	57	0	1490	6	1	antiphase_hc_iso.wav	2	6	2	noise_calib_stim_LEFT.wav	1	7	blb_dichoticlistening_da-ba.mp3	da	ba	1	left
6.6.1	mac	2023-06-02	05:31:00	05:47:38	995026	60130d613d3ca613b04d39bb	1	1	main_slash	24	main_slash	155	stimuli_distractor_trianglediamonds.svg	stimuli_distractor_diamondtriangles.svg	35	no	0	1	2000	6	1	antiphase_hc_iso.wav	2	6	2	noise_calib_stim_LEFT.wav	1	7	blb_dichoticlistening_da-ba.mp3	da	ba	1	left
6.6.1	mac	2023-06-02	05:31:00	05:47:38	995026	60130d613d3ca613b04d39bb	1	1	main_slash	24	advance_on_keypress_SLASH	156	stimuli_distractor_trianglediamonds.svg	stimuli_distractor_diamondtriangles.svg	35	no	57	0	938	6	1	antiphase_hc_iso.wav	2	6	2	noise_calib_stim_LEFT.wav	1	7	blb_dichoticlistening_da-ba.mp3	da	ba	1	left
6.6.1	mac	2023-06-02	05:31:00	05:47:40	997142	60130d613d3ca613b04d39bb	1	1	main_slash	24	main_slash	157	stimuli_target_trianglerectangles.svg	stimuli_distractor_diamondtriangles.svg	21	yes	53	1	551	6	1	antiphase_hc_iso.wav	2	6	2	noise_calib_stim_LEFT.wav	1	7	blb_dichoticlistening_da-ba.mp3	da	ba	1	left
6.6.1	mac	2023-06-02	05:31:00	05:47:40	997142	60130d613d3ca613b04d39bb	1	1	main_slash	24	advance_on_keypress_SLASH	158	stimuli_target_trianglerectangles.svg	stimuli_distractor_diamondtriangles.svg	21	yes	57	0	1163	6	1	antiphase_hc_iso.wav	2	6	2	noise_calib_stim_LEFT.wav	1	7	blb_dichoticlistening_da-ba.mp3	da	ba	1	left
6.6.1	mac	2023-06-02	05:31:00	05:47:42	999528	60130d613d3ca613b04d39bb	1	1	main_slash	24	main_slash	159	stimuli_target_diamondrectangles.svg	stimuli_distractor_trianglediamonds.svg	19	yes	53	1	586	6	1	antiphase_hc_iso.wav	2	6	2	noise_calib_stim_LEFT.wav	1	7	blb_dichoticlistening_da-ba.mp3	da	ba	1	left
6.6.1	mac	2023-06-02	05:31:00	05:47:42	999528	60130d613d3ca613b04d39bb	1	1	main_slash	24	advance_on_keypress_SLASH	160	stimuli_target_diamondrectangles.svg	stimuli_distractor_trianglediamonds.svg	19	yes	57	0	1458	6	1	antiphase_hc_iso.wav	2	6	2	noise_calib_stim_LEFT.wav	1	7	blb_dichoticlistening_da-ba.mp3	da	ba	1	left
6.6.1	mac	2023-06-02	05:31:00	05:48:07	1024238	60130d613d3ca613b04d39bb	1	1	practice_z	26	practice_z	1	stimuli_target_diamondsquares.svg	stimuli_distractor_trianglediamonds.svg	6	yes	44	1	528	6	1	antiphase_hc_iso.wav	2	6	2	noise_calib_stim_LEFT.wav	1	7	blb_dichoticlistening_da-ba.mp3	da	ba	1	left
6.6.1	mac	2023-06-02	05:31:00	05:48:07	1024238	60130d613d3ca613b04d39bb	1	1	practice_z	26	advance_on_keypress_ZEE	2	stimuli_target_diamondsquares.svg	stimuli_distractor_trianglediamonds.svg	6	yes	57	0	650	6	1	antiphase_hc_iso.wav	2	6	2	noise_calib_stim_LEFT.wav	1	7	blb_dichoticlistening_da-ba.mp3	da	ba	1	left
6.6.1	mac	2023-06-02	05:31:00	05:48:09	1026976	60130d613d3ca613b04d39bb	1	1	practice_z	26	practice_z	3	stimuli_distractor_diamondtriangles.svg	stimuli_target_diamondrectangles.svg	8	yes	44	1	451	6	1	antiphase_hc_iso.wav	2	6	2	noise_calib_stim_LEFT.wav	1	7	blb_dichoticlistening_da-ba.mp3	da	ba	1	left
6.6.1	mac	2023-06-02	05:31:00	05:48:09	1026976	60130d613d3ca613b04d39bb	1	1	practice_z	26	advance_on_keypress_ZEE	4	stimuli_distractor_diamondtriangles.svg	stimuli_target_diamondrectangles.svg	8	yes	57	0	614	6	1	antiphase_hc_iso.wav	2	6	2	noise_calib_stim_LEFT.wav	1	7	blb_dichoticlistening_da-ba.mp3	da	ba	1	left
6.6.1	mac	2023-06-02	05:31:00	05:48:12	1029701	60130d613d3ca613b04d39bb	1	1	practice_z	26	practice_z	5	stimuli_target_rectanglediamonds.svg	stimuli_distractor_diamondtriangles.svg	1	yes	44	1	476	6	1	antiphase_hc_iso.wav	2	6	2	noise_calib_stim_LEFT.wav	1	7	blb_dichoticlistening_da-ba.mp3	da	ba	1	left
6.6.1	mac	2023-06-02	05:31:00	05:48:12	1029701	60130d613d3ca613b04d39bb	1	1	practice_z	26	advance_on_keypress_ZEE	6	stimuli_target_rectanglediamonds.svg	stimuli_distractor_diamondtriangles.svg	1	yes	57	0	139	6	1	antiphase_hc_iso.wav	2	6	2	noise_calib_stim_LEFT.wav	1	7	blb_dichoticlistening_da-ba.mp3	da	ba	1	left
6.6.1	mac	2023-06-02	05:31:00	05:48:15	1032032	60130d613d3ca613b04d39bb	1	1	practice_z	26	practice_z	7	stimuli_target_diamondsquares.svg	stimuli_distractor_diamondtriangles.svg	3	yes	44	1	556	6	1	antiphase_hc_iso.wav	2	6	2	noise_calib_stim_LEFT.wav	1	7	blb_dichoticlistening_da-ba.mp3	da	ba	1	left
6.6.1	mac	2023-06-02	05:31:00	05:48:15	1032032	60130d613d3ca613b04d39bb	1	1	practice_z	26	advance_on_keypress_ZEE	8	stimuli_target_diamondsquares.svg	stimuli_distractor_diamondtriangles.svg	3	yes	57	0	457	6	1	antiphase_hc_iso.wav	2	6	2	noise_calib_stim_LEFT.wav	1	7	blb_dichoticlistening_da-ba.mp3	da	ba	1	left
6.6.1	mac	2023-06-02	05:31:00	05:48:17	1034608	60130d613d3ca613b04d39bb	1	1	practice_z	26	practice_z	9	stimuli_distractor_diamondtriangles.svg	stimuli_target_rectangletriangles.svg	7	yes	44	1	483	6	1	antiphase_hc_iso.wav	2	6	2	noise_calib_stim_LEFT.wav	1	7	blb_dichoticlistening_da-ba.mp3	da	ba	1	left
6.6.1	mac	2023-06-02	05:31:00	05:48:17	1034608	60130d613d3ca613b04d39bb	1	1	practice_z	26	advance_on_keypress_ZEE	10	stimuli_distractor_diamondtriangles.svg	stimuli_target_rectangletriangles.svg	7	yes	57	0	520	6	1	antiphase_hc_iso.wav	2	6	2	noise_calib_stim_LEFT.wav	1	7	blb_dichoticlistening_da-ba.mp3	da	ba	1	left
6.6.1	mac	2023-06-02	05:31:00	05:48:20	1037556	60130d613d3ca613b04d39bb	1	1	practice_z	26	practice_z	11	stimuli_target_squarediamonds.svg	stimuli_distractor_trianglediamonds.svg	5	yes	44	1	798	6	1	antiphase_hc_iso.wav	2	6	2	noise_calib_stim_LEFT.wav	1	7	blb_dichoticlistening_da-ba.mp3	da	ba	1	left
6.6.1	mac	2023-06-02	05:31:00	05:48:20	1037556	60130d613d3ca613b04d39bb	1	1	practice_z	26	advance_on_keypress_ZEE	12	stimuli_target_squarediamonds.svg	stimuli_distractor_trianglediamonds.svg	5	yes	57	0	1139	6	1	antiphase_hc_iso.wav	2	6	2	noise_calib_stim_LEFT.wav	1	7	blb_dichoticlistening_da-ba.mp3	da	ba	1	left
6.6.1	mac	2023-06-02	05:31:00	05:48:23	1040915	60130d613d3ca613b04d39bb	1	1	practice_z	26	practice_z	13	stimuli_target_squarediamonds.svg	stimuli_distractor_diamondtriangles.svg	2	yes	44	1	587	6	1	antiphase_hc_iso.wav	2	6	2	noise_calib_stim_LEFT.wav	1	7	blb_dichoticlistening_da-ba.mp3	da	ba	1	left
6.6.1	mac	2023-06-02	05:31:00	05:48:23	1040915	60130d613d3ca613b04d39bb	1	1	practice_z	26	advance_on_keypress_ZEE	14	stimuli_target_squarediamonds.svg	stimuli_distractor_diamondtriangles.svg	2	yes	57	0	585	6	1	antiphase_hc_iso.wav	2	6	2	noise_calib_stim_LEFT.wav	1	7	blb_dichoticlistening_da-ba.mp3	da	ba	1	left
6.6.1	mac	2023-06-02	05:31:00	05:48:26	1043954	60130d613d3ca613b04d39bb	1	1	practice_z	26	practice_z	15	stimuli_distractor_diamondtriangles.svg	stimuli_target_trianglerectangles.svg	9	yes	44	1	827	6	1	antiphase_hc_iso.wav	2	6	2	noise_calib_stim_LEFT.wav	1	7	blb_dichoticlistening_da-ba.mp3	da	ba	1	left
6.6.1	mac	2023-06-02	05:31:00	05:48:26	1043954	60130d613d3ca613b04d39bb	1	1	practice_z	26	advance_on_keypress_ZEE	16	stimuli_distractor_diamondtriangles.svg	stimuli_target_trianglerectangles.svg	9	yes	57	0	729	6	1	antiphase_hc_iso.wav	2	6	2	noise_calib_stim_LEFT.wav	1	7	blb_dichoticlistening_da-ba.mp3	da	ba	1	left
