build	computer.platform	date	time	timestamp	time_elapsed_ms	subject	group	session	blockcode	blocknum	trialcode	trialnum	stimulus_left	stimulus_right	stim_index	target_present	response	correct	latency	headphonecheck_countTestTrials	headphonecheck_index	headphonecheck_testSound	headphonecheck_correctResponse	stereocheck_countTestTrials	stereocheck_index	stereocheck_testSound	stereocheck_correctResponse	DL_index	DL_soundfile	DL_leftSound	DL_rightSound	DL_dualSound	DL_choice
6.6.1	win	2023-06-02	07:25:35	07:28:27	166784	59aae1188cef7d00011f8884	3	1	practice_slash	5	practice_slash	1	stimuli_distractor_trianglediamonds.svg	stimuli_target_rectanglediamonds.svg	10	yes	53	1	685	0	0			0	0			1				0	
6.6.1	win	2023-06-02	07:25:35	07:28:27	166784	59aae1188cef7d00011f8884	3	1	practice_slash	5	advance_on_keypress_SLASH	2	stimuli_distractor_trianglediamonds.svg	stimuli_target_rectanglediamonds.svg	10	yes	57	0	2551	0	0			0	0			1				0	
6.6.1	win	2023-06-02	07:25:35	07:28:33	172978	59aae1188cef7d00011f8884	3	1	practice_slash	5	practice_slash	3	stimuli_distractor_diamondtriangles.svg	stimuli_distractor_trianglediamonds.svg	14	no	0	1	2000	0	0			0	0			1				0	
6.6.1	win	2023-06-02	07:25:35	07:28:33	172978	59aae1188cef7d00011f8884	3	1	practice_slash	5	advance_on_keypress_SLASH	4	stimuli_distractor_diamondtriangles.svg	stimuli_distractor_trianglediamonds.svg	14	no	57	0	1185	0	0			0	0			1				0	
6.6.1	win	2023-06-02	07:25:35	07:28:37	176456	59aae1188cef7d00011f8884	3	1	practice_slash	5	practice_slash	5	stimuli_distractor_diamondtriangles.svg	stimuli_target_trianglerectangles.svg	9	yes	53	1	649	0	0			0	0			1				0	
6.6.1	win	2023-06-02	07:25:35	07:28:37	176456	59aae1188cef7d00011f8884	3	1	practice_slash	5	advance_on_keypress_SLASH	6	stimuli_distractor_diamondtriangles.svg	stimuli_target_trianglerectangles.svg	9	yes	57	0	958	0	0			0	0			1				0	
6.6.1	win	2023-06-02	07:25:35	07:28:40	179856	59aae1188cef7d00011f8884	3	1	practice_slash	5	practice_slash	7	stimuli_target_diamondsquares.svg	stimuli_distractor_trianglediamonds.svg	6	yes	53	1	784	0	0			0	0			1				0	
6.6.1	win	2023-06-02	07:25:35	07:28:40	179856	59aae1188cef7d00011f8884	3	1	practice_slash	5	advance_on_keypress_SLASH	8	stimuli_target_diamondsquares.svg	stimuli_distractor_trianglediamonds.svg	6	yes	57	0	424	0	0			0	0			1				0	
6.6.1	win	2023-06-02	07:25:35	07:28:43	182803	59aae1188cef7d00011f8884	3	1	practice_slash	5	practice_slash	9	stimuli_distractor_trianglediamonds.svg	stimuli_target_squarediamonds.svg	11	yes	53	1	868	0	0			0	0			1				0	
6.6.1	win	2023-06-02	07:25:35	07:28:43	182803	59aae1188cef7d00011f8884	3	1	practice_slash	5	advance_on_keypress_SLASH	10	stimuli_distractor_trianglediamonds.svg	stimuli_target_squarediamonds.svg	11	yes	57	0	424	0	0			0	0			1				0	
6.6.1	win	2023-06-02	07:25:35	07:28:47	186867	59aae1188cef7d00011f8884	3	1	practice_slash	5	practice_slash	11	stimuli_distractor_trianglediamonds.svg	stimuli_distractor_diamondtriangles.svg	16	no	0	1	2000	0	0			0	0			1				0	
6.6.1	win	2023-06-02	07:25:35	07:28:47	186867	59aae1188cef7d00011f8884	3	1	practice_slash	5	advance_on_keypress_SLASH	12	stimuli_distractor_trianglediamonds.svg	stimuli_distractor_diamondtriangles.svg	16	no	57	0	406	0	0			0	0			1				0	
6.6.1	win	2023-06-02	07:25:35	07:28:51	190912	59aae1188cef7d00011f8884	3	1	practice_slash	5	practice_slash	13	stimuli_distractor_diamondtriangles.svg	stimuli_distractor_diamondtriangles.svg	13	no	0	1	2000	0	0			0	0			1				0	
6.6.1	win	2023-06-02	07:25:35	07:28:51	190912	59aae1188cef7d00011f8884	3	1	practice_slash	5	advance_on_keypress_SLASH	14	stimuli_distractor_diamondtriangles.svg	stimuli_distractor_diamondtriangles.svg	13	no	57	0	350	0	0			0	0			1				0	
6.6.1	win	2023-06-02	07:25:35	07:28:55	194909	59aae1188cef7d00011f8884	3	1	practice_slash	5	practice_slash	15	stimuli_distractor_trianglediamonds.svg	stimuli_distractor_trianglediamonds.svg	15	no	0	1	2000	0	0			0	0			1				0	
6.6.1	win	2023-06-02	07:25:35	07:28:55	194909	59aae1188cef7d00011f8884	3	1	practice_slash	5	advance_on_keypress_SLASH	16	stimuli_distractor_trianglediamonds.svg	stimuli_distractor_trianglediamonds.svg	15	no	57	0	454	0	0			0	0			1				0	
6.6.1	win	2023-06-02	07:25:35	07:28:58	197709	59aae1188cef7d00011f8884	3	1	practice_slash	5	practice_slash	17	stimuli_target_diamondsquares.svg	stimuli_distractor_diamondtriangles.svg	3	yes	53	1	704	0	0			0	0			1				0	
6.6.1	win	2023-06-02	07:25:35	07:28:58	197709	59aae1188cef7d00011f8884	3	1	practice_slash	5	advance_on_keypress_SLASH	18	stimuli_target_diamondsquares.svg	stimuli_distractor_diamondtriangles.svg	3	yes	57	0	465	0	0			0	0			1				0	
6.6.1	win	2023-06-02	07:25:35	07:29:01	200518	59aae1188cef7d00011f8884	3	1	practice_slash	5	practice_slash	19	stimuli_target_rectanglediamonds.svg	stimuli_distractor_trianglediamonds.svg	4	yes	53	1	697	0	0			0	0			1				0	
6.6.1	win	2023-06-02	07:25:35	07:29:01	200518	59aae1188cef7d00011f8884	3	1	practice_slash	5	advance_on_keypress_SLASH	20	stimuli_target_rectanglediamonds.svg	stimuli_distractor_trianglediamonds.svg	4	yes	57	0	386	0	0			0	0			1				0	
6.6.1	win	2023-06-02	07:25:35	07:29:04	203181	59aae1188cef7d00011f8884	3	1	practice_slash	5	practice_slash	21	stimuli_target_rectanglediamonds.svg	stimuli_distractor_diamondtriangles.svg	1	yes	53	1	631	0	0			0	0			1				0	
6.6.1	win	2023-06-02	07:25:35	07:29:04	203181	59aae1188cef7d00011f8884	3	1	practice_slash	5	advance_on_keypress_SLASH	22	stimuli_target_rectanglediamonds.svg	stimuli_distractor_diamondtriangles.svg	1	yes	57	0	324	0	0			0	0			1				0	
6.6.1	win	2023-06-02	07:25:35	07:29:07	206510	59aae1188cef7d00011f8884	3	1	practice_slash	5	practice_slash	23	stimuli_distractor_diamondtriangles.svg	stimuli_target_rectangletriangles.svg	7	yes	53	1	1344	0	0			0	0			1				0	
6.6.1	win	2023-06-02	07:25:35	07:29:07	206510	59aae1188cef7d00011f8884	3	1	practice_slash	5	advance_on_keypress_SLASH	24	stimuli_distractor_diamondtriangles.svg	stimuli_target_rectangletriangles.svg	7	yes	57	0	262	0	0			0	0			1				0	
6.6.1	win	2023-06-02	07:25:35	07:29:10	209180	59aae1188cef7d00011f8884	3	1	practice_slash	5	practice_slash	25	stimuli_distractor_diamondtriangles.svg	stimuli_target_diamondrectangles.svg	8	yes	53	1	751	0	0			0	0			1				0	
6.6.1	win	2023-06-02	07:25:35	07:29:10	209180	59aae1188cef7d00011f8884	3	1	practice_slash	5	advance_on_keypress_SLASH	26	stimuli_distractor_diamondtriangles.svg	stimuli_target_diamondrectangles.svg	8	yes	57	0	353	0	0			0	0			1				0	
6.6.1	win	2023-06-02	07:25:35	07:29:12	211847	59aae1188cef7d00011f8884	3	1	practice_slash	5	practice_slash	27	stimuli_distractor_trianglediamonds.svg	stimuli_target_diamondrectangles.svg	12	yes	53	1	671	0	0			0	0			1				0	
6.6.1	win	2023-06-02	07:25:35	07:29:12	211847	59aae1188cef7d00011f8884	3	1	practice_slash	5	advance_on_keypress_SLASH	28	stimuli_distractor_trianglediamonds.svg	stimuli_target_diamondrectangles.svg	12	yes	57	0	613	0	0			0	0			1				0	
6.6.1	win	2023-06-02	07:25:35	07:29:15	214747	59aae1188cef7d00011f8884	3	1	practice_slash	5	practice_slash	29	stimuli_target_squarediamonds.svg	stimuli_distractor_trianglediamonds.svg	5	yes	53	1	640	0	0			0	0			1				0	
6.6.1	win	2023-06-02	07:25:35	07:29:15	214747	59aae1188cef7d00011f8884	3	1	practice_slash	5	advance_on_keypress_SLASH	30	stimuli_target_squarediamonds.svg	stimuli_distractor_trianglediamonds.svg	5	yes	57	0	370	0	0			0	0			1				0	
6.6.1	win	2023-06-02	07:25:35	07:29:18	217404	59aae1188cef7d00011f8884	3	1	practice_slash	5	practice_slash	31	stimuli_target_squarediamonds.svg	stimuli_distractor_diamondtriangles.svg	2	yes	53	1	648	0	0			0	0			1				0	
6.6.1	win	2023-06-02	07:25:35	07:29:18	217404	59aae1188cef7d00011f8884	3	1	practice_slash	5	advance_on_keypress_SLASH	32	stimuli_target_squarediamonds.svg	stimuli_distractor_diamondtriangles.svg	2	yes	57	0	411	0	0			0	0			1				0	
6.6.1	win	2023-06-02	07:25:35	07:29:42	241465	59aae1188cef7d00011f8884	3	1	main_slash	7	main_slash	1	stimuli_target_squaretriangles.svg	stimuli_distractor_trianglediamonds.svg	3	yes	53	1	600	0	0			0	0			1				0	
6.6.1	win	2023-06-02	07:25:35	07:29:42	241465	59aae1188cef7d00011f8884	3	1	main_slash	7	advance_on_keypress_SLASH	2	stimuli_target_squaretriangles.svg	stimuli_distractor_trianglediamonds.svg	3	yes	57	0	2497	0	0			0	0			1				0	
6.6.1	win	2023-06-02	07:25:35	07:29:46	245253	59aae1188cef7d00011f8884	3	1	main_slash	7	main_slash	3	stimuli_target_squarediamonds.svg	stimuli_distractor_trianglediamonds.svg	4	yes	53	1	642	0	0			0	0			1				0	
6.6.1	win	2023-06-02	07:25:35	07:29:46	245253	59aae1188cef7d00011f8884	3	1	main_slash	7	advance_on_keypress_SLASH	4	stimuli_target_squarediamonds.svg	stimuli_distractor_trianglediamonds.svg	4	yes	57	0	785	0	0			0	0			1				0	
6.6.1	win	2023-06-02	07:25:35	07:29:48	247192	59aae1188cef7d00011f8884	3	1	main_slash	7	main_slash	5	stimuli_distractor_trianglediamonds.svg	stimuli_target_rectanglediamonds.svg	10	yes	53	1	502	0	0			0	0			1				0	
6.6.1	win	2023-06-02	07:25:35	07:29:48	247192	59aae1188cef7d00011f8884	3	1	main_slash	7	advance_on_keypress_SLASH	6	stimuli_distractor_trianglediamonds.svg	stimuli_target_rectanglediamonds.svg	10	yes	57	0	477	0	0			0	0			1				0	
6.6.1	win	2023-06-02	07:25:35	07:29:49	248969	59aae1188cef7d00011f8884	3	1	main_slash	7	main_slash	7	stimuli_target_squaretriangles.svg	stimuli_distractor_diamondtriangles.svg	7	yes	53	1	661	0	0			0	0			1				0	
6.6.1	win	2023-06-02	07:25:35	07:29:49	248969	59aae1188cef7d00011f8884	3	1	main_slash	7	advance_on_keypress_SLASH	8	stimuli_target_squaretriangles.svg	stimuli_distractor_diamondtriangles.svg	7	yes	57	0	442	0	0			0	0			1				0	
6.6.1	win	2023-06-02	07:25:35	07:29:51	250645	59aae1188cef7d00011f8884	3	1	main_slash	7	main_slash	9	stimuli_distractor_diamondtriangles.svg	stimuli_target_trianglesquares.svg	30	yes	53	1	604	0	0			0	0			1				0	
6.6.1	win	2023-06-02	07:25:35	07:29:51	250645	59aae1188cef7d00011f8884	3	1	main_slash	7	advance_on_keypress_SLASH	10	stimuli_distractor_diamondtriangles.svg	stimuli_target_trianglesquares.svg	30	yes	57	0	676	0	0			0	0			1				0	
6.6.1	win	2023-06-02	07:25:35	07:29:53	252556	59aae1188cef7d00011f8884	3	1	main_slash	7	main_slash	11	stimuli_distractor_trianglediamonds.svg	stimuli_target_rectangletriangles.svg	9	yes	53	1	601	0	0			0	0			1				0	
6.6.1	win	2023-06-02	07:25:35	07:29:53	252556	59aae1188cef7d00011f8884	3	1	main_slash	7	advance_on_keypress_SLASH	12	stimuli_distractor_trianglediamonds.svg	stimuli_target_rectangletriangles.svg	9	yes	57	0	1384	0	0			0	0			1				0	
6.6.1	win	2023-06-02	07:25:35	07:29:56	255782	59aae1188cef7d00011f8884	3	1	main_slash	7	main_slash	13	stimuli_target_diamondrectangles.svg	stimuli_distractor_diamondtriangles.svg	23	yes	53	1	1195	0	0			0	0			1				0	
6.6.1	win	2023-06-02	07:25:35	07:29:56	255782	59aae1188cef7d00011f8884	3	1	main_slash	7	advance_on_keypress_SLASH	14	stimuli_target_diamondrectangles.svg	stimuli_distractor_diamondtriangles.svg	23	yes	57	0	772	0	0			0	0			1				0	
6.6.1	win	2023-06-02	07:25:35	07:29:58	257941	59aae1188cef7d00011f8884	3	1	main_slash	7	main_slash	15	stimuli_distractor_diamondtriangles.svg	stimuli_target_trianglerectangles.svg	29	yes	53	1	740	0	0			0	0			1				0	
6.6.1	win	2023-06-02	07:25:35	07:29:58	257941	59aae1188cef7d00011f8884	3	1	main_slash	7	advance_on_keypress_SLASH	16	stimuli_distractor_diamondtriangles.svg	stimuli_target_trianglerectangles.svg	29	yes	57	0	567	0	0			0	0			1				0	
6.6.1	win	2023-06-02	07:25:35	07:30:01	261149	59aae1188cef7d00011f8884	3	1	main_slash	7	main_slash	17	stimuli_distractor_diamondtriangles.svg	stimuli_distractor_diamondtriangles.svg	40	no	0	1	2000	0	0			0	0			1				0	
6.6.1	win	2023-06-02	07:25:35	07:30:01	261149	59aae1188cef7d00011f8884	3	1	main_slash	7	advance_on_keypress_SLASH	18	stimuli_distractor_diamondtriangles.svg	stimuli_distractor_diamondtriangles.svg	40	no	57	0	613	0	0			0	0			1				0	
6.6.1	win	2023-06-02	07:25:35	07:30:03	262993	59aae1188cef7d00011f8884	3	1	main_slash	7	main_slash	19	stimuli_distractor_diamondtriangles.svg	stimuli_target_diamondsquares.svg	32	yes	53	1	580	0	0			0	0			1				0	
6.6.1	win	2023-06-02	07:25:35	07:30:03	262993	59aae1188cef7d00011f8884	3	1	main_slash	7	advance_on_keypress_SLASH	20	stimuli_distractor_diamondtriangles.svg	stimuli_target_diamondsquares.svg	32	yes	57	0	739	0	0			0	0			1				0	
6.6.1	win	2023-06-02	07:25:35	07:30:07	266378	59aae1188cef7d00011f8884	3	1	main_slash	7	main_slash	21	stimuli_distractor_trianglediamonds.svg	stimuli_distractor_trianglediamonds.svg	34	no	0	1	2000	0	0			0	0			1				0	
6.6.1	win	2023-06-02	07:25:35	07:30:07	266378	59aae1188cef7d00011f8884	3	1	main_slash	7	advance_on_keypress_SLASH	22	stimuli_distractor_trianglediamonds.svg	stimuli_distractor_trianglediamonds.svg	34	no	57	0	451	0	0			0	0			1				0	
6.6.1	win	2023-06-02	07:25:35	07:30:08	268150	59aae1188cef7d00011f8884	3	1	main_slash	7	main_slash	23	stimuli_distractor_diamondtriangles.svg	stimuli_target_diamondrectangles.svg	31	yes	53	1	676	0	0			0	0			1				0	
6.6.1	win	2023-06-02	07:25:35	07:30:08	268150	59aae1188cef7d00011f8884	3	1	main_slash	7	advance_on_keypress_SLASH	24	stimuli_distractor_diamondtriangles.svg	stimuli_target_diamondrectangles.svg	31	yes	57	0	513	0	0			0	0			1				0	
6.6.1	win	2023-06-02	07:25:35	07:30:12	271307	59aae1188cef7d00011f8884	3	1	main_slash	7	main_slash	25	stimuli_distractor_diamondtriangles.svg	stimuli_distractor_diamondtriangles.svg	39	no	0	1	2000	0	0			0	0			1				0	
6.6.1	win	2023-06-02	07:25:35	07:30:12	271307	59aae1188cef7d00011f8884	3	1	main_slash	7	advance_on_keypress_SLASH	26	stimuli_distractor_diamondtriangles.svg	stimuli_distractor_diamondtriangles.svg	39	no	57	0	292	0	0			0	0			1				0	
6.6.1	win	2023-06-02	07:25:35	07:30:13	272897	59aae1188cef7d00011f8884	3	1	main_slash	7	main_slash	27	stimuli_distractor_diamondtriangles.svg	stimuli_target_rectanglediamonds.svg	14	yes	53	1	659	0	0			0	0			1				0	
6.6.1	win	2023-06-02	07:25:35	07:30:13	272897	59aae1188cef7d00011f8884	3	1	main_slash	7	advance_on_keypress_SLASH	28	stimuli_distractor_diamondtriangles.svg	stimuli_target_rectanglediamonds.svg	14	yes	57	0	560	0	0			0	0			1				0	
6.6.1	win	2023-06-02	07:25:35	07:30:15	274624	59aae1188cef7d00011f8884	3	1	main_slash	7	main_slash	29	stimuli_target_rectangletriangles.svg	stimuli_distractor_trianglediamonds.svg	1	yes	53	1	538	0	0			0	0			1				0	
6.6.1	win	2023-06-02	07:25:35	07:30:15	274624	59aae1188cef7d00011f8884	3	1	main_slash	7	advance_on_keypress_SLASH	30	stimuli_target_rectangletriangles.svg	stimuli_distractor_trianglediamonds.svg	1	yes	57	0	446	0	0			0	0			1				0	
6.6.1	win	2023-06-02	07:25:35	07:30:17	276654	59aae1188cef7d00011f8884	3	1	main_slash	7	main_slash	31	stimuli_target_trianglesquares.svg	stimuli_distractor_diamondtriangles.svg	22	yes	53	1	937	0	0			0	0			1				0	
6.6.1	win	2023-06-02	07:25:35	07:30:17	276654	59aae1188cef7d00011f8884	3	1	main_slash	7	advance_on_keypress_SLASH	32	stimuli_target_trianglesquares.svg	stimuli_distractor_diamondtriangles.svg	22	yes	57	0	515	0	0			0	0			1				0	
6.6.1	win	2023-06-02	07:25:35	07:30:19	278598	59aae1188cef7d00011f8884	3	1	main_slash	7	main_slash	33	stimuli_target_squarediamonds.svg	stimuli_distractor_diamondtriangles.svg	8	yes	53	1	782	0	0			0	0			1				0	
6.6.1	win	2023-06-02	07:25:35	07:30:19	278598	59aae1188cef7d00011f8884	3	1	main_slash	7	advance_on_keypress_SLASH	34	stimuli_target_squarediamonds.svg	stimuli_distractor_diamondtriangles.svg	8	yes	57	0	457	0	0			0	0			1				0	
6.6.1	win	2023-06-02	07:25:35	07:30:22	281698	59aae1188cef7d00011f8884	3	1	main_slash	7	main_slash	35	stimuli_distractor_diamondtriangles.svg	stimuli_distractor_trianglediamonds.svg	38	no	0	1	2000	0	0			0	0			1				0	
6.6.1	win	2023-06-02	07:25:35	07:30:22	281698	59aae1188cef7d00011f8884	3	1	main_slash	7	advance_on_keypress_SLASH	36	stimuli_distractor_diamondtriangles.svg	stimuli_distractor_trianglediamonds.svg	38	no	57	0	330	0	0			0	0			1				0	
6.6.1	win	2023-06-02	07:25:35	07:30:23	283081	59aae1188cef7d00011f8884	3	1	main_slash	7	main_slash	37	stimuli_distractor_trianglediamonds.svg	stimuli_target_trianglesquares.svg	26	yes	53	1	403	0	0			0	0			1				0	
6.6.1	win	2023-06-02	07:25:35	07:30:23	283081	59aae1188cef7d00011f8884	3	1	main_slash	7	advance_on_keypress_SLASH	38	stimuli_distractor_trianglediamonds.svg	stimuli_target_trianglesquares.svg	26	yes	57	0	527	0	0			0	0			1				0	
6.6.1	win	2023-06-02	07:25:35	07:30:25	284804	59aae1188cef7d00011f8884	3	1	main_slash	7	main_slash	39	stimuli_distractor_diamondtriangles.svg	stimuli_target_squarediamonds.svg	16	yes	53	1	561	0	0			0	0			1				0	
6.6.1	win	2023-06-02	07:25:35	07:30:25	284804	59aae1188cef7d00011f8884	3	1	main_slash	7	advance_on_keypress_SLASH	40	stimuli_distractor_diamondtriangles.svg	stimuli_target_squarediamonds.svg	16	yes	57	0	382	0	0			0	0			1				0	
6.6.1	win	2023-06-02	07:25:35	07:30:27	286582	59aae1188cef7d00011f8884	3	1	main_slash	7	main_slash	41	stimuli_target_trianglerectangles.svg	stimuli_distractor_diamondtriangles.svg	21	yes	53	1	756	0	0			0	0			1				0	
6.6.1	win	2023-06-02	07:25:35	07:30:27	286582	59aae1188cef7d00011f8884	3	1	main_slash	7	advance_on_keypress_SLASH	42	stimuli_target_trianglerectangles.svg	stimuli_distractor_diamondtriangles.svg	21	yes	57	0	363	0	0			0	0			1				0	
6.6.1	win	2023-06-02	07:25:35	07:30:29	288204	59aae1188cef7d00011f8884	3	1	main_slash	7	main_slash	43	stimuli_target_rectanglediamonds.svg	stimuli_distractor_diamondtriangles.svg	6	yes	53	1	629	0	0			0	0			1				0	
6.6.1	win	2023-06-02	07:25:35	07:30:29	288204	59aae1188cef7d00011f8884	3	1	main_slash	7	advance_on_keypress_SLASH	44	stimuli_target_rectanglediamonds.svg	stimuli_distractor_diamondtriangles.svg	6	yes	57	0	390	0	0			0	0			1				0	
6.6.1	win	2023-06-02	07:25:35	07:30:30	289871	59aae1188cef7d00011f8884	3	1	main_slash	7	main_slash	45	stimuli_distractor_trianglediamonds.svg	stimuli_target_diamondsquares.svg	28	yes	53	1	631	0	0			0	0			1				0	
6.6.1	win	2023-06-02	07:25:35	07:30:30	289871	59aae1188cef7d00011f8884	3	1	main_slash	7	advance_on_keypress_SLASH	46	stimuli_distractor_trianglediamonds.svg	stimuli_target_diamondsquares.svg	28	yes	57	0	387	0	0			0	0			1				0	
6.6.1	win	2023-06-02	07:25:35	07:30:32	291420	59aae1188cef7d00011f8884	3	1	main_slash	7	main_slash	47	stimuli_distractor_trianglediamonds.svg	stimuli_target_diamondrectangles.svg	27	yes	53	1	512	0	0			0	0			1				0	
6.6.1	win	2023-06-02	07:25:35	07:30:32	291420	59aae1188cef7d00011f8884	3	1	main_slash	7	advance_on_keypress_SLASH	48	stimuli_distractor_trianglediamonds.svg	stimuli_target_diamondrectangles.svg	27	yes	57	0	439	0	0			0	0			1				0	
6.6.1	win	2023-06-02	07:25:35	07:30:35	294503	59aae1188cef7d00011f8884	3	1	main_slash	7	main_slash	49	stimuli_distractor_diamondtriangles.svg	stimuli_distractor_trianglediamonds.svg	37	no	0	1	2000	0	0			0	0			1				0	
6.6.1	win	2023-06-02	07:25:35	07:30:35	294503	59aae1188cef7d00011f8884	3	1	main_slash	7	advance_on_keypress_SLASH	50	stimuli_distractor_diamondtriangles.svg	stimuli_distractor_trianglediamonds.svg	37	no	57	0	371	0	0			0	0			1				0	
6.6.1	win	2023-06-02	07:25:35	07:30:37	296596	59aae1188cef7d00011f8884	3	1	main_slash	7	main_slash	51	stimuli_target_rectanglediamonds.svg	stimuli_distractor_trianglediamonds.svg	2	yes	53	1	1079	0	0			0	0			1				0	
6.6.1	win	2023-06-02	07:25:35	07:30:37	296596	59aae1188cef7d00011f8884	3	1	main_slash	7	advance_on_keypress_SLASH	52	stimuli_target_rectanglediamonds.svg	stimuli_distractor_trianglediamonds.svg	2	yes	57	0	634	0	0			0	0			1				0	
6.6.1	win	2023-06-02	07:25:35	07:30:40	299882	59aae1188cef7d00011f8884	3	1	main_slash	7	main_slash	53	stimuli_distractor_trianglediamonds.svg	stimuli_distractor_diamondtriangles.svg	35	no	0	1	2000	0	0			0	0			1				0	
6.6.1	win	2023-06-02	07:25:35	07:30:40	299882	59aae1188cef7d00011f8884	3	1	main_slash	7	advance_on_keypress_SLASH	54	stimuli_distractor_trianglediamonds.svg	stimuli_distractor_diamondtriangles.svg	35	no	57	0	491	0	0			0	0			1				0	
6.6.1	win	2023-06-02	07:25:35	07:30:42	301839	59aae1188cef7d00011f8884	3	1	main_slash	7	main_slash	55	stimuli_distractor_diamondtriangles.svg	stimuli_target_squaretriangles.svg	15	yes	53	1	826	0	0			0	0			1				0	
6.6.1	win	2023-06-02	07:25:35	07:30:42	301839	59aae1188cef7d00011f8884	3	1	main_slash	7	advance_on_keypress_SLASH	56	stimuli_distractor_diamondtriangles.svg	stimuli_target_squaretriangles.svg	15	yes	57	0	455	0	0			0	0			1				0	
6.6.1	win	2023-06-02	07:25:35	07:30:45	304927	59aae1188cef7d00011f8884	3	1	main_slash	7	main_slash	57	stimuli_distractor_trianglediamonds.svg	stimuli_distractor_trianglediamonds.svg	33	no	0	1	2000	0	0			0	0			1				0	
6.6.1	win	2023-06-02	07:25:35	07:30:45	304927	59aae1188cef7d00011f8884	3	1	main_slash	7	advance_on_keypress_SLASH	58	stimuli_distractor_trianglediamonds.svg	stimuli_distractor_trianglediamonds.svg	33	no	57	0	870	0	0			0	0			1				0	
6.6.1	win	2023-06-02	07:25:35	07:30:47	307065	59aae1188cef7d00011f8884	3	1	main_slash	7	main_slash	59	stimuli_distractor_trianglediamonds.svg	stimuli_target_trianglerectangles.svg	25	yes	53	1	625	0	0			0	0			1				0	
6.6.1	win	2023-06-02	07:25:35	07:30:47	307065	59aae1188cef7d00011f8884	3	1	main_slash	7	advance_on_keypress_SLASH	60	stimuli_distractor_trianglediamonds.svg	stimuli_target_trianglerectangles.svg	25	yes	57	0	569	0	0			0	0			1				0	
6.6.1	win	2023-06-02	07:25:35	07:30:49	309001	59aae1188cef7d00011f8884	3	1	main_slash	7	main_slash	61	stimuli_target_trianglesquares.svg	stimuli_distractor_trianglediamonds.svg	18	yes	53	1	728	0	0			0	0			1				0	
6.6.1	win	2023-06-02	07:25:35	07:30:49	309001	59aae1188cef7d00011f8884	3	1	main_slash	7	advance_on_keypress_SLASH	62	stimuli_target_trianglesquares.svg	stimuli_distractor_trianglediamonds.svg	18	yes	57	0	436	0	0			0	0			1				0	
6.6.1	win	2023-06-02	07:25:35	07:30:52	312071	59aae1188cef7d00011f8884	3	1	main_slash	7	main_slash	63	stimuli_distractor_trianglediamonds.svg	stimuli_distractor_diamondtriangles.svg	36	no	0	1	2000	0	0			0	0			1				0	
6.6.1	win	2023-06-02	07:25:35	07:30:52	312071	59aae1188cef7d00011f8884	3	1	main_slash	7	advance_on_keypress_SLASH	64	stimuli_distractor_trianglediamonds.svg	stimuli_distractor_diamondtriangles.svg	36	no	57	0	1643	0	0			0	0			1				0	
6.6.1	win	2023-06-02	07:25:35	07:30:55	314977	59aae1188cef7d00011f8884	3	1	main_slash	7	main_slash	65	stimuli_distractor_diamondtriangles.svg	stimuli_target_rectangletriangles.svg	13	yes	53	1	626	0	0			0	0			1				0	
6.6.1	win	2023-06-02	07:25:35	07:30:55	314977	59aae1188cef7d00011f8884	3	1	main_slash	7	advance_on_keypress_SLASH	66	stimuli_distractor_diamondtriangles.svg	stimuli_target_rectangletriangles.svg	13	yes	57	0	480	0	0			0	0			1				0	
6.6.1	win	2023-06-02	07:25:35	07:30:57	316807	59aae1188cef7d00011f8884	3	1	main_slash	7	main_slash	67	stimuli_target_rectangletriangles.svg	stimuli_distractor_diamondtriangles.svg	5	yes	53	1	707	0	0			0	0			1				0	
6.6.1	win	2023-06-02	07:25:35	07:30:57	316807	59aae1188cef7d00011f8884	3	1	main_slash	7	advance_on_keypress_SLASH	68	stimuli_target_rectangletriangles.svg	stimuli_distractor_diamondtriangles.svg	5	yes	57	0	788	0	0			0	0			1				0	
6.6.1	win	2023-06-02	07:25:35	07:30:59	318895	59aae1188cef7d00011f8884	3	1	main_slash	7	main_slash	69	stimuli_distractor_trianglediamonds.svg	stimuli_target_squaretriangles.svg	11	yes	53	1	664	0	0			0	0			1				0	
6.6.1	win	2023-06-02	07:25:35	07:30:59	318895	59aae1188cef7d00011f8884	3	1	main_slash	7	advance_on_keypress_SLASH	70	stimuli_distractor_trianglediamonds.svg	stimuli_target_squaretriangles.svg	11	yes	57	0	577	0	0			0	0			1				0	
6.6.1	win	2023-06-02	07:25:35	07:31:01	320862	59aae1188cef7d00011f8884	3	1	main_slash	7	main_slash	71	stimuli_target_diamondrectangles.svg	stimuli_distractor_trianglediamonds.svg	19	yes	53	1	750	0	0			0	0			1				0	
6.6.1	win	2023-06-02	07:25:35	07:31:01	320862	59aae1188cef7d00011f8884	3	1	main_slash	7	advance_on_keypress_SLASH	72	stimuli_target_diamondrectangles.svg	stimuli_distractor_trianglediamonds.svg	19	yes	57	0	491	0	0			0	0			1				0	
6.6.1	win	2023-06-02	07:25:35	07:31:03	322993	59aae1188cef7d00011f8884	3	1	main_slash	7	main_slash	73	stimuli_target_diamondsquares.svg	stimuli_distractor_trianglediamonds.svg	20	yes	53	1	999	0	0			0	0			1				0	
6.6.1	win	2023-06-02	07:25:35	07:31:03	322993	59aae1188cef7d00011f8884	3	1	main_slash	7	advance_on_keypress_SLASH	74	stimuli_target_diamondsquares.svg	stimuli_distractor_trianglediamonds.svg	20	yes	57	0	504	0	0			0	0			1				0	
6.6.1	win	2023-06-02	07:25:35	07:31:05	324737	59aae1188cef7d00011f8884	3	1	main_slash	7	main_slash	75	stimuli_target_diamondsquares.svg	stimuli_distractor_diamondtriangles.svg	24	yes	53	1	594	0	0			0	0			1				0	
6.6.1	win	2023-06-02	07:25:35	07:31:05	324737	59aae1188cef7d00011f8884	3	1	main_slash	7	advance_on_keypress_SLASH	76	stimuli_target_diamondsquares.svg	stimuli_distractor_diamondtriangles.svg	24	yes	57	0	561	0	0			0	0			1				0	
6.6.1	win	2023-06-02	07:25:35	07:31:07	326555	59aae1188cef7d00011f8884	3	1	main_slash	7	main_slash	77	stimuli_distractor_trianglediamonds.svg	stimuli_target_squarediamonds.svg	12	yes	53	1	630	0	0			0	0			1				0	
6.6.1	win	2023-06-02	07:25:35	07:31:07	326555	59aae1188cef7d00011f8884	3	1	main_slash	7	advance_on_keypress_SLASH	78	stimuli_distractor_trianglediamonds.svg	stimuli_target_squarediamonds.svg	12	yes	57	0	498	0	0			0	0			1				0	
6.6.1	win	2023-06-02	07:25:35	07:31:09	328861	59aae1188cef7d00011f8884	3	1	main_slash	7	main_slash	79	stimuli_target_trianglerectangles.svg	stimuli_distractor_trianglediamonds.svg	17	yes	53	1	1156	0	0			0	0			1				0	
6.6.1	win	2023-06-02	07:25:35	07:31:09	328861	59aae1188cef7d00011f8884	3	1	main_slash	7	advance_on_keypress_SLASH	80	stimuli_target_trianglerectangles.svg	stimuli_distractor_trianglediamonds.svg	17	yes	57	0	6897	0	0			0	0			1				0	
6.6.1	win	2023-06-02	07:25:35	07:31:19	338398	59aae1188cef7d00011f8884	3	1	main_slash	7	main_slash	81	stimuli_distractor_trianglediamonds.svg	stimuli_distractor_trianglediamonds.svg	34	no	0	1	2000	0	0			0	0			1				0	
6.6.1	win	2023-06-02	07:25:35	07:31:19	338398	59aae1188cef7d00011f8884	3	1	main_slash	7	advance_on_keypress_SLASH	82	stimuli_distractor_trianglediamonds.svg	stimuli_distractor_trianglediamonds.svg	34	no	57	0	548	0	0			0	0			1				0	
6.6.1	win	2023-06-02	07:25:35	07:31:20	340153	59aae1188cef7d00011f8884	3	1	main_slash	7	main_slash	83	stimuli_target_trianglerectangles.svg	stimuli_distractor_diamondtriangles.svg	21	yes	53	1	557	0	0			0	0			1				0	
6.6.1	win	2023-06-02	07:25:35	07:31:20	340153	59aae1188cef7d00011f8884	3	1	main_slash	7	advance_on_keypress_SLASH	84	stimuli_target_trianglerectangles.svg	stimuli_distractor_diamondtriangles.svg	21	yes	57	0	603	0	0			0	0			1				0	
6.6.1	win	2023-06-02	07:25:35	07:31:22	341923	59aae1188cef7d00011f8884	3	1	main_slash	7	main_slash	85	stimuli_target_squaretriangles.svg	stimuli_distractor_trianglediamonds.svg	3	yes	53	1	530	0	0			0	0			1				0	
6.6.1	win	2023-06-02	07:25:35	07:31:22	341923	59aae1188cef7d00011f8884	3	1	main_slash	7	advance_on_keypress_SLASH	86	stimuli_target_squaretriangles.svg	stimuli_distractor_trianglediamonds.svg	3	yes	57	0	521	0	0			0	0			1				0	
6.6.1	win	2023-06-02	07:25:35	07:31:24	343648	59aae1188cef7d00011f8884	3	1	main_slash	7	main_slash	87	stimuli_target_squaretriangles.svg	stimuli_distractor_diamondtriangles.svg	7	yes	53	1	555	0	0			0	0			1				0	
6.6.1	win	2023-06-02	07:25:35	07:31:24	343648	59aae1188cef7d00011f8884	3	1	main_slash	7	advance_on_keypress_SLASH	88	stimuli_target_squaretriangles.svg	stimuli_distractor_diamondtriangles.svg	7	yes	57	0	452	0	0			0	0			1				0	
6.6.1	win	2023-06-02	07:25:35	07:31:26	345342	59aae1188cef7d00011f8884	3	1	main_slash	7	main_slash	89	stimuli_target_diamondrectangles.svg	stimuli_distractor_diamondtriangles.svg	23	yes	53	1	602	0	0			0	0			1				0	
6.6.1	win	2023-06-02	07:25:35	07:31:26	345342	59aae1188cef7d00011f8884	3	1	main_slash	7	advance_on_keypress_SLASH	90	stimuli_target_diamondrectangles.svg	stimuli_distractor_diamondtriangles.svg	23	yes	57	0	305	0	0			0	0			1				0	
6.6.1	win	2023-06-02	07:25:35	07:31:27	346943	59aae1188cef7d00011f8884	3	1	main_slash	7	main_slash	91	stimuli_distractor_trianglediamonds.svg	stimuli_target_squarediamonds.svg	12	yes	53	1	653	0	0			0	0			1				0	
6.6.1	win	2023-06-02	07:25:35	07:31:27	346943	59aae1188cef7d00011f8884	3	1	main_slash	7	advance_on_keypress_SLASH	92	stimuli_distractor_trianglediamonds.svg	stimuli_target_squarediamonds.svg	12	yes	57	0	389	0	0			0	0			1				0	
6.6.1	win	2023-06-02	07:25:35	07:31:29	348657	59aae1188cef7d00011f8884	3	1	main_slash	7	main_slash	93	stimuli_distractor_trianglediamonds.svg	stimuli_target_squaretriangles.svg	11	yes	53	1	686	0	0			0	0			1				0	
6.6.1	win	2023-06-02	07:25:35	07:31:29	348657	59aae1188cef7d00011f8884	3	1	main_slash	7	advance_on_keypress_SLASH	94	stimuli_distractor_trianglediamonds.svg	stimuli_target_squaretriangles.svg	11	yes	57	0	1126	0	0			0	0			1				0	
6.6.1	win	2023-06-02	07:25:35	07:31:31	350963	59aae1188cef7d00011f8884	3	1	main_slash	7	main_slash	95	stimuli_target_squarediamonds.svg	stimuli_distractor_diamondtriangles.svg	8	yes	53	1	543	0	0			0	0			1				0	
6.6.1	win	2023-06-02	07:25:35	07:31:31	350963	59aae1188cef7d00011f8884	3	1	main_slash	7	advance_on_keypress_SLASH	96	stimuli_target_squarediamonds.svg	stimuli_distractor_diamondtriangles.svg	8	yes	57	0	831	0	0			0	0			1				0	
6.6.1	win	2023-06-02	07:25:35	07:31:34	353297	59aae1188cef7d00011f8884	3	1	main_slash	7	main_slash	97	stimuli_target_trianglerectangles.svg	stimuli_distractor_trianglediamonds.svg	17	yes	53	1	862	0	0			0	0			1				0	
6.6.1	win	2023-06-02	07:25:35	07:31:34	353297	59aae1188cef7d00011f8884	3	1	main_slash	7	advance_on_keypress_SLASH	98	stimuli_target_trianglerectangles.svg	stimuli_distractor_trianglediamonds.svg	17	yes	57	0	1684	0	0			0	0			1				0	
6.6.1	win	2023-06-02	07:25:35	07:31:37	356226	59aae1188cef7d00011f8884	3	1	main_slash	7	main_slash	99	stimuli_distractor_trianglediamonds.svg	stimuli_target_trianglesquares.svg	26	yes	53	1	594	0	0			0	0			1				0	
6.6.1	win	2023-06-02	07:25:35	07:31:37	356226	59aae1188cef7d00011f8884	3	1	main_slash	7	advance_on_keypress_SLASH	100	stimuli_distractor_trianglediamonds.svg	stimuli_target_trianglesquares.svg	26	yes	57	0	1527	0	0			0	0			1				0	
6.6.1	win	2023-06-02	07:25:35	07:31:39	358955	59aae1188cef7d00011f8884	3	1	main_slash	7	main_slash	101	stimuli_target_trianglesquares.svg	stimuli_distractor_trianglediamonds.svg	18	yes	53	1	575	0	0			0	0			1				0	
6.6.1	win	2023-06-02	07:25:35	07:31:39	358955	59aae1188cef7d00011f8884	3	1	main_slash	7	advance_on_keypress_SLASH	102	stimuli_target_trianglesquares.svg	stimuli_distractor_trianglediamonds.svg	18	yes	57	0	479	0	0			0	0			1				0	
6.6.1	win	2023-06-02	07:25:35	07:31:41	360693	59aae1188cef7d00011f8884	3	1	main_slash	7	main_slash	103	stimuli_distractor_trianglediamonds.svg	stimuli_target_trianglerectangles.svg	25	yes	53	1	632	0	0			0	0			1				0	
6.6.1	win	2023-06-02	07:25:35	07:31:41	360693	59aae1188cef7d00011f8884	3	1	main_slash	7	advance_on_keypress_SLASH	104	stimuli_distractor_trianglediamonds.svg	stimuli_target_trianglerectangles.svg	25	yes	57	0	435	0	0			0	0			1				0	
6.6.1	win	2023-06-02	07:25:35	07:31:43	362362	59aae1188cef7d00011f8884	3	1	main_slash	7	main_slash	105	stimuli_target_trianglesquares.svg	stimuli_distractor_diamondtriangles.svg	22	yes	53	1	585	0	0			0	0			1				0	
6.6.1	win	2023-06-02	07:25:35	07:31:43	362362	59aae1188cef7d00011f8884	3	1	main_slash	7	advance_on_keypress_SLASH	106	stimuli_target_trianglesquares.svg	stimuli_distractor_diamondtriangles.svg	22	yes	57	0	460	0	0			0	0			1				0	
6.6.1	win	2023-06-02	07:25:35	07:31:44	364110	59aae1188cef7d00011f8884	3	1	main_slash	7	main_slash	107	stimuli_target_diamondrectangles.svg	stimuli_distractor_trianglediamonds.svg	19	yes	53	1	651	0	0			0	0			1				0	
6.6.1	win	2023-06-02	07:25:35	07:31:44	364110	59aae1188cef7d00011f8884	3	1	main_slash	7	advance_on_keypress_SLASH	108	stimuli_target_diamondrectangles.svg	stimuli_distractor_trianglediamonds.svg	19	yes	57	0	1063	0	0			0	0			1				0	
6.6.1	win	2023-06-02	07:25:35	07:31:47	366279	59aae1188cef7d00011f8884	3	1	main_slash	7	main_slash	109	stimuli_distractor_diamondtriangles.svg	stimuli_target_diamondrectangles.svg	31	yes	53	1	457	0	0			0	0			1				0	
6.6.1	win	2023-06-02	07:25:35	07:31:47	366279	59aae1188cef7d00011f8884	3	1	main_slash	7	advance_on_keypress_SLASH	110	stimuli_distractor_diamondtriangles.svg	stimuli_target_diamondrectangles.svg	31	yes	57	0	1130	0	0			0	0			1				0	
6.6.1	win	2023-06-02	07:25:35	07:31:49	368594	59aae1188cef7d00011f8884	3	1	main_slash	7	main_slash	111	stimuli_target_diamondsquares.svg	stimuli_distractor_diamondtriangles.svg	24	yes	53	1	541	0	0			0	0			1				0	
6.6.1	win	2023-06-02	07:25:35	07:31:49	368594	59aae1188cef7d00011f8884	3	1	main_slash	7	advance_on_keypress_SLASH	112	stimuli_target_diamondsquares.svg	stimuli_distractor_diamondtriangles.svg	24	yes	57	0	487	0	0			0	0			1				0	
6.6.1	win	2023-06-02	07:25:35	07:31:51	370307	59aae1188cef7d00011f8884	3	1	main_slash	7	main_slash	113	stimuli_target_rectanglediamonds.svg	stimuli_distractor_trianglediamonds.svg	2	yes	53	1	588	0	0			0	0			1				0	
6.6.1	win	2023-06-02	07:25:35	07:31:51	370307	59aae1188cef7d00011f8884	3	1	main_slash	7	advance_on_keypress_SLASH	114	stimuli_target_rectanglediamonds.svg	stimuli_distractor_trianglediamonds.svg	2	yes	57	0	2778	0	0			0	0			1				0	
6.6.1	win	2023-06-02	07:25:35	07:31:55	374166	59aae1188cef7d00011f8884	3	1	main_slash	7	main_slash	115	stimuli_distractor_diamondtriangles.svg	stimuli_target_rectangletriangles.svg	13	yes	53	1	433	0	0			0	0			1				0	
6.6.1	win	2023-06-02	07:25:35	07:31:55	374166	59aae1188cef7d00011f8884	3	1	main_slash	7	advance_on_keypress_SLASH	116	stimuli_distractor_diamondtriangles.svg	stimuli_target_rectangletriangles.svg	13	yes	57	0	2214	0	0			0	0			1				0	
6.6.1	win	2023-06-02	07:25:35	07:31:58	377554	59aae1188cef7d00011f8884	3	1	main_slash	7	main_slash	117	stimuli_target_rectangletriangles.svg	stimuli_distractor_trianglediamonds.svg	1	yes	53	1	525	0	0			0	0			1				0	
6.6.1	win	2023-06-02	07:25:35	07:31:58	377554	59aae1188cef7d00011f8884	3	1	main_slash	7	advance_on_keypress_SLASH	118	stimuli_target_rectangletriangles.svg	stimuli_distractor_trianglediamonds.svg	1	yes	57	0	747	0	0			0	0			1				0	
6.6.1	win	2023-06-02	07:25:35	07:32:00	379570	59aae1188cef7d00011f8884	3	1	main_slash	7	main_slash	119	stimuli_distractor_diamondtriangles.svg	stimuli_target_squarediamonds.svg	16	yes	53	1	626	0	0			0	0			1				0	
6.6.1	win	2023-06-02	07:25:35	07:32:00	379570	59aae1188cef7d00011f8884	3	1	main_slash	7	advance_on_keypress_SLASH	120	stimuli_distractor_diamondtriangles.svg	stimuli_target_squarediamonds.svg	16	yes	57	0	1184	0	0			0	0			1				0	
6.6.1	win	2023-06-02	07:25:35	07:32:04	383392	59aae1188cef7d00011f8884	3	1	main_slash	7	main_slash	121	stimuli_distractor_diamondtriangles.svg	stimuli_distractor_trianglediamonds.svg	37	no	0	1	2000	0	0			0	0			1				0	
6.6.1	win	2023-06-02	07:25:35	07:32:04	383392	59aae1188cef7d00011f8884	3	1	main_slash	7	advance_on_keypress_SLASH	122	stimuli_distractor_diamondtriangles.svg	stimuli_distractor_trianglediamonds.svg	37	no	57	0	342	0	0			0	0			1				0	
6.6.1	win	2023-06-02	07:25:35	07:32:05	385051	59aae1188cef7d00011f8884	3	1	main_slash	7	main_slash	123	stimuli_distractor_trianglediamonds.svg	stimuli_target_diamondsquares.svg	28	yes	53	1	677	0	0			0	0			1				0	
6.6.1	win	2023-06-02	07:25:35	07:32:05	385051	59aae1188cef7d00011f8884	3	1	main_slash	7	advance_on_keypress_SLASH	124	stimuli_distractor_trianglediamonds.svg	stimuli_target_diamondsquares.svg	28	yes	57	0	2646	0	0			0	0			1				0	
6.6.1	win	2023-06-02	07:25:35	07:32:09	388956	59aae1188cef7d00011f8884	3	1	main_slash	7	main_slash	125	stimuli_distractor_trianglediamonds.svg	stimuli_target_rectanglediamonds.svg	10	yes	53	1	619	0	0			0	0			1				0	
6.6.1	win	2023-06-02	07:25:35	07:32:09	388956	59aae1188cef7d00011f8884	3	1	main_slash	7	advance_on_keypress_SLASH	126	stimuli_distractor_trianglediamonds.svg	stimuli_target_rectanglediamonds.svg	10	yes	57	0	2681	0	0			0	0			1				0	
6.6.1	win	2023-06-02	07:25:35	07:32:15	394283	59aae1188cef7d00011f8884	3	1	main_slash	7	main_slash	127	stimuli_distractor_trianglediamonds.svg	stimuli_distractor_diamondtriangles.svg	36	no	0	1	2000	0	0			0	0			1				0	
6.6.1	win	2023-06-02	07:25:35	07:32:15	394283	59aae1188cef7d00011f8884	3	1	main_slash	7	advance_on_keypress_SLASH	128	stimuli_distractor_trianglediamonds.svg	stimuli_distractor_diamondtriangles.svg	36	no	57	0	2650	0	0			0	0			1				0	
6.6.1	win	2023-06-02	07:25:35	07:32:20	399578	59aae1188cef7d00011f8884	3	1	main_slash	7	main_slash	129	stimuli_distractor_diamondtriangles.svg	stimuli_distractor_diamondtriangles.svg	40	no	0	1	2000	0	0			0	0			1				0	
6.6.1	win	2023-06-02	07:25:35	07:32:20	399578	59aae1188cef7d00011f8884	3	1	main_slash	7	advance_on_keypress_SLASH	130	stimuli_distractor_diamondtriangles.svg	stimuli_distractor_diamondtriangles.svg	40	no	57	0	353	0	0			0	0			1				0	
6.6.1	win	2023-06-02	07:25:35	07:32:22	401213	59aae1188cef7d00011f8884	3	1	main_slash	7	main_slash	131	stimuli_distractor_diamondtriangles.svg	stimuli_target_rectanglediamonds.svg	14	yes	53	1	637	0	0			0	0			1				0	
6.6.1	win	2023-06-02	07:25:35	07:32:22	401213	59aae1188cef7d00011f8884	3	1	main_slash	7	advance_on_keypress_SLASH	132	stimuli_distractor_diamondtriangles.svg	stimuli_target_rectanglediamonds.svg	14	yes	57	0	933	0	0			0	0			1				0	
6.6.1	win	2023-06-02	07:25:35	07:32:24	403397	59aae1188cef7d00011f8884	3	1	main_slash	7	main_slash	133	stimuli_distractor_diamondtriangles.svg	stimuli_target_trianglesquares.svg	30	yes	53	1	606	0	0			0	0			1				0	
6.6.1	win	2023-06-02	07:25:35	07:32:24	403397	59aae1188cef7d00011f8884	3	1	main_slash	7	advance_on_keypress_SLASH	134	stimuli_distractor_diamondtriangles.svg	stimuli_target_trianglesquares.svg	30	yes	57	0	2031	0	0			0	0			1				0	
6.6.1	win	2023-06-02	07:25:35	07:32:27	406677	59aae1188cef7d00011f8884	3	1	main_slash	7	main_slash	135	stimuli_distractor_diamondtriangles.svg	stimuli_target_trianglerectangles.svg	29	yes	53	1	606	0	0			0	0			1				0	
6.6.1	win	2023-06-02	07:25:35	07:32:27	406677	59aae1188cef7d00011f8884	3	1	main_slash	7	advance_on_keypress_SLASH	136	stimuli_distractor_diamondtriangles.svg	stimuli_target_trianglerectangles.svg	29	yes	57	0	871	0	0			0	0			1				0	
6.6.1	win	2023-06-02	07:25:35	07:32:31	410186	59aae1188cef7d00011f8884	3	1	main_slash	7	main_slash	137	stimuli_distractor_diamondtriangles.svg	stimuli_distractor_diamondtriangles.svg	39	no	0	1	2000	0	0			0	0			1				0	
6.6.1	win	2023-06-02	07:25:35	07:32:31	410186	59aae1188cef7d00011f8884	3	1	main_slash	7	advance_on_keypress_SLASH	138	stimuli_distractor_diamondtriangles.svg	stimuli_distractor_diamondtriangles.svg	39	no	57	0	234	0	0			0	0			1				0	
6.6.1	win	2023-06-02	07:25:35	07:32:33	413067	59aae1188cef7d00011f8884	3	1	main_slash	7	main_slash	139	stimuli_distractor_trianglediamonds.svg	stimuli_distractor_trianglediamonds.svg	33	no	0	1	2000	0	0			0	0			1				0	
6.6.1	win	2023-06-02	07:25:35	07:32:33	413067	59aae1188cef7d00011f8884	3	1	main_slash	7	advance_on_keypress_SLASH	140	stimuli_distractor_trianglediamonds.svg	stimuli_distractor_trianglediamonds.svg	33	no	57	0	257	0	0			0	0			1				0	
6.6.1	win	2023-06-02	07:25:35	07:32:35	414716	59aae1188cef7d00011f8884	3	1	main_slash	7	main_slash	141	stimuli_target_rectangletriangles.svg	stimuli_distractor_diamondtriangles.svg	5	yes	53	1	752	0	0			0	0			1				0	
6.6.1	win	2023-06-02	07:25:35	07:32:35	414716	59aae1188cef7d00011f8884	3	1	main_slash	7	advance_on_keypress_SLASH	142	stimuli_target_rectangletriangles.svg	stimuli_distractor_diamondtriangles.svg	5	yes	57	0	939	0	0			0	0			1				0	
6.6.1	win	2023-06-02	07:25:35	07:32:39	418295	59aae1188cef7d00011f8884	3	1	main_slash	7	main_slash	143	stimuli_distractor_trianglediamonds.svg	stimuli_distractor_diamondtriangles.svg	35	no	0	1	2000	0	0			0	0			1				0	
6.6.1	win	2023-06-02	07:25:35	07:32:39	418295	59aae1188cef7d00011f8884	3	1	main_slash	7	advance_on_keypress_SLASH	144	stimuli_distractor_trianglediamonds.svg	stimuli_distractor_diamondtriangles.svg	35	no	57	0	395	0	0			0	0			1				0	
6.6.1	win	2023-06-02	07:25:35	07:32:41	420282	59aae1188cef7d00011f8884	3	1	main_slash	7	main_slash	145	stimuli_distractor_diamondtriangles.svg	stimuli_target_squaretriangles.svg	15	yes	53	1	939	0	0			0	0			1				0	
6.6.1	win	2023-06-02	07:25:35	07:32:41	420282	59aae1188cef7d00011f8884	3	1	main_slash	7	advance_on_keypress_SLASH	146	stimuli_distractor_diamondtriangles.svg	stimuli_target_squaretriangles.svg	15	yes	57	0	1093	0	0			0	0			1				0	
6.6.1	win	2023-06-02	07:25:35	07:32:44	424007	59aae1188cef7d00011f8884	3	1	main_slash	7	main_slash	147	stimuli_distractor_diamondtriangles.svg	stimuli_distractor_trianglediamonds.svg	38	no	0	1	2000	0	0			0	0			1				0	
6.6.1	win	2023-06-02	07:25:35	07:32:44	424007	59aae1188cef7d00011f8884	3	1	main_slash	7	advance_on_keypress_SLASH	148	stimuli_distractor_diamondtriangles.svg	stimuli_distractor_trianglediamonds.svg	38	no	57	0	463	0	0			0	0			1				0	
6.6.1	win	2023-06-02	07:25:35	07:32:46	425833	59aae1188cef7d00011f8884	3	1	main_slash	7	main_slash	149	stimuli_distractor_trianglediamonds.svg	stimuli_target_rectangletriangles.svg	9	yes	53	1	712	0	0			0	0			1				0	
6.6.1	win	2023-06-02	07:25:35	07:32:46	425833	59aae1188cef7d00011f8884	3	1	main_slash	7	advance_on_keypress_SLASH	150	stimuli_distractor_trianglediamonds.svg	stimuli_target_rectangletriangles.svg	9	yes	57	0	1235	0	0			0	0			1				0	
6.6.1	win	2023-06-02	07:25:35	07:32:49	428352	59aae1188cef7d00011f8884	3	1	main_slash	7	main_slash	151	stimuli_target_squarediamonds.svg	stimuli_distractor_trianglediamonds.svg	4	yes	53	1	634	0	0			0	0			1				0	
6.6.1	win	2023-06-02	07:25:35	07:32:49	428352	59aae1188cef7d00011f8884	3	1	main_slash	7	advance_on_keypress_SLASH	152	stimuli_target_squarediamonds.svg	stimuli_distractor_trianglediamonds.svg	4	yes	57	0	2126	0	0			0	0			1				0	
6.6.1	win	2023-06-02	07:25:35	07:32:52	431781	59aae1188cef7d00011f8884	3	1	main_slash	7	main_slash	153	stimuli_distractor_diamondtriangles.svg	stimuli_target_diamondsquares.svg	32	yes	53	1	664	0	0			0	0			1				0	
6.6.1	win	2023-06-02	07:25:35	07:32:52	431781	59aae1188cef7d00011f8884	3	1	main_slash	7	advance_on_keypress_SLASH	154	stimuli_distractor_diamondtriangles.svg	stimuli_target_diamondsquares.svg	32	yes	57	0	804	0	0			0	0			1				0	
6.6.1	win	2023-06-02	07:25:35	07:32:54	433831	59aae1188cef7d00011f8884	3	1	main_slash	7	main_slash	155	stimuli_target_rectanglediamonds.svg	stimuli_distractor_diamondtriangles.svg	6	yes	53	1	600	0	0			0	0			1				0	
6.6.1	win	2023-06-02	07:25:35	07:32:54	433831	59aae1188cef7d00011f8884	3	1	main_slash	7	advance_on_keypress_SLASH	156	stimuli_target_rectanglediamonds.svg	stimuli_distractor_diamondtriangles.svg	6	yes	57	0	776	0	0			0	0			1				0	
6.6.1	win	2023-06-02	07:25:35	07:32:56	436013	59aae1188cef7d00011f8884	3	1	main_slash	7	main_slash	157	stimuli_target_diamondsquares.svg	stimuli_distractor_trianglediamonds.svg	20	yes	53	1	768	0	0			0	0			1				0	
6.6.1	win	2023-06-02	07:25:35	07:32:56	436013	59aae1188cef7d00011f8884	3	1	main_slash	7	advance_on_keypress_SLASH	158	stimuli_target_diamondsquares.svg	stimuli_distractor_trianglediamonds.svg	20	yes	57	0	890	0	0			0	0			1				0	
6.6.1	win	2023-06-02	07:25:35	07:32:58	438156	59aae1188cef7d00011f8884	3	1	main_slash	7	main_slash	159	stimuli_distractor_trianglediamonds.svg	stimuli_target_diamondrectangles.svg	27	yes	53	1	613	0	0			0	0			1				0	
6.6.1	win	2023-06-02	07:25:35	07:32:58	438156	59aae1188cef7d00011f8884	3	1	main_slash	7	advance_on_keypress_SLASH	160	stimuli_distractor_trianglediamonds.svg	stimuli_target_diamondrectangles.svg	27	yes	57	0	848	0	0			0	0			1				0	
6.6.1	win	2023-06-02	07:25:35	07:33:44	483907	59aae1188cef7d00011f8884	3	1	practice_z	9	practice_z	1	stimuli_target_squarediamonds.svg	stimuli_distractor_diamondtriangles.svg	2	yes	44	1	601	0	0			0	0			1				0	
6.6.1	win	2023-06-02	07:25:35	07:33:44	483907	59aae1188cef7d00011f8884	3	1	practice_z	9	advance_on_keypress_ZEE	2	stimuli_target_squarediamonds.svg	stimuli_distractor_diamondtriangles.svg	2	yes	57	0	2711	0	0			0	0			1				0	
6.6.1	win	2023-06-02	07:25:35	07:33:51	490268	59aae1188cef7d00011f8884	3	1	practice_z	9	practice_z	3	stimuli_distractor_diamondtriangles.svg	stimuli_distractor_trianglediamonds.svg	14	no	0	1	2000	0	0			0	0			1				0	
6.6.1	win	2023-06-02	07:25:35	07:33:51	490268	59aae1188cef7d00011f8884	3	1	practice_z	9	advance_on_keypress_ZEE	4	stimuli_distractor_diamondtriangles.svg	stimuli_distractor_trianglediamonds.svg	14	no	57	0	442	0	0			0	0			1				0	
6.6.1	win	2023-06-02	07:25:35	07:33:53	492982	59aae1188cef7d00011f8884	3	1	practice_z	9	practice_z	5	stimuli_target_rectanglediamonds.svg	stimuli_distractor_trianglediamonds.svg	4	yes	44	1	633	0	0			0	0			1				0	
6.6.1	win	2023-06-02	07:25:35	07:33:53	492982	59aae1188cef7d00011f8884	3	1	practice_z	9	advance_on_keypress_ZEE	6	stimuli_target_rectanglediamonds.svg	stimuli_distractor_trianglediamonds.svg	4	yes	57	0	274	0	0			0	0			1				0	
6.6.1	win	2023-06-02	07:25:35	07:33:56	495655	59aae1188cef7d00011f8884	3	1	practice_z	9	practice_z	7	stimuli_target_rectanglediamonds.svg	stimuli_distractor_diamondtriangles.svg	1	yes	44	1	759	0	0			0	0			1				0	
6.6.1	win	2023-06-02	07:25:35	07:33:56	495655	59aae1188cef7d00011f8884	3	1	practice_z	9	advance_on_keypress_ZEE	8	stimuli_target_rectanglediamonds.svg	stimuli_distractor_diamondtriangles.svg	1	yes	57	0	225	0	0			0	0			1				0	
6.6.1	win	2023-06-02	07:25:35	07:33:59	498246	59aae1188cef7d00011f8884	3	1	practice_z	9	practice_z	9	stimuli_target_diamondsquares.svg	stimuli_distractor_trianglediamonds.svg	6	yes	44	1	720	0	0			0	0			1				0	
6.6.1	win	2023-06-02	07:25:35	07:33:59	498246	59aae1188cef7d00011f8884	3	1	practice_z	9	advance_on_keypress_ZEE	10	stimuli_target_diamondsquares.svg	stimuli_distractor_trianglediamonds.svg	6	yes	57	0	295	0	0			0	0			1				0	
6.6.1	win	2023-06-02	07:25:35	07:34:01	500745	59aae1188cef7d00011f8884	3	1	practice_z	9	practice_z	11	stimuli_distractor_diamondtriangles.svg	stimuli_target_diamondrectangles.svg	8	yes	44	1	555	0	0			0	0			1				0	
6.6.1	win	2023-06-02	07:25:35	07:34:01	500745	59aae1188cef7d00011f8884	3	1	practice_z	9	advance_on_keypress_ZEE	12	stimuli_distractor_diamondtriangles.svg	stimuli_target_diamondrectangles.svg	8	yes	57	0	391	0	0			0	0			1				0	
6.6.1	win	2023-06-02	07:25:35	07:34:04	503392	59aae1188cef7d00011f8884	3	1	practice_z	9	practice_z	13	stimuli_target_squarediamonds.svg	stimuli_distractor_trianglediamonds.svg	5	yes	44	1	620	0	0			0	0			1				0	
6.6.1	win	2023-06-02	07:25:35	07:34:04	503392	59aae1188cef7d00011f8884	3	1	practice_z	9	advance_on_keypress_ZEE	14	stimuli_target_squarediamonds.svg	stimuli_distractor_trianglediamonds.svg	5	yes	57	0	308	0	0			0	0			1				0	
6.6.1	win	2023-06-02	07:25:35	07:34:08	507336	59aae1188cef7d00011f8884	3	1	practice_z	9	practice_z	15	stimuli_distractor_diamondtriangles.svg	stimuli_distractor_diamondtriangles.svg	13	no	0	1	2000	0	0			0	0			1				0	
6.6.1	win	2023-06-02	07:25:35	07:34:08	507336	59aae1188cef7d00011f8884	3	1	practice_z	9	advance_on_keypress_ZEE	16	stimuli_distractor_diamondtriangles.svg	stimuli_distractor_diamondtriangles.svg	13	no	57	0	354	0	0			0	0			1				0	
6.6.1	win	2023-06-02	07:25:35	07:34:10	509868	59aae1188cef7d00011f8884	3	1	practice_z	9	practice_z	17	stimuli_distractor_trianglediamonds.svg	stimuli_target_diamondrectangles.svg	12	yes	44	1	534	0	0			0	0			1				0	
6.6.1	win	2023-06-02	07:25:35	07:34:10	509868	59aae1188cef7d00011f8884	3	1	practice_z	9	advance_on_keypress_ZEE	18	stimuli_distractor_trianglediamonds.svg	stimuli_target_diamondrectangles.svg	12	yes	57	0	463	0	0			0	0			1				0	
6.6.1	win	2023-06-02	07:25:35	07:34:13	512543	59aae1188cef7d00011f8884	3	1	practice_z	9	practice_z	19	stimuli_target_diamondsquares.svg	stimuli_distractor_diamondtriangles.svg	3	yes	44	1	561	0	0			0	0			1				0	
6.6.1	win	2023-06-02	07:25:35	07:34:13	512543	59aae1188cef7d00011f8884	3	1	practice_z	9	advance_on_keypress_ZEE	20	stimuli_target_diamondsquares.svg	stimuli_distractor_diamondtriangles.svg	3	yes	57	0	317	0	0			0	0			1				0	
6.6.1	win	2023-06-02	07:25:35	07:34:16	515234	59aae1188cef7d00011f8884	3	1	practice_z	9	practice_z	21	stimuli_distractor_diamondtriangles.svg	stimuli_target_rectangletriangles.svg	7	yes	44	1	722	0	0			0	0			1				0	
6.6.1	win	2023-06-02	07:25:35	07:34:16	515234	59aae1188cef7d00011f8884	3	1	practice_z	9	advance_on_keypress_ZEE	22	stimuli_distractor_diamondtriangles.svg	stimuli_target_rectangletriangles.svg	7	yes	57	0	306	0	0			0	0			1				0	
6.6.1	win	2023-06-02	07:25:35	07:34:18	517738	59aae1188cef7d00011f8884	3	1	practice_z	9	practice_z	23	stimuli_distractor_trianglediamonds.svg	stimuli_target_squarediamonds.svg	11	yes	44	1	562	0	0			0	0			1				0	
6.6.1	win	2023-06-02	07:25:35	07:34:18	517738	59aae1188cef7d00011f8884	3	1	practice_z	9	advance_on_keypress_ZEE	24	stimuli_distractor_trianglediamonds.svg	stimuli_target_squarediamonds.svg	11	yes	57	0	340	0	0			0	0			1				0	
6.6.1	win	2023-06-02	07:25:35	07:34:21	520346	59aae1188cef7d00011f8884	3	1	practice_z	9	practice_z	25	stimuli_distractor_diamondtriangles.svg	stimuli_target_trianglerectangles.svg	9	yes	44	1	622	0	0			0	0			1				0	
6.6.1	win	2023-06-02	07:25:35	07:34:21	520346	59aae1188cef7d00011f8884	3	1	practice_z	9	advance_on_keypress_ZEE	26	stimuli_distractor_diamondtriangles.svg	stimuli_target_trianglerectangles.svg	9	yes	57	0	291	0	0			0	0			1				0	
6.6.1	win	2023-06-02	07:25:35	07:34:23	522788	59aae1188cef7d00011f8884	3	1	practice_z	9	practice_z	27	stimuli_distractor_trianglediamonds.svg	stimuli_target_rectanglediamonds.svg	10	yes	44	1	513	0	0			0	0			1				0	
6.6.1	win	2023-06-02	07:25:35	07:34:23	522788	59aae1188cef7d00011f8884	3	1	practice_z	9	advance_on_keypress_ZEE	28	stimuli_distractor_trianglediamonds.svg	stimuli_target_rectanglediamonds.svg	10	yes	57	0	409	0	0			0	0			1				0	
6.6.1	win	2023-06-02	07:25:35	07:34:27	526837	59aae1188cef7d00011f8884	3	1	practice_z	9	practice_z	29	stimuli_distractor_trianglediamonds.svg	stimuli_distractor_diamondtriangles.svg	16	no	0	1	2000	0	0			0	0			1				0	
6.6.1	win	2023-06-02	07:25:35	07:34:27	526837	59aae1188cef7d00011f8884	3	1	practice_z	9	advance_on_keypress_ZEE	30	stimuli_distractor_trianglediamonds.svg	stimuli_distractor_diamondtriangles.svg	16	no	57	0	343	0	0			0	0			1				0	
6.6.1	win	2023-06-02	07:25:35	07:34:31	530833	59aae1188cef7d00011f8884	3	1	practice_z	9	practice_z	31	stimuli_distractor_trianglediamonds.svg	stimuli_distractor_trianglediamonds.svg	15	no	0	1	2000	0	0			0	0			1				0	
6.6.1	win	2023-06-02	07:25:35	07:34:31	530833	59aae1188cef7d00011f8884	3	1	practice_z	9	advance_on_keypress_ZEE	32	stimuli_distractor_trianglediamonds.svg	stimuli_distractor_trianglediamonds.svg	15	no	57	0	248	0	0			0	0			1				0	
6.6.1	win	2023-06-02	07:25:35	07:34:35	535019	59aae1188cef7d00011f8884	3	1	main_z	11	main_z	1	stimuli_distractor_trianglediamonds.svg	stimuli_target_rectanglediamonds.svg	10	yes	44	1	694	0	0			0	0			1				0	
6.6.1	win	2023-06-02	07:25:35	07:34:35	535019	59aae1188cef7d00011f8884	3	1	main_z	11	advance_on_keypress_ZEE	2	stimuli_distractor_trianglediamonds.svg	stimuli_target_rectanglediamonds.svg	10	yes	57	0	714	0	0			0	0			1				0	
6.6.1	win	2023-06-02	07:25:35	07:34:37	537001	59aae1188cef7d00011f8884	3	1	main_z	11	main_z	3	stimuli_distractor_diamondtriangles.svg	stimuli_target_squarediamonds.svg	16	yes	44	1	610	0	0			0	0			1				0	
6.6.1	win	2023-06-02	07:25:35	07:34:37	537001	59aae1188cef7d00011f8884	3	1	main_z	11	advance_on_keypress_ZEE	4	stimuli_distractor_diamondtriangles.svg	stimuli_target_squarediamonds.svg	16	yes	57	0	944	0	0			0	0			1				0	
6.6.1	win	2023-06-02	07:25:35	07:34:40	539284	59aae1188cef7d00011f8884	3	1	main_z	11	main_z	5	stimuli_distractor_trianglediamonds.svg	stimuli_target_diamondsquares.svg	28	yes	44	1	695	0	0			0	0			1				0	
6.6.1	win	2023-06-02	07:25:35	07:34:40	539284	59aae1188cef7d00011f8884	3	1	main_z	11	advance_on_keypress_ZEE	6	stimuli_distractor_trianglediamonds.svg	stimuli_target_diamondsquares.svg	28	yes	57	0	592	0	0			0	0			1				0	
6.6.1	win	2023-06-02	07:25:35	07:34:41	541107	59aae1188cef7d00011f8884	3	1	main_z	11	main_z	7	stimuli_target_trianglesquares.svg	stimuli_distractor_diamondtriangles.svg	22	yes	44	1	586	0	0			0	0			1				0	
6.6.1	win	2023-06-02	07:25:35	07:34:41	541107	59aae1188cef7d00011f8884	3	1	main_z	11	advance_on_keypress_ZEE	8	stimuli_target_trianglesquares.svg	stimuli_distractor_diamondtriangles.svg	22	yes	57	0	664	0	0			0	0			1				0	
6.6.1	win	2023-06-02	07:25:35	07:34:43	542956	59aae1188cef7d00011f8884	3	1	main_z	11	main_z	9	stimuli_target_diamondrectangles.svg	stimuli_distractor_diamondtriangles.svg	23	yes	44	1	537	0	0			0	0			1				0	
6.6.1	win	2023-06-02	07:25:35	07:34:43	542956	59aae1188cef7d00011f8884	3	1	main_z	11	advance_on_keypress_ZEE	10	stimuli_target_diamondrectangles.svg	stimuli_distractor_diamondtriangles.svg	23	yes	57	0	604	0	0			0	0			1				0	
6.6.1	win	2023-06-02	07:25:35	07:34:47	546201	59aae1188cef7d00011f8884	3	1	main_z	11	main_z	11	stimuli_distractor_trianglediamonds.svg	stimuli_distractor_trianglediamonds.svg	34	no	0	1	2000	0	0			0	0			1				0	
6.6.1	win	2023-06-02	07:25:35	07:34:47	546201	59aae1188cef7d00011f8884	3	1	main_z	11	advance_on_keypress_ZEE	12	stimuli_distractor_trianglediamonds.svg	stimuli_distractor_trianglediamonds.svg	34	no	57	0	302	0	0			0	0			1				0	
6.6.1	win	2023-06-02	07:25:35	07:34:48	547665	59aae1188cef7d00011f8884	3	1	main_z	11	main_z	13	stimuli_target_rectanglediamonds.svg	stimuli_distractor_trianglediamonds.svg	2	yes	44	1	516	0	0			0	0			1				0	
6.6.1	win	2023-06-02	07:25:35	07:34:48	547665	59aae1188cef7d00011f8884	3	1	main_z	11	advance_on_keypress_ZEE	14	stimuli_target_rectanglediamonds.svg	stimuli_distractor_trianglediamonds.svg	2	yes	57	0	523	0	0			0	0			1				0	
6.6.1	win	2023-06-02	07:25:35	07:34:50	549388	59aae1188cef7d00011f8884	3	1	main_z	11	main_z	15	stimuli_distractor_trianglediamonds.svg	stimuli_target_diamondrectangles.svg	27	yes	44	1	558	0	0			0	0			1				0	
6.6.1	win	2023-06-02	07:25:35	07:34:50	549388	59aae1188cef7d00011f8884	3	1	main_z	11	advance_on_keypress_ZEE	16	stimuli_distractor_trianglediamonds.svg	stimuli_target_diamondrectangles.svg	27	yes	57	0	744	0	0			0	0			1				0	
6.6.1	win	2023-06-02	07:25:35	07:34:52	551380	59aae1188cef7d00011f8884	3	1	main_z	11	main_z	17	stimuli_distractor_diamondtriangles.svg	stimuli_target_trianglerectangles.svg	29	yes	44	1	601	0	0			0	0			1				0	
6.6.1	win	2023-06-02	07:25:35	07:34:52	551380	59aae1188cef7d00011f8884	3	1	main_z	11	advance_on_keypress_ZEE	18	stimuli_distractor_diamondtriangles.svg	stimuli_target_trianglerectangles.svg	29	yes	57	0	526	0	0			0	0			1				0	
6.6.1	win	2023-06-02	07:25:35	07:34:54	553311	59aae1188cef7d00011f8884	3	1	main_z	11	main_z	19	stimuli_target_trianglerectangles.svg	stimuli_distractor_diamondtriangles.svg	21	yes	44	1	768	0	0			0	0			1				0	
6.6.1	win	2023-06-02	07:25:35	07:34:54	553311	59aae1188cef7d00011f8884	3	1	main_z	11	advance_on_keypress_ZEE	20	stimuli_target_trianglerectangles.svg	stimuli_distractor_diamondtriangles.svg	21	yes	57	0	687	0	0			0	0			1				0	
6.6.1	win	2023-06-02	07:25:35	07:34:57	556641	59aae1188cef7d00011f8884	3	1	main_z	11	main_z	21	stimuli_target_squaretriangles.svg	stimuli_distractor_diamondtriangles.svg	7	yes	0	0	2000	0	0			0	0			1				0	
6.6.1	win	2023-06-02	07:25:35	07:34:57	556641	59aae1188cef7d00011f8884	3	1	main_z	11	advance_on_keypress_ZEE	22	stimuli_target_squaretriangles.svg	stimuli_distractor_diamondtriangles.svg	7	yes	57	0	313	0	0			0	0			1				0	
6.6.1	win	2023-06-02	07:25:35	07:35:00	559606	59aae1188cef7d00011f8884	3	1	main_z	11	main_z	23	stimuli_distractor_trianglediamonds.svg	stimuli_distractor_diamondtriangles.svg	36	no	0	1	2000	0	0			0	0			1				0	
6.6.1	win	2023-06-02	07:25:35	07:35:00	559606	59aae1188cef7d00011f8884	3	1	main_z	11	advance_on_keypress_ZEE	24	stimuli_distractor_trianglediamonds.svg	stimuli_distractor_diamondtriangles.svg	36	no	57	0	309	0	0			0	0			1				0	
6.6.1	win	2023-06-02	07:25:35	07:35:01	561096	59aae1188cef7d00011f8884	3	1	main_z	11	main_z	25	stimuli_target_diamondsquares.svg	stimuli_distractor_trianglediamonds.svg	20	yes	44	1	543	0	0			0	0			1				0	
6.6.1	win	2023-06-02	07:25:35	07:35:01	561096	59aae1188cef7d00011f8884	3	1	main_z	11	advance_on_keypress_ZEE	26	stimuli_target_diamondsquares.svg	stimuli_distractor_trianglediamonds.svg	20	yes	57	0	673	0	0			0	0			1				0	
6.6.1	win	2023-06-02	07:25:35	07:35:05	564401	59aae1188cef7d00011f8884	3	1	main_z	11	main_z	27	stimuli_distractor_diamondtriangles.svg	stimuli_distractor_trianglediamonds.svg	37	no	0	1	2000	0	0			0	0			1				0	
6.6.1	win	2023-06-02	07:25:35	07:35:05	564401	59aae1188cef7d00011f8884	3	1	main_z	11	advance_on_keypress_ZEE	28	stimuli_distractor_diamondtriangles.svg	stimuli_distractor_trianglediamonds.svg	37	no	57	0	26	0	0			0	0			1				0	
6.6.1	win	2023-06-02	07:25:35	07:35:06	565705	59aae1188cef7d00011f8884	3	1	main_z	11	main_z	29	stimuli_distractor_diamondtriangles.svg	stimuli_target_rectangletriangles.svg	13	yes	44	1	639	0	0			0	0			1				0	
6.6.1	win	2023-06-02	07:25:35	07:35:06	565705	59aae1188cef7d00011f8884	3	1	main_z	11	advance_on_keypress_ZEE	30	stimuli_distractor_diamondtriangles.svg	stimuli_target_rectangletriangles.svg	13	yes	57	0	537	0	0			0	0			1				0	
6.6.1	win	2023-06-02	07:25:35	07:35:08	567526	59aae1188cef7d00011f8884	3	1	main_z	11	main_z	31	stimuli_target_trianglerectangles.svg	stimuli_distractor_trianglediamonds.svg	17	yes	44	1	646	0	0			0	0			1				0	
6.6.1	win	2023-06-02	07:25:35	07:35:08	567526	59aae1188cef7d00011f8884	3	1	main_z	11	advance_on_keypress_ZEE	32	stimuli_target_trianglerectangles.svg	stimuli_distractor_trianglediamonds.svg	17	yes	57	0	477	0	0			0	0			1				0	
6.6.1	win	2023-06-02	07:25:35	07:35:10	569448	59aae1188cef7d00011f8884	3	1	main_z	11	main_z	33	stimuli_distractor_trianglediamonds.svg	stimuli_target_rectangletriangles.svg	9	yes	44	1	802	0	0			0	0			1				0	
6.6.1	win	2023-06-02	07:25:35	07:35:10	569448	59aae1188cef7d00011f8884	3	1	main_z	11	advance_on_keypress_ZEE	34	stimuli_distractor_trianglediamonds.svg	stimuli_target_rectangletriangles.svg	9	yes	57	0	418	0	0			0	0			1				0	
6.6.1	win	2023-06-02	07:25:35	07:35:11	571062	59aae1188cef7d00011f8884	3	1	main_z	11	main_z	35	stimuli_target_rectangletriangles.svg	stimuli_distractor_trianglediamonds.svg	1	yes	44	1	552	0	0			0	0			1				0	
6.6.1	win	2023-06-02	07:25:35	07:35:11	571062	59aae1188cef7d00011f8884	3	1	main_z	11	advance_on_keypress_ZEE	36	stimuli_target_rectangletriangles.svg	stimuli_distractor_trianglediamonds.svg	1	yes	57	0	494	0	0			0	0			1				0	
6.6.1	win	2023-06-02	07:25:35	07:35:13	572778	59aae1188cef7d00011f8884	3	1	main_z	11	main_z	37	stimuli_target_rectangletriangles.svg	stimuli_distractor_diamondtriangles.svg	5	yes	44	1	585	0	0			0	0			1				0	
6.6.1	win	2023-06-02	07:25:35	07:35:13	572778	59aae1188cef7d00011f8884	3	1	main_z	11	advance_on_keypress_ZEE	38	stimuli_target_rectangletriangles.svg	stimuli_distractor_diamondtriangles.svg	5	yes	57	0	435	0	0			0	0			1				0	
6.6.1	win	2023-06-02	07:25:35	07:35:15	574449	59aae1188cef7d00011f8884	3	1	main_z	11	main_z	39	stimuli_target_trianglesquares.svg	stimuli_distractor_trianglediamonds.svg	18	yes	44	1	590	0	0			0	0			1				0	
6.6.1	win	2023-06-02	07:25:35	07:35:15	574449	59aae1188cef7d00011f8884	3	1	main_z	11	advance_on_keypress_ZEE	40	stimuli_target_trianglesquares.svg	stimuli_distractor_trianglediamonds.svg	18	yes	57	0	389	0	0			0	0			1				0	
6.6.1	win	2023-06-02	07:25:35	07:35:16	576043	59aae1188cef7d00011f8884	3	1	main_z	11	main_z	41	stimuli_distractor_trianglediamonds.svg	stimuli_target_squarediamonds.svg	12	yes	44	1	570	0	0			0	0			1				0	
6.6.1	win	2023-06-02	07:25:35	07:35:16	576043	59aae1188cef7d00011f8884	3	1	main_z	11	advance_on_keypress_ZEE	42	stimuli_distractor_trianglediamonds.svg	stimuli_target_squarediamonds.svg	12	yes	57	0	422	0	0			0	0			1				0	
6.6.1	win	2023-06-02	07:25:35	07:35:18	577626	59aae1188cef7d00011f8884	3	1	main_z	11	main_z	43	stimuli_distractor_trianglediamonds.svg	stimuli_target_trianglesquares.svg	26	yes	44	1	520	0	0			0	0			1				0	
6.6.1	win	2023-06-02	07:25:35	07:35:18	577626	59aae1188cef7d00011f8884	3	1	main_z	11	advance_on_keypress_ZEE	44	stimuli_distractor_trianglediamonds.svg	stimuli_target_trianglesquares.svg	26	yes	57	0	422	0	0			0	0			1				0	
6.6.1	win	2023-06-02	07:25:35	07:35:20	579181	59aae1188cef7d00011f8884	3	1	main_z	11	main_z	45	stimuli_distractor_diamondtriangles.svg	stimuli_target_diamondsquares.svg	32	yes	44	1	493	0	0			0	0			1				0	
6.6.1	win	2023-06-02	07:25:35	07:35:20	579181	59aae1188cef7d00011f8884	3	1	main_z	11	advance_on_keypress_ZEE	46	stimuli_distractor_diamondtriangles.svg	stimuli_target_diamondsquares.svg	32	yes	57	0	460	0	0			0	0			1				0	
6.6.1	win	2023-06-02	07:25:35	07:35:21	580961	59aae1188cef7d00011f8884	3	1	main_z	11	main_z	47	stimuli_distractor_trianglediamonds.svg	stimuli_target_trianglerectangles.svg	25	yes	44	1	675	0	0			0	0			1				0	
6.6.1	win	2023-06-02	07:25:35	07:35:21	580961	59aae1188cef7d00011f8884	3	1	main_z	11	advance_on_keypress_ZEE	48	stimuli_distractor_trianglediamonds.svg	stimuli_target_trianglerectangles.svg	25	yes	57	0	459	0	0			0	0			1				0	
6.6.1	win	2023-06-02	07:25:35	07:35:24	584068	59aae1188cef7d00011f8884	3	1	main_z	11	main_z	49	stimuli_distractor_diamondtriangles.svg	stimuli_distractor_trianglediamonds.svg	38	no	0	1	2000	0	0			0	0			1				0	
6.6.1	win	2023-06-02	07:25:35	07:35:24	584068	59aae1188cef7d00011f8884	3	1	main_z	11	advance_on_keypress_ZEE	50	stimuli_distractor_diamondtriangles.svg	stimuli_distractor_trianglediamonds.svg	38	no	57	0	378	0	0			0	0			1				0	
6.6.1	win	2023-06-02	07:25:35	07:35:26	585685	59aae1188cef7d00011f8884	3	1	main_z	11	main_z	51	stimuli_target_diamondrectangles.svg	stimuli_distractor_trianglediamonds.svg	19	yes	44	1	603	0	0			0	0			1				0	
6.6.1	win	2023-06-02	07:25:35	07:35:26	585685	59aae1188cef7d00011f8884	3	1	main_z	11	advance_on_keypress_ZEE	52	stimuli_target_diamondrectangles.svg	stimuli_distractor_trianglediamonds.svg	19	yes	57	0	460	0	0			0	0			1				0	
6.6.1	win	2023-06-02	07:25:35	07:35:28	588157	59aae1188cef7d00011f8884	3	1	main_z	11	main_z	53	stimuli_distractor_diamondtriangles.svg	stimuli_target_squaretriangles.svg	15	yes	44	1	1360	0	0			0	0			1				0	
6.6.1	win	2023-06-02	07:25:35	07:35:28	588157	59aae1188cef7d00011f8884	3	1	main_z	11	advance_on_keypress_ZEE	54	stimuli_distractor_diamondtriangles.svg	stimuli_target_squaretriangles.svg	15	yes	57	0	460	0	0			0	0			1				0	
6.6.1	win	2023-06-02	07:25:35	07:35:30	589964	59aae1188cef7d00011f8884	3	1	main_z	11	main_z	55	stimuli_distractor_diamondtriangles.svg	stimuli_target_rectanglediamonds.svg	14	yes	44	1	720	0	0			0	0			1				0	
6.6.1	win	2023-06-02	07:25:35	07:35:30	589964	59aae1188cef7d00011f8884	3	1	main_z	11	advance_on_keypress_ZEE	56	stimuli_distractor_diamondtriangles.svg	stimuli_target_rectanglediamonds.svg	14	yes	57	0	515	0	0			0	0			1				0	
6.6.1	win	2023-06-02	07:25:35	07:35:32	592086	59aae1188cef7d00011f8884	3	1	main_z	11	main_z	57	stimuli_distractor_diamondtriangles.svg	stimuli_target_trianglesquares.svg	30	yes	44	1	959	0	0			0	0			1				0	
6.6.1	win	2023-06-02	07:25:35	07:35:32	592086	59aae1188cef7d00011f8884	3	1	main_z	11	advance_on_keypress_ZEE	58	stimuli_distractor_diamondtriangles.svg	stimuli_target_trianglesquares.svg	30	yes	57	0	468	0	0			0	0			1				0	
6.6.1	win	2023-06-02	07:25:35	07:35:34	593961	59aae1188cef7d00011f8884	3	1	main_z	11	main_z	59	stimuli_target_squaretriangles.svg	stimuli_distractor_trianglediamonds.svg	3	yes	44	1	769	0	0			0	0			1				0	
6.6.1	win	2023-06-02	07:25:35	07:35:34	593961	59aae1188cef7d00011f8884	3	1	main_z	11	advance_on_keypress_ZEE	60	stimuli_target_squaretriangles.svg	stimuli_distractor_trianglediamonds.svg	3	yes	57	0	466	0	0			0	0			1				0	
6.6.1	win	2023-06-02	07:25:35	07:35:37	597073	59aae1188cef7d00011f8884	3	1	main_z	11	main_z	61	stimuli_distractor_diamondtriangles.svg	stimuli_distractor_diamondtriangles.svg	40	no	0	1	2000	0	0			0	0			1				0	
6.6.1	win	2023-06-02	07:25:35	07:35:37	597073	59aae1188cef7d00011f8884	3	1	main_z	11	advance_on_keypress_ZEE	62	stimuli_distractor_diamondtriangles.svg	stimuli_distractor_diamondtriangles.svg	40	no	57	0	293	0	0			0	0			1				0	
6.6.1	win	2023-06-02	07:25:35	07:35:39	598566	59aae1188cef7d00011f8884	3	1	main_z	11	main_z	63	stimuli_target_rectanglediamonds.svg	stimuli_distractor_diamondtriangles.svg	6	yes	44	1	562	0	0			0	0			1				0	
6.6.1	win	2023-06-02	07:25:35	07:35:39	598566	59aae1188cef7d00011f8884	3	1	main_z	11	advance_on_keypress_ZEE	64	stimuli_target_rectanglediamonds.svg	stimuli_distractor_diamondtriangles.svg	6	yes	57	0	450	0	0			0	0			1				0	
6.6.1	win	2023-06-02	07:25:35	07:35:41	600266	59aae1188cef7d00011f8884	3	1	main_z	11	main_z	65	stimuli_target_squarediamonds.svg	stimuli_distractor_trianglediamonds.svg	4	yes	44	1	614	0	0			0	0			1				0	
6.6.1	win	2023-06-02	07:25:35	07:35:41	600266	59aae1188cef7d00011f8884	3	1	main_z	11	advance_on_keypress_ZEE	66	stimuli_target_squarediamonds.svg	stimuli_distractor_trianglediamonds.svg	4	yes	57	0	447	0	0			0	0			1				0	
6.6.1	win	2023-06-02	07:25:35	07:35:42	601947	59aae1188cef7d00011f8884	3	1	main_z	11	main_z	67	stimuli_distractor_trianglediamonds.svg	stimuli_target_squaretriangles.svg	11	yes	44	1	579	0	0			0	0			1				0	
6.6.1	win	2023-06-02	07:25:35	07:35:42	601947	59aae1188cef7d00011f8884	3	1	main_z	11	advance_on_keypress_ZEE	68	stimuli_distractor_trianglediamonds.svg	stimuli_target_squaretriangles.svg	11	yes	57	0	735	0	0			0	0			1				0	
6.6.1	win	2023-06-02	07:25:35	07:35:44	603921	59aae1188cef7d00011f8884	3	1	main_z	11	main_z	69	stimuli_target_squarediamonds.svg	stimuli_distractor_diamondtriangles.svg	8	yes	44	1	589	0	0			0	0			1				0	
6.6.1	win	2023-06-02	07:25:35	07:35:44	603921	59aae1188cef7d00011f8884	3	1	main_z	11	advance_on_keypress_ZEE	70	stimuli_target_squarediamonds.svg	stimuli_distractor_diamondtriangles.svg	8	yes	57	0	568	0	0			0	0			1				0	
6.6.1	win	2023-06-02	07:25:35	07:35:46	605646	59aae1188cef7d00011f8884	3	1	main_z	11	main_z	71	stimuli_distractor_diamondtriangles.svg	stimuli_target_diamondrectangles.svg	31	yes	44	1	514	0	0			0	0			1				0	
6.6.1	win	2023-06-02	07:25:35	07:35:46	605646	59aae1188cef7d00011f8884	3	1	main_z	11	advance_on_keypress_ZEE	72	stimuli_distractor_diamondtriangles.svg	stimuli_target_diamondrectangles.svg	31	yes	57	0	574	0	0			0	0			1				0	
6.6.1	win	2023-06-02	07:25:35	07:35:49	608863	59aae1188cef7d00011f8884	3	1	main_z	11	main_z	73	stimuli_distractor_trianglediamonds.svg	stimuli_distractor_diamondtriangles.svg	35	no	0	1	2000	0	0			0	0			1				0	
6.6.1	win	2023-06-02	07:25:35	07:35:49	608863	59aae1188cef7d00011f8884	3	1	main_z	11	advance_on_keypress_ZEE	74	stimuli_distractor_trianglediamonds.svg	stimuli_distractor_diamondtriangles.svg	35	no	57	0	302	0	0			0	0			1				0	
6.6.1	win	2023-06-02	07:25:35	07:35:52	611810	59aae1188cef7d00011f8884	3	1	main_z	11	main_z	75	stimuli_distractor_diamondtriangles.svg	stimuli_distractor_diamondtriangles.svg	39	no	0	1	2000	0	0			0	0			1				0	
6.6.1	win	2023-06-02	07:25:35	07:35:52	611810	59aae1188cef7d00011f8884	3	1	main_z	11	advance_on_keypress_ZEE	76	stimuli_distractor_diamondtriangles.svg	stimuli_distractor_diamondtriangles.svg	39	no	57	0	390	0	0			0	0			1				0	
6.6.1	win	2023-06-02	07:25:35	07:35:55	614841	59aae1188cef7d00011f8884	3	1	main_z	11	main_z	77	stimuli_distractor_trianglediamonds.svg	stimuli_distractor_trianglediamonds.svg	33	no	0	1	2000	0	0			0	0			1				0	
6.6.1	win	2023-06-02	07:25:35	07:35:55	614841	59aae1188cef7d00011f8884	3	1	main_z	11	advance_on_keypress_ZEE	78	stimuli_distractor_trianglediamonds.svg	stimuli_distractor_trianglediamonds.svg	33	no	57	0	323	0	0			0	0			1				0	
6.6.1	win	2023-06-02	07:25:35	07:35:57	616475	59aae1188cef7d00011f8884	3	1	main_z	11	main_z	79	stimuli_target_diamondsquares.svg	stimuli_distractor_diamondtriangles.svg	24	yes	44	1	670	0	0			0	0			1				0	
6.6.1	win	2023-06-02	07:25:35	07:35:57	616475	59aae1188cef7d00011f8884	3	1	main_z	11	advance_on_keypress_ZEE	80	stimuli_target_diamondsquares.svg	stimuli_distractor_diamondtriangles.svg	24	yes	57	0	867	0	0			0	0			1				0	
6.6.1	win	2023-06-02	07:25:35	07:36:00	619986	59aae1188cef7d00011f8884	3	1	main_z	11	main_z	81	stimuli_distractor_trianglediamonds.svg	stimuli_distractor_diamondtriangles.svg	35	no	0	1	2000	0	0			0	0			1				0	
6.6.1	win	2023-06-02	07:25:35	07:36:00	619986	59aae1188cef7d00011f8884	3	1	main_z	11	advance_on_keypress_ZEE	82	stimuli_distractor_trianglediamonds.svg	stimuli_distractor_diamondtriangles.svg	35	no	57	0	285	0	0			0	0			1				0	
6.6.1	win	2023-06-02	07:25:35	07:36:02	621528	59aae1188cef7d00011f8884	3	1	main_z	11	main_z	83	stimuli_distractor_trianglediamonds.svg	stimuli_target_trianglerectangles.svg	25	yes	44	1	611	0	0			0	0			1				0	
6.6.1	win	2023-06-02	07:25:35	07:36:02	621528	59aae1188cef7d00011f8884	3	1	main_z	11	advance_on_keypress_ZEE	84	stimuli_distractor_trianglediamonds.svg	stimuli_target_trianglerectangles.svg	25	yes	57	0	479	0	0			0	0			1				0	
6.6.1	win	2023-06-02	07:25:35	07:36:04	623236	59aae1188cef7d00011f8884	3	1	main_z	11	main_z	85	stimuli_distractor_trianglediamonds.svg	stimuli_target_rectangletriangles.svg	9	yes	44	1	587	0	0			0	0			1				0	
6.6.1	win	2023-06-02	07:25:35	07:36:04	623236	59aae1188cef7d00011f8884	3	1	main_z	11	advance_on_keypress_ZEE	86	stimuli_distractor_trianglediamonds.svg	stimuli_target_rectangletriangles.svg	9	yes	57	0	562	0	0			0	0			1				0	
6.6.1	win	2023-06-02	07:25:35	07:36:05	625108	59aae1188cef7d00011f8884	3	1	main_z	11	main_z	87	stimuli_target_diamondsquares.svg	stimuli_distractor_trianglediamonds.svg	20	yes	44	1	677	0	0			0	0			1				0	
6.6.1	win	2023-06-02	07:25:35	07:36:05	625108	59aae1188cef7d00011f8884	3	1	main_z	11	advance_on_keypress_ZEE	88	stimuli_target_diamondsquares.svg	stimuli_distractor_trianglediamonds.svg	20	yes	57	0	666	0	0			0	0			1				0	
6.6.1	win	2023-06-02	07:25:35	07:36:09	628412	59aae1188cef7d00011f8884	3	1	main_z	11	main_z	89	stimuli_distractor_diamondtriangles.svg	stimuli_distractor_trianglediamonds.svg	38	no	0	1	2000	0	0			0	0			1				0	
6.6.1	win	2023-06-02	07:25:35	07:36:09	628412	59aae1188cef7d00011f8884	3	1	main_z	11	advance_on_keypress_ZEE	90	stimuli_distractor_diamondtriangles.svg	stimuli_distractor_trianglediamonds.svg	38	no	57	0	424	0	0			0	0			1				0	
6.6.1	win	2023-06-02	07:25:35	07:36:10	630088	59aae1188cef7d00011f8884	3	1	main_z	11	main_z	91	stimuli_target_diamondsquares.svg	stimuli_distractor_diamondtriangles.svg	24	yes	44	1	612	0	0			0	0			1				0	
6.6.1	win	2023-06-02	07:25:35	07:36:10	630088	59aae1188cef7d00011f8884	3	1	main_z	11	advance_on_keypress_ZEE	92	stimuli_target_diamondsquares.svg	stimuli_distractor_diamondtriangles.svg	24	yes	57	0	484	0	0			0	0			1				0	
6.6.1	win	2023-06-02	07:25:35	07:36:12	631837	59aae1188cef7d00011f8884	3	1	main_z	11	main_z	93	stimuli_distractor_trianglediamonds.svg	stimuli_target_diamondrectangles.svg	27	yes	44	1	612	0	0			0	0			1				0	
6.6.1	win	2023-06-02	07:25:35	07:36:12	631837	59aae1188cef7d00011f8884	3	1	main_z	11	advance_on_keypress_ZEE	94	stimuli_distractor_trianglediamonds.svg	stimuli_target_diamondrectangles.svg	27	yes	57	0	499	0	0			0	0			1				0	
6.6.1	win	2023-06-02	07:25:35	07:36:14	634147	59aae1188cef7d00011f8884	3	1	main_z	11	main_z	95	stimuli_target_squaretriangles.svg	stimuli_distractor_diamondtriangles.svg	7	yes	44	1	1157	0	0			0	0			1				0	
6.6.1	win	2023-06-02	07:25:35	07:36:14	634147	59aae1188cef7d00011f8884	3	1	main_z	11	advance_on_keypress_ZEE	96	stimuli_target_squaretriangles.svg	stimuli_distractor_diamondtriangles.svg	7	yes	57	0	638	0	0			0	0			1				0	
6.6.1	win	2023-06-02	07:25:35	07:36:16	636052	59aae1188cef7d00011f8884	3	1	main_z	11	main_z	97	stimuli_target_trianglerectangles.svg	stimuli_distractor_diamondtriangles.svg	21	yes	44	1	631	0	0			0	0			1				0	
6.6.1	win	2023-06-02	07:25:35	07:36:16	636052	59aae1188cef7d00011f8884	3	1	main_z	11	advance_on_keypress_ZEE	98	stimuli_target_trianglerectangles.svg	stimuli_distractor_diamondtriangles.svg	21	yes	57	0	461	0	0			0	0			1				0	
6.6.1	win	2023-06-02	07:25:35	07:36:18	637700	59aae1188cef7d00011f8884	3	1	main_z	11	main_z	99	stimuli_distractor_diamondtriangles.svg	stimuli_target_diamondrectangles.svg	31	yes	44	1	547	0	0			0	0			1				0	
6.6.1	win	2023-06-02	07:25:35	07:36:18	637700	59aae1188cef7d00011f8884	3	1	main_z	11	advance_on_keypress_ZEE	100	stimuli_distractor_diamondtriangles.svg	stimuli_target_diamondrectangles.svg	31	yes	57	0	446	0	0			0	0			1				0	
6.6.1	win	2023-06-02	07:25:35	07:36:20	639538	59aae1188cef7d00011f8884	3	1	main_z	11	main_z	101	stimuli_distractor_trianglediamonds.svg	stimuli_target_rectanglediamonds.svg	10	yes	44	1	737	0	0			0	0			1				0	
6.6.1	win	2023-06-02	07:25:35	07:36:20	639538	59aae1188cef7d00011f8884	3	1	main_z	11	advance_on_keypress_ZEE	102	stimuli_distractor_trianglediamonds.svg	stimuli_target_rectanglediamonds.svg	10	yes	57	0	496	0	0			0	0			1				0	
6.6.1	win	2023-06-02	07:25:35	07:36:22	641368	59aae1188cef7d00011f8884	3	1	main_z	11	main_z	103	stimuli_target_rectanglediamonds.svg	stimuli_distractor_diamondtriangles.svg	6	yes	44	1	684	0	0			0	0			1				0	
6.6.1	win	2023-06-02	07:25:35	07:36:22	641368	59aae1188cef7d00011f8884	3	1	main_z	11	advance_on_keypress_ZEE	104	stimuli_target_rectanglediamonds.svg	stimuli_distractor_diamondtriangles.svg	6	yes	57	0	462	0	0			0	0			1				0	
6.6.1	win	2023-06-02	07:25:35	07:36:23	643114	59aae1188cef7d00011f8884	3	1	main_z	11	main_z	105	stimuli_distractor_diamondtriangles.svg	stimuli_target_rectangletriangles.svg	13	yes	44	1	633	0	0			0	0			1				0	
6.6.1	win	2023-06-02	07:25:35	07:36:23	643114	59aae1188cef7d00011f8884	3	1	main_z	11	advance_on_keypress_ZEE	106	stimuli_distractor_diamondtriangles.svg	stimuli_target_rectangletriangles.svg	13	yes	57	0	576	0	0			0	0			1				0	
6.6.1	win	2023-06-02	07:25:35	07:36:25	644845	59aae1188cef7d00011f8884	3	1	main_z	11	main_z	107	stimuli_distractor_trianglediamonds.svg	stimuli_target_diamondsquares.svg	28	yes	44	1	501	0	0			0	0			1				0	
6.6.1	win	2023-06-02	07:25:35	07:36:25	644845	59aae1188cef7d00011f8884	3	1	main_z	11	advance_on_keypress_ZEE	108	stimuli_distractor_trianglediamonds.svg	stimuli_target_diamondsquares.svg	28	yes	57	0	403	0	0			0	0			1				0	
6.6.1	win	2023-06-02	07:25:35	07:36:28	647895	59aae1188cef7d00011f8884	3	1	main_z	11	main_z	109	stimuli_distractor_diamondtriangles.svg	stimuli_distractor_trianglediamonds.svg	37	no	0	1	2000	0	0			0	0			1				0	
6.6.1	win	2023-06-02	07:25:35	07:36:28	647895	59aae1188cef7d00011f8884	3	1	main_z	11	advance_on_keypress_ZEE	110	stimuli_distractor_diamondtriangles.svg	stimuli_distractor_trianglediamonds.svg	37	no	57	0	476	0	0			0	0			1				0	
6.6.1	win	2023-06-02	07:25:35	07:36:30	649585	59aae1188cef7d00011f8884	3	1	main_z	11	main_z	111	stimuli_target_squaretriangles.svg	stimuli_distractor_trianglediamonds.svg	3	yes	44	1	575	0	0			0	0			1				0	
6.6.1	win	2023-06-02	07:25:35	07:36:30	649585	59aae1188cef7d00011f8884	3	1	main_z	11	advance_on_keypress_ZEE	112	stimuli_target_squaretriangles.svg	stimuli_distractor_trianglediamonds.svg	3	yes	57	0	445	0	0			0	0			1				0	
6.6.1	win	2023-06-02	07:25:35	07:36:33	652658	59aae1188cef7d00011f8884	3	1	main_z	11	main_z	113	stimuli_distractor_diamondtriangles.svg	stimuli_distractor_diamondtriangles.svg	40	no	0	1	2000	0	0			0	0			1				0	
6.6.1	win	2023-06-02	07:25:35	07:36:33	652658	59aae1188cef7d00011f8884	3	1	main_z	11	advance_on_keypress_ZEE	114	stimuli_distractor_diamondtriangles.svg	stimuli_distractor_diamondtriangles.svg	40	no	57	0	339	0	0			0	0			1				0	
6.6.1	win	2023-06-02	07:25:35	07:36:34	654125	59aae1188cef7d00011f8884	3	1	main_z	11	main_z	115	stimuli_target_diamondrectangles.svg	stimuli_distractor_diamondtriangles.svg	23	yes	44	1	486	0	0			0	0			1				0	
6.6.1	win	2023-06-02	07:25:35	07:36:34	654125	59aae1188cef7d00011f8884	3	1	main_z	11	advance_on_keypress_ZEE	116	stimuli_target_diamondrectangles.svg	stimuli_distractor_diamondtriangles.svg	23	yes	57	0	614	0	0			0	0			1				0	
6.6.1	win	2023-06-02	07:25:35	07:36:36	656087	59aae1188cef7d00011f8884	3	1	main_z	11	main_z	117	stimuli_target_squarediamonds.svg	stimuli_distractor_diamondtriangles.svg	8	yes	44	1	701	0	0			0	0			1				0	
6.6.1	win	2023-06-02	07:25:35	07:36:36	656087	59aae1188cef7d00011f8884	3	1	main_z	11	advance_on_keypress_ZEE	118	stimuli_target_squarediamonds.svg	stimuli_distractor_diamondtriangles.svg	8	yes	57	0	1853	0	0			0	0			1				0	
6.6.1	win	2023-06-02	07:25:35	07:36:40	659312	59aae1188cef7d00011f8884	3	1	main_z	11	main_z	119	stimuli_distractor_diamondtriangles.svg	stimuli_target_squaretriangles.svg	15	yes	44	1	728	0	0			0	0			1				0	
6.6.1	win	2023-06-02	07:25:35	07:36:40	659312	59aae1188cef7d00011f8884	3	1	main_z	11	advance_on_keypress_ZEE	120	stimuli_distractor_diamondtriangles.svg	stimuli_target_squaretriangles.svg	15	yes	57	0	509	0	0			0	0			1				0	
6.6.1	win	2023-06-02	07:25:35	07:36:43	662450	59aae1188cef7d00011f8884	3	1	main_z	11	main_z	121	stimuli_distractor_trianglediamonds.svg	stimuli_distractor_diamondtriangles.svg	36	no	0	1	2000	0	0			0	0			1				0	
6.6.1	win	2023-06-02	07:25:35	07:36:43	662450	59aae1188cef7d00011f8884	3	1	main_z	11	advance_on_keypress_ZEE	122	stimuli_distractor_trianglediamonds.svg	stimuli_distractor_diamondtriangles.svg	36	no	57	0	349	0	0			0	0			1				0	
6.6.1	win	2023-06-02	07:25:35	07:36:44	664063	59aae1188cef7d00011f8884	3	1	main_z	11	main_z	123	stimuli_target_squarediamonds.svg	stimuli_distractor_trianglediamonds.svg	4	yes	44	1	616	0	0			0	0			1				0	
6.6.1	win	2023-06-02	07:25:35	07:36:44	664063	59aae1188cef7d00011f8884	3	1	main_z	11	advance_on_keypress_ZEE	124	stimuli_target_squarediamonds.svg	stimuli_distractor_trianglediamonds.svg	4	yes	57	0	712	0	0			0	0			1				0	
6.6.1	win	2023-06-02	07:25:35	07:36:46	665992	59aae1188cef7d00011f8884	3	1	main_z	11	main_z	125	stimuli_distractor_trianglediamonds.svg	stimuli_target_squaretriangles.svg	11	yes	44	1	563	0	0			0	0			1				0	
6.6.1	win	2023-06-02	07:25:35	07:36:46	665992	59aae1188cef7d00011f8884	3	1	main_z	11	advance_on_keypress_ZEE	126	stimuli_distractor_trianglediamonds.svg	stimuli_target_squaretriangles.svg	11	yes	57	0	877	0	0			0	0			1				0	
6.6.1	win	2023-06-02	07:25:35	07:36:49	668200	59aae1188cef7d00011f8884	3	1	main_z	11	main_z	127	stimuli_target_trianglesquares.svg	stimuli_distractor_diamondtriangles.svg	22	yes	44	1	690	0	0			0	0			1				0	
6.6.1	win	2023-06-02	07:25:35	07:36:49	668200	59aae1188cef7d00011f8884	3	1	main_z	11	advance_on_keypress_ZEE	128	stimuli_target_trianglesquares.svg	stimuli_distractor_diamondtriangles.svg	22	yes	57	0	662	0	0			0	0			1				0	
6.6.1	win	2023-06-02	07:25:35	07:36:50	670148	59aae1188cef7d00011f8884	3	1	main_z	11	main_z	129	stimuli_distractor_trianglediamonds.svg	stimuli_target_trianglesquares.svg	26	yes	44	1	656	0	0			0	0			1				0	
6.6.1	win	2023-06-02	07:25:35	07:36:50	670148	59aae1188cef7d00011f8884	3	1	main_z	11	advance_on_keypress_ZEE	130	stimuli_distractor_trianglediamonds.svg	stimuli_target_trianglesquares.svg	26	yes	57	0	1539	0	0			0	0			1				0	
6.6.1	win	2023-06-02	07:25:35	07:36:55	674322	59aae1188cef7d00011f8884	3	1	main_z	11	main_z	131	stimuli_distractor_trianglediamonds.svg	stimuli_distractor_trianglediamonds.svg	33	no	0	1	2000	0	0			0	0			1				0	
6.6.1	win	2023-06-02	07:25:35	07:36:55	674322	59aae1188cef7d00011f8884	3	1	main_z	11	advance_on_keypress_ZEE	132	stimuli_distractor_trianglediamonds.svg	stimuli_distractor_trianglediamonds.svg	33	no	57	0	394	0	0			0	0			1				0	
6.6.1	win	2023-06-02	07:25:35	07:36:58	677353	59aae1188cef7d00011f8884	3	1	main_z	11	main_z	133	stimuli_distractor_diamondtriangles.svg	stimuli_distractor_diamondtriangles.svg	39	no	0	1	2000	0	0			0	0			1				0	
6.6.1	win	2023-06-02	07:25:35	07:36:58	677353	59aae1188cef7d00011f8884	3	1	main_z	11	advance_on_keypress_ZEE	134	stimuli_distractor_diamondtriangles.svg	stimuli_distractor_diamondtriangles.svg	39	no	57	0	313	0	0			0	0			1				0	
6.6.1	win	2023-06-02	07:25:35	07:36:59	678892	59aae1188cef7d00011f8884	3	1	main_z	11	main_z	135	stimuli_target_rectanglediamonds.svg	stimuli_distractor_trianglediamonds.svg	2	yes	44	1	573	0	0			0	0			1				0	
6.6.1	win	2023-06-02	07:25:35	07:36:59	678892	59aae1188cef7d00011f8884	3	1	main_z	11	advance_on_keypress_ZEE	136	stimuli_target_rectanglediamonds.svg	stimuli_distractor_trianglediamonds.svg	2	yes	57	0	838	0	0			0	0			1				0	
6.6.1	win	2023-06-02	07:25:35	07:37:01	681017	59aae1188cef7d00011f8884	3	1	main_z	11	main_z	137	stimuli_target_rectangletriangles.svg	stimuli_distractor_trianglediamonds.svg	1	yes	44	1	652	0	0			0	0			1				0	
6.6.1	win	2023-06-02	07:25:35	07:37:01	681017	59aae1188cef7d00011f8884	3	1	main_z	11	advance_on_keypress_ZEE	138	stimuli_target_rectangletriangles.svg	stimuli_distractor_trianglediamonds.svg	1	yes	57	0	492	0	0			0	0			1				0	
6.6.1	win	2023-06-02	07:25:35	07:37:03	682763	59aae1188cef7d00011f8884	3	1	main_z	11	main_z	139	stimuli_distractor_diamondtriangles.svg	stimuli_target_diamondsquares.svg	32	yes	44	1	616	0	0			0	0			1				0	
6.6.1	win	2023-06-02	07:25:35	07:37:03	682763	59aae1188cef7d00011f8884	3	1	main_z	11	advance_on_keypress_ZEE	140	stimuli_distractor_diamondtriangles.svg	stimuli_target_diamondsquares.svg	32	yes	57	0	580	0	0			0	0			1				0	
6.6.1	win	2023-06-02	07:25:35	07:37:05	684542	59aae1188cef7d00011f8884	3	1	main_z	11	main_z	141	stimuli_target_rectangletriangles.svg	stimuli_distractor_diamondtriangles.svg	5	yes	44	1	546	0	0			0	0			1				0	
6.6.1	win	2023-06-02	07:25:35	07:37:05	684542	59aae1188cef7d00011f8884	3	1	main_z	11	advance_on_keypress_ZEE	142	stimuli_target_rectangletriangles.svg	stimuli_distractor_diamondtriangles.svg	5	yes	57	0	479	0	0			0	0			1				0	
6.6.1	win	2023-06-02	07:25:35	07:37:07	686256	59aae1188cef7d00011f8884	3	1	main_z	11	main_z	143	stimuli_distractor_diamondtriangles.svg	stimuli_target_trianglerectangles.svg	29	yes	44	1	595	0	0			0	0			1				0	
6.6.1	win	2023-06-02	07:25:35	07:37:07	686256	59aae1188cef7d00011f8884	3	1	main_z	11	advance_on_keypress_ZEE	144	stimuli_distractor_diamondtriangles.svg	stimuli_target_trianglerectangles.svg	29	yes	57	0	817	0	0			0	0			1				0	
6.6.1	win	2023-06-02	07:25:35	07:37:09	688986	59aae1188cef7d00011f8884	3	1	main_z	11	main_z	145	stimuli_distractor_diamondtriangles.svg	stimuli_target_squarediamonds.svg	16	yes	44	1	1261	0	0			0	0			1				0	
6.6.1	win	2023-06-02	07:25:35	07:37:09	688986	59aae1188cef7d00011f8884	3	1	main_z	11	advance_on_keypress_ZEE	146	stimuli_distractor_diamondtriangles.svg	stimuli_target_squarediamonds.svg	16	yes	57	0	882	0	0			0	0			1				0	
6.6.1	win	2023-06-02	07:25:35	07:37:11	691118	59aae1188cef7d00011f8884	3	1	main_z	11	main_z	147	stimuli_target_diamondrectangles.svg	stimuli_distractor_trianglediamonds.svg	19	yes	44	1	612	0	0			0	0			1				0	
6.6.1	win	2023-06-02	07:25:35	07:37:11	691118	59aae1188cef7d00011f8884	3	1	main_z	11	advance_on_keypress_ZEE	148	stimuli_target_diamondrectangles.svg	stimuli_distractor_trianglediamonds.svg	19	yes	57	0	578	0	0			0	0			1				0	
6.6.1	win	2023-06-02	07:25:35	07:37:15	694322	59aae1188cef7d00011f8884	3	1	main_z	11	main_z	149	stimuli_distractor_trianglediamonds.svg	stimuli_distractor_trianglediamonds.svg	34	no	0	1	2000	0	0			0	0			1				0	
6.6.1	win	2023-06-02	07:25:35	07:37:15	694322	59aae1188cef7d00011f8884	3	1	main_z	11	advance_on_keypress_ZEE	150	stimuli_distractor_trianglediamonds.svg	stimuli_distractor_trianglediamonds.svg	34	no	57	0	338	0	0			0	0			1				0	
6.6.1	win	2023-06-02	07:25:35	07:37:16	695839	59aae1188cef7d00011f8884	3	1	main_z	11	main_z	151	stimuli_distractor_trianglediamonds.svg	stimuli_target_squarediamonds.svg	12	yes	44	1	536	0	0			0	0			1				0	
6.6.1	win	2023-06-02	07:25:35	07:37:16	695839	59aae1188cef7d00011f8884	3	1	main_z	11	advance_on_keypress_ZEE	152	stimuli_distractor_trianglediamonds.svg	stimuli_target_squarediamonds.svg	12	yes	57	0	1214	0	0			0	0			1				0	
6.6.1	win	2023-06-02	07:25:35	07:37:19	698329	59aae1188cef7d00011f8884	3	1	main_z	11	main_z	153	stimuli_distractor_diamondtriangles.svg	stimuli_target_trianglesquares.svg	30	yes	44	1	629	0	0			0	0			1				0	
6.6.1	win	2023-06-02	07:25:35	07:37:19	698329	59aae1188cef7d00011f8884	3	1	main_z	11	advance_on_keypress_ZEE	154	stimuli_distractor_diamondtriangles.svg	stimuli_target_trianglesquares.svg	30	yes	57	0	800	0	0			0	0			1				0	
6.6.1	win	2023-06-02	07:25:35	07:37:21	700316	59aae1188cef7d00011f8884	3	1	main_z	11	main_z	155	stimuli_distractor_diamondtriangles.svg	stimuli_target_rectanglediamonds.svg	14	yes	44	1	534	0	0			0	0			1				0	
6.6.1	win	2023-06-02	07:25:35	07:37:21	700316	59aae1188cef7d00011f8884	3	1	main_z	11	advance_on_keypress_ZEE	156	stimuli_distractor_diamondtriangles.svg	stimuli_target_rectanglediamonds.svg	14	yes	57	0	523	0	0			0	0			1				0	
6.6.1	win	2023-06-02	07:25:35	07:37:22	702094	59aae1188cef7d00011f8884	3	1	main_z	11	main_z	157	stimuli_target_trianglerectangles.svg	stimuli_distractor_trianglediamonds.svg	17	yes	44	1	614	0	0			0	0			1				0	
6.6.1	win	2023-06-02	07:25:35	07:37:22	702094	59aae1188cef7d00011f8884	3	1	main_z	11	advance_on_keypress_ZEE	158	stimuli_target_trianglerectangles.svg	stimuli_distractor_trianglediamonds.svg	17	yes	57	0	588	0	0			0	0			1				0	
6.6.1	win	2023-06-02	07:25:35	07:37:24	703786	59aae1188cef7d00011f8884	3	1	main_z	11	main_z	159	stimuli_target_trianglesquares.svg	stimuli_distractor_trianglediamonds.svg	18	yes	44	1	458	0	0			0	0			1				0	
6.6.1	win	2023-06-02	07:25:35	07:37:24	703786	59aae1188cef7d00011f8884	3	1	main_z	11	advance_on_keypress_ZEE	160	stimuli_target_trianglesquares.svg	stimuli_distractor_trianglediamonds.svg	18	yes	57	0	481	0	0			0	0			1				0	
6.6.1	win	2023-06-02	07:25:35	07:37:24	703786	59aae1188cef7d00011f8884	3	1	headphonecheck_calibration	14	headphonecheck_calibrationIntro	1	stimuli_target_trianglesquares.svg	stimuli_distractor_trianglediamonds.svg	18	yes	calibrationButton	0	1965	0	0			0	0			1				0	
6.6.1	win	2023-06-02	07:25:35	07:37:24	703786	59aae1188cef7d00011f8884	3	1	headphonecheck_testphase	15	test_collectResponse	3	stimuli_target_trianglesquares.svg	stimuli_distractor_trianglediamonds.svg	18	yes	third	1	115	1	6	antiphase_hc_ois.wav	3	0	0			1				0	
6.6.1	win	2023-06-02	07:25:35	07:37:24	703786	59aae1188cef7d00011f8884	3	1	headphonecheck_testphase	15	test_collectResponse	6	stimuli_target_trianglesquares.svg	stimuli_distractor_trianglediamonds.svg	18	yes	first	1	895	2	3	antiphase_hc_soi.wav	1	0	0			1				0	
6.6.1	win	2023-06-02	07:25:35	07:37:24	703786	59aae1188cef7d00011f8884	3	1	headphonecheck_testphase	15	test_collectResponse	9	stimuli_target_trianglesquares.svg	stimuli_distractor_trianglediamonds.svg	18	yes	second	1	271	3	5	antiphase_hc_osi.wav	2	0	0			1				0	
6.6.1	win	2023-06-02	07:25:35	07:37:24	703786	59aae1188cef7d00011f8884	3	1	headphonecheck_testphase	15	test_collectResponse	12	stimuli_target_trianglesquares.svg	stimuli_distractor_trianglediamonds.svg	18	yes	third	1	7624	4	2	antiphase_hc_ios.wav	3	0	0			1				0	
6.6.1	win	2023-06-02	07:25:35	07:37:24	703786	59aae1188cef7d00011f8884	3	1	headphonecheck_testphase	15	test_collectResponse	15	stimuli_target_trianglesquares.svg	stimuli_distractor_trianglediamonds.svg	18	yes	first	1	276	5	4	antiphase_hc_sio.wav	1	0	0			1				0	
6.6.1	win	2023-06-02	07:25:35	07:37:24	703786	59aae1188cef7d00011f8884	3	1	headphonecheck_testphase	15	test_collectResponse	18	stimuli_target_trianglesquares.svg	stimuli_distractor_trianglediamonds.svg	18	yes	second	1	550	6	1	antiphase_hc_iso.wav	2	0	0			1				0	
6.6.1	win	2023-06-02	07:25:35	07:37:24	703786	59aae1188cef7d00011f8884	3	1	stereocheck_calibration	17	stereocheck_calibrationIntro	1	stimuli_target_trianglesquares.svg	stimuli_distractor_trianglediamonds.svg	18	yes	stereocheck_calibrationButton	0	42499	6	1	antiphase_hc_iso.wav	2	0	0			1				0	
6.6.1	win	2023-06-02	07:25:35	07:37:24	703786	59aae1188cef7d00011f8884	3	1	stereocheck_testphase	18	stereocheck_test_collectResponse	3	stimuli_target_trianglesquares.svg	stimuli_distractor_trianglediamonds.svg	18	yes	stereocheck_right	1	368	6	1	antiphase_hc_iso.wav	2	1	5	noise_calib_stim_RIGHT.wav	2	1				0	
6.6.1	win	2023-06-02	07:25:35	07:37:24	703786	59aae1188cef7d00011f8884	3	1	stereocheck_testphase	18	stereocheck_test_collectResponse	6	stimuli_target_trianglesquares.svg	stimuli_distractor_trianglediamonds.svg	18	yes	stereocheck_right	1	315	6	1	antiphase_hc_iso.wav	2	2	6	noise_calib_stim_RIGHT.wav	2	1				0	
6.6.1	win	2023-06-02	07:25:35	07:37:24	703786	59aae1188cef7d00011f8884	3	1	stereocheck_testphase	18	stereocheck_test_collectResponse	9	stimuli_target_trianglesquares.svg	stimuli_distractor_trianglediamonds.svg	18	yes	stereocheck_left	1	249	6	1	antiphase_hc_iso.wav	2	3	2	noise_calib_stim_LEFT.wav	1	1				0	
6.6.1	win	2023-06-02	07:25:35	07:37:24	703786	59aae1188cef7d00011f8884	3	1	stereocheck_testphase	18	stereocheck_test_collectResponse	12	stimuli_target_trianglesquares.svg	stimuli_distractor_trianglediamonds.svg	18	yes	stereocheck_right	1	280	6	1	antiphase_hc_iso.wav	2	4	4	noise_calib_stim_RIGHT.wav	2	1				0	
6.6.1	win	2023-06-02	07:25:35	07:37:24	703786	59aae1188cef7d00011f8884	3	1	stereocheck_testphase	18	stereocheck_test_collectResponse	15	stimuli_target_trianglesquares.svg	stimuli_distractor_trianglediamonds.svg	18	yes	stereocheck_left	1	437	6	1	antiphase_hc_iso.wav	2	5	3	noise_calib_stim_LEFT.wav	1	1				0	
6.6.1	win	2023-06-02	07:25:35	07:37:24	703786	59aae1188cef7d00011f8884	3	1	stereocheck_testphase	18	stereocheck_test_collectResponse	18	stimuli_target_trianglesquares.svg	stimuli_distractor_trianglediamonds.svg	18	yes	stereocheck_left	1	92	6	1	antiphase_hc_iso.wav	2	6	1	noise_calib_stim_LEFT.wav	1	1				0	
6.6.1	win	2023-06-02	07:25:35	07:37:24	703786	59aae1188cef7d00011f8884	3	1	DL_practice	21	DL_practice	2	stimuli_target_trianglesquares.svg	stimuli_distractor_trianglediamonds.svg	18	yes	pa	1	1517	6	1	antiphase_hc_iso.wav	2	6	1	noise_calib_stim_LEFT.wav	1	23	blb_dichoticlistening_ka-pa.mp3	ka	pa	1	right
6.6.1	win	2023-06-02	07:25:35	07:37:24	703786	59aae1188cef7d00011f8884	3	1	DL_practice	21	DL_practice	3	stimuli_target_trianglesquares.svg	stimuli_distractor_trianglediamonds.svg	18	yes	da	1	1604	6	1	antiphase_hc_iso.wav	2	6	1	noise_calib_stim_LEFT.wav	1	7	blb_dichoticlistening_da-ba.mp3	da	ba	1	left
6.6.1	win	2023-06-02	07:25:35	07:37:24	703786	59aae1188cef7d00011f8884	3	1	DL_practice	21	DL_practice	4	stimuli_target_trianglesquares.svg	stimuli_distractor_trianglediamonds.svg	18	yes	ta	1	1646	6	1	antiphase_hc_iso.wav	2	6	1	noise_calib_stim_LEFT.wav	1	36	blb_dichoticlistening_ta-ta.mp3	ta	ta	0	left
6.6.1	win	2023-06-02	07:25:35	07:37:24	703786	59aae1188cef7d00011f8884	3	1	DL_practice	21	DL_practice	5	stimuli_target_trianglesquares.svg	stimuli_distractor_trianglediamonds.svg	18	yes	ba	1	1758	6	1	antiphase_hc_iso.wav	2	6	1	noise_calib_stim_LEFT.wav	1	1	blb_dichoticlistening_ba-ba.mp3	ba	ba	0	left
6.6.1	win	2023-06-02	07:25:35	07:37:24	703786	59aae1188cef7d00011f8884	3	1	DL_practice	21	DL_practice	6	stimuli_target_trianglesquares.svg	stimuli_distractor_trianglediamonds.svg	18	yes	ga	1	1357	6	1	antiphase_hc_iso.wav	2	6	1	noise_calib_stim_LEFT.wav	1	15	blb_dichoticlistening_ga-ga.mp3	ga	ga	0	left
6.6.1	win	2023-06-02	07:25:35	07:37:24	703786	59aae1188cef7d00011f8884	3	1	DL_practice	21	DL_practice	7	stimuli_target_trianglesquares.svg	stimuli_distractor_trianglediamonds.svg	18	yes	ka	1	1091	6	1	antiphase_hc_iso.wav	2	6	1	noise_calib_stim_LEFT.wav	1	22	blb_dichoticlistening_ka-ka.mp3	ka	ka	0	left
6.6.1	win	2023-06-02	07:25:35	07:37:24	703786	59aae1188cef7d00011f8884	3	1	DL_practice	21	DL_practice	8	stimuli_target_trianglesquares.svg	stimuli_distractor_trianglediamonds.svg	18	yes	da	1	1634	6	1	antiphase_hc_iso.wav	2	6	1	noise_calib_stim_LEFT.wav	1	8	blb_dichoticlistening_da-da.mp3	da	da	0	left
6.6.1	win	2023-06-02	07:25:35	07:37:24	703786	59aae1188cef7d00011f8884	3	1	DL_practice	21	DL_practice	9	stimuli_target_trianglesquares.svg	stimuli_distractor_trianglediamonds.svg	18	yes	pa	1	1675	6	1	antiphase_hc_iso.wav	2	6	1	noise_calib_stim_LEFT.wav	1	29	blb_dichoticlistening_pa-pa.mp3	pa	pa	0	left
6.6.1	win	2023-06-02	07:25:35	07:37:24	703786	59aae1188cef7d00011f8884	3	1	DL_practice	21	DL_practice	10	stimuli_target_trianglesquares.svg	stimuli_distractor_trianglediamonds.svg	18	yes	ta	1	1531	6	1	antiphase_hc_iso.wav	2	6	1	noise_calib_stim_LEFT.wav	1	18	blb_dichoticlistening_ga-ta.mp3	ga	ta	1	right
6.6.1	win	2023-06-02	07:25:35	07:37:24	703786	59aae1188cef7d00011f8884	3	1	DL_test	23	DL_test	1	stimuli_target_trianglesquares.svg	stimuli_distractor_trianglediamonds.svg	18	yes	ta	1	1442	6	1	antiphase_hc_iso.wav	2	6	1	noise_calib_stim_LEFT.wav	1	30	blb_dichoticlistening_pa-ta.mp3	pa	ta	1	right
6.6.1	win	2023-06-02	07:25:35	07:37:24	703786	59aae1188cef7d00011f8884	3	1	DL_test	23	DL_test	2	stimuli_target_trianglesquares.svg	stimuli_distractor_trianglediamonds.svg	18	yes	ta	1	1210	6	1	antiphase_hc_iso.wav	2	6	1	noise_calib_stim_LEFT.wav	1	12	blb_dichoticlistening_da-ta.mp3	da	ta	1	right
6.6.1	win	2023-06-02	07:25:35	07:37:24	703786	59aae1188cef7d00011f8884	3	1	DL_test	23	DL_test	3	stimuli_target_trianglesquares.svg	stimuli_distractor_trianglediamonds.svg	18	yes	ga	1	1232	6	1	antiphase_hc_iso.wav	2	6	1	noise_calib_stim_LEFT.wav	1	27	blb_dichoticlistening_pa-ga.mp3	pa	ga	1	right
6.6.1	win	2023-06-02	07:25:35	07:37:24	703786	59aae1188cef7d00011f8884	3	1	DL_test	23	DL_test	4	stimuli_target_trianglesquares.svg	stimuli_distractor_trianglediamonds.svg	18	yes	da	1	2158	6	1	antiphase_hc_iso.wav	2	6	1	noise_calib_stim_LEFT.wav	1	26	blb_dichoticlistening_pa-da.mp3	pa	da	1	right
6.6.1	win	2023-06-02	07:25:35	07:37:24	703786	59aae1188cef7d00011f8884	3	1	DL_test	23	DL_test	5	stimuli_target_trianglesquares.svg	stimuli_distractor_trianglediamonds.svg	18	yes	pa	1	1269	6	1	antiphase_hc_iso.wav	2	6	1	noise_calib_stim_LEFT.wav	1	5	blb_dichoticlistening_ba-pa.mp3	ba	pa	1	right
6.6.1	win	2023-06-02	07:25:35	07:37:24	703786	59aae1188cef7d00011f8884	3	1	DL_test	23	DL_test	6	stimuli_target_trianglesquares.svg	stimuli_distractor_trianglediamonds.svg	18	yes	pa	1	1326	6	1	antiphase_hc_iso.wav	2	6	1	noise_calib_stim_LEFT.wav	1	25	blb_dichoticlistening_pa-ba.mp3	pa	ba	1	left
6.6.1	win	2023-06-02	07:25:35	07:37:24	703786	59aae1188cef7d00011f8884	3	1	DL_test	23	DL_test	7	stimuli_target_trianglesquares.svg	stimuli_distractor_trianglediamonds.svg	18	yes	ta	1	1133	6	1	antiphase_hc_iso.wav	2	6	1	noise_calib_stim_LEFT.wav	1	6	blb_dichoticlistening_ba-ta.mp3	ba	ta	1	right
6.6.1	win	2023-06-02	07:25:35	07:37:24	703786	59aae1188cef7d00011f8884	3	1	DL_test	23	DL_test	8	stimuli_target_trianglesquares.svg	stimuli_distractor_trianglediamonds.svg	18	yes	ta	0	1745	6	1	antiphase_hc_iso.wav	2	6	1	noise_calib_stim_LEFT.wav	1	11	blb_dichoticlistening_da-pa.mp3	da	pa	1	other
6.6.1	win	2023-06-02	07:25:35	07:37:24	703786	59aae1188cef7d00011f8884	3	1	DL_test	23	DL_test	9	stimuli_target_trianglesquares.svg	stimuli_distractor_trianglediamonds.svg	18	yes	ga	1	1224	6	1	antiphase_hc_iso.wav	2	6	1	noise_calib_stim_LEFT.wav	1	33	blb_dichoticlistening_ta-ga.mp3	ta	ga	1	right
6.6.1	win	2023-06-02	07:25:35	07:37:24	703786	59aae1188cef7d00011f8884	3	1	DL_test	23	DL_test	10	stimuli_target_trianglesquares.svg	stimuli_distractor_trianglediamonds.svg	18	yes	ga	1	966	6	1	antiphase_hc_iso.wav	2	6	1	noise_calib_stim_LEFT.wav	1	3	blb_dichoticlistening_ba-ga.mp3	ba	ga	1	right
6.6.1	win	2023-06-02	07:25:35	07:37:24	703786	59aae1188cef7d00011f8884	3	1	DL_test	23	DL_test	11	stimuli_target_trianglesquares.svg	stimuli_distractor_trianglediamonds.svg	18	yes	ka	1	988	6	1	antiphase_hc_iso.wav	2	6	1	noise_calib_stim_LEFT.wav	1	16	blb_dichoticlistening_ga-ka.mp3	ga	ka	1	right
6.6.1	win	2023-06-02	07:25:35	07:37:24	703786	59aae1188cef7d00011f8884	3	1	DL_test	23	DL_test	12	stimuli_target_trianglesquares.svg	stimuli_distractor_trianglediamonds.svg	18	yes	da	1	1393	6	1	antiphase_hc_iso.wav	2	6	1	noise_calib_stim_LEFT.wav	1	14	blb_dichoticlistening_ga-da.mp3	ga	da	1	right
6.6.1	win	2023-06-02	07:25:35	07:37:24	703786	59aae1188cef7d00011f8884	3	1	DL_test	23	DL_test	13	stimuli_target_trianglesquares.svg	stimuli_distractor_trianglediamonds.svg	18	yes	ka	1	967	6	1	antiphase_hc_iso.wav	2	6	1	noise_calib_stim_LEFT.wav	1	21	blb_dichoticlistening_ka-ga.mp3	ka	ga	1	left
6.6.1	win	2023-06-02	07:25:35	07:37:24	703786	59aae1188cef7d00011f8884	3	1	DL_test	23	DL_test	14	stimuli_target_trianglesquares.svg	stimuli_distractor_trianglediamonds.svg	18	yes	ta	1	1450	6	1	antiphase_hc_iso.wav	2	6	1	noise_calib_stim_LEFT.wav	1	18	blb_dichoticlistening_ga-ta.mp3	ga	ta	1	right
6.6.1	win	2023-06-02	07:25:35	07:37:24	703786	59aae1188cef7d00011f8884	3	1	DL_test	23	DL_test	15	stimuli_target_trianglesquares.svg	stimuli_distractor_trianglediamonds.svg	18	yes	ta	0	1890	6	1	antiphase_hc_iso.wav	2	6	1	noise_calib_stim_LEFT.wav	1	19	blb_dichoticlistening_ka-ba.mp3	ka	ba	1	other
6.6.1	win	2023-06-02	07:25:35	07:37:24	703786	59aae1188cef7d00011f8884	3	1	DL_test	23	DL_test	16	stimuli_target_trianglesquares.svg	stimuli_distractor_trianglediamonds.svg	18	yes	pa	1	1514	6	1	antiphase_hc_iso.wav	2	6	1	noise_calib_stim_LEFT.wav	1	17	blb_dichoticlistening_ga-pa.mp3	ga	pa	1	right
6.6.1	win	2023-06-02	07:25:35	07:37:24	703786	59aae1188cef7d00011f8884	3	1	DL_test	23	DL_test	17	stimuli_target_trianglesquares.svg	stimuli_distractor_trianglediamonds.svg	18	yes	da	1	1290	6	1	antiphase_hc_iso.wav	2	6	1	noise_calib_stim_LEFT.wav	1	8	blb_dichoticlistening_da-da.mp3	da	da	0	left
6.6.1	win	2023-06-02	07:25:35	07:37:24	703786	59aae1188cef7d00011f8884	3	1	DL_test	23	DL_test	18	stimuli_target_trianglesquares.svg	stimuli_distractor_trianglediamonds.svg	18	yes	ta	1	1473	6	1	antiphase_hc_iso.wav	2	6	1	noise_calib_stim_LEFT.wav	1	32	blb_dichoticlistening_ta-da.mp3	ta	da	1	left
6.6.1	win	2023-06-02	07:25:35	07:37:24	703786	59aae1188cef7d00011f8884	3	1	DL_test	23	DL_test	19	stimuli_target_trianglesquares.svg	stimuli_distractor_trianglediamonds.svg	18	yes	ta	1	1169	6	1	antiphase_hc_iso.wav	2	6	1	noise_calib_stim_LEFT.wav	1	24	blb_dichoticlistening_ka-ta.mp3	ka	ta	1	right
6.6.1	win	2023-06-02	07:25:35	07:37:24	703786	59aae1188cef7d00011f8884	3	1	DL_test	23	DL_test	20	stimuli_target_trianglesquares.svg	stimuli_distractor_trianglediamonds.svg	18	yes	ba	1	1868	6	1	antiphase_hc_iso.wav	2	6	1	noise_calib_stim_LEFT.wav	1	1	blb_dichoticlistening_ba-ba.mp3	ba	ba	0	left
6.6.1	win	2023-06-02	07:25:35	07:37:24	703786	59aae1188cef7d00011f8884	3	1	DL_test	23	DL_test	21	stimuli_target_trianglesquares.svg	stimuli_distractor_trianglediamonds.svg	18	yes	ka	1	1182	6	1	antiphase_hc_iso.wav	2	6	1	noise_calib_stim_LEFT.wav	1	28	blb_dichoticlistening_pa-ka.mp3	pa	ka	1	right
6.6.1	win	2023-06-02	07:25:35	07:37:24	703786	59aae1188cef7d00011f8884	3	1	DL_test	23	DL_test	22	stimuli_target_trianglesquares.svg	stimuli_distractor_trianglediamonds.svg	18	yes	ta	1	1196	6	1	antiphase_hc_iso.wav	2	6	1	noise_calib_stim_LEFT.wav	1	36	blb_dichoticlistening_ta-ta.mp3	ta	ta	0	left
6.6.1	win	2023-06-02	07:25:35	07:37:24	703786	59aae1188cef7d00011f8884	3	1	DL_test	23	DL_test	23	stimuli_target_trianglesquares.svg	stimuli_distractor_trianglediamonds.svg	18	yes	ga	1	1033	6	1	antiphase_hc_iso.wav	2	6	1	noise_calib_stim_LEFT.wav	1	9	blb_dichoticlistening_da-ga.mp3	da	ga	1	right
6.6.1	win	2023-06-02	07:25:35	07:37:24	703786	59aae1188cef7d00011f8884	3	1	DL_test	23	DL_test	24	stimuli_target_trianglesquares.svg	stimuli_distractor_trianglediamonds.svg	18	yes	ta	1	1236	6	1	antiphase_hc_iso.wav	2	6	1	noise_calib_stim_LEFT.wav	1	31	blb_dichoticlistening_ta-ba.mp3	ta	ba	1	left
6.6.1	win	2023-06-02	07:25:35	07:37:24	703786	59aae1188cef7d00011f8884	3	1	DL_test	23	DL_test	25	stimuli_target_trianglesquares.svg	stimuli_distractor_trianglediamonds.svg	18	yes	ta	0	2408	6	1	antiphase_hc_iso.wav	2	6	1	noise_calib_stim_LEFT.wav	1	10	blb_dichoticlistening_da-ka.mp3	da	ka	1	other
6.6.1	win	2023-06-02	07:25:35	07:37:24	703786	59aae1188cef7d00011f8884	3	1	DL_test	23	DL_test	26	stimuli_target_trianglesquares.svg	stimuli_distractor_trianglediamonds.svg	18	yes	ga	1	1181	6	1	antiphase_hc_iso.wav	2	6	1	noise_calib_stim_LEFT.wav	1	15	blb_dichoticlistening_ga-ga.mp3	ga	ga	0	left
