build	computer.platform	date	time	timestamp	time_elapsed_ms	subject	group	session	blockcode	blocknum	trialcode	trialnum	stimulus_left	stimulus_right	stim_index	target_present	response	correct	latency	headphonecheck_countTestTrials	headphonecheck_index	headphonecheck_testSound	headphonecheck_correctResponse	stereocheck_countTestTrials	stereocheck_index	stereocheck_testSound	stereocheck_correctResponse	DL_index	DL_soundfile	DL_leftSound	DL_rightSound	DL_dualSound	DL_choice
6.6.1	win	2023-07-07	00:23:46	00:28:41	286992	64950eb7e2cb12bc4dc6d9d2	3	1	practice_slash	5	practice_slash	1	stimuli_target_rectanglediamonds.svg	stimuli_distractor_diamondtriangles.svg	1	yes	0	0	2000	0	0			0	0			1				0	
6.6.1	win	2023-07-07	00:23:46	00:28:41	286992	64950eb7e2cb12bc4dc6d9d2	3	1	practice_slash	5	advance_on_keypress_SLASH	2	stimuli_target_rectanglediamonds.svg	stimuli_distractor_diamondtriangles.svg	1	yes	57	0	1995	0	0			0	0			1				0	
6.6.1	win	2023-07-07	00:23:46	00:28:46	291953	64950eb7e2cb12bc4dc6d9d2	3	1	practice_slash	5	practice_slash	3	stimuli_target_diamondsquares.svg	stimuli_distractor_diamondtriangles.svg	3	yes	53	1	1311	0	0			0	0			1				0	
6.6.1	win	2023-07-07	00:23:46	00:28:46	291953	64950eb7e2cb12bc4dc6d9d2	3	1	practice_slash	5	advance_on_keypress_SLASH	4	stimuli_target_diamondsquares.svg	stimuli_distractor_diamondtriangles.svg	3	yes	57	0	675	0	0			0	0			1				0	
6.6.1	win	2023-07-07	00:23:46	00:28:50	296275	64950eb7e2cb12bc4dc6d9d2	3	1	practice_slash	5	practice_slash	5	stimuli_distractor_trianglediamonds.svg	stimuli_target_squarediamonds.svg	11	yes	0	0	2000	0	0			0	0			1				0	
6.6.1	win	2023-07-07	00:23:46	00:28:50	296275	64950eb7e2cb12bc4dc6d9d2	3	1	practice_slash	5	advance_on_keypress_SLASH	6	stimuli_distractor_trianglediamonds.svg	stimuli_target_squarediamonds.svg	11	yes	57	0	567	0	0			0	0			1				0	
6.6.1	win	2023-07-07	00:23:46	00:28:54	299570	64950eb7e2cb12bc4dc6d9d2	3	1	practice_slash	5	practice_slash	7	stimuli_distractor_diamondtriangles.svg	stimuli_distractor_diamondtriangles.svg	13	no	53	0	1079	0	0			0	0			1				0	
6.6.1	win	2023-07-07	00:23:46	00:28:54	299570	64950eb7e2cb12bc4dc6d9d2	3	1	practice_slash	5	advance_on_keypress_SLASH	8	stimuli_distractor_diamondtriangles.svg	stimuli_distractor_diamondtriangles.svg	13	no	57	0	601	0	0			0	0			1				0	
6.6.1	win	2023-07-07	00:23:46	00:28:57	302671	64950eb7e2cb12bc4dc6d9d2	3	1	practice_slash	5	practice_slash	9	stimuli_target_squarediamonds.svg	stimuli_distractor_diamondtriangles.svg	2	yes	53	1	864	0	0			0	0			1				0	
6.6.1	win	2023-07-07	00:23:46	00:28:57	302671	64950eb7e2cb12bc4dc6d9d2	3	1	practice_slash	5	advance_on_keypress_SLASH	10	stimuli_target_squarediamonds.svg	stimuli_distractor_diamondtriangles.svg	2	yes	57	0	526	0	0			0	0			1				0	
6.6.1	win	2023-07-07	00:23:46	00:29:00	305992	64950eb7e2cb12bc4dc6d9d2	3	1	practice_slash	5	practice_slash	11	stimuli_distractor_diamondtriangles.svg	stimuli_target_rectangletriangles.svg	7	yes	53	1	1151	0	0			0	0			1				0	
6.6.1	win	2023-07-07	00:23:46	00:29:00	305992	64950eb7e2cb12bc4dc6d9d2	3	1	practice_slash	5	advance_on_keypress_SLASH	12	stimuli_distractor_diamondtriangles.svg	stimuli_target_rectangletriangles.svg	7	yes	57	0	798	0	0			0	0			1				0	
6.6.1	win	2023-07-07	00:23:46	00:29:03	309041	64950eb7e2cb12bc4dc6d9d2	3	1	practice_slash	5	practice_slash	13	stimuli_distractor_trianglediamonds.svg	stimuli_target_rectanglediamonds.svg	10	yes	53	1	599	0	0			0	0			1				0	
6.6.1	win	2023-07-07	00:23:46	00:29:03	309041	64950eb7e2cb12bc4dc6d9d2	3	1	practice_slash	5	advance_on_keypress_SLASH	14	stimuli_distractor_trianglediamonds.svg	stimuli_target_rectanglediamonds.svg	10	yes	57	0	457	0	0			0	0			1				0	
6.6.1	win	2023-07-07	00:23:46	00:29:07	313141	64950eb7e2cb12bc4dc6d9d2	3	1	practice_slash	5	practice_slash	15	stimuli_distractor_trianglediamonds.svg	stimuli_distractor_diamondtriangles.svg	16	no	0	1	2000	0	0			0	0			1				0	
6.6.1	win	2023-07-07	00:23:46	00:29:07	313141	64950eb7e2cb12bc4dc6d9d2	3	1	practice_slash	5	advance_on_keypress_SLASH	16	stimuli_distractor_trianglediamonds.svg	stimuli_distractor_diamondtriangles.svg	16	no	57	0	471	0	0			0	0			1				0	
6.6.1	win	2023-07-07	00:23:46	00:29:10	316011	64950eb7e2cb12bc4dc6d9d2	3	1	practice_slash	5	practice_slash	17	stimuli_target_rectanglediamonds.svg	stimuli_distractor_trianglediamonds.svg	4	yes	53	1	754	0	0			0	0			1				0	
6.6.1	win	2023-07-07	00:23:46	00:29:10	316011	64950eb7e2cb12bc4dc6d9d2	3	1	practice_slash	5	advance_on_keypress_SLASH	18	stimuli_target_rectanglediamonds.svg	stimuli_distractor_trianglediamonds.svg	4	yes	57	0	478	0	0			0	0			1				0	
6.6.1	win	2023-07-07	00:23:46	00:29:13	319005	64950eb7e2cb12bc4dc6d9d2	3	1	practice_slash	5	practice_slash	19	stimuli_target_diamondsquares.svg	stimuli_distractor_trianglediamonds.svg	6	yes	53	1	881	0	0			0	0			1				0	
6.6.1	win	2023-07-07	00:23:46	00:29:13	319005	64950eb7e2cb12bc4dc6d9d2	3	1	practice_slash	5	advance_on_keypress_SLASH	20	stimuli_target_diamondsquares.svg	stimuli_distractor_trianglediamonds.svg	6	yes	57	0	618	0	0			0	0			1				0	
6.6.1	win	2023-07-07	00:23:46	00:29:17	322673	64950eb7e2cb12bc4dc6d9d2	3	1	practice_slash	5	practice_slash	21	stimuli_distractor_diamondtriangles.svg	stimuli_distractor_trianglediamonds.svg	14	no	53	0	1399	0	0			0	0			1				0	
6.6.1	win	2023-07-07	00:23:46	00:29:17	322673	64950eb7e2cb12bc4dc6d9d2	3	1	practice_slash	5	advance_on_keypress_SLASH	22	stimuli_distractor_diamondtriangles.svg	stimuli_distractor_trianglediamonds.svg	14	no	57	0	432	0	0			0	0			1				0	
6.6.1	win	2023-07-07	00:23:46	00:29:20	325490	64950eb7e2cb12bc4dc6d9d2	3	1	practice_slash	5	practice_slash	23	stimuli_distractor_diamondtriangles.svg	stimuli_target_trianglerectangles.svg	9	yes	53	1	732	0	0			0	0			1				0	
6.6.1	win	2023-07-07	00:23:46	00:29:20	325490	64950eb7e2cb12bc4dc6d9d2	3	1	practice_slash	5	advance_on_keypress_SLASH	24	stimuli_distractor_diamondtriangles.svg	stimuli_target_trianglerectangles.svg	9	yes	57	0	315	0	0			0	0			1				0	
6.6.1	win	2023-07-07	00:23:46	00:29:24	329458	64950eb7e2cb12bc4dc6d9d2	3	1	practice_slash	5	practice_slash	25	stimuli_distractor_trianglediamonds.svg	stimuli_distractor_trianglediamonds.svg	15	no	0	1	2000	0	0			0	0			1				0	
6.6.1	win	2023-07-07	00:23:46	00:29:24	329458	64950eb7e2cb12bc4dc6d9d2	3	1	practice_slash	5	advance_on_keypress_SLASH	26	stimuli_distractor_trianglediamonds.svg	stimuli_distractor_trianglediamonds.svg	15	no	57	0	300	0	0			0	0			1				0	
6.6.1	win	2023-07-07	00:23:46	00:29:26	332161	64950eb7e2cb12bc4dc6d9d2	3	1	practice_slash	5	practice_slash	27	stimuli_distractor_diamondtriangles.svg	stimuli_target_diamondrectangles.svg	8	yes	53	1	753	0	0			0	0			1				0	
6.6.1	win	2023-07-07	00:23:46	00:29:26	332161	64950eb7e2cb12bc4dc6d9d2	3	1	practice_slash	5	advance_on_keypress_SLASH	28	stimuli_distractor_diamondtriangles.svg	stimuli_target_diamondrectangles.svg	8	yes	57	0	459	0	0			0	0			1				0	
6.6.1	win	2023-07-07	00:23:46	00:29:29	335127	64950eb7e2cb12bc4dc6d9d2	3	1	practice_slash	5	practice_slash	29	stimuli_target_squarediamonds.svg	stimuli_distractor_trianglediamonds.svg	5	yes	53	1	870	0	0			0	0			1				0	
6.6.1	win	2023-07-07	00:23:46	00:29:29	335127	64950eb7e2cb12bc4dc6d9d2	3	1	practice_slash	5	advance_on_keypress_SLASH	30	stimuli_target_squarediamonds.svg	stimuli_distractor_trianglediamonds.svg	5	yes	57	0	353	0	0			0	0			1				0	
6.6.1	win	2023-07-07	00:23:46	00:29:32	337875	64950eb7e2cb12bc4dc6d9d2	3	1	practice_slash	5	practice_slash	31	stimuli_distractor_trianglediamonds.svg	stimuli_target_diamondrectangles.svg	12	yes	53	1	752	0	0			0	0			1				0	
6.6.1	win	2023-07-07	00:23:46	00:29:32	337875	64950eb7e2cb12bc4dc6d9d2	3	1	practice_slash	5	advance_on_keypress_SLASH	32	stimuli_distractor_trianglediamonds.svg	stimuli_target_diamondrectangles.svg	12	yes	57	0	339	0	0			0	0			1				0	
6.6.1	win	2023-07-07	00:23:46	00:29:41	347100	64950eb7e2cb12bc4dc6d9d2	3	1	main_slash	7	main_slash	1	stimuli_target_rectangletriangles.svg	stimuli_distractor_trianglediamonds.svg	1	yes	53	1	695	0	0			0	0			1				0	
6.6.1	win	2023-07-07	00:23:46	00:29:41	347100	64950eb7e2cb12bc4dc6d9d2	3	1	main_slash	7	advance_on_keypress_SLASH	2	stimuli_target_rectangletriangles.svg	stimuli_distractor_trianglediamonds.svg	1	yes	57	0	5078	0	0			0	0			1				0	
6.6.1	win	2023-07-07	00:23:46	00:29:48	353568	64950eb7e2cb12bc4dc6d9d2	3	1	main_slash	7	main_slash	3	stimuli_distractor_trianglediamonds.svg	stimuli_target_rectangletriangles.svg	9	yes	53	1	746	0	0			0	0			1				0	
6.6.1	win	2023-07-07	00:23:46	00:29:48	353568	64950eb7e2cb12bc4dc6d9d2	3	1	main_slash	7	advance_on_keypress_SLASH	4	stimuli_distractor_trianglediamonds.svg	stimuli_target_rectangletriangles.svg	9	yes	57	0	1302	0	0			0	0			1				0	
6.6.1	win	2023-07-07	00:23:46	00:29:50	356159	64950eb7e2cb12bc4dc6d9d2	3	1	main_slash	7	main_slash	5	stimuli_distractor_diamondtriangles.svg	stimuli_target_diamondsquares.svg	32	yes	53	1	654	0	0			0	0			1				0	
6.6.1	win	2023-07-07	00:23:46	00:29:50	356159	64950eb7e2cb12bc4dc6d9d2	3	1	main_slash	7	advance_on_keypress_SLASH	6	stimuli_distractor_diamondtriangles.svg	stimuli_target_diamondsquares.svg	32	yes	57	0	1285	0	0			0	0			1				0	
6.6.1	win	2023-07-07	00:23:46	00:29:53	358836	64950eb7e2cb12bc4dc6d9d2	3	1	main_slash	7	main_slash	7	stimuli_target_trianglerectangles.svg	stimuli_distractor_trianglediamonds.svg	17	yes	53	1	747	0	0			0	0			1				0	
6.6.1	win	2023-07-07	00:23:46	00:29:53	358836	64950eb7e2cb12bc4dc6d9d2	3	1	main_slash	7	advance_on_keypress_SLASH	8	stimuli_target_trianglerectangles.svg	stimuli_distractor_trianglediamonds.svg	17	yes	57	0	1009	0	0			0	0			1				0	
6.6.1	win	2023-07-07	00:23:46	00:29:55	361341	64950eb7e2cb12bc4dc6d9d2	3	1	main_slash	7	main_slash	9	stimuli_target_diamondrectangles.svg	stimuli_distractor_diamondtriangles.svg	23	yes	53	1	852	0	0			0	0			1				0	
6.6.1	win	2023-07-07	00:23:46	00:29:55	361341	64950eb7e2cb12bc4dc6d9d2	3	1	main_slash	7	advance_on_keypress_SLASH	10	stimuli_target_diamondrectangles.svg	stimuli_distractor_diamondtriangles.svg	23	yes	57	0	1427	0	0			0	0			1				0	
6.6.1	win	2023-07-07	00:23:46	00:29:58	364318	64950eb7e2cb12bc4dc6d9d2	3	1	main_slash	7	main_slash	11	stimuli_distractor_trianglediamonds.svg	stimuli_target_squaretriangles.svg	11	yes	53	1	910	0	0			0	0			1				0	
6.6.1	win	2023-07-07	00:23:46	00:29:58	364318	64950eb7e2cb12bc4dc6d9d2	3	1	main_slash	7	advance_on_keypress_SLASH	12	stimuli_distractor_trianglediamonds.svg	stimuli_target_squaretriangles.svg	11	yes	57	0	1383	0	0			0	0			1				0	
6.6.1	win	2023-07-07	00:23:46	00:30:01	367033	64950eb7e2cb12bc4dc6d9d2	3	1	main_slash	7	main_slash	13	stimuli_target_squarediamonds.svg	stimuli_distractor_diamondtriangles.svg	8	yes	53	1	694	0	0			0	0			1				0	
6.6.1	win	2023-07-07	00:23:46	00:30:01	367033	64950eb7e2cb12bc4dc6d9d2	3	1	main_slash	7	advance_on_keypress_SLASH	14	stimuli_target_squarediamonds.svg	stimuli_distractor_diamondtriangles.svg	8	yes	57	0	1051	0	0			0	0			1				0	
6.6.1	win	2023-07-07	00:23:46	00:30:05	370722	64950eb7e2cb12bc4dc6d9d2	3	1	main_slash	7	main_slash	15	stimuli_distractor_trianglediamonds.svg	stimuli_distractor_trianglediamonds.svg	33	no	0	1	2000	0	0			0	0			1				0	
6.6.1	win	2023-07-07	00:23:46	00:30:05	370722	64950eb7e2cb12bc4dc6d9d2	3	1	main_slash	7	advance_on_keypress_SLASH	16	stimuli_distractor_trianglediamonds.svg	stimuli_distractor_trianglediamonds.svg	33	no	57	0	569	0	0			0	0			1				0	
6.6.1	win	2023-07-07	00:23:46	00:30:07	372681	64950eb7e2cb12bc4dc6d9d2	3	1	main_slash	7	main_slash	17	stimuli_target_squaretriangles.svg	stimuli_distractor_diamondtriangles.svg	7	yes	53	1	742	0	0			0	0			1				0	
6.6.1	win	2023-07-07	00:23:46	00:30:07	372681	64950eb7e2cb12bc4dc6d9d2	3	1	main_slash	7	advance_on_keypress_SLASH	18	stimuli_target_squaretriangles.svg	stimuli_distractor_diamondtriangles.svg	7	yes	57	0	1585	0	0			0	0			1				0	
6.6.1	win	2023-07-07	00:23:46	00:30:10	375996	64950eb7e2cb12bc4dc6d9d2	3	1	main_slash	7	main_slash	19	stimuli_distractor_diamondtriangles.svg	stimuli_distractor_trianglediamonds.svg	38	no	53	0	1091	0	0			0	0			1				0	
6.6.1	win	2023-07-07	00:23:46	00:30:10	375996	64950eb7e2cb12bc4dc6d9d2	3	1	main_slash	7	advance_on_keypress_SLASH	20	stimuli_distractor_diamondtriangles.svg	stimuli_distractor_trianglediamonds.svg	38	no	57	0	916	0	0			0	0			1				0	
6.6.1	win	2023-07-07	00:23:46	00:30:14	379555	64950eb7e2cb12bc4dc6d9d2	3	1	main_slash	7	main_slash	21	stimuli_distractor_trianglediamonds.svg	stimuli_distractor_diamondtriangles.svg	35	no	0	1	2000	0	0			0	0			1				0	
6.6.1	win	2023-07-07	00:23:46	00:30:14	379555	64950eb7e2cb12bc4dc6d9d2	3	1	main_slash	7	advance_on_keypress_SLASH	22	stimuli_distractor_trianglediamonds.svg	stimuli_distractor_diamondtriangles.svg	35	no	57	0	631	0	0			0	0			1				0	
6.6.1	win	2023-07-07	00:23:46	00:30:16	381521	64950eb7e2cb12bc4dc6d9d2	3	1	main_slash	7	main_slash	23	stimuli_distractor_trianglediamonds.svg	stimuli_target_diamondrectangles.svg	27	yes	53	1	683	0	0			0	0			1				0	
6.6.1	win	2023-07-07	00:23:46	00:30:16	381521	64950eb7e2cb12bc4dc6d9d2	3	1	main_slash	7	advance_on_keypress_SLASH	24	stimuli_distractor_trianglediamonds.svg	stimuli_target_diamondrectangles.svg	27	yes	57	0	1288	0	0			0	0			1				0	
6.6.1	win	2023-07-07	00:23:46	00:30:18	384098	64950eb7e2cb12bc4dc6d9d2	3	1	main_slash	7	main_slash	25	stimuli_distractor_trianglediamonds.svg	stimuli_target_diamondsquares.svg	28	yes	53	1	642	0	0			0	0			1				0	
6.6.1	win	2023-07-07	00:23:46	00:30:18	384098	64950eb7e2cb12bc4dc6d9d2	3	1	main_slash	7	advance_on_keypress_SLASH	26	stimuli_distractor_trianglediamonds.svg	stimuli_target_diamondsquares.svg	28	yes	57	0	1038	0	0			0	0			1				0	
6.6.1	win	2023-07-07	00:23:46	00:30:21	386366	64950eb7e2cb12bc4dc6d9d2	3	1	main_slash	7	main_slash	27	stimuli_distractor_trianglediamonds.svg	stimuli_target_trianglerectangles.svg	25	yes	53	1	595	0	0			0	0			1				0	
6.6.1	win	2023-07-07	00:23:46	00:30:21	386366	64950eb7e2cb12bc4dc6d9d2	3	1	main_slash	7	advance_on_keypress_SLASH	28	stimuli_distractor_trianglediamonds.svg	stimuli_target_trianglerectangles.svg	25	yes	57	0	779	0	0			0	0			1				0	
6.6.1	win	2023-07-07	00:23:46	00:30:23	388451	64950eb7e2cb12bc4dc6d9d2	3	1	main_slash	7	main_slash	29	stimuli_distractor_trianglediamonds.svg	stimuli_target_rectanglediamonds.svg	10	yes	53	1	679	0	0			0	0			1				0	
6.6.1	win	2023-07-07	00:23:46	00:30:23	388451	64950eb7e2cb12bc4dc6d9d2	3	1	main_slash	7	advance_on_keypress_SLASH	30	stimuli_distractor_trianglediamonds.svg	stimuli_target_rectanglediamonds.svg	10	yes	57	0	717	0	0			0	0			1				0	
6.6.1	win	2023-07-07	00:23:46	00:30:25	390372	64950eb7e2cb12bc4dc6d9d2	3	1	main_slash	7	main_slash	31	stimuli_target_trianglerectangles.svg	stimuli_distractor_diamondtriangles.svg	21	yes	53	1	567	0	0			0	0			1				0	
6.6.1	win	2023-07-07	00:23:46	00:30:25	390372	64950eb7e2cb12bc4dc6d9d2	3	1	main_slash	7	advance_on_keypress_SLASH	32	stimuli_target_trianglerectangles.svg	stimuli_distractor_diamondtriangles.svg	21	yes	57	0	597	0	0			0	0			1				0	
6.6.1	win	2023-07-07	00:23:46	00:30:27	392417	64950eb7e2cb12bc4dc6d9d2	3	1	main_slash	7	main_slash	33	stimuli_distractor_diamondtriangles.svg	stimuli_target_trianglerectangles.svg	29	yes	53	1	796	0	0			0	0			1				0	
6.6.1	win	2023-07-07	00:23:46	00:30:27	392417	64950eb7e2cb12bc4dc6d9d2	3	1	main_slash	7	advance_on_keypress_SLASH	34	stimuli_distractor_diamondtriangles.svg	stimuli_target_trianglerectangles.svg	29	yes	57	0	485	0	0			0	0			1				0	
6.6.1	win	2023-07-07	00:23:46	00:30:28	394299	64950eb7e2cb12bc4dc6d9d2	3	1	main_slash	7	main_slash	35	stimuli_distractor_diamondtriangles.svg	stimuli_target_squaretriangles.svg	15	yes	53	1	760	0	0			0	0			1				0	
6.6.1	win	2023-07-07	00:23:46	00:30:28	394299	64950eb7e2cb12bc4dc6d9d2	3	1	main_slash	7	advance_on_keypress_SLASH	36	stimuli_distractor_diamondtriangles.svg	stimuli_target_squaretriangles.svg	15	yes	57	0	406	0	0			0	0			1				0	
6.6.1	win	2023-07-07	00:23:46	00:30:31	397338	64950eb7e2cb12bc4dc6d9d2	3	1	main_slash	7	main_slash	37	stimuli_distractor_diamondtriangles.svg	stimuli_distractor_trianglediamonds.svg	37	no	0	1	2000	0	0			0	0			1				0	
6.6.1	win	2023-07-07	00:23:46	00:30:31	397338	64950eb7e2cb12bc4dc6d9d2	3	1	main_slash	7	advance_on_keypress_SLASH	38	stimuli_distractor_diamondtriangles.svg	stimuli_distractor_trianglediamonds.svg	37	no	57	0	365	0	0			0	0			1				0	
6.6.1	win	2023-07-07	00:23:46	00:30:33	398942	64950eb7e2cb12bc4dc6d9d2	3	1	main_slash	7	main_slash	39	stimuli_target_rectanglediamonds.svg	stimuli_distractor_diamondtriangles.svg	6	yes	53	1	587	0	0			0	0			1				0	
6.6.1	win	2023-07-07	00:23:46	00:30:33	398942	64950eb7e2cb12bc4dc6d9d2	3	1	main_slash	7	advance_on_keypress_SLASH	40	stimuli_target_rectanglediamonds.svg	stimuli_distractor_diamondtriangles.svg	6	yes	57	0	579	0	0			0	0			1				0	
6.6.1	win	2023-07-07	00:23:46	00:30:35	400769	64950eb7e2cb12bc4dc6d9d2	3	1	main_slash	7	main_slash	41	stimuli_target_diamondrectangles.svg	stimuli_distractor_trianglediamonds.svg	19	yes	53	1	614	0	0			0	0			1				0	
6.6.1	win	2023-07-07	00:23:46	00:30:35	400769	64950eb7e2cb12bc4dc6d9d2	3	1	main_slash	7	advance_on_keypress_SLASH	42	stimuli_target_diamondrectangles.svg	stimuli_distractor_trianglediamonds.svg	19	yes	57	0	442	0	0			0	0			1				0	
6.6.1	win	2023-07-07	00:23:46	00:30:38	403855	64950eb7e2cb12bc4dc6d9d2	3	1	main_slash	7	main_slash	43	stimuli_distractor_diamondtriangles.svg	stimuli_distractor_diamondtriangles.svg	39	no	0	1	2000	0	0			0	0			1				0	
6.6.1	win	2023-07-07	00:23:46	00:30:38	403855	64950eb7e2cb12bc4dc6d9d2	3	1	main_slash	7	advance_on_keypress_SLASH	44	stimuli_distractor_diamondtriangles.svg	stimuli_distractor_diamondtriangles.svg	39	no	57	0	359	0	0			0	0			1				0	
6.6.1	win	2023-07-07	00:23:46	00:30:41	406855	64950eb7e2cb12bc4dc6d9d2	3	1	main_slash	7	main_slash	45	stimuli_distractor_trianglediamonds.svg	stimuli_distractor_trianglediamonds.svg	34	no	0	1	2000	0	0			0	0			1				0	
6.6.1	win	2023-07-07	00:23:46	00:30:41	406855	64950eb7e2cb12bc4dc6d9d2	3	1	main_slash	7	advance_on_keypress_SLASH	46	stimuli_distractor_trianglediamonds.svg	stimuli_distractor_trianglediamonds.svg	34	no	57	0	394	0	0			0	0			1				0	
6.6.1	win	2023-07-07	00:23:46	00:30:43	408477	64950eb7e2cb12bc4dc6d9d2	3	1	main_slash	7	main_slash	47	stimuli_distractor_diamondtriangles.svg	stimuli_target_rectanglediamonds.svg	14	yes	53	1	589	0	0			0	0			1				0	
6.6.1	win	2023-07-07	00:23:46	00:30:43	408477	64950eb7e2cb12bc4dc6d9d2	3	1	main_slash	7	advance_on_keypress_SLASH	48	stimuli_distractor_diamondtriangles.svg	stimuli_target_rectanglediamonds.svg	14	yes	57	0	836	0	0			0	0			1				0	
6.6.1	win	2023-07-07	00:23:46	00:30:45	410640	64950eb7e2cb12bc4dc6d9d2	3	1	main_slash	7	main_slash	49	stimuli_target_rectanglediamonds.svg	stimuli_distractor_trianglediamonds.svg	2	yes	53	1	685	0	0			0	0			1				0	
6.6.1	win	2023-07-07	00:23:46	00:30:45	410640	64950eb7e2cb12bc4dc6d9d2	3	1	main_slash	7	advance_on_keypress_SLASH	50	stimuli_target_rectanglediamonds.svg	stimuli_distractor_trianglediamonds.svg	2	yes	57	0	484	0	0			0	0			1				0	
6.6.1	win	2023-07-07	00:23:46	00:30:46	412187	64950eb7e2cb12bc4dc6d9d2	3	1	main_slash	7	main_slash	51	stimuli_distractor_diamondtriangles.svg	stimuli_target_trianglesquares.svg	30	yes	53	1	415	0	0			0	0			1				0	
6.6.1	win	2023-07-07	00:23:46	00:30:46	412187	64950eb7e2cb12bc4dc6d9d2	3	1	main_slash	7	advance_on_keypress_SLASH	52	stimuli_distractor_diamondtriangles.svg	stimuli_target_trianglesquares.svg	30	yes	57	0	592	0	0			0	0			1				0	
6.6.1	win	2023-07-07	00:23:46	00:30:48	413938	64950eb7e2cb12bc4dc6d9d2	3	1	main_slash	7	main_slash	53	stimuli_target_diamondsquares.svg	stimuli_distractor_diamondtriangles.svg	24	yes	53	1	515	0	0			0	0			1				0	
6.6.1	win	2023-07-07	00:23:46	00:30:48	413938	64950eb7e2cb12bc4dc6d9d2	3	1	main_slash	7	advance_on_keypress_SLASH	54	stimuli_target_diamondsquares.svg	stimuli_distractor_diamondtriangles.svg	24	yes	57	0	422	0	0			0	0			1				0	
6.6.1	win	2023-07-07	00:23:46	00:30:50	415460	64950eb7e2cb12bc4dc6d9d2	3	1	main_slash	7	main_slash	55	stimuli_target_trianglesquares.svg	stimuli_distractor_diamondtriangles.svg	22	yes	53	1	456	0	0			0	0			1				0	
6.6.1	win	2023-07-07	00:23:46	00:30:50	415460	64950eb7e2cb12bc4dc6d9d2	3	1	main_slash	7	advance_on_keypress_SLASH	56	stimuli_target_trianglesquares.svg	stimuli_distractor_diamondtriangles.svg	22	yes	57	0	343	0	0			0	0			1				0	
6.6.1	win	2023-07-07	00:23:46	00:30:53	418438	64950eb7e2cb12bc4dc6d9d2	3	1	main_slash	7	main_slash	57	stimuli_distractor_diamondtriangles.svg	stimuli_distractor_diamondtriangles.svg	40	no	0	1	2000	0	0			0	0			1				0	
6.6.1	win	2023-07-07	00:23:46	00:30:53	418438	64950eb7e2cb12bc4dc6d9d2	3	1	main_slash	7	advance_on_keypress_SLASH	58	stimuli_distractor_diamondtriangles.svg	stimuli_distractor_diamondtriangles.svg	40	no	57	0	452	0	0			0	0			1				0	
6.6.1	win	2023-07-07	00:23:46	00:30:54	419948	64950eb7e2cb12bc4dc6d9d2	3	1	main_slash	7	main_slash	59	stimuli_target_diamondsquares.svg	stimuli_distractor_trianglediamonds.svg	20	yes	53	1	410	0	0			0	0			1				0	
6.6.1	win	2023-07-07	00:23:46	00:30:54	419948	64950eb7e2cb12bc4dc6d9d2	3	1	main_slash	7	advance_on_keypress_SLASH	60	stimuli_target_diamondsquares.svg	stimuli_distractor_trianglediamonds.svg	20	yes	57	0	547	0	0			0	0			1				0	
6.6.1	win	2023-07-07	00:23:46	00:30:56	421676	64950eb7e2cb12bc4dc6d9d2	3	1	main_slash	7	main_slash	61	stimuli_distractor_diamondtriangles.svg	stimuli_target_diamondrectangles.svg	31	yes	53	1	539	0	0			0	0			1				0	
6.6.1	win	2023-07-07	00:23:46	00:30:56	421676	64950eb7e2cb12bc4dc6d9d2	3	1	main_slash	7	advance_on_keypress_SLASH	62	stimuli_distractor_diamondtriangles.svg	stimuli_target_diamondrectangles.svg	31	yes	57	0	417	0	0			0	0			1				0	
6.6.1	win	2023-07-07	00:23:46	00:30:57	423197	64950eb7e2cb12bc4dc6d9d2	3	1	main_slash	7	main_slash	63	stimuli_target_squaretriangles.svg	stimuli_distractor_trianglediamonds.svg	3	yes	53	1	460	0	0			0	0			1				0	
6.6.1	win	2023-07-07	00:23:46	00:30:57	423197	64950eb7e2cb12bc4dc6d9d2	3	1	main_slash	7	advance_on_keypress_SLASH	64	stimuli_target_squaretriangles.svg	stimuli_distractor_trianglediamonds.svg	3	yes	57	0	377	0	0			0	0			1				0	
6.6.1	win	2023-07-07	00:23:46	00:30:59	424679	64950eb7e2cb12bc4dc6d9d2	3	1	main_slash	7	main_slash	65	stimuli_distractor_diamondtriangles.svg	stimuli_target_squarediamonds.svg	16	yes	53	1	474	0	0			0	0			1				0	
6.6.1	win	2023-07-07	00:23:46	00:30:59	424679	64950eb7e2cb12bc4dc6d9d2	3	1	main_slash	7	advance_on_keypress_SLASH	66	stimuli_distractor_diamondtriangles.svg	stimuli_target_squarediamonds.svg	16	yes	57	0	330	0	0			0	0			1				0	
6.6.1	win	2023-07-07	00:23:46	00:31:01	426452	64950eb7e2cb12bc4dc6d9d2	3	1	main_slash	7	main_slash	67	stimuli_distractor_trianglediamonds.svg	stimuli_target_trianglesquares.svg	26	yes	53	1	814	0	0			0	0			1				0	
6.6.1	win	2023-07-07	00:23:46	00:31:01	426452	64950eb7e2cb12bc4dc6d9d2	3	1	main_slash	7	advance_on_keypress_SLASH	68	stimuli_distractor_trianglediamonds.svg	stimuli_target_trianglesquares.svg	26	yes	57	0	313	0	0			0	0			1				0	
6.6.1	win	2023-07-07	00:23:46	00:31:02	427946	64950eb7e2cb12bc4dc6d9d2	3	1	main_slash	7	main_slash	69	stimuli_target_rectangletriangles.svg	stimuli_distractor_diamondtriangles.svg	5	yes	53	1	542	0	0			0	0			1				0	
6.6.1	win	2023-07-07	00:23:46	00:31:02	427946	64950eb7e2cb12bc4dc6d9d2	3	1	main_slash	7	advance_on_keypress_SLASH	70	stimuli_target_rectangletriangles.svg	stimuli_distractor_diamondtriangles.svg	5	yes	57	0	321	0	0			0	0			1				0	
6.6.1	win	2023-07-07	00:23:46	00:31:04	429586	64950eb7e2cb12bc4dc6d9d2	3	1	main_slash	7	main_slash	71	stimuli_distractor_trianglediamonds.svg	stimuli_target_squarediamonds.svg	12	yes	53	1	682	0	0			0	0			1				0	
6.6.1	win	2023-07-07	00:23:46	00:31:04	429586	64950eb7e2cb12bc4dc6d9d2	3	1	main_slash	7	advance_on_keypress_SLASH	72	stimuli_distractor_trianglediamonds.svg	stimuli_target_squarediamonds.svg	12	yes	57	0	302	0	0			0	0			1				0	
6.6.1	win	2023-07-07	00:23:46	00:31:07	432538	64950eb7e2cb12bc4dc6d9d2	3	1	main_slash	7	main_slash	73	stimuli_distractor_trianglediamonds.svg	stimuli_distractor_diamondtriangles.svg	36	no	0	1	2000	0	0			0	0			1				0	
6.6.1	win	2023-07-07	00:23:46	00:31:07	432538	64950eb7e2cb12bc4dc6d9d2	3	1	main_slash	7	advance_on_keypress_SLASH	74	stimuli_distractor_trianglediamonds.svg	stimuli_distractor_diamondtriangles.svg	36	no	57	0	339	0	0			0	0			1				0	
6.6.1	win	2023-07-07	00:23:46	00:31:09	434439	64950eb7e2cb12bc4dc6d9d2	3	1	main_slash	7	main_slash	75	stimuli_target_trianglesquares.svg	stimuli_distractor_trianglediamonds.svg	18	yes	53	1	918	0	0			0	0			1				0	
6.6.1	win	2023-07-07	00:23:46	00:31:09	434439	64950eb7e2cb12bc4dc6d9d2	3	1	main_slash	7	advance_on_keypress_SLASH	76	stimuli_target_trianglesquares.svg	stimuli_distractor_trianglediamonds.svg	18	yes	57	0	443	0	0			0	0			1				0	
6.6.1	win	2023-07-07	00:23:46	00:31:10	436188	64950eb7e2cb12bc4dc6d9d2	3	1	main_slash	7	main_slash	77	stimuli_target_squarediamonds.svg	stimuli_distractor_trianglediamonds.svg	4	yes	53	1	667	0	0			0	0			1				0	
6.6.1	win	2023-07-07	00:23:46	00:31:10	436188	64950eb7e2cb12bc4dc6d9d2	3	1	main_slash	7	advance_on_keypress_SLASH	78	stimuli_target_squarediamonds.svg	stimuli_distractor_trianglediamonds.svg	4	yes	57	0	306	0	0			0	0			1				0	
6.6.1	win	2023-07-07	00:23:46	00:31:12	437614	64950eb7e2cb12bc4dc6d9d2	3	1	main_slash	7	main_slash	79	stimuli_distractor_diamondtriangles.svg	stimuli_target_rectangletriangles.svg	13	yes	53	1	476	0	0			0	0			1				0	
6.6.1	win	2023-07-07	00:23:46	00:31:12	437614	64950eb7e2cb12bc4dc6d9d2	3	1	main_slash	7	advance_on_keypress_SLASH	80	stimuli_distractor_diamondtriangles.svg	stimuli_target_rectangletriangles.svg	13	yes	57	0	296	0	0			0	0			1				0	
6.6.1	win	2023-07-07	00:23:46	00:31:15	440538	64950eb7e2cb12bc4dc6d9d2	3	1	main_slash	7	main_slash	81	stimuli_distractor_trianglediamonds.svg	stimuli_distractor_diamondtriangles.svg	36	no	0	1	2000	0	0			0	0			1				0	
6.6.1	win	2023-07-07	00:23:46	00:31:15	440538	64950eb7e2cb12bc4dc6d9d2	3	1	main_slash	7	advance_on_keypress_SLASH	82	stimuli_distractor_trianglediamonds.svg	stimuli_distractor_diamondtriangles.svg	36	no	57	0	403	0	0			0	0			1				0	
6.6.1	win	2023-07-07	00:23:46	00:31:16	442329	64950eb7e2cb12bc4dc6d9d2	3	1	main_slash	7	main_slash	83	stimuli_target_trianglerectangles.svg	stimuli_distractor_trianglediamonds.svg	17	yes	53	1	742	0	0			0	0			1				0	
6.6.1	win	2023-07-07	00:23:46	00:31:16	442329	64950eb7e2cb12bc4dc6d9d2	3	1	main_slash	7	advance_on_keypress_SLASH	84	stimuli_target_trianglerectangles.svg	stimuli_distractor_trianglediamonds.svg	17	yes	57	0	343	0	0			0	0			1				0	
6.6.1	win	2023-07-07	00:23:46	00:31:18	443801	64950eb7e2cb12bc4dc6d9d2	3	1	main_slash	7	main_slash	85	stimuli_distractor_diamondtriangles.svg	stimuli_target_trianglesquares.svg	30	yes	53	1	498	0	0			0	0			1				0	
6.6.1	win	2023-07-07	00:23:46	00:31:18	443801	64950eb7e2cb12bc4dc6d9d2	3	1	main_slash	7	advance_on_keypress_SLASH	86	stimuli_distractor_diamondtriangles.svg	stimuli_target_trianglesquares.svg	30	yes	57	0	320	0	0			0	0			1				0	
6.6.1	win	2023-07-07	00:23:46	00:31:19	445287	64950eb7e2cb12bc4dc6d9d2	3	1	main_slash	7	main_slash	87	stimuli_target_trianglesquares.svg	stimuli_distractor_diamondtriangles.svg	22	yes	53	1	514	0	0			0	0			1				0	
6.6.1	win	2023-07-07	00:23:46	00:31:19	445287	64950eb7e2cb12bc4dc6d9d2	3	1	main_slash	7	advance_on_keypress_SLASH	88	stimuli_target_trianglesquares.svg	stimuli_distractor_diamondtriangles.svg	22	yes	57	0	326	0	0			0	0			1				0	
6.6.1	win	2023-07-07	00:23:46	00:31:22	448254	64950eb7e2cb12bc4dc6d9d2	3	1	main_slash	7	main_slash	89	stimuli_distractor_trianglediamonds.svg	stimuli_distractor_diamondtriangles.svg	35	no	0	1	2000	0	0			0	0			1				0	
6.6.1	win	2023-07-07	00:23:46	00:31:22	448254	64950eb7e2cb12bc4dc6d9d2	3	1	main_slash	7	advance_on_keypress_SLASH	90	stimuli_distractor_trianglediamonds.svg	stimuli_distractor_diamondtriangles.svg	35	no	57	0	356	0	0			0	0			1				0	
6.6.1	win	2023-07-07	00:23:46	00:31:24	449716	64950eb7e2cb12bc4dc6d9d2	3	1	main_slash	7	main_slash	91	stimuli_target_squarediamonds.svg	stimuli_distractor_trianglediamonds.svg	4	yes	53	1	463	0	0			0	0			1				0	
6.6.1	win	2023-07-07	00:23:46	00:31:24	449716	64950eb7e2cb12bc4dc6d9d2	3	1	main_slash	7	advance_on_keypress_SLASH	92	stimuli_target_squarediamonds.svg	stimuli_distractor_trianglediamonds.svg	4	yes	57	0	364	0	0			0	0			1				0	
6.6.1	win	2023-07-07	00:23:46	00:31:27	452721	64950eb7e2cb12bc4dc6d9d2	3	1	main_slash	7	main_slash	93	stimuli_distractor_diamondtriangles.svg	stimuli_distractor_diamondtriangles.svg	40	no	0	1	2000	0	0			0	0			1				0	
6.6.1	win	2023-07-07	00:23:46	00:31:27	452721	64950eb7e2cb12bc4dc6d9d2	3	1	main_slash	7	advance_on_keypress_SLASH	94	stimuli_distractor_diamondtriangles.svg	stimuli_distractor_diamondtriangles.svg	40	no	57	0	330	0	0			0	0			1				0	
6.6.1	win	2023-07-07	00:23:46	00:31:28	454244	64950eb7e2cb12bc4dc6d9d2	3	1	main_slash	7	main_slash	95	stimuli_distractor_trianglediamonds.svg	stimuli_target_rectangletriangles.svg	9	yes	53	1	541	0	0			0	0			1				0	
6.6.1	win	2023-07-07	00:23:46	00:31:28	454244	64950eb7e2cb12bc4dc6d9d2	3	1	main_slash	7	advance_on_keypress_SLASH	96	stimuli_distractor_trianglediamonds.svg	stimuli_target_rectangletriangles.svg	9	yes	57	0	339	0	0			0	0			1				0	
6.6.1	win	2023-07-07	00:23:46	00:31:31	457221	64950eb7e2cb12bc4dc6d9d2	3	1	main_slash	7	main_slash	97	stimuli_distractor_trianglediamonds.svg	stimuli_distractor_trianglediamonds.svg	33	no	0	1	2000	0	0			0	0			1				0	
6.6.1	win	2023-07-07	00:23:46	00:31:31	457221	64950eb7e2cb12bc4dc6d9d2	3	1	main_slash	7	advance_on_keypress_SLASH	98	stimuli_distractor_trianglediamonds.svg	stimuli_distractor_trianglediamonds.svg	33	no	57	0	374	0	0			0	0			1				0	
6.6.1	win	2023-07-07	00:23:46	00:31:33	458769	64950eb7e2cb12bc4dc6d9d2	3	1	main_slash	7	main_slash	99	stimuli_target_squaretriangles.svg	stimuli_distractor_trianglediamonds.svg	3	yes	53	1	532	0	0			0	0			1				0	
6.6.1	win	2023-07-07	00:23:46	00:31:33	458769	64950eb7e2cb12bc4dc6d9d2	3	1	main_slash	7	advance_on_keypress_SLASH	100	stimuli_target_squaretriangles.svg	stimuli_distractor_trianglediamonds.svg	3	yes	57	0	320	0	0			0	0			1				0	
6.6.1	win	2023-07-07	00:23:46	00:31:35	460376	64950eb7e2cb12bc4dc6d9d2	3	1	main_slash	7	main_slash	101	stimuli_distractor_diamondtriangles.svg	stimuli_target_trianglerectangles.svg	29	yes	53	1	638	0	0			0	0			1				0	
6.6.1	win	2023-07-07	00:23:46	00:31:35	460376	64950eb7e2cb12bc4dc6d9d2	3	1	main_slash	7	advance_on_keypress_SLASH	102	stimuli_distractor_diamondtriangles.svg	stimuli_target_trianglerectangles.svg	29	yes	57	0	337	0	0			0	0			1				0	
6.6.1	win	2023-07-07	00:23:46	00:31:36	462061	64950eb7e2cb12bc4dc6d9d2	3	1	main_slash	7	main_slash	103	stimuli_distractor_diamondtriangles.svg	stimuli_target_rectangletriangles.svg	13	yes	53	1	708	0	0			0	0			1				0	
6.6.1	win	2023-07-07	00:23:46	00:31:36	462061	64950eb7e2cb12bc4dc6d9d2	3	1	main_slash	7	advance_on_keypress_SLASH	104	stimuli_distractor_diamondtriangles.svg	stimuli_target_rectangletriangles.svg	13	yes	57	0	317	0	0			0	0			1				0	
6.6.1	win	2023-07-07	00:23:46	00:31:38	463504	64950eb7e2cb12bc4dc6d9d2	3	1	main_slash	7	main_slash	105	stimuli_distractor_trianglediamonds.svg	stimuli_target_squaretriangles.svg	11	yes	53	1	483	0	0			0	0			1				0	
6.6.1	win	2023-07-07	00:23:46	00:31:38	463504	64950eb7e2cb12bc4dc6d9d2	3	1	main_slash	7	advance_on_keypress_SLASH	106	stimuli_distractor_trianglediamonds.svg	stimuli_target_squaretriangles.svg	11	yes	57	0	322	0	0			0	0			1				0	
6.6.1	win	2023-07-07	00:23:46	00:31:39	464986	64950eb7e2cb12bc4dc6d9d2	3	1	main_slash	7	main_slash	107	stimuli_target_rectanglediamonds.svg	stimuli_distractor_trianglediamonds.svg	2	yes	53	1	504	0	0			0	0			1				0	
6.6.1	win	2023-07-07	00:23:46	00:31:39	464986	64950eb7e2cb12bc4dc6d9d2	3	1	main_slash	7	advance_on_keypress_SLASH	108	stimuli_target_rectanglediamonds.svg	stimuli_distractor_trianglediamonds.svg	2	yes	57	0	313	0	0			0	0			1				0	
6.6.1	win	2023-07-07	00:23:46	00:31:41	466625	64950eb7e2cb12bc4dc6d9d2	3	1	main_slash	7	main_slash	109	stimuli_target_trianglesquares.svg	stimuli_distractor_trianglediamonds.svg	18	yes	53	1	688	0	0			0	0			1				0	
6.6.1	win	2023-07-07	00:23:46	00:31:41	466625	64950eb7e2cb12bc4dc6d9d2	3	1	main_slash	7	advance_on_keypress_SLASH	110	stimuli_target_trianglesquares.svg	stimuli_distractor_trianglediamonds.svg	18	yes	57	0	312	0	0			0	0			1				0	
6.6.1	win	2023-07-07	00:23:46	00:31:42	468043	64950eb7e2cb12bc4dc6d9d2	3	1	main_slash	7	main_slash	111	stimuli_target_squarediamonds.svg	stimuli_distractor_diamondtriangles.svg	8	yes	53	1	472	0	0			0	0			1				0	
6.6.1	win	2023-07-07	00:23:46	00:31:42	468043	64950eb7e2cb12bc4dc6d9d2	3	1	main_slash	7	advance_on_keypress_SLASH	112	stimuli_target_squarediamonds.svg	stimuli_distractor_diamondtriangles.svg	8	yes	57	0	357	0	0			0	0			1				0	
6.6.1	win	2023-07-07	00:23:46	00:31:45	471037	64950eb7e2cb12bc4dc6d9d2	3	1	main_slash	7	main_slash	113	stimuli_distractor_diamondtriangles.svg	stimuli_distractor_trianglediamonds.svg	37	no	0	1	2000	0	0			0	0			1				0	
6.6.1	win	2023-07-07	00:23:46	00:31:45	471037	64950eb7e2cb12bc4dc6d9d2	3	1	main_slash	7	advance_on_keypress_SLASH	114	stimuli_distractor_diamondtriangles.svg	stimuli_distractor_trianglediamonds.svg	37	no	57	0	351	0	0			0	0			1				0	
6.6.1	win	2023-07-07	00:23:46	00:31:48	474037	64950eb7e2cb12bc4dc6d9d2	3	1	main_slash	7	main_slash	115	stimuli_distractor_trianglediamonds.svg	stimuli_distractor_trianglediamonds.svg	34	no	0	1	2000	0	0			0	0			1				0	
6.6.1	win	2023-07-07	00:23:46	00:31:48	474037	64950eb7e2cb12bc4dc6d9d2	3	1	main_slash	7	advance_on_keypress_SLASH	116	stimuli_distractor_trianglediamonds.svg	stimuli_distractor_trianglediamonds.svg	34	no	57	0	370	0	0			0	0			1				0	
6.6.1	win	2023-07-07	00:23:46	00:31:50	475478	64950eb7e2cb12bc4dc6d9d2	3	1	main_slash	7	main_slash	117	stimuli_distractor_diamondtriangles.svg	stimuli_target_squaretriangles.svg	15	yes	53	1	425	0	0			0	0			1				0	
6.6.1	win	2023-07-07	00:23:46	00:31:50	475478	64950eb7e2cb12bc4dc6d9d2	3	1	main_slash	7	advance_on_keypress_SLASH	118	stimuli_distractor_diamondtriangles.svg	stimuli_target_squaretriangles.svg	15	yes	57	0	345	0	0			0	0			1				0	
6.6.1	win	2023-07-07	00:23:46	00:31:51	477066	64950eb7e2cb12bc4dc6d9d2	3	1	main_slash	7	main_slash	119	stimuli_target_rectanglediamonds.svg	stimuli_distractor_diamondtriangles.svg	6	yes	53	1	612	0	0			0	0			1				0	
6.6.1	win	2023-07-07	00:23:46	00:31:51	477066	64950eb7e2cb12bc4dc6d9d2	3	1	main_slash	7	advance_on_keypress_SLASH	120	stimuli_target_rectanglediamonds.svg	stimuli_distractor_diamondtriangles.svg	6	yes	57	0	277	0	0			0	0			1				0	
6.6.1	win	2023-07-07	00:23:46	00:31:53	478681	64950eb7e2cb12bc4dc6d9d2	3	1	main_slash	7	main_slash	121	stimuli_target_diamondrectangles.svg	stimuli_distractor_diamondtriangles.svg	23	yes	53	1	712	0	0			0	0			1				0	
6.6.1	win	2023-07-07	00:23:46	00:31:53	478681	64950eb7e2cb12bc4dc6d9d2	3	1	main_slash	7	advance_on_keypress_SLASH	122	stimuli_target_diamondrectangles.svg	stimuli_distractor_diamondtriangles.svg	23	yes	57	0	319	0	0			0	0			1				0	
6.6.1	win	2023-07-07	00:23:46	00:31:55	480674	64950eb7e2cb12bc4dc6d9d2	3	1	main_slash	7	main_slash	123	stimuli_distractor_trianglediamonds.svg	stimuli_target_squarediamonds.svg	12	yes	53	1	1037	0	0			0	0			1				0	
6.6.1	win	2023-07-07	00:23:46	00:31:55	480674	64950eb7e2cb12bc4dc6d9d2	3	1	main_slash	7	advance_on_keypress_SLASH	124	stimuli_distractor_trianglediamonds.svg	stimuli_target_squarediamonds.svg	12	yes	57	0	292	0	0			0	0			1				0	
6.6.1	win	2023-07-07	00:23:46	00:31:57	482440	64950eb7e2cb12bc4dc6d9d2	3	1	main_slash	7	main_slash	125	stimuli_distractor_trianglediamonds.svg	stimuli_target_trianglerectangles.svg	25	yes	53	1	836	0	0			0	0			1				0	
6.6.1	win	2023-07-07	00:23:46	00:31:57	482440	64950eb7e2cb12bc4dc6d9d2	3	1	main_slash	7	advance_on_keypress_SLASH	126	stimuli_distractor_trianglediamonds.svg	stimuli_target_trianglerectangles.svg	25	yes	57	0	439	0	0			0	0			1				0	
6.6.1	win	2023-07-07	00:23:46	00:31:58	484129	64950eb7e2cb12bc4dc6d9d2	3	1	main_slash	7	main_slash	127	stimuli_distractor_diamondtriangles.svg	stimuli_target_diamondsquares.svg	32	yes	53	1	610	0	0			0	0			1				0	
6.6.1	win	2023-07-07	00:23:46	00:31:58	484129	64950eb7e2cb12bc4dc6d9d2	3	1	main_slash	7	advance_on_keypress_SLASH	128	stimuli_distractor_diamondtriangles.svg	stimuli_target_diamondsquares.svg	32	yes	57	0	308	0	0			0	0			1				0	
6.6.1	win	2023-07-07	00:23:46	00:32:00	485795	64950eb7e2cb12bc4dc6d9d2	3	1	main_slash	7	main_slash	129	stimuli_distractor_trianglediamonds.svg	stimuli_target_trianglesquares.svg	26	yes	53	1	725	0	0			0	0			1				0	
6.6.1	win	2023-07-07	00:23:46	00:32:00	485795	64950eb7e2cb12bc4dc6d9d2	3	1	main_slash	7	advance_on_keypress_SLASH	130	stimuli_distractor_trianglediamonds.svg	stimuli_target_trianglesquares.svg	26	yes	57	0	311	0	0			0	0			1				0	
6.6.1	win	2023-07-07	00:23:46	00:32:02	487603	64950eb7e2cb12bc4dc6d9d2	3	1	main_slash	7	main_slash	131	stimuli_target_rectangletriangles.svg	stimuli_distractor_trianglediamonds.svg	1	yes	53	1	867	0	0			0	0			1				0	
6.6.1	win	2023-07-07	00:23:46	00:32:02	487603	64950eb7e2cb12bc4dc6d9d2	3	1	main_slash	7	advance_on_keypress_SLASH	132	stimuli_target_rectangletriangles.svg	stimuli_distractor_trianglediamonds.svg	1	yes	57	0	305	0	0			0	0			1				0	
6.6.1	win	2023-07-07	00:23:46	00:32:05	490554	64950eb7e2cb12bc4dc6d9d2	3	1	main_slash	7	main_slash	133	stimuli_distractor_diamondtriangles.svg	stimuli_distractor_trianglediamonds.svg	38	no	0	1	2000	0	0			0	0			1				0	
6.6.1	win	2023-07-07	00:23:46	00:32:05	490554	64950eb7e2cb12bc4dc6d9d2	3	1	main_slash	7	advance_on_keypress_SLASH	134	stimuli_distractor_diamondtriangles.svg	stimuli_distractor_trianglediamonds.svg	38	no	57	0	346	0	0			0	0			1				0	
6.6.1	win	2023-07-07	00:23:46	00:32:06	492072	64950eb7e2cb12bc4dc6d9d2	3	1	main_slash	7	main_slash	135	stimuli_distractor_diamondtriangles.svg	stimuli_target_squarediamonds.svg	16	yes	53	1	535	0	0			0	0			1				0	
6.6.1	win	2023-07-07	00:23:46	00:32:06	492072	64950eb7e2cb12bc4dc6d9d2	3	1	main_slash	7	advance_on_keypress_SLASH	136	stimuli_distractor_diamondtriangles.svg	stimuli_target_squarediamonds.svg	16	yes	57	0	360	0	0			0	0			1				0	
6.6.1	win	2023-07-07	00:23:46	00:32:08	493657	64950eb7e2cb12bc4dc6d9d2	3	1	main_slash	7	main_slash	137	stimuli_target_diamondrectangles.svg	stimuli_distractor_trianglediamonds.svg	19	yes	53	1	587	0	0			0	0			1				0	
6.6.1	win	2023-07-07	00:23:46	00:32:08	493657	64950eb7e2cb12bc4dc6d9d2	3	1	main_slash	7	advance_on_keypress_SLASH	138	stimuli_target_diamondrectangles.svg	stimuli_distractor_trianglediamonds.svg	19	yes	57	0	323	0	0			0	0			1				0	
6.6.1	win	2023-07-07	00:23:46	00:32:09	495202	64950eb7e2cb12bc4dc6d9d2	3	1	main_slash	7	main_slash	139	stimuli_target_squaretriangles.svg	stimuli_distractor_diamondtriangles.svg	7	yes	53	1	582	0	0			0	0			1				0	
6.6.1	win	2023-07-07	00:23:46	00:32:09	495202	64950eb7e2cb12bc4dc6d9d2	3	1	main_slash	7	advance_on_keypress_SLASH	140	stimuli_target_squaretriangles.svg	stimuli_distractor_diamondtriangles.svg	7	yes	57	0	340	0	0			0	0			1				0	
6.6.1	win	2023-07-07	00:23:46	00:32:11	496743	64950eb7e2cb12bc4dc6d9d2	3	1	main_slash	7	main_slash	141	stimuli_distractor_trianglediamonds.svg	stimuli_target_diamondrectangles.svg	27	yes	53	1	557	0	0			0	0			1				0	
6.6.1	win	2023-07-07	00:23:46	00:32:11	496743	64950eb7e2cb12bc4dc6d9d2	3	1	main_slash	7	advance_on_keypress_SLASH	142	stimuli_distractor_trianglediamonds.svg	stimuli_target_diamondrectangles.svg	27	yes	57	0	340	0	0			0	0			1				0	
6.6.1	win	2023-07-07	00:23:46	00:32:12	498215	64950eb7e2cb12bc4dc6d9d2	3	1	main_slash	7	main_slash	143	stimuli_distractor_trianglediamonds.svg	stimuli_target_diamondsquares.svg	28	yes	53	1	496	0	0			0	0			1				0	
6.6.1	win	2023-07-07	00:23:46	00:32:12	498215	64950eb7e2cb12bc4dc6d9d2	3	1	main_slash	7	advance_on_keypress_SLASH	144	stimuli_distractor_trianglediamonds.svg	stimuli_target_diamondsquares.svg	28	yes	57	0	341	0	0			0	0			1				0	
6.6.1	win	2023-07-07	00:23:46	00:32:14	499756	64950eb7e2cb12bc4dc6d9d2	3	1	main_slash	7	main_slash	145	stimuli_target_rectangletriangles.svg	stimuli_distractor_diamondtriangles.svg	5	yes	53	1	569	0	0			0	0			1				0	
6.6.1	win	2023-07-07	00:23:46	00:32:14	499756	64950eb7e2cb12bc4dc6d9d2	3	1	main_slash	7	advance_on_keypress_SLASH	146	stimuli_target_rectangletriangles.svg	stimuli_distractor_diamondtriangles.svg	5	yes	57	0	301	0	0			0	0			1				0	
6.6.1	win	2023-07-07	00:23:46	00:32:16	501551	64950eb7e2cb12bc4dc6d9d2	3	1	main_slash	7	main_slash	147	stimuli_distractor_trianglediamonds.svg	stimuli_target_rectanglediamonds.svg	10	yes	53	1	848	0	0			0	0			1				0	
6.6.1	win	2023-07-07	00:23:46	00:32:16	501551	64950eb7e2cb12bc4dc6d9d2	3	1	main_slash	7	advance_on_keypress_SLASH	148	stimuli_distractor_trianglediamonds.svg	stimuli_target_rectanglediamonds.svg	10	yes	57	0	304	0	0			0	0			1				0	
6.6.1	win	2023-07-07	00:23:46	00:32:19	504503	64950eb7e2cb12bc4dc6d9d2	3	1	main_slash	7	main_slash	149	stimuli_distractor_diamondtriangles.svg	stimuli_distractor_diamondtriangles.svg	39	no	0	1	2000	0	0			0	0			1				0	
6.6.1	win	2023-07-07	00:23:46	00:32:19	504503	64950eb7e2cb12bc4dc6d9d2	3	1	main_slash	7	advance_on_keypress_SLASH	150	stimuli_distractor_diamondtriangles.svg	stimuli_distractor_diamondtriangles.svg	39	no	57	0	348	0	0			0	0			1				0	
6.6.1	win	2023-07-07	00:23:46	00:32:20	505921	64950eb7e2cb12bc4dc6d9d2	3	1	main_slash	7	main_slash	151	stimuli_distractor_diamondtriangles.svg	stimuli_target_rectanglediamonds.svg	14	yes	53	1	418	0	0			0	0			1				0	
6.6.1	win	2023-07-07	00:23:46	00:32:20	505921	64950eb7e2cb12bc4dc6d9d2	3	1	main_slash	7	advance_on_keypress_SLASH	152	stimuli_distractor_diamondtriangles.svg	stimuli_target_rectanglediamonds.svg	14	yes	57	0	402	0	0			0	0			1				0	
6.6.1	win	2023-07-07	00:23:46	00:32:22	507796	64950eb7e2cb12bc4dc6d9d2	3	1	main_slash	7	main_slash	153	stimuli_target_trianglerectangles.svg	stimuli_distractor_diamondtriangles.svg	21	yes	53	1	826	0	0			0	0			1				0	
6.6.1	win	2023-07-07	00:23:46	00:32:22	507796	64950eb7e2cb12bc4dc6d9d2	3	1	main_slash	7	advance_on_keypress_SLASH	154	stimuli_target_trianglerectangles.svg	stimuli_distractor_diamondtriangles.svg	21	yes	57	0	370	0	0			0	0			1				0	
6.6.1	win	2023-07-07	00:23:46	00:32:23	509332	64950eb7e2cb12bc4dc6d9d2	3	1	main_slash	7	main_slash	155	stimuli_target_diamondsquares.svg	stimuli_distractor_diamondtriangles.svg	24	yes	53	1	529	0	0			0	0			1				0	
6.6.1	win	2023-07-07	00:23:46	00:32:23	509332	64950eb7e2cb12bc4dc6d9d2	3	1	main_slash	7	advance_on_keypress_SLASH	156	stimuli_target_diamondsquares.svg	stimuli_distractor_diamondtriangles.svg	24	yes	57	0	321	0	0			0	0			1				0	
6.6.1	win	2023-07-07	00:23:46	00:32:25	510802	64950eb7e2cb12bc4dc6d9d2	3	1	main_slash	7	main_slash	157	stimuli_distractor_diamondtriangles.svg	stimuli_target_diamondrectangles.svg	31	yes	53	1	511	0	0			0	0			1				0	
6.6.1	win	2023-07-07	00:23:46	00:32:25	510802	64950eb7e2cb12bc4dc6d9d2	3	1	main_slash	7	advance_on_keypress_SLASH	158	stimuli_distractor_diamondtriangles.svg	stimuli_target_diamondrectangles.svg	31	yes	57	0	311	0	0			0	0			1				0	
6.6.1	win	2023-07-07	00:23:46	00:32:26	512269	64950eb7e2cb12bc4dc6d9d2	3	1	main_slash	7	main_slash	159	stimuli_target_diamondsquares.svg	stimuli_distractor_trianglediamonds.svg	20	yes	53	1	513	0	0			0	0			1				0	
6.6.1	win	2023-07-07	00:23:46	00:32:26	512269	64950eb7e2cb12bc4dc6d9d2	3	1	main_slash	7	advance_on_keypress_SLASH	160	stimuli_target_diamondsquares.svg	stimuli_distractor_trianglediamonds.svg	20	yes	57	0	278	0	0			0	0			1				0	
6.6.1	win	2023-07-07	00:23:46	00:32:52	537829	64950eb7e2cb12bc4dc6d9d2	3	1	practice_z	9	practice_z	1	stimuli_distractor_diamondtriangles.svg	stimuli_target_rectangletriangles.svg	7	yes	44	1	710	0	0			0	0			1				0	
6.6.1	win	2023-07-07	00:23:46	00:32:52	537829	64950eb7e2cb12bc4dc6d9d2	3	1	practice_z	9	advance_on_keypress_ZEE	2	stimuli_distractor_diamondtriangles.svg	stimuli_target_rectangletriangles.svg	7	yes	57	0	1274	0	0			0	0			1				0	
6.6.1	win	2023-07-07	00:23:46	00:32:55	541336	64950eb7e2cb12bc4dc6d9d2	3	1	practice_z	9	practice_z	3	stimuli_distractor_diamondtriangles.svg	stimuli_target_diamondrectangles.svg	8	yes	44	1	599	0	0			0	0			1				0	
6.6.1	win	2023-07-07	00:23:46	00:32:55	541336	64950eb7e2cb12bc4dc6d9d2	3	1	practice_z	9	advance_on_keypress_ZEE	4	stimuli_distractor_diamondtriangles.svg	stimuli_target_diamondrectangles.svg	8	yes	57	0	567	0	0			0	0			1				0	
6.6.1	win	2023-07-07	00:23:46	00:32:58	544051	64950eb7e2cb12bc4dc6d9d2	3	1	practice_z	9	practice_z	5	stimuli_target_rectanglediamonds.svg	stimuli_distractor_diamondtriangles.svg	1	yes	44	1	497	0	0			0	0			1				0	
6.6.1	win	2023-07-07	00:23:46	00:32:58	544051	64950eb7e2cb12bc4dc6d9d2	3	1	practice_z	9	advance_on_keypress_ZEE	6	stimuli_target_rectanglediamonds.svg	stimuli_distractor_diamondtriangles.svg	1	yes	57	0	1202	0	0			0	0			1				0	
6.6.1	win	2023-07-07	00:23:46	00:33:03	548903	64950eb7e2cb12bc4dc6d9d2	3	1	practice_z	9	practice_z	7	stimuli_distractor_trianglediamonds.svg	stimuli_distractor_trianglediamonds.svg	15	no	0	1	2000	0	0			0	0			1				0	
6.6.1	win	2023-07-07	00:23:46	00:33:03	548903	64950eb7e2cb12bc4dc6d9d2	3	1	practice_z	9	advance_on_keypress_ZEE	8	stimuli_distractor_trianglediamonds.svg	stimuli_distractor_trianglediamonds.svg	15	no	57	0	664	0	0			0	0			1				0	
6.6.1	win	2023-07-07	00:23:46	00:33:06	551751	64950eb7e2cb12bc4dc6d9d2	3	1	practice_z	9	practice_z	9	stimuli_distractor_trianglediamonds.svg	stimuli_target_diamondrectangles.svg	12	yes	44	1	532	0	0			0	0			1				0	
6.6.1	win	2023-07-07	00:23:46	00:33:06	551751	64950eb7e2cb12bc4dc6d9d2	3	1	practice_z	9	advance_on_keypress_ZEE	10	stimuli_distractor_trianglediamonds.svg	stimuli_target_diamondrectangles.svg	12	yes	57	0	645	0	0			0	0			1				0	
6.6.1	win	2023-07-07	00:23:46	00:33:09	554519	64950eb7e2cb12bc4dc6d9d2	3	1	practice_z	9	practice_z	11	stimuli_target_squarediamonds.svg	stimuli_distractor_diamondtriangles.svg	2	yes	44	1	483	0	0			0	0			1				0	
6.6.1	win	2023-07-07	00:23:46	00:33:09	554519	64950eb7e2cb12bc4dc6d9d2	3	1	practice_z	9	advance_on_keypress_ZEE	12	stimuli_target_squarediamonds.svg	stimuli_distractor_diamondtriangles.svg	2	yes	57	0	560	0	0			0	0			1				0	
6.6.1	win	2023-07-07	00:23:46	00:33:11	557307	64950eb7e2cb12bc4dc6d9d2	3	1	practice_z	9	practice_z	13	stimuli_distractor_trianglediamonds.svg	stimuli_target_rectanglediamonds.svg	10	yes	44	1	586	0	0			0	0			1				0	
6.6.1	win	2023-07-07	00:23:46	00:33:11	557307	64950eb7e2cb12bc4dc6d9d2	3	1	practice_z	9	advance_on_keypress_ZEE	14	stimuli_distractor_trianglediamonds.svg	stimuli_target_rectanglediamonds.svg	10	yes	57	0	496	0	0			0	0			1				0	
6.6.1	win	2023-07-07	00:23:46	00:33:14	559972	64950eb7e2cb12bc4dc6d9d2	3	1	practice_z	9	practice_z	15	stimuli_target_squarediamonds.svg	stimuli_distractor_trianglediamonds.svg	5	yes	44	1	536	0	0			0	0			1				0	
6.6.1	win	2023-07-07	00:23:46	00:33:14	559972	64950eb7e2cb12bc4dc6d9d2	3	1	practice_z	9	advance_on_keypress_ZEE	16	stimuli_target_squarediamonds.svg	stimuli_distractor_trianglediamonds.svg	5	yes	57	0	451	0	0			0	0			1				0	
6.6.1	win	2023-07-07	00:23:46	00:33:17	562625	64950eb7e2cb12bc4dc6d9d2	3	1	practice_z	9	practice_z	17	stimuli_target_diamondsquares.svg	stimuli_distractor_diamondtriangles.svg	3	yes	44	1	555	0	0			0	0			1				0	
6.6.1	win	2023-07-07	00:23:46	00:33:17	562625	64950eb7e2cb12bc4dc6d9d2	3	1	practice_z	9	advance_on_keypress_ZEE	18	stimuli_target_diamondsquares.svg	stimuli_distractor_diamondtriangles.svg	3	yes	57	0	616	0	0			0	0			1				0	
6.6.1	win	2023-07-07	00:23:46	00:33:21	566886	64950eb7e2cb12bc4dc6d9d2	3	1	practice_z	9	practice_z	19	stimuli_distractor_diamondtriangles.svg	stimuli_distractor_diamondtriangles.svg	13	no	0	1	2000	0	0			0	0			1				0	
6.6.1	win	2023-07-07	00:23:46	00:33:21	566886	64950eb7e2cb12bc4dc6d9d2	3	1	practice_z	9	advance_on_keypress_ZEE	20	stimuli_distractor_diamondtriangles.svg	stimuli_distractor_diamondtriangles.svg	13	no	57	0	550	0	0			0	0			1				0	
6.6.1	win	2023-07-07	00:23:46	00:33:25	571086	64950eb7e2cb12bc4dc6d9d2	3	1	practice_z	9	practice_z	21	stimuli_distractor_trianglediamonds.svg	stimuli_distractor_diamondtriangles.svg	16	no	0	1	2000	0	0			0	0			1				0	
6.6.1	win	2023-07-07	00:23:46	00:33:25	571086	64950eb7e2cb12bc4dc6d9d2	3	1	practice_z	9	advance_on_keypress_ZEE	22	stimuli_distractor_trianglediamonds.svg	stimuli_distractor_diamondtriangles.svg	16	no	57	0	459	0	0			0	0			1				0	
6.6.1	win	2023-07-07	00:23:46	00:33:28	573752	64950eb7e2cb12bc4dc6d9d2	3	1	practice_z	9	practice_z	23	stimuli_distractor_diamondtriangles.svg	stimuli_target_trianglerectangles.svg	9	yes	44	1	567	0	0			0	0			1				0	
6.6.1	win	2023-07-07	00:23:46	00:33:28	573752	64950eb7e2cb12bc4dc6d9d2	3	1	practice_z	9	advance_on_keypress_ZEE	24	stimuli_distractor_diamondtriangles.svg	stimuli_target_trianglerectangles.svg	9	yes	57	0	488	0	0			0	0			1				0	
6.6.1	win	2023-07-07	00:23:46	00:33:31	576377	64950eb7e2cb12bc4dc6d9d2	3	1	practice_z	9	practice_z	25	stimuli_target_rectanglediamonds.svg	stimuli_distractor_trianglediamonds.svg	4	yes	44	1	491	0	0			0	0			1				0	
6.6.1	win	2023-07-07	00:23:46	00:33:31	576377	64950eb7e2cb12bc4dc6d9d2	3	1	practice_z	9	advance_on_keypress_ZEE	26	stimuli_target_rectanglediamonds.svg	stimuli_distractor_trianglediamonds.svg	4	yes	57	0	498	0	0			0	0			1				0	
6.6.1	win	2023-07-07	00:23:46	00:33:33	579081	64950eb7e2cb12bc4dc6d9d2	3	1	practice_z	9	practice_z	27	stimuli_target_diamondsquares.svg	stimuli_distractor_trianglediamonds.svg	6	yes	44	1	562	0	0			0	0			1				0	
6.6.1	win	2023-07-07	00:23:46	00:33:33	579081	64950eb7e2cb12bc4dc6d9d2	3	1	practice_z	9	advance_on_keypress_ZEE	28	stimuli_target_diamondsquares.svg	stimuli_distractor_trianglediamonds.svg	6	yes	57	0	477	0	0			0	0			1				0	
6.6.1	win	2023-07-07	00:23:46	00:33:37	583186	64950eb7e2cb12bc4dc6d9d2	3	1	practice_z	9	practice_z	29	stimuli_distractor_diamondtriangles.svg	stimuli_distractor_trianglediamonds.svg	14	no	0	1	2000	0	0			0	0			1				0	
6.6.1	win	2023-07-07	00:23:46	00:33:37	583186	64950eb7e2cb12bc4dc6d9d2	3	1	practice_z	9	advance_on_keypress_ZEE	30	stimuli_distractor_diamondtriangles.svg	stimuli_distractor_trianglediamonds.svg	14	no	57	0	385	0	0			0	0			1				0	
6.6.1	win	2023-07-07	00:23:46	00:33:40	585762	64950eb7e2cb12bc4dc6d9d2	3	1	practice_z	9	practice_z	31	stimuli_distractor_trianglediamonds.svg	stimuli_target_squarediamonds.svg	11	yes	44	1	543	0	0			0	0			1				0	
6.6.1	win	2023-07-07	00:23:46	00:33:40	585762	64950eb7e2cb12bc4dc6d9d2	3	1	practice_z	9	advance_on_keypress_ZEE	32	stimuli_distractor_trianglediamonds.svg	stimuli_target_squarediamonds.svg	11	yes	57	0	469	0	0			0	0			1				0	
6.6.1	win	2023-07-07	00:23:46	00:33:46	592082	64950eb7e2cb12bc4dc6d9d2	3	1	main_z	11	main_z	1	stimuli_target_squarediamonds.svg	stimuli_distractor_diamondtriangles.svg	8	yes	44	1	480	0	0			0	0			1				0	
6.6.1	win	2023-07-07	00:23:46	00:33:46	592082	64950eb7e2cb12bc4dc6d9d2	3	1	main_z	11	advance_on_keypress_ZEE	2	stimuli_target_squarediamonds.svg	stimuli_distractor_diamondtriangles.svg	8	yes	57	0	899	0	0			0	0			1				0	
6.6.1	win	2023-07-07	00:23:46	00:33:50	595635	64950eb7e2cb12bc4dc6d9d2	3	1	main_z	11	main_z	3	stimuli_distractor_trianglediamonds.svg	stimuli_distractor_trianglediamonds.svg	33	no	0	1	2000	0	0			0	0			1				0	
6.6.1	win	2023-07-07	00:23:46	00:33:50	595635	64950eb7e2cb12bc4dc6d9d2	3	1	main_z	11	advance_on_keypress_ZEE	4	stimuli_distractor_trianglediamonds.svg	stimuli_distractor_trianglediamonds.svg	33	no	57	0	374	0	0			0	0			1				0	
6.6.1	win	2023-07-07	00:23:46	00:33:51	597135	64950eb7e2cb12bc4dc6d9d2	3	1	main_z	11	main_z	5	stimuli_target_rectangletriangles.svg	stimuli_distractor_diamondtriangles.svg	5	yes	44	1	483	0	0			0	0			1				0	
6.6.1	win	2023-07-07	00:23:46	00:33:51	597135	64950eb7e2cb12bc4dc6d9d2	3	1	main_z	11	advance_on_keypress_ZEE	6	stimuli_target_rectangletriangles.svg	stimuli_distractor_diamondtriangles.svg	5	yes	57	0	726	0	0			0	0			1				0	
6.6.1	win	2023-07-07	00:23:46	00:33:53	598963	64950eb7e2cb12bc4dc6d9d2	3	1	main_z	11	main_z	7	stimuli_target_trianglerectangles.svg	stimuli_distractor_trianglediamonds.svg	17	yes	44	1	461	0	0			0	0			1				0	
6.6.1	win	2023-07-07	00:23:46	00:33:53	598963	64950eb7e2cb12bc4dc6d9d2	3	1	main_z	11	advance_on_keypress_ZEE	8	stimuli_target_trianglerectangles.svg	stimuli_distractor_trianglediamonds.svg	17	yes	57	0	594	0	0			0	0			1				0	
6.6.1	win	2023-07-07	00:23:46	00:33:55	601166	64950eb7e2cb12bc4dc6d9d2	3	1	main_z	11	main_z	9	stimuli_target_squaretriangles.svg	stimuli_distractor_trianglediamonds.svg	3	yes	44	1	982	0	0			0	0			1				0	
6.6.1	win	2023-07-07	00:23:46	00:33:55	601166	64950eb7e2cb12bc4dc6d9d2	3	1	main_z	11	advance_on_keypress_ZEE	10	stimuli_target_squaretriangles.svg	stimuli_distractor_trianglediamonds.svg	3	yes	57	0	640	0	0			0	0			1				0	
6.6.1	win	2023-07-07	00:23:46	00:33:57	603023	64950eb7e2cb12bc4dc6d9d2	3	1	main_z	11	main_z	11	stimuli_target_trianglesquares.svg	stimuli_distractor_diamondtriangles.svg	22	yes	44	1	572	0	0			0	0			1				0	
6.6.1	win	2023-07-07	00:23:46	00:33:57	603023	64950eb7e2cb12bc4dc6d9d2	3	1	main_z	11	advance_on_keypress_ZEE	12	stimuli_target_trianglesquares.svg	stimuli_distractor_diamondtriangles.svg	22	yes	57	0	471	0	0			0	0			1				0	
6.6.1	win	2023-07-07	00:23:46	00:33:59	604616	64950eb7e2cb12bc4dc6d9d2	3	1	main_z	11	main_z	13	stimuli_target_squarediamonds.svg	stimuli_distractor_trianglediamonds.svg	4	yes	44	1	482	0	0			0	0			1				0	
6.6.1	win	2023-07-07	00:23:46	00:33:59	604616	64950eb7e2cb12bc4dc6d9d2	3	1	main_z	11	advance_on_keypress_ZEE	14	stimuli_target_squarediamonds.svg	stimuli_distractor_trianglediamonds.svg	4	yes	57	0	366	0	0			0	0			1				0	
6.6.1	win	2023-07-07	00:23:46	00:34:00	606318	64950eb7e2cb12bc4dc6d9d2	3	1	main_z	11	main_z	15	stimuli_target_diamondrectangles.svg	stimuli_distractor_diamondtriangles.svg	23	yes	44	1	683	0	0			0	0			1				0	
6.6.1	win	2023-07-07	00:23:46	00:34:00	606318	64950eb7e2cb12bc4dc6d9d2	3	1	main_z	11	advance_on_keypress_ZEE	16	stimuli_target_diamondrectangles.svg	stimuli_distractor_diamondtriangles.svg	23	yes	57	0	392	0	0			0	0			1				0	
6.6.1	win	2023-07-07	00:23:46	00:34:02	608084	64950eb7e2cb12bc4dc6d9d2	3	1	main_z	11	main_z	17	stimuli_distractor_diamondtriangles.svg	stimuli_target_rectangletriangles.svg	13	yes	44	1	734	0	0			0	0			1				0	
6.6.1	win	2023-07-07	00:23:46	00:34:02	608084	64950eb7e2cb12bc4dc6d9d2	3	1	main_z	11	advance_on_keypress_ZEE	18	stimuli_distractor_diamondtriangles.svg	stimuli_target_rectangletriangles.svg	13	yes	57	0	420	0	0			0	0			1				0	
6.6.1	win	2023-07-07	00:23:46	00:34:05	611151	64950eb7e2cb12bc4dc6d9d2	3	1	main_z	11	main_z	19	stimuli_distractor_trianglediamonds.svg	stimuli_distractor_diamondtriangles.svg	35	no	0	1	2000	0	0			0	0			1				0	
6.6.1	win	2023-07-07	00:23:46	00:34:05	611151	64950eb7e2cb12bc4dc6d9d2	3	1	main_z	11	advance_on_keypress_ZEE	20	stimuli_distractor_trianglediamonds.svg	stimuli_distractor_diamondtriangles.svg	35	no	57	0	360	0	0			0	0			1				0	
6.6.1	win	2023-07-07	00:23:46	00:34:07	612715	64950eb7e2cb12bc4dc6d9d2	3	1	main_z	11	main_z	21	stimuli_distractor_trianglediamonds.svg	stimuli_target_trianglerectangles.svg	25	yes	44	1	564	0	0			0	0			1				0	
6.6.1	win	2023-07-07	00:23:46	00:34:07	612715	64950eb7e2cb12bc4dc6d9d2	3	1	main_z	11	advance_on_keypress_ZEE	22	stimuli_distractor_trianglediamonds.svg	stimuli_target_trianglerectangles.svg	25	yes	57	0	540	0	0			0	0			1				0	
6.6.1	win	2023-07-07	00:23:46	00:34:09	614395	64950eb7e2cb12bc4dc6d9d2	3	1	main_z	11	main_z	23	stimuli_distractor_trianglediamonds.svg	stimuli_target_diamondsquares.svg	28	yes	44	1	495	0	0			0	0			1				0	
6.6.1	win	2023-07-07	00:23:46	00:34:09	614395	64950eb7e2cb12bc4dc6d9d2	3	1	main_z	11	advance_on_keypress_ZEE	24	stimuli_distractor_trianglediamonds.svg	stimuli_target_diamondsquares.svg	28	yes	57	0	344	0	0			0	0			1				0	
6.6.1	win	2023-07-07	00:23:46	00:34:10	615883	64950eb7e2cb12bc4dc6d9d2	3	1	main_z	11	main_z	25	stimuli_distractor_diamondtriangles.svg	stimuli_target_diamondrectangles.svg	31	yes	44	1	509	0	0			0	0			1				0	
6.6.1	win	2023-07-07	00:23:46	00:34:10	615883	64950eb7e2cb12bc4dc6d9d2	3	1	main_z	11	advance_on_keypress_ZEE	26	stimuli_distractor_diamondtriangles.svg	stimuli_target_diamondrectangles.svg	31	yes	57	0	329	0	0			0	0			1				0	
6.6.1	win	2023-07-07	00:23:46	00:34:12	617555	64950eb7e2cb12bc4dc6d9d2	3	1	main_z	11	main_z	27	stimuli_distractor_diamondtriangles.svg	stimuli_distractor_trianglediamonds.svg	37	no	44	0	705	0	0			0	0			1				0	
6.6.1	win	2023-07-07	00:23:46	00:34:12	617555	64950eb7e2cb12bc4dc6d9d2	3	1	main_z	11	advance_on_keypress_ZEE	28	stimuli_distractor_diamondtriangles.svg	stimuli_distractor_trianglediamonds.svg	37	no	57	0	559	0	0			0	0			1				0	
6.6.1	win	2023-07-07	00:23:46	00:34:15	620751	64950eb7e2cb12bc4dc6d9d2	3	1	main_z	11	main_z	29	stimuli_distractor_trianglediamonds.svg	stimuli_distractor_diamondtriangles.svg	36	no	0	1	2000	0	0			0	0			1				0	
6.6.1	win	2023-07-07	00:23:46	00:34:15	620751	64950eb7e2cb12bc4dc6d9d2	3	1	main_z	11	advance_on_keypress_ZEE	30	stimuli_distractor_trianglediamonds.svg	stimuli_distractor_diamondtriangles.svg	36	no	57	0	388	0	0			0	0			1				0	
6.6.1	win	2023-07-07	00:23:46	00:34:16	622335	64950eb7e2cb12bc4dc6d9d2	3	1	main_z	11	main_z	31	stimuli_target_diamondrectangles.svg	stimuli_distractor_trianglediamonds.svg	19	yes	44	1	552	0	0			0	0			1				0	
6.6.1	win	2023-07-07	00:23:46	00:34:16	622335	64950eb7e2cb12bc4dc6d9d2	3	1	main_z	11	advance_on_keypress_ZEE	32	stimuli_target_diamondrectangles.svg	stimuli_distractor_trianglediamonds.svg	19	yes	57	0	533	0	0			0	0			1				0	
6.6.1	win	2023-07-07	00:23:46	00:34:20	625517	64950eb7e2cb12bc4dc6d9d2	3	1	main_z	11	main_z	33	stimuli_distractor_diamondtriangles.svg	stimuli_distractor_trianglediamonds.svg	38	no	0	1	2000	0	0			0	0			1				0	
6.6.1	win	2023-07-07	00:23:46	00:34:20	625517	64950eb7e2cb12bc4dc6d9d2	3	1	main_z	11	advance_on_keypress_ZEE	34	stimuli_distractor_diamondtriangles.svg	stimuli_distractor_trianglediamonds.svg	38	no	57	0	327	0	0			0	0			1				0	
6.6.1	win	2023-07-07	00:23:46	00:34:21	627181	64950eb7e2cb12bc4dc6d9d2	3	1	main_z	11	main_z	35	stimuli_distractor_trianglediamonds.svg	stimuli_target_rectanglediamonds.svg	10	yes	44	1	696	0	0			0	0			1				0	
6.6.1	win	2023-07-07	00:23:46	00:34:21	627181	64950eb7e2cb12bc4dc6d9d2	3	1	main_z	11	advance_on_keypress_ZEE	36	stimuli_distractor_trianglediamonds.svg	stimuli_target_rectanglediamonds.svg	10	yes	57	0	510	0	0			0	0			1				0	
6.6.1	win	2023-07-07	00:23:46	00:34:24	630334	64950eb7e2cb12bc4dc6d9d2	3	1	main_z	11	main_z	37	stimuli_distractor_diamondtriangles.svg	stimuli_distractor_diamondtriangles.svg	39	no	0	1	2000	0	0			0	0			1				0	
6.6.1	win	2023-07-07	00:23:46	00:34:24	630334	64950eb7e2cb12bc4dc6d9d2	3	1	main_z	11	advance_on_keypress_ZEE	38	stimuli_distractor_diamondtriangles.svg	stimuli_distractor_diamondtriangles.svg	39	no	57	0	328	0	0			0	0			1				0	
6.6.1	win	2023-07-07	00:23:46	00:34:26	631816	64950eb7e2cb12bc4dc6d9d2	3	1	main_z	11	main_z	39	stimuli_distractor_diamondtriangles.svg	stimuli_target_diamondsquares.svg	32	yes	44	1	514	0	0			0	0			1				0	
6.6.1	win	2023-07-07	00:23:46	00:34:26	631816	64950eb7e2cb12bc4dc6d9d2	3	1	main_z	11	advance_on_keypress_ZEE	40	stimuli_distractor_diamondtriangles.svg	stimuli_target_diamondsquares.svg	32	yes	57	0	379	0	0			0	0			1				0	
6.6.1	win	2023-07-07	00:23:46	00:34:27	633350	64950eb7e2cb12bc4dc6d9d2	3	1	main_z	11	main_z	41	stimuli_target_rectanglediamonds.svg	stimuli_distractor_trianglediamonds.svg	2	yes	44	1	517	0	0			0	0			1				0	
6.6.1	win	2023-07-07	00:23:46	00:34:27	633350	64950eb7e2cb12bc4dc6d9d2	3	1	main_z	11	advance_on_keypress_ZEE	42	stimuli_target_rectanglediamonds.svg	stimuli_distractor_trianglediamonds.svg	2	yes	57	0	317	0	0			0	0			1				0	
6.6.1	win	2023-07-07	00:23:46	00:34:29	634874	64950eb7e2cb12bc4dc6d9d2	3	1	main_z	11	main_z	43	stimuli_distractor_diamondtriangles.svg	stimuli_target_rectanglediamonds.svg	14	yes	44	1	556	0	0			0	0			1				0	
6.6.1	win	2023-07-07	00:23:46	00:34:29	634874	64950eb7e2cb12bc4dc6d9d2	3	1	main_z	11	advance_on_keypress_ZEE	44	stimuli_distractor_diamondtriangles.svg	stimuli_target_rectanglediamonds.svg	14	yes	57	0	393	0	0			0	0			1				0	
6.6.1	win	2023-07-07	00:23:46	00:34:31	636416	64950eb7e2cb12bc4dc6d9d2	3	1	main_z	11	main_z	45	stimuli_target_rectanglediamonds.svg	stimuli_distractor_diamondtriangles.svg	6	yes	44	1	510	0	0			0	0			1				0	
6.6.1	win	2023-07-07	00:23:46	00:34:31	636416	64950eb7e2cb12bc4dc6d9d2	3	1	main_z	11	advance_on_keypress_ZEE	46	stimuli_target_rectanglediamonds.svg	stimuli_distractor_diamondtriangles.svg	6	yes	57	0	332	0	0			0	0			1				0	
6.6.1	win	2023-07-07	00:23:46	00:34:34	639401	64950eb7e2cb12bc4dc6d9d2	3	1	main_z	11	main_z	47	stimuli_distractor_trianglediamonds.svg	stimuli_distractor_trianglediamonds.svg	34	no	0	1	2000	0	0			0	0			1				0	
6.6.1	win	2023-07-07	00:23:46	00:34:34	639401	64950eb7e2cb12bc4dc6d9d2	3	1	main_z	11	advance_on_keypress_ZEE	48	stimuli_distractor_trianglediamonds.svg	stimuli_distractor_trianglediamonds.svg	34	no	57	0	478	0	0			0	0			1				0	
6.6.1	win	2023-07-07	00:23:46	00:34:35	641117	64950eb7e2cb12bc4dc6d9d2	3	1	main_z	11	main_z	49	stimuli_target_diamondsquares.svg	stimuli_distractor_trianglediamonds.svg	20	yes	44	1	601	0	0			0	0			1				0	
6.6.1	win	2023-07-07	00:23:46	00:34:35	641117	64950eb7e2cb12bc4dc6d9d2	3	1	main_z	11	advance_on_keypress_ZEE	50	stimuli_target_diamondsquares.svg	stimuli_distractor_trianglediamonds.svg	20	yes	57	0	308	0	0			0	0			1				0	
6.6.1	win	2023-07-07	00:23:46	00:34:37	642657	64950eb7e2cb12bc4dc6d9d2	3	1	main_z	11	main_z	51	stimuli_target_diamondsquares.svg	stimuli_distractor_diamondtriangles.svg	24	yes	44	1	591	0	0			0	0			1				0	
6.6.1	win	2023-07-07	00:23:46	00:34:37	642657	64950eb7e2cb12bc4dc6d9d2	3	1	main_z	11	advance_on_keypress_ZEE	52	stimuli_target_diamondsquares.svg	stimuli_distractor_diamondtriangles.svg	24	yes	57	0	347	0	0			0	0			1				0	
6.6.1	win	2023-07-07	00:23:46	00:34:38	644191	64950eb7e2cb12bc4dc6d9d2	3	1	main_z	11	main_z	53	stimuli_distractor_trianglediamonds.svg	stimuli_target_squaretriangles.svg	11	yes	44	1	558	0	0			0	0			1				0	
6.6.1	win	2023-07-07	00:23:46	00:34:38	644191	64950eb7e2cb12bc4dc6d9d2	3	1	main_z	11	advance_on_keypress_ZEE	54	stimuli_distractor_trianglediamonds.svg	stimuli_target_squaretriangles.svg	11	yes	57	0	348	0	0			0	0			1				0	
6.6.1	win	2023-07-07	00:23:46	00:34:40	645655	64950eb7e2cb12bc4dc6d9d2	3	1	main_z	11	main_z	55	stimuli_target_rectangletriangles.svg	stimuli_distractor_trianglediamonds.svg	1	yes	44	1	471	0	0			0	0			1				0	
6.6.1	win	2023-07-07	00:23:46	00:34:40	645655	64950eb7e2cb12bc4dc6d9d2	3	1	main_z	11	advance_on_keypress_ZEE	56	stimuli_target_rectangletriangles.svg	stimuli_distractor_trianglediamonds.svg	1	yes	57	0	333	0	0			0	0			1				0	
6.6.1	win	2023-07-07	00:23:46	00:34:41	647271	64950eb7e2cb12bc4dc6d9d2	3	1	main_z	11	main_z	57	stimuli_distractor_trianglediamonds.svg	stimuli_target_diamondrectangles.svg	27	yes	44	1	638	0	0			0	0			1				0	
6.6.1	win	2023-07-07	00:23:46	00:34:41	647271	64950eb7e2cb12bc4dc6d9d2	3	1	main_z	11	advance_on_keypress_ZEE	58	stimuli_distractor_trianglediamonds.svg	stimuli_target_diamondrectangles.svg	27	yes	57	0	346	0	0			0	0			1				0	
6.6.1	win	2023-07-07	00:23:46	00:34:43	648843	64950eb7e2cb12bc4dc6d9d2	3	1	main_z	11	main_z	59	stimuli_target_trianglesquares.svg	stimuli_distractor_trianglediamonds.svg	18	yes	44	1	592	0	0			0	0			1				0	
6.6.1	win	2023-07-07	00:23:46	00:34:43	648843	64950eb7e2cb12bc4dc6d9d2	3	1	main_z	11	advance_on_keypress_ZEE	60	stimuli_target_trianglesquares.svg	stimuli_distractor_trianglediamonds.svg	18	yes	57	0	288	0	0			0	0			1				0	
6.6.1	win	2023-07-07	00:23:46	00:34:44	650303	64950eb7e2cb12bc4dc6d9d2	3	1	main_z	11	main_z	61	stimuli_distractor_diamondtriangles.svg	stimuli_target_squarediamonds.svg	16	yes	44	1	537	0	0			0	0			1				0	
6.6.1	win	2023-07-07	00:23:46	00:34:44	650303	64950eb7e2cb12bc4dc6d9d2	3	1	main_z	11	advance_on_keypress_ZEE	62	stimuli_distractor_diamondtriangles.svg	stimuli_target_squarediamonds.svg	16	yes	57	0	318	0	0			0	0			1				0	
6.6.1	win	2023-07-07	00:23:46	00:34:46	652130	64950eb7e2cb12bc4dc6d9d2	3	1	main_z	11	main_z	63	stimuli_target_squaretriangles.svg	stimuli_distractor_diamondtriangles.svg	7	yes	44	1	863	0	0			0	0			1				0	
6.6.1	win	2023-07-07	00:23:46	00:34:46	652130	64950eb7e2cb12bc4dc6d9d2	3	1	main_z	11	advance_on_keypress_ZEE	64	stimuli_target_squaretriangles.svg	stimuli_distractor_diamondtriangles.svg	7	yes	57	0	339	0	0			0	0			1				0	
6.6.1	win	2023-07-07	00:23:46	00:34:49	655100	64950eb7e2cb12bc4dc6d9d2	3	1	main_z	11	main_z	65	stimuli_distractor_diamondtriangles.svg	stimuli_distractor_diamondtriangles.svg	40	no	0	1	2000	0	0			0	0			1				0	
6.6.1	win	2023-07-07	00:23:46	00:34:49	655100	64950eb7e2cb12bc4dc6d9d2	3	1	main_z	11	advance_on_keypress_ZEE	66	stimuli_distractor_diamondtriangles.svg	stimuli_distractor_diamondtriangles.svg	40	no	57	0	549	0	0			0	0			1				0	
6.6.1	win	2023-07-07	00:23:46	00:34:51	656912	64950eb7e2cb12bc4dc6d9d2	3	1	main_z	11	main_z	67	stimuli_target_trianglerectangles.svg	stimuli_distractor_diamondtriangles.svg	21	yes	44	1	612	0	0			0	0			1				0	
6.6.1	win	2023-07-07	00:23:46	00:34:51	656912	64950eb7e2cb12bc4dc6d9d2	3	1	main_z	11	advance_on_keypress_ZEE	68	stimuli_target_trianglerectangles.svg	stimuli_distractor_diamondtriangles.svg	21	yes	57	0	329	0	0			0	0			1				0	
6.6.1	win	2023-07-07	00:23:46	00:34:53	658431	64950eb7e2cb12bc4dc6d9d2	3	1	main_z	11	main_z	69	stimuli_distractor_diamondtriangles.svg	stimuli_target_trianglesquares.svg	30	yes	44	1	564	0	0			0	0			1				0	
6.6.1	win	2023-07-07	00:23:46	00:34:53	658431	64950eb7e2cb12bc4dc6d9d2	3	1	main_z	11	advance_on_keypress_ZEE	70	stimuli_distractor_diamondtriangles.svg	stimuli_target_trianglesquares.svg	30	yes	57	0	317	0	0			0	0			1				0	
6.6.1	win	2023-07-07	00:23:46	00:34:54	659973	64950eb7e2cb12bc4dc6d9d2	3	1	main_z	11	main_z	71	stimuli_distractor_diamondtriangles.svg	stimuli_target_trianglerectangles.svg	29	yes	44	1	574	0	0			0	0			1				0	
6.6.1	win	2023-07-07	00:23:46	00:34:54	659973	64950eb7e2cb12bc4dc6d9d2	3	1	main_z	11	advance_on_keypress_ZEE	72	stimuli_distractor_diamondtriangles.svg	stimuli_target_trianglerectangles.svg	29	yes	57	0	336	0	0			0	0			1				0	
6.6.1	win	2023-07-07	00:23:46	00:34:56	661497	64950eb7e2cb12bc4dc6d9d2	3	1	main_z	11	main_z	73	stimuli_distractor_trianglediamonds.svg	stimuli_target_trianglesquares.svg	26	yes	44	1	547	0	0			0	0			1				0	
6.6.1	win	2023-07-07	00:23:46	00:34:56	661497	64950eb7e2cb12bc4dc6d9d2	3	1	main_z	11	advance_on_keypress_ZEE	74	stimuli_distractor_trianglediamonds.svg	stimuli_target_trianglesquares.svg	26	yes	57	0	341	0	0			0	0			1				0	
6.6.1	win	2023-07-07	00:23:46	00:34:58	663525	64950eb7e2cb12bc4dc6d9d2	3	1	main_z	11	main_z	75	stimuli_distractor_trianglediamonds.svg	stimuli_target_squarediamonds.svg	12	yes	44	1	1058	0	0			0	0			1				0	
6.6.1	win	2023-07-07	00:23:46	00:34:58	663525	64950eb7e2cb12bc4dc6d9d2	3	1	main_z	11	advance_on_keypress_ZEE	76	stimuli_distractor_trianglediamonds.svg	stimuli_target_squarediamonds.svg	12	yes	57	0	301	0	0			0	0			1				0	
6.6.1	win	2023-07-07	00:23:46	00:34:59	664983	64950eb7e2cb12bc4dc6d9d2	3	1	main_z	11	main_z	77	stimuli_distractor_trianglediamonds.svg	stimuli_target_rectangletriangles.svg	9	yes	44	1	502	0	0			0	0			1				0	
6.6.1	win	2023-07-07	00:23:46	00:34:59	664983	64950eb7e2cb12bc4dc6d9d2	3	1	main_z	11	advance_on_keypress_ZEE	78	stimuli_distractor_trianglediamonds.svg	stimuli_target_rectangletriangles.svg	9	yes	57	0	333	0	0			0	0			1				0	
6.6.1	win	2023-07-07	00:23:46	00:35:01	666401	64950eb7e2cb12bc4dc6d9d2	3	1	main_z	11	main_z	79	stimuli_distractor_diamondtriangles.svg	stimuli_target_squaretriangles.svg	15	yes	44	1	435	0	0			0	0			1				0	
6.6.1	win	2023-07-07	00:23:46	00:35:01	666401	64950eb7e2cb12bc4dc6d9d2	3	1	main_z	11	advance_on_keypress_ZEE	80	stimuli_distractor_diamondtriangles.svg	stimuli_target_squaretriangles.svg	15	yes	57	0	358	0	0			0	0			1				0	
6.6.1	win	2023-07-07	00:23:46	00:35:02	667894	64950eb7e2cb12bc4dc6d9d2	3	1	main_z	11	main_z	81	stimuli_target_rectanglediamonds.svg	stimuli_distractor_trianglediamonds.svg	2	yes	44	1	495	0	0			0	0			1				0	
6.6.1	win	2023-07-07	00:23:46	00:35:02	667894	64950eb7e2cb12bc4dc6d9d2	3	1	main_z	11	advance_on_keypress_ZEE	82	stimuli_target_rectanglediamonds.svg	stimuli_distractor_trianglediamonds.svg	2	yes	57	0	339	0	0			0	0			1				0	
6.6.1	win	2023-07-07	00:23:46	00:35:04	669352	64950eb7e2cb12bc4dc6d9d2	3	1	main_z	11	main_z	83	stimuli_distractor_trianglediamonds.svg	stimuli_target_rectangletriangles.svg	9	yes	44	1	486	0	0			0	0			1				0	
6.6.1	win	2023-07-07	00:23:46	00:35:04	669352	64950eb7e2cb12bc4dc6d9d2	3	1	main_z	11	advance_on_keypress_ZEE	84	stimuli_distractor_trianglediamonds.svg	stimuli_target_rectangletriangles.svg	9	yes	57	0	343	0	0			0	0			1				0	
6.6.1	win	2023-07-07	00:23:46	00:35:05	671061	64950eb7e2cb12bc4dc6d9d2	3	1	main_z	11	main_z	85	stimuli_target_trianglesquares.svg	stimuli_distractor_trianglediamonds.svg	18	yes	44	1	727	0	0			0	0			1				0	
6.6.1	win	2023-07-07	00:23:46	00:35:05	671061	64950eb7e2cb12bc4dc6d9d2	3	1	main_z	11	advance_on_keypress_ZEE	86	stimuli_target_trianglesquares.svg	stimuli_distractor_trianglediamonds.svg	18	yes	57	0	322	0	0			0	0			1				0	
6.6.1	win	2023-07-07	00:23:46	00:35:08	674017	64950eb7e2cb12bc4dc6d9d2	3	1	main_z	11	main_z	87	stimuli_distractor_trianglediamonds.svg	stimuli_distractor_trianglediamonds.svg	33	no	0	1	2000	0	0			0	0			1				0	
6.6.1	win	2023-07-07	00:23:46	00:35:08	674017	64950eb7e2cb12bc4dc6d9d2	3	1	main_z	11	advance_on_keypress_ZEE	88	stimuli_distractor_trianglediamonds.svg	stimuli_distractor_trianglediamonds.svg	33	no	57	0	338	0	0			0	0			1				0	
6.6.1	win	2023-07-07	00:23:46	00:35:11	677000	64950eb7e2cb12bc4dc6d9d2	3	1	main_z	11	main_z	89	stimuli_distractor_diamondtriangles.svg	stimuli_distractor_diamondtriangles.svg	40	no	0	1	2000	0	0			0	0			1				0	
6.6.1	win	2023-07-07	00:23:46	00:35:11	677000	64950eb7e2cb12bc4dc6d9d2	3	1	main_z	11	advance_on_keypress_ZEE	90	stimuli_distractor_diamondtriangles.svg	stimuli_distractor_diamondtriangles.svg	40	no	57	0	341	0	0			0	0			1				0	
6.6.1	win	2023-07-07	00:23:46	00:35:14	679983	64950eb7e2cb12bc4dc6d9d2	3	1	main_z	11	main_z	91	stimuli_distractor_diamondtriangles.svg	stimuli_distractor_trianglediamonds.svg	38	no	0	1	2000	0	0			0	0			1				0	
6.6.1	win	2023-07-07	00:23:46	00:35:14	679983	64950eb7e2cb12bc4dc6d9d2	3	1	main_z	11	advance_on_keypress_ZEE	92	stimuli_distractor_diamondtriangles.svg	stimuli_distractor_trianglediamonds.svg	38	no	57	0	335	0	0			0	0			1				0	
6.6.1	win	2023-07-07	00:23:46	00:35:16	681539	64950eb7e2cb12bc4dc6d9d2	3	1	main_z	11	main_z	93	stimuli_target_trianglerectangles.svg	stimuli_distractor_trianglediamonds.svg	17	yes	44	1	572	0	0			0	0			1				0	
6.6.1	win	2023-07-07	00:23:46	00:35:16	681539	64950eb7e2cb12bc4dc6d9d2	3	1	main_z	11	advance_on_keypress_ZEE	94	stimuli_target_trianglerectangles.svg	stimuli_distractor_trianglediamonds.svg	17	yes	57	0	383	0	0			0	0			1				0	
6.6.1	win	2023-07-07	00:23:46	00:35:17	683132	64950eb7e2cb12bc4dc6d9d2	3	1	main_z	11	main_z	95	stimuli_target_rectanglediamonds.svg	stimuli_distractor_diamondtriangles.svg	6	yes	44	1	565	0	0			0	0			1				0	
6.6.1	win	2023-07-07	00:23:46	00:35:17	683132	64950eb7e2cb12bc4dc6d9d2	3	1	main_z	11	advance_on_keypress_ZEE	96	stimuli_target_rectanglediamonds.svg	stimuli_distractor_diamondtriangles.svg	6	yes	57	0	409	0	0			0	0			1				0	
6.6.1	win	2023-07-07	00:23:46	00:35:19	684752	64950eb7e2cb12bc4dc6d9d2	3	1	main_z	11	main_z	97	stimuli_distractor_trianglediamonds.svg	stimuli_target_squaretriangles.svg	11	yes	44	1	569	0	0			0	0			1				0	
6.6.1	win	2023-07-07	00:23:46	00:35:19	684752	64950eb7e2cb12bc4dc6d9d2	3	1	main_z	11	advance_on_keypress_ZEE	98	stimuli_distractor_trianglediamonds.svg	stimuli_target_squaretriangles.svg	11	yes	57	0	323	0	0			0	0			1				0	
6.6.1	win	2023-07-07	00:23:46	00:35:21	686470	64950eb7e2cb12bc4dc6d9d2	3	1	main_z	11	main_z	99	stimuli_distractor_trianglediamonds.svg	stimuli_target_diamondsquares.svg	28	yes	44	1	754	0	0			0	0			1				0	
6.6.1	win	2023-07-07	00:23:46	00:35:21	686470	64950eb7e2cb12bc4dc6d9d2	3	1	main_z	11	advance_on_keypress_ZEE	100	stimuli_distractor_trianglediamonds.svg	stimuli_target_diamondsquares.svg	28	yes	57	0	324	0	0			0	0			1				0	
6.6.1	win	2023-07-07	00:23:46	00:35:22	688006	64950eb7e2cb12bc4dc6d9d2	3	1	main_z	11	main_z	101	stimuli_distractor_diamondtriangles.svg	stimuli_target_rectanglediamonds.svg	14	yes	44	1	574	0	0			0	0			1				0	
6.6.1	win	2023-07-07	00:23:46	00:35:22	688006	64950eb7e2cb12bc4dc6d9d2	3	1	main_z	11	advance_on_keypress_ZEE	102	stimuli_distractor_diamondtriangles.svg	stimuli_target_rectanglediamonds.svg	14	yes	57	0	343	0	0			0	0			1				0	
6.6.1	win	2023-07-07	00:23:46	00:35:24	689565	64950eb7e2cb12bc4dc6d9d2	3	1	main_z	11	main_z	103	stimuli_target_diamondsquares.svg	stimuli_distractor_diamondtriangles.svg	24	yes	44	1	582	0	0			0	0			1				0	
6.6.1	win	2023-07-07	00:23:46	00:35:24	689565	64950eb7e2cb12bc4dc6d9d2	3	1	main_z	11	advance_on_keypress_ZEE	104	stimuli_target_diamondsquares.svg	stimuli_distractor_diamondtriangles.svg	24	yes	57	0	296	0	0			0	0			1				0	
6.6.1	win	2023-07-07	00:23:46	00:35:25	691076	64950eb7e2cb12bc4dc6d9d2	3	1	main_z	11	main_z	105	stimuli_distractor_trianglediamonds.svg	stimuli_target_trianglesquares.svg	26	yes	44	1	576	0	0			0	0			1				0	
6.6.1	win	2023-07-07	00:23:46	00:35:25	691076	64950eb7e2cb12bc4dc6d9d2	3	1	main_z	11	advance_on_keypress_ZEE	106	stimuli_distractor_trianglediamonds.svg	stimuli_target_trianglesquares.svg	26	yes	57	0	300	0	0			0	0			1				0	
6.6.1	win	2023-07-07	00:23:46	00:35:27	692596	64950eb7e2cb12bc4dc6d9d2	3	1	main_z	11	main_z	107	stimuli_distractor_diamondtriangles.svg	stimuli_target_rectangletriangles.svg	13	yes	44	1	580	0	0			0	0			1				0	
6.6.1	win	2023-07-07	00:23:46	00:35:27	692596	64950eb7e2cb12bc4dc6d9d2	3	1	main_z	11	advance_on_keypress_ZEE	108	stimuli_distractor_diamondtriangles.svg	stimuli_target_rectangletriangles.svg	13	yes	57	0	345	0	0			0	0			1				0	
6.6.1	win	2023-07-07	00:23:46	00:35:28	694113	64950eb7e2cb12bc4dc6d9d2	3	1	main_z	11	main_z	109	stimuli_distractor_diamondtriangles.svg	stimuli_target_squarediamonds.svg	16	yes	44	1	547	0	0			0	0			1				0	
6.6.1	win	2023-07-07	00:23:46	00:35:28	694113	64950eb7e2cb12bc4dc6d9d2	3	1	main_z	11	advance_on_keypress_ZEE	110	stimuli_distractor_diamondtriangles.svg	stimuli_target_squarediamonds.svg	16	yes	57	0	301	0	0			0	0			1				0	
6.6.1	win	2023-07-07	00:23:46	00:35:30	695665	64950eb7e2cb12bc4dc6d9d2	3	1	main_z	11	main_z	111	stimuli_target_diamondsquares.svg	stimuli_distractor_trianglediamonds.svg	20	yes	44	1	599	0	0			0	0			1				0	
6.6.1	win	2023-07-07	00:23:46	00:35:30	695665	64950eb7e2cb12bc4dc6d9d2	3	1	main_z	11	advance_on_keypress_ZEE	112	stimuli_target_diamondsquares.svg	stimuli_distractor_trianglediamonds.svg	20	yes	57	0	301	0	0			0	0			1				0	
6.6.1	win	2023-07-07	00:23:46	00:35:33	698616	64950eb7e2cb12bc4dc6d9d2	3	1	main_z	11	main_z	113	stimuli_distractor_trianglediamonds.svg	stimuli_distractor_diamondtriangles.svg	36	no	0	1	2000	0	0			0	0			1				0	
6.6.1	win	2023-07-07	00:23:46	00:35:33	698616	64950eb7e2cb12bc4dc6d9d2	3	1	main_z	11	advance_on_keypress_ZEE	114	stimuli_distractor_trianglediamonds.svg	stimuli_distractor_diamondtriangles.svg	36	no	57	0	436	0	0			0	0			1				0	
6.6.1	win	2023-07-07	00:23:46	00:35:34	700278	64950eb7e2cb12bc4dc6d9d2	3	1	main_z	11	main_z	115	stimuli_target_squarediamonds.svg	stimuli_distractor_trianglediamonds.svg	4	yes	44	1	578	0	0			0	0			1				0	
6.6.1	win	2023-07-07	00:23:46	00:35:34	700278	64950eb7e2cb12bc4dc6d9d2	3	1	main_z	11	advance_on_keypress_ZEE	116	stimuli_target_squarediamonds.svg	stimuli_distractor_trianglediamonds.svg	4	yes	57	0	321	0	0			0	0			1				0	
6.6.1	win	2023-07-07	00:23:46	00:35:36	701720	64950eb7e2cb12bc4dc6d9d2	3	1	main_z	11	main_z	117	stimuli_distractor_trianglediamonds.svg	stimuli_target_trianglerectangles.svg	25	yes	44	1	488	0	0			0	0			1				0	
6.6.1	win	2023-07-07	00:23:46	00:35:36	701720	64950eb7e2cb12bc4dc6d9d2	3	1	main_z	11	advance_on_keypress_ZEE	118	stimuli_distractor_trianglediamonds.svg	stimuli_target_trianglerectangles.svg	25	yes	57	0	312	0	0			0	0			1				0	
6.6.1	win	2023-07-07	00:23:46	00:35:37	703211	64950eb7e2cb12bc4dc6d9d2	3	1	main_z	11	main_z	119	stimuli_target_squarediamonds.svg	stimuli_distractor_diamondtriangles.svg	8	yes	44	1	546	0	0			0	0			1				0	
6.6.1	win	2023-07-07	00:23:46	00:35:37	703211	64950eb7e2cb12bc4dc6d9d2	3	1	main_z	11	advance_on_keypress_ZEE	120	stimuli_target_squarediamonds.svg	stimuli_distractor_diamondtriangles.svg	8	yes	57	0	317	0	0			0	0			1				0	
6.6.1	win	2023-07-07	00:23:46	00:35:39	704744	64950eb7e2cb12bc4dc6d9d2	3	1	main_z	11	main_z	121	stimuli_target_diamondrectangles.svg	stimuli_distractor_diamondtriangles.svg	23	yes	44	1	578	0	0			0	0			1				0	
6.6.1	win	2023-07-07	00:23:46	00:35:39	704744	64950eb7e2cb12bc4dc6d9d2	3	1	main_z	11	advance_on_keypress_ZEE	122	stimuli_target_diamondrectangles.svg	stimuli_distractor_diamondtriangles.svg	23	yes	57	0	300	0	0			0	0			1				0	
6.6.1	win	2023-07-07	00:23:46	00:35:40	706236	64950eb7e2cb12bc4dc6d9d2	3	1	main_z	11	main_z	123	stimuli_distractor_diamondtriangles.svg	stimuli_target_trianglerectangles.svg	29	yes	44	1	554	0	0			0	0			1				0	
6.6.1	win	2023-07-07	00:23:46	00:35:40	706236	64950eb7e2cb12bc4dc6d9d2	3	1	main_z	11	advance_on_keypress_ZEE	124	stimuli_distractor_diamondtriangles.svg	stimuli_target_trianglerectangles.svg	29	yes	57	0	297	0	0			0	0			1				0	
6.6.1	win	2023-07-07	00:23:46	00:35:43	709182	64950eb7e2cb12bc4dc6d9d2	3	1	main_z	11	main_z	125	stimuli_distractor_trianglediamonds.svg	stimuli_distractor_diamondtriangles.svg	35	no	0	1	2000	0	0			0	0			1				0	
6.6.1	win	2023-07-07	00:23:46	00:35:43	709182	64950eb7e2cb12bc4dc6d9d2	3	1	main_z	11	advance_on_keypress_ZEE	126	stimuli_distractor_trianglediamonds.svg	stimuli_distractor_diamondtriangles.svg	35	no	57	0	462	0	0			0	0			1				0	
6.6.1	win	2023-07-07	00:23:46	00:35:45	710759	64950eb7e2cb12bc4dc6d9d2	3	1	main_z	11	main_z	127	stimuli_target_rectangletriangles.svg	stimuli_distractor_trianglediamonds.svg	1	yes	44	1	476	0	0			0	0			1				0	
6.6.1	win	2023-07-07	00:23:46	00:35:45	710759	64950eb7e2cb12bc4dc6d9d2	3	1	main_z	11	advance_on_keypress_ZEE	128	stimuli_target_rectangletriangles.svg	stimuli_distractor_trianglediamonds.svg	1	yes	57	0	311	0	0			0	0			1				0	
6.6.1	win	2023-07-07	00:23:46	00:35:46	712196	64950eb7e2cb12bc4dc6d9d2	3	1	main_z	11	main_z	129	stimuli_target_rectangletriangles.svg	stimuli_distractor_diamondtriangles.svg	5	yes	44	1	497	0	0			0	0			1				0	
6.6.1	win	2023-07-07	00:23:46	00:35:46	712196	64950eb7e2cb12bc4dc6d9d2	3	1	main_z	11	advance_on_keypress_ZEE	130	stimuli_target_rectangletriangles.svg	stimuli_distractor_diamondtriangles.svg	5	yes	57	0	311	0	0			0	0			1				0	
6.6.1	win	2023-07-07	00:23:46	00:35:48	713630	64950eb7e2cb12bc4dc6d9d2	3	1	main_z	11	main_z	131	stimuli_target_diamondrectangles.svg	stimuli_distractor_trianglediamonds.svg	19	yes	44	1	497	0	0			0	0			1				0	
6.6.1	win	2023-07-07	00:23:46	00:35:48	713630	64950eb7e2cb12bc4dc6d9d2	3	1	main_z	11	advance_on_keypress_ZEE	132	stimuli_target_diamondrectangles.svg	stimuli_distractor_trianglediamonds.svg	19	yes	57	0	309	0	0			0	0			1				0	
6.6.1	win	2023-07-07	00:23:46	00:35:51	716582	64950eb7e2cb12bc4dc6d9d2	3	1	main_z	11	main_z	133	stimuli_distractor_diamondtriangles.svg	stimuli_distractor_diamondtriangles.svg	39	no	0	1	2000	0	0			0	0			1				0	
6.6.1	win	2023-07-07	00:23:46	00:35:51	716582	64950eb7e2cb12bc4dc6d9d2	3	1	main_z	11	advance_on_keypress_ZEE	134	stimuli_distractor_diamondtriangles.svg	stimuli_distractor_diamondtriangles.svg	39	no	57	0	502	0	0			0	0			1				0	
6.6.1	win	2023-07-07	00:23:46	00:35:52	718260	64950eb7e2cb12bc4dc6d9d2	3	1	main_z	11	main_z	135	stimuli_distractor_diamondtriangles.svg	stimuli_target_diamondsquares.svg	32	yes	44	1	528	0	0			0	0			1				0	
6.6.1	win	2023-07-07	00:23:46	00:35:52	718260	64950eb7e2cb12bc4dc6d9d2	3	1	main_z	11	advance_on_keypress_ZEE	136	stimuli_distractor_diamondtriangles.svg	stimuli_target_diamondsquares.svg	32	yes	57	0	384	0	0			0	0			1				0	
6.6.1	win	2023-07-07	00:23:46	00:35:54	719767	64950eb7e2cb12bc4dc6d9d2	3	1	main_z	11	main_z	137	stimuli_distractor_diamondtriangles.svg	stimuli_target_diamondrectangles.svg	31	yes	44	1	484	0	0			0	0			1				0	
6.6.1	win	2023-07-07	00:23:46	00:35:54	719767	64950eb7e2cb12bc4dc6d9d2	3	1	main_z	11	advance_on_keypress_ZEE	138	stimuli_distractor_diamondtriangles.svg	stimuli_target_diamondrectangles.svg	31	yes	57	0	360	0	0			0	0			1				0	
6.6.1	win	2023-07-07	00:23:46	00:35:55	721324	64950eb7e2cb12bc4dc6d9d2	3	1	main_z	11	main_z	139	stimuli_distractor_trianglediamonds.svg	stimuli_target_rectanglediamonds.svg	10	yes	44	1	558	0	0			0	0			1				0	
6.6.1	win	2023-07-07	00:23:46	00:35:55	721324	64950eb7e2cb12bc4dc6d9d2	3	1	main_z	11	advance_on_keypress_ZEE	140	stimuli_distractor_trianglediamonds.svg	stimuli_target_rectanglediamonds.svg	10	yes	57	0	352	0	0			0	0			1				0	
6.6.1	win	2023-07-07	00:23:46	00:35:57	722834	64950eb7e2cb12bc4dc6d9d2	3	1	main_z	11	main_z	141	stimuli_target_trianglerectangles.svg	stimuli_distractor_diamondtriangles.svg	21	yes	44	1	518	0	0			0	0			1				0	
6.6.1	win	2023-07-07	00:23:46	00:35:57	722834	64950eb7e2cb12bc4dc6d9d2	3	1	main_z	11	advance_on_keypress_ZEE	142	stimuli_target_trianglerectangles.svg	stimuli_distractor_diamondtriangles.svg	21	yes	57	0	308	0	0			0	0			1				0	
6.6.1	win	2023-07-07	00:23:46	00:35:58	724298	64950eb7e2cb12bc4dc6d9d2	3	1	main_z	11	main_z	143	stimuli_distractor_diamondtriangles.svg	stimuli_target_squaretriangles.svg	15	yes	44	1	511	0	0			0	0			1				0	
6.6.1	win	2023-07-07	00:23:46	00:35:58	724298	64950eb7e2cb12bc4dc6d9d2	3	1	main_z	11	advance_on_keypress_ZEE	144	stimuli_distractor_diamondtriangles.svg	stimuli_target_squaretriangles.svg	15	yes	57	0	322	0	0			0	0			1				0	
6.6.1	win	2023-07-07	00:23:46	00:36:00	725790	64950eb7e2cb12bc4dc6d9d2	3	1	main_z	11	main_z	145	stimuli_distractor_trianglediamonds.svg	stimuli_target_diamondrectangles.svg	27	yes	44	1	524	0	0			0	0			1				0	
6.6.1	win	2023-07-07	00:23:46	00:36:00	725790	64950eb7e2cb12bc4dc6d9d2	3	1	main_z	11	advance_on_keypress_ZEE	146	stimuli_distractor_trianglediamonds.svg	stimuli_target_diamondrectangles.svg	27	yes	57	0	342	0	0			0	0			1				0	
6.6.1	win	2023-07-07	00:23:46	00:36:01	727231	64950eb7e2cb12bc4dc6d9d2	3	1	main_z	11	main_z	147	stimuli_target_squaretriangles.svg	stimuli_distractor_trianglediamonds.svg	3	yes	44	1	466	0	0			0	0			1				0	
6.6.1	win	2023-07-07	00:23:46	00:36:01	727231	64950eb7e2cb12bc4dc6d9d2	3	1	main_z	11	advance_on_keypress_ZEE	148	stimuli_target_squaretriangles.svg	stimuli_distractor_trianglediamonds.svg	3	yes	57	0	334	0	0			0	0			1				0	
6.6.1	win	2023-07-07	00:23:46	00:36:03	728784	64950eb7e2cb12bc4dc6d9d2	3	1	main_z	11	main_z	149	stimuli_target_trianglesquares.svg	stimuli_distractor_diamondtriangles.svg	22	yes	44	1	568	0	0			0	0			1				0	
6.6.1	win	2023-07-07	00:23:46	00:36:03	728784	64950eb7e2cb12bc4dc6d9d2	3	1	main_z	11	advance_on_keypress_ZEE	150	stimuli_target_trianglesquares.svg	stimuli_distractor_diamondtriangles.svg	22	yes	57	0	286	0	0			0	0			1				0	
6.6.1	win	2023-07-07	00:23:46	00:36:04	730231	64950eb7e2cb12bc4dc6d9d2	3	1	main_z	11	main_z	151	stimuli_distractor_diamondtriangles.svg	stimuli_target_trianglesquares.svg	30	yes	44	1	514	0	0			0	0			1				0	
6.6.1	win	2023-07-07	00:23:46	00:36:04	730231	64950eb7e2cb12bc4dc6d9d2	3	1	main_z	11	advance_on_keypress_ZEE	152	stimuli_distractor_diamondtriangles.svg	stimuli_target_trianglesquares.svg	30	yes	57	0	306	0	0			0	0			1				0	
6.6.1	win	2023-07-07	00:23:46	00:36:06	731718	64950eb7e2cb12bc4dc6d9d2	3	1	main_z	11	main_z	153	stimuli_target_squaretriangles.svg	stimuli_distractor_diamondtriangles.svg	7	yes	44	1	537	0	0			0	0			1				0	
6.6.1	win	2023-07-07	00:23:46	00:36:06	731718	64950eb7e2cb12bc4dc6d9d2	3	1	main_z	11	advance_on_keypress_ZEE	154	stimuli_target_squaretriangles.svg	stimuli_distractor_diamondtriangles.svg	7	yes	57	0	319	0	0			0	0			1				0	
6.6.1	win	2023-07-07	00:23:46	00:36:09	734682	64950eb7e2cb12bc4dc6d9d2	3	1	main_z	11	main_z	155	stimuli_distractor_diamondtriangles.svg	stimuli_distractor_trianglediamonds.svg	37	no	0	1	2000	0	0			0	0			1				0	
6.6.1	win	2023-07-07	00:23:46	00:36:09	734682	64950eb7e2cb12bc4dc6d9d2	3	1	main_z	11	advance_on_keypress_ZEE	156	stimuli_distractor_diamondtriangles.svg	stimuli_distractor_trianglediamonds.svg	37	no	57	0	352	0	0			0	0			1				0	
6.6.1	win	2023-07-07	00:23:46	00:36:10	736226	64950eb7e2cb12bc4dc6d9d2	3	1	main_z	11	main_z	157	stimuli_distractor_trianglediamonds.svg	stimuli_target_squarediamonds.svg	12	yes	44	1	545	0	0			0	0			1				0	
6.6.1	win	2023-07-07	00:23:46	00:36:10	736226	64950eb7e2cb12bc4dc6d9d2	3	1	main_z	11	advance_on_keypress_ZEE	158	stimuli_distractor_trianglediamonds.svg	stimuli_target_squarediamonds.svg	12	yes	57	0	349	0	0			0	0			1				0	
6.6.1	win	2023-07-07	00:23:46	00:36:13	739215	64950eb7e2cb12bc4dc6d9d2	3	1	main_z	11	main_z	159	stimuli_distractor_trianglediamonds.svg	stimuli_distractor_trianglediamonds.svg	34	no	0	1	2000	0	0			0	0			1				0	
6.6.1	win	2023-07-07	00:23:46	00:36:13	739215	64950eb7e2cb12bc4dc6d9d2	3	1	main_z	11	advance_on_keypress_ZEE	160	stimuli_distractor_trianglediamonds.svg	stimuli_distractor_trianglediamonds.svg	34	no	57	0	359	0	0			0	0			1				0	
6.6.1	win	2023-07-07	00:23:46	00:36:13	739215	64950eb7e2cb12bc4dc6d9d2	3	1	headphonecheck_calibration	14	headphonecheck_calibrationIntro	1	stimuli_distractor_trianglediamonds.svg	stimuli_distractor_trianglediamonds.svg	34	no	calibrationButton	0	4005	0	0			0	0			1				0	
6.6.1	win	2023-07-07	00:23:46	00:36:13	739215	64950eb7e2cb12bc4dc6d9d2	3	1	headphonecheck_testphase	15	test_collectResponse	3	stimuli_distractor_trianglediamonds.svg	stimuli_distractor_trianglediamonds.svg	34	no	second	0	1495	1	3	antiphase_hc_soi.wav	1	0	0			1				0	
6.6.1	win	2023-07-07	00:23:46	00:36:13	739215	64950eb7e2cb12bc4dc6d9d2	3	1	headphonecheck_testphase	15	test_collectResponse	6	stimuli_distractor_trianglediamonds.svg	stimuli_distractor_trianglediamonds.svg	34	no	second	0	750	2	6	antiphase_hc_ois.wav	3	0	0			1				0	
6.6.1	win	2023-07-07	00:23:46	00:36:13	739215	64950eb7e2cb12bc4dc6d9d2	3	1	headphonecheck_testphase	15	test_collectResponse	9	stimuli_distractor_trianglediamonds.svg	stimuli_distractor_trianglediamonds.svg	34	no	third	0	677	3	4	antiphase_hc_sio.wav	1	0	0			1				0	
6.6.1	win	2023-07-07	00:23:46	00:36:13	739215	64950eb7e2cb12bc4dc6d9d2	3	1	headphonecheck_testphase	15	test_collectResponse	12	stimuli_distractor_trianglediamonds.svg	stimuli_distractor_trianglediamonds.svg	34	no	third	0	508	4	1	antiphase_hc_iso.wav	2	0	0			1				0	
6.6.1	win	2023-07-07	00:23:46	00:36:13	739215	64950eb7e2cb12bc4dc6d9d2	3	1	headphonecheck_testphase	15	test_collectResponse	15	stimuli_distractor_trianglediamonds.svg	stimuli_distractor_trianglediamonds.svg	34	no	first	0	551	5	5	antiphase_hc_osi.wav	2	0	0			1				0	
6.6.1	win	2023-07-07	00:23:46	00:36:13	739215	64950eb7e2cb12bc4dc6d9d2	3	1	headphonecheck_testphase	15	test_collectResponse	18	stimuli_distractor_trianglediamonds.svg	stimuli_distractor_trianglediamonds.svg	34	no	second	0	368	6	2	antiphase_hc_ios.wav	3	0	0			1				0	
6.6.1	win	2023-07-07	00:23:46	00:36:13	739215	64950eb7e2cb12bc4dc6d9d2	3	1	stereocheck_calibration	17	stereocheck_calibrationIntro	1	stimuli_distractor_trianglediamonds.svg	stimuli_distractor_trianglediamonds.svg	34	no	stereocheck_calibrationButton	0	9372	6	2	antiphase_hc_ios.wav	3	0	0			1				0	
6.6.1	win	2023-07-07	00:23:46	00:36:13	739215	64950eb7e2cb12bc4dc6d9d2	3	1	stereocheck_testphase	18	stereocheck_test_collectResponse	3	stimuli_distractor_trianglediamonds.svg	stimuli_distractor_trianglediamonds.svg	34	no	stereocheck_left	1	1206	6	2	antiphase_hc_ios.wav	3	1	3	noise_calib_stim_LEFT.wav	1	1				0	
6.6.1	win	2023-07-07	00:23:46	00:36:13	739215	64950eb7e2cb12bc4dc6d9d2	3	1	stereocheck_testphase	18	stereocheck_test_collectResponse	6	stimuli_distractor_trianglediamonds.svg	stimuli_distractor_trianglediamonds.svg	34	no	stereocheck_left	1	515	6	2	antiphase_hc_ios.wav	3	2	1	noise_calib_stim_LEFT.wav	1	1				0	
6.6.1	win	2023-07-07	00:23:46	00:36:13	739215	64950eb7e2cb12bc4dc6d9d2	3	1	stereocheck_testphase	18	stereocheck_test_collectResponse	9	stimuli_distractor_trianglediamonds.svg	stimuli_distractor_trianglediamonds.svg	34	no	stereocheck_right	1	328	6	2	antiphase_hc_ios.wav	3	3	6	noise_calib_stim_RIGHT.wav	2	1				0	
6.6.1	win	2023-07-07	00:23:46	00:36:13	739215	64950eb7e2cb12bc4dc6d9d2	3	1	stereocheck_testphase	18	stereocheck_test_collectResponse	12	stimuli_distractor_trianglediamonds.svg	stimuli_distractor_trianglediamonds.svg	34	no	stereocheck_right	1	356	6	2	antiphase_hc_ios.wav	3	4	4	noise_calib_stim_RIGHT.wav	2	1				0	
6.6.1	win	2023-07-07	00:23:46	00:36:13	739215	64950eb7e2cb12bc4dc6d9d2	3	1	stereocheck_testphase	18	stereocheck_test_collectResponse	15	stimuli_distractor_trianglediamonds.svg	stimuli_distractor_trianglediamonds.svg	34	no	stereocheck_right	1	334	6	2	antiphase_hc_ios.wav	3	5	5	noise_calib_stim_RIGHT.wav	2	1				0	
6.6.1	win	2023-07-07	00:23:46	00:36:13	739215	64950eb7e2cb12bc4dc6d9d2	3	1	stereocheck_testphase	18	stereocheck_test_collectResponse	18	stimuli_distractor_trianglediamonds.svg	stimuli_distractor_trianglediamonds.svg	34	no	stereocheck_left	1	216	6	2	antiphase_hc_ios.wav	3	6	2	noise_calib_stim_LEFT.wav	1	1				0	
6.6.1	win	2023-07-07	00:23:46	00:36:13	739215	64950eb7e2cb12bc4dc6d9d2	3	1	DL_practice	21	DL_practice	2	stimuli_distractor_trianglediamonds.svg	stimuli_distractor_trianglediamonds.svg	34	no	da	1	2030	6	2	antiphase_hc_ios.wav	3	6	2	noise_calib_stim_LEFT.wav	1	8	blb_dichoticlistening_da-da.mp3	da	da	0	left
6.6.1	win	2023-07-07	00:23:46	00:36:13	739215	64950eb7e2cb12bc4dc6d9d2	3	1	DL_practice	21	DL_practice	3	stimuli_distractor_trianglediamonds.svg	stimuli_distractor_trianglediamonds.svg	34	no	ka	1	1259	6	2	antiphase_hc_ios.wav	3	6	2	noise_calib_stim_LEFT.wav	1	22	blb_dichoticlistening_ka-ka.mp3	ka	ka	0	left
6.6.1	win	2023-07-07	00:23:46	00:36:13	739215	64950eb7e2cb12bc4dc6d9d2	3	1	DL_practice	21	DL_practice	4	stimuli_distractor_trianglediamonds.svg	stimuli_distractor_trianglediamonds.svg	34	no	ga	1	1223	6	2	antiphase_hc_ios.wav	3	6	2	noise_calib_stim_LEFT.wav	1	15	blb_dichoticlistening_ga-ga.mp3	ga	ga	0	left
6.6.1	win	2023-07-07	00:23:46	00:36:13	739215	64950eb7e2cb12bc4dc6d9d2	3	1	DL_practice	21	DL_practice	5	stimuli_distractor_trianglediamonds.svg	stimuli_distractor_trianglediamonds.svg	34	no	ba	1	1439	6	2	antiphase_hc_ios.wav	3	6	2	noise_calib_stim_LEFT.wav	1	1	blb_dichoticlistening_ba-ba.mp3	ba	ba	0	left
6.6.1	win	2023-07-07	00:23:46	00:36:13	739215	64950eb7e2cb12bc4dc6d9d2	3	1	DL_practice	21	DL_practice	6	stimuli_distractor_trianglediamonds.svg	stimuli_distractor_trianglediamonds.svg	34	no	pa	1	2113	6	2	antiphase_hc_ios.wav	3	6	2	noise_calib_stim_LEFT.wav	1	23	blb_dichoticlistening_ka-pa.mp3	ka	pa	1	right
6.6.1	win	2023-07-07	00:23:46	00:36:13	739215	64950eb7e2cb12bc4dc6d9d2	3	1	DL_practice	21	DL_practice	7	stimuli_distractor_trianglediamonds.svg	stimuli_distractor_trianglediamonds.svg	34	no	ba	1	2820	6	2	antiphase_hc_ios.wav	3	6	2	noise_calib_stim_LEFT.wav	1	7	blb_dichoticlistening_da-ba.mp3	da	ba	1	right
6.6.1	win	2023-07-07	00:23:46	00:36:13	739215	64950eb7e2cb12bc4dc6d9d2	3	1	DL_practice	21	DL_practice	8	stimuli_distractor_trianglediamonds.svg	stimuli_distractor_trianglediamonds.svg	34	no	ta	1	1646	6	2	antiphase_hc_ios.wav	3	6	2	noise_calib_stim_LEFT.wav	1	36	blb_dichoticlistening_ta-ta.mp3	ta	ta	0	left
6.6.1	win	2023-07-07	00:23:46	00:36:13	739215	64950eb7e2cb12bc4dc6d9d2	3	1	DL_practice	21	DL_practice	9	stimuli_distractor_trianglediamonds.svg	stimuli_distractor_trianglediamonds.svg	34	no	ta	1	1815	6	2	antiphase_hc_ios.wav	3	6	2	noise_calib_stim_LEFT.wav	1	18	blb_dichoticlistening_ga-ta.mp3	ga	ta	1	right
6.6.1	win	2023-07-07	00:23:46	00:36:13	739215	64950eb7e2cb12bc4dc6d9d2	3	1	DL_practice	21	DL_practice	10	stimuli_distractor_trianglediamonds.svg	stimuli_distractor_trianglediamonds.svg	34	no	pa	1	1424	6	2	antiphase_hc_ios.wav	3	6	2	noise_calib_stim_LEFT.wav	1	29	blb_dichoticlistening_pa-pa.mp3	pa	pa	0	left
6.6.1	win	2023-07-07	00:23:46	00:36:13	739215	64950eb7e2cb12bc4dc6d9d2	3	1	DL_test	23	DL_test	1	stimuli_distractor_trianglediamonds.svg	stimuli_distractor_trianglediamonds.svg	34	no	ba	1	1818	6	2	antiphase_hc_ios.wav	3	6	2	noise_calib_stim_LEFT.wav	1	1	blb_dichoticlistening_ba-ba.mp3	ba	ba	0	left
6.6.1	win	2023-07-07	00:23:46	00:36:13	739215	64950eb7e2cb12bc4dc6d9d2	3	1	DL_test	23	DL_test	2	stimuli_distractor_trianglediamonds.svg	stimuli_distractor_trianglediamonds.svg	34	no	ta	1	1474	6	2	antiphase_hc_ios.wav	3	6	2	noise_calib_stim_LEFT.wav	1	6	blb_dichoticlistening_ba-ta.mp3	ba	ta	1	right
6.6.1	win	2023-07-07	00:23:46	00:36:13	739215	64950eb7e2cb12bc4dc6d9d2	3	1	DL_test	23	DL_test	3	stimuli_distractor_trianglediamonds.svg	stimuli_distractor_trianglediamonds.svg	34	no	ka	1	1340	6	2	antiphase_hc_ios.wav	3	6	2	noise_calib_stim_LEFT.wav	1	16	blb_dichoticlistening_ga-ka.mp3	ga	ka	1	right
6.6.1	win	2023-07-07	00:23:46	00:36:13	739215	64950eb7e2cb12bc4dc6d9d2	3	1	DL_test	23	DL_test	4	stimuli_distractor_trianglediamonds.svg	stimuli_distractor_trianglediamonds.svg	34	no	ba	1	3600	6	2	antiphase_hc_ios.wav	3	6	2	noise_calib_stim_LEFT.wav	1	19	blb_dichoticlistening_ka-ba.mp3	ka	ba	1	right
6.6.1	win	2023-07-07	00:23:46	00:36:13	739215	64950eb7e2cb12bc4dc6d9d2	3	1	DL_test	23	DL_test	5	stimuli_distractor_trianglediamonds.svg	stimuli_distractor_trianglediamonds.svg	34	no	ka	1	1051	6	2	antiphase_hc_ios.wav	3	6	2	noise_calib_stim_LEFT.wav	1	4	blb_dichoticlistening_ba-ka.mp3	ba	ka	1	right
6.6.1	win	2023-07-07	00:23:46	00:36:13	739215	64950eb7e2cb12bc4dc6d9d2	3	1	DL_test	23	DL_test	6	stimuli_distractor_trianglediamonds.svg	stimuli_distractor_trianglediamonds.svg	34	no	da	1	1768	6	2	antiphase_hc_ios.wav	3	6	2	noise_calib_stim_LEFT.wav	1	14	blb_dichoticlistening_ga-da.mp3	ga	da	1	right
6.6.1	win	2023-07-07	00:23:46	00:36:13	739215	64950eb7e2cb12bc4dc6d9d2	3	1	DL_test	23	DL_test	7	stimuli_distractor_trianglediamonds.svg	stimuli_distractor_trianglediamonds.svg	34	no	da	1	1228	6	2	antiphase_hc_ios.wav	3	6	2	noise_calib_stim_LEFT.wav	1	32	blb_dichoticlistening_ta-da.mp3	ta	da	1	right
6.6.1	win	2023-07-07	00:23:46	00:36:13	739215	64950eb7e2cb12bc4dc6d9d2	3	1	DL_test	23	DL_test	8	stimuli_distractor_trianglediamonds.svg	stimuli_distractor_trianglediamonds.svg	34	no	ga	1	1316	6	2	antiphase_hc_ios.wav	3	6	2	noise_calib_stim_LEFT.wav	1	27	blb_dichoticlistening_pa-ga.mp3	pa	ga	1	right
6.6.1	win	2023-07-07	00:23:46	00:36:13	739215	64950eb7e2cb12bc4dc6d9d2	3	1	DL_test	23	DL_test	9	stimuli_distractor_trianglediamonds.svg	stimuli_distractor_trianglediamonds.svg	34	no	ka	1	1058	6	2	antiphase_hc_ios.wav	3	6	2	noise_calib_stim_LEFT.wav	1	22	blb_dichoticlistening_ka-ka.mp3	ka	ka	0	left
6.6.1	win	2023-07-07	00:23:46	00:36:13	739215	64950eb7e2cb12bc4dc6d9d2	3	1	DL_test	23	DL_test	10	stimuli_distractor_trianglediamonds.svg	stimuli_distractor_trianglediamonds.svg	34	no	ga	1	938	6	2	antiphase_hc_ios.wav	3	6	2	noise_calib_stim_LEFT.wav	1	9	blb_dichoticlistening_da-ga.mp3	da	ga	1	right
6.6.1	win	2023-07-07	00:23:46	00:36:13	739215	64950eb7e2cb12bc4dc6d9d2	3	1	DL_test	23	DL_test	11	stimuli_distractor_trianglediamonds.svg	stimuli_distractor_trianglediamonds.svg	34	no	ka	1	1045	6	2	antiphase_hc_ios.wav	3	6	2	noise_calib_stim_LEFT.wav	1	34	blb_dichoticlistening_ta-ka.mp3	ta	ka	1	right
6.6.1	win	2023-07-07	00:23:46	00:36:13	739215	64950eb7e2cb12bc4dc6d9d2	3	1	DL_test	23	DL_test	12	stimuli_distractor_trianglediamonds.svg	stimuli_distractor_trianglediamonds.svg	34	no	ta	1	1117	6	2	antiphase_hc_ios.wav	3	6	2	noise_calib_stim_LEFT.wav	1	12	blb_dichoticlistening_da-ta.mp3	da	ta	1	right
6.6.1	win	2023-07-07	00:23:46	00:36:13	739215	64950eb7e2cb12bc4dc6d9d2	3	1	DL_test	23	DL_test	13	stimuli_distractor_trianglediamonds.svg	stimuli_distractor_trianglediamonds.svg	34	no	pa	1	1453	6	2	antiphase_hc_ios.wav	3	6	2	noise_calib_stim_LEFT.wav	1	11	blb_dichoticlistening_da-pa.mp3	da	pa	1	right
6.6.1	win	2023-07-07	00:23:46	00:36:13	739215	64950eb7e2cb12bc4dc6d9d2	3	1	DL_test	23	DL_test	14	stimuli_distractor_trianglediamonds.svg	stimuli_distractor_trianglediamonds.svg	34	no	ta	1	2803	6	2	antiphase_hc_ios.wav	3	6	2	noise_calib_stim_LEFT.wav	1	18	blb_dichoticlistening_ga-ta.mp3	ga	ta	1	right
6.6.1	win	2023-07-07	00:23:46	00:36:13	739215	64950eb7e2cb12bc4dc6d9d2	3	1	DL_test	23	DL_test	15	stimuli_distractor_trianglediamonds.svg	stimuli_distractor_trianglediamonds.svg	34	no	ga	1	1178	6	2	antiphase_hc_ios.wav	3	6	2	noise_calib_stim_LEFT.wav	1	21	blb_dichoticlistening_ka-ga.mp3	ka	ga	1	right
6.6.1	win	2023-07-07	00:23:46	00:36:13	739215	64950eb7e2cb12bc4dc6d9d2	3	1	DL_test	23	DL_test	16	stimuli_distractor_trianglediamonds.svg	stimuli_distractor_trianglediamonds.svg	34	no	da	1	1245	6	2	antiphase_hc_ios.wav	3	6	2	noise_calib_stim_LEFT.wav	1	26	blb_dichoticlistening_pa-da.mp3	pa	da	1	right
6.6.1	win	2023-07-07	00:23:46	00:36:13	739215	64950eb7e2cb12bc4dc6d9d2	3	1	DL_test	23	DL_test	17	stimuli_distractor_trianglediamonds.svg	stimuli_distractor_trianglediamonds.svg	34	no	ba	1	1690	6	2	antiphase_hc_ios.wav	3	6	2	noise_calib_stim_LEFT.wav	1	31	blb_dichoticlistening_ta-ba.mp3	ta	ba	1	right
6.6.1	win	2023-07-07	00:23:46	00:36:13	739215	64950eb7e2cb12bc4dc6d9d2	3	1	DL_test	23	DL_test	18	stimuli_distractor_trianglediamonds.svg	stimuli_distractor_trianglediamonds.svg	34	no	ta	1	1506	6	2	antiphase_hc_ios.wav	3	6	2	noise_calib_stim_LEFT.wav	1	30	blb_dichoticlistening_pa-ta.mp3	pa	ta	1	right
6.6.1	win	2023-07-07	00:23:46	00:36:13	739215	64950eb7e2cb12bc4dc6d9d2	3	1	DL_test	23	DL_test	19	stimuli_distractor_trianglediamonds.svg	stimuli_distractor_trianglediamonds.svg	34	no	pa	1	2003	6	2	antiphase_hc_ios.wav	3	6	2	noise_calib_stim_LEFT.wav	1	23	blb_dichoticlistening_ka-pa.mp3	ka	pa	1	right
6.6.1	win	2023-07-07	00:23:46	00:36:13	739215	64950eb7e2cb12bc4dc6d9d2	3	1	DL_test	23	DL_test	20	stimuli_distractor_trianglediamonds.svg	stimuli_distractor_trianglediamonds.svg	34	no	ga	1	1192	6	2	antiphase_hc_ios.wav	3	6	2	noise_calib_stim_LEFT.wav	1	33	blb_dichoticlistening_ta-ga.mp3	ta	ga	1	right
6.6.1	win	2023-07-07	00:23:46	00:36:13	739215	64950eb7e2cb12bc4dc6d9d2	3	1	DL_test	23	DL_test	21	stimuli_distractor_trianglediamonds.svg	stimuli_distractor_trianglediamonds.svg	34	no	da	1	993	6	2	antiphase_hc_ios.wav	3	6	2	noise_calib_stim_LEFT.wav	1	8	blb_dichoticlistening_da-da.mp3	da	da	0	left
6.6.1	win	2023-07-07	00:23:46	00:36:13	739215	64950eb7e2cb12bc4dc6d9d2	3	1	DL_test	23	DL_test	22	stimuli_distractor_trianglediamonds.svg	stimuli_distractor_trianglediamonds.svg	34	no	pa	1	1195	6	2	antiphase_hc_ios.wav	3	6	2	noise_calib_stim_LEFT.wav	1	17	blb_dichoticlistening_ga-pa.mp3	ga	pa	1	right
6.6.1	win	2023-07-07	00:23:46	00:36:13	739215	64950eb7e2cb12bc4dc6d9d2	3	1	DL_test	23	DL_test	23	stimuli_distractor_trianglediamonds.svg	stimuli_distractor_trianglediamonds.svg	34	no	ta	1	1243	6	2	antiphase_hc_ios.wav	3	6	2	noise_calib_stim_LEFT.wav	1	36	blb_dichoticlistening_ta-ta.mp3	ta	ta	0	left
6.6.1	win	2023-07-07	00:23:46	00:36:13	739215	64950eb7e2cb12bc4dc6d9d2	3	1	DL_test	23	DL_test	24	stimuli_distractor_trianglediamonds.svg	stimuli_distractor_trianglediamonds.svg	34	no	ga	1	1070	6	2	antiphase_hc_ios.wav	3	6	2	noise_calib_stim_LEFT.wav	1	3	blb_dichoticlistening_ba-ga.mp3	ba	ga	1	right
6.6.1	win	2023-07-07	00:23:46	00:36:13	739215	64950eb7e2cb12bc4dc6d9d2	3	1	DL_test	23	DL_test	25	stimuli_distractor_trianglediamonds.svg	stimuli_distractor_trianglediamonds.svg	34	no	ba	1	1558	6	2	antiphase_hc_ios.wav	3	6	2	noise_calib_stim_LEFT.wav	1	13	blb_dichoticlistening_ga-ba.mp3	ga	ba	1	right
