build	computer.platform	date	time	timestamp	time_elapsed_ms	subject	group	session	blockcode	blocknum	trialcode	trialnum	stimulus_left	stimulus_right	stim_index	target_present	response	correct	latency	headphonecheck_countTestTrials	headphonecheck_index	headphonecheck_testSound	headphonecheck_correctResponse	stereocheck_countTestTrials	stereocheck_index	stereocheck_testSound	stereocheck_correctResponse	DL_index	DL_soundfile	DL_leftSound	DL_rightSound	DL_dualSound	DL_choice
6.6.1	win	2023-06-12	20:28:53	20:31:02	126304	60edac884fef13c0b0660daf	4	1	practice_z	5	practice_z	1	stimuli_target_diamondsquares.svg	stimuli_distractor_diamondtriangles.svg	3	yes	0	0	2000	0	0			0	0			1				0	
6.6.1	win	2023-06-12	20:28:53	20:31:02	126304	60edac884fef13c0b0660daf	4	1	practice_z	5	advance_on_keypress_ZEE	2	stimuli_target_diamondsquares.svg	stimuli_distractor_diamondtriangles.svg	3	yes	57	0	1228	0	0			0	0			1				0	
6.6.1	win	2023-06-12	20:28:53	20:31:07	131193	60edac884fef13c0b0660daf	4	1	practice_z	5	practice_z	3	stimuli_target_diamondsquares.svg	stimuli_distractor_trianglediamonds.svg	6	yes	0	0	2000	0	0			0	0			1				0	
6.6.1	win	2023-06-12	20:28:53	20:31:07	131193	60edac884fef13c0b0660daf	4	1	practice_z	5	advance_on_keypress_ZEE	4	stimuli_target_diamondsquares.svg	stimuli_distractor_trianglediamonds.svg	6	yes	57	0	844	0	0			0	0			1				0	
6.6.1	win	2023-06-12	20:28:53	20:31:11	135145	60edac884fef13c0b0660daf	4	1	practice_z	5	practice_z	5	stimuli_distractor_diamondtriangles.svg	stimuli_target_rectangletriangles.svg	7	yes	44	1	1448	0	0			0	0			1				0	
6.6.1	win	2023-06-12	20:28:53	20:31:11	135145	60edac884fef13c0b0660daf	4	1	practice_z	5	advance_on_keypress_ZEE	6	stimuli_distractor_diamondtriangles.svg	stimuli_target_rectangletriangles.svg	7	yes	57	0	1194	0	0			0	0			1				0	
6.6.1	win	2023-06-12	20:28:53	20:31:15	138897	60edac884fef13c0b0660daf	4	1	practice_z	5	practice_z	7	stimuli_distractor_diamondtriangles.svg	stimuli_target_trianglerectangles.svg	9	yes	44	1	896	0	0			0	0			1				0	
6.6.1	win	2023-06-12	20:28:53	20:31:15	138897	60edac884fef13c0b0660daf	4	1	practice_z	5	advance_on_keypress_ZEE	8	stimuli_distractor_diamondtriangles.svg	stimuli_target_trianglerectangles.svg	9	yes	57	0	472	0	0			0	0			1				0	
6.6.1	win	2023-06-12	20:28:53	20:31:18	141729	60edac884fef13c0b0660daf	4	1	practice_z	5	practice_z	9	stimuli_distractor_trianglediamonds.svg	stimuli_target_rectanglediamonds.svg	10	yes	44	1	708	0	0			0	0			1				0	
6.6.1	win	2023-06-12	20:28:53	20:31:18	141729	60edac884fef13c0b0660daf	4	1	practice_z	5	advance_on_keypress_ZEE	10	stimuli_distractor_trianglediamonds.svg	stimuli_target_rectanglediamonds.svg	10	yes	57	0	93	0	0			0	0			1				0	
6.6.1	win	2023-06-12	20:28:53	20:31:21	145457	60edac884fef13c0b0660daf	4	1	practice_z	5	practice_z	11	stimuli_distractor_trianglediamonds.svg	stimuli_distractor_diamondtriangles.svg	16	no	0	1	2000	0	0			0	0			1				0	
6.6.1	win	2023-06-12	20:28:53	20:31:21	145457	60edac884fef13c0b0660daf	4	1	practice_z	5	advance_on_keypress_ZEE	12	stimuli_distractor_trianglediamonds.svg	stimuli_distractor_diamondtriangles.svg	16	no	57	0	2756	0	0			0	0			1				0	
6.6.1	win	2023-06-12	20:28:53	20:31:26	150545	60edac884fef13c0b0660daf	4	1	practice_z	5	practice_z	13	stimuli_target_rectanglediamonds.svg	stimuli_distractor_diamondtriangles.svg	1	yes	44	1	682	0	0			0	0			1				0	
6.6.1	win	2023-06-12	20:28:53	20:31:26	150545	60edac884fef13c0b0660daf	4	1	practice_z	5	advance_on_keypress_ZEE	14	stimuli_target_rectanglediamonds.svg	stimuli_distractor_diamondtriangles.svg	1	yes	57	0	1339	0	0			0	0			1				0	
6.6.1	win	2023-06-12	20:28:53	20:31:31	155533	60edac884fef13c0b0660daf	4	1	practice_z	5	practice_z	15	stimuli_distractor_diamondtriangles.svg	stimuli_distractor_diamondtriangles.svg	13	no	0	1	2000	0	0			0	0			1				0	
6.6.1	win	2023-06-12	20:28:53	20:31:31	155533	60edac884fef13c0b0660daf	4	1	practice_z	5	advance_on_keypress_ZEE	16	stimuli_distractor_diamondtriangles.svg	stimuli_distractor_diamondtriangles.svg	13	no	57	0	1623	0	0			0	0			1				0	
6.6.1	win	2023-06-12	20:28:53	20:31:37	160805	60edac884fef13c0b0660daf	4	1	practice_z	5	practice_z	17	stimuli_distractor_diamondtriangles.svg	stimuli_target_diamondrectangles.svg	8	yes	0	0	2000	0	0			0	0			1				0	
6.6.1	win	2023-06-12	20:28:53	20:31:37	160805	60edac884fef13c0b0660daf	4	1	practice_z	5	advance_on_keypress_ZEE	18	stimuli_distractor_diamondtriangles.svg	stimuli_target_diamondrectangles.svg	8	yes	57	0	719	0	0			0	0			1				0	
6.6.1	win	2023-06-12	20:28:53	20:31:40	164137	60edac884fef13c0b0660daf	4	1	practice_z	5	practice_z	19	stimuli_distractor_trianglediamonds.svg	stimuli_target_diamondrectangles.svg	12	yes	44	1	960	0	0			0	0			1				0	
6.6.1	win	2023-06-12	20:28:53	20:31:40	164137	60edac884fef13c0b0660daf	4	1	practice_z	5	advance_on_keypress_ZEE	20	stimuli_distractor_trianglediamonds.svg	stimuli_target_diamondrectangles.svg	12	yes	57	0	399	0	0			0	0			1				0	
6.6.1	win	2023-06-12	20:28:53	20:31:43	167360	60edac884fef13c0b0660daf	4	1	practice_z	5	practice_z	21	stimuli_target_squarediamonds.svg	stimuli_distractor_trianglediamonds.svg	5	yes	44	1	1181	0	0			0	0			1				0	
6.6.1	win	2023-06-12	20:28:53	20:31:43	167360	60edac884fef13c0b0660daf	4	1	practice_z	5	advance_on_keypress_ZEE	22	stimuli_target_squarediamonds.svg	stimuli_distractor_trianglediamonds.svg	5	yes	57	0	538	0	0			0	0			1				0	
6.6.1	win	2023-06-12	20:28:53	20:31:46	170353	60edac884fef13c0b0660daf	4	1	practice_z	5	practice_z	23	stimuli_target_rectanglediamonds.svg	stimuli_distractor_trianglediamonds.svg	4	yes	44	1	803	0	0			0	0			1				0	
6.6.1	win	2023-06-12	20:28:53	20:31:46	170353	60edac884fef13c0b0660daf	4	1	practice_z	5	advance_on_keypress_ZEE	24	stimuli_target_rectanglediamonds.svg	stimuli_distractor_trianglediamonds.svg	4	yes	57	0	744	0	0			0	0			1				0	
6.6.1	win	2023-06-12	20:28:53	20:31:49	173449	60edac884fef13c0b0660daf	4	1	practice_z	5	practice_z	25	stimuli_distractor_trianglediamonds.svg	stimuli_target_squarediamonds.svg	11	yes	44	1	713	0	0			0	0			1				0	
6.6.1	win	2023-06-12	20:28:53	20:31:49	173449	60edac884fef13c0b0660daf	4	1	practice_z	5	advance_on_keypress_ZEE	26	stimuli_distractor_trianglediamonds.svg	stimuli_target_squarediamonds.svg	11	yes	57	0	377	0	0			0	0			1				0	
6.6.1	win	2023-06-12	20:28:53	20:31:53	177472	60edac884fef13c0b0660daf	4	1	practice_z	5	practice_z	27	stimuli_target_squarediamonds.svg	stimuli_distractor_diamondtriangles.svg	2	yes	0	0	2000	0	0			0	0			1				0	
6.6.1	win	2023-06-12	20:28:53	20:31:53	177472	60edac884fef13c0b0660daf	4	1	practice_z	5	advance_on_keypress_ZEE	28	stimuli_target_squarediamonds.svg	stimuli_distractor_diamondtriangles.svg	2	yes	57	0	556	0	0			0	0			1				0	
6.6.1	win	2023-06-12	20:28:53	20:31:58	181676	60edac884fef13c0b0660daf	4	1	practice_z	5	practice_z	29	stimuli_distractor_trianglediamonds.svg	stimuli_distractor_trianglediamonds.svg	15	no	0	1	2000	0	0			0	0			1				0	
6.6.1	win	2023-06-12	20:28:53	20:31:58	181676	60edac884fef13c0b0660daf	4	1	practice_z	5	advance_on_keypress_ZEE	30	stimuli_distractor_trianglediamonds.svg	stimuli_distractor_trianglediamonds.svg	15	no	57	0	6808	0	0			0	0			1				0	
6.6.1	win	2023-06-12	20:28:53	20:32:08	192137	60edac884fef13c0b0660daf	4	1	practice_z	5	practice_z	31	stimuli_distractor_diamondtriangles.svg	stimuli_distractor_trianglediamonds.svg	14	no	0	1	2000	0	0			0	0			1				0	
6.6.1	win	2023-06-12	20:28:53	20:32:08	192137	60edac884fef13c0b0660daf	4	1	practice_z	5	advance_on_keypress_ZEE	32	stimuli_distractor_diamondtriangles.svg	stimuli_distractor_trianglediamonds.svg	14	no	57	0	308	0	0			0	0			1				0	
6.6.1	win	2023-06-12	20:28:53	20:32:51	235095	60edac884fef13c0b0660daf	4	1	main_z	7	main_z	1	stimuli_distractor_diamondtriangles.svg	stimuli_target_squarediamonds.svg	16	yes	44	1	1265	0	0			0	0			1				0	
6.6.1	win	2023-06-12	20:28:53	20:32:51	235095	60edac884fef13c0b0660daf	4	1	main_z	7	advance_on_keypress_ZEE	2	stimuli_distractor_diamondtriangles.svg	stimuli_target_squarediamonds.svg	16	yes	57	0	1380	0	0			0	0			1				0	
6.6.1	win	2023-06-12	20:28:53	20:32:55	239133	60edac884fef13c0b0660daf	4	1	main_z	7	main_z	3	stimuli_target_diamondrectangles.svg	stimuli_distractor_diamondtriangles.svg	23	yes	0	0	2000	0	0			0	0			1				0	
6.6.1	win	2023-06-12	20:28:53	20:32:55	239133	60edac884fef13c0b0660daf	4	1	main_z	7	advance_on_keypress_ZEE	4	stimuli_target_diamondrectangles.svg	stimuli_distractor_diamondtriangles.svg	23	yes	57	0	295	0	0			0	0			1				0	
6.6.1	win	2023-06-12	20:28:53	20:32:58	242069	60edac884fef13c0b0660daf	4	1	main_z	7	main_z	5	stimuli_distractor_diamondtriangles.svg	stimuli_distractor_trianglediamonds.svg	37	no	0	1	2000	0	0			0	0			1				0	
6.6.1	win	2023-06-12	20:28:53	20:32:58	242069	60edac884fef13c0b0660daf	4	1	main_z	7	advance_on_keypress_ZEE	6	stimuli_distractor_diamondtriangles.svg	stimuli_distractor_trianglediamonds.svg	37	no	57	0	414	0	0			0	0			1				0	
6.6.1	win	2023-06-12	20:28:53	20:33:00	244006	60edac884fef13c0b0660daf	4	1	main_z	7	main_z	7	stimuli_target_trianglesquares.svg	stimuli_distractor_trianglediamonds.svg	18	yes	44	1	868	0	0			0	0			1				0	
6.6.1	win	2023-06-12	20:28:53	20:33:00	244006	60edac884fef13c0b0660daf	4	1	main_z	7	advance_on_keypress_ZEE	8	stimuli_target_trianglesquares.svg	stimuli_distractor_trianglediamonds.svg	18	yes	57	0	959	0	0			0	0			1				0	
6.6.1	win	2023-06-12	20:28:53	20:33:02	246535	60edac884fef13c0b0660daf	4	1	main_z	7	main_z	9	stimuli_distractor_trianglediamonds.svg	stimuli_target_rectanglediamonds.svg	10	yes	44	1	927	0	0			0	0			1				0	
6.6.1	win	2023-06-12	20:28:53	20:33:02	246535	60edac884fef13c0b0660daf	4	1	main_z	7	advance_on_keypress_ZEE	10	stimuli_distractor_trianglediamonds.svg	stimuli_target_rectanglediamonds.svg	10	yes	57	0	720	0	0			0	0			1				0	
6.6.1	win	2023-06-12	20:28:53	20:33:06	249894	60edac884fef13c0b0660daf	4	1	main_z	7	main_z	11	stimuli_target_trianglerectangles.svg	stimuli_distractor_trianglediamonds.svg	17	yes	0	0	2000	0	0			0	0			1				0	
6.6.1	win	2023-06-12	20:28:53	20:33:06	249894	60edac884fef13c0b0660daf	4	1	main_z	7	advance_on_keypress_ZEE	12	stimuli_target_trianglerectangles.svg	stimuli_distractor_trianglediamonds.svg	17	yes	57	0	134	0	0			0	0			1				0	
6.6.1	win	2023-06-12	20:28:53	20:33:08	251863	60edac884fef13c0b0660daf	4	1	main_z	7	main_z	13	stimuli_target_rectanglediamonds.svg	stimuli_distractor_diamondtriangles.svg	6	yes	44	1	1183	0	0			0	0			1				0	
6.6.1	win	2023-06-12	20:28:53	20:33:08	251863	60edac884fef13c0b0660daf	4	1	main_z	7	advance_on_keypress_ZEE	14	stimuli_target_rectanglediamonds.svg	stimuli_distractor_diamondtriangles.svg	6	yes	57	0	845	0	0			0	0			1				0	
6.6.1	win	2023-06-12	20:28:53	20:33:10	254324	60edac884fef13c0b0660daf	4	1	main_z	7	main_z	15	stimuli_distractor_trianglediamonds.svg	stimuli_target_squarediamonds.svg	12	yes	44	1	970	0	0			0	0			1				0	
6.6.1	win	2023-06-12	20:28:53	20:33:10	254324	60edac884fef13c0b0660daf	4	1	main_z	7	advance_on_keypress_ZEE	16	stimuli_distractor_trianglediamonds.svg	stimuli_target_squarediamonds.svg	12	yes	57	0	801	0	0			0	0			1				0	
6.6.1	win	2023-06-12	20:28:53	20:33:13	256663	60edac884fef13c0b0660daf	4	1	main_z	7	main_z	17	stimuli_target_diamondsquares.svg	stimuli_distractor_diamondtriangles.svg	24	yes	44	1	895	0	0			0	0			1				0	
6.6.1	win	2023-06-12	20:28:53	20:33:13	256663	60edac884fef13c0b0660daf	4	1	main_z	7	advance_on_keypress_ZEE	18	stimuli_target_diamondsquares.svg	stimuli_distractor_diamondtriangles.svg	24	yes	57	0	617	0	0			0	0			1				0	
6.6.1	win	2023-06-12	20:28:53	20:33:16	259921	60edac884fef13c0b0660daf	4	1	main_z	7	main_z	19	stimuli_distractor_trianglediamonds.svg	stimuli_target_trianglerectangles.svg	25	yes	0	0	2000	0	0			0	0			1				0	
6.6.1	win	2023-06-12	20:28:53	20:33:16	259921	60edac884fef13c0b0660daf	4	1	main_z	7	advance_on_keypress_ZEE	20	stimuli_distractor_trianglediamonds.svg	stimuli_target_trianglerectangles.svg	25	yes	57	0	307	0	0			0	0			1				0	
6.6.1	win	2023-06-12	20:28:53	20:33:19	262873	60edac884fef13c0b0660daf	4	1	main_z	7	main_z	21	stimuli_distractor_trianglediamonds.svg	stimuli_distractor_trianglediamonds.svg	34	no	0	1	2000	0	0			0	0			1				0	
6.6.1	win	2023-06-12	20:28:53	20:33:19	262873	60edac884fef13c0b0660daf	4	1	main_z	7	advance_on_keypress_ZEE	22	stimuli_distractor_trianglediamonds.svg	stimuli_distractor_trianglediamonds.svg	34	no	57	0	698	0	0			0	0			1				0	
6.6.1	win	2023-06-12	20:28:53	20:33:21	265039	60edac884fef13c0b0660daf	4	1	main_z	7	main_z	23	stimuli_distractor_trianglediamonds.svg	stimuli_target_diamondsquares.svg	28	yes	44	1	812	0	0			0	0			1				0	
6.6.1	win	2023-06-12	20:28:53	20:33:21	265039	60edac884fef13c0b0660daf	4	1	main_z	7	advance_on_keypress_ZEE	24	stimuli_distractor_trianglediamonds.svg	stimuli_target_diamondsquares.svg	28	yes	57	0	1058	0	0			0	0			1				0	
6.6.1	win	2023-06-12	20:28:53	20:33:23	267487	60edac884fef13c0b0660daf	4	1	main_z	7	main_z	25	stimuli_distractor_diamondtriangles.svg	stimuli_target_trianglerectangles.svg	29	yes	44	1	758	0	0			0	0			1				0	
6.6.1	win	2023-06-12	20:28:53	20:33:23	267487	60edac884fef13c0b0660daf	4	1	main_z	7	advance_on_keypress_ZEE	26	stimuli_distractor_diamondtriangles.svg	stimuli_target_trianglerectangles.svg	29	yes	57	0	534	0	0			0	0			1				0	
6.6.1	win	2023-06-12	20:28:53	20:33:25	269171	60edac884fef13c0b0660daf	4	1	main_z	7	main_z	27	stimuli_distractor_diamondtriangles.svg	stimuli_target_squaretriangles.svg	15	yes	44	1	505	0	0			0	0			1				0	
6.6.1	win	2023-06-12	20:28:53	20:33:25	269171	60edac884fef13c0b0660daf	4	1	main_z	7	advance_on_keypress_ZEE	28	stimuli_distractor_diamondtriangles.svg	stimuli_target_squaretriangles.svg	15	yes	57	0	521	0	0			0	0			1				0	
6.6.1	win	2023-06-12	20:28:53	20:33:27	270855	60edac884fef13c0b0660daf	4	1	main_z	7	main_z	29	stimuli_target_rectanglediamonds.svg	stimuli_distractor_trianglediamonds.svg	2	yes	44	1	522	0	0			0	0			1				0	
6.6.1	win	2023-06-12	20:28:53	20:33:27	270855	60edac884fef13c0b0660daf	4	1	main_z	7	advance_on_keypress_ZEE	30	stimuli_target_rectanglediamonds.svg	stimuli_distractor_trianglediamonds.svg	2	yes	57	0	420	0	0			0	0			1				0	
6.6.1	win	2023-06-12	20:28:53	20:33:29	272751	60edac884fef13c0b0660daf	4	1	main_z	7	main_z	31	stimuli_distractor_diamondtriangles.svg	stimuli_target_trianglesquares.svg	30	yes	44	1	833	0	0			0	0			1				0	
6.6.1	win	2023-06-12	20:28:53	20:33:29	272751	60edac884fef13c0b0660daf	4	1	main_z	7	advance_on_keypress_ZEE	32	stimuli_distractor_diamondtriangles.svg	stimuli_target_trianglesquares.svg	30	yes	57	0	430	0	0			0	0			1				0	
6.6.1	win	2023-06-12	20:28:53	20:33:31	274823	60edac884fef13c0b0660daf	4	1	main_z	7	main_z	33	stimuli_target_rectangletriangles.svg	stimuli_distractor_trianglediamonds.svg	1	yes	44	1	987	0	0			0	0			1				0	
6.6.1	win	2023-06-12	20:28:53	20:33:31	274823	60edac884fef13c0b0660daf	4	1	main_z	7	advance_on_keypress_ZEE	34	stimuli_target_rectangletriangles.svg	stimuli_distractor_trianglediamonds.svg	1	yes	57	0	377	0	0			0	0			1				0	
6.6.1	win	2023-06-12	20:28:53	20:33:33	277215	60edac884fef13c0b0660daf	4	1	main_z	7	main_z	35	stimuli_target_trianglerectangles.svg	stimuli_distractor_diamondtriangles.svg	21	yes	44	1	1377	0	0			0	0			1				0	
6.6.1	win	2023-06-12	20:28:53	20:33:33	277215	60edac884fef13c0b0660daf	4	1	main_z	7	advance_on_keypress_ZEE	36	stimuli_target_trianglerectangles.svg	stimuli_distractor_diamondtriangles.svg	21	yes	57	0	655	0	0			0	0			1				0	
6.6.1	win	2023-06-12	20:28:53	20:33:35	279255	60edac884fef13c0b0660daf	4	1	main_z	7	main_z	37	stimuli_target_diamondsquares.svg	stimuli_distractor_trianglediamonds.svg	20	yes	44	1	747	0	0			0	0			1				0	
6.6.1	win	2023-06-12	20:28:53	20:33:35	279255	60edac884fef13c0b0660daf	4	1	main_z	7	advance_on_keypress_ZEE	38	stimuli_target_diamondsquares.svg	stimuli_distractor_trianglediamonds.svg	20	yes	57	0	467	0	0			0	0			1				0	
6.6.1	win	2023-06-12	20:28:53	20:33:37	281071	60edac884fef13c0b0660daf	4	1	main_z	7	main_z	39	stimuli_distractor_diamondtriangles.svg	stimuli_target_diamondsquares.svg	32	yes	44	1	695	0	0			0	0			1				0	
6.6.1	win	2023-06-12	20:28:53	20:33:37	281071	60edac884fef13c0b0660daf	4	1	main_z	7	advance_on_keypress_ZEE	40	stimuli_distractor_diamondtriangles.svg	stimuli_target_diamondsquares.svg	32	yes	57	0	489	0	0			0	0			1				0	
6.6.1	win	2023-06-12	20:28:53	20:33:39	282847	60edac884fef13c0b0660daf	4	1	main_z	7	main_z	41	stimuli_target_diamondrectangles.svg	stimuli_distractor_trianglediamonds.svg	19	yes	44	1	652	0	0			0	0			1				0	
6.6.1	win	2023-06-12	20:28:53	20:33:39	282847	60edac884fef13c0b0660daf	4	1	main_z	7	advance_on_keypress_ZEE	42	stimuli_target_diamondrectangles.svg	stimuli_distractor_trianglediamonds.svg	19	yes	57	0	376	0	0			0	0			1				0	
6.6.1	win	2023-06-12	20:28:53	20:33:40	284399	60edac884fef13c0b0660daf	4	1	main_z	7	main_z	43	stimuli_target_trianglesquares.svg	stimuli_distractor_diamondtriangles.svg	22	yes	44	1	536	0	0			0	0			1				0	
6.6.1	win	2023-06-12	20:28:53	20:33:40	284399	60edac884fef13c0b0660daf	4	1	main_z	7	advance_on_keypress_ZEE	44	stimuli_target_trianglesquares.svg	stimuli_distractor_diamondtriangles.svg	22	yes	57	0	425	0	0			0	0			1				0	
6.6.1	win	2023-06-12	20:28:53	20:33:42	285983	60edac884fef13c0b0660daf	4	1	main_z	7	main_z	45	stimuli_distractor_trianglediamonds.svg	stimuli_target_trianglesquares.svg	26	yes	44	1	518	0	0			0	0			1				0	
6.6.1	win	2023-06-12	20:28:53	20:33:42	285983	60edac884fef13c0b0660daf	4	1	main_z	7	advance_on_keypress_ZEE	46	stimuli_distractor_trianglediamonds.svg	stimuli_target_trianglesquares.svg	26	yes	57	0	368	0	0			0	0			1				0	
6.6.1	win	2023-06-12	20:28:53	20:33:45	288999	60edac884fef13c0b0660daf	4	1	main_z	7	main_z	47	stimuli_distractor_trianglediamonds.svg	stimuli_target_rectangletriangles.svg	9	yes	0	0	2000	0	0			0	0			1				0	
6.6.1	win	2023-06-12	20:28:53	20:33:45	288999	60edac884fef13c0b0660daf	4	1	main_z	7	advance_on_keypress_ZEE	48	stimuli_distractor_trianglediamonds.svg	stimuli_target_rectangletriangles.svg	9	yes	57	0	108	0	0			0	0			1				0	
6.6.1	win	2023-06-12	20:28:53	20:33:48	291752	60edac884fef13c0b0660daf	4	1	main_z	7	main_z	49	stimuli_distractor_diamondtriangles.svg	stimuli_target_rectangletriangles.svg	13	yes	0	0	2000	0	0			0	0			1				0	
6.6.1	win	2023-06-12	20:28:53	20:33:48	291752	60edac884fef13c0b0660daf	4	1	main_z	7	advance_on_keypress_ZEE	50	stimuli_distractor_diamondtriangles.svg	stimuli_target_rectangletriangles.svg	13	yes	57	0	1227	0	0			0	0			1				0	
6.6.1	win	2023-06-12	20:28:53	20:33:52	295623	60edac884fef13c0b0660daf	4	1	main_z	7	main_z	51	stimuli_distractor_diamondtriangles.svg	stimuli_distractor_diamondtriangles.svg	40	no	0	1	2000	0	0			0	0			1				0	
6.6.1	win	2023-06-12	20:28:53	20:33:52	295623	60edac884fef13c0b0660daf	4	1	main_z	7	advance_on_keypress_ZEE	52	stimuli_distractor_diamondtriangles.svg	stimuli_distractor_diamondtriangles.svg	40	no	57	0	381	0	0			0	0			1				0	
6.6.1	win	2023-06-12	20:28:53	20:33:53	297399	60edac884fef13c0b0660daf	4	1	main_z	7	main_z	53	stimuli_distractor_diamondtriangles.svg	stimuli_target_diamondrectangles.svg	31	yes	44	1	740	0	0			0	0			1				0	
6.6.1	win	2023-06-12	20:28:53	20:33:53	297399	60edac884fef13c0b0660daf	4	1	main_z	7	advance_on_keypress_ZEE	54	stimuli_distractor_diamondtriangles.svg	stimuli_target_diamondrectangles.svg	31	yes	57	0	300	0	0			0	0			1				0	
6.6.1	win	2023-06-12	20:28:53	20:33:55	299239	60edac884fef13c0b0660daf	4	1	main_z	7	main_z	55	stimuli_distractor_diamondtriangles.svg	stimuli_target_rectanglediamonds.svg	14	yes	44	1	895	0	0			0	0			1				0	
6.6.1	win	2023-06-12	20:28:53	20:33:55	299239	60edac884fef13c0b0660daf	4	1	main_z	7	advance_on_keypress_ZEE	56	stimuli_distractor_diamondtriangles.svg	stimuli_target_rectanglediamonds.svg	14	yes	57	0	369	0	0			0	0			1				0	
6.6.1	win	2023-06-12	20:28:53	20:33:58	302246	60edac884fef13c0b0660daf	4	1	main_z	7	main_z	57	stimuli_distractor_diamondtriangles.svg	stimuli_distractor_trianglediamonds.svg	38	no	0	1	2000	0	0			0	0			1				0	
6.6.1	win	2023-06-12	20:28:53	20:33:58	302246	60edac884fef13c0b0660daf	4	1	main_z	7	advance_on_keypress_ZEE	58	stimuli_distractor_diamondtriangles.svg	stimuli_distractor_trianglediamonds.svg	38	no	57	0	566	0	0			0	0			1				0	
6.6.1	win	2023-06-12	20:28:53	20:34:01	305466	60edac884fef13c0b0660daf	4	1	main_z	7	main_z	59	stimuli_distractor_trianglediamonds.svg	stimuli_distractor_diamondtriangles.svg	36	no	0	1	2000	0	0			0	0			1				0	
6.6.1	win	2023-06-12	20:28:53	20:34:01	305466	60edac884fef13c0b0660daf	4	1	main_z	7	advance_on_keypress_ZEE	60	stimuli_distractor_trianglediamonds.svg	stimuli_distractor_diamondtriangles.svg	36	no	57	0	473	0	0			0	0			1				0	
6.6.1	win	2023-06-12	20:28:53	20:34:03	307143	60edac884fef13c0b0660daf	4	1	main_z	7	main_z	61	stimuli_target_squarediamonds.svg	stimuli_distractor_trianglediamonds.svg	4	yes	44	1	557	0	0			0	0			1				0	
6.6.1	win	2023-06-12	20:28:53	20:34:03	307143	60edac884fef13c0b0660daf	4	1	main_z	7	advance_on_keypress_ZEE	62	stimuli_target_squarediamonds.svg	stimuli_distractor_trianglediamonds.svg	4	yes	57	0	469	0	0			0	0			1				0	
6.6.1	win	2023-06-12	20:28:53	20:34:05	309039	60edac884fef13c0b0660daf	4	1	main_z	7	main_z	63	stimuli_target_squarediamonds.svg	stimuli_distractor_diamondtriangles.svg	8	yes	44	1	785	0	0			0	0			1				0	
6.6.1	win	2023-06-12	20:28:53	20:34:05	309039	60edac884fef13c0b0660daf	4	1	main_z	7	advance_on_keypress_ZEE	64	stimuli_target_squarediamonds.svg	stimuli_distractor_diamondtriangles.svg	8	yes	57	0	439	0	0			0	0			1				0	
6.6.1	win	2023-06-12	20:28:53	20:34:08	312122	60edac884fef13c0b0660daf	4	1	main_z	7	main_z	65	stimuli_distractor_trianglediamonds.svg	stimuli_distractor_trianglediamonds.svg	33	no	0	1	2000	0	0			0	0			1				0	
6.6.1	win	2023-06-12	20:28:53	20:34:08	312122	60edac884fef13c0b0660daf	4	1	main_z	7	advance_on_keypress_ZEE	66	stimuli_distractor_trianglediamonds.svg	stimuli_distractor_trianglediamonds.svg	33	no	57	0	545	0	0			0	0			1				0	
6.6.1	win	2023-06-12	20:28:53	20:34:11	315309	60edac884fef13c0b0660daf	4	1	main_z	7	main_z	67	stimuli_target_squaretriangles.svg	stimuli_distractor_diamondtriangles.svg	7	yes	0	0	2000	0	0			0	0			1				0	
6.6.1	win	2023-06-12	20:28:53	20:34:11	315309	60edac884fef13c0b0660daf	4	1	main_z	7	advance_on_keypress_ZEE	68	stimuli_target_squaretriangles.svg	stimuli_distractor_diamondtriangles.svg	7	yes	57	0	143	0	0			0	0			1				0	
6.6.1	win	2023-06-12	20:28:53	20:34:13	316903	60edac884fef13c0b0660daf	4	1	main_z	7	main_z	69	stimuli_distractor_trianglediamonds.svg	stimuli_target_diamondrectangles.svg	27	yes	44	1	808	0	0			0	0			1				0	
6.6.1	win	2023-06-12	20:28:53	20:34:13	316903	60edac884fef13c0b0660daf	4	1	main_z	7	advance_on_keypress_ZEE	70	stimuli_distractor_trianglediamonds.svg	stimuli_target_diamondrectangles.svg	27	yes	57	0	374	0	0			0	0			1				0	
6.6.1	win	2023-06-12	20:28:53	20:34:14	318615	60edac884fef13c0b0660daf	4	1	main_z	7	main_z	71	stimuli_target_squaretriangles.svg	stimuli_distractor_trianglediamonds.svg	3	yes	44	1	701	0	0			0	0			1				0	
6.6.1	win	2023-06-12	20:28:53	20:34:14	318615	60edac884fef13c0b0660daf	4	1	main_z	7	advance_on_keypress_ZEE	72	stimuli_target_squaretriangles.svg	stimuli_distractor_trianglediamonds.svg	3	yes	57	0	367	0	0			0	0			1				0	
6.6.1	win	2023-06-12	20:28:53	20:34:18	321632	60edac884fef13c0b0660daf	4	1	main_z	7	main_z	73	stimuli_distractor_diamondtriangles.svg	stimuli_distractor_diamondtriangles.svg	39	no	0	1	2000	0	0			0	0			1				0	
6.6.1	win	2023-06-12	20:28:53	20:34:18	321632	60edac884fef13c0b0660daf	4	1	main_z	7	advance_on_keypress_ZEE	74	stimuli_distractor_diamondtriangles.svg	stimuli_distractor_diamondtriangles.svg	39	no	57	0	380	0	0			0	0			1				0	
6.6.1	win	2023-06-12	20:28:53	20:34:19	323231	60edac884fef13c0b0660daf	4	1	main_z	7	main_z	75	stimuli_distractor_trianglediamonds.svg	stimuli_target_squaretriangles.svg	11	yes	44	1	562	0	0			0	0			1				0	
6.6.1	win	2023-06-12	20:28:53	20:34:19	323231	60edac884fef13c0b0660daf	4	1	main_z	7	advance_on_keypress_ZEE	76	stimuli_distractor_trianglediamonds.svg	stimuli_target_squaretriangles.svg	11	yes	57	0	379	0	0			0	0			1				0	
6.6.1	win	2023-06-12	20:28:53	20:34:22	326236	60edac884fef13c0b0660daf	4	1	main_z	7	main_z	77	stimuli_distractor_trianglediamonds.svg	stimuli_distractor_diamondtriangles.svg	35	no	0	1	2000	0	0			0	0			1				0	
6.6.1	win	2023-06-12	20:28:53	20:34:22	326236	60edac884fef13c0b0660daf	4	1	main_z	7	advance_on_keypress_ZEE	78	stimuli_distractor_trianglediamonds.svg	stimuli_distractor_diamondtriangles.svg	35	no	57	0	391	0	0			0	0			1				0	
6.6.1	win	2023-06-12	20:28:53	20:34:24	327895	60edac884fef13c0b0660daf	4	1	main_z	7	main_z	79	stimuli_target_rectangletriangles.svg	stimuli_distractor_diamondtriangles.svg	5	yes	44	1	622	0	0			0	0			1				0	
6.6.1	win	2023-06-12	20:28:53	20:34:24	327895	60edac884fef13c0b0660daf	4	1	main_z	7	advance_on_keypress_ZEE	80	stimuli_target_rectangletriangles.svg	stimuli_distractor_diamondtriangles.svg	5	yes	57	0	363	0	0			0	0			1				0	
6.6.1	win	2023-06-12	20:28:53	20:34:25	329487	60edac884fef13c0b0660daf	4	1	main_z	7	main_z	81	stimuli_distractor_trianglediamonds.svg	stimuli_target_rectangletriangles.svg	9	yes	44	1	579	0	0			0	0			1				0	
6.6.1	win	2023-06-12	20:28:53	20:34:25	329487	60edac884fef13c0b0660daf	4	1	main_z	7	advance_on_keypress_ZEE	82	stimuli_distractor_trianglediamonds.svg	stimuli_target_rectangletriangles.svg	9	yes	57	0	322	0	0			0	0			1				0	
6.6.1	win	2023-06-12	20:28:53	20:34:27	330959	60edac884fef13c0b0660daf	4	1	main_z	7	main_z	83	stimuli_distractor_diamondtriangles.svg	stimuli_target_rectangletriangles.svg	13	yes	44	1	516	0	0			0	0			1				0	
6.6.1	win	2023-06-12	20:28:53	20:34:27	330959	60edac884fef13c0b0660daf	4	1	main_z	7	advance_on_keypress_ZEE	84	stimuli_distractor_diamondtriangles.svg	stimuli_target_rectangletriangles.svg	13	yes	57	0	301	0	0			0	0			1				0	
6.6.1	win	2023-06-12	20:28:53	20:34:30	333911	60edac884fef13c0b0660daf	4	1	main_z	7	main_z	85	stimuli_distractor_trianglediamonds.svg	stimuli_distractor_diamondtriangles.svg	35	no	0	1	2000	0	0			0	0			1				0	
6.6.1	win	2023-06-12	20:28:53	20:34:30	333911	60edac884fef13c0b0660daf	4	1	main_z	7	advance_on_keypress_ZEE	86	stimuli_distractor_trianglediamonds.svg	stimuli_distractor_diamondtriangles.svg	35	no	57	0	524	0	0			0	0			1				0	
6.6.1	win	2023-06-12	20:28:53	20:34:33	337081	60edac884fef13c0b0660daf	4	1	main_z	7	main_z	87	stimuli_distractor_diamondtriangles.svg	stimuli_distractor_trianglediamonds.svg	38	no	0	1	2000	0	0			0	0			1				0	
6.6.1	win	2023-06-12	20:28:53	20:34:33	337081	60edac884fef13c0b0660daf	4	1	main_z	7	advance_on_keypress_ZEE	88	stimuli_distractor_diamondtriangles.svg	stimuli_distractor_trianglediamonds.svg	38	no	57	0	299	0	0			0	0			1				0	
6.6.1	win	2023-06-12	20:28:53	20:34:35	339255	60edac884fef13c0b0660daf	4	1	main_z	7	main_z	89	stimuli_target_trianglesquares.svg	stimuli_distractor_trianglediamonds.svg	18	yes	44	1	1221	0	0			0	0			1				0	
6.6.1	win	2023-06-12	20:28:53	20:34:35	339255	60edac884fef13c0b0660daf	4	1	main_z	7	advance_on_keypress_ZEE	90	stimuli_target_trianglesquares.svg	stimuli_distractor_trianglediamonds.svg	18	yes	57	0	418	0	0			0	0			1				0	
6.6.1	win	2023-06-12	20:28:53	20:34:37	340991	60edac884fef13c0b0660daf	4	1	main_z	7	main_z	91	stimuli_distractor_diamondtriangles.svg	stimuli_target_trianglesquares.svg	30	yes	44	1	672	0	0			0	0			1				0	
6.6.1	win	2023-06-12	20:28:53	20:34:37	340991	60edac884fef13c0b0660daf	4	1	main_z	7	advance_on_keypress_ZEE	92	stimuli_distractor_diamondtriangles.svg	stimuli_target_trianglesquares.svg	30	yes	57	0	715	0	0			0	0			1				0	
6.6.1	win	2023-06-12	20:28:53	20:34:39	343015	60edac884fef13c0b0660daf	4	1	main_z	7	main_z	93	stimuli_distractor_trianglediamonds.svg	stimuli_target_rectanglediamonds.svg	10	yes	44	1	660	0	0			0	0			1				0	
6.6.1	win	2023-06-12	20:28:53	20:34:39	343015	60edac884fef13c0b0660daf	4	1	main_z	7	advance_on_keypress_ZEE	94	stimuli_distractor_trianglediamonds.svg	stimuli_target_rectanglediamonds.svg	10	yes	57	0	728	0	0			0	0			1				0	
6.6.1	win	2023-06-12	20:28:53	20:34:42	346373	60edac884fef13c0b0660daf	4	1	main_z	7	main_z	95	stimuli_distractor_trianglediamonds.svg	stimuli_distractor_trianglediamonds.svg	33	no	0	1	2000	0	0			0	0			1				0	
6.6.1	win	2023-06-12	20:28:53	20:34:42	346373	60edac884fef13c0b0660daf	4	1	main_z	7	advance_on_keypress_ZEE	96	stimuli_distractor_trianglediamonds.svg	stimuli_distractor_trianglediamonds.svg	33	no	57	0	118	0	0			0	0			1				0	
6.6.1	win	2023-06-12	20:28:53	20:34:45	349143	60edac884fef13c0b0660daf	4	1	main_z	7	main_z	97	stimuli_target_diamondsquares.svg	stimuli_distractor_diamondtriangles.svg	24	yes	0	0	2000	0	0			0	0			1				0	
6.6.1	win	2023-06-12	20:28:53	20:34:45	349143	60edac884fef13c0b0660daf	4	1	main_z	7	advance_on_keypress_ZEE	98	stimuli_target_diamondsquares.svg	stimuli_distractor_diamondtriangles.svg	24	yes	57	0	381	0	0			0	0			1				0	
6.6.1	win	2023-06-12	20:28:53	20:34:47	350679	60edac884fef13c0b0660daf	4	1	main_z	7	main_z	99	stimuli_distractor_diamondtriangles.svg	stimuli_target_rectanglediamonds.svg	14	yes	44	1	500	0	0			0	0			1				0	
6.6.1	win	2023-06-12	20:28:53	20:34:47	350679	60edac884fef13c0b0660daf	4	1	main_z	7	advance_on_keypress_ZEE	100	stimuli_distractor_diamondtriangles.svg	stimuli_target_rectanglediamonds.svg	14	yes	57	0	558	0	0			0	0			1				0	
6.6.1	win	2023-06-12	20:28:53	20:34:50	353881	60edac884fef13c0b0660daf	4	1	main_z	7	main_z	101	stimuli_target_squarediamonds.svg	stimuli_distractor_trianglediamonds.svg	4	yes	0	0	2000	0	0			0	0			1				0	
6.6.1	win	2023-06-12	20:28:53	20:34:50	353881	60edac884fef13c0b0660daf	4	1	main_z	7	advance_on_keypress_ZEE	102	stimuli_target_squarediamonds.svg	stimuli_distractor_trianglediamonds.svg	4	yes	57	0	451	0	0			0	0			1				0	
6.6.1	win	2023-06-12	20:28:53	20:34:53	356984	60edac884fef13c0b0660daf	4	1	main_z	7	main_z	103	stimuli_distractor_trianglediamonds.svg	stimuli_distractor_trianglediamonds.svg	34	no	0	1	2000	0	0			0	0			1				0	
6.6.1	win	2023-06-12	20:28:53	20:34:53	356984	60edac884fef13c0b0660daf	4	1	main_z	7	advance_on_keypress_ZEE	104	stimuli_distractor_trianglediamonds.svg	stimuli_distractor_trianglediamonds.svg	34	no	57	0	1060	0	0			0	0			1				0	
6.6.1	win	2023-06-12	20:28:53	20:34:55	359287	60edac884fef13c0b0660daf	4	1	main_z	7	main_z	105	stimuli_target_trianglesquares.svg	stimuli_distractor_diamondtriangles.svg	22	yes	44	1	599	0	0			0	0			1				0	
6.6.1	win	2023-06-12	20:28:53	20:34:55	359287	60edac884fef13c0b0660daf	4	1	main_z	7	advance_on_keypress_ZEE	106	stimuli_target_trianglesquares.svg	stimuli_distractor_diamondtriangles.svg	22	yes	57	0	541	0	0			0	0			1				0	
6.6.1	win	2023-06-12	20:28:53	20:34:57	361287	60edac884fef13c0b0660daf	4	1	main_z	7	main_z	107	stimuli_distractor_trianglediamonds.svg	stimuli_target_squaretriangles.svg	11	yes	44	1	814	0	0			0	0			1				0	
6.6.1	win	2023-06-12	20:28:53	20:34:57	361287	60edac884fef13c0b0660daf	4	1	main_z	7	advance_on_keypress_ZEE	108	stimuli_distractor_trianglediamonds.svg	stimuli_target_squaretriangles.svg	11	yes	57	0	539	0	0			0	0			1				0	
6.6.1	win	2023-06-12	20:28:53	20:34:59	363415	60edac884fef13c0b0660daf	4	1	main_z	7	main_z	109	stimuli_distractor_diamondtriangles.svg	stimuli_target_squaretriangles.svg	15	yes	44	1	940	0	0			0	0			1				0	
6.6.1	win	2023-06-12	20:28:53	20:34:59	363415	60edac884fef13c0b0660daf	4	1	main_z	7	advance_on_keypress_ZEE	110	stimuli_distractor_diamondtriangles.svg	stimuli_target_squaretriangles.svg	15	yes	57	0	405	0	0			0	0			1				0	
6.6.1	win	2023-06-12	20:28:53	20:35:01	365271	60edac884fef13c0b0660daf	4	1	main_z	7	main_z	111	stimuli_distractor_diamondtriangles.svg	stimuli_target_trianglerectangles.svg	29	yes	44	1	811	0	0			0	0			1				0	
6.6.1	win	2023-06-12	20:28:53	20:35:01	365271	60edac884fef13c0b0660daf	4	1	main_z	7	advance_on_keypress_ZEE	112	stimuli_distractor_diamondtriangles.svg	stimuli_target_trianglerectangles.svg	29	yes	57	0	480	0	0			0	0			1				0	
6.6.1	win	2023-06-12	20:28:53	20:35:03	367095	60edac884fef13c0b0660daf	4	1	main_z	7	main_z	113	stimuli_target_diamondrectangles.svg	stimuli_distractor_diamondtriangles.svg	23	yes	44	1	683	0	0			0	0			1				0	
6.6.1	win	2023-06-12	20:28:53	20:35:03	367095	60edac884fef13c0b0660daf	4	1	main_z	7	advance_on_keypress_ZEE	114	stimuli_target_diamondrectangles.svg	stimuli_distractor_diamondtriangles.svg	23	yes	57	0	381	0	0			0	0			1				0	
6.6.1	win	2023-06-12	20:28:53	20:35:05	369087	60edac884fef13c0b0660daf	4	1	main_z	7	main_z	115	stimuli_target_rectanglediamonds.svg	stimuli_distractor_diamondtriangles.svg	6	yes	44	1	956	0	0			0	0			1				0	
6.6.1	win	2023-06-12	20:28:53	20:35:05	369087	60edac884fef13c0b0660daf	4	1	main_z	7	advance_on_keypress_ZEE	116	stimuli_target_rectanglediamonds.svg	stimuli_distractor_diamondtriangles.svg	6	yes	57	0	308	0	0			0	0			1				0	
6.6.1	win	2023-06-12	20:28:53	20:35:07	370703	60edac884fef13c0b0660daf	4	1	main_z	7	main_z	117	stimuli_distractor_diamondtriangles.svg	stimuli_target_diamondsquares.svg	32	yes	44	1	670	0	0			0	0			1				0	
6.6.1	win	2023-06-12	20:28:53	20:35:07	370703	60edac884fef13c0b0660daf	4	1	main_z	7	advance_on_keypress_ZEE	118	stimuli_distractor_diamondtriangles.svg	stimuli_target_diamondsquares.svg	32	yes	57	0	354	0	0			0	0			1				0	
6.6.1	win	2023-06-12	20:28:53	20:35:08	372223	60edac884fef13c0b0660daf	4	1	main_z	7	main_z	119	stimuli_distractor_trianglediamonds.svg	stimuli_target_diamondrectangles.svg	27	yes	44	1	522	0	0			0	0			1				0	
6.6.1	win	2023-06-12	20:28:53	20:35:08	372223	60edac884fef13c0b0660daf	4	1	main_z	7	advance_on_keypress_ZEE	120	stimuli_distractor_trianglediamonds.svg	stimuli_target_diamondrectangles.svg	27	yes	57	0	419	0	0			0	0			1				0	
6.6.1	win	2023-06-12	20:28:53	20:35:11	375286	60edac884fef13c0b0660daf	4	1	main_z	7	main_z	121	stimuli_distractor_diamondtriangles.svg	stimuli_distractor_diamondtriangles.svg	39	no	0	1	2000	0	0			0	0			1				0	
6.6.1	win	2023-06-12	20:28:53	20:35:11	375286	60edac884fef13c0b0660daf	4	1	main_z	7	advance_on_keypress_ZEE	122	stimuli_distractor_diamondtriangles.svg	stimuli_distractor_diamondtriangles.svg	39	no	57	0	814	0	0			0	0			1				0	
6.6.1	win	2023-06-12	20:28:53	20:35:15	378756	60edac884fef13c0b0660daf	4	1	main_z	7	main_z	123	stimuli_distractor_diamondtriangles.svg	stimuli_target_diamondrectangles.svg	31	yes	0	0	2000	0	0			0	0			1				0	
6.6.1	win	2023-06-12	20:28:53	20:35:15	378756	60edac884fef13c0b0660daf	4	1	main_z	7	advance_on_keypress_ZEE	124	stimuli_distractor_diamondtriangles.svg	stimuli_target_diamondrectangles.svg	31	yes	57	0	512	0	0			0	0			1				0	
6.6.1	win	2023-06-12	20:28:53	20:35:18	381909	60edac884fef13c0b0660daf	4	1	main_z	7	main_z	125	stimuli_target_squaretriangles.svg	stimuli_distractor_diamondtriangles.svg	7	yes	0	0	2000	0	0			0	0			1				0	
6.6.1	win	2023-06-12	20:28:53	20:35:18	381909	60edac884fef13c0b0660daf	4	1	main_z	7	advance_on_keypress_ZEE	126	stimuli_target_squaretriangles.svg	stimuli_distractor_diamondtriangles.svg	7	yes	57	0	527	0	0			0	0			1				0	
6.6.1	win	2023-06-12	20:28:53	20:35:20	383855	60edac884fef13c0b0660daf	4	1	main_z	7	main_z	127	stimuli_target_diamondsquares.svg	stimuli_distractor_trianglediamonds.svg	20	yes	44	1	776	0	0			0	0			1				0	
6.6.1	win	2023-06-12	20:28:53	20:35:20	383855	60edac884fef13c0b0660daf	4	1	main_z	7	advance_on_keypress_ZEE	128	stimuli_target_diamondsquares.svg	stimuli_distractor_trianglediamonds.svg	20	yes	57	0	1815	0	0			0	0			1				0	
6.6.1	win	2023-06-12	20:28:53	20:35:23	387231	60edac884fef13c0b0660daf	4	1	main_z	7	main_z	129	stimuli_distractor_trianglediamonds.svg	stimuli_target_trianglesquares.svg	26	yes	44	1	916	0	0			0	0			1				0	
6.6.1	win	2023-06-12	20:28:53	20:35:23	387231	60edac884fef13c0b0660daf	4	1	main_z	7	advance_on_keypress_ZEE	130	stimuli_distractor_trianglediamonds.svg	stimuli_target_trianglesquares.svg	26	yes	57	0	1477	0	0			0	0			1				0	
6.6.1	win	2023-06-12	20:28:53	20:35:27	391352	60edac884fef13c0b0660daf	4	1	main_z	7	main_z	131	stimuli_distractor_trianglediamonds.svg	stimuli_target_trianglerectangles.svg	25	yes	0	0	2000	0	0			0	0			1				0	
6.6.1	win	2023-06-12	20:28:53	20:35:27	391352	60edac884fef13c0b0660daf	4	1	main_z	7	advance_on_keypress_ZEE	132	stimuli_distractor_trianglediamonds.svg	stimuli_target_trianglerectangles.svg	25	yes	57	0	26004	0	0			0	0			1				0	
6.6.1	win	2023-06-12	20:28:53	20:35:55	418679	60edac884fef13c0b0660daf	4	1	main_z	7	main_z	133	stimuli_distractor_trianglediamonds.svg	stimuli_distractor_diamondtriangles.svg	36	no	44	0	665	0	0			0	0			1				0	
6.6.1	win	2023-06-12	20:28:53	20:35:55	418679	60edac884fef13c0b0660daf	4	1	main_z	7	advance_on_keypress_ZEE	134	stimuli_distractor_trianglediamonds.svg	stimuli_distractor_diamondtriangles.svg	36	no	57	0	836	0	0			0	0			1				0	
6.6.1	win	2023-06-12	20:28:53	20:35:57	420983	60edac884fef13c0b0660daf	4	1	main_z	7	main_z	135	stimuli_distractor_diamondtriangles.svg	stimuli_target_squarediamonds.svg	16	yes	44	1	817	0	0			0	0			1				0	
6.6.1	win	2023-06-12	20:28:53	20:35:57	420983	60edac884fef13c0b0660daf	4	1	main_z	7	advance_on_keypress_ZEE	136	stimuli_distractor_diamondtriangles.svg	stimuli_target_squarediamonds.svg	16	yes	57	0	590	0	0			0	0			1				0	
6.6.1	win	2023-06-12	20:28:53	20:35:59	422871	60edac884fef13c0b0660daf	4	1	main_z	7	main_z	137	stimuli_target_trianglerectangles.svg	stimuli_distractor_trianglediamonds.svg	17	yes	44	1	653	0	0			0	0			1				0	
6.6.1	win	2023-06-12	20:28:53	20:35:59	422871	60edac884fef13c0b0660daf	4	1	main_z	7	advance_on_keypress_ZEE	138	stimuli_target_trianglerectangles.svg	stimuli_distractor_trianglediamonds.svg	17	yes	57	0	761	0	0			0	0			1				0	
6.6.1	win	2023-06-12	20:28:53	20:36:02	426270	60edac884fef13c0b0660daf	4	1	main_z	7	main_z	139	stimuli_target_rectanglediamonds.svg	stimuli_distractor_trianglediamonds.svg	2	yes	0	0	2000	0	0			0	0			1				0	
6.6.1	win	2023-06-12	20:28:53	20:36:02	426270	60edac884fef13c0b0660daf	4	1	main_z	7	advance_on_keypress_ZEE	140	stimuli_target_rectanglediamonds.svg	stimuli_distractor_trianglediamonds.svg	2	yes	57	0	846	0	0			0	0			1				0	
6.6.1	win	2023-06-12	20:28:53	20:36:04	428439	60edac884fef13c0b0660daf	4	1	main_z	7	main_z	141	stimuli_distractor_trianglediamonds.svg	stimuli_target_squarediamonds.svg	12	yes	44	1	682	0	0			0	0			1				0	
6.6.1	win	2023-06-12	20:28:53	20:36:04	428439	60edac884fef13c0b0660daf	4	1	main_z	7	advance_on_keypress_ZEE	142	stimuli_distractor_trianglediamonds.svg	stimuli_target_squarediamonds.svg	12	yes	57	0	645	0	0			0	0			1				0	
6.6.1	win	2023-06-12	20:28:53	20:36:06	430591	60edac884fef13c0b0660daf	4	1	main_z	7	main_z	143	stimuli_target_squarediamonds.svg	stimuli_distractor_diamondtriangles.svg	8	yes	44	1	865	0	0			0	0			1				0	
6.6.1	win	2023-06-12	20:28:53	20:36:06	430591	60edac884fef13c0b0660daf	4	1	main_z	7	advance_on_keypress_ZEE	144	stimuli_target_squarediamonds.svg	stimuli_distractor_diamondtriangles.svg	8	yes	57	0	621	0	0			0	0			1				0	
6.6.1	win	2023-06-12	20:28:53	20:36:08	432575	60edac884fef13c0b0660daf	4	1	main_z	7	main_z	145	stimuli_target_squaretriangles.svg	stimuli_distractor_trianglediamonds.svg	3	yes	44	1	714	0	0			0	0			1				0	
6.6.1	win	2023-06-12	20:28:53	20:36:08	432575	60edac884fef13c0b0660daf	4	1	main_z	7	advance_on_keypress_ZEE	146	stimuli_target_squaretriangles.svg	stimuli_distractor_trianglediamonds.svg	3	yes	57	0	539	0	0			0	0			1				0	
6.6.1	win	2023-06-12	20:28:53	20:36:12	435763	60edac884fef13c0b0660daf	4	1	main_z	7	main_z	147	stimuli_distractor_diamondtriangles.svg	stimuli_distractor_diamondtriangles.svg	40	no	0	1	2000	0	0			0	0			1				0	
6.6.1	win	2023-06-12	20:28:53	20:36:12	435763	60edac884fef13c0b0660daf	4	1	main_z	7	advance_on_keypress_ZEE	148	stimuli_distractor_diamondtriangles.svg	stimuli_distractor_diamondtriangles.svg	40	no	57	0	649	0	0			0	0			1				0	
6.6.1	win	2023-06-12	20:28:53	20:36:15	439066	60edac884fef13c0b0660daf	4	1	main_z	7	main_z	149	stimuli_distractor_diamondtriangles.svg	stimuli_distractor_trianglediamonds.svg	37	no	0	1	2000	0	0			0	0			1				0	
6.6.1	win	2023-06-12	20:28:53	20:36:15	439066	60edac884fef13c0b0660daf	4	1	main_z	7	advance_on_keypress_ZEE	150	stimuli_distractor_diamondtriangles.svg	stimuli_distractor_trianglediamonds.svg	37	no	57	0	370	0	0			0	0			1				0	
6.6.1	win	2023-06-12	20:28:53	20:36:17	440775	60edac884fef13c0b0660daf	4	1	main_z	7	main_z	151	stimuli_target_diamondrectangles.svg	stimuli_distractor_trianglediamonds.svg	19	yes	44	1	689	0	0			0	0			1				0	
6.6.1	win	2023-06-12	20:28:53	20:36:17	440775	60edac884fef13c0b0660daf	4	1	main_z	7	advance_on_keypress_ZEE	152	stimuli_target_diamondrectangles.svg	stimuli_distractor_trianglediamonds.svg	19	yes	57	0	468	0	0			0	0			1				0	
6.6.1	win	2023-06-12	20:28:53	20:36:18	442511	60edac884fef13c0b0660daf	4	1	main_z	7	main_z	153	stimuli_distractor_trianglediamonds.svg	stimuli_target_diamondsquares.svg	28	yes	44	1	623	0	0			0	0			1				0	
6.6.1	win	2023-06-12	20:28:53	20:36:18	442511	60edac884fef13c0b0660daf	4	1	main_z	7	advance_on_keypress_ZEE	154	stimuli_distractor_trianglediamonds.svg	stimuli_target_diamondsquares.svg	28	yes	57	0	484	0	0			0	0			1				0	
6.6.1	win	2023-06-12	20:28:53	20:36:20	444231	60edac884fef13c0b0660daf	4	1	main_z	7	main_z	155	stimuli_target_trianglerectangles.svg	stimuli_distractor_diamondtriangles.svg	21	yes	44	1	591	0	0			0	0			1				0	
6.6.1	win	2023-06-12	20:28:53	20:36:20	444231	60edac884fef13c0b0660daf	4	1	main_z	7	advance_on_keypress_ZEE	156	stimuli_target_trianglerectangles.svg	stimuli_distractor_diamondtriangles.svg	21	yes	57	0	422	0	0			0	0			1				0	
6.6.1	win	2023-06-12	20:28:53	20:36:23	447291	60edac884fef13c0b0660daf	4	1	main_z	7	main_z	157	stimuli_target_rectangletriangles.svg	stimuli_distractor_trianglediamonds.svg	1	yes	0	0	2000	0	0			0	0			1				0	
6.6.1	win	2023-06-12	20:28:53	20:36:23	447291	60edac884fef13c0b0660daf	4	1	main_z	7	advance_on_keypress_ZEE	158	stimuli_target_rectangletriangles.svg	stimuli_distractor_trianglediamonds.svg	1	yes	57	0	513	0	0			0	0			1				0	
6.6.1	win	2023-06-12	20:28:53	20:36:25	449247	60edac884fef13c0b0660daf	4	1	main_z	7	main_z	159	stimuli_target_rectangletriangles.svg	stimuli_distractor_diamondtriangles.svg	5	yes	44	1	786	0	0			0	0			1				0	
6.6.1	win	2023-06-12	20:28:53	20:36:25	449247	60edac884fef13c0b0660daf	4	1	main_z	7	advance_on_keypress_ZEE	160	stimuli_target_rectangletriangles.svg	stimuli_distractor_diamondtriangles.svg	5	yes	57	0	448	0	0			0	0			1				0	
6.6.1	win	2023-06-12	20:28:53	20:36:57	480642	60edac884fef13c0b0660daf	4	1	practice_slash	9	practice_slash	1	stimuli_distractor_trianglediamonds.svg	stimuli_distractor_diamondtriangles.svg	16	no	0	1	2000	0	0			0	0			1				0	
6.6.1	win	2023-06-12	20:28:53	20:36:57	480642	60edac884fef13c0b0660daf	4	1	practice_slash	9	advance_on_keypress_SLASH	2	stimuli_distractor_trianglediamonds.svg	stimuli_distractor_diamondtriangles.svg	16	no	57	0	819	0	0			0	0			1				0	
6.6.1	win	2023-06-12	20:28:53	20:37:00	483801	60edac884fef13c0b0660daf	4	1	practice_slash	9	practice_slash	3	stimuli_target_squarediamonds.svg	stimuli_distractor_trianglediamonds.svg	5	yes	53	1	688	0	0			0	0			1				0	
6.6.1	win	2023-06-12	20:28:53	20:37:00	483801	60edac884fef13c0b0660daf	4	1	practice_slash	9	advance_on_keypress_SLASH	4	stimuli_target_squarediamonds.svg	stimuli_distractor_trianglediamonds.svg	5	yes	57	0	801	0	0			0	0			1				0	
6.6.1	win	2023-06-12	20:28:53	20:37:03	487130	60edac884fef13c0b0660daf	4	1	practice_slash	9	practice_slash	5	stimuli_target_squarediamonds.svg	stimuli_distractor_diamondtriangles.svg	2	yes	53	1	879	0	0			0	0			1				0	
6.6.1	win	2023-06-12	20:28:53	20:37:03	487130	60edac884fef13c0b0660daf	4	1	practice_slash	9	advance_on_keypress_SLASH	6	stimuli_target_squarediamonds.svg	stimuli_distractor_diamondtriangles.svg	2	yes	57	0	1385	0	0			0	0			1				0	
6.6.1	win	2023-06-12	20:28:53	20:37:07	491281	60edac884fef13c0b0660daf	4	1	practice_slash	9	practice_slash	7	stimuli_distractor_diamondtriangles.svg	stimuli_distractor_diamondtriangles.svg	13	no	53	0	1111	0	0			0	0			1				0	
6.6.1	win	2023-06-12	20:28:53	20:37:07	491281	60edac884fef13c0b0660daf	4	1	practice_slash	9	advance_on_keypress_SLASH	8	stimuli_distractor_diamondtriangles.svg	stimuli_distractor_diamondtriangles.svg	13	no	57	0	639	0	0			0	0			1				0	
6.6.1	win	2023-06-12	20:28:53	20:37:10	494585	60edac884fef13c0b0660daf	4	1	practice_slash	9	practice_slash	9	stimuli_target_rectanglediamonds.svg	stimuli_distractor_diamondtriangles.svg	1	yes	53	1	1028	0	0			0	0			1				0	
6.6.1	win	2023-06-12	20:28:53	20:37:10	494585	60edac884fef13c0b0660daf	4	1	practice_slash	9	advance_on_keypress_SLASH	10	stimuli_target_rectanglediamonds.svg	stimuli_distractor_diamondtriangles.svg	1	yes	57	0	1183	0	0			0	0			1				0	
6.6.1	win	2023-06-12	20:28:53	20:37:14	498337	60edac884fef13c0b0660daf	4	1	practice_slash	9	practice_slash	11	stimuli_target_diamondsquares.svg	stimuli_distractor_diamondtriangles.svg	3	yes	53	1	909	0	0			0	0			1				0	
6.6.1	win	2023-06-12	20:28:53	20:37:14	498337	60edac884fef13c0b0660daf	4	1	practice_slash	9	advance_on_keypress_SLASH	12	stimuli_target_diamondsquares.svg	stimuli_distractor_diamondtriangles.svg	3	yes	57	0	982	0	0			0	0			1				0	
6.6.1	win	2023-06-12	20:28:53	20:37:18	501721	60edac884fef13c0b0660daf	4	1	practice_slash	9	practice_slash	13	stimuli_distractor_diamondtriangles.svg	stimuli_target_rectangletriangles.svg	7	yes	53	1	757	0	0			0	0			1				0	
6.6.1	win	2023-06-12	20:28:53	20:37:18	501721	60edac884fef13c0b0660daf	4	1	practice_slash	9	advance_on_keypress_SLASH	14	stimuli_distractor_diamondtriangles.svg	stimuli_target_rectangletriangles.svg	7	yes	57	0	683	0	0			0	0			1				0	
6.6.1	win	2023-06-12	20:28:53	20:37:21	504777	60edac884fef13c0b0660daf	4	1	practice_slash	9	practice_slash	15	stimuli_target_diamondsquares.svg	stimuli_distractor_trianglediamonds.svg	6	yes	53	1	726	0	0			0	0			1				0	
6.6.1	win	2023-06-12	20:28:53	20:37:21	504777	60edac884fef13c0b0660daf	4	1	practice_slash	9	advance_on_keypress_SLASH	16	stimuli_target_diamondsquares.svg	stimuli_distractor_trianglediamonds.svg	6	yes	57	0	591	0	0			0	0			1				0	
6.6.1	win	2023-06-12	20:28:53	20:37:24	507834	60edac884fef13c0b0660daf	4	1	practice_slash	9	practice_slash	17	stimuli_distractor_trianglediamonds.svg	stimuli_target_squarediamonds.svg	11	yes	53	1	829	0	0			0	0			1				0	
6.6.1	win	2023-06-12	20:28:53	20:37:24	507834	60edac884fef13c0b0660daf	4	1	practice_slash	9	advance_on_keypress_SLASH	18	stimuli_distractor_trianglediamonds.svg	stimuli_target_squarediamonds.svg	11	yes	57	0	561	0	0			0	0			1				0	
6.6.1	win	2023-06-12	20:28:53	20:37:27	510705	60edac884fef13c0b0660daf	4	1	practice_slash	9	practice_slash	19	stimuli_distractor_trianglediamonds.svg	stimuli_target_diamondrectangles.svg	12	yes	53	1	665	0	0			0	0			1				0	
6.6.1	win	2023-06-12	20:28:53	20:37:27	510705	60edac884fef13c0b0660daf	4	1	practice_slash	9	advance_on_keypress_SLASH	20	stimuli_distractor_trianglediamonds.svg	stimuli_target_diamondrectangles.svg	12	yes	57	0	955	0	0			0	0			1				0	
6.6.1	win	2023-06-12	20:28:53	20:37:30	513969	60edac884fef13c0b0660daf	4	1	practice_slash	9	practice_slash	21	stimuli_distractor_diamondtriangles.svg	stimuli_target_trianglerectangles.svg	9	yes	53	1	659	0	0			0	0			1				0	
6.6.1	win	2023-06-12	20:28:53	20:37:30	513969	60edac884fef13c0b0660daf	4	1	practice_slash	9	advance_on_keypress_SLASH	22	stimuli_distractor_diamondtriangles.svg	stimuli_target_trianglerectangles.svg	9	yes	57	0	590	0	0			0	0			1				0	
6.6.1	win	2023-06-12	20:28:53	20:37:34	518196	60edac884fef13c0b0660daf	4	1	practice_slash	9	practice_slash	23	stimuli_distractor_trianglediamonds.svg	stimuli_distractor_trianglediamonds.svg	15	no	0	1	2000	0	0			0	0			1				0	
6.6.1	win	2023-06-12	20:28:53	20:37:34	518196	60edac884fef13c0b0660daf	4	1	practice_slash	9	advance_on_keypress_SLASH	24	stimuli_distractor_trianglediamonds.svg	stimuli_distractor_trianglediamonds.svg	15	no	57	0	448	0	0			0	0			1				0	
6.6.1	win	2023-06-12	20:28:53	20:37:37	521153	60edac884fef13c0b0660daf	4	1	practice_slash	9	practice_slash	25	stimuli_distractor_diamondtriangles.svg	stimuli_distractor_trianglediamonds.svg	14	no	53	0	853	0	0			0	0			1				0	
6.6.1	win	2023-06-12	20:28:53	20:37:37	521153	60edac884fef13c0b0660daf	4	1	practice_slash	9	advance_on_keypress_SLASH	26	stimuli_distractor_diamondtriangles.svg	stimuli_distractor_trianglediamonds.svg	14	no	57	0	1167	0	0			0	0			1				0	
6.6.1	win	2023-06-12	20:28:53	20:37:41	524690	60edac884fef13c0b0660daf	4	1	practice_slash	9	practice_slash	27	stimuli_target_rectanglediamonds.svg	stimuli_distractor_trianglediamonds.svg	4	yes	53	1	719	0	0			0	0			1				0	
6.6.1	win	2023-06-12	20:28:53	20:37:41	524690	60edac884fef13c0b0660daf	4	1	practice_slash	9	advance_on_keypress_SLASH	28	stimuli_target_rectanglediamonds.svg	stimuli_distractor_trianglediamonds.svg	4	yes	57	0	790	0	0			0	0			1				0	
6.6.1	win	2023-06-12	20:28:53	20:37:44	527841	60edac884fef13c0b0660daf	4	1	practice_slash	9	practice_slash	29	stimuli_distractor_trianglediamonds.svg	stimuli_target_rectanglediamonds.svg	10	yes	53	1	717	0	0			0	0			1				0	
6.6.1	win	2023-06-12	20:28:53	20:37:44	527841	60edac884fef13c0b0660daf	4	1	practice_slash	9	advance_on_keypress_SLASH	30	stimuli_distractor_trianglediamonds.svg	stimuli_target_rectanglediamonds.svg	10	yes	57	0	701	0	0			0	0			1				0	
6.6.1	win	2023-06-12	20:28:53	20:37:47	530890	60edac884fef13c0b0660daf	4	1	practice_slash	9	practice_slash	31	stimuli_distractor_diamondtriangles.svg	stimuli_target_diamondrectangles.svg	8	yes	53	1	695	0	0			0	0			1				0	
6.6.1	win	2023-06-12	20:28:53	20:37:47	530890	60edac884fef13c0b0660daf	4	1	practice_slash	9	advance_on_keypress_SLASH	32	stimuli_distractor_diamondtriangles.svg	stimuli_target_diamondrectangles.svg	8	yes	57	0	720	0	0			0	0			1				0	
6.6.1	win	2023-06-12	20:28:53	20:38:30	574311	60edac884fef13c0b0660daf	4	1	main_slash	11	main_slash	1	stimuli_distractor_trianglediamonds.svg	stimuli_target_diamondrectangles.svg	27	yes	53	1	1309	0	0			0	0			1				0	
6.6.1	win	2023-06-12	20:28:53	20:38:30	574311	60edac884fef13c0b0660daf	4	1	main_slash	11	advance_on_keypress_SLASH	2	stimuli_distractor_trianglediamonds.svg	stimuli_target_diamondrectangles.svg	27	yes	57	0	502	0	0			0	0			1				0	
6.6.1	win	2023-06-12	20:28:53	20:38:32	575855	60edac884fef13c0b0660daf	4	1	main_slash	11	main_slash	3	stimuli_distractor_trianglediamonds.svg	stimuli_target_trianglerectangles.svg	25	yes	53	1	400	0	0			0	0			1				0	
6.6.1	win	2023-06-12	20:28:53	20:38:32	575855	60edac884fef13c0b0660daf	4	1	main_slash	11	advance_on_keypress_SLASH	4	stimuli_distractor_trianglediamonds.svg	stimuli_target_trianglerectangles.svg	25	yes	57	0	407	0	0			0	0			1				0	
6.6.1	win	2023-06-12	20:28:53	20:38:33	577287	60edac884fef13c0b0660daf	4	1	main_slash	11	main_slash	5	stimuli_distractor_trianglediamonds.svg	stimuli_distractor_diamondtriangles.svg	36	no	53	0	381	0	0			0	0			1				0	
6.6.1	win	2023-06-12	20:28:53	20:38:33	577287	60edac884fef13c0b0660daf	4	1	main_slash	11	advance_on_keypress_SLASH	6	stimuli_distractor_trianglediamonds.svg	stimuli_distractor_diamondtriangles.svg	36	no	57	0	372	0	0			0	0			1				0	
6.6.1	win	2023-06-12	20:28:53	20:38:35	579015	60edac884fef13c0b0660daf	4	1	main_slash	11	main_slash	7	stimuli_target_trianglerectangles.svg	stimuli_distractor_trianglediamonds.svg	17	yes	53	1	707	0	0			0	0			1				0	
6.6.1	win	2023-06-12	20:28:53	20:38:35	579015	60edac884fef13c0b0660daf	4	1	main_slash	11	advance_on_keypress_SLASH	8	stimuli_target_trianglerectangles.svg	stimuli_distractor_trianglediamonds.svg	17	yes	57	0	333	0	0			0	0			1				0	
6.6.1	win	2023-06-12	20:28:53	20:38:37	580711	60edac884fef13c0b0660daf	4	1	main_slash	11	main_slash	9	stimuli_distractor_trianglediamonds.svg	stimuli_target_rectangletriangles.svg	9	yes	53	1	719	0	0			0	0			1				0	
6.6.1	win	2023-06-12	20:28:53	20:38:37	580711	60edac884fef13c0b0660daf	4	1	main_slash	11	advance_on_keypress_SLASH	10	stimuli_distractor_trianglediamonds.svg	stimuli_target_rectangletriangles.svg	9	yes	57	0	328	0	0			0	0			1				0	
6.6.1	win	2023-06-12	20:28:53	20:38:38	582303	60edac884fef13c0b0660daf	4	1	main_slash	11	main_slash	11	stimuli_distractor_trianglediamonds.svg	stimuli_target_rectanglediamonds.svg	10	yes	53	1	626	0	0			0	0			1				0	
6.6.1	win	2023-06-12	20:28:53	20:38:38	582303	60edac884fef13c0b0660daf	4	1	main_slash	11	advance_on_keypress_SLASH	12	stimuli_distractor_trianglediamonds.svg	stimuli_target_rectanglediamonds.svg	10	yes	57	0	399	0	0			0	0			1				0	
6.6.1	win	2023-06-12	20:28:53	20:38:40	584079	60edac884fef13c0b0660daf	4	1	main_slash	11	main_slash	13	stimuli_distractor_diamondtriangles.svg	stimuli_distractor_trianglediamonds.svg	37	no	53	0	733	0	0			0	0			1				0	
6.6.1	win	2023-06-12	20:28:53	20:38:40	584079	60edac884fef13c0b0660daf	4	1	main_slash	11	advance_on_keypress_SLASH	14	stimuli_distractor_diamondtriangles.svg	stimuli_distractor_trianglediamonds.svg	37	no	57	0	406	0	0			0	0			1				0	
6.6.1	win	2023-06-12	20:28:53	20:38:43	587131	60edac884fef13c0b0660daf	4	1	main_slash	11	main_slash	15	stimuli_target_rectangletriangles.svg	stimuli_distractor_trianglediamonds.svg	1	yes	0	0	2000	0	0			0	0			1				0	
6.6.1	win	2023-06-12	20:28:53	20:38:43	587131	60edac884fef13c0b0660daf	4	1	main_slash	11	advance_on_keypress_SLASH	16	stimuli_target_rectangletriangles.svg	stimuli_distractor_trianglediamonds.svg	1	yes	57	0	593	0	0			0	0			1				0	
6.6.1	win	2023-06-12	20:28:53	20:38:46	590367	60edac884fef13c0b0660daf	4	1	main_slash	11	main_slash	17	stimuli_target_rectangletriangles.svg	stimuli_distractor_diamondtriangles.svg	5	yes	0	0	2000	0	0			0	0			1				0	
6.6.1	win	2023-06-12	20:28:53	20:38:46	590367	60edac884fef13c0b0660daf	4	1	main_slash	11	advance_on_keypress_SLASH	18	stimuli_target_rectangletriangles.svg	stimuli_distractor_diamondtriangles.svg	5	yes	57	0	604	0	0			0	0			1				0	
6.6.1	win	2023-06-12	20:28:53	20:38:48	592463	60edac884fef13c0b0660daf	4	1	main_slash	11	main_slash	19	stimuli_target_squaretriangles.svg	stimuli_distractor_trianglediamonds.svg	3	yes	53	1	842	0	0			0	0			1				0	
6.6.1	win	2023-06-12	20:28:53	20:38:48	592463	60edac884fef13c0b0660daf	4	1	main_slash	11	advance_on_keypress_SLASH	20	stimuli_target_squaretriangles.svg	stimuli_distractor_trianglediamonds.svg	3	yes	57	0	551	0	0			0	0			1				0	
6.6.1	win	2023-06-12	20:28:53	20:38:52	595656	60edac884fef13c0b0660daf	4	1	main_slash	11	main_slash	21	stimuli_target_squaretriangles.svg	stimuli_distractor_diamondtriangles.svg	7	yes	0	0	2000	0	0			0	0			1				0	
6.6.1	win	2023-06-12	20:28:53	20:38:52	595656	60edac884fef13c0b0660daf	4	1	main_slash	11	advance_on_keypress_SLASH	22	stimuli_target_squaretriangles.svg	stimuli_distractor_diamondtriangles.svg	7	yes	57	0	612	0	0			0	0			1				0	
6.6.1	win	2023-06-12	20:28:53	20:38:55	598909	60edac884fef13c0b0660daf	4	1	main_slash	11	main_slash	23	stimuli_distractor_diamondtriangles.svg	stimuli_distractor_diamondtriangles.svg	39	no	0	1	2000	0	0			0	0			1				0	
6.6.1	win	2023-06-12	20:28:53	20:38:55	598909	60edac884fef13c0b0660daf	4	1	main_slash	11	advance_on_keypress_SLASH	24	stimuli_distractor_diamondtriangles.svg	stimuli_distractor_diamondtriangles.svg	39	no	57	0	3334	0	0			0	0			1				0	
6.6.1	win	2023-06-12	20:28:53	20:39:00	603783	60edac884fef13c0b0660daf	4	1	main_slash	11	main_slash	25	stimuli_target_diamondrectangles.svg	stimuli_distractor_diamondtriangles.svg	23	yes	53	1	884	0	0			0	0			1				0	
6.6.1	win	2023-06-12	20:28:53	20:39:00	603783	60edac884fef13c0b0660daf	4	1	main_slash	11	advance_on_keypress_SLASH	26	stimuli_target_diamondrectangles.svg	stimuli_distractor_diamondtriangles.svg	23	yes	57	0	583	0	0			0	0			1				0	
6.6.1	win	2023-06-12	20:28:53	20:39:02	606151	60edac884fef13c0b0660daf	4	1	main_slash	11	main_slash	27	stimuli_distractor_diamondtriangles.svg	stimuli_target_rectangletriangles.svg	13	yes	53	1	1134	0	0			0	0			1				0	
6.6.1	win	2023-06-12	20:28:53	20:39:02	606151	60edac884fef13c0b0660daf	4	1	main_slash	11	advance_on_keypress_SLASH	28	stimuli_distractor_diamondtriangles.svg	stimuli_target_rectangletriangles.svg	13	yes	57	0	558	0	0			0	0			1				0	
6.6.1	win	2023-06-12	20:28:53	20:39:04	608255	60edac884fef13c0b0660daf	4	1	main_slash	11	main_slash	29	stimuli_target_diamondrectangles.svg	stimuli_distractor_trianglediamonds.svg	19	yes	53	1	902	0	0			0	0			1				0	
6.6.1	win	2023-06-12	20:28:53	20:39:04	608255	60edac884fef13c0b0660daf	4	1	main_slash	11	advance_on_keypress_SLASH	30	stimuli_target_diamondrectangles.svg	stimuli_distractor_trianglediamonds.svg	19	yes	57	0	1880	0	0			0	0			1				0	
6.6.1	win	2023-06-12	20:28:53	20:39:08	611999	60edac884fef13c0b0660daf	4	1	main_slash	11	main_slash	31	stimuli_target_squarediamonds.svg	stimuli_distractor_trianglediamonds.svg	4	yes	53	1	1226	0	0			0	0			1				0	
6.6.1	win	2023-06-12	20:28:53	20:39:08	611999	60edac884fef13c0b0660daf	4	1	main_slash	11	advance_on_keypress_SLASH	32	stimuli_target_squarediamonds.svg	stimuli_distractor_trianglediamonds.svg	4	yes	57	0	735	0	0			0	0			1				0	
6.6.1	win	2023-06-12	20:28:53	20:39:10	614119	60edac884fef13c0b0660daf	4	1	main_slash	11	main_slash	33	stimuli_distractor_trianglediamonds.svg	stimuli_target_diamondsquares.svg	28	yes	53	1	743	0	0			0	0			1				0	
6.6.1	win	2023-06-12	20:28:53	20:39:10	614119	60edac884fef13c0b0660daf	4	1	main_slash	11	advance_on_keypress_SLASH	34	stimuli_distractor_trianglediamonds.svg	stimuli_target_diamondsquares.svg	28	yes	57	0	712	0	0			0	0			1				0	
6.6.1	win	2023-06-12	20:28:53	20:39:13	617461	60edac884fef13c0b0660daf	4	1	main_slash	11	main_slash	35	stimuli_distractor_diamondtriangles.svg	stimuli_distractor_diamondtriangles.svg	40	no	0	1	2000	0	0			0	0			1				0	
6.6.1	win	2023-06-12	20:28:53	20:39:13	617461	60edac884fef13c0b0660daf	4	1	main_slash	11	advance_on_keypress_SLASH	36	stimuli_distractor_diamondtriangles.svg	stimuli_distractor_diamondtriangles.svg	40	no	57	0	966	0	0			0	0			1				0	
6.6.1	win	2023-06-12	20:28:53	20:39:16	619887	60edac884fef13c0b0660daf	4	1	main_slash	11	main_slash	37	stimuli_distractor_trianglediamonds.svg	stimuli_target_squaretriangles.svg	11	yes	53	1	805	0	0			0	0			1				0	
6.6.1	win	2023-06-12	20:28:53	20:39:16	619887	60edac884fef13c0b0660daf	4	1	main_slash	11	advance_on_keypress_SLASH	38	stimuli_distractor_trianglediamonds.svg	stimuli_target_squaretriangles.svg	11	yes	57	0	515	0	0			0	0			1				0	
6.6.1	win	2023-06-12	20:28:53	20:39:18	621751	60edac884fef13c0b0660daf	4	1	main_slash	11	main_slash	39	stimuli_target_diamondsquares.svg	stimuli_distractor_trianglediamonds.svg	20	yes	53	1	701	0	0			0	0			1				0	
6.6.1	win	2023-06-12	20:28:53	20:39:18	621751	60edac884fef13c0b0660daf	4	1	main_slash	11	advance_on_keypress_SLASH	40	stimuli_target_diamondsquares.svg	stimuli_distractor_trianglediamonds.svg	20	yes	57	0	719	0	0			0	0			1				0	
6.6.1	win	2023-06-12	20:28:53	20:39:21	625119	60edac884fef13c0b0660daf	4	1	main_slash	11	main_slash	41	stimuli_distractor_trianglediamonds.svg	stimuli_distractor_trianglediamonds.svg	34	no	0	1	2000	0	0			0	0			1				0	
6.6.1	win	2023-06-12	20:28:53	20:39:21	625119	60edac884fef13c0b0660daf	4	1	main_slash	11	advance_on_keypress_SLASH	42	stimuli_distractor_trianglediamonds.svg	stimuli_distractor_trianglediamonds.svg	34	no	57	0	573	0	0			0	0			1				0	
6.6.1	win	2023-06-12	20:28:53	20:39:23	627535	60edac884fef13c0b0660daf	4	1	main_slash	11	main_slash	43	stimuli_distractor_trianglediamonds.svg	stimuli_distractor_diamondtriangles.svg	35	no	53	0	1196	0	0			0	0			1				0	
6.6.1	win	2023-06-12	20:28:53	20:39:23	627535	60edac884fef13c0b0660daf	4	1	main_slash	11	advance_on_keypress_SLASH	44	stimuli_distractor_trianglediamonds.svg	stimuli_distractor_diamondtriangles.svg	35	no	57	0	1090	0	0			0	0			1				0	
6.6.1	win	2023-06-12	20:28:53	20:39:26	630167	60edac884fef13c0b0660daf	4	1	main_slash	11	main_slash	45	stimuli_distractor_diamondtriangles.svg	stimuli_target_rectanglediamonds.svg	14	yes	53	1	909	0	0			0	0			1				0	
6.6.1	win	2023-06-12	20:28:53	20:39:26	630167	60edac884fef13c0b0660daf	4	1	main_slash	11	advance_on_keypress_SLASH	46	stimuli_distractor_diamondtriangles.svg	stimuli_target_rectanglediamonds.svg	14	yes	57	0	1134	0	0			0	0			1				0	
6.6.1	win	2023-06-12	20:28:53	20:39:29	632807	60edac884fef13c0b0660daf	4	1	main_slash	11	main_slash	47	stimuli_distractor_trianglediamonds.svg	stimuli_target_squarediamonds.svg	12	yes	53	1	863	0	0			0	0			1				0	
6.6.1	win	2023-06-12	20:28:53	20:39:29	632807	60edac884fef13c0b0660daf	4	1	main_slash	11	advance_on_keypress_SLASH	48	stimuli_distractor_trianglediamonds.svg	stimuli_target_squarediamonds.svg	12	yes	57	0	650	0	0			0	0			1				0	
6.6.1	win	2023-06-12	20:28:53	20:39:31	635399	60edac884fef13c0b0660daf	4	1	main_slash	11	main_slash	49	stimuli_target_rectanglediamonds.svg	stimuli_distractor_diamondtriangles.svg	6	yes	53	1	1286	0	0			0	0			1				0	
6.6.1	win	2023-06-12	20:28:53	20:39:31	635399	60edac884fef13c0b0660daf	4	1	main_slash	11	advance_on_keypress_SLASH	50	stimuli_target_rectanglediamonds.svg	stimuli_distractor_diamondtriangles.svg	6	yes	57	0	552	0	0			0	0			1				0	
6.6.1	win	2023-06-12	20:28:53	20:39:33	637383	60edac884fef13c0b0660daf	4	1	main_slash	11	main_slash	51	stimuli_distractor_diamondtriangles.svg	stimuli_target_squarediamonds.svg	16	yes	53	1	784	0	0			0	0			1				0	
6.6.1	win	2023-06-12	20:28:53	20:39:33	637383	60edac884fef13c0b0660daf	4	1	main_slash	11	advance_on_keypress_SLASH	52	stimuli_distractor_diamondtriangles.svg	stimuli_target_squarediamonds.svg	16	yes	57	0	430	0	0			0	0			1				0	
6.6.1	win	2023-06-12	20:28:53	20:39:35	639343	60edac884fef13c0b0660daf	4	1	main_slash	11	main_slash	53	stimuli_target_trianglesquares.svg	stimuli_distractor_diamondtriangles.svg	22	yes	53	1	875	0	0			0	0			1				0	
6.6.1	win	2023-06-12	20:28:53	20:39:35	639343	60edac884fef13c0b0660daf	4	1	main_slash	11	advance_on_keypress_SLASH	54	stimuli_target_trianglesquares.svg	stimuli_distractor_diamondtriangles.svg	22	yes	57	0	519	0	0			0	0			1				0	
6.6.1	win	2023-06-12	20:28:53	20:39:37	641495	60edac884fef13c0b0660daf	4	1	main_slash	11	main_slash	55	stimuli_distractor_diamondtriangles.svg	stimuli_target_diamondsquares.svg	32	yes	53	1	992	0	0			0	0			1				0	
6.6.1	win	2023-06-12	20:28:53	20:39:37	641495	60edac884fef13c0b0660daf	4	1	main_slash	11	advance_on_keypress_SLASH	56	stimuli_distractor_diamondtriangles.svg	stimuli_target_diamondsquares.svg	32	yes	57	0	414	0	0			0	0			1				0	
6.6.1	win	2023-06-12	20:28:53	20:39:39	643263	60edac884fef13c0b0660daf	4	1	main_slash	11	main_slash	57	stimuli_distractor_diamondtriangles.svg	stimuli_target_trianglerectangles.svg	29	yes	53	1	708	0	0			0	0			1				0	
6.6.1	win	2023-06-12	20:28:53	20:39:39	643263	60edac884fef13c0b0660daf	4	1	main_slash	11	advance_on_keypress_SLASH	58	stimuli_distractor_diamondtriangles.svg	stimuli_target_trianglerectangles.svg	29	yes	57	0	446	0	0			0	0			1				0	
6.6.1	win	2023-06-12	20:28:53	20:39:41	645023	60edac884fef13c0b0660daf	4	1	main_slash	11	main_slash	59	stimuli_target_trianglesquares.svg	stimuli_distractor_trianglediamonds.svg	18	yes	53	1	666	0	0			0	0			1				0	
6.6.1	win	2023-06-12	20:28:53	20:39:41	645023	60edac884fef13c0b0660daf	4	1	main_slash	11	advance_on_keypress_SLASH	60	stimuli_target_trianglesquares.svg	stimuli_distractor_trianglediamonds.svg	18	yes	57	0	430	0	0			0	0			1				0	
6.6.1	win	2023-06-12	20:28:53	20:39:43	646703	60edac884fef13c0b0660daf	4	1	main_slash	11	main_slash	61	stimuli_distractor_diamondtriangles.svg	stimuli_target_diamondrectangles.svg	31	yes	53	1	594	0	0			0	0			1				0	
6.6.1	win	2023-06-12	20:28:53	20:39:43	646703	60edac884fef13c0b0660daf	4	1	main_slash	11	advance_on_keypress_SLASH	62	stimuli_distractor_diamondtriangles.svg	stimuli_target_diamondrectangles.svg	31	yes	57	0	409	0	0			0	0			1				0	
6.6.1	win	2023-06-12	20:28:53	20:39:44	648223	60edac884fef13c0b0660daf	4	1	main_slash	11	main_slash	63	stimuli_distractor_trianglediamonds.svg	stimuli_target_trianglesquares.svg	26	yes	53	1	480	0	0			0	0			1				0	
6.6.1	win	2023-06-12	20:28:53	20:39:44	648223	60edac884fef13c0b0660daf	4	1	main_slash	11	advance_on_keypress_SLASH	64	stimuli_distractor_trianglediamonds.svg	stimuli_target_trianglesquares.svg	26	yes	57	0	427	0	0			0	0			1				0	
6.6.1	win	2023-06-12	20:28:53	20:39:46	649799	60edac884fef13c0b0660daf	4	1	main_slash	11	main_slash	65	stimuli_target_diamondsquares.svg	stimuli_distractor_diamondtriangles.svg	24	yes	53	1	521	0	0			0	0			1				0	
6.6.1	win	2023-06-12	20:28:53	20:39:46	649799	60edac884fef13c0b0660daf	4	1	main_slash	11	advance_on_keypress_SLASH	66	stimuli_target_diamondsquares.svg	stimuli_distractor_diamondtriangles.svg	24	yes	57	0	362	0	0			0	0			1				0	
6.6.1	win	2023-06-12	20:28:53	20:39:47	651367	60edac884fef13c0b0660daf	4	1	main_slash	11	main_slash	67	stimuli_target_trianglerectangles.svg	stimuli_distractor_diamondtriangles.svg	21	yes	53	1	571	0	0			0	0			1				0	
6.6.1	win	2023-06-12	20:28:53	20:39:47	651367	60edac884fef13c0b0660daf	4	1	main_slash	11	advance_on_keypress_SLASH	68	stimuli_target_trianglerectangles.svg	stimuli_distractor_diamondtriangles.svg	21	yes	57	0	330	0	0			0	0			1				0	
6.6.1	win	2023-06-12	20:28:53	20:39:49	652751	60edac884fef13c0b0660daf	4	1	main_slash	11	main_slash	69	stimuli_distractor_diamondtriangles.svg	stimuli_distractor_trianglediamonds.svg	38	no	53	0	403	0	0			0	0			1				0	
6.6.1	win	2023-06-12	20:28:53	20:39:49	652751	60edac884fef13c0b0660daf	4	1	main_slash	11	advance_on_keypress_SLASH	70	stimuli_distractor_diamondtriangles.svg	stimuli_distractor_trianglediamonds.svg	38	no	57	0	273	0	0			0	0			1				0	
6.6.1	win	2023-06-12	20:28:53	20:39:50	654047	60edac884fef13c0b0660daf	4	1	main_slash	11	main_slash	71	stimuli_distractor_diamondtriangles.svg	stimuli_target_trianglesquares.svg	30	yes	53	1	381	0	0			0	0			1				0	
6.6.1	win	2023-06-12	20:28:53	20:39:50	654047	60edac884fef13c0b0660daf	4	1	main_slash	11	advance_on_keypress_SLASH	72	stimuli_distractor_diamondtriangles.svg	stimuli_target_trianglesquares.svg	30	yes	57	0	292	0	0			0	0			1				0	
6.6.1	win	2023-06-12	20:28:53	20:39:53	656984	60edac884fef13c0b0660daf	4	1	main_slash	11	main_slash	73	stimuli_distractor_trianglediamonds.svg	stimuli_distractor_trianglediamonds.svg	33	no	0	1	2000	0	0			0	0			1				0	
6.6.1	win	2023-06-12	20:28:53	20:39:53	656984	60edac884fef13c0b0660daf	4	1	main_slash	11	advance_on_keypress_SLASH	74	stimuli_distractor_trianglediamonds.svg	stimuli_distractor_trianglediamonds.svg	33	no	57	0	211	0	0			0	0			1				0	
6.6.1	win	2023-06-12	20:28:53	20:39:56	659837	60edac884fef13c0b0660daf	4	1	main_slash	11	main_slash	75	stimuli_distractor_diamondtriangles.svg	stimuli_target_squaretriangles.svg	15	yes	0	0	2000	0	0			0	0			1				0	
6.6.1	win	2023-06-12	20:28:53	20:39:56	659837	60edac884fef13c0b0660daf	4	1	main_slash	11	advance_on_keypress_SLASH	76	stimuli_distractor_diamondtriangles.svg	stimuli_target_squaretriangles.svg	15	yes	57	0	455	0	0			0	0			1				0	
6.6.1	win	2023-06-12	20:28:53	20:39:58	662031	60edac884fef13c0b0660daf	4	1	main_slash	11	main_slash	77	stimuli_target_squarediamonds.svg	stimuli_distractor_diamondtriangles.svg	8	yes	53	1	1091	0	0			0	0			1				0	
6.6.1	win	2023-06-12	20:28:53	20:39:58	662031	60edac884fef13c0b0660daf	4	1	main_slash	11	advance_on_keypress_SLASH	78	stimuli_target_squarediamonds.svg	stimuli_distractor_diamondtriangles.svg	8	yes	57	0	357	0	0			0	0			1				0	
6.6.1	win	2023-06-12	20:28:53	20:39:59	663615	60edac884fef13c0b0660daf	4	1	main_slash	11	main_slash	79	stimuli_target_rectanglediamonds.svg	stimuli_distractor_trianglediamonds.svg	2	yes	53	1	590	0	0			0	0			1				0	
6.6.1	win	2023-06-12	20:28:53	20:39:59	663615	60edac884fef13c0b0660daf	4	1	main_slash	11	advance_on_keypress_SLASH	80	stimuli_target_rectanglediamonds.svg	stimuli_distractor_trianglediamonds.svg	2	yes	57	0	348	0	0			0	0			1				0	
6.6.1	win	2023-06-12	20:28:53	20:40:01	665415	60edac884fef13c0b0660daf	4	1	main_slash	11	main_slash	81	stimuli_target_rectangletriangles.svg	stimuli_distractor_trianglediamonds.svg	1	yes	53	1	805	0	0			0	0			1				0	
6.6.1	win	2023-06-12	20:28:53	20:40:01	665415	60edac884fef13c0b0660daf	4	1	main_slash	11	advance_on_keypress_SLASH	82	stimuli_target_rectangletriangles.svg	stimuli_distractor_trianglediamonds.svg	1	yes	57	0	395	0	0			0	0			1				0	
6.6.1	win	2023-06-12	20:28:53	20:40:03	667023	60edac884fef13c0b0660daf	4	1	main_slash	11	main_slash	83	stimuli_target_rectanglediamonds.svg	stimuli_distractor_trianglediamonds.svg	2	yes	53	1	578	0	0			0	0			1				0	
6.6.1	win	2023-06-12	20:28:53	20:40:03	667023	60edac884fef13c0b0660daf	4	1	main_slash	11	advance_on_keypress_SLASH	84	stimuli_target_rectanglediamonds.svg	stimuli_distractor_trianglediamonds.svg	2	yes	57	0	376	0	0			0	0			1				0	
6.6.1	win	2023-06-12	20:28:53	20:40:05	668775	60edac884fef13c0b0660daf	4	1	main_slash	11	main_slash	85	stimuli_target_trianglesquares.svg	stimuli_distractor_trianglediamonds.svg	18	yes	53	1	728	0	0			0	0			1				0	
6.6.1	win	2023-06-12	20:28:53	20:40:05	668775	60edac884fef13c0b0660daf	4	1	main_slash	11	advance_on_keypress_SLASH	86	stimuli_target_trianglesquares.svg	stimuli_distractor_trianglediamonds.svg	18	yes	57	0	321	0	0			0	0			1				0	
6.6.1	win	2023-06-12	20:28:53	20:40:07	670815	60edac884fef13c0b0660daf	4	1	main_slash	11	main_slash	87	stimuli_distractor_trianglediamonds.svg	stimuli_target_diamondrectangles.svg	27	yes	53	1	1083	0	0			0	0			1				0	
6.6.1	win	2023-06-12	20:28:53	20:40:07	670815	60edac884fef13c0b0660daf	4	1	main_slash	11	advance_on_keypress_SLASH	88	stimuli_distractor_trianglediamonds.svg	stimuli_target_diamondrectangles.svg	27	yes	57	0	406	0	0			0	0			1				0	
6.6.1	win	2023-06-12	20:28:53	20:40:10	673867	60edac884fef13c0b0660daf	4	1	main_slash	11	main_slash	89	stimuli_distractor_diamondtriangles.svg	stimuli_distractor_diamondtriangles.svg	39	no	0	1	2000	0	0			0	0			1				0	
6.6.1	win	2023-06-12	20:28:53	20:40:10	673867	60edac884fef13c0b0660daf	4	1	main_slash	11	advance_on_keypress_SLASH	90	stimuli_distractor_diamondtriangles.svg	stimuli_distractor_diamondtriangles.svg	39	no	57	0	496	0	0			0	0			1				0	
6.6.1	win	2023-06-12	20:28:53	20:40:11	675599	60edac884fef13c0b0660daf	4	1	main_slash	11	main_slash	91	stimuli_target_trianglerectangles.svg	stimuli_distractor_diamondtriangles.svg	21	yes	53	1	578	0	0			0	0			1				0	
6.6.1	win	2023-06-12	20:28:53	20:40:11	675599	60edac884fef13c0b0660daf	4	1	main_slash	11	advance_on_keypress_SLASH	92	stimuli_target_trianglerectangles.svg	stimuli_distractor_diamondtriangles.svg	21	yes	57	0	434	0	0			0	0			1				0	
6.6.1	win	2023-06-12	20:28:53	20:40:13	677239	60edac884fef13c0b0660daf	4	1	main_slash	11	main_slash	93	stimuli_target_diamondsquares.svg	stimuli_distractor_diamondtriangles.svg	24	yes	53	1	566	0	0			0	0			1				0	
6.6.1	win	2023-06-12	20:28:53	20:40:13	677239	60edac884fef13c0b0660daf	4	1	main_slash	11	advance_on_keypress_SLASH	94	stimuli_target_diamondsquares.svg	stimuli_distractor_diamondtriangles.svg	24	yes	57	0	358	0	0			0	0			1				0	
6.6.1	win	2023-06-12	20:28:53	20:40:15	678799	60edac884fef13c0b0660daf	4	1	main_slash	11	main_slash	95	stimuli_distractor_diamondtriangles.svg	stimuli_target_trianglesquares.svg	30	yes	53	1	558	0	0			0	0			1				0	
6.6.1	win	2023-06-12	20:28:53	20:40:15	678799	60edac884fef13c0b0660daf	4	1	main_slash	11	advance_on_keypress_SLASH	96	stimuli_distractor_diamondtriangles.svg	stimuli_target_trianglesquares.svg	30	yes	57	0	406	0	0			0	0			1				0	
6.6.1	win	2023-06-12	20:28:53	20:40:16	680551	60edac884fef13c0b0660daf	4	1	main_slash	11	main_slash	97	stimuli_distractor_trianglediamonds.svg	stimuli_distractor_diamondtriangles.svg	36	no	53	0	709	0	0			0	0			1				0	
6.6.1	win	2023-06-12	20:28:53	20:40:16	680551	60edac884fef13c0b0660daf	4	1	main_slash	11	advance_on_keypress_SLASH	98	stimuli_distractor_trianglediamonds.svg	stimuli_distractor_diamondtriangles.svg	36	no	57	0	343	0	0			0	0			1				0	
6.6.1	win	2023-06-12	20:28:53	20:40:18	682119	60edac884fef13c0b0660daf	4	1	main_slash	11	main_slash	99	stimuli_distractor_diamondtriangles.svg	stimuli_target_trianglerectangles.svg	29	yes	53	1	592	0	0			0	0			1				0	
6.6.1	win	2023-06-12	20:28:53	20:40:18	682119	60edac884fef13c0b0660daf	4	1	main_slash	11	advance_on_keypress_SLASH	100	stimuli_distractor_diamondtriangles.svg	stimuli_target_trianglerectangles.svg	29	yes	57	0	374	0	0			0	0			1				0	
6.6.1	win	2023-06-12	20:28:53	20:40:20	683871	60edac884fef13c0b0660daf	4	1	main_slash	11	main_slash	101	stimuli_target_squaretriangles.svg	stimuli_distractor_trianglediamonds.svg	3	yes	53	1	742	0	0			0	0			1				0	
6.6.1	win	2023-06-12	20:28:53	20:40:20	683871	60edac884fef13c0b0660daf	4	1	main_slash	11	advance_on_keypress_SLASH	102	stimuli_target_squaretriangles.svg	stimuli_distractor_trianglediamonds.svg	3	yes	57	0	407	0	0			0	0			1				0	
6.6.1	win	2023-06-12	20:28:53	20:40:21	685439	60edac884fef13c0b0660daf	4	1	main_slash	11	main_slash	103	stimuli_target_trianglesquares.svg	stimuli_distractor_diamondtriangles.svg	22	yes	53	1	485	0	0			0	0			1				0	
6.6.1	win	2023-06-12	20:28:53	20:40:21	685439	60edac884fef13c0b0660daf	4	1	main_slash	11	advance_on_keypress_SLASH	104	stimuli_target_trianglesquares.svg	stimuli_distractor_diamondtriangles.svg	22	yes	57	0	367	0	0			0	0			1				0	
6.6.1	win	2023-06-12	20:28:53	20:40:23	686903	60edac884fef13c0b0660daf	4	1	main_slash	11	main_slash	105	stimuli_target_diamondsquares.svg	stimuli_distractor_trianglediamonds.svg	20	yes	53	1	454	0	0			0	0			1				0	
6.6.1	win	2023-06-12	20:28:53	20:40:23	686903	60edac884fef13c0b0660daf	4	1	main_slash	11	advance_on_keypress_SLASH	106	stimuli_target_diamondsquares.svg	stimuli_distractor_trianglediamonds.svg	20	yes	57	0	402	0	0			0	0			1				0	
6.6.1	win	2023-06-12	20:28:53	20:40:24	688359	60edac884fef13c0b0660daf	4	1	main_slash	11	main_slash	107	stimuli_distractor_trianglediamonds.svg	stimuli_target_rectangletriangles.svg	9	yes	53	1	409	0	0			0	0			1				0	
6.6.1	win	2023-06-12	20:28:53	20:40:24	688359	60edac884fef13c0b0660daf	4	1	main_slash	11	advance_on_keypress_SLASH	108	stimuli_distractor_trianglediamonds.svg	stimuli_target_rectangletriangles.svg	9	yes	57	0	415	0	0			0	0			1				0	
6.6.1	win	2023-06-12	20:28:53	20:40:27	691418	60edac884fef13c0b0660daf	4	1	main_slash	11	main_slash	109	stimuli_distractor_diamondtriangles.svg	stimuli_distractor_trianglediamonds.svg	38	no	0	1	2000	0	0			0	0			1				0	
6.6.1	win	2023-06-12	20:28:53	20:40:27	691418	60edac884fef13c0b0660daf	4	1	main_slash	11	advance_on_keypress_SLASH	110	stimuli_distractor_diamondtriangles.svg	stimuli_distractor_trianglediamonds.svg	38	no	57	0	441	0	0			0	0			1				0	
6.6.1	win	2023-06-12	20:28:53	20:40:29	693111	60edac884fef13c0b0660daf	4	1	main_slash	11	main_slash	111	stimuli_distractor_diamondtriangles.svg	stimuli_target_diamondrectangles.svg	31	yes	53	1	606	0	0			0	0			1				0	
6.6.1	win	2023-06-12	20:28:53	20:40:29	693111	60edac884fef13c0b0660daf	4	1	main_slash	11	advance_on_keypress_SLASH	112	stimuli_distractor_diamondtriangles.svg	stimuli_target_diamondrectangles.svg	31	yes	57	0	460	0	0			0	0			1				0	
6.6.1	win	2023-06-12	20:28:53	20:40:31	694775	60edac884fef13c0b0660daf	4	1	main_slash	11	main_slash	113	stimuli_target_trianglerectangles.svg	stimuli_distractor_trianglediamonds.svg	17	yes	53	1	568	0	0			0	0			1				0	
6.6.1	win	2023-06-12	20:28:53	20:40:31	694775	60edac884fef13c0b0660daf	4	1	main_slash	11	advance_on_keypress_SLASH	114	stimuli_target_trianglerectangles.svg	stimuli_distractor_trianglediamonds.svg	17	yes	57	0	384	0	0			0	0			1				0	
6.6.1	win	2023-06-12	20:28:53	20:40:32	696343	60edac884fef13c0b0660daf	4	1	main_slash	11	main_slash	115	stimuli_distractor_diamondtriangles.svg	stimuli_target_rectangletriangles.svg	13	yes	53	1	535	0	0			0	0			1				0	
6.6.1	win	2023-06-12	20:28:53	20:40:32	696343	60edac884fef13c0b0660daf	4	1	main_slash	11	advance_on_keypress_SLASH	116	stimuli_distractor_diamondtriangles.svg	stimuli_target_rectangletriangles.svg	13	yes	57	0	336	0	0			0	0			1				0	
6.6.1	win	2023-06-12	20:28:53	20:40:34	697879	60edac884fef13c0b0660daf	4	1	main_slash	11	main_slash	117	stimuli_distractor_trianglediamonds.svg	stimuli_target_trianglerectangles.svg	25	yes	53	1	553	0	0			0	0			1				0	
6.6.1	win	2023-06-12	20:28:53	20:40:34	697879	60edac884fef13c0b0660daf	4	1	main_slash	11	advance_on_keypress_SLASH	118	stimuli_distractor_trianglediamonds.svg	stimuli_target_trianglerectangles.svg	25	yes	57	0	305	0	0			0	0			1				0	
6.6.1	win	2023-06-12	20:28:53	20:40:35	699592	60edac884fef13c0b0660daf	4	1	main_slash	11	main_slash	119	stimuli_distractor_diamondtriangles.svg	stimuli_target_squaretriangles.svg	15	yes	53	1	764	0	0			0	0			1				0	
6.6.1	win	2023-06-12	20:28:53	20:40:35	699592	60edac884fef13c0b0660daf	4	1	main_slash	11	advance_on_keypress_SLASH	120	stimuli_distractor_diamondtriangles.svg	stimuli_target_squaretriangles.svg	15	yes	57	0	346	0	0			0	0			1				0	
6.6.1	win	2023-06-12	20:28:53	20:40:37	701159	60edac884fef13c0b0660daf	4	1	main_slash	11	main_slash	121	stimuli_distractor_trianglediamonds.svg	stimuli_target_rectanglediamonds.svg	10	yes	53	1	563	0	0			0	0			1				0	
6.6.1	win	2023-06-12	20:28:53	20:40:37	701159	60edac884fef13c0b0660daf	4	1	main_slash	11	advance_on_keypress_SLASH	122	stimuli_distractor_trianglediamonds.svg	stimuli_target_rectanglediamonds.svg	10	yes	57	0	276	0	0			0	0			1				0	
6.6.1	win	2023-06-12	20:28:53	20:40:39	703263	60edac884fef13c0b0660daf	4	1	main_slash	11	main_slash	123	stimuli_distractor_trianglediamonds.svg	stimuli_distractor_diamondtriangles.svg	35	no	53	0	1199	0	0			0	0			1				0	
6.6.1	win	2023-06-12	20:28:53	20:40:39	703263	60edac884fef13c0b0660daf	4	1	main_slash	11	advance_on_keypress_SLASH	124	stimuli_distractor_trianglediamonds.svg	stimuli_distractor_diamondtriangles.svg	35	no	57	0	252	0	0			0	0			1				0	
6.6.1	win	2023-06-12	20:28:53	20:40:41	704871	60edac884fef13c0b0660daf	4	1	main_slash	11	main_slash	125	stimuli_target_rectanglediamonds.svg	stimuli_distractor_diamondtriangles.svg	6	yes	53	1	704	0	0			0	0			1				0	
6.6.1	win	2023-06-12	20:28:53	20:40:41	704871	60edac884fef13c0b0660daf	4	1	main_slash	11	advance_on_keypress_SLASH	126	stimuli_target_rectanglediamonds.svg	stimuli_distractor_diamondtriangles.svg	6	yes	57	0	354	0	0			0	0			1				0	
6.6.1	win	2023-06-12	20:28:53	20:40:43	706631	60edac884fef13c0b0660daf	4	1	main_slash	11	main_slash	127	stimuli_distractor_diamondtriangles.svg	stimuli_target_squarediamonds.svg	16	yes	53	1	763	0	0			0	0			1				0	
6.6.1	win	2023-06-12	20:28:53	20:40:43	706631	60edac884fef13c0b0660daf	4	1	main_slash	11	advance_on_keypress_SLASH	128	stimuli_distractor_diamondtriangles.svg	stimuli_target_squarediamonds.svg	16	yes	57	0	355	0	0			0	0			1				0	
6.6.1	win	2023-06-12	20:28:53	20:40:44	708344	60edac884fef13c0b0660daf	4	1	main_slash	11	main_slash	129	stimuli_distractor_diamondtriangles.svg	stimuli_target_diamondsquares.svg	32	yes	53	1	723	0	0			0	0			1				0	
6.6.1	win	2023-06-12	20:28:53	20:40:44	708344	60edac884fef13c0b0660daf	4	1	main_slash	11	advance_on_keypress_SLASH	130	stimuli_distractor_diamondtriangles.svg	stimuli_target_diamondsquares.svg	32	yes	57	0	324	0	0			0	0			1				0	
6.6.1	win	2023-06-12	20:28:53	20:40:47	711305	60edac884fef13c0b0660daf	4	1	main_slash	11	main_slash	131	stimuli_distractor_trianglediamonds.svg	stimuli_distractor_trianglediamonds.svg	33	no	0	1	2000	0	0			0	0			1				0	
6.6.1	win	2023-06-12	20:28:53	20:40:47	711305	60edac884fef13c0b0660daf	4	1	main_slash	11	advance_on_keypress_SLASH	132	stimuli_distractor_trianglediamonds.svg	stimuli_distractor_trianglediamonds.svg	33	no	57	0	1354	0	0			0	0			1				0	
6.6.1	win	2023-06-12	20:28:53	20:40:50	714247	60edac884fef13c0b0660daf	4	1	main_slash	11	main_slash	133	stimuli_target_squarediamonds.svg	stimuli_distractor_diamondtriangles.svg	8	yes	53	1	938	0	0			0	0			1				0	
6.6.1	win	2023-06-12	20:28:53	20:40:50	714247	60edac884fef13c0b0660daf	4	1	main_slash	11	advance_on_keypress_SLASH	134	stimuli_target_squarediamonds.svg	stimuli_distractor_diamondtriangles.svg	8	yes	57	0	47458	0	0			0	0			1				0	
6.6.1	win	2023-06-12	20:28:53	20:41:39	762879	60edac884fef13c0b0660daf	4	1	main_slash	11	main_slash	135	stimuli_distractor_diamondtriangles.svg	stimuli_distractor_trianglediamonds.svg	37	no	53	0	522	0	0			0	0			1				0	
6.6.1	win	2023-06-12	20:28:53	20:41:39	762879	60edac884fef13c0b0660daf	4	1	main_slash	11	advance_on_keypress_SLASH	136	stimuli_distractor_diamondtriangles.svg	stimuli_distractor_trianglediamonds.svg	37	no	57	0	490	0	0			0	0			1				0	
6.6.1	win	2023-06-12	20:28:53	20:41:40	764391	60edac884fef13c0b0660daf	4	1	main_slash	11	main_slash	137	stimuli_distractor_diamondtriangles.svg	stimuli_target_rectanglediamonds.svg	14	yes	53	1	381	0	0			0	0			1				0	
6.6.1	win	2023-06-12	20:28:53	20:41:40	764391	60edac884fef13c0b0660daf	4	1	main_slash	11	advance_on_keypress_SLASH	138	stimuli_distractor_diamondtriangles.svg	stimuli_target_rectanglediamonds.svg	14	yes	57	0	484	0	0			0	0			1				0	
6.6.1	win	2023-06-12	20:28:53	20:41:42	766127	60edac884fef13c0b0660daf	4	1	main_slash	11	main_slash	139	stimuli_distractor_trianglediamonds.svg	stimuli_distractor_trianglediamonds.svg	34	no	53	0	599	0	0			0	0			1				0	
6.6.1	win	2023-06-12	20:28:53	20:41:42	766127	60edac884fef13c0b0660daf	4	1	main_slash	11	advance_on_keypress_SLASH	140	stimuli_distractor_trianglediamonds.svg	stimuli_distractor_trianglediamonds.svg	34	no	57	0	413	0	0			0	0			1				0	
6.6.1	win	2023-06-12	20:28:53	20:41:44	767743	60edac884fef13c0b0660daf	4	1	main_slash	11	main_slash	141	stimuli_target_diamondrectangles.svg	stimuli_distractor_trianglediamonds.svg	19	yes	53	1	547	0	0			0	0			1				0	
6.6.1	win	2023-06-12	20:28:53	20:41:44	767743	60edac884fef13c0b0660daf	4	1	main_slash	11	advance_on_keypress_SLASH	142	stimuli_target_diamondrectangles.svg	stimuli_distractor_trianglediamonds.svg	19	yes	57	0	379	0	0			0	0			1				0	
6.6.1	win	2023-06-12	20:28:53	20:41:45	769191	60edac884fef13c0b0660daf	4	1	main_slash	11	main_slash	143	stimuli_distractor_trianglediamonds.svg	stimuli_target_squarediamonds.svg	12	yes	53	1	410	0	0			0	0			1				0	
6.6.1	win	2023-06-12	20:28:53	20:41:45	769191	60edac884fef13c0b0660daf	4	1	main_slash	11	advance_on_keypress_SLASH	144	stimuli_distractor_trianglediamonds.svg	stimuli_target_squarediamonds.svg	12	yes	57	0	425	0	0			0	0			1				0	
6.6.1	win	2023-06-12	20:28:53	20:41:47	770711	60edac884fef13c0b0660daf	4	1	main_slash	11	main_slash	145	stimuli_target_squaretriangles.svg	stimuli_distractor_diamondtriangles.svg	7	yes	53	1	462	0	0			0	0			1				0	
6.6.1	win	2023-06-12	20:28:53	20:41:47	770711	60edac884fef13c0b0660daf	4	1	main_slash	11	advance_on_keypress_SLASH	146	stimuli_target_squaretriangles.svg	stimuli_distractor_diamondtriangles.svg	7	yes	57	0	458	0	0			0	0			1				0	
6.6.1	win	2023-06-12	20:28:53	20:41:48	772328	60edac884fef13c0b0660daf	4	1	main_slash	11	main_slash	147	stimuli_target_squarediamonds.svg	stimuli_distractor_trianglediamonds.svg	4	yes	53	1	526	0	0			0	0			1				0	
6.6.1	win	2023-06-12	20:28:53	20:41:48	772328	60edac884fef13c0b0660daf	4	1	main_slash	11	advance_on_keypress_SLASH	148	stimuli_target_squarediamonds.svg	stimuli_distractor_trianglediamonds.svg	4	yes	57	0	359	0	0			0	0			1				0	
6.6.1	win	2023-06-12	20:28:53	20:41:50	773775	60edac884fef13c0b0660daf	4	1	main_slash	11	main_slash	149	stimuli_distractor_trianglediamonds.svg	stimuli_target_squaretriangles.svg	11	yes	53	1	423	0	0			0	0			1				0	
6.6.1	win	2023-06-12	20:28:53	20:41:50	773775	60edac884fef13c0b0660daf	4	1	main_slash	11	advance_on_keypress_SLASH	150	stimuli_distractor_trianglediamonds.svg	stimuli_target_squaretriangles.svg	11	yes	57	0	404	0	0			0	0			1				0	
6.6.1	win	2023-06-12	20:28:53	20:41:51	775223	60edac884fef13c0b0660daf	4	1	main_slash	11	main_slash	151	stimuli_distractor_trianglediamonds.svg	stimuli_target_trianglesquares.svg	26	yes	53	1	402	0	0			0	0			1				0	
6.6.1	win	2023-06-12	20:28:53	20:41:51	775223	60edac884fef13c0b0660daf	4	1	main_slash	11	advance_on_keypress_SLASH	152	stimuli_distractor_trianglediamonds.svg	stimuli_target_trianglesquares.svg	26	yes	57	0	449	0	0			0	0			1				0	
6.6.1	win	2023-06-12	20:28:53	20:41:53	776775	60edac884fef13c0b0660daf	4	1	main_slash	11	main_slash	153	stimuli_target_diamondrectangles.svg	stimuli_distractor_diamondtriangles.svg	23	yes	53	1	453	0	0			0	0			1				0	
6.6.1	win	2023-06-12	20:28:53	20:41:53	776775	60edac884fef13c0b0660daf	4	1	main_slash	11	advance_on_keypress_SLASH	154	stimuli_target_diamondrectangles.svg	stimuli_distractor_diamondtriangles.svg	23	yes	57	0	610	0	0			0	0			1				0	
6.6.1	win	2023-06-12	20:28:53	20:41:54	778463	60edac884fef13c0b0660daf	4	1	main_slash	11	main_slash	155	stimuli_target_rectangletriangles.svg	stimuli_distractor_diamondtriangles.svg	5	yes	53	1	439	0	0			0	0			1				0	
6.6.1	win	2023-06-12	20:28:53	20:41:54	778463	60edac884fef13c0b0660daf	4	1	main_slash	11	advance_on_keypress_SLASH	156	stimuli_target_rectangletriangles.svg	stimuli_distractor_diamondtriangles.svg	5	yes	57	0	373	0	0			0	0			1				0	
6.6.1	win	2023-06-12	20:28:53	20:41:56	779935	60edac884fef13c0b0660daf	4	1	main_slash	11	main_slash	157	stimuli_distractor_trianglediamonds.svg	stimuli_target_diamondsquares.svg	28	yes	53	1	460	0	0			0	0			1				0	
6.6.1	win	2023-06-12	20:28:53	20:41:56	779935	60edac884fef13c0b0660daf	4	1	main_slash	11	advance_on_keypress_SLASH	158	stimuli_distractor_trianglediamonds.svg	stimuli_target_diamondsquares.svg	28	yes	57	0	464	0	0			0	0			1				0	
6.6.1	win	2023-06-12	20:28:53	20:41:57	781487	60edac884fef13c0b0660daf	4	1	main_slash	11	main_slash	159	stimuli_distractor_diamondtriangles.svg	stimuli_distractor_diamondtriangles.svg	40	no	53	0	444	0	0			0	0			1				0	
6.6.1	win	2023-06-12	20:28:53	20:41:57	781487	60edac884fef13c0b0660daf	4	1	main_slash	11	advance_on_keypress_SLASH	160	stimuli_distractor_diamondtriangles.svg	stimuli_distractor_diamondtriangles.svg	40	no	57	0	464	0	0			0	0			1				0	
6.6.1	win	2023-06-12	20:28:53	20:41:57	781487	60edac884fef13c0b0660daf	4	1	headphonecheck_calibration	14	headphonecheck_calibrationIntro	1	stimuli_distractor_diamondtriangles.svg	stimuli_distractor_diamondtriangles.svg	40	no	calibrationButton	0	3622	0	0			0	0			1				0	
6.6.1	win	2023-06-12	20:28:53	20:41:57	781487	60edac884fef13c0b0660daf	4	1	headphonecheck_testphase	15	test_collectResponse	3	stimuli_distractor_diamondtriangles.svg	stimuli_distractor_diamondtriangles.svg	40	no	first	0	463	1	6	antiphase_hc_ois.wav	3	0	0			1				0	
6.6.1	win	2023-06-12	20:28:53	20:41:57	781487	60edac884fef13c0b0660daf	4	1	headphonecheck_testphase	15	test_collectResponse	6	stimuli_distractor_diamondtriangles.svg	stimuli_distractor_diamondtriangles.svg	40	no	second	0	281	2	3	antiphase_hc_soi.wav	1	0	0			1				0	
6.6.1	win	2023-06-12	20:28:53	20:41:57	781487	60edac884fef13c0b0660daf	4	1	headphonecheck_testphase	15	test_collectResponse	9	stimuli_distractor_diamondtriangles.svg	stimuli_distractor_diamondtriangles.svg	40	no	second	0	223	3	2	antiphase_hc_ios.wav	3	0	0			1				0	
6.6.1	win	2023-06-12	20:28:53	20:41:57	781487	60edac884fef13c0b0660daf	4	1	headphonecheck_testphase	15	test_collectResponse	12	stimuli_distractor_diamondtriangles.svg	stimuli_distractor_diamondtriangles.svg	40	no	third	0	222	4	1	antiphase_hc_iso.wav	2	0	0			1				0	
6.6.1	win	2023-06-12	20:28:53	20:41:57	781487	60edac884fef13c0b0660daf	4	1	headphonecheck_testphase	15	test_collectResponse	15	stimuli_distractor_diamondtriangles.svg	stimuli_distractor_diamondtriangles.svg	40	no	first	0	45	5	5	antiphase_hc_osi.wav	2	0	0			1				0	
6.6.1	win	2023-06-12	20:28:53	20:41:57	781487	60edac884fef13c0b0660daf	4	1	headphonecheck_testphase	15	test_collectResponse	18	stimuli_distractor_diamondtriangles.svg	stimuli_distractor_diamondtriangles.svg	40	no	first	1	7268	6	4	antiphase_hc_sio.wav	1	0	0			1				0	
6.6.1	win	2023-06-12	20:28:53	20:41:57	781487	60edac884fef13c0b0660daf	4	1	stereocheck_calibration	17	stereocheck_calibrationIntro	1	stimuli_distractor_diamondtriangles.svg	stimuli_distractor_diamondtriangles.svg	40	no	stereocheck_calibrationButton	0	4148	6	4	antiphase_hc_sio.wav	1	0	0			1				0	
6.6.1	win	2023-06-12	20:28:53	20:41:57	781487	60edac884fef13c0b0660daf	4	1	stereocheck_testphase	18	stereocheck_test_collectResponse	3	stimuli_distractor_diamondtriangles.svg	stimuli_distractor_diamondtriangles.svg	40	no	stereocheck_left	1	430	6	4	antiphase_hc_sio.wav	1	1	2	noise_calib_stim_LEFT.wav	1	1				0	
6.6.1	win	2023-06-12	20:28:53	20:41:57	781487	60edac884fef13c0b0660daf	4	1	stereocheck_testphase	18	stereocheck_test_collectResponse	6	stimuli_distractor_diamondtriangles.svg	stimuli_distractor_diamondtriangles.svg	40	no	stereocheck_right	1	355	6	4	antiphase_hc_sio.wav	1	2	4	noise_calib_stim_RIGHT.wav	2	1				0	
6.6.1	win	2023-06-12	20:28:53	20:41:57	781487	60edac884fef13c0b0660daf	4	1	stereocheck_testphase	18	stereocheck_test_collectResponse	9	stimuli_distractor_diamondtriangles.svg	stimuli_distractor_diamondtriangles.svg	40	no	stereocheck_left	1	269	6	4	antiphase_hc_sio.wav	1	3	3	noise_calib_stim_LEFT.wav	1	1				0	
6.6.1	win	2023-06-12	20:28:53	20:41:57	781487	60edac884fef13c0b0660daf	4	1	stereocheck_testphase	18	stereocheck_test_collectResponse	12	stimuli_distractor_diamondtriangles.svg	stimuli_distractor_diamondtriangles.svg	40	no	stereocheck_right	1	137	6	4	antiphase_hc_sio.wav	1	4	5	noise_calib_stim_RIGHT.wav	2	1				0	
6.6.1	win	2023-06-12	20:28:53	20:41:57	781487	60edac884fef13c0b0660daf	4	1	stereocheck_testphase	18	stereocheck_test_collectResponse	15	stimuli_distractor_diamondtriangles.svg	stimuli_distractor_diamondtriangles.svg	40	no	stereocheck_right	0	2628	6	4	antiphase_hc_sio.wav	1	5	1	noise_calib_stim_LEFT.wav	1	1				0	
6.6.1	win	2023-06-12	20:28:53	20:41:57	781487	60edac884fef13c0b0660daf	4	1	stereocheck_testphase	18	stereocheck_test_collectResponse	18	stimuli_distractor_diamondtriangles.svg	stimuli_distractor_diamondtriangles.svg	40	no	stereocheck_right	1	482	6	4	antiphase_hc_sio.wav	1	6	6	noise_calib_stim_RIGHT.wav	2	1				0	
6.6.1	win	2023-06-12	20:28:53	20:41:57	781487	60edac884fef13c0b0660daf	4	1	DL_practice	21	DL_practice	2	stimuli_distractor_diamondtriangles.svg	stimuli_distractor_diamondtriangles.svg	40	no	ka	1	1396	6	4	antiphase_hc_sio.wav	1	6	6	noise_calib_stim_RIGHT.wav	2	23	blb_dichoticlistening_ka-pa.mp3	ka	pa	1	left
6.6.1	win	2023-06-12	20:28:53	20:41:57	781487	60edac884fef13c0b0660daf	4	1	DL_practice	21	DL_practice	3	stimuli_distractor_diamondtriangles.svg	stimuli_distractor_diamondtriangles.svg	40	no	ba	1	1284	6	4	antiphase_hc_sio.wav	1	6	6	noise_calib_stim_RIGHT.wav	2	7	blb_dichoticlistening_da-ba.mp3	da	ba	1	right
6.6.1	win	2023-06-12	20:28:53	20:41:57	781487	60edac884fef13c0b0660daf	4	1	DL_practice	21	DL_practice	4	stimuli_distractor_diamondtriangles.svg	stimuli_distractor_diamondtriangles.svg	40	no	ta	1	1189	6	4	antiphase_hc_sio.wav	1	6	6	noise_calib_stim_RIGHT.wav	2	36	blb_dichoticlistening_ta-ta.mp3	ta	ta	0	left
6.6.1	win	2023-06-12	20:28:53	20:41:57	781487	60edac884fef13c0b0660daf	4	1	DL_practice	21	DL_practice	5	stimuli_distractor_diamondtriangles.svg	stimuli_distractor_diamondtriangles.svg	40	no	ga	1	1271	6	4	antiphase_hc_sio.wav	1	6	6	noise_calib_stim_RIGHT.wav	2	15	blb_dichoticlistening_ga-ga.mp3	ga	ga	0	left
6.6.1	win	2023-06-12	20:28:53	20:41:57	781487	60edac884fef13c0b0660daf	4	1	DL_practice	21	DL_practice	6	stimuli_distractor_diamondtriangles.svg	stimuli_distractor_diamondtriangles.svg	40	no	ba	1	1327	6	4	antiphase_hc_sio.wav	1	6	6	noise_calib_stim_RIGHT.wav	2	1	blb_dichoticlistening_ba-ba.mp3	ba	ba	0	left
6.6.1	win	2023-06-12	20:28:53	20:41:57	781487	60edac884fef13c0b0660daf	4	1	DL_practice	21	DL_practice	7	stimuli_distractor_diamondtriangles.svg	stimuli_distractor_diamondtriangles.svg	40	no	da	1	826	6	4	antiphase_hc_sio.wav	1	6	6	noise_calib_stim_RIGHT.wav	2	8	blb_dichoticlistening_da-da.mp3	da	da	0	left
6.6.1	win	2023-06-12	20:28:53	20:41:57	781487	60edac884fef13c0b0660daf	4	1	DL_practice	21	DL_practice	8	stimuli_distractor_diamondtriangles.svg	stimuli_distractor_diamondtriangles.svg	40	no	ga	1	870	6	4	antiphase_hc_sio.wav	1	6	6	noise_calib_stim_RIGHT.wav	2	18	blb_dichoticlistening_ga-ta.mp3	ga	ta	1	left
6.6.1	win	2023-06-12	20:28:53	20:41:57	781487	60edac884fef13c0b0660daf	4	1	DL_practice	21	DL_practice	9	stimuli_distractor_diamondtriangles.svg	stimuli_distractor_diamondtriangles.svg	40	no	ka	1	771	6	4	antiphase_hc_sio.wav	1	6	6	noise_calib_stim_RIGHT.wav	2	22	blb_dichoticlistening_ka-ka.mp3	ka	ka	0	left
6.6.1	win	2023-06-12	20:28:53	20:41:57	781487	60edac884fef13c0b0660daf	4	1	DL_practice	21	DL_practice	10	stimuli_distractor_diamondtriangles.svg	stimuli_distractor_diamondtriangles.svg	40	no	pa	1	752	6	4	antiphase_hc_sio.wav	1	6	6	noise_calib_stim_RIGHT.wav	2	29	blb_dichoticlistening_pa-pa.mp3	pa	pa	0	left
6.6.1	win	2023-06-12	20:28:53	20:41:57	781487	60edac884fef13c0b0660daf	4	1	DL_test	23	DL_test	1	stimuli_distractor_diamondtriangles.svg	stimuli_distractor_diamondtriangles.svg	40	no	ba	1	1298	6	4	antiphase_hc_sio.wav	1	6	6	noise_calib_stim_RIGHT.wav	2	31	blb_dichoticlistening_ta-ba.mp3	ta	ba	1	right
6.6.1	win	2023-06-12	20:28:53	20:41:57	781487	60edac884fef13c0b0660daf	4	1	DL_test	23	DL_test	2	stimuli_distractor_diamondtriangles.svg	stimuli_distractor_diamondtriangles.svg	40	no	da	1	738	6	4	antiphase_hc_sio.wav	1	6	6	noise_calib_stim_RIGHT.wav	2	12	blb_dichoticlistening_da-ta.mp3	da	ta	1	left
6.6.1	win	2023-06-12	20:28:53	20:41:57	781487	60edac884fef13c0b0660daf	4	1	DL_test	23	DL_test	3	stimuli_distractor_diamondtriangles.svg	stimuli_distractor_diamondtriangles.svg	40	no	ka	1	854	6	4	antiphase_hc_sio.wav	1	6	6	noise_calib_stim_RIGHT.wav	2	23	blb_dichoticlistening_ka-pa.mp3	ka	pa	1	left
6.6.1	win	2023-06-12	20:28:53	20:41:57	781487	60edac884fef13c0b0660daf	4	1	DL_test	23	DL_test	4	stimuli_distractor_diamondtriangles.svg	stimuli_distractor_diamondtriangles.svg	40	no	ga	1	1045	6	4	antiphase_hc_sio.wav	1	6	6	noise_calib_stim_RIGHT.wav	2	9	blb_dichoticlistening_da-ga.mp3	da	ga	1	right
6.6.1	win	2023-06-12	20:28:53	20:41:57	781487	60edac884fef13c0b0660daf	4	1	DL_test	23	DL_test	5	stimuli_distractor_diamondtriangles.svg	stimuli_distractor_diamondtriangles.svg	40	no	ba	1	1150	6	4	antiphase_hc_sio.wav	1	6	6	noise_calib_stim_RIGHT.wav	2	7	blb_dichoticlistening_da-ba.mp3	da	ba	1	right
6.6.1	win	2023-06-12	20:28:53	20:41:57	781487	60edac884fef13c0b0660daf	4	1	DL_test	23	DL_test	6	stimuli_distractor_diamondtriangles.svg	stimuli_distractor_diamondtriangles.svg	40	no	ta	1	1216	6	4	antiphase_hc_sio.wav	1	6	6	noise_calib_stim_RIGHT.wav	2	36	blb_dichoticlistening_ta-ta.mp3	ta	ta	0	left
6.6.1	win	2023-06-12	20:28:53	20:41:57	781487	60edac884fef13c0b0660daf	4	1	DL_test	23	DL_test	7	stimuli_distractor_diamondtriangles.svg	stimuli_distractor_diamondtriangles.svg	40	no	ba	1	1182	6	4	antiphase_hc_sio.wav	1	6	6	noise_calib_stim_RIGHT.wav	2	13	blb_dichoticlistening_ga-ba.mp3	ga	ba	1	right
6.6.1	win	2023-06-12	20:28:53	20:41:57	781487	60edac884fef13c0b0660daf	4	1	DL_test	23	DL_test	8	stimuli_distractor_diamondtriangles.svg	stimuli_distractor_diamondtriangles.svg	40	no	ka	1	1243	6	4	antiphase_hc_sio.wav	1	6	6	noise_calib_stim_RIGHT.wav	2	28	blb_dichoticlistening_pa-ka.mp3	pa	ka	1	right
6.6.1	win	2023-06-12	20:28:53	20:41:57	781487	60edac884fef13c0b0660daf	4	1	DL_test	23	DL_test	9	stimuli_distractor_diamondtriangles.svg	stimuli_distractor_diamondtriangles.svg	40	no	pa	1	1315	6	4	antiphase_hc_sio.wav	1	6	6	noise_calib_stim_RIGHT.wav	2	29	blb_dichoticlistening_pa-pa.mp3	pa	pa	0	left
6.6.1	win	2023-06-12	20:28:53	20:41:57	781487	60edac884fef13c0b0660daf	4	1	DL_test	23	DL_test	10	stimuli_distractor_diamondtriangles.svg	stimuli_distractor_diamondtriangles.svg	40	no	ba	1	1092	6	4	antiphase_hc_sio.wav	1	6	6	noise_calib_stim_RIGHT.wav	2	19	blb_dichoticlistening_ka-ba.mp3	ka	ba	1	right
6.6.1	win	2023-06-12	20:28:53	20:41:57	781487	60edac884fef13c0b0660daf	4	1	DL_test	23	DL_test	11	stimuli_distractor_diamondtriangles.svg	stimuli_distractor_diamondtriangles.svg	40	no	ba	1	819	6	4	antiphase_hc_sio.wav	1	6	6	noise_calib_stim_RIGHT.wav	2	2	blb_dichoticlistening_ba-da.mp3	ba	da	1	left
6.6.1	win	2023-06-12	20:28:53	20:41:57	781487	60edac884fef13c0b0660daf	4	1	DL_test	23	DL_test	12	stimuli_distractor_diamondtriangles.svg	stimuli_distractor_diamondtriangles.svg	40	no	ba	1	839	6	4	antiphase_hc_sio.wav	1	6	6	noise_calib_stim_RIGHT.wav	2	1	blb_dichoticlistening_ba-ba.mp3	ba	ba	0	left
6.6.1	win	2023-06-12	20:28:53	20:41:57	781487	60edac884fef13c0b0660daf	4	1	DL_test	23	DL_test	13	stimuli_distractor_diamondtriangles.svg	stimuli_distractor_diamondtriangles.svg	40	no	ga	1	913	6	4	antiphase_hc_sio.wav	1	6	6	noise_calib_stim_RIGHT.wav	2	16	blb_dichoticlistening_ga-ka.mp3	ga	ka	1	left
6.6.1	win	2023-06-12	20:28:53	20:41:57	781487	60edac884fef13c0b0660daf	4	1	DL_test	23	DL_test	14	stimuli_distractor_diamondtriangles.svg	stimuli_distractor_diamondtriangles.svg	40	no	da	1	953	6	4	antiphase_hc_sio.wav	1	6	6	noise_calib_stim_RIGHT.wav	2	11	blb_dichoticlistening_da-pa.mp3	da	pa	1	left
6.6.1	win	2023-06-12	20:28:53	20:41:57	781487	60edac884fef13c0b0660daf	4	1	DL_test	23	DL_test	15	stimuli_distractor_diamondtriangles.svg	stimuli_distractor_diamondtriangles.svg	40	no	ga	1	702	6	4	antiphase_hc_sio.wav	1	6	6	noise_calib_stim_RIGHT.wav	2	33	blb_dichoticlistening_ta-ga.mp3	ta	ga	1	right
6.6.1	win	2023-06-12	20:28:53	20:41:57	781487	60edac884fef13c0b0660daf	4	1	DL_test	23	DL_test	16	stimuli_distractor_diamondtriangles.svg	stimuli_distractor_diamondtriangles.svg	40	no	da	1	1739	6	4	antiphase_hc_sio.wav	1	6	6	noise_calib_stim_RIGHT.wav	2	10	blb_dichoticlistening_da-ka.mp3	da	ka	1	left
6.6.1	win	2023-06-12	20:28:53	20:41:57	781487	60edac884fef13c0b0660daf	4	1	DL_test	23	DL_test	17	stimuli_distractor_diamondtriangles.svg	stimuli_distractor_diamondtriangles.svg	40	no	ga	1	773	6	4	antiphase_hc_sio.wav	1	6	6	noise_calib_stim_RIGHT.wav	2	14	blb_dichoticlistening_ga-da.mp3	ga	da	1	left
6.6.1	win	2023-06-12	20:28:53	20:41:57	781487	60edac884fef13c0b0660daf	4	1	DL_test	23	DL_test	18	stimuli_distractor_diamondtriangles.svg	stimuli_distractor_diamondtriangles.svg	40	no	ba	1	995	6	4	antiphase_hc_sio.wav	1	6	6	noise_calib_stim_RIGHT.wav	2	3	blb_dichoticlistening_ba-ga.mp3	ba	ga	1	left
6.6.1	win	2023-06-12	20:28:53	20:41:57	781487	60edac884fef13c0b0660daf	4	1	DL_test	23	DL_test	19	stimuli_distractor_diamondtriangles.svg	stimuli_distractor_diamondtriangles.svg	40	no	ga	1	895	6	4	antiphase_hc_sio.wav	1	6	6	noise_calib_stim_RIGHT.wav	2	18	blb_dichoticlistening_ga-ta.mp3	ga	ta	1	left
6.6.1	win	2023-06-12	20:28:53	20:41:57	781487	60edac884fef13c0b0660daf	4	1	DL_test	23	DL_test	20	stimuli_distractor_diamondtriangles.svg	stimuli_distractor_diamondtriangles.svg	40	no	ga	1	724	6	4	antiphase_hc_sio.wav	1	6	6	noise_calib_stim_RIGHT.wav	2	17	blb_dichoticlistening_ga-pa.mp3	ga	pa	1	left
6.6.1	win	2023-06-12	20:28:53	20:41:57	781487	60edac884fef13c0b0660daf	4	1	DL_test	23	DL_test	21	stimuli_distractor_diamondtriangles.svg	stimuli_distractor_diamondtriangles.svg	40	no	da	1	856	6	4	antiphase_hc_sio.wav	1	6	6	noise_calib_stim_RIGHT.wav	2	32	blb_dichoticlistening_ta-da.mp3	ta	da	1	right
6.6.1	win	2023-06-12	20:28:53	20:41:57	781487	60edac884fef13c0b0660daf	4	1	DL_test	23	DL_test	22	stimuli_distractor_diamondtriangles.svg	stimuli_distractor_diamondtriangles.svg	40	no	ka	1	707	6	4	antiphase_hc_sio.wav	1	6	6	noise_calib_stim_RIGHT.wav	2	24	blb_dichoticlistening_ka-ta.mp3	ka	ta	1	left
6.6.1	win	2023-06-12	20:28:53	20:41:57	781487	60edac884fef13c0b0660daf	4	1	DL_test	23	DL_test	23	stimuli_distractor_diamondtriangles.svg	stimuli_distractor_diamondtriangles.svg	40	no	ga	1	776	6	4	antiphase_hc_sio.wav	1	6	6	noise_calib_stim_RIGHT.wav	2	21	blb_dichoticlistening_ka-ga.mp3	ka	ga	1	right
6.6.1	win	2023-06-12	20:28:53	20:41:57	781487	60edac884fef13c0b0660daf	4	1	DL_test	23	DL_test	24	stimuli_distractor_diamondtriangles.svg	stimuli_distractor_diamondtriangles.svg	40	no	pa	0	1201	6	4	antiphase_hc_sio.wav	1	6	6	noise_calib_stim_RIGHT.wav	2	4	blb_dichoticlistening_ba-ka.mp3	ba	ka	1	other
6.6.1	win	2023-06-12	20:28:53	20:41:57	781487	60edac884fef13c0b0660daf	4	1	DL_test	23	DL_test	25	stimuli_distractor_diamondtriangles.svg	stimuli_distractor_diamondtriangles.svg	40	no	ga	0	814	6	4	antiphase_hc_sio.wav	1	6	6	noise_calib_stim_RIGHT.wav	2	20	blb_dichoticlistening_ka-da.mp3	ka	da	1	other
