build	computer.platform	date	time	timestamp	time_elapsed_ms	subject	group	session	blockcode	blocknum	trialcode	trialnum	stimulus_left	stimulus_right	stim_index	target_present	response	correct	latency	headphonecheck_countTestTrials	headphonecheck_index	headphonecheck_testSound	headphonecheck_correctResponse	stereocheck_countTestTrials	stereocheck_index	stereocheck_testSound	stereocheck_correctResponse	DL_index	DL_soundfile	DL_leftSound	DL_rightSound	DL_dualSound	DL_choice
6.6.1	win	2023-07-15	20:29:28	20:32:21	169604	60e9cbd27102b08fc616fbe6	3	1	practice_slash	5	practice_slash	1	stimuli_distractor_diamondtriangles.svg	stimuli_target_trianglerectangles.svg	9	yes	0	0	2000	0	0			0	0			1				0	
6.6.1	win	2023-07-15	20:29:28	20:32:21	169604	60e9cbd27102b08fc616fbe6	3	1	practice_slash	5	advance_on_keypress_SLASH	2	stimuli_distractor_diamondtriangles.svg	stimuli_target_trianglerectangles.svg	9	yes	57	0	1650	0	0			0	0			1				0	
6.6.1	win	2023-07-15	20:29:28	20:32:25	174189	60e9cbd27102b08fc616fbe6	3	1	practice_slash	5	practice_slash	3	stimuli_distractor_diamondtriangles.svg	stimuli_target_diamondrectangles.svg	8	yes	53	1	1183	0	0			0	0			1				0	
6.6.1	win	2023-07-15	20:29:28	20:32:25	174189	60e9cbd27102b08fc616fbe6	3	1	practice_slash	5	advance_on_keypress_SLASH	4	stimuli_distractor_diamondtriangles.svg	stimuli_target_diamondrectangles.svg	8	yes	57	0	793	0	0			0	0			1				0	
6.6.1	win	2023-07-15	20:29:28	20:32:29	177628	60e9cbd27102b08fc616fbe6	3	1	practice_slash	5	practice_slash	5	stimuli_distractor_trianglediamonds.svg	stimuli_target_rectanglediamonds.svg	10	yes	53	1	959	0	0			0	0			1				0	
6.6.1	win	2023-07-15	20:29:28	20:32:29	177628	60e9cbd27102b08fc616fbe6	3	1	practice_slash	5	advance_on_keypress_SLASH	6	stimuli_distractor_trianglediamonds.svg	stimuli_target_rectanglediamonds.svg	10	yes	57	0	799	0	0			0	0			1				0	
6.6.1	win	2023-07-15	20:29:28	20:32:33	182103	60e9cbd27102b08fc616fbe6	3	1	practice_slash	5	practice_slash	7	stimuli_target_diamondsquares.svg	stimuli_distractor_trianglediamonds.svg	6	yes	0	0	2000	0	0			0	0			1				0	
6.6.1	win	2023-07-15	20:29:28	20:32:33	182103	60e9cbd27102b08fc616fbe6	3	1	practice_slash	5	advance_on_keypress_SLASH	8	stimuli_target_diamondsquares.svg	stimuli_distractor_trianglediamonds.svg	6	yes	57	0	1377	0	0			0	0			1				0	
6.6.1	win	2023-07-15	20:29:28	20:32:37	185991	60e9cbd27102b08fc616fbe6	3	1	practice_slash	5	practice_slash	9	stimuli_target_rectanglediamonds.svg	stimuli_distractor_trianglediamonds.svg	4	yes	53	1	900	0	0			0	0			1				0	
6.6.1	win	2023-07-15	20:29:28	20:32:37	185991	60e9cbd27102b08fc616fbe6	3	1	practice_slash	5	advance_on_keypress_SLASH	10	stimuli_target_rectanglediamonds.svg	stimuli_distractor_trianglediamonds.svg	4	yes	57	0	730	0	0			0	0			1				0	
6.6.1	win	2023-07-15	20:29:28	20:32:40	189068	60e9cbd27102b08fc616fbe6	3	1	practice_slash	5	practice_slash	11	stimuli_distractor_trianglediamonds.svg	stimuli_target_squarediamonds.svg	11	yes	53	1	657	0	0			0	0			1				0	
6.6.1	win	2023-07-15	20:29:28	20:32:40	189068	60e9cbd27102b08fc616fbe6	3	1	practice_slash	5	advance_on_keypress_SLASH	12	stimuli_distractor_trianglediamonds.svg	stimuli_target_squarediamonds.svg	11	yes	57	0	468	0	0			0	0			1				0	
6.6.1	win	2023-07-15	20:29:28	20:32:43	191797	60e9cbd27102b08fc616fbe6	3	1	practice_slash	5	practice_slash	13	stimuli_target_squarediamonds.svg	stimuli_distractor_trianglediamonds.svg	5	yes	53	1	577	0	0			0	0			1				0	
6.6.1	win	2023-07-15	20:29:28	20:32:43	191797	60e9cbd27102b08fc616fbe6	3	1	practice_slash	5	advance_on_keypress_SLASH	14	stimuli_target_squarediamonds.svg	stimuli_distractor_trianglediamonds.svg	5	yes	57	0	464	0	0			0	0			1				0	
6.6.1	win	2023-07-15	20:29:28	20:32:47	195949	60e9cbd27102b08fc616fbe6	3	1	practice_slash	5	practice_slash	15	stimuli_target_diamondsquares.svg	stimuli_distractor_diamondtriangles.svg	3	yes	0	0	2000	0	0			0	0			1				0	
6.6.1	win	2023-07-15	20:29:28	20:32:47	195949	60e9cbd27102b08fc616fbe6	3	1	practice_slash	5	advance_on_keypress_SLASH	16	stimuli_target_diamondsquares.svg	stimuli_distractor_diamondtriangles.svg	3	yes	57	0	596	0	0			0	0			1				0	
6.6.1	win	2023-07-15	20:29:28	20:32:50	199304	60e9cbd27102b08fc616fbe6	3	1	practice_slash	5	practice_slash	17	stimuli_distractor_trianglediamonds.svg	stimuli_target_diamondrectangles.svg	12	yes	53	1	1066	0	0			0	0			1				0	
6.6.1	win	2023-07-15	20:29:28	20:32:50	199304	60e9cbd27102b08fc616fbe6	3	1	practice_slash	5	advance_on_keypress_SLASH	18	stimuli_distractor_trianglediamonds.svg	stimuli_target_diamondrectangles.svg	12	yes	57	0	460	0	0			0	0			1				0	
6.6.1	win	2023-07-15	20:29:28	20:32:53	202296	60e9cbd27102b08fc616fbe6	3	1	practice_slash	5	practice_slash	19	stimuli_target_rectanglediamonds.svg	stimuli_distractor_diamondtriangles.svg	1	yes	53	1	920	0	0			0	0			1				0	
6.6.1	win	2023-07-15	20:29:28	20:32:53	202296	60e9cbd27102b08fc616fbe6	3	1	practice_slash	5	advance_on_keypress_SLASH	20	stimuli_target_rectanglediamonds.svg	stimuli_distractor_diamondtriangles.svg	1	yes	57	0	361	0	0			0	0			1				0	
6.6.1	win	2023-07-15	20:29:28	20:32:56	204999	60e9cbd27102b08fc616fbe6	3	1	practice_slash	5	practice_slash	21	stimuli_distractor_diamondtriangles.svg	stimuli_target_rectangletriangles.svg	7	yes	53	1	653	0	0			0	0			1				0	
6.6.1	win	2023-07-15	20:29:28	20:32:56	204999	60e9cbd27102b08fc616fbe6	3	1	practice_slash	5	advance_on_keypress_SLASH	22	stimuli_distractor_diamondtriangles.svg	stimuli_target_rectangletriangles.svg	7	yes	57	0	664	0	0			0	0			1				0	
6.6.1	win	2023-07-15	20:29:28	20:32:59	208453	60e9cbd27102b08fc616fbe6	3	1	practice_slash	5	practice_slash	23	stimuli_distractor_trianglediamonds.svg	stimuli_distractor_trianglediamonds.svg	15	no	53	0	1105	0	0			0	0			1				0	
6.6.1	win	2023-07-15	20:29:28	20:32:59	208453	60e9cbd27102b08fc616fbe6	3	1	practice_slash	5	advance_on_keypress_SLASH	24	stimuli_distractor_trianglediamonds.svg	stimuli_distractor_trianglediamonds.svg	15	no	57	0	596	0	0			0	0			1				0	
6.6.1	win	2023-07-15	20:29:28	20:33:04	212670	60e9cbd27102b08fc616fbe6	3	1	practice_slash	5	practice_slash	25	stimuli_distractor_trianglediamonds.svg	stimuli_distractor_diamondtriangles.svg	16	no	0	1	2000	0	0			0	0			1				0	
6.6.1	win	2023-07-15	20:29:28	20:33:04	212670	60e9cbd27102b08fc616fbe6	3	1	practice_slash	5	advance_on_keypress_SLASH	26	stimuli_distractor_trianglediamonds.svg	stimuli_distractor_diamondtriangles.svg	16	no	57	0	462	0	0			0	0			1				0	
6.6.1	win	2023-07-15	20:29:28	20:33:08	216751	60e9cbd27102b08fc616fbe6	3	1	practice_slash	5	practice_slash	27	stimuli_distractor_diamondtriangles.svg	stimuli_distractor_diamondtriangles.svg	13	no	0	1	2000	0	0			0	0			1				0	
6.6.1	win	2023-07-15	20:29:28	20:33:08	216751	60e9cbd27102b08fc616fbe6	3	1	practice_slash	5	advance_on_keypress_SLASH	28	stimuli_distractor_diamondtriangles.svg	stimuli_distractor_diamondtriangles.svg	13	no	57	0	359	0	0			0	0			1				0	
6.6.1	win	2023-07-15	20:29:28	20:33:11	219886	60e9cbd27102b08fc616fbe6	3	1	practice_slash	5	practice_slash	29	stimuli_distractor_diamondtriangles.svg	stimuli_distractor_trianglediamonds.svg	14	no	53	0	1160	0	0			0	0			1				0	
6.6.1	win	2023-07-15	20:29:28	20:33:11	219886	60e9cbd27102b08fc616fbe6	3	1	practice_slash	5	advance_on_keypress_SLASH	30	stimuli_distractor_diamondtriangles.svg	stimuli_distractor_trianglediamonds.svg	14	no	57	0	397	0	0			0	0			1				0	
6.6.1	win	2023-07-15	20:29:28	20:33:14	222839	60e9cbd27102b08fc616fbe6	3	1	practice_slash	5	practice_slash	31	stimuli_target_squarediamonds.svg	stimuli_distractor_diamondtriangles.svg	2	yes	53	1	868	0	0			0	0			1				0	
6.6.1	win	2023-07-15	20:29:28	20:33:14	222839	60e9cbd27102b08fc616fbe6	3	1	practice_slash	5	advance_on_keypress_SLASH	32	stimuli_target_squarediamonds.svg	stimuli_distractor_diamondtriangles.svg	2	yes	57	0	355	0	0			0	0			1				0	
6.6.1	win	2023-07-15	20:29:28	20:33:22	231001	60e9cbd27102b08fc616fbe6	3	1	main_slash	7	main_slash	1	stimuli_distractor_diamondtriangles.svg	stimuli_target_diamondrectangles.svg	31	yes	53	1	699	0	0			0	0			1				0	
6.6.1	win	2023-07-15	20:29:28	20:33:22	231001	60e9cbd27102b08fc616fbe6	3	1	main_slash	7	advance_on_keypress_SLASH	2	stimuli_distractor_diamondtriangles.svg	stimuli_target_diamondrectangles.svg	31	yes	57	0	1334	0	0			0	0			1				0	
6.6.1	win	2023-07-15	20:29:28	20:33:26	234946	60e9cbd27102b08fc616fbe6	3	1	main_slash	7	main_slash	3	stimuli_distractor_diamondtriangles.svg	stimuli_distractor_diamondtriangles.svg	39	no	0	1	2000	0	0			0	0			1				0	
6.6.1	win	2023-07-15	20:29:28	20:33:26	234946	60e9cbd27102b08fc616fbe6	3	1	main_slash	7	advance_on_keypress_SLASH	4	stimuli_distractor_diamondtriangles.svg	stimuli_distractor_diamondtriangles.svg	39	no	57	0	719	0	0			0	0			1				0	
6.6.1	win	2023-07-15	20:29:28	20:33:28	237162	60e9cbd27102b08fc616fbe6	3	1	main_slash	7	main_slash	5	stimuli_distractor_diamondtriangles.svg	stimuli_target_rectanglediamonds.svg	14	yes	53	1	883	0	0			0	0			1				0	
6.6.1	win	2023-07-15	20:29:28	20:33:28	237162	60e9cbd27102b08fc616fbe6	3	1	main_slash	7	advance_on_keypress_SLASH	6	stimuli_distractor_diamondtriangles.svg	stimuli_target_rectanglediamonds.svg	14	yes	57	0	1067	0	0			0	0			1				0	
6.6.1	win	2023-07-15	20:29:28	20:33:31	239717	60e9cbd27102b08fc616fbe6	3	1	main_slash	7	main_slash	7	stimuli_distractor_trianglediamonds.svg	stimuli_distractor_trianglediamonds.svg	34	no	53	0	876	0	0			0	0			1				0	
6.6.1	win	2023-07-15	20:29:28	20:33:31	239717	60e9cbd27102b08fc616fbe6	3	1	main_slash	7	advance_on_keypress_SLASH	8	stimuli_distractor_trianglediamonds.svg	stimuli_distractor_trianglediamonds.svg	34	no	57	0	973	0	0			0	0			1				0	
6.6.1	win	2023-07-15	20:29:28	20:33:34	242773	60e9cbd27102b08fc616fbe6	3	1	main_slash	7	main_slash	9	stimuli_target_diamondsquares.svg	stimuli_distractor_trianglediamonds.svg	20	yes	53	1	1460	0	0			0	0			1				0	
6.6.1	win	2023-07-15	20:29:28	20:33:34	242773	60e9cbd27102b08fc616fbe6	3	1	main_slash	7	advance_on_keypress_SLASH	10	stimuli_target_diamondsquares.svg	stimuli_distractor_trianglediamonds.svg	20	yes	57	0	582	0	0			0	0			1				0	
6.6.1	win	2023-07-15	20:29:28	20:33:36	244899	60e9cbd27102b08fc616fbe6	3	1	main_slash	7	main_slash	11	stimuli_target_rectangletriangles.svg	stimuli_distractor_trianglediamonds.svg	1	yes	53	1	930	0	0			0	0			1				0	
6.6.1	win	2023-07-15	20:29:28	20:33:36	244899	60e9cbd27102b08fc616fbe6	3	1	main_slash	7	advance_on_keypress_SLASH	12	stimuli_target_rectangletriangles.svg	stimuli_distractor_trianglediamonds.svg	1	yes	57	0	760	0	0			0	0			1				0	
6.6.1	win	2023-07-15	20:29:28	20:33:38	247333	60e9cbd27102b08fc616fbe6	3	1	main_slash	7	main_slash	13	stimuli_distractor_diamondtriangles.svg	stimuli_target_squaretriangles.svg	15	yes	53	1	1057	0	0			0	0			1				0	
6.6.1	win	2023-07-15	20:29:28	20:33:38	247333	60e9cbd27102b08fc616fbe6	3	1	main_slash	7	advance_on_keypress_SLASH	14	stimuli_distractor_diamondtriangles.svg	stimuli_target_squaretriangles.svg	15	yes	57	0	442	0	0			0	0			1				0	
6.6.1	win	2023-07-15	20:29:28	20:33:40	249077	60e9cbd27102b08fc616fbe6	3	1	main_slash	7	main_slash	15	stimuli_target_squaretriangles.svg	stimuli_distractor_diamondtriangles.svg	7	yes	53	1	679	0	0			0	0			1				0	
6.6.1	win	2023-07-15	20:29:28	20:33:40	249077	60e9cbd27102b08fc616fbe6	3	1	main_slash	7	advance_on_keypress_SLASH	16	stimuli_target_squaretriangles.svg	stimuli_distractor_diamondtriangles.svg	7	yes	57	0	456	0	0			0	0			1				0	
6.6.1	win	2023-07-15	20:29:28	20:33:42	250800	60e9cbd27102b08fc616fbe6	3	1	main_slash	7	main_slash	17	stimuli_distractor_diamondtriangles.svg	stimuli_target_squarediamonds.svg	16	yes	53	1	654	0	0			0	0			1				0	
6.6.1	win	2023-07-15	20:29:28	20:33:42	250800	60e9cbd27102b08fc616fbe6	3	1	main_slash	7	advance_on_keypress_SLASH	18	stimuli_distractor_diamondtriangles.svg	stimuli_target_squarediamonds.svg	16	yes	57	0	514	0	0			0	0			1				0	
6.6.1	win	2023-07-15	20:29:28	20:33:44	252764	60e9cbd27102b08fc616fbe6	3	1	main_slash	7	main_slash	19	stimuli_distractor_diamondtriangles.svg	stimuli_target_rectangletriangles.svg	13	yes	53	1	835	0	0			0	0			1				0	
6.6.1	win	2023-07-15	20:29:28	20:33:44	252764	60e9cbd27102b08fc616fbe6	3	1	main_slash	7	advance_on_keypress_SLASH	20	stimuli_distractor_diamondtriangles.svg	stimuli_target_rectangletriangles.svg	13	yes	57	0	472	0	0			0	0			1				0	
6.6.1	win	2023-07-15	20:29:28	20:33:46	254817	60e9cbd27102b08fc616fbe6	3	1	main_slash	7	main_slash	21	stimuli_distractor_trianglediamonds.svg	stimuli_target_trianglesquares.svg	26	yes	53	1	958	0	0			0	0			1				0	
6.6.1	win	2023-07-15	20:29:28	20:33:46	254817	60e9cbd27102b08fc616fbe6	3	1	main_slash	7	advance_on_keypress_SLASH	22	stimuli_distractor_trianglediamonds.svg	stimuli_target_trianglesquares.svg	26	yes	57	0	364	0	0			0	0			1				0	
6.6.1	win	2023-07-15	20:29:28	20:33:47	256515	60e9cbd27102b08fc616fbe6	3	1	main_slash	7	main_slash	23	stimuli_distractor_trianglediamonds.svg	stimuli_target_diamondsquares.svg	28	yes	53	1	724	0	0			0	0			1				0	
6.6.1	win	2023-07-15	20:29:28	20:33:47	256515	60e9cbd27102b08fc616fbe6	3	1	main_slash	7	advance_on_keypress_SLASH	24	stimuli_distractor_trianglediamonds.svg	stimuli_target_diamondsquares.svg	28	yes	57	0	475	0	0			0	0			1				0	
6.6.1	win	2023-07-15	20:29:28	20:33:49	258251	60e9cbd27102b08fc616fbe6	3	1	main_slash	7	main_slash	25	stimuli_target_squarediamonds.svg	stimuli_distractor_trianglediamonds.svg	4	yes	53	1	648	0	0			0	0			1				0	
6.6.1	win	2023-07-15	20:29:28	20:33:49	258251	60e9cbd27102b08fc616fbe6	3	1	main_slash	7	advance_on_keypress_SLASH	26	stimuli_target_squarediamonds.svg	stimuli_distractor_trianglediamonds.svg	4	yes	57	0	454	0	0			0	0			1				0	
6.6.1	win	2023-07-15	20:29:28	20:33:51	259907	60e9cbd27102b08fc616fbe6	3	1	main_slash	7	main_slash	27	stimuli_target_rectangletriangles.svg	stimuli_distractor_diamondtriangles.svg	5	yes	53	1	582	0	0			0	0			1				0	
6.6.1	win	2023-07-15	20:29:28	20:33:51	259907	60e9cbd27102b08fc616fbe6	3	1	main_slash	7	advance_on_keypress_SLASH	28	stimuli_target_rectangletriangles.svg	stimuli_distractor_diamondtriangles.svg	5	yes	57	0	506	0	0			0	0			1				0	
6.6.1	win	2023-07-15	20:29:28	20:33:54	263026	60e9cbd27102b08fc616fbe6	3	1	main_slash	7	main_slash	29	stimuli_distractor_diamondtriangles.svg	stimuli_distractor_trianglediamonds.svg	37	no	0	1	2000	0	0			0	0			1				0	
6.6.1	win	2023-07-15	20:29:28	20:33:54	263026	60e9cbd27102b08fc616fbe6	3	1	main_slash	7	advance_on_keypress_SLASH	30	stimuli_distractor_diamondtriangles.svg	stimuli_distractor_trianglediamonds.svg	37	no	57	0	743	0	0			0	0			1				0	
6.6.1	win	2023-07-15	20:29:28	20:33:56	264973	60e9cbd27102b08fc616fbe6	3	1	main_slash	7	main_slash	31	stimuli_target_trianglesquares.svg	stimuli_distractor_diamondtriangles.svg	22	yes	53	1	585	0	0			0	0			1				0	
6.6.1	win	2023-07-15	20:29:28	20:33:56	264973	60e9cbd27102b08fc616fbe6	3	1	main_slash	7	advance_on_keypress_SLASH	32	stimuli_target_trianglesquares.svg	stimuli_distractor_diamondtriangles.svg	22	yes	57	0	494	0	0			0	0			1				0	
6.6.1	win	2023-07-15	20:29:28	20:33:58	266984	60e9cbd27102b08fc616fbe6	3	1	main_slash	7	main_slash	33	stimuli_distractor_diamondtriangles.svg	stimuli_target_trianglesquares.svg	30	yes	53	1	904	0	0			0	0			1				0	
6.6.1	win	2023-07-15	20:29:28	20:33:58	266984	60e9cbd27102b08fc616fbe6	3	1	main_slash	7	advance_on_keypress_SLASH	34	stimuli_distractor_diamondtriangles.svg	stimuli_target_trianglesquares.svg	30	yes	57	0	395	0	0			0	0			1				0	
6.6.1	win	2023-07-15	20:29:28	20:34:00	269533	60e9cbd27102b08fc616fbe6	3	1	main_slash	7	main_slash	35	stimuli_target_rectanglediamonds.svg	stimuli_distractor_trianglediamonds.svg	2	yes	53	1	1532	0	0			0	0			1				0	
6.6.1	win	2023-07-15	20:29:28	20:34:00	269533	60e9cbd27102b08fc616fbe6	3	1	main_slash	7	advance_on_keypress_SLASH	36	stimuli_target_rectanglediamonds.svg	stimuli_distractor_trianglediamonds.svg	2	yes	57	0	403	0	0			0	0			1				0	
6.6.1	win	2023-07-15	20:29:28	20:34:02	271245	60e9cbd27102b08fc616fbe6	3	1	main_slash	7	main_slash	37	stimuli_target_squarediamonds.svg	stimuli_distractor_diamondtriangles.svg	8	yes	53	1	698	0	0			0	0			1				0	
6.6.1	win	2023-07-15	20:29:28	20:34:02	271245	60e9cbd27102b08fc616fbe6	3	1	main_slash	7	advance_on_keypress_SLASH	38	stimuli_target_squarediamonds.svg	stimuli_distractor_diamondtriangles.svg	8	yes	57	0	441	0	0			0	0			1				0	
6.6.1	win	2023-07-15	20:29:28	20:34:04	273518	60e9cbd27102b08fc616fbe6	3	1	main_slash	7	main_slash	39	stimuli_distractor_trianglediamonds.svg	stimuli_target_trianglerectangles.svg	25	yes	53	1	1215	0	0			0	0			1				0	
6.6.1	win	2023-07-15	20:29:28	20:34:04	273518	60e9cbd27102b08fc616fbe6	3	1	main_slash	7	advance_on_keypress_SLASH	40	stimuli_distractor_trianglediamonds.svg	stimuli_target_trianglerectangles.svg	25	yes	57	0	365	0	0			0	0			1				0	
6.6.1	win	2023-07-15	20:29:28	20:34:06	275400	60e9cbd27102b08fc616fbe6	3	1	main_slash	7	main_slash	41	stimuli_target_diamondsquares.svg	stimuli_distractor_diamondtriangles.svg	24	yes	53	1	900	0	0			0	0			1				0	
6.6.1	win	2023-07-15	20:29:28	20:34:06	275400	60e9cbd27102b08fc616fbe6	3	1	main_slash	7	advance_on_keypress_SLASH	42	stimuli_target_diamondsquares.svg	stimuli_distractor_diamondtriangles.svg	24	yes	57	0	436	0	0			0	0			1				0	
6.6.1	win	2023-07-15	20:29:28	20:34:08	277473	60e9cbd27102b08fc616fbe6	3	1	main_slash	7	main_slash	43	stimuli_distractor_diamondtriangles.svg	stimuli_distractor_trianglediamonds.svg	38	no	53	0	1019	0	0			0	0			1				0	
6.6.1	win	2023-07-15	20:29:28	20:34:08	277473	60e9cbd27102b08fc616fbe6	3	1	main_slash	7	advance_on_keypress_SLASH	44	stimuli_distractor_diamondtriangles.svg	stimuli_distractor_trianglediamonds.svg	38	no	57	0	375	0	0			0	0			1				0	
6.6.1	win	2023-07-15	20:29:28	20:34:11	280468	60e9cbd27102b08fc616fbe6	3	1	main_slash	7	main_slash	45	stimuli_distractor_trianglediamonds.svg	stimuli_target_rectanglediamonds.svg	10	yes	0	0	2000	0	0			0	0			1				0	
6.6.1	win	2023-07-15	20:29:28	20:34:11	280468	60e9cbd27102b08fc616fbe6	3	1	main_slash	7	advance_on_keypress_SLASH	46	stimuli_distractor_trianglediamonds.svg	stimuli_target_rectanglediamonds.svg	10	yes	57	0	781	0	0			0	0			1				0	
6.6.1	win	2023-07-15	20:29:28	20:34:15	283869	60e9cbd27102b08fc616fbe6	3	1	main_slash	7	main_slash	47	stimuli_distractor_trianglediamonds.svg	stimuli_distractor_trianglediamonds.svg	33	no	0	1	2000	0	0			0	0			1				0	
6.6.1	win	2023-07-15	20:29:28	20:34:15	283869	60e9cbd27102b08fc616fbe6	3	1	main_slash	7	advance_on_keypress_SLASH	48	stimuli_distractor_trianglediamonds.svg	stimuli_distractor_trianglediamonds.svg	33	no	57	0	263	0	0			0	0			1				0	
6.6.1	win	2023-07-15	20:29:28	20:34:16	285445	60e9cbd27102b08fc616fbe6	3	1	main_slash	7	main_slash	49	stimuli_target_diamondrectangles.svg	stimuli_distractor_diamondtriangles.svg	23	yes	53	1	693	0	0			0	0			1				0	
6.6.1	win	2023-07-15	20:29:28	20:34:16	285445	60e9cbd27102b08fc616fbe6	3	1	main_slash	7	advance_on_keypress_SLASH	50	stimuli_target_diamondrectangles.svg	stimuli_distractor_diamondtriangles.svg	23	yes	57	0	467	0	0			0	0			1				0	
6.6.1	win	2023-07-15	20:29:28	20:34:18	287496	60e9cbd27102b08fc616fbe6	3	1	main_slash	7	main_slash	51	stimuli_distractor_trianglediamonds.svg	stimuli_target_rectangletriangles.svg	9	yes	53	1	972	0	0			0	0			1				0	
6.6.1	win	2023-07-15	20:29:28	20:34:18	287496	60e9cbd27102b08fc616fbe6	3	1	main_slash	7	advance_on_keypress_SLASH	52	stimuli_distractor_trianglediamonds.svg	stimuli_target_rectangletriangles.svg	9	yes	57	0	355	0	0			0	0			1				0	
6.6.1	win	2023-07-15	20:29:28	20:34:20	289205	60e9cbd27102b08fc616fbe6	3	1	main_slash	7	main_slash	53	stimuli_target_rectanglediamonds.svg	stimuli_distractor_diamondtriangles.svg	6	yes	53	1	740	0	0			0	0			1				0	
6.6.1	win	2023-07-15	20:29:28	20:34:20	289205	60e9cbd27102b08fc616fbe6	3	1	main_slash	7	advance_on_keypress_SLASH	54	stimuli_target_rectanglediamonds.svg	stimuli_distractor_diamondtriangles.svg	6	yes	57	0	394	0	0			0	0			1				0	
6.6.1	win	2023-07-15	20:29:28	20:34:22	291246	60e9cbd27102b08fc616fbe6	3	1	main_slash	7	main_slash	55	stimuli_distractor_trianglediamonds.svg	stimuli_target_diamondrectangles.svg	27	yes	53	1	1031	0	0			0	0			1				0	
6.6.1	win	2023-07-15	20:29:28	20:34:22	291246	60e9cbd27102b08fc616fbe6	3	1	main_slash	7	advance_on_keypress_SLASH	56	stimuli_distractor_trianglediamonds.svg	stimuli_target_diamondrectangles.svg	27	yes	57	0	402	0	0			0	0			1				0	
6.6.1	win	2023-07-15	20:29:28	20:34:24	293183	60e9cbd27102b08fc616fbe6	3	1	main_slash	7	main_slash	57	stimuli_distractor_diamondtriangles.svg	stimuli_target_trianglerectangles.svg	29	yes	53	1	920	0	0			0	0			1				0	
6.6.1	win	2023-07-15	20:29:28	20:34:24	293183	60e9cbd27102b08fc616fbe6	3	1	main_slash	7	advance_on_keypress_SLASH	58	stimuli_distractor_diamondtriangles.svg	stimuli_target_trianglerectangles.svg	29	yes	57	0	450	0	0			0	0			1				0	
6.6.1	win	2023-07-15	20:29:28	20:34:27	296257	60e9cbd27102b08fc616fbe6	3	1	main_slash	7	main_slash	59	stimuli_distractor_diamondtriangles.svg	stimuli_distractor_diamondtriangles.svg	40	no	0	1	2000	0	0			0	0			1				0	
6.6.1	win	2023-07-15	20:29:28	20:34:27	296257	60e9cbd27102b08fc616fbe6	3	1	main_slash	7	advance_on_keypress_SLASH	60	stimuli_distractor_diamondtriangles.svg	stimuli_distractor_diamondtriangles.svg	40	no	57	0	701	0	0			0	0			1				0	
6.6.1	win	2023-07-15	20:29:28	20:34:29	298323	60e9cbd27102b08fc616fbe6	3	1	main_slash	7	main_slash	61	stimuli_distractor_trianglediamonds.svg	stimuli_target_squarediamonds.svg	12	yes	53	1	746	0	0			0	0			1				0	
6.6.1	win	2023-07-15	20:29:28	20:34:29	298323	60e9cbd27102b08fc616fbe6	3	1	main_slash	7	advance_on_keypress_SLASH	62	stimuli_distractor_trianglediamonds.svg	stimuli_target_squarediamonds.svg	12	yes	57	0	399	0	0			0	0			1				0	
6.6.1	win	2023-07-15	20:29:28	20:34:31	300134	60e9cbd27102b08fc616fbe6	3	1	main_slash	7	main_slash	63	stimuli_target_trianglerectangles.svg	stimuli_distractor_trianglediamonds.svg	17	yes	53	1	799	0	0			0	0			1				0	
6.6.1	win	2023-07-15	20:29:28	20:34:31	300134	60e9cbd27102b08fc616fbe6	3	1	main_slash	7	advance_on_keypress_SLASH	64	stimuli_target_trianglerectangles.svg	stimuli_distractor_trianglediamonds.svg	17	yes	57	0	392	0	0			0	0			1				0	
6.6.1	win	2023-07-15	20:29:28	20:34:33	301949	60e9cbd27102b08fc616fbe6	3	1	main_slash	7	main_slash	65	stimuli_target_trianglerectangles.svg	stimuli_distractor_diamondtriangles.svg	21	yes	53	1	806	0	0			0	0			1				0	
6.6.1	win	2023-07-15	20:29:28	20:34:33	301949	60e9cbd27102b08fc616fbe6	3	1	main_slash	7	advance_on_keypress_SLASH	66	stimuli_target_trianglerectangles.svg	stimuli_distractor_diamondtriangles.svg	21	yes	57	0	434	0	0			0	0			1				0	
6.6.1	win	2023-07-15	20:29:28	20:34:35	303891	60e9cbd27102b08fc616fbe6	3	1	main_slash	7	main_slash	67	stimuli_target_squaretriangles.svg	stimuli_distractor_trianglediamonds.svg	3	yes	53	1	886	0	0			0	0			1				0	
6.6.1	win	2023-07-15	20:29:28	20:34:35	303891	60e9cbd27102b08fc616fbe6	3	1	main_slash	7	advance_on_keypress_SLASH	68	stimuli_target_squaretriangles.svg	stimuli_distractor_trianglediamonds.svg	3	yes	57	0	372	0	0			0	0			1				0	
6.6.1	win	2023-07-15	20:29:28	20:34:37	305683	60e9cbd27102b08fc616fbe6	3	1	main_slash	7	main_slash	69	stimuli_target_diamondrectangles.svg	stimuli_distractor_trianglediamonds.svg	19	yes	53	1	802	0	0			0	0			1				0	
6.6.1	win	2023-07-15	20:29:28	20:34:37	305683	60e9cbd27102b08fc616fbe6	3	1	main_slash	7	advance_on_keypress_SLASH	70	stimuli_target_diamondrectangles.svg	stimuli_distractor_trianglediamonds.svg	19	yes	57	0	401	0	0			0	0			1				0	
6.6.1	win	2023-07-15	20:29:28	20:34:38	307540	60e9cbd27102b08fc616fbe6	3	1	main_slash	7	main_slash	71	stimuli_target_trianglesquares.svg	stimuli_distractor_trianglediamonds.svg	18	yes	53	1	837	0	0			0	0			1				0	
6.6.1	win	2023-07-15	20:29:28	20:34:38	307540	60e9cbd27102b08fc616fbe6	3	1	main_slash	7	advance_on_keypress_SLASH	72	stimuli_target_trianglesquares.svg	stimuli_distractor_trianglediamonds.svg	18	yes	57	0	438	0	0			0	0			1				0	
6.6.1	win	2023-07-15	20:29:28	20:34:40	309477	60e9cbd27102b08fc616fbe6	3	1	main_slash	7	main_slash	73	stimuli_distractor_trianglediamonds.svg	stimuli_distractor_diamondtriangles.svg	35	no	53	0	880	0	0			0	0			1				0	
6.6.1	win	2023-07-15	20:29:28	20:34:40	309477	60e9cbd27102b08fc616fbe6	3	1	main_slash	7	advance_on_keypress_SLASH	74	stimuli_distractor_trianglediamonds.svg	stimuli_distractor_diamondtriangles.svg	35	no	57	0	742	0	0			0	0			1				0	
6.6.1	win	2023-07-15	20:29:28	20:34:42	311515	60e9cbd27102b08fc616fbe6	3	1	main_slash	7	main_slash	75	stimuli_distractor_diamondtriangles.svg	stimuli_target_diamondsquares.svg	32	yes	53	1	674	0	0			0	0			1				0	
6.6.1	win	2023-07-15	20:29:28	20:34:42	311515	60e9cbd27102b08fc616fbe6	3	1	main_slash	7	advance_on_keypress_SLASH	76	stimuli_distractor_diamondtriangles.svg	stimuli_target_diamondsquares.svg	32	yes	57	0	409	0	0			0	0			1				0	
6.6.1	win	2023-07-15	20:29:28	20:34:45	313560	60e9cbd27102b08fc616fbe6	3	1	main_slash	7	main_slash	77	stimuli_distractor_trianglediamonds.svg	stimuli_distractor_diamondtriangles.svg	36	no	53	0	1018	0	0			0	0			1				0	
6.6.1	win	2023-07-15	20:29:28	20:34:45	313560	60e9cbd27102b08fc616fbe6	3	1	main_slash	7	advance_on_keypress_SLASH	78	stimuli_distractor_trianglediamonds.svg	stimuli_distractor_diamondtriangles.svg	36	no	57	0	325	0	0			0	0			1				0	
6.6.1	win	2023-07-15	20:29:28	20:34:47	316145	60e9cbd27102b08fc616fbe6	3	1	main_slash	7	main_slash	79	stimuli_distractor_trianglediamonds.svg	stimuli_target_squaretriangles.svg	11	yes	53	1	1642	0	0			0	0			1				0	
6.6.1	win	2023-07-15	20:29:28	20:34:47	316145	60e9cbd27102b08fc616fbe6	3	1	main_slash	7	advance_on_keypress_SLASH	80	stimuli_distractor_trianglediamonds.svg	stimuli_target_squaretriangles.svg	11	yes	57	0	305	0	0			0	0			1				0	
6.6.1	win	2023-07-15	20:29:28	20:34:50	319062	60e9cbd27102b08fc616fbe6	3	1	main_slash	7	main_slash	81	stimuli_distractor_trianglediamonds.svg	stimuli_distractor_diamondtriangles.svg	36	no	0	1	2000	0	0			0	0			1				0	
6.6.1	win	2023-07-15	20:29:28	20:34:50	319062	60e9cbd27102b08fc616fbe6	3	1	main_slash	7	advance_on_keypress_SLASH	82	stimuli_distractor_trianglediamonds.svg	stimuli_distractor_diamondtriangles.svg	36	no	57	0	563	0	0			0	0			1				0	
6.6.1	win	2023-07-15	20:29:28	20:34:52	320765	60e9cbd27102b08fc616fbe6	3	1	main_slash	7	main_slash	83	stimuli_distractor_diamondtriangles.svg	stimuli_target_diamondrectangles.svg	31	yes	53	1	527	0	0			0	0			1				0	
6.6.1	win	2023-07-15	20:29:28	20:34:52	320765	60e9cbd27102b08fc616fbe6	3	1	main_slash	7	advance_on_keypress_SLASH	84	stimuli_distractor_diamondtriangles.svg	stimuli_target_diamondrectangles.svg	31	yes	57	0	395	0	0			0	0			1				0	
6.6.1	win	2023-07-15	20:29:28	20:34:54	322588	60e9cbd27102b08fc616fbe6	3	1	main_slash	7	main_slash	85	stimuli_distractor_trianglediamonds.svg	stimuli_target_diamondrectangles.svg	27	yes	53	1	812	0	0			0	0			1				0	
6.6.1	win	2023-07-15	20:29:28	20:34:54	322588	60e9cbd27102b08fc616fbe6	3	1	main_slash	7	advance_on_keypress_SLASH	86	stimuli_distractor_trianglediamonds.svg	stimuli_target_diamondrectangles.svg	27	yes	57	0	344	0	0			0	0			1				0	
6.6.1	win	2023-07-15	20:29:28	20:34:56	325548	60e9cbd27102b08fc616fbe6	3	1	main_slash	7	main_slash	87	stimuli_target_squaretriangles.svg	stimuli_distractor_trianglediamonds.svg	3	yes	0	0	2000	0	0			0	0			1				0	
6.6.1	win	2023-07-15	20:29:28	20:34:56	325548	60e9cbd27102b08fc616fbe6	3	1	main_slash	7	advance_on_keypress_SLASH	88	stimuli_target_squaretriangles.svg	stimuli_distractor_trianglediamonds.svg	3	yes	57	0	618	0	0			0	0			1				0	
6.6.1	win	2023-07-15	20:29:28	20:34:59	327743	60e9cbd27102b08fc616fbe6	3	1	main_slash	7	main_slash	89	stimuli_distractor_diamondtriangles.svg	stimuli_target_squaretriangles.svg	15	yes	53	1	962	0	0			0	0			1				0	
6.6.1	win	2023-07-15	20:29:28	20:34:59	327743	60e9cbd27102b08fc616fbe6	3	1	main_slash	7	advance_on_keypress_SLASH	90	stimuli_distractor_diamondtriangles.svg	stimuli_target_squaretriangles.svg	15	yes	57	0	396	0	0			0	0			1				0	
6.6.1	win	2023-07-15	20:29:28	20:35:00	329523	60e9cbd27102b08fc616fbe6	3	1	main_slash	7	main_slash	91	stimuli_distractor_trianglediamonds.svg	stimuli_target_diamondsquares.svg	28	yes	53	1	770	0	0			0	0			1				0	
6.6.1	win	2023-07-15	20:29:28	20:35:00	329523	60e9cbd27102b08fc616fbe6	3	1	main_slash	7	advance_on_keypress_SLASH	92	stimuli_distractor_trianglediamonds.svg	stimuli_target_diamondsquares.svg	28	yes	57	0	398	0	0			0	0			1				0	
6.6.1	win	2023-07-15	20:29:28	20:35:02	331515	60e9cbd27102b08fc616fbe6	3	1	main_slash	7	main_slash	93	stimuli_target_rectanglediamonds.svg	stimuli_distractor_trianglediamonds.svg	2	yes	53	1	981	0	0			0	0			1				0	
6.6.1	win	2023-07-15	20:29:28	20:35:02	331515	60e9cbd27102b08fc616fbe6	3	1	main_slash	7	advance_on_keypress_SLASH	94	stimuli_target_rectanglediamonds.svg	stimuli_distractor_trianglediamonds.svg	2	yes	57	0	321	0	0			0	0			1				0	
6.6.1	win	2023-07-15	20:29:28	20:35:05	334455	60e9cbd27102b08fc616fbe6	3	1	main_slash	7	main_slash	95	stimuli_distractor_trianglediamonds.svg	stimuli_distractor_trianglediamonds.svg	34	no	0	1	2000	0	0			0	0			1				0	
6.6.1	win	2023-07-15	20:29:28	20:35:05	334455	60e9cbd27102b08fc616fbe6	3	1	main_slash	7	advance_on_keypress_SLASH	96	stimuli_distractor_trianglediamonds.svg	stimuli_distractor_trianglediamonds.svg	34	no	57	0	406	0	0			0	0			1				0	
6.6.1	win	2023-07-15	20:29:28	20:35:07	335983	60e9cbd27102b08fc616fbe6	3	1	main_slash	7	main_slash	97	stimuli_distractor_diamondtriangles.svg	stimuli_target_diamondsquares.svg	32	yes	53	1	506	0	0			0	0			1				0	
6.6.1	win	2023-07-15	20:29:28	20:35:07	335983	60e9cbd27102b08fc616fbe6	3	1	main_slash	7	advance_on_keypress_SLASH	98	stimuli_distractor_diamondtriangles.svg	stimuli_target_diamondsquares.svg	32	yes	57	0	408	0	0			0	0			1				0	
6.6.1	win	2023-07-15	20:29:28	20:35:08	337547	60e9cbd27102b08fc616fbe6	3	1	main_slash	7	main_slash	99	stimuli_target_diamondrectangles.svg	stimuli_distractor_trianglediamonds.svg	19	yes	53	1	539	0	0			0	0			1				0	
6.6.1	win	2023-07-15	20:29:28	20:35:08	337547	60e9cbd27102b08fc616fbe6	3	1	main_slash	7	advance_on_keypress_SLASH	100	stimuli_target_diamondrectangles.svg	stimuli_distractor_trianglediamonds.svg	19	yes	57	0	478	0	0			0	0			1				0	
6.6.1	win	2023-07-15	20:29:28	20:35:11	340509	60e9cbd27102b08fc616fbe6	3	1	main_slash	7	main_slash	101	stimuli_distractor_diamondtriangles.svg	stimuli_distractor_diamondtriangles.svg	39	no	53	0	1869	0	0			0	0			1				0	
6.6.1	win	2023-07-15	20:29:28	20:35:11	340509	60e9cbd27102b08fc616fbe6	3	1	main_slash	7	advance_on_keypress_SLASH	102	stimuli_distractor_diamondtriangles.svg	stimuli_distractor_diamondtriangles.svg	39	no	57	0	1297	0	0			0	0			1				0	
6.6.1	win	2023-07-15	20:29:28	20:35:14	343233	60e9cbd27102b08fc616fbe6	3	1	main_slash	7	main_slash	103	stimuli_distractor_trianglediamonds.svg	stimuli_target_rectanglediamonds.svg	10	yes	53	1	811	0	0			0	0			1				0	
6.6.1	win	2023-07-15	20:29:28	20:35:14	343233	60e9cbd27102b08fc616fbe6	3	1	main_slash	7	advance_on_keypress_SLASH	104	stimuli_distractor_trianglediamonds.svg	stimuli_target_rectanglediamonds.svg	10	yes	57	0	360	0	0			0	0			1				0	
6.6.1	win	2023-07-15	20:29:28	20:35:16	344921	60e9cbd27102b08fc616fbe6	3	1	main_slash	7	main_slash	105	stimuli_target_trianglesquares.svg	stimuli_distractor_trianglediamonds.svg	18	yes	53	1	711	0	0			0	0			1				0	
6.6.1	win	2023-07-15	20:29:28	20:35:16	344921	60e9cbd27102b08fc616fbe6	3	1	main_slash	7	advance_on_keypress_SLASH	106	stimuli_target_trianglesquares.svg	stimuli_distractor_trianglediamonds.svg	18	yes	57	0	402	0	0			0	0			1				0	
6.6.1	win	2023-07-15	20:29:28	20:35:18	346854	60e9cbd27102b08fc616fbe6	3	1	main_slash	7	main_slash	107	stimuli_distractor_diamondtriangles.svg	stimuli_target_trianglerectangles.svg	29	yes	53	1	910	0	0			0	0			1				0	
6.6.1	win	2023-07-15	20:29:28	20:35:18	346854	60e9cbd27102b08fc616fbe6	3	1	main_slash	7	advance_on_keypress_SLASH	108	stimuli_distractor_diamondtriangles.svg	stimuli_target_trianglerectangles.svg	29	yes	57	0	347	0	0			0	0			1				0	
6.6.1	win	2023-07-15	20:29:28	20:35:21	349738	60e9cbd27102b08fc616fbe6	3	1	main_slash	7	main_slash	109	stimuli_distractor_diamondtriangles.svg	stimuli_distractor_trianglediamonds.svg	38	no	53	0	1922	0	0			0	0			1				0	
6.6.1	win	2023-07-15	20:29:28	20:35:21	349738	60e9cbd27102b08fc616fbe6	3	1	main_slash	7	advance_on_keypress_SLASH	110	stimuli_distractor_diamondtriangles.svg	stimuli_distractor_trianglediamonds.svg	38	no	57	0	488	0	0			0	0			1				0	
6.6.1	win	2023-07-15	20:29:28	20:35:23	351723	60e9cbd27102b08fc616fbe6	3	1	main_slash	7	main_slash	111	stimuli_distractor_trianglediamonds.svg	stimuli_target_squarediamonds.svg	12	yes	53	1	885	0	0			0	0			1				0	
6.6.1	win	2023-07-15	20:29:28	20:35:23	351723	60e9cbd27102b08fc616fbe6	3	1	main_slash	7	advance_on_keypress_SLASH	112	stimuli_distractor_trianglediamonds.svg	stimuli_target_squarediamonds.svg	12	yes	57	0	351	0	0			0	0			1				0	
6.6.1	win	2023-07-15	20:29:28	20:35:24	353461	60e9cbd27102b08fc616fbe6	3	1	main_slash	7	main_slash	113	stimuli_distractor_diamondtriangles.svg	stimuli_target_rectangletriangles.svg	13	yes	53	1	771	0	0			0	0			1				0	
6.6.1	win	2023-07-15	20:29:28	20:35:24	353461	60e9cbd27102b08fc616fbe6	3	1	main_slash	7	advance_on_keypress_SLASH	114	stimuli_distractor_diamondtriangles.svg	stimuli_target_rectangletriangles.svg	13	yes	57	0	344	0	0			0	0			1				0	
6.6.1	win	2023-07-15	20:29:28	20:35:26	355150	60e9cbd27102b08fc616fbe6	3	1	main_slash	7	main_slash	115	stimuli_target_rectangletriangles.svg	stimuli_distractor_diamondtriangles.svg	5	yes	53	1	731	0	0			0	0			1				0	
6.6.1	win	2023-07-15	20:29:28	20:35:26	355150	60e9cbd27102b08fc616fbe6	3	1	main_slash	7	advance_on_keypress_SLASH	116	stimuli_target_rectangletriangles.svg	stimuli_distractor_diamondtriangles.svg	5	yes	57	0	492	0	0			0	0			1				0	
6.6.1	win	2023-07-15	20:29:28	20:35:28	357119	60e9cbd27102b08fc616fbe6	3	1	main_slash	7	main_slash	117	stimuli_distractor_trianglediamonds.svg	stimuli_target_trianglesquares.svg	26	yes	53	1	860	0	0			0	0			1				0	
6.6.1	win	2023-07-15	20:29:28	20:35:28	357119	60e9cbd27102b08fc616fbe6	3	1	main_slash	7	advance_on_keypress_SLASH	118	stimuli_distractor_trianglediamonds.svg	stimuli_target_trianglesquares.svg	26	yes	57	0	389	0	0			0	0			1				0	
6.6.1	win	2023-07-15	20:29:28	20:35:30	359011	60e9cbd27102b08fc616fbe6	3	1	main_slash	7	main_slash	119	stimuli_target_squarediamonds.svg	stimuli_distractor_trianglediamonds.svg	4	yes	53	1	878	0	0			0	0			1				0	
6.6.1	win	2023-07-15	20:29:28	20:35:30	359011	60e9cbd27102b08fc616fbe6	3	1	main_slash	7	advance_on_keypress_SLASH	120	stimuli_target_squarediamonds.svg	stimuli_distractor_trianglediamonds.svg	4	yes	57	0	409	0	0			0	0			1				0	
6.6.1	win	2023-07-15	20:29:28	20:35:32	360971	60e9cbd27102b08fc616fbe6	3	1	main_slash	7	main_slash	121	stimuli_target_squarediamonds.svg	stimuli_distractor_diamondtriangles.svg	8	yes	53	1	936	0	0			0	0			1				0	
6.6.1	win	2023-07-15	20:29:28	20:35:32	360971	60e9cbd27102b08fc616fbe6	3	1	main_slash	7	advance_on_keypress_SLASH	122	stimuli_target_squarediamonds.svg	stimuli_distractor_diamondtriangles.svg	8	yes	57	0	346	0	0			0	0			1				0	
6.6.1	win	2023-07-15	20:29:28	20:35:34	362810	60e9cbd27102b08fc616fbe6	3	1	main_slash	7	main_slash	123	stimuli_target_diamondsquares.svg	stimuli_distractor_diamondtriangles.svg	24	yes	53	1	880	0	0			0	0			1				0	
6.6.1	win	2023-07-15	20:29:28	20:35:34	362810	60e9cbd27102b08fc616fbe6	3	1	main_slash	7	advance_on_keypress_SLASH	124	stimuli_target_diamondsquares.svg	stimuli_distractor_diamondtriangles.svg	24	yes	57	0	403	0	0			0	0			1				0	
6.6.1	win	2023-07-15	20:29:28	20:35:36	364820	60e9cbd27102b08fc616fbe6	3	1	main_slash	7	main_slash	125	stimuli_target_squaretriangles.svg	stimuli_distractor_diamondtriangles.svg	7	yes	53	1	984	0	0			0	0			1				0	
6.6.1	win	2023-07-15	20:29:28	20:35:36	364820	60e9cbd27102b08fc616fbe6	3	1	main_slash	7	advance_on_keypress_SLASH	126	stimuli_target_squaretriangles.svg	stimuli_distractor_diamondtriangles.svg	7	yes	57	0	298	0	0			0	0			1				0	
6.6.1	win	2023-07-15	20:29:28	20:35:38	366593	60e9cbd27102b08fc616fbe6	3	1	main_slash	7	main_slash	127	stimuli_target_rectanglediamonds.svg	stimuli_distractor_diamondtriangles.svg	6	yes	53	1	854	0	0			0	0			1				0	
6.6.1	win	2023-07-15	20:29:28	20:35:38	366593	60e9cbd27102b08fc616fbe6	3	1	main_slash	7	advance_on_keypress_SLASH	128	stimuli_target_rectanglediamonds.svg	stimuli_distractor_diamondtriangles.svg	6	yes	57	0	448	0	0			0	0			1				0	
6.6.1	win	2023-07-15	20:29:28	20:35:39	368540	60e9cbd27102b08fc616fbe6	3	1	main_slash	7	main_slash	129	stimuli_target_diamondrectangles.svg	stimuli_distractor_diamondtriangles.svg	23	yes	53	1	886	0	0			0	0			1				0	
6.6.1	win	2023-07-15	20:29:28	20:35:39	368540	60e9cbd27102b08fc616fbe6	3	1	main_slash	7	advance_on_keypress_SLASH	130	stimuli_target_diamondrectangles.svg	stimuli_distractor_diamondtriangles.svg	23	yes	57	0	416	0	0			0	0			1				0	
6.6.1	win	2023-07-15	20:29:28	20:35:43	371571	60e9cbd27102b08fc616fbe6	3	1	main_slash	7	main_slash	131	stimuli_distractor_trianglediamonds.svg	stimuli_target_rectangletriangles.svg	9	yes	0	0	2000	0	0			0	0			1				0	
6.6.1	win	2023-07-15	20:29:28	20:35:43	371571	60e9cbd27102b08fc616fbe6	3	1	main_slash	7	advance_on_keypress_SLASH	132	stimuli_distractor_trianglediamonds.svg	stimuli_target_rectangletriangles.svg	9	yes	57	0	423	0	0			0	0			1				0	
6.6.1	win	2023-07-15	20:29:28	20:35:44	373440	60e9cbd27102b08fc616fbe6	3	1	main_slash	7	main_slash	133	stimuli_target_trianglerectangles.svg	stimuli_distractor_trianglediamonds.svg	17	yes	53	1	830	0	0			0	0			1				0	
6.6.1	win	2023-07-15	20:29:28	20:35:44	373440	60e9cbd27102b08fc616fbe6	3	1	main_slash	7	advance_on_keypress_SLASH	134	stimuli_target_trianglerectangles.svg	stimuli_distractor_trianglediamonds.svg	17	yes	57	0	411	0	0			0	0			1				0	
6.6.1	win	2023-07-15	20:29:28	20:35:46	375265	60e9cbd27102b08fc616fbe6	3	1	main_slash	7	main_slash	135	stimuli_target_rectangletriangles.svg	stimuli_distractor_trianglediamonds.svg	1	yes	53	1	793	0	0			0	0			1				0	
6.6.1	win	2023-07-15	20:29:28	20:35:46	375265	60e9cbd27102b08fc616fbe6	3	1	main_slash	7	advance_on_keypress_SLASH	136	stimuli_target_rectangletriangles.svg	stimuli_distractor_trianglediamonds.svg	1	yes	57	0	409	0	0			0	0			1				0	
6.6.1	win	2023-07-15	20:29:28	20:35:48	377302	60e9cbd27102b08fc616fbe6	3	1	main_slash	7	main_slash	137	stimuli_distractor_diamondtriangles.svg	stimuli_target_squarediamonds.svg	16	yes	53	1	1016	0	0			0	0			1				0	
6.6.1	win	2023-07-15	20:29:28	20:35:48	377302	60e9cbd27102b08fc616fbe6	3	1	main_slash	7	advance_on_keypress_SLASH	138	stimuli_distractor_diamondtriangles.svg	stimuli_target_squarediamonds.svg	16	yes	57	0	388	0	0			0	0			1				0	
6.6.1	win	2023-07-15	20:29:28	20:35:50	379545	60e9cbd27102b08fc616fbe6	3	1	main_slash	7	main_slash	139	stimuli_distractor_trianglediamonds.svg	stimuli_distractor_trianglediamonds.svg	33	no	53	0	1233	0	0			0	0			1				0	
6.6.1	win	2023-07-15	20:29:28	20:35:50	379545	60e9cbd27102b08fc616fbe6	3	1	main_slash	7	advance_on_keypress_SLASH	140	stimuli_distractor_trianglediamonds.svg	stimuli_distractor_trianglediamonds.svg	33	no	57	0	332	0	0			0	0			1				0	
6.6.1	win	2023-07-15	20:29:28	20:35:52	381338	60e9cbd27102b08fc616fbe6	3	1	main_slash	7	main_slash	141	stimuli_target_trianglerectangles.svg	stimuli_distractor_diamondtriangles.svg	21	yes	53	1	849	0	0			0	0			1				0	
6.6.1	win	2023-07-15	20:29:28	20:35:52	381338	60e9cbd27102b08fc616fbe6	3	1	main_slash	7	advance_on_keypress_SLASH	142	stimuli_target_trianglerectangles.svg	stimuli_distractor_diamondtriangles.svg	21	yes	57	0	389	0	0			0	0			1				0	
6.6.1	win	2023-07-15	20:29:28	20:35:55	383591	60e9cbd27102b08fc616fbe6	3	1	main_slash	7	main_slash	143	stimuli_distractor_diamondtriangles.svg	stimuli_target_rectanglediamonds.svg	14	yes	53	1	1242	0	0			0	0			1				0	
6.6.1	win	2023-07-15	20:29:28	20:35:55	383591	60e9cbd27102b08fc616fbe6	3	1	main_slash	7	advance_on_keypress_SLASH	144	stimuli_distractor_diamondtriangles.svg	stimuli_target_rectanglediamonds.svg	14	yes	57	0	319	0	0			0	0			1				0	
6.6.1	win	2023-07-15	20:29:28	20:35:57	386521	60e9cbd27102b08fc616fbe6	3	1	main_slash	7	main_slash	145	stimuli_distractor_diamondtriangles.svg	stimuli_distractor_diamondtriangles.svg	40	no	0	1	2000	0	0			0	0			1				0	
6.6.1	win	2023-07-15	20:29:28	20:35:57	386521	60e9cbd27102b08fc616fbe6	3	1	main_slash	7	advance_on_keypress_SLASH	146	stimuli_distractor_diamondtriangles.svg	stimuli_distractor_diamondtriangles.svg	40	no	57	0	455	0	0			0	0			1				0	
6.6.1	win	2023-07-15	20:29:28	20:36:00	388592	60e9cbd27102b08fc616fbe6	3	1	main_slash	7	main_slash	147	stimuli_distractor_diamondtriangles.svg	stimuli_target_trianglesquares.svg	30	yes	53	1	1001	0	0			0	0			1				0	
6.6.1	win	2023-07-15	20:29:28	20:36:00	388592	60e9cbd27102b08fc616fbe6	3	1	main_slash	7	advance_on_keypress_SLASH	148	stimuli_distractor_diamondtriangles.svg	stimuli_target_trianglesquares.svg	30	yes	57	0	447	0	0			0	0			1				0	
6.6.1	win	2023-07-15	20:29:28	20:36:02	390602	60e9cbd27102b08fc616fbe6	3	1	main_slash	7	main_slash	149	stimuli_distractor_trianglediamonds.svg	stimuli_target_squaretriangles.svg	11	yes	53	1	947	0	0			0	0			1				0	
6.6.1	win	2023-07-15	20:29:28	20:36:02	390602	60e9cbd27102b08fc616fbe6	3	1	main_slash	7	advance_on_keypress_SLASH	150	stimuli_distractor_trianglediamonds.svg	stimuli_target_squaretriangles.svg	11	yes	57	0	303	0	0			0	0			1				0	
6.6.1	win	2023-07-15	20:29:28	20:36:03	392483	60e9cbd27102b08fc616fbe6	3	1	main_slash	7	main_slash	151	stimuli_distractor_trianglediamonds.svg	stimuli_target_trianglerectangles.svg	25	yes	53	1	968	0	0			0	0			1				0	
6.6.1	win	2023-07-15	20:29:28	20:36:03	392483	60e9cbd27102b08fc616fbe6	3	1	main_slash	7	advance_on_keypress_SLASH	152	stimuli_distractor_trianglediamonds.svg	stimuli_target_trianglerectangles.svg	25	yes	57	0	382	0	0			0	0			1				0	
6.6.1	win	2023-07-15	20:29:28	20:36:06	395487	60e9cbd27102b08fc616fbe6	3	1	main_slash	7	main_slash	153	stimuli_distractor_trianglediamonds.svg	stimuli_distractor_diamondtriangles.svg	35	no	0	1	2000	0	0			0	0			1				0	
6.6.1	win	2023-07-15	20:29:28	20:36:06	395487	60e9cbd27102b08fc616fbe6	3	1	main_slash	7	advance_on_keypress_SLASH	154	stimuli_distractor_trianglediamonds.svg	stimuli_distractor_diamondtriangles.svg	35	no	57	0	790	0	0			0	0			1				0	
6.6.1	win	2023-07-15	20:29:28	20:36:08	397517	60e9cbd27102b08fc616fbe6	3	1	main_slash	7	main_slash	155	stimuli_target_trianglesquares.svg	stimuli_distractor_diamondtriangles.svg	22	yes	53	1	617	0	0			0	0			1				0	
6.6.1	win	2023-07-15	20:29:28	20:36:08	397517	60e9cbd27102b08fc616fbe6	3	1	main_slash	7	advance_on_keypress_SLASH	156	stimuli_target_trianglesquares.svg	stimuli_distractor_diamondtriangles.svg	22	yes	57	0	421	0	0			0	0			1				0	
6.6.1	win	2023-07-15	20:29:28	20:36:11	399956	60e9cbd27102b08fc616fbe6	3	1	main_slash	7	main_slash	157	stimuli_distractor_diamondtriangles.svg	stimuli_distractor_trianglediamonds.svg	37	no	53	0	1405	0	0			0	0			1				0	
6.6.1	win	2023-07-15	20:29:28	20:36:11	399956	60e9cbd27102b08fc616fbe6	3	1	main_slash	7	advance_on_keypress_SLASH	158	stimuli_distractor_diamondtriangles.svg	stimuli_distractor_trianglediamonds.svg	37	no	57	0	375	0	0			0	0			1				0	
6.6.1	win	2023-07-15	20:29:28	20:36:13	401748	60e9cbd27102b08fc616fbe6	3	1	main_slash	7	main_slash	159	stimuli_target_diamondsquares.svg	stimuli_distractor_trianglediamonds.svg	20	yes	53	1	795	0	0			0	0			1				0	
6.6.1	win	2023-07-15	20:29:28	20:36:13	401748	60e9cbd27102b08fc616fbe6	3	1	main_slash	7	advance_on_keypress_SLASH	160	stimuli_target_diamondsquares.svg	stimuli_distractor_trianglediamonds.svg	20	yes	57	0	391	0	0			0	0			1				0	
6.6.1	win	2023-07-15	20:29:28	20:36:34	423448	60e9cbd27102b08fc616fbe6	3	1	practice_z	9	practice_z	1	stimuli_distractor_diamondtriangles.svg	stimuli_target_diamondrectangles.svg	8	yes	44	1	567	0	0			0	0			1				0	
6.6.1	win	2023-07-15	20:29:28	20:36:34	423448	60e9cbd27102b08fc616fbe6	3	1	practice_z	9	advance_on_keypress_ZEE	2	stimuli_distractor_diamondtriangles.svg	stimuli_target_diamondrectangles.svg	8	yes	57	0	414	0	0			0	0			1				0	
6.6.1	win	2023-07-15	20:29:28	20:36:37	426053	60e9cbd27102b08fc616fbe6	3	1	practice_z	9	practice_z	3	stimuli_distractor_diamondtriangles.svg	stimuli_target_rectangletriangles.svg	7	yes	44	1	581	0	0			0	0			1				0	
6.6.1	win	2023-07-15	20:29:28	20:36:37	426053	60e9cbd27102b08fc616fbe6	3	1	practice_z	9	advance_on_keypress_ZEE	4	stimuli_distractor_diamondtriangles.svg	stimuli_target_rectangletriangles.svg	7	yes	57	0	337	0	0			0	0			1				0	
6.6.1	win	2023-07-15	20:29:28	20:36:40	428589	60e9cbd27102b08fc616fbe6	3	1	practice_z	9	practice_z	5	stimuli_distractor_trianglediamonds.svg	stimuli_target_squarediamonds.svg	11	yes	44	1	578	0	0			0	0			1				0	
6.6.1	win	2023-07-15	20:29:28	20:36:40	428589	60e9cbd27102b08fc616fbe6	3	1	practice_z	9	advance_on_keypress_ZEE	6	stimuli_distractor_trianglediamonds.svg	stimuli_target_squarediamonds.svg	11	yes	57	0	302	0	0			0	0			1				0	
6.6.1	win	2023-07-15	20:29:28	20:36:42	431124	60e9cbd27102b08fc616fbe6	3	1	practice_z	9	practice_z	7	stimuli_target_rectanglediamonds.svg	stimuli_distractor_trianglediamonds.svg	4	yes	44	1	547	0	0			0	0			1				0	
6.6.1	win	2023-07-15	20:29:28	20:36:42	431124	60e9cbd27102b08fc616fbe6	3	1	practice_z	9	advance_on_keypress_ZEE	8	stimuli_target_rectanglediamonds.svg	stimuli_distractor_trianglediamonds.svg	4	yes	57	0	283	0	0			0	0			1				0	
6.6.1	win	2023-07-15	20:29:28	20:36:45	433718	60e9cbd27102b08fc616fbe6	3	1	practice_z	9	practice_z	9	stimuli_distractor_diamondtriangles.svg	stimuli_distractor_diamondtriangles.svg	13	no	44	0	627	0	0			0	0			1				0	
6.6.1	win	2023-07-15	20:29:28	20:36:45	433718	60e9cbd27102b08fc616fbe6	3	1	practice_z	9	advance_on_keypress_ZEE	10	stimuli_distractor_diamondtriangles.svg	stimuli_distractor_diamondtriangles.svg	13	no	57	0	297	0	0			0	0			1				0	
6.6.1	win	2023-07-15	20:29:28	20:36:49	437626	60e9cbd27102b08fc616fbe6	3	1	practice_z	9	practice_z	11	stimuli_distractor_diamondtriangles.svg	stimuli_distractor_trianglediamonds.svg	14	no	0	1	2000	0	0			0	0			1				0	
6.6.1	win	2023-07-15	20:29:28	20:36:49	437626	60e9cbd27102b08fc616fbe6	3	1	practice_z	9	advance_on_keypress_ZEE	12	stimuli_distractor_diamondtriangles.svg	stimuli_distractor_trianglediamonds.svg	14	no	57	0	374	0	0			0	0			1				0	
6.6.1	win	2023-07-15	20:29:28	20:36:51	440263	60e9cbd27102b08fc616fbe6	3	1	practice_z	9	practice_z	13	stimuli_target_diamondsquares.svg	stimuli_distractor_diamondtriangles.svg	3	yes	44	1	581	0	0			0	0			1				0	
6.6.1	win	2023-07-15	20:29:28	20:36:51	440263	60e9cbd27102b08fc616fbe6	3	1	practice_z	9	advance_on_keypress_ZEE	14	stimuli_target_diamondsquares.svg	stimuli_distractor_diamondtriangles.svg	3	yes	57	0	328	0	0			0	0			1				0	
6.6.1	win	2023-07-15	20:29:28	20:36:54	442683	60e9cbd27102b08fc616fbe6	3	1	practice_z	9	practice_z	15	stimuli_target_diamondsquares.svg	stimuli_distractor_trianglediamonds.svg	6	yes	44	1	473	0	0			0	0			1				0	
6.6.1	win	2023-07-15	20:29:28	20:36:54	442683	60e9cbd27102b08fc616fbe6	3	1	practice_z	9	advance_on_keypress_ZEE	16	stimuli_target_diamondsquares.svg	stimuli_distractor_trianglediamonds.svg	6	yes	57	0	330	0	0			0	0			1				0	
6.6.1	win	2023-07-15	20:29:28	20:36:57	445707	60e9cbd27102b08fc616fbe6	3	1	practice_z	9	practice_z	17	stimuli_distractor_trianglediamonds.svg	stimuli_distractor_diamondtriangles.svg	16	no	44	0	1010	0	0			0	0			1				0	
6.6.1	win	2023-07-15	20:29:28	20:36:57	445707	60e9cbd27102b08fc616fbe6	3	1	practice_z	9	advance_on_keypress_ZEE	18	stimuli_distractor_trianglediamonds.svg	stimuli_distractor_diamondtriangles.svg	16	no	57	0	494	0	0			0	0			1				0	
6.6.1	win	2023-07-15	20:29:28	20:37:00	448738	60e9cbd27102b08fc616fbe6	3	1	practice_z	9	practice_z	19	stimuli_target_squarediamonds.svg	stimuli_distractor_trianglediamonds.svg	5	yes	44	1	848	0	0			0	0			1				0	
6.6.1	win	2023-07-15	20:29:28	20:37:00	448738	60e9cbd27102b08fc616fbe6	3	1	practice_z	9	advance_on_keypress_ZEE	20	stimuli_target_squarediamonds.svg	stimuli_distractor_trianglediamonds.svg	5	yes	57	0	207	0	0			0	0			1				0	
6.6.1	win	2023-07-15	20:29:28	20:37:03	451604	60e9cbd27102b08fc616fbe6	3	1	practice_z	9	practice_z	21	stimuli_distractor_trianglediamonds.svg	stimuli_target_rectanglediamonds.svg	10	yes	44	1	982	0	0			0	0			1				0	
6.6.1	win	2023-07-15	20:29:28	20:37:03	451604	60e9cbd27102b08fc616fbe6	3	1	practice_z	9	advance_on_keypress_ZEE	22	stimuli_distractor_trianglediamonds.svg	stimuli_target_rectanglediamonds.svg	10	yes	57	0	231	0	0			0	0			1				0	
6.6.1	win	2023-07-15	20:29:28	20:37:05	454423	60e9cbd27102b08fc616fbe6	3	1	practice_z	9	practice_z	23	stimuli_distractor_diamondtriangles.svg	stimuli_target_trianglerectangles.svg	9	yes	44	1	901	0	0			0	0			1				0	
6.6.1	win	2023-07-15	20:29:28	20:37:05	454423	60e9cbd27102b08fc616fbe6	3	1	practice_z	9	advance_on_keypress_ZEE	24	stimuli_distractor_diamondtriangles.svg	stimuli_target_trianglerectangles.svg	9	yes	57	0	391	0	0			0	0			1				0	
6.6.1	win	2023-07-15	20:29:28	20:37:08	457384	60e9cbd27102b08fc616fbe6	3	1	practice_z	9	practice_z	25	stimuli_distractor_trianglediamonds.svg	stimuli_target_diamondrectangles.svg	12	yes	44	1	880	0	0			0	0			1				0	
6.6.1	win	2023-07-15	20:29:28	20:37:08	457384	60e9cbd27102b08fc616fbe6	3	1	practice_z	9	advance_on_keypress_ZEE	26	stimuli_distractor_trianglediamonds.svg	stimuli_target_diamondrectangles.svg	12	yes	57	0	220	0	0			0	0			1				0	
6.6.1	win	2023-07-15	20:29:28	20:37:11	459876	60e9cbd27102b08fc616fbe6	3	1	practice_z	9	practice_z	27	stimuli_target_rectanglediamonds.svg	stimuli_distractor_diamondtriangles.svg	1	yes	44	1	578	0	0			0	0			1				0	
6.6.1	win	2023-07-15	20:29:28	20:37:11	459876	60e9cbd27102b08fc616fbe6	3	1	practice_z	9	advance_on_keypress_ZEE	28	stimuli_target_rectanglediamonds.svg	stimuli_distractor_diamondtriangles.svg	1	yes	57	0	1299	0	0			0	0			1				0	
6.6.1	win	2023-07-15	20:29:28	20:37:14	463322	60e9cbd27102b08fc616fbe6	3	1	practice_z	9	practice_z	29	stimuli_target_squarediamonds.svg	stimuli_distractor_diamondtriangles.svg	2	yes	44	1	523	0	0			0	0			1				0	
6.6.1	win	2023-07-15	20:29:28	20:37:14	463322	60e9cbd27102b08fc616fbe6	3	1	practice_z	9	advance_on_keypress_ZEE	30	stimuli_target_squarediamonds.svg	stimuli_distractor_diamondtriangles.svg	2	yes	57	0	222	0	0			0	0			1				0	
6.6.1	win	2023-07-15	20:29:28	20:37:17	466040	60e9cbd27102b08fc616fbe6	3	1	practice_z	9	practice_z	31	stimuli_distractor_trianglediamonds.svg	stimuli_distractor_trianglediamonds.svg	15	no	44	0	878	0	0			0	0			1				0	
6.6.1	win	2023-07-15	20:29:28	20:37:17	466040	60e9cbd27102b08fc616fbe6	3	1	practice_z	9	advance_on_keypress_ZEE	32	stimuli_distractor_trianglediamonds.svg	stimuli_distractor_trianglediamonds.svg	15	no	57	0	410	0	0			0	0			1				0	
6.6.1	win	2023-07-15	20:29:28	20:37:23	472514	60e9cbd27102b08fc616fbe6	3	1	main_z	11	main_z	1	stimuli_target_trianglerectangles.svg	stimuli_distractor_diamondtriangles.svg	21	yes	44	1	745	0	0			0	0			1				0	
6.6.1	win	2023-07-15	20:29:28	20:37:23	472514	60e9cbd27102b08fc616fbe6	3	1	main_z	11	advance_on_keypress_ZEE	2	stimuli_target_trianglerectangles.svg	stimuli_distractor_diamondtriangles.svg	21	yes	57	0	550	0	0			0	0			1				0	
6.6.1	win	2023-07-15	20:29:28	20:37:27	475683	60e9cbd27102b08fc616fbe6	3	1	main_z	11	main_z	3	stimuli_distractor_trianglediamonds.svg	stimuli_distractor_diamondtriangles.svg	35	no	0	1	2000	0	0			0	0			1				0	
6.6.1	win	2023-07-15	20:29:28	20:37:27	475683	60e9cbd27102b08fc616fbe6	3	1	main_z	11	advance_on_keypress_ZEE	4	stimuli_distractor_trianglediamonds.svg	stimuli_distractor_diamondtriangles.svg	35	no	57	0	387	0	0			0	0			1				0	
6.6.1	win	2023-07-15	20:29:28	20:37:28	477327	60e9cbd27102b08fc616fbe6	3	1	main_z	11	main_z	5	stimuli_distractor_diamondtriangles.svg	stimuli_target_trianglesquares.svg	30	yes	44	1	642	0	0			0	0			1				0	
6.6.1	win	2023-07-15	20:29:28	20:37:28	477327	60e9cbd27102b08fc616fbe6	3	1	main_z	11	advance_on_keypress_ZEE	6	stimuli_distractor_diamondtriangles.svg	stimuli_target_trianglesquares.svg	30	yes	57	0	476	0	0			0	0			1				0	
6.6.1	win	2023-07-15	20:29:28	20:37:30	478962	60e9cbd27102b08fc616fbe6	3	1	main_z	11	main_z	7	stimuli_target_squaretriangles.svg	stimuli_distractor_trianglediamonds.svg	3	yes	44	1	543	0	0			0	0			1				0	
6.6.1	win	2023-07-15	20:29:28	20:37:30	478962	60e9cbd27102b08fc616fbe6	3	1	main_z	11	advance_on_keypress_ZEE	8	stimuli_target_squaretriangles.svg	stimuli_distractor_trianglediamonds.svg	3	yes	57	0	428	0	0			0	0			1				0	
6.6.1	win	2023-07-15	20:29:28	20:37:32	480671	60e9cbd27102b08fc616fbe6	3	1	main_z	11	main_z	9	stimuli_distractor_diamondtriangles.svg	stimuli_target_diamondrectangles.svg	31	yes	44	1	664	0	0			0	0			1				0	
6.6.1	win	2023-07-15	20:29:28	20:37:32	480671	60e9cbd27102b08fc616fbe6	3	1	main_z	11	advance_on_keypress_ZEE	10	stimuli_distractor_diamondtriangles.svg	stimuli_target_diamondrectangles.svg	31	yes	57	0	402	0	0			0	0			1				0	
6.6.1	win	2023-07-15	20:29:28	20:37:33	482218	60e9cbd27102b08fc616fbe6	3	1	main_z	11	main_z	11	stimuli_distractor_trianglediamonds.svg	stimuli_target_trianglesquares.svg	26	yes	44	1	532	0	0			0	0			1				0	
6.6.1	win	2023-07-15	20:29:28	20:37:33	482218	60e9cbd27102b08fc616fbe6	3	1	main_z	11	advance_on_keypress_ZEE	12	stimuli_distractor_trianglediamonds.svg	stimuli_target_trianglesquares.svg	26	yes	57	0	397	0	0			0	0			1				0	
6.6.1	win	2023-07-15	20:29:28	20:37:35	483758	60e9cbd27102b08fc616fbe6	3	1	main_z	11	main_z	13	stimuli_target_diamondsquares.svg	stimuli_distractor_diamondtriangles.svg	24	yes	44	1	528	0	0			0	0			1				0	
6.6.1	win	2023-07-15	20:29:28	20:37:35	483758	60e9cbd27102b08fc616fbe6	3	1	main_z	11	advance_on_keypress_ZEE	14	stimuli_target_diamondsquares.svg	stimuli_distractor_diamondtriangles.svg	24	yes	57	0	371	0	0			0	0			1				0	
6.6.1	win	2023-07-15	20:29:28	20:37:36	485292	60e9cbd27102b08fc616fbe6	3	1	main_z	11	main_z	15	stimuli_distractor_diamondtriangles.svg	stimuli_target_diamondsquares.svg	32	yes	44	1	542	0	0			0	0			1				0	
6.6.1	win	2023-07-15	20:29:28	20:37:36	485292	60e9cbd27102b08fc616fbe6	3	1	main_z	11	advance_on_keypress_ZEE	16	stimuli_distractor_diamondtriangles.svg	stimuli_target_diamondsquares.svg	32	yes	57	0	406	0	0			0	0			1				0	
6.6.1	win	2023-07-15	20:29:28	20:37:38	487066	60e9cbd27102b08fc616fbe6	3	1	main_z	11	main_z	17	stimuli_target_trianglesquares.svg	stimuli_distractor_trianglediamonds.svg	18	yes	44	1	754	0	0			0	0			1				0	
6.6.1	win	2023-07-15	20:29:28	20:37:38	487066	60e9cbd27102b08fc616fbe6	3	1	main_z	11	advance_on_keypress_ZEE	18	stimuli_target_trianglesquares.svg	stimuli_distractor_trianglediamonds.svg	18	yes	57	0	387	0	0			0	0			1				0	
6.6.1	win	2023-07-15	20:29:28	20:37:40	488849	60e9cbd27102b08fc616fbe6	3	1	main_z	11	main_z	19	stimuli_target_trianglerectangles.svg	stimuli_distractor_trianglediamonds.svg	17	yes	44	1	776	0	0			0	0			1				0	
6.6.1	win	2023-07-15	20:29:28	20:37:40	488849	60e9cbd27102b08fc616fbe6	3	1	main_z	11	advance_on_keypress_ZEE	20	stimuli_target_trianglerectangles.svg	stimuli_distractor_trianglediamonds.svg	17	yes	57	0	372	0	0			0	0			1				0	
6.6.1	win	2023-07-15	20:29:28	20:37:42	490878	60e9cbd27102b08fc616fbe6	3	1	main_z	11	main_z	21	stimuli_distractor_diamondtriangles.svg	stimuli_target_rectanglediamonds.svg	14	yes	44	1	1039	0	0			0	0			1				0	
6.6.1	win	2023-07-15	20:29:28	20:37:42	490878	60e9cbd27102b08fc616fbe6	3	1	main_z	11	advance_on_keypress_ZEE	22	stimuli_distractor_diamondtriangles.svg	stimuli_target_rectanglediamonds.svg	14	yes	57	0	307	0	0			0	0			1				0	
6.6.1	win	2023-07-15	20:29:28	20:37:43	492399	60e9cbd27102b08fc616fbe6	3	1	main_z	11	main_z	23	stimuli_target_rectanglediamonds.svg	stimuli_distractor_diamondtriangles.svg	6	yes	44	1	596	0	0			0	0			1				0	
6.6.1	win	2023-07-15	20:29:28	20:37:43	492399	60e9cbd27102b08fc616fbe6	3	1	main_z	11	advance_on_keypress_ZEE	24	stimuli_target_rectanglediamonds.svg	stimuli_distractor_diamondtriangles.svg	6	yes	57	0	396	0	0			0	0			1				0	
6.6.1	win	2023-07-15	20:29:28	20:37:45	494083	60e9cbd27102b08fc616fbe6	3	1	main_z	11	main_z	25	stimuli_target_rectangletriangles.svg	stimuli_distractor_diamondtriangles.svg	5	yes	44	1	667	0	0			0	0			1				0	
6.6.1	win	2023-07-15	20:29:28	20:37:45	494083	60e9cbd27102b08fc616fbe6	3	1	main_z	11	advance_on_keypress_ZEE	26	stimuli_target_rectangletriangles.svg	stimuli_distractor_diamondtriangles.svg	5	yes	57	0	339	0	0			0	0			1				0	
6.6.1	win	2023-07-15	20:29:28	20:37:47	495753	60e9cbd27102b08fc616fbe6	3	1	main_z	11	main_z	27	stimuli_distractor_trianglediamonds.svg	stimuli_target_squarediamonds.svg	12	yes	44	1	709	0	0			0	0			1				0	
6.6.1	win	2023-07-15	20:29:28	20:37:47	495753	60e9cbd27102b08fc616fbe6	3	1	main_z	11	advance_on_keypress_ZEE	28	stimuli_distractor_trianglediamonds.svg	stimuli_target_squarediamonds.svg	12	yes	57	0	333	0	0			0	0			1				0	
6.6.1	win	2023-07-15	20:29:28	20:37:50	498709	60e9cbd27102b08fc616fbe6	3	1	main_z	11	main_z	29	stimuli_distractor_trianglediamonds.svg	stimuli_distractor_diamondtriangles.svg	36	no	0	1	2000	0	0			0	0			1				0	
6.6.1	win	2023-07-15	20:29:28	20:37:50	498709	60e9cbd27102b08fc616fbe6	3	1	main_z	11	advance_on_keypress_ZEE	30	stimuli_distractor_trianglediamonds.svg	stimuli_distractor_diamondtriangles.svg	36	no	57	0	289	0	0			0	0			1				0	
6.6.1	win	2023-07-15	20:29:28	20:37:51	500208	60e9cbd27102b08fc616fbe6	3	1	main_z	11	main_z	31	stimuli_distractor_diamondtriangles.svg	stimuli_distractor_trianglediamonds.svg	37	no	44	0	587	0	0			0	0			1				0	
6.6.1	win	2023-07-15	20:29:28	20:37:51	500208	60e9cbd27102b08fc616fbe6	3	1	main_z	11	advance_on_keypress_ZEE	32	stimuli_distractor_diamondtriangles.svg	stimuli_distractor_trianglediamonds.svg	37	no	57	0	441	0	0			0	0			1				0	
6.6.1	win	2023-07-15	20:29:28	20:37:54	503272	60e9cbd27102b08fc616fbe6	3	1	main_z	11	main_z	33	stimuli_distractor_diamondtriangles.svg	stimuli_distractor_diamondtriangles.svg	40	no	0	1	2000	0	0			0	0			1				0	
6.6.1	win	2023-07-15	20:29:28	20:37:54	503272	60e9cbd27102b08fc616fbe6	3	1	main_z	11	advance_on_keypress_ZEE	34	stimuli_distractor_diamondtriangles.svg	stimuli_distractor_diamondtriangles.svg	40	no	57	0	371	0	0			0	0			1				0	
6.6.1	win	2023-07-15	20:29:28	20:37:56	504757	60e9cbd27102b08fc616fbe6	3	1	main_z	11	main_z	35	stimuli_target_diamondrectangles.svg	stimuli_distractor_trianglediamonds.svg	19	yes	44	1	498	0	0			0	0			1				0	
6.6.1	win	2023-07-15	20:29:28	20:37:56	504757	60e9cbd27102b08fc616fbe6	3	1	main_z	11	advance_on_keypress_ZEE	36	stimuli_target_diamondrectangles.svg	stimuli_distractor_trianglediamonds.svg	19	yes	57	0	391	0	0			0	0			1				0	
6.6.1	win	2023-07-15	20:29:28	20:37:57	506422	60e9cbd27102b08fc616fbe6	3	1	main_z	11	main_z	37	stimuli_distractor_diamondtriangles.svg	stimuli_target_rectangletriangles.svg	13	yes	44	1	657	0	0			0	0			1				0	
6.6.1	win	2023-07-15	20:29:28	20:37:57	506422	60e9cbd27102b08fc616fbe6	3	1	main_z	11	advance_on_keypress_ZEE	38	stimuli_distractor_diamondtriangles.svg	stimuli_target_rectangletriangles.svg	13	yes	57	0	347	0	0			0	0			1				0	
6.6.1	win	2023-07-15	20:29:28	20:37:59	508000	60e9cbd27102b08fc616fbe6	3	1	main_z	11	main_z	39	stimuli_target_squarediamonds.svg	stimuli_distractor_diamondtriangles.svg	8	yes	44	1	610	0	0			0	0			1				0	
6.6.1	win	2023-07-15	20:29:28	20:37:59	508000	60e9cbd27102b08fc616fbe6	3	1	main_z	11	advance_on_keypress_ZEE	40	stimuli_target_squarediamonds.svg	stimuli_distractor_diamondtriangles.svg	8	yes	57	0	395	0	0			0	0			1				0	
6.6.1	win	2023-07-15	20:29:28	20:38:01	509709	60e9cbd27102b08fc616fbe6	3	1	main_z	11	main_z	41	stimuli_distractor_trianglediamonds.svg	stimuli_target_diamondsquares.svg	28	yes	44	1	692	0	0			0	0			1				0	
6.6.1	win	2023-07-15	20:29:28	20:38:01	509709	60e9cbd27102b08fc616fbe6	3	1	main_z	11	advance_on_keypress_ZEE	42	stimuli_distractor_trianglediamonds.svg	stimuli_target_diamondsquares.svg	28	yes	57	0	333	0	0			0	0			1				0	
6.6.1	win	2023-07-15	20:29:28	20:38:02	511541	60e9cbd27102b08fc616fbe6	3	1	main_z	11	main_z	43	stimuli_distractor_trianglediamonds.svg	stimuli_distractor_trianglediamonds.svg	33	no	44	0	888	0	0			0	0			1				0	
6.6.1	win	2023-07-15	20:29:28	20:38:02	511541	60e9cbd27102b08fc616fbe6	3	1	main_z	11	advance_on_keypress_ZEE	44	stimuli_distractor_trianglediamonds.svg	stimuli_distractor_trianglediamonds.svg	33	no	57	0	344	0	0			0	0			1				0	
6.6.1	win	2023-07-15	20:29:28	20:38:04	513189	60e9cbd27102b08fc616fbe6	3	1	main_z	11	main_z	45	stimuli_distractor_trianglediamonds.svg	stimuli_target_rectangletriangles.svg	9	yes	44	1	691	0	0			0	0			1				0	
6.6.1	win	2023-07-15	20:29:28	20:38:04	513189	60e9cbd27102b08fc616fbe6	3	1	main_z	11	advance_on_keypress_ZEE	46	stimuli_distractor_trianglediamonds.svg	stimuli_target_rectangletriangles.svg	9	yes	57	0	349	0	0			0	0			1				0	
6.6.1	win	2023-07-15	20:29:28	20:38:06	514906	60e9cbd27102b08fc616fbe6	3	1	main_z	11	main_z	47	stimuli_distractor_trianglediamonds.svg	stimuli_target_trianglerectangles.svg	25	yes	44	1	748	0	0			0	0			1				0	
6.6.1	win	2023-07-15	20:29:28	20:38:06	514906	60e9cbd27102b08fc616fbe6	3	1	main_z	11	advance_on_keypress_ZEE	48	stimuli_distractor_trianglediamonds.svg	stimuli_target_trianglerectangles.svg	25	yes	57	0	353	0	0			0	0			1				0	
6.6.1	win	2023-07-15	20:29:28	20:38:09	517872	60e9cbd27102b08fc616fbe6	3	1	main_z	11	main_z	49	stimuli_distractor_diamondtriangles.svg	stimuli_distractor_trianglediamonds.svg	38	no	0	1	2000	0	0			0	0			1				0	
6.6.1	win	2023-07-15	20:29:28	20:38:09	517872	60e9cbd27102b08fc616fbe6	3	1	main_z	11	advance_on_keypress_ZEE	50	stimuli_distractor_diamondtriangles.svg	stimuli_distractor_trianglediamonds.svg	38	no	57	0	285	0	0			0	0			1				0	
6.6.1	win	2023-07-15	20:29:28	20:38:10	519306	60e9cbd27102b08fc616fbe6	3	1	main_z	11	main_z	51	stimuli_target_diamondsquares.svg	stimuli_distractor_trianglediamonds.svg	20	yes	44	1	532	0	0			0	0			1				0	
6.6.1	win	2023-07-15	20:29:28	20:38:10	519306	60e9cbd27102b08fc616fbe6	3	1	main_z	11	advance_on_keypress_ZEE	52	stimuli_target_diamondsquares.svg	stimuli_distractor_trianglediamonds.svg	20	yes	57	0	371	0	0			0	0			1				0	
6.6.1	win	2023-07-15	20:29:28	20:38:12	520909	60e9cbd27102b08fc616fbe6	3	1	main_z	11	main_z	53	stimuli_target_diamondrectangles.svg	stimuli_distractor_diamondtriangles.svg	23	yes	44	1	614	0	0			0	0			1				0	
6.6.1	win	2023-07-15	20:29:28	20:38:12	520909	60e9cbd27102b08fc616fbe6	3	1	main_z	11	advance_on_keypress_ZEE	54	stimuli_target_diamondrectangles.svg	stimuli_distractor_diamondtriangles.svg	23	yes	57	0	320	0	0			0	0			1				0	
6.6.1	win	2023-07-15	20:29:28	20:38:15	523848	60e9cbd27102b08fc616fbe6	3	1	main_z	11	main_z	55	stimuli_distractor_diamondtriangles.svg	stimuli_distractor_diamondtriangles.svg	39	no	0	1	2000	0	0			0	0			1				0	
6.6.1	win	2023-07-15	20:29:28	20:38:15	523848	60e9cbd27102b08fc616fbe6	3	1	main_z	11	advance_on_keypress_ZEE	56	stimuli_distractor_diamondtriangles.svg	stimuli_distractor_diamondtriangles.svg	39	no	57	0	514	0	0			0	0			1				0	
6.6.1	win	2023-07-15	20:29:28	20:38:18	526978	60e9cbd27102b08fc616fbe6	3	1	main_z	11	main_z	57	stimuli_distractor_trianglediamonds.svg	stimuli_distractor_trianglediamonds.svg	34	no	0	1	2000	0	0			0	0			1				0	
6.6.1	win	2023-07-15	20:29:28	20:38:18	526978	60e9cbd27102b08fc616fbe6	3	1	main_z	11	advance_on_keypress_ZEE	58	stimuli_distractor_trianglediamonds.svg	stimuli_distractor_trianglediamonds.svg	34	no	57	0	299	0	0			0	0			1				0	
6.6.1	win	2023-07-15	20:29:28	20:38:20	528677	60e9cbd27102b08fc616fbe6	3	1	main_z	11	main_z	59	stimuli_target_rectangletriangles.svg	stimuli_distractor_trianglediamonds.svg	1	yes	44	1	782	0	0			0	0			1				0	
6.6.1	win	2023-07-15	20:29:28	20:38:20	528677	60e9cbd27102b08fc616fbe6	3	1	main_z	11	advance_on_keypress_ZEE	60	stimuli_target_rectangletriangles.svg	stimuli_distractor_trianglediamonds.svg	1	yes	57	0	363	0	0			0	0			1				0	
6.6.1	win	2023-07-15	20:29:28	20:38:21	530263	60e9cbd27102b08fc616fbe6	3	1	main_z	11	main_z	61	stimuli_distractor_diamondtriangles.svg	stimuli_target_trianglerectangles.svg	29	yes	44	1	602	0	0			0	0			1				0	
6.6.1	win	2023-07-15	20:29:28	20:38:21	530263	60e9cbd27102b08fc616fbe6	3	1	main_z	11	advance_on_keypress_ZEE	62	stimuli_distractor_diamondtriangles.svg	stimuli_target_trianglerectangles.svg	29	yes	57	0	410	0	0			0	0			1				0	
6.6.1	win	2023-07-15	20:29:28	20:38:23	531879	60e9cbd27102b08fc616fbe6	3	1	main_z	11	main_z	63	stimuli_target_squarediamonds.svg	stimuli_distractor_trianglediamonds.svg	4	yes	44	1	587	0	0			0	0			1				0	
6.6.1	win	2023-07-15	20:29:28	20:38:23	531879	60e9cbd27102b08fc616fbe6	3	1	main_z	11	advance_on_keypress_ZEE	64	stimuli_target_squarediamonds.svg	stimuli_distractor_trianglediamonds.svg	4	yes	57	0	280	0	0			0	0			1				0	
6.6.1	win	2023-07-15	20:29:28	20:38:24	533285	60e9cbd27102b08fc616fbe6	3	1	main_z	11	main_z	65	stimuli_target_squaretriangles.svg	stimuli_distractor_diamondtriangles.svg	7	yes	44	1	506	0	0			0	0			1				0	
6.6.1	win	2023-07-15	20:29:28	20:38:24	533285	60e9cbd27102b08fc616fbe6	3	1	main_z	11	advance_on_keypress_ZEE	66	stimuli_target_squaretriangles.svg	stimuli_distractor_diamondtriangles.svg	7	yes	57	0	310	0	0			0	0			1				0	
6.6.1	win	2023-07-15	20:29:28	20:38:26	534820	60e9cbd27102b08fc616fbe6	3	1	main_z	11	main_z	67	stimuli_distractor_diamondtriangles.svg	stimuli_target_squaretriangles.svg	15	yes	44	1	605	0	0			0	0			1				0	
6.6.1	win	2023-07-15	20:29:28	20:38:26	534820	60e9cbd27102b08fc616fbe6	3	1	main_z	11	advance_on_keypress_ZEE	68	stimuli_distractor_diamondtriangles.svg	stimuli_target_squaretriangles.svg	15	yes	57	0	308	0	0			0	0			1				0	
6.6.1	win	2023-07-15	20:29:28	20:38:27	536525	60e9cbd27102b08fc616fbe6	3	1	main_z	11	main_z	69	stimuli_distractor_trianglediamonds.svg	stimuli_target_diamondrectangles.svg	27	yes	44	1	779	0	0			0	0			1				0	
6.6.1	win	2023-07-15	20:29:28	20:38:27	536525	60e9cbd27102b08fc616fbe6	3	1	main_z	11	advance_on_keypress_ZEE	70	stimuli_distractor_trianglediamonds.svg	stimuli_target_diamondrectangles.svg	27	yes	57	0	306	0	0			0	0			1				0	
6.6.1	win	2023-07-15	20:29:28	20:38:29	538008	60e9cbd27102b08fc616fbe6	3	1	main_z	11	main_z	71	stimuli_distractor_trianglediamonds.svg	stimuli_target_squaretriangles.svg	11	yes	44	1	561	0	0			0	0			1				0	
6.6.1	win	2023-07-15	20:29:28	20:38:29	538008	60e9cbd27102b08fc616fbe6	3	1	main_z	11	advance_on_keypress_ZEE	72	stimuli_distractor_trianglediamonds.svg	stimuli_target_squaretriangles.svg	11	yes	57	0	314	0	0			0	0			1				0	
6.6.1	win	2023-07-15	20:29:28	20:38:30	539469	60e9cbd27102b08fc616fbe6	3	1	main_z	11	main_z	73	stimuli_distractor_trianglediamonds.svg	stimuli_target_rectanglediamonds.svg	10	yes	44	1	531	0	0			0	0			1				0	
6.6.1	win	2023-07-15	20:29:28	20:38:30	539469	60e9cbd27102b08fc616fbe6	3	1	main_z	11	advance_on_keypress_ZEE	74	stimuli_distractor_trianglediamonds.svg	stimuli_target_rectanglediamonds.svg	10	yes	57	0	321	0	0			0	0			1				0	
6.6.1	win	2023-07-15	20:29:28	20:38:32	540828	60e9cbd27102b08fc616fbe6	3	1	main_z	11	main_z	75	stimuli_target_rectanglediamonds.svg	stimuli_distractor_trianglediamonds.svg	2	yes	44	1	424	0	0			0	0			1				0	
6.6.1	win	2023-07-15	20:29:28	20:38:32	540828	60e9cbd27102b08fc616fbe6	3	1	main_z	11	advance_on_keypress_ZEE	76	stimuli_target_rectanglediamonds.svg	stimuli_distractor_trianglediamonds.svg	2	yes	57	0	322	0	0			0	0			1				0	
6.6.1	win	2023-07-15	20:29:28	20:38:33	542159	60e9cbd27102b08fc616fbe6	3	1	main_z	11	main_z	77	stimuli_target_trianglesquares.svg	stimuli_distractor_diamondtriangles.svg	22	yes	44	1	392	0	0			0	0			1				0	
6.6.1	win	2023-07-15	20:29:28	20:38:33	542159	60e9cbd27102b08fc616fbe6	3	1	main_z	11	advance_on_keypress_ZEE	78	stimuli_target_trianglesquares.svg	stimuli_distractor_diamondtriangles.svg	22	yes	57	0	294	0	0			0	0			1				0	
6.6.1	win	2023-07-15	20:29:28	20:38:34	543528	60e9cbd27102b08fc616fbe6	3	1	main_z	11	main_z	79	stimuli_distractor_diamondtriangles.svg	stimuli_target_squarediamonds.svg	16	yes	44	1	463	0	0			0	0			1				0	
6.6.1	win	2023-07-15	20:29:28	20:38:34	543528	60e9cbd27102b08fc616fbe6	3	1	main_z	11	advance_on_keypress_ZEE	80	stimuli_distractor_diamondtriangles.svg	stimuli_target_squarediamonds.svg	16	yes	57	0	252	0	0			0	0			1				0	
6.6.1	win	2023-07-15	20:29:28	20:38:36	544788	60e9cbd27102b08fc616fbe6	3	1	main_z	11	main_z	81	stimuli_target_trianglesquares.svg	stimuli_distractor_trianglediamonds.svg	18	yes	44	1	386	0	0			0	0			1				0	
6.6.1	win	2023-07-15	20:29:28	20:38:36	544788	60e9cbd27102b08fc616fbe6	3	1	main_z	11	advance_on_keypress_ZEE	82	stimuli_target_trianglesquares.svg	stimuli_distractor_trianglediamonds.svg	18	yes	57	0	256	0	0			0	0			1				0	
6.6.1	win	2023-07-15	20:29:28	20:38:37	546121	60e9cbd27102b08fc616fbe6	3	1	main_z	11	main_z	83	stimuli_target_squarediamonds.svg	stimuli_distractor_diamondtriangles.svg	8	yes	44	1	460	0	0			0	0			1				0	
6.6.1	win	2023-07-15	20:29:28	20:38:37	546121	60e9cbd27102b08fc616fbe6	3	1	main_z	11	advance_on_keypress_ZEE	84	stimuli_target_squarediamonds.svg	stimuli_distractor_diamondtriangles.svg	8	yes	57	0	289	0	0			0	0			1				0	
6.6.1	win	2023-07-15	20:29:28	20:38:40	549031	60e9cbd27102b08fc616fbe6	3	1	main_z	11	main_z	85	stimuli_distractor_trianglediamonds.svg	stimuli_distractor_trianglediamonds.svg	33	no	0	1	2000	0	0			0	0			1				0	
6.6.1	win	2023-07-15	20:29:28	20:38:40	549031	60e9cbd27102b08fc616fbe6	3	1	main_z	11	advance_on_keypress_ZEE	86	stimuli_distractor_trianglediamonds.svg	stimuli_distractor_trianglediamonds.svg	33	no	57	0	546	0	0			0	0			1				0	
6.6.1	win	2023-07-15	20:29:28	20:38:42	550718	60e9cbd27102b08fc616fbe6	3	1	main_z	11	main_z	87	stimuli_distractor_trianglediamonds.svg	stimuli_target_trianglesquares.svg	26	yes	44	1	522	0	0			0	0			1				0	
6.6.1	win	2023-07-15	20:29:28	20:38:42	550718	60e9cbd27102b08fc616fbe6	3	1	main_z	11	advance_on_keypress_ZEE	88	stimuli_distractor_trianglediamonds.svg	stimuli_target_trianglesquares.svg	26	yes	57	0	374	0	0			0	0			1				0	
6.6.1	win	2023-07-15	20:29:28	20:38:43	552198	60e9cbd27102b08fc616fbe6	3	1	main_z	11	main_z	89	stimuli_distractor_trianglediamonds.svg	stimuli_target_diamondrectangles.svg	27	yes	44	1	493	0	0			0	0			1				0	
6.6.1	win	2023-07-15	20:29:28	20:38:43	552198	60e9cbd27102b08fc616fbe6	3	1	main_z	11	advance_on_keypress_ZEE	90	stimuli_distractor_trianglediamonds.svg	stimuli_target_diamondrectangles.svg	27	yes	57	0	299	0	0			0	0			1				0	
6.6.1	win	2023-07-15	20:29:28	20:38:45	553772	60e9cbd27102b08fc616fbe6	3	1	main_z	11	main_z	91	stimuli_target_squaretriangles.svg	stimuli_distractor_diamondtriangles.svg	7	yes	44	1	664	0	0			0	0			1				0	
6.6.1	win	2023-07-15	20:29:28	20:38:45	553772	60e9cbd27102b08fc616fbe6	3	1	main_z	11	advance_on_keypress_ZEE	92	stimuli_target_squaretriangles.svg	stimuli_distractor_diamondtriangles.svg	7	yes	57	0	311	0	0			0	0			1				0	
6.6.1	win	2023-07-15	20:29:28	20:38:46	555203	60e9cbd27102b08fc616fbe6	3	1	main_z	11	main_z	93	stimuli_target_diamondsquares.svg	stimuli_distractor_diamondtriangles.svg	24	yes	44	1	504	0	0			0	0			1				0	
6.6.1	win	2023-07-15	20:29:28	20:38:46	555203	60e9cbd27102b08fc616fbe6	3	1	main_z	11	advance_on_keypress_ZEE	94	stimuli_target_diamondsquares.svg	stimuli_distractor_diamondtriangles.svg	24	yes	57	0	333	0	0			0	0			1				0	
6.6.1	win	2023-07-15	20:29:28	20:38:49	558159	60e9cbd27102b08fc616fbe6	3	1	main_z	11	main_z	95	stimuli_distractor_diamondtriangles.svg	stimuli_distractor_diamondtriangles.svg	39	no	0	1	2000	0	0			0	0			1				0	
6.6.1	win	2023-07-15	20:29:28	20:38:49	558159	60e9cbd27102b08fc616fbe6	3	1	main_z	11	advance_on_keypress_ZEE	96	stimuli_distractor_diamondtriangles.svg	stimuli_distractor_diamondtriangles.svg	39	no	57	0	391	0	0			0	0			1				0	
6.6.1	win	2023-07-15	20:29:28	20:38:51	559689	60e9cbd27102b08fc616fbe6	3	1	main_z	11	main_z	97	stimuli_distractor_diamondtriangles.svg	stimuli_target_squarediamonds.svg	16	yes	44	1	517	0	0			0	0			1				0	
6.6.1	win	2023-07-15	20:29:28	20:38:51	559689	60e9cbd27102b08fc616fbe6	3	1	main_z	11	advance_on_keypress_ZEE	98	stimuli_distractor_diamondtriangles.svg	stimuli_target_squarediamonds.svg	16	yes	57	0	350	0	0			0	0			1				0	
6.6.1	win	2023-07-15	20:29:28	20:38:52	561191	60e9cbd27102b08fc616fbe6	3	1	main_z	11	main_z	99	stimuli_target_diamondsquares.svg	stimuli_distractor_trianglediamonds.svg	20	yes	44	1	538	0	0			0	0			1				0	
6.6.1	win	2023-07-15	20:29:28	20:38:52	561191	60e9cbd27102b08fc616fbe6	3	1	main_z	11	advance_on_keypress_ZEE	100	stimuli_target_diamondsquares.svg	stimuli_distractor_trianglediamonds.svg	20	yes	57	0	310	0	0			0	0			1				0	
6.6.1	win	2023-07-15	20:29:28	20:38:54	562690	60e9cbd27102b08fc616fbe6	3	1	main_z	11	main_z	101	stimuli_target_squaretriangles.svg	stimuli_distractor_trianglediamonds.svg	3	yes	44	1	572	0	0			0	0			1				0	
6.6.1	win	2023-07-15	20:29:28	20:38:54	562690	60e9cbd27102b08fc616fbe6	3	1	main_z	11	advance_on_keypress_ZEE	102	stimuli_target_squaretriangles.svg	stimuli_distractor_trianglediamonds.svg	3	yes	57	0	305	0	0			0	0			1				0	
6.6.1	win	2023-07-15	20:29:28	20:38:55	564171	60e9cbd27102b08fc616fbe6	3	1	main_z	11	main_z	103	stimuli_distractor_diamondtriangles.svg	stimuli_target_rectangletriangles.svg	13	yes	44	1	563	0	0			0	0			1				0	
6.6.1	win	2023-07-15	20:29:28	20:38:55	564171	60e9cbd27102b08fc616fbe6	3	1	main_z	11	advance_on_keypress_ZEE	104	stimuli_distractor_diamondtriangles.svg	stimuli_target_rectangletriangles.svg	13	yes	57	0	287	0	0			0	0			1				0	
6.6.1	win	2023-07-15	20:29:28	20:38:57	565667	60e9cbd27102b08fc616fbe6	3	1	main_z	11	main_z	105	stimuli_distractor_diamondtriangles.svg	stimuli_target_trianglesquares.svg	30	yes	44	1	598	0	0			0	0			1				0	
6.6.1	win	2023-07-15	20:29:28	20:38:57	565667	60e9cbd27102b08fc616fbe6	3	1	main_z	11	advance_on_keypress_ZEE	106	stimuli_distractor_diamondtriangles.svg	stimuli_target_trianglesquares.svg	30	yes	57	0	369	0	0			0	0			1				0	
6.6.1	win	2023-07-15	20:29:28	20:38:58	567154	60e9cbd27102b08fc616fbe6	3	1	main_z	11	main_z	107	stimuli_distractor_diamondtriangles.svg	stimuli_target_diamondrectangles.svg	31	yes	44	1	499	0	0			0	0			1				0	
6.6.1	win	2023-07-15	20:29:28	20:38:58	567154	60e9cbd27102b08fc616fbe6	3	1	main_z	11	advance_on_keypress_ZEE	108	stimuli_distractor_diamondtriangles.svg	stimuli_target_diamondrectangles.svg	31	yes	57	0	344	0	0			0	0			1				0	
6.6.1	win	2023-07-15	20:29:28	20:39:00	568690	60e9cbd27102b08fc616fbe6	3	1	main_z	11	main_z	109	stimuli_target_diamondrectangles.svg	stimuli_distractor_trianglediamonds.svg	19	yes	44	1	573	0	0			0	0			1				0	
6.6.1	win	2023-07-15	20:29:28	20:39:00	568690	60e9cbd27102b08fc616fbe6	3	1	main_z	11	advance_on_keypress_ZEE	110	stimuli_target_diamondrectangles.svg	stimuli_distractor_trianglediamonds.svg	19	yes	57	0	350	0	0			0	0			1				0	
6.6.1	win	2023-07-15	20:29:28	20:39:02	571396	60e9cbd27102b08fc616fbe6	3	1	main_z	11	main_z	111	stimuli_target_rectanglediamonds.svg	stimuli_distractor_diamondtriangles.svg	6	yes	44	1	1745	0	0			0	0			1				0	
6.6.1	win	2023-07-15	20:29:28	20:39:02	571396	60e9cbd27102b08fc616fbe6	3	1	main_z	11	advance_on_keypress_ZEE	112	stimuli_target_rectanglediamonds.svg	stimuli_distractor_diamondtriangles.svg	6	yes	57	0	341	0	0			0	0			1				0	
6.6.1	win	2023-07-15	20:29:28	20:39:04	572965	60e9cbd27102b08fc616fbe6	3	1	main_z	11	main_z	113	stimuli_distractor_trianglediamonds.svg	stimuli_target_trianglerectangles.svg	25	yes	44	1	614	0	0			0	0			1				0	
6.6.1	win	2023-07-15	20:29:28	20:39:04	572965	60e9cbd27102b08fc616fbe6	3	1	main_z	11	advance_on_keypress_ZEE	114	stimuli_distractor_trianglediamonds.svg	stimuli_target_trianglerectangles.svg	25	yes	57	0	306	0	0			0	0			1				0	
6.6.1	win	2023-07-15	20:29:28	20:39:05	574517	60e9cbd27102b08fc616fbe6	3	1	main_z	11	main_z	115	stimuli_target_trianglerectangles.svg	stimuli_distractor_trianglediamonds.svg	17	yes	44	1	635	0	0			0	0			1				0	
6.6.1	win	2023-07-15	20:29:28	20:39:05	574517	60e9cbd27102b08fc616fbe6	3	1	main_z	11	advance_on_keypress_ZEE	116	stimuli_target_trianglerectangles.svg	stimuli_distractor_trianglediamonds.svg	17	yes	57	0	321	0	0			0	0			1				0	
6.6.1	win	2023-07-15	20:29:28	20:39:07	576386	60e9cbd27102b08fc616fbe6	3	1	main_z	11	main_z	117	stimuli_distractor_diamondtriangles.svg	stimuli_target_trianglerectangles.svg	29	yes	44	1	923	0	0			0	0			1				0	
6.6.1	win	2023-07-15	20:29:28	20:39:07	576386	60e9cbd27102b08fc616fbe6	3	1	main_z	11	advance_on_keypress_ZEE	118	stimuli_distractor_diamondtriangles.svg	stimuli_target_trianglerectangles.svg	29	yes	57	0	298	0	0			0	0			1				0	
6.6.1	win	2023-07-15	20:29:28	20:39:09	577910	60e9cbd27102b08fc616fbe6	3	1	main_z	11	main_z	119	stimuli_distractor_diamondtriangles.svg	stimuli_target_rectanglediamonds.svg	14	yes	44	1	610	0	0			0	0			1				0	
6.6.1	win	2023-07-15	20:29:28	20:39:09	577910	60e9cbd27102b08fc616fbe6	3	1	main_z	11	advance_on_keypress_ZEE	120	stimuli_distractor_diamondtriangles.svg	stimuli_target_rectanglediamonds.svg	14	yes	57	0	319	0	0			0	0			1				0	
6.6.1	win	2023-07-15	20:29:28	20:39:12	580849	60e9cbd27102b08fc616fbe6	3	1	main_z	11	main_z	121	stimuli_distractor_diamondtriangles.svg	stimuli_distractor_trianglediamonds.svg	37	no	0	1	2000	0	0			0	0			1				0	
6.6.1	win	2023-07-15	20:29:28	20:39:12	580849	60e9cbd27102b08fc616fbe6	3	1	main_z	11	advance_on_keypress_ZEE	122	stimuli_distractor_diamondtriangles.svg	stimuli_distractor_trianglediamonds.svg	37	no	57	0	406	0	0			0	0			1				0	
6.6.1	win	2023-07-15	20:29:28	20:39:13	582412	60e9cbd27102b08fc616fbe6	3	1	main_z	11	main_z	123	stimuli_target_rectangletriangles.svg	stimuli_distractor_diamondtriangles.svg	5	yes	44	1	544	0	0			0	0			1				0	
6.6.1	win	2023-07-15	20:29:28	20:39:13	582412	60e9cbd27102b08fc616fbe6	3	1	main_z	11	advance_on_keypress_ZEE	124	stimuli_target_rectangletriangles.svg	stimuli_distractor_diamondtriangles.svg	5	yes	57	0	336	0	0			0	0			1				0	
6.6.1	win	2023-07-15	20:29:28	20:39:15	583963	60e9cbd27102b08fc616fbe6	3	1	main_z	11	main_z	125	stimuli_target_trianglesquares.svg	stimuli_distractor_diamondtriangles.svg	22	yes	44	1	604	0	0			0	0			1				0	
6.6.1	win	2023-07-15	20:29:28	20:39:15	583963	60e9cbd27102b08fc616fbe6	3	1	main_z	11	advance_on_keypress_ZEE	126	stimuli_target_trianglesquares.svg	stimuli_distractor_diamondtriangles.svg	22	yes	57	0	342	0	0			0	0			1				0	
6.6.1	win	2023-07-15	20:29:28	20:39:18	586930	60e9cbd27102b08fc616fbe6	3	1	main_z	11	main_z	127	stimuli_distractor_diamondtriangles.svg	stimuli_distractor_trianglediamonds.svg	38	no	0	1	2000	0	0			0	0			1				0	
6.6.1	win	2023-07-15	20:29:28	20:39:18	586930	60e9cbd27102b08fc616fbe6	3	1	main_z	11	advance_on_keypress_ZEE	128	stimuli_distractor_diamondtriangles.svg	stimuli_distractor_trianglediamonds.svg	38	no	57	0	414	0	0			0	0			1				0	
6.6.1	win	2023-07-15	20:29:28	20:39:21	589957	60e9cbd27102b08fc616fbe6	3	1	main_z	11	main_z	129	stimuli_distractor_diamondtriangles.svg	stimuli_distractor_diamondtriangles.svg	40	no	0	1	2000	0	0			0	0			1				0	
6.6.1	win	2023-07-15	20:29:28	20:39:21	589957	60e9cbd27102b08fc616fbe6	3	1	main_z	11	advance_on_keypress_ZEE	130	stimuli_distractor_diamondtriangles.svg	stimuli_distractor_diamondtriangles.svg	40	no	57	0	298	0	0			0	0			1				0	
6.6.1	win	2023-07-15	20:29:28	20:39:22	591423	60e9cbd27102b08fc616fbe6	3	1	main_z	11	main_z	131	stimuli_distractor_diamondtriangles.svg	stimuli_target_diamondsquares.svg	32	yes	44	1	549	0	0			0	0			1				0	
6.6.1	win	2023-07-15	20:29:28	20:39:22	591423	60e9cbd27102b08fc616fbe6	3	1	main_z	11	advance_on_keypress_ZEE	132	stimuli_distractor_diamondtriangles.svg	stimuli_target_diamondsquares.svg	32	yes	57	0	354	0	0			0	0			1				0	
6.6.1	win	2023-07-15	20:29:28	20:39:24	592816	60e9cbd27102b08fc616fbe6	3	1	main_z	11	main_z	133	stimuli_target_trianglerectangles.svg	stimuli_distractor_diamondtriangles.svg	21	yes	44	1	421	0	0			0	0			1				0	
6.6.1	win	2023-07-15	20:29:28	20:39:24	592816	60e9cbd27102b08fc616fbe6	3	1	main_z	11	advance_on_keypress_ZEE	134	stimuli_target_trianglerectangles.svg	stimuli_distractor_diamondtriangles.svg	21	yes	57	0	329	0	0			0	0			1				0	
6.6.1	win	2023-07-15	20:29:28	20:39:27	595762	60e9cbd27102b08fc616fbe6	3	1	main_z	11	main_z	135	stimuli_distractor_trianglediamonds.svg	stimuli_distractor_diamondtriangles.svg	35	no	0	1	2000	0	0			0	0			1				0	
6.6.1	win	2023-07-15	20:29:28	20:39:27	595762	60e9cbd27102b08fc616fbe6	3	1	main_z	11	advance_on_keypress_ZEE	136	stimuli_distractor_trianglediamonds.svg	stimuli_distractor_diamondtriangles.svg	35	no	57	0	304	0	0			0	0			1				0	
6.6.1	win	2023-07-15	20:29:28	20:39:28	597157	60e9cbd27102b08fc616fbe6	3	1	main_z	11	main_z	137	stimuli_target_diamondrectangles.svg	stimuli_distractor_diamondtriangles.svg	23	yes	44	1	468	0	0			0	0			1				0	
6.6.1	win	2023-07-15	20:29:28	20:39:28	597157	60e9cbd27102b08fc616fbe6	3	1	main_z	11	advance_on_keypress_ZEE	138	stimuli_target_diamondrectangles.svg	stimuli_distractor_diamondtriangles.svg	23	yes	57	0	317	0	0			0	0			1				0	
6.6.1	win	2023-07-15	20:29:28	20:39:30	598595	60e9cbd27102b08fc616fbe6	3	1	main_z	11	main_z	139	stimuli_distractor_trianglediamonds.svg	stimuli_target_diamondsquares.svg	28	yes	44	1	506	0	0			0	0			1				0	
6.6.1	win	2023-07-15	20:29:28	20:39:30	598595	60e9cbd27102b08fc616fbe6	3	1	main_z	11	advance_on_keypress_ZEE	140	stimuli_distractor_trianglediamonds.svg	stimuli_target_diamondsquares.svg	28	yes	57	0	329	0	0			0	0			1				0	
6.6.1	win	2023-07-15	20:29:28	20:39:32	601540	60e9cbd27102b08fc616fbe6	3	1	main_z	11	main_z	141	stimuli_distractor_trianglediamonds.svg	stimuli_distractor_trianglediamonds.svg	34	no	0	1	2000	0	0			0	0			1				0	
6.6.1	win	2023-07-15	20:29:28	20:39:32	601540	60e9cbd27102b08fc616fbe6	3	1	main_z	11	advance_on_keypress_ZEE	142	stimuli_distractor_trianglediamonds.svg	stimuli_distractor_trianglediamonds.svg	34	no	57	0	246	0	0			0	0			1				0	
6.6.1	win	2023-07-15	20:29:28	20:39:34	603060	60e9cbd27102b08fc616fbe6	3	1	main_z	11	main_z	143	stimuli_distractor_trianglediamonds.svg	stimuli_target_squarediamonds.svg	12	yes	44	1	659	0	0			0	0			1				0	
6.6.1	win	2023-07-15	20:29:28	20:39:34	603060	60e9cbd27102b08fc616fbe6	3	1	main_z	11	advance_on_keypress_ZEE	144	stimuli_distractor_trianglediamonds.svg	stimuli_target_squarediamonds.svg	12	yes	57	0	305	0	0			0	0			1				0	
6.6.1	win	2023-07-15	20:29:28	20:39:35	604449	60e9cbd27102b08fc616fbe6	3	1	main_z	11	main_z	145	stimuli_distractor_diamondtriangles.svg	stimuli_target_squaretriangles.svg	15	yes	44	1	467	0	0			0	0			1				0	
6.6.1	win	2023-07-15	20:29:28	20:39:35	604449	60e9cbd27102b08fc616fbe6	3	1	main_z	11	advance_on_keypress_ZEE	146	stimuli_distractor_diamondtriangles.svg	stimuli_target_squaretriangles.svg	15	yes	57	0	329	0	0			0	0			1				0	
6.6.1	win	2023-07-15	20:29:28	20:39:37	605975	60e9cbd27102b08fc616fbe6	3	1	main_z	11	main_z	147	stimuli_distractor_trianglediamonds.svg	stimuli_target_rectangletriangles.svg	9	yes	44	1	585	0	0			0	0			1				0	
6.6.1	win	2023-07-15	20:29:28	20:39:37	605975	60e9cbd27102b08fc616fbe6	3	1	main_z	11	advance_on_keypress_ZEE	148	stimuli_distractor_trianglediamonds.svg	stimuli_target_rectangletriangles.svg	9	yes	57	0	338	0	0			0	0			1				0	
6.6.1	win	2023-07-15	20:29:28	20:39:40	608931	60e9cbd27102b08fc616fbe6	3	1	main_z	11	main_z	149	stimuli_distractor_trianglediamonds.svg	stimuli_distractor_diamondtriangles.svg	36	no	0	1	2000	0	0			0	0			1				0	
6.6.1	win	2023-07-15	20:29:28	20:39:40	608931	60e9cbd27102b08fc616fbe6	3	1	main_z	11	advance_on_keypress_ZEE	150	stimuli_distractor_trianglediamonds.svg	stimuli_distractor_diamondtriangles.svg	36	no	57	0	440	0	0			0	0			1				0	
6.6.1	win	2023-07-15	20:29:28	20:39:41	610494	60e9cbd27102b08fc616fbe6	3	1	main_z	11	main_z	151	stimuli_target_squarediamonds.svg	stimuli_distractor_trianglediamonds.svg	4	yes	44	1	509	0	0			0	0			1				0	
6.6.1	win	2023-07-15	20:29:28	20:39:41	610494	60e9cbd27102b08fc616fbe6	3	1	main_z	11	advance_on_keypress_ZEE	152	stimuli_target_squarediamonds.svg	stimuli_distractor_trianglediamonds.svg	4	yes	57	0	303	0	0			0	0			1				0	
6.6.1	win	2023-07-15	20:29:28	20:39:43	611913	60e9cbd27102b08fc616fbe6	3	1	main_z	11	main_z	153	stimuli_distractor_trianglediamonds.svg	stimuli_target_rectanglediamonds.svg	10	yes	44	1	501	0	0			0	0			1				0	
6.6.1	win	2023-07-15	20:29:28	20:39:43	611913	60e9cbd27102b08fc616fbe6	3	1	main_z	11	advance_on_keypress_ZEE	154	stimuli_distractor_trianglediamonds.svg	stimuli_target_rectanglediamonds.svg	10	yes	57	0	345	0	0			0	0			1				0	
6.6.1	win	2023-07-15	20:29:28	20:39:44	613332	60e9cbd27102b08fc616fbe6	3	1	main_z	11	main_z	155	stimuli_target_rectanglediamonds.svg	stimuli_distractor_trianglediamonds.svg	2	yes	44	1	459	0	0			0	0			1				0	
6.6.1	win	2023-07-15	20:29:28	20:39:44	613332	60e9cbd27102b08fc616fbe6	3	1	main_z	11	advance_on_keypress_ZEE	156	stimuli_target_rectanglediamonds.svg	stimuli_distractor_trianglediamonds.svg	2	yes	57	0	350	0	0			0	0			1				0	
6.6.1	win	2023-07-15	20:29:28	20:39:46	614737	60e9cbd27102b08fc616fbe6	3	1	main_z	11	main_z	157	stimuli_target_rectangletriangles.svg	stimuli_distractor_trianglediamonds.svg	1	yes	44	1	438	0	0			0	0			1				0	
6.6.1	win	2023-07-15	20:29:28	20:39:46	614737	60e9cbd27102b08fc616fbe6	3	1	main_z	11	advance_on_keypress_ZEE	158	stimuli_target_rectangletriangles.svg	stimuli_distractor_trianglediamonds.svg	1	yes	57	0	314	0	0			0	0			1				0	
6.6.1	win	2023-07-15	20:29:28	20:39:47	616094	60e9cbd27102b08fc616fbe6	3	1	main_z	11	main_z	159	stimuli_distractor_trianglediamonds.svg	stimuli_target_squaretriangles.svg	11	yes	44	1	424	0	0			0	0			1				0	
6.6.1	win	2023-07-15	20:29:28	20:39:47	616094	60e9cbd27102b08fc616fbe6	3	1	main_z	11	advance_on_keypress_ZEE	160	stimuli_distractor_trianglediamonds.svg	stimuli_target_squaretriangles.svg	11	yes	57	0	375	0	0			0	0			1				0	
6.6.1	win	2023-07-15	20:29:28	20:39:47	616094	60e9cbd27102b08fc616fbe6	3	1	headphonecheck_calibration	14	headphonecheck_calibrationIntro	1	stimuli_distractor_trianglediamonds.svg	stimuli_target_squaretriangles.svg	11	yes	calibrationButton	0	3505	0	0			0	0			1				0	
6.6.1	win	2023-07-15	20:29:28	20:39:47	616094	60e9cbd27102b08fc616fbe6	3	1	headphonecheck_testphase	15	test_collectResponse	3	stimuli_distractor_trianglediamonds.svg	stimuli_target_squaretriangles.svg	11	yes	first	1	16118	1	3	antiphase_hc_soi.wav	1	0	0			1				0	
6.6.1	win	2023-07-15	20:29:28	20:39:47	616094	60e9cbd27102b08fc616fbe6	3	1	headphonecheck_testphase	15	test_collectResponse	6	stimuli_distractor_trianglediamonds.svg	stimuli_target_squaretriangles.svg	11	yes	second	1	578	2	1	antiphase_hc_iso.wav	2	0	0			1				0	
6.6.1	win	2023-07-15	20:29:28	20:39:47	616094	60e9cbd27102b08fc616fbe6	3	1	headphonecheck_testphase	15	test_collectResponse	9	stimuli_distractor_trianglediamonds.svg	stimuli_target_squaretriangles.svg	11	yes	first	1	851	3	4	antiphase_hc_sio.wav	1	0	0			1				0	
6.6.1	win	2023-07-15	20:29:28	20:39:47	616094	60e9cbd27102b08fc616fbe6	3	1	headphonecheck_testphase	15	test_collectResponse	12	stimuli_distractor_trianglediamonds.svg	stimuli_target_squaretriangles.svg	11	yes	third	1	555	4	2	antiphase_hc_ios.wav	3	0	0			1				0	
6.6.1	win	2023-07-15	20:29:28	20:39:47	616094	60e9cbd27102b08fc616fbe6	3	1	headphonecheck_testphase	15	test_collectResponse	15	stimuli_distractor_trianglediamonds.svg	stimuli_target_squaretriangles.svg	11	yes	second	1	383	5	5	antiphase_hc_osi.wav	2	0	0			1				0	
6.6.1	win	2023-07-15	20:29:28	20:39:47	616094	60e9cbd27102b08fc616fbe6	3	1	headphonecheck_testphase	15	test_collectResponse	18	stimuli_distractor_trianglediamonds.svg	stimuli_target_squaretriangles.svg	11	yes	third	1	296	6	6	antiphase_hc_ois.wav	3	0	0			1				0	
6.6.1	win	2023-07-15	20:29:28	20:39:47	616094	60e9cbd27102b08fc616fbe6	3	1	stereocheck_calibration	17	stereocheck_calibrationIntro	1	stimuli_distractor_trianglediamonds.svg	stimuli_target_squaretriangles.svg	11	yes	stereocheck_calibrationButton	0	5231	6	6	antiphase_hc_ois.wav	3	0	0			1				0	
6.6.1	win	2023-07-15	20:29:28	20:39:47	616094	60e9cbd27102b08fc616fbe6	3	1	stereocheck_testphase	18	stereocheck_test_collectResponse	3	stimuli_distractor_trianglediamonds.svg	stimuli_target_squaretriangles.svg	11	yes	stereocheck_right	1	547	6	6	antiphase_hc_ois.wav	3	1	4	noise_calib_stim_RIGHT.wav	2	1				0	
6.6.1	win	2023-07-15	20:29:28	20:39:47	616094	60e9cbd27102b08fc616fbe6	3	1	stereocheck_testphase	18	stereocheck_test_collectResponse	6	stimuli_distractor_trianglediamonds.svg	stimuli_target_squaretriangles.svg	11	yes	stereocheck_right	1	518	6	6	antiphase_hc_ois.wav	3	2	5	noise_calib_stim_RIGHT.wav	2	1				0	
6.6.1	win	2023-07-15	20:29:28	20:39:47	616094	60e9cbd27102b08fc616fbe6	3	1	stereocheck_testphase	18	stereocheck_test_collectResponse	9	stimuli_distractor_trianglediamonds.svg	stimuli_target_squaretriangles.svg	11	yes	stereocheck_left	1	538	6	6	antiphase_hc_ois.wav	3	3	1	noise_calib_stim_LEFT.wav	1	1				0	
6.6.1	win	2023-07-15	20:29:28	20:39:47	616094	60e9cbd27102b08fc616fbe6	3	1	stereocheck_testphase	18	stereocheck_test_collectResponse	12	stimuli_distractor_trianglediamonds.svg	stimuli_target_squaretriangles.svg	11	yes	stereocheck_left	1	412	6	6	antiphase_hc_ois.wav	3	4	2	noise_calib_stim_LEFT.wav	1	1				0	
6.6.1	win	2023-07-15	20:29:28	20:39:47	616094	60e9cbd27102b08fc616fbe6	3	1	stereocheck_testphase	18	stereocheck_test_collectResponse	15	stimuli_distractor_trianglediamonds.svg	stimuli_target_squaretriangles.svg	11	yes	stereocheck_left	1	485	6	6	antiphase_hc_ois.wav	3	5	3	noise_calib_stim_LEFT.wav	1	1				0	
6.6.1	win	2023-07-15	20:29:28	20:39:47	616094	60e9cbd27102b08fc616fbe6	3	1	stereocheck_testphase	18	stereocheck_test_collectResponse	18	stimuli_distractor_trianglediamonds.svg	stimuli_target_squaretriangles.svg	11	yes	stereocheck_right	1	339	6	6	antiphase_hc_ois.wav	3	6	6	noise_calib_stim_RIGHT.wav	2	1				0	
6.6.1	win	2023-07-15	20:29:28	20:39:47	616094	60e9cbd27102b08fc616fbe6	3	1	DL_practice	21	DL_practice	2	stimuli_distractor_trianglediamonds.svg	stimuli_target_squaretriangles.svg	11	yes	ka	0	3454	6	6	antiphase_hc_ois.wav	3	6	6	noise_calib_stim_RIGHT.wav	2	18	blb_dichoticlistening_ga-ta.mp3	ga	ta	1	other
6.6.1	win	2023-07-15	20:29:28	20:39:47	616094	60e9cbd27102b08fc616fbe6	3	1	DL_practice	21	DL_practice	3	stimuli_distractor_trianglediamonds.svg	stimuli_target_squaretriangles.svg	11	yes	pa	1	1276	6	6	antiphase_hc_ois.wav	3	6	6	noise_calib_stim_RIGHT.wav	2	29	blb_dichoticlistening_pa-pa.mp3	pa	pa	0	left
6.6.1	win	2023-07-15	20:29:28	20:39:47	616094	60e9cbd27102b08fc616fbe6	3	1	DL_practice	21	DL_practice	4	stimuli_distractor_trianglediamonds.svg	stimuli_target_squaretriangles.svg	11	yes	da	1	917	6	6	antiphase_hc_ois.wav	3	6	6	noise_calib_stim_RIGHT.wav	2	8	blb_dichoticlistening_da-da.mp3	da	da	0	left
6.6.1	win	2023-07-15	20:29:28	20:39:47	616094	60e9cbd27102b08fc616fbe6	3	1	DL_practice	21	DL_practice	5	stimuli_distractor_trianglediamonds.svg	stimuli_target_squaretriangles.svg	11	yes	ka	1	2009	6	6	antiphase_hc_ois.wav	3	6	6	noise_calib_stim_RIGHT.wav	2	23	blb_dichoticlistening_ka-pa.mp3	ka	pa	1	left
6.6.1	win	2023-07-15	20:29:28	20:39:47	616094	60e9cbd27102b08fc616fbe6	3	1	DL_practice	21	DL_practice	6	stimuli_distractor_trianglediamonds.svg	stimuli_target_squaretriangles.svg	11	yes	ka	1	1015	6	6	antiphase_hc_ois.wav	3	6	6	noise_calib_stim_RIGHT.wav	2	22	blb_dichoticlistening_ka-ka.mp3	ka	ka	0	left
6.6.1	win	2023-07-15	20:29:28	20:39:47	616094	60e9cbd27102b08fc616fbe6	3	1	DL_practice	21	DL_practice	7	stimuli_distractor_trianglediamonds.svg	stimuli_target_squaretriangles.svg	11	yes	ga	1	1263	6	6	antiphase_hc_ois.wav	3	6	6	noise_calib_stim_RIGHT.wav	2	15	blb_dichoticlistening_ga-ga.mp3	ga	ga	0	left
6.6.1	win	2023-07-15	20:29:28	20:39:47	616094	60e9cbd27102b08fc616fbe6	3	1	DL_practice	21	DL_practice	8	stimuli_distractor_trianglediamonds.svg	stimuli_target_squaretriangles.svg	11	yes	ba	1	1232	6	6	antiphase_hc_ois.wav	3	6	6	noise_calib_stim_RIGHT.wav	2	1	blb_dichoticlistening_ba-ba.mp3	ba	ba	0	left
6.6.1	win	2023-07-15	20:29:28	20:39:47	616094	60e9cbd27102b08fc616fbe6	3	1	DL_practice	21	DL_practice	9	stimuli_distractor_trianglediamonds.svg	stimuli_target_squaretriangles.svg	11	yes	ta	1	1182	6	6	antiphase_hc_ois.wav	3	6	6	noise_calib_stim_RIGHT.wav	2	36	blb_dichoticlistening_ta-ta.mp3	ta	ta	0	left
6.6.1	win	2023-07-15	20:29:28	20:39:47	616094	60e9cbd27102b08fc616fbe6	3	1	DL_practice	21	DL_practice	10	stimuli_distractor_trianglediamonds.svg	stimuli_target_squaretriangles.svg	11	yes	da	1	1079	6	6	antiphase_hc_ois.wav	3	6	6	noise_calib_stim_RIGHT.wav	2	7	blb_dichoticlistening_da-ba.mp3	da	ba	1	left
6.6.1	win	2023-07-15	20:29:28	20:39:47	616094	60e9cbd27102b08fc616fbe6	3	1	DL_test	23	DL_test	1	stimuli_distractor_trianglediamonds.svg	stimuli_target_squaretriangles.svg	11	yes	ka	1	1143	6	6	antiphase_hc_ois.wav	3	6	6	noise_calib_stim_RIGHT.wav	2	24	blb_dichoticlistening_ka-ta.mp3	ka	ta	1	left
6.6.1	win	2023-07-15	20:29:28	20:39:47	616094	60e9cbd27102b08fc616fbe6	3	1	DL_test	23	DL_test	2	stimuli_distractor_trianglediamonds.svg	stimuli_target_squaretriangles.svg	11	yes	ta	1	1458	6	6	antiphase_hc_ois.wav	3	6	6	noise_calib_stim_RIGHT.wav	2	32	blb_dichoticlistening_ta-da.mp3	ta	da	1	left
6.6.1	win	2023-07-15	20:29:28	20:39:47	616094	60e9cbd27102b08fc616fbe6	3	1	DL_test	23	DL_test	3	stimuli_distractor_trianglediamonds.svg	stimuli_target_squaretriangles.svg	11	yes	da	1	1436	6	6	antiphase_hc_ois.wav	3	6	6	noise_calib_stim_RIGHT.wav	2	8	blb_dichoticlistening_da-da.mp3	da	da	0	left
6.6.1	win	2023-07-15	20:29:28	20:39:47	616094	60e9cbd27102b08fc616fbe6	3	1	DL_test	23	DL_test	4	stimuli_distractor_trianglediamonds.svg	stimuli_target_squaretriangles.svg	11	yes	da	1	1324	6	6	antiphase_hc_ois.wav	3	6	6	noise_calib_stim_RIGHT.wav	2	9	blb_dichoticlistening_da-ga.mp3	da	ga	1	left
6.6.1	win	2023-07-15	20:29:28	20:39:47	616094	60e9cbd27102b08fc616fbe6	3	1	DL_test	23	DL_test	5	stimuli_distractor_trianglediamonds.svg	stimuli_target_squaretriangles.svg	11	yes	pa	1	1643	6	6	antiphase_hc_ois.wav	3	6	6	noise_calib_stim_RIGHT.wav	2	28	blb_dichoticlistening_pa-ka.mp3	pa	ka	1	left
6.6.1	win	2023-07-15	20:29:28	20:39:47	616094	60e9cbd27102b08fc616fbe6	3	1	DL_test	23	DL_test	6	stimuli_distractor_trianglediamonds.svg	stimuli_target_squaretriangles.svg	11	yes	pa	1	944	6	6	antiphase_hc_ois.wav	3	6	6	noise_calib_stim_RIGHT.wav	2	29	blb_dichoticlistening_pa-pa.mp3	pa	pa	0	left
6.6.1	win	2023-07-15	20:29:28	20:39:47	616094	60e9cbd27102b08fc616fbe6	3	1	DL_test	23	DL_test	7	stimuli_distractor_trianglediamonds.svg	stimuli_target_squaretriangles.svg	11	yes	da	1	1050	6	6	antiphase_hc_ois.wav	3	6	6	noise_calib_stim_RIGHT.wav	2	14	blb_dichoticlistening_ga-da.mp3	ga	da	1	right
6.6.1	win	2023-07-15	20:29:28	20:39:47	616094	60e9cbd27102b08fc616fbe6	3	1	DL_test	23	DL_test	8	stimuli_distractor_trianglediamonds.svg	stimuli_target_squaretriangles.svg	11	yes	ba	1	894	6	6	antiphase_hc_ois.wav	3	6	6	noise_calib_stim_RIGHT.wav	2	1	blb_dichoticlistening_ba-ba.mp3	ba	ba	0	left
6.6.1	win	2023-07-15	20:29:28	20:39:47	616094	60e9cbd27102b08fc616fbe6	3	1	DL_test	23	DL_test	9	stimuli_distractor_trianglediamonds.svg	stimuli_target_squaretriangles.svg	11	yes	ta	1	2651	6	6	antiphase_hc_ois.wav	3	6	6	noise_calib_stim_RIGHT.wav	2	30	blb_dichoticlistening_pa-ta.mp3	pa	ta	1	right
6.6.1	win	2023-07-15	20:29:28	20:39:47	616094	60e9cbd27102b08fc616fbe6	3	1	DL_test	23	DL_test	10	stimuli_distractor_trianglediamonds.svg	stimuli_target_squaretriangles.svg	11	yes	pa	0	1357	6	6	antiphase_hc_ois.wav	3	6	6	noise_calib_stim_RIGHT.wav	2	31	blb_dichoticlistening_ta-ba.mp3	ta	ba	1	other
6.6.1	win	2023-07-15	20:29:28	20:39:47	616094	60e9cbd27102b08fc616fbe6	3	1	DL_test	23	DL_test	11	stimuli_distractor_trianglediamonds.svg	stimuli_target_squaretriangles.svg	11	yes	pa	1	1598	6	6	antiphase_hc_ois.wav	3	6	6	noise_calib_stim_RIGHT.wav	2	27	blb_dichoticlistening_pa-ga.mp3	pa	ga	1	left
6.6.1	win	2023-07-15	20:29:28	20:39:47	616094	60e9cbd27102b08fc616fbe6	3	1	DL_test	23	DL_test	12	stimuli_distractor_trianglediamonds.svg	stimuli_target_squaretriangles.svg	11	yes	ga	1	1035	6	6	antiphase_hc_ois.wav	3	6	6	noise_calib_stim_RIGHT.wav	2	3	blb_dichoticlistening_ba-ga.mp3	ba	ga	1	right
6.6.1	win	2023-07-15	20:29:28	20:39:47	616094	60e9cbd27102b08fc616fbe6	3	1	DL_test	23	DL_test	13	stimuli_distractor_trianglediamonds.svg	stimuli_target_squaretriangles.svg	11	yes	ta	0	2800	6	6	antiphase_hc_ois.wav	3	6	6	noise_calib_stim_RIGHT.wav	2	11	blb_dichoticlistening_da-pa.mp3	da	pa	1	other
6.6.1	win	2023-07-15	20:29:28	20:39:47	616094	60e9cbd27102b08fc616fbe6	3	1	DL_test	23	DL_test	14	stimuli_distractor_trianglediamonds.svg	stimuli_target_squaretriangles.svg	11	yes	pa	1	1905	6	6	antiphase_hc_ois.wav	3	6	6	noise_calib_stim_RIGHT.wav	2	17	blb_dichoticlistening_ga-pa.mp3	ga	pa	1	right
6.6.1	win	2023-07-15	20:29:28	20:39:47	616094	60e9cbd27102b08fc616fbe6	3	1	DL_test	23	DL_test	15	stimuli_distractor_trianglediamonds.svg	stimuli_target_squaretriangles.svg	11	yes	pa	1	1864	6	6	antiphase_hc_ois.wav	3	6	6	noise_calib_stim_RIGHT.wav	2	5	blb_dichoticlistening_ba-pa.mp3	ba	pa	1	right
6.6.1	win	2023-07-15	20:29:28	20:39:47	616094	60e9cbd27102b08fc616fbe6	3	1	DL_test	23	DL_test	16	stimuli_distractor_trianglediamonds.svg	stimuli_target_squaretriangles.svg	11	yes	da	1	1013	6	6	antiphase_hc_ois.wav	3	6	6	noise_calib_stim_RIGHT.wav	2	2	blb_dichoticlistening_ba-da.mp3	ba	da	1	right
6.6.1	win	2023-07-15	20:29:28	20:39:47	616094	60e9cbd27102b08fc616fbe6	3	1	DL_test	23	DL_test	17	stimuli_distractor_trianglediamonds.svg	stimuli_target_squaretriangles.svg	11	yes	ta	1	1270	6	6	antiphase_hc_ois.wav	3	6	6	noise_calib_stim_RIGHT.wav	2	35	blb_dichoticlistening_ta-pa.mp3	ta	pa	1	left
6.6.1	win	2023-07-15	20:29:28	20:39:47	616094	60e9cbd27102b08fc616fbe6	3	1	DL_test	23	DL_test	18	stimuli_distractor_trianglediamonds.svg	stimuli_target_squaretriangles.svg	11	yes	ka	0	1982	6	6	antiphase_hc_ois.wav	3	6	6	noise_calib_stim_RIGHT.wav	2	33	blb_dichoticlistening_ta-ga.mp3	ta	ga	1	other
6.6.1	win	2023-07-15	20:29:28	20:39:47	616094	60e9cbd27102b08fc616fbe6	3	1	DL_test	23	DL_test	19	stimuli_distractor_trianglediamonds.svg	stimuli_target_squaretriangles.svg	11	yes	ka	0	1492	6	6	antiphase_hc_ois.wav	3	6	6	noise_calib_stim_RIGHT.wav	2	36	blb_dichoticlistening_ta-ta.mp3	ta	ta	0	other
6.6.1	win	2023-07-15	20:29:28	20:39:47	616094	60e9cbd27102b08fc616fbe6	3	1	DL_test	23	DL_test	20	stimuli_distractor_trianglediamonds.svg	stimuli_target_squaretriangles.svg	11	yes	ga	1	1095	6	6	antiphase_hc_ois.wav	3	6	6	noise_calib_stim_RIGHT.wav	2	13	blb_dichoticlistening_ga-ba.mp3	ga	ba	1	left
6.6.1	win	2023-07-15	20:29:28	20:39:47	616094	60e9cbd27102b08fc616fbe6	3	1	DL_test	23	DL_test	21	stimuli_distractor_trianglediamonds.svg	stimuli_target_squaretriangles.svg	11	yes	pa	1	1573	6	6	antiphase_hc_ois.wav	3	6	6	noise_calib_stim_RIGHT.wav	2	26	blb_dichoticlistening_pa-da.mp3	pa	da	1	left
6.6.1	win	2023-07-15	20:29:28	20:39:47	616094	60e9cbd27102b08fc616fbe6	3	1	DL_test	23	DL_test	22	stimuli_distractor_trianglediamonds.svg	stimuli_target_squaretriangles.svg	11	yes	ka	0	2209	6	6	antiphase_hc_ois.wav	3	6	6	noise_calib_stim_RIGHT.wav	2	18	blb_dichoticlistening_ga-ta.mp3	ga	ta	1	other
6.6.1	win	2023-07-15	20:29:28	20:39:47	616094	60e9cbd27102b08fc616fbe6	3	1	DL_test	23	DL_test	23	stimuli_distractor_trianglediamonds.svg	stimuli_target_squaretriangles.svg	11	yes	ka	1	2249	6	6	antiphase_hc_ois.wav	3	6	6	noise_calib_stim_RIGHT.wav	2	4	blb_dichoticlistening_ba-ka.mp3	ba	ka	1	right
6.6.1	win	2023-07-15	20:29:28	20:39:47	616094	60e9cbd27102b08fc616fbe6	3	1	DL_test	23	DL_test	24	stimuli_distractor_trianglediamonds.svg	stimuli_target_squaretriangles.svg	11	yes	ta	1	1311	6	6	antiphase_hc_ois.wav	3	6	6	noise_calib_stim_RIGHT.wav	2	12	blb_dichoticlistening_da-ta.mp3	da	ta	1	right
6.6.1	win	2023-07-15	20:29:28	20:39:47	616094	60e9cbd27102b08fc616fbe6	3	1	DL_test	23	DL_test	25	stimuli_distractor_trianglediamonds.svg	stimuli_target_squaretriangles.svg	11	yes	da	1	1256	6	6	antiphase_hc_ois.wav	3	6	6	noise_calib_stim_RIGHT.wav	2	7	blb_dichoticlistening_da-ba.mp3	da	ba	1	left
6.6.1	win	2023-07-15	20:29:28	20:39:47	616094	60e9cbd27102b08fc616fbe6	3	1	DL_test	23	DL_test	26	stimuli_distractor_trianglediamonds.svg	stimuli_target_squaretriangles.svg	11	yes	ka	1	1163	6	6	antiphase_hc_ois.wav	3	6	6	noise_calib_stim_RIGHT.wav	2	22	blb_dichoticlistening_ka-ka.mp3	ka	ka	0	left
