build	computer.platform	date	time	timestamp	time_elapsed_ms	subject	group	session	blockcode	blocknum	trialcode	trialnum	stimulus_left	stimulus_right	stim_index	target_present	response	correct	latency	headphonecheck_countTestTrials	headphonecheck_index	headphonecheck_testSound	headphonecheck_correctResponse	stereocheck_countTestTrials	stereocheck_index	stereocheck_testSound	stereocheck_correctResponse	DL_index	DL_soundfile	DL_leftSound	DL_rightSound	DL_dualSound	DL_choice
6.6.1	win	2023-07-11	16:22:08	16:25:41	209555	6108e2470b62bbe11b9f2e7c	4	1	practice_z	5	practice_z	1	stimuli_distractor_trianglediamonds.svg	stimuli_target_diamondrectangles.svg	12	yes	0	0	2000	0	0			0	0			1				0	
6.6.1	win	2023-07-11	16:22:08	16:25:41	209555	6108e2470b62bbe11b9f2e7c	4	1	practice_z	5	advance_on_keypress_ZEE	2	stimuli_distractor_trianglediamonds.svg	stimuli_target_diamondrectangles.svg	12	yes	57	0	2250	0	0			0	0			1				0	
6.6.1	win	2023-07-11	16:22:08	16:25:46	214029	6108e2470b62bbe11b9f2e7c	4	1	practice_z	5	practice_z	3	stimuli_distractor_diamondtriangles.svg	stimuli_target_diamondrectangles.svg	8	yes	44	1	557	0	0			0	0			1				0	
6.6.1	win	2023-07-11	16:22:08	16:25:46	214029	6108e2470b62bbe11b9f2e7c	4	1	practice_z	5	advance_on_keypress_ZEE	4	stimuli_distractor_diamondtriangles.svg	stimuli_target_diamondrectangles.svg	8	yes	57	0	2512	0	0			0	0			1				0	
6.6.1	win	2023-07-11	16:22:08	16:25:50	218586	6108e2470b62bbe11b9f2e7c	4	1	practice_z	5	practice_z	5	stimuli_distractor_trianglediamonds.svg	stimuli_target_rectanglediamonds.svg	10	yes	44	1	399	0	0			0	0			1				0	
6.6.1	win	2023-07-11	16:22:08	16:25:50	218586	6108e2470b62bbe11b9f2e7c	4	1	practice_z	5	advance_on_keypress_ZEE	6	stimuli_distractor_trianglediamonds.svg	stimuli_target_rectanglediamonds.svg	10	yes	57	0	620	0	0			0	0			1				0	
6.6.1	win	2023-07-11	16:22:08	16:25:53	221472	6108e2470b62bbe11b9f2e7c	4	1	practice_z	5	practice_z	7	stimuli_distractor_diamondtriangles.svg	stimuli_distractor_diamondtriangles.svg	13	no	44	0	619	0	0			0	0			1				0	
6.6.1	win	2023-07-11	16:22:08	16:25:53	221472	6108e2470b62bbe11b9f2e7c	4	1	practice_z	5	advance_on_keypress_ZEE	8	stimuli_distractor_diamondtriangles.svg	stimuli_distractor_diamondtriangles.svg	13	no	57	0	468	0	0			0	0			1				0	
6.6.1	win	2023-07-11	16:22:08	16:25:56	224266	6108e2470b62bbe11b9f2e7c	4	1	practice_z	5	practice_z	9	stimuli_target_squarediamonds.svg	stimuli_distractor_diamondtriangles.svg	2	yes	44	1	679	0	0			0	0			1				0	
6.6.1	win	2023-07-11	16:22:08	16:25:56	224266	6108e2470b62bbe11b9f2e7c	4	1	practice_z	5	advance_on_keypress_ZEE	10	stimuli_target_squarediamonds.svg	stimuli_distractor_diamondtriangles.svg	2	yes	57	0	1522	0	0			0	0			1				0	
6.6.1	win	2023-07-11	16:22:08	16:26:01	229436	6108e2470b62bbe11b9f2e7c	4	1	practice_z	5	practice_z	11	stimuli_distractor_trianglediamonds.svg	stimuli_distractor_trianglediamonds.svg	15	no	0	1	2000	0	0			0	0			1				0	
6.6.1	win	2023-07-11	16:22:08	16:26:01	229436	6108e2470b62bbe11b9f2e7c	4	1	practice_z	5	advance_on_keypress_ZEE	12	stimuli_distractor_trianglediamonds.svg	stimuli_distractor_trianglediamonds.svg	15	no	57	0	681	0	0			0	0			1				0	
6.6.1	win	2023-07-11	16:22:08	16:26:04	232744	6108e2470b62bbe11b9f2e7c	4	1	practice_z	5	practice_z	13	stimuli_target_diamondsquares.svg	stimuli_distractor_trianglediamonds.svg	6	yes	44	1	975	0	0			0	0			1				0	
6.6.1	win	2023-07-11	16:22:08	16:26:04	232744	6108e2470b62bbe11b9f2e7c	4	1	practice_z	5	advance_on_keypress_ZEE	14	stimuli_target_diamondsquares.svg	stimuli_distractor_trianglediamonds.svg	6	yes	57	0	728	0	0			0	0			1				0	
6.6.1	win	2023-07-11	16:22:08	16:26:09	237118	6108e2470b62bbe11b9f2e7c	4	1	practice_z	5	practice_z	15	stimuli_distractor_diamondtriangles.svg	stimuli_distractor_trianglediamonds.svg	14	no	0	1	2000	0	0			0	0			1				0	
6.6.1	win	2023-07-11	16:22:08	16:26:09	237118	6108e2470b62bbe11b9f2e7c	4	1	practice_z	5	advance_on_keypress_ZEE	16	stimuli_distractor_diamondtriangles.svg	stimuli_distractor_trianglediamonds.svg	14	no	57	0	322	0	0			0	0			1				0	
6.6.1	win	2023-07-11	16:22:08	16:26:12	240744	6108e2470b62bbe11b9f2e7c	4	1	practice_z	5	practice_z	17	stimuli_distractor_trianglediamonds.svg	stimuli_distractor_diamondtriangles.svg	16	no	44	0	1659	0	0			0	0			1				0	
6.6.1	win	2023-07-11	16:22:08	16:26:12	240744	6108e2470b62bbe11b9f2e7c	4	1	practice_z	5	advance_on_keypress_ZEE	18	stimuli_distractor_trianglediamonds.svg	stimuli_distractor_diamondtriangles.svg	16	no	57	0	459	0	0			0	0			1				0	
6.6.1	win	2023-07-11	16:22:08	16:26:15	243649	6108e2470b62bbe11b9f2e7c	4	1	practice_z	5	practice_z	19	stimuli_distractor_trianglediamonds.svg	stimuli_target_squarediamonds.svg	11	yes	44	1	815	0	0			0	0			1				0	
6.6.1	win	2023-07-11	16:22:08	16:26:15	243649	6108e2470b62bbe11b9f2e7c	4	1	practice_z	5	advance_on_keypress_ZEE	20	stimuli_distractor_trianglediamonds.svg	stimuli_target_squarediamonds.svg	11	yes	57	0	843	0	0			0	0			1				0	
6.6.1	win	2023-07-11	16:22:08	16:26:18	246572	6108e2470b62bbe11b9f2e7c	4	1	practice_z	5	practice_z	21	stimuli_target_rectanglediamonds.svg	stimuli_distractor_trianglediamonds.svg	4	yes	44	1	422	0	0			0	0			1				0	
6.6.1	win	2023-07-11	16:22:08	16:26:18	246572	6108e2470b62bbe11b9f2e7c	4	1	practice_z	5	advance_on_keypress_ZEE	22	stimuli_target_rectanglediamonds.svg	stimuli_distractor_trianglediamonds.svg	4	yes	57	0	493	0	0			0	0			1				0	
6.6.1	win	2023-07-11	16:22:08	16:26:21	249395	6108e2470b62bbe11b9f2e7c	4	1	practice_z	5	practice_z	23	stimuli_distractor_diamondtriangles.svg	stimuli_target_trianglerectangles.svg	9	yes	44	1	678	0	0			0	0			1				0	
6.6.1	win	2023-07-11	16:22:08	16:26:21	249395	6108e2470b62bbe11b9f2e7c	4	1	practice_z	5	advance_on_keypress_ZEE	24	stimuli_distractor_diamondtriangles.svg	stimuli_target_trianglerectangles.svg	9	yes	57	0	826	0	0			0	0			1				0	
6.6.1	win	2023-07-11	16:22:08	16:26:24	252376	6108e2470b62bbe11b9f2e7c	4	1	practice_z	5	practice_z	25	stimuli_target_rectanglediamonds.svg	stimuli_distractor_diamondtriangles.svg	1	yes	44	1	493	0	0			0	0			1				0	
6.6.1	win	2023-07-11	16:22:08	16:26:24	252376	6108e2470b62bbe11b9f2e7c	4	1	practice_z	5	advance_on_keypress_ZEE	26	stimuli_target_rectanglediamonds.svg	stimuli_distractor_diamondtriangles.svg	1	yes	57	0	265	0	0			0	0			1				0	
6.6.1	win	2023-07-11	16:22:08	16:26:26	254709	6108e2470b62bbe11b9f2e7c	4	1	practice_z	5	practice_z	27	stimuli_distractor_diamondtriangles.svg	stimuli_target_rectangletriangles.svg	7	yes	44	1	410	0	0			0	0			1				0	
6.6.1	win	2023-07-11	16:22:08	16:26:26	254709	6108e2470b62bbe11b9f2e7c	4	1	practice_z	5	advance_on_keypress_ZEE	28	stimuli_distractor_diamondtriangles.svg	stimuli_target_rectangletriangles.svg	7	yes	57	0	1022	0	0			0	0			1				0	
6.6.1	win	2023-07-11	16:22:08	16:26:30	257898	6108e2470b62bbe11b9f2e7c	4	1	practice_z	5	practice_z	29	stimuli_target_diamondsquares.svg	stimuli_distractor_diamondtriangles.svg	3	yes	44	1	515	0	0			0	0			1				0	
6.6.1	win	2023-07-11	16:22:08	16:26:30	257898	6108e2470b62bbe11b9f2e7c	4	1	practice_z	5	advance_on_keypress_ZEE	30	stimuli_target_diamondsquares.svg	stimuli_distractor_diamondtriangles.svg	3	yes	57	0	377	0	0			0	0			1				0	
6.6.1	win	2023-07-11	16:22:08	16:26:32	260215	6108e2470b62bbe11b9f2e7c	4	1	practice_z	5	practice_z	31	stimuli_target_squarediamonds.svg	stimuli_distractor_trianglediamonds.svg	5	yes	44	1	282	0	0			0	0			1				0	
6.6.1	win	2023-07-11	16:22:08	16:26:32	260215	6108e2470b62bbe11b9f2e7c	4	1	practice_z	5	advance_on_keypress_ZEE	32	stimuli_target_squarediamonds.svg	stimuli_distractor_trianglediamonds.svg	5	yes	57	0	6	0	0			0	0			1				0	
6.6.1	win	2023-07-11	16:22:08	16:26:48	276011	6108e2470b62bbe11b9f2e7c	4	1	main_z	7	main_z	1	stimuli_distractor_diamondtriangles.svg	stimuli_distractor_diamondtriangles.svg	40	no	0	1	2000	0	0			0	0			1				0	
6.6.1	win	2023-07-11	16:22:08	16:26:48	276011	6108e2470b62bbe11b9f2e7c	4	1	main_z	7	advance_on_keypress_ZEE	2	stimuli_distractor_diamondtriangles.svg	stimuli_distractor_diamondtriangles.svg	40	no	57	0	630	0	0			0	0			1				0	
6.6.1	win	2023-07-11	16:22:08	16:26:50	277809	6108e2470b62bbe11b9f2e7c	4	1	main_z	7	main_z	3	stimuli_distractor_trianglediamonds.svg	stimuli_target_squarediamonds.svg	12	yes	44	1	512	0	0			0	0			1				0	
6.6.1	win	2023-07-11	16:22:08	16:26:50	277809	6108e2470b62bbe11b9f2e7c	4	1	main_z	7	advance_on_keypress_ZEE	4	stimuli_distractor_trianglediamonds.svg	stimuli_target_squarediamonds.svg	12	yes	57	0	1186	0	0			0	0			1				0	
6.6.1	win	2023-07-11	16:22:08	16:26:52	280355	6108e2470b62bbe11b9f2e7c	4	1	main_z	7	main_z	5	stimuli_distractor_trianglediamonds.svg	stimuli_distractor_diamondtriangles.svg	35	no	44	0	711	0	0			0	0			1				0	
6.6.1	win	2023-07-11	16:22:08	16:26:52	280355	6108e2470b62bbe11b9f2e7c	4	1	main_z	7	advance_on_keypress_ZEE	6	stimuli_distractor_trianglediamonds.svg	stimuli_distractor_diamondtriangles.svg	35	no	57	0	501	0	0			0	0			1				0	
6.6.1	win	2023-07-11	16:22:08	16:26:54	282063	6108e2470b62bbe11b9f2e7c	4	1	main_z	7	main_z	7	stimuli_distractor_trianglediamonds.svg	stimuli_target_trianglerectangles.svg	25	yes	44	1	553	0	0			0	0			1				0	
6.6.1	win	2023-07-11	16:22:08	16:26:54	282063	6108e2470b62bbe11b9f2e7c	4	1	main_z	7	advance_on_keypress_ZEE	8	stimuli_distractor_trianglediamonds.svg	stimuli_target_trianglerectangles.svg	25	yes	57	0	631	0	0			0	0			1				0	
6.6.1	win	2023-07-11	16:22:08	16:26:55	283607	6108e2470b62bbe11b9f2e7c	4	1	main_z	7	main_z	9	stimuli_target_trianglesquares.svg	stimuli_distractor_diamondtriangles.svg	22	yes	44	1	264	0	0			0	0			1				0	
6.6.1	win	2023-07-11	16:22:08	16:26:55	283607	6108e2470b62bbe11b9f2e7c	4	1	main_z	7	advance_on_keypress_ZEE	10	stimuli_target_trianglesquares.svg	stimuli_distractor_diamondtriangles.svg	22	yes	57	0	554	0	0			0	0			1				0	
6.6.1	win	2023-07-11	16:22:08	16:26:57	285063	6108e2470b62bbe11b9f2e7c	4	1	main_z	7	main_z	11	stimuli_distractor_trianglediamonds.svg	stimuli_distractor_trianglediamonds.svg	34	no	44	0	253	0	0			0	0			1				0	
6.6.1	win	2023-07-11	16:22:08	16:26:57	285063	6108e2470b62bbe11b9f2e7c	4	1	main_z	7	advance_on_keypress_ZEE	12	stimuli_distractor_trianglediamonds.svg	stimuli_distractor_trianglediamonds.svg	34	no	57	0	1612	0	0			0	0			1				0	
6.6.1	win	2023-07-11	16:22:08	16:26:59	287712	6108e2470b62bbe11b9f2e7c	4	1	main_z	7	main_z	13	stimuli_target_squaretriangles.svg	stimuli_distractor_trianglediamonds.svg	3	yes	44	1	386	0	0			0	0			1				0	
6.6.1	win	2023-07-11	16:22:08	16:26:59	287712	6108e2470b62bbe11b9f2e7c	4	1	main_z	7	advance_on_keypress_ZEE	14	stimuli_target_squaretriangles.svg	stimuli_distractor_trianglediamonds.svg	3	yes	57	0	997	0	0			0	0			1				0	
6.6.1	win	2023-07-11	16:22:08	16:27:03	291359	6108e2470b62bbe11b9f2e7c	4	1	main_z	7	main_z	15	stimuli_distractor_diamondtriangles.svg	stimuli_distractor_diamondtriangles.svg	39	no	0	1	2000	0	0			0	0			1				0	
6.6.1	win	2023-07-11	16:22:08	16:27:03	291359	6108e2470b62bbe11b9f2e7c	4	1	main_z	7	advance_on_keypress_ZEE	16	stimuli_distractor_diamondtriangles.svg	stimuli_distractor_diamondtriangles.svg	39	no	57	0	550	0	0			0	0			1				0	
6.6.1	win	2023-07-11	16:22:08	16:27:05	293236	6108e2470b62bbe11b9f2e7c	4	1	main_z	7	main_z	17	stimuli_distractor_trianglediamonds.svg	stimuli_target_diamondrectangles.svg	27	yes	44	1	677	0	0			0	0			1				0	
6.6.1	win	2023-07-11	16:22:08	16:27:05	293236	6108e2470b62bbe11b9f2e7c	4	1	main_z	7	advance_on_keypress_ZEE	18	stimuli_distractor_trianglediamonds.svg	stimuli_target_diamondrectangles.svg	27	yes	57	0	681	0	0			0	0			1				0	
6.6.1	win	2023-07-11	16:22:08	16:27:08	295992	6108e2470b62bbe11b9f2e7c	4	1	main_z	7	main_z	19	stimuli_distractor_trianglediamonds.svg	stimuli_distractor_diamondtriangles.svg	36	no	44	0	1434	0	0			0	0			1				0	
6.6.1	win	2023-07-11	16:22:08	16:27:08	295992	6108e2470b62bbe11b9f2e7c	4	1	main_z	7	advance_on_keypress_ZEE	20	stimuli_distractor_trianglediamonds.svg	stimuli_distractor_diamondtriangles.svg	36	no	57	0	982	0	0			0	0			1				0	
6.6.1	win	2023-07-11	16:22:08	16:27:10	298141	6108e2470b62bbe11b9f2e7c	4	1	main_z	7	main_z	21	stimuli_target_diamondsquares.svg	stimuli_distractor_diamondtriangles.svg	24	yes	44	1	515	0	0			0	0			1				0	
6.6.1	win	2023-07-11	16:22:08	16:27:10	298141	6108e2470b62bbe11b9f2e7c	4	1	main_z	7	advance_on_keypress_ZEE	22	stimuli_target_diamondsquares.svg	stimuli_distractor_diamondtriangles.svg	24	yes	57	0	513	0	0			0	0			1				0	
6.6.1	win	2023-07-11	16:22:08	16:27:13	300976	6108e2470b62bbe11b9f2e7c	4	1	main_z	7	main_z	23	stimuli_distractor_trianglediamonds.svg	stimuli_target_squaretriangles.svg	11	yes	44	1	1668	0	0			0	0			1				0	
6.6.1	win	2023-07-11	16:22:08	16:27:13	300976	6108e2470b62bbe11b9f2e7c	4	1	main_z	7	advance_on_keypress_ZEE	24	stimuli_distractor_trianglediamonds.svg	stimuli_target_squaretriangles.svg	11	yes	57	0	645	0	0			0	0			1				0	
6.6.1	win	2023-07-11	16:22:08	16:27:15	302938	6108e2470b62bbe11b9f2e7c	4	1	main_z	7	main_z	25	stimuli_target_trianglesquares.svg	stimuli_distractor_trianglediamonds.svg	18	yes	44	1	664	0	0			0	0			1				0	
6.6.1	win	2023-07-11	16:22:08	16:27:15	302938	6108e2470b62bbe11b9f2e7c	4	1	main_z	7	advance_on_keypress_ZEE	26	stimuli_target_trianglesquares.svg	stimuli_distractor_trianglediamonds.svg	18	yes	57	0	690	0	0			0	0			1				0	
6.6.1	win	2023-07-11	16:22:08	16:27:16	304731	6108e2470b62bbe11b9f2e7c	4	1	main_z	7	main_z	27	stimuli_target_squaretriangles.svg	stimuli_distractor_diamondtriangles.svg	7	yes	44	1	457	0	0			0	0			1				0	
6.6.1	win	2023-07-11	16:22:08	16:27:16	304731	6108e2470b62bbe11b9f2e7c	4	1	main_z	7	advance_on_keypress_ZEE	28	stimuli_target_squaretriangles.svg	stimuli_distractor_diamondtriangles.svg	7	yes	57	0	944	0	0			0	0			1				0	
6.6.1	win	2023-07-11	16:22:08	16:27:19	306788	6108e2470b62bbe11b9f2e7c	4	1	main_z	7	main_z	29	stimuli_distractor_trianglediamonds.svg	stimuli_target_rectanglediamonds.svg	10	yes	44	1	465	0	0			0	0			1				0	
6.6.1	win	2023-07-11	16:22:08	16:27:19	306788	6108e2470b62bbe11b9f2e7c	4	1	main_z	7	advance_on_keypress_ZEE	30	stimuli_distractor_trianglediamonds.svg	stimuli_target_rectanglediamonds.svg	10	yes	57	0	624	0	0			0	0			1				0	
6.6.1	win	2023-07-11	16:22:08	16:27:22	309798	6108e2470b62bbe11b9f2e7c	4	1	main_z	7	main_z	31	stimuli_distractor_diamondtriangles.svg	stimuli_target_rectangletriangles.svg	13	yes	44	1	1741	0	0			0	0			1				0	
6.6.1	win	2023-07-11	16:22:08	16:27:22	309798	6108e2470b62bbe11b9f2e7c	4	1	main_z	7	advance_on_keypress_ZEE	32	stimuli_distractor_diamondtriangles.svg	stimuli_target_rectangletriangles.svg	13	yes	57	0	833	0	0			0	0			1				0	
6.6.1	win	2023-07-11	16:22:08	16:27:24	311892	6108e2470b62bbe11b9f2e7c	4	1	main_z	7	main_z	33	stimuli_target_diamondrectangles.svg	stimuli_distractor_diamondtriangles.svg	23	yes	44	1	619	0	0			0	0			1				0	
6.6.1	win	2023-07-11	16:22:08	16:27:24	311892	6108e2470b62bbe11b9f2e7c	4	1	main_z	7	advance_on_keypress_ZEE	34	stimuli_target_diamondrectangles.svg	stimuli_distractor_diamondtriangles.svg	23	yes	57	0	553	0	0			0	0			1				0	
6.6.1	win	2023-07-11	16:22:08	16:27:25	313528	6108e2470b62bbe11b9f2e7c	4	1	main_z	7	main_z	35	stimuli_target_squarediamonds.svg	stimuli_distractor_diamondtriangles.svg	8	yes	44	1	439	0	0			0	0			1				0	
6.6.1	win	2023-07-11	16:22:08	16:27:25	313528	6108e2470b62bbe11b9f2e7c	4	1	main_z	7	advance_on_keypress_ZEE	36	stimuli_target_squarediamonds.svg	stimuli_distractor_diamondtriangles.svg	8	yes	57	0	618	0	0			0	0			1				0	
6.6.1	win	2023-07-11	16:22:08	16:27:27	315199	6108e2470b62bbe11b9f2e7c	4	1	main_z	7	main_z	37	stimuli_distractor_diamondtriangles.svg	stimuli_target_squaretriangles.svg	15	yes	44	1	409	0	0			0	0			1				0	
6.6.1	win	2023-07-11	16:22:08	16:27:27	315199	6108e2470b62bbe11b9f2e7c	4	1	main_z	7	advance_on_keypress_ZEE	38	stimuli_distractor_diamondtriangles.svg	stimuli_target_squaretriangles.svg	15	yes	57	0	651	0	0			0	0			1				0	
6.6.1	win	2023-07-11	16:22:08	16:27:30	318489	6108e2470b62bbe11b9f2e7c	4	1	main_z	7	main_z	39	stimuli_distractor_trianglediamonds.svg	stimuli_distractor_trianglediamonds.svg	33	no	0	1	2000	0	0			0	0			1				0	
6.6.1	win	2023-07-11	16:22:08	16:27:30	318489	6108e2470b62bbe11b9f2e7c	4	1	main_z	7	advance_on_keypress_ZEE	40	stimuli_distractor_trianglediamonds.svg	stimuli_distractor_trianglediamonds.svg	33	no	57	0	247	0	0			0	0			1				0	
6.6.1	win	2023-07-11	16:22:08	16:27:32	320070	6108e2470b62bbe11b9f2e7c	4	1	main_z	7	main_z	41	stimuli_distractor_diamondtriangles.svg	stimuli_distractor_trianglediamonds.svg	37	no	44	0	681	0	0			0	0			1				0	
6.6.1	win	2023-07-11	16:22:08	16:27:32	320070	6108e2470b62bbe11b9f2e7c	4	1	main_z	7	advance_on_keypress_ZEE	42	stimuli_distractor_diamondtriangles.svg	stimuli_distractor_trianglediamonds.svg	37	no	57	0	1828	0	0			0	0			1				0	
6.6.1	win	2023-07-11	16:22:08	16:27:35	323236	6108e2470b62bbe11b9f2e7c	4	1	main_z	7	main_z	43	stimuli_distractor_diamondtriangles.svg	stimuli_target_diamondsquares.svg	32	yes	44	1	681	0	0			0	0			1				0	
6.6.1	win	2023-07-11	16:22:08	16:27:35	323236	6108e2470b62bbe11b9f2e7c	4	1	main_z	7	advance_on_keypress_ZEE	44	stimuli_distractor_diamondtriangles.svg	stimuli_target_diamondsquares.svg	32	yes	57	0	688	0	0			0	0			1				0	
6.6.1	win	2023-07-11	16:22:08	16:27:37	324904	6108e2470b62bbe11b9f2e7c	4	1	main_z	7	main_z	45	stimuli_distractor_trianglediamonds.svg	stimuli_target_diamondsquares.svg	28	yes	44	1	333	0	0			0	0			1				0	
6.6.1	win	2023-07-11	16:22:08	16:27:37	324904	6108e2470b62bbe11b9f2e7c	4	1	main_z	7	advance_on_keypress_ZEE	46	stimuli_distractor_trianglediamonds.svg	stimuli_target_diamondsquares.svg	28	yes	57	0	923	0	0			0	0			1				0	
6.6.1	win	2023-07-11	16:22:08	16:27:38	326671	6108e2470b62bbe11b9f2e7c	4	1	main_z	7	main_z	47	stimuli_distractor_diamondtriangles.svg	stimuli_target_rectanglediamonds.svg	14	yes	44	1	200	0	0			0	0			1				0	
6.6.1	win	2023-07-11	16:22:08	16:27:38	326671	6108e2470b62bbe11b9f2e7c	4	1	main_z	7	advance_on_keypress_ZEE	48	stimuli_distractor_diamondtriangles.svg	stimuli_target_rectanglediamonds.svg	14	yes	57	0	798	0	0			0	0			1				0	
6.6.1	win	2023-07-11	16:22:08	16:27:40	328387	6108e2470b62bbe11b9f2e7c	4	1	main_z	7	main_z	49	stimuli_target_rectanglediamonds.svg	stimuli_distractor_trianglediamonds.svg	2	yes	44	1	266	0	0			0	0			1				0	
6.6.1	win	2023-07-11	16:22:08	16:27:40	328387	6108e2470b62bbe11b9f2e7c	4	1	main_z	7	advance_on_keypress_ZEE	50	stimuli_target_rectanglediamonds.svg	stimuli_distractor_trianglediamonds.svg	2	yes	57	0	617	0	0			0	0			1				0	
6.6.1	win	2023-07-11	16:22:08	16:27:42	329958	6108e2470b62bbe11b9f2e7c	4	1	main_z	7	main_z	51	stimuli_distractor_diamondtriangles.svg	stimuli_distractor_trianglediamonds.svg	38	no	44	0	304	0	0			0	0			1				0	
6.6.1	win	2023-07-11	16:22:08	16:27:42	329958	6108e2470b62bbe11b9f2e7c	4	1	main_z	7	advance_on_keypress_ZEE	52	stimuli_distractor_diamondtriangles.svg	stimuli_distractor_trianglediamonds.svg	38	no	57	0	2124	0	0			0	0			1				0	
6.6.1	win	2023-07-11	16:22:08	16:27:45	333413	6108e2470b62bbe11b9f2e7c	4	1	main_z	7	main_z	53	stimuli_distractor_diamondtriangles.svg	stimuli_target_trianglesquares.svg	30	yes	44	1	693	0	0			0	0			1				0	
6.6.1	win	2023-07-11	16:22:08	16:27:45	333413	6108e2470b62bbe11b9f2e7c	4	1	main_z	7	advance_on_keypress_ZEE	54	stimuli_distractor_diamondtriangles.svg	stimuli_target_trianglesquares.svg	30	yes	57	0	1307	0	0			0	0			1				0	
6.6.1	win	2023-07-11	16:22:08	16:27:48	336286	6108e2470b62bbe11b9f2e7c	4	1	main_z	7	main_z	55	stimuli_distractor_trianglediamonds.svg	stimuli_target_rectangletriangles.svg	9	yes	44	1	933	0	0			0	0			1				0	
6.6.1	win	2023-07-11	16:22:08	16:27:48	336286	6108e2470b62bbe11b9f2e7c	4	1	main_z	7	advance_on_keypress_ZEE	56	stimuli_distractor_trianglediamonds.svg	stimuli_target_rectangletriangles.svg	9	yes	57	0	579	0	0			0	0			1				0	
6.6.1	win	2023-07-11	16:22:08	16:27:50	338277	6108e2470b62bbe11b9f2e7c	4	1	main_z	7	main_z	57	stimuli_distractor_diamondtriangles.svg	stimuli_target_diamondrectangles.svg	31	yes	44	1	758	0	0			0	0			1				0	
6.6.1	win	2023-07-11	16:22:08	16:27:50	338277	6108e2470b62bbe11b9f2e7c	4	1	main_z	7	advance_on_keypress_ZEE	58	stimuli_distractor_diamondtriangles.svg	stimuli_target_diamondrectangles.svg	31	yes	57	0	534	0	0			0	0			1				0	
6.6.1	win	2023-07-11	16:22:08	16:27:52	340296	6108e2470b62bbe11b9f2e7c	4	1	main_z	7	main_z	59	stimuli_target_trianglerectangles.svg	stimuli_distractor_trianglediamonds.svg	17	yes	44	1	827	0	0			0	0			1				0	
6.6.1	win	2023-07-11	16:22:08	16:27:52	340296	6108e2470b62bbe11b9f2e7c	4	1	main_z	7	advance_on_keypress_ZEE	60	stimuli_target_trianglerectangles.svg	stimuli_distractor_trianglediamonds.svg	17	yes	57	0	719	0	0			0	0			1				0	
6.6.1	win	2023-07-11	16:22:08	16:27:54	341949	6108e2470b62bbe11b9f2e7c	4	1	main_z	7	main_z	61	stimuli_target_rectangletriangles.svg	stimuli_distractor_diamondtriangles.svg	5	yes	44	1	296	0	0			0	0			1				0	
6.6.1	win	2023-07-11	16:22:08	16:27:54	341949	6108e2470b62bbe11b9f2e7c	4	1	main_z	7	advance_on_keypress_ZEE	62	stimuli_target_rectangletriangles.svg	stimuli_distractor_diamondtriangles.svg	5	yes	57	0	748	0	0			0	0			1				0	
6.6.1	win	2023-07-11	16:22:08	16:27:55	343570	6108e2470b62bbe11b9f2e7c	4	1	main_z	7	main_z	63	stimuli_distractor_trianglediamonds.svg	stimuli_target_trianglesquares.svg	26	yes	44	1	218	0	0			0	0			1				0	
6.6.1	win	2023-07-11	16:22:08	16:27:55	343570	6108e2470b62bbe11b9f2e7c	4	1	main_z	7	advance_on_keypress_ZEE	64	stimuli_distractor_trianglediamonds.svg	stimuli_target_trianglesquares.svg	26	yes	57	0	784	0	0			0	0			1				0	
6.6.1	win	2023-07-11	16:22:08	16:27:57	345400	6108e2470b62bbe11b9f2e7c	4	1	main_z	7	main_z	65	stimuli_target_rectanglediamonds.svg	stimuli_distractor_diamondtriangles.svg	6	yes	44	1	398	0	0			0	0			1				0	
6.6.1	win	2023-07-11	16:22:08	16:27:57	345400	6108e2470b62bbe11b9f2e7c	4	1	main_z	7	advance_on_keypress_ZEE	66	stimuli_target_rectanglediamonds.svg	stimuli_distractor_diamondtriangles.svg	6	yes	57	0	662	0	0			0	0			1				0	
6.6.1	win	2023-07-11	16:22:08	16:27:59	346991	6108e2470b62bbe11b9f2e7c	4	1	main_z	7	main_z	67	stimuli_target_diamondrectangles.svg	stimuli_distractor_trianglediamonds.svg	19	yes	44	1	289	0	0			0	0			1				0	
6.6.1	win	2023-07-11	16:22:08	16:27:59	346991	6108e2470b62bbe11b9f2e7c	4	1	main_z	7	advance_on_keypress_ZEE	68	stimuli_target_diamondrectangles.svg	stimuli_distractor_trianglediamonds.svg	19	yes	57	0	606	0	0			0	0			1				0	
6.6.1	win	2023-07-11	16:22:08	16:28:00	348463	6108e2470b62bbe11b9f2e7c	4	1	main_z	7	main_z	69	stimuli_distractor_diamondtriangles.svg	stimuli_target_squarediamonds.svg	16	yes	44	1	228	0	0			0	0			1				0	
6.6.1	win	2023-07-11	16:22:08	16:28:00	348463	6108e2470b62bbe11b9f2e7c	4	1	main_z	7	advance_on_keypress_ZEE	70	stimuli_distractor_diamondtriangles.svg	stimuli_target_squarediamonds.svg	16	yes	57	0	1083	0	0			0	0			1				0	
6.6.1	win	2023-07-11	16:22:08	16:28:02	350533	6108e2470b62bbe11b9f2e7c	4	1	main_z	7	main_z	71	stimuli_target_squarediamonds.svg	stimuli_distractor_trianglediamonds.svg	4	yes	44	1	349	0	0			0	0			1				0	
6.6.1	win	2023-07-11	16:22:08	16:28:02	350533	6108e2470b62bbe11b9f2e7c	4	1	main_z	7	advance_on_keypress_ZEE	72	stimuli_target_squarediamonds.svg	stimuli_distractor_trianglediamonds.svg	4	yes	57	0	788	0	0			0	0			1				0	
6.6.1	win	2023-07-11	16:22:08	16:28:04	352393	6108e2470b62bbe11b9f2e7c	4	1	main_z	7	main_z	73	stimuli_target_rectangletriangles.svg	stimuli_distractor_trianglediamonds.svg	1	yes	44	1	426	0	0			0	0			1				0	
6.6.1	win	2023-07-11	16:22:08	16:28:04	352393	6108e2470b62bbe11b9f2e7c	4	1	main_z	7	advance_on_keypress_ZEE	74	stimuli_target_rectangletriangles.svg	stimuli_distractor_trianglediamonds.svg	1	yes	57	0	823	0	0			0	0			1				0	
6.6.1	win	2023-07-11	16:22:08	16:28:06	354547	6108e2470b62bbe11b9f2e7c	4	1	main_z	7	main_z	75	stimuli_target_trianglerectangles.svg	stimuli_distractor_diamondtriangles.svg	21	yes	44	1	696	0	0			0	0			1				0	
6.6.1	win	2023-07-11	16:22:08	16:28:06	354547	6108e2470b62bbe11b9f2e7c	4	1	main_z	7	advance_on_keypress_ZEE	76	stimuli_target_trianglerectangles.svg	stimuli_distractor_diamondtriangles.svg	21	yes	57	0	691	0	0			0	0			1				0	
6.6.1	win	2023-07-11	16:22:08	16:28:08	356156	6108e2470b62bbe11b9f2e7c	4	1	main_z	7	main_z	77	stimuli_target_diamondsquares.svg	stimuli_distractor_trianglediamonds.svg	20	yes	44	1	272	0	0			0	0			1				0	
6.6.1	win	2023-07-11	16:22:08	16:28:08	356156	6108e2470b62bbe11b9f2e7c	4	1	main_z	7	advance_on_keypress_ZEE	78	stimuli_target_diamondsquares.svg	stimuli_distractor_trianglediamonds.svg	20	yes	57	0	794	0	0			0	0			1				0	
6.6.1	win	2023-07-11	16:22:08	16:28:10	357853	6108e2470b62bbe11b9f2e7c	4	1	main_z	7	main_z	79	stimuli_distractor_diamondtriangles.svg	stimuli_target_trianglerectangles.svg	29	yes	44	1	269	0	0			0	0			1				0	
6.6.1	win	2023-07-11	16:22:08	16:28:10	357853	6108e2470b62bbe11b9f2e7c	4	1	main_z	7	advance_on_keypress_ZEE	80	stimuli_distractor_diamondtriangles.svg	stimuli_target_trianglerectangles.svg	29	yes	57	0	1320	0	0			0	0			1				0	
6.6.1	win	2023-07-11	16:22:08	16:28:12	359927	6108e2470b62bbe11b9f2e7c	4	1	main_z	7	main_z	81	stimuli_distractor_diamondtriangles.svg	stimuli_target_trianglerectangles.svg	29	yes	44	1	110	0	0			0	0			1				0	
6.6.1	win	2023-07-11	16:22:08	16:28:12	359927	6108e2470b62bbe11b9f2e7c	4	1	main_z	7	advance_on_keypress_ZEE	82	stimuli_distractor_diamondtriangles.svg	stimuli_target_trianglerectangles.svg	29	yes	57	0	853	0	0			0	0			1				0	
6.6.1	win	2023-07-11	16:22:08	16:28:14	361862	6108e2470b62bbe11b9f2e7c	4	1	main_z	7	main_z	83	stimuli_distractor_trianglediamonds.svg	stimuli_distractor_trianglediamonds.svg	34	no	44	0	446	0	0			0	0			1				0	
6.6.1	win	2023-07-11	16:22:08	16:28:14	361862	6108e2470b62bbe11b9f2e7c	4	1	main_z	7	advance_on_keypress_ZEE	84	stimuli_distractor_trianglediamonds.svg	stimuli_distractor_trianglediamonds.svg	34	no	57	0	1489	0	0			0	0			1				0	
6.6.1	win	2023-07-11	16:22:08	16:28:16	364281	6108e2470b62bbe11b9f2e7c	4	1	main_z	7	main_z	85	stimuli_distractor_diamondtriangles.svg	stimuli_distractor_diamondtriangles.svg	39	no	44	0	282	0	0			0	0			1				0	
6.6.1	win	2023-07-11	16:22:08	16:28:16	364281	6108e2470b62bbe11b9f2e7c	4	1	main_z	7	advance_on_keypress_ZEE	86	stimuli_distractor_diamondtriangles.svg	stimuli_distractor_diamondtriangles.svg	39	no	57	0	802	0	0			0	0			1				0	
6.6.1	win	2023-07-11	16:22:08	16:28:18	366264	6108e2470b62bbe11b9f2e7c	4	1	main_z	7	main_z	87	stimuli_target_trianglerectangles.svg	stimuli_distractor_trianglediamonds.svg	17	yes	44	1	531	0	0			0	0			1				0	
6.6.1	win	2023-07-11	16:22:08	16:28:18	366264	6108e2470b62bbe11b9f2e7c	4	1	main_z	7	advance_on_keypress_ZEE	88	stimuli_target_trianglerectangles.svg	stimuli_distractor_trianglediamonds.svg	17	yes	57	0	593	0	0			0	0			1				0	
6.6.1	win	2023-07-11	16:22:08	16:28:19	367752	6108e2470b62bbe11b9f2e7c	4	1	main_z	7	main_z	89	stimuli_distractor_diamondtriangles.svg	stimuli_target_squarediamonds.svg	16	yes	44	1	236	0	0			0	0			1				0	
6.6.1	win	2023-07-11	16:22:08	16:28:19	367752	6108e2470b62bbe11b9f2e7c	4	1	main_z	7	advance_on_keypress_ZEE	90	stimuli_distractor_diamondtriangles.svg	stimuli_target_squarediamonds.svg	16	yes	57	0	941	0	0			0	0			1				0	
6.6.1	win	2023-07-11	16:22:08	16:28:21	369575	6108e2470b62bbe11b9f2e7c	4	1	main_z	7	main_z	91	stimuli_distractor_diamondtriangles.svg	stimuli_target_rectanglediamonds.svg	14	yes	44	1	243	0	0			0	0			1				0	
6.6.1	win	2023-07-11	16:22:08	16:28:21	369575	6108e2470b62bbe11b9f2e7c	4	1	main_z	7	advance_on_keypress_ZEE	92	stimuli_distractor_diamondtriangles.svg	stimuli_target_rectanglediamonds.svg	14	yes	57	0	711	0	0			0	0			1				0	
6.6.1	win	2023-07-11	16:22:08	16:28:23	371306	6108e2470b62bbe11b9f2e7c	4	1	main_z	7	main_z	93	stimuli_distractor_diamondtriangles.svg	stimuli_target_squaretriangles.svg	15	yes	44	1	391	0	0			0	0			1				0	
6.6.1	win	2023-07-11	16:22:08	16:28:23	371306	6108e2470b62bbe11b9f2e7c	4	1	main_z	7	advance_on_keypress_ZEE	94	stimuli_distractor_diamondtriangles.svg	stimuli_target_squaretriangles.svg	15	yes	57	0	1513	0	0			0	0			1				0	
6.6.1	win	2023-07-11	16:22:08	16:28:25	373683	6108e2470b62bbe11b9f2e7c	4	1	main_z	7	main_z	95	stimuli_distractor_diamondtriangles.svg	stimuli_target_trianglesquares.svg	30	yes	44	1	218	0	0			0	0			1				0	
6.6.1	win	2023-07-11	16:22:08	16:28:25	373683	6108e2470b62bbe11b9f2e7c	4	1	main_z	7	advance_on_keypress_ZEE	96	stimuli_distractor_diamondtriangles.svg	stimuli_target_trianglesquares.svg	30	yes	57	0	1029	0	0			0	0			1				0	
6.6.1	win	2023-07-11	16:22:08	16:28:28	375959	6108e2470b62bbe11b9f2e7c	4	1	main_z	7	main_z	97	stimuli_target_trianglerectangles.svg	stimuli_distractor_diamondtriangles.svg	21	yes	44	1	594	0	0			0	0			1				0	
6.6.1	win	2023-07-11	16:22:08	16:28:28	375959	6108e2470b62bbe11b9f2e7c	4	1	main_z	7	advance_on_keypress_ZEE	98	stimuli_target_trianglerectangles.svg	stimuli_distractor_diamondtriangles.svg	21	yes	57	0	760	0	0			0	0			1				0	
6.6.1	win	2023-07-11	16:22:08	16:28:29	377640	6108e2470b62bbe11b9f2e7c	4	1	main_z	7	main_z	99	stimuli_distractor_trianglediamonds.svg	stimuli_distractor_diamondtriangles.svg	35	no	44	0	276	0	0			0	0			1				0	
6.6.1	win	2023-07-11	16:22:08	16:28:29	377640	6108e2470b62bbe11b9f2e7c	4	1	main_z	7	advance_on_keypress_ZEE	100	stimuli_distractor_trianglediamonds.svg	stimuli_distractor_diamondtriangles.svg	35	no	57	0	842	0	0			0	0			1				0	
6.6.1	win	2023-07-11	16:22:08	16:28:33	381114	6108e2470b62bbe11b9f2e7c	4	1	main_z	7	main_z	101	stimuli_distractor_trianglediamonds.svg	stimuli_target_rectangletriangles.svg	9	yes	0	0	2000	0	0			0	0			1				0	
6.6.1	win	2023-07-11	16:22:08	16:28:33	381114	6108e2470b62bbe11b9f2e7c	4	1	main_z	7	advance_on_keypress_ZEE	102	stimuli_distractor_trianglediamonds.svg	stimuli_target_rectangletriangles.svg	9	yes	57	0	253	0	0			0	0			1				0	
6.6.1	win	2023-07-11	16:22:08	16:28:36	383839	6108e2470b62bbe11b9f2e7c	4	1	main_z	7	main_z	103	stimuli_distractor_trianglediamonds.svg	stimuli_target_squarediamonds.svg	12	yes	44	1	1825	0	0			0	0			1				0	
6.6.1	win	2023-07-11	16:22:08	16:28:36	383839	6108e2470b62bbe11b9f2e7c	4	1	main_z	7	advance_on_keypress_ZEE	104	stimuli_distractor_trianglediamonds.svg	stimuli_target_squarediamonds.svg	12	yes	57	0	1358	0	0			0	0			1				0	
6.6.1	win	2023-07-11	16:22:08	16:28:38	386186	6108e2470b62bbe11b9f2e7c	4	1	main_z	7	main_z	105	stimuli_distractor_diamondtriangles.svg	stimuli_target_diamondrectangles.svg	31	yes	44	1	356	0	0			0	0			1				0	
6.6.1	win	2023-07-11	16:22:08	16:28:38	386186	6108e2470b62bbe11b9f2e7c	4	1	main_z	7	advance_on_keypress_ZEE	106	stimuli_distractor_diamondtriangles.svg	stimuli_target_diamondrectangles.svg	31	yes	57	0	542	0	0			0	0			1				0	
6.6.1	win	2023-07-11	16:22:08	16:28:39	387655	6108e2470b62bbe11b9f2e7c	4	1	main_z	7	main_z	107	stimuli_distractor_diamondtriangles.svg	stimuli_distractor_trianglediamonds.svg	37	no	44	0	292	0	0			0	0			1				0	
6.6.1	win	2023-07-11	16:22:08	16:28:39	387655	6108e2470b62bbe11b9f2e7c	4	1	main_z	7	advance_on_keypress_ZEE	108	stimuli_distractor_diamondtriangles.svg	stimuli_distractor_trianglediamonds.svg	37	no	57	0	1309	0	0			0	0			1				0	
6.6.1	win	2023-07-11	16:22:08	16:28:42	390094	6108e2470b62bbe11b9f2e7c	4	1	main_z	7	main_z	109	stimuli_target_trianglesquares.svg	stimuli_distractor_diamondtriangles.svg	22	yes	44	1	498	0	0			0	0			1				0	
6.6.1	win	2023-07-11	16:22:08	16:28:42	390094	6108e2470b62bbe11b9f2e7c	4	1	main_z	7	advance_on_keypress_ZEE	110	stimuli_target_trianglesquares.svg	stimuli_distractor_diamondtriangles.svg	22	yes	57	0	809	0	0			0	0			1				0	
6.6.1	win	2023-07-11	16:22:08	16:28:43	391763	6108e2470b62bbe11b9f2e7c	4	1	main_z	7	main_z	111	stimuli_target_squaretriangles.svg	stimuli_distractor_diamondtriangles.svg	7	yes	44	1	200	0	0			0	0			1				0	
6.6.1	win	2023-07-11	16:22:08	16:28:43	391763	6108e2470b62bbe11b9f2e7c	4	1	main_z	7	advance_on_keypress_ZEE	112	stimuli_target_squaretriangles.svg	stimuli_distractor_diamondtriangles.svg	7	yes	57	0	1435	0	0			0	0			1				0	
6.6.1	win	2023-07-11	16:22:08	16:28:48	395846	6108e2470b62bbe11b9f2e7c	4	1	main_z	7	main_z	113	stimuli_distractor_diamondtriangles.svg	stimuli_distractor_trianglediamonds.svg	38	no	0	1	2000	0	0			0	0			1				0	
6.6.1	win	2023-07-11	16:22:08	16:28:48	395846	6108e2470b62bbe11b9f2e7c	4	1	main_z	7	advance_on_keypress_ZEE	114	stimuli_distractor_diamondtriangles.svg	stimuli_distractor_trianglediamonds.svg	38	no	57	0	1424	0	0			0	0			1				0	
6.6.1	win	2023-07-11	16:22:08	16:28:50	398507	6108e2470b62bbe11b9f2e7c	4	1	main_z	7	main_z	115	stimuli_target_diamondrectangles.svg	stimuli_distractor_trianglediamonds.svg	19	yes	44	1	595	0	0			0	0			1				0	
6.6.1	win	2023-07-11	16:22:08	16:28:50	398507	6108e2470b62bbe11b9f2e7c	4	1	main_z	7	advance_on_keypress_ZEE	116	stimuli_target_diamondrectangles.svg	stimuli_distractor_trianglediamonds.svg	19	yes	57	0	651	0	0			0	0			1				0	
6.6.1	win	2023-07-11	16:22:08	16:28:52	400034	6108e2470b62bbe11b9f2e7c	4	1	main_z	7	main_z	117	stimuli_distractor_trianglediamonds.svg	stimuli_target_rectanglediamonds.svg	10	yes	44	1	223	0	0			0	0			1				0	
6.6.1	win	2023-07-11	16:22:08	16:28:52	400034	6108e2470b62bbe11b9f2e7c	4	1	main_z	7	advance_on_keypress_ZEE	118	stimuli_distractor_trianglediamonds.svg	stimuli_target_rectanglediamonds.svg	10	yes	57	0	799	0	0			0	0			1				0	
6.6.1	win	2023-07-11	16:22:08	16:28:53	401707	6108e2470b62bbe11b9f2e7c	4	1	main_z	7	main_z	119	stimuli_target_trianglesquares.svg	stimuli_distractor_trianglediamonds.svg	18	yes	44	1	228	0	0			0	0			1				0	
6.6.1	win	2023-07-11	16:22:08	16:28:53	401707	6108e2470b62bbe11b9f2e7c	4	1	main_z	7	advance_on_keypress_ZEE	120	stimuli_target_trianglesquares.svg	stimuli_distractor_trianglediamonds.svg	18	yes	57	0	703	0	0			0	0			1				0	
6.6.1	win	2023-07-11	16:22:08	16:28:55	403305	6108e2470b62bbe11b9f2e7c	4	1	main_z	7	main_z	121	stimuli_distractor_diamondtriangles.svg	stimuli_target_diamondsquares.svg	32	yes	44	1	244	0	0			0	0			1				0	
6.6.1	win	2023-07-11	16:22:08	16:28:55	403305	6108e2470b62bbe11b9f2e7c	4	1	main_z	7	advance_on_keypress_ZEE	122	stimuli_distractor_diamondtriangles.svg	stimuli_target_diamondsquares.svg	32	yes	57	0	839	0	0			0	0			1				0	
6.6.1	win	2023-07-11	16:22:08	16:28:57	404998	6108e2470b62bbe11b9f2e7c	4	1	main_z	7	main_z	123	stimuli_target_squarediamonds.svg	stimuli_distractor_diamondtriangles.svg	8	yes	44	1	221	0	0			0	0			1				0	
6.6.1	win	2023-07-11	16:22:08	16:28:57	404998	6108e2470b62bbe11b9f2e7c	4	1	main_z	7	advance_on_keypress_ZEE	124	stimuli_target_squarediamonds.svg	stimuli_distractor_diamondtriangles.svg	8	yes	57	0	754	0	0			0	0			1				0	
6.6.1	win	2023-07-11	16:22:08	16:28:58	406588	6108e2470b62bbe11b9f2e7c	4	1	main_z	7	main_z	125	stimuli_distractor_trianglediamonds.svg	stimuli_target_diamondsquares.svg	28	yes	44	1	194	0	0			0	0			1				0	
6.6.1	win	2023-07-11	16:22:08	16:28:58	406588	6108e2470b62bbe11b9f2e7c	4	1	main_z	7	advance_on_keypress_ZEE	126	stimuli_distractor_trianglediamonds.svg	stimuli_target_diamondsquares.svg	28	yes	57	0	648	0	0			0	0			1				0	
6.6.1	win	2023-07-11	16:22:08	16:29:00	408223	6108e2470b62bbe11b9f2e7c	4	1	main_z	7	main_z	127	stimuli_target_rectanglediamonds.svg	stimuli_distractor_trianglediamonds.svg	2	yes	44	1	346	0	0			0	0			1				0	
6.6.1	win	2023-07-11	16:22:08	16:29:00	408223	6108e2470b62bbe11b9f2e7c	4	1	main_z	7	advance_on_keypress_ZEE	128	stimuli_target_rectanglediamonds.svg	stimuli_distractor_trianglediamonds.svg	2	yes	57	0	639	0	0			0	0			1				0	
6.6.1	win	2023-07-11	16:22:08	16:29:02	410124	6108e2470b62bbe11b9f2e7c	4	1	main_z	7	main_z	129	stimuli_target_diamondrectangles.svg	stimuli_distractor_diamondtriangles.svg	23	yes	44	1	614	0	0			0	0			1				0	
6.6.1	win	2023-07-11	16:22:08	16:29:02	410124	6108e2470b62bbe11b9f2e7c	4	1	main_z	7	advance_on_keypress_ZEE	130	stimuli_target_diamondrectangles.svg	stimuli_distractor_diamondtriangles.svg	23	yes	57	0	633	0	0			0	0			1				0	
6.6.1	win	2023-07-11	16:22:08	16:29:03	411690	6108e2470b62bbe11b9f2e7c	4	1	main_z	7	main_z	131	stimuli_target_rectangletriangles.svg	stimuli_distractor_trianglediamonds.svg	1	yes	44	1	280	0	0			0	0			1				0	
6.6.1	win	2023-07-11	16:22:08	16:29:03	411690	6108e2470b62bbe11b9f2e7c	4	1	main_z	7	advance_on_keypress_ZEE	132	stimuli_target_rectangletriangles.svg	stimuli_distractor_trianglediamonds.svg	1	yes	57	0	662	0	0			0	0			1				0	
6.6.1	win	2023-07-11	16:22:08	16:29:05	413276	6108e2470b62bbe11b9f2e7c	4	1	main_z	7	main_z	133	stimuli_target_rectangletriangles.svg	stimuli_distractor_diamondtriangles.svg	5	yes	44	1	266	0	0			0	0			1				0	
6.6.1	win	2023-07-11	16:22:08	16:29:05	413276	6108e2470b62bbe11b9f2e7c	4	1	main_z	7	advance_on_keypress_ZEE	134	stimuli_target_rectangletriangles.svg	stimuli_distractor_diamondtriangles.svg	5	yes	57	0	780	0	0			0	0			1				0	
6.6.1	win	2023-07-11	16:22:08	16:29:07	415229	6108e2470b62bbe11b9f2e7c	4	1	main_z	7	main_z	135	stimuli_target_squarediamonds.svg	stimuli_distractor_trianglediamonds.svg	4	yes	44	1	520	0	0			0	0			1				0	
6.6.1	win	2023-07-11	16:22:08	16:29:07	415229	6108e2470b62bbe11b9f2e7c	4	1	main_z	7	advance_on_keypress_ZEE	136	stimuli_target_squarediamonds.svg	stimuli_distractor_trianglediamonds.svg	4	yes	57	0	764	0	0			0	0			1				0	
6.6.1	win	2023-07-11	16:22:08	16:29:09	416898	6108e2470b62bbe11b9f2e7c	4	1	main_z	7	main_z	137	stimuli_distractor_trianglediamonds.svg	stimuli_target_squaretriangles.svg	11	yes	44	1	255	0	0			0	0			1				0	
6.6.1	win	2023-07-11	16:22:08	16:29:09	416898	6108e2470b62bbe11b9f2e7c	4	1	main_z	7	advance_on_keypress_ZEE	138	stimuli_distractor_trianglediamonds.svg	stimuli_target_squaretriangles.svg	11	yes	57	0	765	0	0			0	0			1				0	
6.6.1	win	2023-07-11	16:22:08	16:29:10	418567	6108e2470b62bbe11b9f2e7c	4	1	main_z	7	main_z	139	stimuli_target_rectanglediamonds.svg	stimuli_distractor_diamondtriangles.svg	6	yes	44	1	258	0	0			0	0			1				0	
6.6.1	win	2023-07-11	16:22:08	16:29:10	418567	6108e2470b62bbe11b9f2e7c	4	1	main_z	7	advance_on_keypress_ZEE	140	stimuli_target_rectanglediamonds.svg	stimuli_distractor_diamondtriangles.svg	6	yes	57	0	678	0	0			0	0			1				0	
6.6.1	win	2023-07-11	16:22:08	16:29:12	420080	6108e2470b62bbe11b9f2e7c	4	1	main_z	7	main_z	141	stimuli_distractor_diamondtriangles.svg	stimuli_target_rectangletriangles.svg	13	yes	44	1	204	0	0			0	0			1				0	
6.6.1	win	2023-07-11	16:22:08	16:29:12	420080	6108e2470b62bbe11b9f2e7c	4	1	main_z	7	advance_on_keypress_ZEE	142	stimuli_distractor_diamondtriangles.svg	stimuli_target_rectangletriangles.svg	13	yes	57	0	692	0	0			0	0			1				0	
6.6.1	win	2023-07-11	16:22:08	16:29:13	421605	6108e2470b62bbe11b9f2e7c	4	1	main_z	7	main_z	143	stimuli_target_diamondsquares.svg	stimuli_distractor_diamondtriangles.svg	24	yes	44	1	180	0	0			0	0			1				0	
6.6.1	win	2023-07-11	16:22:08	16:29:13	421605	6108e2470b62bbe11b9f2e7c	4	1	main_z	7	advance_on_keypress_ZEE	144	stimuli_target_diamondsquares.svg	stimuli_distractor_diamondtriangles.svg	24	yes	57	0	774	0	0			0	0			1				0	
6.6.1	win	2023-07-11	16:22:08	16:29:17	425025	6108e2470b62bbe11b9f2e7c	4	1	main_z	7	main_z	145	stimuli_distractor_trianglediamonds.svg	stimuli_target_diamondrectangles.svg	27	yes	0	0	2000	0	0			0	0			1				0	
6.6.1	win	2023-07-11	16:22:08	16:29:17	425025	6108e2470b62bbe11b9f2e7c	4	1	main_z	7	advance_on_keypress_ZEE	146	stimuli_distractor_trianglediamonds.svg	stimuli_target_diamondrectangles.svg	27	yes	57	0	1516	0	0			0	0			1				0	
6.6.1	win	2023-07-11	16:22:08	16:29:19	427194	6108e2470b62bbe11b9f2e7c	4	1	main_z	7	main_z	147	stimuli_target_diamondsquares.svg	stimuli_distractor_trianglediamonds.svg	20	yes	44	1	3	0	0			0	0			1				0	
6.6.1	win	2023-07-11	16:22:08	16:29:19	427194	6108e2470b62bbe11b9f2e7c	4	1	main_z	7	advance_on_keypress_ZEE	148	stimuli_target_diamondsquares.svg	stimuli_distractor_trianglediamonds.svg	20	yes	57	0	1654	0	0			0	0			1				0	
6.6.1	win	2023-07-11	16:22:08	16:29:21	429637	6108e2470b62bbe11b9f2e7c	4	1	main_z	7	main_z	149	stimuli_distractor_trianglediamonds.svg	stimuli_distractor_diamondtriangles.svg	36	no	44	0	146	0	0			0	0			1				0	
6.6.1	win	2023-07-11	16:22:08	16:29:21	429637	6108e2470b62bbe11b9f2e7c	4	1	main_z	7	advance_on_keypress_ZEE	150	stimuli_distractor_trianglediamonds.svg	stimuli_distractor_diamondtriangles.svg	36	no	57	0	2241	0	0			0	0			1				0	
6.6.1	win	2023-07-11	16:22:08	16:29:26	434524	6108e2470b62bbe11b9f2e7c	4	1	main_z	7	main_z	151	stimuli_distractor_trianglediamonds.svg	stimuli_distractor_trianglediamonds.svg	33	no	0	1	2000	0	0			0	0			1				0	
6.6.1	win	2023-07-11	16:22:08	16:29:26	434524	6108e2470b62bbe11b9f2e7c	4	1	main_z	7	advance_on_keypress_ZEE	152	stimuli_distractor_trianglediamonds.svg	stimuli_distractor_trianglediamonds.svg	33	no	57	0	812	0	0			0	0			1				0	
6.6.1	win	2023-07-11	16:22:08	16:29:29	436765	6108e2470b62bbe11b9f2e7c	4	1	main_z	7	main_z	153	stimuli_target_squaretriangles.svg	stimuli_distractor_trianglediamonds.svg	3	yes	44	1	775	0	0			0	0			1				0	
6.6.1	win	2023-07-11	16:22:08	16:29:29	436765	6108e2470b62bbe11b9f2e7c	4	1	main_z	7	advance_on_keypress_ZEE	154	stimuli_target_squaretriangles.svg	stimuli_distractor_trianglediamonds.svg	3	yes	57	0	2150	0	0			0	0			1				0	
6.6.1	win	2023-07-11	16:22:08	16:29:32	440093	6108e2470b62bbe11b9f2e7c	4	1	main_z	7	main_z	155	stimuli_distractor_trianglediamonds.svg	stimuli_target_trianglesquares.svg	26	yes	44	1	536	0	0			0	0			1				0	
6.6.1	win	2023-07-11	16:22:08	16:29:32	440093	6108e2470b62bbe11b9f2e7c	4	1	main_z	7	advance_on_keypress_ZEE	156	stimuli_distractor_trianglediamonds.svg	stimuli_target_trianglesquares.svg	26	yes	57	0	724	0	0			0	0			1				0	
6.6.1	win	2023-07-11	16:22:08	16:29:33	441675	6108e2470b62bbe11b9f2e7c	4	1	main_z	7	main_z	157	stimuli_distractor_trianglediamonds.svg	stimuli_target_trianglerectangles.svg	25	yes	44	1	219	0	0			0	0			1				0	
6.6.1	win	2023-07-11	16:22:08	16:29:33	441675	6108e2470b62bbe11b9f2e7c	4	1	main_z	7	advance_on_keypress_ZEE	158	stimuli_distractor_trianglediamonds.svg	stimuli_target_trianglerectangles.svg	25	yes	57	0	727	0	0			0	0			1				0	
6.6.1	win	2023-07-11	16:22:08	16:29:35	443240	6108e2470b62bbe11b9f2e7c	4	1	main_z	7	main_z	159	stimuli_distractor_diamondtriangles.svg	stimuli_distractor_diamondtriangles.svg	40	no	44	0	201	0	0			0	0			1				0	
6.6.1	win	2023-07-11	16:22:08	16:29:35	443240	6108e2470b62bbe11b9f2e7c	4	1	main_z	7	advance_on_keypress_ZEE	160	stimuli_distractor_diamondtriangles.svg	stimuli_distractor_diamondtriangles.svg	40	no	57	0	974	0	0			0	0			1				0	
6.6.1	win	2023-07-11	16:22:08	16:29:54	462195	6108e2470b62bbe11b9f2e7c	4	1	practice_slash	9	practice_slash	1	stimuli_distractor_diamondtriangles.svg	stimuli_target_rectangletriangles.svg	7	yes	53	1	1138	0	0			0	0			1				0	
6.6.1	win	2023-07-11	16:22:08	16:29:54	462195	6108e2470b62bbe11b9f2e7c	4	1	practice_slash	9	advance_on_keypress_SLASH	2	stimuli_distractor_diamondtriangles.svg	stimuli_target_rectangletriangles.svg	7	yes	57	0	5	0	0			0	0			1				0	
6.6.1	win	2023-07-11	16:22:08	16:29:56	464342	6108e2470b62bbe11b9f2e7c	4	1	practice_slash	9	practice_slash	3	stimuli_target_diamondsquares.svg	stimuli_distractor_diamondtriangles.svg	3	yes	53	1	470	0	0			0	0			1				0	
6.6.1	win	2023-07-11	16:22:08	16:29:56	464342	6108e2470b62bbe11b9f2e7c	4	1	practice_slash	9	advance_on_keypress_SLASH	4	stimuli_target_diamondsquares.svg	stimuli_distractor_diamondtriangles.svg	3	yes	57	0	627	0	0			0	0			1				0	
6.6.1	win	2023-07-11	16:22:08	16:30:00	468622	6108e2470b62bbe11b9f2e7c	4	1	practice_slash	9	practice_slash	5	stimuli_distractor_trianglediamonds.svg	stimuli_distractor_trianglediamonds.svg	15	no	0	1	2000	0	0			0	0			1				0	
6.6.1	win	2023-07-11	16:22:08	16:30:00	468622	6108e2470b62bbe11b9f2e7c	4	1	practice_slash	9	advance_on_keypress_SLASH	6	stimuli_distractor_trianglediamonds.svg	stimuli_distractor_trianglediamonds.svg	15	no	57	0	666	0	0			0	0			1				0	
6.6.1	win	2023-07-11	16:22:08	16:30:03	471207	6108e2470b62bbe11b9f2e7c	4	1	practice_slash	9	practice_slash	7	stimuli_distractor_diamondtriangles.svg	stimuli_distractor_diamondtriangles.svg	13	no	53	0	268	0	0			0	0			1				0	
6.6.1	win	2023-07-11	16:22:08	16:30:03	471207	6108e2470b62bbe11b9f2e7c	4	1	practice_slash	9	advance_on_keypress_SLASH	8	stimuli_distractor_diamondtriangles.svg	stimuli_distractor_diamondtriangles.svg	13	no	57	0	571	0	0			0	0			1				0	
6.6.1	win	2023-07-11	16:22:08	16:30:06	473802	6108e2470b62bbe11b9f2e7c	4	1	practice_slash	9	practice_slash	9	stimuli_target_rectanglediamonds.svg	stimuli_distractor_diamondtriangles.svg	1	yes	53	1	380	0	0			0	0			1				0	
6.6.1	win	2023-07-11	16:22:08	16:30:06	473802	6108e2470b62bbe11b9f2e7c	4	1	practice_slash	9	advance_on_keypress_SLASH	10	stimuli_target_rectanglediamonds.svg	stimuli_distractor_diamondtriangles.svg	1	yes	57	0	331	0	0			0	0			1				0	
6.6.1	win	2023-07-11	16:22:08	16:30:10	477787	6108e2470b62bbe11b9f2e7c	4	1	practice_slash	9	practice_slash	11	stimuli_distractor_diamondtriangles.svg	stimuli_distractor_trianglediamonds.svg	14	no	0	1	2000	0	0			0	0			1				0	
6.6.1	win	2023-07-11	16:22:08	16:30:10	477787	6108e2470b62bbe11b9f2e7c	4	1	practice_slash	9	advance_on_keypress_SLASH	12	stimuli_distractor_diamondtriangles.svg	stimuli_distractor_trianglediamonds.svg	14	no	57	0	616	0	0			0	0			1				0	
6.6.1	win	2023-07-11	16:22:08	16:30:13	480777	6108e2470b62bbe11b9f2e7c	4	1	practice_slash	9	practice_slash	13	stimuli_target_squarediamonds.svg	stimuli_distractor_trianglediamonds.svg	5	yes	53	1	723	0	0			0	0			1				0	
6.6.1	win	2023-07-11	16:22:08	16:30:13	480777	6108e2470b62bbe11b9f2e7c	4	1	practice_slash	9	advance_on_keypress_SLASH	14	stimuli_target_squarediamonds.svg	stimuli_distractor_trianglediamonds.svg	5	yes	57	0	274	0	0			0	0			1				0	
6.6.1	win	2023-07-11	16:22:08	16:30:15	483254	6108e2470b62bbe11b9f2e7c	4	1	practice_slash	9	practice_slash	15	stimuli_distractor_trianglediamonds.svg	stimuli_target_rectanglediamonds.svg	10	yes	53	1	551	0	0			0	0			1				0	
6.6.1	win	2023-07-11	16:22:08	16:30:15	483254	6108e2470b62bbe11b9f2e7c	4	1	practice_slash	9	advance_on_keypress_SLASH	16	stimuli_distractor_trianglediamonds.svg	stimuli_target_rectanglediamonds.svg	10	yes	57	0	512	0	0			0	0			1				0	
6.6.1	win	2023-07-11	16:22:08	16:30:18	485784	6108e2470b62bbe11b9f2e7c	4	1	practice_slash	9	practice_slash	17	stimuli_target_squarediamonds.svg	stimuli_distractor_diamondtriangles.svg	2	yes	53	1	365	0	0			0	0			1				0	
6.6.1	win	2023-07-11	16:22:08	16:30:18	485784	6108e2470b62bbe11b9f2e7c	4	1	practice_slash	9	advance_on_keypress_SLASH	18	stimuli_target_squarediamonds.svg	stimuli_distractor_diamondtriangles.svg	2	yes	57	0	554	0	0			0	0			1				0	
6.6.1	win	2023-07-11	16:22:08	16:30:20	488254	6108e2470b62bbe11b9f2e7c	4	1	practice_slash	9	practice_slash	19	stimuli_distractor_trianglediamonds.svg	stimuli_target_squarediamonds.svg	11	yes	53	1	269	0	0			0	0			1				0	
6.6.1	win	2023-07-11	16:22:08	16:30:20	488254	6108e2470b62bbe11b9f2e7c	4	1	practice_slash	9	advance_on_keypress_SLASH	20	stimuli_distractor_trianglediamonds.svg	stimuli_target_squarediamonds.svg	11	yes	57	0	876	0	0			0	0			1				0	
6.6.1	win	2023-07-11	16:22:08	16:30:23	491037	6108e2470b62bbe11b9f2e7c	4	1	practice_slash	9	practice_slash	21	stimuli_target_diamondsquares.svg	stimuli_distractor_trianglediamonds.svg	6	yes	53	1	252	0	0			0	0			1				0	
6.6.1	win	2023-07-11	16:22:08	16:30:23	491037	6108e2470b62bbe11b9f2e7c	4	1	practice_slash	9	advance_on_keypress_SLASH	22	stimuli_target_diamondsquares.svg	stimuli_distractor_trianglediamonds.svg	6	yes	57	0	456	0	0			0	0			1				0	
6.6.1	win	2023-07-11	16:22:08	16:30:25	493389	6108e2470b62bbe11b9f2e7c	4	1	practice_slash	9	practice_slash	23	stimuli_distractor_diamondtriangles.svg	stimuli_target_diamondrectangles.svg	8	yes	53	1	238	0	0			0	0			1				0	
6.6.1	win	2023-07-11	16:22:08	16:30:25	493389	6108e2470b62bbe11b9f2e7c	4	1	practice_slash	9	advance_on_keypress_SLASH	24	stimuli_distractor_diamondtriangles.svg	stimuli_target_diamondrectangles.svg	8	yes	57	0	442	0	0			0	0			1				0	
6.6.1	win	2023-07-11	16:22:08	16:30:28	495779	6108e2470b62bbe11b9f2e7c	4	1	practice_slash	9	practice_slash	25	stimuli_distractor_trianglediamonds.svg	stimuli_distractor_diamondtriangles.svg	16	no	53	0	293	0	0			0	0			1				0	
6.6.1	win	2023-07-11	16:22:08	16:30:28	495779	6108e2470b62bbe11b9f2e7c	4	1	practice_slash	9	advance_on_keypress_SLASH	26	stimuli_distractor_trianglediamonds.svg	stimuli_distractor_diamondtriangles.svg	16	no	57	0	298	0	0			0	0			1				0	
6.6.1	win	2023-07-11	16:22:08	16:30:30	498377	6108e2470b62bbe11b9f2e7c	4	1	practice_slash	9	practice_slash	27	stimuli_distractor_diamondtriangles.svg	stimuli_target_trianglerectangles.svg	9	yes	53	1	643	0	0			0	0			1				0	
6.6.1	win	2023-07-11	16:22:08	16:30:30	498377	6108e2470b62bbe11b9f2e7c	4	1	practice_slash	9	advance_on_keypress_SLASH	28	stimuli_distractor_diamondtriangles.svg	stimuli_target_trianglerectangles.svg	9	yes	57	0	116	0	0			0	0			1				0	
6.6.1	win	2023-07-11	16:22:08	16:30:32	500621	6108e2470b62bbe11b9f2e7c	4	1	practice_slash	9	practice_slash	29	stimuli_distractor_trianglediamonds.svg	stimuli_target_diamondrectangles.svg	12	yes	53	1	470	0	0			0	0			1				0	
6.6.1	win	2023-07-11	16:22:08	16:30:32	500621	6108e2470b62bbe11b9f2e7c	4	1	practice_slash	9	advance_on_keypress_SLASH	30	stimuli_distractor_trianglediamonds.svg	stimuli_target_diamondrectangles.svg	12	yes	57	0	163	0	0			0	0			1				0	
6.6.1	win	2023-07-11	16:22:08	16:30:35	502926	6108e2470b62bbe11b9f2e7c	4	1	practice_slash	9	practice_slash	31	stimuli_target_rectanglediamonds.svg	stimuli_distractor_trianglediamonds.svg	4	yes	53	1	491	0	0			0	0			1				0	
6.6.1	win	2023-07-11	16:22:08	16:30:35	502926	6108e2470b62bbe11b9f2e7c	4	1	practice_slash	9	advance_on_keypress_SLASH	32	stimuli_target_rectanglediamonds.svg	stimuli_distractor_trianglediamonds.svg	4	yes	57	0	266	0	0			0	0			1				0	
6.6.1	win	2023-07-11	16:22:08	16:30:39	507070	6108e2470b62bbe11b9f2e7c	4	1	main_slash	11	main_slash	1	stimuli_target_trianglesquares.svg	stimuli_distractor_trianglediamonds.svg	18	yes	53	1	688	0	0			0	0			1				0	
6.6.1	win	2023-07-11	16:22:08	16:30:39	507070	6108e2470b62bbe11b9f2e7c	4	1	main_slash	11	advance_on_keypress_SLASH	2	stimuli_target_trianglesquares.svg	stimuli_distractor_trianglediamonds.svg	18	yes	57	0	929	0	0			0	0			1				0	
6.6.1	win	2023-07-11	16:22:08	16:30:41	509222	6108e2470b62bbe11b9f2e7c	4	1	main_slash	11	main_slash	3	stimuli_distractor_diamondtriangles.svg	stimuli_target_diamondsquares.svg	32	yes	53	1	575	0	0			0	0			1				0	
6.6.1	win	2023-07-11	16:22:08	16:30:41	509222	6108e2470b62bbe11b9f2e7c	4	1	main_slash	11	advance_on_keypress_SLASH	4	stimuli_distractor_diamondtriangles.svg	stimuli_target_diamondsquares.svg	32	yes	57	0	542	0	0			0	0			1				0	
6.6.1	win	2023-07-11	16:22:08	16:30:43	510778	6108e2470b62bbe11b9f2e7c	4	1	main_slash	11	main_slash	5	stimuli_distractor_trianglediamonds.svg	stimuli_target_trianglerectangles.svg	25	yes	53	1	370	0	0			0	0			1				0	
6.6.1	win	2023-07-11	16:22:08	16:30:43	510778	6108e2470b62bbe11b9f2e7c	4	1	main_slash	11	advance_on_keypress_SLASH	6	stimuli_distractor_trianglediamonds.svg	stimuli_target_trianglerectangles.svg	25	yes	57	0	1097	0	0			0	0			1				0	
6.6.1	win	2023-07-11	16:22:08	16:30:45	512769	6108e2470b62bbe11b9f2e7c	4	1	main_slash	11	main_slash	7	stimuli_distractor_diamondtriangles.svg	stimuli_target_diamondrectangles.svg	31	yes	53	1	239	0	0			0	0			1				0	
6.6.1	win	2023-07-11	16:22:08	16:30:45	512769	6108e2470b62bbe11b9f2e7c	4	1	main_slash	11	advance_on_keypress_SLASH	8	stimuli_distractor_diamondtriangles.svg	stimuli_target_diamondrectangles.svg	31	yes	57	0	802	0	0			0	0			1				0	
6.6.1	win	2023-07-11	16:22:08	16:30:46	514510	6108e2470b62bbe11b9f2e7c	4	1	main_slash	11	main_slash	9	stimuli_distractor_trianglediamonds.svg	stimuli_distractor_trianglediamonds.svg	34	no	53	0	297	0	0			0	0			1				0	
6.6.1	win	2023-07-11	16:22:08	16:30:46	514510	6108e2470b62bbe11b9f2e7c	4	1	main_slash	11	advance_on_keypress_SLASH	10	stimuli_distractor_trianglediamonds.svg	stimuli_distractor_trianglediamonds.svg	34	no	57	0	1896	0	0			0	0			1				0	
6.6.1	win	2023-07-11	16:22:08	16:30:49	517614	6108e2470b62bbe11b9f2e7c	4	1	main_slash	11	main_slash	11	stimuli_distractor_trianglediamonds.svg	stimuli_target_rectangletriangles.svg	9	yes	53	1	551	0	0			0	0			1				0	
6.6.1	win	2023-07-11	16:22:08	16:30:49	517614	6108e2470b62bbe11b9f2e7c	4	1	main_slash	11	advance_on_keypress_SLASH	12	stimuli_distractor_trianglediamonds.svg	stimuli_target_rectangletriangles.svg	9	yes	57	0	793	0	0			0	0			1				0	
6.6.1	win	2023-07-11	16:22:08	16:30:51	519349	6108e2470b62bbe11b9f2e7c	4	1	main_slash	11	main_slash	13	stimuli_distractor_diamondtriangles.svg	stimuli_distractor_diamondtriangles.svg	39	no	53	0	303	0	0			0	0			1				0	
6.6.1	win	2023-07-11	16:22:08	16:30:51	519349	6108e2470b62bbe11b9f2e7c	4	1	main_slash	11	advance_on_keypress_SLASH	14	stimuli_distractor_diamondtriangles.svg	stimuli_distractor_diamondtriangles.svg	39	no	57	0	825	0	0			0	0			1				0	
6.6.1	win	2023-07-11	16:22:08	16:30:53	521233	6108e2470b62bbe11b9f2e7c	4	1	main_slash	11	main_slash	15	stimuli_distractor_trianglediamonds.svg	stimuli_target_squaretriangles.svg	11	yes	53	1	420	0	0			0	0			1				0	
6.6.1	win	2023-07-11	16:22:08	16:30:53	521233	6108e2470b62bbe11b9f2e7c	4	1	main_slash	11	advance_on_keypress_SLASH	16	stimuli_distractor_trianglediamonds.svg	stimuli_target_squaretriangles.svg	11	yes	57	0	800	0	0			0	0			1				0	
6.6.1	win	2023-07-11	16:22:08	16:30:55	522994	6108e2470b62bbe11b9f2e7c	4	1	main_slash	11	main_slash	17	stimuli_target_rectanglediamonds.svg	stimuli_distractor_trianglediamonds.svg	2	yes	53	1	315	0	0			0	0			1				0	
6.6.1	win	2023-07-11	16:22:08	16:30:55	522994	6108e2470b62bbe11b9f2e7c	4	1	main_slash	11	advance_on_keypress_SLASH	18	stimuli_target_rectanglediamonds.svg	stimuli_distractor_trianglediamonds.svg	2	yes	57	0	853	0	0			0	0			1				0	
6.6.1	win	2023-07-11	16:22:08	16:30:57	524855	6108e2470b62bbe11b9f2e7c	4	1	main_slash	11	main_slash	19	stimuli_target_squarediamonds.svg	stimuli_distractor_trianglediamonds.svg	4	yes	53	1	360	0	0			0	0			1				0	
6.6.1	win	2023-07-11	16:22:08	16:30:57	524855	6108e2470b62bbe11b9f2e7c	4	1	main_slash	11	advance_on_keypress_SLASH	20	stimuli_target_squarediamonds.svg	stimuli_distractor_trianglediamonds.svg	4	yes	57	0	870	0	0			0	0			1				0	
6.6.1	win	2023-07-11	16:22:08	16:30:58	526627	6108e2470b62bbe11b9f2e7c	4	1	main_slash	11	main_slash	21	stimuli_distractor_trianglediamonds.svg	stimuli_target_rectanglediamonds.svg	10	yes	53	1	265	0	0			0	0			1				0	
6.6.1	win	2023-07-11	16:22:08	16:30:58	526627	6108e2470b62bbe11b9f2e7c	4	1	main_slash	11	advance_on_keypress_SLASH	22	stimuli_distractor_trianglediamonds.svg	stimuli_target_rectanglediamonds.svg	10	yes	57	0	920	0	0			0	0			1				0	
6.6.1	win	2023-07-11	16:22:08	16:31:00	528473	6108e2470b62bbe11b9f2e7c	4	1	main_slash	11	main_slash	23	stimuli_distractor_diamondtriangles.svg	stimuli_target_squarediamonds.svg	16	yes	53	1	277	0	0			0	0			1				0	
6.6.1	win	2023-07-11	16:22:08	16:31:00	528473	6108e2470b62bbe11b9f2e7c	4	1	main_slash	11	advance_on_keypress_SLASH	24	stimuli_distractor_diamondtriangles.svg	stimuli_target_squarediamonds.svg	16	yes	57	0	757	0	0			0	0			1				0	
6.6.1	win	2023-07-11	16:22:08	16:31:02	530305	6108e2470b62bbe11b9f2e7c	4	1	main_slash	11	main_slash	25	stimuli_target_squarediamonds.svg	stimuli_distractor_diamondtriangles.svg	8	yes	53	1	444	0	0			0	0			1				0	
6.6.1	win	2023-07-11	16:22:08	16:31:02	530305	6108e2470b62bbe11b9f2e7c	4	1	main_slash	11	advance_on_keypress_SLASH	26	stimuli_target_squarediamonds.svg	stimuli_distractor_diamondtriangles.svg	8	yes	57	0	704	0	0			0	0			1				0	
6.6.1	win	2023-07-11	16:22:08	16:31:04	531953	6108e2470b62bbe11b9f2e7c	4	1	main_slash	11	main_slash	27	stimuli_distractor_trianglediamonds.svg	stimuli_distractor_diamondtriangles.svg	35	no	53	0	309	0	0			0	0			1				0	
6.6.1	win	2023-07-11	16:22:08	16:31:04	531953	6108e2470b62bbe11b9f2e7c	4	1	main_slash	11	advance_on_keypress_SLASH	28	stimuli_distractor_trianglediamonds.svg	stimuli_distractor_diamondtriangles.svg	35	no	57	0	2026	0	0			0	0			1				0	
6.6.1	win	2023-07-11	16:22:08	16:31:07	534864	6108e2470b62bbe11b9f2e7c	4	1	main_slash	11	main_slash	29	stimuli_distractor_trianglediamonds.svg	stimuli_target_squarediamonds.svg	12	yes	53	1	253	0	0			0	0			1				0	
6.6.1	win	2023-07-11	16:22:08	16:31:07	534864	6108e2470b62bbe11b9f2e7c	4	1	main_slash	11	advance_on_keypress_SLASH	30	stimuli_distractor_trianglediamonds.svg	stimuli_target_squarediamonds.svg	12	yes	57	0	561	0	0			0	0			1				0	
6.6.1	win	2023-07-11	16:22:08	16:31:08	536305	6108e2470b62bbe11b9f2e7c	4	1	main_slash	11	main_slash	31	stimuli_distractor_diamondtriangles.svg	stimuli_distractor_trianglediamonds.svg	38	no	53	0	244	0	0			0	0			1				0	
6.6.1	win	2023-07-11	16:22:08	16:31:08	536305	6108e2470b62bbe11b9f2e7c	4	1	main_slash	11	advance_on_keypress_SLASH	32	stimuli_distractor_diamondtriangles.svg	stimuli_distractor_trianglediamonds.svg	38	no	57	0	1200	0	0			0	0			1				0	
6.6.1	win	2023-07-11	16:22:08	16:31:11	539205	6108e2470b62bbe11b9f2e7c	4	1	main_slash	11	main_slash	33	stimuli_distractor_diamondtriangles.svg	stimuli_target_rectangletriangles.svg	13	yes	53	1	1061	0	0			0	0			1				0	
6.6.1	win	2023-07-11	16:22:08	16:31:11	539205	6108e2470b62bbe11b9f2e7c	4	1	main_slash	11	advance_on_keypress_SLASH	34	stimuli_distractor_diamondtriangles.svg	stimuli_target_rectangletriangles.svg	13	yes	57	0	574	0	0			0	0			1				0	
6.6.1	win	2023-07-11	16:22:08	16:31:12	540563	6108e2470b62bbe11b9f2e7c	4	1	main_slash	11	main_slash	35	stimuli_target_diamondrectangles.svg	stimuli_distractor_diamondtriangles.svg	23	yes	53	1	136	0	0			0	0			1				0	
6.6.1	win	2023-07-11	16:22:08	16:31:12	540563	6108e2470b62bbe11b9f2e7c	4	1	main_slash	11	advance_on_keypress_SLASH	36	stimuli_target_diamondrectangles.svg	stimuli_distractor_diamondtriangles.svg	23	yes	57	0	595	0	0			0	0			1				0	
6.6.1	win	2023-07-11	16:22:08	16:31:14	542192	6108e2470b62bbe11b9f2e7c	4	1	main_slash	11	main_slash	37	stimuli_distractor_trianglediamonds.svg	stimuli_target_diamondrectangles.svg	27	yes	53	1	399	0	0			0	0			1				0	
6.6.1	win	2023-07-11	16:22:08	16:31:14	542192	6108e2470b62bbe11b9f2e7c	4	1	main_slash	11	advance_on_keypress_SLASH	38	stimuli_distractor_trianglediamonds.svg	stimuli_target_diamondrectangles.svg	27	yes	57	0	769	0	0			0	0			1				0	
6.6.1	win	2023-07-11	16:22:08	16:31:16	543902	6108e2470b62bbe11b9f2e7c	4	1	main_slash	11	main_slash	39	stimuli_target_trianglerectangles.svg	stimuli_distractor_diamondtriangles.svg	21	yes	53	1	293	0	0			0	0			1				0	
6.6.1	win	2023-07-11	16:22:08	16:31:16	543902	6108e2470b62bbe11b9f2e7c	4	1	main_slash	11	advance_on_keypress_SLASH	40	stimuli_target_trianglerectangles.svg	stimuli_distractor_diamondtriangles.svg	21	yes	57	0	600	0	0			0	0			1				0	
6.6.1	win	2023-07-11	16:22:08	16:31:17	545431	6108e2470b62bbe11b9f2e7c	4	1	main_slash	11	main_slash	41	stimuli_target_rectangletriangles.svg	stimuli_distractor_trianglediamonds.svg	1	yes	53	1	288	0	0			0	0			1				0	
6.6.1	win	2023-07-11	16:22:08	16:31:17	545431	6108e2470b62bbe11b9f2e7c	4	1	main_slash	11	advance_on_keypress_SLASH	42	stimuli_target_rectangletriangles.svg	stimuli_distractor_trianglediamonds.svg	1	yes	57	0	688	0	0			0	0			1				0	
6.6.1	win	2023-07-11	16:22:08	16:31:19	547239	6108e2470b62bbe11b9f2e7c	4	1	main_slash	11	main_slash	43	stimuli_target_diamondsquares.svg	stimuli_distractor_trianglediamonds.svg	20	yes	53	1	480	0	0			0	0			1				0	
6.6.1	win	2023-07-11	16:22:08	16:31:19	547239	6108e2470b62bbe11b9f2e7c	4	1	main_slash	11	advance_on_keypress_SLASH	44	stimuli_target_diamondsquares.svg	stimuli_distractor_trianglediamonds.svg	20	yes	57	0	608	0	0			0	0			1				0	
6.6.1	win	2023-07-11	16:22:08	16:31:21	548836	6108e2470b62bbe11b9f2e7c	4	1	main_slash	11	main_slash	45	stimuli_distractor_diamondtriangles.svg	stimuli_target_trianglerectangles.svg	29	yes	53	1	344	0	0			0	0			1				0	
6.6.1	win	2023-07-11	16:22:08	16:31:21	548836	6108e2470b62bbe11b9f2e7c	4	1	main_slash	11	advance_on_keypress_SLASH	46	stimuli_distractor_diamondtriangles.svg	stimuli_target_trianglerectangles.svg	29	yes	57	0	623	0	0			0	0			1				0	
6.6.1	win	2023-07-11	16:22:08	16:31:23	551157	6108e2470b62bbe11b9f2e7c	4	1	main_slash	11	main_slash	47	stimuli_distractor_diamondtriangles.svg	stimuli_distractor_trianglediamonds.svg	37	no	53	0	1065	0	0			0	0			1				0	
6.6.1	win	2023-07-11	16:22:08	16:31:23	551157	6108e2470b62bbe11b9f2e7c	4	1	main_slash	11	advance_on_keypress_SLASH	48	stimuli_distractor_diamondtriangles.svg	stimuli_distractor_trianglediamonds.svg	37	no	57	0	606	0	0			0	0			1				0	
6.6.1	win	2023-07-11	16:22:08	16:31:24	552663	6108e2470b62bbe11b9f2e7c	4	1	main_slash	11	main_slash	49	stimuli_distractor_trianglediamonds.svg	stimuli_distractor_diamondtriangles.svg	36	no	53	0	255	0	0			0	0			1				0	
6.6.1	win	2023-07-11	16:22:08	16:31:24	552663	6108e2470b62bbe11b9f2e7c	4	1	main_slash	11	advance_on_keypress_SLASH	50	stimuli_distractor_trianglediamonds.svg	stimuli_distractor_diamondtriangles.svg	36	no	57	0	535	0	0			0	0			1				0	
6.6.1	win	2023-07-11	16:22:08	16:31:26	554511	6108e2470b62bbe11b9f2e7c	4	1	main_slash	11	main_slash	51	stimuli_distractor_diamondtriangles.svg	stimuli_target_squaretriangles.svg	15	yes	53	1	669	0	0			0	0			1				0	
6.6.1	win	2023-07-11	16:22:08	16:31:26	554511	6108e2470b62bbe11b9f2e7c	4	1	main_slash	11	advance_on_keypress_SLASH	52	stimuli_distractor_diamondtriangles.svg	stimuli_target_squaretriangles.svg	15	yes	57	0	446	0	0			0	0			1				0	
6.6.1	win	2023-07-11	16:22:08	16:31:28	556237	6108e2470b62bbe11b9f2e7c	4	1	main_slash	11	main_slash	53	stimuli_target_diamondrectangles.svg	stimuli_distractor_trianglediamonds.svg	19	yes	53	1	629	0	0			0	0			1				0	
6.6.1	win	2023-07-11	16:22:08	16:31:28	556237	6108e2470b62bbe11b9f2e7c	4	1	main_slash	11	advance_on_keypress_SLASH	54	stimuli_target_diamondrectangles.svg	stimuli_distractor_trianglediamonds.svg	19	yes	57	0	532	0	0			0	0			1				0	
6.6.1	win	2023-07-11	16:22:08	16:31:30	557817	6108e2470b62bbe11b9f2e7c	4	1	main_slash	11	main_slash	55	stimuli_target_squaretriangles.svg	stimuli_distractor_trianglediamonds.svg	3	yes	53	1	393	0	0			0	0			1				0	
6.6.1	win	2023-07-11	16:22:08	16:31:30	557817	6108e2470b62bbe11b9f2e7c	4	1	main_slash	11	advance_on_keypress_SLASH	56	stimuli_target_squaretriangles.svg	stimuli_distractor_trianglediamonds.svg	3	yes	57	0	786	0	0			0	0			1				0	
6.6.1	win	2023-07-11	16:22:08	16:31:32	559833	6108e2470b62bbe11b9f2e7c	4	1	main_slash	11	main_slash	57	stimuli_target_trianglesquares.svg	stimuli_distractor_diamondtriangles.svg	22	yes	53	1	592	0	0			0	0			1				0	
6.6.1	win	2023-07-11	16:22:08	16:31:32	559833	6108e2470b62bbe11b9f2e7c	4	1	main_slash	11	advance_on_keypress_SLASH	58	stimuli_target_trianglesquares.svg	stimuli_distractor_diamondtriangles.svg	22	yes	57	0	536	0	0			0	0			1				0	
6.6.1	win	2023-07-11	16:22:08	16:31:35	563007	6108e2470b62bbe11b9f2e7c	4	1	main_slash	11	main_slash	59	stimuli_distractor_diamondtriangles.svg	stimuli_distractor_diamondtriangles.svg	40	no	0	1	2000	0	0			0	0			1				0	
6.6.1	win	2023-07-11	16:22:08	16:31:35	563007	6108e2470b62bbe11b9f2e7c	4	1	main_slash	11	advance_on_keypress_SLASH	60	stimuli_distractor_diamondtriangles.svg	stimuli_distractor_diamondtriangles.svg	40	no	57	0	273	0	0			0	0			1				0	
6.6.1	win	2023-07-11	16:22:08	16:31:36	564579	6108e2470b62bbe11b9f2e7c	4	1	main_slash	11	main_slash	61	stimuli_target_diamondsquares.svg	stimuli_distractor_diamondtriangles.svg	24	yes	53	1	655	0	0			0	0			1				0	
6.6.1	win	2023-07-11	16:22:08	16:31:36	564579	6108e2470b62bbe11b9f2e7c	4	1	main_slash	11	advance_on_keypress_SLASH	62	stimuli_target_diamondsquares.svg	stimuli_distractor_diamondtriangles.svg	24	yes	57	0	566	0	0			0	0			1				0	
6.6.1	win	2023-07-11	16:22:08	16:31:38	566757	6108e2470b62bbe11b9f2e7c	4	1	main_slash	11	main_slash	63	stimuli_target_trianglerectangles.svg	stimuli_distractor_trianglediamonds.svg	17	yes	53	1	967	0	0			0	0			1				0	
6.6.1	win	2023-07-11	16:22:08	16:31:38	566757	6108e2470b62bbe11b9f2e7c	4	1	main_slash	11	advance_on_keypress_SLASH	64	stimuli_target_trianglerectangles.svg	stimuli_distractor_trianglediamonds.svg	17	yes	57	0	644	0	0			0	0			1				0	
6.6.1	win	2023-07-11	16:22:08	16:31:40	568433	6108e2470b62bbe11b9f2e7c	4	1	main_slash	11	main_slash	65	stimuli_distractor_diamondtriangles.svg	stimuli_target_trianglesquares.svg	30	yes	53	1	393	0	0			0	0			1				0	
6.6.1	win	2023-07-11	16:22:08	16:31:40	568433	6108e2470b62bbe11b9f2e7c	4	1	main_slash	11	advance_on_keypress_SLASH	66	stimuli_distractor_diamondtriangles.svg	stimuli_target_trianglesquares.svg	30	yes	57	0	641	0	0			0	0			1				0	
6.6.1	win	2023-07-11	16:22:08	16:31:42	570134	6108e2470b62bbe11b9f2e7c	4	1	main_slash	11	main_slash	67	stimuli_target_rectanglediamonds.svg	stimuli_distractor_diamondtriangles.svg	6	yes	53	1	428	0	0			0	0			1				0	
6.6.1	win	2023-07-11	16:22:08	16:31:42	570134	6108e2470b62bbe11b9f2e7c	4	1	main_slash	11	advance_on_keypress_SLASH	68	stimuli_target_rectanglediamonds.svg	stimuli_distractor_diamondtriangles.svg	6	yes	57	0	513	0	0			0	0			1				0	
6.6.1	win	2023-07-11	16:22:08	16:31:43	571589	6108e2470b62bbe11b9f2e7c	4	1	main_slash	11	main_slash	69	stimuli_distractor_diamondtriangles.svg	stimuli_target_rectanglediamonds.svg	14	yes	53	1	300	0	0			0	0			1				0	
6.6.1	win	2023-07-11	16:22:08	16:31:43	571589	6108e2470b62bbe11b9f2e7c	4	1	main_slash	11	advance_on_keypress_SLASH	70	stimuli_distractor_diamondtriangles.svg	stimuli_target_rectanglediamonds.svg	14	yes	57	0	505	0	0			0	0			1				0	
6.6.1	win	2023-07-11	16:22:08	16:31:46	574739	6108e2470b62bbe11b9f2e7c	4	1	main_slash	11	main_slash	71	stimuli_distractor_trianglediamonds.svg	stimuli_distractor_trianglediamonds.svg	33	no	0	1	2000	0	0			0	0			1				0	
6.6.1	win	2023-07-11	16:22:08	16:31:46	574739	6108e2470b62bbe11b9f2e7c	4	1	main_slash	11	advance_on_keypress_SLASH	72	stimuli_distractor_trianglediamonds.svg	stimuli_distractor_trianglediamonds.svg	33	no	57	0	258	0	0			0	0			1				0	
6.6.1	win	2023-07-11	16:22:08	16:31:48	576358	6108e2470b62bbe11b9f2e7c	4	1	main_slash	11	main_slash	73	stimuli_distractor_trianglediamonds.svg	stimuli_target_diamondsquares.svg	28	yes	53	1	718	0	0			0	0			1				0	
6.6.1	win	2023-07-11	16:22:08	16:31:48	576358	6108e2470b62bbe11b9f2e7c	4	1	main_slash	11	advance_on_keypress_SLASH	74	stimuli_distractor_trianglediamonds.svg	stimuli_target_diamondsquares.svg	28	yes	57	0	701	0	0			0	0			1				0	
6.6.1	win	2023-07-11	16:22:08	16:31:51	578945	6108e2470b62bbe11b9f2e7c	4	1	main_slash	11	main_slash	75	stimuli_target_rectangletriangles.svg	stimuli_distractor_diamondtriangles.svg	5	yes	53	1	1240	0	0			0	0			1				0	
6.6.1	win	2023-07-11	16:22:08	16:31:51	578945	6108e2470b62bbe11b9f2e7c	4	1	main_slash	11	advance_on_keypress_SLASH	76	stimuli_target_rectangletriangles.svg	stimuli_distractor_diamondtriangles.svg	5	yes	57	0	882	0	0			0	0			1				0	
6.6.1	win	2023-07-11	16:22:08	16:31:53	581286	6108e2470b62bbe11b9f2e7c	4	1	main_slash	11	main_slash	77	stimuli_distractor_trianglediamonds.svg	stimuli_target_trianglesquares.svg	26	yes	53	1	815	0	0			0	0			1				0	
6.6.1	win	2023-07-11	16:22:08	16:31:53	581286	6108e2470b62bbe11b9f2e7c	4	1	main_slash	11	advance_on_keypress_SLASH	78	stimuli_distractor_trianglediamonds.svg	stimuli_target_trianglesquares.svg	26	yes	57	0	523	0	0			0	0			1				0	
6.6.1	win	2023-07-11	16:22:08	16:31:55	583010	6108e2470b62bbe11b9f2e7c	4	1	main_slash	11	main_slash	79	stimuli_target_squaretriangles.svg	stimuli_distractor_diamondtriangles.svg	7	yes	53	1	556	0	0			0	0			1				0	
6.6.1	win	2023-07-11	16:22:08	16:31:55	583010	6108e2470b62bbe11b9f2e7c	4	1	main_slash	11	advance_on_keypress_SLASH	80	stimuli_target_squaretriangles.svg	stimuli_distractor_diamondtriangles.svg	7	yes	57	0	482	0	0			0	0			1				0	
6.6.1	win	2023-07-11	16:22:08	16:31:56	584658	6108e2470b62bbe11b9f2e7c	4	1	main_slash	11	main_slash	81	stimuli_distractor_diamondtriangles.svg	stimuli_target_diamondsquares.svg	32	yes	53	1	519	0	0			0	0			1				0	
6.6.1	win	2023-07-11	16:22:08	16:31:56	584658	6108e2470b62bbe11b9f2e7c	4	1	main_slash	11	advance_on_keypress_SLASH	82	stimuli_distractor_diamondtriangles.svg	stimuli_target_diamondsquares.svg	32	yes	57	0	464	0	0			0	0			1				0	
6.6.1	win	2023-07-11	16:22:08	16:32:00	587771	6108e2470b62bbe11b9f2e7c	4	1	main_slash	11	main_slash	83	stimuli_distractor_trianglediamonds.svg	stimuli_distractor_trianglediamonds.svg	34	no	0	1	2000	0	0			0	0			1				0	
6.6.1	win	2023-07-11	16:22:08	16:32:00	587771	6108e2470b62bbe11b9f2e7c	4	1	main_slash	11	advance_on_keypress_SLASH	84	stimuli_distractor_trianglediamonds.svg	stimuli_distractor_trianglediamonds.svg	34	no	57	0	1259	0	0			0	0			1				0	
6.6.1	win	2023-07-11	16:22:08	16:32:02	590235	6108e2470b62bbe11b9f2e7c	4	1	main_slash	11	main_slash	85	stimuli_target_diamondrectangles.svg	stimuli_distractor_diamondtriangles.svg	23	yes	53	1	565	0	0			0	0			1				0	
6.6.1	win	2023-07-11	16:22:08	16:32:02	590235	6108e2470b62bbe11b9f2e7c	4	1	main_slash	11	advance_on_keypress_SLASH	86	stimuli_target_diamondrectangles.svg	stimuli_distractor_diamondtriangles.svg	23	yes	57	0	574	0	0			0	0			1				0	
6.6.1	win	2023-07-11	16:22:08	16:32:04	592003	6108e2470b62bbe11b9f2e7c	4	1	main_slash	11	main_slash	87	stimuli_target_diamondsquares.svg	stimuli_distractor_diamondtriangles.svg	24	yes	53	1	550	0	0			0	0			1				0	
6.6.1	win	2023-07-11	16:22:08	16:32:04	592003	6108e2470b62bbe11b9f2e7c	4	1	main_slash	11	advance_on_keypress_SLASH	88	stimuli_target_diamondsquares.svg	stimuli_distractor_diamondtriangles.svg	24	yes	57	0	449	0	0			0	0			1				0	
6.6.1	win	2023-07-11	16:22:08	16:32:05	593537	6108e2470b62bbe11b9f2e7c	4	1	main_slash	11	main_slash	89	stimuli_distractor_diamondtriangles.svg	stimuli_target_squarediamonds.svg	16	yes	53	1	434	0	0			0	0			1				0	
6.6.1	win	2023-07-11	16:22:08	16:32:05	593537	6108e2470b62bbe11b9f2e7c	4	1	main_slash	11	advance_on_keypress_SLASH	90	stimuli_distractor_diamondtriangles.svg	stimuli_target_squarediamonds.svg	16	yes	57	0	505	0	0			0	0			1				0	
6.6.1	win	2023-07-11	16:22:08	16:32:07	595067	6108e2470b62bbe11b9f2e7c	4	1	main_slash	11	main_slash	91	stimuli_distractor_diamondtriangles.svg	stimuli_distractor_trianglediamonds.svg	37	no	53	0	375	0	0			0	0			1				0	
6.6.1	win	2023-07-11	16:22:08	16:32:07	595067	6108e2470b62bbe11b9f2e7c	4	1	main_slash	11	advance_on_keypress_SLASH	92	stimuli_distractor_diamondtriangles.svg	stimuli_distractor_trianglediamonds.svg	37	no	57	0	1210	0	0			0	0			1				0	
6.6.1	win	2023-07-11	16:22:08	16:32:09	597752	6108e2470b62bbe11b9f2e7c	4	1	main_slash	11	main_slash	93	stimuli_distractor_diamondtriangles.svg	stimuli_target_rectangletriangles.svg	13	yes	53	1	831	0	0			0	0			1				0	
6.6.1	win	2023-07-11	16:22:08	16:32:09	597752	6108e2470b62bbe11b9f2e7c	4	1	main_slash	11	advance_on_keypress_SLASH	94	stimuli_distractor_diamondtriangles.svg	stimuli_target_rectangletriangles.svg	13	yes	57	0	440	0	0			0	0			1				0	
6.6.1	win	2023-07-11	16:22:08	16:32:12	599919	6108e2470b62bbe11b9f2e7c	4	1	main_slash	11	main_slash	95	stimuli_distractor_trianglediamonds.svg	stimuli_target_trianglerectangles.svg	25	yes	53	1	1083	0	0			0	0			1				0	
6.6.1	win	2023-07-11	16:22:08	16:32:12	599919	6108e2470b62bbe11b9f2e7c	4	1	main_slash	11	advance_on_keypress_SLASH	96	stimuli_distractor_trianglediamonds.svg	stimuli_target_trianglerectangles.svg	25	yes	57	0	685	0	0			0	0			1				0	
6.6.1	win	2023-07-11	16:22:08	16:32:14	602467	6108e2470b62bbe11b9f2e7c	4	1	main_slash	11	main_slash	97	stimuli_target_squaretriangles.svg	stimuli_distractor_diamondtriangles.svg	7	yes	53	1	1215	0	0			0	0			1				0	
6.6.1	win	2023-07-11	16:22:08	16:32:14	602467	6108e2470b62bbe11b9f2e7c	4	1	main_slash	11	advance_on_keypress_SLASH	98	stimuli_target_squaretriangles.svg	stimuli_distractor_diamondtriangles.svg	7	yes	57	0	450	0	0			0	0			1				0	
6.6.1	win	2023-07-11	16:22:08	16:32:16	603950	6108e2470b62bbe11b9f2e7c	4	1	main_slash	11	main_slash	99	stimuli_distractor_trianglediamonds.svg	stimuli_target_trianglesquares.svg	26	yes	53	1	381	0	0			0	0			1				0	
6.6.1	win	2023-07-11	16:22:08	16:32:16	603950	6108e2470b62bbe11b9f2e7c	4	1	main_slash	11	advance_on_keypress_SLASH	100	stimuli_distractor_trianglediamonds.svg	stimuli_target_trianglesquares.svg	26	yes	57	0	592	0	0			0	0			1				0	
6.6.1	win	2023-07-11	16:22:08	16:32:17	605726	6108e2470b62bbe11b9f2e7c	4	1	main_slash	11	main_slash	101	stimuli_distractor_trianglediamonds.svg	stimuli_target_rectangletriangles.svg	9	yes	53	1	541	0	0			0	0			1				0	
6.6.1	win	2023-07-11	16:22:08	16:32:17	605726	6108e2470b62bbe11b9f2e7c	4	1	main_slash	11	advance_on_keypress_SLASH	102	stimuli_distractor_trianglediamonds.svg	stimuli_target_rectangletriangles.svg	9	yes	57	0	523	0	0			0	0			1				0	
6.6.1	win	2023-07-11	16:22:08	16:32:21	608885	6108e2470b62bbe11b9f2e7c	4	1	main_slash	11	main_slash	103	stimuli_distractor_trianglediamonds.svg	stimuli_distractor_trianglediamonds.svg	33	no	0	1	2000	0	0			0	0			1				0	
6.6.1	win	2023-07-11	16:22:08	16:32:21	608885	6108e2470b62bbe11b9f2e7c	4	1	main_slash	11	advance_on_keypress_SLASH	104	stimuli_distractor_trianglediamonds.svg	stimuli_distractor_trianglediamonds.svg	33	no	57	0	313	0	0			0	0			1				0	
6.6.1	win	2023-07-11	16:22:08	16:32:22	610409	6108e2470b62bbe11b9f2e7c	4	1	main_slash	11	main_slash	105	stimuli_target_rectanglediamonds.svg	stimuli_distractor_trianglediamonds.svg	2	yes	53	1	558	0	0			0	0			1				0	
6.6.1	win	2023-07-11	16:22:08	16:32:22	610409	6108e2470b62bbe11b9f2e7c	4	1	main_slash	11	advance_on_keypress_SLASH	106	stimuli_target_rectanglediamonds.svg	stimuli_distractor_trianglediamonds.svg	2	yes	57	0	893	0	0			0	0			1				0	
6.6.1	win	2023-07-11	16:22:08	16:32:24	612471	6108e2470b62bbe11b9f2e7c	4	1	main_slash	11	main_slash	107	stimuli_target_trianglesquares.svg	stimuli_distractor_trianglediamonds.svg	18	yes	53	1	537	0	0			0	0			1				0	
6.6.1	win	2023-07-11	16:22:08	16:32:24	612471	6108e2470b62bbe11b9f2e7c	4	1	main_slash	11	advance_on_keypress_SLASH	108	stimuli_target_trianglesquares.svg	stimuli_distractor_trianglediamonds.svg	18	yes	57	0	516	0	0			0	0			1				0	
6.6.1	win	2023-07-11	16:22:08	16:32:26	614351	6108e2470b62bbe11b9f2e7c	4	1	main_slash	11	main_slash	109	stimuli_distractor_diamondtriangles.svg	stimuli_target_trianglerectangles.svg	29	yes	53	1	717	0	0			0	0			1				0	
6.6.1	win	2023-07-11	16:22:08	16:32:26	614351	6108e2470b62bbe11b9f2e7c	4	1	main_slash	11	advance_on_keypress_SLASH	110	stimuli_distractor_diamondtriangles.svg	stimuli_target_trianglerectangles.svg	29	yes	57	0	631	0	0			0	0			1				0	
6.6.1	win	2023-07-11	16:22:08	16:32:28	616642	6108e2470b62bbe11b9f2e7c	4	1	main_slash	11	main_slash	111	stimuli_target_rectangletriangles.svg	stimuli_distractor_diamondtriangles.svg	5	yes	53	1	1008	0	0			0	0			1				0	
6.6.1	win	2023-07-11	16:22:08	16:32:28	616642	6108e2470b62bbe11b9f2e7c	4	1	main_slash	11	advance_on_keypress_SLASH	112	stimuli_target_rectangletriangles.svg	stimuli_distractor_diamondtriangles.svg	5	yes	57	0	709	0	0			0	0			1				0	
6.6.1	win	2023-07-11	16:22:08	16:32:31	619485	6108e2470b62bbe11b9f2e7c	4	1	main_slash	11	main_slash	113	stimuli_distractor_trianglediamonds.svg	stimuli_distractor_diamondtriangles.svg	35	no	53	0	1502	0	0			0	0			1				0	
6.6.1	win	2023-07-11	16:22:08	16:32:31	619485	6108e2470b62bbe11b9f2e7c	4	1	main_slash	11	advance_on_keypress_SLASH	114	stimuli_distractor_trianglediamonds.svg	stimuli_distractor_diamondtriangles.svg	35	no	57	0	539	0	0			0	0			1				0	
6.6.1	win	2023-07-11	16:22:08	16:32:33	621488	6108e2470b62bbe11b9f2e7c	4	1	main_slash	11	main_slash	115	stimuli_target_trianglerectangles.svg	stimuli_distractor_diamondtriangles.svg	21	yes	53	1	822	0	0			0	0			1				0	
6.6.1	win	2023-07-11	16:22:08	16:32:33	621488	6108e2470b62bbe11b9f2e7c	4	1	main_slash	11	advance_on_keypress_SLASH	116	stimuli_target_trianglerectangles.svg	stimuli_distractor_diamondtriangles.svg	21	yes	57	0	532	0	0			0	0			1				0	
6.6.1	win	2023-07-11	16:22:08	16:32:35	623195	6108e2470b62bbe11b9f2e7c	4	1	main_slash	11	main_slash	117	stimuli_distractor_diamondtriangles.svg	stimuli_target_trianglesquares.svg	30	yes	53	1	529	0	0			0	0			1				0	
6.6.1	win	2023-07-11	16:22:08	16:32:35	623195	6108e2470b62bbe11b9f2e7c	4	1	main_slash	11	advance_on_keypress_SLASH	118	stimuli_distractor_diamondtriangles.svg	stimuli_target_trianglesquares.svg	30	yes	57	0	503	0	0			0	0			1				0	
6.6.1	win	2023-07-11	16:22:08	16:32:37	624777	6108e2470b62bbe11b9f2e7c	4	1	main_slash	11	main_slash	119	stimuli_distractor_trianglediamonds.svg	stimuli_distractor_diamondtriangles.svg	36	no	53	0	428	0	0			0	0			1				0	
6.6.1	win	2023-07-11	16:22:08	16:32:37	624777	6108e2470b62bbe11b9f2e7c	4	1	main_slash	11	advance_on_keypress_SLASH	120	stimuli_distractor_trianglediamonds.svg	stimuli_distractor_diamondtriangles.svg	36	no	57	0	713	0	0			0	0			1				0	
6.6.1	win	2023-07-11	16:22:08	16:32:39	626892	6108e2470b62bbe11b9f2e7c	4	1	main_slash	11	main_slash	121	stimuli_target_trianglesquares.svg	stimuli_distractor_diamondtriangles.svg	22	yes	53	1	759	0	0			0	0			1				0	
6.6.1	win	2023-07-11	16:22:08	16:32:39	626892	6108e2470b62bbe11b9f2e7c	4	1	main_slash	11	advance_on_keypress_SLASH	122	stimuli_target_trianglesquares.svg	stimuli_distractor_diamondtriangles.svg	22	yes	57	0	494	0	0			0	0			1				0	
6.6.1	win	2023-07-11	16:22:08	16:32:41	628879	6108e2470b62bbe11b9f2e7c	4	1	main_slash	11	main_slash	123	stimuli_distractor_trianglediamonds.svg	stimuli_target_squarediamonds.svg	12	yes	53	1	847	0	0			0	0			1				0	
6.6.1	win	2023-07-11	16:22:08	16:32:41	628879	6108e2470b62bbe11b9f2e7c	4	1	main_slash	11	advance_on_keypress_SLASH	124	stimuli_distractor_trianglediamonds.svg	stimuli_target_squarediamonds.svg	12	yes	57	0	463	0	0			0	0			1				0	
6.6.1	win	2023-07-11	16:22:08	16:32:44	631998	6108e2470b62bbe11b9f2e7c	4	1	main_slash	11	main_slash	125	stimuli_distractor_diamondtriangles.svg	stimuli_distractor_diamondtriangles.svg	39	no	0	1	2000	0	0			0	0			1				0	
6.6.1	win	2023-07-11	16:22:08	16:32:44	631998	6108e2470b62bbe11b9f2e7c	4	1	main_slash	11	advance_on_keypress_SLASH	126	stimuli_distractor_diamondtriangles.svg	stimuli_distractor_diamondtriangles.svg	39	no	57	0	698	0	0			0	0			1				0	
6.6.1	win	2023-07-11	16:22:08	16:32:46	634001	6108e2470b62bbe11b9f2e7c	4	1	main_slash	11	main_slash	127	stimuli_target_rectangletriangles.svg	stimuli_distractor_trianglediamonds.svg	1	yes	53	1	653	0	0			0	0			1				0	
6.6.1	win	2023-07-11	16:22:08	16:32:46	634001	6108e2470b62bbe11b9f2e7c	4	1	main_slash	11	advance_on_keypress_SLASH	128	stimuli_target_rectangletriangles.svg	stimuli_distractor_trianglediamonds.svg	1	yes	57	0	595	0	0			0	0			1				0	
6.6.1	win	2023-07-11	16:22:08	16:32:47	635554	6108e2470b62bbe11b9f2e7c	4	1	main_slash	11	main_slash	129	stimuli_distractor_diamondtriangles.svg	stimuli_target_rectanglediamonds.svg	14	yes	53	1	306	0	0			0	0			1				0	
6.6.1	win	2023-07-11	16:22:08	16:32:47	635554	6108e2470b62bbe11b9f2e7c	4	1	main_slash	11	advance_on_keypress_SLASH	130	stimuli_distractor_diamondtriangles.svg	stimuli_target_rectanglediamonds.svg	14	yes	57	0	457	0	0			0	0			1				0	
6.6.1	win	2023-07-11	16:22:08	16:32:49	636922	6108e2470b62bbe11b9f2e7c	4	1	main_slash	11	main_slash	131	stimuli_target_trianglerectangles.svg	stimuli_distractor_trianglediamonds.svg	17	yes	53	1	273	0	0			0	0			1				0	
6.6.1	win	2023-07-11	16:22:08	16:32:49	636922	6108e2470b62bbe11b9f2e7c	4	1	main_slash	11	advance_on_keypress_SLASH	132	stimuli_target_trianglerectangles.svg	stimuli_distractor_trianglediamonds.svg	17	yes	57	0	830	0	0			0	0			1				0	
6.6.1	win	2023-07-11	16:22:08	16:32:50	638642	6108e2470b62bbe11b9f2e7c	4	1	main_slash	11	main_slash	133	stimuli_distractor_trianglediamonds.svg	stimuli_target_diamondsquares.svg	28	yes	53	1	245	0	0			0	0			1				0	
6.6.1	win	2023-07-11	16:22:08	16:32:50	638642	6108e2470b62bbe11b9f2e7c	4	1	main_slash	11	advance_on_keypress_SLASH	134	stimuli_distractor_trianglediamonds.svg	stimuli_target_diamondsquares.svg	28	yes	57	0	694	0	0			0	0			1				0	
6.6.1	win	2023-07-11	16:22:08	16:32:52	640282	6108e2470b62bbe11b9f2e7c	4	1	main_slash	11	main_slash	135	stimuli_target_diamondsquares.svg	stimuli_distractor_trianglediamonds.svg	20	yes	53	1	302	0	0			0	0			1				0	
6.6.1	win	2023-07-11	16:22:08	16:32:52	640282	6108e2470b62bbe11b9f2e7c	4	1	main_slash	11	advance_on_keypress_SLASH	136	stimuli_target_diamondsquares.svg	stimuli_distractor_trianglediamonds.svg	20	yes	57	0	484	0	0			0	0			1				0	
6.6.1	win	2023-07-11	16:22:08	16:32:54	641859	6108e2470b62bbe11b9f2e7c	4	1	main_slash	11	main_slash	137	stimuli_target_squaretriangles.svg	stimuli_distractor_trianglediamonds.svg	3	yes	53	1	445	0	0			0	0			1				0	
6.6.1	win	2023-07-11	16:22:08	16:32:54	641859	6108e2470b62bbe11b9f2e7c	4	1	main_slash	11	advance_on_keypress_SLASH	138	stimuli_target_squaretriangles.svg	stimuli_distractor_trianglediamonds.svg	3	yes	57	0	477	0	0			0	0			1				0	
6.6.1	win	2023-07-11	16:22:08	16:32:55	643235	6108e2470b62bbe11b9f2e7c	4	1	main_slash	11	main_slash	139	stimuli_target_squarediamonds.svg	stimuli_distractor_diamondtriangles.svg	8	yes	53	1	255	0	0			0	0			1				0	
6.6.1	win	2023-07-11	16:22:08	16:32:55	643235	6108e2470b62bbe11b9f2e7c	4	1	main_slash	11	advance_on_keypress_SLASH	140	stimuli_target_squarediamonds.svg	stimuli_distractor_diamondtriangles.svg	8	yes	57	0	546	0	0			0	0			1				0	
6.6.1	win	2023-07-11	16:22:08	16:32:56	644699	6108e2470b62bbe11b9f2e7c	4	1	main_slash	11	main_slash	141	stimuli_distractor_diamondtriangles.svg	stimuli_target_squaretriangles.svg	15	yes	53	1	269	0	0			0	0			1				0	
6.6.1	win	2023-07-11	16:22:08	16:32:56	644699	6108e2470b62bbe11b9f2e7c	4	1	main_slash	11	advance_on_keypress_SLASH	142	stimuli_distractor_diamondtriangles.svg	stimuli_target_squaretriangles.svg	15	yes	57	0	680	0	0			0	0			1				0	
6.6.1	win	2023-07-11	16:22:08	16:32:58	646478	6108e2470b62bbe11b9f2e7c	4	1	main_slash	11	main_slash	143	stimuli_target_squarediamonds.svg	stimuli_distractor_trianglediamonds.svg	4	yes	53	1	447	0	0			0	0			1				0	
6.6.1	win	2023-07-11	16:22:08	16:32:58	646478	6108e2470b62bbe11b9f2e7c	4	1	main_slash	11	advance_on_keypress_SLASH	144	stimuli_target_squarediamonds.svg	stimuli_distractor_trianglediamonds.svg	4	yes	57	0	612	0	0			0	0			1				0	
6.6.1	win	2023-07-11	16:22:08	16:33:00	648699	6108e2470b62bbe11b9f2e7c	4	1	main_slash	11	main_slash	145	stimuli_target_diamondrectangles.svg	stimuli_distractor_trianglediamonds.svg	19	yes	53	1	952	0	0			0	0			1				0	
6.6.1	win	2023-07-11	16:22:08	16:33:00	648699	6108e2470b62bbe11b9f2e7c	4	1	main_slash	11	advance_on_keypress_SLASH	146	stimuli_target_diamondrectangles.svg	stimuli_distractor_trianglediamonds.svg	19	yes	57	0	843	0	0			0	0			1				0	
6.6.1	win	2023-07-11	16:22:08	16:33:02	650421	6108e2470b62bbe11b9f2e7c	4	1	main_slash	11	main_slash	147	stimuli_distractor_diamondtriangles.svg	stimuli_distractor_diamondtriangles.svg	40	no	53	0	241	0	0			0	0			1				0	
6.6.1	win	2023-07-11	16:22:08	16:33:02	650421	6108e2470b62bbe11b9f2e7c	4	1	main_slash	11	advance_on_keypress_SLASH	148	stimuli_distractor_diamondtriangles.svg	stimuli_distractor_diamondtriangles.svg	40	no	57	0	1007	0	0			0	0			1				0	
6.6.1	win	2023-07-11	16:22:08	16:33:04	652608	6108e2470b62bbe11b9f2e7c	4	1	main_slash	11	main_slash	149	stimuli_distractor_trianglediamonds.svg	stimuli_target_diamondrectangles.svg	27	yes	53	1	529	0	0			0	0			1				0	
6.6.1	win	2023-07-11	16:22:08	16:33:04	652608	6108e2470b62bbe11b9f2e7c	4	1	main_slash	11	advance_on_keypress_SLASH	150	stimuli_distractor_trianglediamonds.svg	stimuli_target_diamondrectangles.svg	27	yes	57	0	1384	0	0			0	0			1				0	
6.6.1	win	2023-07-11	16:22:08	16:33:08	656256	6108e2470b62bbe11b9f2e7c	4	1	main_slash	11	main_slash	151	stimuli_distractor_diamondtriangles.svg	stimuli_distractor_trianglediamonds.svg	38	no	53	0	1611	0	0			0	0			1				0	
6.6.1	win	2023-07-11	16:22:08	16:33:08	656256	6108e2470b62bbe11b9f2e7c	4	1	main_slash	11	advance_on_keypress_SLASH	152	stimuli_distractor_diamondtriangles.svg	stimuli_distractor_trianglediamonds.svg	38	no	57	0	568	0	0			0	0			1				0	
6.6.1	win	2023-07-11	16:22:08	16:33:09	657694	6108e2470b62bbe11b9f2e7c	4	1	main_slash	11	main_slash	153	stimuli_target_rectanglediamonds.svg	stimuli_distractor_diamondtriangles.svg	6	yes	53	1	233	0	0			0	0			1				0	
6.6.1	win	2023-07-11	16:22:08	16:33:09	657694	6108e2470b62bbe11b9f2e7c	4	1	main_slash	11	advance_on_keypress_SLASH	154	stimuli_target_rectanglediamonds.svg	stimuli_distractor_diamondtriangles.svg	6	yes	57	0	369	0	0			0	0			1				0	
6.6.1	win	2023-07-11	16:22:08	16:33:11	658958	6108e2470b62bbe11b9f2e7c	4	1	main_slash	11	main_slash	155	stimuli_distractor_trianglediamonds.svg	stimuli_target_squaretriangles.svg	11	yes	53	1	247	0	0			0	0			1				0	
6.6.1	win	2023-07-11	16:22:08	16:33:11	658958	6108e2470b62bbe11b9f2e7c	4	1	main_slash	11	advance_on_keypress_SLASH	156	stimuli_distractor_trianglediamonds.svg	stimuli_target_squaretriangles.svg	11	yes	57	0	468	0	0			0	0			1				0	
6.6.1	win	2023-07-11	16:22:08	16:33:12	660337	6108e2470b62bbe11b9f2e7c	4	1	main_slash	11	main_slash	157	stimuli_distractor_trianglediamonds.svg	stimuli_target_rectanglediamonds.svg	10	yes	53	1	258	0	0			0	0			1				0	
6.6.1	win	2023-07-11	16:22:08	16:33:12	660337	6108e2470b62bbe11b9f2e7c	4	1	main_slash	11	advance_on_keypress_SLASH	158	stimuli_distractor_trianglediamonds.svg	stimuli_target_rectanglediamonds.svg	10	yes	57	0	466	0	0			0	0			1				0	
6.6.1	win	2023-07-11	16:22:08	16:33:13	661676	6108e2470b62bbe11b9f2e7c	4	1	main_slash	11	main_slash	159	stimuli_distractor_diamondtriangles.svg	stimuli_target_diamondrectangles.svg	31	yes	53	1	232	0	0			0	0			1				0	
6.6.1	win	2023-07-11	16:22:08	16:33:13	661676	6108e2470b62bbe11b9f2e7c	4	1	main_slash	11	advance_on_keypress_SLASH	160	stimuli_distractor_diamondtriangles.svg	stimuli_target_diamondrectangles.svg	31	yes	57	0	579	0	0			0	0			1				0	
6.6.1	win	2023-07-11	16:22:08	16:33:13	661676	6108e2470b62bbe11b9f2e7c	4	1	headphonecheck_calibration	14	headphonecheck_calibrationIntro	1	stimuli_distractor_diamondtriangles.svg	stimuli_target_diamondrectangles.svg	31	yes	calibrationButton	0	5311	0	0			0	0			1				0	
6.6.1	win	2023-07-11	16:22:08	16:33:13	661676	6108e2470b62bbe11b9f2e7c	4	1	headphonecheck_testphase	15	test_collectResponse	3	stimuli_distractor_diamondtriangles.svg	stimuli_target_diamondrectangles.svg	31	yes	second	0	31745	1	4	antiphase_hc_sio.wav	1	0	0			1				0	
6.6.1	win	2023-07-11	16:22:08	16:33:13	661676	6108e2470b62bbe11b9f2e7c	4	1	headphonecheck_testphase	15	test_collectResponse	6	stimuli_distractor_diamondtriangles.svg	stimuli_target_diamondrectangles.svg	31	yes	third	1	1417	2	6	antiphase_hc_ois.wav	3	0	0			1				0	
6.6.1	win	2023-07-11	16:22:08	16:33:13	661676	6108e2470b62bbe11b9f2e7c	4	1	headphonecheck_testphase	15	test_collectResponse	9	stimuli_distractor_diamondtriangles.svg	stimuli_target_diamondrectangles.svg	31	yes	second	1	3791	3	1	antiphase_hc_iso.wav	2	0	0			1				0	
6.6.1	win	2023-07-11	16:22:08	16:33:13	661676	6108e2470b62bbe11b9f2e7c	4	1	headphonecheck_testphase	15	test_collectResponse	12	stimuli_distractor_diamondtriangles.svg	stimuli_target_diamondrectangles.svg	31	yes	third	1	104	4	2	antiphase_hc_ios.wav	3	0	0			1				0	
6.6.1	win	2023-07-11	16:22:08	16:33:13	661676	6108e2470b62bbe11b9f2e7c	4	1	headphonecheck_testphase	15	test_collectResponse	15	stimuli_distractor_diamondtriangles.svg	stimuli_target_diamondrectangles.svg	31	yes	second	1	3308	5	5	antiphase_hc_osi.wav	2	0	0			1				0	
6.6.1	win	2023-07-11	16:22:08	16:33:13	661676	6108e2470b62bbe11b9f2e7c	4	1	headphonecheck_testphase	15	test_collectResponse	18	stimuli_distractor_diamondtriangles.svg	stimuli_target_diamondrectangles.svg	31	yes	second	0	490	6	3	antiphase_hc_soi.wav	1	0	0			1				0	
6.6.1	win	2023-07-11	16:22:08	16:33:13	661676	6108e2470b62bbe11b9f2e7c	4	1	stereocheck_calibration	17	stereocheck_calibrationIntro	1	stimuli_distractor_diamondtriangles.svg	stimuli_target_diamondrectangles.svg	31	yes	stereocheck_calibrationButton	0	2438	6	3	antiphase_hc_soi.wav	1	0	0			1				0	
6.6.1	win	2023-07-11	16:22:08	16:33:13	661676	6108e2470b62bbe11b9f2e7c	4	1	stereocheck_testphase	18	stereocheck_test_collectResponse	3	stimuli_distractor_diamondtriangles.svg	stimuli_target_diamondrectangles.svg	31	yes	stereocheck_left	1	385	6	3	antiphase_hc_soi.wav	1	1	2	noise_calib_stim_LEFT.wav	1	1				0	
6.6.1	win	2023-07-11	16:22:08	16:33:13	661676	6108e2470b62bbe11b9f2e7c	4	1	stereocheck_testphase	18	stereocheck_test_collectResponse	6	stimuli_distractor_diamondtriangles.svg	stimuli_target_diamondrectangles.svg	31	yes	stereocheck_right	1	669	6	3	antiphase_hc_soi.wav	1	2	6	noise_calib_stim_RIGHT.wav	2	1				0	
6.6.1	win	2023-07-11	16:22:08	16:33:13	661676	6108e2470b62bbe11b9f2e7c	4	1	stereocheck_testphase	18	stereocheck_test_collectResponse	9	stimuli_distractor_diamondtriangles.svg	stimuli_target_diamondrectangles.svg	31	yes	stereocheck_left	1	316	6	3	antiphase_hc_soi.wav	1	3	3	noise_calib_stim_LEFT.wav	1	1				0	
6.6.1	win	2023-07-11	16:22:08	16:33:13	661676	6108e2470b62bbe11b9f2e7c	4	1	stereocheck_testphase	18	stereocheck_test_collectResponse	12	stimuli_distractor_diamondtriangles.svg	stimuli_target_diamondrectangles.svg	31	yes	stereocheck_right	1	318	6	3	antiphase_hc_soi.wav	1	4	5	noise_calib_stim_RIGHT.wav	2	1				0	
6.6.1	win	2023-07-11	16:22:08	16:33:13	661676	6108e2470b62bbe11b9f2e7c	4	1	stereocheck_testphase	18	stereocheck_test_collectResponse	15	stimuli_distractor_diamondtriangles.svg	stimuli_target_diamondrectangles.svg	31	yes	stereocheck_left	1	256	6	3	antiphase_hc_soi.wav	1	5	1	noise_calib_stim_LEFT.wav	1	1				0	
6.6.1	win	2023-07-11	16:22:08	16:33:13	661676	6108e2470b62bbe11b9f2e7c	4	1	stereocheck_testphase	18	stereocheck_test_collectResponse	18	stimuli_distractor_diamondtriangles.svg	stimuli_target_diamondrectangles.svg	31	yes	stereocheck_right	1	272	6	3	antiphase_hc_soi.wav	1	6	4	noise_calib_stim_RIGHT.wav	2	1				0	
6.6.1	win	2023-07-11	16:22:08	16:33:13	661676	6108e2470b62bbe11b9f2e7c	4	1	DL_practice	21	DL_practice	2	stimuli_distractor_diamondtriangles.svg	stimuli_target_diamondrectangles.svg	31	yes	ba	1	954	6	3	antiphase_hc_soi.wav	1	6	4	noise_calib_stim_RIGHT.wav	2	1	blb_dichoticlistening_ba-ba.mp3	ba	ba	0	left
6.6.1	win	2023-07-11	16:22:08	16:33:13	661676	6108e2470b62bbe11b9f2e7c	4	1	DL_practice	21	DL_practice	3	stimuli_distractor_diamondtriangles.svg	stimuli_target_diamondrectangles.svg	31	yes	pa	1	1289	6	3	antiphase_hc_soi.wav	1	6	4	noise_calib_stim_RIGHT.wav	2	29	blb_dichoticlistening_pa-pa.mp3	pa	pa	0	left
6.6.1	win	2023-07-11	16:22:08	16:33:13	661676	6108e2470b62bbe11b9f2e7c	4	1	DL_practice	21	DL_practice	4	stimuli_distractor_diamondtriangles.svg	stimuli_target_diamondrectangles.svg	31	yes	da	1	738	6	3	antiphase_hc_soi.wav	1	6	4	noise_calib_stim_RIGHT.wav	2	8	blb_dichoticlistening_da-da.mp3	da	da	0	left
6.6.1	win	2023-07-11	16:22:08	16:33:13	661676	6108e2470b62bbe11b9f2e7c	4	1	DL_practice	21	DL_practice	5	stimuli_distractor_diamondtriangles.svg	stimuli_target_diamondrectangles.svg	31	yes	ka	1	1306	6	3	antiphase_hc_soi.wav	1	6	4	noise_calib_stim_RIGHT.wav	2	22	blb_dichoticlistening_ka-ka.mp3	ka	ka	0	left
6.6.1	win	2023-07-11	16:22:08	16:33:13	661676	6108e2470b62bbe11b9f2e7c	4	1	DL_practice	21	DL_practice	6	stimuli_distractor_diamondtriangles.svg	stimuli_target_diamondrectangles.svg	31	yes	da	1	2037	6	3	antiphase_hc_soi.wav	1	6	4	noise_calib_stim_RIGHT.wav	2	7	blb_dichoticlistening_da-ba.mp3	da	ba	1	left
6.6.1	win	2023-07-11	16:22:08	16:33:13	661676	6108e2470b62bbe11b9f2e7c	4	1	DL_practice	21	DL_practice	7	stimuli_distractor_diamondtriangles.svg	stimuli_target_diamondrectangles.svg	31	yes	ta	1	1296	6	3	antiphase_hc_soi.wav	1	6	4	noise_calib_stim_RIGHT.wav	2	36	blb_dichoticlistening_ta-ta.mp3	ta	ta	0	left
6.6.1	win	2023-07-11	16:22:08	16:33:13	661676	6108e2470b62bbe11b9f2e7c	4	1	DL_practice	21	DL_practice	8	stimuli_distractor_diamondtriangles.svg	stimuli_target_diamondrectangles.svg	31	yes	ga	1	660	6	3	antiphase_hc_soi.wav	1	6	4	noise_calib_stim_RIGHT.wav	2	15	blb_dichoticlistening_ga-ga.mp3	ga	ga	0	left
6.6.1	win	2023-07-11	16:22:08	16:33:13	661676	6108e2470b62bbe11b9f2e7c	4	1	DL_practice	21	DL_practice	9	stimuli_distractor_diamondtriangles.svg	stimuli_target_diamondrectangles.svg	31	yes	pa	1	820	6	3	antiphase_hc_soi.wav	1	6	4	noise_calib_stim_RIGHT.wav	2	23	blb_dichoticlistening_ka-pa.mp3	ka	pa	1	right
6.6.1	win	2023-07-11	16:22:08	16:33:13	661676	6108e2470b62bbe11b9f2e7c	4	1	DL_practice	21	DL_practice	10	stimuli_distractor_diamondtriangles.svg	stimuli_target_diamondrectangles.svg	31	yes	ka	0	1364	6	3	antiphase_hc_soi.wav	1	6	4	noise_calib_stim_RIGHT.wav	2	18	blb_dichoticlistening_ga-ta.mp3	ga	ta	1	other
6.6.1	win	2023-07-11	16:22:08	16:33:13	661676	6108e2470b62bbe11b9f2e7c	4	1	DL_test	23	DL_test	1	stimuli_distractor_diamondtriangles.svg	stimuli_target_diamondrectangles.svg	31	yes	ka	1	805	6	3	antiphase_hc_soi.wav	1	6	4	noise_calib_stim_RIGHT.wav	2	34	blb_dichoticlistening_ta-ka.mp3	ta	ka	1	right
6.6.1	win	2023-07-11	16:22:08	16:33:13	661676	6108e2470b62bbe11b9f2e7c	4	1	DL_test	23	DL_test	2	stimuli_distractor_diamondtriangles.svg	stimuli_target_diamondrectangles.svg	31	yes	pa	0	649	6	3	antiphase_hc_soi.wav	1	6	4	noise_calib_stim_RIGHT.wav	2	10	blb_dichoticlistening_da-ka.mp3	da	ka	1	other
6.6.1	win	2023-07-11	16:22:08	16:33:13	661676	6108e2470b62bbe11b9f2e7c	4	1	DL_test	23	DL_test	3	stimuli_distractor_diamondtriangles.svg	stimuli_target_diamondrectangles.svg	31	yes	ga	1	606	6	3	antiphase_hc_soi.wav	1	6	4	noise_calib_stim_RIGHT.wav	2	9	blb_dichoticlistening_da-ga.mp3	da	ga	1	right
6.6.1	win	2023-07-11	16:22:08	16:33:13	661676	6108e2470b62bbe11b9f2e7c	4	1	DL_test	23	DL_test	4	stimuli_distractor_diamondtriangles.svg	stimuli_target_diamondrectangles.svg	31	yes	ga	1	1702	6	3	antiphase_hc_soi.wav	1	6	4	noise_calib_stim_RIGHT.wav	2	27	blb_dichoticlistening_pa-ga.mp3	pa	ga	1	right
6.6.1	win	2023-07-11	16:22:08	16:33:13	661676	6108e2470b62bbe11b9f2e7c	4	1	DL_test	23	DL_test	5	stimuli_distractor_diamondtriangles.svg	stimuli_target_diamondrectangles.svg	31	yes	ta	1	969	6	3	antiphase_hc_soi.wav	1	6	4	noise_calib_stim_RIGHT.wav	2	36	blb_dichoticlistening_ta-ta.mp3	ta	ta	0	left
6.6.1	win	2023-07-11	16:22:08	16:33:13	661676	6108e2470b62bbe11b9f2e7c	4	1	DL_test	23	DL_test	6	stimuli_distractor_diamondtriangles.svg	stimuli_target_diamondrectangles.svg	31	yes	da	1	1120	6	3	antiphase_hc_soi.wav	1	6	4	noise_calib_stim_RIGHT.wav	2	8	blb_dichoticlistening_da-da.mp3	da	da	0	left
6.6.1	win	2023-07-11	16:22:08	16:33:13	661676	6108e2470b62bbe11b9f2e7c	4	1	DL_test	23	DL_test	7	stimuli_distractor_diamondtriangles.svg	stimuli_target_diamondrectangles.svg	31	yes	ka	0	4447	6	3	antiphase_hc_soi.wav	1	6	4	noise_calib_stim_RIGHT.wav	2	18	blb_dichoticlistening_ga-ta.mp3	ga	ta	1	other
6.6.1	win	2023-07-11	16:22:08	16:33:13	661676	6108e2470b62bbe11b9f2e7c	4	1	DL_test	23	DL_test	8	stimuli_distractor_diamondtriangles.svg	stimuli_target_diamondrectangles.svg	31	yes	pa	1	736	6	3	antiphase_hc_soi.wav	1	6	4	noise_calib_stim_RIGHT.wav	2	23	blb_dichoticlistening_ka-pa.mp3	ka	pa	1	right
6.6.1	win	2023-07-11	16:22:08	16:33:13	661676	6108e2470b62bbe11b9f2e7c	4	1	DL_test	23	DL_test	9	stimuli_distractor_diamondtriangles.svg	stimuli_target_diamondrectangles.svg	31	yes	ka	1	1195	6	3	antiphase_hc_soi.wav	1	6	4	noise_calib_stim_RIGHT.wav	2	4	blb_dichoticlistening_ba-ka.mp3	ba	ka	1	right
6.6.1	win	2023-07-11	16:22:08	16:33:13	661676	6108e2470b62bbe11b9f2e7c	4	1	DL_test	23	DL_test	10	stimuli_distractor_diamondtriangles.svg	stimuli_target_diamondrectangles.svg	31	yes	pa	1	1657	6	3	antiphase_hc_soi.wav	1	6	4	noise_calib_stim_RIGHT.wav	2	26	blb_dichoticlistening_pa-da.mp3	pa	da	1	left
6.6.1	win	2023-07-11	16:22:08	16:33:13	661676	6108e2470b62bbe11b9f2e7c	4	1	DL_test	23	DL_test	11	stimuli_distractor_diamondtriangles.svg	stimuli_target_diamondrectangles.svg	31	yes	ta	1	1634	6	3	antiphase_hc_soi.wav	1	6	4	noise_calib_stim_RIGHT.wav	2	30	blb_dichoticlistening_pa-ta.mp3	pa	ta	1	right
6.6.1	win	2023-07-11	16:22:08	16:33:13	661676	6108e2470b62bbe11b9f2e7c	4	1	DL_test	23	DL_test	12	stimuli_distractor_diamondtriangles.svg	stimuli_target_diamondrectangles.svg	31	yes	ka	1	1076	6	3	antiphase_hc_soi.wav	1	6	4	noise_calib_stim_RIGHT.wav	2	20	blb_dichoticlistening_ka-da.mp3	ka	da	1	left
6.6.1	win	2023-07-11	16:22:08	16:33:13	661676	6108e2470b62bbe11b9f2e7c	4	1	DL_test	23	DL_test	13	stimuli_distractor_diamondtriangles.svg	stimuli_target_diamondrectangles.svg	31	yes	da	1	3103	6	3	antiphase_hc_soi.wav	1	6	4	noise_calib_stim_RIGHT.wav	2	32	blb_dichoticlistening_ta-da.mp3	ta	da	1	right
6.6.1	win	2023-07-11	16:22:08	16:33:13	661676	6108e2470b62bbe11b9f2e7c	4	1	DL_test	23	DL_test	14	stimuli_distractor_diamondtriangles.svg	stimuli_target_diamondrectangles.svg	31	yes	ga	1	903	6	3	antiphase_hc_soi.wav	1	6	4	noise_calib_stim_RIGHT.wav	2	14	blb_dichoticlistening_ga-da.mp3	ga	da	1	left
6.6.1	win	2023-07-11	16:22:08	16:33:13	661676	6108e2470b62bbe11b9f2e7c	4	1	DL_test	23	DL_test	15	stimuli_distractor_diamondtriangles.svg	stimuli_target_diamondrectangles.svg	31	yes	ka	1	759	6	3	antiphase_hc_soi.wav	1	6	4	noise_calib_stim_RIGHT.wav	2	24	blb_dichoticlistening_ka-ta.mp3	ka	ta	1	left
6.6.1	win	2023-07-11	16:22:08	16:33:13	661676	6108e2470b62bbe11b9f2e7c	4	1	DL_test	23	DL_test	16	stimuli_distractor_diamondtriangles.svg	stimuli_target_diamondrectangles.svg	31	yes	pa	1	688	6	3	antiphase_hc_soi.wav	1	6	4	noise_calib_stim_RIGHT.wav	2	35	blb_dichoticlistening_ta-pa.mp3	ta	pa	1	right
6.6.1	win	2023-07-11	16:22:08	16:33:13	661676	6108e2470b62bbe11b9f2e7c	4	1	DL_test	23	DL_test	17	stimuli_distractor_diamondtriangles.svg	stimuli_target_diamondrectangles.svg	31	yes	da	1	1019	6	3	antiphase_hc_soi.wav	1	6	4	noise_calib_stim_RIGHT.wav	2	7	blb_dichoticlistening_da-ba.mp3	da	ba	1	left
6.6.1	win	2023-07-11	16:22:08	16:33:13	661676	6108e2470b62bbe11b9f2e7c	4	1	DL_test	23	DL_test	18	stimuli_distractor_diamondtriangles.svg	stimuli_target_diamondrectangles.svg	31	yes	ga	1	752	6	3	antiphase_hc_soi.wav	1	6	4	noise_calib_stim_RIGHT.wav	2	15	blb_dichoticlistening_ga-ga.mp3	ga	ga	0	left
6.6.1	win	2023-07-11	16:22:08	16:33:13	661676	6108e2470b62bbe11b9f2e7c	4	1	DL_test	23	DL_test	19	stimuli_distractor_diamondtriangles.svg	stimuli_target_diamondrectangles.svg	31	yes	pa	0	925	6	3	antiphase_hc_soi.wav	1	6	4	noise_calib_stim_RIGHT.wav	2	19	blb_dichoticlistening_ka-ba.mp3	ka	ba	1	other
6.6.1	win	2023-07-11	16:22:08	16:33:13	661676	6108e2470b62bbe11b9f2e7c	4	1	DL_test	23	DL_test	20	stimuli_distractor_diamondtriangles.svg	stimuli_target_diamondrectangles.svg	31	yes	ka	0	1068	6	3	antiphase_hc_soi.wav	1	6	4	noise_calib_stim_RIGHT.wav	2	33	blb_dichoticlistening_ta-ga.mp3	ta	ga	1	other
6.6.1	win	2023-07-11	16:22:08	16:33:13	661676	6108e2470b62bbe11b9f2e7c	4	1	DL_test	23	DL_test	21	stimuli_distractor_diamondtriangles.svg	stimuli_target_diamondrectangles.svg	31	yes	pa	1	747	6	3	antiphase_hc_soi.wav	1	6	4	noise_calib_stim_RIGHT.wav	2	25	blb_dichoticlistening_pa-ba.mp3	pa	ba	1	left
6.6.1	win	2023-07-11	16:22:08	16:33:13	661676	6108e2470b62bbe11b9f2e7c	4	1	DL_test	23	DL_test	22	stimuli_distractor_diamondtriangles.svg	stimuli_target_diamondrectangles.svg	31	yes	da	1	829	6	3	antiphase_hc_soi.wav	1	6	4	noise_calib_stim_RIGHT.wav	2	2	blb_dichoticlistening_ba-da.mp3	ba	da	1	right
6.6.1	win	2023-07-11	16:22:08	16:33:13	661676	6108e2470b62bbe11b9f2e7c	4	1	DL_test	23	DL_test	23	stimuli_distractor_diamondtriangles.svg	stimuli_target_diamondrectangles.svg	31	yes	ka	1	653	6	3	antiphase_hc_soi.wav	1	6	4	noise_calib_stim_RIGHT.wav	2	22	blb_dichoticlistening_ka-ka.mp3	ka	ka	0	left
6.6.1	win	2023-07-11	16:22:08	16:33:13	661676	6108e2470b62bbe11b9f2e7c	4	1	DL_test	23	DL_test	24	stimuli_distractor_diamondtriangles.svg	stimuli_target_diamondrectangles.svg	31	yes	ba	1	1294	6	3	antiphase_hc_soi.wav	1	6	4	noise_calib_stim_RIGHT.wav	2	13	blb_dichoticlistening_ga-ba.mp3	ga	ba	1	right
6.6.1	win	2023-07-11	16:22:08	16:33:13	661676	6108e2470b62bbe11b9f2e7c	4	1	DL_test	23	DL_test	25	stimuli_distractor_diamondtriangles.svg	stimuli_target_diamondrectangles.svg	31	yes	ga	1	824	6	3	antiphase_hc_soi.wav	1	6	4	noise_calib_stim_RIGHT.wav	2	3	blb_dichoticlistening_ba-ga.mp3	ba	ga	1	right
6.6.1	win	2023-07-11	16:22:08	16:33:13	661676	6108e2470b62bbe11b9f2e7c	4	1	DL_test	23	DL_test	26	stimuli_distractor_diamondtriangles.svg	stimuli_target_diamondrectangles.svg	31	yes	pa	1	737	6	3	antiphase_hc_soi.wav	1	6	4	noise_calib_stim_RIGHT.wav	2	17	blb_dichoticlistening_ga-pa.mp3	ga	pa	1	right
