build	computer.platform	date	time	timestamp	time_elapsed_ms	subject	group	session	blockcode	blocknum	trialcode	trialnum	stimulus_left	stimulus_right	stim_index	target_present	response	correct	latency	headphonecheck_countTestTrials	headphonecheck_index	headphonecheck_testSound	headphonecheck_correctResponse	stereocheck_countTestTrials	stereocheck_index	stereocheck_testSound	stereocheck_correctResponse	DL_index	DL_soundfile	DL_leftSound	DL_rightSound	DL_dualSound	DL_choice
6.6.1	mac	2023-06-02	02:11:17	02:15:08	229230	63d5e3bf4a739d1158b9ce64	4	1	practice_z	5	practice_z	1	stimuli_distractor_diamondtriangles.svg	stimuli_target_trianglerectangles.svg	9	yes	0	0	2000	0	0			0	0			1				0	
6.6.1	mac	2023-06-02	02:11:17	02:15:08	229230	63d5e3bf4a739d1158b9ce64	4	1	practice_z	5	advance_on_keypress_ZEE	2	stimuli_distractor_diamondtriangles.svg	stimuli_target_trianglerectangles.svg	9	yes	57	0	3928	0	0			0	0			1				0	
6.6.1	mac	2023-06-02	02:11:17	02:15:14	235055	63d5e3bf4a739d1158b9ce64	4	1	practice_z	5	practice_z	3	stimuli_target_rectanglediamonds.svg	stimuli_distractor_trianglediamonds.svg	4	yes	44	1	257	0	0			0	0			1				0	
6.6.1	mac	2023-06-02	02:11:17	02:15:14	235055	63d5e3bf4a739d1158b9ce64	4	1	practice_z	5	advance_on_keypress_ZEE	4	stimuli_target_rectanglediamonds.svg	stimuli_distractor_trianglediamonds.svg	4	yes	57	0	837	0	0			0	0			1				0	
6.6.1	mac	2023-06-02	02:11:17	02:15:17	237794	63d5e3bf4a739d1158b9ce64	4	1	practice_z	5	practice_z	5	stimuli_distractor_diamondtriangles.svg	stimuli_distractor_diamondtriangles.svg	13	no	44	0	266	0	0			0	0			1				0	
6.6.1	mac	2023-06-02	02:11:17	02:15:17	237794	63d5e3bf4a739d1158b9ce64	4	1	practice_z	5	advance_on_keypress_ZEE	6	stimuli_distractor_diamondtriangles.svg	stimuli_distractor_diamondtriangles.svg	13	no	57	0	3991	0	0			0	0			1				0	
6.6.1	mac	2023-06-02	02:11:17	02:15:23	243978	63d5e3bf4a739d1158b9ce64	4	1	practice_z	5	practice_z	7	stimuli_target_squarediamonds.svg	stimuli_distractor_trianglediamonds.svg	5	yes	44	1	551	0	0			0	0			1				0	
6.6.1	mac	2023-06-02	02:11:17	02:15:23	243978	63d5e3bf4a739d1158b9ce64	4	1	practice_z	5	advance_on_keypress_ZEE	8	stimuli_target_squarediamonds.svg	stimuli_distractor_trianglediamonds.svg	5	yes	57	0	943	0	0			0	0			1				0	
6.6.1	mac	2023-06-02	02:11:17	02:15:26	247145	63d5e3bf4a739d1158b9ce64	4	1	practice_z	5	practice_z	9	stimuli_distractor_diamondtriangles.svg	stimuli_target_diamondrectangles.svg	8	yes	44	1	581	0	0			0	0			1				0	
6.6.1	mac	2023-06-02	02:11:17	02:15:26	247145	63d5e3bf4a739d1158b9ce64	4	1	practice_z	5	advance_on_keypress_ZEE	10	stimuli_distractor_diamondtriangles.svg	stimuli_target_diamondrectangles.svg	8	yes	57	0	1974	0	0			0	0			1				0	
6.6.1	mac	2023-06-02	02:11:17	02:15:30	250989	63d5e3bf4a739d1158b9ce64	4	1	practice_z	5	practice_z	11	stimuli_target_diamondsquares.svg	stimuli_distractor_trianglediamonds.svg	6	yes	44	1	226	0	0			0	0			1				0	
6.6.1	mac	2023-06-02	02:11:17	02:15:30	250989	63d5e3bf4a739d1158b9ce64	4	1	practice_z	5	advance_on_keypress_ZEE	12	stimuli_target_diamondsquares.svg	stimuli_distractor_trianglediamonds.svg	6	yes	57	0	881	0	0			0	0			1				0	
6.6.1	mac	2023-06-02	02:11:17	02:15:33	253736	63d5e3bf4a739d1158b9ce64	4	1	practice_z	5	practice_z	13	stimuli_distractor_trianglediamonds.svg	stimuli_target_rectanglediamonds.svg	10	yes	44	1	222	0	0			0	0			1				0	
6.6.1	mac	2023-06-02	02:11:17	02:15:33	253736	63d5e3bf4a739d1158b9ce64	4	1	practice_z	5	advance_on_keypress_ZEE	14	stimuli_distractor_trianglediamonds.svg	stimuli_target_rectanglediamonds.svg	10	yes	57	0	894	0	0			0	0			1				0	
6.6.1	mac	2023-06-02	02:11:17	02:15:36	256804	63d5e3bf4a739d1158b9ce64	4	1	practice_z	5	practice_z	15	stimuli_distractor_diamondtriangles.svg	stimuli_target_rectangletriangles.svg	7	yes	44	1	524	0	0			0	0			1				0	
6.6.1	mac	2023-06-02	02:11:17	02:15:36	256804	63d5e3bf4a739d1158b9ce64	4	1	practice_z	5	advance_on_keypress_ZEE	16	stimuli_distractor_diamondtriangles.svg	stimuli_target_rectangletriangles.svg	7	yes	57	0	2565	0	0			0	0			1				0	
6.6.1	mac	2023-06-02	02:11:17	02:15:41	261434	63d5e3bf4a739d1158b9ce64	4	1	practice_z	5	practice_z	17	stimuli_target_rectanglediamonds.svg	stimuli_distractor_diamondtriangles.svg	1	yes	44	1	422	0	0			0	0			1				0	
6.6.1	mac	2023-06-02	02:11:17	02:15:41	261434	63d5e3bf4a739d1158b9ce64	4	1	practice_z	5	advance_on_keypress_ZEE	18	stimuli_target_rectanglediamonds.svg	stimuli_distractor_diamondtriangles.svg	1	yes	57	0	1213	0	0			0	0			1				0	
6.6.1	mac	2023-06-02	02:11:17	02:15:44	264560	63d5e3bf4a739d1158b9ce64	4	1	practice_z	5	practice_z	19	stimuli_target_diamondsquares.svg	stimuli_distractor_diamondtriangles.svg	3	yes	44	1	278	0	0			0	0			1				0	
6.6.1	mac	2023-06-02	02:11:17	02:15:44	264560	63d5e3bf4a739d1158b9ce64	4	1	practice_z	5	advance_on_keypress_ZEE	20	stimuli_target_diamondsquares.svg	stimuli_distractor_diamondtriangles.svg	3	yes	57	0	3307	0	0			0	0			1				0	
6.6.1	mac	2023-06-02	02:11:17	02:15:49	269721	63d5e3bf4a739d1158b9ce64	4	1	practice_z	5	practice_z	21	stimuli_distractor_trianglediamonds.svg	stimuli_distractor_trianglediamonds.svg	15	no	44	0	211	0	0			0	0			1				0	
6.6.1	mac	2023-06-02	02:11:17	02:15:49	269721	63d5e3bf4a739d1158b9ce64	4	1	practice_z	5	advance_on_keypress_ZEE	22	stimuli_distractor_trianglediamonds.svg	stimuli_distractor_trianglediamonds.svg	15	no	57	0	1567	0	0			0	0			1				0	
6.6.1	mac	2023-06-02	02:11:17	02:15:53	273993	63d5e3bf4a739d1158b9ce64	4	1	practice_z	5	practice_z	23	stimuli_distractor_trianglediamonds.svg	stimuli_distractor_diamondtriangles.svg	16	no	44	0	1061	0	0			0	0			1				0	
6.6.1	mac	2023-06-02	02:11:17	02:15:53	273993	63d5e3bf4a739d1158b9ce64	4	1	practice_z	5	advance_on_keypress_ZEE	24	stimuli_distractor_trianglediamonds.svg	stimuli_distractor_diamondtriangles.svg	16	no	57	0	1501	0	0			0	0			1				0	
6.6.1	mac	2023-06-02	02:11:17	02:15:58	278687	63d5e3bf4a739d1158b9ce64	4	1	practice_z	5	practice_z	25	stimuli_distractor_trianglediamonds.svg	stimuli_target_squarediamonds.svg	11	yes	44	1	1555	0	0			0	0			1				0	
6.6.1	mac	2023-06-02	02:11:17	02:15:58	278687	63d5e3bf4a739d1158b9ce64	4	1	practice_z	5	advance_on_keypress_ZEE	26	stimuli_distractor_trianglediamonds.svg	stimuli_target_squarediamonds.svg	11	yes	57	0	1278	0	0			0	0			1				0	
6.6.1	mac	2023-06-02	02:11:17	02:16:03	283613	63d5e3bf4a739d1158b9ce64	4	1	practice_z	5	practice_z	27	stimuli_distractor_trianglediamonds.svg	stimuli_target_diamondrectangles.svg	12	yes	0	0	2000	0	0			0	0			1				0	
6.6.1	mac	2023-06-02	02:11:17	02:16:03	283613	63d5e3bf4a739d1158b9ce64	4	1	practice_z	5	advance_on_keypress_ZEE	28	stimuli_distractor_trianglediamonds.svg	stimuli_target_diamondrectangles.svg	12	yes	57	0	883	0	0			0	0			1				0	
6.6.1	mac	2023-06-02	02:11:17	02:16:07	287576	63d5e3bf4a739d1158b9ce64	4	1	practice_z	5	practice_z	29	stimuli_target_squarediamonds.svg	stimuli_distractor_diamondtriangles.svg	2	yes	44	1	1446	0	0			0	0			1				0	
6.6.1	mac	2023-06-02	02:11:17	02:16:07	287576	63d5e3bf4a739d1158b9ce64	4	1	practice_z	5	advance_on_keypress_ZEE	30	stimuli_target_squarediamonds.svg	stimuli_distractor_diamondtriangles.svg	2	yes	57	0	881	0	0			0	0			1				0	
6.6.1	mac	2023-06-02	02:11:17	02:16:11	291546	63d5e3bf4a739d1158b9ce64	4	1	practice_z	5	practice_z	31	stimuli_distractor_diamondtriangles.svg	stimuli_distractor_trianglediamonds.svg	14	no	44	0	1451	0	0			0	0			1				0	
6.6.1	mac	2023-06-02	02:11:17	02:16:11	291546	63d5e3bf4a739d1158b9ce64	4	1	practice_z	5	advance_on_keypress_ZEE	32	stimuli_distractor_diamondtriangles.svg	stimuli_distractor_trianglediamonds.svg	14	no	57	0	992	0	0			0	0			1				0	
6.6.1	mac	2023-06-02	02:11:17	02:16:28	308792	63d5e3bf4a739d1158b9ce64	4	1	main_z	7	main_z	1	stimuli_distractor_diamondtriangles.svg	stimuli_target_diamondrectangles.svg	31	yes	0	0	2000	0	0			0	0			1				0	
6.6.1	mac	2023-06-02	02:11:17	02:16:28	308792	63d5e3bf4a739d1158b9ce64	4	1	main_z	7	advance_on_keypress_ZEE	2	stimuli_distractor_diamondtriangles.svg	stimuli_target_diamondrectangles.svg	31	yes	57	0	1127	0	0			0	0			1				0	
6.6.1	mac	2023-06-02	02:11:17	02:16:31	311715	63d5e3bf4a739d1158b9ce64	4	1	main_z	7	main_z	3	stimuli_distractor_trianglediamonds.svg	stimuli_target_diamondrectangles.svg	27	yes	44	1	1153	0	0			0	0			1				0	
6.6.1	mac	2023-06-02	02:11:17	02:16:31	311715	63d5e3bf4a739d1158b9ce64	4	1	main_z	7	advance_on_keypress_ZEE	4	stimuli_distractor_trianglediamonds.svg	stimuli_target_diamondrectangles.svg	27	yes	57	0	1935	0	0			0	0			1				0	
6.6.1	mac	2023-06-02	02:11:17	02:16:35	316026	63d5e3bf4a739d1158b9ce64	4	1	main_z	7	main_z	5	stimuli_distractor_trianglediamonds.svg	stimuli_target_trianglesquares.svg	26	yes	44	1	1743	0	0			0	0			1				0	
6.6.1	mac	2023-06-02	02:11:17	02:16:35	316026	63d5e3bf4a739d1158b9ce64	4	1	main_z	7	advance_on_keypress_ZEE	6	stimuli_distractor_trianglediamonds.svg	stimuli_target_trianglesquares.svg	26	yes	57	0	2106	0	0			0	0			1				0	
6.6.1	mac	2023-06-02	02:11:17	02:16:40	320760	63d5e3bf4a739d1158b9ce64	4	1	main_z	7	main_z	7	stimuli_distractor_diamondtriangles.svg	stimuli_target_squarediamonds.svg	16	yes	0	0	2000	0	0			0	0			1				0	
6.6.1	mac	2023-06-02	02:11:17	02:16:40	320760	63d5e3bf4a739d1158b9ce64	4	1	main_z	7	advance_on_keypress_ZEE	8	stimuli_distractor_diamondtriangles.svg	stimuli_target_squarediamonds.svg	16	yes	57	0	870	0	0			0	0			1				0	
6.6.1	mac	2023-06-02	02:11:17	02:16:43	323577	63d5e3bf4a739d1158b9ce64	4	1	main_z	7	main_z	9	stimuli_distractor_trianglediamonds.svg	stimuli_target_diamondsquares.svg	28	yes	44	1	1314	0	0			0	0			1				0	
6.6.1	mac	2023-06-02	02:11:17	02:16:43	323577	63d5e3bf4a739d1158b9ce64	4	1	main_z	7	advance_on_keypress_ZEE	10	stimuli_distractor_trianglediamonds.svg	stimuli_target_diamondsquares.svg	28	yes	57	0	1885	0	0			0	0			1				0	
6.6.1	mac	2023-06-02	02:11:17	02:16:47	328093	63d5e3bf4a739d1158b9ce64	4	1	main_z	7	main_z	11	stimuli_distractor_trianglediamonds.svg	stimuli_distractor_trianglediamonds.svg	33	no	0	1	2000	0	0			0	0			1				0	
6.6.1	mac	2023-06-02	02:11:17	02:16:47	328093	63d5e3bf4a739d1158b9ce64	4	1	main_z	7	advance_on_keypress_ZEE	12	stimuli_distractor_trianglediamonds.svg	stimuli_distractor_trianglediamonds.svg	33	no	57	0	1726	0	0			0	0			1				0	
6.6.1	mac	2023-06-02	02:11:17	02:16:51	331485	63d5e3bf4a739d1158b9ce64	4	1	main_z	7	main_z	13	stimuli_distractor_diamondtriangles.svg	stimuli_distractor_trianglediamonds.svg	38	no	44	0	1024	0	0			0	0			1				0	
6.6.1	mac	2023-06-02	02:11:17	02:16:51	331485	63d5e3bf4a739d1158b9ce64	4	1	main_z	7	advance_on_keypress_ZEE	14	stimuli_distractor_diamondtriangles.svg	stimuli_distractor_trianglediamonds.svg	38	no	57	0	1871	0	0			0	0			1				0	
6.6.1	mac	2023-06-02	02:11:17	02:16:54	334772	63d5e3bf4a739d1158b9ce64	4	1	main_z	7	main_z	15	stimuli_target_squarediamonds.svg	stimuli_distractor_diamondtriangles.svg	8	yes	44	1	776	0	0			0	0			1				0	
6.6.1	mac	2023-06-02	02:11:17	02:16:54	334772	63d5e3bf4a739d1158b9ce64	4	1	main_z	7	advance_on_keypress_ZEE	16	stimuli_target_squarediamonds.svg	stimuli_distractor_diamondtriangles.svg	8	yes	57	0	1836	0	0			0	0			1				0	
6.6.1	mac	2023-06-02	02:11:17	02:16:57	337786	63d5e3bf4a739d1158b9ce64	4	1	main_z	7	main_z	17	stimuli_distractor_trianglediamonds.svg	stimuli_target_rectangletriangles.svg	9	yes	44	1	543	0	0			0	0			1				0	
6.6.1	mac	2023-06-02	02:11:17	02:16:57	337786	63d5e3bf4a739d1158b9ce64	4	1	main_z	7	advance_on_keypress_ZEE	18	stimuli_distractor_trianglediamonds.svg	stimuli_target_rectangletriangles.svg	9	yes	57	0	1694	0	0			0	0			1				0	
6.6.1	mac	2023-06-02	02:11:17	02:17:00	340462	63d5e3bf4a739d1158b9ce64	4	1	main_z	7	main_z	19	stimuli_target_trianglesquares.svg	stimuli_distractor_diamondtriangles.svg	22	yes	44	1	333	0	0			0	0			1				0	
6.6.1	mac	2023-06-02	02:11:17	02:17:00	340462	63d5e3bf4a739d1158b9ce64	4	1	main_z	7	advance_on_keypress_ZEE	20	stimuli_target_trianglesquares.svg	stimuli_distractor_diamondtriangles.svg	22	yes	57	0	2647	0	0			0	0			1				0	
6.6.1	mac	2023-06-02	02:11:17	02:17:04	344679	63d5e3bf4a739d1158b9ce64	4	1	main_z	7	main_z	21	stimuli_distractor_trianglediamonds.svg	stimuli_target_rectanglediamonds.svg	10	yes	44	1	933	0	0			0	0			1				0	
6.6.1	mac	2023-06-02	02:11:17	02:17:04	344679	63d5e3bf4a739d1158b9ce64	4	1	main_z	7	advance_on_keypress_ZEE	22	stimuli_distractor_trianglediamonds.svg	stimuli_target_rectanglediamonds.svg	10	yes	57	0	1789	0	0			0	0			1				0	
6.6.1	mac	2023-06-02	02:11:17	02:17:07	347362	63d5e3bf4a739d1158b9ce64	4	1	main_z	7	main_z	23	stimuli_distractor_trianglediamonds.svg	stimuli_distractor_diamondtriangles.svg	35	no	44	0	251	0	0			0	0			1				0	
6.6.1	mac	2023-06-02	02:11:17	02:17:07	347362	63d5e3bf4a739d1158b9ce64	4	1	main_z	7	advance_on_keypress_ZEE	24	stimuli_distractor_trianglediamonds.svg	stimuli_distractor_diamondtriangles.svg	35	no	57	0	1524	0	0			0	0			1				0	
6.6.1	mac	2023-06-02	02:11:17	02:17:10	350536	63d5e3bf4a739d1158b9ce64	4	1	main_z	7	main_z	25	stimuli_target_diamondsquares.svg	stimuli_distractor_trianglediamonds.svg	20	yes	44	1	1024	0	0			0	0			1				0	
6.6.1	mac	2023-06-02	02:11:17	02:17:10	350536	63d5e3bf4a739d1158b9ce64	4	1	main_z	7	advance_on_keypress_ZEE	26	stimuli_target_diamondsquares.svg	stimuli_distractor_trianglediamonds.svg	20	yes	57	0	2268	0	0			0	0			1				0	
6.6.1	mac	2023-06-02	02:11:17	02:17:15	355442	63d5e3bf4a739d1158b9ce64	4	1	main_z	7	main_z	27	stimuli_distractor_diamondtriangles.svg	stimuli_distractor_diamondtriangles.svg	40	no	0	1	2000	0	0			0	0			1				0	
6.6.1	mac	2023-06-02	02:11:17	02:17:15	355442	63d5e3bf4a739d1158b9ce64	4	1	main_z	7	advance_on_keypress_ZEE	28	stimuli_distractor_diamondtriangles.svg	stimuli_distractor_diamondtriangles.svg	40	no	57	0	675	0	0			0	0			1				0	
6.6.1	mac	2023-06-02	02:11:17	02:17:17	357613	63d5e3bf4a739d1158b9ce64	4	1	main_z	7	main_z	29	stimuli_target_squarediamonds.svg	stimuli_distractor_trianglediamonds.svg	4	yes	44	1	851	0	0			0	0			1				0	
6.6.1	mac	2023-06-02	02:11:17	02:17:17	357613	63d5e3bf4a739d1158b9ce64	4	1	main_z	7	advance_on_keypress_ZEE	30	stimuli_target_squarediamonds.svg	stimuli_distractor_trianglediamonds.svg	4	yes	57	0	1091	0	0			0	0			1				0	
6.6.1	mac	2023-06-02	02:11:17	02:17:19	359895	63d5e3bf4a739d1158b9ce64	4	1	main_z	7	main_z	31	stimuli_target_rectanglediamonds.svg	stimuli_distractor_trianglediamonds.svg	2	yes	44	1	552	0	0			0	0			1				0	
6.6.1	mac	2023-06-02	02:11:17	02:17:19	359895	63d5e3bf4a739d1158b9ce64	4	1	main_z	7	advance_on_keypress_ZEE	32	stimuli_target_rectanglediamonds.svg	stimuli_distractor_trianglediamonds.svg	2	yes	57	0	3108	0	0			0	0			1				0	
6.6.1	mac	2023-06-02	02:11:17	02:17:25	365643	63d5e3bf4a739d1158b9ce64	4	1	main_z	7	main_z	33	stimuli_target_trianglerectangles.svg	stimuli_distractor_trianglediamonds.svg	17	yes	0	0	2000	0	0			0	0			1				0	
6.6.1	mac	2023-06-02	02:11:17	02:17:25	365643	63d5e3bf4a739d1158b9ce64	4	1	main_z	7	advance_on_keypress_ZEE	34	stimuli_target_trianglerectangles.svg	stimuli_distractor_trianglediamonds.svg	17	yes	57	0	624	0	0			0	0			1				0	
6.6.1	mac	2023-06-02	02:11:17	02:17:28	368893	63d5e3bf4a739d1158b9ce64	4	1	main_z	7	main_z	35	stimuli_distractor_diamondtriangles.svg	stimuli_distractor_diamondtriangles.svg	39	no	0	1	2000	0	0			0	0			1				0	
6.6.1	mac	2023-06-02	02:11:17	02:17:28	368893	63d5e3bf4a739d1158b9ce64	4	1	main_z	7	advance_on_keypress_ZEE	36	stimuli_distractor_diamondtriangles.svg	stimuli_distractor_diamondtriangles.svg	39	no	57	0	431	0	0			0	0			1				0	
6.6.1	mac	2023-06-02	02:11:17	02:17:30	370638	63d5e3bf4a739d1158b9ce64	4	1	main_z	7	main_z	37	stimuli_target_rectangletriangles.svg	stimuli_distractor_trianglediamonds.svg	1	yes	44	1	677	0	0			0	0			1				0	
6.6.1	mac	2023-06-02	02:11:17	02:17:30	370638	63d5e3bf4a739d1158b9ce64	4	1	main_z	7	advance_on_keypress_ZEE	38	stimuli_target_rectangletriangles.svg	stimuli_distractor_trianglediamonds.svg	1	yes	57	0	967	0	0			0	0			1				0	
6.6.1	mac	2023-06-02	02:11:17	02:17:32	372789	63d5e3bf4a739d1158b9ce64	4	1	main_z	7	main_z	39	stimuli_target_rectangletriangles.svg	stimuli_distractor_diamondtriangles.svg	5	yes	44	1	547	0	0			0	0			1				0	
6.6.1	mac	2023-06-02	02:11:17	02:17:32	372789	63d5e3bf4a739d1158b9ce64	4	1	main_z	7	advance_on_keypress_ZEE	40	stimuli_target_rectangletriangles.svg	stimuli_distractor_diamondtriangles.svg	5	yes	57	0	582	0	0			0	0			1				0	
6.6.1	mac	2023-06-02	02:11:17	02:17:34	374691	63d5e3bf4a739d1158b9ce64	4	1	main_z	7	main_z	41	stimuli_distractor_trianglediamonds.svg	stimuli_target_squaretriangles.svg	11	yes	44	1	679	0	0			0	0			1				0	
6.6.1	mac	2023-06-02	02:11:17	02:17:34	374691	63d5e3bf4a739d1158b9ce64	4	1	main_z	7	advance_on_keypress_ZEE	42	stimuli_distractor_trianglediamonds.svg	stimuli_target_squaretriangles.svg	11	yes	57	0	707	0	0			0	0			1				0	
6.6.1	mac	2023-06-02	02:11:17	02:17:37	378026	63d5e3bf4a739d1158b9ce64	4	1	main_z	7	main_z	43	stimuli_target_trianglerectangles.svg	stimuli_distractor_diamondtriangles.svg	21	yes	0	0	2000	0	0			0	0			1				0	
6.6.1	mac	2023-06-02	02:11:17	02:17:37	378026	63d5e3bf4a739d1158b9ce64	4	1	main_z	7	advance_on_keypress_ZEE	44	stimuli_target_trianglerectangles.svg	stimuli_distractor_diamondtriangles.svg	21	yes	57	0	333	0	0			0	0			1				0	
6.6.1	mac	2023-06-02	02:11:17	02:17:40	380993	63d5e3bf4a739d1158b9ce64	4	1	main_z	7	main_z	45	stimuli_target_diamondsquares.svg	stimuli_distractor_diamondtriangles.svg	24	yes	0	0	2000	0	0			0	0			1				0	
6.6.1	mac	2023-06-02	02:11:17	02:17:40	380993	63d5e3bf4a739d1158b9ce64	4	1	main_z	7	advance_on_keypress_ZEE	46	stimuli_target_diamondsquares.svg	stimuli_distractor_diamondtriangles.svg	24	yes	57	0	470	0	0			0	0			1				0	
6.6.1	mac	2023-06-02	02:11:17	02:17:43	384092	63d5e3bf4a739d1158b9ce64	4	1	main_z	7	main_z	47	stimuli_distractor_trianglediamonds.svg	stimuli_target_trianglerectangles.svg	25	yes	0	0	2000	0	0			0	0			1				0	
6.6.1	mac	2023-06-02	02:11:17	02:17:43	384092	63d5e3bf4a739d1158b9ce64	4	1	main_z	7	advance_on_keypress_ZEE	48	stimuli_distractor_trianglediamonds.svg	stimuli_target_trianglerectangles.svg	25	yes	57	0	607	0	0			0	0			1				0	
6.6.1	mac	2023-06-02	02:11:17	02:17:45	385782	63d5e3bf4a739d1158b9ce64	4	1	main_z	7	main_z	49	stimuli_distractor_trianglediamonds.svg	stimuli_target_squarediamonds.svg	12	yes	44	1	455	0	0			0	0			1				0	
6.6.1	mac	2023-06-02	02:11:17	02:17:45	385782	63d5e3bf4a739d1158b9ce64	4	1	main_z	7	advance_on_keypress_ZEE	50	stimuli_distractor_trianglediamonds.svg	stimuli_target_squarediamonds.svg	12	yes	57	0	720	0	0			0	0			1				0	
6.6.1	mac	2023-06-02	02:11:17	02:17:47	387669	63d5e3bf4a739d1158b9ce64	4	1	main_z	7	main_z	51	stimuli_target_squaretriangles.svg	stimuli_distractor_diamondtriangles.svg	7	yes	44	1	544	0	0			0	0			1				0	
6.6.1	mac	2023-06-02	02:11:17	02:17:47	387669	63d5e3bf4a739d1158b9ce64	4	1	main_z	7	advance_on_keypress_ZEE	52	stimuli_target_squaretriangles.svg	stimuli_distractor_diamondtriangles.svg	7	yes	57	0	554	0	0			0	0			1				0	
6.6.1	mac	2023-06-02	02:11:17	02:17:49	389325	63d5e3bf4a739d1158b9ce64	4	1	main_z	7	main_z	53	stimuli_distractor_diamondtriangles.svg	stimuli_target_rectanglediamonds.svg	14	yes	44	1	465	0	0			0	0			1				0	
6.6.1	mac	2023-06-02	02:11:17	02:17:49	389325	63d5e3bf4a739d1158b9ce64	4	1	main_z	7	advance_on_keypress_ZEE	54	stimuli_distractor_diamondtriangles.svg	stimuli_target_rectanglediamonds.svg	14	yes	57	0	465	0	0			0	0			1				0	
6.6.1	mac	2023-06-02	02:11:17	02:17:52	392426	63d5e3bf4a739d1158b9ce64	4	1	main_z	7	main_z	55	stimuli_target_trianglesquares.svg	stimuli_distractor_trianglediamonds.svg	18	yes	0	0	2000	0	0			0	0			1				0	
6.6.1	mac	2023-06-02	02:11:17	02:17:52	392426	63d5e3bf4a739d1158b9ce64	4	1	main_z	7	advance_on_keypress_ZEE	56	stimuli_target_trianglesquares.svg	stimuli_distractor_trianglediamonds.svg	18	yes	57	0	430	0	0			0	0			1				0	
6.6.1	mac	2023-06-02	02:11:17	02:17:55	395493	63d5e3bf4a739d1158b9ce64	4	1	main_z	7	main_z	57	stimuli_target_diamondrectangles.svg	stimuli_distractor_trianglediamonds.svg	19	yes	0	0	2000	0	0			0	0			1				0	
6.6.1	mac	2023-06-02	02:11:17	02:17:55	395493	63d5e3bf4a739d1158b9ce64	4	1	main_z	7	advance_on_keypress_ZEE	58	stimuli_target_diamondrectangles.svg	stimuli_distractor_trianglediamonds.svg	19	yes	57	0	399	0	0			0	0			1				0	
6.6.1	mac	2023-06-02	02:11:17	02:17:58	398525	63d5e3bf4a739d1158b9ce64	4	1	main_z	7	main_z	59	stimuli_distractor_diamondtriangles.svg	stimuli_distractor_trianglediamonds.svg	37	no	0	1	2000	0	0			0	0			1				0	
6.6.1	mac	2023-06-02	02:11:17	02:17:58	398525	63d5e3bf4a739d1158b9ce64	4	1	main_z	7	advance_on_keypress_ZEE	60	stimuli_distractor_diamondtriangles.svg	stimuli_distractor_trianglediamonds.svg	37	no	57	0	1574	0	0			0	0			1				0	
6.6.1	mac	2023-06-02	02:11:17	02:18:02	402727	63d5e3bf4a739d1158b9ce64	4	1	main_z	7	main_z	61	stimuli_distractor_trianglediamonds.svg	stimuli_distractor_trianglediamonds.svg	34	no	0	1	2000	0	0			0	0			1				0	
6.6.1	mac	2023-06-02	02:11:17	02:18:02	402727	63d5e3bf4a739d1158b9ce64	4	1	main_z	7	advance_on_keypress_ZEE	62	stimuli_distractor_trianglediamonds.svg	stimuli_distractor_trianglediamonds.svg	34	no	57	0	1199	0	0			0	0			1				0	
6.6.1	mac	2023-06-02	02:11:17	02:18:04	405183	63d5e3bf4a739d1158b9ce64	4	1	main_z	7	main_z	63	stimuli_distractor_diamondtriangles.svg	stimuli_target_rectangletriangles.svg	13	yes	44	1	622	0	0			0	0			1				0	
6.6.1	mac	2023-06-02	02:11:17	02:18:04	405183	63d5e3bf4a739d1158b9ce64	4	1	main_z	7	advance_on_keypress_ZEE	64	stimuli_distractor_diamondtriangles.svg	stimuli_target_rectangletriangles.svg	13	yes	57	0	559	0	0			0	0			1				0	
6.6.1	mac	2023-06-02	02:11:17	02:18:08	408359	63d5e3bf4a739d1158b9ce64	4	1	main_z	7	main_z	65	stimuli_distractor_diamondtriangles.svg	stimuli_target_diamondsquares.svg	32	yes	0	0	2000	0	0			0	0			1				0	
6.6.1	mac	2023-06-02	02:11:17	02:18:08	408359	63d5e3bf4a739d1158b9ce64	4	1	main_z	7	advance_on_keypress_ZEE	66	stimuli_distractor_diamondtriangles.svg	stimuli_target_diamondsquares.svg	32	yes	57	0	328	0	0			0	0			1				0	
6.6.1	mac	2023-06-02	02:11:17	02:18:09	409807	63d5e3bf4a739d1158b9ce64	4	1	main_z	7	main_z	67	stimuli_target_rectanglediamonds.svg	stimuli_distractor_diamondtriangles.svg	6	yes	44	1	480	0	0			0	0			1				0	
6.6.1	mac	2023-06-02	02:11:17	02:18:09	409807	63d5e3bf4a739d1158b9ce64	4	1	main_z	7	advance_on_keypress_ZEE	68	stimuli_target_rectanglediamonds.svg	stimuli_distractor_diamondtriangles.svg	6	yes	57	0	638	0	0			0	0			1				0	
6.6.1	mac	2023-06-02	02:11:17	02:18:11	411679	63d5e3bf4a739d1158b9ce64	4	1	main_z	7	main_z	69	stimuli_distractor_diamondtriangles.svg	stimuli_target_squaretriangles.svg	15	yes	44	1	602	0	0			0	0			1				0	
6.6.1	mac	2023-06-02	02:11:17	02:18:11	411679	63d5e3bf4a739d1158b9ce64	4	1	main_z	7	advance_on_keypress_ZEE	70	stimuli_distractor_diamondtriangles.svg	stimuli_target_squaretriangles.svg	15	yes	57	0	5178	0	0			0	0			1				0	
6.6.1	mac	2023-06-02	02:11:17	02:18:19	419494	63d5e3bf4a739d1158b9ce64	4	1	main_z	7	main_z	71	stimuli_distractor_diamondtriangles.svg	stimuli_target_trianglerectangles.svg	29	yes	0	0	2000	0	0			0	0			1				0	
6.6.1	mac	2023-06-02	02:11:17	02:18:19	419494	63d5e3bf4a739d1158b9ce64	4	1	main_z	7	advance_on_keypress_ZEE	72	stimuli_distractor_diamondtriangles.svg	stimuli_target_trianglerectangles.svg	29	yes	57	0	2038	0	0			0	0			1				0	
6.6.1	mac	2023-06-02	02:11:17	02:18:22	422434	63d5e3bf4a739d1158b9ce64	4	1	main_z	7	main_z	73	stimuli_distractor_trianglediamonds.svg	stimuli_distractor_diamondtriangles.svg	36	no	44	0	273	0	0			0	0			1				0	
6.6.1	mac	2023-06-02	02:11:17	02:18:22	422434	63d5e3bf4a739d1158b9ce64	4	1	main_z	7	advance_on_keypress_ZEE	74	stimuli_distractor_trianglediamonds.svg	stimuli_distractor_diamondtriangles.svg	36	no	57	0	742	0	0			0	0			1				0	
6.6.1	mac	2023-06-02	02:11:17	02:18:25	425809	63d5e3bf4a739d1158b9ce64	4	1	main_z	7	main_z	75	stimuli_distractor_diamondtriangles.svg	stimuli_target_trianglesquares.svg	30	yes	0	0	2000	0	0			0	0			1				0	
6.6.1	mac	2023-06-02	02:11:17	02:18:25	425809	63d5e3bf4a739d1158b9ce64	4	1	main_z	7	advance_on_keypress_ZEE	76	stimuli_distractor_diamondtriangles.svg	stimuli_target_trianglesquares.svg	30	yes	57	0	423	0	0			0	0			1				0	
6.6.1	mac	2023-06-02	02:11:17	02:18:28	428860	63d5e3bf4a739d1158b9ce64	4	1	main_z	7	main_z	77	stimuli_target_diamondrectangles.svg	stimuli_distractor_diamondtriangles.svg	23	yes	0	0	2000	0	0			0	0			1				0	
6.6.1	mac	2023-06-02	02:11:17	02:18:28	428860	63d5e3bf4a739d1158b9ce64	4	1	main_z	7	advance_on_keypress_ZEE	78	stimuli_target_diamondrectangles.svg	stimuli_distractor_diamondtriangles.svg	23	yes	57	0	383	0	0			0	0			1				0	
6.6.1	mac	2023-06-02	02:11:17	02:18:31	431878	63d5e3bf4a739d1158b9ce64	4	1	main_z	7	main_z	79	stimuli_target_squaretriangles.svg	stimuli_distractor_trianglediamonds.svg	3	yes	0	0	2000	0	0			0	0			1				0	
6.6.1	mac	2023-06-02	02:11:17	02:18:31	431878	63d5e3bf4a739d1158b9ce64	4	1	main_z	7	advance_on_keypress_ZEE	80	stimuli_target_squaretriangles.svg	stimuli_distractor_trianglediamonds.svg	3	yes	57	0	1311	0	0			0	0			1				0	
6.6.1	mac	2023-06-02	02:11:17	02:18:35	435826	63d5e3bf4a739d1158b9ce64	4	1	main_z	7	main_z	81	stimuli_target_squarediamonds.svg	stimuli_distractor_trianglediamonds.svg	4	yes	0	0	2000	0	0			0	0			1				0	
6.6.1	mac	2023-06-02	02:11:17	02:18:35	435826	63d5e3bf4a739d1158b9ce64	4	1	main_z	7	advance_on_keypress_ZEE	82	stimuli_target_squarediamonds.svg	stimuli_distractor_trianglediamonds.svg	4	yes	57	0	619	0	0			0	0			1				0	
6.6.1	mac	2023-06-02	02:11:17	02:18:37	437530	63d5e3bf4a739d1158b9ce64	4	1	main_z	7	main_z	83	stimuli_distractor_diamondtriangles.svg	stimuli_target_trianglesquares.svg	30	yes	44	1	451	0	0			0	0			1				0	
6.6.1	mac	2023-06-02	02:11:17	02:18:37	437530	63d5e3bf4a739d1158b9ce64	4	1	main_z	7	advance_on_keypress_ZEE	84	stimuli_distractor_diamondtriangles.svg	stimuli_target_trianglesquares.svg	30	yes	57	0	1099	0	0			0	0			1				0	
6.6.1	mac	2023-06-02	02:11:17	02:18:39	439850	63d5e3bf4a739d1158b9ce64	4	1	main_z	7	main_z	85	stimuli_target_diamondsquares.svg	stimuli_distractor_diamondtriangles.svg	24	yes	44	1	589	0	0			0	0			1				0	
6.6.1	mac	2023-06-02	02:11:17	02:18:39	439850	63d5e3bf4a739d1158b9ce64	4	1	main_z	7	advance_on_keypress_ZEE	86	stimuli_target_diamondsquares.svg	stimuli_distractor_diamondtriangles.svg	24	yes	57	0	481	0	0			0	0			1				0	
6.6.1	mac	2023-06-02	02:11:17	02:18:41	441419	63d5e3bf4a739d1158b9ce64	4	1	main_z	7	main_z	87	stimuli_target_diamondrectangles.svg	stimuli_distractor_trianglediamonds.svg	19	yes	44	1	459	0	0			0	0			1				0	
6.6.1	mac	2023-06-02	02:11:17	02:18:41	441419	63d5e3bf4a739d1158b9ce64	4	1	main_z	7	advance_on_keypress_ZEE	88	stimuli_target_diamondrectangles.svg	stimuli_distractor_trianglediamonds.svg	19	yes	57	0	391	0	0			0	0			1				0	
6.6.1	mac	2023-06-02	02:11:17	02:18:43	443338	63d5e3bf4a739d1158b9ce64	4	1	main_z	7	main_z	89	stimuli_target_rectangletriangles.svg	stimuli_distractor_trianglediamonds.svg	1	yes	44	1	892	0	0			0	0			1				0	
6.6.1	mac	2023-06-02	02:11:17	02:18:43	443338	63d5e3bf4a739d1158b9ce64	4	1	main_z	7	advance_on_keypress_ZEE	90	stimuli_target_rectangletriangles.svg	stimuli_distractor_trianglediamonds.svg	1	yes	57	0	1203	0	0			0	0			1				0	
6.6.1	mac	2023-06-02	02:11:17	02:18:46	447176	63d5e3bf4a739d1158b9ce64	4	1	main_z	7	main_z	91	stimuli_target_trianglerectangles.svg	stimuli_distractor_trianglediamonds.svg	17	yes	0	0	2000	0	0			0	0			1				0	
6.6.1	mac	2023-06-02	02:11:17	02:18:46	447176	63d5e3bf4a739d1158b9ce64	4	1	main_z	7	advance_on_keypress_ZEE	92	stimuli_target_trianglerectangles.svg	stimuli_distractor_trianglediamonds.svg	17	yes	57	0	607	0	0			0	0			1				0	
6.6.1	mac	2023-06-02	02:11:17	02:18:48	449026	63d5e3bf4a739d1158b9ce64	4	1	main_z	7	main_z	93	stimuli_distractor_diamondtriangles.svg	stimuli_target_diamondrectangles.svg	31	yes	44	1	615	0	0			0	0			1				0	
6.6.1	mac	2023-06-02	02:11:17	02:18:48	449026	63d5e3bf4a739d1158b9ce64	4	1	main_z	7	advance_on_keypress_ZEE	94	stimuli_distractor_diamondtriangles.svg	stimuli_target_diamondrectangles.svg	31	yes	57	0	1036	0	0			0	0			1				0	
6.6.1	mac	2023-06-02	02:11:17	02:18:52	452693	63d5e3bf4a739d1158b9ce64	4	1	main_z	7	main_z	95	stimuli_distractor_trianglediamonds.svg	stimuli_distractor_trianglediamonds.svg	33	no	0	1	2000	0	0			0	0			1				0	
6.6.1	mac	2023-06-02	02:11:17	02:18:52	452693	63d5e3bf4a739d1158b9ce64	4	1	main_z	7	advance_on_keypress_ZEE	96	stimuli_distractor_trianglediamonds.svg	stimuli_distractor_trianglediamonds.svg	33	no	57	0	559	0	0			0	0			1				0	
6.6.1	mac	2023-06-02	02:11:17	02:18:54	454381	63d5e3bf4a739d1158b9ce64	4	1	main_z	7	main_z	97	stimuli_target_diamondsquares.svg	stimuli_distractor_trianglediamonds.svg	20	yes	44	1	488	0	0			0	0			1				0	
6.6.1	mac	2023-06-02	02:11:17	02:18:54	454381	63d5e3bf4a739d1158b9ce64	4	1	main_z	7	advance_on_keypress_ZEE	98	stimuli_target_diamondsquares.svg	stimuli_distractor_trianglediamonds.svg	20	yes	57	0	1270	0	0			0	0			1				0	
6.6.1	mac	2023-06-02	02:11:17	02:18:57	458275	63d5e3bf4a739d1158b9ce64	4	1	main_z	7	main_z	99	stimuli_target_rectanglediamonds.svg	stimuli_distractor_trianglediamonds.svg	2	yes	0	0	2000	0	0			0	0			1				0	
6.6.1	mac	2023-06-02	02:11:17	02:18:57	458275	63d5e3bf4a739d1158b9ce64	4	1	main_z	7	advance_on_keypress_ZEE	100	stimuli_target_rectanglediamonds.svg	stimuli_distractor_trianglediamonds.svg	2	yes	57	0	344	0	0			0	0			1				0	
6.6.1	mac	2023-06-02	02:11:17	02:19:00	461260	63d5e3bf4a739d1158b9ce64	4	1	main_z	7	main_z	101	stimuli_distractor_trianglediamonds.svg	stimuli_target_squaretriangles.svg	11	yes	0	0	2000	0	0			0	0			1				0	
6.6.1	mac	2023-06-02	02:11:17	02:19:00	461260	63d5e3bf4a739d1158b9ce64	4	1	main_z	7	advance_on_keypress_ZEE	102	stimuli_distractor_trianglediamonds.svg	stimuli_target_squaretriangles.svg	11	yes	57	0	526	0	0			0	0			1				0	
6.6.1	mac	2023-06-02	02:11:17	02:19:02	463136	63d5e3bf4a739d1158b9ce64	4	1	main_z	7	main_z	103	stimuli_target_diamondrectangles.svg	stimuli_distractor_diamondtriangles.svg	23	yes	44	1	706	0	0			0	0			1				0	
6.6.1	mac	2023-06-02	02:11:17	02:19:02	463136	63d5e3bf4a739d1158b9ce64	4	1	main_z	7	advance_on_keypress_ZEE	104	stimuli_target_diamondrectangles.svg	stimuli_distractor_diamondtriangles.svg	23	yes	57	0	670	0	0			0	0			1				0	
6.6.1	mac	2023-06-02	02:11:17	02:19:04	464837	63d5e3bf4a739d1158b9ce64	4	1	main_z	7	main_z	105	stimuli_distractor_trianglediamonds.svg	stimuli_target_diamondrectangles.svg	27	yes	44	1	395	0	0			0	0			1				0	
6.6.1	mac	2023-06-02	02:11:17	02:19:04	464837	63d5e3bf4a739d1158b9ce64	4	1	main_z	7	advance_on_keypress_ZEE	106	stimuli_distractor_trianglediamonds.svg	stimuli_target_diamondrectangles.svg	27	yes	57	0	585	0	0			0	0			1				0	
6.6.1	mac	2023-06-02	02:11:17	02:19:06	466335	63d5e3bf4a739d1158b9ce64	4	1	main_z	7	main_z	107	stimuli_distractor_diamondtriangles.svg	stimuli_target_trianglerectangles.svg	29	yes	44	1	275	0	0			0	0			1				0	
6.6.1	mac	2023-06-02	02:11:17	02:19:06	466335	63d5e3bf4a739d1158b9ce64	4	1	main_z	7	advance_on_keypress_ZEE	108	stimuli_distractor_diamondtriangles.svg	stimuli_target_trianglerectangles.svg	29	yes	57	0	508	0	0			0	0			1				0	
6.6.1	mac	2023-06-02	02:11:17	02:19:08	468667	63d5e3bf4a739d1158b9ce64	4	1	main_z	7	main_z	109	stimuli_target_squaretriangles.svg	stimuli_distractor_trianglediamonds.svg	3	yes	44	1	1189	0	0			0	0			1				0	
6.6.1	mac	2023-06-02	02:11:17	02:19:08	468667	63d5e3bf4a739d1158b9ce64	4	1	main_z	7	advance_on_keypress_ZEE	110	stimuli_target_squaretriangles.svg	stimuli_distractor_trianglediamonds.svg	3	yes	57	0	1491	0	0			0	0			1				0	
6.6.1	mac	2023-06-02	02:11:17	02:19:12	472793	63d5e3bf4a739d1158b9ce64	4	1	main_z	7	main_z	111	stimuli_target_rectanglediamonds.svg	stimuli_distractor_diamondtriangles.svg	6	yes	0	0	2000	0	0			0	0			1				0	
6.6.1	mac	2023-06-02	02:11:17	02:19:12	472793	63d5e3bf4a739d1158b9ce64	4	1	main_z	7	advance_on_keypress_ZEE	112	stimuli_target_rectanglediamonds.svg	stimuli_distractor_diamondtriangles.svg	6	yes	57	0	1580	0	0			0	0			1				0	
6.6.1	mac	2023-06-02	02:11:17	02:19:15	475609	63d5e3bf4a739d1158b9ce64	4	1	main_z	7	main_z	113	stimuli_target_trianglesquares.svg	stimuli_distractor_trianglediamonds.svg	18	yes	44	1	600	0	0			0	0			1				0	
6.6.1	mac	2023-06-02	02:11:17	02:19:15	475609	63d5e3bf4a739d1158b9ce64	4	1	main_z	7	advance_on_keypress_ZEE	114	stimuli_target_trianglesquares.svg	stimuli_distractor_trianglediamonds.svg	18	yes	57	0	674	0	0			0	0			1				0	
6.6.1	mac	2023-06-02	02:11:17	02:19:17	477658	63d5e3bf4a739d1158b9ce64	4	1	main_z	7	main_z	115	stimuli_distractor_trianglediamonds.svg	stimuli_target_diamondsquares.svg	28	yes	44	1	747	0	0			0	0			1				0	
6.6.1	mac	2023-06-02	02:11:17	02:19:17	477658	63d5e3bf4a739d1158b9ce64	4	1	main_z	7	advance_on_keypress_ZEE	116	stimuli_distractor_trianglediamonds.svg	stimuli_target_diamondsquares.svg	28	yes	57	0	408	0	0			0	0			1				0	
6.6.1	mac	2023-06-02	02:11:17	02:19:20	480692	63d5e3bf4a739d1158b9ce64	4	1	main_z	7	main_z	117	stimuli_distractor_diamondtriangles.svg	stimuli_distractor_trianglediamonds.svg	37	no	0	1	2000	0	0			0	0			1				0	
6.6.1	mac	2023-06-02	02:11:17	02:19:20	480692	63d5e3bf4a739d1158b9ce64	4	1	main_z	7	advance_on_keypress_ZEE	118	stimuli_distractor_diamondtriangles.svg	stimuli_distractor_trianglediamonds.svg	37	no	57	0	2525	0	0			0	0			1				0	
6.6.1	mac	2023-06-02	02:11:17	02:19:25	485859	63d5e3bf4a739d1158b9ce64	4	1	main_z	7	main_z	119	stimuli_distractor_trianglediamonds.svg	stimuli_distractor_diamondtriangles.svg	35	no	0	1	2000	0	0			0	0			1				0	
6.6.1	mac	2023-06-02	02:11:17	02:19:25	485859	63d5e3bf4a739d1158b9ce64	4	1	main_z	7	advance_on_keypress_ZEE	120	stimuli_distractor_trianglediamonds.svg	stimuli_distractor_diamondtriangles.svg	35	no	57	0	664	0	0			0	0			1				0	
6.6.1	mac	2023-06-02	02:11:17	02:19:28	489160	63d5e3bf4a739d1158b9ce64	4	1	main_z	7	main_z	121	stimuli_distractor_diamondtriangles.svg	stimuli_distractor_diamondtriangles.svg	39	no	0	1	2000	0	0			0	0			1				0	
6.6.1	mac	2023-06-02	02:11:17	02:19:28	489160	63d5e3bf4a739d1158b9ce64	4	1	main_z	7	advance_on_keypress_ZEE	122	stimuli_distractor_diamondtriangles.svg	stimuli_distractor_diamondtriangles.svg	39	no	57	0	859	0	0			0	0			1				0	
6.6.1	mac	2023-06-02	02:11:17	02:19:31	491591	63d5e3bf4a739d1158b9ce64	4	1	main_z	7	main_z	123	stimuli_distractor_diamondtriangles.svg	stimuli_target_squaretriangles.svg	15	yes	44	1	929	0	0			0	0			1				0	
6.6.1	mac	2023-06-02	02:11:17	02:19:31	491591	63d5e3bf4a739d1158b9ce64	4	1	main_z	7	advance_on_keypress_ZEE	124	stimuli_distractor_diamondtriangles.svg	stimuli_target_squaretriangles.svg	15	yes	57	0	12728	0	0			0	0			1				0	
6.6.1	mac	2023-06-02	02:11:17	02:19:46	506959	63d5e3bf4a739d1158b9ce64	4	1	main_z	7	main_z	125	stimuli_distractor_trianglediamonds.svg	stimuli_target_rectangletriangles.svg	9	yes	0	0	2000	0	0			0	0			1				0	
6.6.1	mac	2023-06-02	02:11:17	02:19:46	506959	63d5e3bf4a739d1158b9ce64	4	1	main_z	7	advance_on_keypress_ZEE	126	stimuli_distractor_trianglediamonds.svg	stimuli_target_rectangletriangles.svg	9	yes	57	0	480	0	0			0	0			1				0	
6.6.1	mac	2023-06-02	02:11:17	02:19:49	510078	63d5e3bf4a739d1158b9ce64	4	1	main_z	7	main_z	127	stimuli_distractor_diamondtriangles.svg	stimuli_target_diamondsquares.svg	32	yes	0	0	2000	0	0			0	0			1				0	
6.6.1	mac	2023-06-02	02:11:17	02:19:49	510078	63d5e3bf4a739d1158b9ce64	4	1	main_z	7	advance_on_keypress_ZEE	128	stimuli_distractor_diamondtriangles.svg	stimuli_target_diamondsquares.svg	32	yes	57	0	318	0	0			0	0			1				0	
6.6.1	mac	2023-06-02	02:11:17	02:19:51	511336	63d5e3bf4a739d1158b9ce64	4	1	main_z	7	main_z	129	stimuli_distractor_trianglediamonds.svg	stimuli_target_trianglesquares.svg	26	yes	44	1	309	0	0			0	0			1				0	
6.6.1	mac	2023-06-02	02:11:17	02:19:51	511336	63d5e3bf4a739d1158b9ce64	4	1	main_z	7	advance_on_keypress_ZEE	130	stimuli_distractor_trianglediamonds.svg	stimuli_target_trianglesquares.svg	26	yes	57	0	749	0	0			0	0			1				0	
6.6.1	mac	2023-06-02	02:11:17	02:19:52	513039	63d5e3bf4a739d1158b9ce64	4	1	main_z	7	main_z	131	stimuli_distractor_diamondtriangles.svg	stimuli_distractor_trianglediamonds.svg	38	no	44	0	312	0	0			0	0			1				0	
6.6.1	mac	2023-06-02	02:11:17	02:19:52	513039	63d5e3bf4a739d1158b9ce64	4	1	main_z	7	advance_on_keypress_ZEE	132	stimuli_distractor_diamondtriangles.svg	stimuli_distractor_trianglediamonds.svg	38	no	57	0	492	0	0			0	0			1				0	
6.6.1	mac	2023-06-02	02:11:17	02:19:55	516158	63d5e3bf4a739d1158b9ce64	4	1	main_z	7	main_z	133	stimuli_distractor_trianglediamonds.svg	stimuli_distractor_diamondtriangles.svg	36	no	0	1	2000	0	0			0	0			1				0	
6.6.1	mac	2023-06-02	02:11:17	02:19:55	516158	63d5e3bf4a739d1158b9ce64	4	1	main_z	7	advance_on_keypress_ZEE	134	stimuli_distractor_trianglediamonds.svg	stimuli_distractor_diamondtriangles.svg	36	no	57	0	727	0	0			0	0			1				0	
6.6.1	mac	2023-06-02	02:11:17	02:19:57	518069	63d5e3bf4a739d1158b9ce64	4	1	main_z	7	main_z	135	stimuli_distractor_trianglediamonds.svg	stimuli_target_trianglerectangles.svg	25	yes	44	1	543	0	0			0	0			1				0	
6.6.1	mac	2023-06-02	02:11:17	02:19:57	518069	63d5e3bf4a739d1158b9ce64	4	1	main_z	7	advance_on_keypress_ZEE	136	stimuli_distractor_trianglediamonds.svg	stimuli_target_trianglerectangles.svg	25	yes	57	0	754	0	0			0	0			1				0	
6.6.1	mac	2023-06-02	02:11:17	02:19:59	519748	63d5e3bf4a739d1158b9ce64	4	1	main_z	7	main_z	137	stimuli_distractor_trianglediamonds.svg	stimuli_target_squarediamonds.svg	12	yes	44	1	304	0	0			0	0			1				0	
6.6.1	mac	2023-06-02	02:11:17	02:19:59	519748	63d5e3bf4a739d1158b9ce64	4	1	main_z	7	advance_on_keypress_ZEE	138	stimuli_distractor_trianglediamonds.svg	stimuli_target_squarediamonds.svg	12	yes	57	0	617	0	0			0	0			1				0	
6.6.1	mac	2023-06-02	02:11:17	02:20:01	521312	63d5e3bf4a739d1158b9ce64	4	1	main_z	7	main_z	139	stimuli_distractor_trianglediamonds.svg	stimuli_distractor_trianglediamonds.svg	34	no	44	0	318	0	0			0	0			1				0	
6.6.1	mac	2023-06-02	02:11:17	02:20:01	521312	63d5e3bf4a739d1158b9ce64	4	1	main_z	7	advance_on_keypress_ZEE	140	stimuli_distractor_trianglediamonds.svg	stimuli_distractor_trianglediamonds.svg	34	no	57	0	950	0	0			0	0			1				0	
6.6.1	mac	2023-06-02	02:11:17	02:20:03	523767	63d5e3bf4a739d1158b9ce64	4	1	main_z	7	main_z	141	stimuli_distractor_diamondtriangles.svg	stimuli_target_rectanglediamonds.svg	14	yes	44	1	872	0	0			0	0			1				0	
6.6.1	mac	2023-06-02	02:11:17	02:20:03	523767	63d5e3bf4a739d1158b9ce64	4	1	main_z	7	advance_on_keypress_ZEE	142	stimuli_distractor_diamondtriangles.svg	stimuli_target_rectanglediamonds.svg	14	yes	57	0	678	0	0			0	0			1				0	
6.6.1	mac	2023-06-02	02:11:17	02:20:05	525363	63d5e3bf4a739d1158b9ce64	4	1	main_z	7	main_z	143	stimuli_distractor_diamondtriangles.svg	stimuli_distractor_diamondtriangles.svg	40	no	44	0	287	0	0			0	0			1				0	
6.6.1	mac	2023-06-02	02:11:17	02:20:05	525363	63d5e3bf4a739d1158b9ce64	4	1	main_z	7	advance_on_keypress_ZEE	144	stimuli_distractor_diamondtriangles.svg	stimuli_distractor_diamondtriangles.svg	40	no	57	0	546	0	0			0	0			1				0	
6.6.1	mac	2023-06-02	02:11:17	02:20:07	527642	63d5e3bf4a739d1158b9ce64	4	1	main_z	7	main_z	145	stimuli_distractor_diamondtriangles.svg	stimuli_target_rectangletriangles.svg	13	yes	44	1	1096	0	0			0	0			1				0	
6.6.1	mac	2023-06-02	02:11:17	02:20:07	527642	63d5e3bf4a739d1158b9ce64	4	1	main_z	7	advance_on_keypress_ZEE	146	stimuli_distractor_diamondtriangles.svg	stimuli_target_rectangletriangles.svg	13	yes	57	0	368	0	0			0	0			1				0	
6.6.1	mac	2023-06-02	02:11:17	02:20:08	528927	63d5e3bf4a739d1158b9ce64	4	1	main_z	7	main_z	147	stimuli_distractor_diamondtriangles.svg	stimuli_target_squarediamonds.svg	16	yes	44	1	282	0	0			0	0			1				0	
6.6.1	mac	2023-06-02	02:11:17	02:20:08	528927	63d5e3bf4a739d1158b9ce64	4	1	main_z	7	advance_on_keypress_ZEE	148	stimuli_distractor_diamondtriangles.svg	stimuli_target_squarediamonds.svg	16	yes	57	0	518	0	0			0	0			1				0	
6.6.1	mac	2023-06-02	02:11:17	02:20:10	531062	63d5e3bf4a739d1158b9ce64	4	1	main_z	7	main_z	149	stimuli_target_squaretriangles.svg	stimuli_distractor_diamondtriangles.svg	7	yes	44	1	984	0	0			0	0			1				0	
6.6.1	mac	2023-06-02	02:11:17	02:20:10	531062	63d5e3bf4a739d1158b9ce64	4	1	main_z	7	advance_on_keypress_ZEE	150	stimuli_target_squaretriangles.svg	stimuli_distractor_diamondtriangles.svg	7	yes	57	0	318	0	0			0	0			1				0	
6.6.1	mac	2023-06-02	02:11:17	02:20:11	532271	63d5e3bf4a739d1158b9ce64	4	1	main_z	7	main_z	151	stimuli_target_trianglesquares.svg	stimuli_distractor_diamondtriangles.svg	22	yes	44	1	260	0	0			0	0			1				0	
6.6.1	mac	2023-06-02	02:11:17	02:20:11	532271	63d5e3bf4a739d1158b9ce64	4	1	main_z	7	advance_on_keypress_ZEE	152	stimuli_target_trianglesquares.svg	stimuli_distractor_diamondtriangles.svg	22	yes	57	0	467	0	0			0	0			1				0	
6.6.1	mac	2023-06-02	02:11:17	02:20:13	533708	63d5e3bf4a739d1158b9ce64	4	1	main_z	7	main_z	153	stimuli_target_squarediamonds.svg	stimuli_distractor_diamondtriangles.svg	8	yes	44	1	330	0	0			0	0			1				0	
6.6.1	mac	2023-06-02	02:11:17	02:20:13	533708	63d5e3bf4a739d1158b9ce64	4	1	main_z	7	advance_on_keypress_ZEE	154	stimuli_target_squarediamonds.svg	stimuli_distractor_diamondtriangles.svg	8	yes	57	0	586	0	0			0	0			1				0	
6.6.1	mac	2023-06-02	02:11:17	02:20:15	535723	63d5e3bf4a739d1158b9ce64	4	1	main_z	7	main_z	155	stimuli_target_trianglerectangles.svg	stimuli_distractor_diamondtriangles.svg	21	yes	44	1	795	0	0			0	0			1				0	
6.6.1	mac	2023-06-02	02:11:17	02:20:15	535723	63d5e3bf4a739d1158b9ce64	4	1	main_z	7	advance_on_keypress_ZEE	156	stimuli_target_trianglerectangles.svg	stimuli_distractor_diamondtriangles.svg	21	yes	57	0	403	0	0			0	0			1				0	
6.6.1	mac	2023-06-02	02:11:17	02:20:18	538760	63d5e3bf4a739d1158b9ce64	4	1	main_z	7	main_z	157	stimuli_distractor_trianglediamonds.svg	stimuli_target_rectanglediamonds.svg	10	yes	0	0	2000	0	0			0	0			1				0	
6.6.1	mac	2023-06-02	02:11:17	02:20:18	538760	63d5e3bf4a739d1158b9ce64	4	1	main_z	7	advance_on_keypress_ZEE	158	stimuli_distractor_trianglediamonds.svg	stimuli_target_rectanglediamonds.svg	10	yes	57	0	942	0	0			0	0			1				0	
6.6.1	mac	2023-06-02	02:11:17	02:20:20	540719	63d5e3bf4a739d1158b9ce64	4	1	main_z	7	main_z	159	stimuli_target_rectangletriangles.svg	stimuli_distractor_diamondtriangles.svg	5	yes	44	1	374	0	0			0	0			1				0	
6.6.1	mac	2023-06-02	02:11:17	02:20:20	540719	63d5e3bf4a739d1158b9ce64	4	1	main_z	7	advance_on_keypress_ZEE	160	stimuli_target_rectangletriangles.svg	stimuli_distractor_diamondtriangles.svg	5	yes	57	0	673	0	0			0	0			1				0	
6.6.1	mac	2023-06-02	02:11:17	02:21:02	582502	63d5e3bf4a739d1158b9ce64	4	1	practice_slash	9	practice_slash	1	stimuli_distractor_diamondtriangles.svg	stimuli_target_trianglerectangles.svg	9	yes	53	1	1851	0	0			0	0			1				0	
6.6.1	mac	2023-06-02	02:11:17	02:21:02	582502	63d5e3bf4a739d1158b9ce64	4	1	practice_slash	9	advance_on_keypress_SLASH	2	stimuli_distractor_diamondtriangles.svg	stimuli_target_trianglerectangles.svg	9	yes	57	0	1847	0	0			0	0			1				0	
6.6.1	mac	2023-06-02	02:11:17	02:21:06	586574	63d5e3bf4a739d1158b9ce64	4	1	practice_slash	9	practice_slash	3	stimuli_target_rectanglediamonds.svg	stimuli_distractor_diamondtriangles.svg	1	yes	53	1	578	0	0			0	0			1				0	
6.6.1	mac	2023-06-02	02:11:17	02:21:06	586574	63d5e3bf4a739d1158b9ce64	4	1	practice_slash	9	advance_on_keypress_SLASH	4	stimuli_target_rectanglediamonds.svg	stimuli_distractor_diamondtriangles.svg	1	yes	57	0	696	0	0			0	0			1				0	
6.6.1	mac	2023-06-02	02:11:17	02:21:09	589928	63d5e3bf4a739d1158b9ce64	4	1	practice_slash	9	practice_slash	5	stimuli_target_diamondsquares.svg	stimuli_distractor_trianglediamonds.svg	6	yes	53	1	1013	0	0			0	0			1				0	
6.6.1	mac	2023-06-02	02:11:17	02:21:09	589928	63d5e3bf4a739d1158b9ce64	4	1	practice_slash	9	advance_on_keypress_SLASH	6	stimuli_target_diamondsquares.svg	stimuli_distractor_trianglediamonds.svg	6	yes	57	0	1044	0	0			0	0			1				0	
6.6.1	mac	2023-06-02	02:11:17	02:21:14	594613	63d5e3bf4a739d1158b9ce64	4	1	practice_slash	9	practice_slash	7	stimuli_distractor_diamondtriangles.svg	stimuli_distractor_diamondtriangles.svg	13	no	0	1	2000	0	0			0	0			1				0	
6.6.1	mac	2023-06-02	02:11:17	02:21:14	594613	63d5e3bf4a739d1158b9ce64	4	1	practice_slash	9	advance_on_keypress_SLASH	8	stimuli_distractor_diamondtriangles.svg	stimuli_distractor_diamondtriangles.svg	13	no	57	0	1003	0	0			0	0			1				0	
6.6.1	mac	2023-06-02	02:11:17	02:21:18	599246	63d5e3bf4a739d1158b9ce64	4	1	practice_slash	9	practice_slash	9	stimuli_distractor_trianglediamonds.svg	stimuli_target_squarediamonds.svg	11	yes	0	0	2000	0	0			0	0			1				0	
6.6.1	mac	2023-06-02	02:11:17	02:21:18	599246	63d5e3bf4a739d1158b9ce64	4	1	practice_slash	9	advance_on_keypress_SLASH	10	stimuli_distractor_trianglediamonds.svg	stimuli_target_squarediamonds.svg	11	yes	57	0	794	0	0			0	0			1				0	
6.6.1	mac	2023-06-02	02:11:17	02:21:22	602878	63d5e3bf4a739d1158b9ce64	4	1	practice_slash	9	practice_slash	11	stimuli_distractor_diamondtriangles.svg	stimuli_target_rectangletriangles.svg	7	yes	53	1	1196	0	0			0	0			1				0	
6.6.1	mac	2023-06-02	02:11:17	02:21:22	602878	63d5e3bf4a739d1158b9ce64	4	1	practice_slash	9	advance_on_keypress_SLASH	12	stimuli_distractor_diamondtriangles.svg	stimuli_target_rectangletriangles.svg	7	yes	57	0	720	0	0			0	0			1				0	
6.6.1	mac	2023-06-02	02:11:17	02:21:25	606145	63d5e3bf4a739d1158b9ce64	4	1	practice_slash	9	practice_slash	13	stimuli_target_diamondsquares.svg	stimuli_distractor_diamondtriangles.svg	3	yes	53	1	915	0	0			0	0			1				0	
6.6.1	mac	2023-06-02	02:11:17	02:21:25	606145	63d5e3bf4a739d1158b9ce64	4	1	practice_slash	9	advance_on_keypress_SLASH	14	stimuli_target_diamondsquares.svg	stimuli_distractor_diamondtriangles.svg	3	yes	57	0	1192	0	0			0	0			1				0	
6.6.1	mac	2023-06-02	02:11:17	02:21:29	610022	63d5e3bf4a739d1158b9ce64	4	1	practice_slash	9	practice_slash	15	stimuli_distractor_trianglediamonds.svg	stimuli_target_rectanglediamonds.svg	10	yes	53	1	1040	0	0			0	0			1				0	
6.6.1	mac	2023-06-02	02:11:17	02:21:29	610022	63d5e3bf4a739d1158b9ce64	4	1	practice_slash	9	advance_on_keypress_SLASH	16	stimuli_distractor_trianglediamonds.svg	stimuli_target_rectanglediamonds.svg	10	yes	57	0	973	0	0			0	0			1				0	
6.6.1	mac	2023-06-02	02:11:17	02:21:33	613388	63d5e3bf4a739d1158b9ce64	4	1	practice_slash	9	practice_slash	17	stimuli_target_rectanglediamonds.svg	stimuli_distractor_trianglediamonds.svg	4	yes	53	1	756	0	0			0	0			1				0	
6.6.1	mac	2023-06-02	02:11:17	02:21:33	613388	63d5e3bf4a739d1158b9ce64	4	1	practice_slash	9	advance_on_keypress_SLASH	18	stimuli_target_rectanglediamonds.svg	stimuli_distractor_trianglediamonds.svg	4	yes	57	0	762	0	0			0	0			1				0	
6.6.1	mac	2023-06-02	02:11:17	02:21:37	617796	63d5e3bf4a739d1158b9ce64	4	1	practice_slash	9	practice_slash	19	stimuli_distractor_trianglediamonds.svg	stimuli_distractor_diamondtriangles.svg	16	no	0	1	2000	0	0			0	0			1				0	
6.6.1	mac	2023-06-02	02:11:17	02:21:37	617796	63d5e3bf4a739d1158b9ce64	4	1	practice_slash	9	advance_on_keypress_SLASH	20	stimuli_distractor_trianglediamonds.svg	stimuli_distractor_diamondtriangles.svg	16	no	57	0	881	0	0			0	0			1				0	
6.6.1	mac	2023-06-02	02:11:17	02:21:40	620827	63d5e3bf4a739d1158b9ce64	4	1	practice_slash	9	practice_slash	21	stimuli_target_squarediamonds.svg	stimuli_distractor_diamondtriangles.svg	2	yes	53	1	512	0	0			0	0			1				0	
6.6.1	mac	2023-06-02	02:11:17	02:21:40	620827	63d5e3bf4a739d1158b9ce64	4	1	practice_slash	9	advance_on_keypress_SLASH	22	stimuli_target_squarediamonds.svg	stimuli_distractor_diamondtriangles.svg	2	yes	57	0	800	0	0			0	0			1				0	
6.6.1	mac	2023-06-02	02:11:17	02:21:43	623639	63d5e3bf4a739d1158b9ce64	4	1	practice_slash	9	practice_slash	23	stimuli_target_squarediamonds.svg	stimuli_distractor_trianglediamonds.svg	5	yes	53	1	374	0	0			0	0			1				0	
6.6.1	mac	2023-06-02	02:11:17	02:21:43	623639	63d5e3bf4a739d1158b9ce64	4	1	practice_slash	9	advance_on_keypress_SLASH	24	stimuli_target_squarediamonds.svg	stimuli_distractor_trianglediamonds.svg	5	yes	57	0	782	0	0			0	0			1				0	
6.6.1	mac	2023-06-02	02:11:17	02:21:46	626647	63d5e3bf4a739d1158b9ce64	4	1	practice_slash	9	practice_slash	25	stimuli_distractor_diamondtriangles.svg	stimuli_target_diamondrectangles.svg	8	yes	53	1	585	0	0			0	0			1				0	
6.6.1	mac	2023-06-02	02:11:17	02:21:46	626647	63d5e3bf4a739d1158b9ce64	4	1	practice_slash	9	advance_on_keypress_SLASH	26	stimuli_distractor_diamondtriangles.svg	stimuli_target_diamondrectangles.svg	8	yes	57	0	674	0	0			0	0			1				0	
6.6.1	mac	2023-06-02	02:11:17	02:21:50	630946	63d5e3bf4a739d1158b9ce64	4	1	practice_slash	9	practice_slash	27	stimuli_distractor_trianglediamonds.svg	stimuli_distractor_trianglediamonds.svg	15	no	0	1	2000	0	0			0	0			1				0	
6.6.1	mac	2023-06-02	02:11:17	02:21:50	630946	63d5e3bf4a739d1158b9ce64	4	1	practice_slash	9	advance_on_keypress_SLASH	28	stimuli_distractor_trianglediamonds.svg	stimuli_distractor_trianglediamonds.svg	15	no	57	0	704	0	0			0	0			1				0	
6.6.1	mac	2023-06-02	02:11:17	02:21:53	633882	63d5e3bf4a739d1158b9ce64	4	1	practice_slash	9	practice_slash	29	stimuli_distractor_trianglediamonds.svg	stimuli_target_diamondrectangles.svg	12	yes	53	1	603	0	0			0	0			1				0	
6.6.1	mac	2023-06-02	02:11:17	02:21:53	633882	63d5e3bf4a739d1158b9ce64	4	1	practice_slash	9	advance_on_keypress_SLASH	30	stimuli_distractor_trianglediamonds.svg	stimuli_target_diamondrectangles.svg	12	yes	57	0	636	0	0			0	0			1				0	
6.6.1	mac	2023-06-02	02:11:17	02:21:56	636695	63d5e3bf4a739d1158b9ce64	4	1	practice_slash	9	practice_slash	31	stimuli_distractor_diamondtriangles.svg	stimuli_distractor_trianglediamonds.svg	14	no	53	0	551	0	0			0	0			1				0	
6.6.1	mac	2023-06-02	02:11:17	02:21:56	636695	63d5e3bf4a739d1158b9ce64	4	1	practice_slash	9	advance_on_keypress_SLASH	32	stimuli_distractor_diamondtriangles.svg	stimuli_distractor_trianglediamonds.svg	14	no	57	0	946	0	0			0	0			1				0	
6.6.1	mac	2023-06-02	02:11:17	02:22:10	650745	63d5e3bf4a739d1158b9ce64	4	1	main_slash	11	main_slash	1	stimuli_distractor_trianglediamonds.svg	stimuli_distractor_trianglediamonds.svg	34	no	0	1	2000	0	0			0	0			1				0	
6.6.1	mac	2023-06-02	02:11:17	02:22:10	650745	63d5e3bf4a739d1158b9ce64	4	1	main_slash	11	advance_on_keypress_SLASH	2	stimuli_distractor_trianglediamonds.svg	stimuli_distractor_trianglediamonds.svg	34	no	57	0	646	0	0			0	0			1				0	
6.6.1	mac	2023-06-02	02:11:17	02:22:12	652575	63d5e3bf4a739d1158b9ce64	4	1	main_slash	11	main_slash	3	stimuli_distractor_diamondtriangles.svg	stimuli_target_diamondrectangles.svg	31	yes	53	1	547	0	0			0	0			1				0	
6.6.1	mac	2023-06-02	02:11:17	02:22:12	652575	63d5e3bf4a739d1158b9ce64	4	1	main_slash	11	advance_on_keypress_SLASH	4	stimuli_distractor_diamondtriangles.svg	stimuli_target_diamondrectangles.svg	31	yes	57	0	537	0	0			0	0			1				0	
6.6.1	mac	2023-06-02	02:11:17	02:22:13	654233	63d5e3bf4a739d1158b9ce64	4	1	main_slash	11	main_slash	5	stimuli_target_diamondrectangles.svg	stimuli_distractor_trianglediamonds.svg	19	yes	53	1	488	0	0			0	0			1				0	
6.6.1	mac	2023-06-02	02:11:17	02:22:13	654233	63d5e3bf4a739d1158b9ce64	4	1	main_slash	11	advance_on_keypress_SLASH	6	stimuli_target_diamondrectangles.svg	stimuli_distractor_trianglediamonds.svg	19	yes	57	0	516	0	0			0	0			1				0	
6.6.1	mac	2023-06-02	02:11:17	02:22:15	655684	63d5e3bf4a739d1158b9ce64	4	1	main_slash	11	main_slash	7	stimuli_target_squaretriangles.svg	stimuli_distractor_diamondtriangles.svg	7	yes	53	1	308	0	0			0	0			1				0	
6.6.1	mac	2023-06-02	02:11:17	02:22:15	655684	63d5e3bf4a739d1158b9ce64	4	1	main_slash	11	advance_on_keypress_SLASH	8	stimuli_target_squaretriangles.svg	stimuli_distractor_diamondtriangles.svg	7	yes	57	0	801	0	0			0	0			1				0	
6.6.1	mac	2023-06-02	02:11:17	02:22:17	657386	63d5e3bf4a739d1158b9ce64	4	1	main_slash	11	main_slash	9	stimuli_target_squaretriangles.svg	stimuli_distractor_trianglediamonds.svg	3	yes	53	1	275	0	0			0	0			1				0	
6.6.1	mac	2023-06-02	02:11:17	02:22:17	657386	63d5e3bf4a739d1158b9ce64	4	1	main_slash	11	advance_on_keypress_SLASH	10	stimuli_target_squaretriangles.svg	stimuli_distractor_trianglediamonds.svg	3	yes	57	0	459	0	0			0	0			1				0	
6.6.1	mac	2023-06-02	02:11:17	02:22:20	660478	63d5e3bf4a739d1158b9ce64	4	1	main_slash	11	main_slash	11	stimuli_distractor_trianglediamonds.svg	stimuli_target_diamondsquares.svg	28	yes	0	0	2000	0	0			0	0			1				0	
6.6.1	mac	2023-06-02	02:11:17	02:22:20	660478	63d5e3bf4a739d1158b9ce64	4	1	main_slash	11	advance_on_keypress_SLASH	12	stimuli_distractor_trianglediamonds.svg	stimuli_target_diamondsquares.svg	28	yes	57	0	706	0	0			0	0			1				0	
6.6.1	mac	2023-06-02	02:11:17	02:22:21	662191	63d5e3bf4a739d1158b9ce64	4	1	main_slash	11	main_slash	13	stimuli_distractor_trianglediamonds.svg	stimuli_target_trianglesquares.svg	26	yes	53	1	380	0	0			0	0			1				0	
6.6.1	mac	2023-06-02	02:11:17	02:22:21	662191	63d5e3bf4a739d1158b9ce64	4	1	main_slash	11	advance_on_keypress_SLASH	14	stimuli_distractor_trianglediamonds.svg	stimuli_target_trianglesquares.svg	26	yes	57	0	412	0	0			0	0			1				0	
6.6.1	mac	2023-06-02	02:11:17	02:22:23	663613	63d5e3bf4a739d1158b9ce64	4	1	main_slash	11	main_slash	15	stimuli_distractor_trianglediamonds.svg	stimuli_target_squarediamonds.svg	12	yes	53	1	365	0	0			0	0			1				0	
6.6.1	mac	2023-06-02	02:11:17	02:22:23	663613	63d5e3bf4a739d1158b9ce64	4	1	main_slash	11	advance_on_keypress_SLASH	16	stimuli_distractor_trianglediamonds.svg	stimuli_target_squarediamonds.svg	12	yes	57	0	601	0	0			0	0			1				0	
6.6.1	mac	2023-06-02	02:11:17	02:22:25	665804	63d5e3bf4a739d1158b9ce64	4	1	main_slash	11	main_slash	17	stimuli_target_trianglerectangles.svg	stimuli_distractor_trianglediamonds.svg	17	yes	53	1	959	0	0			0	0			1				0	
6.6.1	mac	2023-06-02	02:11:17	02:22:25	665804	63d5e3bf4a739d1158b9ce64	4	1	main_slash	11	advance_on_keypress_SLASH	18	stimuli_target_trianglerectangles.svg	stimuli_distractor_trianglediamonds.svg	17	yes	57	0	441	0	0			0	0			1				0	
6.6.1	mac	2023-06-02	02:11:17	02:22:27	667508	63d5e3bf4a739d1158b9ce64	4	1	main_slash	11	main_slash	19	stimuli_distractor_diamondtriangles.svg	stimuli_target_diamondsquares.svg	32	yes	53	1	630	0	0			0	0			1				0	
6.6.1	mac	2023-06-02	02:11:17	02:22:27	667508	63d5e3bf4a739d1158b9ce64	4	1	main_slash	11	advance_on_keypress_SLASH	20	stimuli_distractor_diamondtriangles.svg	stimuli_target_diamondsquares.svg	32	yes	57	0	560	0	0			0	0			1				0	
6.6.1	mac	2023-06-02	02:11:17	02:22:30	670711	63d5e3bf4a739d1158b9ce64	4	1	main_slash	11	main_slash	21	stimuli_target_diamondsquares.svg	stimuli_distractor_diamondtriangles.svg	24	yes	0	0	2000	0	0			0	0			1				0	
6.6.1	mac	2023-06-02	02:11:17	02:22:30	670711	63d5e3bf4a739d1158b9ce64	4	1	main_slash	11	advance_on_keypress_SLASH	22	stimuli_target_diamondsquares.svg	stimuli_distractor_diamondtriangles.svg	24	yes	57	0	460	0	0			0	0			1				0	
6.6.1	mac	2023-06-02	02:11:17	02:22:33	673810	63d5e3bf4a739d1158b9ce64	4	1	main_slash	11	main_slash	23	stimuli_distractor_trianglediamonds.svg	stimuli_distractor_diamondtriangles.svg	35	no	0	1	2000	0	0			0	0			1				0	
6.6.1	mac	2023-06-02	02:11:17	02:22:33	673810	63d5e3bf4a739d1158b9ce64	4	1	main_slash	11	advance_on_keypress_SLASH	24	stimuli_distractor_trianglediamonds.svg	stimuli_distractor_diamondtriangles.svg	35	no	57	0	855	0	0			0	0			1				0	
6.6.1	mac	2023-06-02	02:11:17	02:22:35	675665	63d5e3bf4a739d1158b9ce64	4	1	main_slash	11	main_slash	25	stimuli_target_rectangletriangles.svg	stimuli_distractor_trianglediamonds.svg	1	yes	53	1	369	0	0			0	0			1				0	
6.6.1	mac	2023-06-02	02:11:17	02:22:35	675665	63d5e3bf4a739d1158b9ce64	4	1	main_slash	11	advance_on_keypress_SLASH	26	stimuli_target_rectangletriangles.svg	stimuli_distractor_trianglediamonds.svg	1	yes	57	0	653	0	0			0	0			1				0	
6.6.1	mac	2023-06-02	02:11:17	02:22:37	677695	63d5e3bf4a739d1158b9ce64	4	1	main_slash	11	main_slash	27	stimuli_distractor_trianglediamonds.svg	stimuli_distractor_diamondtriangles.svg	36	no	53	0	750	0	0			0	0			1				0	
6.6.1	mac	2023-06-02	02:11:17	02:22:37	677695	63d5e3bf4a739d1158b9ce64	4	1	main_slash	11	advance_on_keypress_SLASH	28	stimuli_distractor_trianglediamonds.svg	stimuli_distractor_diamondtriangles.svg	36	no	57	0	432	0	0			0	0			1				0	
6.6.1	mac	2023-06-02	02:11:17	02:22:39	679406	63d5e3bf4a739d1158b9ce64	4	1	main_slash	11	main_slash	29	stimuli_target_trianglesquares.svg	stimuli_distractor_diamondtriangles.svg	22	yes	53	1	645	0	0			0	0			1				0	
6.6.1	mac	2023-06-02	02:11:17	02:22:39	679406	63d5e3bf4a739d1158b9ce64	4	1	main_slash	11	advance_on_keypress_SLASH	30	stimuli_target_trianglesquares.svg	stimuli_distractor_diamondtriangles.svg	22	yes	57	0	389	0	0			0	0			1				0	
6.6.1	mac	2023-06-02	02:11:17	02:22:40	680737	63d5e3bf4a739d1158b9ce64	4	1	main_slash	11	main_slash	31	stimuli_target_squarediamonds.svg	stimuli_distractor_diamondtriangles.svg	8	yes	53	1	309	0	0			0	0			1				0	
6.6.1	mac	2023-06-02	02:11:17	02:22:40	680737	63d5e3bf4a739d1158b9ce64	4	1	main_slash	11	advance_on_keypress_SLASH	32	stimuli_target_squarediamonds.svg	stimuli_distractor_diamondtriangles.svg	8	yes	57	0	439	0	0			0	0			1				0	
6.6.1	mac	2023-06-02	02:11:17	02:22:43	683809	63d5e3bf4a739d1158b9ce64	4	1	main_slash	11	main_slash	33	stimuli_distractor_trianglediamonds.svg	stimuli_target_squaretriangles.svg	11	yes	0	0	2000	0	0			0	0			1				0	
6.6.1	mac	2023-06-02	02:11:17	02:22:43	683809	63d5e3bf4a739d1158b9ce64	4	1	main_slash	11	advance_on_keypress_SLASH	34	stimuli_distractor_trianglediamonds.svg	stimuli_target_squaretriangles.svg	11	yes	57	0	856	0	0			0	0			1				0	
6.6.1	mac	2023-06-02	02:11:17	02:22:45	685753	63d5e3bf4a739d1158b9ce64	4	1	main_slash	11	main_slash	35	stimuli_target_rectanglediamonds.svg	stimuli_distractor_trianglediamonds.svg	2	yes	53	1	461	0	0			0	0			1				0	
6.6.1	mac	2023-06-02	02:11:17	02:22:45	685753	63d5e3bf4a739d1158b9ce64	4	1	main_slash	11	advance_on_keypress_SLASH	36	stimuli_target_rectanglediamonds.svg	stimuli_distractor_trianglediamonds.svg	2	yes	57	0	254	0	0			0	0			1				0	
6.6.1	mac	2023-06-02	02:11:17	02:22:48	688643	63d5e3bf4a739d1158b9ce64	4	1	main_slash	11	main_slash	37	stimuli_distractor_diamondtriangles.svg	stimuli_distractor_trianglediamonds.svg	37	no	0	1	2000	0	0			0	0			1				0	
6.6.1	mac	2023-06-02	02:11:17	02:22:48	688643	63d5e3bf4a739d1158b9ce64	4	1	main_slash	11	advance_on_keypress_SLASH	38	stimuli_distractor_diamondtriangles.svg	stimuli_distractor_trianglediamonds.svg	37	no	57	0	558	0	0			0	0			1				0	
6.6.1	mac	2023-06-02	02:11:17	02:22:49	690141	63d5e3bf4a739d1158b9ce64	4	1	main_slash	11	main_slash	39	stimuli_distractor_trianglediamonds.svg	stimuli_target_diamondrectangles.svg	27	yes	53	1	297	0	0			0	0			1				0	
6.6.1	mac	2023-06-02	02:11:17	02:22:49	690141	63d5e3bf4a739d1158b9ce64	4	1	main_slash	11	advance_on_keypress_SLASH	40	stimuli_distractor_trianglediamonds.svg	stimuli_target_diamondrectangles.svg	27	yes	57	0	501	0	0			0	0			1				0	
6.6.1	mac	2023-06-02	02:11:17	02:22:51	691699	63d5e3bf4a739d1158b9ce64	4	1	main_slash	11	main_slash	41	stimuli_distractor_diamondtriangles.svg	stimuli_target_rectangletriangles.svg	13	yes	53	1	424	0	0			0	0			1				0	
6.6.1	mac	2023-06-02	02:11:17	02:22:51	691699	63d5e3bf4a739d1158b9ce64	4	1	main_slash	11	advance_on_keypress_SLASH	42	stimuli_distractor_diamondtriangles.svg	stimuli_target_rectangletriangles.svg	13	yes	57	0	551	0	0			0	0			1				0	
6.6.1	mac	2023-06-02	02:11:17	02:22:52	693271	63d5e3bf4a739d1158b9ce64	4	1	main_slash	11	main_slash	43	stimuli_distractor_diamondtriangles.svg	stimuli_target_trianglerectangles.svg	29	yes	53	1	397	0	0			0	0			1				0	
6.6.1	mac	2023-06-02	02:11:17	02:22:52	693271	63d5e3bf4a739d1158b9ce64	4	1	main_slash	11	advance_on_keypress_SLASH	44	stimuli_distractor_diamondtriangles.svg	stimuli_target_trianglerectangles.svg	29	yes	57	0	494	0	0			0	0			1				0	
6.6.1	mac	2023-06-02	02:11:17	02:22:54	694974	63d5e3bf4a739d1158b9ce64	4	1	main_slash	11	main_slash	45	stimuli_target_squarediamonds.svg	stimuli_distractor_trianglediamonds.svg	4	yes	53	1	566	0	0			0	0			1				0	
6.6.1	mac	2023-06-02	02:11:17	02:22:54	694974	63d5e3bf4a739d1158b9ce64	4	1	main_slash	11	advance_on_keypress_SLASH	46	stimuli_target_squarediamonds.svg	stimuli_distractor_trianglediamonds.svg	4	yes	57	0	1448	0	0			0	0			1				0	
6.6.1	mac	2023-06-02	02:11:17	02:22:57	697484	63d5e3bf4a739d1158b9ce64	4	1	main_slash	11	main_slash	47	stimuli_target_rectanglediamonds.svg	stimuli_distractor_diamondtriangles.svg	6	yes	53	1	425	0	0			0	0			1				0	
6.6.1	mac	2023-06-02	02:11:17	02:22:57	697484	63d5e3bf4a739d1158b9ce64	4	1	main_slash	11	advance_on_keypress_SLASH	48	stimuli_target_rectanglediamonds.svg	stimuli_distractor_diamondtriangles.svg	6	yes	57	0	510	0	0			0	0			1				0	
6.6.1	mac	2023-06-02	02:11:17	02:22:58	698930	63d5e3bf4a739d1158b9ce64	4	1	main_slash	11	main_slash	49	stimuli_target_rectangletriangles.svg	stimuli_distractor_diamondtriangles.svg	5	yes	53	1	303	0	0			0	0			1				0	
6.6.1	mac	2023-06-02	02:11:17	02:22:58	698930	63d5e3bf4a739d1158b9ce64	4	1	main_slash	11	advance_on_keypress_SLASH	50	stimuli_target_rectangletriangles.svg	stimuli_distractor_diamondtriangles.svg	5	yes	57	0	333	0	0			0	0			1				0	
6.6.1	mac	2023-06-02	02:11:17	02:23:01	701893	63d5e3bf4a739d1158b9ce64	4	1	main_slash	11	main_slash	51	stimuli_target_trianglesquares.svg	stimuli_distractor_trianglediamonds.svg	18	yes	0	0	2000	0	0			0	0			1				0	
6.6.1	mac	2023-06-02	02:11:17	02:23:01	701893	63d5e3bf4a739d1158b9ce64	4	1	main_slash	11	advance_on_keypress_SLASH	52	stimuli_target_trianglesquares.svg	stimuli_distractor_trianglediamonds.svg	18	yes	57	0	577	0	0			0	0			1				0	
6.6.1	mac	2023-06-02	02:11:17	02:23:03	703451	63d5e3bf4a739d1158b9ce64	4	1	main_slash	11	main_slash	53	stimuli_distractor_diamondtriangles.svg	stimuli_target_rectanglediamonds.svg	14	yes	53	1	339	0	0			0	0			1				0	
6.6.1	mac	2023-06-02	02:11:17	02:23:03	703451	63d5e3bf4a739d1158b9ce64	4	1	main_slash	11	advance_on_keypress_SLASH	54	stimuli_distractor_diamondtriangles.svg	stimuli_target_rectanglediamonds.svg	14	yes	57	0	236	0	0			0	0			1				0	
6.6.1	mac	2023-06-02	02:11:17	02:23:04	705249	63d5e3bf4a739d1158b9ce64	4	1	main_slash	11	main_slash	55	stimuli_distractor_trianglediamonds.svg	stimuli_target_trianglerectangles.svg	25	yes	53	1	937	0	0			0	0			1				0	
6.6.1	mac	2023-06-02	02:11:17	02:23:04	705249	63d5e3bf4a739d1158b9ce64	4	1	main_slash	11	advance_on_keypress_SLASH	56	stimuli_distractor_trianglediamonds.svg	stimuli_target_trianglerectangles.svg	25	yes	57	0	235	0	0			0	0			1				0	
6.6.1	mac	2023-06-02	02:11:17	02:23:06	706531	63d5e3bf4a739d1158b9ce64	4	1	main_slash	11	main_slash	57	stimuli_distractor_diamondtriangles.svg	stimuli_target_trianglesquares.svg	30	yes	53	1	423	0	0			0	0			1				0	
6.6.1	mac	2023-06-02	02:11:17	02:23:06	706531	63d5e3bf4a739d1158b9ce64	4	1	main_slash	11	advance_on_keypress_SLASH	58	stimuli_distractor_diamondtriangles.svg	stimuli_target_trianglesquares.svg	30	yes	57	0	205	0	0			0	0			1				0	
6.6.1	mac	2023-06-02	02:11:17	02:23:09	709360	63d5e3bf4a739d1158b9ce64	4	1	main_slash	11	main_slash	59	stimuli_distractor_diamondtriangles.svg	stimuli_distractor_diamondtriangles.svg	40	no	0	1	2000	0	0			0	0			1				0	
6.6.1	mac	2023-06-02	02:11:17	02:23:09	709360	63d5e3bf4a739d1158b9ce64	4	1	main_slash	11	advance_on_keypress_SLASH	60	stimuli_distractor_diamondtriangles.svg	stimuli_distractor_diamondtriangles.svg	40	no	57	0	575	0	0			0	0			1				0	
6.6.1	mac	2023-06-02	02:11:17	02:23:10	710921	63d5e3bf4a739d1158b9ce64	4	1	main_slash	11	main_slash	61	stimuli_distractor_trianglediamonds.svg	stimuli_target_rectangletriangles.svg	9	yes	53	1	344	0	0			0	0			1				0	
6.6.1	mac	2023-06-02	02:11:17	02:23:10	710921	63d5e3bf4a739d1158b9ce64	4	1	main_slash	11	advance_on_keypress_SLASH	62	stimuli_distractor_trianglediamonds.svg	stimuli_target_rectangletriangles.svg	9	yes	57	0	290	0	0			0	0			1				0	
6.6.1	mac	2023-06-02	02:11:17	02:23:11	712242	63d5e3bf4a739d1158b9ce64	4	1	main_slash	11	main_slash	63	stimuli_distractor_trianglediamonds.svg	stimuli_target_rectanglediamonds.svg	10	yes	53	1	400	0	0			0	0			1				0	
6.6.1	mac	2023-06-02	02:11:17	02:23:11	712242	63d5e3bf4a739d1158b9ce64	4	1	main_slash	11	advance_on_keypress_SLASH	64	stimuli_distractor_trianglediamonds.svg	stimuli_target_rectanglediamonds.svg	10	yes	57	0	214	0	0			0	0			1				0	
6.6.1	mac	2023-06-02	02:11:17	02:23:13	713533	63d5e3bf4a739d1158b9ce64	4	1	main_slash	11	main_slash	65	stimuli_distractor_diamondtriangles.svg	stimuli_target_squaretriangles.svg	15	yes	53	1	440	0	0			0	0			1				0	
6.6.1	mac	2023-06-02	02:11:17	02:23:13	713533	63d5e3bf4a739d1158b9ce64	4	1	main_slash	11	advance_on_keypress_SLASH	66	stimuli_distractor_diamondtriangles.svg	stimuli_target_squaretriangles.svg	15	yes	57	0	237	0	0			0	0			1				0	
6.6.1	mac	2023-06-02	02:11:17	02:23:16	716394	63d5e3bf4a739d1158b9ce64	4	1	main_slash	11	main_slash	67	stimuli_distractor_trianglediamonds.svg	stimuli_distractor_trianglediamonds.svg	33	no	0	1	2000	0	0			0	0			1				0	
6.6.1	mac	2023-06-02	02:11:17	02:23:16	716394	63d5e3bf4a739d1158b9ce64	4	1	main_slash	11	advance_on_keypress_SLASH	68	stimuli_distractor_trianglediamonds.svg	stimuli_distractor_trianglediamonds.svg	33	no	57	0	1037	0	0			0	0			1				0	
6.6.1	mac	2023-06-02	02:11:17	02:23:19	720065	63d5e3bf4a739d1158b9ce64	4	1	main_slash	11	main_slash	69	stimuli_distractor_diamondtriangles.svg	stimuli_distractor_diamondtriangles.svg	39	no	0	1	2000	0	0			0	0			1				0	
6.6.1	mac	2023-06-02	02:11:17	02:23:19	720065	63d5e3bf4a739d1158b9ce64	4	1	main_slash	11	advance_on_keypress_SLASH	70	stimuli_distractor_diamondtriangles.svg	stimuli_distractor_diamondtriangles.svg	39	no	57	0	378	0	0			0	0			1				0	
6.6.1	mac	2023-06-02	02:11:17	02:23:21	721359	63d5e3bf4a739d1158b9ce64	4	1	main_slash	11	main_slash	71	stimuli_distractor_diamondtriangles.svg	stimuli_target_squarediamonds.svg	16	yes	53	1	281	0	0			0	0			1				0	
6.6.1	mac	2023-06-02	02:11:17	02:23:21	721359	63d5e3bf4a739d1158b9ce64	4	1	main_slash	11	advance_on_keypress_SLASH	72	stimuli_distractor_diamondtriangles.svg	stimuli_target_squarediamonds.svg	16	yes	57	0	255	0	0			0	0			1				0	
6.6.1	mac	2023-06-02	02:11:17	02:23:22	723174	63d5e3bf4a739d1158b9ce64	4	1	main_slash	11	main_slash	73	stimuli_distractor_diamondtriangles.svg	stimuli_distractor_trianglediamonds.svg	38	no	53	0	929	0	0			0	0			1				0	
6.6.1	mac	2023-06-02	02:11:17	02:23:22	723174	63d5e3bf4a739d1158b9ce64	4	1	main_slash	11	advance_on_keypress_SLASH	74	stimuli_distractor_diamondtriangles.svg	stimuli_distractor_trianglediamonds.svg	38	no	57	0	275	0	0			0	0			1				0	
6.6.1	mac	2023-06-02	02:11:17	02:23:24	725216	63d5e3bf4a739d1158b9ce64	4	1	main_slash	11	main_slash	75	stimuli_target_trianglerectangles.svg	stimuli_distractor_diamondtriangles.svg	21	yes	53	1	1137	0	0			0	0			1				0	
6.6.1	mac	2023-06-02	02:11:17	02:23:24	725216	63d5e3bf4a739d1158b9ce64	4	1	main_slash	11	advance_on_keypress_SLASH	76	stimuli_target_trianglerectangles.svg	stimuli_distractor_diamondtriangles.svg	21	yes	57	0	266	0	0			0	0			1				0	
6.6.1	mac	2023-06-02	02:11:17	02:23:26	726653	63d5e3bf4a739d1158b9ce64	4	1	main_slash	11	main_slash	77	stimuli_target_diamondrectangles.svg	stimuli_distractor_diamondtriangles.svg	23	yes	53	1	543	0	0			0	0			1				0	
6.6.1	mac	2023-06-02	02:11:17	02:23:26	726653	63d5e3bf4a739d1158b9ce64	4	1	main_slash	11	advance_on_keypress_SLASH	78	stimuli_target_diamondrectangles.svg	stimuli_distractor_diamondtriangles.svg	23	yes	57	0	272	0	0			0	0			1				0	
6.6.1	mac	2023-06-02	02:11:17	02:23:27	727940	63d5e3bf4a739d1158b9ce64	4	1	main_slash	11	main_slash	79	stimuli_target_diamondsquares.svg	stimuli_distractor_trianglediamonds.svg	20	yes	53	1	379	0	0			0	0			1				0	
6.6.1	mac	2023-06-02	02:11:17	02:23:27	727940	63d5e3bf4a739d1158b9ce64	4	1	main_slash	11	advance_on_keypress_SLASH	80	stimuli_target_diamondsquares.svg	stimuli_distractor_trianglediamonds.svg	20	yes	57	0	293	0	0			0	0			1				0	
6.6.1	mac	2023-06-02	02:11:17	02:23:28	729273	63d5e3bf4a739d1158b9ce64	4	1	main_slash	11	main_slash	81	stimuli_target_trianglesquares.svg	stimuli_distractor_diamondtriangles.svg	22	yes	53	1	397	0	0			0	0			1				0	
6.6.1	mac	2023-06-02	02:11:17	02:23:28	729273	63d5e3bf4a739d1158b9ce64	4	1	main_slash	11	advance_on_keypress_SLASH	82	stimuli_target_trianglesquares.svg	stimuli_distractor_diamondtriangles.svg	22	yes	57	0	269	0	0			0	0			1				0	
6.6.1	mac	2023-06-02	02:11:17	02:23:30	731122	63d5e3bf4a739d1158b9ce64	4	1	main_slash	11	main_slash	83	stimuli_distractor_trianglediamonds.svg	stimuli_distractor_diamondtriangles.svg	36	no	53	0	944	0	0			0	0			1				0	
6.6.1	mac	2023-06-02	02:11:17	02:23:30	731122	63d5e3bf4a739d1158b9ce64	4	1	main_slash	11	advance_on_keypress_SLASH	84	stimuli_distractor_trianglediamonds.svg	stimuli_distractor_diamondtriangles.svg	36	no	57	0	306	0	0			0	0			1				0	
6.6.1	mac	2023-06-02	02:11:17	02:23:32	732588	63d5e3bf4a739d1158b9ce64	4	1	main_slash	11	main_slash	85	stimuli_target_rectanglediamonds.svg	stimuli_distractor_diamondtriangles.svg	6	yes	53	1	525	0	0			0	0			1				0	
6.6.1	mac	2023-06-02	02:11:17	02:23:32	732588	63d5e3bf4a739d1158b9ce64	4	1	main_slash	11	advance_on_keypress_SLASH	86	stimuli_target_rectanglediamonds.svg	stimuli_distractor_diamondtriangles.svg	6	yes	57	0	346	0	0			0	0			1				0	
6.6.1	mac	2023-06-02	02:11:17	02:23:35	735575	63d5e3bf4a739d1158b9ce64	4	1	main_slash	11	main_slash	87	stimuli_distractor_trianglediamonds.svg	stimuli_distractor_diamondtriangles.svg	35	no	0	1	2000	0	0			0	0			1				0	
6.6.1	mac	2023-06-02	02:11:17	02:23:35	735575	63d5e3bf4a739d1158b9ce64	4	1	main_slash	11	advance_on_keypress_SLASH	88	stimuli_distractor_trianglediamonds.svg	stimuli_distractor_diamondtriangles.svg	35	no	57	0	608	0	0			0	0			1				0	
6.6.1	mac	2023-06-02	02:11:17	02:23:36	737120	63d5e3bf4a739d1158b9ce64	4	1	main_slash	11	main_slash	89	stimuli_distractor_diamondtriangles.svg	stimuli_target_rectangletriangles.svg	13	yes	53	1	309	0	0			0	0			1				0	
6.6.1	mac	2023-06-02	02:11:17	02:23:36	737120	63d5e3bf4a739d1158b9ce64	4	1	main_slash	11	advance_on_keypress_SLASH	90	stimuli_distractor_diamondtriangles.svg	stimuli_target_rectangletriangles.svg	13	yes	57	0	686	0	0			0	0			1				0	
6.6.1	mac	2023-06-02	02:11:17	02:23:38	739093	63d5e3bf4a739d1158b9ce64	4	1	main_slash	11	main_slash	91	stimuli_target_rectangletriangles.svg	stimuli_distractor_diamondtriangles.svg	5	yes	53	1	650	0	0			0	0			1				0	
6.6.1	mac	2023-06-02	02:11:17	02:23:38	739093	63d5e3bf4a739d1158b9ce64	4	1	main_slash	11	advance_on_keypress_SLASH	92	stimuli_target_rectangletriangles.svg	stimuli_distractor_diamondtriangles.svg	5	yes	57	0	242	0	0			0	0			1				0	
6.6.1	mac	2023-06-02	02:11:17	02:23:40	740877	63d5e3bf4a739d1158b9ce64	4	1	main_slash	11	main_slash	93	stimuli_target_trianglerectangles.svg	stimuli_distractor_trianglediamonds.svg	17	yes	53	1	915	0	0			0	0			1				0	
6.6.1	mac	2023-06-02	02:11:17	02:23:40	740877	63d5e3bf4a739d1158b9ce64	4	1	main_slash	11	advance_on_keypress_SLASH	94	stimuli_target_trianglerectangles.svg	stimuli_distractor_trianglediamonds.svg	17	yes	57	0	310	0	0			0	0			1				0	
6.6.1	mac	2023-06-02	02:11:17	02:23:43	743825	63d5e3bf4a739d1158b9ce64	4	1	main_slash	11	main_slash	95	stimuli_distractor_trianglediamonds.svg	stimuli_target_squarediamonds.svg	12	yes	0	0	2000	0	0			0	0			1				0	
6.6.1	mac	2023-06-02	02:11:17	02:23:43	743825	63d5e3bf4a739d1158b9ce64	4	1	main_slash	11	advance_on_keypress_SLASH	96	stimuli_distractor_trianglediamonds.svg	stimuli_target_squarediamonds.svg	12	yes	57	0	577	0	0			0	0			1				0	
6.6.1	mac	2023-06-02	02:11:17	02:23:45	745430	63d5e3bf4a739d1158b9ce64	4	1	main_slash	11	main_slash	97	stimuli_target_squaretriangles.svg	stimuli_distractor_trianglediamonds.svg	3	yes	53	1	386	0	0			0	0			1				0	
6.6.1	mac	2023-06-02	02:11:17	02:23:45	745430	63d5e3bf4a739d1158b9ce64	4	1	main_slash	11	advance_on_keypress_SLASH	98	stimuli_target_squaretriangles.svg	stimuli_distractor_trianglediamonds.svg	3	yes	57	0	197	0	0			0	0			1				0	
6.6.1	mac	2023-06-02	02:11:17	02:23:47	748262	63d5e3bf4a739d1158b9ce64	4	1	main_slash	11	main_slash	99	stimuli_distractor_diamondtriangles.svg	stimuli_distractor_trianglediamonds.svg	37	no	0	1	2000	0	0			0	0			1				0	
6.6.1	mac	2023-06-02	02:11:17	02:23:47	748262	63d5e3bf4a739d1158b9ce64	4	1	main_slash	11	advance_on_keypress_SLASH	100	stimuli_distractor_diamondtriangles.svg	stimuli_distractor_trianglediamonds.svg	37	no	57	0	495	0	0			0	0			1				0	
6.6.1	mac	2023-06-02	02:11:17	02:23:51	751393	63d5e3bf4a739d1158b9ce64	4	1	main_slash	11	main_slash	101	stimuli_distractor_trianglediamonds.svg	stimuli_distractor_trianglediamonds.svg	34	no	0	1	2000	0	0			0	0			1				0	
6.6.1	mac	2023-06-02	02:11:17	02:23:51	751393	63d5e3bf4a739d1158b9ce64	4	1	main_slash	11	advance_on_keypress_SLASH	102	stimuli_distractor_trianglediamonds.svg	stimuli_distractor_trianglediamonds.svg	34	no	57	0	6415	0	0			0	0			1				0	
6.6.1	mac	2023-06-02	02:11:17	02:23:58	758824	63d5e3bf4a739d1158b9ce64	4	1	main_slash	11	main_slash	103	stimuli_target_squaretriangles.svg	stimuli_distractor_diamondtriangles.svg	7	yes	53	1	380	0	0			0	0			1				0	
6.6.1	mac	2023-06-02	02:11:17	02:23:58	758824	63d5e3bf4a739d1158b9ce64	4	1	main_slash	11	advance_on_keypress_SLASH	104	stimuli_target_squaretriangles.svg	stimuli_distractor_diamondtriangles.svg	7	yes	57	0	217	0	0			0	0			1				0	
6.6.1	mac	2023-06-02	02:11:17	02:23:59	760228	63d5e3bf4a739d1158b9ce64	4	1	main_slash	11	main_slash	105	stimuli_distractor_trianglediamonds.svg	stimuli_target_rectangletriangles.svg	9	yes	53	1	554	0	0			0	0			1				0	
6.6.1	mac	2023-06-02	02:11:17	02:23:59	760228	63d5e3bf4a739d1158b9ce64	4	1	main_slash	11	advance_on_keypress_SLASH	106	stimuli_distractor_trianglediamonds.svg	stimuli_target_rectangletriangles.svg	9	yes	57	0	305	0	0			0	0			1				0	
6.6.1	mac	2023-06-02	02:11:17	02:24:01	761515	63d5e3bf4a739d1158b9ce64	4	1	main_slash	11	main_slash	107	stimuli_target_trianglesquares.svg	stimuli_distractor_trianglediamonds.svg	18	yes	53	1	353	0	0			0	0			1				0	
6.6.1	mac	2023-06-02	02:11:17	02:24:01	761515	63d5e3bf4a739d1158b9ce64	4	1	main_slash	11	advance_on_keypress_SLASH	108	stimuli_target_trianglesquares.svg	stimuli_distractor_trianglediamonds.svg	18	yes	57	0	448	0	0			0	0			1				0	
6.6.1	mac	2023-06-02	02:11:17	02:24:02	763001	63d5e3bf4a739d1158b9ce64	4	1	main_slash	11	main_slash	109	stimuli_distractor_diamondtriangles.svg	stimuli_target_diamondsquares.svg	32	yes	53	1	407	0	0			0	0			1				0	
6.6.1	mac	2023-06-02	02:11:17	02:24:02	763001	63d5e3bf4a739d1158b9ce64	4	1	main_slash	11	advance_on_keypress_SLASH	110	stimuli_distractor_diamondtriangles.svg	stimuli_target_diamondsquares.svg	32	yes	57	0	300	0	0			0	0			1				0	
6.6.1	mac	2023-06-02	02:11:17	02:24:04	764323	63d5e3bf4a739d1158b9ce64	4	1	main_slash	11	main_slash	111	stimuli_distractor_diamondtriangles.svg	stimuli_target_rectanglediamonds.svg	14	yes	53	1	398	0	0			0	0			1				0	
6.6.1	mac	2023-06-02	02:11:17	02:24:04	764323	63d5e3bf4a739d1158b9ce64	4	1	main_slash	11	advance_on_keypress_SLASH	112	stimuli_distractor_diamondtriangles.svg	stimuli_target_rectanglediamonds.svg	14	yes	57	0	271	0	0			0	0			1				0	
6.6.1	mac	2023-06-02	02:11:17	02:24:05	765834	63d5e3bf4a739d1158b9ce64	4	1	main_slash	11	main_slash	113	stimuli_target_diamondrectangles.svg	stimuli_distractor_diamondtriangles.svg	23	yes	53	1	606	0	0			0	0			1				0	
6.6.1	mac	2023-06-02	02:11:17	02:24:05	765834	63d5e3bf4a739d1158b9ce64	4	1	main_slash	11	advance_on_keypress_SLASH	114	stimuli_target_diamondrectangles.svg	stimuli_distractor_diamondtriangles.svg	23	yes	57	0	240	0	0			0	0			1				0	
6.6.1	mac	2023-06-02	02:11:17	02:24:06	767239	63d5e3bf4a739d1158b9ce64	4	1	main_slash	11	main_slash	115	stimuli_distractor_trianglediamonds.svg	stimuli_target_trianglesquares.svg	26	yes	53	1	546	0	0			0	0			1				0	
6.6.1	mac	2023-06-02	02:11:17	02:24:06	767239	63d5e3bf4a739d1158b9ce64	4	1	main_slash	11	advance_on_keypress_SLASH	116	stimuli_distractor_trianglediamonds.svg	stimuli_target_trianglesquares.svg	26	yes	57	0	346	0	0			0	0			1				0	
6.6.1	mac	2023-06-02	02:11:17	02:24:08	768623	63d5e3bf4a739d1158b9ce64	4	1	main_slash	11	main_slash	117	stimuli_distractor_diamondtriangles.svg	stimuli_target_squarediamonds.svg	16	yes	53	1	396	0	0			0	0			1				0	
6.6.1	mac	2023-06-02	02:11:17	02:24:08	768623	63d5e3bf4a739d1158b9ce64	4	1	main_slash	11	advance_on_keypress_SLASH	118	stimuli_distractor_diamondtriangles.svg	stimuli_target_squarediamonds.svg	16	yes	57	0	343	0	0			0	0			1				0	
6.6.1	mac	2023-06-02	02:11:17	02:24:09	769948	63d5e3bf4a739d1158b9ce64	4	1	main_slash	11	main_slash	119	stimuli_distractor_trianglediamonds.svg	stimuli_target_squaretriangles.svg	11	yes	53	1	336	0	0			0	0			1				0	
6.6.1	mac	2023-06-02	02:11:17	02:24:09	769948	63d5e3bf4a739d1158b9ce64	4	1	main_slash	11	advance_on_keypress_SLASH	120	stimuli_distractor_trianglediamonds.svg	stimuli_target_squaretriangles.svg	11	yes	57	0	260	0	0			0	0			1				0	
6.6.1	mac	2023-06-02	02:11:17	02:24:11	771359	63d5e3bf4a739d1158b9ce64	4	1	main_slash	11	main_slash	121	stimuli_target_rectanglediamonds.svg	stimuli_distractor_trianglediamonds.svg	2	yes	53	1	532	0	0			0	0			1				0	
6.6.1	mac	2023-06-02	02:11:17	02:24:11	771359	63d5e3bf4a739d1158b9ce64	4	1	main_slash	11	advance_on_keypress_SLASH	122	stimuli_target_rectanglediamonds.svg	stimuli_distractor_trianglediamonds.svg	2	yes	57	0	253	0	0			0	0			1				0	
6.6.1	mac	2023-06-02	02:11:17	02:24:12	772857	63d5e3bf4a739d1158b9ce64	4	1	main_slash	11	main_slash	123	stimuli_distractor_diamondtriangles.svg	stimuli_target_diamondrectangles.svg	31	yes	53	1	612	0	0			0	0			1				0	
6.6.1	mac	2023-06-02	02:11:17	02:24:12	772857	63d5e3bf4a739d1158b9ce64	4	1	main_slash	11	advance_on_keypress_SLASH	124	stimuli_distractor_diamondtriangles.svg	stimuli_target_diamondrectangles.svg	31	yes	57	0	217	0	0			0	0			1				0	
6.6.1	mac	2023-06-02	02:11:17	02:24:14	774511	63d5e3bf4a739d1158b9ce64	4	1	main_slash	11	main_slash	125	stimuli_distractor_trianglediamonds.svg	stimuli_target_rectanglediamonds.svg	10	yes	53	1	800	0	0			0	0			1				0	
6.6.1	mac	2023-06-02	02:11:17	02:24:14	774511	63d5e3bf4a739d1158b9ce64	4	1	main_slash	11	advance_on_keypress_SLASH	126	stimuli_distractor_trianglediamonds.svg	stimuli_target_rectanglediamonds.svg	10	yes	57	0	261	0	0			0	0			1				0	
6.6.1	mac	2023-06-02	02:11:17	02:24:15	776005	63d5e3bf4a739d1158b9ce64	4	1	main_slash	11	main_slash	127	stimuli_distractor_trianglediamonds.svg	stimuli_target_diamondrectangles.svg	27	yes	53	1	596	0	0			0	0			1				0	
6.6.1	mac	2023-06-02	02:11:17	02:24:15	776005	63d5e3bf4a739d1158b9ce64	4	1	main_slash	11	advance_on_keypress_SLASH	128	stimuli_distractor_trianglediamonds.svg	stimuli_target_diamondrectangles.svg	27	yes	57	0	194	0	0			0	0			1				0	
6.6.1	mac	2023-06-02	02:11:17	02:24:17	777299	63d5e3bf4a739d1158b9ce64	4	1	main_slash	11	main_slash	129	stimuli_target_diamondrectangles.svg	stimuli_distractor_trianglediamonds.svg	19	yes	53	1	472	0	0			0	0			1				0	
6.6.1	mac	2023-06-02	02:11:17	02:24:17	777299	63d5e3bf4a739d1158b9ce64	4	1	main_slash	11	advance_on_keypress_SLASH	130	stimuli_target_diamondrectangles.svg	stimuli_distractor_trianglediamonds.svg	19	yes	57	0	177	0	0			0	0			1				0	
6.6.1	mac	2023-06-02	02:11:17	02:24:18	778612	63d5e3bf4a739d1158b9ce64	4	1	main_slash	11	main_slash	131	stimuli_target_squarediamonds.svg	stimuli_distractor_diamondtriangles.svg	8	yes	53	1	517	0	0			0	0			1				0	
6.6.1	mac	2023-06-02	02:11:17	02:24:18	778612	63d5e3bf4a739d1158b9ce64	4	1	main_slash	11	advance_on_keypress_SLASH	132	stimuli_target_squarediamonds.svg	stimuli_distractor_diamondtriangles.svg	8	yes	57	0	220	0	0			0	0			1				0	
6.6.1	mac	2023-06-02	02:11:17	02:24:19	779748	63d5e3bf4a739d1158b9ce64	4	1	main_slash	11	main_slash	133	stimuli_distractor_diamondtriangles.svg	stimuli_distractor_diamondtriangles.svg	39	no	53	0	271	0	0			0	0			1				0	
6.6.1	mac	2023-06-02	02:11:17	02:24:19	779748	63d5e3bf4a739d1158b9ce64	4	1	main_slash	11	advance_on_keypress_SLASH	134	stimuli_distractor_diamondtriangles.svg	stimuli_distractor_diamondtriangles.svg	39	no	57	0	1506	0	0			0	0			1				0	
6.6.1	mac	2023-06-02	02:11:17	02:24:22	782407	63d5e3bf4a739d1158b9ce64	4	1	main_slash	11	main_slash	135	stimuli_target_diamondsquares.svg	stimuli_distractor_trianglediamonds.svg	20	yes	53	1	513	0	0			0	0			1				0	
6.6.1	mac	2023-06-02	02:11:17	02:24:22	782407	63d5e3bf4a739d1158b9ce64	4	1	main_slash	11	advance_on_keypress_SLASH	136	stimuli_target_diamondsquares.svg	stimuli_distractor_trianglediamonds.svg	20	yes	57	0	168	0	0			0	0			1				0	
6.6.1	mac	2023-06-02	02:11:17	02:24:24	785211	63d5e3bf4a739d1158b9ce64	4	1	main_slash	11	main_slash	137	stimuli_distractor_diamondtriangles.svg	stimuli_target_squaretriangles.svg	15	yes	0	0	2000	0	0			0	0			1				0	
6.6.1	mac	2023-06-02	02:11:17	02:24:24	785211	63d5e3bf4a739d1158b9ce64	4	1	main_slash	11	advance_on_keypress_SLASH	138	stimuli_distractor_diamondtriangles.svg	stimuli_target_squaretriangles.svg	15	yes	57	0	700	0	0			0	0			1				0	
6.6.1	mac	2023-06-02	02:11:17	02:24:28	788544	63d5e3bf4a739d1158b9ce64	4	1	main_slash	11	main_slash	139	stimuli_distractor_diamondtriangles.svg	stimuli_distractor_trianglediamonds.svg	38	no	0	1	2000	0	0			0	0			1				0	
6.6.1	mac	2023-06-02	02:11:17	02:24:28	788544	63d5e3bf4a739d1158b9ce64	4	1	main_slash	11	advance_on_keypress_SLASH	140	stimuli_distractor_diamondtriangles.svg	stimuli_distractor_trianglediamonds.svg	38	no	57	0	522	0	0			0	0			1				0	
6.6.1	mac	2023-06-02	02:11:17	02:24:29	790032	63d5e3bf4a739d1158b9ce64	4	1	main_slash	11	main_slash	141	stimuli_target_rectangletriangles.svg	stimuli_distractor_trianglediamonds.svg	1	yes	53	1	337	0	0			0	0			1				0	
6.6.1	mac	2023-06-02	02:11:17	02:24:29	790032	63d5e3bf4a739d1158b9ce64	4	1	main_slash	11	advance_on_keypress_SLASH	142	stimuli_target_rectangletriangles.svg	stimuli_distractor_trianglediamonds.svg	1	yes	57	0	204	0	0			0	0			1				0	
6.6.1	mac	2023-06-02	02:11:17	02:24:31	791376	63d5e3bf4a739d1158b9ce64	4	1	main_slash	11	main_slash	143	stimuli_distractor_trianglediamonds.svg	stimuli_target_trianglerectangles.svg	25	yes	53	1	515	0	0			0	0			1				0	
6.6.1	mac	2023-06-02	02:11:17	02:24:31	791376	63d5e3bf4a739d1158b9ce64	4	1	main_slash	11	advance_on_keypress_SLASH	144	stimuli_distractor_trianglediamonds.svg	stimuli_target_trianglerectangles.svg	25	yes	57	0	605	0	0			0	0			1				0	
6.6.1	mac	2023-06-02	02:11:17	02:24:32	792944	63d5e3bf4a739d1158b9ce64	4	1	main_slash	11	main_slash	145	stimuli_target_squarediamonds.svg	stimuli_distractor_trianglediamonds.svg	4	yes	53	1	332	0	0			0	0			1				0	
6.6.1	mac	2023-06-02	02:11:17	02:24:32	792944	63d5e3bf4a739d1158b9ce64	4	1	main_slash	11	advance_on_keypress_SLASH	146	stimuli_target_squarediamonds.svg	stimuli_distractor_trianglediamonds.svg	4	yes	57	0	300	0	0			0	0			1				0	
6.6.1	mac	2023-06-02	02:11:17	02:24:34	794891	63d5e3bf4a739d1158b9ce64	4	1	main_slash	11	main_slash	147	stimuli_distractor_diamondtriangles.svg	stimuli_target_trianglesquares.svg	30	yes	53	1	1012	0	0			0	0			1				0	
6.6.1	mac	2023-06-02	02:11:17	02:24:34	794891	63d5e3bf4a739d1158b9ce64	4	1	main_slash	11	advance_on_keypress_SLASH	148	stimuli_distractor_diamondtriangles.svg	stimuli_target_trianglesquares.svg	30	yes	57	0	286	0	0			0	0			1				0	
6.6.1	mac	2023-06-02	02:11:17	02:24:36	796326	63d5e3bf4a739d1158b9ce64	4	1	main_slash	11	main_slash	149	stimuli_distractor_diamondtriangles.svg	stimuli_target_trianglerectangles.svg	29	yes	53	1	515	0	0			0	0			1				0	
6.6.1	mac	2023-06-02	02:11:17	02:24:36	796326	63d5e3bf4a739d1158b9ce64	4	1	main_slash	11	advance_on_keypress_SLASH	150	stimuli_distractor_diamondtriangles.svg	stimuli_target_trianglerectangles.svg	29	yes	57	0	372	0	0			0	0			1				0	
6.6.1	mac	2023-06-02	02:11:17	02:24:38	798433	63d5e3bf4a739d1158b9ce64	4	1	main_slash	11	main_slash	151	stimuli_target_diamondsquares.svg	stimuli_distractor_diamondtriangles.svg	24	yes	53	1	1105	0	0			0	0			1				0	
6.6.1	mac	2023-06-02	02:11:17	02:24:38	798433	63d5e3bf4a739d1158b9ce64	4	1	main_slash	11	advance_on_keypress_SLASH	152	stimuli_target_diamondsquares.svg	stimuli_distractor_diamondtriangles.svg	24	yes	57	0	376	0	0			0	0			1				0	
6.6.1	mac	2023-06-02	02:11:17	02:24:41	801443	63d5e3bf4a739d1158b9ce64	4	1	main_slash	11	main_slash	153	stimuli_target_trianglerectangles.svg	stimuli_distractor_diamondtriangles.svg	21	yes	0	0	2000	0	0			0	0			1				0	
6.6.1	mac	2023-06-02	02:11:17	02:24:41	801443	63d5e3bf4a739d1158b9ce64	4	1	main_slash	11	advance_on_keypress_SLASH	154	stimuli_target_trianglerectangles.svg	stimuli_distractor_diamondtriangles.svg	21	yes	57	0	1229	0	0			0	0			1				0	
6.6.1	mac	2023-06-02	02:11:17	02:24:44	804465	63d5e3bf4a739d1158b9ce64	4	1	main_slash	11	main_slash	155	stimuli_distractor_diamondtriangles.svg	stimuli_distractor_diamondtriangles.svg	40	no	53	0	1153	0	0			0	0			1				0	
6.6.1	mac	2023-06-02	02:11:17	02:24:44	804465	63d5e3bf4a739d1158b9ce64	4	1	main_slash	11	advance_on_keypress_SLASH	156	stimuli_distractor_diamondtriangles.svg	stimuli_distractor_diamondtriangles.svg	40	no	57	0	336	0	0			0	0			1				0	
6.6.1	mac	2023-06-02	02:11:17	02:24:47	807425	63d5e3bf4a739d1158b9ce64	4	1	main_slash	11	main_slash	157	stimuli_distractor_trianglediamonds.svg	stimuli_distractor_trianglediamonds.svg	33	no	0	1	2000	0	0			0	0			1				0	
6.6.1	mac	2023-06-02	02:11:17	02:24:47	807425	63d5e3bf4a739d1158b9ce64	4	1	main_slash	11	advance_on_keypress_SLASH	158	stimuli_distractor_trianglediamonds.svg	stimuli_distractor_trianglediamonds.svg	33	no	57	0	641	0	0			0	0			1				0	
6.6.1	mac	2023-06-02	02:11:17	02:24:48	809268	63d5e3bf4a739d1158b9ce64	4	1	main_slash	11	main_slash	159	stimuli_distractor_trianglediamonds.svg	stimuli_target_diamondsquares.svg	28	yes	53	1	574	0	0			0	0			1				0	
6.6.1	mac	2023-06-02	02:11:17	02:24:48	809268	63d5e3bf4a739d1158b9ce64	4	1	main_slash	11	advance_on_keypress_SLASH	160	stimuli_distractor_trianglediamonds.svg	stimuli_target_diamondsquares.svg	28	yes	57	0	244	0	0			0	0			1				0	
6.6.1	mac	2023-06-02	02:11:17	02:24:48	809268	63d5e3bf4a739d1158b9ce64	4	1	headphonecheck_calibration	14	headphonecheck_calibrationIntro	1	stimuli_distractor_trianglediamonds.svg	stimuli_target_diamondsquares.svg	28	yes	calibrationButton	0	2165	0	0			0	0			1				0	
6.6.1	mac	2023-06-02	02:11:17	02:24:48	809268	63d5e3bf4a739d1158b9ce64	4	1	headphonecheck_testphase	15	test_collectResponse	3	stimuli_distractor_trianglediamonds.svg	stimuli_target_diamondsquares.svg	28	yes	first	0	2081	1	1	antiphase_hc_iso.wav	2	0	0			1				0	
6.6.1	mac	2023-06-02	02:11:17	02:24:48	809268	63d5e3bf4a739d1158b9ce64	4	1	headphonecheck_testphase	15	test_collectResponse	6	stimuli_distractor_trianglediamonds.svg	stimuli_target_diamondsquares.svg	28	yes	first	0	4880	2	5	antiphase_hc_osi.wav	2	0	0			1				0	
6.6.1	mac	2023-06-02	02:11:17	02:24:48	809268	63d5e3bf4a739d1158b9ce64	4	1	headphonecheck_testphase	15	test_collectResponse	9	stimuli_distractor_trianglediamonds.svg	stimuli_target_diamondsquares.svg	28	yes	second	0	455	3	2	antiphase_hc_ios.wav	3	0	0			1				0	
6.6.1	mac	2023-06-02	02:11:17	02:24:48	809268	63d5e3bf4a739d1158b9ce64	4	1	headphonecheck_testphase	15	test_collectResponse	12	stimuli_distractor_trianglediamonds.svg	stimuli_target_diamondsquares.svg	28	yes	second	0	5032	4	3	antiphase_hc_soi.wav	1	0	0			1				0	
6.6.1	mac	2023-06-02	02:11:17	02:24:48	809268	63d5e3bf4a739d1158b9ce64	4	1	headphonecheck_testphase	15	test_collectResponse	15	stimuli_distractor_trianglediamonds.svg	stimuli_target_diamondsquares.svg	28	yes	first	0	339	5	6	antiphase_hc_ois.wav	3	0	0			1				0	
6.6.1	mac	2023-06-02	02:11:17	02:24:48	809268	63d5e3bf4a739d1158b9ce64	4	1	headphonecheck_testphase	15	test_collectResponse	18	stimuli_distractor_trianglediamonds.svg	stimuli_target_diamondsquares.svg	28	yes	third	0	2156	6	4	antiphase_hc_sio.wav	1	0	0			1				0	
6.6.1	mac	2023-06-02	02:11:17	02:24:48	809268	63d5e3bf4a739d1158b9ce64	4	1	stereocheck_calibration	17	stereocheck_calibrationIntro	1	stimuli_distractor_trianglediamonds.svg	stimuli_target_diamondsquares.svg	28	yes	stereocheck_calibrationButton	0	5723	6	4	antiphase_hc_sio.wav	1	0	0			1				0	
6.6.1	mac	2023-06-02	02:11:17	02:24:48	809268	63d5e3bf4a739d1158b9ce64	4	1	stereocheck_testphase	18	stereocheck_test_collectResponse	3	stimuli_distractor_trianglediamonds.svg	stimuli_target_diamondsquares.svg	28	yes	stereocheck_right	1	698	6	4	antiphase_hc_sio.wav	1	1	6	noise_calib_stim_RIGHT.wav	2	1				0	
6.6.1	mac	2023-06-02	02:11:17	02:24:48	809268	63d5e3bf4a739d1158b9ce64	4	1	stereocheck_testphase	18	stereocheck_test_collectResponse	6	stimuli_distractor_trianglediamonds.svg	stimuli_target_diamondsquares.svg	28	yes	stereocheck_right	1	292	6	4	antiphase_hc_sio.wav	1	2	4	noise_calib_stim_RIGHT.wav	2	1				0	
6.6.1	mac	2023-06-02	02:11:17	02:24:48	809268	63d5e3bf4a739d1158b9ce64	4	1	stereocheck_testphase	18	stereocheck_test_collectResponse	9	stimuli_distractor_trianglediamonds.svg	stimuli_target_diamondsquares.svg	28	yes	stereocheck_left	1	272	6	4	antiphase_hc_sio.wav	1	3	1	noise_calib_stim_LEFT.wav	1	1				0	
6.6.1	mac	2023-06-02	02:11:17	02:24:48	809268	63d5e3bf4a739d1158b9ce64	4	1	stereocheck_testphase	18	stereocheck_test_collectResponse	12	stimuli_distractor_trianglediamonds.svg	stimuli_target_diamondsquares.svg	28	yes	stereocheck_right	1	297	6	4	antiphase_hc_sio.wav	1	4	5	noise_calib_stim_RIGHT.wav	2	1				0	
6.6.1	mac	2023-06-02	02:11:17	02:24:48	809268	63d5e3bf4a739d1158b9ce64	4	1	stereocheck_testphase	18	stereocheck_test_collectResponse	15	stimuli_distractor_trianglediamonds.svg	stimuli_target_diamondsquares.svg	28	yes	stereocheck_left	1	215	6	4	antiphase_hc_sio.wav	1	5	2	noise_calib_stim_LEFT.wav	1	1				0	
6.6.1	mac	2023-06-02	02:11:17	02:24:48	809268	63d5e3bf4a739d1158b9ce64	4	1	stereocheck_testphase	18	stereocheck_test_collectResponse	18	stimuli_distractor_trianglediamonds.svg	stimuli_target_diamondsquares.svg	28	yes	stereocheck_left	1	209	6	4	antiphase_hc_sio.wav	1	6	3	noise_calib_stim_LEFT.wav	1	1				0	
6.6.1	mac	2023-06-02	02:11:17	02:24:48	809268	63d5e3bf4a739d1158b9ce64	4	1	DL_practice	21	DL_practice	2	stimuli_distractor_trianglediamonds.svg	stimuli_target_diamondsquares.svg	28	yes	ka	1	1798	6	4	antiphase_hc_sio.wav	1	6	3	noise_calib_stim_LEFT.wav	1	23	blb_dichoticlistening_ka-pa.mp3	ka	pa	1	left
6.6.1	mac	2023-06-02	02:11:17	02:24:48	809268	63d5e3bf4a739d1158b9ce64	4	1	DL_practice	21	DL_practice	3	stimuli_distractor_trianglediamonds.svg	stimuli_target_diamondsquares.svg	28	yes	da	1	1173	6	4	antiphase_hc_sio.wav	1	6	3	noise_calib_stim_LEFT.wav	1	8	blb_dichoticlistening_da-da.mp3	da	da	0	left
6.6.1	mac	2023-06-02	02:11:17	02:24:48	809268	63d5e3bf4a739d1158b9ce64	4	1	DL_practice	21	DL_practice	4	stimuli_distractor_trianglediamonds.svg	stimuli_target_diamondsquares.svg	28	yes	ka	1	1072	6	4	antiphase_hc_sio.wav	1	6	3	noise_calib_stim_LEFT.wav	1	22	blb_dichoticlistening_ka-ka.mp3	ka	ka	0	left
6.6.1	mac	2023-06-02	02:11:17	02:24:48	809268	63d5e3bf4a739d1158b9ce64	4	1	DL_practice	21	DL_practice	5	stimuli_distractor_trianglediamonds.svg	stimuli_target_diamondsquares.svg	28	yes	ga	1	1006	6	4	antiphase_hc_sio.wav	1	6	3	noise_calib_stim_LEFT.wav	1	15	blb_dichoticlistening_ga-ga.mp3	ga	ga	0	left
6.6.1	mac	2023-06-02	02:11:17	02:24:48	809268	63d5e3bf4a739d1158b9ce64	4	1	DL_practice	21	DL_practice	6	stimuli_distractor_trianglediamonds.svg	stimuli_target_diamondsquares.svg	28	yes	ta	1	1623	6	4	antiphase_hc_sio.wav	1	6	3	noise_calib_stim_LEFT.wav	1	36	blb_dichoticlistening_ta-ta.mp3	ta	ta	0	left
6.6.1	mac	2023-06-02	02:11:17	02:24:48	809268	63d5e3bf4a739d1158b9ce64	4	1	DL_practice	21	DL_practice	7	stimuli_distractor_trianglediamonds.svg	stimuli_target_diamondsquares.svg	28	yes	ta	0	1349	6	4	antiphase_hc_sio.wav	1	6	3	noise_calib_stim_LEFT.wav	1	29	blb_dichoticlistening_pa-pa.mp3	pa	pa	0	other
6.6.1	mac	2023-06-02	02:11:17	02:24:48	809268	63d5e3bf4a739d1158b9ce64	4	1	DL_practice	21	DL_practice	8	stimuli_distractor_trianglediamonds.svg	stimuli_target_diamondsquares.svg	28	yes	ga	1	1089	6	4	antiphase_hc_sio.wav	1	6	3	noise_calib_stim_LEFT.wav	1	18	blb_dichoticlistening_ga-ta.mp3	ga	ta	1	left
6.6.1	mac	2023-06-02	02:11:17	02:24:48	809268	63d5e3bf4a739d1158b9ce64	4	1	DL_practice	21	DL_practice	9	stimuli_distractor_trianglediamonds.svg	stimuli_target_diamondsquares.svg	28	yes	ba	1	1307	6	4	antiphase_hc_sio.wav	1	6	3	noise_calib_stim_LEFT.wav	1	1	blb_dichoticlistening_ba-ba.mp3	ba	ba	0	left
6.6.1	mac	2023-06-02	02:11:17	02:24:48	809268	63d5e3bf4a739d1158b9ce64	4	1	DL_practice	21	DL_practice	10	stimuli_distractor_trianglediamonds.svg	stimuli_target_diamondsquares.svg	28	yes	ba	1	2856	6	4	antiphase_hc_sio.wav	1	6	3	noise_calib_stim_LEFT.wav	1	7	blb_dichoticlistening_da-ba.mp3	da	ba	1	right
6.6.1	mac	2023-06-02	02:11:17	02:24:48	809268	63d5e3bf4a739d1158b9ce64	4	1	DL_test	23	DL_test	1	stimuli_distractor_trianglediamonds.svg	stimuli_target_diamondsquares.svg	28	yes	da	1	1022	6	4	antiphase_hc_sio.wav	1	6	3	noise_calib_stim_LEFT.wav	1	11	blb_dichoticlistening_da-pa.mp3	da	pa	1	left
6.6.1	mac	2023-06-02	02:11:17	02:24:48	809268	63d5e3bf4a739d1158b9ce64	4	1	DL_test	23	DL_test	2	stimuli_distractor_trianglediamonds.svg	stimuli_target_diamondsquares.svg	28	yes	da	1	814	6	4	antiphase_hc_sio.wav	1	6	3	noise_calib_stim_LEFT.wav	1	12	blb_dichoticlistening_da-ta.mp3	da	ta	1	left
6.6.1	mac	2023-06-02	02:11:17	02:24:48	809268	63d5e3bf4a739d1158b9ce64	4	1	DL_test	23	DL_test	3	stimuli_distractor_trianglediamonds.svg	stimuli_target_diamondsquares.svg	28	yes	ga	1	1065	6	4	antiphase_hc_sio.wav	1	6	3	noise_calib_stim_LEFT.wav	1	27	blb_dichoticlistening_pa-ga.mp3	pa	ga	1	right
6.6.1	mac	2023-06-02	02:11:17	02:24:48	809268	63d5e3bf4a739d1158b9ce64	4	1	DL_test	23	DL_test	4	stimuli_distractor_trianglediamonds.svg	stimuli_target_diamondsquares.svg	28	yes	ka	1	781	6	4	antiphase_hc_sio.wav	1	6	3	noise_calib_stim_LEFT.wav	1	28	blb_dichoticlistening_pa-ka.mp3	pa	ka	1	right
6.6.1	mac	2023-06-02	02:11:17	02:24:48	809268	63d5e3bf4a739d1158b9ce64	4	1	DL_test	23	DL_test	5	stimuli_distractor_trianglediamonds.svg	stimuli_target_diamondsquares.svg	28	yes	ka	1	781	6	4	antiphase_hc_sio.wav	1	6	3	noise_calib_stim_LEFT.wav	1	34	blb_dichoticlistening_ta-ka.mp3	ta	ka	1	right
6.6.1	mac	2023-06-02	02:11:17	02:24:48	809268	63d5e3bf4a739d1158b9ce64	4	1	DL_test	23	DL_test	6	stimuli_distractor_trianglediamonds.svg	stimuli_target_diamondsquares.svg	28	yes	pa	0	2939	6	4	antiphase_hc_sio.wav	1	6	3	noise_calib_stim_LEFT.wav	1	31	blb_dichoticlistening_ta-ba.mp3	ta	ba	1	other
6.6.1	mac	2023-06-02	02:11:17	02:24:48	809268	63d5e3bf4a739d1158b9ce64	4	1	DL_test	23	DL_test	7	stimuli_distractor_trianglediamonds.svg	stimuli_target_diamondsquares.svg	28	yes	da	1	1538	6	4	antiphase_hc_sio.wav	1	6	3	noise_calib_stim_LEFT.wav	1	20	blb_dichoticlistening_ka-da.mp3	ka	da	1	right
6.6.1	mac	2023-06-02	02:11:17	02:24:48	809268	63d5e3bf4a739d1158b9ce64	4	1	DL_test	23	DL_test	8	stimuli_distractor_trianglediamonds.svg	stimuli_target_diamondsquares.svg	28	yes	ga	1	1131	6	4	antiphase_hc_sio.wav	1	6	3	noise_calib_stim_LEFT.wav	1	15	blb_dichoticlistening_ga-ga.mp3	ga	ga	0	left
6.6.1	mac	2023-06-02	02:11:17	02:24:48	809268	63d5e3bf4a739d1158b9ce64	4	1	DL_test	23	DL_test	9	stimuli_distractor_trianglediamonds.svg	stimuli_target_diamondsquares.svg	28	yes	ba	1	1731	6	4	antiphase_hc_sio.wav	1	6	3	noise_calib_stim_LEFT.wav	1	3	blb_dichoticlistening_ba-ga.mp3	ba	ga	1	left
6.6.1	mac	2023-06-02	02:11:17	02:24:48	809268	63d5e3bf4a739d1158b9ce64	4	1	DL_test	23	DL_test	10	stimuli_distractor_trianglediamonds.svg	stimuli_target_diamondsquares.svg	28	yes	da	1	1555	6	4	antiphase_hc_sio.wav	1	6	3	noise_calib_stim_LEFT.wav	1	10	blb_dichoticlistening_da-ka.mp3	da	ka	1	left
6.6.1	mac	2023-06-02	02:11:17	02:24:48	809268	63d5e3bf4a739d1158b9ce64	4	1	DL_test	23	DL_test	11	stimuli_distractor_trianglediamonds.svg	stimuli_target_diamondsquares.svg	28	yes	ba	1	1539	6	4	antiphase_hc_sio.wav	1	6	3	noise_calib_stim_LEFT.wav	1	7	blb_dichoticlistening_da-ba.mp3	da	ba	1	right
6.6.1	mac	2023-06-02	02:11:17	02:24:48	809268	63d5e3bf4a739d1158b9ce64	4	1	DL_test	23	DL_test	12	stimuli_distractor_trianglediamonds.svg	stimuli_target_diamondsquares.svg	28	yes	ga	1	923	6	4	antiphase_hc_sio.wav	1	6	3	noise_calib_stim_LEFT.wav	1	17	blb_dichoticlistening_ga-pa.mp3	ga	pa	1	left
6.6.1	mac	2023-06-02	02:11:17	02:24:48	809268	63d5e3bf4a739d1158b9ce64	4	1	DL_test	23	DL_test	13	stimuli_distractor_trianglediamonds.svg	stimuli_target_diamondsquares.svg	28	yes	ga	1	832	6	4	antiphase_hc_sio.wav	1	6	3	noise_calib_stim_LEFT.wav	1	16	blb_dichoticlistening_ga-ka.mp3	ga	ka	1	left
6.6.1	mac	2023-06-02	02:11:17	02:24:48	809268	63d5e3bf4a739d1158b9ce64	4	1	DL_test	23	DL_test	14	stimuli_distractor_trianglediamonds.svg	stimuli_target_diamondsquares.svg	28	yes	pa	1	798	6	4	antiphase_hc_sio.wav	1	6	3	noise_calib_stim_LEFT.wav	1	5	blb_dichoticlistening_ba-pa.mp3	ba	pa	1	right
6.6.1	mac	2023-06-02	02:11:17	02:24:48	809268	63d5e3bf4a739d1158b9ce64	4	1	DL_test	23	DL_test	15	stimuli_distractor_trianglediamonds.svg	stimuli_target_diamondsquares.svg	28	yes	ga	1	840	6	4	antiphase_hc_sio.wav	1	6	3	noise_calib_stim_LEFT.wav	1	9	blb_dichoticlistening_da-ga.mp3	da	ga	1	right
6.6.1	mac	2023-06-02	02:11:17	02:24:48	809268	63d5e3bf4a739d1158b9ce64	4	1	DL_test	23	DL_test	16	stimuli_distractor_trianglediamonds.svg	stimuli_target_diamondsquares.svg	28	yes	ba	1	1148	6	4	antiphase_hc_sio.wav	1	6	3	noise_calib_stim_LEFT.wav	1	13	blb_dichoticlistening_ga-ba.mp3	ga	ba	1	right
6.6.1	mac	2023-06-02	02:11:17	02:24:48	809268	63d5e3bf4a739d1158b9ce64	4	1	DL_test	23	DL_test	17	stimuli_distractor_trianglediamonds.svg	stimuli_target_diamondsquares.svg	28	yes	ba	1	1118	6	4	antiphase_hc_sio.wav	1	6	3	noise_calib_stim_LEFT.wav	1	2	blb_dichoticlistening_ba-da.mp3	ba	da	1	left
6.6.1	mac	2023-06-02	02:11:17	02:24:48	809268	63d5e3bf4a739d1158b9ce64	4	1	DL_test	23	DL_test	18	stimuli_distractor_trianglediamonds.svg	stimuli_target_diamondsquares.svg	28	yes	ta	1	1097	6	4	antiphase_hc_sio.wav	1	6	3	noise_calib_stim_LEFT.wav	1	30	blb_dichoticlistening_pa-ta.mp3	pa	ta	1	right
6.6.1	mac	2023-06-02	02:11:17	02:24:48	809268	63d5e3bf4a739d1158b9ce64	4	1	DL_test	23	DL_test	19	stimuli_distractor_trianglediamonds.svg	stimuli_target_diamondsquares.svg	28	yes	ka	1	806	6	4	antiphase_hc_sio.wav	1	6	3	noise_calib_stim_LEFT.wav	1	24	blb_dichoticlistening_ka-ta.mp3	ka	ta	1	left
6.6.1	mac	2023-06-02	02:11:17	02:24:48	809268	63d5e3bf4a739d1158b9ce64	4	1	DL_test	23	DL_test	20	stimuli_distractor_trianglediamonds.svg	stimuli_target_diamondsquares.svg	28	yes	ka	1	831	6	4	antiphase_hc_sio.wav	1	6	3	noise_calib_stim_LEFT.wav	1	22	blb_dichoticlistening_ka-ka.mp3	ka	ka	0	left
6.6.1	mac	2023-06-02	02:11:17	02:24:48	809268	63d5e3bf4a739d1158b9ce64	4	1	DL_test	23	DL_test	21	stimuli_distractor_trianglediamonds.svg	stimuli_target_diamondsquares.svg	28	yes	pa	1	923	6	4	antiphase_hc_sio.wav	1	6	3	noise_calib_stim_LEFT.wav	1	29	blb_dichoticlistening_pa-pa.mp3	pa	pa	0	left
6.6.1	mac	2023-06-02	02:11:17	02:24:48	809268	63d5e3bf4a739d1158b9ce64	4	1	DL_test	23	DL_test	22	stimuli_distractor_trianglediamonds.svg	stimuli_target_diamondsquares.svg	28	yes	ka	1	3014	6	4	antiphase_hc_sio.wav	1	6	3	noise_calib_stim_LEFT.wav	1	4	blb_dichoticlistening_ba-ka.mp3	ba	ka	1	right
6.6.1	mac	2023-06-02	02:11:17	02:24:48	809268	63d5e3bf4a739d1158b9ce64	4	1	DL_test	23	DL_test	23	stimuli_distractor_trianglediamonds.svg	stimuli_target_diamondsquares.svg	28	yes	ta	1	1281	6	4	antiphase_hc_sio.wav	1	6	3	noise_calib_stim_LEFT.wav	1	35	blb_dichoticlistening_ta-pa.mp3	ta	pa	1	left
6.6.1	mac	2023-06-02	02:11:17	02:24:48	809268	63d5e3bf4a739d1158b9ce64	4	1	DL_test	23	DL_test	24	stimuli_distractor_trianglediamonds.svg	stimuli_target_diamondsquares.svg	28	yes	ka	1	839	6	4	antiphase_hc_sio.wav	1	6	3	noise_calib_stim_LEFT.wav	1	23	blb_dichoticlistening_ka-pa.mp3	ka	pa	1	left
6.6.1	mac	2023-06-02	02:11:17	02:24:48	809268	63d5e3bf4a739d1158b9ce64	4	1	DL_test	23	DL_test	25	stimuli_distractor_trianglediamonds.svg	stimuli_target_diamondsquares.svg	28	yes	ga	1	1147	6	4	antiphase_hc_sio.wav	1	6	3	noise_calib_stim_LEFT.wav	1	33	blb_dichoticlistening_ta-ga.mp3	ta	ga	1	right
6.6.1	mac	2023-06-02	02:11:17	02:24:48	809268	63d5e3bf4a739d1158b9ce64	4	1	DL_test	23	DL_test	26	stimuli_distractor_trianglediamonds.svg	stimuli_target_diamondsquares.svg	28	yes	ga	1	772	6	4	antiphase_hc_sio.wav	1	6	3	noise_calib_stim_LEFT.wav	1	21	blb_dichoticlistening_ka-ga.mp3	ka	ga	1	right
