build	computer.platform	date	time	timestamp	time_elapsed_ms	subject	group	session	blockcode	blocknum	trialcode	trialnum	stimulus_left	stimulus_right	stim_index	target_present	response	correct	latency	headphonecheck_countTestTrials	headphonecheck_index	headphonecheck_testSound	headphonecheck_correctResponse	stereocheck_countTestTrials	stereocheck_index	stereocheck_testSound	stereocheck_correctResponse	DL_index	DL_soundfile	DL_leftSound	DL_rightSound	DL_dualSound	DL_choice
6.6.1	win	2023-06-14	15:06:01	15:12:19	374452	5a639a04c0d836000107b977	4	1	practice_z	5	practice_z	1	stimuli_target_squarediamonds.svg	stimuli_distractor_trianglediamonds.svg	5	yes	0	0	2000	0	0			0	0			1				0	
6.6.1	win	2023-06-14	15:06:01	15:12:19	374452	5a639a04c0d836000107b977	4	1	practice_z	5	advance_on_keypress_ZEE	2	stimuli_target_squarediamonds.svg	stimuli_distractor_trianglediamonds.svg	5	yes	57	0	1432	0	0			0	0			1				0	
6.6.1	win	2023-06-14	15:06:01	15:12:22	377963	5a639a04c0d836000107b977	4	1	practice_z	5	practice_z	3	stimuli_distractor_trianglediamonds.svg	stimuli_target_diamondrectangles.svg	12	yes	44	1	417	0	0			0	0			1				0	
6.6.1	win	2023-06-14	15:06:01	15:12:22	377963	5a639a04c0d836000107b977	4	1	practice_z	5	advance_on_keypress_ZEE	4	stimuli_distractor_trianglediamonds.svg	stimuli_target_diamondrectangles.svg	12	yes	57	0	1404	0	0			0	0			1				0	
6.6.1	win	2023-06-14	15:06:01	15:12:26	381308	5a639a04c0d836000107b977	4	1	practice_z	5	practice_z	5	stimuli_distractor_diamondtriangles.svg	stimuli_target_rectangletriangles.svg	7	yes	44	1	298	0	0			0	0			1				0	
6.6.1	win	2023-06-14	15:06:01	15:12:26	381308	5a639a04c0d836000107b977	4	1	practice_z	5	advance_on_keypress_ZEE	6	stimuli_distractor_diamondtriangles.svg	stimuli_target_rectangletriangles.svg	7	yes	57	0	2583	0	0			0	0			1				0	
6.6.1	win	2023-06-14	15:06:01	15:12:30	385889	5a639a04c0d836000107b977	4	1	practice_z	5	practice_z	7	stimuli_distractor_trianglediamonds.svg	stimuli_target_rectanglediamonds.svg	10	yes	44	1	351	0	0			0	0			1				0	
6.6.1	win	2023-06-14	15:06:01	15:12:30	385889	5a639a04c0d836000107b977	4	1	practice_z	5	advance_on_keypress_ZEE	8	stimuli_distractor_trianglediamonds.svg	stimuli_target_rectanglediamonds.svg	10	yes	57	0	873	0	0			0	0			1				0	
6.6.1	win	2023-06-14	15:06:01	15:12:33	388748	5a639a04c0d836000107b977	4	1	practice_z	5	practice_z	9	stimuli_target_rectanglediamonds.svg	stimuli_distractor_diamondtriangles.svg	1	yes	44	1	346	0	0			0	0			1				0	
6.6.1	win	2023-06-14	15:06:01	15:12:33	388748	5a639a04c0d836000107b977	4	1	practice_z	5	advance_on_keypress_ZEE	10	stimuli_target_rectanglediamonds.svg	stimuli_distractor_diamondtriangles.svg	1	yes	57	0	553	0	0			0	0			1				0	
6.6.1	win	2023-06-14	15:06:01	15:12:35	391163	5a639a04c0d836000107b977	4	1	practice_z	5	practice_z	11	stimuli_distractor_diamondtriangles.svg	stimuli_target_trianglerectangles.svg	9	yes	44	1	214	0	0			0	0			1				0	
6.6.1	win	2023-06-14	15:06:01	15:12:35	391163	5a639a04c0d836000107b977	4	1	practice_z	5	advance_on_keypress_ZEE	12	stimuli_distractor_diamondtriangles.svg	stimuli_target_trianglerectangles.svg	9	yes	57	0	792	0	0			0	0			1				0	
6.6.1	win	2023-06-14	15:06:01	15:12:38	393798	5a639a04c0d836000107b977	4	1	practice_z	5	practice_z	13	stimuli_distractor_trianglediamonds.svg	stimuli_target_squarediamonds.svg	11	yes	44	1	202	0	0			0	0			1				0	
6.6.1	win	2023-06-14	15:06:01	15:12:38	393798	5a639a04c0d836000107b977	4	1	practice_z	5	advance_on_keypress_ZEE	14	stimuli_distractor_trianglediamonds.svg	stimuli_target_squarediamonds.svg	11	yes	57	0	541	0	0			0	0			1				0	
6.6.1	win	2023-06-14	15:06:01	15:12:40	396176	5a639a04c0d836000107b977	4	1	practice_z	5	practice_z	15	stimuli_distractor_trianglediamonds.svg	stimuli_distractor_diamondtriangles.svg	16	no	44	0	199	0	0			0	0			1				0	
6.6.1	win	2023-06-14	15:06:01	15:12:40	396176	5a639a04c0d836000107b977	4	1	practice_z	5	advance_on_keypress_ZEE	16	stimuli_distractor_trianglediamonds.svg	stimuli_distractor_diamondtriangles.svg	16	no	57	0	466	0	0			0	0			1				0	
6.6.1	win	2023-06-14	15:06:01	15:12:43	398786	5a639a04c0d836000107b977	4	1	practice_z	5	practice_z	17	stimuli_target_diamondsquares.svg	stimuli_distractor_trianglediamonds.svg	6	yes	44	1	493	0	0			0	0			1				0	
6.6.1	win	2023-06-14	15:06:01	15:12:43	398786	5a639a04c0d836000107b977	4	1	practice_z	5	advance_on_keypress_ZEE	18	stimuli_target_diamondsquares.svg	stimuli_distractor_trianglediamonds.svg	6	yes	57	0	639	0	0			0	0			1				0	
6.6.1	win	2023-06-14	15:06:01	15:12:46	401599	5a639a04c0d836000107b977	4	1	practice_z	5	practice_z	19	stimuli_distractor_diamondtriangles.svg	stimuli_distractor_trianglediamonds.svg	14	no	44	0	527	0	0			0	0			1				0	
6.6.1	win	2023-06-14	15:06:01	15:12:46	401599	5a639a04c0d836000107b977	4	1	practice_z	5	advance_on_keypress_ZEE	20	stimuli_distractor_diamondtriangles.svg	stimuli_distractor_trianglediamonds.svg	14	no	57	0	603	0	0			0	0			1				0	
6.6.1	win	2023-06-14	15:06:01	15:12:49	404362	5a639a04c0d836000107b977	4	1	practice_z	5	practice_z	21	stimuli_distractor_diamondtriangles.svg	stimuli_distractor_diamondtriangles.svg	13	no	44	0	503	0	0			0	0			1				0	
6.6.1	win	2023-06-14	15:06:01	15:12:49	404362	5a639a04c0d836000107b977	4	1	practice_z	5	advance_on_keypress_ZEE	22	stimuli_distractor_diamondtriangles.svg	stimuli_distractor_diamondtriangles.svg	13	no	57	0	307	0	0			0	0			1				0	
6.6.1	win	2023-06-14	15:06:01	15:12:51	407065	5a639a04c0d836000107b977	4	1	practice_z	5	practice_z	23	stimuli_distractor_diamondtriangles.svg	stimuli_target_diamondrectangles.svg	8	yes	44	1	747	0	0			0	0			1				0	
6.6.1	win	2023-06-14	15:06:01	15:12:51	407065	5a639a04c0d836000107b977	4	1	practice_z	5	advance_on_keypress_ZEE	24	stimuli_distractor_diamondtriangles.svg	stimuli_target_diamondrectangles.svg	8	yes	57	0	301	0	0			0	0			1				0	
6.6.1	win	2023-06-14	15:06:01	15:12:54	409665	5a639a04c0d836000107b977	4	1	practice_z	5	practice_z	25	stimuli_target_diamondsquares.svg	stimuli_distractor_diamondtriangles.svg	3	yes	44	1	650	0	0			0	0			1				0	
6.6.1	win	2023-06-14	15:06:01	15:12:54	409665	5a639a04c0d836000107b977	4	1	practice_z	5	advance_on_keypress_ZEE	26	stimuli_target_diamondsquares.svg	stimuli_distractor_diamondtriangles.svg	3	yes	57	0	241	0	0			0	0			1				0	
6.6.1	win	2023-06-14	15:06:01	15:12:58	413547	5a639a04c0d836000107b977	4	1	practice_z	5	practice_z	27	stimuli_distractor_trianglediamonds.svg	stimuli_distractor_trianglediamonds.svg	15	no	0	1	2000	0	0			0	0			1				0	
6.6.1	win	2023-06-14	15:06:01	15:12:58	413547	5a639a04c0d836000107b977	4	1	practice_z	5	advance_on_keypress_ZEE	28	stimuli_distractor_trianglediamonds.svg	stimuli_distractor_trianglediamonds.svg	15	no	57	0	479	0	0			0	0			1				0	
6.6.1	win	2023-06-14	15:06:01	15:13:00	416185	5a639a04c0d836000107b977	4	1	practice_z	5	practice_z	29	stimuli_target_squarediamonds.svg	stimuli_distractor_diamondtriangles.svg	2	yes	44	1	511	0	0			0	0			1				0	
6.6.1	win	2023-06-14	15:06:01	15:13:00	416185	5a639a04c0d836000107b977	4	1	practice_z	5	advance_on_keypress_ZEE	30	stimuli_target_squarediamonds.svg	stimuli_distractor_diamondtriangles.svg	2	yes	57	0	706	0	0			0	0			1				0	
6.6.1	win	2023-06-14	15:06:01	15:13:03	418866	5a639a04c0d836000107b977	4	1	practice_z	5	practice_z	31	stimuli_target_rectanglediamonds.svg	stimuli_distractor_trianglediamonds.svg	4	yes	44	1	327	0	0			0	0			1				0	
6.6.1	win	2023-06-14	15:06:01	15:13:03	418866	5a639a04c0d836000107b977	4	1	practice_z	5	advance_on_keypress_ZEE	32	stimuli_target_rectanglediamonds.svg	stimuli_distractor_trianglediamonds.svg	4	yes	57	0	374	0	0			0	0			1				0	
6.6.1	win	2023-06-14	15:06:01	15:13:13	428587	5a639a04c0d836000107b977	4	1	main_z	7	main_z	1	stimuli_distractor_trianglediamonds.svg	stimuli_target_diamondrectangles.svg	27	yes	44	1	594	0	0			0	0			1				0	
6.6.1	win	2023-06-14	15:06:01	15:13:13	428587	5a639a04c0d836000107b977	4	1	main_z	7	advance_on_keypress_ZEE	2	stimuli_distractor_trianglediamonds.svg	stimuli_target_diamondrectangles.svg	27	yes	57	0	1074	0	0			0	0			1				0	
6.6.1	win	2023-06-14	15:06:01	15:13:15	430729	5a639a04c0d836000107b977	4	1	main_z	7	main_z	3	stimuli_distractor_trianglediamonds.svg	stimuli_target_squarediamonds.svg	12	yes	44	1	421	0	0			0	0			1				0	
6.6.1	win	2023-06-14	15:06:01	15:13:15	430729	5a639a04c0d836000107b977	4	1	main_z	7	advance_on_keypress_ZEE	4	stimuli_distractor_trianglediamonds.svg	stimuli_target_squarediamonds.svg	12	yes	57	0	1133	0	0			0	0			1				0	
6.6.1	win	2023-06-14	15:06:01	15:13:17	432764	5a639a04c0d836000107b977	4	1	main_z	7	main_z	5	stimuli_distractor_diamondtriangles.svg	stimuli_distractor_diamondtriangles.svg	39	no	44	0	258	0	0			0	0			1				0	
6.6.1	win	2023-06-14	15:06:01	15:13:17	432764	5a639a04c0d836000107b977	4	1	main_z	7	advance_on_keypress_ZEE	6	stimuli_distractor_diamondtriangles.svg	stimuli_distractor_diamondtriangles.svg	39	no	57	0	703	0	0			0	0			1				0	
6.6.1	win	2023-06-14	15:06:01	15:13:20	436104	5a639a04c0d836000107b977	4	1	main_z	7	main_z	7	stimuli_distractor_trianglediamonds.svg	stimuli_distractor_trianglediamonds.svg	34	no	0	1	2000	0	0			0	0			1				0	
6.6.1	win	2023-06-14	15:06:01	15:13:20	436104	5a639a04c0d836000107b977	4	1	main_z	7	advance_on_keypress_ZEE	8	stimuli_distractor_trianglediamonds.svg	stimuli_distractor_trianglediamonds.svg	34	no	57	0	454	0	0			0	0			1				0	
6.6.1	win	2023-06-14	15:06:01	15:13:22	437496	5a639a04c0d836000107b977	4	1	main_z	7	main_z	9	stimuli_distractor_diamondtriangles.svg	stimuli_target_diamondsquares.svg	32	yes	44	1	296	0	0			0	0			1				0	
6.6.1	win	2023-06-14	15:06:01	15:13:22	437496	5a639a04c0d836000107b977	4	1	main_z	7	advance_on_keypress_ZEE	10	stimuli_distractor_diamondtriangles.svg	stimuli_target_diamondsquares.svg	32	yes	57	0	1142	0	0			0	0			1				0	
6.6.1	win	2023-06-14	15:06:01	15:13:24	439776	5a639a04c0d836000107b977	4	1	main_z	7	main_z	11	stimuli_target_rectanglediamonds.svg	stimuli_distractor_trianglediamonds.svg	2	yes	44	1	494	0	0			0	0			1				0	
6.6.1	win	2023-06-14	15:06:01	15:13:24	439776	5a639a04c0d836000107b977	4	1	main_z	7	advance_on_keypress_ZEE	12	stimuli_target_rectanglediamonds.svg	stimuli_distractor_trianglediamonds.svg	2	yes	57	0	996	0	0			0	0			1				0	
6.6.1	win	2023-06-14	15:06:01	15:13:26	441991	5a639a04c0d836000107b977	4	1	main_z	7	main_z	13	stimuli_distractor_trianglediamonds.svg	stimuli_distractor_diamondtriangles.svg	35	no	44	0	562	0	0			0	0			1				0	
6.6.1	win	2023-06-14	15:06:01	15:13:26	441991	5a639a04c0d836000107b977	4	1	main_z	7	advance_on_keypress_ZEE	14	stimuli_distractor_trianglediamonds.svg	stimuli_distractor_diamondtriangles.svg	35	no	57	0	2343	0	0			0	0			1				0	
6.6.1	win	2023-06-14	15:06:01	15:13:29	445296	5a639a04c0d836000107b977	4	1	main_z	7	main_z	15	stimuli_distractor_diamondtriangles.svg	stimuli_target_rectanglediamonds.svg	14	yes	44	1	319	0	0			0	0			1				0	
6.6.1	win	2023-06-14	15:06:01	15:13:29	445296	5a639a04c0d836000107b977	4	1	main_z	7	advance_on_keypress_ZEE	16	stimuli_distractor_diamondtriangles.svg	stimuli_target_rectanglediamonds.svg	14	yes	57	0	601	0	0			0	0			1				0	
6.6.1	win	2023-06-14	15:06:01	15:13:33	448542	5a639a04c0d836000107b977	4	1	main_z	7	main_z	17	stimuli_target_squaretriangles.svg	stimuli_distractor_diamondtriangles.svg	7	yes	0	0	2000	0	0			0	0			1				0	
6.6.1	win	2023-06-14	15:06:01	15:13:33	448542	5a639a04c0d836000107b977	4	1	main_z	7	advance_on_keypress_ZEE	18	stimuli_target_squaretriangles.svg	stimuli_distractor_diamondtriangles.svg	7	yes	57	0	677	0	0			0	0			1				0	
6.6.1	win	2023-06-14	15:06:01	15:13:34	450134	5a639a04c0d836000107b977	4	1	main_z	7	main_z	19	stimuli_target_trianglerectangles.svg	stimuli_distractor_diamondtriangles.svg	21	yes	44	1	279	0	0			0	0			1				0	
6.6.1	win	2023-06-14	15:06:01	15:13:34	450134	5a639a04c0d836000107b977	4	1	main_z	7	advance_on_keypress_ZEE	20	stimuli_target_trianglerectangles.svg	stimuli_distractor_diamondtriangles.svg	21	yes	57	0	655	0	0			0	0			1				0	
6.6.1	win	2023-06-14	15:06:01	15:13:38	453437	5a639a04c0d836000107b977	4	1	main_z	7	main_z	21	stimuli_distractor_diamondtriangles.svg	stimuli_distractor_trianglediamonds.svg	38	no	0	1	2000	0	0			0	0			1				0	
6.6.1	win	2023-06-14	15:06:01	15:13:38	453437	5a639a04c0d836000107b977	4	1	main_z	7	advance_on_keypress_ZEE	22	stimuli_distractor_diamondtriangles.svg	stimuli_distractor_trianglediamonds.svg	38	no	57	0	631	0	0			0	0			1				0	
6.6.1	win	2023-06-14	15:06:01	15:13:39	454983	5a639a04c0d836000107b977	4	1	main_z	7	main_z	23	stimuli_target_rectanglediamonds.svg	stimuli_distractor_diamondtriangles.svg	6	yes	44	1	266	0	0			0	0			1				0	
6.6.1	win	2023-06-14	15:06:01	15:13:39	454983	5a639a04c0d836000107b977	4	1	main_z	7	advance_on_keypress_ZEE	24	stimuli_target_rectanglediamonds.svg	stimuli_distractor_diamondtriangles.svg	6	yes	57	0	687	0	0			0	0			1				0	
6.6.1	win	2023-06-14	15:06:01	15:13:43	458316	5a639a04c0d836000107b977	4	1	main_z	7	main_z	25	stimuli_target_trianglerectangles.svg	stimuli_distractor_trianglediamonds.svg	17	yes	0	0	2000	0	0			0	0			1				0	
6.6.1	win	2023-06-14	15:06:01	15:13:43	458316	5a639a04c0d836000107b977	4	1	main_z	7	advance_on_keypress_ZEE	26	stimuli_target_trianglerectangles.svg	stimuli_distractor_trianglediamonds.svg	17	yes	57	0	707	0	0			0	0			1				0	
6.6.1	win	2023-06-14	15:06:01	15:13:46	461662	5a639a04c0d836000107b977	4	1	main_z	7	main_z	27	stimuli_distractor_trianglediamonds.svg	stimuli_target_diamondsquares.svg	28	yes	0	0	2000	0	0			0	0			1				0	
6.6.1	win	2023-06-14	15:06:01	15:13:46	461662	5a639a04c0d836000107b977	4	1	main_z	7	advance_on_keypress_ZEE	28	stimuli_distractor_trianglediamonds.svg	stimuli_target_diamondsquares.svg	28	yes	57	0	3515	0	0			0	0			1				0	
6.6.1	win	2023-06-14	15:06:01	15:13:51	466374	5a639a04c0d836000107b977	4	1	main_z	7	main_z	29	stimuli_distractor_diamondtriangles.svg	stimuli_target_squarediamonds.svg	16	yes	44	1	552	0	0			0	0			1				0	
6.6.1	win	2023-06-14	15:06:01	15:13:51	466374	5a639a04c0d836000107b977	4	1	main_z	7	advance_on_keypress_ZEE	30	stimuli_distractor_diamondtriangles.svg	stimuli_target_squarediamonds.svg	16	yes	57	0	1125	0	0			0	0			1				0	
6.6.1	win	2023-06-14	15:06:01	15:13:54	470137	5a639a04c0d836000107b977	4	1	main_z	7	main_z	31	stimuli_target_trianglesquares.svg	stimuli_distractor_trianglediamonds.svg	18	yes	0	0	2000	0	0			0	0			1				0	
6.6.1	win	2023-06-14	15:06:01	15:13:54	470137	5a639a04c0d836000107b977	4	1	main_z	7	advance_on_keypress_ZEE	32	stimuli_target_trianglesquares.svg	stimuli_distractor_trianglediamonds.svg	18	yes	57	0	321	0	0			0	0			1				0	
6.6.1	win	2023-06-14	15:06:01	15:13:57	473101	5a639a04c0d836000107b977	4	1	main_z	7	main_z	33	stimuli_distractor_trianglediamonds.svg	stimuli_target_trianglerectangles.svg	25	yes	0	0	2000	0	0			0	0			1				0	
6.6.1	win	2023-06-14	15:06:01	15:13:57	473101	5a639a04c0d836000107b977	4	1	main_z	7	advance_on_keypress_ZEE	34	stimuli_distractor_trianglediamonds.svg	stimuli_target_trianglerectangles.svg	25	yes	57	0	386	0	0			0	0			1				0	
6.6.1	win	2023-06-14	15:06:01	15:14:00	476131	5a639a04c0d836000107b977	4	1	main_z	7	main_z	35	stimuli_target_diamondsquares.svg	stimuli_distractor_diamondtriangles.svg	24	yes	0	0	2000	0	0			0	0			1				0	
6.6.1	win	2023-06-14	15:06:01	15:14:00	476131	5a639a04c0d836000107b977	4	1	main_z	7	advance_on_keypress_ZEE	36	stimuli_target_diamondsquares.svg	stimuli_distractor_diamondtriangles.svg	24	yes	57	0	503	0	0			0	0			1				0	
6.6.1	win	2023-06-14	15:06:01	15:14:02	477756	5a639a04c0d836000107b977	4	1	main_z	7	main_z	37	stimuli_distractor_trianglediamonds.svg	stimuli_distractor_diamondtriangles.svg	36	no	44	0	478	0	0			0	0			1				0	
6.6.1	win	2023-06-14	15:06:01	15:14:02	477756	5a639a04c0d836000107b977	4	1	main_z	7	advance_on_keypress_ZEE	38	stimuli_distractor_trianglediamonds.svg	stimuli_distractor_diamondtriangles.svg	36	no	57	0	502	0	0			0	0			1				0	
6.6.1	win	2023-06-14	15:06:01	15:14:04	479883	5a639a04c0d836000107b977	4	1	main_z	7	main_z	39	stimuli_target_rectangletriangles.svg	stimuli_distractor_trianglediamonds.svg	1	yes	44	1	973	0	0			0	0			1				0	
6.6.1	win	2023-06-14	15:06:01	15:14:04	479883	5a639a04c0d836000107b977	4	1	main_z	7	advance_on_keypress_ZEE	40	stimuli_target_rectangletriangles.svg	stimuli_distractor_trianglediamonds.svg	1	yes	57	0	539	0	0			0	0			1				0	
6.6.1	win	2023-06-14	15:06:01	15:14:06	481460	5a639a04c0d836000107b977	4	1	main_z	7	main_z	41	stimuli_target_squaretriangles.svg	stimuli_distractor_trianglediamonds.svg	3	yes	44	1	402	0	0			0	0			1				0	
6.6.1	win	2023-06-14	15:06:01	15:14:06	481460	5a639a04c0d836000107b977	4	1	main_z	7	advance_on_keypress_ZEE	42	stimuli_target_squaretriangles.svg	stimuli_distractor_trianglediamonds.svg	3	yes	57	0	706	0	0			0	0			1				0	
6.6.1	win	2023-06-14	15:06:01	15:14:07	483086	5a639a04c0d836000107b977	4	1	main_z	7	main_z	43	stimuli_distractor_diamondtriangles.svg	stimuli_target_diamondrectangles.svg	31	yes	44	1	281	0	0			0	0			1				0	
6.6.1	win	2023-06-14	15:06:01	15:14:07	483086	5a639a04c0d836000107b977	4	1	main_z	7	advance_on_keypress_ZEE	44	stimuli_distractor_diamondtriangles.svg	stimuli_target_diamondrectangles.svg	31	yes	57	0	911	0	0			0	0			1				0	
6.6.1	win	2023-06-14	15:06:01	15:14:09	484927	5a639a04c0d836000107b977	4	1	main_z	7	main_z	45	stimuli_distractor_trianglediamonds.svg	stimuli_target_squaretriangles.svg	11	yes	44	1	291	0	0			0	0			1				0	
6.6.1	win	2023-06-14	15:06:01	15:14:09	484927	5a639a04c0d836000107b977	4	1	main_z	7	advance_on_keypress_ZEE	46	stimuli_distractor_trianglediamonds.svg	stimuli_target_squaretriangles.svg	11	yes	57	0	998	0	0			0	0			1				0	
6.6.1	win	2023-06-14	15:06:01	15:14:11	486942	5a639a04c0d836000107b977	4	1	main_z	7	main_z	47	stimuli_target_squarediamonds.svg	stimuli_distractor_trianglediamonds.svg	4	yes	44	1	370	0	0			0	0			1				0	
6.6.1	win	2023-06-14	15:06:01	15:14:11	486942	5a639a04c0d836000107b977	4	1	main_z	7	advance_on_keypress_ZEE	48	stimuli_target_squarediamonds.svg	stimuli_distractor_trianglediamonds.svg	4	yes	57	0	504	0	0			0	0			1				0	
6.6.1	win	2023-06-14	15:06:01	15:14:13	488534	5a639a04c0d836000107b977	4	1	main_z	7	main_z	49	stimuli_distractor_diamondtriangles.svg	stimuli_distractor_diamondtriangles.svg	40	no	44	0	450	0	0			0	0			1				0	
6.6.1	win	2023-06-14	15:06:01	15:14:13	488534	5a639a04c0d836000107b977	4	1	main_z	7	advance_on_keypress_ZEE	50	stimuli_distractor_diamondtriangles.svg	stimuli_distractor_diamondtriangles.svg	40	no	57	0	552	0	0			0	0			1				0	
6.6.1	win	2023-06-14	15:06:01	15:14:16	491733	5a639a04c0d836000107b977	4	1	main_z	7	main_z	51	stimuli_distractor_diamondtriangles.svg	stimuli_target_trianglerectangles.svg	29	yes	0	0	2000	0	0			0	0			1				0	
6.6.1	win	2023-06-14	15:06:01	15:14:16	491733	5a639a04c0d836000107b977	4	1	main_z	7	advance_on_keypress_ZEE	52	stimuli_distractor_diamondtriangles.svg	stimuli_target_trianglerectangles.svg	29	yes	57	0	218	0	0			0	0			1				0	
6.6.1	win	2023-06-14	15:06:01	15:14:17	492957	5a639a04c0d836000107b977	4	1	main_z	7	main_z	53	stimuli_distractor_trianglediamonds.svg	stimuli_target_rectanglediamonds.svg	10	yes	44	1	361	0	0			0	0			1				0	
6.6.1	win	2023-06-14	15:06:01	15:14:17	492957	5a639a04c0d836000107b977	4	1	main_z	7	advance_on_keypress_ZEE	54	stimuli_distractor_trianglediamonds.svg	stimuli_target_rectanglediamonds.svg	10	yes	57	0	515	0	0			0	0			1				0	
6.6.1	win	2023-06-14	15:06:01	15:14:19	494634	5a639a04c0d836000107b977	4	1	main_z	7	main_z	55	stimuli_target_diamondrectangles.svg	stimuli_distractor_diamondtriangles.svg	23	yes	44	1	503	0	0			0	0			1				0	
6.6.1	win	2023-06-14	15:06:01	15:14:19	494634	5a639a04c0d836000107b977	4	1	main_z	7	advance_on_keypress_ZEE	56	stimuli_target_diamondrectangles.svg	stimuli_distractor_diamondtriangles.svg	23	yes	57	0	328	0	0			0	0			1				0	
6.6.1	win	2023-06-14	15:06:01	15:14:20	495843	5a639a04c0d836000107b977	4	1	main_z	7	main_z	57	stimuli_distractor_trianglediamonds.svg	stimuli_target_rectangletriangles.svg	9	yes	44	1	233	0	0			0	0			1				0	
6.6.1	win	2023-06-14	15:06:01	15:14:20	495843	5a639a04c0d836000107b977	4	1	main_z	7	advance_on_keypress_ZEE	58	stimuli_distractor_trianglediamonds.svg	stimuli_target_rectangletriangles.svg	9	yes	57	0	527	0	0			0	0			1				0	
6.6.1	win	2023-06-14	15:06:01	15:14:21	497237	5a639a04c0d836000107b977	4	1	main_z	7	main_z	59	stimuli_target_diamondrectangles.svg	stimuli_distractor_trianglediamonds.svg	19	yes	44	1	229	0	0			0	0			1				0	
6.6.1	win	2023-06-14	15:06:01	15:14:21	497237	5a639a04c0d836000107b977	4	1	main_z	7	advance_on_keypress_ZEE	60	stimuli_target_diamondrectangles.svg	stimuli_distractor_trianglediamonds.svg	19	yes	57	0	503	0	0			0	0			1				0	
6.6.1	win	2023-06-14	15:06:01	15:14:23	498613	5a639a04c0d836000107b977	4	1	main_z	7	main_z	61	stimuli_target_squarediamonds.svg	stimuli_distractor_diamondtriangles.svg	8	yes	44	1	223	0	0			0	0			1				0	
6.6.1	win	2023-06-14	15:06:01	15:14:23	498613	5a639a04c0d836000107b977	4	1	main_z	7	advance_on_keypress_ZEE	62	stimuli_target_squarediamonds.svg	stimuli_distractor_diamondtriangles.svg	8	yes	57	0	462	0	0			0	0			1				0	
6.6.1	win	2023-06-14	15:06:01	15:14:24	499972	5a639a04c0d836000107b977	4	1	main_z	7	main_z	63	stimuli_distractor_trianglediamonds.svg	stimuli_distractor_trianglediamonds.svg	33	no	44	0	250	0	0			0	0			1				0	
6.6.1	win	2023-06-14	15:06:01	15:14:24	499972	5a639a04c0d836000107b977	4	1	main_z	7	advance_on_keypress_ZEE	64	stimuli_distractor_trianglediamonds.svg	stimuli_distractor_trianglediamonds.svg	33	no	57	0	421	0	0			0	0			1				0	
6.6.1	win	2023-06-14	15:06:01	15:14:26	501632	5a639a04c0d836000107b977	4	1	main_z	7	main_z	65	stimuli_distractor_diamondtriangles.svg	stimuli_target_squaretriangles.svg	15	yes	44	1	594	0	0			0	0			1				0	
6.6.1	win	2023-06-14	15:06:01	15:14:26	501632	5a639a04c0d836000107b977	4	1	main_z	7	advance_on_keypress_ZEE	66	stimuli_distractor_diamondtriangles.svg	stimuli_target_squaretriangles.svg	15	yes	57	0	467	0	0			0	0			1				0	
6.6.1	win	2023-06-14	15:06:01	15:14:29	504752	5a639a04c0d836000107b977	4	1	main_z	7	main_z	67	stimuli_target_trianglesquares.svg	stimuli_distractor_diamondtriangles.svg	22	yes	0	0	2000	0	0			0	0			1				0	
6.6.1	win	2023-06-14	15:06:01	15:14:29	504752	5a639a04c0d836000107b977	4	1	main_z	7	advance_on_keypress_ZEE	68	stimuli_target_trianglesquares.svg	stimuli_distractor_diamondtriangles.svg	22	yes	57	0	325	0	0			0	0			1				0	
6.6.1	win	2023-06-14	15:06:01	15:14:30	506121	5a639a04c0d836000107b977	4	1	main_z	7	main_z	69	stimuli_target_rectangletriangles.svg	stimuli_distractor_diamondtriangles.svg	5	yes	44	1	406	0	0			0	0			1				0	
6.6.1	win	2023-06-14	15:06:01	15:14:30	506121	5a639a04c0d836000107b977	4	1	main_z	7	advance_on_keypress_ZEE	70	stimuli_target_rectangletriangles.svg	stimuli_distractor_diamondtriangles.svg	5	yes	57	0	480	0	0			0	0			1				0	
6.6.1	win	2023-06-14	15:06:01	15:14:32	507525	5a639a04c0d836000107b977	4	1	main_z	7	main_z	71	stimuli_distractor_diamondtriangles.svg	stimuli_target_rectangletriangles.svg	13	yes	44	1	277	0	0			0	0			1				0	
6.6.1	win	2023-06-14	15:06:01	15:14:32	507525	5a639a04c0d836000107b977	4	1	main_z	7	advance_on_keypress_ZEE	72	stimuli_distractor_diamondtriangles.svg	stimuli_target_rectangletriangles.svg	13	yes	57	0	362	0	0			0	0			1				0	
6.6.1	win	2023-06-14	15:06:01	15:14:33	508909	5a639a04c0d836000107b977	4	1	main_z	7	main_z	73	stimuli_distractor_diamondtriangles.svg	stimuli_distractor_trianglediamonds.svg	37	no	44	0	363	0	0			0	0			1				0	
6.6.1	win	2023-06-14	15:06:01	15:14:33	508909	5a639a04c0d836000107b977	4	1	main_z	7	advance_on_keypress_ZEE	74	stimuli_distractor_diamondtriangles.svg	stimuli_distractor_trianglediamonds.svg	37	no	57	0	338	0	0			0	0			1				0	
6.6.1	win	2023-06-14	15:06:01	15:14:36	511895	5a639a04c0d836000107b977	4	1	main_z	7	main_z	75	stimuli_distractor_diamondtriangles.svg	stimuli_target_trianglesquares.svg	30	yes	0	0	2000	0	0			0	0			1				0	
6.6.1	win	2023-06-14	15:06:01	15:14:36	511895	5a639a04c0d836000107b977	4	1	main_z	7	advance_on_keypress_ZEE	76	stimuli_distractor_diamondtriangles.svg	stimuli_target_trianglesquares.svg	30	yes	57	0	506	0	0			0	0			1				0	
6.6.1	win	2023-06-14	15:06:01	15:14:38	513343	5a639a04c0d836000107b977	4	1	main_z	7	main_z	77	stimuli_target_diamondsquares.svg	stimuli_distractor_trianglediamonds.svg	20	yes	44	1	301	0	0			0	0			1				0	
6.6.1	win	2023-06-14	15:06:01	15:14:38	513343	5a639a04c0d836000107b977	4	1	main_z	7	advance_on_keypress_ZEE	78	stimuli_target_diamondsquares.svg	stimuli_distractor_trianglediamonds.svg	20	yes	57	0	456	0	0			0	0			1				0	
6.6.1	win	2023-06-14	15:06:01	15:14:41	516441	5a639a04c0d836000107b977	4	1	main_z	7	main_z	79	stimuli_distractor_trianglediamonds.svg	stimuli_target_trianglesquares.svg	26	yes	0	0	2000	0	0			0	0			1				0	
6.6.1	win	2023-06-14	15:06:01	15:14:41	516441	5a639a04c0d836000107b977	4	1	main_z	7	advance_on_keypress_ZEE	80	stimuli_distractor_trianglediamonds.svg	stimuli_target_trianglesquares.svg	26	yes	57	0	251	0	0			0	0			1				0	
6.6.1	win	2023-06-14	15:06:01	15:14:42	517624	5a639a04c0d836000107b977	4	1	main_z	7	main_z	81	stimuli_distractor_trianglediamonds.svg	stimuli_target_rectangletriangles.svg	9	yes	44	1	287	0	0			0	0			1				0	
6.6.1	win	2023-06-14	15:06:01	15:14:42	517624	5a639a04c0d836000107b977	4	1	main_z	7	advance_on_keypress_ZEE	82	stimuli_distractor_trianglediamonds.svg	stimuli_target_rectangletriangles.svg	9	yes	57	0	395	0	0			0	0			1				0	
6.6.1	win	2023-06-14	15:06:01	15:14:45	520654	5a639a04c0d836000107b977	4	1	main_z	7	main_z	83	stimuli_distractor_trianglediamonds.svg	stimuli_target_trianglesquares.svg	26	yes	0	0	2000	0	0			0	0			1				0	
6.6.1	win	2023-06-14	15:06:01	15:14:45	520654	5a639a04c0d836000107b977	4	1	main_z	7	advance_on_keypress_ZEE	84	stimuli_distractor_trianglediamonds.svg	stimuli_target_trianglesquares.svg	26	yes	57	0	464	0	0			0	0			1				0	
6.6.1	win	2023-06-14	15:06:01	15:14:46	522074	5a639a04c0d836000107b977	4	1	main_z	7	main_z	85	stimuli_distractor_diamondtriangles.svg	stimuli_target_squarediamonds.svg	16	yes	44	1	307	0	0			0	0			1				0	
6.6.1	win	2023-06-14	15:06:01	15:14:46	522074	5a639a04c0d836000107b977	4	1	main_z	7	advance_on_keypress_ZEE	86	stimuli_distractor_diamondtriangles.svg	stimuli_target_squarediamonds.svg	16	yes	57	0	464	0	0			0	0			1				0	
6.6.1	win	2023-06-14	15:06:01	15:14:49	525182	5a639a04c0d836000107b977	4	1	main_z	7	main_z	87	stimuli_distractor_diamondtriangles.svg	stimuli_target_diamondrectangles.svg	31	yes	0	0	2000	0	0			0	0			1				0	
6.6.1	win	2023-06-14	15:06:01	15:14:49	525182	5a639a04c0d836000107b977	4	1	main_z	7	advance_on_keypress_ZEE	88	stimuli_distractor_diamondtriangles.svg	stimuli_target_diamondrectangles.svg	31	yes	57	0	352	0	0			0	0			1				0	
6.6.1	win	2023-06-14	15:06:01	15:14:51	526456	5a639a04c0d836000107b977	4	1	main_z	7	main_z	89	stimuli_target_diamondsquares.svg	stimuli_distractor_diamondtriangles.svg	24	yes	44	1	276	0	0			0	0			1				0	
6.6.1	win	2023-06-14	15:06:01	15:14:51	526456	5a639a04c0d836000107b977	4	1	main_z	7	advance_on_keypress_ZEE	90	stimuli_target_diamondsquares.svg	stimuli_distractor_diamondtriangles.svg	24	yes	57	0	361	0	0			0	0			1				0	
6.6.1	win	2023-06-14	15:06:01	15:14:53	528376	5a639a04c0d836000107b977	4	1	main_z	7	main_z	91	stimuli_distractor_diamondtriangles.svg	stimuli_target_rectangletriangles.svg	13	yes	44	1	915	0	0			0	0			1				0	
6.6.1	win	2023-06-14	15:06:01	15:14:53	528376	5a639a04c0d836000107b977	4	1	main_z	7	advance_on_keypress_ZEE	92	stimuli_distractor_diamondtriangles.svg	stimuli_target_rectangletriangles.svg	13	yes	57	0	354	0	0			0	0			1				0	
6.6.1	win	2023-06-14	15:06:01	15:14:54	529687	5a639a04c0d836000107b977	4	1	main_z	7	main_z	93	stimuli_target_rectangletriangles.svg	stimuli_distractor_trianglediamonds.svg	1	yes	44	1	311	0	0			0	0			1				0	
6.6.1	win	2023-06-14	15:06:01	15:14:54	529687	5a639a04c0d836000107b977	4	1	main_z	7	advance_on_keypress_ZEE	94	stimuli_target_rectangletriangles.svg	stimuli_distractor_trianglediamonds.svg	1	yes	57	0	355	0	0			0	0			1				0	
6.6.1	win	2023-06-14	15:06:01	15:14:57	532691	5a639a04c0d836000107b977	4	1	main_z	7	main_z	95	stimuli_distractor_trianglediamonds.svg	stimuli_distractor_trianglediamonds.svg	34	no	0	1	2000	0	0			0	0			1				0	
6.6.1	win	2023-06-14	15:06:01	15:14:57	532691	5a639a04c0d836000107b977	4	1	main_z	7	advance_on_keypress_ZEE	96	stimuli_distractor_trianglediamonds.svg	stimuli_distractor_trianglediamonds.svg	34	no	57	0	2028	0	0			0	0			1				0	
6.6.1	win	2023-06-14	15:06:01	15:15:00	535482	5a639a04c0d836000107b977	4	1	main_z	7	main_z	97	stimuli_distractor_diamondtriangles.svg	stimuli_target_trianglerectangles.svg	29	yes	44	1	113	0	0			0	0			1				0	
6.6.1	win	2023-06-14	15:06:01	15:15:00	535482	5a639a04c0d836000107b977	4	1	main_z	7	advance_on_keypress_ZEE	98	stimuli_distractor_diamondtriangles.svg	stimuli_target_trianglerectangles.svg	29	yes	57	0	1896	0	0			0	0			1				0	
6.6.1	win	2023-06-14	15:06:01	15:15:03	538434	5a639a04c0d836000107b977	4	1	main_z	7	main_z	99	stimuli_target_rectanglediamonds.svg	stimuli_distractor_diamondtriangles.svg	6	yes	44	1	400	0	0			0	0			1				0	
6.6.1	win	2023-06-14	15:06:01	15:15:03	538434	5a639a04c0d836000107b977	4	1	main_z	7	advance_on_keypress_ZEE	100	stimuli_target_rectanglediamonds.svg	stimuli_distractor_diamondtriangles.svg	6	yes	57	0	425	0	0			0	0			1				0	
6.6.1	win	2023-06-14	15:06:01	15:15:04	540116	5a639a04c0d836000107b977	4	1	main_z	7	main_z	101	stimuli_distractor_diamondtriangles.svg	stimuli_target_trianglesquares.svg	30	yes	44	1	618	0	0			0	0			1				0	
6.6.1	win	2023-06-14	15:06:01	15:15:04	540116	5a639a04c0d836000107b977	4	1	main_z	7	advance_on_keypress_ZEE	102	stimuli_distractor_diamondtriangles.svg	stimuli_target_trianglesquares.svg	30	yes	57	0	394	0	0			0	0			1				0	
6.6.1	win	2023-06-14	15:06:01	15:15:07	543165	5a639a04c0d836000107b977	4	1	main_z	7	main_z	103	stimuli_target_trianglesquares.svg	stimuli_distractor_diamondtriangles.svg	22	yes	0	0	2000	0	0			0	0			1				0	
6.6.1	win	2023-06-14	15:06:01	15:15:07	543165	5a639a04c0d836000107b977	4	1	main_z	7	advance_on_keypress_ZEE	104	stimuli_target_trianglesquares.svg	stimuli_distractor_diamondtriangles.svg	22	yes	57	0	451	0	0			0	0			1				0	
6.6.1	win	2023-06-14	15:06:01	15:15:09	544469	5a639a04c0d836000107b977	4	1	main_z	7	main_z	105	stimuli_target_squarediamonds.svg	stimuli_distractor_diamondtriangles.svg	8	yes	44	1	209	0	0			0	0			1				0	
6.6.1	win	2023-06-14	15:06:01	15:15:09	544469	5a639a04c0d836000107b977	4	1	main_z	7	advance_on_keypress_ZEE	106	stimuli_target_squarediamonds.svg	stimuli_distractor_diamondtriangles.svg	8	yes	57	0	432	0	0			0	0			1				0	
6.6.1	win	2023-06-14	15:06:01	15:15:12	547543	5a639a04c0d836000107b977	4	1	main_z	7	main_z	107	stimuli_target_trianglerectangles.svg	stimuli_distractor_trianglediamonds.svg	17	yes	0	0	2000	0	0			0	0			1				0	
6.6.1	win	2023-06-14	15:06:01	15:15:12	547543	5a639a04c0d836000107b977	4	1	main_z	7	advance_on_keypress_ZEE	108	stimuli_target_trianglerectangles.svg	stimuli_distractor_trianglediamonds.svg	17	yes	57	0	322	0	0			0	0			1				0	
6.6.1	win	2023-06-14	15:06:01	15:15:13	548702	5a639a04c0d836000107b977	4	1	main_z	7	main_z	109	stimuli_distractor_diamondtriangles.svg	stimuli_target_diamondsquares.svg	32	yes	44	1	196	0	0			0	0			1				0	
6.6.1	win	2023-06-14	15:06:01	15:15:13	548702	5a639a04c0d836000107b977	4	1	main_z	7	advance_on_keypress_ZEE	110	stimuli_distractor_diamondtriangles.svg	stimuli_target_diamondsquares.svg	32	yes	57	0	309	0	0			0	0			1				0	
6.6.1	win	2023-06-14	15:06:01	15:15:16	551656	5a639a04c0d836000107b977	4	1	main_z	7	main_z	111	stimuli_distractor_diamondtriangles.svg	stimuli_distractor_diamondtriangles.svg	39	no	0	1	2000	0	0			0	0			1				0	
6.6.1	win	2023-06-14	15:06:01	15:15:16	551656	5a639a04c0d836000107b977	4	1	main_z	7	advance_on_keypress_ZEE	112	stimuli_distractor_diamondtriangles.svg	stimuli_distractor_diamondtriangles.svg	39	no	57	0	718	0	0			0	0			1				0	
6.6.1	win	2023-06-14	15:06:01	15:15:18	553422	5a639a04c0d836000107b977	4	1	main_z	7	main_z	113	stimuli_distractor_trianglediamonds.svg	stimuli_target_squaretriangles.svg	11	yes	44	1	404	0	0			0	0			1				0	
6.6.1	win	2023-06-14	15:06:01	15:15:18	553422	5a639a04c0d836000107b977	4	1	main_z	7	advance_on_keypress_ZEE	114	stimuli_distractor_trianglediamonds.svg	stimuli_target_squaretriangles.svg	11	yes	57	0	338	0	0			0	0			1				0	
6.6.1	win	2023-06-14	15:06:01	15:15:19	554969	5a639a04c0d836000107b977	4	1	main_z	7	main_z	115	stimuli_target_diamondrectangles.svg	stimuli_distractor_trianglediamonds.svg	19	yes	44	1	567	0	0			0	0			1				0	
6.6.1	win	2023-06-14	15:06:01	15:15:19	554969	5a639a04c0d836000107b977	4	1	main_z	7	advance_on_keypress_ZEE	116	stimuli_target_diamondrectangles.svg	stimuli_distractor_trianglediamonds.svg	19	yes	57	0	437	0	0			0	0			1				0	
6.6.1	win	2023-06-14	15:06:01	15:15:20	556265	5a639a04c0d836000107b977	4	1	main_z	7	main_z	117	stimuli_distractor_diamondtriangles.svg	stimuli_target_squaretriangles.svg	15	yes	44	1	216	0	0			0	0			1				0	
6.6.1	win	2023-06-14	15:06:01	15:15:20	556265	5a639a04c0d836000107b977	4	1	main_z	7	advance_on_keypress_ZEE	118	stimuli_distractor_diamondtriangles.svg	stimuli_target_squaretriangles.svg	15	yes	57	0	536	0	0			0	0			1				0	
6.6.1	win	2023-06-14	15:06:01	15:15:24	559448	5a639a04c0d836000107b977	4	1	main_z	7	main_z	119	stimuli_distractor_diamondtriangles.svg	stimuli_distractor_trianglediamonds.svg	38	no	0	1	2000	0	0			0	0			1				0	
6.6.1	win	2023-06-14	15:06:01	15:15:24	559448	5a639a04c0d836000107b977	4	1	main_z	7	advance_on_keypress_ZEE	120	stimuli_distractor_diamondtriangles.svg	stimuli_distractor_trianglediamonds.svg	38	no	57	0	266	0	0			0	0			1				0	
6.6.1	win	2023-06-14	15:06:01	15:15:25	561035	5a639a04c0d836000107b977	4	1	main_z	7	main_z	121	stimuli_distractor_trianglediamonds.svg	stimuli_distractor_diamondtriangles.svg	35	no	44	0	672	0	0			0	0			1				0	
6.6.1	win	2023-06-14	15:06:01	15:15:25	561035	5a639a04c0d836000107b977	4	1	main_z	7	advance_on_keypress_ZEE	122	stimuli_distractor_trianglediamonds.svg	stimuli_distractor_diamondtriangles.svg	35	no	57	0	422	0	0			0	0			1				0	
6.6.1	win	2023-06-14	15:06:01	15:15:27	562354	5a639a04c0d836000107b977	4	1	main_z	7	main_z	123	stimuli_distractor_trianglediamonds.svg	stimuli_target_diamondsquares.svg	28	yes	44	1	261	0	0			0	0			1				0	
6.6.1	win	2023-06-14	15:06:01	15:15:27	562354	5a639a04c0d836000107b977	4	1	main_z	7	advance_on_keypress_ZEE	124	stimuli_distractor_trianglediamonds.svg	stimuli_target_diamondsquares.svg	28	yes	57	0	438	0	0			0	0			1				0	
6.6.1	win	2023-06-14	15:06:01	15:15:28	563741	5a639a04c0d836000107b977	4	1	main_z	7	main_z	125	stimuli_distractor_diamondtriangles.svg	stimuli_distractor_diamondtriangles.svg	40	no	44	0	315	0	0			0	0			1				0	
6.6.1	win	2023-06-14	15:06:01	15:15:28	563741	5a639a04c0d836000107b977	4	1	main_z	7	advance_on_keypress_ZEE	126	stimuli_distractor_diamondtriangles.svg	stimuli_distractor_diamondtriangles.svg	40	no	57	0	293	0	0			0	0			1				0	
6.6.1	win	2023-06-14	15:06:01	15:15:29	565036	5a639a04c0d836000107b977	4	1	main_z	7	main_z	127	stimuli_target_squarediamonds.svg	stimuli_distractor_trianglediamonds.svg	4	yes	44	1	362	0	0			0	0			1				0	
6.6.1	win	2023-06-14	15:06:01	15:15:29	565036	5a639a04c0d836000107b977	4	1	main_z	7	advance_on_keypress_ZEE	128	stimuli_target_squarediamonds.svg	stimuli_distractor_trianglediamonds.svg	4	yes	57	0	364	0	0			0	0			1				0	
6.6.1	win	2023-06-14	15:06:01	15:15:31	566337	5a639a04c0d836000107b977	4	1	main_z	7	main_z	129	stimuli_target_diamondrectangles.svg	stimuli_distractor_diamondtriangles.svg	23	yes	44	1	282	0	0			0	0			1				0	
6.6.1	win	2023-06-14	15:06:01	15:15:31	566337	5a639a04c0d836000107b977	4	1	main_z	7	advance_on_keypress_ZEE	130	stimuli_target_diamondrectangles.svg	stimuli_distractor_diamondtriangles.svg	23	yes	57	0	365	0	0			0	0			1				0	
6.6.1	win	2023-06-14	15:06:01	15:15:33	568482	5a639a04c0d836000107b977	4	1	main_z	7	main_z	131	stimuli_distractor_trianglediamonds.svg	stimuli_distractor_diamondtriangles.svg	36	no	44	0	1127	0	0			0	0			1				0	
6.6.1	win	2023-06-14	15:06:01	15:15:33	568482	5a639a04c0d836000107b977	4	1	main_z	7	advance_on_keypress_ZEE	132	stimuli_distractor_trianglediamonds.svg	stimuli_distractor_diamondtriangles.svg	36	no	57	0	412	0	0			0	0			1				0	
6.6.1	win	2023-06-14	15:06:01	15:15:34	569872	5a639a04c0d836000107b977	4	1	main_z	7	main_z	133	stimuli_target_rectanglediamonds.svg	stimuli_distractor_trianglediamonds.svg	2	yes	44	1	319	0	0			0	0			1				0	
6.6.1	win	2023-06-14	15:06:01	15:15:34	569872	5a639a04c0d836000107b977	4	1	main_z	7	advance_on_keypress_ZEE	134	stimuli_target_rectanglediamonds.svg	stimuli_distractor_trianglediamonds.svg	2	yes	57	0	1277	0	0			0	0			1				0	
6.6.1	win	2023-06-14	15:06:01	15:15:36	572049	5a639a04c0d836000107b977	4	1	main_z	7	main_z	135	stimuli_distractor_trianglediamonds.svg	stimuli_target_rectanglediamonds.svg	10	yes	44	1	266	0	0			0	0			1				0	
6.6.1	win	2023-06-14	15:06:01	15:15:36	572049	5a639a04c0d836000107b977	4	1	main_z	7	advance_on_keypress_ZEE	136	stimuli_distractor_trianglediamonds.svg	stimuli_target_rectanglediamonds.svg	10	yes	57	0	411	0	0			0	0			1				0	
6.6.1	win	2023-06-14	15:06:01	15:15:38	573397	5a639a04c0d836000107b977	4	1	main_z	7	main_z	137	stimuli_distractor_trianglediamonds.svg	stimuli_target_squarediamonds.svg	12	yes	44	1	281	0	0			0	0			1				0	
6.6.1	win	2023-06-14	15:06:01	15:15:38	573397	5a639a04c0d836000107b977	4	1	main_z	7	advance_on_keypress_ZEE	138	stimuli_distractor_trianglediamonds.svg	stimuli_target_squarediamonds.svg	12	yes	57	0	456	0	0			0	0			1				0	
6.6.1	win	2023-06-14	15:06:01	15:15:39	574882	5a639a04c0d836000107b977	4	1	main_z	7	main_z	139	stimuli_target_squaretriangles.svg	stimuli_distractor_trianglediamonds.svg	3	yes	44	1	385	0	0			0	0			1				0	
6.6.1	win	2023-06-14	15:06:01	15:15:39	574882	5a639a04c0d836000107b977	4	1	main_z	7	advance_on_keypress_ZEE	140	stimuli_target_squaretriangles.svg	stimuli_distractor_trianglediamonds.svg	3	yes	57	0	373	0	0			0	0			1				0	
6.6.1	win	2023-06-14	15:06:01	15:15:40	576286	5a639a04c0d836000107b977	4	1	main_z	7	main_z	141	stimuli_distractor_trianglediamonds.svg	stimuli_distractor_trianglediamonds.svg	33	no	44	0	390	0	0			0	0			1				0	
6.6.1	win	2023-06-14	15:06:01	15:15:40	576286	5a639a04c0d836000107b977	4	1	main_z	7	advance_on_keypress_ZEE	142	stimuli_distractor_trianglediamonds.svg	stimuli_distractor_trianglediamonds.svg	33	no	57	0	435	0	0			0	0			1				0	
6.6.1	win	2023-06-14	15:06:01	15:15:42	577807	5a639a04c0d836000107b977	4	1	main_z	7	main_z	143	stimuli_target_squaretriangles.svg	stimuli_distractor_diamondtriangles.svg	7	yes	44	1	445	0	0			0	0			1				0	
6.6.1	win	2023-06-14	15:06:01	15:15:42	577807	5a639a04c0d836000107b977	4	1	main_z	7	advance_on_keypress_ZEE	144	stimuli_target_squaretriangles.svg	stimuli_distractor_diamondtriangles.svg	7	yes	57	0	362	0	0			0	0			1				0	
6.6.1	win	2023-06-14	15:06:01	15:15:43	579100	5a639a04c0d836000107b977	4	1	main_z	7	main_z	145	stimuli_distractor_diamondtriangles.svg	stimuli_target_rectanglediamonds.svg	14	yes	44	1	274	0	0			0	0			1				0	
6.6.1	win	2023-06-14	15:06:01	15:15:43	579100	5a639a04c0d836000107b977	4	1	main_z	7	advance_on_keypress_ZEE	146	stimuli_distractor_diamondtriangles.svg	stimuli_target_rectanglediamonds.svg	14	yes	57	0	506	0	0			0	0			1				0	
6.6.1	win	2023-06-14	15:06:01	15:15:46	582242	5a639a04c0d836000107b977	4	1	main_z	7	main_z	147	stimuli_distractor_trianglediamonds.svg	stimuli_target_trianglerectangles.svg	25	yes	0	0	2000	0	0			0	0			1				0	
6.6.1	win	2023-06-14	15:06:01	15:15:46	582242	5a639a04c0d836000107b977	4	1	main_z	7	advance_on_keypress_ZEE	148	stimuli_distractor_trianglediamonds.svg	stimuli_target_trianglerectangles.svg	25	yes	57	0	321	0	0			0	0			1				0	
6.6.1	win	2023-06-14	15:06:01	15:15:48	583487	5a639a04c0d836000107b977	4	1	main_z	7	main_z	149	stimuli_distractor_diamondtriangles.svg	stimuli_distractor_trianglediamonds.svg	37	no	44	0	281	0	0			0	0			1				0	
6.6.1	win	2023-06-14	15:06:01	15:15:48	583487	5a639a04c0d836000107b977	4	1	main_z	7	advance_on_keypress_ZEE	150	stimuli_distractor_diamondtriangles.svg	stimuli_distractor_trianglediamonds.svg	37	no	57	0	330	0	0			0	0			1				0	
6.6.1	win	2023-06-14	15:06:01	15:15:51	586471	5a639a04c0d836000107b977	4	1	main_z	7	main_z	151	stimuli_target_trianglesquares.svg	stimuli_distractor_trianglediamonds.svg	18	yes	0	0	2000	0	0			0	0			1				0	
6.6.1	win	2023-06-14	15:06:01	15:15:51	586471	5a639a04c0d836000107b977	4	1	main_z	7	advance_on_keypress_ZEE	152	stimuli_target_trianglesquares.svg	stimuli_distractor_trianglediamonds.svg	18	yes	57	0	346	0	0			0	0			1				0	
6.6.1	win	2023-06-14	15:06:01	15:15:54	589452	5a639a04c0d836000107b977	4	1	main_z	7	main_z	153	stimuli_target_trianglerectangles.svg	stimuli_distractor_diamondtriangles.svg	21	yes	0	0	2000	0	0			0	0			1				0	
6.6.1	win	2023-06-14	15:06:01	15:15:54	589452	5a639a04c0d836000107b977	4	1	main_z	7	advance_on_keypress_ZEE	154	stimuli_target_trianglerectangles.svg	stimuli_distractor_diamondtriangles.svg	21	yes	57	0	370	0	0			0	0			1				0	
6.6.1	win	2023-06-14	15:06:01	15:15:55	590938	5a639a04c0d836000107b977	4	1	main_z	7	main_z	155	stimuli_distractor_trianglediamonds.svg	stimuli_target_diamondrectangles.svg	27	yes	44	1	472	0	0			0	0			1				0	
6.6.1	win	2023-06-14	15:06:01	15:15:55	590938	5a639a04c0d836000107b977	4	1	main_z	7	advance_on_keypress_ZEE	156	stimuli_distractor_trianglediamonds.svg	stimuli_target_diamondrectangles.svg	27	yes	57	0	419	0	0			0	0			1				0	
6.6.1	win	2023-06-14	15:06:01	15:15:56	592212	5a639a04c0d836000107b977	4	1	main_z	7	main_z	157	stimuli_target_diamondsquares.svg	stimuli_distractor_trianglediamonds.svg	20	yes	44	1	215	0	0			0	0			1				0	
6.6.1	win	2023-06-14	15:06:01	15:15:56	592212	5a639a04c0d836000107b977	4	1	main_z	7	advance_on_keypress_ZEE	158	stimuli_target_diamondsquares.svg	stimuli_distractor_trianglediamonds.svg	20	yes	57	0	290	0	0			0	0			1				0	
6.6.1	win	2023-06-14	15:06:01	15:15:58	593487	5a639a04c0d836000107b977	4	1	main_z	7	main_z	159	stimuli_target_rectangletriangles.svg	stimuli_distractor_diamondtriangles.svg	5	yes	44	1	341	0	0			0	0			1				0	
6.6.1	win	2023-06-14	15:06:01	15:15:58	593487	5a639a04c0d836000107b977	4	1	main_z	7	advance_on_keypress_ZEE	160	stimuli_target_rectangletriangles.svg	stimuli_distractor_diamondtriangles.svg	5	yes	57	0	274	0	0			0	0			1				0	
6.6.1	win	2023-06-14	15:06:01	15:16:29	624822	5a639a04c0d836000107b977	4	1	practice_slash	9	practice_slash	1	stimuli_distractor_diamondtriangles.svg	stimuli_target_diamondrectangles.svg	8	yes	53	1	454	0	0			0	0			1				0	
6.6.1	win	2023-06-14	15:06:01	15:16:29	624822	5a639a04c0d836000107b977	4	1	practice_slash	9	advance_on_keypress_SLASH	2	stimuli_distractor_diamondtriangles.svg	stimuli_target_diamondrectangles.svg	8	yes	57	0	520	0	0			0	0			1				0	
6.6.1	win	2023-06-14	15:06:01	15:16:31	627230	5a639a04c0d836000107b977	4	1	practice_slash	9	practice_slash	3	stimuli_target_squarediamonds.svg	stimuli_distractor_trianglediamonds.svg	5	yes	53	1	231	0	0			0	0			1				0	
6.6.1	win	2023-06-14	15:06:01	15:16:31	627230	5a639a04c0d836000107b977	4	1	practice_slash	9	advance_on_keypress_SLASH	4	stimuli_target_squarediamonds.svg	stimuli_distractor_trianglediamonds.svg	5	yes	57	0	480	0	0			0	0			1				0	
6.6.1	win	2023-06-14	15:06:01	15:16:34	629777	5a639a04c0d836000107b977	4	1	practice_slash	9	practice_slash	5	stimuli_distractor_diamondtriangles.svg	stimuli_target_rectangletriangles.svg	7	yes	53	1	416	0	0			0	0			1				0	
6.6.1	win	2023-06-14	15:06:01	15:16:34	629777	5a639a04c0d836000107b977	4	1	practice_slash	9	advance_on_keypress_SLASH	6	stimuli_distractor_diamondtriangles.svg	stimuli_target_rectangletriangles.svg	7	yes	57	0	343	0	0			0	0			1				0	
6.6.1	win	2023-06-14	15:06:01	15:16:36	632005	5a639a04c0d836000107b977	4	1	practice_slash	9	practice_slash	7	stimuli_distractor_trianglediamonds.svg	stimuli_distractor_trianglediamonds.svg	15	no	53	0	244	0	0			0	0			1				0	
6.6.1	win	2023-06-14	15:06:01	15:16:36	632005	5a639a04c0d836000107b977	4	1	practice_slash	9	advance_on_keypress_SLASH	8	stimuli_distractor_trianglediamonds.svg	stimuli_distractor_trianglediamonds.svg	15	no	57	0	318	0	0			0	0			1				0	
6.6.1	win	2023-06-14	15:06:01	15:16:40	635975	5a639a04c0d836000107b977	4	1	practice_slash	9	practice_slash	9	stimuli_distractor_diamondtriangles.svg	stimuli_distractor_trianglediamonds.svg	14	no	0	1	2000	0	0			0	0			1				0	
6.6.1	win	2023-06-14	15:06:01	15:16:40	635975	5a639a04c0d836000107b977	4	1	practice_slash	9	advance_on_keypress_SLASH	10	stimuli_distractor_diamondtriangles.svg	stimuli_distractor_trianglediamonds.svg	14	no	57	0	297	0	0			0	0			1				0	
6.6.1	win	2023-06-14	15:06:01	15:16:42	638266	5a639a04c0d836000107b977	4	1	practice_slash	9	practice_slash	11	stimuli_target_rectanglediamonds.svg	stimuli_distractor_diamondtriangles.svg	1	yes	53	1	345	0	0			0	0			1				0	
6.6.1	win	2023-06-14	15:06:01	15:16:42	638266	5a639a04c0d836000107b977	4	1	practice_slash	9	advance_on_keypress_SLASH	12	stimuli_target_rectanglediamonds.svg	stimuli_distractor_diamondtriangles.svg	1	yes	57	0	239	0	0			0	0			1				0	
6.6.1	win	2023-06-14	15:06:01	15:16:45	640400	5a639a04c0d836000107b977	4	1	practice_slash	9	practice_slash	13	stimuli_target_squarediamonds.svg	stimuli_distractor_diamondtriangles.svg	2	yes	53	1	249	0	0			0	0			1				0	
6.6.1	win	2023-06-14	15:06:01	15:16:45	640400	5a639a04c0d836000107b977	4	1	practice_slash	9	advance_on_keypress_SLASH	14	stimuli_target_squarediamonds.svg	stimuli_distractor_diamondtriangles.svg	2	yes	57	0	474	0	0			0	0			1				0	
6.6.1	win	2023-06-14	15:06:01	15:16:47	642756	5a639a04c0d836000107b977	4	1	practice_slash	9	practice_slash	15	stimuli_distractor_diamondtriangles.svg	stimuli_target_trianglerectangles.svg	9	yes	53	1	240	0	0			0	0			1				0	
6.6.1	win	2023-06-14	15:06:01	15:16:47	642756	5a639a04c0d836000107b977	4	1	practice_slash	9	advance_on_keypress_SLASH	16	stimuli_distractor_diamondtriangles.svg	stimuli_target_trianglerectangles.svg	9	yes	57	0	253	0	0			0	0			1				0	
6.6.1	win	2023-06-14	15:06:01	15:16:49	644879	5a639a04c0d836000107b977	4	1	practice_slash	9	practice_slash	17	stimuli_target_rectanglediamonds.svg	stimuli_distractor_trianglediamonds.svg	4	yes	53	1	231	0	0			0	0			1				0	
6.6.1	win	2023-06-14	15:06:01	15:16:49	644879	5a639a04c0d836000107b977	4	1	practice_slash	9	advance_on_keypress_SLASH	18	stimuli_target_rectanglediamonds.svg	stimuli_distractor_trianglediamonds.svg	4	yes	57	0	377	0	0			0	0			1				0	
6.6.1	win	2023-06-14	15:06:01	15:16:52	647307	5a639a04c0d836000107b977	4	1	practice_slash	9	practice_slash	19	stimuli_distractor_trianglediamonds.svg	stimuli_target_rectanglediamonds.svg	10	yes	53	1	395	0	0			0	0			1				0	
6.6.1	win	2023-06-14	15:06:01	15:16:52	647307	5a639a04c0d836000107b977	4	1	practice_slash	9	advance_on_keypress_SLASH	20	stimuli_distractor_trianglediamonds.svg	stimuli_target_rectanglediamonds.svg	10	yes	57	0	307	0	0			0	0			1				0	
6.6.1	win	2023-06-14	15:06:01	15:16:55	651261	5a639a04c0d836000107b977	4	1	practice_slash	9	practice_slash	21	stimuli_distractor_trianglediamonds.svg	stimuli_distractor_diamondtriangles.svg	16	no	0	1	2000	0	0			0	0			1				0	
6.6.1	win	2023-06-14	15:06:01	15:16:55	651261	5a639a04c0d836000107b977	4	1	practice_slash	9	advance_on_keypress_SLASH	22	stimuli_distractor_trianglediamonds.svg	stimuli_distractor_diamondtriangles.svg	16	no	57	0	601	0	0			0	0			1				0	
6.6.1	win	2023-06-14	15:06:01	15:16:58	653790	5a639a04c0d836000107b977	4	1	practice_slash	9	practice_slash	23	stimuli_distractor_diamondtriangles.svg	stimuli_distractor_diamondtriangles.svg	13	no	53	0	284	0	0			0	0			1				0	
6.6.1	win	2023-06-14	15:06:01	15:16:58	653790	5a639a04c0d836000107b977	4	1	practice_slash	9	advance_on_keypress_SLASH	24	stimuli_distractor_diamondtriangles.svg	stimuli_distractor_diamondtriangles.svg	13	no	57	0	592	0	0			0	0			1				0	
6.6.1	win	2023-06-14	15:06:01	15:17:00	656225	5a639a04c0d836000107b977	4	1	practice_slash	9	practice_slash	25	stimuli_distractor_trianglediamonds.svg	stimuli_target_diamondrectangles.svg	12	yes	53	1	206	0	0			0	0			1				0	
6.6.1	win	2023-06-14	15:06:01	15:17:00	656225	5a639a04c0d836000107b977	4	1	practice_slash	9	advance_on_keypress_SLASH	26	stimuli_distractor_trianglediamonds.svg	stimuli_target_diamondrectangles.svg	12	yes	57	0	268	0	0			0	0			1				0	
6.6.1	win	2023-06-14	15:06:01	15:17:03	658455	5a639a04c0d836000107b977	4	1	practice_slash	9	practice_slash	27	stimuli_distractor_trianglediamonds.svg	stimuli_target_squarediamonds.svg	11	yes	53	1	320	0	0			0	0			1				0	
6.6.1	win	2023-06-14	15:06:01	15:17:03	658455	5a639a04c0d836000107b977	4	1	practice_slash	9	advance_on_keypress_SLASH	28	stimuli_distractor_trianglediamonds.svg	stimuli_target_squarediamonds.svg	11	yes	57	0	326	0	0			0	0			1				0	
6.6.1	win	2023-06-14	15:06:01	15:17:05	660793	5a639a04c0d836000107b977	4	1	practice_slash	9	practice_slash	29	stimuli_target_diamondsquares.svg	stimuli_distractor_trianglediamonds.svg	6	yes	53	1	378	0	0			0	0			1				0	
6.6.1	win	2023-06-14	15:06:01	15:17:05	660793	5a639a04c0d836000107b977	4	1	practice_slash	9	advance_on_keypress_SLASH	30	stimuli_target_diamondsquares.svg	stimuli_distractor_trianglediamonds.svg	6	yes	57	0	254	0	0			0	0			1				0	
6.6.1	win	2023-06-14	15:06:01	15:17:07	662904	5a639a04c0d836000107b977	4	1	practice_slash	9	practice_slash	31	stimuli_target_diamondsquares.svg	stimuli_distractor_diamondtriangles.svg	3	yes	53	1	208	0	0			0	0			1				0	
6.6.1	win	2023-06-14	15:06:01	15:17:07	662904	5a639a04c0d836000107b977	4	1	practice_slash	9	advance_on_keypress_SLASH	32	stimuli_target_diamondsquares.svg	stimuli_distractor_diamondtriangles.svg	3	yes	57	0	304	0	0			0	0			1				0	
6.6.1	win	2023-06-14	15:06:01	15:17:11	667277	5a639a04c0d836000107b977	4	1	main_slash	11	main_slash	1	stimuli_distractor_diamondtriangles.svg	stimuli_target_trianglerectangles.svg	29	yes	53	1	604	0	0			0	0			1				0	
6.6.1	win	2023-06-14	15:06:01	15:17:11	667277	5a639a04c0d836000107b977	4	1	main_slash	11	advance_on_keypress_SLASH	2	stimuli_distractor_diamondtriangles.svg	stimuli_target_trianglerectangles.svg	29	yes	57	0	702	0	0			0	0			1				0	
6.6.1	win	2023-06-14	15:06:01	15:17:13	668807	5a639a04c0d836000107b977	4	1	main_slash	11	main_slash	3	stimuli_target_rectangletriangles.svg	stimuli_distractor_diamondtriangles.svg	5	yes	53	1	186	0	0			0	0			1				0	
6.6.1	win	2023-06-14	15:06:01	15:17:13	668807	5a639a04c0d836000107b977	4	1	main_slash	11	advance_on_keypress_SLASH	4	stimuli_target_rectangletriangles.svg	stimuli_distractor_diamondtriangles.svg	5	yes	57	0	493	0	0			0	0			1				0	
6.6.1	win	2023-06-14	15:06:01	15:17:14	670160	5a639a04c0d836000107b977	4	1	main_slash	11	main_slash	5	stimuli_target_trianglesquares.svg	stimuli_distractor_trianglediamonds.svg	18	yes	53	1	223	0	0			0	0			1				0	
6.6.1	win	2023-06-14	15:06:01	15:17:14	670160	5a639a04c0d836000107b977	4	1	main_slash	11	advance_on_keypress_SLASH	6	stimuli_target_trianglesquares.svg	stimuli_distractor_trianglediamonds.svg	18	yes	57	0	416	0	0			0	0			1				0	
6.6.1	win	2023-06-14	15:06:01	15:17:16	671497	5a639a04c0d836000107b977	4	1	main_slash	11	main_slash	7	stimuli_target_rectanglediamonds.svg	stimuli_distractor_diamondtriangles.svg	6	yes	53	1	278	0	0			0	0			1				0	
6.6.1	win	2023-06-14	15:06:01	15:17:16	671497	5a639a04c0d836000107b977	4	1	main_slash	11	advance_on_keypress_SLASH	8	stimuli_target_rectanglediamonds.svg	stimuli_distractor_diamondtriangles.svg	6	yes	57	0	361	0	0			0	0			1				0	
6.6.1	win	2023-06-14	15:06:01	15:17:17	672750	5a639a04c0d836000107b977	4	1	main_slash	11	main_slash	9	stimuli_distractor_diamondtriangles.svg	stimuli_target_trianglesquares.svg	30	yes	53	1	233	0	0			0	0			1				0	
6.6.1	win	2023-06-14	15:06:01	15:17:17	672750	5a639a04c0d836000107b977	4	1	main_slash	11	advance_on_keypress_SLASH	10	stimuli_distractor_diamondtriangles.svg	stimuli_target_trianglesquares.svg	30	yes	57	0	438	0	0			0	0			1				0	
6.6.1	win	2023-06-14	15:06:01	15:17:18	674170	5a639a04c0d836000107b977	4	1	main_slash	11	main_slash	11	stimuli_distractor_trianglediamonds.svg	stimuli_target_squaretriangles.svg	11	yes	53	1	338	0	0			0	0			1				0	
6.6.1	win	2023-06-14	15:06:01	15:17:18	674170	5a639a04c0d836000107b977	4	1	main_slash	11	advance_on_keypress_SLASH	12	stimuli_distractor_trianglediamonds.svg	stimuli_target_squaretriangles.svg	11	yes	57	0	323	0	0			0	0			1				0	
6.6.1	win	2023-06-14	15:06:01	15:17:20	675467	5a639a04c0d836000107b977	4	1	main_slash	11	main_slash	13	stimuli_target_squaretriangles.svg	stimuli_distractor_trianglediamonds.svg	3	yes	53	1	337	0	0			0	0			1				0	
6.6.1	win	2023-06-14	15:06:01	15:17:20	675467	5a639a04c0d836000107b977	4	1	main_slash	11	advance_on_keypress_SLASH	14	stimuli_target_squaretriangles.svg	stimuli_distractor_trianglediamonds.svg	3	yes	57	0	479	0	0			0	0			1				0	
6.6.1	win	2023-06-14	15:06:01	15:17:21	676813	5a639a04c0d836000107b977	4	1	main_slash	11	main_slash	15	stimuli_distractor_diamondtriangles.svg	stimuli_target_rectangletriangles.svg	13	yes	53	1	216	0	0			0	0			1				0	
6.6.1	win	2023-06-14	15:06:01	15:17:21	676813	5a639a04c0d836000107b977	4	1	main_slash	11	advance_on_keypress_SLASH	16	stimuli_distractor_diamondtriangles.svg	stimuli_target_rectangletriangles.svg	13	yes	57	0	368	0	0			0	0			1				0	
6.6.1	win	2023-06-14	15:06:01	15:17:22	678030	5a639a04c0d836000107b977	4	1	main_slash	11	main_slash	17	stimuli_distractor_diamondtriangles.svg	stimuli_target_diamondrectangles.svg	31	yes	53	1	202	0	0			0	0			1				0	
6.6.1	win	2023-06-14	15:06:01	15:17:22	678030	5a639a04c0d836000107b977	4	1	main_slash	11	advance_on_keypress_SLASH	18	stimuli_distractor_diamondtriangles.svg	stimuli_target_diamondrectangles.svg	31	yes	57	0	463	0	0			0	0			1				0	
6.6.1	win	2023-06-14	15:06:01	15:17:24	679370	5a639a04c0d836000107b977	4	1	main_slash	11	main_slash	19	stimuli_distractor_diamondtriangles.svg	stimuli_distractor_diamondtriangles.svg	39	no	53	0	226	0	0			0	0			1				0	
6.6.1	win	2023-06-14	15:06:01	15:17:24	679370	5a639a04c0d836000107b977	4	1	main_slash	11	advance_on_keypress_SLASH	20	stimuli_distractor_diamondtriangles.svg	stimuli_distractor_diamondtriangles.svg	39	no	57	0	359	0	0			0	0			1				0	
6.6.1	win	2023-06-14	15:06:01	15:17:25	680573	5a639a04c0d836000107b977	4	1	main_slash	11	main_slash	21	stimuli_distractor_trianglediamonds.svg	stimuli_target_trianglesquares.svg	26	yes	53	1	216	0	0			0	0			1				0	
6.6.1	win	2023-06-14	15:06:01	15:17:25	680573	5a639a04c0d836000107b977	4	1	main_slash	11	advance_on_keypress_SLASH	22	stimuli_distractor_trianglediamonds.svg	stimuli_target_trianglesquares.svg	26	yes	57	0	818	0	0			0	0			1				0	
6.6.1	win	2023-06-14	15:06:01	15:17:26	682280	5a639a04c0d836000107b977	4	1	main_slash	11	main_slash	23	stimuli_distractor_trianglediamonds.svg	stimuli_target_rectangletriangles.svg	9	yes	53	1	239	0	0			0	0			1				0	
6.6.1	win	2023-06-14	15:06:01	15:17:26	682280	5a639a04c0d836000107b977	4	1	main_slash	11	advance_on_keypress_SLASH	24	stimuli_distractor_trianglediamonds.svg	stimuli_target_rectangletriangles.svg	9	yes	57	0	380	0	0			0	0			1				0	
6.6.1	win	2023-06-14	15:06:01	15:17:28	683532	5a639a04c0d836000107b977	4	1	main_slash	11	main_slash	25	stimuli_distractor_trianglediamonds.svg	stimuli_target_squarediamonds.svg	12	yes	53	1	225	0	0			0	0			1				0	
6.6.1	win	2023-06-14	15:06:01	15:17:28	683532	5a639a04c0d836000107b977	4	1	main_slash	11	advance_on_keypress_SLASH	26	stimuli_distractor_trianglediamonds.svg	stimuli_target_squarediamonds.svg	12	yes	57	0	426	0	0			0	0			1				0	
6.6.1	win	2023-06-14	15:06:01	15:17:31	686588	5a639a04c0d836000107b977	4	1	main_slash	11	main_slash	27	stimuli_distractor_diamondtriangles.svg	stimuli_distractor_trianglediamonds.svg	38	no	0	1	2000	0	0			0	0			1				0	
6.6.1	win	2023-06-14	15:06:01	15:17:31	686588	5a639a04c0d836000107b977	4	1	main_slash	11	advance_on_keypress_SLASH	28	stimuli_distractor_diamondtriangles.svg	stimuli_distractor_trianglediamonds.svg	38	no	57	0	771	0	0			0	0			1				0	
6.6.1	win	2023-06-14	15:06:01	15:17:32	688239	5a639a04c0d836000107b977	4	1	main_slash	11	main_slash	29	stimuli_distractor_diamondtriangles.svg	stimuli_target_rectanglediamonds.svg	14	yes	53	1	237	0	0			0	0			1				0	
6.6.1	win	2023-06-14	15:06:01	15:17:32	688239	5a639a04c0d836000107b977	4	1	main_slash	11	advance_on_keypress_SLASH	30	stimuli_distractor_diamondtriangles.svg	stimuli_target_rectanglediamonds.svg	14	yes	57	0	407	0	0			0	0			1				0	
6.6.1	win	2023-06-14	15:06:01	15:17:34	689527	5a639a04c0d836000107b977	4	1	main_slash	11	main_slash	31	stimuli_distractor_trianglediamonds.svg	stimuli_distractor_diamondtriangles.svg	35	no	53	0	244	0	0			0	0			1				0	
6.6.1	win	2023-06-14	15:06:01	15:17:34	689527	5a639a04c0d836000107b977	4	1	main_slash	11	advance_on_keypress_SLASH	32	stimuli_distractor_trianglediamonds.svg	stimuli_distractor_diamondtriangles.svg	35	no	57	0	454	0	0			0	0			1				0	
6.6.1	win	2023-06-14	15:06:01	15:17:35	690878	5a639a04c0d836000107b977	4	1	main_slash	11	main_slash	33	stimuli_distractor_diamondtriangles.svg	stimuli_target_squaretriangles.svg	15	yes	53	1	262	0	0			0	0			1				0	
6.6.1	win	2023-06-14	15:06:01	15:17:35	690878	5a639a04c0d836000107b977	4	1	main_slash	11	advance_on_keypress_SLASH	34	stimuli_distractor_diamondtriangles.svg	stimuli_target_squaretriangles.svg	15	yes	57	0	429	0	0			0	0			1				0	
6.6.1	win	2023-06-14	15:06:01	15:17:38	693948	5a639a04c0d836000107b977	4	1	main_slash	11	main_slash	35	stimuli_target_squarediamonds.svg	stimuli_distractor_diamondtriangles.svg	8	yes	0	0	2000	0	0			0	0			1				0	
6.6.1	win	2023-06-14	15:06:01	15:17:38	693948	5a639a04c0d836000107b977	4	1	main_slash	11	advance_on_keypress_SLASH	36	stimuli_target_squarediamonds.svg	stimuli_distractor_diamondtriangles.svg	8	yes	57	0	341	0	0			0	0			1				0	
6.6.1	win	2023-06-14	15:06:01	15:17:39	695105	5a639a04c0d836000107b977	4	1	main_slash	11	main_slash	37	stimuli_target_diamondsquares.svg	stimuli_distractor_trianglediamonds.svg	20	yes	53	1	178	0	0			0	0			1				0	
6.6.1	win	2023-06-14	15:06:01	15:17:39	695105	5a639a04c0d836000107b977	4	1	main_slash	11	advance_on_keypress_SLASH	38	stimuli_target_diamondsquares.svg	stimuli_distractor_trianglediamonds.svg	20	yes	57	0	437	0	0			0	0			1				0	
6.6.1	win	2023-06-14	15:06:01	15:17:42	698177	5a639a04c0d836000107b977	4	1	main_slash	11	main_slash	39	stimuli_distractor_trianglediamonds.svg	stimuli_target_diamondsquares.svg	28	yes	0	0	2000	0	0			0	0			1				0	
6.6.1	win	2023-06-14	15:06:01	15:17:42	698177	5a639a04c0d836000107b977	4	1	main_slash	11	advance_on_keypress_SLASH	40	stimuli_distractor_trianglediamonds.svg	stimuli_target_diamondsquares.svg	28	yes	57	0	695	0	0			0	0			1				0	
6.6.1	win	2023-06-14	15:06:01	15:17:46	701523	5a639a04c0d836000107b977	4	1	main_slash	11	main_slash	41	stimuli_distractor_trianglediamonds.svg	stimuli_distractor_trianglediamonds.svg	34	no	0	1	2000	0	0			0	0			1				0	
6.6.1	win	2023-06-14	15:06:01	15:17:46	701523	5a639a04c0d836000107b977	4	1	main_slash	11	advance_on_keypress_SLASH	42	stimuli_distractor_trianglediamonds.svg	stimuli_distractor_trianglediamonds.svg	34	no	57	0	924	0	0			0	0			1				0	
6.6.1	win	2023-06-14	15:06:01	15:17:49	705087	5a639a04c0d836000107b977	4	1	main_slash	11	main_slash	43	stimuli_distractor_diamondtriangles.svg	stimuli_target_diamondsquares.svg	32	yes	0	0	2000	0	0			0	0			1				0	
6.6.1	win	2023-06-14	15:06:01	15:17:49	705087	5a639a04c0d836000107b977	4	1	main_slash	11	advance_on_keypress_SLASH	44	stimuli_distractor_diamondtriangles.svg	stimuli_target_diamondsquares.svg	32	yes	57	0	787	0	0			0	0			1				0	
6.6.1	win	2023-06-14	15:06:01	15:17:51	706776	5a639a04c0d836000107b977	4	1	main_slash	11	main_slash	45	stimuli_target_diamondrectangles.svg	stimuli_distractor_trianglediamonds.svg	19	yes	53	1	259	0	0			0	0			1				0	
6.6.1	win	2023-06-14	15:06:01	15:17:51	706776	5a639a04c0d836000107b977	4	1	main_slash	11	advance_on_keypress_SLASH	46	stimuli_target_diamondrectangles.svg	stimuli_distractor_trianglediamonds.svg	19	yes	57	0	520	0	0			0	0			1				0	
6.6.1	win	2023-06-14	15:06:01	15:17:52	708243	5a639a04c0d836000107b977	4	1	main_slash	11	main_slash	47	stimuli_target_squarediamonds.svg	stimuli_distractor_trianglediamonds.svg	4	yes	53	1	311	0	0			0	0			1				0	
6.6.1	win	2023-06-14	15:06:01	15:17:52	708243	5a639a04c0d836000107b977	4	1	main_slash	11	advance_on_keypress_SLASH	48	stimuli_target_squarediamonds.svg	stimuli_distractor_trianglediamonds.svg	4	yes	57	0	423	0	0			0	0			1				0	
6.6.1	win	2023-06-14	15:06:01	15:17:54	709497	5a639a04c0d836000107b977	4	1	main_slash	11	main_slash	49	stimuli_target_rectangletriangles.svg	stimuli_distractor_trianglediamonds.svg	1	yes	53	1	201	0	0			0	0			1				0	
6.6.1	win	2023-06-14	15:06:01	15:17:54	709497	5a639a04c0d836000107b977	4	1	main_slash	11	advance_on_keypress_SLASH	50	stimuli_target_rectangletriangles.svg	stimuli_distractor_trianglediamonds.svg	1	yes	57	0	405	0	0			0	0			1				0	
6.6.1	win	2023-06-14	15:06:01	15:17:55	710806	5a639a04c0d836000107b977	4	1	main_slash	11	main_slash	51	stimuli_target_trianglesquares.svg	stimuli_distractor_diamondtriangles.svg	22	yes	53	1	261	0	0			0	0			1				0	
6.6.1	win	2023-06-14	15:06:01	15:17:55	710806	5a639a04c0d836000107b977	4	1	main_slash	11	advance_on_keypress_SLASH	52	stimuli_target_trianglesquares.svg	stimuli_distractor_diamondtriangles.svg	22	yes	57	0	491	0	0			0	0			1				0	
6.6.1	win	2023-06-14	15:06:01	15:17:56	712171	5a639a04c0d836000107b977	4	1	main_slash	11	main_slash	53	stimuli_target_trianglerectangles.svg	stimuli_distractor_trianglediamonds.svg	17	yes	53	1	244	0	0			0	0			1				0	
6.6.1	win	2023-06-14	15:06:01	15:17:56	712171	5a639a04c0d836000107b977	4	1	main_slash	11	advance_on_keypress_SLASH	54	stimuli_target_trianglerectangles.svg	stimuli_distractor_trianglediamonds.svg	17	yes	57	0	555	0	0			0	0			1				0	
6.6.1	win	2023-06-14	15:06:01	15:17:58	713533	5a639a04c0d836000107b977	4	1	main_slash	11	main_slash	55	stimuli_target_diamondrectangles.svg	stimuli_distractor_diamondtriangles.svg	23	yes	53	1	174	0	0			0	0			1				0	
6.6.1	win	2023-06-14	15:06:01	15:17:58	713533	5a639a04c0d836000107b977	4	1	main_slash	11	advance_on_keypress_SLASH	56	stimuli_target_diamondrectangles.svg	stimuli_distractor_diamondtriangles.svg	23	yes	57	0	513	0	0			0	0			1				0	
6.6.1	win	2023-06-14	15:06:01	15:17:59	714897	5a639a04c0d836000107b977	4	1	main_slash	11	main_slash	57	stimuli_distractor_trianglediamonds.svg	stimuli_target_diamondrectangles.svg	27	yes	53	1	206	0	0			0	0			1				0	
6.6.1	win	2023-06-14	15:06:01	15:17:59	714897	5a639a04c0d836000107b977	4	1	main_slash	11	advance_on_keypress_SLASH	58	stimuli_distractor_trianglediamonds.svg	stimuli_target_diamondrectangles.svg	27	yes	57	0	499	0	0			0	0			1				0	
6.6.1	win	2023-06-14	15:06:01	15:18:02	718041	5a639a04c0d836000107b977	4	1	main_slash	11	main_slash	59	stimuli_distractor_diamondtriangles.svg	stimuli_distractor_trianglediamonds.svg	37	no	0	1	2000	0	0			0	0			1				0	
6.6.1	win	2023-06-14	15:06:01	15:18:02	718041	5a639a04c0d836000107b977	4	1	main_slash	11	advance_on_keypress_SLASH	60	stimuli_distractor_diamondtriangles.svg	stimuli_distractor_trianglediamonds.svg	37	no	57	0	578	0	0			0	0			1				0	
6.6.1	win	2023-06-14	15:06:01	15:18:04	719545	5a639a04c0d836000107b977	4	1	main_slash	11	main_slash	61	stimuli_distractor_trianglediamonds.svg	stimuli_target_rectanglediamonds.svg	10	yes	53	1	291	0	0			0	0			1				0	
6.6.1	win	2023-06-14	15:06:01	15:18:04	719545	5a639a04c0d836000107b977	4	1	main_slash	11	advance_on_keypress_SLASH	62	stimuli_distractor_trianglediamonds.svg	stimuli_target_rectanglediamonds.svg	10	yes	57	0	421	0	0			0	0			1				0	
6.6.1	win	2023-06-14	15:06:01	15:18:05	720887	5a639a04c0d836000107b977	4	1	main_slash	11	main_slash	63	stimuli_distractor_diamondtriangles.svg	stimuli_target_squarediamonds.svg	16	yes	53	1	284	0	0			0	0			1				0	
6.6.1	win	2023-06-14	15:06:01	15:18:05	720887	5a639a04c0d836000107b977	4	1	main_slash	11	advance_on_keypress_SLASH	64	stimuli_distractor_diamondtriangles.svg	stimuli_target_squarediamonds.svg	16	yes	57	0	435	0	0			0	0			1				0	
6.6.1	win	2023-06-14	15:06:01	15:18:06	722208	5a639a04c0d836000107b977	4	1	main_slash	11	main_slash	65	stimuli_target_diamondsquares.svg	stimuli_distractor_diamondtriangles.svg	24	yes	53	1	240	0	0			0	0			1				0	
6.6.1	win	2023-06-14	15:06:01	15:18:06	722208	5a639a04c0d836000107b977	4	1	main_slash	11	advance_on_keypress_SLASH	66	stimuli_target_diamondsquares.svg	stimuli_distractor_diamondtriangles.svg	24	yes	57	0	6761	0	0			0	0			1				0	
6.6.1	win	2023-06-14	15:06:01	15:18:14	729864	5a639a04c0d836000107b977	4	1	main_slash	11	main_slash	67	stimuli_distractor_trianglediamonds.svg	stimuli_distractor_diamondtriangles.svg	36	no	53	0	254	0	0			0	0			1				0	
6.6.1	win	2023-06-14	15:06:01	15:18:14	729864	5a639a04c0d836000107b977	4	1	main_slash	11	advance_on_keypress_SLASH	68	stimuli_distractor_trianglediamonds.svg	stimuli_distractor_diamondtriangles.svg	36	no	57	0	428	0	0			0	0			1				0	
6.6.1	win	2023-06-14	15:06:01	15:18:15	731135	5a639a04c0d836000107b977	4	1	main_slash	11	main_slash	69	stimuli_target_squaretriangles.svg	stimuli_distractor_diamondtriangles.svg	7	yes	53	1	192	0	0			0	0			1				0	
6.6.1	win	2023-06-14	15:06:01	15:18:15	731135	5a639a04c0d836000107b977	4	1	main_slash	11	advance_on_keypress_SLASH	70	stimuli_target_squaretriangles.svg	stimuli_distractor_diamondtriangles.svg	7	yes	57	0	491	0	0			0	0			1				0	
6.6.1	win	2023-06-14	15:06:01	15:18:17	732512	5a639a04c0d836000107b977	4	1	main_slash	11	main_slash	71	stimuli_target_trianglerectangles.svg	stimuli_distractor_diamondtriangles.svg	21	yes	53	1	236	0	0			0	0			1				0	
6.6.1	win	2023-06-14	15:06:01	15:18:17	732512	5a639a04c0d836000107b977	4	1	main_slash	11	advance_on_keypress_SLASH	72	stimuli_target_trianglerectangles.svg	stimuli_distractor_diamondtriangles.svg	21	yes	57	0	4837	0	0			0	0			1				0	
6.6.1	win	2023-06-14	15:06:01	15:18:23	738549	5a639a04c0d836000107b977	4	1	main_slash	11	main_slash	73	stimuli_distractor_trianglediamonds.svg	stimuli_distractor_trianglediamonds.svg	33	no	53	0	563	0	0			0	0			1				0	
6.6.1	win	2023-06-14	15:06:01	15:18:23	738549	5a639a04c0d836000107b977	4	1	main_slash	11	advance_on_keypress_SLASH	74	stimuli_distractor_trianglediamonds.svg	stimuli_distractor_trianglediamonds.svg	33	no	57	0	644	0	0			0	0			1				0	
6.6.1	win	2023-06-14	15:06:01	15:18:24	740072	5a639a04c0d836000107b977	4	1	main_slash	11	main_slash	75	stimuli_target_rectanglediamonds.svg	stimuli_distractor_trianglediamonds.svg	2	yes	53	1	238	0	0			0	0			1				0	
6.6.1	win	2023-06-14	15:06:01	15:18:24	740072	5a639a04c0d836000107b977	4	1	main_slash	11	advance_on_keypress_SLASH	76	stimuli_target_rectanglediamonds.svg	stimuli_distractor_trianglediamonds.svg	2	yes	57	0	431	0	0			0	0			1				0	
6.6.1	win	2023-06-14	15:06:01	15:18:26	741479	5a639a04c0d836000107b977	4	1	main_slash	11	main_slash	77	stimuli_distractor_diamondtriangles.svg	stimuli_distractor_diamondtriangles.svg	40	no	53	0	331	0	0			0	0			1				0	
6.6.1	win	2023-06-14	15:06:01	15:18:26	741479	5a639a04c0d836000107b977	4	1	main_slash	11	advance_on_keypress_SLASH	78	stimuli_distractor_diamondtriangles.svg	stimuli_distractor_diamondtriangles.svg	40	no	57	0	372	0	0			0	0			1				0	
6.6.1	win	2023-06-14	15:06:01	15:18:29	744498	5a639a04c0d836000107b977	4	1	main_slash	11	main_slash	79	stimuli_distractor_trianglediamonds.svg	stimuli_target_trianglerectangles.svg	25	yes	0	0	2000	0	0			0	0			1				0	
6.6.1	win	2023-06-14	15:06:01	15:18:29	744498	5a639a04c0d836000107b977	4	1	main_slash	11	advance_on_keypress_SLASH	80	stimuli_distractor_trianglediamonds.svg	stimuli_target_trianglerectangles.svg	25	yes	57	0	357	0	0			0	0			1				0	
6.6.1	win	2023-06-14	15:06:01	15:18:30	745887	5a639a04c0d836000107b977	4	1	main_slash	11	main_slash	81	stimuli_distractor_diamondtriangles.svg	stimuli_distractor_trianglediamonds.svg	38	no	53	0	393	0	0			0	0			1				0	
6.6.1	win	2023-06-14	15:06:01	15:18:30	745887	5a639a04c0d836000107b977	4	1	main_slash	11	advance_on_keypress_SLASH	82	stimuli_distractor_diamondtriangles.svg	stimuli_distractor_trianglediamonds.svg	38	no	57	0	466	0	0			0	0			1				0	
6.6.1	win	2023-06-14	15:06:01	15:18:32	747306	5a639a04c0d836000107b977	4	1	main_slash	11	main_slash	83	stimuli_distractor_diamondtriangles.svg	stimuli_target_diamondrectangles.svg	31	yes	53	1	313	0	0			0	0			1				0	
6.6.1	win	2023-06-14	15:06:01	15:18:32	747306	5a639a04c0d836000107b977	4	1	main_slash	11	advance_on_keypress_SLASH	84	stimuli_distractor_diamondtriangles.svg	stimuli_target_diamondrectangles.svg	31	yes	57	0	456	0	0			0	0			1				0	
6.6.1	win	2023-06-14	15:06:01	15:18:35	750409	5a639a04c0d836000107b977	4	1	main_slash	11	main_slash	85	stimuli_distractor_trianglediamonds.svg	stimuli_distractor_diamondtriangles.svg	35	no	0	1	2000	0	0			0	0			1				0	
6.6.1	win	2023-06-14	15:06:01	15:18:35	750409	5a639a04c0d836000107b977	4	1	main_slash	11	advance_on_keypress_SLASH	86	stimuli_distractor_trianglediamonds.svg	stimuli_distractor_diamondtriangles.svg	35	no	57	0	421	0	0			0	0			1				0	
6.6.1	win	2023-06-14	15:06:01	15:18:36	751812	5a639a04c0d836000107b977	4	1	main_slash	11	main_slash	87	stimuli_distractor_diamondtriangles.svg	stimuli_distractor_trianglediamonds.svg	37	no	53	0	341	0	0			0	0			1				0	
6.6.1	win	2023-06-14	15:06:01	15:18:36	751812	5a639a04c0d836000107b977	4	1	main_slash	11	advance_on_keypress_SLASH	88	stimuli_distractor_diamondtriangles.svg	stimuli_distractor_trianglediamonds.svg	37	no	57	0	599	0	0			0	0			1				0	
6.6.1	win	2023-06-14	15:06:01	15:18:39	755054	5a639a04c0d836000107b977	4	1	main_slash	11	main_slash	89	stimuli_distractor_trianglediamonds.svg	stimuli_target_diamondsquares.svg	28	yes	0	0	2000	0	0			0	0			1				0	
6.6.1	win	2023-06-14	15:06:01	15:18:39	755054	5a639a04c0d836000107b977	4	1	main_slash	11	advance_on_keypress_SLASH	90	stimuli_distractor_trianglediamonds.svg	stimuli_target_diamondsquares.svg	28	yes	57	0	395	0	0			0	0			1				0	
6.6.1	win	2023-06-14	15:06:01	15:18:41	756557	5a639a04c0d836000107b977	4	1	main_slash	11	main_slash	91	stimuli_distractor_trianglediamonds.svg	stimuli_target_squarediamonds.svg	12	yes	53	1	473	0	0			0	0			1				0	
6.6.1	win	2023-06-14	15:06:01	15:18:41	756557	5a639a04c0d836000107b977	4	1	main_slash	11	advance_on_keypress_SLASH	92	stimuli_distractor_trianglediamonds.svg	stimuli_target_squarediamonds.svg	12	yes	57	0	477	0	0			0	0			1				0	
6.6.1	win	2023-06-14	15:06:01	15:18:44	759666	5a639a04c0d836000107b977	4	1	main_slash	11	main_slash	93	stimuli_distractor_diamondtriangles.svg	stimuli_target_trianglesquares.svg	30	yes	0	0	2000	0	0			0	0			1				0	
6.6.1	win	2023-06-14	15:06:01	15:18:44	759666	5a639a04c0d836000107b977	4	1	main_slash	11	advance_on_keypress_SLASH	94	stimuli_distractor_diamondtriangles.svg	stimuli_target_trianglesquares.svg	30	yes	57	0	30	0	0			0	0			1				0	
6.6.1	win	2023-06-14	15:06:01	15:18:45	760549	5a639a04c0d836000107b977	4	1	main_slash	11	main_slash	95	stimuli_target_diamondsquares.svg	stimuli_distractor_diamondtriangles.svg	24	yes	53	1	219	0	0			0	0			1				0	
6.6.1	win	2023-06-14	15:06:01	15:18:45	760549	5a639a04c0d836000107b977	4	1	main_slash	11	advance_on_keypress_SLASH	96	stimuli_target_diamondsquares.svg	stimuli_distractor_diamondtriangles.svg	24	yes	57	0	420	0	0			0	0			1				0	
6.6.1	win	2023-06-14	15:06:01	15:18:48	763612	5a639a04c0d836000107b977	4	1	main_slash	11	main_slash	97	stimuli_target_trianglesquares.svg	stimuli_distractor_trianglediamonds.svg	18	yes	0	0	2000	0	0			0	0			1				0	
6.6.1	win	2023-06-14	15:06:01	15:18:48	763612	5a639a04c0d836000107b977	4	1	main_slash	11	advance_on_keypress_SLASH	98	stimuli_target_trianglesquares.svg	stimuli_distractor_trianglediamonds.svg	18	yes	57	0	276	0	0			0	0			1				0	
6.6.1	win	2023-06-14	15:06:01	15:18:49	764791	5a639a04c0d836000107b977	4	1	main_slash	11	main_slash	99	stimuli_target_rectanglediamonds.svg	stimuli_distractor_trianglediamonds.svg	2	yes	53	1	266	0	0			0	0			1				0	
6.6.1	win	2023-06-14	15:06:01	15:18:49	764791	5a639a04c0d836000107b977	4	1	main_slash	11	advance_on_keypress_SLASH	100	stimuli_target_rectanglediamonds.svg	stimuli_distractor_trianglediamonds.svg	2	yes	57	0	350	0	0			0	0			1				0	
6.6.1	win	2023-06-14	15:06:01	15:18:50	766041	5a639a04c0d836000107b977	4	1	main_slash	11	main_slash	101	stimuli_target_rectangletriangles.svg	stimuli_distractor_diamondtriangles.svg	5	yes	53	1	249	0	0			0	0			1				0	
6.6.1	win	2023-06-14	15:06:01	15:18:50	766041	5a639a04c0d836000107b977	4	1	main_slash	11	advance_on_keypress_SLASH	102	stimuli_target_rectangletriangles.svg	stimuli_distractor_diamondtriangles.svg	5	yes	57	0	573	0	0			0	0			1				0	
6.6.1	win	2023-06-14	15:06:01	15:18:52	767500	5a639a04c0d836000107b977	4	1	main_slash	11	main_slash	103	stimuli_target_squarediamonds.svg	stimuli_distractor_trianglediamonds.svg	4	yes	53	1	243	0	0			0	0			1				0	
6.6.1	win	2023-06-14	15:06:01	15:18:52	767500	5a639a04c0d836000107b977	4	1	main_slash	11	advance_on_keypress_SLASH	104	stimuli_target_squarediamonds.svg	stimuli_distractor_trianglediamonds.svg	4	yes	57	0	912	0	0			0	0			1				0	
6.6.1	win	2023-06-14	15:06:01	15:18:53	769290	5a639a04c0d836000107b977	4	1	main_slash	11	main_slash	105	stimuli_distractor_trianglediamonds.svg	stimuli_target_squaretriangles.svg	11	yes	53	1	235	0	0			0	0			1				0	
6.6.1	win	2023-06-14	15:06:01	15:18:53	769290	5a639a04c0d836000107b977	4	1	main_slash	11	advance_on_keypress_SLASH	106	stimuli_distractor_trianglediamonds.svg	stimuli_target_squaretriangles.svg	11	yes	57	0	587	0	0			0	0			1				0	
6.6.1	win	2023-06-14	15:06:01	15:18:55	770929	5a639a04c0d836000107b977	4	1	main_slash	11	main_slash	107	stimuli_target_squaretriangles.svg	stimuli_distractor_diamondtriangles.svg	7	yes	53	1	411	0	0			0	0			1				0	
6.6.1	win	2023-06-14	15:06:01	15:18:55	770929	5a639a04c0d836000107b977	4	1	main_slash	11	advance_on_keypress_SLASH	108	stimuli_target_squaretriangles.svg	stimuli_distractor_diamondtriangles.svg	7	yes	57	0	507	0	0			0	0			1				0	
6.6.1	win	2023-06-14	15:06:01	15:18:57	772413	5a639a04c0d836000107b977	4	1	main_slash	11	main_slash	109	stimuli_distractor_trianglediamonds.svg	stimuli_distractor_diamondtriangles.svg	36	no	53	0	346	0	0			0	0			1				0	
6.6.1	win	2023-06-14	15:06:01	15:18:57	772413	5a639a04c0d836000107b977	4	1	main_slash	11	advance_on_keypress_SLASH	110	stimuli_distractor_trianglediamonds.svg	stimuli_distractor_diamondtriangles.svg	36	no	57	0	507	0	0			0	0			1				0	
6.6.1	win	2023-06-14	15:06:01	15:18:58	773863	5a639a04c0d836000107b977	4	1	main_slash	11	main_slash	111	stimuli_distractor_diamondtriangles.svg	stimuli_target_rectanglediamonds.svg	14	yes	53	1	297	0	0			0	0			1				0	
6.6.1	win	2023-06-14	15:06:01	15:18:58	773863	5a639a04c0d836000107b977	4	1	main_slash	11	advance_on_keypress_SLASH	112	stimuli_distractor_diamondtriangles.svg	stimuli_target_rectanglediamonds.svg	14	yes	57	0	440	0	0			0	0			1				0	
6.6.1	win	2023-06-14	15:06:01	15:19:01	776948	5a639a04c0d836000107b977	4	1	main_slash	11	main_slash	113	stimuli_target_trianglerectangles.svg	stimuli_distractor_diamondtriangles.svg	21	yes	0	0	2000	0	0			0	0			1				0	
6.6.1	win	2023-06-14	15:06:01	15:19:01	776948	5a639a04c0d836000107b977	4	1	main_slash	11	advance_on_keypress_SLASH	114	stimuli_target_trianglerectangles.svg	stimuli_distractor_diamondtriangles.svg	21	yes	57	0	907	0	0			0	0			1				0	
6.6.1	win	2023-06-14	15:06:01	15:19:03	778685	5a639a04c0d836000107b977	4	1	main_slash	11	main_slash	115	stimuli_distractor_diamondtriangles.svg	stimuli_target_diamondsquares.svg	32	yes	53	1	191	0	0			0	0			1				0	
6.6.1	win	2023-06-14	15:06:01	15:19:03	778685	5a639a04c0d836000107b977	4	1	main_slash	11	advance_on_keypress_SLASH	116	stimuli_distractor_diamondtriangles.svg	stimuli_target_diamondsquares.svg	32	yes	57	0	426	0	0			0	0			1				0	
6.6.1	win	2023-06-14	15:06:01	15:19:06	781744	5a639a04c0d836000107b977	4	1	main_slash	11	main_slash	117	stimuli_distractor_diamondtriangles.svg	stimuli_target_rectangletriangles.svg	13	yes	0	0	2000	0	0			0	0			1				0	
6.6.1	win	2023-06-14	15:06:01	15:19:06	781744	5a639a04c0d836000107b977	4	1	main_slash	11	advance_on_keypress_SLASH	118	stimuli_distractor_diamondtriangles.svg	stimuli_target_rectangletriangles.svg	13	yes	57	0	290	0	0			0	0			1				0	
6.6.1	win	2023-06-14	15:06:01	15:19:09	784674	5a639a04c0d836000107b977	4	1	main_slash	11	main_slash	119	stimuli_distractor_trianglediamonds.svg	stimuli_target_trianglesquares.svg	26	yes	0	0	2000	0	0			0	0			1				0	
6.6.1	win	2023-06-14	15:06:01	15:19:09	784674	5a639a04c0d836000107b977	4	1	main_slash	11	advance_on_keypress_SLASH	120	stimuli_distractor_trianglediamonds.svg	stimuli_target_trianglesquares.svg	26	yes	57	0	281	0	0			0	0			1				0	
6.6.1	win	2023-06-14	15:06:01	15:19:10	785851	5a639a04c0d836000107b977	4	1	main_slash	11	main_slash	121	stimuli_target_trianglesquares.svg	stimuli_distractor_diamondtriangles.svg	22	yes	53	1	246	0	0			0	0			1				0	
6.6.1	win	2023-06-14	15:06:01	15:19:10	785851	5a639a04c0d836000107b977	4	1	main_slash	11	advance_on_keypress_SLASH	122	stimuli_target_trianglesquares.svg	stimuli_distractor_diamondtriangles.svg	22	yes	57	0	391	0	0			0	0			1				0	
6.6.1	win	2023-06-14	15:06:01	15:19:11	787180	5a639a04c0d836000107b977	4	1	main_slash	11	main_slash	123	stimuli_target_diamondrectangles.svg	stimuli_distractor_diamondtriangles.svg	23	yes	53	1	293	0	0			0	0			1				0	
6.6.1	win	2023-06-14	15:06:01	15:19:11	787180	5a639a04c0d836000107b977	4	1	main_slash	11	advance_on_keypress_SLASH	124	stimuli_target_diamondrectangles.svg	stimuli_distractor_diamondtriangles.svg	23	yes	57	0	300	0	0			0	0			1				0	
6.6.1	win	2023-06-14	15:06:01	15:19:14	790119	5a639a04c0d836000107b977	4	1	main_slash	11	main_slash	125	stimuli_distractor_diamondtriangles.svg	stimuli_distractor_diamondtriangles.svg	39	no	0	1	2000	0	0			0	0			1				0	
6.6.1	win	2023-06-14	15:06:01	15:19:14	790119	5a639a04c0d836000107b977	4	1	main_slash	11	advance_on_keypress_SLASH	126	stimuli_distractor_diamondtriangles.svg	stimuli_distractor_diamondtriangles.svg	39	no	57	0	824	0	0			0	0			1				0	
6.6.1	win	2023-06-14	15:06:01	15:19:16	791909	5a639a04c0d836000107b977	4	1	main_slash	11	main_slash	127	stimuli_distractor_diamondtriangles.svg	stimuli_distractor_diamondtriangles.svg	40	no	53	0	328	0	0			0	0			1				0	
6.6.1	win	2023-06-14	15:06:01	15:19:16	791909	5a639a04c0d836000107b977	4	1	main_slash	11	advance_on_keypress_SLASH	128	stimuli_distractor_diamondtriangles.svg	stimuli_distractor_diamondtriangles.svg	40	no	57	0	471	0	0			0	0			1				0	
6.6.1	win	2023-06-14	15:06:01	15:19:17	793229	5a639a04c0d836000107b977	4	1	main_slash	11	main_slash	129	stimuli_target_rectangletriangles.svg	stimuli_distractor_trianglediamonds.svg	1	yes	53	1	215	0	0			0	0			1				0	
6.6.1	win	2023-06-14	15:06:01	15:19:17	793229	5a639a04c0d836000107b977	4	1	main_slash	11	advance_on_keypress_SLASH	130	stimuli_target_rectangletriangles.svg	stimuli_distractor_trianglediamonds.svg	1	yes	57	0	349	0	0			0	0			1				0	
6.6.1	win	2023-06-14	15:06:01	15:19:19	794424	5a639a04c0d836000107b977	4	1	main_slash	11	main_slash	131	stimuli_target_diamondsquares.svg	stimuli_distractor_trianglediamonds.svg	20	yes	53	1	194	0	0			0	0			1				0	
6.6.1	win	2023-06-14	15:06:01	15:19:19	794424	5a639a04c0d836000107b977	4	1	main_slash	11	advance_on_keypress_SLASH	132	stimuli_target_diamondsquares.svg	stimuli_distractor_trianglediamonds.svg	20	yes	57	0	398	0	0			0	0			1				0	
6.6.1	win	2023-06-14	15:06:01	15:19:20	795733	5a639a04c0d836000107b977	4	1	main_slash	11	main_slash	133	stimuli_distractor_trianglediamonds.svg	stimuli_distractor_trianglediamonds.svg	34	no	53	0	256	0	0			0	0			1				0	
6.6.1	win	2023-06-14	15:06:01	15:19:20	795733	5a639a04c0d836000107b977	4	1	main_slash	11	advance_on_keypress_SLASH	134	stimuli_distractor_trianglediamonds.svg	stimuli_distractor_trianglediamonds.svg	34	no	57	0	434	0	0			0	0			1				0	
6.6.1	win	2023-06-14	15:06:01	15:19:23	798811	5a639a04c0d836000107b977	4	1	main_slash	11	main_slash	135	stimuli_distractor_diamondtriangles.svg	stimuli_target_trianglerectangles.svg	29	yes	0	0	2000	0	0			0	0			1				0	
6.6.1	win	2023-06-14	15:06:01	15:19:23	798811	5a639a04c0d836000107b977	4	1	main_slash	11	advance_on_keypress_SLASH	136	stimuli_distractor_diamondtriangles.svg	stimuli_target_trianglerectangles.svg	29	yes	57	0	484	0	0			0	0			1				0	
6.6.1	win	2023-06-14	15:06:01	15:19:24	800275	5a639a04c0d836000107b977	4	1	main_slash	11	main_slash	137	stimuli_distractor_diamondtriangles.svg	stimuli_target_squarediamonds.svg	16	yes	53	1	334	0	0			0	0			1				0	
6.6.1	win	2023-06-14	15:06:01	15:19:24	800275	5a639a04c0d836000107b977	4	1	main_slash	11	advance_on_keypress_SLASH	138	stimuli_distractor_diamondtriangles.svg	stimuli_target_squarediamonds.svg	16	yes	57	0	326	0	0			0	0			1				0	
6.6.1	win	2023-06-14	15:06:01	15:19:26	801528	5a639a04c0d836000107b977	4	1	main_slash	11	main_slash	139	stimuli_target_trianglerectangles.svg	stimuli_distractor_trianglediamonds.svg	17	yes	53	1	289	0	0			0	0			1				0	
6.6.1	win	2023-06-14	15:06:01	15:19:26	801528	5a639a04c0d836000107b977	4	1	main_slash	11	advance_on_keypress_SLASH	140	stimuli_target_trianglerectangles.svg	stimuli_distractor_trianglediamonds.svg	17	yes	57	0	399	0	0			0	0			1				0	
6.6.1	win	2023-06-14	15:06:01	15:19:27	802794	5a639a04c0d836000107b977	4	1	main_slash	11	main_slash	141	stimuli_target_diamondrectangles.svg	stimuli_distractor_trianglediamonds.svg	19	yes	53	1	224	0	0			0	0			1				0	
6.6.1	win	2023-06-14	15:06:01	15:19:27	802794	5a639a04c0d836000107b977	4	1	main_slash	11	advance_on_keypress_SLASH	142	stimuli_target_diamondrectangles.svg	stimuli_distractor_trianglediamonds.svg	19	yes	57	0	340	0	0			0	0			1				0	
6.6.1	win	2023-06-14	15:06:01	15:19:28	804128	5a639a04c0d836000107b977	4	1	main_slash	11	main_slash	143	stimuli_distractor_diamondtriangles.svg	stimuli_target_squaretriangles.svg	15	yes	53	1	359	0	0			0	0			1				0	
6.6.1	win	2023-06-14	15:06:01	15:19:28	804128	5a639a04c0d836000107b977	4	1	main_slash	11	advance_on_keypress_SLASH	144	stimuli_distractor_diamondtriangles.svg	stimuli_target_squaretriangles.svg	15	yes	57	0	390	0	0			0	0			1				0	
6.6.1	win	2023-06-14	15:06:01	15:19:31	807152	5a639a04c0d836000107b977	4	1	main_slash	11	main_slash	145	stimuli_target_squaretriangles.svg	stimuli_distractor_trianglediamonds.svg	3	yes	0	0	2000	0	0			0	0			1				0	
6.6.1	win	2023-06-14	15:06:01	15:19:31	807152	5a639a04c0d836000107b977	4	1	main_slash	11	advance_on_keypress_SLASH	146	stimuli_target_squaretriangles.svg	stimuli_distractor_trianglediamonds.svg	3	yes	57	0	330	0	0			0	0			1				0	
6.6.1	win	2023-06-14	15:06:01	15:19:33	808363	5a639a04c0d836000107b977	4	1	main_slash	11	main_slash	147	stimuli_distractor_trianglediamonds.svg	stimuli_target_rectanglediamonds.svg	10	yes	53	1	230	0	0			0	0			1				0	
6.6.1	win	2023-06-14	15:06:01	15:19:33	808363	5a639a04c0d836000107b977	4	1	main_slash	11	advance_on_keypress_SLASH	148	stimuli_distractor_trianglediamonds.svg	stimuli_target_rectanglediamonds.svg	10	yes	57	0	437	0	0			0	0			1				0	
6.6.1	win	2023-06-14	15:06:01	15:19:34	809717	5a639a04c0d836000107b977	4	1	main_slash	11	main_slash	149	stimuli_distractor_trianglediamonds.svg	stimuli_target_rectangletriangles.svg	9	yes	53	1	270	0	0			0	0			1				0	
6.6.1	win	2023-06-14	15:06:01	15:19:34	809717	5a639a04c0d836000107b977	4	1	main_slash	11	advance_on_keypress_SLASH	150	stimuli_distractor_trianglediamonds.svg	stimuli_target_rectangletriangles.svg	9	yes	57	0	479	0	0			0	0			1				0	
6.6.1	win	2023-06-14	15:06:01	15:19:35	811129	5a639a04c0d836000107b977	4	1	main_slash	11	main_slash	151	stimuli_target_squarediamonds.svg	stimuli_distractor_diamondtriangles.svg	8	yes	53	1	282	0	0			0	0			1				0	
6.6.1	win	2023-06-14	15:06:01	15:19:35	811129	5a639a04c0d836000107b977	4	1	main_slash	11	advance_on_keypress_SLASH	152	stimuli_target_squarediamonds.svg	stimuli_distractor_diamondtriangles.svg	8	yes	57	0	331	0	0			0	0			1				0	
6.6.1	win	2023-06-14	15:06:01	15:19:37	812322	5a639a04c0d836000107b977	4	1	main_slash	11	main_slash	153	stimuli_target_rectanglediamonds.svg	stimuli_distractor_diamondtriangles.svg	6	yes	53	1	211	0	0			0	0			1				0	
6.6.1	win	2023-06-14	15:06:01	15:19:37	812322	5a639a04c0d836000107b977	4	1	main_slash	11	advance_on_keypress_SLASH	154	stimuli_target_rectanglediamonds.svg	stimuli_distractor_diamondtriangles.svg	6	yes	57	0	426	0	0			0	0			1				0	
6.6.1	win	2023-06-14	15:06:01	15:19:38	813584	5a639a04c0d836000107b977	4	1	main_slash	11	main_slash	155	stimuli_distractor_trianglediamonds.svg	stimuli_distractor_trianglediamonds.svg	33	no	53	0	208	0	0			0	0			1				0	
6.6.1	win	2023-06-14	15:06:01	15:19:38	813584	5a639a04c0d836000107b977	4	1	main_slash	11	advance_on_keypress_SLASH	156	stimuli_distractor_trianglediamonds.svg	stimuli_distractor_trianglediamonds.svg	33	no	57	0	464	0	0			0	0			1				0	
6.6.1	win	2023-06-14	15:06:01	15:19:41	816693	5a639a04c0d836000107b977	4	1	main_slash	11	main_slash	157	stimuli_distractor_trianglediamonds.svg	stimuli_target_trianglerectangles.svg	25	yes	0	0	2000	0	0			0	0			1				0	
6.6.1	win	2023-06-14	15:06:01	15:19:41	816693	5a639a04c0d836000107b977	4	1	main_slash	11	advance_on_keypress_SLASH	158	stimuli_distractor_trianglediamonds.svg	stimuli_target_trianglerectangles.svg	25	yes	57	0	542	0	0			0	0			1				0	
6.6.1	win	2023-06-14	15:06:01	15:19:42	817928	5a639a04c0d836000107b977	4	1	main_slash	11	main_slash	159	stimuli_distractor_trianglediamonds.svg	stimuli_target_diamondrectangles.svg	27	yes	53	1	56	0	0			0	0			1				0	
6.6.1	win	2023-06-14	15:06:01	15:19:42	817928	5a639a04c0d836000107b977	4	1	main_slash	11	advance_on_keypress_SLASH	160	stimuli_distractor_trianglediamonds.svg	stimuli_target_diamondrectangles.svg	27	yes	57	0	472	0	0			0	0			1				0	
6.6.1	win	2023-06-14	15:06:01	15:19:42	817928	5a639a04c0d836000107b977	4	1	headphonecheck_calibration	14	headphonecheck_calibrationIntro	1	stimuli_distractor_trianglediamonds.svg	stimuli_target_diamondrectangles.svg	27	yes	calibrationButton	0	6859	0	0			0	0			1				0	
6.6.1	win	2023-06-14	15:06:01	15:19:42	817928	5a639a04c0d836000107b977	4	1	headphonecheck_testphase	15	test_collectResponse	3	stimuli_distractor_trianglediamonds.svg	stimuli_target_diamondrectangles.svg	27	yes	first	1	2470	1	4	antiphase_hc_sio.wav	1	0	0			1				0	
6.6.1	win	2023-06-14	15:06:01	15:19:42	817928	5a639a04c0d836000107b977	4	1	headphonecheck_testphase	15	test_collectResponse	6	stimuli_distractor_trianglediamonds.svg	stimuli_target_diamondrectangles.svg	27	yes	first	1	956	2	3	antiphase_hc_soi.wav	1	0	0			1				0	
6.6.1	win	2023-06-14	15:06:01	15:19:42	817928	5a639a04c0d836000107b977	4	1	headphonecheck_testphase	15	test_collectResponse	9	stimuli_distractor_trianglediamonds.svg	stimuli_target_diamondrectangles.svg	27	yes	second	1	365	3	5	antiphase_hc_osi.wav	2	0	0			1				0	
6.6.1	win	2023-06-14	15:06:01	15:19:42	817928	5a639a04c0d836000107b977	4	1	headphonecheck_testphase	15	test_collectResponse	12	stimuli_distractor_trianglediamonds.svg	stimuli_target_diamondrectangles.svg	27	yes	second	0	303	4	2	antiphase_hc_ios.wav	3	0	0			1				0	
6.6.1	win	2023-06-14	15:06:01	15:19:42	817928	5a639a04c0d836000107b977	4	1	headphonecheck_testphase	15	test_collectResponse	15	stimuli_distractor_trianglediamonds.svg	stimuli_target_diamondrectangles.svg	27	yes	third	0	306	5	1	antiphase_hc_iso.wav	2	0	0			1				0	
6.6.1	win	2023-06-14	15:06:01	15:19:42	817928	5a639a04c0d836000107b977	4	1	headphonecheck_testphase	15	test_collectResponse	18	stimuli_distractor_trianglediamonds.svg	stimuli_target_diamondrectangles.svg	27	yes	third	1	530	6	6	antiphase_hc_ois.wav	3	0	0			1				0	
6.6.1	win	2023-06-14	15:06:01	15:19:42	817928	5a639a04c0d836000107b977	4	1	stereocheck_calibration	17	stereocheck_calibrationIntro	1	stimuli_distractor_trianglediamonds.svg	stimuli_target_diamondrectangles.svg	27	yes	stereocheck_calibrationButton	0	1658	6	6	antiphase_hc_ois.wav	3	0	0			1				0	
6.6.1	win	2023-06-14	15:06:01	15:19:42	817928	5a639a04c0d836000107b977	4	1	stereocheck_testphase	18	stereocheck_test_collectResponse	3	stimuli_distractor_trianglediamonds.svg	stimuli_target_diamondrectangles.svg	27	yes	stereocheck_left	1	4345	6	6	antiphase_hc_ois.wav	3	1	1	noise_calib_stim_LEFT.wav	1	1				0	
6.6.1	win	2023-06-14	15:06:01	15:19:42	817928	5a639a04c0d836000107b977	4	1	stereocheck_testphase	18	stereocheck_test_collectResponse	6	stimuli_distractor_trianglediamonds.svg	stimuli_target_diamondrectangles.svg	27	yes	stereocheck_right	1	336	6	6	antiphase_hc_ois.wav	3	2	6	noise_calib_stim_RIGHT.wav	2	1				0	
6.6.1	win	2023-06-14	15:06:01	15:19:42	817928	5a639a04c0d836000107b977	4	1	stereocheck_testphase	18	stereocheck_test_collectResponse	9	stimuli_distractor_trianglediamonds.svg	stimuli_target_diamondrectangles.svg	27	yes	stereocheck_left	1	277	6	6	antiphase_hc_ois.wav	3	3	2	noise_calib_stim_LEFT.wav	1	1				0	
6.6.1	win	2023-06-14	15:06:01	15:19:42	817928	5a639a04c0d836000107b977	4	1	stereocheck_testphase	18	stereocheck_test_collectResponse	12	stimuli_distractor_trianglediamonds.svg	stimuli_target_diamondrectangles.svg	27	yes	stereocheck_right	1	362	6	6	antiphase_hc_ois.wav	3	4	4	noise_calib_stim_RIGHT.wav	2	1				0	
6.6.1	win	2023-06-14	15:06:01	15:19:42	817928	5a639a04c0d836000107b977	4	1	stereocheck_testphase	18	stereocheck_test_collectResponse	15	stimuli_distractor_trianglediamonds.svg	stimuli_target_diamondrectangles.svg	27	yes	stereocheck_left	1	78	6	6	antiphase_hc_ois.wav	3	5	3	noise_calib_stim_LEFT.wav	1	1				0	
6.6.1	win	2023-06-14	15:06:01	15:19:42	817928	5a639a04c0d836000107b977	4	1	stereocheck_testphase	18	stereocheck_test_collectResponse	18	stimuli_distractor_trianglediamonds.svg	stimuli_target_diamondrectangles.svg	27	yes	stereocheck_right	1	266	6	6	antiphase_hc_ois.wav	3	6	5	noise_calib_stim_RIGHT.wav	2	1				0	
6.6.1	win	2023-06-14	15:06:01	15:19:42	817928	5a639a04c0d836000107b977	4	1	DL_practice	21	DL_practice	2	stimuli_distractor_trianglediamonds.svg	stimuli_target_diamondrectangles.svg	27	yes	ka	1	1224	6	6	antiphase_hc_ois.wav	3	6	5	noise_calib_stim_RIGHT.wav	2	22	blb_dichoticlistening_ka-ka.mp3	ka	ka	0	left
6.6.1	win	2023-06-14	15:06:01	15:19:42	817928	5a639a04c0d836000107b977	4	1	DL_practice	21	DL_practice	3	stimuli_distractor_trianglediamonds.svg	stimuli_target_diamondrectangles.svg	27	yes	ba	1	3376	6	6	antiphase_hc_ois.wav	3	6	5	noise_calib_stim_RIGHT.wav	2	7	blb_dichoticlistening_da-ba.mp3	da	ba	1	right
6.6.1	win	2023-06-14	15:06:01	15:19:42	817928	5a639a04c0d836000107b977	4	1	DL_practice	21	DL_practice	4	stimuli_distractor_trianglediamonds.svg	stimuli_target_diamondrectangles.svg	27	yes	ga	1	1150	6	6	antiphase_hc_ois.wav	3	6	5	noise_calib_stim_RIGHT.wav	2	15	blb_dichoticlistening_ga-ga.mp3	ga	ga	0	left
6.6.1	win	2023-06-14	15:06:01	15:19:42	817928	5a639a04c0d836000107b977	4	1	DL_practice	21	DL_practice	5	stimuli_distractor_trianglediamonds.svg	stimuli_target_diamondrectangles.svg	27	yes	ta	1	1049	6	6	antiphase_hc_ois.wav	3	6	5	noise_calib_stim_RIGHT.wav	2	36	blb_dichoticlistening_ta-ta.mp3	ta	ta	0	left
6.6.1	win	2023-06-14	15:06:01	15:19:42	817928	5a639a04c0d836000107b977	4	1	DL_practice	21	DL_practice	6	stimuli_distractor_trianglediamonds.svg	stimuli_target_diamondrectangles.svg	27	yes	da	1	999	6	6	antiphase_hc_ois.wav	3	6	5	noise_calib_stim_RIGHT.wav	2	8	blb_dichoticlistening_da-da.mp3	da	da	0	left
6.6.1	win	2023-06-14	15:06:01	15:19:42	817928	5a639a04c0d836000107b977	4	1	DL_practice	21	DL_practice	7	stimuli_distractor_trianglediamonds.svg	stimuli_target_diamondrectangles.svg	27	yes	ka	1	998	6	6	antiphase_hc_ois.wav	3	6	5	noise_calib_stim_RIGHT.wav	2	23	blb_dichoticlistening_ka-pa.mp3	ka	pa	1	left
6.6.1	win	2023-06-14	15:06:01	15:19:42	817928	5a639a04c0d836000107b977	4	1	DL_practice	21	DL_practice	8	stimuli_distractor_trianglediamonds.svg	stimuli_target_diamondrectangles.svg	27	yes	ba	1	891	6	6	antiphase_hc_ois.wav	3	6	5	noise_calib_stim_RIGHT.wav	2	1	blb_dichoticlistening_ba-ba.mp3	ba	ba	0	left
6.6.1	win	2023-06-14	15:06:01	15:19:42	817928	5a639a04c0d836000107b977	4	1	DL_practice	21	DL_practice	9	stimuli_distractor_trianglediamonds.svg	stimuli_target_diamondrectangles.svg	27	yes	ga	1	1547	6	6	antiphase_hc_ois.wav	3	6	5	noise_calib_stim_RIGHT.wav	2	18	blb_dichoticlistening_ga-ta.mp3	ga	ta	1	left
6.6.1	win	2023-06-14	15:06:01	15:19:42	817928	5a639a04c0d836000107b977	4	1	DL_practice	21	DL_practice	10	stimuli_distractor_trianglediamonds.svg	stimuli_target_diamondrectangles.svg	27	yes	pa	1	1501	6	6	antiphase_hc_ois.wav	3	6	5	noise_calib_stim_RIGHT.wav	2	29	blb_dichoticlistening_pa-pa.mp3	pa	pa	0	left
6.6.1	win	2023-06-14	15:06:01	15:19:42	817928	5a639a04c0d836000107b977	4	1	DL_test	23	DL_test	1	stimuli_distractor_trianglediamonds.svg	stimuli_target_diamondrectangles.svg	27	yes	da	1	779	6	6	antiphase_hc_ois.wav	3	6	5	noise_calib_stim_RIGHT.wav	2	10	blb_dichoticlistening_da-ka.mp3	da	ka	1	left
6.6.1	win	2023-06-14	15:06:01	15:19:42	817928	5a639a04c0d836000107b977	4	1	DL_test	23	DL_test	2	stimuli_distractor_trianglediamonds.svg	stimuli_target_diamondrectangles.svg	27	yes	ta	1	1067	6	6	antiphase_hc_ois.wav	3	6	5	noise_calib_stim_RIGHT.wav	2	30	blb_dichoticlistening_pa-ta.mp3	pa	ta	1	right
6.6.1	win	2023-06-14	15:06:01	15:19:42	817928	5a639a04c0d836000107b977	4	1	DL_test	23	DL_test	3	stimuli_distractor_trianglediamonds.svg	stimuli_target_diamondrectangles.svg	27	yes	da	1	743	6	6	antiphase_hc_ois.wav	3	6	5	noise_calib_stim_RIGHT.wav	2	11	blb_dichoticlistening_da-pa.mp3	da	pa	1	left
6.6.1	win	2023-06-14	15:06:01	15:19:42	817928	5a639a04c0d836000107b977	4	1	DL_test	23	DL_test	4	stimuli_distractor_trianglediamonds.svg	stimuli_target_diamondrectangles.svg	27	yes	ga	1	801	6	6	antiphase_hc_ois.wav	3	6	5	noise_calib_stim_RIGHT.wav	2	16	blb_dichoticlistening_ga-ka.mp3	ga	ka	1	left
6.6.1	win	2023-06-14	15:06:01	15:19:42	817928	5a639a04c0d836000107b977	4	1	DL_test	23	DL_test	5	stimuli_distractor_trianglediamonds.svg	stimuli_target_diamondrectangles.svg	27	yes	da	1	1127	6	6	antiphase_hc_ois.wav	3	6	5	noise_calib_stim_RIGHT.wav	2	12	blb_dichoticlistening_da-ta.mp3	da	ta	1	left
6.6.1	win	2023-06-14	15:06:01	15:19:42	817928	5a639a04c0d836000107b977	4	1	DL_test	23	DL_test	6	stimuli_distractor_trianglediamonds.svg	stimuli_target_diamondrectangles.svg	27	yes	da	1	1018	6	6	antiphase_hc_ois.wav	3	6	5	noise_calib_stim_RIGHT.wav	2	8	blb_dichoticlistening_da-da.mp3	da	da	0	left
6.6.1	win	2023-06-14	15:06:01	15:19:42	817928	5a639a04c0d836000107b977	4	1	DL_test	23	DL_test	7	stimuli_distractor_trianglediamonds.svg	stimuli_target_diamondrectangles.svg	27	yes	pa	0	1563	6	6	antiphase_hc_ois.wav	3	6	5	noise_calib_stim_RIGHT.wav	2	6	blb_dichoticlistening_ba-ta.mp3	ba	ta	1	other
6.6.1	win	2023-06-14	15:06:01	15:19:42	817928	5a639a04c0d836000107b977	4	1	DL_test	23	DL_test	8	stimuli_distractor_trianglediamonds.svg	stimuli_target_diamondrectangles.svg	27	yes	da	1	980	6	6	antiphase_hc_ois.wav	3	6	5	noise_calib_stim_RIGHT.wav	2	32	blb_dichoticlistening_ta-da.mp3	ta	da	1	right
6.6.1	win	2023-06-14	15:06:01	15:19:42	817928	5a639a04c0d836000107b977	4	1	DL_test	23	DL_test	9	stimuli_distractor_trianglediamonds.svg	stimuli_target_diamondrectangles.svg	27	yes	da	1	962	6	6	antiphase_hc_ois.wav	3	6	5	noise_calib_stim_RIGHT.wav	2	9	blb_dichoticlistening_da-ga.mp3	da	ga	1	left
6.6.1	win	2023-06-14	15:06:01	15:19:42	817928	5a639a04c0d836000107b977	4	1	DL_test	23	DL_test	10	stimuli_distractor_trianglediamonds.svg	stimuli_target_diamondrectangles.svg	27	yes	ba	1	963	6	6	antiphase_hc_ois.wav	3	6	5	noise_calib_stim_RIGHT.wav	2	25	blb_dichoticlistening_pa-ba.mp3	pa	ba	1	right
6.6.1	win	2023-06-14	15:06:01	15:19:42	817928	5a639a04c0d836000107b977	4	1	DL_test	23	DL_test	11	stimuli_distractor_trianglediamonds.svg	stimuli_target_diamondrectangles.svg	27	yes	ga	1	691	6	6	antiphase_hc_ois.wav	3	6	5	noise_calib_stim_RIGHT.wav	2	27	blb_dichoticlistening_pa-ga.mp3	pa	ga	1	right
6.6.1	win	2023-06-14	15:06:01	15:19:42	817928	5a639a04c0d836000107b977	4	1	DL_test	23	DL_test	12	stimuli_distractor_trianglediamonds.svg	stimuli_target_diamondrectangles.svg	27	yes	ba	1	1439	6	6	antiphase_hc_ois.wav	3	6	5	noise_calib_stim_RIGHT.wav	2	13	blb_dichoticlistening_ga-ba.mp3	ga	ba	1	right
6.6.1	win	2023-06-14	15:06:01	15:19:42	817928	5a639a04c0d836000107b977	4	1	DL_test	23	DL_test	13	stimuli_distractor_trianglediamonds.svg	stimuli_target_diamondrectangles.svg	27	yes	da	1	871	6	6	antiphase_hc_ois.wav	3	6	5	noise_calib_stim_RIGHT.wav	2	26	blb_dichoticlistening_pa-da.mp3	pa	da	1	right
6.6.1	win	2023-06-14	15:06:01	15:19:42	817928	5a639a04c0d836000107b977	4	1	DL_test	23	DL_test	14	stimuli_distractor_trianglediamonds.svg	stimuli_target_diamondrectangles.svg	27	yes	ka	1	807	6	6	antiphase_hc_ois.wav	3	6	5	noise_calib_stim_RIGHT.wav	2	22	blb_dichoticlistening_ka-ka.mp3	ka	ka	0	left
6.6.1	win	2023-06-14	15:06:01	15:19:42	817928	5a639a04c0d836000107b977	4	1	DL_test	23	DL_test	15	stimuli_distractor_trianglediamonds.svg	stimuli_target_diamondrectangles.svg	27	yes	ka	1	734	6	6	antiphase_hc_ois.wav	3	6	5	noise_calib_stim_RIGHT.wav	2	34	blb_dichoticlistening_ta-ka.mp3	ta	ka	1	right
6.6.1	win	2023-06-14	15:06:01	15:19:42	817928	5a639a04c0d836000107b977	4	1	DL_test	23	DL_test	16	stimuli_distractor_trianglediamonds.svg	stimuli_target_diamondrectangles.svg	27	yes	ba	1	1130	6	6	antiphase_hc_ois.wav	3	6	5	noise_calib_stim_RIGHT.wav	2	1	blb_dichoticlistening_ba-ba.mp3	ba	ba	0	left
6.6.1	win	2023-06-14	15:06:01	15:19:42	817928	5a639a04c0d836000107b977	4	1	DL_test	23	DL_test	17	stimuli_distractor_trianglediamonds.svg	stimuli_target_diamondrectangles.svg	27	yes	ta	0	1676	6	6	antiphase_hc_ois.wav	3	6	5	noise_calib_stim_RIGHT.wav	2	23	blb_dichoticlistening_ka-pa.mp3	ka	pa	1	other
6.6.1	win	2023-06-14	15:06:01	15:19:42	817928	5a639a04c0d836000107b977	4	1	DL_test	23	DL_test	18	stimuli_distractor_trianglediamonds.svg	stimuli_target_diamondrectangles.svg	27	yes	ta	1	1257	6	6	antiphase_hc_ois.wav	3	6	5	noise_calib_stim_RIGHT.wav	2	36	blb_dichoticlistening_ta-ta.mp3	ta	ta	0	left
6.6.1	win	2023-06-14	15:06:01	15:19:42	817928	5a639a04c0d836000107b977	4	1	DL_test	23	DL_test	19	stimuli_distractor_trianglediamonds.svg	stimuli_target_diamondrectangles.svg	27	yes	ka	1	910	6	6	antiphase_hc_ois.wav	3	6	5	noise_calib_stim_RIGHT.wav	2	24	blb_dichoticlistening_ka-ta.mp3	ka	ta	1	left
6.6.1	win	2023-06-14	15:06:01	15:19:42	817928	5a639a04c0d836000107b977	4	1	DL_test	23	DL_test	20	stimuli_distractor_trianglediamonds.svg	stimuli_target_diamondrectangles.svg	27	yes	ba	1	1267	6	6	antiphase_hc_ois.wav	3	6	5	noise_calib_stim_RIGHT.wav	2	7	blb_dichoticlistening_da-ba.mp3	da	ba	1	right
6.6.1	win	2023-06-14	15:06:01	15:19:42	817928	5a639a04c0d836000107b977	4	1	DL_test	23	DL_test	21	stimuli_distractor_trianglediamonds.svg	stimuli_target_diamondrectangles.svg	27	yes	ba	1	1274	6	6	antiphase_hc_ois.wav	3	6	5	noise_calib_stim_RIGHT.wav	2	31	blb_dichoticlistening_ta-ba.mp3	ta	ba	1	right
6.6.1	win	2023-06-14	15:06:01	15:19:42	817928	5a639a04c0d836000107b977	4	1	DL_test	23	DL_test	22	stimuli_distractor_trianglediamonds.svg	stimuli_target_diamondrectangles.svg	27	yes	ga	1	873	6	6	antiphase_hc_ois.wav	3	6	5	noise_calib_stim_RIGHT.wav	2	18	blb_dichoticlistening_ga-ta.mp3	ga	ta	1	left
6.6.1	win	2023-06-14	15:06:01	15:19:42	817928	5a639a04c0d836000107b977	4	1	DL_test	23	DL_test	23	stimuli_distractor_trianglediamonds.svg	stimuli_target_diamondrectangles.svg	27	yes	ga	1	1277	6	6	antiphase_hc_ois.wav	3	6	5	noise_calib_stim_RIGHT.wav	2	14	blb_dichoticlistening_ga-da.mp3	ga	da	1	left
6.6.1	win	2023-06-14	15:06:01	15:19:42	817928	5a639a04c0d836000107b977	4	1	DL_test	23	DL_test	24	stimuli_distractor_trianglediamonds.svg	stimuli_target_diamondrectangles.svg	27	yes	ba	1	1219	6	6	antiphase_hc_ois.wav	3	6	5	noise_calib_stim_RIGHT.wav	2	2	blb_dichoticlistening_ba-da.mp3	ba	da	1	left
6.6.1	win	2023-06-14	15:06:01	15:19:42	817928	5a639a04c0d836000107b977	4	1	DL_test	23	DL_test	25	stimuli_distractor_trianglediamonds.svg	stimuli_target_diamondrectangles.svg	27	yes	pa	0	1432	6	6	antiphase_hc_ois.wav	3	6	5	noise_calib_stim_RIGHT.wav	2	4	blb_dichoticlistening_ba-ka.mp3	ba	ka	1	other
6.6.1	win	2023-06-14	15:06:01	15:19:42	817928	5a639a04c0d836000107b977	4	1	DL_test	23	DL_test	26	stimuli_distractor_trianglediamonds.svg	stimuli_target_diamondrectangles.svg	27	yes	da	0	1257	6	6	antiphase_hc_ois.wav	3	6	5	noise_calib_stim_RIGHT.wav	2	33	blb_dichoticlistening_ta-ga.mp3	ta	ga	1	other
