build	computer.platform	date	time	timestamp	time_elapsed_ms	subject	group	session	blockcode	blocknum	trialcode	trialnum	stimulus_left	stimulus_right	stim_index	target_present	response	correct	latency	headphonecheck_countTestTrials	headphonecheck_index	headphonecheck_testSound	headphonecheck_correctResponse	stereocheck_countTestTrials	stereocheck_index	stereocheck_testSound	stereocheck_correctResponse	DL_index	DL_soundfile	DL_leftSound	DL_rightSound	DL_dualSound	DL_choice
6.6.1	win	2023-06-02	00:04:17	00:07:30	157507	5b6c72f29dc5550001f8a514	3	1	practice_slash	5	practice_slash	1	stimuli_distractor_diamondtriangles.svg	stimuli_distractor_diamondtriangles.svg	13	no	53	0	699	0	0			0	0			1				0	
6.6.1	win	2023-06-02	00:04:17	00:07:30	157507	5b6c72f29dc5550001f8a514	3	1	practice_slash	5	advance_on_keypress_SLASH	2	stimuli_distractor_diamondtriangles.svg	stimuli_distractor_diamondtriangles.svg	13	no	57	0	936	0	0			0	0			1				0	
6.6.1	win	2023-06-02	00:04:17	00:07:33	160543	5b6c72f29dc5550001f8a514	3	1	practice_slash	5	practice_slash	3	stimuli_distractor_trianglediamonds.svg	stimuli_target_diamondrectangles.svg	12	yes	53	1	460	0	0			0	0			1				0	
6.6.1	win	2023-06-02	00:04:17	00:07:33	160543	5b6c72f29dc5550001f8a514	3	1	practice_slash	5	advance_on_keypress_SLASH	4	stimuli_distractor_trianglediamonds.svg	stimuli_target_diamondrectangles.svg	12	yes	57	0	379	0	0			0	0			1				0	
6.6.1	win	2023-06-02	00:04:17	00:07:37	164550	5b6c72f29dc5550001f8a514	3	1	practice_slash	5	practice_slash	5	stimuli_target_diamondsquares.svg	stimuli_distractor_trianglediamonds.svg	6	yes	0	0	2000	0	0			0	0			1				0	
6.6.1	win	2023-06-02	00:04:17	00:07:37	164550	5b6c72f29dc5550001f8a514	3	1	practice_slash	5	advance_on_keypress_SLASH	6	stimuli_target_diamondsquares.svg	stimuli_distractor_trianglediamonds.svg	6	yes	57	0	482	0	0			0	0			1				0	
6.6.1	win	2023-06-02	00:04:17	00:07:40	167501	5b6c72f29dc5550001f8a514	3	1	practice_slash	5	practice_slash	7	stimuli_target_rectanglediamonds.svg	stimuli_distractor_trianglediamonds.svg	4	yes	53	1	843	0	0			0	0			1				0	
6.6.1	win	2023-06-02	00:04:17	00:07:40	167501	5b6c72f29dc5550001f8a514	3	1	practice_slash	5	advance_on_keypress_SLASH	8	stimuli_target_rectanglediamonds.svg	stimuli_distractor_trianglediamonds.svg	4	yes	57	0	426	0	0			0	0			1				0	
6.6.1	win	2023-06-02	00:04:17	00:07:44	171550	5b6c72f29dc5550001f8a514	3	1	practice_slash	5	practice_slash	9	stimuli_distractor_diamondtriangles.svg	stimuli_distractor_trianglediamonds.svg	14	no	0	1	2000	0	0			0	0			1				0	
6.6.1	win	2023-06-02	00:04:17	00:07:44	171550	5b6c72f29dc5550001f8a514	3	1	practice_slash	5	advance_on_keypress_SLASH	10	stimuli_distractor_diamondtriangles.svg	stimuli_distractor_trianglediamonds.svg	14	no	57	0	460	0	0			0	0			1				0	
6.6.1	win	2023-06-02	00:04:17	00:07:47	174342	5b6c72f29dc5550001f8a514	3	1	practice_slash	5	practice_slash	11	stimuli_distractor_diamondtriangles.svg	stimuli_target_trianglerectangles.svg	9	yes	53	1	700	0	0			0	0			1				0	
6.6.1	win	2023-06-02	00:04:17	00:07:47	174342	5b6c72f29dc5550001f8a514	3	1	practice_slash	5	advance_on_keypress_SLASH	12	stimuli_distractor_diamondtriangles.svg	stimuli_target_trianglerectangles.svg	9	yes	57	0	518	0	0			0	0			1				0	
6.6.1	win	2023-06-02	00:04:17	00:07:50	177458	5b6c72f29dc5550001f8a514	3	1	practice_slash	5	practice_slash	13	stimuli_target_rectanglediamonds.svg	stimuli_distractor_diamondtriangles.svg	1	yes	53	1	973	0	0			0	0			1				0	
6.6.1	win	2023-06-02	00:04:17	00:07:50	177458	5b6c72f29dc5550001f8a514	3	1	practice_slash	5	advance_on_keypress_SLASH	14	stimuli_target_rectanglediamonds.svg	stimuli_distractor_diamondtriangles.svg	1	yes	57	0	460	0	0			0	0			1				0	
6.6.1	win	2023-06-02	00:04:17	00:07:53	180414	5b6c72f29dc5550001f8a514	3	1	practice_slash	5	practice_slash	15	stimuli_distractor_trianglediamonds.svg	stimuli_target_rectanglediamonds.svg	10	yes	53	1	872	0	0			0	0			1				0	
6.6.1	win	2023-06-02	00:04:17	00:07:53	180414	5b6c72f29dc5550001f8a514	3	1	practice_slash	5	advance_on_keypress_SLASH	16	stimuli_distractor_trianglediamonds.svg	stimuli_target_rectanglediamonds.svg	10	yes	57	0	289	0	0			0	0			1				0	
6.6.1	win	2023-06-02	00:04:17	00:07:56	183286	5b6c72f29dc5550001f8a514	3	1	practice_slash	5	practice_slash	17	stimuli_target_squarediamonds.svg	stimuli_distractor_diamondtriangles.svg	2	yes	53	1	952	0	0			0	0			1				0	
6.6.1	win	2023-06-02	00:04:17	00:07:56	183286	5b6c72f29dc5550001f8a514	3	1	practice_slash	5	advance_on_keypress_SLASH	18	stimuli_target_squarediamonds.svg	stimuli_distractor_diamondtriangles.svg	2	yes	57	0	322	0	0			0	0			1				0	
6.6.1	win	2023-06-02	00:04:17	00:08:00	187234	5b6c72f29dc5550001f8a514	3	1	practice_slash	5	practice_slash	19	stimuli_target_diamondsquares.svg	stimuli_distractor_diamondtriangles.svg	3	yes	0	0	2000	0	0			0	0			1				0	
6.6.1	win	2023-06-02	00:04:17	00:08:00	187234	5b6c72f29dc5550001f8a514	3	1	practice_slash	5	advance_on_keypress_SLASH	20	stimuli_target_diamondsquares.svg	stimuli_distractor_diamondtriangles.svg	3	yes	57	0	449	0	0			0	0			1				0	
6.6.1	win	2023-06-02	00:04:17	00:08:03	190018	5b6c72f29dc5550001f8a514	3	1	practice_slash	5	practice_slash	21	stimuli_distractor_diamondtriangles.svg	stimuli_target_rectangletriangles.svg	7	yes	53	1	709	0	0			0	0			1				0	
6.6.1	win	2023-06-02	00:04:17	00:08:03	190018	5b6c72f29dc5550001f8a514	3	1	practice_slash	5	advance_on_keypress_SLASH	22	stimuli_distractor_diamondtriangles.svg	stimuli_target_rectangletriangles.svg	7	yes	57	0	335	0	0			0	0			1				0	
6.6.1	win	2023-06-02	00:04:17	00:08:06	192794	5b6c72f29dc5550001f8a514	3	1	practice_slash	5	practice_slash	23	stimuli_target_squarediamonds.svg	stimuli_distractor_trianglediamonds.svg	5	yes	53	1	818	0	0			0	0			1				0	
6.6.1	win	2023-06-02	00:04:17	00:08:06	192794	5b6c72f29dc5550001f8a514	3	1	practice_slash	5	advance_on_keypress_SLASH	24	stimuli_target_squarediamonds.svg	stimuli_distractor_trianglediamonds.svg	5	yes	57	0	269	0	0			0	0			1				0	
6.6.1	win	2023-06-02	00:04:17	00:08:09	196684	5b6c72f29dc5550001f8a514	3	1	practice_slash	5	practice_slash	25	stimuli_distractor_trianglediamonds.svg	stimuli_distractor_diamondtriangles.svg	16	no	0	1	2000	0	0			0	0			1				0	
6.6.1	win	2023-06-02	00:04:17	00:08:09	196684	5b6c72f29dc5550001f8a514	3	1	practice_slash	5	advance_on_keypress_SLASH	26	stimuli_distractor_trianglediamonds.svg	stimuli_distractor_diamondtriangles.svg	16	no	57	0	389	0	0			0	0			1				0	
6.6.1	win	2023-06-02	00:04:17	00:08:12	199372	5b6c72f29dc5550001f8a514	3	1	practice_slash	5	practice_slash	27	stimuli_distractor_trianglediamonds.svg	stimuli_target_squarediamonds.svg	11	yes	53	1	671	0	0			0	0			1				0	
6.6.1	win	2023-06-02	00:04:17	00:08:12	199372	5b6c72f29dc5550001f8a514	3	1	practice_slash	5	advance_on_keypress_SLASH	28	stimuli_distractor_trianglediamonds.svg	stimuli_target_squarediamonds.svg	11	yes	57	0	304	0	0			0	0			1				0	
6.6.1	win	2023-06-02	00:04:17	00:08:16	203301	5b6c72f29dc5550001f8a514	3	1	practice_slash	5	practice_slash	29	stimuli_distractor_diamondtriangles.svg	stimuli_target_diamondrectangles.svg	8	yes	0	0	2000	0	0			0	0			1				0	
6.6.1	win	2023-06-02	00:04:17	00:08:16	203301	5b6c72f29dc5550001f8a514	3	1	practice_slash	5	advance_on_keypress_SLASH	30	stimuli_distractor_diamondtriangles.svg	stimuli_target_diamondrectangles.svg	8	yes	57	0	271	0	0			0	0			1				0	
6.6.1	win	2023-06-02	00:04:17	00:08:20	207201	5b6c72f29dc5550001f8a514	3	1	practice_slash	5	practice_slash	31	stimuli_distractor_trianglediamonds.svg	stimuli_distractor_trianglediamonds.svg	15	no	0	1	2000	0	0			0	0			1				0	
6.6.1	win	2023-06-02	00:04:17	00:08:20	207201	5b6c72f29dc5550001f8a514	3	1	practice_slash	5	advance_on_keypress_SLASH	32	stimuli_distractor_trianglediamonds.svg	stimuli_distractor_trianglediamonds.svg	15	no	57	0	209	0	0			0	0			1				0	
6.6.1	win	2023-06-02	00:04:17	00:08:26	213033	5b6c72f29dc5550001f8a514	3	1	main_slash	7	main_slash	1	stimuli_distractor_trianglediamonds.svg	stimuli_distractor_diamondtriangles.svg	36	no	0	1	2000	0	0			0	0			1				0	
6.6.1	win	2023-06-02	00:04:17	00:08:26	213033	5b6c72f29dc5550001f8a514	3	1	main_slash	7	advance_on_keypress_SLASH	2	stimuli_distractor_trianglediamonds.svg	stimuli_distractor_diamondtriangles.svg	36	no	57	0	508	0	0			0	0			1				0	
6.6.1	win	2023-06-02	00:04:17	00:08:29	216166	5b6c72f29dc5550001f8a514	3	1	main_slash	7	main_slash	3	stimuli_distractor_diamondtriangles.svg	stimuli_distractor_diamondtriangles.svg	40	no	0	1	2000	0	0			0	0			1				0	
6.6.1	win	2023-06-02	00:04:17	00:08:29	216166	5b6c72f29dc5550001f8a514	3	1	main_slash	7	advance_on_keypress_SLASH	4	stimuli_distractor_diamondtriangles.svg	stimuli_distractor_diamondtriangles.svg	40	no	57	0	356	0	0			0	0			1				0	
6.6.1	win	2023-06-02	00:04:17	00:08:31	217913	5b6c72f29dc5550001f8a514	3	1	main_slash	7	main_slash	5	stimuli_target_rectanglediamonds.svg	stimuli_distractor_diamondtriangles.svg	6	yes	53	1	762	0	0			0	0			1				0	
6.6.1	win	2023-06-02	00:04:17	00:08:31	217913	5b6c72f29dc5550001f8a514	3	1	main_slash	7	advance_on_keypress_SLASH	6	stimuli_target_rectanglediamonds.svg	stimuli_distractor_diamondtriangles.svg	6	yes	57	0	882	0	0			0	0			1				0	
6.6.1	win	2023-06-02	00:04:17	00:08:33	219939	5b6c72f29dc5550001f8a514	3	1	main_slash	7	main_slash	7	stimuli_distractor_trianglediamonds.svg	stimuli_target_rectanglediamonds.svg	10	yes	53	1	514	0	0			0	0			1				0	
6.6.1	win	2023-06-02	00:04:17	00:08:33	219939	5b6c72f29dc5550001f8a514	3	1	main_slash	7	advance_on_keypress_SLASH	8	stimuli_distractor_trianglediamonds.svg	stimuli_target_rectanglediamonds.svg	10	yes	57	0	585	0	0			0	0			1				0	
6.6.1	win	2023-06-02	00:04:17	00:08:35	221872	5b6c72f29dc5550001f8a514	3	1	main_slash	7	main_slash	9	stimuli_distractor_diamondtriangles.svg	stimuli_target_diamondsquares.svg	32	yes	53	1	722	0	0			0	0			1				0	
6.6.1	win	2023-06-02	00:04:17	00:08:35	221872	5b6c72f29dc5550001f8a514	3	1	main_slash	7	advance_on_keypress_SLASH	10	stimuli_distractor_diamondtriangles.svg	stimuli_target_diamondsquares.svg	32	yes	57	0	572	0	0			0	0			1				0	
6.6.1	win	2023-06-02	00:04:17	00:08:36	223560	5b6c72f29dc5550001f8a514	3	1	main_slash	7	main_slash	11	stimuli_distractor_diamondtriangles.svg	stimuli_target_rectanglediamonds.svg	14	yes	53	1	484	0	0			0	0			1				0	
6.6.1	win	2023-06-02	00:04:17	00:08:36	223560	5b6c72f29dc5550001f8a514	3	1	main_slash	7	advance_on_keypress_SLASH	12	stimuli_distractor_diamondtriangles.svg	stimuli_target_rectanglediamonds.svg	14	yes	57	0	588	0	0			0	0			1				0	
6.6.1	win	2023-06-02	00:04:17	00:08:39	226767	5b6c72f29dc5550001f8a514	3	1	main_slash	7	main_slash	13	stimuli_distractor_diamondtriangles.svg	stimuli_distractor_trianglediamonds.svg	37	no	0	1	2000	0	0			0	0			1				0	
6.6.1	win	2023-06-02	00:04:17	00:08:39	226767	5b6c72f29dc5550001f8a514	3	1	main_slash	7	advance_on_keypress_SLASH	14	stimuli_distractor_diamondtriangles.svg	stimuli_distractor_trianglediamonds.svg	37	no	57	0	301	0	0			0	0			1				0	
6.6.1	win	2023-06-02	00:04:17	00:08:42	229692	5b6c72f29dc5550001f8a514	3	1	main_slash	7	main_slash	15	stimuli_distractor_trianglediamonds.svg	stimuli_distractor_trianglediamonds.svg	34	no	0	1	2000	0	0			0	0			1				0	
6.6.1	win	2023-06-02	00:04:17	00:08:42	229692	5b6c72f29dc5550001f8a514	3	1	main_slash	7	advance_on_keypress_SLASH	16	stimuli_distractor_trianglediamonds.svg	stimuli_distractor_trianglediamonds.svg	34	no	57	0	372	0	0			0	0			1				0	
6.6.1	win	2023-06-02	00:04:17	00:08:44	231351	5b6c72f29dc5550001f8a514	3	1	main_slash	7	main_slash	17	stimuli_target_rectangletriangles.svg	stimuli_distractor_diamondtriangles.svg	5	yes	53	1	658	0	0			0	0			1				0	
6.6.1	win	2023-06-02	00:04:17	00:08:44	231351	5b6c72f29dc5550001f8a514	3	1	main_slash	7	advance_on_keypress_SLASH	18	stimuli_target_rectangletriangles.svg	stimuli_distractor_diamondtriangles.svg	5	yes	57	0	626	0	0			0	0			1				0	
6.6.1	win	2023-06-02	00:04:17	00:08:46	233362	5b6c72f29dc5550001f8a514	3	1	main_slash	7	main_slash	19	stimuli_target_diamondrectangles.svg	stimuli_distractor_trianglediamonds.svg	19	yes	53	1	762	0	0			0	0			1				0	
6.6.1	win	2023-06-02	00:04:17	00:08:46	233362	5b6c72f29dc5550001f8a514	3	1	main_slash	7	advance_on_keypress_SLASH	20	stimuli_target_diamondrectangles.svg	stimuli_distractor_trianglediamonds.svg	19	yes	57	0	617	0	0			0	0			1				0	
6.6.1	win	2023-06-02	00:04:17	00:08:49	236600	5b6c72f29dc5550001f8a514	3	1	main_slash	7	main_slash	21	stimuli_distractor_diamondtriangles.svg	stimuli_distractor_trianglediamonds.svg	38	no	0	1	2000	0	0			0	0			1				0	
6.6.1	win	2023-06-02	00:04:17	00:08:49	236600	5b6c72f29dc5550001f8a514	3	1	main_slash	7	advance_on_keypress_SLASH	22	stimuli_distractor_diamondtriangles.svg	stimuli_distractor_trianglediamonds.svg	38	no	57	0	250	0	0			0	0			1				0	
6.6.1	win	2023-06-02	00:04:17	00:08:51	238182	5b6c72f29dc5550001f8a514	3	1	main_slash	7	main_slash	23	stimuli_target_trianglerectangles.svg	stimuli_distractor_diamondtriangles.svg	21	yes	53	1	706	0	0			0	0			1				0	
6.6.1	win	2023-06-02	00:04:17	00:08:51	238182	5b6c72f29dc5550001f8a514	3	1	main_slash	7	advance_on_keypress_SLASH	24	stimuli_target_trianglerectangles.svg	stimuli_distractor_diamondtriangles.svg	21	yes	57	0	522	0	0			0	0			1				0	
6.6.1	win	2023-06-02	00:04:17	00:08:53	239893	5b6c72f29dc5550001f8a514	3	1	main_slash	7	main_slash	25	stimuli_distractor_diamondtriangles.svg	stimuli_target_squaretriangles.svg	15	yes	53	1	559	0	0			0	0			1				0	
6.6.1	win	2023-06-02	00:04:17	00:08:53	239893	5b6c72f29dc5550001f8a514	3	1	main_slash	7	advance_on_keypress_SLASH	26	stimuli_distractor_diamondtriangles.svg	stimuli_target_squaretriangles.svg	15	yes	57	0	445	0	0			0	0			1				0	
6.6.1	win	2023-06-02	00:04:17	00:08:54	241519	5b6c72f29dc5550001f8a514	3	1	main_slash	7	main_slash	27	stimuli_target_squaretriangles.svg	stimuli_distractor_trianglediamonds.svg	3	yes	53	1	561	0	0			0	0			1				0	
6.6.1	win	2023-06-02	00:04:17	00:08:54	241519	5b6c72f29dc5550001f8a514	3	1	main_slash	7	advance_on_keypress_SLASH	28	stimuli_target_squaretriangles.svg	stimuli_distractor_trianglediamonds.svg	3	yes	57	0	503	0	0			0	0			1				0	
6.6.1	win	2023-06-02	00:04:17	00:08:56	243240	5b6c72f29dc5550001f8a514	3	1	main_slash	7	main_slash	29	stimuli_target_rectangletriangles.svg	stimuli_distractor_trianglediamonds.svg	1	yes	53	1	599	0	0			0	0			1				0	
6.6.1	win	2023-06-02	00:04:17	00:08:56	243240	5b6c72f29dc5550001f8a514	3	1	main_slash	7	advance_on_keypress_SLASH	30	stimuli_target_rectangletriangles.svg	stimuli_distractor_trianglediamonds.svg	1	yes	57	0	468	0	0			0	0			1				0	
6.6.1	win	2023-06-02	00:04:17	00:08:58	244842	5b6c72f29dc5550001f8a514	3	1	main_slash	7	main_slash	31	stimuli_distractor_trianglediamonds.svg	stimuli_target_squarediamonds.svg	12	yes	53	1	508	0	0			0	0			1				0	
6.6.1	win	2023-06-02	00:04:17	00:08:58	244842	5b6c72f29dc5550001f8a514	3	1	main_slash	7	advance_on_keypress_SLASH	32	stimuli_distractor_trianglediamonds.svg	stimuli_target_squarediamonds.svg	12	yes	57	0	438	0	0			0	0			1				0	
6.6.1	win	2023-06-02	00:04:17	00:08:59	246407	5b6c72f29dc5550001f8a514	3	1	main_slash	7	main_slash	33	stimuli_distractor_trianglediamonds.svg	stimuli_target_trianglesquares.svg	26	yes	53	1	507	0	0			0	0			1				0	
6.6.1	win	2023-06-02	00:04:17	00:08:59	246407	5b6c72f29dc5550001f8a514	3	1	main_slash	7	advance_on_keypress_SLASH	34	stimuli_distractor_trianglediamonds.svg	stimuli_target_trianglesquares.svg	26	yes	57	0	446	0	0			0	0			1				0	
6.6.1	win	2023-06-02	00:04:17	00:09:01	248107	5b6c72f29dc5550001f8a514	3	1	main_slash	7	main_slash	35	stimuli_target_diamondsquares.svg	stimuli_distractor_trianglediamonds.svg	20	yes	53	1	632	0	0			0	0			1				0	
6.6.1	win	2023-06-02	00:04:17	00:09:01	248107	5b6c72f29dc5550001f8a514	3	1	main_slash	7	advance_on_keypress_SLASH	36	stimuli_target_diamondsquares.svg	stimuli_distractor_trianglediamonds.svg	20	yes	57	0	431	0	0			0	0			1				0	
6.6.1	win	2023-06-02	00:04:17	00:09:02	249687	5b6c72f29dc5550001f8a514	3	1	main_slash	7	main_slash	37	stimuli_target_rectanglediamonds.svg	stimuli_distractor_trianglediamonds.svg	2	yes	53	1	520	0	0			0	0			1				0	
6.6.1	win	2023-06-02	00:04:17	00:09:02	249687	5b6c72f29dc5550001f8a514	3	1	main_slash	7	advance_on_keypress_SLASH	38	stimuli_target_rectanglediamonds.svg	stimuli_distractor_trianglediamonds.svg	2	yes	57	0	448	0	0			0	0			1				0	
6.6.1	win	2023-06-02	00:04:17	00:09:04	251319	5b6c72f29dc5550001f8a514	3	1	main_slash	7	main_slash	39	stimuli_distractor_trianglediamonds.svg	stimuli_target_diamondsquares.svg	28	yes	53	1	560	0	0			0	0			1				0	
6.6.1	win	2023-06-02	00:04:17	00:09:04	251319	5b6c72f29dc5550001f8a514	3	1	main_slash	7	advance_on_keypress_SLASH	40	stimuli_distractor_trianglediamonds.svg	stimuli_target_diamondsquares.svg	28	yes	57	0	412	0	0			0	0			1				0	
6.6.1	win	2023-06-02	00:04:17	00:09:07	254351	5b6c72f29dc5550001f8a514	3	1	main_slash	7	main_slash	41	stimuli_distractor_trianglediamonds.svg	stimuli_distractor_diamondtriangles.svg	35	no	0	1	2000	0	0			0	0			1				0	
6.6.1	win	2023-06-02	00:04:17	00:09:07	254351	5b6c72f29dc5550001f8a514	3	1	main_slash	7	advance_on_keypress_SLASH	42	stimuli_distractor_trianglediamonds.svg	stimuli_distractor_diamondtriangles.svg	35	no	57	0	235	0	0			0	0			1				0	
6.6.1	win	2023-06-02	00:04:17	00:09:09	255875	5b6c72f29dc5550001f8a514	3	1	main_slash	7	main_slash	43	stimuli_target_trianglerectangles.svg	stimuli_distractor_trianglediamonds.svg	17	yes	53	1	666	0	0			0	0			1				0	
6.6.1	win	2023-06-02	00:04:17	00:09:09	255875	5b6c72f29dc5550001f8a514	3	1	main_slash	7	advance_on_keypress_SLASH	44	stimuli_target_trianglerectangles.svg	stimuli_distractor_trianglediamonds.svg	17	yes	57	0	578	0	0			0	0			1				0	
6.6.1	win	2023-06-02	00:04:17	00:09:10	257512	5b6c72f29dc5550001f8a514	3	1	main_slash	7	main_slash	45	stimuli_distractor_diamondtriangles.svg	stimuli_target_trianglerectangles.svg	29	yes	53	1	436	0	0			0	0			1				0	
6.6.1	win	2023-06-02	00:04:17	00:09:10	257512	5b6c72f29dc5550001f8a514	3	1	main_slash	7	advance_on_keypress_SLASH	46	stimuli_distractor_diamondtriangles.svg	stimuli_target_trianglerectangles.svg	29	yes	57	0	371	0	0			0	0			1				0	
6.6.1	win	2023-06-02	00:04:17	00:09:12	258991	5b6c72f29dc5550001f8a514	3	1	main_slash	7	main_slash	47	stimuli_distractor_trianglediamonds.svg	stimuli_target_trianglerectangles.svg	25	yes	53	1	490	0	0			0	0			1				0	
6.6.1	win	2023-06-02	00:04:17	00:09:12	258991	5b6c72f29dc5550001f8a514	3	1	main_slash	7	advance_on_keypress_SLASH	48	stimuli_distractor_trianglediamonds.svg	stimuli_target_trianglerectangles.svg	25	yes	57	0	340	0	0			0	0			1				0	
6.6.1	win	2023-06-02	00:04:17	00:09:13	260405	5b6c72f29dc5550001f8a514	3	1	main_slash	7	main_slash	49	stimuli_target_diamondrectangles.svg	stimuli_distractor_diamondtriangles.svg	23	yes	53	1	446	0	0			0	0			1				0	
6.6.1	win	2023-06-02	00:04:17	00:09:13	260405	5b6c72f29dc5550001f8a514	3	1	main_slash	7	advance_on_keypress_SLASH	50	stimuli_target_diamondrectangles.svg	stimuli_distractor_diamondtriangles.svg	23	yes	57	0	360	0	0			0	0			1				0	
6.6.1	win	2023-06-02	00:04:17	00:09:14	261757	5b6c72f29dc5550001f8a514	3	1	main_slash	7	main_slash	51	stimuli_distractor_diamondtriangles.svg	stimuli_target_trianglesquares.svg	30	yes	53	1	373	0	0			0	0			1				0	
6.6.1	win	2023-06-02	00:04:17	00:09:14	261757	5b6c72f29dc5550001f8a514	3	1	main_slash	7	advance_on_keypress_SLASH	52	stimuli_distractor_diamondtriangles.svg	stimuli_target_trianglesquares.svg	30	yes	57	0	326	0	0			0	0			1				0	
6.6.1	win	2023-06-02	00:04:17	00:09:16	263056	5b6c72f29dc5550001f8a514	3	1	main_slash	7	main_slash	53	stimuli_target_squarediamonds.svg	stimuli_distractor_diamondtriangles.svg	8	yes	53	1	347	0	0			0	0			1				0	
6.6.1	win	2023-06-02	00:04:17	00:09:16	263056	5b6c72f29dc5550001f8a514	3	1	main_slash	7	advance_on_keypress_SLASH	54	stimuli_target_squarediamonds.svg	stimuli_distractor_diamondtriangles.svg	8	yes	57	0	341	0	0			0	0			1				0	
6.6.1	win	2023-06-02	00:04:17	00:09:19	266027	5b6c72f29dc5550001f8a514	3	1	main_slash	7	main_slash	55	stimuli_distractor_diamondtriangles.svg	stimuli_target_diamondrectangles.svg	31	yes	0	0	2000	0	0			0	0			1				0	
6.6.1	win	2023-06-02	00:04:17	00:09:19	266027	5b6c72f29dc5550001f8a514	3	1	main_slash	7	advance_on_keypress_SLASH	56	stimuli_distractor_diamondtriangles.svg	stimuli_target_diamondrectangles.svg	31	yes	57	0	249	0	0			0	0			1				0	
6.6.1	win	2023-06-02	00:04:17	00:09:20	267378	5b6c72f29dc5550001f8a514	3	1	main_slash	7	main_slash	57	stimuli_target_diamondsquares.svg	stimuli_distractor_diamondtriangles.svg	24	yes	53	1	477	0	0			0	0			1				0	
6.6.1	win	2023-06-02	00:04:17	00:09:20	267378	5b6c72f29dc5550001f8a514	3	1	main_slash	7	advance_on_keypress_SLASH	58	stimuli_target_diamondsquares.svg	stimuli_distractor_diamondtriangles.svg	24	yes	57	0	430	0	0			0	0			1				0	
6.6.1	win	2023-06-02	00:04:17	00:09:23	270435	5b6c72f29dc5550001f8a514	3	1	main_slash	7	main_slash	59	stimuli_distractor_diamondtriangles.svg	stimuli_distractor_diamondtriangles.svg	39	no	0	1	2000	0	0			0	0			1				0	
6.6.1	win	2023-06-02	00:04:17	00:09:23	270435	5b6c72f29dc5550001f8a514	3	1	main_slash	7	advance_on_keypress_SLASH	60	stimuli_distractor_diamondtriangles.svg	stimuli_distractor_diamondtriangles.svg	39	no	57	0	317	0	0			0	0			1				0	
6.6.1	win	2023-06-02	00:04:17	00:09:25	271924	5b6c72f29dc5550001f8a514	3	1	main_slash	7	main_slash	61	stimuli_target_squaretriangles.svg	stimuli_distractor_diamondtriangles.svg	7	yes	53	1	548	0	0			0	0			1				0	
6.6.1	win	2023-06-02	00:04:17	00:09:25	271924	5b6c72f29dc5550001f8a514	3	1	main_slash	7	advance_on_keypress_SLASH	62	stimuli_target_squaretriangles.svg	stimuli_distractor_diamondtriangles.svg	7	yes	57	0	444	0	0			0	0			1				0	
6.6.1	win	2023-06-02	00:04:17	00:09:28	274993	5b6c72f29dc5550001f8a514	3	1	main_slash	7	main_slash	63	stimuli_distractor_trianglediamonds.svg	stimuli_distractor_trianglediamonds.svg	33	no	0	1	2000	0	0			0	0			1				0	
6.6.1	win	2023-06-02	00:04:17	00:09:28	274993	5b6c72f29dc5550001f8a514	3	1	main_slash	7	advance_on_keypress_SLASH	64	stimuli_distractor_trianglediamonds.svg	stimuli_distractor_trianglediamonds.svg	33	no	57	0	284	0	0			0	0			1				0	
6.6.1	win	2023-06-02	00:04:17	00:09:29	276331	5b6c72f29dc5550001f8a514	3	1	main_slash	7	main_slash	65	stimuli_distractor_diamondtriangles.svg	stimuli_target_squarediamonds.svg	16	yes	53	1	430	0	0			0	0			1				0	
6.6.1	win	2023-06-02	00:04:17	00:09:29	276331	5b6c72f29dc5550001f8a514	3	1	main_slash	7	advance_on_keypress_SLASH	66	stimuli_distractor_diamondtriangles.svg	stimuli_target_squarediamonds.svg	16	yes	57	0	838	0	0			0	0			1				0	
6.6.1	win	2023-06-02	00:04:17	00:09:31	278390	5b6c72f29dc5550001f8a514	3	1	main_slash	7	main_slash	67	stimuli_target_trianglesquares.svg	stimuli_distractor_trianglediamonds.svg	18	yes	53	1	606	0	0			0	0			1				0	
6.6.1	win	2023-06-02	00:04:17	00:09:31	278390	5b6c72f29dc5550001f8a514	3	1	main_slash	7	advance_on_keypress_SLASH	68	stimuli_target_trianglesquares.svg	stimuli_distractor_trianglediamonds.svg	18	yes	57	0	403	0	0			0	0			1				0	
6.6.1	win	2023-06-02	00:04:17	00:09:33	279957	5b6c72f29dc5550001f8a514	3	1	main_slash	7	main_slash	69	stimuli_target_squarediamonds.svg	stimuli_distractor_trianglediamonds.svg	4	yes	53	1	539	0	0			0	0			1				0	
6.6.1	win	2023-06-02	00:04:17	00:09:33	279957	5b6c72f29dc5550001f8a514	3	1	main_slash	7	advance_on_keypress_SLASH	70	stimuli_target_squarediamonds.svg	stimuli_distractor_trianglediamonds.svg	4	yes	57	0	414	0	0			0	0			1				0	
6.6.1	win	2023-06-02	00:04:17	00:09:34	281554	5b6c72f29dc5550001f8a514	3	1	main_slash	7	main_slash	71	stimuli_distractor_trianglediamonds.svg	stimuli_target_diamondrectangles.svg	27	yes	53	1	554	0	0			0	0			1				0	
6.6.1	win	2023-06-02	00:04:17	00:09:34	281554	5b6c72f29dc5550001f8a514	3	1	main_slash	7	advance_on_keypress_SLASH	72	stimuli_distractor_trianglediamonds.svg	stimuli_target_diamondrectangles.svg	27	yes	57	0	413	0	0			0	0			1				0	
6.6.1	win	2023-06-02	00:04:17	00:09:36	283165	5b6c72f29dc5550001f8a514	3	1	main_slash	7	main_slash	73	stimuli_target_trianglesquares.svg	stimuli_distractor_diamondtriangles.svg	22	yes	53	1	581	0	0			0	0			1				0	
6.6.1	win	2023-06-02	00:04:17	00:09:36	283165	5b6c72f29dc5550001f8a514	3	1	main_slash	7	advance_on_keypress_SLASH	74	stimuli_target_trianglesquares.svg	stimuli_distractor_diamondtriangles.svg	22	yes	57	0	439	0	0			0	0			1				0	
6.6.1	win	2023-06-02	00:04:17	00:09:37	284728	5b6c72f29dc5550001f8a514	3	1	main_slash	7	main_slash	75	stimuli_distractor_trianglediamonds.svg	stimuli_target_squaretriangles.svg	11	yes	53	1	493	0	0			0	0			1				0	
6.6.1	win	2023-06-02	00:04:17	00:09:37	284728	5b6c72f29dc5550001f8a514	3	1	main_slash	7	advance_on_keypress_SLASH	76	stimuli_distractor_trianglediamonds.svg	stimuli_target_squaretriangles.svg	11	yes	57	0	398	0	0			0	0			1				0	
6.6.1	win	2023-06-02	00:04:17	00:09:39	286176	5b6c72f29dc5550001f8a514	3	1	main_slash	7	main_slash	77	stimuli_distractor_diamondtriangles.svg	stimuli_target_rectangletriangles.svg	13	yes	53	1	425	0	0			0	0			1				0	
6.6.1	win	2023-06-02	00:04:17	00:09:39	286176	5b6c72f29dc5550001f8a514	3	1	main_slash	7	advance_on_keypress_SLASH	78	stimuli_distractor_diamondtriangles.svg	stimuli_target_rectangletriangles.svg	13	yes	57	0	393	0	0			0	0			1				0	
6.6.1	win	2023-06-02	00:04:17	00:09:40	287527	5b6c72f29dc5550001f8a514	3	1	main_slash	7	main_slash	79	stimuli_distractor_trianglediamonds.svg	stimuli_target_rectangletriangles.svg	9	yes	53	1	334	0	0			0	0			1				0	
6.6.1	win	2023-06-02	00:04:17	00:09:40	287527	5b6c72f29dc5550001f8a514	3	1	main_slash	7	advance_on_keypress_SLASH	80	stimuli_distractor_trianglediamonds.svg	stimuli_target_rectangletriangles.svg	9	yes	57	0	351	0	0			0	0			1				0	
6.6.1	win	2023-06-02	00:04:17	00:09:42	288890	5b6c72f29dc5550001f8a514	3	1	main_slash	7	main_slash	81	stimuli_distractor_diamondtriangles.svg	stimuli_target_diamondrectangles.svg	31	yes	53	1	389	0	0			0	0			1				0	
6.6.1	win	2023-06-02	00:04:17	00:09:42	288890	5b6c72f29dc5550001f8a514	3	1	main_slash	7	advance_on_keypress_SLASH	82	stimuli_distractor_diamondtriangles.svg	stimuli_target_diamondrectangles.svg	31	yes	57	0	358	0	0			0	0			1				0	
6.6.1	win	2023-06-02	00:04:17	00:09:43	290205	5b6c72f29dc5550001f8a514	3	1	main_slash	7	main_slash	83	stimuli_distractor_trianglediamonds.svg	stimuli_target_trianglerectangles.svg	25	yes	53	1	329	0	0			0	0			1				0	
6.6.1	win	2023-06-02	00:04:17	00:09:43	290205	5b6c72f29dc5550001f8a514	3	1	main_slash	7	advance_on_keypress_SLASH	84	stimuli_distractor_trianglediamonds.svg	stimuli_target_trianglerectangles.svg	25	yes	57	0	361	0	0			0	0			1				0	
6.6.1	win	2023-06-02	00:04:17	00:09:44	291578	5b6c72f29dc5550001f8a514	3	1	main_slash	7	main_slash	85	stimuli_target_squarediamonds.svg	stimuli_distractor_diamondtriangles.svg	8	yes	53	1	394	0	0			0	0			1				0	
6.6.1	win	2023-06-02	00:04:17	00:09:44	291578	5b6c72f29dc5550001f8a514	3	1	main_slash	7	advance_on_keypress_SLASH	86	stimuli_target_squarediamonds.svg	stimuli_distractor_diamondtriangles.svg	8	yes	57	0	361	0	0			0	0			1				0	
6.6.1	win	2023-06-02	00:04:17	00:09:46	292878	5b6c72f29dc5550001f8a514	3	1	main_slash	7	main_slash	87	stimuli_distractor_diamondtriangles.svg	stimuli_target_diamondsquares.svg	32	yes	53	1	318	0	0			0	0			1				0	
6.6.1	win	2023-06-02	00:04:17	00:09:46	292878	5b6c72f29dc5550001f8a514	3	1	main_slash	7	advance_on_keypress_SLASH	88	stimuli_distractor_diamondtriangles.svg	stimuli_target_diamondsquares.svg	32	yes	57	0	375	0	0			0	0			1				0	
6.6.1	win	2023-06-02	00:04:17	00:09:47	294214	5b6c72f29dc5550001f8a514	3	1	main_slash	7	main_slash	89	stimuli_target_squaretriangles.svg	stimuli_distractor_trianglediamonds.svg	3	yes	53	1	337	0	0			0	0			1				0	
6.6.1	win	2023-06-02	00:04:17	00:09:47	294214	5b6c72f29dc5550001f8a514	3	1	main_slash	7	advance_on_keypress_SLASH	90	stimuli_target_squaretriangles.svg	stimuli_distractor_trianglediamonds.svg	3	yes	57	0	393	0	0			0	0			1				0	
6.6.1	win	2023-06-02	00:04:17	00:09:48	295546	5b6c72f29dc5550001f8a514	3	1	main_slash	7	main_slash	91	stimuli_target_diamondrectangles.svg	stimuli_distractor_trianglediamonds.svg	19	yes	53	1	319	0	0			0	0			1				0	
6.6.1	win	2023-06-02	00:04:17	00:09:48	295546	5b6c72f29dc5550001f8a514	3	1	main_slash	7	advance_on_keypress_SLASH	92	stimuli_target_diamondrectangles.svg	stimuli_distractor_trianglediamonds.svg	19	yes	57	0	409	0	0			0	0			1				0	
6.6.1	win	2023-06-02	00:04:17	00:09:51	298577	5b6c72f29dc5550001f8a514	3	1	main_slash	7	main_slash	93	stimuli_distractor_trianglediamonds.svg	stimuli_distractor_trianglediamonds.svg	33	no	0	1	2000	0	0			0	0			1				0	
6.6.1	win	2023-06-02	00:04:17	00:09:51	298577	5b6c72f29dc5550001f8a514	3	1	main_slash	7	advance_on_keypress_SLASH	94	stimuli_distractor_trianglediamonds.svg	stimuli_distractor_trianglediamonds.svg	33	no	57	0	512	0	0			0	0			1				0	
6.6.1	win	2023-06-02	00:04:17	00:09:53	300076	5b6c72f29dc5550001f8a514	3	1	main_slash	7	main_slash	95	stimuli_distractor_diamondtriangles.svg	stimuli_target_squaretriangles.svg	15	yes	53	1	366	0	0			0	0			1				0	
6.6.1	win	2023-06-02	00:04:17	00:09:53	300076	5b6c72f29dc5550001f8a514	3	1	main_slash	7	advance_on_keypress_SLASH	96	stimuli_distractor_diamondtriangles.svg	stimuli_target_squaretriangles.svg	15	yes	57	0	387	0	0			0	0			1				0	
6.6.1	win	2023-06-02	00:04:17	00:09:56	303085	5b6c72f29dc5550001f8a514	3	1	main_slash	7	main_slash	97	stimuli_distractor_diamondtriangles.svg	stimuli_distractor_trianglediamonds.svg	38	no	0	1	2000	0	0			0	0			1				0	
6.6.1	win	2023-06-02	00:04:17	00:09:56	303085	5b6c72f29dc5550001f8a514	3	1	main_slash	7	advance_on_keypress_SLASH	98	stimuli_distractor_diamondtriangles.svg	stimuli_distractor_trianglediamonds.svg	38	no	57	0	379	0	0			0	0			1				0	
6.6.1	win	2023-06-02	00:04:17	00:09:57	304610	5b6c72f29dc5550001f8a514	3	1	main_slash	7	main_slash	99	stimuli_distractor_trianglediamonds.svg	stimuli_distractor_diamondtriangles.svg	35	no	53	0	525	0	0			0	0			1				0	
6.6.1	win	2023-06-02	00:04:17	00:09:57	304610	5b6c72f29dc5550001f8a514	3	1	main_slash	7	advance_on_keypress_SLASH	100	stimuli_distractor_trianglediamonds.svg	stimuli_distractor_diamondtriangles.svg	35	no	57	0	517	0	0			0	0			1				0	
6.6.1	win	2023-06-02	00:04:17	00:09:59	306085	5b6c72f29dc5550001f8a514	3	1	main_slash	7	main_slash	101	stimuli_distractor_trianglediamonds.svg	stimuli_target_trianglesquares.svg	26	yes	53	1	334	0	0			0	0			1				0	
6.6.1	win	2023-06-02	00:04:17	00:09:59	306085	5b6c72f29dc5550001f8a514	3	1	main_slash	7	advance_on_keypress_SLASH	102	stimuli_distractor_trianglediamonds.svg	stimuli_target_trianglesquares.svg	26	yes	57	0	334	0	0			0	0			1				0	
6.6.1	win	2023-06-02	00:04:17	00:10:00	307347	5b6c72f29dc5550001f8a514	3	1	main_slash	7	main_slash	103	stimuli_distractor_trianglediamonds.svg	stimuli_target_rectanglediamonds.svg	10	yes	53	1	303	0	0			0	0			1				0	
6.6.1	win	2023-06-02	00:04:17	00:10:00	307347	5b6c72f29dc5550001f8a514	3	1	main_slash	7	advance_on_keypress_SLASH	104	stimuli_distractor_trianglediamonds.svg	stimuli_target_rectanglediamonds.svg	10	yes	57	0	321	0	0			0	0			1				0	
6.6.1	win	2023-06-02	00:04:17	00:10:01	308719	5b6c72f29dc5550001f8a514	3	1	main_slash	7	main_slash	105	stimuli_target_diamondsquares.svg	stimuli_distractor_diamondtriangles.svg	24	yes	53	1	425	0	0			0	0			1				0	
6.6.1	win	2023-06-02	00:04:17	00:10:01	308719	5b6c72f29dc5550001f8a514	3	1	main_slash	7	advance_on_keypress_SLASH	106	stimuli_target_diamondsquares.svg	stimuli_distractor_diamondtriangles.svg	24	yes	57	0	363	0	0			0	0			1				0	
6.6.1	win	2023-06-02	00:04:17	00:10:03	310026	5b6c72f29dc5550001f8a514	3	1	main_slash	7	main_slash	107	stimuli_target_trianglesquares.svg	stimuli_distractor_diamondtriangles.svg	22	yes	53	1	324	0	0			0	0			1				0	
6.6.1	win	2023-06-02	00:04:17	00:10:03	310026	5b6c72f29dc5550001f8a514	3	1	main_slash	7	advance_on_keypress_SLASH	108	stimuli_target_trianglesquares.svg	stimuli_distractor_diamondtriangles.svg	22	yes	57	0	410	0	0			0	0			1				0	
6.6.1	win	2023-06-02	00:04:17	00:10:04	311395	5b6c72f29dc5550001f8a514	3	1	main_slash	7	main_slash	109	stimuli_target_trianglerectangles.svg	stimuli_distractor_diamondtriangles.svg	21	yes	53	1	333	0	0			0	0			1				0	
6.6.1	win	2023-06-02	00:04:17	00:10:04	311395	5b6c72f29dc5550001f8a514	3	1	main_slash	7	advance_on_keypress_SLASH	110	stimuli_target_trianglerectangles.svg	stimuli_distractor_diamondtriangles.svg	21	yes	57	0	345	0	0			0	0			1				0	
6.6.1	win	2023-06-02	00:04:17	00:10:05	312682	5b6c72f29dc5550001f8a514	3	1	main_slash	7	main_slash	111	stimuli_target_diamondsquares.svg	stimuli_distractor_trianglediamonds.svg	20	yes	53	1	322	0	0			0	0			1				0	
6.6.1	win	2023-06-02	00:04:17	00:10:05	312682	5b6c72f29dc5550001f8a514	3	1	main_slash	7	advance_on_keypress_SLASH	112	stimuli_target_diamondsquares.svg	stimuli_distractor_trianglediamonds.svg	20	yes	57	0	329	0	0			0	0			1				0	
6.6.1	win	2023-06-02	00:04:17	00:10:07	313904	5b6c72f29dc5550001f8a514	3	1	main_slash	7	main_slash	113	stimuli_distractor_diamondtriangles.svg	stimuli_distractor_diamondtriangles.svg	39	no	53	0	277	0	0			0	0			1				0	
6.6.1	win	2023-06-02	00:04:17	00:10:07	313904	5b6c72f29dc5550001f8a514	3	1	main_slash	7	advance_on_keypress_SLASH	114	stimuli_distractor_diamondtriangles.svg	stimuli_distractor_diamondtriangles.svg	39	no	57	0	785	0	0			0	0			1				0	
6.6.1	win	2023-06-02	00:04:17	00:10:08	315687	5b6c72f29dc5550001f8a514	3	1	main_slash	7	main_slash	115	stimuli_target_squarediamonds.svg	stimuli_distractor_trianglediamonds.svg	4	yes	53	1	376	0	0			0	0			1				0	
6.6.1	win	2023-06-02	00:04:17	00:10:08	315687	5b6c72f29dc5550001f8a514	3	1	main_slash	7	advance_on_keypress_SLASH	116	stimuli_target_squarediamonds.svg	stimuli_distractor_trianglediamonds.svg	4	yes	57	0	335	0	0			0	0			1				0	
6.6.1	win	2023-06-02	00:04:17	00:10:10	316965	5b6c72f29dc5550001f8a514	3	1	main_slash	7	main_slash	117	stimuli_distractor_diamondtriangles.svg	stimuli_target_trianglesquares.svg	30	yes	53	1	321	0	0			0	0			1				0	
6.6.1	win	2023-06-02	00:04:17	00:10:10	316965	5b6c72f29dc5550001f8a514	3	1	main_slash	7	advance_on_keypress_SLASH	118	stimuli_distractor_diamondtriangles.svg	stimuli_target_trianglesquares.svg	30	yes	57	0	262	0	0			0	0			1				0	
6.6.1	win	2023-06-02	00:04:17	00:10:11	318259	5b6c72f29dc5550001f8a514	3	1	main_slash	7	main_slash	119	stimuli_target_rectanglediamonds.svg	stimuli_distractor_diamondtriangles.svg	6	yes	53	1	415	0	0			0	0			1				0	
6.6.1	win	2023-06-02	00:04:17	00:10:11	318259	5b6c72f29dc5550001f8a514	3	1	main_slash	7	advance_on_keypress_SLASH	120	stimuli_target_rectanglediamonds.svg	stimuli_distractor_diamondtriangles.svg	6	yes	57	0	327	0	0			0	0			1				0	
6.6.1	win	2023-06-02	00:04:17	00:10:12	319557	5b6c72f29dc5550001f8a514	3	1	main_slash	7	main_slash	121	stimuli_distractor_trianglediamonds.svg	stimuli_target_diamondrectangles.svg	27	yes	53	1	347	0	0			0	0			1				0	
6.6.1	win	2023-06-02	00:04:17	00:10:12	319557	5b6c72f29dc5550001f8a514	3	1	main_slash	7	advance_on_keypress_SLASH	122	stimuli_distractor_trianglediamonds.svg	stimuli_target_diamondrectangles.svg	27	yes	57	0	316	0	0			0	0			1				0	
6.6.1	win	2023-06-02	00:04:17	00:10:15	322495	5b6c72f29dc5550001f8a514	3	1	main_slash	7	main_slash	123	stimuli_distractor_diamondtriangles.svg	stimuli_distractor_trianglediamonds.svg	37	no	0	1	2000	0	0			0	0			1				0	
6.6.1	win	2023-06-02	00:04:17	00:10:15	322495	5b6c72f29dc5550001f8a514	3	1	main_slash	7	advance_on_keypress_SLASH	124	stimuli_distractor_diamondtriangles.svg	stimuli_distractor_trianglediamonds.svg	37	no	57	0	330	0	0			0	0			1				0	
6.6.1	win	2023-06-02	00:04:17	00:10:17	323848	5b6c72f29dc5550001f8a514	3	1	main_slash	7	main_slash	125	stimuli_distractor_diamondtriangles.svg	stimuli_target_rectanglediamonds.svg	14	yes	53	1	404	0	0			0	0			1				0	
6.6.1	win	2023-06-02	00:04:17	00:10:17	323848	5b6c72f29dc5550001f8a514	3	1	main_slash	7	advance_on_keypress_SLASH	126	stimuli_distractor_diamondtriangles.svg	stimuli_target_rectanglediamonds.svg	14	yes	57	0	324	0	0			0	0			1				0	
6.6.1	win	2023-06-02	00:04:17	00:10:18	325183	5b6c72f29dc5550001f8a514	3	1	main_slash	7	main_slash	127	stimuli_target_diamondrectangles.svg	stimuli_distractor_diamondtriangles.svg	23	yes	53	1	390	0	0			0	0			1				0	
6.6.1	win	2023-06-02	00:04:17	00:10:18	325183	5b6c72f29dc5550001f8a514	3	1	main_slash	7	advance_on_keypress_SLASH	128	stimuli_target_diamondrectangles.svg	stimuli_distractor_diamondtriangles.svg	23	yes	57	0	339	0	0			0	0			1				0	
6.6.1	win	2023-06-02	00:04:17	00:10:19	326462	5b6c72f29dc5550001f8a514	3	1	main_slash	7	main_slash	129	stimuli_distractor_trianglediamonds.svg	stimuli_target_squarediamonds.svg	12	yes	53	1	308	0	0			0	0			1				0	
6.6.1	win	2023-06-02	00:04:17	00:10:19	326462	5b6c72f29dc5550001f8a514	3	1	main_slash	7	advance_on_keypress_SLASH	130	stimuli_distractor_trianglediamonds.svg	stimuli_target_squarediamonds.svg	12	yes	57	0	282	0	0			0	0			1				0	
6.6.1	win	2023-06-02	00:04:17	00:10:20	327735	5b6c72f29dc5550001f8a514	3	1	main_slash	7	main_slash	131	stimuli_target_rectangletriangles.svg	stimuli_distractor_diamondtriangles.svg	5	yes	53	1	365	0	0			0	0			1				0	
6.6.1	win	2023-06-02	00:04:17	00:10:20	327735	5b6c72f29dc5550001f8a514	3	1	main_slash	7	advance_on_keypress_SLASH	132	stimuli_target_rectangletriangles.svg	stimuli_distractor_diamondtriangles.svg	5	yes	57	0	292	0	0			0	0			1				0	
6.6.1	win	2023-06-02	00:04:17	00:10:22	328897	5b6c72f29dc5550001f8a514	3	1	main_slash	7	main_slash	133	stimuli_distractor_diamondtriangles.svg	stimuli_target_squarediamonds.svg	16	yes	53	1	244	0	0			0	0			1				0	
6.6.1	win	2023-06-02	00:04:17	00:10:22	328897	5b6c72f29dc5550001f8a514	3	1	main_slash	7	advance_on_keypress_SLASH	134	stimuli_distractor_diamondtriangles.svg	stimuli_target_squarediamonds.svg	16	yes	57	0	276	0	0			0	0			1				0	
6.6.1	win	2023-06-02	00:04:17	00:10:23	330087	5b6c72f29dc5550001f8a514	3	1	main_slash	7	main_slash	135	stimuli_distractor_trianglediamonds.svg	stimuli_distractor_diamondtriangles.svg	36	no	53	0	293	0	0			0	0			1				0	
6.6.1	win	2023-06-02	00:04:17	00:10:23	330087	5b6c72f29dc5550001f8a514	3	1	main_slash	7	advance_on_keypress_SLASH	136	stimuli_distractor_trianglediamonds.svg	stimuli_distractor_diamondtriangles.svg	36	no	57	0	742	0	0			0	0			1				0	
6.6.1	win	2023-06-02	00:04:17	00:10:26	333453	5b6c72f29dc5550001f8a514	3	1	main_slash	7	main_slash	137	stimuli_distractor_diamondtriangles.svg	stimuli_target_trianglerectangles.svg	29	yes	0	0	2000	0	0			0	0			1				0	
6.6.1	win	2023-06-02	00:04:17	00:10:26	333453	5b6c72f29dc5550001f8a514	3	1	main_slash	7	advance_on_keypress_SLASH	138	stimuli_distractor_diamondtriangles.svg	stimuli_target_trianglerectangles.svg	29	yes	57	0	226	0	0			0	0			1				0	
6.6.1	win	2023-06-02	00:04:17	00:10:27	334675	5b6c72f29dc5550001f8a514	3	1	main_slash	7	main_slash	139	stimuli_target_rectangletriangles.svg	stimuli_distractor_trianglediamonds.svg	1	yes	53	1	372	0	0			0	0			1				0	
6.6.1	win	2023-06-02	00:04:17	00:10:27	334675	5b6c72f29dc5550001f8a514	3	1	main_slash	7	advance_on_keypress_SLASH	140	stimuli_target_rectangletriangles.svg	stimuli_distractor_trianglediamonds.svg	1	yes	57	0	315	0	0			0	0			1				0	
6.6.1	win	2023-06-02	00:04:17	00:10:29	336242	5b6c72f29dc5550001f8a514	3	1	main_slash	7	main_slash	141	stimuli_target_trianglerectangles.svg	stimuli_distractor_trianglediamonds.svg	17	yes	53	1	622	0	0			0	0			1				0	
6.6.1	win	2023-06-02	00:04:17	00:10:29	336242	5b6c72f29dc5550001f8a514	3	1	main_slash	7	advance_on_keypress_SLASH	142	stimuli_target_trianglerectangles.svg	stimuli_distractor_trianglediamonds.svg	17	yes	57	0	375	0	0			0	0			1				0	
6.6.1	win	2023-06-02	00:04:17	00:10:32	339245	5b6c72f29dc5550001f8a514	3	1	main_slash	7	main_slash	143	stimuli_distractor_trianglediamonds.svg	stimuli_distractor_trianglediamonds.svg	34	no	0	1	2000	0	0			0	0			1				0	
6.6.1	win	2023-06-02	00:04:17	00:10:32	339245	5b6c72f29dc5550001f8a514	3	1	main_slash	7	advance_on_keypress_SLASH	144	stimuli_distractor_trianglediamonds.svg	stimuli_distractor_trianglediamonds.svg	34	no	57	0	253	0	0			0	0			1				0	
6.6.1	win	2023-06-02	00:04:17	00:10:33	340469	5b6c72f29dc5550001f8a514	3	1	main_slash	7	main_slash	145	stimuli_distractor_diamondtriangles.svg	stimuli_target_rectangletriangles.svg	13	yes	53	1	348	0	0			0	0			1				0	
6.6.1	win	2023-06-02	00:04:17	00:10:33	340469	5b6c72f29dc5550001f8a514	3	1	main_slash	7	advance_on_keypress_SLASH	146	stimuli_distractor_diamondtriangles.svg	stimuli_target_rectangletriangles.svg	13	yes	57	0	338	0	0			0	0			1				0	
6.6.1	win	2023-06-02	00:04:17	00:10:34	341754	5b6c72f29dc5550001f8a514	3	1	main_slash	7	main_slash	147	stimuli_distractor_trianglediamonds.svg	stimuli_target_diamondsquares.svg	28	yes	53	1	318	0	0			0	0			1				0	
6.6.1	win	2023-06-02	00:04:17	00:10:34	341754	5b6c72f29dc5550001f8a514	3	1	main_slash	7	advance_on_keypress_SLASH	148	stimuli_distractor_trianglediamonds.svg	stimuli_target_diamondsquares.svg	28	yes	57	0	331	0	0			0	0			1				0	
6.6.1	win	2023-06-02	00:04:17	00:10:36	343012	5b6c72f29dc5550001f8a514	3	1	main_slash	7	main_slash	149	stimuli_target_squaretriangles.svg	stimuli_distractor_diamondtriangles.svg	7	yes	53	1	301	0	0			0	0			1				0	
6.6.1	win	2023-06-02	00:04:17	00:10:36	343012	5b6c72f29dc5550001f8a514	3	1	main_slash	7	advance_on_keypress_SLASH	150	stimuli_target_squaretriangles.svg	stimuli_distractor_diamondtriangles.svg	7	yes	57	0	357	0	0			0	0			1				0	
6.6.1	win	2023-06-02	00:04:17	00:10:37	344363	5b6c72f29dc5550001f8a514	3	1	main_slash	7	main_slash	151	stimuli_target_trianglesquares.svg	stimuli_distractor_trianglediamonds.svg	18	yes	53	1	368	0	0			0	0			1				0	
6.6.1	win	2023-06-02	00:04:17	00:10:37	344363	5b6c72f29dc5550001f8a514	3	1	main_slash	7	advance_on_keypress_SLASH	152	stimuli_target_trianglesquares.svg	stimuli_distractor_trianglediamonds.svg	18	yes	57	0	384	0	0			0	0			1				0	
6.6.1	win	2023-06-02	00:04:17	00:10:38	345702	5b6c72f29dc5550001f8a514	3	1	main_slash	7	main_slash	153	stimuli_distractor_trianglediamonds.svg	stimuli_target_rectangletriangles.svg	9	yes	53	1	332	0	0			0	0			1				0	
6.6.1	win	2023-06-02	00:04:17	00:10:38	345702	5b6c72f29dc5550001f8a514	3	1	main_slash	7	advance_on_keypress_SLASH	154	stimuli_distractor_trianglediamonds.svg	stimuli_target_rectangletriangles.svg	9	yes	57	0	378	0	0			0	0			1				0	
6.6.1	win	2023-06-02	00:04:17	00:10:41	348704	5b6c72f29dc5550001f8a514	3	1	main_slash	7	main_slash	155	stimuli_distractor_diamondtriangles.svg	stimuli_distractor_diamondtriangles.svg	40	no	0	1	2000	0	0			0	0			1				0	
6.6.1	win	2023-06-02	00:04:17	00:10:41	348704	5b6c72f29dc5550001f8a514	3	1	main_slash	7	advance_on_keypress_SLASH	156	stimuli_distractor_diamondtriangles.svg	stimuli_distractor_diamondtriangles.svg	40	no	57	0	218	0	0			0	0			1				0	
6.6.1	win	2023-06-02	00:04:17	00:10:43	349883	5b6c72f29dc5550001f8a514	3	1	main_slash	7	main_slash	157	stimuli_target_rectanglediamonds.svg	stimuli_distractor_trianglediamonds.svg	2	yes	53	1	338	0	0			0	0			1				0	
6.6.1	win	2023-06-02	00:04:17	00:10:43	349883	5b6c72f29dc5550001f8a514	3	1	main_slash	7	advance_on_keypress_SLASH	158	stimuli_target_rectanglediamonds.svg	stimuli_distractor_trianglediamonds.svg	2	yes	57	0	393	0	0			0	0			1				0	
6.6.1	win	2023-06-02	00:04:17	00:10:44	351195	5b6c72f29dc5550001f8a514	3	1	main_slash	7	main_slash	159	stimuli_distractor_trianglediamonds.svg	stimuli_target_squaretriangles.svg	11	yes	53	1	292	0	0			0	0			1				0	
6.6.1	win	2023-06-02	00:04:17	00:10:44	351195	5b6c72f29dc5550001f8a514	3	1	main_slash	7	advance_on_keypress_SLASH	160	stimuli_distractor_trianglediamonds.svg	stimuli_target_squaretriangles.svg	11	yes	57	0	359	0	0			0	0			1				0	
6.6.1	win	2023-06-02	00:04:17	00:11:02	368835	5b6c72f29dc5550001f8a514	3	1	practice_z	9	practice_z	1	stimuli_target_diamondsquares.svg	stimuli_distractor_diamondtriangles.svg	3	yes	44	1	489	0	0			0	0			1				0	
6.6.1	win	2023-06-02	00:04:17	00:11:02	368835	5b6c72f29dc5550001f8a514	3	1	practice_z	9	advance_on_keypress_ZEE	2	stimuli_target_diamondsquares.svg	stimuli_distractor_diamondtriangles.svg	3	yes	57	0	783	0	0			0	0			1				0	
6.6.1	win	2023-06-02	00:04:17	00:11:05	371809	5b6c72f29dc5550001f8a514	3	1	practice_z	9	practice_z	3	stimuli_distractor_diamondtriangles.svg	stimuli_target_trianglerectangles.svg	9	yes	44	1	562	0	0			0	0			1				0	
6.6.1	win	2023-06-02	00:04:17	00:11:05	371809	5b6c72f29dc5550001f8a514	3	1	practice_z	9	advance_on_keypress_ZEE	4	stimuli_distractor_diamondtriangles.svg	stimuli_target_trianglerectangles.svg	9	yes	57	0	456	0	0			0	0			1				0	
6.6.1	win	2023-06-02	00:04:17	00:11:09	375890	5b6c72f29dc5550001f8a514	3	1	practice_z	9	practice_z	5	stimuli_distractor_trianglediamonds.svg	stimuli_distractor_diamondtriangles.svg	16	no	0	1	2000	0	0			0	0			1				0	
6.6.1	win	2023-06-02	00:04:17	00:11:09	375890	5b6c72f29dc5550001f8a514	3	1	practice_z	9	advance_on_keypress_ZEE	6	stimuli_distractor_trianglediamonds.svg	stimuli_distractor_diamondtriangles.svg	16	no	57	0	471	0	0			0	0			1				0	
6.6.1	win	2023-06-02	00:04:17	00:11:11	378451	5b6c72f29dc5550001f8a514	3	1	practice_z	9	practice_z	7	stimuli_distractor_trianglediamonds.svg	stimuli_target_rectanglediamonds.svg	10	yes	44	1	462	0	0			0	0			1				0	
6.6.1	win	2023-06-02	00:04:17	00:11:11	378451	5b6c72f29dc5550001f8a514	3	1	practice_z	9	advance_on_keypress_ZEE	8	stimuli_distractor_trianglediamonds.svg	stimuli_target_rectanglediamonds.svg	10	yes	57	0	485	0	0			0	0			1				0	
6.6.1	win	2023-06-02	00:04:17	00:11:14	381196	5b6c72f29dc5550001f8a514	3	1	practice_z	9	practice_z	9	stimuli_distractor_diamondtriangles.svg	stimuli_target_rectangletriangles.svg	7	yes	44	1	632	0	0			0	0			1				0	
6.6.1	win	2023-06-02	00:04:17	00:11:14	381196	5b6c72f29dc5550001f8a514	3	1	practice_z	9	advance_on_keypress_ZEE	10	stimuli_distractor_diamondtriangles.svg	stimuli_target_rectangletriangles.svg	7	yes	57	0	239	0	0			0	0			1				0	
6.6.1	win	2023-06-02	00:04:17	00:11:16	383717	5b6c72f29dc5550001f8a514	3	1	practice_z	9	practice_z	11	stimuli_distractor_trianglediamonds.svg	stimuli_target_diamondrectangles.svg	12	yes	44	1	654	0	0			0	0			1				0	
6.6.1	win	2023-06-02	00:04:17	00:11:16	383717	5b6c72f29dc5550001f8a514	3	1	practice_z	9	advance_on_keypress_ZEE	12	stimuli_distractor_trianglediamonds.svg	stimuli_target_diamondrectangles.svg	12	yes	57	0	243	0	0			0	0			1				0	
6.6.1	win	2023-06-02	00:04:17	00:11:19	386101	5b6c72f29dc5550001f8a514	3	1	practice_z	9	practice_z	13	stimuli_distractor_diamondtriangles.svg	stimuli_target_diamondrectangles.svg	8	yes	44	1	521	0	0			0	0			1				0	
6.6.1	win	2023-06-02	00:04:17	00:11:19	386101	5b6c72f29dc5550001f8a514	3	1	practice_z	9	advance_on_keypress_ZEE	14	stimuli_distractor_diamondtriangles.svg	stimuli_target_diamondrectangles.svg	8	yes	57	0	244	0	0			0	0			1				0	
6.6.1	win	2023-06-02	00:04:17	00:11:23	389965	5b6c72f29dc5550001f8a514	3	1	practice_z	9	practice_z	15	stimuli_distractor_diamondtriangles.svg	stimuli_distractor_trianglediamonds.svg	14	no	0	1	2000	0	0			0	0			1				0	
6.6.1	win	2023-06-02	00:04:17	00:11:23	389965	5b6c72f29dc5550001f8a514	3	1	practice_z	9	advance_on_keypress_ZEE	16	stimuli_distractor_diamondtriangles.svg	stimuli_distractor_trianglediamonds.svg	14	no	57	0	260	0	0			0	0			1				0	
6.6.1	win	2023-06-02	00:04:17	00:11:25	392240	5b6c72f29dc5550001f8a514	3	1	practice_z	9	practice_z	17	stimuli_target_rectanglediamonds.svg	stimuli_distractor_diamondtriangles.svg	1	yes	44	1	393	0	0			0	0			1				0	
6.6.1	win	2023-06-02	00:04:17	00:11:25	392240	5b6c72f29dc5550001f8a514	3	1	practice_z	9	advance_on_keypress_ZEE	18	stimuli_target_rectanglediamonds.svg	stimuli_distractor_diamondtriangles.svg	1	yes	57	0	268	0	0			0	0			1				0	
6.6.1	win	2023-06-02	00:04:17	00:11:27	394424	5b6c72f29dc5550001f8a514	3	1	practice_z	9	practice_z	19	stimuli_target_squarediamonds.svg	stimuli_distractor_trianglediamonds.svg	5	yes	44	1	293	0	0			0	0			1				0	
6.6.1	win	2023-06-02	00:04:17	00:11:27	394424	5b6c72f29dc5550001f8a514	3	1	practice_z	9	advance_on_keypress_ZEE	20	stimuli_target_squarediamonds.svg	stimuli_distractor_trianglediamonds.svg	5	yes	57	0	200	0	0			0	0			1				0	
6.6.1	win	2023-06-02	00:04:17	00:11:31	398248	5b6c72f29dc5550001f8a514	3	1	practice_z	9	practice_z	21	stimuli_distractor_diamondtriangles.svg	stimuli_distractor_diamondtriangles.svg	13	no	0	1	2000	0	0			0	0			1				0	
6.6.1	win	2023-06-02	00:04:17	00:11:31	398248	5b6c72f29dc5550001f8a514	3	1	practice_z	9	advance_on_keypress_ZEE	22	stimuli_distractor_diamondtriangles.svg	stimuli_distractor_diamondtriangles.svg	13	no	57	0	359	0	0			0	0			1				0	
6.6.1	win	2023-06-02	00:04:17	00:11:33	400649	5b6c72f29dc5550001f8a514	3	1	practice_z	9	practice_z	23	stimuli_target_squarediamonds.svg	stimuli_distractor_diamondtriangles.svg	2	yes	44	1	419	0	0			0	0			1				0	
6.6.1	win	2023-06-02	00:04:17	00:11:33	400649	5b6c72f29dc5550001f8a514	3	1	practice_z	9	advance_on_keypress_ZEE	24	stimuli_target_squarediamonds.svg	stimuli_distractor_diamondtriangles.svg	2	yes	57	0	501	0	0			0	0			1				0	
6.6.1	win	2023-06-02	00:04:17	00:11:36	403115	5b6c72f29dc5550001f8a514	3	1	practice_z	9	practice_z	25	stimuli_target_rectanglediamonds.svg	stimuli_distractor_trianglediamonds.svg	4	yes	44	1	342	0	0			0	0			1				0	
6.6.1	win	2023-06-02	00:04:17	00:11:36	403115	5b6c72f29dc5550001f8a514	3	1	practice_z	9	advance_on_keypress_ZEE	26	stimuli_target_rectanglediamonds.svg	stimuli_distractor_trianglediamonds.svg	4	yes	57	0	445	0	0			0	0			1				0	
6.6.1	win	2023-06-02	00:04:17	00:11:38	405557	5b6c72f29dc5550001f8a514	3	1	practice_z	9	practice_z	27	stimuli_distractor_trianglediamonds.svg	stimuli_target_squarediamonds.svg	11	yes	44	1	376	0	0			0	0			1				0	
6.6.1	win	2023-06-02	00:04:17	00:11:38	405557	5b6c72f29dc5550001f8a514	3	1	practice_z	9	advance_on_keypress_ZEE	28	stimuli_distractor_trianglediamonds.svg	stimuli_target_squarediamonds.svg	11	yes	57	0	565	0	0			0	0			1				0	
6.6.1	win	2023-06-02	00:04:17	00:11:42	409748	5b6c72f29dc5550001f8a514	3	1	practice_z	9	practice_z	29	stimuli_distractor_trianglediamonds.svg	stimuli_distractor_trianglediamonds.svg	15	no	0	1	2000	0	0			0	0			1				0	
6.6.1	win	2023-06-02	00:04:17	00:11:42	409748	5b6c72f29dc5550001f8a514	3	1	practice_z	9	advance_on_keypress_ZEE	30	stimuli_distractor_trianglediamonds.svg	stimuli_distractor_trianglediamonds.svg	15	no	57	0	495	0	0			0	0			1				0	
6.6.1	win	2023-06-02	00:04:17	00:11:45	412510	5b6c72f29dc5550001f8a514	3	1	practice_z	9	practice_z	31	stimuli_target_diamondsquares.svg	stimuli_distractor_trianglediamonds.svg	6	yes	44	1	646	0	0			0	0			1				0	
6.6.1	win	2023-06-02	00:04:17	00:11:45	412510	5b6c72f29dc5550001f8a514	3	1	practice_z	9	advance_on_keypress_ZEE	32	stimuli_target_diamondsquares.svg	stimuli_distractor_trianglediamonds.svg	6	yes	57	0	426	0	0			0	0			1				0	
6.6.1	win	2023-06-02	00:04:17	00:11:53	420262	5b6c72f29dc5550001f8a514	3	1	main_z	11	main_z	1	stimuli_distractor_diamondtriangles.svg	stimuli_target_trianglesquares.svg	30	yes	44	1	332	0	0			0	0			1				0	
6.6.1	win	2023-06-02	00:04:17	00:11:53	420262	5b6c72f29dc5550001f8a514	3	1	main_z	11	advance_on_keypress_ZEE	2	stimuli_distractor_diamondtriangles.svg	stimuli_target_trianglesquares.svg	30	yes	57	0	531	0	0			0	0			1				0	
6.6.1	win	2023-06-02	00:04:17	00:11:54	421713	5b6c72f29dc5550001f8a514	3	1	main_z	11	main_z	3	stimuli_distractor_diamondtriangles.svg	stimuli_target_rectanglediamonds.svg	14	yes	44	1	291	0	0			0	0			1				0	
6.6.1	win	2023-06-02	00:04:17	00:11:54	421713	5b6c72f29dc5550001f8a514	3	1	main_z	11	advance_on_keypress_ZEE	4	stimuli_distractor_diamondtriangles.svg	stimuli_target_rectanglediamonds.svg	14	yes	57	0	520	0	0			0	0			1				0	
6.6.1	win	2023-06-02	00:04:17	00:11:56	423178	5b6c72f29dc5550001f8a514	3	1	main_z	11	main_z	5	stimuli_distractor_diamondtriangles.svg	stimuli_target_trianglerectangles.svg	29	yes	44	1	323	0	0			0	0			1				0	
6.6.1	win	2023-06-02	00:04:17	00:11:56	423178	5b6c72f29dc5550001f8a514	3	1	main_z	11	advance_on_keypress_ZEE	6	stimuli_distractor_diamondtriangles.svg	stimuli_target_trianglerectangles.svg	29	yes	57	0	507	0	0			0	0			1				0	
6.6.1	win	2023-06-02	00:04:17	00:11:58	424834	5b6c72f29dc5550001f8a514	3	1	main_z	11	main_z	7	stimuli_target_trianglerectangles.svg	stimuli_distractor_trianglediamonds.svg	17	yes	44	1	522	0	0			0	0			1				0	
6.6.1	win	2023-06-02	00:04:17	00:11:58	424834	5b6c72f29dc5550001f8a514	3	1	main_z	11	advance_on_keypress_ZEE	8	stimuli_target_trianglerectangles.svg	stimuli_distractor_trianglediamonds.svg	17	yes	57	0	504	0	0			0	0			1				0	
6.6.1	win	2023-06-02	00:04:17	00:12:01	427955	5b6c72f29dc5550001f8a514	3	1	main_z	11	main_z	9	stimuli_distractor_diamondtriangles.svg	stimuli_distractor_trianglediamonds.svg	38	no	0	1	2000	0	0			0	0			1				0	
6.6.1	win	2023-06-02	00:04:17	00:12:01	427955	5b6c72f29dc5550001f8a514	3	1	main_z	11	advance_on_keypress_ZEE	10	stimuli_distractor_diamondtriangles.svg	stimuli_distractor_trianglediamonds.svg	38	no	57	0	242	0	0			0	0			1				0	
6.6.1	win	2023-06-02	00:04:17	00:12:02	429184	5b6c72f29dc5550001f8a514	3	1	main_z	11	main_z	11	stimuli_target_diamondrectangles.svg	stimuli_distractor_trianglediamonds.svg	19	yes	44	1	362	0	0			0	0			1				0	
6.6.1	win	2023-06-02	00:04:17	00:12:02	429184	5b6c72f29dc5550001f8a514	3	1	main_z	11	advance_on_keypress_ZEE	12	stimuli_target_diamondrectangles.svg	stimuli_distractor_trianglediamonds.svg	19	yes	57	0	323	0	0			0	0			1				0	
6.6.1	win	2023-06-02	00:04:17	00:12:03	430450	5b6c72f29dc5550001f8a514	3	1	main_z	11	main_z	13	stimuli_distractor_trianglediamonds.svg	stimuli_target_squaretriangles.svg	11	yes	44	1	320	0	0			0	0			1				0	
6.6.1	win	2023-06-02	00:04:17	00:12:03	430450	5b6c72f29dc5550001f8a514	3	1	main_z	11	advance_on_keypress_ZEE	14	stimuli_distractor_trianglediamonds.svg	stimuli_target_squaretriangles.svg	11	yes	57	0	291	0	0			0	0			1				0	
6.6.1	win	2023-06-02	00:04:17	00:12:04	431679	5b6c72f29dc5550001f8a514	3	1	main_z	11	main_z	15	stimuli_distractor_trianglediamonds.svg	stimuli_target_trianglesquares.svg	26	yes	44	1	315	0	0			0	0			1				0	
6.6.1	win	2023-06-02	00:04:17	00:12:04	431679	5b6c72f29dc5550001f8a514	3	1	main_z	11	advance_on_keypress_ZEE	16	stimuli_distractor_trianglediamonds.svg	stimuli_target_trianglesquares.svg	26	yes	57	0	303	0	0			0	0			1				0	
6.6.1	win	2023-06-02	00:04:17	00:12:06	432911	5b6c72f29dc5550001f8a514	3	1	main_z	11	main_z	17	stimuli_target_squarediamonds.svg	stimuli_distractor_trianglediamonds.svg	4	yes	44	1	306	0	0			0	0			1				0	
6.6.1	win	2023-06-02	00:04:17	00:12:06	432911	5b6c72f29dc5550001f8a514	3	1	main_z	11	advance_on_keypress_ZEE	18	stimuli_target_squarediamonds.svg	stimuli_distractor_trianglediamonds.svg	4	yes	57	0	286	0	0			0	0			1				0	
6.6.1	win	2023-06-02	00:04:17	00:12:07	434146	5b6c72f29dc5550001f8a514	3	1	main_z	11	main_z	19	stimuli_target_rectangletriangles.svg	stimuli_distractor_diamondtriangles.svg	5	yes	44	1	324	0	0			0	0			1				0	
6.6.1	win	2023-06-02	00:04:17	00:12:07	434146	5b6c72f29dc5550001f8a514	3	1	main_z	11	advance_on_keypress_ZEE	20	stimuli_target_rectangletriangles.svg	stimuli_distractor_diamondtriangles.svg	5	yes	57	0	499	0	0			0	0			1				0	
6.6.1	win	2023-06-02	00:04:17	00:12:09	436158	5b6c72f29dc5550001f8a514	3	1	main_z	11	main_z	21	stimuli_target_diamondsquares.svg	stimuli_distractor_diamondtriangles.svg	24	yes	44	1	885	0	0			0	0			1				0	
6.6.1	win	2023-06-02	00:04:17	00:12:09	436158	5b6c72f29dc5550001f8a514	3	1	main_z	11	advance_on_keypress_ZEE	22	stimuli_target_diamondsquares.svg	stimuli_distractor_diamondtriangles.svg	24	yes	57	0	517	0	0			0	0			1				0	
6.6.1	win	2023-06-02	00:04:17	00:12:10	437673	5b6c72f29dc5550001f8a514	3	1	main_z	11	main_z	23	stimuli_distractor_diamondtriangles.svg	stimuli_target_squaretriangles.svg	15	yes	44	1	376	0	0			0	0			1				0	
6.6.1	win	2023-06-02	00:04:17	00:12:10	437673	5b6c72f29dc5550001f8a514	3	1	main_z	11	advance_on_keypress_ZEE	24	stimuli_distractor_diamondtriangles.svg	stimuli_target_squaretriangles.svg	15	yes	57	0	262	0	0			0	0			1				0	
6.6.1	win	2023-06-02	00:04:17	00:12:12	438896	5b6c72f29dc5550001f8a514	3	1	main_z	11	main_z	25	stimuli_target_trianglesquares.svg	stimuli_distractor_diamondtriangles.svg	22	yes	44	1	339	0	0			0	0			1				0	
6.6.1	win	2023-06-02	00:04:17	00:12:12	438896	5b6c72f29dc5550001f8a514	3	1	main_z	11	advance_on_keypress_ZEE	26	stimuli_target_trianglesquares.svg	stimuli_distractor_diamondtriangles.svg	22	yes	57	0	425	0	0			0	0			1				0	
6.6.1	win	2023-06-02	00:04:17	00:12:13	440310	5b6c72f29dc5550001f8a514	3	1	main_z	11	main_z	27	stimuli_target_diamondsquares.svg	stimuli_distractor_trianglediamonds.svg	20	yes	44	1	363	0	0			0	0			1				0	
6.6.1	win	2023-06-02	00:04:17	00:12:13	440310	5b6c72f29dc5550001f8a514	3	1	main_z	11	advance_on_keypress_ZEE	28	stimuli_target_diamondsquares.svg	stimuli_distractor_trianglediamonds.svg	20	yes	57	0	229	0	0			0	0			1				0	
6.6.1	win	2023-06-02	00:04:17	00:12:14	441537	5b6c72f29dc5550001f8a514	3	1	main_z	11	main_z	29	stimuli_target_rectanglediamonds.svg	stimuli_distractor_trianglediamonds.svg	2	yes	44	1	380	0	0			0	0			1				0	
6.6.1	win	2023-06-02	00:04:17	00:12:14	441537	5b6c72f29dc5550001f8a514	3	1	main_z	11	advance_on_keypress_ZEE	30	stimuli_target_rectanglediamonds.svg	stimuli_distractor_trianglediamonds.svg	2	yes	57	0	219	0	0			0	0			1				0	
6.6.1	win	2023-06-02	00:04:17	00:12:17	444381	5b6c72f29dc5550001f8a514	3	1	main_z	11	main_z	31	stimuli_distractor_diamondtriangles.svg	stimuli_distractor_diamondtriangles.svg	40	no	0	1	2000	0	0			0	0			1				0	
6.6.1	win	2023-06-02	00:04:17	00:12:17	444381	5b6c72f29dc5550001f8a514	3	1	main_z	11	advance_on_keypress_ZEE	32	stimuli_distractor_diamondtriangles.svg	stimuli_distractor_diamondtriangles.svg	40	no	57	0	271	0	0			0	0			1				0	
6.6.1	win	2023-06-02	00:04:17	00:12:18	445719	5b6c72f29dc5550001f8a514	3	1	main_z	11	main_z	33	stimuli_distractor_trianglediamonds.svg	stimuli_target_diamondsquares.svg	28	yes	44	1	438	0	0			0	0			1				0	
6.6.1	win	2023-06-02	00:04:17	00:12:18	445719	5b6c72f29dc5550001f8a514	3	1	main_z	11	advance_on_keypress_ZEE	34	stimuli_distractor_trianglediamonds.svg	stimuli_target_diamondsquares.svg	28	yes	57	0	395	0	0			0	0			1				0	
6.6.1	win	2023-06-02	00:04:17	00:12:20	447069	5b6c72f29dc5550001f8a514	3	1	main_z	11	main_z	35	stimuli_distractor_trianglediamonds.svg	stimuli_target_diamondrectangles.svg	27	yes	44	1	338	0	0			0	0			1				0	
6.6.1	win	2023-06-02	00:04:17	00:12:20	447069	5b6c72f29dc5550001f8a514	3	1	main_z	11	advance_on_keypress_ZEE	36	stimuli_distractor_trianglediamonds.svg	stimuli_target_diamondrectangles.svg	27	yes	57	0	260	0	0			0	0			1				0	
6.6.1	win	2023-06-02	00:04:17	00:12:21	448415	5b6c72f29dc5550001f8a514	3	1	main_z	11	main_z	37	stimuli_distractor_trianglediamonds.svg	stimuli_target_squarediamonds.svg	12	yes	44	1	459	0	0			0	0			1				0	
6.6.1	win	2023-06-02	00:04:17	00:12:21	448415	5b6c72f29dc5550001f8a514	3	1	main_z	11	advance_on_keypress_ZEE	38	stimuli_distractor_trianglediamonds.svg	stimuli_target_squarediamonds.svg	12	yes	57	0	445	0	0			0	0			1				0	
6.6.1	win	2023-06-02	00:04:17	00:12:23	449820	5b6c72f29dc5550001f8a514	3	1	main_z	11	main_z	39	stimuli_target_rectanglediamonds.svg	stimuli_distractor_diamondtriangles.svg	6	yes	44	1	338	0	0			0	0			1				0	
6.6.1	win	2023-06-02	00:04:17	00:12:23	449820	5b6c72f29dc5550001f8a514	3	1	main_z	11	advance_on_keypress_ZEE	40	stimuli_target_rectanglediamonds.svg	stimuli_distractor_diamondtriangles.svg	6	yes	57	0	380	0	0			0	0			1				0	
6.6.1	win	2023-06-02	00:04:17	00:12:26	452831	5b6c72f29dc5550001f8a514	3	1	main_z	11	main_z	41	stimuli_distractor_diamondtriangles.svg	stimuli_distractor_trianglediamonds.svg	37	no	0	1	2000	0	0			0	0			1				0	
6.6.1	win	2023-06-02	00:04:17	00:12:26	452831	5b6c72f29dc5550001f8a514	3	1	main_z	11	advance_on_keypress_ZEE	42	stimuli_distractor_diamondtriangles.svg	stimuli_distractor_trianglediamonds.svg	37	no	57	0	437	0	0			0	0			1				0	
6.6.1	win	2023-06-02	00:04:17	00:12:29	455890	5b6c72f29dc5550001f8a514	3	1	main_z	11	main_z	43	stimuli_distractor_trianglediamonds.svg	stimuli_distractor_diamondtriangles.svg	36	no	0	1	2000	0	0			0	0			1				0	
6.6.1	win	2023-06-02	00:04:17	00:12:29	455890	5b6c72f29dc5550001f8a514	3	1	main_z	11	advance_on_keypress_ZEE	44	stimuli_distractor_trianglediamonds.svg	stimuli_distractor_diamondtriangles.svg	36	no	57	0	230	0	0			0	0			1				0	
6.6.1	win	2023-06-02	00:04:17	00:12:30	457057	5b6c72f29dc5550001f8a514	3	1	main_z	11	main_z	45	stimuli_target_rectangletriangles.svg	stimuli_distractor_trianglediamonds.svg	1	yes	44	1	310	0	0			0	0			1				0	
6.6.1	win	2023-06-02	00:04:17	00:12:30	457057	5b6c72f29dc5550001f8a514	3	1	main_z	11	advance_on_keypress_ZEE	46	stimuli_target_rectangletriangles.svg	stimuli_distractor_trianglediamonds.svg	1	yes	57	0	305	0	0			0	0			1				0	
6.6.1	win	2023-06-02	00:04:17	00:12:31	458283	5b6c72f29dc5550001f8a514	3	1	main_z	11	main_z	47	stimuli_distractor_diamondtriangles.svg	stimuli_target_squarediamonds.svg	16	yes	44	1	293	0	0			0	0			1				0	
6.6.1	win	2023-06-02	00:04:17	00:12:31	458283	5b6c72f29dc5550001f8a514	3	1	main_z	11	advance_on_keypress_ZEE	48	stimuli_distractor_diamondtriangles.svg	stimuli_target_squarediamonds.svg	16	yes	57	0	247	0	0			0	0			1				0	
6.6.1	win	2023-06-02	00:04:17	00:12:32	459438	5b6c72f29dc5550001f8a514	3	1	main_z	11	main_z	49	stimuli_target_squaretriangles.svg	stimuli_distractor_trianglediamonds.svg	3	yes	44	1	282	0	0			0	0			1				0	
6.6.1	win	2023-06-02	00:04:17	00:12:32	459438	5b6c72f29dc5550001f8a514	3	1	main_z	11	advance_on_keypress_ZEE	50	stimuli_target_squaretriangles.svg	stimuli_distractor_trianglediamonds.svg	3	yes	57	0	190	0	0			0	0			1				0	
6.6.1	win	2023-06-02	00:04:17	00:12:34	460804	5b6c72f29dc5550001f8a514	3	1	main_z	11	main_z	51	stimuli_target_diamondrectangles.svg	stimuli_distractor_diamondtriangles.svg	23	yes	44	1	548	0	0			0	0			1				0	
6.6.1	win	2023-06-02	00:04:17	00:12:34	460804	5b6c72f29dc5550001f8a514	3	1	main_z	11	advance_on_keypress_ZEE	52	stimuli_target_diamondrectangles.svg	stimuli_distractor_diamondtriangles.svg	23	yes	57	0	243	0	0			0	0			1				0	
6.6.1	win	2023-06-02	00:04:17	00:12:36	463673	5b6c72f29dc5550001f8a514	3	1	main_z	11	main_z	53	stimuli_distractor_trianglediamonds.svg	stimuli_distractor_trianglediamonds.svg	34	no	0	1	2000	0	0			0	0			1				0	
6.6.1	win	2023-06-02	00:04:17	00:12:36	463673	5b6c72f29dc5550001f8a514	3	1	main_z	11	advance_on_keypress_ZEE	54	stimuli_distractor_trianglediamonds.svg	stimuli_distractor_trianglediamonds.svg	34	no	57	0	221	0	0			0	0			1				0	
6.6.1	win	2023-06-02	00:04:17	00:12:38	464825	5b6c72f29dc5550001f8a514	3	1	main_z	11	main_z	55	stimuli_target_trianglesquares.svg	stimuli_distractor_trianglediamonds.svg	18	yes	44	1	311	0	0			0	0			1				0	
6.6.1	win	2023-06-02	00:04:17	00:12:38	464825	5b6c72f29dc5550001f8a514	3	1	main_z	11	advance_on_keypress_ZEE	56	stimuli_target_trianglesquares.svg	stimuli_distractor_trianglediamonds.svg	18	yes	57	0	279	0	0			0	0			1				0	
6.6.1	win	2023-06-02	00:04:17	00:12:39	466041	5b6c72f29dc5550001f8a514	3	1	main_z	11	main_z	57	stimuli_distractor_trianglediamonds.svg	stimuli_target_rectangletriangles.svg	9	yes	44	1	318	0	0			0	0			1				0	
6.6.1	win	2023-06-02	00:04:17	00:12:39	466041	5b6c72f29dc5550001f8a514	3	1	main_z	11	advance_on_keypress_ZEE	58	stimuli_distractor_trianglediamonds.svg	stimuli_target_rectangletriangles.svg	9	yes	57	0	267	0	0			0	0			1				0	
6.6.1	win	2023-06-02	00:04:17	00:12:40	467222	5b6c72f29dc5550001f8a514	3	1	main_z	11	main_z	59	stimuli_target_squarediamonds.svg	stimuli_distractor_diamondtriangles.svg	8	yes	44	1	291	0	0			0	0			1				0	
6.6.1	win	2023-06-02	00:04:17	00:12:40	467222	5b6c72f29dc5550001f8a514	3	1	main_z	11	advance_on_keypress_ZEE	60	stimuli_target_squarediamonds.svg	stimuli_distractor_diamondtriangles.svg	8	yes	57	0	290	0	0			0	0			1				0	
6.6.1	win	2023-06-02	00:04:17	00:12:41	468599	5b6c72f29dc5550001f8a514	3	1	main_z	11	main_z	61	stimuli_distractor_diamondtriangles.svg	stimuli_target_diamondrectangles.svg	31	yes	44	1	459	0	0			0	0			1				0	
6.6.1	win	2023-06-02	00:04:17	00:12:41	468599	5b6c72f29dc5550001f8a514	3	1	main_z	11	advance_on_keypress_ZEE	62	stimuli_distractor_diamondtriangles.svg	stimuli_target_diamondrectangles.svg	31	yes	57	0	335	0	0			0	0			1				0	
6.6.1	win	2023-06-02	00:04:17	00:12:43	470216	5b6c72f29dc5550001f8a514	3	1	main_z	11	main_z	63	stimuli_distractor_trianglediamonds.svg	stimuli_distractor_diamondtriangles.svg	35	no	44	0	660	0	0			0	0			1				0	
6.6.1	win	2023-06-02	00:04:17	00:12:43	470216	5b6c72f29dc5550001f8a514	3	1	main_z	11	advance_on_keypress_ZEE	64	stimuli_distractor_trianglediamonds.svg	stimuli_distractor_diamondtriangles.svg	35	no	57	0	353	0	0			0	0			1				0	
6.6.1	win	2023-06-02	00:04:17	00:12:44	471638	5b6c72f29dc5550001f8a514	3	1	main_z	11	main_z	65	stimuli_distractor_trianglediamonds.svg	stimuli_target_trianglerectangles.svg	25	yes	44	1	448	0	0			0	0			1				0	
6.6.1	win	2023-06-02	00:04:17	00:12:44	471638	5b6c72f29dc5550001f8a514	3	1	main_z	11	advance_on_keypress_ZEE	66	stimuli_distractor_trianglediamonds.svg	stimuli_target_trianglerectangles.svg	25	yes	57	0	212	0	0			0	0			1				0	
6.6.1	win	2023-06-02	00:04:17	00:12:45	472774	5b6c72f29dc5550001f8a514	3	1	main_z	11	main_z	67	stimuli_distractor_diamondtriangles.svg	stimuli_target_rectangletriangles.svg	13	yes	44	1	301	0	0			0	0			1				0	
6.6.1	win	2023-06-02	00:04:17	00:12:45	472774	5b6c72f29dc5550001f8a514	3	1	main_z	11	advance_on_keypress_ZEE	68	stimuli_distractor_diamondtriangles.svg	stimuli_target_rectangletriangles.svg	13	yes	57	0	209	0	0			0	0			1				0	
6.6.1	win	2023-06-02	00:04:17	00:12:47	474052	5b6c72f29dc5550001f8a514	3	1	main_z	11	main_z	69	stimuli_distractor_diamondtriangles.svg	stimuli_target_diamondsquares.svg	32	yes	44	1	445	0	0			0	0			1				0	
6.6.1	win	2023-06-02	00:04:17	00:12:47	474052	5b6c72f29dc5550001f8a514	3	1	main_z	11	advance_on_keypress_ZEE	70	stimuli_distractor_diamondtriangles.svg	stimuli_target_diamondsquares.svg	32	yes	57	0	208	0	0			0	0			1				0	
6.6.1	win	2023-06-02	00:04:17	00:12:50	476882	5b6c72f29dc5550001f8a514	3	1	main_z	11	main_z	71	stimuli_distractor_trianglediamonds.svg	stimuli_distractor_trianglediamonds.svg	33	no	0	1	2000	0	0			0	0			1				0	
6.6.1	win	2023-06-02	00:04:17	00:12:50	476882	5b6c72f29dc5550001f8a514	3	1	main_z	11	advance_on_keypress_ZEE	72	stimuli_distractor_trianglediamonds.svg	stimuli_distractor_trianglediamonds.svg	33	no	57	0	288	0	0			0	0			1				0	
6.6.1	win	2023-06-02	00:04:17	00:12:51	478097	5b6c72f29dc5550001f8a514	3	1	main_z	11	main_z	73	stimuli_distractor_trianglediamonds.svg	stimuli_target_rectanglediamonds.svg	10	yes	44	1	307	0	0			0	0			1				0	
6.6.1	win	2023-06-02	00:04:17	00:12:51	478097	5b6c72f29dc5550001f8a514	3	1	main_z	11	advance_on_keypress_ZEE	74	stimuli_distractor_trianglediamonds.svg	stimuli_target_rectanglediamonds.svg	10	yes	57	0	207	0	0			0	0			1				0	
6.6.1	win	2023-06-02	00:04:17	00:12:52	479292	5b6c72f29dc5550001f8a514	3	1	main_z	11	main_z	75	stimuli_target_trianglerectangles.svg	stimuli_distractor_diamondtriangles.svg	21	yes	44	1	359	0	0			0	0			1				0	
6.6.1	win	2023-06-02	00:04:17	00:12:52	479292	5b6c72f29dc5550001f8a514	3	1	main_z	11	advance_on_keypress_ZEE	76	stimuli_target_trianglerectangles.svg	stimuli_distractor_diamondtriangles.svg	21	yes	57	0	257	0	0			0	0			1				0	
6.6.1	win	2023-06-02	00:04:17	00:12:55	482174	5b6c72f29dc5550001f8a514	3	1	main_z	11	main_z	77	stimuli_distractor_diamondtriangles.svg	stimuli_distractor_diamondtriangles.svg	39	no	0	1	2000	0	0			0	0			1				0	
6.6.1	win	2023-06-02	00:04:17	00:12:55	482174	5b6c72f29dc5550001f8a514	3	1	main_z	11	advance_on_keypress_ZEE	78	stimuli_distractor_diamondtriangles.svg	stimuli_distractor_diamondtriangles.svg	39	no	57	0	285	0	0			0	0			1				0	
6.6.1	win	2023-06-02	00:04:17	00:12:56	483447	5b6c72f29dc5550001f8a514	3	1	main_z	11	main_z	79	stimuli_target_squaretriangles.svg	stimuli_distractor_diamondtriangles.svg	7	yes	44	1	365	0	0			0	0			1				0	
6.6.1	win	2023-06-02	00:04:17	00:12:56	483447	5b6c72f29dc5550001f8a514	3	1	main_z	11	advance_on_keypress_ZEE	80	stimuli_target_squaretriangles.svg	stimuli_distractor_diamondtriangles.svg	7	yes	57	0	163	0	0			0	0			1				0	
6.6.1	win	2023-06-02	00:04:17	00:12:57	484526	5b6c72f29dc5550001f8a514	3	1	main_z	11	main_z	81	stimuli_target_rectangletriangles.svg	stimuli_distractor_trianglediamonds.svg	1	yes	44	1	294	0	0			0	0			1				0	
6.6.1	win	2023-06-02	00:04:17	00:12:57	484526	5b6c72f29dc5550001f8a514	3	1	main_z	11	advance_on_keypress_ZEE	82	stimuli_target_rectangletriangles.svg	stimuli_distractor_trianglediamonds.svg	1	yes	57	0	178	0	0			0	0			1				0	
6.6.1	win	2023-06-02	00:04:17	00:12:58	485623	5b6c72f29dc5550001f8a514	3	1	main_z	11	main_z	83	stimuli_distractor_diamondtriangles.svg	stimuli_target_squarediamonds.svg	16	yes	44	1	299	0	0			0	0			1				0	
6.6.1	win	2023-06-02	00:04:17	00:12:58	485623	5b6c72f29dc5550001f8a514	3	1	main_z	11	advance_on_keypress_ZEE	84	stimuli_distractor_diamondtriangles.svg	stimuli_target_squarediamonds.svg	16	yes	57	0	157	0	0			0	0			1				0	
6.6.1	win	2023-06-02	00:04:17	00:13:00	486834	5b6c72f29dc5550001f8a514	3	1	main_z	11	main_z	85	stimuli_distractor_diamondtriangles.svg	stimuli_target_diamondrectangles.svg	31	yes	44	1	426	0	0			0	0			1				0	
6.6.1	win	2023-06-02	00:04:17	00:13:00	486834	5b6c72f29dc5550001f8a514	3	1	main_z	11	advance_on_keypress_ZEE	86	stimuli_distractor_diamondtriangles.svg	stimuli_target_diamondrectangles.svg	31	yes	57	0	160	0	0			0	0			1				0	
6.6.1	win	2023-06-02	00:04:17	00:13:01	487984	5b6c72f29dc5550001f8a514	3	1	main_z	11	main_z	87	stimuli_distractor_trianglediamonds.svg	stimuli_target_diamondsquares.svg	28	yes	44	1	369	0	0			0	0			1				0	
6.6.1	win	2023-06-02	00:04:17	00:13:01	487984	5b6c72f29dc5550001f8a514	3	1	main_z	11	advance_on_keypress_ZEE	88	stimuli_distractor_trianglediamonds.svg	stimuli_target_diamondsquares.svg	28	yes	57	0	215	0	0			0	0			1				0	
6.6.1	win	2023-06-02	00:04:17	00:13:04	490824	5b6c72f29dc5550001f8a514	3	1	main_z	11	main_z	89	stimuli_distractor_trianglediamonds.svg	stimuli_distractor_trianglediamonds.svg	33	no	0	1	2000	0	0			0	0			1				0	
6.6.1	win	2023-06-02	00:04:17	00:13:04	490824	5b6c72f29dc5550001f8a514	3	1	main_z	11	advance_on_keypress_ZEE	90	stimuli_distractor_trianglediamonds.svg	stimuli_distractor_trianglediamonds.svg	33	no	57	0	279	0	0			0	0			1				0	
6.6.1	win	2023-06-02	00:04:17	00:13:05	492075	5b6c72f29dc5550001f8a514	3	1	main_z	11	main_z	91	stimuli_target_diamondrectangles.svg	stimuli_distractor_trianglediamonds.svg	19	yes	44	1	351	0	0			0	0			1				0	
6.6.1	win	2023-06-02	00:04:17	00:13:05	492075	5b6c72f29dc5550001f8a514	3	1	main_z	11	advance_on_keypress_ZEE	92	stimuli_target_diamondrectangles.svg	stimuli_distractor_trianglediamonds.svg	19	yes	57	0	183	0	0			0	0			1				0	
6.6.1	win	2023-06-02	00:04:17	00:13:06	493150	5b6c72f29dc5550001f8a514	3	1	main_z	11	main_z	93	stimuli_distractor_diamondtriangles.svg	stimuli_distractor_diamondtriangles.svg	40	no	44	0	268	0	0			0	0			1				0	
6.6.1	win	2023-06-02	00:04:17	00:13:06	493150	5b6c72f29dc5550001f8a514	3	1	main_z	11	advance_on_keypress_ZEE	94	stimuli_distractor_diamondtriangles.svg	stimuli_distractor_diamondtriangles.svg	40	no	57	0	401	0	0			0	0			1				0	
6.6.1	win	2023-06-02	00:04:17	00:13:07	494600	5b6c72f29dc5550001f8a514	3	1	main_z	11	main_z	95	stimuli_target_diamondsquares.svg	stimuli_distractor_diamondtriangles.svg	24	yes	44	1	426	0	0			0	0			1				0	
6.6.1	win	2023-06-02	00:04:17	00:13:07	494600	5b6c72f29dc5550001f8a514	3	1	main_z	11	advance_on_keypress_ZEE	96	stimuli_target_diamondsquares.svg	stimuli_distractor_diamondtriangles.svg	24	yes	57	0	214	0	0			0	0			1				0	
6.6.1	win	2023-06-02	00:04:17	00:13:09	495813	5b6c72f29dc5550001f8a514	3	1	main_z	11	main_z	97	stimuli_target_trianglerectangles.svg	stimuli_distractor_diamondtriangles.svg	21	yes	44	1	371	0	0			0	0			1				0	
6.6.1	win	2023-06-02	00:04:17	00:13:09	495813	5b6c72f29dc5550001f8a514	3	1	main_z	11	advance_on_keypress_ZEE	98	stimuli_target_trianglerectangles.svg	stimuli_distractor_diamondtriangles.svg	21	yes	57	0	211	0	0			0	0			1				0	
6.6.1	win	2023-06-02	00:04:17	00:13:10	496993	5b6c72f29dc5550001f8a514	3	1	main_z	11	main_z	99	stimuli_distractor_trianglediamonds.svg	stimuli_target_rectangletriangles.svg	9	yes	44	1	344	0	0			0	0			1				0	
6.6.1	win	2023-06-02	00:04:17	00:13:10	496993	5b6c72f29dc5550001f8a514	3	1	main_z	11	advance_on_keypress_ZEE	100	stimuli_distractor_trianglediamonds.svg	stimuli_target_rectangletriangles.svg	9	yes	57	0	306	0	0			0	0			1				0	
6.6.1	win	2023-06-02	00:04:17	00:13:11	498250	5b6c72f29dc5550001f8a514	3	1	main_z	11	main_z	101	stimuli_target_trianglesquares.svg	stimuli_distractor_diamondtriangles.svg	22	yes	44	1	326	0	0			0	0			1				0	
6.6.1	win	2023-06-02	00:04:17	00:13:11	498250	5b6c72f29dc5550001f8a514	3	1	main_z	11	advance_on_keypress_ZEE	102	stimuli_target_trianglesquares.svg	stimuli_distractor_diamondtriangles.svg	22	yes	57	0	197	0	0			0	0			1				0	
6.6.1	win	2023-06-02	00:04:17	00:13:12	499372	5b6c72f29dc5550001f8a514	3	1	main_z	11	main_z	103	stimuli_target_rectangletriangles.svg	stimuli_distractor_diamondtriangles.svg	5	yes	44	1	298	0	0			0	0			1				0	
6.6.1	win	2023-06-02	00:04:17	00:13:12	499372	5b6c72f29dc5550001f8a514	3	1	main_z	11	advance_on_keypress_ZEE	104	stimuli_target_rectangletriangles.svg	stimuli_distractor_diamondtriangles.svg	5	yes	57	0	180	0	0			0	0			1				0	
6.6.1	win	2023-06-02	00:04:17	00:13:13	500473	5b6c72f29dc5550001f8a514	3	1	main_z	11	main_z	105	stimuli_target_squaretriangles.svg	stimuli_distractor_trianglediamonds.svg	3	yes	44	1	299	0	0			0	0			1				0	
6.6.1	win	2023-06-02	00:04:17	00:13:13	500473	5b6c72f29dc5550001f8a514	3	1	main_z	11	advance_on_keypress_ZEE	106	stimuli_target_squaretriangles.svg	stimuli_distractor_trianglediamonds.svg	3	yes	57	0	130	0	0			0	0			1				0	
6.6.1	win	2023-06-02	00:04:17	00:13:14	501781	5b6c72f29dc5550001f8a514	3	1	main_z	11	main_z	107	stimuli_target_diamondrectangles.svg	stimuli_distractor_diamondtriangles.svg	23	yes	44	1	549	0	0			0	0			1				0	
6.6.1	win	2023-06-02	00:04:17	00:13:14	501781	5b6c72f29dc5550001f8a514	3	1	main_z	11	advance_on_keypress_ZEE	108	stimuli_target_diamondrectangles.svg	stimuli_distractor_diamondtriangles.svg	23	yes	57	0	148	0	0			0	0			1				0	
6.6.1	win	2023-06-02	00:04:17	00:13:16	502968	5b6c72f29dc5550001f8a514	3	1	main_z	11	main_z	109	stimuli_distractor_diamondtriangles.svg	stimuli_target_trianglesquares.svg	30	yes	44	1	410	0	0			0	0			1				0	
6.6.1	win	2023-06-02	00:04:17	00:13:16	502968	5b6c72f29dc5550001f8a514	3	1	main_z	11	advance_on_keypress_ZEE	110	stimuli_distractor_diamondtriangles.svg	stimuli_target_trianglesquares.svg	30	yes	57	0	159	0	0			0	0			1				0	
6.6.1	win	2023-06-02	00:04:17	00:13:17	504091	5b6c72f29dc5550001f8a514	3	1	main_z	11	main_z	111	stimuli_target_diamondsquares.svg	stimuli_distractor_trianglediamonds.svg	20	yes	44	1	342	0	0			0	0			1				0	
6.6.1	win	2023-06-02	00:04:17	00:13:17	504091	5b6c72f29dc5550001f8a514	3	1	main_z	11	advance_on_keypress_ZEE	112	stimuli_target_diamondsquares.svg	stimuli_distractor_trianglediamonds.svg	20	yes	57	0	177	0	0			0	0			1				0	
6.6.1	win	2023-06-02	00:04:17	00:13:20	506891	5b6c72f29dc5550001f8a514	3	1	main_z	11	main_z	113	stimuli_distractor_diamondtriangles.svg	stimuli_distractor_trianglediamonds.svg	37	no	0	1	2000	0	0			0	0			1				0	
6.6.1	win	2023-06-02	00:04:17	00:13:20	506891	5b6c72f29dc5550001f8a514	3	1	main_z	11	advance_on_keypress_ZEE	114	stimuli_distractor_diamondtriangles.svg	stimuli_distractor_trianglediamonds.svg	37	no	57	0	305	0	0			0	0			1				0	
6.6.1	win	2023-06-02	00:04:17	00:13:23	509825	5b6c72f29dc5550001f8a514	3	1	main_z	11	main_z	115	stimuli_distractor_diamondtriangles.svg	stimuli_distractor_diamondtriangles.svg	39	no	0	1	2000	0	0			0	0			1				0	
6.6.1	win	2023-06-02	00:04:17	00:13:23	509825	5b6c72f29dc5550001f8a514	3	1	main_z	11	advance_on_keypress_ZEE	116	stimuli_distractor_diamondtriangles.svg	stimuli_distractor_diamondtriangles.svg	39	no	57	0	297	0	0			0	0			1				0	
6.6.1	win	2023-06-02	00:04:17	00:13:24	511084	5b6c72f29dc5550001f8a514	3	1	main_z	11	main_z	117	stimuli_distractor_diamondtriangles.svg	stimuli_target_rectanglediamonds.svg	14	yes	44	1	334	0	0			0	0			1				0	
6.6.1	win	2023-06-02	00:04:17	00:13:24	511084	5b6c72f29dc5550001f8a514	3	1	main_z	11	advance_on_keypress_ZEE	118	stimuli_distractor_diamondtriangles.svg	stimuli_target_rectanglediamonds.svg	14	yes	57	0	116	0	0			0	0			1				0	
6.6.1	win	2023-06-02	00:04:17	00:13:25	512040	5b6c72f29dc5550001f8a514	3	1	main_z	11	main_z	119	stimuli_distractor_trianglediamonds.svg	stimuli_target_trianglesquares.svg	26	yes	44	1	215	0	0			0	0			1				0	
6.6.1	win	2023-06-02	00:04:17	00:13:25	512040	5b6c72f29dc5550001f8a514	3	1	main_z	11	advance_on_keypress_ZEE	120	stimuli_distractor_trianglediamonds.svg	stimuli_target_trianglesquares.svg	26	yes	57	0	181	0	0			0	0			1				0	
6.6.1	win	2023-06-02	00:04:17	00:13:26	513115	5b6c72f29dc5550001f8a514	3	1	main_z	11	main_z	121	stimuli_distractor_diamondtriangles.svg	stimuli_target_trianglerectangles.svg	29	yes	44	1	266	0	0			0	0			1				0	
6.6.1	win	2023-06-02	00:04:17	00:13:26	513115	5b6c72f29dc5550001f8a514	3	1	main_z	11	advance_on_keypress_ZEE	122	stimuli_distractor_diamondtriangles.svg	stimuli_target_trianglerectangles.svg	29	yes	57	0	108	0	0			0	0			1				0	
6.6.1	win	2023-06-02	00:04:17	00:13:27	514142	5b6c72f29dc5550001f8a514	3	1	main_z	11	main_z	123	stimuli_target_trianglesquares.svg	stimuli_distractor_trianglediamonds.svg	18	yes	44	1	293	0	0			0	0			1				0	
6.6.1	win	2023-06-02	00:04:17	00:13:27	514142	5b6c72f29dc5550001f8a514	3	1	main_z	11	advance_on_keypress_ZEE	124	stimuli_target_trianglesquares.svg	stimuli_distractor_trianglediamonds.svg	18	yes	57	0	108	0	0			0	0			1				0	
6.6.1	win	2023-06-02	00:04:17	00:13:28	515102	5b6c72f29dc5550001f8a514	3	1	main_z	11	main_z	125	stimuli_target_squaretriangles.svg	stimuli_distractor_diamondtriangles.svg	7	yes	44	1	228	0	0			0	0			1				0	
6.6.1	win	2023-06-02	00:04:17	00:13:28	515102	5b6c72f29dc5550001f8a514	3	1	main_z	11	advance_on_keypress_ZEE	126	stimuli_target_squaretriangles.svg	stimuli_distractor_diamondtriangles.svg	7	yes	57	0	116	0	0			0	0			1				0	
6.6.1	win	2023-06-02	00:04:17	00:13:29	516268	5b6c72f29dc5550001f8a514	3	1	main_z	11	main_z	127	stimuli_distractor_trianglediamonds.svg	stimuli_target_diamondrectangles.svg	27	yes	44	1	427	0	0			0	0			1				0	
6.6.1	win	2023-06-02	00:04:17	00:13:29	516268	5b6c72f29dc5550001f8a514	3	1	main_z	11	advance_on_keypress_ZEE	128	stimuli_distractor_trianglediamonds.svg	stimuli_target_diamondrectangles.svg	27	yes	57	0	150	0	0			0	0			1				0	
6.6.1	win	2023-06-02	00:04:17	00:13:32	519042	5b6c72f29dc5550001f8a514	3	1	main_z	11	main_z	129	stimuli_distractor_trianglediamonds.svg	stimuli_distractor_diamondtriangles.svg	36	no	0	1	2000	0	0			0	0			1				0	
6.6.1	win	2023-06-02	00:04:17	00:13:32	519042	5b6c72f29dc5550001f8a514	3	1	main_z	11	advance_on_keypress_ZEE	130	stimuli_distractor_trianglediamonds.svg	stimuli_distractor_diamondtriangles.svg	36	no	57	0	292	0	0			0	0			1				0	
6.6.1	win	2023-06-02	00:04:17	00:13:35	521959	5b6c72f29dc5550001f8a514	3	1	main_z	11	main_z	131	stimuli_distractor_diamondtriangles.svg	stimuli_distractor_trianglediamonds.svg	38	no	0	1	2000	0	0			0	0			1				0	
6.6.1	win	2023-06-02	00:04:17	00:13:35	521959	5b6c72f29dc5550001f8a514	3	1	main_z	11	advance_on_keypress_ZEE	132	stimuli_distractor_diamondtriangles.svg	stimuli_distractor_trianglediamonds.svg	38	no	57	0	226	0	0			0	0			1				0	
6.6.1	win	2023-06-02	00:04:17	00:13:36	523105	5b6c72f29dc5550001f8a514	3	1	main_z	11	main_z	133	stimuli_target_rectanglediamonds.svg	stimuli_distractor_diamondtriangles.svg	6	yes	44	1	297	0	0			0	0			1				0	
6.6.1	win	2023-06-02	00:04:17	00:13:36	523105	5b6c72f29dc5550001f8a514	3	1	main_z	11	advance_on_keypress_ZEE	134	stimuli_target_rectanglediamonds.svg	stimuli_distractor_diamondtriangles.svg	6	yes	57	0	127	0	0			0	0			1				0	
6.6.1	win	2023-06-02	00:04:17	00:13:37	524159	5b6c72f29dc5550001f8a514	3	1	main_z	11	main_z	135	stimuli_distractor_trianglediamonds.svg	stimuli_target_squarediamonds.svg	12	yes	44	1	301	0	0			0	0			1				0	
6.6.1	win	2023-06-02	00:04:17	00:13:37	524159	5b6c72f29dc5550001f8a514	3	1	main_z	11	advance_on_keypress_ZEE	136	stimuli_distractor_trianglediamonds.svg	stimuli_target_squarediamonds.svg	12	yes	57	0	135	0	0			0	0			1				0	
6.6.1	win	2023-06-02	00:04:17	00:13:38	525172	5b6c72f29dc5550001f8a514	3	1	main_z	11	main_z	137	stimuli_distractor_trianglediamonds.svg	stimuli_target_squaretriangles.svg	11	yes	44	1	256	0	0			0	0			1				0	
6.6.1	win	2023-06-02	00:04:17	00:13:38	525172	5b6c72f29dc5550001f8a514	3	1	main_z	11	advance_on_keypress_ZEE	138	stimuli_distractor_trianglediamonds.svg	stimuli_target_squaretriangles.svg	11	yes	57	0	107	0	0			0	0			1				0	
6.6.1	win	2023-06-02	00:04:17	00:13:41	527909	5b6c72f29dc5550001f8a514	3	1	main_z	11	main_z	139	stimuli_distractor_trianglediamonds.svg	stimuli_distractor_trianglediamonds.svg	34	no	0	1	2000	0	0			0	0			1				0	
6.6.1	win	2023-06-02	00:04:17	00:13:41	527909	5b6c72f29dc5550001f8a514	3	1	main_z	11	advance_on_keypress_ZEE	140	stimuli_distractor_trianglediamonds.svg	stimuli_distractor_trianglediamonds.svg	34	no	57	0	268	0	0			0	0			1				0	
6.6.1	win	2023-06-02	00:04:17	00:13:42	529106	5b6c72f29dc5550001f8a514	3	1	main_z	11	main_z	141	stimuli_distractor_diamondtriangles.svg	stimuli_target_rectangletriangles.svg	13	yes	44	1	306	0	0			0	0			1				0	
6.6.1	win	2023-06-02	00:04:17	00:13:42	529106	5b6c72f29dc5550001f8a514	3	1	main_z	11	advance_on_keypress_ZEE	142	stimuli_distractor_diamondtriangles.svg	stimuli_target_rectangletriangles.svg	13	yes	57	0	99	0	0			0	0			1				0	
6.6.1	win	2023-06-02	00:04:17	00:13:43	530145	5b6c72f29dc5550001f8a514	3	1	main_z	11	main_z	143	stimuli_distractor_trianglediamonds.svg	stimuli_distractor_diamondtriangles.svg	35	no	44	0	312	0	0			0	0			1				0	
6.6.1	win	2023-06-02	00:04:17	00:13:43	530145	5b6c72f29dc5550001f8a514	3	1	main_z	11	advance_on_keypress_ZEE	144	stimuli_distractor_trianglediamonds.svg	stimuli_distractor_diamondtriangles.svg	35	no	57	0	312	0	0			0	0			1				0	
6.6.1	win	2023-06-02	00:04:17	00:13:44	531724	5b6c72f29dc5550001f8a514	3	1	main_z	11	main_z	145	stimuli_target_trianglerectangles.svg	stimuli_distractor_trianglediamonds.svg	17	yes	44	1	649	0	0			0	0			1				0	
6.6.1	win	2023-06-02	00:04:17	00:13:44	531724	5b6c72f29dc5550001f8a514	3	1	main_z	11	advance_on_keypress_ZEE	146	stimuli_target_trianglerectangles.svg	stimuli_distractor_trianglediamonds.svg	17	yes	57	0	128	0	0			0	0			1				0	
6.6.1	win	2023-06-02	00:04:17	00:13:46	532998	5b6c72f29dc5550001f8a514	3	1	main_z	11	main_z	147	stimuli_distractor_trianglediamonds.svg	stimuli_target_trianglerectangles.svg	25	yes	44	1	524	0	0			0	0			1				0	
6.6.1	win	2023-06-02	00:04:17	00:13:46	532998	5b6c72f29dc5550001f8a514	3	1	main_z	11	advance_on_keypress_ZEE	148	stimuli_distractor_trianglediamonds.svg	stimuli_target_trianglerectangles.svg	25	yes	57	0	179	0	0			0	0			1				0	
6.6.1	win	2023-06-02	00:04:17	00:13:47	534248	5b6c72f29dc5550001f8a514	3	1	main_z	11	main_z	149	stimuli_distractor_diamondtriangles.svg	stimuli_target_squaretriangles.svg	15	yes	44	1	448	0	0			0	0			1				0	
6.6.1	win	2023-06-02	00:04:17	00:13:47	534248	5b6c72f29dc5550001f8a514	3	1	main_z	11	advance_on_keypress_ZEE	150	stimuli_distractor_diamondtriangles.svg	stimuli_target_squaretriangles.svg	15	yes	57	0	102	0	0			0	0			1				0	
6.6.1	win	2023-06-02	00:04:17	00:13:48	535297	5b6c72f29dc5550001f8a514	3	1	main_z	11	main_z	151	stimuli_target_rectanglediamonds.svg	stimuli_distractor_trianglediamonds.svg	2	yes	44	1	323	0	0			0	0			1				0	
6.6.1	win	2023-06-02	00:04:17	00:13:48	535297	5b6c72f29dc5550001f8a514	3	1	main_z	11	advance_on_keypress_ZEE	152	stimuli_target_rectanglediamonds.svg	stimuli_distractor_trianglediamonds.svg	2	yes	57	0	92	0	0			0	0			1				0	
6.6.1	win	2023-06-02	00:04:17	00:13:49	536329	5b6c72f29dc5550001f8a514	3	1	main_z	11	main_z	153	stimuli_distractor_trianglediamonds.svg	stimuli_target_rectanglediamonds.svg	10	yes	44	1	313	0	0			0	0			1				0	
6.6.1	win	2023-06-02	00:04:17	00:13:49	536329	5b6c72f29dc5550001f8a514	3	1	main_z	11	advance_on_keypress_ZEE	154	stimuli_distractor_trianglediamonds.svg	stimuli_target_rectanglediamonds.svg	10	yes	57	0	113	0	0			0	0			1				0	
6.6.1	win	2023-06-02	00:04:17	00:13:50	537418	5b6c72f29dc5550001f8a514	3	1	main_z	11	main_z	155	stimuli_target_squarediamonds.svg	stimuli_distractor_trianglediamonds.svg	4	yes	44	1	359	0	0			0	0			1				0	
6.6.1	win	2023-06-02	00:04:17	00:13:50	537418	5b6c72f29dc5550001f8a514	3	1	main_z	11	advance_on_keypress_ZEE	156	stimuli_target_squarediamonds.svg	stimuli_distractor_trianglediamonds.svg	4	yes	57	0	101	0	0			0	0			1				0	
6.6.1	win	2023-06-02	00:04:17	00:13:51	538641	5b6c72f29dc5550001f8a514	3	1	main_z	11	main_z	157	stimuli_distractor_diamondtriangles.svg	stimuli_target_diamondsquares.svg	32	yes	44	1	499	0	0			0	0			1				0	
6.6.1	win	2023-06-02	00:04:17	00:13:51	538641	5b6c72f29dc5550001f8a514	3	1	main_z	11	advance_on_keypress_ZEE	158	stimuli_distractor_diamondtriangles.svg	stimuli_target_diamondsquares.svg	32	yes	57	0	151	0	0			0	0			1				0	
6.6.1	win	2023-06-02	00:04:17	00:13:52	539715	5b6c72f29dc5550001f8a514	3	1	main_z	11	main_z	159	stimuli_target_squarediamonds.svg	stimuli_distractor_diamondtriangles.svg	8	yes	44	1	298	0	0			0	0			1				0	
6.6.1	win	2023-06-02	00:04:17	00:13:52	539715	5b6c72f29dc5550001f8a514	3	1	main_z	11	advance_on_keypress_ZEE	160	stimuli_target_squarediamonds.svg	stimuli_distractor_diamondtriangles.svg	8	yes	57	0	83	0	0			0	0			1				0	
6.6.1	win	2023-06-02	00:04:17	00:13:52	539715	5b6c72f29dc5550001f8a514	3	1	headphonecheck_calibration	14	headphonecheck_calibrationIntro	1	stimuli_target_squarediamonds.svg	stimuli_distractor_diamondtriangles.svg	8	yes	calibrationButton	0	1195	0	0			0	0			1				0	
6.6.1	win	2023-06-02	00:04:17	00:13:52	539715	5b6c72f29dc5550001f8a514	3	1	headphonecheck_testphase	15	test_collectResponse	3	stimuli_target_squarediamonds.svg	stimuli_distractor_diamondtriangles.svg	8	yes	first	0	241	1	5	antiphase_hc_osi.wav	2	0	0			1				0	
6.6.1	win	2023-06-02	00:04:17	00:13:52	539715	5b6c72f29dc5550001f8a514	3	1	headphonecheck_testphase	15	test_collectResponse	6	stimuli_target_squarediamonds.svg	stimuli_distractor_diamondtriangles.svg	8	yes	second	0	215	2	3	antiphase_hc_soi.wav	1	0	0			1				0	
6.6.1	win	2023-06-02	00:04:17	00:13:52	539715	5b6c72f29dc5550001f8a514	3	1	headphonecheck_testphase	15	test_collectResponse	9	stimuli_target_squarediamonds.svg	stimuli_distractor_diamondtriangles.svg	8	yes	first	0	259	3	6	antiphase_hc_ois.wav	3	0	0			1				0	
6.6.1	win	2023-06-02	00:04:17	00:13:52	539715	5b6c72f29dc5550001f8a514	3	1	headphonecheck_testphase	15	test_collectResponse	12	stimuli_target_squarediamonds.svg	stimuli_distractor_diamondtriangles.svg	8	yes	third	0	160	4	1	antiphase_hc_iso.wav	2	0	0			1				0	
6.6.1	win	2023-06-02	00:04:17	00:13:52	539715	5b6c72f29dc5550001f8a514	3	1	headphonecheck_testphase	15	test_collectResponse	15	stimuli_target_squarediamonds.svg	stimuli_distractor_diamondtriangles.svg	8	yes	second	0	179	5	2	antiphase_hc_ios.wav	3	0	0			1				0	
6.6.1	win	2023-06-02	00:04:17	00:13:52	539715	5b6c72f29dc5550001f8a514	3	1	headphonecheck_testphase	15	test_collectResponse	18	stimuli_target_squarediamonds.svg	stimuli_distractor_diamondtriangles.svg	8	yes	third	0	162	6	4	antiphase_hc_sio.wav	1	0	0			1				0	
6.6.1	win	2023-06-02	00:04:17	00:13:52	539715	5b6c72f29dc5550001f8a514	3	1	stereocheck_calibration	17	stereocheck_calibrationIntro	1	stimuli_target_squarediamonds.svg	stimuli_distractor_diamondtriangles.svg	8	yes	stereocheck_calibrationButton	0	7535	6	4	antiphase_hc_sio.wav	1	0	0			1				0	
6.6.1	win	2023-06-02	00:04:17	00:13:52	539715	5b6c72f29dc5550001f8a514	3	1	stereocheck_testphase	18	stereocheck_test_collectResponse	3	stimuli_target_squarediamonds.svg	stimuli_distractor_diamondtriangles.svg	8	yes	stereocheck_right	1	1622	6	4	antiphase_hc_sio.wav	1	1	4	noise_calib_stim_RIGHT.wav	2	1				0	
6.6.1	win	2023-06-02	00:04:17	00:13:52	539715	5b6c72f29dc5550001f8a514	3	1	stereocheck_testphase	18	stereocheck_test_collectResponse	6	stimuli_target_squarediamonds.svg	stimuli_distractor_diamondtriangles.svg	8	yes	stereocheck_left	1	266	6	4	antiphase_hc_sio.wav	1	2	1	noise_calib_stim_LEFT.wav	1	1				0	
6.6.1	win	2023-06-02	00:04:17	00:13:52	539715	5b6c72f29dc5550001f8a514	3	1	stereocheck_testphase	18	stereocheck_test_collectResponse	9	stimuli_target_squarediamonds.svg	stimuli_distractor_diamondtriangles.svg	8	yes	stereocheck_left	1	233	6	4	antiphase_hc_sio.wav	1	3	3	noise_calib_stim_LEFT.wav	1	1				0	
6.6.1	win	2023-06-02	00:04:17	00:13:52	539715	5b6c72f29dc5550001f8a514	3	1	stereocheck_testphase	18	stereocheck_test_collectResponse	12	stimuli_target_squarediamonds.svg	stimuli_distractor_diamondtriangles.svg	8	yes	stereocheck_left	1	225	6	4	antiphase_hc_sio.wav	1	4	2	noise_calib_stim_LEFT.wav	1	1				0	
6.6.1	win	2023-06-02	00:04:17	00:13:52	539715	5b6c72f29dc5550001f8a514	3	1	stereocheck_testphase	18	stereocheck_test_collectResponse	15	stimuli_target_squarediamonds.svg	stimuli_distractor_diamondtriangles.svg	8	yes	stereocheck_right	1	201	6	4	antiphase_hc_sio.wav	1	5	5	noise_calib_stim_RIGHT.wav	2	1				0	
6.6.1	win	2023-06-02	00:04:17	00:13:52	539715	5b6c72f29dc5550001f8a514	3	1	stereocheck_testphase	18	stereocheck_test_collectResponse	18	stimuli_target_squarediamonds.svg	stimuli_distractor_diamondtriangles.svg	8	yes	stereocheck_right	1	239	6	4	antiphase_hc_sio.wav	1	6	6	noise_calib_stim_RIGHT.wav	2	1				0	
6.6.1	win	2023-06-02	00:04:17	00:13:52	539715	5b6c72f29dc5550001f8a514	3	1	DL_practice	21	DL_practice	2	stimuli_target_squarediamonds.svg	stimuli_distractor_diamondtriangles.svg	8	yes	ga	0	1895	6	4	antiphase_hc_sio.wav	1	6	6	noise_calib_stim_RIGHT.wav	2	7	blb_dichoticlistening_da-ba.mp3	da	ba	1	other
6.6.1	win	2023-06-02	00:04:17	00:13:52	539715	5b6c72f29dc5550001f8a514	3	1	DL_practice	21	DL_practice	3	stimuli_target_squarediamonds.svg	stimuli_distractor_diamondtriangles.svg	8	yes	ka	0	1288	6	4	antiphase_hc_sio.wav	1	6	6	noise_calib_stim_RIGHT.wav	2	18	blb_dichoticlistening_ga-ta.mp3	ga	ta	1	other
6.6.1	win	2023-06-02	00:04:17	00:13:52	539715	5b6c72f29dc5550001f8a514	3	1	DL_practice	21	DL_practice	4	stimuli_target_squarediamonds.svg	stimuli_distractor_diamondtriangles.svg	8	yes	ga	1	673	6	4	antiphase_hc_sio.wav	1	6	6	noise_calib_stim_RIGHT.wav	2	15	blb_dichoticlistening_ga-ga.mp3	ga	ga	0	left
6.6.1	win	2023-06-02	00:04:17	00:13:52	539715	5b6c72f29dc5550001f8a514	3	1	DL_practice	21	DL_practice	5	stimuli_target_squarediamonds.svg	stimuli_distractor_diamondtriangles.svg	8	yes	ka	1	799	6	4	antiphase_hc_sio.wav	1	6	6	noise_calib_stim_RIGHT.wav	2	22	blb_dichoticlistening_ka-ka.mp3	ka	ka	0	left
6.6.1	win	2023-06-02	00:04:17	00:13:52	539715	5b6c72f29dc5550001f8a514	3	1	DL_practice	21	DL_practice	6	stimuli_target_squarediamonds.svg	stimuli_distractor_diamondtriangles.svg	8	yes	pa	1	827	6	4	antiphase_hc_sio.wav	1	6	6	noise_calib_stim_RIGHT.wav	2	23	blb_dichoticlistening_ka-pa.mp3	ka	pa	1	right
6.6.1	win	2023-06-02	00:04:17	00:13:52	539715	5b6c72f29dc5550001f8a514	3	1	DL_practice	21	DL_practice	7	stimuli_target_squarediamonds.svg	stimuli_distractor_diamondtriangles.svg	8	yes	ta	1	762	6	4	antiphase_hc_sio.wav	1	6	6	noise_calib_stim_RIGHT.wav	2	36	blb_dichoticlistening_ta-ta.mp3	ta	ta	0	left
6.6.1	win	2023-06-02	00:04:17	00:13:52	539715	5b6c72f29dc5550001f8a514	3	1	DL_practice	21	DL_practice	8	stimuli_target_squarediamonds.svg	stimuli_distractor_diamondtriangles.svg	8	yes	ba	1	960	6	4	antiphase_hc_sio.wav	1	6	6	noise_calib_stim_RIGHT.wav	2	1	blb_dichoticlistening_ba-ba.mp3	ba	ba	0	left
6.6.1	win	2023-06-02	00:04:17	00:13:52	539715	5b6c72f29dc5550001f8a514	3	1	DL_practice	21	DL_practice	9	stimuli_target_squarediamonds.svg	stimuli_distractor_diamondtriangles.svg	8	yes	da	1	591	6	4	antiphase_hc_sio.wav	1	6	6	noise_calib_stim_RIGHT.wav	2	8	blb_dichoticlistening_da-da.mp3	da	da	0	left
6.6.1	win	2023-06-02	00:04:17	00:13:52	539715	5b6c72f29dc5550001f8a514	3	1	DL_practice	21	DL_practice	10	stimuli_target_squarediamonds.svg	stimuli_distractor_diamondtriangles.svg	8	yes	pa	1	1007	6	4	antiphase_hc_sio.wav	1	6	6	noise_calib_stim_RIGHT.wav	2	29	blb_dichoticlistening_pa-pa.mp3	pa	pa	0	left
6.6.1	win	2023-06-02	00:04:17	00:13:52	539715	5b6c72f29dc5550001f8a514	3	1	DL_test	23	DL_test	1	stimuli_target_squarediamonds.svg	stimuli_distractor_diamondtriangles.svg	8	yes	da	1	829	6	4	antiphase_hc_sio.wav	1	6	6	noise_calib_stim_RIGHT.wav	2	26	blb_dichoticlistening_pa-da.mp3	pa	da	1	right
6.6.1	win	2023-06-02	00:04:17	00:13:52	539715	5b6c72f29dc5550001f8a514	3	1	DL_test	23	DL_test	2	stimuli_target_squarediamonds.svg	stimuli_distractor_diamondtriangles.svg	8	yes	ta	1	1425	6	4	antiphase_hc_sio.wav	1	6	6	noise_calib_stim_RIGHT.wav	2	6	blb_dichoticlistening_ba-ta.mp3	ba	ta	1	right
6.6.1	win	2023-06-02	00:04:17	00:13:52	539715	5b6c72f29dc5550001f8a514	3	1	DL_test	23	DL_test	3	stimuli_target_squarediamonds.svg	stimuli_distractor_diamondtriangles.svg	8	yes	ka	1	733	6	4	antiphase_hc_sio.wav	1	6	6	noise_calib_stim_RIGHT.wav	2	22	blb_dichoticlistening_ka-ka.mp3	ka	ka	0	left
6.6.1	win	2023-06-02	00:04:17	00:13:52	539715	5b6c72f29dc5550001f8a514	3	1	DL_test	23	DL_test	4	stimuli_target_squarediamonds.svg	stimuli_distractor_diamondtriangles.svg	8	yes	ka	1	1234	6	4	antiphase_hc_sio.wav	1	6	6	noise_calib_stim_RIGHT.wav	2	16	blb_dichoticlistening_ga-ka.mp3	ga	ka	1	right
6.6.1	win	2023-06-02	00:04:17	00:13:52	539715	5b6c72f29dc5550001f8a514	3	1	DL_test	23	DL_test	5	stimuli_target_squarediamonds.svg	stimuli_distractor_diamondtriangles.svg	8	yes	ka	1	819	6	4	antiphase_hc_sio.wav	1	6	6	noise_calib_stim_RIGHT.wav	2	4	blb_dichoticlistening_ba-ka.mp3	ba	ka	1	right
6.6.1	win	2023-06-02	00:04:17	00:13:52	539715	5b6c72f29dc5550001f8a514	3	1	DL_test	23	DL_test	6	stimuli_target_squarediamonds.svg	stimuli_distractor_diamondtriangles.svg	8	yes	ta	1	2473	6	4	antiphase_hc_sio.wav	1	6	6	noise_calib_stim_RIGHT.wav	2	24	blb_dichoticlistening_ka-ta.mp3	ka	ta	1	right
6.6.1	win	2023-06-02	00:04:17	00:13:52	539715	5b6c72f29dc5550001f8a514	3	1	DL_test	23	DL_test	7	stimuli_target_squarediamonds.svg	stimuli_distractor_diamondtriangles.svg	8	yes	da	1	1088	6	4	antiphase_hc_sio.wav	1	6	6	noise_calib_stim_RIGHT.wav	2	2	blb_dichoticlistening_ba-da.mp3	ba	da	1	right
6.6.1	win	2023-06-02	00:04:17	00:13:52	539715	5b6c72f29dc5550001f8a514	3	1	DL_test	23	DL_test	8	stimuli_target_squarediamonds.svg	stimuli_distractor_diamondtriangles.svg	8	yes	pa	1	1058	6	4	antiphase_hc_sio.wav	1	6	6	noise_calib_stim_RIGHT.wav	2	35	blb_dichoticlistening_ta-pa.mp3	ta	pa	1	right
6.6.1	win	2023-06-02	00:04:17	00:13:52	539715	5b6c72f29dc5550001f8a514	3	1	DL_test	23	DL_test	9	stimuli_target_squarediamonds.svg	stimuli_distractor_diamondtriangles.svg	8	yes	pa	1	934	6	4	antiphase_hc_sio.wav	1	6	6	noise_calib_stim_RIGHT.wav	2	29	blb_dichoticlistening_pa-pa.mp3	pa	pa	0	left
6.6.1	win	2023-06-02	00:04:17	00:13:52	539715	5b6c72f29dc5550001f8a514	3	1	DL_test	23	DL_test	10	stimuli_target_squarediamonds.svg	stimuli_distractor_diamondtriangles.svg	8	yes	ka	0	1148	6	4	antiphase_hc_sio.wav	1	6	6	noise_calib_stim_RIGHT.wav	2	12	blb_dichoticlistening_da-ta.mp3	da	ta	1	other
6.6.1	win	2023-06-02	00:04:17	00:13:52	539715	5b6c72f29dc5550001f8a514	3	1	DL_test	23	DL_test	11	stimuli_target_squarediamonds.svg	stimuli_distractor_diamondtriangles.svg	8	yes	ta	0	1998	6	4	antiphase_hc_sio.wav	1	6	6	noise_calib_stim_RIGHT.wav	2	23	blb_dichoticlistening_ka-pa.mp3	ka	pa	1	other
6.6.1	win	2023-06-02	00:04:17	00:13:52	539715	5b6c72f29dc5550001f8a514	3	1	DL_test	23	DL_test	12	stimuli_target_squarediamonds.svg	stimuli_distractor_diamondtriangles.svg	8	yes	ka	1	1340	6	4	antiphase_hc_sio.wav	1	6	6	noise_calib_stim_RIGHT.wav	2	34	blb_dichoticlistening_ta-ka.mp3	ta	ka	1	right
6.6.1	win	2023-06-02	00:04:17	00:13:52	539715	5b6c72f29dc5550001f8a514	3	1	DL_test	23	DL_test	13	stimuli_target_squarediamonds.svg	stimuli_distractor_diamondtriangles.svg	8	yes	pa	1	1716	6	4	antiphase_hc_sio.wav	1	6	6	noise_calib_stim_RIGHT.wav	2	11	blb_dichoticlistening_da-pa.mp3	da	pa	1	right
6.6.1	win	2023-06-02	00:04:17	00:13:52	539715	5b6c72f29dc5550001f8a514	3	1	DL_test	23	DL_test	14	stimuli_target_squarediamonds.svg	stimuli_distractor_diamondtriangles.svg	8	yes	ga	1	868	6	4	antiphase_hc_sio.wav	1	6	6	noise_calib_stim_RIGHT.wav	2	14	blb_dichoticlistening_ga-da.mp3	ga	da	1	left
6.6.1	win	2023-06-02	00:04:17	00:13:52	539715	5b6c72f29dc5550001f8a514	3	1	DL_test	23	DL_test	15	stimuli_target_squarediamonds.svg	stimuli_distractor_diamondtriangles.svg	8	yes	ba	1	876	6	4	antiphase_hc_sio.wav	1	6	6	noise_calib_stim_RIGHT.wav	2	25	blb_dichoticlistening_pa-ba.mp3	pa	ba	1	right
6.6.1	win	2023-06-02	00:04:17	00:13:52	539715	5b6c72f29dc5550001f8a514	3	1	DL_test	23	DL_test	16	stimuli_target_squarediamonds.svg	stimuli_distractor_diamondtriangles.svg	8	yes	ka	1	962	6	4	antiphase_hc_sio.wav	1	6	6	noise_calib_stim_RIGHT.wav	2	28	blb_dichoticlistening_pa-ka.mp3	pa	ka	1	right
6.6.1	win	2023-06-02	00:04:17	00:13:52	539715	5b6c72f29dc5550001f8a514	3	1	DL_test	23	DL_test	17	stimuli_target_squarediamonds.svg	stimuli_distractor_diamondtriangles.svg	8	yes	ta	1	1328	6	4	antiphase_hc_sio.wav	1	6	6	noise_calib_stim_RIGHT.wav	2	36	blb_dichoticlistening_ta-ta.mp3	ta	ta	0	left
6.6.1	win	2023-06-02	00:04:17	00:13:52	539715	5b6c72f29dc5550001f8a514	3	1	DL_test	23	DL_test	18	stimuli_target_squarediamonds.svg	stimuli_distractor_diamondtriangles.svg	8	yes	ga	1	1569	6	4	antiphase_hc_sio.wav	1	6	6	noise_calib_stim_RIGHT.wav	2	33	blb_dichoticlistening_ta-ga.mp3	ta	ga	1	right
6.6.1	win	2023-06-02	00:04:17	00:13:52	539715	5b6c72f29dc5550001f8a514	3	1	DL_test	23	DL_test	19	stimuli_target_squarediamonds.svg	stimuli_distractor_diamondtriangles.svg	8	yes	pa	0	863	6	4	antiphase_hc_sio.wav	1	6	6	noise_calib_stim_RIGHT.wav	2	10	blb_dichoticlistening_da-ka.mp3	da	ka	1	other
6.6.1	win	2023-06-02	00:04:17	00:13:52	539715	5b6c72f29dc5550001f8a514	3	1	DL_test	23	DL_test	20	stimuli_target_squarediamonds.svg	stimuli_distractor_diamondtriangles.svg	8	yes	ta	1	974	6	4	antiphase_hc_sio.wav	1	6	6	noise_calib_stim_RIGHT.wav	2	30	blb_dichoticlistening_pa-ta.mp3	pa	ta	1	right
6.6.1	win	2023-06-02	00:04:17	00:13:52	539715	5b6c72f29dc5550001f8a514	3	1	DL_test	23	DL_test	21	stimuli_target_squarediamonds.svg	stimuli_distractor_diamondtriangles.svg	8	yes	pa	1	885	6	4	antiphase_hc_sio.wav	1	6	6	noise_calib_stim_RIGHT.wav	2	5	blb_dichoticlistening_ba-pa.mp3	ba	pa	1	right
6.6.1	win	2023-06-02	00:04:17	00:13:52	539715	5b6c72f29dc5550001f8a514	3	1	DL_test	23	DL_test	22	stimuli_target_squarediamonds.svg	stimuli_distractor_diamondtriangles.svg	8	yes	ga	1	618	6	4	antiphase_hc_sio.wav	1	6	6	noise_calib_stim_RIGHT.wav	2	3	blb_dichoticlistening_ba-ga.mp3	ba	ga	1	right
6.6.1	win	2023-06-02	00:04:17	00:13:52	539715	5b6c72f29dc5550001f8a514	3	1	DL_test	23	DL_test	23	stimuli_target_squarediamonds.svg	stimuli_distractor_diamondtriangles.svg	8	yes	da	1	690	6	4	antiphase_hc_sio.wav	1	6	6	noise_calib_stim_RIGHT.wav	2	7	blb_dichoticlistening_da-ba.mp3	da	ba	1	left
6.6.1	win	2023-06-02	00:04:17	00:13:52	539715	5b6c72f29dc5550001f8a514	3	1	DL_test	23	DL_test	24	stimuli_target_squarediamonds.svg	stimuli_distractor_diamondtriangles.svg	8	yes	ba	1	1093	6	4	antiphase_hc_sio.wav	1	6	6	noise_calib_stim_RIGHT.wav	2	31	blb_dichoticlistening_ta-ba.mp3	ta	ba	1	right
6.6.1	win	2023-06-02	00:04:17	00:13:52	539715	5b6c72f29dc5550001f8a514	3	1	DL_test	23	DL_test	25	stimuli_target_squarediamonds.svg	stimuli_distractor_diamondtriangles.svg	8	yes	da	1	823	6	4	antiphase_hc_sio.wav	1	6	6	noise_calib_stim_RIGHT.wav	2	32	blb_dichoticlistening_ta-da.mp3	ta	da	1	right
6.6.1	win	2023-06-02	00:04:17	00:13:52	539715	5b6c72f29dc5550001f8a514	3	1	DL_test	23	DL_test	26	stimuli_target_squarediamonds.svg	stimuli_distractor_diamondtriangles.svg	8	yes	ga	0	639	6	4	antiphase_hc_sio.wav	1	6	6	noise_calib_stim_RIGHT.wav	2	20	blb_dichoticlistening_ka-da.mp3	ka	da	1	other
