build	computer.platform	date	time	timestamp	time_elapsed_ms	subject	group	session	blockcode	blocknum	trialcode	trialnum	stimulus_left	stimulus_right	stim_index	target_present	response	correct	latency	headphonecheck_countTestTrials	headphonecheck_index	headphonecheck_testSound	headphonecheck_correctResponse	stereocheck_countTestTrials	stereocheck_index	stereocheck_testSound	stereocheck_correctResponse	DL_index	DL_soundfile	DL_leftSound	DL_rightSound	DL_dualSound	DL_choice
6.6.1	win	2023-06-12	18:54:05	18:56:45	157400	63d086f89f695e2d3c210e9f	4	1	practice_z	5	practice_z	1	stimuli_distractor_diamondtriangles.svg	stimuli_target_diamondrectangles.svg	8	yes	44	1	1448	0	0			0	0			1				0	
6.6.1	win	2023-06-12	18:54:05	18:56:45	157400	63d086f89f695e2d3c210e9f	4	1	practice_z	5	advance_on_keypress_ZEE	2	stimuli_distractor_diamondtriangles.svg	stimuli_target_diamondrectangles.svg	8	yes	57	0	562	0	0			0	0			1				0	
6.6.1	win	2023-06-12	18:54:05	18:56:49	161599	63d086f89f695e2d3c210e9f	4	1	practice_z	5	practice_z	3	stimuli_distractor_trianglediamonds.svg	stimuli_distractor_trianglediamonds.svg	15	no	0	1	2003	0	0			0	0			1				0	
6.6.1	win	2023-06-12	18:54:05	18:56:49	161599	63d086f89f695e2d3c210e9f	4	1	practice_z	5	advance_on_keypress_ZEE	4	stimuli_distractor_trianglediamonds.svg	stimuli_distractor_trianglediamonds.svg	15	no	57	0	470	0	0			0	0			1				0	
6.6.1	win	2023-06-12	18:54:05	18:56:52	164550	63d086f89f695e2d3c210e9f	4	1	practice_z	5	practice_z	5	stimuli_target_diamondsquares.svg	stimuli_distractor_diamondtriangles.svg	3	yes	44	1	857	0	0			0	0			1				0	
6.6.1	win	2023-06-12	18:54:05	18:56:52	164550	63d086f89f695e2d3c210e9f	4	1	practice_z	5	advance_on_keypress_ZEE	6	stimuli_target_diamondsquares.svg	stimuli_distractor_diamondtriangles.svg	3	yes	57	0	723	0	0			0	0			1				0	
6.6.1	win	2023-06-12	18:54:05	18:56:57	168890	63d086f89f695e2d3c210e9f	4	1	practice_z	5	practice_z	7	stimuli_distractor_diamondtriangles.svg	stimuli_distractor_trianglediamonds.svg	14	no	0	1	2003	0	0			0	0			1				0	
6.6.1	win	2023-06-12	18:54:05	18:56:57	168890	63d086f89f695e2d3c210e9f	4	1	practice_z	5	advance_on_keypress_ZEE	8	stimuli_distractor_diamondtriangles.svg	stimuli_distractor_trianglediamonds.svg	14	no	57	0	670	0	0			0	0			1				0	
6.6.1	win	2023-06-12	18:54:05	18:57:00	172160	63d086f89f695e2d3c210e9f	4	1	practice_z	5	practice_z	9	stimuli_target_squarediamonds.svg	stimuli_distractor_trianglediamonds.svg	5	yes	44	1	981	0	0			0	0			1				0	
6.6.1	win	2023-06-12	18:54:05	18:57:00	172160	63d086f89f695e2d3c210e9f	4	1	practice_z	5	advance_on_keypress_ZEE	10	stimuli_target_squarediamonds.svg	stimuli_distractor_trianglediamonds.svg	5	yes	57	0	744	0	0			0	0			1				0	
6.6.1	win	2023-06-12	18:54:05	18:57:04	175702	63d086f89f695e2d3c210e9f	4	1	practice_z	5	practice_z	11	stimuli_target_rectanglediamonds.svg	stimuli_distractor_diamondtriangles.svg	1	yes	44	1	1183	0	0			0	0			1				0	
6.6.1	win	2023-06-12	18:54:05	18:57:04	175702	63d086f89f695e2d3c210e9f	4	1	practice_z	5	advance_on_keypress_ZEE	12	stimuli_target_rectanglediamonds.svg	stimuli_distractor_diamondtriangles.svg	1	yes	57	0	473	0	0			0	0			1				0	
6.6.1	win	2023-06-12	18:54:05	18:57:07	178659	63d086f89f695e2d3c210e9f	4	1	practice_z	5	practice_z	13	stimuli_distractor_trianglediamonds.svg	stimuli_target_squarediamonds.svg	11	yes	44	1	866	0	0			0	0			1				0	
6.6.1	win	2023-06-12	18:54:05	18:57:07	178659	63d086f89f695e2d3c210e9f	4	1	practice_z	5	advance_on_keypress_ZEE	14	stimuli_distractor_trianglediamonds.svg	stimuli_target_squarediamonds.svg	11	yes	57	0	864	0	0			0	0			1				0	
6.6.1	win	2023-06-12	18:54:05	18:57:11	183140	63d086f89f695e2d3c210e9f	4	1	practice_z	5	practice_z	15	stimuli_distractor_diamondtriangles.svg	stimuli_distractor_diamondtriangles.svg	13	no	0	1	2003	0	0			0	0			1				0	
6.6.1	win	2023-06-12	18:54:05	18:57:11	183140	63d086f89f695e2d3c210e9f	4	1	practice_z	5	advance_on_keypress_ZEE	16	stimuli_distractor_diamondtriangles.svg	stimuli_distractor_diamondtriangles.svg	13	no	57	0	2479	0	0			0	0			1				0	
6.6.1	win	2023-06-12	18:54:05	18:57:16	187904	63d086f89f695e2d3c210e9f	4	1	practice_z	5	practice_z	17	stimuli_distractor_trianglediamonds.svg	stimuli_target_rectanglediamonds.svg	10	yes	44	1	656	0	0			0	0			1				0	
6.6.1	win	2023-06-12	18:54:05	18:57:16	187904	63d086f89f695e2d3c210e9f	4	1	practice_z	5	advance_on_keypress_ZEE	18	stimuli_distractor_trianglediamonds.svg	stimuli_target_rectanglediamonds.svg	10	yes	57	0	560	0	0			0	0			1				0	
6.6.1	win	2023-06-12	18:54:05	18:57:19	190738	63d086f89f695e2d3c210e9f	4	1	practice_z	5	practice_z	19	stimuli_distractor_diamondtriangles.svg	stimuli_target_rectangletriangles.svg	7	yes	44	1	656	0	0			0	0			1				0	
6.6.1	win	2023-06-12	18:54:05	18:57:19	190738	63d086f89f695e2d3c210e9f	4	1	practice_z	5	advance_on_keypress_ZEE	20	stimuli_distractor_diamondtriangles.svg	stimuli_target_rectangletriangles.svg	7	yes	57	0	805	0	0			0	0			1				0	
6.6.1	win	2023-06-12	18:54:05	18:57:22	193743	63d086f89f695e2d3c210e9f	4	1	practice_z	5	practice_z	21	stimuli_target_rectanglediamonds.svg	stimuli_distractor_trianglediamonds.svg	4	yes	44	1	585	0	0			0	0			1				0	
6.6.1	win	2023-06-12	18:54:05	18:57:22	193743	63d086f89f695e2d3c210e9f	4	1	practice_z	5	advance_on_keypress_ZEE	22	stimuli_target_rectanglediamonds.svg	stimuli_distractor_trianglediamonds.svg	4	yes	57	0	707	0	0			0	0			1				0	
6.6.1	win	2023-06-12	18:54:05	18:57:26	198075	63d086f89f695e2d3c210e9f	4	1	practice_z	5	practice_z	23	stimuli_distractor_trianglediamonds.svg	stimuli_distractor_diamondtriangles.svg	16	no	0	1	2003	0	0			0	0			1				0	
6.6.1	win	2023-06-12	18:54:05	18:57:26	198075	63d086f89f695e2d3c210e9f	4	1	practice_z	5	advance_on_keypress_ZEE	24	stimuli_distractor_trianglediamonds.svg	stimuli_distractor_diamondtriangles.svg	16	no	57	0	384	0	0			0	0			1				0	
6.6.1	win	2023-06-12	18:54:05	18:57:29	200680	63d086f89f695e2d3c210e9f	4	1	practice_z	5	practice_z	25	stimuli_distractor_trianglediamonds.svg	stimuli_target_diamondrectangles.svg	12	yes	44	1	569	0	0			0	0			1				0	
6.6.1	win	2023-06-12	18:54:05	18:57:29	200680	63d086f89f695e2d3c210e9f	4	1	practice_z	5	advance_on_keypress_ZEE	26	stimuli_distractor_trianglediamonds.svg	stimuli_target_diamondrectangles.svg	12	yes	57	0	568	0	0			0	0			1				0	
6.6.1	win	2023-06-12	18:54:05	18:57:31	203497	63d086f89f695e2d3c210e9f	4	1	practice_z	5	practice_z	27	stimuli_target_squarediamonds.svg	stimuli_distractor_diamondtriangles.svg	2	yes	44	1	595	0	0			0	0			1				0	
6.6.1	win	2023-06-12	18:54:05	18:57:31	203497	63d086f89f695e2d3c210e9f	4	1	practice_z	5	advance_on_keypress_ZEE	28	stimuli_target_squarediamonds.svg	stimuli_distractor_diamondtriangles.svg	2	yes	57	0	710	0	0			0	0			1				0	
6.6.1	win	2023-06-12	18:54:05	18:57:34	206608	63d086f89f695e2d3c210e9f	4	1	practice_z	5	practice_z	29	stimuli_target_diamondsquares.svg	stimuli_distractor_trianglediamonds.svg	6	yes	44	1	764	0	0			0	0			1				0	
6.6.1	win	2023-06-12	18:54:05	18:57:34	206608	63d086f89f695e2d3c210e9f	4	1	practice_z	5	advance_on_keypress_ZEE	30	stimuli_target_diamondsquares.svg	stimuli_distractor_trianglediamonds.svg	6	yes	57	0	1304	0	0			0	0			1				0	
6.6.1	win	2023-06-12	18:54:05	18:57:38	210520	63d086f89f695e2d3c210e9f	4	1	practice_z	5	practice_z	31	stimuli_distractor_diamondtriangles.svg	stimuli_target_trianglerectangles.svg	9	yes	44	1	976	0	0			0	0			1				0	
6.6.1	win	2023-06-12	18:54:05	18:57:38	210520	63d086f89f695e2d3c210e9f	4	1	practice_z	5	advance_on_keypress_ZEE	32	stimuli_distractor_diamondtriangles.svg	stimuli_target_trianglerectangles.svg	9	yes	57	0	979	0	0			0	0			1				0	
6.6.1	win	2023-06-12	18:54:05	18:57:50	221820	63d086f89f695e2d3c210e9f	4	1	main_z	7	main_z	1	stimuli_target_diamondrectangles.svg	stimuli_distractor_diamondtriangles.svg	23	yes	44	1	640	0	0			0	0			1				0	
6.6.1	win	2023-06-12	18:54:05	18:57:50	221820	63d086f89f695e2d3c210e9f	4	1	main_z	7	advance_on_keypress_ZEE	2	stimuli_target_diamondrectangles.svg	stimuli_distractor_diamondtriangles.svg	23	yes	57	0	936	0	0			0	0			1				0	
6.6.1	win	2023-06-12	18:54:05	18:57:52	224501	63d086f89f695e2d3c210e9f	4	1	main_z	7	main_z	3	stimuli_distractor_trianglediamonds.svg	stimuli_target_squarediamonds.svg	12	yes	44	1	1121	0	0			0	0			1				0	
6.6.1	win	2023-06-12	18:54:05	18:57:52	224501	63d086f89f695e2d3c210e9f	4	1	main_z	7	advance_on_keypress_ZEE	4	stimuli_distractor_trianglediamonds.svg	stimuli_target_squarediamonds.svg	12	yes	57	0	540	0	0			0	0			1				0	
6.6.1	win	2023-06-12	18:54:05	18:57:54	226265	63d086f89f695e2d3c210e9f	4	1	main_z	7	main_z	5	stimuli_target_rectangletriangles.svg	stimuli_distractor_diamondtriangles.svg	5	yes	44	1	613	0	0			0	0			1				0	
6.6.1	win	2023-06-12	18:54:05	18:57:54	226265	63d086f89f695e2d3c210e9f	4	1	main_z	7	advance_on_keypress_ZEE	6	stimuli_target_rectangletriangles.svg	stimuli_distractor_diamondtriangles.svg	5	yes	57	0	525	0	0			0	0			1				0	
6.6.1	win	2023-06-12	18:54:05	18:57:57	229414	63d086f89f695e2d3c210e9f	4	1	main_z	7	main_z	7	stimuli_target_trianglerectangles.svg	stimuli_distractor_trianglediamonds.svg	17	yes	0	0	2003	0	0			0	0			1				0	
6.6.1	win	2023-06-12	18:54:05	18:57:57	229414	63d086f89f695e2d3c210e9f	4	1	main_z	7	advance_on_keypress_ZEE	8	stimuli_target_trianglerectangles.svg	stimuli_distractor_trianglediamonds.svg	17	yes	57	0	513	0	0			0	0			1				0	
6.6.1	win	2023-06-12	18:54:05	18:57:59	231507	63d086f89f695e2d3c210e9f	4	1	main_z	7	main_z	9	stimuli_distractor_trianglediamonds.svg	stimuli_target_rectanglediamonds.svg	10	yes	44	1	954	0	0			0	0			1				0	
6.6.1	win	2023-06-12	18:54:05	18:57:59	231507	63d086f89f695e2d3c210e9f	4	1	main_z	7	advance_on_keypress_ZEE	10	stimuli_distractor_trianglediamonds.svg	stimuli_target_rectanglediamonds.svg	10	yes	57	0	572	0	0			0	0			1				0	
6.6.1	win	2023-06-12	18:54:05	18:58:03	234711	63d086f89f695e2d3c210e9f	4	1	main_z	7	main_z	11	stimuli_distractor_trianglediamonds.svg	stimuli_distractor_diamondtriangles.svg	36	no	0	1	2003	0	0			0	0			1				0	
6.6.1	win	2023-06-12	18:54:05	18:58:03	234711	63d086f89f695e2d3c210e9f	4	1	main_z	7	advance_on_keypress_ZEE	12	stimuli_distractor_trianglediamonds.svg	stimuli_distractor_diamondtriangles.svg	36	no	57	0	812	0	0			0	0			1				0	
6.6.1	win	2023-06-12	18:54:05	18:58:05	236761	63d086f89f695e2d3c210e9f	4	1	main_z	7	main_z	13	stimuli_target_squaretriangles.svg	stimuli_distractor_diamondtriangles.svg	7	yes	44	1	616	0	0			0	0			1				0	
6.6.1	win	2023-06-12	18:54:05	18:58:05	236761	63d086f89f695e2d3c210e9f	4	1	main_z	7	advance_on_keypress_ZEE	14	stimuli_target_squaretriangles.svg	stimuli_distractor_diamondtriangles.svg	7	yes	57	0	504	0	0			0	0			1				0	
6.6.1	win	2023-06-12	18:54:05	18:58:06	238524	63d086f89f695e2d3c210e9f	4	1	main_z	7	main_z	15	stimuli_distractor_diamondtriangles.svg	stimuli_target_rectangletriangles.svg	13	yes	44	1	645	0	0			0	0			1				0	
6.6.1	win	2023-06-12	18:54:05	18:58:06	238524	63d086f89f695e2d3c210e9f	4	1	main_z	7	advance_on_keypress_ZEE	16	stimuli_distractor_diamondtriangles.svg	stimuli_target_rectangletriangles.svg	13	yes	57	0	388	0	0			0	0			1				0	
6.6.1	win	2023-06-12	18:54:05	18:58:08	240145	63d086f89f695e2d3c210e9f	4	1	main_z	7	main_z	17	stimuli_target_rectangletriangles.svg	stimuli_distractor_trianglediamonds.svg	1	yes	44	1	612	0	0			0	0			1				0	
6.6.1	win	2023-06-12	18:54:05	18:58:08	240145	63d086f89f695e2d3c210e9f	4	1	main_z	7	advance_on_keypress_ZEE	18	stimuli_target_rectangletriangles.svg	stimuli_distractor_trianglediamonds.svg	1	yes	57	0	459	0	0			0	0			1				0	
6.6.1	win	2023-06-12	18:54:05	18:58:10	241939	63d086f89f695e2d3c210e9f	4	1	main_z	7	main_z	19	stimuli_distractor_trianglediamonds.svg	stimuli_target_trianglesquares.svg	26	yes	44	1	696	0	0			0	0			1				0	
6.6.1	win	2023-06-12	18:54:05	18:58:10	241939	63d086f89f695e2d3c210e9f	4	1	main_z	7	advance_on_keypress_ZEE	20	stimuli_distractor_trianglediamonds.svg	stimuli_target_trianglesquares.svg	26	yes	57	0	395	0	0			0	0			1				0	
6.6.1	win	2023-06-12	18:54:05	18:58:12	243837	63d086f89f695e2d3c210e9f	4	1	main_z	7	main_z	21	stimuli_distractor_trianglediamonds.svg	stimuli_target_squaretriangles.svg	11	yes	44	1	867	0	0			0	0			1				0	
6.6.1	win	2023-06-12	18:54:05	18:58:12	243837	63d086f89f695e2d3c210e9f	4	1	main_z	7	advance_on_keypress_ZEE	22	stimuli_distractor_trianglediamonds.svg	stimuli_target_squaretriangles.svg	11	yes	57	0	461	0	0			0	0			1				0	
6.6.1	win	2023-06-12	18:54:05	18:58:13	245532	63d086f89f695e2d3c210e9f	4	1	main_z	7	main_z	23	stimuli_target_squarediamonds.svg	stimuli_distractor_diamondtriangles.svg	8	yes	44	1	598	0	0			0	0			1				0	
6.6.1	win	2023-06-12	18:54:05	18:58:13	245532	63d086f89f695e2d3c210e9f	4	1	main_z	7	advance_on_keypress_ZEE	24	stimuli_target_squarediamonds.svg	stimuli_distractor_diamondtriangles.svg	8	yes	57	0	467	0	0			0	0			1				0	
6.6.1	win	2023-06-12	18:54:05	18:58:15	247221	63d086f89f695e2d3c210e9f	4	1	main_z	7	main_z	25	stimuli_distractor_diamondtriangles.svg	stimuli_target_trianglerectangles.svg	29	yes	44	1	603	0	0			0	0			1				0	
6.6.1	win	2023-06-12	18:54:05	18:58:15	247221	63d086f89f695e2d3c210e9f	4	1	main_z	7	advance_on_keypress_ZEE	26	stimuli_distractor_diamondtriangles.svg	stimuli_target_trianglerectangles.svg	29	yes	57	0	737	0	0			0	0			1				0	
6.6.1	win	2023-06-12	18:54:05	18:58:18	249663	63d086f89f695e2d3c210e9f	4	1	main_z	7	main_z	27	stimuli_distractor_diamondtriangles.svg	stimuli_target_squaretriangles.svg	15	yes	44	1	1065	0	0			0	0			1				0	
6.6.1	win	2023-06-12	18:54:05	18:58:18	249663	63d086f89f695e2d3c210e9f	4	1	main_z	7	advance_on_keypress_ZEE	28	stimuli_distractor_diamondtriangles.svg	stimuli_target_squaretriangles.svg	15	yes	57	0	513	0	0			0	0			1				0	
6.6.1	win	2023-06-12	18:54:05	18:58:20	252048	63d086f89f695e2d3c210e9f	4	1	main_z	7	main_z	29	stimuli_target_trianglerectangles.svg	stimuli_distractor_diamondtriangles.svg	21	yes	44	1	1245	0	0			0	0			1				0	
6.6.1	win	2023-06-12	18:54:05	18:58:20	252048	63d086f89f695e2d3c210e9f	4	1	main_z	7	advance_on_keypress_ZEE	30	stimuli_target_trianglerectangles.svg	stimuli_distractor_diamondtriangles.svg	21	yes	57	0	1084	0	0			0	0			1				0	
6.6.1	win	2023-06-12	18:54:05	18:58:22	254321	63d086f89f695e2d3c210e9f	4	1	main_z	7	main_z	31	stimuli_target_trianglesquares.svg	stimuli_distractor_diamondtriangles.svg	22	yes	44	1	565	0	0			0	0			1				0	
6.6.1	win	2023-06-12	18:54:05	18:58:22	254321	63d086f89f695e2d3c210e9f	4	1	main_z	7	advance_on_keypress_ZEE	32	stimuli_target_trianglesquares.svg	stimuli_distractor_diamondtriangles.svg	22	yes	57	0	5520	0	0			0	0			1				0	
6.6.1	win	2023-06-12	18:54:05	18:58:29	261160	63d086f89f695e2d3c210e9f	4	1	main_z	7	main_z	33	stimuli_target_squaretriangles.svg	stimuli_distractor_trianglediamonds.svg	3	yes	44	1	704	0	0			0	0			1				0	
6.6.1	win	2023-06-12	18:54:05	18:58:29	261160	63d086f89f695e2d3c210e9f	4	1	main_z	7	advance_on_keypress_ZEE	34	stimuli_target_squaretriangles.svg	stimuli_distractor_trianglediamonds.svg	3	yes	57	0	460	0	0			0	0			1				0	
6.6.1	win	2023-06-12	18:54:05	18:58:32	264251	63d086f89f695e2d3c210e9f	4	1	main_z	7	main_z	35	stimuli_distractor_trianglediamonds.svg	stimuli_distractor_diamondtriangles.svg	35	no	0	1	2003	0	0			0	0			1				0	
6.6.1	win	2023-06-12	18:54:05	18:58:32	264251	63d086f89f695e2d3c210e9f	4	1	main_z	7	advance_on_keypress_ZEE	36	stimuli_distractor_trianglediamonds.svg	stimuli_distractor_diamondtriangles.svg	35	no	57	0	491	0	0			0	0			1				0	
6.6.1	win	2023-06-12	18:54:05	18:58:35	267365	63d086f89f695e2d3c210e9f	4	1	main_z	7	main_z	37	stimuli_distractor_diamondtriangles.svg	stimuli_distractor_trianglediamonds.svg	37	no	0	1	2003	0	0			0	0			1				0	
6.6.1	win	2023-06-12	18:54:05	18:58:35	267365	63d086f89f695e2d3c210e9f	4	1	main_z	7	advance_on_keypress_ZEE	38	stimuli_distractor_diamondtriangles.svg	stimuli_distractor_trianglediamonds.svg	37	no	57	0	390	0	0			0	0			1				0	
6.6.1	win	2023-06-12	18:54:05	18:58:37	268923	63d086f89f695e2d3c210e9f	4	1	main_z	7	main_z	39	stimuli_distractor_diamondtriangles.svg	stimuli_target_trianglesquares.svg	30	yes	44	1	551	0	0			0	0			1				0	
6.6.1	win	2023-06-12	18:54:05	18:58:37	268923	63d086f89f695e2d3c210e9f	4	1	main_z	7	advance_on_keypress_ZEE	40	stimuli_distractor_diamondtriangles.svg	stimuli_target_trianglesquares.svg	30	yes	57	0	499	0	0			0	0			1				0	
6.6.1	win	2023-06-12	18:54:05	18:58:39	270701	63d086f89f695e2d3c210e9f	4	1	main_z	7	main_z	41	stimuli_distractor_diamondtriangles.svg	stimuli_target_diamondrectangles.svg	31	yes	44	1	660	0	0			0	0			1				0	
6.6.1	win	2023-06-12	18:54:05	18:58:39	270701	63d086f89f695e2d3c210e9f	4	1	main_z	7	advance_on_keypress_ZEE	42	stimuli_distractor_diamondtriangles.svg	stimuli_target_diamondrectangles.svg	31	yes	57	0	425	0	0			0	0			1				0	
6.6.1	win	2023-06-12	18:54:05	18:58:40	272292	63d086f89f695e2d3c210e9f	4	1	main_z	7	main_z	43	stimuli_distractor_trianglediamonds.svg	stimuli_target_trianglerectangles.svg	25	yes	44	1	530	0	0			0	0			1				0	
6.6.1	win	2023-06-12	18:54:05	18:58:40	272292	63d086f89f695e2d3c210e9f	4	1	main_z	7	advance_on_keypress_ZEE	44	stimuli_distractor_trianglediamonds.svg	stimuli_target_trianglerectangles.svg	25	yes	57	0	400	0	0			0	0			1				0	
6.6.1	win	2023-06-12	18:54:05	18:58:42	273938	63d086f89f695e2d3c210e9f	4	1	main_z	7	main_z	45	stimuli_distractor_trianglediamonds.svg	stimuli_target_diamondrectangles.svg	27	yes	44	1	633	0	0			0	0			1				0	
6.6.1	win	2023-06-12	18:54:05	18:58:42	273938	63d086f89f695e2d3c210e9f	4	1	main_z	7	advance_on_keypress_ZEE	46	stimuli_distractor_trianglediamonds.svg	stimuli_target_diamondrectangles.svg	27	yes	57	0	474	0	0			0	0			1				0	
6.6.1	win	2023-06-12	18:54:05	18:58:44	275728	63d086f89f695e2d3c210e9f	4	1	main_z	7	main_z	47	stimuli_distractor_diamondtriangles.svg	stimuli_target_rectanglediamonds.svg	14	yes	44	1	675	0	0			0	0			1				0	
6.6.1	win	2023-06-12	18:54:05	18:58:44	275728	63d086f89f695e2d3c210e9f	4	1	main_z	7	advance_on_keypress_ZEE	48	stimuli_distractor_diamondtriangles.svg	stimuli_target_rectanglediamonds.svg	14	yes	57	0	468	0	0			0	0			1				0	
6.6.1	win	2023-06-12	18:54:05	18:58:47	278813	63d086f89f695e2d3c210e9f	4	1	main_z	7	main_z	49	stimuli_distractor_trianglediamonds.svg	stimuli_distractor_trianglediamonds.svg	33	no	0	1	2003	0	0			0	0			1				0	
6.6.1	win	2023-06-12	18:54:05	18:58:47	278813	63d086f89f695e2d3c210e9f	4	1	main_z	7	advance_on_keypress_ZEE	50	stimuli_distractor_trianglediamonds.svg	stimuli_distractor_trianglediamonds.svg	33	no	57	0	2597	0	0			0	0			1				0	
6.6.1	win	2023-06-12	18:54:05	18:58:51	282661	63d086f89f695e2d3c210e9f	4	1	main_z	7	main_z	51	stimuli_target_diamondsquares.svg	stimuli_distractor_trianglediamonds.svg	20	yes	44	1	634	0	0			0	0			1				0	
6.6.1	win	2023-06-12	18:54:05	18:58:51	282661	63d086f89f695e2d3c210e9f	4	1	main_z	7	advance_on_keypress_ZEE	52	stimuli_target_diamondsquares.svg	stimuli_distractor_trianglediamonds.svg	20	yes	57	0	639	0	0			0	0			1				0	
6.6.1	win	2023-06-12	18:54:05	18:58:53	284617	63d086f89f695e2d3c210e9f	4	1	main_z	7	main_z	53	stimuli_distractor_trianglediamonds.svg	stimuli_target_diamondsquares.svg	28	yes	44	1	691	0	0			0	0			1				0	
6.6.1	win	2023-06-12	18:54:05	18:58:53	284617	63d086f89f695e2d3c210e9f	4	1	main_z	7	advance_on_keypress_ZEE	54	stimuli_distractor_trianglediamonds.svg	stimuli_target_diamondsquares.svg	28	yes	57	0	894	0	0			0	0			1				0	
6.6.1	win	2023-06-12	18:54:05	18:58:55	286693	63d086f89f695e2d3c210e9f	4	1	main_z	7	main_z	55	stimuli_target_diamondsquares.svg	stimuli_distractor_diamondtriangles.svg	24	yes	44	1	555	0	0			0	0			1				0	
6.6.1	win	2023-06-12	18:54:05	18:58:55	286693	63d086f89f695e2d3c210e9f	4	1	main_z	7	advance_on_keypress_ZEE	56	stimuli_target_diamondsquares.svg	stimuli_distractor_diamondtriangles.svg	24	yes	57	0	1557	0	0			0	0			1				0	
6.6.1	win	2023-06-12	18:54:05	18:58:57	289337	63d086f89f695e2d3c210e9f	4	1	main_z	7	main_z	57	stimuli_target_rectanglediamonds.svg	stimuli_distractor_diamondtriangles.svg	6	yes	44	1	452	0	0			0	0			1				0	
6.6.1	win	2023-06-12	18:54:05	18:58:57	289337	63d086f89f695e2d3c210e9f	4	1	main_z	7	advance_on_keypress_ZEE	58	stimuli_target_rectanglediamonds.svg	stimuli_distractor_diamondtriangles.svg	6	yes	57	0	956	0	0			0	0			1				0	
6.6.1	win	2023-06-12	18:54:05	18:58:59	291514	63d086f89f695e2d3c210e9f	4	1	main_z	7	main_z	59	stimuli_target_trianglesquares.svg	stimuli_distractor_trianglediamonds.svg	18	yes	44	1	600	0	0			0	0			1				0	
6.6.1	win	2023-06-12	18:54:05	18:58:59	291514	63d086f89f695e2d3c210e9f	4	1	main_z	7	advance_on_keypress_ZEE	60	stimuli_target_trianglesquares.svg	stimuli_distractor_trianglediamonds.svg	18	yes	57	0	468	0	0			0	0			1				0	
6.6.1	win	2023-06-12	18:54:05	18:59:02	294598	63d086f89f695e2d3c210e9f	4	1	main_z	7	main_z	61	stimuli_distractor_diamondtriangles.svg	stimuli_distractor_trianglediamonds.svg	38	no	0	1	2003	0	0			0	0			1				0	
6.6.1	win	2023-06-12	18:54:05	18:59:02	294598	63d086f89f695e2d3c210e9f	4	1	main_z	7	advance_on_keypress_ZEE	62	stimuli_distractor_diamondtriangles.svg	stimuli_distractor_trianglediamonds.svg	38	no	57	0	722	0	0			0	0			1				0	
6.6.1	win	2023-06-12	18:54:05	18:59:04	296520	63d086f89f695e2d3c210e9f	4	1	main_z	7	main_z	63	stimuli_distractor_diamondtriangles.svg	stimuli_target_squarediamonds.svg	16	yes	44	1	570	0	0			0	0			1				0	
6.6.1	win	2023-06-12	18:54:05	18:59:04	296520	63d086f89f695e2d3c210e9f	4	1	main_z	7	advance_on_keypress_ZEE	64	stimuli_distractor_diamondtriangles.svg	stimuli_target_squarediamonds.svg	16	yes	57	0	483	0	0			0	0			1				0	
6.6.1	win	2023-06-12	18:54:05	18:59:06	298361	63d086f89f695e2d3c210e9f	4	1	main_z	7	main_z	65	stimuli_distractor_trianglediamonds.svg	stimuli_target_rectangletriangles.svg	9	yes	44	1	731	0	0			0	0			1				0	
6.6.1	win	2023-06-12	18:54:05	18:59:06	298361	63d086f89f695e2d3c210e9f	4	1	main_z	7	advance_on_keypress_ZEE	66	stimuli_distractor_trianglediamonds.svg	stimuli_target_rectangletriangles.svg	9	yes	57	0	3669	0	0			0	0			1				0	
6.6.1	win	2023-06-12	18:54:05	18:59:11	303263	63d086f89f695e2d3c210e9f	4	1	main_z	7	main_z	67	stimuli_distractor_diamondtriangles.svg	stimuli_target_diamondsquares.svg	32	yes	44	1	616	0	0			0	0			1				0	
6.6.1	win	2023-06-12	18:54:05	18:59:11	303263	63d086f89f695e2d3c210e9f	4	1	main_z	7	advance_on_keypress_ZEE	68	stimuli_distractor_diamondtriangles.svg	stimuli_target_diamondsquares.svg	32	yes	57	0	1111	0	0			0	0			1				0	
6.6.1	win	2023-06-12	18:54:05	18:59:15	307021	63d086f89f695e2d3c210e9f	4	1	main_z	7	main_z	69	stimuli_distractor_diamondtriangles.svg	stimuli_distractor_diamondtriangles.svg	39	no	0	1	2003	0	0			0	0			1				0	
6.6.1	win	2023-06-12	18:54:05	18:59:15	307021	63d086f89f695e2d3c210e9f	4	1	main_z	7	advance_on_keypress_ZEE	70	stimuli_distractor_diamondtriangles.svg	stimuli_distractor_diamondtriangles.svg	39	no	57	0	423	0	0			0	0			1				0	
6.6.1	win	2023-06-12	18:54:05	18:59:16	308560	63d086f89f695e2d3c210e9f	4	1	main_z	7	main_z	71	stimuli_target_rectanglediamonds.svg	stimuli_distractor_trianglediamonds.svg	2	yes	44	1	500	0	0			0	0			1				0	
6.6.1	win	2023-06-12	18:54:05	18:59:16	308560	63d086f89f695e2d3c210e9f	4	1	main_z	7	advance_on_keypress_ZEE	72	stimuli_target_rectanglediamonds.svg	stimuli_distractor_trianglediamonds.svg	2	yes	57	0	541	0	0			0	0			1				0	
6.6.1	win	2023-06-12	18:54:05	18:59:20	311733	63d086f89f695e2d3c210e9f	4	1	main_z	7	main_z	73	stimuli_distractor_trianglediamonds.svg	stimuli_distractor_trianglediamonds.svg	34	no	0	1	2003	0	0			0	0			1				0	
6.6.1	win	2023-06-12	18:54:05	18:59:20	311733	63d086f89f695e2d3c210e9f	4	1	main_z	7	advance_on_keypress_ZEE	74	stimuli_distractor_trianglediamonds.svg	stimuli_distractor_trianglediamonds.svg	34	no	57	0	653	0	0			0	0			1				0	
6.6.1	win	2023-06-12	18:54:05	18:59:21	313441	63d086f89f695e2d3c210e9f	4	1	main_z	7	main_z	75	stimuli_target_squarediamonds.svg	stimuli_distractor_trianglediamonds.svg	4	yes	44	1	437	0	0			0	0			1				0	
6.6.1	win	2023-06-12	18:54:05	18:59:21	313441	63d086f89f695e2d3c210e9f	4	1	main_z	7	advance_on_keypress_ZEE	76	stimuli_target_squarediamonds.svg	stimuli_distractor_trianglediamonds.svg	4	yes	57	0	468	0	0			0	0			1				0	
6.6.1	win	2023-06-12	18:54:05	18:59:24	316529	63d086f89f695e2d3c210e9f	4	1	main_z	7	main_z	77	stimuli_distractor_diamondtriangles.svg	stimuli_distractor_diamondtriangles.svg	40	no	0	1	2003	0	0			0	0			1				0	
6.6.1	win	2023-06-12	18:54:05	18:59:24	316529	63d086f89f695e2d3c210e9f	4	1	main_z	7	advance_on_keypress_ZEE	78	stimuli_distractor_diamondtriangles.svg	stimuli_distractor_diamondtriangles.svg	40	no	57	0	554	0	0			0	0			1				0	
6.6.1	win	2023-06-12	18:54:05	18:59:26	318274	63d086f89f695e2d3c210e9f	4	1	main_z	7	main_z	79	stimuli_target_diamondrectangles.svg	stimuli_distractor_trianglediamonds.svg	19	yes	44	1	582	0	0			0	0			1				0	
6.6.1	win	2023-06-12	18:54:05	18:59:26	318274	63d086f89f695e2d3c210e9f	4	1	main_z	7	advance_on_keypress_ZEE	80	stimuli_target_diamondrectangles.svg	stimuli_distractor_trianglediamonds.svg	19	yes	57	0	1845	0	0			0	0			1				0	
6.6.1	win	2023-06-12	18:54:05	18:59:31	322737	63d086f89f695e2d3c210e9f	4	1	main_z	7	main_z	81	stimuli_distractor_diamondtriangles.svg	stimuli_distractor_diamondtriangles.svg	40	no	0	1	2003	0	0			0	0			1				0	
6.6.1	win	2023-06-12	18:54:05	18:59:31	322737	63d086f89f695e2d3c210e9f	4	1	main_z	7	advance_on_keypress_ZEE	82	stimuli_distractor_diamondtriangles.svg	stimuli_distractor_diamondtriangles.svg	40	no	57	0	1151	0	0			0	0			1				0	
6.6.1	win	2023-06-12	18:54:05	18:59:33	325100	63d086f89f695e2d3c210e9f	4	1	main_z	7	main_z	83	stimuli_target_squaretriangles.svg	stimuli_distractor_diamondtriangles.svg	7	yes	44	1	576	0	0			0	0			1				0	
6.6.1	win	2023-06-12	18:54:05	18:59:33	325100	63d086f89f695e2d3c210e9f	4	1	main_z	7	advance_on_keypress_ZEE	84	stimuli_target_squaretriangles.svg	stimuli_distractor_diamondtriangles.svg	7	yes	57	0	2351	0	0			0	0			1				0	
6.6.1	win	2023-06-12	18:54:05	18:59:38	330078	63d086f89f695e2d3c210e9f	4	1	main_z	7	main_z	85	stimuli_distractor_trianglediamonds.svg	stimuli_distractor_trianglediamonds.svg	33	no	0	1	2003	0	0			0	0			1				0	
6.6.1	win	2023-06-12	18:54:05	18:59:38	330078	63d086f89f695e2d3c210e9f	4	1	main_z	7	advance_on_keypress_ZEE	86	stimuli_distractor_trianglediamonds.svg	stimuli_distractor_trianglediamonds.svg	33	no	57	0	1805	0	0			0	0			1				0	
6.6.1	win	2023-06-12	18:54:05	18:59:42	334516	63d086f89f695e2d3c210e9f	4	1	main_z	7	main_z	87	stimuli_distractor_trianglediamonds.svg	stimuli_distractor_diamondtriangles.svg	36	no	0	1	2003	0	0			0	0			1				0	
6.6.1	win	2023-06-12	18:54:05	18:59:42	334516	63d086f89f695e2d3c210e9f	4	1	main_z	7	advance_on_keypress_ZEE	88	stimuli_distractor_trianglediamonds.svg	stimuli_distractor_diamondtriangles.svg	36	no	57	0	369	0	0			0	0			1				0	
6.6.1	win	2023-06-12	18:54:05	18:59:44	336141	63d086f89f695e2d3c210e9f	4	1	main_z	7	main_z	89	stimuli_distractor_trianglediamonds.svg	stimuli_target_trianglerectangles.svg	25	yes	44	1	626	0	0			0	0			1				0	
6.6.1	win	2023-06-12	18:54:05	18:59:44	336141	63d086f89f695e2d3c210e9f	4	1	main_z	7	advance_on_keypress_ZEE	90	stimuli_distractor_trianglediamonds.svg	stimuli_target_trianglerectangles.svg	25	yes	57	0	3155	0	0			0	0			1				0	
6.6.1	win	2023-06-12	18:54:05	18:59:48	340435	63d086f89f695e2d3c210e9f	4	1	main_z	7	main_z	91	stimuli_target_rectangletriangles.svg	stimuli_distractor_trianglediamonds.svg	1	yes	44	1	527	0	0			0	0			1				0	
6.6.1	win	2023-06-12	18:54:05	18:59:48	340435	63d086f89f695e2d3c210e9f	4	1	main_z	7	advance_on_keypress_ZEE	92	stimuli_target_rectangletriangles.svg	stimuli_distractor_trianglediamonds.svg	1	yes	57	0	437	0	0			0	0			1				0	
6.6.1	win	2023-06-12	18:54:05	18:59:50	342176	63d086f89f695e2d3c210e9f	4	1	main_z	7	main_z	93	stimuli_target_trianglerectangles.svg	stimuli_distractor_diamondtriangles.svg	21	yes	44	1	686	0	0			0	0			1				0	
6.6.1	win	2023-06-12	18:54:05	18:59:50	342176	63d086f89f695e2d3c210e9f	4	1	main_z	7	advance_on_keypress_ZEE	94	stimuli_target_trianglerectangles.svg	stimuli_distractor_diamondtriangles.svg	21	yes	57	0	4698	0	0			0	0			1				0	
6.6.1	win	2023-06-12	18:54:05	18:59:56	348221	63d086f89f695e2d3c210e9f	4	1	main_z	7	main_z	95	stimuli_distractor_trianglediamonds.svg	stimuli_target_squarediamonds.svg	12	yes	44	1	736	0	0			0	0			1				0	
6.6.1	win	2023-06-12	18:54:05	18:59:56	348221	63d086f89f695e2d3c210e9f	4	1	main_z	7	advance_on_keypress_ZEE	96	stimuli_distractor_trianglediamonds.svg	stimuli_target_squarediamonds.svg	12	yes	57	0	485	0	0			0	0			1				0	
6.6.1	win	2023-06-12	18:54:05	18:59:58	349869	63d086f89f695e2d3c210e9f	4	1	main_z	7	main_z	97	stimuli_distractor_diamondtriangles.svg	stimuli_target_diamondsquares.svg	32	yes	44	1	545	0	0			0	0			1				0	
6.6.1	win	2023-06-12	18:54:05	18:59:58	349869	63d086f89f695e2d3c210e9f	4	1	main_z	7	advance_on_keypress_ZEE	98	stimuli_distractor_diamondtriangles.svg	stimuli_target_diamondsquares.svg	32	yes	57	0	388	0	0			0	0			1				0	
6.6.1	win	2023-06-12	18:54:05	18:59:59	351405	63d086f89f695e2d3c210e9f	4	1	main_z	7	main_z	99	stimuli_distractor_trianglediamonds.svg	stimuli_target_squaretriangles.svg	11	yes	44	1	533	0	0			0	0			1				0	
6.6.1	win	2023-06-12	18:54:05	18:59:59	351405	63d086f89f695e2d3c210e9f	4	1	main_z	7	advance_on_keypress_ZEE	100	stimuli_distractor_trianglediamonds.svg	stimuli_target_squaretriangles.svg	11	yes	57	0	362	0	0			0	0			1				0	
6.6.1	win	2023-06-12	18:54:05	19:00:01	352879	63d086f89f695e2d3c210e9f	4	1	main_z	7	main_z	101	stimuli_target_squarediamonds.svg	stimuli_distractor_trianglediamonds.svg	4	yes	44	1	485	0	0			0	0			1				0	
6.6.1	win	2023-06-12	18:54:05	19:00:01	352879	63d086f89f695e2d3c210e9f	4	1	main_z	7	advance_on_keypress_ZEE	102	stimuli_target_squarediamonds.svg	stimuli_distractor_trianglediamonds.svg	4	yes	57	0	215	0	0			0	0			1				0	
6.6.1	win	2023-06-12	18:54:05	19:00:02	354222	63d086f89f695e2d3c210e9f	4	1	main_z	7	main_z	103	stimuli_distractor_trianglediamonds.svg	stimuli_target_diamondsquares.svg	28	yes	44	1	486	0	0			0	0			1				0	
6.6.1	win	2023-06-12	18:54:05	19:00:02	354222	63d086f89f695e2d3c210e9f	4	1	main_z	7	advance_on_keypress_ZEE	104	stimuli_distractor_trianglediamonds.svg	stimuli_target_diamondsquares.svg	28	yes	57	0	152	0	0			0	0			1				0	
6.6.1	win	2023-06-12	18:54:05	19:00:03	355496	63d086f89f695e2d3c210e9f	4	1	main_z	7	main_z	105	stimuli_target_diamondrectangles.svg	stimuli_distractor_diamondtriangles.svg	23	yes	44	1	499	0	0			0	0			1				0	
6.6.1	win	2023-06-12	18:54:05	19:00:03	355496	63d086f89f695e2d3c210e9f	4	1	main_z	7	advance_on_keypress_ZEE	106	stimuli_target_diamondrectangles.svg	stimuli_distractor_diamondtriangles.svg	23	yes	57	0	144	0	0			0	0			1				0	
6.6.1	win	2023-06-12	18:54:05	19:00:05	356732	63d086f89f695e2d3c210e9f	4	1	main_z	7	main_z	107	stimuli_target_diamondsquares.svg	stimuli_distractor_diamondtriangles.svg	24	yes	44	1	463	0	0			0	0			1				0	
6.6.1	win	2023-06-12	18:54:05	19:00:05	356732	63d086f89f695e2d3c210e9f	4	1	main_z	7	advance_on_keypress_ZEE	108	stimuli_target_diamondsquares.svg	stimuli_distractor_diamondtriangles.svg	24	yes	57	0	118	0	0			0	0			1				0	
6.6.1	win	2023-06-12	18:54:05	19:00:06	357924	63d086f89f695e2d3c210e9f	4	1	main_z	7	main_z	109	stimuli_target_trianglesquares.svg	stimuli_distractor_trianglediamonds.svg	18	yes	44	1	457	0	0			0	0			1				0	
6.6.1	win	2023-06-12	18:54:05	19:00:06	357924	63d086f89f695e2d3c210e9f	4	1	main_z	7	advance_on_keypress_ZEE	110	stimuli_target_trianglesquares.svg	stimuli_distractor_trianglediamonds.svg	18	yes	57	0	117	0	0			0	0			1				0	
6.6.1	win	2023-06-12	18:54:05	19:00:07	359468	63d086f89f695e2d3c210e9f	4	1	main_z	7	main_z	111	stimuli_distractor_diamondtriangles.svg	stimuli_target_squaretriangles.svg	15	yes	44	1	803	0	0			0	0			1				0	
6.6.1	win	2023-06-12	18:54:05	19:00:07	359468	63d086f89f695e2d3c210e9f	4	1	main_z	7	advance_on_keypress_ZEE	112	stimuli_distractor_diamondtriangles.svg	stimuli_target_squaretriangles.svg	15	yes	57	0	163	0	0			0	0			1				0	
6.6.1	win	2023-06-12	18:54:05	19:00:09	360713	63d086f89f695e2d3c210e9f	4	1	main_z	7	main_z	113	stimuli_target_rectanglediamonds.svg	stimuli_distractor_trianglediamonds.svg	2	yes	44	1	427	0	0			0	0			1				0	
6.6.1	win	2023-06-12	18:54:05	19:00:09	360713	63d086f89f695e2d3c210e9f	4	1	main_z	7	advance_on_keypress_ZEE	114	stimuli_target_rectanglediamonds.svg	stimuli_distractor_trianglediamonds.svg	2	yes	57	0	150	0	0			0	0			1				0	
6.6.1	win	2023-06-12	18:54:05	19:00:10	361983	63d086f89f695e2d3c210e9f	4	1	main_z	7	main_z	115	stimuli_target_diamondsquares.svg	stimuli_distractor_trianglediamonds.svg	20	yes	44	1	505	0	0			0	0			1				0	
6.6.1	win	2023-06-12	18:54:05	19:00:10	361983	63d086f89f695e2d3c210e9f	4	1	main_z	7	advance_on_keypress_ZEE	116	stimuli_target_diamondsquares.svg	stimuli_distractor_trianglediamonds.svg	20	yes	57	0	124	0	0			0	0			1				0	
6.6.1	win	2023-06-12	18:54:05	19:00:13	364730	63d086f89f695e2d3c210e9f	4	1	main_z	7	main_z	117	stimuli_distractor_diamondtriangles.svg	stimuli_distractor_trianglediamonds.svg	38	no	0	1	2003	0	0			0	0			1				0	
6.6.1	win	2023-06-12	18:54:05	19:00:13	364730	63d086f89f695e2d3c210e9f	4	1	main_z	7	advance_on_keypress_ZEE	118	stimuli_distractor_diamondtriangles.svg	stimuli_distractor_trianglediamonds.svg	38	no	57	0	3151	0	0			0	0			1				0	
6.6.1	win	2023-06-12	18:54:05	19:00:17	369205	63d086f89f695e2d3c210e9f	4	1	main_z	7	main_z	119	stimuli_target_diamondrectangles.svg	stimuli_distractor_trianglediamonds.svg	19	yes	44	1	686	0	0			0	0			1				0	
6.6.1	win	2023-06-12	18:54:05	19:00:17	369205	63d086f89f695e2d3c210e9f	4	1	main_z	7	advance_on_keypress_ZEE	120	stimuli_target_diamondrectangles.svg	stimuli_distractor_trianglediamonds.svg	19	yes	57	0	336	0	0			0	0			1				0	
6.6.1	win	2023-06-12	18:54:05	19:00:19	370803	63d086f89f695e2d3c210e9f	4	1	main_z	7	main_z	121	stimuli_distractor_diamondtriangles.svg	stimuli_target_rectangletriangles.svg	13	yes	44	1	629	0	0			0	0			1				0	
6.6.1	win	2023-06-12	18:54:05	19:00:19	370803	63d086f89f695e2d3c210e9f	4	1	main_z	7	advance_on_keypress_ZEE	122	stimuli_distractor_diamondtriangles.svg	stimuli_target_rectangletriangles.svg	13	yes	57	0	436	0	0			0	0			1				0	
6.6.1	win	2023-06-12	18:54:05	19:00:20	372429	63d086f89f695e2d3c210e9f	4	1	main_z	7	main_z	123	stimuli_distractor_diamondtriangles.svg	stimuli_target_trianglesquares.svg	30	yes	44	1	563	0	0			0	0			1				0	
6.6.1	win	2023-06-12	18:54:05	19:00:20	372429	63d086f89f695e2d3c210e9f	4	1	main_z	7	advance_on_keypress_ZEE	124	stimuli_distractor_diamondtriangles.svg	stimuli_target_trianglesquares.svg	30	yes	57	0	316	0	0			0	0			1				0	
6.6.1	win	2023-06-12	18:54:05	19:00:23	375376	63d086f89f695e2d3c210e9f	4	1	main_z	7	main_z	125	stimuli_distractor_trianglediamonds.svg	stimuli_distractor_diamondtriangles.svg	35	no	0	1	2003	0	0			0	0			1				0	
6.6.1	win	2023-06-12	18:54:05	19:00:23	375376	63d086f89f695e2d3c210e9f	4	1	main_z	7	advance_on_keypress_ZEE	126	stimuli_distractor_trianglediamonds.svg	stimuli_distractor_diamondtriangles.svg	35	no	57	0	376	0	0			0	0			1				0	
6.6.1	win	2023-06-12	18:54:05	19:00:25	376868	63d086f89f695e2d3c210e9f	4	1	main_z	7	main_z	127	stimuli_target_rectanglediamonds.svg	stimuli_distractor_diamondtriangles.svg	6	yes	44	1	477	0	0			0	0			1				0	
6.6.1	win	2023-06-12	18:54:05	19:00:25	376868	63d086f89f695e2d3c210e9f	4	1	main_z	7	advance_on_keypress_ZEE	128	stimuli_target_rectanglediamonds.svg	stimuli_distractor_diamondtriangles.svg	6	yes	57	0	176	0	0			0	0			1				0	
6.6.1	win	2023-06-12	18:54:05	19:00:26	378198	63d086f89f695e2d3c210e9f	4	1	main_z	7	main_z	129	stimuli_distractor_trianglediamonds.svg	stimuli_target_rectangletriangles.svg	9	yes	44	1	532	0	0			0	0			1				0	
6.6.1	win	2023-06-12	18:54:05	19:00:26	378198	63d086f89f695e2d3c210e9f	4	1	main_z	7	advance_on_keypress_ZEE	130	stimuli_distractor_trianglediamonds.svg	stimuli_target_rectangletriangles.svg	9	yes	57	0	187	0	0			0	0			1				0	
6.6.1	win	2023-06-12	18:54:05	19:00:27	379462	63d086f89f695e2d3c210e9f	4	1	main_z	7	main_z	131	stimuli_target_squarediamonds.svg	stimuli_distractor_diamondtriangles.svg	8	yes	44	1	448	0	0			0	0			1				0	
6.6.1	win	2023-06-12	18:54:05	19:00:27	379462	63d086f89f695e2d3c210e9f	4	1	main_z	7	advance_on_keypress_ZEE	132	stimuli_target_squarediamonds.svg	stimuli_distractor_diamondtriangles.svg	8	yes	57	0	197	0	0			0	0			1				0	
6.6.1	win	2023-06-12	18:54:05	19:00:30	382303	63d086f89f695e2d3c210e9f	4	1	main_z	7	main_z	133	stimuli_distractor_diamondtriangles.svg	stimuli_distractor_trianglediamonds.svg	37	no	0	1	2003	0	0			0	0			1				0	
6.6.1	win	2023-06-12	18:54:05	19:00:30	382303	63d086f89f695e2d3c210e9f	4	1	main_z	7	advance_on_keypress_ZEE	134	stimuli_distractor_diamondtriangles.svg	stimuli_distractor_trianglediamonds.svg	37	no	57	0	2874	0	0			0	0			1				0	
6.6.1	win	2023-06-12	18:54:05	19:00:34	386319	63d086f89f695e2d3c210e9f	4	1	main_z	7	main_z	135	stimuli_target_trianglesquares.svg	stimuli_distractor_diamondtriangles.svg	22	yes	44	1	509	0	0			0	0			1				0	
6.6.1	win	2023-06-12	18:54:05	19:00:34	386319	63d086f89f695e2d3c210e9f	4	1	main_z	7	advance_on_keypress_ZEE	136	stimuli_target_trianglesquares.svg	stimuli_distractor_diamondtriangles.svg	22	yes	57	0	217	0	0			0	0			1				0	
6.6.1	win	2023-06-12	18:54:05	19:00:36	387835	63d086f89f695e2d3c210e9f	4	1	main_z	7	main_z	137	stimuli_target_squaretriangles.svg	stimuli_distractor_trianglediamonds.svg	3	yes	44	1	656	0	0			0	0			1				0	
6.6.1	win	2023-06-12	18:54:05	19:00:36	387835	63d086f89f695e2d3c210e9f	4	1	main_z	7	advance_on_keypress_ZEE	138	stimuli_target_squaretriangles.svg	stimuli_distractor_trianglediamonds.svg	3	yes	57	0	143	0	0			0	0			1				0	
6.6.1	win	2023-06-12	18:54:05	19:00:37	389152	63d086f89f695e2d3c210e9f	4	1	main_z	7	main_z	139	stimuli_distractor_diamondtriangles.svg	stimuli_target_rectanglediamonds.svg	14	yes	44	1	563	0	0			0	0			1				0	
6.6.1	win	2023-06-12	18:54:05	19:00:37	389152	63d086f89f695e2d3c210e9f	4	1	main_z	7	advance_on_keypress_ZEE	140	stimuli_distractor_diamondtriangles.svg	stimuli_target_rectanglediamonds.svg	14	yes	57	0	165	0	0			0	0			1				0	
6.6.1	win	2023-06-12	18:54:05	19:00:38	390584	63d086f89f695e2d3c210e9f	4	1	main_z	7	main_z	141	stimuli_distractor_trianglediamonds.svg	stimuli_target_diamondrectangles.svg	27	yes	44	1	648	0	0			0	0			1				0	
6.6.1	win	2023-06-12	18:54:05	19:00:38	390584	63d086f89f695e2d3c210e9f	4	1	main_z	7	advance_on_keypress_ZEE	142	stimuli_distractor_trianglediamonds.svg	stimuli_target_diamondrectangles.svg	27	yes	57	0	126	0	0			0	0			1				0	
6.6.1	win	2023-06-12	18:54:05	19:00:41	393327	63d086f89f695e2d3c210e9f	4	1	main_z	7	main_z	143	stimuli_target_rectangletriangles.svg	stimuli_distractor_diamondtriangles.svg	5	yes	0	0	2003	0	0			0	0			1				0	
6.6.1	win	2023-06-12	18:54:05	19:00:41	393327	63d086f89f695e2d3c210e9f	4	1	main_z	7	advance_on_keypress_ZEE	144	stimuli_target_rectangletriangles.svg	stimuli_distractor_diamondtriangles.svg	5	yes	57	0	621	0	0			0	0			1				0	
6.6.1	win	2023-06-12	18:54:05	19:00:44	396565	63d086f89f695e2d3c210e9f	4	1	main_z	7	main_z	145	stimuli_distractor_trianglediamonds.svg	stimuli_distractor_trianglediamonds.svg	34	no	0	1	2003	0	0			0	0			1				0	
6.6.1	win	2023-06-12	18:54:05	19:00:44	396565	63d086f89f695e2d3c210e9f	4	1	main_z	7	advance_on_keypress_ZEE	146	stimuli_distractor_trianglediamonds.svg	stimuli_distractor_trianglediamonds.svg	34	no	57	0	11575	0	0			0	0			1				0	
6.6.1	win	2023-06-12	18:54:05	19:00:57	409356	63d086f89f695e2d3c210e9f	4	1	main_z	7	main_z	147	stimuli_target_trianglerectangles.svg	stimuli_distractor_trianglediamonds.svg	17	yes	44	1	601	0	0			0	0			1				0	
6.6.1	win	2023-06-12	18:54:05	19:00:57	409356	63d086f89f695e2d3c210e9f	4	1	main_z	7	advance_on_keypress_ZEE	148	stimuli_target_trianglerectangles.svg	stimuli_distractor_trianglediamonds.svg	17	yes	57	0	196	0	0			0	0			1				0	
6.6.1	win	2023-06-12	18:54:05	19:00:59	410612	63d086f89f695e2d3c210e9f	4	1	main_z	7	main_z	149	stimuli_distractor_trianglediamonds.svg	stimuli_target_trianglesquares.svg	26	yes	44	1	447	0	0			0	0			1				0	
6.6.1	win	2023-06-12	18:54:05	19:00:59	410612	63d086f89f695e2d3c210e9f	4	1	main_z	7	advance_on_keypress_ZEE	150	stimuli_distractor_trianglediamonds.svg	stimuli_target_trianglesquares.svg	26	yes	57	0	169	0	0			0	0			1				0	
6.6.1	win	2023-06-12	18:54:05	19:01:01	413397	63d086f89f695e2d3c210e9f	4	1	main_z	7	main_z	151	stimuli_distractor_diamondtriangles.svg	stimuli_distractor_diamondtriangles.svg	39	no	0	1	2003	0	0			0	0			1				0	
6.6.1	win	2023-06-12	18:54:05	19:01:01	413397	63d086f89f695e2d3c210e9f	4	1	main_z	7	advance_on_keypress_ZEE	152	stimuli_distractor_diamondtriangles.svg	stimuli_distractor_diamondtriangles.svg	39	no	57	0	585	0	0			0	0			1				0	
6.6.1	win	2023-06-12	18:54:05	19:01:03	415084	63d086f89f695e2d3c210e9f	4	1	main_z	7	main_z	153	stimuli_distractor_diamondtriangles.svg	stimuli_target_squarediamonds.svg	16	yes	44	1	485	0	0			0	0			1				0	
6.6.1	win	2023-06-12	18:54:05	19:01:03	415084	63d086f89f695e2d3c210e9f	4	1	main_z	7	advance_on_keypress_ZEE	154	stimuli_distractor_diamondtriangles.svg	stimuli_target_squarediamonds.svg	16	yes	57	0	357	0	0			0	0			1				0	
6.6.1	win	2023-06-12	18:54:05	19:01:05	416661	63d086f89f695e2d3c210e9f	4	1	main_z	7	main_z	155	stimuli_distractor_diamondtriangles.svg	stimuli_target_diamondrectangles.svg	31	yes	44	1	605	0	0			0	0			1				0	
6.6.1	win	2023-06-12	18:54:05	19:01:05	416661	63d086f89f695e2d3c210e9f	4	1	main_z	7	advance_on_keypress_ZEE	156	stimuli_distractor_diamondtriangles.svg	stimuli_target_diamondrectangles.svg	31	yes	57	0	254	0	0			0	0			1				0	
6.6.1	win	2023-06-12	18:54:05	19:01:06	418016	63d086f89f695e2d3c210e9f	4	1	main_z	7	main_z	157	stimuli_distractor_trianglediamonds.svg	stimuli_target_rectanglediamonds.svg	10	yes	44	1	477	0	0			0	0			1				0	
6.6.1	win	2023-06-12	18:54:05	19:01:06	418016	63d086f89f695e2d3c210e9f	4	1	main_z	7	advance_on_keypress_ZEE	158	stimuli_distractor_trianglediamonds.svg	stimuli_target_rectanglediamonds.svg	10	yes	57	0	228	0	0			0	0			1				0	
6.6.1	win	2023-06-12	18:54:05	19:01:07	419357	63d086f89f695e2d3c210e9f	4	1	main_z	7	main_z	159	stimuli_distractor_diamondtriangles.svg	stimuli_target_trianglerectangles.svg	29	yes	44	1	496	0	0			0	0			1				0	
6.6.1	win	2023-06-12	18:54:05	19:01:07	419357	63d086f89f695e2d3c210e9f	4	1	main_z	7	advance_on_keypress_ZEE	160	stimuli_distractor_diamondtriangles.svg	stimuli_target_trianglerectangles.svg	29	yes	57	0	148	0	0			0	0			1				0	
6.6.1	win	2023-06-12	18:54:05	19:01:27	439159	63d086f89f695e2d3c210e9f	4	1	practice_slash	9	practice_slash	1	stimuli_target_diamondsquares.svg	stimuli_distractor_trianglediamonds.svg	6	yes	53	1	769	0	0			0	0			1				0	
6.6.1	win	2023-06-12	18:54:05	19:01:27	439159	63d086f89f695e2d3c210e9f	4	1	practice_slash	9	advance_on_keypress_SLASH	2	stimuli_target_diamondsquares.svg	stimuli_distractor_trianglediamonds.svg	6	yes	57	0	400	0	0			0	0			1				0	
6.6.1	win	2023-06-12	18:54:05	19:01:30	441653	63d086f89f695e2d3c210e9f	4	1	practice_slash	9	practice_slash	3	stimuli_target_squarediamonds.svg	stimuli_distractor_diamondtriangles.svg	2	yes	53	1	471	0	0			0	0			1				0	
6.6.1	win	2023-06-12	18:54:05	19:01:30	441653	63d086f89f695e2d3c210e9f	4	1	practice_slash	9	advance_on_keypress_SLASH	4	stimuli_target_squarediamonds.svg	stimuli_distractor_diamondtriangles.svg	2	yes	57	0	455	0	0			0	0			1				0	
6.6.1	win	2023-06-12	18:54:05	19:01:34	445734	63d086f89f695e2d3c210e9f	4	1	practice_slash	9	practice_slash	5	stimuli_distractor_diamondtriangles.svg	stimuli_distractor_trianglediamonds.svg	14	no	0	1	2003	0	0			0	0			1				0	
6.6.1	win	2023-06-12	18:54:05	19:01:34	445734	63d086f89f695e2d3c210e9f	4	1	practice_slash	9	advance_on_keypress_SLASH	6	stimuli_distractor_diamondtriangles.svg	stimuli_distractor_trianglediamonds.svg	14	no	57	0	768	0	0			0	0			1				0	
6.6.1	win	2023-06-12	18:54:05	19:01:37	448611	63d086f89f695e2d3c210e9f	4	1	practice_slash	9	practice_slash	7	stimuli_distractor_trianglediamonds.svg	stimuli_target_diamondrectangles.svg	12	yes	53	1	471	0	0			0	0			1				0	
6.6.1	win	2023-06-12	18:54:05	19:01:37	448611	63d086f89f695e2d3c210e9f	4	1	practice_slash	9	advance_on_keypress_SLASH	8	stimuli_distractor_trianglediamonds.svg	stimuli_target_diamondrectangles.svg	12	yes	57	0	390	0	0			0	0			1				0	
6.6.1	win	2023-06-12	18:54:05	19:01:39	451165	63d086f89f695e2d3c210e9f	4	1	practice_slash	9	practice_slash	9	stimuli_target_diamondsquares.svg	stimuli_distractor_diamondtriangles.svg	3	yes	53	1	547	0	0			0	0			1				0	
6.6.1	win	2023-06-12	18:54:05	19:01:39	451165	63d086f89f695e2d3c210e9f	4	1	practice_slash	9	advance_on_keypress_SLASH	10	stimuli_target_diamondsquares.svg	stimuli_distractor_diamondtriangles.svg	3	yes	57	0	424	0	0			0	0			1				0	
6.6.1	win	2023-06-12	18:54:05	19:01:42	453860	63d086f89f695e2d3c210e9f	4	1	practice_slash	9	practice_slash	11	stimuli_distractor_trianglediamonds.svg	stimuli_target_squarediamonds.svg	11	yes	53	1	625	0	0			0	0			1				0	
6.6.1	win	2023-06-12	18:54:05	19:01:42	453860	63d086f89f695e2d3c210e9f	4	1	practice_slash	9	advance_on_keypress_SLASH	12	stimuli_distractor_trianglediamonds.svg	stimuli_target_squarediamonds.svg	11	yes	57	0	566	0	0			0	0			1				0	
6.6.1	win	2023-06-12	18:54:05	19:01:44	456555	63d086f89f695e2d3c210e9f	4	1	practice_slash	9	practice_slash	13	stimuli_distractor_diamondtriangles.svg	stimuli_target_diamondrectangles.svg	8	yes	53	1	488	0	0			0	0			1				0	
6.6.1	win	2023-06-12	18:54:05	19:01:44	456555	63d086f89f695e2d3c210e9f	4	1	practice_slash	9	advance_on_keypress_SLASH	14	stimuli_distractor_diamondtriangles.svg	stimuli_target_diamondrectangles.svg	8	yes	57	0	461	0	0			0	0			1				0	
6.6.1	win	2023-06-12	18:54:05	19:01:47	459224	63d086f89f695e2d3c210e9f	4	1	practice_slash	9	practice_slash	15	stimuli_target_rectanglediamonds.svg	stimuli_distractor_diamondtriangles.svg	1	yes	53	1	587	0	0			0	0			1				0	
6.6.1	win	2023-06-12	18:54:05	19:01:47	459224	63d086f89f695e2d3c210e9f	4	1	practice_slash	9	advance_on_keypress_SLASH	16	stimuli_target_rectanglediamonds.svg	stimuli_distractor_diamondtriangles.svg	1	yes	57	0	9041	0	0			0	0			1				0	
6.6.1	win	2023-06-12	18:54:05	19:01:58	470502	63d086f89f695e2d3c210e9f	4	1	practice_slash	9	practice_slash	17	stimuli_target_squarediamonds.svg	stimuli_distractor_trianglediamonds.svg	5	yes	53	1	617	0	0			0	0			1				0	
6.6.1	win	2023-06-12	18:54:05	19:01:58	470502	63d086f89f695e2d3c210e9f	4	1	practice_slash	9	advance_on_keypress_SLASH	18	stimuli_target_squarediamonds.svg	stimuli_distractor_trianglediamonds.svg	5	yes	57	0	348	0	0			0	0			1				0	
6.6.1	win	2023-06-12	18:54:05	19:02:02	474467	63d086f89f695e2d3c210e9f	4	1	practice_slash	9	practice_slash	19	stimuli_distractor_diamondtriangles.svg	stimuli_distractor_diamondtriangles.svg	13	no	0	1	2003	0	0			0	0			1				0	
6.6.1	win	2023-06-12	18:54:05	19:02:02	474467	63d086f89f695e2d3c210e9f	4	1	practice_slash	9	advance_on_keypress_SLASH	20	stimuli_distractor_diamondtriangles.svg	stimuli_distractor_diamondtriangles.svg	13	no	57	0	1517	0	0			0	0			1				0	
6.6.1	win	2023-06-12	18:54:05	19:02:06	478356	63d086f89f695e2d3c210e9f	4	1	practice_slash	9	practice_slash	21	stimuli_distractor_diamondtriangles.svg	stimuli_target_trianglerectangles.svg	9	yes	53	1	749	0	0			0	0			1				0	
6.6.1	win	2023-06-12	18:54:05	19:02:06	478356	63d086f89f695e2d3c210e9f	4	1	practice_slash	9	advance_on_keypress_SLASH	22	stimuli_distractor_diamondtriangles.svg	stimuli_target_trianglerectangles.svg	9	yes	57	0	550	0	0			0	0			1				0	
6.6.1	win	2023-06-12	18:54:05	19:02:09	481035	63d086f89f695e2d3c210e9f	4	1	practice_slash	9	practice_slash	23	stimuli_distractor_diamondtriangles.svg	stimuli_target_rectangletriangles.svg	7	yes	53	1	501	0	0			0	0			1				0	
6.6.1	win	2023-06-12	18:54:05	19:02:09	481035	63d086f89f695e2d3c210e9f	4	1	practice_slash	9	advance_on_keypress_SLASH	24	stimuli_distractor_diamondtriangles.svg	stimuli_target_rectangletriangles.svg	7	yes	57	0	514	0	0			0	0			1				0	
6.6.1	win	2023-06-12	18:54:05	19:02:13	485172	63d086f89f695e2d3c210e9f	4	1	practice_slash	9	practice_slash	25	stimuli_distractor_trianglediamonds.svg	stimuli_distractor_diamondtriangles.svg	16	no	0	1	2003	0	0			0	0			1				0	
6.6.1	win	2023-06-12	18:54:05	19:02:13	485172	63d086f89f695e2d3c210e9f	4	1	practice_slash	9	advance_on_keypress_SLASH	26	stimuli_distractor_trianglediamonds.svg	stimuli_distractor_diamondtriangles.svg	16	no	57	0	364	0	0			0	0			1				0	
6.6.1	win	2023-06-12	18:54:05	19:02:17	489179	63d086f89f695e2d3c210e9f	4	1	practice_slash	9	practice_slash	27	stimuli_distractor_trianglediamonds.svg	stimuli_distractor_trianglediamonds.svg	15	no	0	1	2003	0	0			0	0			1				0	
6.6.1	win	2023-06-12	18:54:05	19:02:17	489179	63d086f89f695e2d3c210e9f	4	1	practice_slash	9	advance_on_keypress_SLASH	28	stimuli_distractor_trianglediamonds.svg	stimuli_distractor_trianglediamonds.svg	15	no	57	0	367	0	0			0	0			1				0	
6.6.1	win	2023-06-12	18:54:05	19:02:20	491679	63d086f89f695e2d3c210e9f	4	1	practice_slash	9	practice_slash	29	stimuli_target_rectanglediamonds.svg	stimuli_distractor_trianglediamonds.svg	4	yes	53	1	512	0	0			0	0			1				0	
6.6.1	win	2023-06-12	18:54:05	19:02:20	491679	63d086f89f695e2d3c210e9f	4	1	practice_slash	9	advance_on_keypress_SLASH	30	stimuli_target_rectanglediamonds.svg	stimuli_distractor_trianglediamonds.svg	4	yes	57	0	568	0	0			0	0			1				0	
6.6.1	win	2023-06-12	18:54:05	19:02:22	494299	63d086f89f695e2d3c210e9f	4	1	practice_slash	9	practice_slash	31	stimuli_distractor_trianglediamonds.svg	stimuli_target_rectanglediamonds.svg	10	yes	53	1	431	0	0			0	0			1				0	
6.6.1	win	2023-06-12	18:54:05	19:02:22	494299	63d086f89f695e2d3c210e9f	4	1	practice_slash	9	advance_on_keypress_SLASH	32	stimuli_distractor_trianglediamonds.svg	stimuli_target_rectanglediamonds.svg	10	yes	57	0	1903	0	0			0	0			1				0	
6.6.1	win	2023-06-12	18:54:05	19:02:28	500486	63d086f89f695e2d3c210e9f	4	1	main_slash	11	main_slash	1	stimuli_target_squarediamonds.svg	stimuli_distractor_trianglediamonds.svg	4	yes	53	1	465	0	0			0	0			1				0	
6.6.1	win	2023-06-12	18:54:05	19:02:28	500486	63d086f89f695e2d3c210e9f	4	1	main_slash	11	advance_on_keypress_SLASH	2	stimuli_target_squarediamonds.svg	stimuli_distractor_trianglediamonds.svg	4	yes	57	0	222	0	0			0	0			1				0	
6.6.1	win	2023-06-12	18:54:05	19:02:30	501779	63d086f89f695e2d3c210e9f	4	1	main_slash	11	main_slash	3	stimuli_target_diamondrectangles.svg	stimuli_distractor_diamondtriangles.svg	23	yes	53	1	446	0	0			0	0			1				0	
6.6.1	win	2023-06-12	18:54:05	19:02:30	501779	63d086f89f695e2d3c210e9f	4	1	main_slash	11	advance_on_keypress_SLASH	4	stimuli_target_diamondrectangles.svg	stimuli_distractor_diamondtriangles.svg	23	yes	57	0	255	0	0			0	0			1				0	
6.6.1	win	2023-06-12	18:54:05	19:02:31	503054	63d086f89f695e2d3c210e9f	4	1	main_slash	11	main_slash	5	stimuli_target_trianglerectangles.svg	stimuli_distractor_diamondtriangles.svg	21	yes	53	1	403	0	0			0	0			1				0	
6.6.1	win	2023-06-12	18:54:05	19:02:31	503054	63d086f89f695e2d3c210e9f	4	1	main_slash	11	advance_on_keypress_SLASH	6	stimuli_target_trianglerectangles.svg	stimuli_distractor_diamondtriangles.svg	21	yes	57	0	177	0	0			0	0			1				0	
6.6.1	win	2023-06-12	18:54:05	19:02:32	504268	63d086f89f695e2d3c210e9f	4	1	main_slash	11	main_slash	7	stimuli_distractor_trianglediamonds.svg	stimuli_target_squarediamonds.svg	12	yes	53	1	399	0	0			0	0			1				0	
6.6.1	win	2023-06-12	18:54:05	19:02:32	504268	63d086f89f695e2d3c210e9f	4	1	main_slash	11	advance_on_keypress_SLASH	8	stimuli_distractor_trianglediamonds.svg	stimuli_target_squarediamonds.svg	12	yes	57	0	335	0	0			0	0			1				0	
6.6.1	win	2023-06-12	18:54:05	19:02:34	505623	63d086f89f695e2d3c210e9f	4	1	main_slash	11	main_slash	9	stimuli_distractor_diamondtriangles.svg	stimuli_target_squarediamonds.svg	16	yes	53	1	395	0	0			0	0			1				0	
6.6.1	win	2023-06-12	18:54:05	19:02:34	505623	63d086f89f695e2d3c210e9f	4	1	main_slash	11	advance_on_keypress_SLASH	10	stimuli_distractor_diamondtriangles.svg	stimuli_target_squarediamonds.svg	16	yes	57	0	236	0	0			0	0			1				0	
6.6.1	win	2023-06-12	18:54:05	19:02:35	507211	63d086f89f695e2d3c210e9f	4	1	main_slash	11	main_slash	11	stimuli_distractor_trianglediamonds.svg	stimuli_distractor_trianglediamonds.svg	33	no	53	0	719	0	0			0	0			1				0	
6.6.1	win	2023-06-12	18:54:05	19:02:35	507211	63d086f89f695e2d3c210e9f	4	1	main_slash	11	advance_on_keypress_SLASH	12	stimuli_distractor_trianglediamonds.svg	stimuli_distractor_trianglediamonds.svg	33	no	57	0	32064	0	0			0	0			1				0	
6.6.1	win	2023-06-12	18:54:05	19:03:08	540304	63d086f89f695e2d3c210e9f	4	1	main_slash	11	main_slash	13	stimuli_distractor_trianglediamonds.svg	stimuli_target_rectangletriangles.svg	9	yes	53	1	414	0	0			0	0			1				0	
6.6.1	win	2023-06-12	18:54:05	19:03:08	540304	63d086f89f695e2d3c210e9f	4	1	main_slash	11	advance_on_keypress_SLASH	14	stimuli_distractor_trianglediamonds.svg	stimuli_target_rectangletriangles.svg	9	yes	57	0	251	0	0			0	0			1				0	
6.6.1	win	2023-06-12	18:54:05	19:03:10	541727	63d086f89f695e2d3c210e9f	4	1	main_slash	11	main_slash	15	stimuli_target_trianglesquares.svg	stimuli_distractor_diamondtriangles.svg	22	yes	53	1	555	0	0			0	0			1				0	
6.6.1	win	2023-06-12	18:54:05	19:03:10	541727	63d086f89f695e2d3c210e9f	4	1	main_slash	11	advance_on_keypress_SLASH	16	stimuli_target_trianglesquares.svg	stimuli_distractor_diamondtriangles.svg	22	yes	57	0	1	0	0			0	0			1				0	
6.6.1	win	2023-06-12	18:54:05	19:03:11	542815	63d086f89f695e2d3c210e9f	4	1	main_slash	11	main_slash	17	stimuli_distractor_trianglediamonds.svg	stimuli_target_trianglesquares.svg	26	yes	53	1	462	0	0			0	0			1				0	
6.6.1	win	2023-06-12	18:54:05	19:03:11	542815	63d086f89f695e2d3c210e9f	4	1	main_slash	11	advance_on_keypress_SLASH	18	stimuli_distractor_trianglediamonds.svg	stimuli_target_trianglesquares.svg	26	yes	57	0	337	0	0			0	0			1				0	
6.6.1	win	2023-06-12	18:54:05	19:03:12	544123	63d086f89f695e2d3c210e9f	4	1	main_slash	11	main_slash	19	stimuli_distractor_diamondtriangles.svg	stimuli_target_rectangletriangles.svg	13	yes	53	1	360	0	0			0	0			1				0	
6.6.1	win	2023-06-12	18:54:05	19:03:12	544123	63d086f89f695e2d3c210e9f	4	1	main_slash	11	advance_on_keypress_SLASH	20	stimuli_distractor_diamondtriangles.svg	stimuli_target_rectangletriangles.svg	13	yes	57	0	136	0	0			0	0			1				0	
6.6.1	win	2023-06-12	18:54:05	19:03:13	545355	63d086f89f695e2d3c210e9f	4	1	main_slash	11	main_slash	21	stimuli_target_diamondsquares.svg	stimuli_distractor_trianglediamonds.svg	20	yes	53	1	467	0	0			0	0			1				0	
6.6.1	win	2023-06-12	18:54:05	19:03:13	545355	63d086f89f695e2d3c210e9f	4	1	main_slash	11	advance_on_keypress_SLASH	22	stimuli_target_diamondsquares.svg	stimuli_distractor_trianglediamonds.svg	20	yes	57	0	103	0	0			0	0			1				0	
6.6.1	win	2023-06-12	18:54:05	19:03:14	546429	63d086f89f695e2d3c210e9f	4	1	main_slash	11	main_slash	23	stimuli_target_rectanglediamonds.svg	stimuli_distractor_diamondtriangles.svg	6	yes	53	1	346	0	0			0	0			1				0	
6.6.1	win	2023-06-12	18:54:05	19:03:14	546429	63d086f89f695e2d3c210e9f	4	1	main_slash	11	advance_on_keypress_SLASH	24	stimuli_target_rectanglediamonds.svg	stimuli_distractor_diamondtriangles.svg	6	yes	57	0	99	0	0			0	0			1				0	
6.6.1	win	2023-06-12	18:54:05	19:03:15	547583	63d086f89f695e2d3c210e9f	4	1	main_slash	11	main_slash	25	stimuli_target_trianglerectangles.svg	stimuli_distractor_trianglediamonds.svg	17	yes	53	1	418	0	0			0	0			1				0	
6.6.1	win	2023-06-12	18:54:05	19:03:15	547583	63d086f89f695e2d3c210e9f	4	1	main_slash	11	advance_on_keypress_SLASH	26	stimuli_target_trianglerectangles.svg	stimuli_distractor_trianglediamonds.svg	17	yes	57	0	91	0	0			0	0			1				0	
6.6.1	win	2023-06-12	18:54:05	19:03:18	550316	63d086f89f695e2d3c210e9f	4	1	main_slash	11	main_slash	27	stimuli_distractor_diamondtriangles.svg	stimuli_distractor_diamondtriangles.svg	39	no	0	1	2003	0	0			0	0			1				0	
6.6.1	win	2023-06-12	18:54:05	19:03:18	550316	63d086f89f695e2d3c210e9f	4	1	main_slash	11	advance_on_keypress_SLASH	28	stimuli_distractor_diamondtriangles.svg	stimuli_distractor_diamondtriangles.svg	39	no	57	0	396	0	0			0	0			1				0	
6.6.1	win	2023-06-12	18:54:05	19:03:20	551703	63d086f89f695e2d3c210e9f	4	1	main_slash	11	main_slash	29	stimuli_distractor_trianglediamonds.svg	stimuli_target_diamondsquares.svg	28	yes	53	1	360	0	0			0	0			1				0	
6.6.1	win	2023-06-12	18:54:05	19:03:20	551703	63d086f89f695e2d3c210e9f	4	1	main_slash	11	advance_on_keypress_SLASH	30	stimuli_distractor_trianglediamonds.svg	stimuli_target_diamondsquares.svg	28	yes	57	0	122	0	0			0	0			1				0	
6.6.1	win	2023-06-12	18:54:05	19:03:21	552861	63d086f89f695e2d3c210e9f	4	1	main_slash	11	main_slash	31	stimuli_target_rectangletriangles.svg	stimuli_distractor_diamondtriangles.svg	5	yes	53	1	425	0	0			0	0			1				0	
6.6.1	win	2023-06-12	18:54:05	19:03:21	552861	63d086f89f695e2d3c210e9f	4	1	main_slash	11	advance_on_keypress_SLASH	32	stimuli_target_rectangletriangles.svg	stimuli_distractor_diamondtriangles.svg	5	yes	57	0	114	0	0			0	0			1				0	
6.6.1	win	2023-06-12	18:54:05	19:03:22	553975	63d086f89f695e2d3c210e9f	4	1	main_slash	11	main_slash	33	stimuli_target_trianglesquares.svg	stimuli_distractor_trianglediamonds.svg	18	yes	53	1	368	0	0			0	0			1				0	
6.6.1	win	2023-06-12	18:54:05	19:03:22	553975	63d086f89f695e2d3c210e9f	4	1	main_slash	11	advance_on_keypress_SLASH	34	stimuli_target_trianglesquares.svg	stimuli_distractor_trianglediamonds.svg	18	yes	57	0	88	0	0			0	0			1				0	
6.6.1	win	2023-06-12	18:54:05	19:03:23	555049	63d086f89f695e2d3c210e9f	4	1	main_slash	11	main_slash	35	stimuli_target_squarediamonds.svg	stimuli_distractor_diamondtriangles.svg	8	yes	53	1	366	0	0			0	0			1				0	
6.6.1	win	2023-06-12	18:54:05	19:03:23	555049	63d086f89f695e2d3c210e9f	4	1	main_slash	11	advance_on_keypress_SLASH	36	stimuli_target_squarediamonds.svg	stimuli_distractor_diamondtriangles.svg	8	yes	57	0	71	0	0			0	0			1				0	
6.6.1	win	2023-06-12	18:54:05	19:03:24	556159	63d086f89f695e2d3c210e9f	4	1	main_slash	11	main_slash	37	stimuli_distractor_diamondtriangles.svg	stimuli_target_squaretriangles.svg	15	yes	53	1	399	0	0			0	0			1				0	
6.6.1	win	2023-06-12	18:54:05	19:03:24	556159	63d086f89f695e2d3c210e9f	4	1	main_slash	11	advance_on_keypress_SLASH	38	stimuli_distractor_diamondtriangles.svg	stimuli_target_squaretriangles.svg	15	yes	57	0	188	0	0			0	0			1				0	
6.6.1	win	2023-06-12	18:54:05	19:03:27	558990	63d086f89f695e2d3c210e9f	4	1	main_slash	11	main_slash	39	stimuli_distractor_diamondtriangles.svg	stimuli_distractor_trianglediamonds.svg	37	no	0	1	2003	0	0			0	0			1				0	
6.6.1	win	2023-06-12	18:54:05	19:03:27	558990	63d086f89f695e2d3c210e9f	4	1	main_slash	11	advance_on_keypress_SLASH	40	stimuli_distractor_diamondtriangles.svg	stimuli_distractor_trianglediamonds.svg	37	no	57	0	427	0	0			0	0			1				0	
6.6.1	win	2023-06-12	18:54:05	19:03:28	560423	63d086f89f695e2d3c210e9f	4	1	main_slash	11	main_slash	41	stimuli_distractor_trianglediamonds.svg	stimuli_target_rectanglediamonds.svg	10	yes	53	1	383	0	0			0	0			1				0	
6.6.1	win	2023-06-12	18:54:05	19:03:28	560423	63d086f89f695e2d3c210e9f	4	1	main_slash	11	advance_on_keypress_SLASH	42	stimuli_distractor_trianglediamonds.svg	stimuli_target_rectanglediamonds.svg	10	yes	57	0	114	0	0			0	0			1				0	
6.6.1	win	2023-06-12	18:54:05	19:03:29	561581	63d086f89f695e2d3c210e9f	4	1	main_slash	11	main_slash	43	stimuli_distractor_diamondtriangles.svg	stimuli_target_diamondrectangles.svg	31	yes	53	1	427	0	0			0	0			1				0	
6.6.1	win	2023-06-12	18:54:05	19:03:29	561581	63d086f89f695e2d3c210e9f	4	1	main_slash	11	advance_on_keypress_SLASH	44	stimuli_distractor_diamondtriangles.svg	stimuli_target_diamondrectangles.svg	31	yes	57	0	90	0	0			0	0			1				0	
6.6.1	win	2023-06-12	18:54:05	19:03:31	562687	63d086f89f695e2d3c210e9f	4	1	main_slash	11	main_slash	45	stimuli_target_squaretriangles.svg	stimuli_distractor_diamondtriangles.svg	7	yes	53	1	397	0	0			0	0			1				0	
6.6.1	win	2023-06-12	18:54:05	19:03:31	562687	63d086f89f695e2d3c210e9f	4	1	main_slash	11	advance_on_keypress_SLASH	46	stimuli_target_squaretriangles.svg	stimuli_distractor_diamondtriangles.svg	7	yes	57	0	74	0	0			0	0			1				0	
6.6.1	win	2023-06-12	18:54:05	19:03:32	563849	63d086f89f695e2d3c210e9f	4	1	main_slash	11	main_slash	47	stimuli_distractor_trianglediamonds.svg	stimuli_target_diamondrectangles.svg	27	yes	53	1	443	0	0			0	0			1				0	
6.6.1	win	2023-06-12	18:54:05	19:03:32	563849	63d086f89f695e2d3c210e9f	4	1	main_slash	11	advance_on_keypress_SLASH	48	stimuli_distractor_trianglediamonds.svg	stimuli_target_diamondrectangles.svg	27	yes	57	0	90	0	0			0	0			1				0	
6.6.1	win	2023-06-12	18:54:05	19:03:34	566578	63d086f89f695e2d3c210e9f	4	1	main_slash	11	main_slash	49	stimuli_distractor_diamondtriangles.svg	stimuli_distractor_trianglediamonds.svg	38	no	0	1	2003	0	0			0	0			1				0	
6.6.1	win	2023-06-12	18:54:05	19:03:34	566578	63d086f89f695e2d3c210e9f	4	1	main_slash	11	advance_on_keypress_SLASH	50	stimuli_distractor_diamondtriangles.svg	stimuli_distractor_trianglediamonds.svg	38	no	57	0	398	0	0			0	0			1				0	
6.6.1	win	2023-06-12	18:54:05	19:03:38	569620	63d086f89f695e2d3c210e9f	4	1	main_slash	11	main_slash	51	stimuli_distractor_trianglediamonds.svg	stimuli_distractor_diamondtriangles.svg	36	no	0	1	2003	0	0			0	0			1				0	
6.6.1	win	2023-06-12	18:54:05	19:03:38	569620	63d086f89f695e2d3c210e9f	4	1	main_slash	11	advance_on_keypress_SLASH	52	stimuli_distractor_trianglediamonds.svg	stimuli_distractor_diamondtriangles.svg	36	no	57	0	437	0	0			0	0			1				0	
6.6.1	win	2023-06-12	18:54:05	19:03:41	572690	63d086f89f695e2d3c210e9f	4	1	main_slash	11	main_slash	53	stimuli_distractor_trianglediamonds.svg	stimuli_distractor_diamondtriangles.svg	35	no	0	1	2003	0	0			0	0			1				0	
6.6.1	win	2023-06-12	18:54:05	19:03:41	572690	63d086f89f695e2d3c210e9f	4	1	main_slash	11	advance_on_keypress_SLASH	54	stimuli_distractor_trianglediamonds.svg	stimuli_distractor_diamondtriangles.svg	35	no	57	0	1528	0	0			0	0			1				0	
6.6.1	win	2023-06-12	18:54:05	19:03:43	575249	63d086f89f695e2d3c210e9f	4	1	main_slash	11	main_slash	55	stimuli_distractor_diamondtriangles.svg	stimuli_target_diamondsquares.svg	32	yes	53	1	417	0	0			0	0			1				0	
6.6.1	win	2023-06-12	18:54:05	19:03:43	575249	63d086f89f695e2d3c210e9f	4	1	main_slash	11	advance_on_keypress_SLASH	56	stimuli_distractor_diamondtriangles.svg	stimuli_target_diamondsquares.svg	32	yes	57	0	229	0	0			0	0			1				0	
6.6.1	win	2023-06-12	18:54:05	19:03:44	576517	63d086f89f695e2d3c210e9f	4	1	main_slash	11	main_slash	57	stimuli_target_squaretriangles.svg	stimuli_distractor_trianglediamonds.svg	3	yes	53	1	399	0	0			0	0			1				0	
6.6.1	win	2023-06-12	18:54:05	19:03:44	576517	63d086f89f695e2d3c210e9f	4	1	main_slash	11	advance_on_keypress_SLASH	58	stimuli_target_squaretriangles.svg	stimuli_distractor_trianglediamonds.svg	3	yes	57	0	181	0	0			0	0			1				0	
6.6.1	win	2023-06-12	18:54:05	19:03:46	577761	63d086f89f695e2d3c210e9f	4	1	main_slash	11	main_slash	59	stimuli_target_rectanglediamonds.svg	stimuli_distractor_trianglediamonds.svg	2	yes	53	1	431	0	0			0	0			1				0	
6.6.1	win	2023-06-12	18:54:05	19:03:46	577761	63d086f89f695e2d3c210e9f	4	1	main_slash	11	advance_on_keypress_SLASH	60	stimuli_target_rectanglediamonds.svg	stimuli_distractor_trianglediamonds.svg	2	yes	57	0	35	0	0			0	0			1				0	
6.6.1	win	2023-06-12	18:54:05	19:03:48	580418	63d086f89f695e2d3c210e9f	4	1	main_slash	11	main_slash	61	stimuli_distractor_diamondtriangles.svg	stimuli_distractor_diamondtriangles.svg	40	no	0	1	2003	0	0			0	0			1				0	
6.6.1	win	2023-06-12	18:54:05	19:03:48	580418	63d086f89f695e2d3c210e9f	4	1	main_slash	11	advance_on_keypress_SLASH	62	stimuli_distractor_diamondtriangles.svg	stimuli_distractor_diamondtriangles.svg	40	no	57	0	324	0	0			0	0			1				0	
6.6.1	win	2023-06-12	18:54:05	19:03:50	581852	63d086f89f695e2d3c210e9f	4	1	main_slash	11	main_slash	63	stimuli_target_diamondsquares.svg	stimuli_distractor_diamondtriangles.svg	24	yes	53	1	497	0	0			0	0			1				0	
6.6.1	win	2023-06-12	18:54:05	19:03:50	581852	63d086f89f695e2d3c210e9f	4	1	main_slash	11	advance_on_keypress_SLASH	64	stimuli_target_diamondsquares.svg	stimuli_distractor_diamondtriangles.svg	24	yes	57	0	62	0	0			0	0			1				0	
6.6.1	win	2023-06-12	18:54:05	19:03:51	582938	63d086f89f695e2d3c210e9f	4	1	main_slash	11	main_slash	65	stimuli_target_diamondrectangles.svg	stimuli_distractor_trianglediamonds.svg	19	yes	53	1	405	0	0			0	0			1				0	
6.6.1	win	2023-06-12	18:54:05	19:03:51	582938	63d086f89f695e2d3c210e9f	4	1	main_slash	11	advance_on_keypress_SLASH	66	stimuli_target_diamondrectangles.svg	stimuli_distractor_trianglediamonds.svg	19	yes	57	0	55	0	0			0	0			1				0	
6.6.1	win	2023-06-12	18:54:05	19:03:52	584006	63d086f89f695e2d3c210e9f	4	1	main_slash	11	main_slash	67	stimuli_target_rectangletriangles.svg	stimuli_distractor_trianglediamonds.svg	1	yes	53	1	396	0	0			0	0			1				0	
6.6.1	win	2023-06-12	18:54:05	19:03:52	584006	63d086f89f695e2d3c210e9f	4	1	main_slash	11	advance_on_keypress_SLASH	68	stimuli_target_rectangletriangles.svg	stimuli_distractor_trianglediamonds.svg	1	yes	57	0	49	0	0			0	0			1				0	
6.6.1	win	2023-06-12	18:54:05	19:03:53	585074	63d086f89f695e2d3c210e9f	4	1	main_slash	11	main_slash	69	stimuli_distractor_diamondtriangles.svg	stimuli_target_rectanglediamonds.svg	14	yes	53	1	363	0	0			0	0			1				0	
6.6.1	win	2023-06-12	18:54:05	19:03:53	585074	63d086f89f695e2d3c210e9f	4	1	main_slash	11	advance_on_keypress_SLASH	70	stimuli_distractor_diamondtriangles.svg	stimuli_target_rectanglediamonds.svg	14	yes	57	0	33	0	0			0	0			1				0	
6.6.1	win	2023-06-12	18:54:05	19:03:54	586152	63d086f89f695e2d3c210e9f	4	1	main_slash	11	main_slash	71	stimuli_distractor_diamondtriangles.svg	stimuli_target_trianglerectangles.svg	29	yes	53	1	404	0	0			0	0			1				0	
6.6.1	win	2023-06-12	18:54:05	19:03:54	586152	63d086f89f695e2d3c210e9f	4	1	main_slash	11	advance_on_keypress_SLASH	72	stimuli_distractor_diamondtriangles.svg	stimuli_target_trianglerectangles.svg	29	yes	57	0	114	0	0			0	0			1				0	
6.6.1	win	2023-06-12	18:54:05	19:03:55	587228	63d086f89f695e2d3c210e9f	4	1	main_slash	11	main_slash	73	stimuli_distractor_trianglediamonds.svg	stimuli_target_trianglerectangles.svg	25	yes	53	1	347	0	0			0	0			1				0	
6.6.1	win	2023-06-12	18:54:05	19:03:55	587228	63d086f89f695e2d3c210e9f	4	1	main_slash	11	advance_on_keypress_SLASH	74	stimuli_distractor_trianglediamonds.svg	stimuli_target_trianglerectangles.svg	25	yes	57	0	77	0	0			0	0			1				0	
6.6.1	win	2023-06-12	18:54:05	19:03:56	588339	63d086f89f695e2d3c210e9f	4	1	main_slash	11	main_slash	75	stimuli_distractor_diamondtriangles.svg	stimuli_target_trianglesquares.svg	30	yes	53	1	400	0	0			0	0			1				0	
6.6.1	win	2023-06-12	18:54:05	19:03:56	588339	63d086f89f695e2d3c210e9f	4	1	main_slash	11	advance_on_keypress_SLASH	76	stimuli_distractor_diamondtriangles.svg	stimuli_target_trianglesquares.svg	30	yes	57	0	75	0	0			0	0			1				0	
6.6.1	win	2023-06-12	18:54:05	19:03:58	589653	63d086f89f695e2d3c210e9f	4	1	main_slash	11	main_slash	77	stimuli_distractor_trianglediamonds.svg	stimuli_target_squaretriangles.svg	11	yes	53	1	608	0	0			0	0			1				0	
6.6.1	win	2023-06-12	18:54:05	19:03:58	589653	63d086f89f695e2d3c210e9f	4	1	main_slash	11	advance_on_keypress_SLASH	78	stimuli_distractor_trianglediamonds.svg	stimuli_target_squaretriangles.svg	11	yes	57	0	67	0	0			0	0			1				0	
6.6.1	win	2023-06-12	18:54:05	19:03:59	590850	63d086f89f695e2d3c210e9f	4	1	main_slash	11	main_slash	79	stimuli_distractor_trianglediamonds.svg	stimuli_distractor_trianglediamonds.svg	34	no	53	0	517	0	0			0	0			1				0	
6.6.1	win	2023-06-12	18:54:05	19:03:59	590850	63d086f89f695e2d3c210e9f	4	1	main_slash	11	advance_on_keypress_SLASH	80	stimuli_distractor_trianglediamonds.svg	stimuli_distractor_trianglediamonds.svg	34	no	57	0	872	0	0			0	0			1				0	
6.6.1	win	2023-06-12	18:54:05	19:04:01	592788	63d086f89f695e2d3c210e9f	4	1	main_slash	11	main_slash	81	stimuli_distractor_trianglediamonds.svg	stimuli_target_diamondrectangles.svg	27	yes	53	1	457	0	0			0	0			1				0	
6.6.1	win	2023-06-12	18:54:05	19:04:01	592788	63d086f89f695e2d3c210e9f	4	1	main_slash	11	advance_on_keypress_SLASH	82	stimuli_distractor_trianglediamonds.svg	stimuli_target_diamondrectangles.svg	27	yes	57	0	52	0	0			0	0			1				0	
6.6.1	win	2023-06-12	18:54:05	19:04:02	593833	63d086f89f695e2d3c210e9f	4	1	main_slash	11	main_slash	83	stimuli_distractor_diamondtriangles.svg	stimuli_target_trianglesquares.svg	30	yes	53	1	377	0	0			0	0			1				0	
6.6.1	win	2023-06-12	18:54:05	19:04:02	593833	63d086f89f695e2d3c210e9f	4	1	main_slash	11	advance_on_keypress_SLASH	84	stimuli_distractor_diamondtriangles.svg	stimuli_target_trianglesquares.svg	30	yes	57	0	31	0	0			0	0			1				0	
6.6.1	win	2023-06-12	18:54:05	19:04:03	594906	63d086f89f695e2d3c210e9f	4	1	main_slash	11	main_slash	85	stimuli_target_squarediamonds.svg	stimuli_distractor_diamondtriangles.svg	8	yes	53	1	428	0	0			0	0			1				0	
6.6.1	win	2023-06-12	18:54:05	19:04:03	594906	63d086f89f695e2d3c210e9f	4	1	main_slash	11	advance_on_keypress_SLASH	86	stimuli_target_squarediamonds.svg	stimuli_distractor_diamondtriangles.svg	8	yes	57	0	58	0	0			0	0			1				0	
6.6.1	win	2023-06-12	18:54:05	19:04:05	597578	63d086f89f695e2d3c210e9f	4	1	main_slash	11	main_slash	87	stimuli_distractor_trianglediamonds.svg	stimuli_distractor_trianglediamonds.svg	34	no	0	1	2003	0	0			0	0			1				0	
6.6.1	win	2023-06-12	18:54:05	19:04:05	597578	63d086f89f695e2d3c210e9f	4	1	main_slash	11	advance_on_keypress_SLASH	88	stimuli_distractor_trianglediamonds.svg	stimuli_distractor_trianglediamonds.svg	34	no	57	0	384	0	0			0	0			1				0	
6.6.1	win	2023-06-12	18:54:05	19:04:07	598975	63d086f89f695e2d3c210e9f	4	1	main_slash	11	main_slash	89	stimuli_target_trianglesquares.svg	stimuli_distractor_diamondtriangles.svg	22	yes	53	1	383	0	0			0	0			1				0	
6.6.1	win	2023-06-12	18:54:05	19:04:07	598975	63d086f89f695e2d3c210e9f	4	1	main_slash	11	advance_on_keypress_SLASH	90	stimuli_target_trianglesquares.svg	stimuli_distractor_diamondtriangles.svg	22	yes	57	0	80	0	0			0	0			1				0	
6.6.1	win	2023-06-12	18:54:05	19:04:08	600197	63d086f89f695e2d3c210e9f	4	1	main_slash	11	main_slash	91	stimuli_target_diamondsquares.svg	stimuli_distractor_trianglediamonds.svg	20	yes	53	1	510	0	0			0	0			1				0	
6.6.1	win	2023-06-12	18:54:05	19:04:08	600197	63d086f89f695e2d3c210e9f	4	1	main_slash	11	advance_on_keypress_SLASH	92	stimuli_target_diamondsquares.svg	stimuli_distractor_trianglediamonds.svg	20	yes	57	0	106	0	0			0	0			1				0	
6.6.1	win	2023-06-12	18:54:05	19:04:11	602918	63d086f89f695e2d3c210e9f	4	1	main_slash	11	main_slash	93	stimuli_distractor_trianglediamonds.svg	stimuli_distractor_diamondtriangles.svg	36	no	0	1	2003	0	0			0	0			1				0	
6.6.1	win	2023-06-12	18:54:05	19:04:11	602918	63d086f89f695e2d3c210e9f	4	1	main_slash	11	advance_on_keypress_SLASH	94	stimuli_distractor_trianglediamonds.svg	stimuli_distractor_diamondtriangles.svg	36	no	57	0	496	0	0			0	0			1				0	
6.6.1	win	2023-06-12	18:54:05	19:04:12	604434	63d086f89f695e2d3c210e9f	4	1	main_slash	11	main_slash	95	stimuli_distractor_diamondtriangles.svg	stimuli_target_squarediamonds.svg	16	yes	53	1	407	0	0			0	0			1				0	
6.6.1	win	2023-06-12	18:54:05	19:04:12	604434	63d086f89f695e2d3c210e9f	4	1	main_slash	11	advance_on_keypress_SLASH	96	stimuli_distractor_diamondtriangles.svg	stimuli_target_squarediamonds.svg	16	yes	57	0	78	0	0			0	0			1				0	
6.6.1	win	2023-06-12	18:54:05	19:04:14	605699	63d086f89f695e2d3c210e9f	4	1	main_slash	11	main_slash	97	stimuli_target_trianglerectangles.svg	stimuli_distractor_trianglediamonds.svg	17	yes	53	1	575	0	0			0	0			1				0	
6.6.1	win	2023-06-12	18:54:05	19:04:14	605699	63d086f89f695e2d3c210e9f	4	1	main_slash	11	advance_on_keypress_SLASH	98	stimuli_target_trianglerectangles.svg	stimuli_distractor_trianglediamonds.svg	17	yes	57	0	16152	0	0			0	0			1				0	
6.6.1	win	2023-06-12	18:54:05	19:04:31	622955	63d086f89f695e2d3c210e9f	4	1	main_slash	11	main_slash	99	stimuli_distractor_trianglediamonds.svg	stimuli_target_trianglesquares.svg	26	yes	53	1	478	0	0			0	0			1				0	
6.6.1	win	2023-06-12	18:54:05	19:04:31	622955	63d086f89f695e2d3c210e9f	4	1	main_slash	11	advance_on_keypress_SLASH	100	stimuli_distractor_trianglediamonds.svg	stimuli_target_trianglesquares.svg	26	yes	57	0	138	0	0			0	0			1				0	
6.6.1	win	2023-06-12	18:54:05	19:04:32	624067	63d086f89f695e2d3c210e9f	4	1	main_slash	11	main_slash	101	stimuli_target_trianglesquares.svg	stimuli_distractor_trianglediamonds.svg	18	yes	53	1	360	0	0			0	0			1				0	
6.6.1	win	2023-06-12	18:54:05	19:04:32	624067	63d086f89f695e2d3c210e9f	4	1	main_slash	11	advance_on_keypress_SLASH	102	stimuli_target_trianglesquares.svg	stimuli_distractor_trianglediamonds.svg	18	yes	57	0	88	0	0			0	0			1				0	
6.6.1	win	2023-06-12	18:54:05	19:04:33	625210	63d086f89f695e2d3c210e9f	4	1	main_slash	11	main_slash	103	stimuli_distractor_trianglediamonds.svg	stimuli_target_trianglerectangles.svg	25	yes	53	1	410	0	0			0	0			1				0	
6.6.1	win	2023-06-12	18:54:05	19:04:33	625210	63d086f89f695e2d3c210e9f	4	1	main_slash	11	advance_on_keypress_SLASH	104	stimuli_distractor_trianglediamonds.svg	stimuli_target_trianglerectangles.svg	25	yes	57	0	109	0	0			0	0			1				0	
6.6.1	win	2023-06-12	18:54:05	19:04:34	626263	63d086f89f695e2d3c210e9f	4	1	main_slash	11	main_slash	105	stimuli_distractor_diamondtriangles.svg	stimuli_target_rectanglediamonds.svg	14	yes	53	1	334	0	0			0	0			1				0	
6.6.1	win	2023-06-12	18:54:05	19:04:34	626263	63d086f89f695e2d3c210e9f	4	1	main_slash	11	advance_on_keypress_SLASH	106	stimuli_distractor_diamondtriangles.svg	stimuli_target_rectanglediamonds.svg	14	yes	57	0	93	0	0			0	0			1				0	
6.6.1	win	2023-06-12	18:54:05	19:04:35	627315	63d086f89f695e2d3c210e9f	4	1	main_slash	11	main_slash	107	stimuli_target_rectangletriangles.svg	stimuli_distractor_diamondtriangles.svg	5	yes	53	1	337	0	0			0	0			1				0	
6.6.1	win	2023-06-12	18:54:05	19:04:35	627315	63d086f89f695e2d3c210e9f	4	1	main_slash	11	advance_on_keypress_SLASH	108	stimuli_target_rectangletriangles.svg	stimuli_distractor_diamondtriangles.svg	5	yes	57	0	53	0	0			0	0			1				0	
6.6.1	win	2023-06-12	18:54:05	19:04:38	629985	63d086f89f695e2d3c210e9f	4	1	main_slash	11	main_slash	109	stimuli_distractor_trianglediamonds.svg	stimuli_distractor_diamondtriangles.svg	35	no	0	1	2003	0	0			0	0			1				0	
6.6.1	win	2023-06-12	18:54:05	19:04:38	629985	63d086f89f695e2d3c210e9f	4	1	main_slash	11	advance_on_keypress_SLASH	110	stimuli_distractor_trianglediamonds.svg	stimuli_distractor_diamondtriangles.svg	35	no	57	0	475	0	0			0	0			1				0	
6.6.1	win	2023-06-12	18:54:05	19:04:39	631601	63d086f89f695e2d3c210e9f	4	1	main_slash	11	main_slash	111	stimuli_distractor_diamondtriangles.svg	stimuli_target_squaretriangles.svg	15	yes	53	1	501	0	0			0	0			1				0	
6.6.1	win	2023-06-12	18:54:05	19:04:39	631601	63d086f89f695e2d3c210e9f	4	1	main_slash	11	advance_on_keypress_SLASH	112	stimuli_distractor_diamondtriangles.svg	stimuli_target_squaretriangles.svg	15	yes	57	0	97	0	0			0	0			1				0	
6.6.1	win	2023-06-12	18:54:05	19:04:41	632699	63d086f89f695e2d3c210e9f	4	1	main_slash	11	main_slash	113	stimuli_target_squaretriangles.svg	stimuli_distractor_diamondtriangles.svg	7	yes	53	1	378	0	0			0	0			1				0	
6.6.1	win	2023-06-12	18:54:05	19:04:41	632699	63d086f89f695e2d3c210e9f	4	1	main_slash	11	advance_on_keypress_SLASH	114	stimuli_target_squaretriangles.svg	stimuli_distractor_diamondtriangles.svg	7	yes	57	0	105	0	0			0	0			1				0	
6.6.1	win	2023-06-12	18:54:05	19:04:42	633858	63d086f89f695e2d3c210e9f	4	1	main_slash	11	main_slash	115	stimuli_distractor_trianglediamonds.svg	stimuli_target_squarediamonds.svg	12	yes	53	1	435	0	0			0	0			1				0	
6.6.1	win	2023-06-12	18:54:05	19:04:42	633858	63d086f89f695e2d3c210e9f	4	1	main_slash	11	advance_on_keypress_SLASH	116	stimuli_distractor_trianglediamonds.svg	stimuli_target_squarediamonds.svg	12	yes	57	0	118	0	0			0	0			1				0	
6.6.1	win	2023-06-12	18:54:05	19:04:45	636610	63d086f89f695e2d3c210e9f	4	1	main_slash	11	main_slash	117	stimuli_distractor_trianglediamonds.svg	stimuli_distractor_trianglediamonds.svg	33	no	0	1	2003	0	0			0	0			1				0	
6.6.1	win	2023-06-12	18:54:05	19:04:45	636610	63d086f89f695e2d3c210e9f	4	1	main_slash	11	advance_on_keypress_SLASH	118	stimuli_distractor_trianglediamonds.svg	stimuli_distractor_trianglediamonds.svg	33	no	57	0	474	0	0			0	0			1				0	
6.6.1	win	2023-06-12	18:54:05	19:04:46	638037	63d086f89f695e2d3c210e9f	4	1	main_slash	11	main_slash	119	stimuli_target_rectanglediamonds.svg	stimuli_distractor_diamondtriangles.svg	6	yes	53	1	313	0	0			0	0			1				0	
6.6.1	win	2023-06-12	18:54:05	19:04:46	638037	63d086f89f695e2d3c210e9f	4	1	main_slash	11	advance_on_keypress_SLASH	120	stimuli_target_rectanglediamonds.svg	stimuli_distractor_diamondtriangles.svg	6	yes	57	0	91	0	0			0	0			1				0	
6.6.1	win	2023-06-12	18:54:05	19:04:47	639128	63d086f89f695e2d3c210e9f	4	1	main_slash	11	main_slash	121	stimuli_target_rectanglediamonds.svg	stimuli_distractor_trianglediamonds.svg	2	yes	53	1	382	0	0			0	0			1				0	
6.6.1	win	2023-06-12	18:54:05	19:04:47	639128	63d086f89f695e2d3c210e9f	4	1	main_slash	11	advance_on_keypress_SLASH	122	stimuli_target_rectanglediamonds.svg	stimuli_distractor_trianglediamonds.svg	2	yes	57	0	85	0	0			0	0			1				0	
6.6.1	win	2023-06-12	18:54:05	19:04:48	640164	63d086f89f695e2d3c210e9f	4	1	main_slash	11	main_slash	123	stimuli_target_squaretriangles.svg	stimuli_distractor_trianglediamonds.svg	3	yes	53	1	328	0	0			0	0			1				0	
6.6.1	win	2023-06-12	18:54:05	19:04:48	640164	63d086f89f695e2d3c210e9f	4	1	main_slash	11	advance_on_keypress_SLASH	124	stimuli_target_squaretriangles.svg	stimuli_distractor_trianglediamonds.svg	3	yes	57	0	85	0	0			0	0			1				0	
6.6.1	win	2023-06-12	18:54:05	19:04:49	641209	63d086f89f695e2d3c210e9f	4	1	main_slash	11	main_slash	125	stimuli_distractor_diamondtriangles.svg	stimuli_target_rectangletriangles.svg	13	yes	53	1	342	0	0			0	0			1				0	
6.6.1	win	2023-06-12	18:54:05	19:04:49	641209	63d086f89f695e2d3c210e9f	4	1	main_slash	11	advance_on_keypress_SLASH	126	stimuli_distractor_diamondtriangles.svg	stimuli_target_rectangletriangles.svg	13	yes	57	0	59	0	0			0	0			1				0	
6.6.1	win	2023-06-12	18:54:05	19:04:50	642217	63d086f89f695e2d3c210e9f	4	1	main_slash	11	main_slash	127	stimuli_distractor_trianglediamonds.svg	stimuli_target_rectangletriangles.svg	9	yes	53	1	325	0	0			0	0			1				0	
6.6.1	win	2023-06-12	18:54:05	19:04:50	642217	63d086f89f695e2d3c210e9f	4	1	main_slash	11	advance_on_keypress_SLASH	128	stimuli_distractor_trianglediamonds.svg	stimuli_target_rectangletriangles.svg	9	yes	57	0	89	0	0			0	0			1				0	
6.6.1	win	2023-06-12	18:54:05	19:04:53	644925	63d086f89f695e2d3c210e9f	4	1	main_slash	11	main_slash	129	stimuli_distractor_diamondtriangles.svg	stimuli_distractor_diamondtriangles.svg	40	no	0	1	2003	0	0			0	0			1				0	
6.6.1	win	2023-06-12	18:54:05	19:04:53	644925	63d086f89f695e2d3c210e9f	4	1	main_slash	11	advance_on_keypress_SLASH	130	stimuli_distractor_diamondtriangles.svg	stimuli_distractor_diamondtriangles.svg	40	no	57	0	390	0	0			0	0			1				0	
6.6.1	win	2023-06-12	18:54:05	19:04:54	646400	63d086f89f695e2d3c210e9f	4	1	main_slash	11	main_slash	131	stimuli_distractor_diamondtriangles.svg	stimuli_target_trianglerectangles.svg	29	yes	53	1	457	0	0			0	0			1				0	
6.6.1	win	2023-06-12	18:54:05	19:04:54	646400	63d086f89f695e2d3c210e9f	4	1	main_slash	11	advance_on_keypress_SLASH	132	stimuli_distractor_diamondtriangles.svg	stimuli_target_trianglerectangles.svg	29	yes	57	0	263	0	0			0	0			1				0	
6.6.1	win	2023-06-12	18:54:05	19:04:56	647844	63d086f89f695e2d3c210e9f	4	1	main_slash	11	main_slash	133	stimuli_distractor_diamondtriangles.svg	stimuli_target_diamondsquares.svg	32	yes	53	1	544	0	0			0	0			1				0	
6.6.1	win	2023-06-12	18:54:05	19:04:56	647844	63d086f89f695e2d3c210e9f	4	1	main_slash	11	advance_on_keypress_SLASH	134	stimuli_distractor_diamondtriangles.svg	stimuli_target_diamondsquares.svg	32	yes	57	0	90	0	0			0	0			1				0	
6.6.1	win	2023-06-12	18:54:05	19:04:57	648938	63d086f89f695e2d3c210e9f	4	1	main_slash	11	main_slash	135	stimuli_distractor_diamondtriangles.svg	stimuli_target_diamondrectangles.svg	31	yes	53	1	382	0	0			0	0			1				0	
6.6.1	win	2023-06-12	18:54:05	19:04:57	648938	63d086f89f695e2d3c210e9f	4	1	main_slash	11	advance_on_keypress_SLASH	136	stimuli_distractor_diamondtriangles.svg	stimuli_target_diamondrectangles.svg	31	yes	57	0	62	0	0			0	0			1				0	
6.6.1	win	2023-06-12	18:54:05	19:04:58	650053	63d086f89f695e2d3c210e9f	4	1	main_slash	11	main_slash	137	stimuli_target_diamondsquares.svg	stimuli_distractor_diamondtriangles.svg	24	yes	53	1	406	0	0			0	0			1				0	
6.6.1	win	2023-06-12	18:54:05	19:04:58	650053	63d086f89f695e2d3c210e9f	4	1	main_slash	11	advance_on_keypress_SLASH	138	stimuli_target_diamondsquares.svg	stimuli_distractor_diamondtriangles.svg	24	yes	57	0	117	0	0			0	0			1				0	
6.6.1	win	2023-06-12	18:54:05	19:04:59	651273	63d086f89f695e2d3c210e9f	4	1	main_slash	11	main_slash	139	stimuli_target_diamondrectangles.svg	stimuli_distractor_diamondtriangles.svg	23	yes	53	1	483	0	0			0	0			1				0	
6.6.1	win	2023-06-12	18:54:05	19:04:59	651273	63d086f89f695e2d3c210e9f	4	1	main_slash	11	advance_on_keypress_SLASH	140	stimuli_target_diamondrectangles.svg	stimuli_distractor_diamondtriangles.svg	23	yes	57	0	109	0	0			0	0			1				0	
6.6.1	win	2023-06-12	18:54:05	19:05:00	652410	63d086f89f695e2d3c210e9f	4	1	main_slash	11	main_slash	141	stimuli_distractor_trianglediamonds.svg	stimuli_target_diamondsquares.svg	28	yes	53	1	411	0	0			0	0			1				0	
6.6.1	win	2023-06-12	18:54:05	19:05:00	652410	63d086f89f695e2d3c210e9f	4	1	main_slash	11	advance_on_keypress_SLASH	142	stimuli_distractor_trianglediamonds.svg	stimuli_target_diamondsquares.svg	28	yes	57	0	78	0	0			0	0			1				0	
6.6.1	win	2023-06-12	18:54:05	19:05:01	653498	63d086f89f695e2d3c210e9f	4	1	main_slash	11	main_slash	143	stimuli_target_rectangletriangles.svg	stimuli_distractor_trianglediamonds.svg	1	yes	53	1	391	0	0			0	0			1				0	
6.6.1	win	2023-06-12	18:54:05	19:05:01	653498	63d086f89f695e2d3c210e9f	4	1	main_slash	11	advance_on_keypress_SLASH	144	stimuli_target_rectangletriangles.svg	stimuli_distractor_trianglediamonds.svg	1	yes	57	0	92	0	0			0	0			1				0	
6.6.1	win	2023-06-12	18:54:05	19:05:02	654523	63d086f89f695e2d3c210e9f	4	1	main_slash	11	main_slash	145	stimuli_distractor_trianglediamonds.svg	stimuli_target_rectanglediamonds.svg	10	yes	53	1	293	0	0			0	0			1				0	
6.6.1	win	2023-06-12	18:54:05	19:05:02	654523	63d086f89f695e2d3c210e9f	4	1	main_slash	11	advance_on_keypress_SLASH	146	stimuli_distractor_trianglediamonds.svg	stimuli_target_rectanglediamonds.svg	10	yes	57	0	60	0	0			0	0			1				0	
6.6.1	win	2023-06-12	18:54:05	19:05:03	655533	63d086f89f695e2d3c210e9f	4	1	main_slash	11	main_slash	147	stimuli_distractor_trianglediamonds.svg	stimuli_target_squaretriangles.svg	11	yes	53	1	304	0	0			0	0			1				0	
6.6.1	win	2023-06-12	18:54:05	19:05:03	655533	63d086f89f695e2d3c210e9f	4	1	main_slash	11	advance_on_keypress_SLASH	148	stimuli_distractor_trianglediamonds.svg	stimuli_target_squaretriangles.svg	11	yes	57	0	62	0	0			0	0			1				0	
6.6.1	win	2023-06-12	18:54:05	19:05:05	656643	63d086f89f695e2d3c210e9f	4	1	main_slash	11	main_slash	149	stimuli_target_trianglerectangles.svg	stimuli_distractor_diamondtriangles.svg	21	yes	53	1	415	0	0			0	0			1				0	
6.6.1	win	2023-06-12	18:54:05	19:05:05	656643	63d086f89f695e2d3c210e9f	4	1	main_slash	11	advance_on_keypress_SLASH	150	stimuli_target_trianglerectangles.svg	stimuli_distractor_diamondtriangles.svg	21	yes	57	0	91	0	0			0	0			1				0	
6.6.1	win	2023-06-12	18:54:05	19:05:07	659358	63d086f89f695e2d3c210e9f	4	1	main_slash	11	main_slash	151	stimuli_distractor_diamondtriangles.svg	stimuli_distractor_trianglediamonds.svg	38	no	0	1	2003	0	0			0	0			1				0	
6.6.1	win	2023-06-12	18:54:05	19:05:07	659358	63d086f89f695e2d3c210e9f	4	1	main_slash	11	advance_on_keypress_SLASH	152	stimuli_distractor_diamondtriangles.svg	stimuli_distractor_trianglediamonds.svg	38	no	57	0	488	0	0			0	0			1				0	
6.6.1	win	2023-06-12	18:54:05	19:05:10	662467	63d086f89f695e2d3c210e9f	4	1	main_slash	11	main_slash	153	stimuli_distractor_diamondtriangles.svg	stimuli_distractor_diamondtriangles.svg	39	no	0	1	2003	0	0			0	0			1				0	
6.6.1	win	2023-06-12	18:54:05	19:05:10	662467	63d086f89f695e2d3c210e9f	4	1	main_slash	11	advance_on_keypress_SLASH	154	stimuli_distractor_diamondtriangles.svg	stimuli_distractor_diamondtriangles.svg	39	no	57	0	428	0	0			0	0			1				0	
6.6.1	win	2023-06-12	18:54:05	19:05:12	663851	63d086f89f695e2d3c210e9f	4	1	main_slash	11	main_slash	155	stimuli_target_squarediamonds.svg	stimuli_distractor_trianglediamonds.svg	4	yes	53	1	345	0	0			0	0			1				0	
6.6.1	win	2023-06-12	18:54:05	19:05:12	663851	63d086f89f695e2d3c210e9f	4	1	main_slash	11	advance_on_keypress_SLASH	156	stimuli_target_squarediamonds.svg	stimuli_distractor_trianglediamonds.svg	4	yes	57	0	91	0	0			0	0			1				0	
6.6.1	win	2023-06-12	18:54:05	19:05:14	666564	63d086f89f695e2d3c210e9f	4	1	main_slash	11	main_slash	157	stimuli_distractor_diamondtriangles.svg	stimuli_distractor_trianglediamonds.svg	37	no	0	1	2003	0	0			0	0			1				0	
6.6.1	win	2023-06-12	18:54:05	19:05:14	666564	63d086f89f695e2d3c210e9f	4	1	main_slash	11	advance_on_keypress_SLASH	158	stimuli_distractor_diamondtriangles.svg	stimuli_distractor_trianglediamonds.svg	37	no	57	0	399	0	0			0	0			1				0	
6.6.1	win	2023-06-12	18:54:05	19:05:16	667965	63d086f89f695e2d3c210e9f	4	1	main_slash	11	main_slash	159	stimuli_target_diamondrectangles.svg	stimuli_distractor_trianglediamonds.svg	19	yes	53	1	382	0	0			0	0			1				0	
6.6.1	win	2023-06-12	18:54:05	19:05:16	667965	63d086f89f695e2d3c210e9f	4	1	main_slash	11	advance_on_keypress_SLASH	160	stimuli_target_diamondrectangles.svg	stimuli_distractor_trianglediamonds.svg	19	yes	57	0	89	0	0			0	0			1				0	
6.6.1	win	2023-06-12	18:54:05	19:05:16	667965	63d086f89f695e2d3c210e9f	4	1	headphonecheck_calibration	14	headphonecheck_calibrationIntro	1	stimuli_target_diamondrectangles.svg	stimuli_distractor_trianglediamonds.svg	19	yes	calibrationButton	0	1966	0	0			0	0			1				0	
6.6.1	win	2023-06-12	18:54:05	19:05:16	667965	63d086f89f695e2d3c210e9f	4	1	headphonecheck_testphase	15	test_collectResponse	3	stimuli_target_diamondrectangles.svg	stimuli_distractor_trianglediamonds.svg	19	yes	third	1	172	1	2	antiphase_hc_ios.wav	3	0	0			1				0	
6.6.1	win	2023-06-12	18:54:05	19:05:16	667965	63d086f89f695e2d3c210e9f	4	1	headphonecheck_testphase	15	test_collectResponse	6	stimuli_target_diamondrectangles.svg	stimuli_distractor_trianglediamonds.svg	19	yes	first	1	111	2	3	antiphase_hc_soi.wav	1	0	0			1				0	
6.6.1	win	2023-06-12	18:54:05	19:05:16	667965	63d086f89f695e2d3c210e9f	4	1	headphonecheck_testphase	15	test_collectResponse	9	stimuli_target_diamondrectangles.svg	stimuli_distractor_trianglediamonds.svg	19	yes	first	1	2073	3	4	antiphase_hc_sio.wav	1	0	0			1				0	
6.6.1	win	2023-06-12	18:54:05	19:05:16	667965	63d086f89f695e2d3c210e9f	4	1	headphonecheck_testphase	15	test_collectResponse	12	stimuli_target_diamondrectangles.svg	stimuli_distractor_trianglediamonds.svg	19	yes	second	1	309	4	1	antiphase_hc_iso.wav	2	0	0			1				0	
6.6.1	win	2023-06-12	18:54:05	19:05:16	667965	63d086f89f695e2d3c210e9f	4	1	headphonecheck_testphase	15	test_collectResponse	15	stimuli_target_diamondrectangles.svg	stimuli_distractor_trianglediamonds.svg	19	yes	third	1	247	5	6	antiphase_hc_ois.wav	3	0	0			1				0	
6.6.1	win	2023-06-12	18:54:05	19:05:16	667965	63d086f89f695e2d3c210e9f	4	1	headphonecheck_testphase	15	test_collectResponse	18	stimuli_target_diamondrectangles.svg	stimuli_distractor_trianglediamonds.svg	19	yes	second	1	351	6	5	antiphase_hc_osi.wav	2	0	0			1				0	
6.6.1	win	2023-06-12	18:54:05	19:05:16	667965	63d086f89f695e2d3c210e9f	4	1	stereocheck_calibration	17	stereocheck_calibrationIntro	1	stimuli_target_diamondrectangles.svg	stimuli_distractor_trianglediamonds.svg	19	yes	stereocheck_calibrationButton	0	1468	6	5	antiphase_hc_osi.wav	2	0	0			1				0	
6.6.1	win	2023-06-12	18:54:05	19:05:16	667965	63d086f89f695e2d3c210e9f	4	1	stereocheck_testphase	18	stereocheck_test_collectResponse	3	stimuli_target_diamondrectangles.svg	stimuli_distractor_trianglediamonds.svg	19	yes	stereocheck_right	1	391	6	5	antiphase_hc_osi.wav	2	1	4	noise_calib_stim_RIGHT.wav	2	1				0	
6.6.1	win	2023-06-12	18:54:05	19:05:16	667965	63d086f89f695e2d3c210e9f	4	1	stereocheck_testphase	18	stereocheck_test_collectResponse	6	stimuli_target_diamondrectangles.svg	stimuli_distractor_trianglediamonds.svg	19	yes	stereocheck_right	1	219	6	5	antiphase_hc_osi.wav	2	2	5	noise_calib_stim_RIGHT.wav	2	1				0	
6.6.1	win	2023-06-12	18:54:05	19:05:16	667965	63d086f89f695e2d3c210e9f	4	1	stereocheck_testphase	18	stereocheck_test_collectResponse	9	stimuli_target_diamondrectangles.svg	stimuli_distractor_trianglediamonds.svg	19	yes	stereocheck_left	1	209	6	5	antiphase_hc_osi.wav	2	3	2	noise_calib_stim_LEFT.wav	1	1				0	
6.6.1	win	2023-06-12	18:54:05	19:05:16	667965	63d086f89f695e2d3c210e9f	4	1	stereocheck_testphase	18	stereocheck_test_collectResponse	12	stimuli_target_diamondrectangles.svg	stimuli_distractor_trianglediamonds.svg	19	yes	stereocheck_left	1	220	6	5	antiphase_hc_osi.wav	2	4	1	noise_calib_stim_LEFT.wav	1	1				0	
6.6.1	win	2023-06-12	18:54:05	19:05:16	667965	63d086f89f695e2d3c210e9f	4	1	stereocheck_testphase	18	stereocheck_test_collectResponse	15	stimuli_target_diamondrectangles.svg	stimuli_distractor_trianglediamonds.svg	19	yes	stereocheck_right	1	179	6	5	antiphase_hc_osi.wav	2	5	6	noise_calib_stim_RIGHT.wav	2	1				0	
6.6.1	win	2023-06-12	18:54:05	19:05:16	667965	63d086f89f695e2d3c210e9f	4	1	stereocheck_testphase	18	stereocheck_test_collectResponse	18	stimuli_target_diamondrectangles.svg	stimuli_distractor_trianglediamonds.svg	19	yes	stereocheck_left	1	151	6	5	antiphase_hc_osi.wav	2	6	3	noise_calib_stim_LEFT.wav	1	1				0	
6.6.1	win	2023-06-12	18:54:05	19:05:16	667965	63d086f89f695e2d3c210e9f	4	1	DL_practice	21	DL_practice	2	stimuli_target_diamondrectangles.svg	stimuli_distractor_trianglediamonds.svg	19	yes	ta	1	866	6	5	antiphase_hc_osi.wav	2	6	3	noise_calib_stim_LEFT.wav	1	36	blb_dichoticlistening_ta-ta.mp3	ta	ta	0	left
6.6.1	win	2023-06-12	18:54:05	19:05:16	667965	63d086f89f695e2d3c210e9f	4	1	DL_practice	21	DL_practice	3	stimuli_target_diamondrectangles.svg	stimuli_distractor_trianglediamonds.svg	19	yes	ga	1	1156	6	5	antiphase_hc_osi.wav	2	6	3	noise_calib_stim_LEFT.wav	1	18	blb_dichoticlistening_ga-ta.mp3	ga	ta	1	left
6.6.1	win	2023-06-12	18:54:05	19:05:16	667965	63d086f89f695e2d3c210e9f	4	1	DL_practice	21	DL_practice	4	stimuli_target_diamondrectangles.svg	stimuli_distractor_trianglediamonds.svg	19	yes	pa	1	663	6	5	antiphase_hc_osi.wav	2	6	3	noise_calib_stim_LEFT.wav	1	29	blb_dichoticlistening_pa-pa.mp3	pa	pa	0	left
6.6.1	win	2023-06-12	18:54:05	19:05:16	667965	63d086f89f695e2d3c210e9f	4	1	DL_practice	21	DL_practice	5	stimuli_target_diamondrectangles.svg	stimuli_distractor_trianglediamonds.svg	19	yes	pa	1	1154	6	5	antiphase_hc_osi.wav	2	6	3	noise_calib_stim_LEFT.wav	1	23	blb_dichoticlistening_ka-pa.mp3	ka	pa	1	right
6.6.1	win	2023-06-12	18:54:05	19:05:16	667965	63d086f89f695e2d3c210e9f	4	1	DL_practice	21	DL_practice	6	stimuli_target_diamondrectangles.svg	stimuli_distractor_trianglediamonds.svg	19	yes	da	1	888	6	5	antiphase_hc_osi.wav	2	6	3	noise_calib_stim_LEFT.wav	1	8	blb_dichoticlistening_da-da.mp3	da	da	0	left
6.6.1	win	2023-06-12	18:54:05	19:05:16	667965	63d086f89f695e2d3c210e9f	4	1	DL_practice	21	DL_practice	7	stimuli_target_diamondrectangles.svg	stimuli_distractor_trianglediamonds.svg	19	yes	ba	1	1647	6	5	antiphase_hc_osi.wav	2	6	3	noise_calib_stim_LEFT.wav	1	1	blb_dichoticlistening_ba-ba.mp3	ba	ba	0	left
6.6.1	win	2023-06-12	18:54:05	19:05:16	667965	63d086f89f695e2d3c210e9f	4	1	DL_practice	21	DL_practice	8	stimuli_target_diamondrectangles.svg	stimuli_distractor_trianglediamonds.svg	19	yes	ba	1	1425	6	5	antiphase_hc_osi.wav	2	6	3	noise_calib_stim_LEFT.wav	1	7	blb_dichoticlistening_da-ba.mp3	da	ba	1	right
6.6.1	win	2023-06-12	18:54:05	19:05:16	667965	63d086f89f695e2d3c210e9f	4	1	DL_practice	21	DL_practice	9	stimuli_target_diamondrectangles.svg	stimuli_distractor_trianglediamonds.svg	19	yes	ga	1	816	6	5	antiphase_hc_osi.wav	2	6	3	noise_calib_stim_LEFT.wav	1	15	blb_dichoticlistening_ga-ga.mp3	ga	ga	0	left
6.6.1	win	2023-06-12	18:54:05	19:05:16	667965	63d086f89f695e2d3c210e9f	4	1	DL_practice	21	DL_practice	10	stimuli_target_diamondrectangles.svg	stimuli_distractor_trianglediamonds.svg	19	yes	ka	1	584	6	5	antiphase_hc_osi.wav	2	6	3	noise_calib_stim_LEFT.wav	1	22	blb_dichoticlistening_ka-ka.mp3	ka	ka	0	left
6.6.1	win	2023-06-12	18:54:05	19:05:16	667965	63d086f89f695e2d3c210e9f	4	1	DL_test	23	DL_test	1	stimuli_target_diamondrectangles.svg	stimuli_distractor_trianglediamonds.svg	19	yes	ka	1	1246	6	5	antiphase_hc_osi.wav	2	6	3	noise_calib_stim_LEFT.wav	1	34	blb_dichoticlistening_ta-ka.mp3	ta	ka	1	right
6.6.1	win	2023-06-12	18:54:05	19:05:16	667965	63d086f89f695e2d3c210e9f	4	1	DL_test	23	DL_test	2	stimuli_target_diamondrectangles.svg	stimuli_distractor_trianglediamonds.svg	19	yes	ta	1	1028	6	5	antiphase_hc_osi.wav	2	6	3	noise_calib_stim_LEFT.wav	1	30	blb_dichoticlistening_pa-ta.mp3	pa	ta	1	right
6.6.1	win	2023-06-12	18:54:05	19:05:16	667965	63d086f89f695e2d3c210e9f	4	1	DL_test	23	DL_test	3	stimuli_target_diamondrectangles.svg	stimuli_distractor_trianglediamonds.svg	19	yes	ka	1	801	6	5	antiphase_hc_osi.wav	2	6	3	noise_calib_stim_LEFT.wav	1	28	blb_dichoticlistening_pa-ka.mp3	pa	ka	1	right
6.6.1	win	2023-06-12	18:54:05	19:05:16	667965	63d086f89f695e2d3c210e9f	4	1	DL_test	23	DL_test	4	stimuli_target_diamondrectangles.svg	stimuli_distractor_trianglediamonds.svg	19	yes	ga	1	714	6	5	antiphase_hc_osi.wav	2	6	3	noise_calib_stim_LEFT.wav	1	3	blb_dichoticlistening_ba-ga.mp3	ba	ga	1	right
6.6.1	win	2023-06-12	18:54:05	19:05:16	667965	63d086f89f695e2d3c210e9f	4	1	DL_test	23	DL_test	5	stimuli_target_diamondrectangles.svg	stimuli_distractor_trianglediamonds.svg	19	yes	ka	1	1174	6	5	antiphase_hc_osi.wav	2	6	3	noise_calib_stim_LEFT.wav	1	22	blb_dichoticlistening_ka-ka.mp3	ka	ka	0	left
6.6.1	win	2023-06-12	18:54:05	19:05:16	667965	63d086f89f695e2d3c210e9f	4	1	DL_test	23	DL_test	6	stimuli_target_diamondrectangles.svg	stimuli_distractor_trianglediamonds.svg	19	yes	pa	1	1793	6	5	antiphase_hc_osi.wav	2	6	3	noise_calib_stim_LEFT.wav	1	25	blb_dichoticlistening_pa-ba.mp3	pa	ba	1	left
6.6.1	win	2023-06-12	18:54:05	19:05:16	667965	63d086f89f695e2d3c210e9f	4	1	DL_test	23	DL_test	7	stimuli_target_diamondrectangles.svg	stimuli_distractor_trianglediamonds.svg	19	yes	ga	1	935	6	5	antiphase_hc_osi.wav	2	6	3	noise_calib_stim_LEFT.wav	1	15	blb_dichoticlistening_ga-ga.mp3	ga	ga	0	left
6.6.1	win	2023-06-12	18:54:05	19:05:16	667965	63d086f89f695e2d3c210e9f	4	1	DL_test	23	DL_test	8	stimuli_target_diamondrectangles.svg	stimuli_distractor_trianglediamonds.svg	19	yes	da	1	937	6	5	antiphase_hc_osi.wav	2	6	3	noise_calib_stim_LEFT.wav	1	20	blb_dichoticlistening_ka-da.mp3	ka	da	1	right
6.6.1	win	2023-06-12	18:54:05	19:05:16	667965	63d086f89f695e2d3c210e9f	4	1	DL_test	23	DL_test	9	stimuli_target_diamondrectangles.svg	stimuli_distractor_trianglediamonds.svg	19	yes	ka	1	2692	6	5	antiphase_hc_osi.wav	2	6	3	noise_calib_stim_LEFT.wav	1	16	blb_dichoticlistening_ga-ka.mp3	ga	ka	1	right
6.6.1	win	2023-06-12	18:54:05	19:05:16	667965	63d086f89f695e2d3c210e9f	4	1	DL_test	23	DL_test	10	stimuli_target_diamondrectangles.svg	stimuli_distractor_trianglediamonds.svg	19	yes	da	1	804	6	5	antiphase_hc_osi.wav	2	6	3	noise_calib_stim_LEFT.wav	1	2	blb_dichoticlistening_ba-da.mp3	ba	da	1	right
6.6.1	win	2023-06-12	18:54:05	19:05:16	667965	63d086f89f695e2d3c210e9f	4	1	DL_test	23	DL_test	11	stimuli_target_diamondrectangles.svg	stimuli_distractor_trianglediamonds.svg	19	yes	pa	1	1094	6	5	antiphase_hc_osi.wav	2	6	3	noise_calib_stim_LEFT.wav	1	26	blb_dichoticlistening_pa-da.mp3	pa	da	1	left
6.6.1	win	2023-06-12	18:54:05	19:05:16	667965	63d086f89f695e2d3c210e9f	4	1	DL_test	23	DL_test	12	stimuli_target_diamondrectangles.svg	stimuli_distractor_trianglediamonds.svg	19	yes	pa	1	1338	6	5	antiphase_hc_osi.wav	2	6	3	noise_calib_stim_LEFT.wav	1	5	blb_dichoticlistening_ba-pa.mp3	ba	pa	1	right
6.6.1	win	2023-06-12	18:54:05	19:05:16	667965	63d086f89f695e2d3c210e9f	4	1	DL_test	23	DL_test	13	stimuli_target_diamondrectangles.svg	stimuli_distractor_trianglediamonds.svg	19	yes	ba	1	1138	6	5	antiphase_hc_osi.wav	2	6	3	noise_calib_stim_LEFT.wav	1	13	blb_dichoticlistening_ga-ba.mp3	ga	ba	1	right
6.6.1	win	2023-06-12	18:54:05	19:05:16	667965	63d086f89f695e2d3c210e9f	4	1	DL_test	23	DL_test	14	stimuli_target_diamondrectangles.svg	stimuli_distractor_trianglediamonds.svg	19	yes	da	1	724	6	5	antiphase_hc_osi.wav	2	6	3	noise_calib_stim_LEFT.wav	1	8	blb_dichoticlistening_da-da.mp3	da	da	0	left
6.6.1	win	2023-06-12	18:54:05	19:05:16	667965	63d086f89f695e2d3c210e9f	4	1	DL_test	23	DL_test	15	stimuli_target_diamondrectangles.svg	stimuli_distractor_trianglediamonds.svg	19	yes	ga	1	729	6	5	antiphase_hc_osi.wav	2	6	3	noise_calib_stim_LEFT.wav	1	14	blb_dichoticlistening_ga-da.mp3	ga	da	1	left
6.6.1	win	2023-06-12	18:54:05	19:05:16	667965	63d086f89f695e2d3c210e9f	4	1	DL_test	23	DL_test	16	stimuli_target_diamondrectangles.svg	stimuli_distractor_trianglediamonds.svg	19	yes	ka	1	603	6	5	antiphase_hc_osi.wav	2	6	3	noise_calib_stim_LEFT.wav	1	4	blb_dichoticlistening_ba-ka.mp3	ba	ka	1	right
6.6.1	win	2023-06-12	18:54:05	19:05:16	667965	63d086f89f695e2d3c210e9f	4	1	DL_test	23	DL_test	17	stimuli_target_diamondrectangles.svg	stimuli_distractor_trianglediamonds.svg	19	yes	pa	1	1759	6	5	antiphase_hc_osi.wav	2	6	3	noise_calib_stim_LEFT.wav	1	35	blb_dichoticlistening_ta-pa.mp3	ta	pa	1	right
6.6.1	win	2023-06-12	18:54:05	19:05:16	667965	63d086f89f695e2d3c210e9f	4	1	DL_test	23	DL_test	18	stimuli_target_diamondrectangles.svg	stimuli_distractor_trianglediamonds.svg	19	yes	ka	0	1106	6	5	antiphase_hc_osi.wav	2	6	3	noise_calib_stim_LEFT.wav	1	18	blb_dichoticlistening_ga-ta.mp3	ga	ta	1	other
6.6.1	win	2023-06-12	18:54:05	19:05:16	667965	63d086f89f695e2d3c210e9f	4	1	DL_test	23	DL_test	19	stimuli_target_diamondrectangles.svg	stimuli_distractor_trianglediamonds.svg	19	yes	ta	1	1028	6	5	antiphase_hc_osi.wav	2	6	3	noise_calib_stim_LEFT.wav	1	36	blb_dichoticlistening_ta-ta.mp3	ta	ta	0	left
6.6.1	win	2023-06-12	18:54:05	19:05:16	667965	63d086f89f695e2d3c210e9f	4	1	DL_test	23	DL_test	20	stimuli_target_diamondrectangles.svg	stimuli_distractor_trianglediamonds.svg	19	yes	pa	1	721	6	5	antiphase_hc_osi.wav	2	6	3	noise_calib_stim_LEFT.wav	1	11	blb_dichoticlistening_da-pa.mp3	da	pa	1	right
6.6.1	win	2023-06-12	18:54:05	19:05:16	667965	63d086f89f695e2d3c210e9f	4	1	DL_test	23	DL_test	21	stimuli_target_diamondrectangles.svg	stimuli_distractor_trianglediamonds.svg	19	yes	ga	1	1380	6	5	antiphase_hc_osi.wav	2	6	3	noise_calib_stim_LEFT.wav	1	27	blb_dichoticlistening_pa-ga.mp3	pa	ga	1	right
6.6.1	win	2023-06-12	18:54:05	19:05:16	667965	63d086f89f695e2d3c210e9f	4	1	DL_test	23	DL_test	22	stimuli_target_diamondrectangles.svg	stimuli_distractor_trianglediamonds.svg	19	yes	pa	1	2759	6	5	antiphase_hc_osi.wav	2	6	3	noise_calib_stim_LEFT.wav	1	17	blb_dichoticlistening_ga-pa.mp3	ga	pa	1	right
6.6.1	win	2023-06-12	18:54:05	19:05:16	667965	63d086f89f695e2d3c210e9f	4	1	DL_test	23	DL_test	23	stimuli_target_diamondrectangles.svg	stimuli_distractor_trianglediamonds.svg	19	yes	ba	1	1345	6	5	antiphase_hc_osi.wav	2	6	3	noise_calib_stim_LEFT.wav	1	1	blb_dichoticlistening_ba-ba.mp3	ba	ba	0	left
6.6.1	win	2023-06-12	18:54:05	19:05:16	667965	63d086f89f695e2d3c210e9f	4	1	DL_test	23	DL_test	24	stimuli_target_diamondrectangles.svg	stimuli_distractor_trianglediamonds.svg	19	yes	ta	1	1649	6	5	antiphase_hc_osi.wav	2	6	3	noise_calib_stim_LEFT.wav	1	12	blb_dichoticlistening_da-ta.mp3	da	ta	1	right
6.6.1	win	2023-06-12	18:54:05	19:05:16	667965	63d086f89f695e2d3c210e9f	4	1	DL_test	23	DL_test	25	stimuli_target_diamondrectangles.svg	stimuli_distractor_trianglediamonds.svg	19	yes	ta	1	1185	6	5	antiphase_hc_osi.wav	2	6	3	noise_calib_stim_LEFT.wav	1	6	blb_dichoticlistening_ba-ta.mp3	ba	ta	1	right
6.6.1	win	2023-06-12	18:54:05	19:05:16	667965	63d086f89f695e2d3c210e9f	4	1	DL_test	23	DL_test	26	stimuli_target_diamondrectangles.svg	stimuli_distractor_trianglediamonds.svg	19	yes	ka	1	882	6	5	antiphase_hc_osi.wav	2	6	3	noise_calib_stim_LEFT.wav	1	24	blb_dichoticlistening_ka-ta.mp3	ka	ta	1	left
