build	computer.platform	date	time	timestamp	time_elapsed_ms	subject	group	session	blockcode	blocknum	trialcode	trialnum	stimulus_left	stimulus_right	stim_index	target_present	response	correct	latency	headphonecheck_countTestTrials	headphonecheck_index	headphonecheck_testSound	headphonecheck_correctResponse	stereocheck_countTestTrials	stereocheck_index	stereocheck_testSound	stereocheck_correctResponse	DL_index	DL_soundfile	DL_leftSound	DL_rightSound	DL_dualSound	DL_choice
6.6.1	mac	2023-07-07	23:15:41	23:18:22	158857	5d2f7fb4bb27200019010768	4	2	practice_z	5	practice_z	1	stimuli_distractor_trianglediamonds.svg	stimuli_target_rectanglediamonds.svg	10	yes	44	1	1469	0	0			0	0			1				0	
6.6.1	mac	2023-07-07	23:15:41	23:18:22	158857	5d2f7fb4bb27200019010768	4	2	practice_z	5	advance_on_keypress_ZEE	2	stimuli_distractor_trianglediamonds.svg	stimuli_target_rectanglediamonds.svg	10	yes	57	0	1076	0	0			0	0			1				0	
6.6.1	mac	2023-07-07	23:15:41	23:18:27	163278	5d2f7fb4bb27200019010768	4	2	practice_z	5	practice_z	3	stimuli_distractor_diamondtriangles.svg	stimuli_distractor_diamondtriangles.svg	13	no	44	0	1709	0	0			0	0			1				0	
6.6.1	mac	2023-07-07	23:15:41	23:18:27	163278	5d2f7fb4bb27200019010768	4	2	practice_z	5	advance_on_keypress_ZEE	4	stimuli_distractor_diamondtriangles.svg	stimuli_distractor_diamondtriangles.svg	13	no	57	0	1160	0	0			0	0			1				0	
6.6.1	mac	2023-07-07	23:15:41	23:18:31	167181	5d2f7fb4bb27200019010768	4	2	practice_z	5	practice_z	5	stimuli_distractor_trianglediamonds.svg	stimuli_target_diamondrectangles.svg	12	yes	44	1	1113	0	0			0	0			1				0	
6.6.1	mac	2023-07-07	23:15:41	23:18:31	167181	5d2f7fb4bb27200019010768	4	2	practice_z	5	advance_on_keypress_ZEE	6	stimuli_distractor_trianglediamonds.svg	stimuli_target_diamondrectangles.svg	12	yes	57	0	976	0	0			0	0			1				0	
6.6.1	mac	2023-07-07	23:15:41	23:18:34	170678	5d2f7fb4bb27200019010768	4	2	practice_z	5	practice_z	7	stimuli_distractor_trianglediamonds.svg	stimuli_target_squarediamonds.svg	11	yes	44	1	877	0	0			0	0			1				0	
6.6.1	mac	2023-07-07	23:15:41	23:18:34	170678	5d2f7fb4bb27200019010768	4	2	practice_z	5	advance_on_keypress_ZEE	8	stimuli_distractor_trianglediamonds.svg	stimuli_target_squarediamonds.svg	11	yes	57	0	488	0	0			0	0			1				0	
6.6.1	mac	2023-07-07	23:15:41	23:18:37	173654	5d2f7fb4bb27200019010768	4	2	practice_z	5	practice_z	9	stimuli_distractor_diamondtriangles.svg	stimuli_target_diamondrectangles.svg	8	yes	44	1	853	0	0			0	0			1				0	
6.6.1	mac	2023-07-07	23:15:41	23:18:37	173654	5d2f7fb4bb27200019010768	4	2	practice_z	5	advance_on_keypress_ZEE	10	stimuli_distractor_diamondtriangles.svg	stimuli_target_diamondrectangles.svg	8	yes	57	0	843	0	0			0	0			1				0	
6.6.1	mac	2023-07-07	23:15:41	23:18:40	176943	5d2f7fb4bb27200019010768	4	2	practice_z	5	practice_z	11	stimuli_target_diamondsquares.svg	stimuli_distractor_trianglediamonds.svg	6	yes	44	1	808	0	0			0	0			1				0	
6.6.1	mac	2023-07-07	23:15:41	23:18:40	176943	5d2f7fb4bb27200019010768	4	2	practice_z	5	advance_on_keypress_ZEE	12	stimuli_target_diamondsquares.svg	stimuli_distractor_trianglediamonds.svg	6	yes	57	0	500	0	0			0	0			1				0	
6.6.1	mac	2023-07-07	23:15:41	23:18:43	180038	5d2f7fb4bb27200019010768	4	2	practice_z	5	practice_z	13	stimuli_distractor_diamondtriangles.svg	stimuli_distractor_trianglediamonds.svg	14	no	44	0	953	0	0			0	0			1				0	
6.6.1	mac	2023-07-07	23:15:41	23:18:43	180038	5d2f7fb4bb27200019010768	4	2	practice_z	5	advance_on_keypress_ZEE	14	stimuli_distractor_diamondtriangles.svg	stimuli_distractor_trianglediamonds.svg	14	no	57	0	598	0	0			0	0			1				0	
6.6.1	mac	2023-07-07	23:15:41	23:18:46	182917	5d2f7fb4bb27200019010768	4	2	practice_z	5	practice_z	15	stimuli_target_squarediamonds.svg	stimuli_distractor_diamondtriangles.svg	2	yes	44	1	649	0	0			0	0			1				0	
6.6.1	mac	2023-07-07	23:15:41	23:18:46	182917	5d2f7fb4bb27200019010768	4	2	practice_z	5	advance_on_keypress_ZEE	16	stimuli_target_squarediamonds.svg	stimuli_distractor_diamondtriangles.svg	2	yes	57	0	702	0	0			0	0			1				0	
6.6.1	mac	2023-07-07	23:15:41	23:18:49	186117	5d2f7fb4bb27200019010768	4	2	practice_z	5	practice_z	17	stimuli_distractor_diamondtriangles.svg	stimuli_target_trianglerectangles.svg	9	yes	44	1	866	0	0			0	0			1				0	
6.6.1	mac	2023-07-07	23:15:41	23:18:49	186117	5d2f7fb4bb27200019010768	4	2	practice_z	5	advance_on_keypress_ZEE	18	stimuli_distractor_diamondtriangles.svg	stimuli_target_trianglerectangles.svg	9	yes	57	0	1227	0	0			0	0			1				0	
6.6.1	mac	2023-07-07	23:15:41	23:18:53	189908	5d2f7fb4bb27200019010768	4	2	practice_z	5	practice_z	19	stimuli_distractor_trianglediamonds.svg	stimuli_distractor_trianglediamonds.svg	15	no	44	0	923	0	0			0	0			1				0	
6.6.1	mac	2023-07-07	23:15:41	23:18:53	189908	5d2f7fb4bb27200019010768	4	2	practice_z	5	advance_on_keypress_ZEE	20	stimuli_distractor_trianglediamonds.svg	stimuli_distractor_trianglediamonds.svg	15	no	57	0	511	0	0			0	0			1				0	
6.6.1	mac	2023-07-07	23:15:41	23:18:56	192875	5d2f7fb4bb27200019010768	4	2	practice_z	5	practice_z	21	stimuli_distractor_trianglediamonds.svg	stimuli_distractor_diamondtriangles.svg	16	no	44	0	824	0	0			0	0			1				0	
6.6.1	mac	2023-07-07	23:15:41	23:18:56	192875	5d2f7fb4bb27200019010768	4	2	practice_z	5	advance_on_keypress_ZEE	22	stimuli_distractor_trianglediamonds.svg	stimuli_distractor_diamondtriangles.svg	16	no	57	0	384	0	0			0	0			1				0	
6.6.1	mac	2023-07-07	23:15:41	23:18:59	195648	5d2f7fb4bb27200019010768	4	2	practice_z	5	practice_z	23	stimuli_distractor_diamondtriangles.svg	stimuli_target_rectangletriangles.svg	7	yes	44	1	747	0	0			0	0			1				0	
6.6.1	mac	2023-07-07	23:15:41	23:18:59	195648	5d2f7fb4bb27200019010768	4	2	practice_z	5	advance_on_keypress_ZEE	24	stimuli_distractor_diamondtriangles.svg	stimuli_target_rectangletriangles.svg	7	yes	57	0	396	0	0			0	0			1				0	
6.6.1	mac	2023-07-07	23:15:41	23:19:02	198478	5d2f7fb4bb27200019010768	4	2	practice_z	5	practice_z	25	stimuli_target_squarediamonds.svg	stimuli_distractor_trianglediamonds.svg	5	yes	44	1	794	0	0			0	0			1				0	
6.6.1	mac	2023-07-07	23:15:41	23:19:02	198478	5d2f7fb4bb27200019010768	4	2	practice_z	5	advance_on_keypress_ZEE	26	stimuli_target_squarediamonds.svg	stimuli_distractor_trianglediamonds.svg	5	yes	57	0	484	0	0			0	0			1				0	
6.6.1	mac	2023-07-07	23:15:41	23:19:05	201410	5d2f7fb4bb27200019010768	4	2	practice_z	5	practice_z	27	stimuli_target_rectanglediamonds.svg	stimuli_distractor_diamondtriangles.svg	1	yes	44	1	807	0	0			0	0			1				0	
6.6.1	mac	2023-07-07	23:15:41	23:19:05	201410	5d2f7fb4bb27200019010768	4	2	practice_z	5	advance_on_keypress_ZEE	28	stimuli_target_rectanglediamonds.svg	stimuli_distractor_diamondtriangles.svg	1	yes	57	0	425	0	0			0	0			1				0	
6.6.1	mac	2023-07-07	23:15:41	23:19:08	204256	5d2f7fb4bb27200019010768	4	2	practice_z	5	practice_z	29	stimuli_target_rectanglediamonds.svg	stimuli_distractor_trianglediamonds.svg	4	yes	44	1	788	0	0			0	0			1				0	
6.6.1	mac	2023-07-07	23:15:41	23:19:08	204256	5d2f7fb4bb27200019010768	4	2	practice_z	5	advance_on_keypress_ZEE	30	stimuli_target_rectanglediamonds.svg	stimuli_distractor_trianglediamonds.svg	4	yes	57	0	804	0	0			0	0			1				0	
6.6.1	mac	2023-07-07	23:15:41	23:19:11	207527	5d2f7fb4bb27200019010768	4	2	practice_z	5	practice_z	31	stimuli_target_diamondsquares.svg	stimuli_distractor_diamondtriangles.svg	3	yes	44	1	827	0	0			0	0			1				0	
6.6.1	mac	2023-07-07	23:15:41	23:19:11	207527	5d2f7fb4bb27200019010768	4	2	practice_z	5	advance_on_keypress_ZEE	32	stimuli_target_diamondsquares.svg	stimuli_distractor_diamondtriangles.svg	3	yes	57	0	426	0	0			0	0			1				0	
6.6.1	mac	2023-07-07	23:15:41	23:19:20	217103	5d2f7fb4bb27200019010768	4	2	main_z	7	main_z	1	stimuli_distractor_trianglediamonds.svg	stimuli_target_squaretriangles.svg	11	yes	44	1	654	0	0			0	0			1				0	
6.6.1	mac	2023-07-07	23:15:41	23:19:20	217103	5d2f7fb4bb27200019010768	4	2	main_z	7	advance_on_keypress_ZEE	2	stimuli_distractor_trianglediamonds.svg	stimuli_target_squaretriangles.svg	11	yes	57	0	1087	0	0			0	0			1				0	
6.6.1	mac	2023-07-07	23:15:41	23:19:23	219579	5d2f7fb4bb27200019010768	4	2	main_z	7	main_z	3	stimuli_target_trianglesquares.svg	stimuli_distractor_trianglediamonds.svg	18	yes	44	1	762	0	0			0	0			1				0	
6.6.1	mac	2023-07-07	23:15:41	23:19:23	219579	5d2f7fb4bb27200019010768	4	2	main_z	7	advance_on_keypress_ZEE	4	stimuli_target_trianglesquares.svg	stimuli_distractor_trianglediamonds.svg	18	yes	57	0	828	0	0			0	0			1				0	
6.6.1	mac	2023-07-07	23:15:41	23:19:26	223033	5d2f7fb4bb27200019010768	4	2	main_z	7	main_z	5	stimuli_distractor_diamondtriangles.svg	stimuli_distractor_diamondtriangles.svg	39	no	0	1	2000	0	0			0	0			1				0	
6.6.1	mac	2023-07-07	23:15:41	23:19:26	223033	5d2f7fb4bb27200019010768	4	2	main_z	7	advance_on_keypress_ZEE	6	stimuli_distractor_diamondtriangles.svg	stimuli_distractor_diamondtriangles.svg	39	no	57	0	695	0	0			0	0			1				0	
6.6.1	mac	2023-07-07	23:15:41	23:19:29	225124	5d2f7fb4bb27200019010768	4	2	main_z	7	main_z	7	stimuli_distractor_diamondtriangles.svg	stimuli_distractor_trianglediamonds.svg	37	no	44	0	773	0	0			0	0			1				0	
6.6.1	mac	2023-07-07	23:15:41	23:19:29	225124	5d2f7fb4bb27200019010768	4	2	main_z	7	advance_on_keypress_ZEE	8	stimuli_distractor_diamondtriangles.svg	stimuli_distractor_trianglediamonds.svg	37	no	57	0	810	0	0			0	0			1				0	
6.6.1	mac	2023-07-07	23:15:41	23:19:31	227363	5d2f7fb4bb27200019010768	4	2	main_z	7	main_z	9	stimuli_target_rectanglediamonds.svg	stimuli_distractor_diamondtriangles.svg	6	yes	44	1	795	0	0			0	0			1				0	
6.6.1	mac	2023-07-07	23:15:41	23:19:31	227363	5d2f7fb4bb27200019010768	4	2	main_z	7	advance_on_keypress_ZEE	10	stimuli_target_rectanglediamonds.svg	stimuli_distractor_diamondtriangles.svg	6	yes	57	0	498	0	0			0	0			1				0	
6.6.1	mac	2023-07-07	23:15:41	23:19:33	229517	5d2f7fb4bb27200019010768	4	2	main_z	7	main_z	11	stimuli_distractor_trianglediamonds.svg	stimuli_distractor_trianglediamonds.svg	33	no	44	0	1018	0	0			0	0			1				0	
6.6.1	mac	2023-07-07	23:15:41	23:19:33	229517	5d2f7fb4bb27200019010768	4	2	main_z	7	advance_on_keypress_ZEE	12	stimuli_distractor_trianglediamonds.svg	stimuli_distractor_trianglediamonds.svg	33	no	57	0	432	0	0			0	0			1				0	
6.6.1	mac	2023-07-07	23:15:41	23:19:35	231377	5d2f7fb4bb27200019010768	4	2	main_z	7	main_z	13	stimuli_distractor_diamondtriangles.svg	stimuli_target_diamondrectangles.svg	31	yes	44	1	794	0	0			0	0			1				0	
6.6.1	mac	2023-07-07	23:15:41	23:19:35	231377	5d2f7fb4bb27200019010768	4	2	main_z	7	advance_on_keypress_ZEE	14	stimuli_distractor_diamondtriangles.svg	stimuli_target_diamondrectangles.svg	31	yes	57	0	434	0	0			0	0			1				0	
6.6.1	mac	2023-07-07	23:15:41	23:19:37	233193	5d2f7fb4bb27200019010768	4	2	main_z	7	main_z	15	stimuli_target_squarediamonds.svg	stimuli_distractor_trianglediamonds.svg	4	yes	44	1	744	0	0			0	0			1				0	
6.6.1	mac	2023-07-07	23:15:41	23:19:37	233193	5d2f7fb4bb27200019010768	4	2	main_z	7	advance_on_keypress_ZEE	16	stimuli_target_squarediamonds.svg	stimuli_distractor_trianglediamonds.svg	4	yes	57	0	335	0	0			0	0			1				0	
6.6.1	mac	2023-07-07	23:15:41	23:19:39	235766	5d2f7fb4bb27200019010768	4	2	main_z	7	main_z	17	stimuli_target_squaretriangles.svg	stimuli_distractor_trianglediamonds.svg	3	yes	44	1	1615	0	0			0	0			1				0	
6.6.1	mac	2023-07-07	23:15:41	23:19:39	235766	5d2f7fb4bb27200019010768	4	2	main_z	7	advance_on_keypress_ZEE	18	stimuli_target_squaretriangles.svg	stimuli_distractor_trianglediamonds.svg	3	yes	57	0	1088	0	0			0	0			1				0	
6.6.1	mac	2023-07-07	23:15:41	23:19:42	238262	5d2f7fb4bb27200019010768	4	2	main_z	7	main_z	19	stimuli_target_rectangletriangles.svg	stimuli_distractor_trianglediamonds.svg	1	yes	44	1	778	0	0			0	0			1				0	
6.6.1	mac	2023-07-07	23:15:41	23:19:42	238262	5d2f7fb4bb27200019010768	4	2	main_z	7	advance_on_keypress_ZEE	20	stimuli_target_rectangletriangles.svg	stimuli_distractor_trianglediamonds.svg	1	yes	57	0	558	0	0			0	0			1				0	
6.6.1	mac	2023-07-07	23:15:41	23:19:44	240324	5d2f7fb4bb27200019010768	4	2	main_z	7	main_z	21	stimuli_distractor_diamondtriangles.svg	stimuli_target_rectanglediamonds.svg	14	yes	44	1	874	0	0			0	0			1				0	
6.6.1	mac	2023-07-07	23:15:41	23:19:44	240324	5d2f7fb4bb27200019010768	4	2	main_z	7	advance_on_keypress_ZEE	22	stimuli_distractor_diamondtriangles.svg	stimuli_target_rectanglediamonds.svg	14	yes	57	0	792	0	0			0	0			1				0	
6.6.1	mac	2023-07-07	23:15:41	23:19:46	243031	5d2f7fb4bb27200019010768	4	2	main_z	7	main_z	23	stimuli_distractor_diamondtriangles.svg	stimuli_target_diamondsquares.svg	32	yes	44	1	1281	0	0			0	0			1				0	
6.6.1	mac	2023-07-07	23:15:41	23:19:46	243031	5d2f7fb4bb27200019010768	4	2	main_z	7	advance_on_keypress_ZEE	24	stimuli_distractor_diamondtriangles.svg	stimuli_target_diamondsquares.svg	32	yes	57	0	586	0	0			0	0			1				0	
6.6.1	mac	2023-07-07	23:15:41	23:19:50	246250	5d2f7fb4bb27200019010768	4	2	main_z	7	main_z	25	stimuli_distractor_diamondtriangles.svg	stimuli_target_squaretriangles.svg	15	yes	0	0	2000	0	0			0	0			1				0	
6.6.1	mac	2023-07-07	23:15:41	23:19:50	246250	5d2f7fb4bb27200019010768	4	2	main_z	7	advance_on_keypress_ZEE	26	stimuli_distractor_diamondtriangles.svg	stimuli_target_squaretriangles.svg	15	yes	57	0	440	0	0			0	0			1				0	
6.6.1	mac	2023-07-07	23:15:41	23:19:51	248075	5d2f7fb4bb27200019010768	4	2	main_z	7	main_z	27	stimuli_target_squarediamonds.svg	stimuli_distractor_diamondtriangles.svg	8	yes	44	1	758	0	0			0	0			1				0	
6.6.1	mac	2023-07-07	23:15:41	23:19:51	248075	5d2f7fb4bb27200019010768	4	2	main_z	7	advance_on_keypress_ZEE	28	stimuli_target_squarediamonds.svg	stimuli_distractor_diamondtriangles.svg	8	yes	57	0	598	0	0			0	0			1				0	
6.6.1	mac	2023-07-07	23:15:41	23:19:55	251300	5d2f7fb4bb27200019010768	4	2	main_z	7	main_z	29	stimuli_distractor_diamondtriangles.svg	stimuli_target_trianglerectangles.svg	29	yes	0	0	2000	0	0			0	0			1				0	
6.6.1	mac	2023-07-07	23:15:41	23:19:55	251300	5d2f7fb4bb27200019010768	4	2	main_z	7	advance_on_keypress_ZEE	30	stimuli_distractor_diamondtriangles.svg	stimuli_target_trianglerectangles.svg	29	yes	57	0	396	0	0			0	0			1				0	
6.6.1	mac	2023-07-07	23:15:41	23:19:58	254317	5d2f7fb4bb27200019010768	4	2	main_z	7	main_z	31	stimuli_target_trianglerectangles.svg	stimuli_distractor_diamondtriangles.svg	21	yes	0	0	2000	0	0			0	0			1				0	
6.6.1	mac	2023-07-07	23:15:41	23:19:58	254317	5d2f7fb4bb27200019010768	4	2	main_z	7	advance_on_keypress_ZEE	32	stimuli_target_trianglerectangles.svg	stimuli_distractor_diamondtriangles.svg	21	yes	57	0	405	0	0			0	0			1				0	
6.6.1	mac	2023-07-07	23:15:41	23:20:00	256137	5d2f7fb4bb27200019010768	4	2	main_z	7	main_z	33	stimuli_distractor_trianglediamonds.svg	stimuli_target_rectanglediamonds.svg	10	yes	44	1	787	0	0			0	0			1				0	
6.6.1	mac	2023-07-07	23:15:41	23:20:00	256137	5d2f7fb4bb27200019010768	4	2	main_z	7	advance_on_keypress_ZEE	34	stimuli_distractor_trianglediamonds.svg	stimuli_target_rectanglediamonds.svg	10	yes	57	0	397	0	0			0	0			1				0	
6.6.1	mac	2023-07-07	23:15:41	23:20:02	259091	5d2f7fb4bb27200019010768	4	2	main_z	7	main_z	35	stimuli_distractor_trianglediamonds.svg	stimuli_target_diamondrectangles.svg	27	yes	44	1	1923	0	0			0	0			1				0	
6.6.1	mac	2023-07-07	23:15:41	23:20:02	259091	5d2f7fb4bb27200019010768	4	2	main_z	7	advance_on_keypress_ZEE	36	stimuli_distractor_trianglediamonds.svg	stimuli_target_diamondrectangles.svg	27	yes	57	0	528	0	0			0	0			1				0	
6.6.1	mac	2023-07-07	23:15:41	23:20:04	261082	5d2f7fb4bb27200019010768	4	2	main_z	7	main_z	37	stimuli_distractor_diamondtriangles.svg	stimuli_target_rectangletriangles.svg	13	yes	44	1	832	0	0			0	0			1				0	
6.6.1	mac	2023-07-07	23:15:41	23:20:04	261082	5d2f7fb4bb27200019010768	4	2	main_z	7	advance_on_keypress_ZEE	38	stimuli_distractor_diamondtriangles.svg	stimuli_target_rectangletriangles.svg	13	yes	57	0	360	0	0			0	0			1				0	
6.6.1	mac	2023-07-07	23:15:41	23:20:06	262919	5d2f7fb4bb27200019010768	4	2	main_z	7	main_z	39	stimuli_target_rectangletriangles.svg	stimuli_distractor_diamondtriangles.svg	5	yes	44	1	852	0	0			0	0			1				0	
6.6.1	mac	2023-07-07	23:15:41	23:20:06	262919	5d2f7fb4bb27200019010768	4	2	main_z	7	advance_on_keypress_ZEE	40	stimuli_target_rectangletriangles.svg	stimuli_distractor_diamondtriangles.svg	5	yes	57	0	219	0	0			0	0			1				0	
6.6.1	mac	2023-07-07	23:15:41	23:20:09	265769	5d2f7fb4bb27200019010768	4	2	main_z	7	main_z	41	stimuli_target_trianglerectangles.svg	stimuli_distractor_trianglediamonds.svg	17	yes	0	0	2000	0	0			0	0			1				0	
6.6.1	mac	2023-07-07	23:15:41	23:20:09	265769	5d2f7fb4bb27200019010768	4	2	main_z	7	advance_on_keypress_ZEE	42	stimuli_target_trianglerectangles.svg	stimuli_distractor_trianglediamonds.svg	17	yes	57	0	295	0	0			0	0			1				0	
6.6.1	mac	2023-07-07	23:15:41	23:20:12	268683	5d2f7fb4bb27200019010768	4	2	main_z	7	main_z	43	stimuli_target_trianglesquares.svg	stimuli_distractor_diamondtriangles.svg	22	yes	0	0	2000	0	0			0	0			1				0	
6.6.1	mac	2023-07-07	23:15:41	23:20:12	268683	5d2f7fb4bb27200019010768	4	2	main_z	7	advance_on_keypress_ZEE	44	stimuli_target_trianglesquares.svg	stimuli_distractor_diamondtriangles.svg	22	yes	57	0	520	0	0			0	0			1				0	
6.6.1	mac	2023-07-07	23:15:41	23:20:14	270677	5d2f7fb4bb27200019010768	4	2	main_z	7	main_z	45	stimuli_target_rectanglediamonds.svg	stimuli_distractor_trianglediamonds.svg	2	yes	44	1	845	0	0			0	0			1				0	
6.6.1	mac	2023-07-07	23:15:41	23:20:14	270677	5d2f7fb4bb27200019010768	4	2	main_z	7	advance_on_keypress_ZEE	46	stimuli_target_rectanglediamonds.svg	stimuli_distractor_trianglediamonds.svg	2	yes	57	0	644	0	0			0	0			1				0	
6.6.1	mac	2023-07-07	23:15:41	23:20:17	273310	5d2f7fb4bb27200019010768	4	2	main_z	7	main_z	47	stimuli_distractor_trianglediamonds.svg	stimuli_target_diamondsquares.svg	28	yes	44	1	1360	0	0			0	0			1				0	
6.6.1	mac	2023-07-07	23:15:41	23:20:17	273310	5d2f7fb4bb27200019010768	4	2	main_z	7	advance_on_keypress_ZEE	48	stimuli_distractor_trianglediamonds.svg	stimuli_target_diamondsquares.svg	28	yes	57	0	441	0	0			0	0			1				0	
6.6.1	mac	2023-07-07	23:15:41	23:20:19	275467	5d2f7fb4bb27200019010768	4	2	main_z	7	main_z	49	stimuli_target_diamondsquares.svg	stimuli_distractor_diamondtriangles.svg	24	yes	44	1	1083	0	0			0	0			1				0	
6.6.1	mac	2023-07-07	23:15:41	23:20:19	275467	5d2f7fb4bb27200019010768	4	2	main_z	7	advance_on_keypress_ZEE	50	stimuli_target_diamondsquares.svg	stimuli_distractor_diamondtriangles.svg	24	yes	57	0	362	0	0			0	0			1				0	
6.6.1	mac	2023-07-07	23:15:41	23:20:22	278450	5d2f7fb4bb27200019010768	4	2	main_z	7	main_z	51	stimuli_distractor_diamondtriangles.svg	stimuli_distractor_trianglediamonds.svg	38	no	0	1	2000	0	0			0	0			1				0	
6.6.1	mac	2023-07-07	23:15:41	23:20:22	278450	5d2f7fb4bb27200019010768	4	2	main_z	7	advance_on_keypress_ZEE	52	stimuli_distractor_diamondtriangles.svg	stimuli_distractor_trianglediamonds.svg	38	no	57	0	443	0	0			0	0			1				0	
6.6.1	mac	2023-07-07	23:15:41	23:20:24	280410	5d2f7fb4bb27200019010768	4	2	main_z	7	main_z	53	stimuli_distractor_trianglediamonds.svg	stimuli_distractor_diamondtriangles.svg	36	no	44	0	892	0	0			0	0			1				0	
6.6.1	mac	2023-07-07	23:15:41	23:20:24	280410	5d2f7fb4bb27200019010768	4	2	main_z	7	advance_on_keypress_ZEE	54	stimuli_distractor_trianglediamonds.svg	stimuli_distractor_diamondtriangles.svg	36	no	57	0	343	0	0			0	0			1				0	
6.6.1	mac	2023-07-07	23:15:41	23:20:27	283384	5d2f7fb4bb27200019010768	4	2	main_z	7	main_z	55	stimuli_distractor_trianglediamonds.svg	stimuli_distractor_trianglediamonds.svg	34	no	0	1	2000	0	0			0	0			1				0	
6.6.1	mac	2023-07-07	23:15:41	23:20:27	283384	5d2f7fb4bb27200019010768	4	2	main_z	7	advance_on_keypress_ZEE	56	stimuli_distractor_trianglediamonds.svg	stimuli_distractor_trianglediamonds.svg	34	no	57	0	277	0	0			0	0			1				0	
6.6.1	mac	2023-07-07	23:15:41	23:20:28	285109	5d2f7fb4bb27200019010768	4	2	main_z	7	main_z	57	stimuli_distractor_trianglediamonds.svg	stimuli_target_trianglesquares.svg	26	yes	44	1	826	0	0			0	0			1				0	
6.6.1	mac	2023-07-07	23:15:41	23:20:28	285109	5d2f7fb4bb27200019010768	4	2	main_z	7	advance_on_keypress_ZEE	58	stimuli_distractor_trianglediamonds.svg	stimuli_target_trianglesquares.svg	26	yes	57	0	367	0	0			0	0			1				0	
6.6.1	mac	2023-07-07	23:15:41	23:20:31	287702	5d2f7fb4bb27200019010768	4	2	main_z	7	main_z	59	stimuli_distractor_trianglediamonds.svg	stimuli_target_trianglerectangles.svg	25	yes	44	1	1601	0	0			0	0			1				0	
6.6.1	mac	2023-07-07	23:15:41	23:20:31	287702	5d2f7fb4bb27200019010768	4	2	main_z	7	advance_on_keypress_ZEE	60	stimuli_distractor_trianglediamonds.svg	stimuli_target_trianglerectangles.svg	25	yes	57	0	527	0	0			0	0			1				0	
6.6.1	mac	2023-07-07	23:15:41	23:20:33	289667	5d2f7fb4bb27200019010768	4	2	main_z	7	main_z	61	stimuli_distractor_diamondtriangles.svg	stimuli_target_squarediamonds.svg	16	yes	44	1	817	0	0			0	0			1				0	
6.6.1	mac	2023-07-07	23:15:41	23:20:33	289667	5d2f7fb4bb27200019010768	4	2	main_z	7	advance_on_keypress_ZEE	62	stimuli_distractor_diamondtriangles.svg	stimuli_target_squarediamonds.svg	16	yes	57	0	241	0	0			0	0			1				0	
6.6.1	mac	2023-07-07	23:15:41	23:20:35	291752	5d2f7fb4bb27200019010768	4	2	main_z	7	main_z	63	stimuli_distractor_trianglediamonds.svg	stimuli_target_squarediamonds.svg	12	yes	44	1	1220	0	0			0	0			1				0	
6.6.1	mac	2023-07-07	23:15:41	23:20:35	291752	5d2f7fb4bb27200019010768	4	2	main_z	7	advance_on_keypress_ZEE	64	stimuli_distractor_trianglediamonds.svg	stimuli_target_squarediamonds.svg	12	yes	57	0	230	0	0			0	0			1				0	
6.6.1	mac	2023-07-07	23:15:41	23:20:38	294601	5d2f7fb4bb27200019010768	4	2	main_z	7	main_z	65	stimuli_distractor_trianglediamonds.svg	stimuli_distractor_diamondtriangles.svg	35	no	0	1	2000	0	0			0	0			1				0	
6.6.1	mac	2023-07-07	23:15:41	23:20:38	294601	5d2f7fb4bb27200019010768	4	2	main_z	7	advance_on_keypress_ZEE	66	stimuli_distractor_trianglediamonds.svg	stimuli_distractor_diamondtriangles.svg	35	no	57	0	335	0	0			0	0			1				0	
6.6.1	mac	2023-07-07	23:15:41	23:20:41	297567	5d2f7fb4bb27200019010768	4	2	main_z	7	main_z	67	stimuli_target_diamondsquares.svg	stimuli_distractor_trianglediamonds.svg	20	yes	0	0	2000	0	0			0	0			1				0	
6.6.1	mac	2023-07-07	23:15:41	23:20:41	297567	5d2f7fb4bb27200019010768	4	2	main_z	7	advance_on_keypress_ZEE	68	stimuli_target_diamondsquares.svg	stimuli_distractor_trianglediamonds.svg	20	yes	57	0	327	0	0			0	0			1				0	
6.6.1	mac	2023-07-07	23:15:41	23:20:43	299370	5d2f7fb4bb27200019010768	4	2	main_z	7	main_z	69	stimuli_target_squaretriangles.svg	stimuli_distractor_diamondtriangles.svg	7	yes	44	1	853	0	0			0	0			1				0	
6.6.1	mac	2023-07-07	23:15:41	23:20:43	299370	5d2f7fb4bb27200019010768	4	2	main_z	7	advance_on_keypress_ZEE	70	stimuli_target_squaretriangles.svg	stimuli_distractor_diamondtriangles.svg	7	yes	57	0	388	0	0			0	0			1				0	
6.6.1	mac	2023-07-07	23:15:41	23:20:45	301293	5d2f7fb4bb27200019010768	4	2	main_z	7	main_z	71	stimuli_distractor_trianglediamonds.svg	stimuli_target_rectangletriangles.svg	9	yes	44	1	910	0	0			0	0			1				0	
6.6.1	mac	2023-07-07	23:15:41	23:20:45	301293	5d2f7fb4bb27200019010768	4	2	main_z	7	advance_on_keypress_ZEE	72	stimuli_distractor_trianglediamonds.svg	stimuli_target_rectangletriangles.svg	9	yes	57	0	376	0	0			0	0			1				0	
6.6.1	mac	2023-07-07	23:15:41	23:20:48	304300	5d2f7fb4bb27200019010768	4	2	main_z	7	main_z	73	stimuli_target_diamondrectangles.svg	stimuli_distractor_trianglediamonds.svg	19	yes	0	0	2000	0	0			0	0			1				0	
6.6.1	mac	2023-07-07	23:15:41	23:20:48	304300	5d2f7fb4bb27200019010768	4	2	main_z	7	advance_on_keypress_ZEE	74	stimuli_target_diamondrectangles.svg	stimuli_distractor_trianglediamonds.svg	19	yes	57	0	427	0	0			0	0			1				0	
6.6.1	mac	2023-07-07	23:15:41	23:20:51	307349	5d2f7fb4bb27200019010768	4	2	main_z	7	main_z	75	stimuli_target_diamondrectangles.svg	stimuli_distractor_diamondtriangles.svg	23	yes	0	0	2000	0	0			0	0			1				0	
6.6.1	mac	2023-07-07	23:15:41	23:20:51	307349	5d2f7fb4bb27200019010768	4	2	main_z	7	advance_on_keypress_ZEE	76	stimuli_target_diamondrectangles.svg	stimuli_distractor_diamondtriangles.svg	23	yes	57	0	261	0	0			0	0			1				0	
6.6.1	mac	2023-07-07	23:15:41	23:20:54	310233	5d2f7fb4bb27200019010768	4	2	main_z	7	main_z	77	stimuli_distractor_diamondtriangles.svg	stimuli_target_trianglesquares.svg	30	yes	0	0	2000	0	0			0	0			1				0	
6.6.1	mac	2023-07-07	23:15:41	23:20:54	310233	5d2f7fb4bb27200019010768	4	2	main_z	7	advance_on_keypress_ZEE	78	stimuli_distractor_diamondtriangles.svg	stimuli_target_trianglesquares.svg	30	yes	57	0	119	0	0			0	0			1				0	
6.6.1	mac	2023-07-07	23:15:41	23:20:56	312983	5d2f7fb4bb27200019010768	4	2	main_z	7	main_z	79	stimuli_distractor_diamondtriangles.svg	stimuli_distractor_diamondtriangles.svg	40	no	0	1	2000	0	0			0	0			1				0	
6.6.1	mac	2023-07-07	23:15:41	23:20:56	312983	5d2f7fb4bb27200019010768	4	2	main_z	7	advance_on_keypress_ZEE	80	stimuli_distractor_diamondtriangles.svg	stimuli_distractor_diamondtriangles.svg	40	no	57	0	314	0	0			0	0			1				0	
6.6.1	mac	2023-07-07	23:15:41	23:20:59	315937	5d2f7fb4bb27200019010768	4	2	main_z	7	main_z	81	stimuli_distractor_trianglediamonds.svg	stimuli_distractor_trianglediamonds.svg	34	no	0	1	2000	0	0			0	0			1				0	
6.6.1	mac	2023-07-07	23:15:41	23:20:59	315937	5d2f7fb4bb27200019010768	4	2	main_z	7	advance_on_keypress_ZEE	82	stimuli_distractor_trianglediamonds.svg	stimuli_distractor_trianglediamonds.svg	34	no	57	0	517	0	0			0	0			1				0	
6.6.1	mac	2023-07-07	23:15:41	23:21:02	319083	5d2f7fb4bb27200019010768	4	2	main_z	7	main_z	83	stimuli_distractor_diamondtriangles.svg	stimuli_distractor_trianglediamonds.svg	37	no	0	1	2000	0	0			0	0			1				0	
6.6.1	mac	2023-07-07	23:15:41	23:21:02	319083	5d2f7fb4bb27200019010768	4	2	main_z	7	advance_on_keypress_ZEE	84	stimuli_distractor_diamondtriangles.svg	stimuli_distractor_trianglediamonds.svg	37	no	57	0	377	0	0			0	0			1				0	
6.6.1	mac	2023-07-07	23:15:41	23:21:05	321543	5d2f7fb4bb27200019010768	4	2	main_z	7	main_z	85	stimuli_distractor_diamondtriangles.svg	stimuli_target_diamondsquares.svg	32	yes	44	1	1460	0	0			0	0			1				0	
6.6.1	mac	2023-07-07	23:15:41	23:21:05	321543	5d2f7fb4bb27200019010768	4	2	main_z	7	advance_on_keypress_ZEE	86	stimuli_distractor_diamondtriangles.svg	stimuli_target_diamondsquares.svg	32	yes	57	0	300	0	0			0	0			1				0	
6.6.1	mac	2023-07-07	23:15:41	23:21:07	323396	5d2f7fb4bb27200019010768	4	2	main_z	7	main_z	87	stimuli_target_trianglesquares.svg	stimuli_distractor_diamondtriangles.svg	22	yes	44	1	929	0	0			0	0			1				0	
6.6.1	mac	2023-07-07	23:15:41	23:21:07	323396	5d2f7fb4bb27200019010768	4	2	main_z	7	advance_on_keypress_ZEE	88	stimuli_target_trianglesquares.svg	stimuli_distractor_diamondtriangles.svg	22	yes	57	0	279	0	0			0	0			1				0	
6.6.1	mac	2023-07-07	23:15:41	23:21:08	325102	5d2f7fb4bb27200019010768	4	2	main_z	7	main_z	89	stimuli_distractor_diamondtriangles.svg	stimuli_target_squarediamonds.svg	16	yes	44	1	802	0	0			0	0			1				0	
6.6.1	mac	2023-07-07	23:15:41	23:21:08	325102	5d2f7fb4bb27200019010768	4	2	main_z	7	advance_on_keypress_ZEE	90	stimuli_distractor_diamondtriangles.svg	stimuli_target_squarediamonds.svg	16	yes	57	0	270	0	0			0	0			1				0	
6.6.1	mac	2023-07-07	23:15:41	23:21:10	327053	5d2f7fb4bb27200019010768	4	2	main_z	7	main_z	91	stimuli_distractor_trianglediamonds.svg	stimuli_target_trianglerectangles.svg	25	yes	44	1	1054	0	0			0	0			1				0	
6.6.1	mac	2023-07-07	23:15:41	23:21:10	327053	5d2f7fb4bb27200019010768	4	2	main_z	7	advance_on_keypress_ZEE	92	stimuli_distractor_trianglediamonds.svg	stimuli_target_trianglerectangles.svg	25	yes	57	0	342	0	0			0	0			1				0	
6.6.1	mac	2023-07-07	23:15:41	23:21:13	330017	5d2f7fb4bb27200019010768	4	2	main_z	7	main_z	93	stimuli_distractor_diamondtriangles.svg	stimuli_distractor_trianglediamonds.svg	38	no	0	1	2000	0	0			0	0			1				0	
6.6.1	mac	2023-07-07	23:15:41	23:21:13	330017	5d2f7fb4bb27200019010768	4	2	main_z	7	advance_on_keypress_ZEE	94	stimuli_distractor_diamondtriangles.svg	stimuli_distractor_trianglediamonds.svg	38	no	57	0	866	0	0			0	0			1				0	
6.6.1	mac	2023-07-07	23:15:41	23:21:16	332142	5d2f7fb4bb27200019010768	4	2	main_z	7	main_z	95	stimuli_target_squarediamonds.svg	stimuli_distractor_trianglediamonds.svg	4	yes	44	1	626	0	0			0	0			1				0	
6.6.1	mac	2023-07-07	23:15:41	23:21:16	332142	5d2f7fb4bb27200019010768	4	2	main_z	7	advance_on_keypress_ZEE	96	stimuli_target_squarediamonds.svg	stimuli_distractor_trianglediamonds.svg	4	yes	57	0	274	0	0			0	0			1				0	
6.6.1	mac	2023-07-07	23:15:41	23:21:17	333902	5d2f7fb4bb27200019010768	4	2	main_z	7	main_z	97	stimuli_distractor_trianglediamonds.svg	stimuli_target_rectangletriangles.svg	9	yes	44	1	851	0	0			0	0			1				0	
6.6.1	mac	2023-07-07	23:15:41	23:21:17	333902	5d2f7fb4bb27200019010768	4	2	main_z	7	advance_on_keypress_ZEE	98	stimuli_distractor_trianglediamonds.svg	stimuli_target_rectangletriangles.svg	9	yes	57	0	213	0	0			0	0			1				0	
6.6.1	mac	2023-07-07	23:15:41	23:21:20	336734	5d2f7fb4bb27200019010768	4	2	main_z	7	main_z	99	stimuli_target_trianglerectangles.svg	stimuli_distractor_diamondtriangles.svg	21	yes	0	0	2000	0	0			0	0			1				0	
6.6.1	mac	2023-07-07	23:15:41	23:21:20	336734	5d2f7fb4bb27200019010768	4	2	main_z	7	advance_on_keypress_ZEE	100	stimuli_target_trianglerectangles.svg	stimuli_distractor_diamondtriangles.svg	21	yes	57	0	307	0	0			0	0			1				0	
6.6.1	mac	2023-07-07	23:15:41	23:21:22	338474	5d2f7fb4bb27200019010768	4	2	main_z	7	main_z	101	stimuli_distractor_trianglediamonds.svg	stimuli_target_diamondsquares.svg	28	yes	44	1	807	0	0			0	0			1				0	
6.6.1	mac	2023-07-07	23:15:41	23:21:22	338474	5d2f7fb4bb27200019010768	4	2	main_z	7	advance_on_keypress_ZEE	102	stimuli_distractor_trianglediamonds.svg	stimuli_target_diamondsquares.svg	28	yes	57	0	292	0	0			0	0			1				0	
6.6.1	mac	2023-07-07	23:15:41	23:21:24	340330	5d2f7fb4bb27200019010768	4	2	main_z	7	main_z	103	stimuli_distractor_diamondtriangles.svg	stimuli_target_rectanglediamonds.svg	14	yes	44	1	931	0	0			0	0			1				0	
6.6.1	mac	2023-07-07	23:15:41	23:21:24	340330	5d2f7fb4bb27200019010768	4	2	main_z	7	advance_on_keypress_ZEE	104	stimuli_distractor_diamondtriangles.svg	stimuli_target_rectanglediamonds.svg	14	yes	57	0	336	0	0			0	0			1				0	
6.6.1	mac	2023-07-07	23:15:41	23:21:27	343299	5d2f7fb4bb27200019010768	4	2	main_z	7	main_z	105	stimuli_distractor_diamondtriangles.svg	stimuli_distractor_diamondtriangles.svg	40	no	0	1	2000	0	0			0	0			1				0	
6.6.1	mac	2023-07-07	23:15:41	23:21:27	343299	5d2f7fb4bb27200019010768	4	2	main_z	7	advance_on_keypress_ZEE	106	stimuli_distractor_diamondtriangles.svg	stimuli_distractor_diamondtriangles.svg	40	no	57	0	289	0	0			0	0			1				0	
6.6.1	mac	2023-07-07	23:15:41	23:21:29	345125	5d2f7fb4bb27200019010768	4	2	main_z	7	main_z	107	stimuli_target_rectanglediamonds.svg	stimuli_distractor_trianglediamonds.svg	2	yes	44	1	908	0	0			0	0			1				0	
6.6.1	mac	2023-07-07	23:15:41	23:21:29	345125	5d2f7fb4bb27200019010768	4	2	main_z	7	advance_on_keypress_ZEE	108	stimuli_target_rectanglediamonds.svg	stimuli_distractor_trianglediamonds.svg	2	yes	57	0	252	0	0			0	0			1				0	
6.6.1	mac	2023-07-07	23:15:41	23:21:31	348016	5d2f7fb4bb27200019010768	4	2	main_z	7	main_z	109	stimuli_distractor_trianglediamonds.svg	stimuli_target_trianglesquares.svg	26	yes	0	0	2000	0	0			0	0			1				0	
6.6.1	mac	2023-07-07	23:15:41	23:21:31	348016	5d2f7fb4bb27200019010768	4	2	main_z	7	advance_on_keypress_ZEE	110	stimuli_distractor_trianglediamonds.svg	stimuli_target_trianglesquares.svg	26	yes	57	0	390	0	0			0	0			1				0	
6.6.1	mac	2023-07-07	23:15:41	23:21:33	349911	5d2f7fb4bb27200019010768	4	2	main_z	7	main_z	111	stimuli_distractor_diamondtriangles.svg	stimuli_target_trianglerectangles.svg	29	yes	44	1	877	0	0			0	0			1				0	
6.6.1	mac	2023-07-07	23:15:41	23:21:33	349911	5d2f7fb4bb27200019010768	4	2	main_z	7	advance_on_keypress_ZEE	112	stimuli_distractor_diamondtriangles.svg	stimuli_target_trianglerectangles.svg	29	yes	57	0	224	0	0			0	0			1				0	
6.6.1	mac	2023-07-07	23:15:41	23:21:35	351677	5d2f7fb4bb27200019010768	4	2	main_z	7	main_z	113	stimuli_target_diamondrectangles.svg	stimuli_distractor_diamondtriangles.svg	23	yes	44	1	911	0	0			0	0			1				0	
6.6.1	mac	2023-07-07	23:15:41	23:21:35	351677	5d2f7fb4bb27200019010768	4	2	main_z	7	advance_on_keypress_ZEE	114	stimuli_target_diamondrectangles.svg	stimuli_distractor_diamondtriangles.svg	23	yes	57	0	257	0	0			0	0			1				0	
6.6.1	mac	2023-07-07	23:15:41	23:21:38	354566	5d2f7fb4bb27200019010768	4	2	main_z	7	main_z	115	stimuli_target_squaretriangles.svg	stimuli_distractor_diamondtriangles.svg	7	yes	0	0	2000	0	0			0	0			1				0	
6.6.1	mac	2023-07-07	23:15:41	23:21:38	354566	5d2f7fb4bb27200019010768	4	2	main_z	7	advance_on_keypress_ZEE	116	stimuli_target_squaretriangles.svg	stimuli_distractor_diamondtriangles.svg	7	yes	57	0	734	0	0			0	0			1				0	
6.6.1	mac	2023-07-07	23:15:41	23:21:41	357933	5d2f7fb4bb27200019010768	4	2	main_z	7	main_z	117	stimuli_distractor_diamondtriangles.svg	stimuli_distractor_diamondtriangles.svg	39	no	0	1	2000	0	0			0	0			1				0	
6.6.1	mac	2023-07-07	23:15:41	23:21:41	357933	5d2f7fb4bb27200019010768	4	2	main_z	7	advance_on_keypress_ZEE	118	stimuli_distractor_diamondtriangles.svg	stimuli_distractor_diamondtriangles.svg	39	no	57	0	281	0	0			0	0			1				0	
6.6.1	mac	2023-07-07	23:15:41	23:21:43	359989	5d2f7fb4bb27200019010768	4	2	main_z	7	main_z	119	stimuli_distractor_diamondtriangles.svg	stimuli_target_diamondrectangles.svg	31	yes	44	1	1139	0	0			0	0			1				0	
6.6.1	mac	2023-07-07	23:15:41	23:21:43	359989	5d2f7fb4bb27200019010768	4	2	main_z	7	advance_on_keypress_ZEE	120	stimuli_distractor_diamondtriangles.svg	stimuli_target_diamondrectangles.svg	31	yes	57	0	909	0	0			0	0			1				0	
6.6.1	mac	2023-07-07	23:15:41	23:21:46	362845	5d2f7fb4bb27200019010768	4	2	main_z	7	main_z	121	stimuli_distractor_diamondtriangles.svg	stimuli_target_trianglesquares.svg	30	yes	44	1	1312	0	0			0	0			1				0	
6.6.1	mac	2023-07-07	23:15:41	23:21:46	362845	5d2f7fb4bb27200019010768	4	2	main_z	7	advance_on_keypress_ZEE	122	stimuli_distractor_diamondtriangles.svg	stimuli_target_trianglesquares.svg	30	yes	57	0	785	0	0			0	0			1				0	
6.6.1	mac	2023-07-07	23:15:41	23:21:50	366266	5d2f7fb4bb27200019010768	4	2	main_z	7	main_z	123	stimuli_target_trianglesquares.svg	stimuli_distractor_trianglediamonds.svg	18	yes	0	0	2000	0	0			0	0			1				0	
6.6.1	mac	2023-07-07	23:15:41	23:21:50	366266	5d2f7fb4bb27200019010768	4	2	main_z	7	advance_on_keypress_ZEE	124	stimuli_target_trianglesquares.svg	stimuli_distractor_trianglediamonds.svg	18	yes	57	0	986	0	0			0	0			1				0	
6.6.1	mac	2023-07-07	23:15:41	23:21:52	369002	5d2f7fb4bb27200019010768	4	2	main_z	7	main_z	125	stimuli_distractor_trianglediamonds.svg	stimuli_target_rectanglediamonds.svg	10	yes	44	1	1119	0	0			0	0			1				0	
6.6.1	mac	2023-07-07	23:15:41	23:21:52	369002	5d2f7fb4bb27200019010768	4	2	main_z	7	advance_on_keypress_ZEE	126	stimuli_distractor_trianglediamonds.svg	stimuli_target_rectanglediamonds.svg	10	yes	57	0	468	0	0			0	0			1				0	
6.6.1	mac	2023-07-07	23:15:41	23:21:54	371108	5d2f7fb4bb27200019010768	4	2	main_z	7	main_z	127	stimuli_target_diamondsquares.svg	stimuli_distractor_diamondtriangles.svg	24	yes	44	1	1009	0	0			0	0			1				0	
6.6.1	mac	2023-07-07	23:15:41	23:21:54	371108	5d2f7fb4bb27200019010768	4	2	main_z	7	advance_on_keypress_ZEE	128	stimuli_target_diamondsquares.svg	stimuli_distractor_diamondtriangles.svg	24	yes	57	0	248	0	0			0	0			1				0	
6.6.1	mac	2023-07-07	23:15:41	23:21:57	373983	5d2f7fb4bb27200019010768	4	2	main_z	7	main_z	129	stimuli_distractor_trianglediamonds.svg	stimuli_distractor_diamondtriangles.svg	35	no	0	1	2000	0	0			0	0			1				0	
6.6.1	mac	2023-07-07	23:15:41	23:21:57	373983	5d2f7fb4bb27200019010768	4	2	main_z	7	advance_on_keypress_ZEE	130	stimuli_distractor_trianglediamonds.svg	stimuli_distractor_diamondtriangles.svg	35	no	57	0	270	0	0			0	0			1				0	
6.6.1	mac	2023-07-07	23:15:41	23:21:59	375854	5d2f7fb4bb27200019010768	4	2	main_z	7	main_z	131	stimuli_target_rectangletriangles.svg	stimuli_distractor_trianglediamonds.svg	1	yes	44	1	971	0	0			0	0			1				0	
6.6.1	mac	2023-07-07	23:15:41	23:21:59	375854	5d2f7fb4bb27200019010768	4	2	main_z	7	advance_on_keypress_ZEE	132	stimuli_target_rectangletriangles.svg	stimuli_distractor_trianglediamonds.svg	1	yes	57	0	921	0	0			0	0			1				0	
6.6.1	mac	2023-07-07	23:15:41	23:22:03	379335	5d2f7fb4bb27200019010768	4	2	main_z	7	main_z	133	stimuli_distractor_trianglediamonds.svg	stimuli_target_squarediamonds.svg	12	yes	44	1	1935	0	0			0	0			1				0	
6.6.1	mac	2023-07-07	23:15:41	23:22:03	379335	5d2f7fb4bb27200019010768	4	2	main_z	7	advance_on_keypress_ZEE	134	stimuli_distractor_trianglediamonds.svg	stimuli_target_squarediamonds.svg	12	yes	57	0	344	0	0			0	0			1				0	
6.6.1	mac	2023-07-07	23:15:41	23:22:06	382299	5d2f7fb4bb27200019010768	4	2	main_z	7	main_z	135	stimuli_target_diamondsquares.svg	stimuli_distractor_trianglediamonds.svg	20	yes	0	0	2000	0	0			0	0			1				0	
6.6.1	mac	2023-07-07	23:15:41	23:22:06	382299	5d2f7fb4bb27200019010768	4	2	main_z	7	advance_on_keypress_ZEE	136	stimuli_target_diamondsquares.svg	stimuli_distractor_trianglediamonds.svg	20	yes	57	0	563	0	0			0	0			1				0	
6.6.1	mac	2023-07-07	23:15:41	23:22:09	385501	5d2f7fb4bb27200019010768	4	2	main_z	7	main_z	137	stimuli_distractor_trianglediamonds.svg	stimuli_distractor_trianglediamonds.svg	33	no	0	1	2000	0	0			0	0			1				0	
6.6.1	mac	2023-07-07	23:15:41	23:22:09	385501	5d2f7fb4bb27200019010768	4	2	main_z	7	advance_on_keypress_ZEE	138	stimuli_distractor_trianglediamonds.svg	stimuli_distractor_trianglediamonds.svg	33	no	57	0	333	0	0			0	0			1				0	
6.6.1	mac	2023-07-07	23:15:41	23:22:11	387416	5d2f7fb4bb27200019010768	4	2	main_z	7	main_z	139	stimuli_target_squarediamonds.svg	stimuli_distractor_diamondtriangles.svg	8	yes	44	1	950	0	0			0	0			1				0	
6.6.1	mac	2023-07-07	23:15:41	23:22:11	387416	5d2f7fb4bb27200019010768	4	2	main_z	7	advance_on_keypress_ZEE	140	stimuli_target_squarediamonds.svg	stimuli_distractor_diamondtriangles.svg	8	yes	57	0	431	0	0			0	0			1				0	
6.6.1	mac	2023-07-07	23:15:41	23:22:13	389371	5d2f7fb4bb27200019010768	4	2	main_z	7	main_z	141	stimuli_target_squaretriangles.svg	stimuli_distractor_trianglediamonds.svg	3	yes	44	1	887	0	0			0	0			1				0	
6.6.1	mac	2023-07-07	23:15:41	23:22:13	389371	5d2f7fb4bb27200019010768	4	2	main_z	7	advance_on_keypress_ZEE	142	stimuli_target_squaretriangles.svg	stimuli_distractor_trianglediamonds.svg	3	yes	57	0	323	0	0			0	0			1				0	
6.6.1	mac	2023-07-07	23:15:41	23:22:15	391203	5d2f7fb4bb27200019010768	4	2	main_z	7	main_z	143	stimuli_target_rectanglediamonds.svg	stimuli_distractor_diamondtriangles.svg	6	yes	44	1	886	0	0			0	0			1				0	
6.6.1	mac	2023-07-07	23:15:41	23:22:15	391203	5d2f7fb4bb27200019010768	4	2	main_z	7	advance_on_keypress_ZEE	144	stimuli_target_rectanglediamonds.svg	stimuli_distractor_diamondtriangles.svg	6	yes	57	0	319	0	0			0	0			1				0	
6.6.1	mac	2023-07-07	23:15:41	23:22:18	394149	5d2f7fb4bb27200019010768	4	2	main_z	7	main_z	145	stimuli_distractor_trianglediamonds.svg	stimuli_target_diamondrectangles.svg	27	yes	0	0	2000	0	0			0	0			1				0	
6.6.1	mac	2023-07-07	23:15:41	23:22:18	394149	5d2f7fb4bb27200019010768	4	2	main_z	7	advance_on_keypress_ZEE	146	stimuli_distractor_trianglediamonds.svg	stimuli_target_diamondrectangles.svg	27	yes	57	0	320	0	0			0	0			1				0	
6.6.1	mac	2023-07-07	23:15:41	23:22:19	395936	5d2f7fb4bb27200019010768	4	2	main_z	7	main_z	147	stimuli_distractor_trianglediamonds.svg	stimuli_target_squaretriangles.svg	11	yes	44	1	836	0	0			0	0			1				0	
6.6.1	mac	2023-07-07	23:15:41	23:22:19	395936	5d2f7fb4bb27200019010768	4	2	main_z	7	advance_on_keypress_ZEE	148	stimuli_distractor_trianglediamonds.svg	stimuli_target_squaretriangles.svg	11	yes	57	0	325	0	0			0	0			1				0	
6.6.1	mac	2023-07-07	23:15:41	23:22:22	398883	5d2f7fb4bb27200019010768	4	2	main_z	7	main_z	149	stimuli_target_diamondrectangles.svg	stimuli_distractor_trianglediamonds.svg	19	yes	0	0	2000	0	0			0	0			1				0	
6.6.1	mac	2023-07-07	23:15:41	23:22:22	398883	5d2f7fb4bb27200019010768	4	2	main_z	7	advance_on_keypress_ZEE	150	stimuli_target_diamondrectangles.svg	stimuli_distractor_trianglediamonds.svg	19	yes	57	0	351	0	0			0	0			1				0	
6.6.1	mac	2023-07-07	23:15:41	23:22:25	401867	5d2f7fb4bb27200019010768	4	2	main_z	7	main_z	151	stimuli_target_trianglerectangles.svg	stimuli_distractor_trianglediamonds.svg	17	yes	0	0	2000	0	0			0	0			1				0	
6.6.1	mac	2023-07-07	23:15:41	23:22:25	401867	5d2f7fb4bb27200019010768	4	2	main_z	7	advance_on_keypress_ZEE	152	stimuli_target_trianglerectangles.svg	stimuli_distractor_trianglediamonds.svg	17	yes	57	0	508	0	0			0	0			1				0	
6.6.1	mac	2023-07-07	23:15:41	23:22:27	403829	5d2f7fb4bb27200019010768	4	2	main_z	7	main_z	153	stimuli_distractor_diamondtriangles.svg	stimuli_target_rectangletriangles.svg	13	yes	44	1	829	0	0			0	0			1				0	
6.6.1	mac	2023-07-07	23:15:41	23:22:27	403829	5d2f7fb4bb27200019010768	4	2	main_z	7	advance_on_keypress_ZEE	154	stimuli_distractor_diamondtriangles.svg	stimuli_target_rectangletriangles.svg	13	yes	57	0	284	0	0			0	0			1				0	
6.6.1	mac	2023-07-07	23:15:41	23:22:30	406749	5d2f7fb4bb27200019010768	4	2	main_z	7	main_z	155	stimuli_distractor_trianglediamonds.svg	stimuli_distractor_diamondtriangles.svg	36	no	0	1	2000	0	0			0	0			1				0	
6.6.1	mac	2023-07-07	23:15:41	23:22:30	406749	5d2f7fb4bb27200019010768	4	2	main_z	7	advance_on_keypress_ZEE	156	stimuli_distractor_trianglediamonds.svg	stimuli_distractor_diamondtriangles.svg	36	no	57	0	312	0	0			0	0			1				0	
6.6.1	mac	2023-07-07	23:15:41	23:22:32	408535	5d2f7fb4bb27200019010768	4	2	main_z	7	main_z	157	stimuli_target_rectangletriangles.svg	stimuli_distractor_diamondtriangles.svg	5	yes	44	1	852	0	0			0	0			1				0	
6.6.1	mac	2023-07-07	23:15:41	23:22:32	408535	5d2f7fb4bb27200019010768	4	2	main_z	7	advance_on_keypress_ZEE	158	stimuli_target_rectangletriangles.svg	stimuli_distractor_diamondtriangles.svg	5	yes	57	0	279	0	0			0	0			1				0	
6.6.1	mac	2023-07-07	23:15:41	23:22:34	410303	5d2f7fb4bb27200019010768	4	2	main_z	7	main_z	159	stimuli_distractor_diamondtriangles.svg	stimuli_target_squaretriangles.svg	15	yes	44	1	871	0	0			0	0			1				0	
6.6.1	mac	2023-07-07	23:15:41	23:22:34	410303	5d2f7fb4bb27200019010768	4	2	main_z	7	advance_on_keypress_ZEE	160	stimuli_distractor_diamondtriangles.svg	stimuli_target_squaretriangles.svg	15	yes	57	0	251	0	0			0	0			1				0	
6.6.1	mac	2023-07-07	23:15:41	23:22:55	431325	5d2f7fb4bb27200019010768	4	2	practice_slash	9	practice_slash	1	stimuli_target_diamondsquares.svg	stimuli_distractor_trianglediamonds.svg	6	yes	53	1	892	0	0			0	0			1				0	
6.6.1	mac	2023-07-07	23:15:41	23:22:55	431325	5d2f7fb4bb27200019010768	4	2	practice_slash	9	advance_on_keypress_SLASH	2	stimuli_target_diamondsquares.svg	stimuli_distractor_trianglediamonds.svg	6	yes	57	0	527	0	0			0	0			1				0	
6.6.1	mac	2023-07-07	23:15:41	23:22:58	434308	5d2f7fb4bb27200019010768	4	2	practice_slash	9	practice_slash	3	stimuli_target_squarediamonds.svg	stimuli_distractor_trianglediamonds.svg	5	yes	53	1	824	0	0			0	0			1				0	
6.6.1	mac	2023-07-07	23:15:41	23:22:58	434308	5d2f7fb4bb27200019010768	4	2	practice_slash	9	advance_on_keypress_SLASH	4	stimuli_target_squarediamonds.svg	stimuli_distractor_trianglediamonds.svg	5	yes	57	0	402	0	0			0	0			1				0	
6.6.1	mac	2023-07-07	23:15:41	23:23:01	437197	5d2f7fb4bb27200019010768	4	2	practice_slash	9	practice_slash	5	stimuli_distractor_trianglediamonds.svg	stimuli_target_rectanglediamonds.svg	10	yes	53	1	846	0	0			0	0			1				0	
6.6.1	mac	2023-07-07	23:15:41	23:23:01	437197	5d2f7fb4bb27200019010768	4	2	practice_slash	9	advance_on_keypress_SLASH	6	stimuli_distractor_trianglediamonds.svg	stimuli_target_rectanglediamonds.svg	10	yes	57	0	250	0	0			0	0			1				0	
6.6.1	mac	2023-07-07	23:15:41	23:23:04	440336	5d2f7fb4bb27200019010768	4	2	practice_slash	9	practice_slash	7	stimuli_distractor_trianglediamonds.svg	stimuli_target_diamondrectangles.svg	12	yes	53	1	1252	0	0			0	0			1				0	
6.6.1	mac	2023-07-07	23:15:41	23:23:04	440336	5d2f7fb4bb27200019010768	4	2	practice_slash	9	advance_on_keypress_SLASH	8	stimuli_distractor_trianglediamonds.svg	stimuli_target_diamondrectangles.svg	12	yes	57	0	228	0	0			0	0			1				0	
6.6.1	mac	2023-07-07	23:15:41	23:23:06	443100	5d2f7fb4bb27200019010768	4	2	practice_slash	9	practice_slash	9	stimuli_distractor_trianglediamonds.svg	stimuli_distractor_diamondtriangles.svg	16	no	53	0	916	0	0			0	0			1				0	
6.6.1	mac	2023-07-07	23:15:41	23:23:06	443100	5d2f7fb4bb27200019010768	4	2	practice_slash	9	advance_on_keypress_SLASH	10	stimuli_distractor_trianglediamonds.svg	stimuli_distractor_diamondtriangles.svg	16	no	57	0	317	0	0			0	0			1				0	
6.6.1	mac	2023-07-07	23:15:41	23:23:10	447052	5d2f7fb4bb27200019010768	4	2	practice_slash	9	practice_slash	11	stimuli_distractor_diamondtriangles.svg	stimuli_distractor_diamondtriangles.svg	13	no	0	1	2000	0	0			0	0			1				0	
6.6.1	mac	2023-07-07	23:15:41	23:23:10	447052	5d2f7fb4bb27200019010768	4	2	practice_slash	9	advance_on_keypress_SLASH	12	stimuli_distractor_diamondtriangles.svg	stimuli_distractor_diamondtriangles.svg	13	no	57	0	334	0	0			0	0			1				0	
6.6.1	mac	2023-07-07	23:15:41	23:23:13	449867	5d2f7fb4bb27200019010768	4	2	practice_slash	9	practice_slash	13	stimuli_target_rectanglediamonds.svg	stimuli_distractor_trianglediamonds.svg	4	yes	53	1	849	0	0			0	0			1				0	
6.6.1	mac	2023-07-07	23:15:41	23:23:13	449867	5d2f7fb4bb27200019010768	4	2	practice_slash	9	advance_on_keypress_SLASH	14	stimuli_target_rectanglediamonds.svg	stimuli_distractor_trianglediamonds.svg	4	yes	57	0	408	0	0			0	0			1				0	
6.6.1	mac	2023-07-07	23:15:41	23:23:16	452761	5d2f7fb4bb27200019010768	4	2	practice_slash	9	practice_slash	15	stimuli_target_squarediamonds.svg	stimuli_distractor_diamondtriangles.svg	2	yes	53	1	860	0	0			0	0			1				0	
6.6.1	mac	2023-07-07	23:15:41	23:23:16	452761	5d2f7fb4bb27200019010768	4	2	practice_slash	9	advance_on_keypress_SLASH	16	stimuli_target_squarediamonds.svg	stimuli_distractor_diamondtriangles.svg	2	yes	57	0	213	0	0			0	0			1				0	
6.6.1	mac	2023-07-07	23:15:41	23:23:20	456601	5d2f7fb4bb27200019010768	4	2	practice_slash	9	practice_slash	17	stimuli_distractor_diamondtriangles.svg	stimuli_distractor_trianglediamonds.svg	14	no	0	1	2000	0	0			0	0			1				0	
6.6.1	mac	2023-07-07	23:15:41	23:23:20	456601	5d2f7fb4bb27200019010768	4	2	practice_slash	9	advance_on_keypress_SLASH	18	stimuli_distractor_diamondtriangles.svg	stimuli_distractor_trianglediamonds.svg	14	no	57	0	330	0	0			0	0			1				0	
6.6.1	mac	2023-07-07	23:15:41	23:23:23	459819	5d2f7fb4bb27200019010768	4	2	practice_slash	9	practice_slash	19	stimuli_distractor_diamondtriangles.svg	stimuli_target_diamondrectangles.svg	8	yes	53	1	1252	0	0			0	0			1				0	
6.6.1	mac	2023-07-07	23:15:41	23:23:23	459819	5d2f7fb4bb27200019010768	4	2	practice_slash	9	advance_on_keypress_SLASH	20	stimuli_distractor_diamondtriangles.svg	stimuli_target_diamondrectangles.svg	8	yes	57	0	362	0	0			0	0			1				0	
6.6.1	mac	2023-07-07	23:15:41	23:23:26	462675	5d2f7fb4bb27200019010768	4	2	practice_slash	9	practice_slash	21	stimuli_distractor_diamondtriangles.svg	stimuli_target_rectangletriangles.svg	7	yes	53	1	858	0	0			0	0			1				0	
6.6.1	mac	2023-07-07	23:15:41	23:23:26	462675	5d2f7fb4bb27200019010768	4	2	practice_slash	9	advance_on_keypress_SLASH	22	stimuli_distractor_diamondtriangles.svg	stimuli_target_rectangletriangles.svg	7	yes	57	0	339	0	0			0	0			1				0	
6.6.1	mac	2023-07-07	23:15:41	23:23:29	465486	5d2f7fb4bb27200019010768	4	2	practice_slash	9	practice_slash	23	stimuli_target_rectanglediamonds.svg	stimuli_distractor_diamondtriangles.svg	1	yes	53	1	835	0	0			0	0			1				0	
6.6.1	mac	2023-07-07	23:15:41	23:23:29	465486	5d2f7fb4bb27200019010768	4	2	practice_slash	9	advance_on_keypress_SLASH	24	stimuli_target_rectanglediamonds.svg	stimuli_distractor_diamondtriangles.svg	1	yes	57	0	263	0	0			0	0			1				0	
6.6.1	mac	2023-07-07	23:15:41	23:23:33	469383	5d2f7fb4bb27200019010768	4	2	practice_slash	9	practice_slash	25	stimuli_distractor_diamondtriangles.svg	stimuli_target_trianglerectangles.svg	9	yes	0	0	2000	0	0			0	0			1				0	
6.6.1	mac	2023-07-07	23:15:41	23:23:33	469383	5d2f7fb4bb27200019010768	4	2	practice_slash	9	advance_on_keypress_SLASH	26	stimuli_distractor_diamondtriangles.svg	stimuli_target_trianglerectangles.svg	9	yes	57	0	318	0	0			0	0			1				0	
6.6.1	mac	2023-07-07	23:15:41	23:23:36	472142	5d2f7fb4bb27200019010768	4	2	practice_slash	9	practice_slash	27	stimuli_distractor_trianglediamonds.svg	stimuli_target_squarediamonds.svg	11	yes	53	1	808	0	0			0	0			1				0	
6.6.1	mac	2023-07-07	23:15:41	23:23:36	472142	5d2f7fb4bb27200019010768	4	2	practice_slash	9	advance_on_keypress_SLASH	28	stimuli_distractor_trianglediamonds.svg	stimuli_target_squarediamonds.svg	11	yes	57	0	391	0	0			0	0			1				0	
6.6.1	mac	2023-07-07	23:15:41	23:23:40	476185	5d2f7fb4bb27200019010768	4	2	practice_slash	9	practice_slash	29	stimuli_distractor_trianglediamonds.svg	stimuli_distractor_trianglediamonds.svg	15	no	0	1	2000	0	0			0	0			1				0	
6.6.1	mac	2023-07-07	23:15:41	23:23:40	476185	5d2f7fb4bb27200019010768	4	2	practice_slash	9	advance_on_keypress_SLASH	30	stimuli_distractor_trianglediamonds.svg	stimuli_distractor_trianglediamonds.svg	15	no	57	0	359	0	0			0	0			1				0	
6.6.1	mac	2023-07-07	23:15:41	23:23:42	479061	5d2f7fb4bb27200019010768	4	2	practice_slash	9	practice_slash	31	stimuli_target_diamondsquares.svg	stimuli_distractor_diamondtriangles.svg	3	yes	53	1	894	0	0			0	0			1				0	
6.6.1	mac	2023-07-07	23:15:41	23:23:42	479061	5d2f7fb4bb27200019010768	4	2	practice_slash	9	advance_on_keypress_SLASH	32	stimuli_target_diamondsquares.svg	stimuli_distractor_diamondtriangles.svg	3	yes	57	0	434	0	0			0	0			1				0	
6.6.1	mac	2023-07-07	23:15:41	23:23:46	482941	5d2f7fb4bb27200019010768	4	2	main_slash	11	main_slash	1	stimuli_distractor_trianglediamonds.svg	stimuli_distractor_trianglediamonds.svg	34	no	53	0	891	0	0			0	0			1				0	
6.6.1	mac	2023-07-07	23:15:41	23:23:46	482941	5d2f7fb4bb27200019010768	4	2	main_slash	11	advance_on_keypress_SLASH	2	stimuli_distractor_trianglediamonds.svg	stimuli_distractor_trianglediamonds.svg	34	no	57	0	572	0	0			0	0			1				0	
6.6.1	mac	2023-07-07	23:15:41	23:23:48	484972	5d2f7fb4bb27200019010768	4	2	main_slash	11	main_slash	3	stimuli_target_rectanglediamonds.svg	stimuli_distractor_trianglediamonds.svg	2	yes	53	1	822	0	0			0	0			1				0	
6.6.1	mac	2023-07-07	23:15:41	23:23:48	484972	5d2f7fb4bb27200019010768	4	2	main_slash	11	advance_on_keypress_SLASH	4	stimuli_target_rectanglediamonds.svg	stimuli_distractor_trianglediamonds.svg	2	yes	57	0	465	0	0			0	0			1				0	
6.6.1	mac	2023-07-07	23:15:41	23:23:50	486894	5d2f7fb4bb27200019010768	4	2	main_slash	11	main_slash	5	stimuli_target_diamondsquares.svg	stimuli_distractor_trianglediamonds.svg	20	yes	53	1	828	0	0			0	0			1				0	
6.6.1	mac	2023-07-07	23:15:41	23:23:50	486894	5d2f7fb4bb27200019010768	4	2	main_slash	11	advance_on_keypress_SLASH	6	stimuli_target_diamondsquares.svg	stimuli_distractor_trianglediamonds.svg	20	yes	57	0	591	0	0			0	0			1				0	
6.6.1	mac	2023-07-07	23:15:41	23:23:52	488916	5d2f7fb4bb27200019010768	4	2	main_slash	11	main_slash	7	stimuli_target_squaretriangles.svg	stimuli_distractor_diamondtriangles.svg	7	yes	53	1	801	0	0			0	0			1				0	
6.6.1	mac	2023-07-07	23:15:41	23:23:52	488916	5d2f7fb4bb27200019010768	4	2	main_slash	11	advance_on_keypress_SLASH	8	stimuli_target_squaretriangles.svg	stimuli_distractor_diamondtriangles.svg	7	yes	57	0	330	0	0			0	0			1				0	
6.6.1	mac	2023-07-07	23:15:41	23:23:54	490680	5d2f7fb4bb27200019010768	4	2	main_slash	11	main_slash	9	stimuli_distractor_diamondtriangles.svg	stimuli_target_rectanglediamonds.svg	14	yes	53	1	797	0	0			0	0			1				0	
6.6.1	mac	2023-07-07	23:15:41	23:23:54	490680	5d2f7fb4bb27200019010768	4	2	main_slash	11	advance_on_keypress_SLASH	10	stimuli_distractor_diamondtriangles.svg	stimuli_target_rectanglediamonds.svg	14	yes	57	0	264	0	0			0	0			1				0	
6.6.1	mac	2023-07-07	23:15:41	23:23:56	492470	5d2f7fb4bb27200019010768	4	2	main_slash	11	main_slash	11	stimuli_target_trianglesquares.svg	stimuli_distractor_diamondtriangles.svg	22	yes	53	1	887	0	0			0	0			1				0	
6.6.1	mac	2023-07-07	23:15:41	23:23:56	492470	5d2f7fb4bb27200019010768	4	2	main_slash	11	advance_on_keypress_SLASH	12	stimuli_target_trianglesquares.svg	stimuli_distractor_diamondtriangles.svg	22	yes	57	0	330	0	0			0	0			1				0	
6.6.1	mac	2023-07-07	23:15:41	23:23:59	495420	5d2f7fb4bb27200019010768	4	2	main_slash	11	main_slash	13	stimuli_distractor_trianglediamonds.svg	stimuli_distractor_diamondtriangles.svg	36	no	0	1	2000	0	0			0	0			1				0	
6.6.1	mac	2023-07-07	23:15:41	23:23:59	495420	5d2f7fb4bb27200019010768	4	2	main_slash	11	advance_on_keypress_SLASH	14	stimuli_distractor_trianglediamonds.svg	stimuli_distractor_diamondtriangles.svg	36	no	57	0	361	0	0			0	0			1				0	
6.6.1	mac	2023-07-07	23:15:41	23:24:02	498401	5d2f7fb4bb27200019010768	4	2	main_slash	11	main_slash	15	stimuli_distractor_diamondtriangles.svg	stimuli_distractor_trianglediamonds.svg	37	no	0	1	2000	0	0			0	0			1				0	
6.6.1	mac	2023-07-07	23:15:41	23:24:02	498401	5d2f7fb4bb27200019010768	4	2	main_slash	11	advance_on_keypress_SLASH	16	stimuli_distractor_diamondtriangles.svg	stimuli_distractor_trianglediamonds.svg	37	no	57	0	328	0	0			0	0			1				0	
6.6.1	mac	2023-07-07	23:15:41	23:24:04	500168	5d2f7fb4bb27200019010768	4	2	main_slash	11	main_slash	17	stimuli_target_rectangletriangles.svg	stimuli_distractor_trianglediamonds.svg	1	yes	53	1	818	0	0			0	0			1				0	
6.6.1	mac	2023-07-07	23:15:41	23:24:04	500168	5d2f7fb4bb27200019010768	4	2	main_slash	11	advance_on_keypress_SLASH	18	stimuli_target_rectangletriangles.svg	stimuli_distractor_trianglediamonds.svg	1	yes	57	0	491	0	0			0	0			1				0	
6.6.1	mac	2023-07-07	23:15:41	23:24:05	502101	5d2f7fb4bb27200019010768	4	2	main_slash	11	main_slash	19	stimuli_distractor_diamondtriangles.svg	stimuli_target_rectangletriangles.svg	13	yes	53	1	818	0	0			0	0			1				0	
6.6.1	mac	2023-07-07	23:15:41	23:24:05	502101	5d2f7fb4bb27200019010768	4	2	main_slash	11	advance_on_keypress_SLASH	20	stimuli_distractor_diamondtriangles.svg	stimuli_target_rectangletriangles.svg	13	yes	57	0	290	0	0			0	0			1				0	
6.6.1	mac	2023-07-07	23:15:41	23:24:07	504040	5d2f7fb4bb27200019010768	4	2	main_slash	11	main_slash	21	stimuli_distractor_trianglediamonds.svg	stimuli_target_diamondrectangles.svg	27	yes	53	1	1022	0	0			0	0			1				0	
6.6.1	mac	2023-07-07	23:15:41	23:24:07	504040	5d2f7fb4bb27200019010768	4	2	main_slash	11	advance_on_keypress_SLASH	22	stimuli_distractor_trianglediamonds.svg	stimuli_target_diamondrectangles.svg	27	yes	57	0	332	0	0			0	0			1				0	
6.6.1	mac	2023-07-07	23:15:41	23:24:09	505854	5d2f7fb4bb27200019010768	4	2	main_slash	11	main_slash	23	stimuli_target_trianglesquares.svg	stimuli_distractor_trianglediamonds.svg	18	yes	53	1	855	0	0			0	0			1				0	
6.6.1	mac	2023-07-07	23:15:41	23:24:09	505854	5d2f7fb4bb27200019010768	4	2	main_slash	11	advance_on_keypress_SLASH	24	stimuli_target_trianglesquares.svg	stimuli_distractor_trianglediamonds.svg	18	yes	57	0	218	0	0			0	0			1				0	
6.6.1	mac	2023-07-07	23:15:41	23:24:12	508699	5d2f7fb4bb27200019010768	4	2	main_slash	11	main_slash	25	stimuli_distractor_trianglediamonds.svg	stimuli_target_squaretriangles.svg	11	yes	0	0	2000	0	0			0	0			1				0	
6.6.1	mac	2023-07-07	23:15:41	23:24:12	508699	5d2f7fb4bb27200019010768	4	2	main_slash	11	advance_on_keypress_SLASH	26	stimuli_distractor_trianglediamonds.svg	stimuli_target_squaretriangles.svg	11	yes	57	0	358	0	0			0	0			1				0	
6.6.1	mac	2023-07-07	23:15:41	23:24:14	510902	5d2f7fb4bb27200019010768	4	2	main_slash	11	main_slash	27	stimuli_distractor_diamondtriangles.svg	stimuli_target_trianglerectangles.svg	29	yes	53	1	1219	0	0			0	0			1				0	
6.6.1	mac	2023-07-07	23:15:41	23:24:14	510902	5d2f7fb4bb27200019010768	4	2	main_slash	11	advance_on_keypress_SLASH	28	stimuli_distractor_diamondtriangles.svg	stimuli_target_trianglerectangles.svg	29	yes	57	0	485	0	0			0	0			1				0	
6.6.1	mac	2023-07-07	23:15:41	23:24:17	513406	5d2f7fb4bb27200019010768	4	2	main_slash	11	main_slash	29	stimuli_distractor_trianglediamonds.svg	stimuli_target_diamondsquares.svg	28	yes	53	1	1390	0	0			0	0			1				0	
6.6.1	mac	2023-07-07	23:15:41	23:24:17	513406	5d2f7fb4bb27200019010768	4	2	main_slash	11	advance_on_keypress_SLASH	30	stimuli_distractor_trianglediamonds.svg	stimuli_target_diamondsquares.svg	28	yes	57	0	440	0	0			0	0			1				0	
6.6.1	mac	2023-07-07	23:15:41	23:24:19	515429	5d2f7fb4bb27200019010768	4	2	main_slash	11	main_slash	31	stimuli_target_diamondrectangles.svg	stimuli_distractor_diamondtriangles.svg	23	yes	53	1	946	0	0			0	0			1				0	
6.6.1	mac	2023-07-07	23:15:41	23:24:19	515429	5d2f7fb4bb27200019010768	4	2	main_slash	11	advance_on_keypress_SLASH	32	stimuli_target_diamondrectangles.svg	stimuli_distractor_diamondtriangles.svg	23	yes	57	0	307	0	0			0	0			1				0	
6.6.1	mac	2023-07-07	23:15:41	23:24:22	518367	5d2f7fb4bb27200019010768	4	2	main_slash	11	main_slash	33	stimuli_distractor_trianglediamonds.svg	stimuli_distractor_trianglediamonds.svg	33	no	0	1	2000	0	0			0	0			1				0	
6.6.1	mac	2023-07-07	23:15:41	23:24:22	518367	5d2f7fb4bb27200019010768	4	2	main_slash	11	advance_on_keypress_SLASH	34	stimuli_distractor_trianglediamonds.svg	stimuli_distractor_trianglediamonds.svg	33	no	57	0	327	0	0			0	0			1				0	
6.6.1	mac	2023-07-07	23:15:41	23:24:23	520053	5d2f7fb4bb27200019010768	4	2	main_slash	11	main_slash	35	stimuli_target_rectangletriangles.svg	stimuli_distractor_diamondtriangles.svg	5	yes	53	1	738	0	0			0	0			1				0	
6.6.1	mac	2023-07-07	23:15:41	23:24:23	520053	5d2f7fb4bb27200019010768	4	2	main_slash	11	advance_on_keypress_SLASH	36	stimuli_target_rectangletriangles.svg	stimuli_distractor_diamondtriangles.svg	5	yes	57	0	268	0	0			0	0			1				0	
6.6.1	mac	2023-07-07	23:15:41	23:24:25	521742	5d2f7fb4bb27200019010768	4	2	main_slash	11	main_slash	37	stimuli_target_rectanglediamonds.svg	stimuli_distractor_diamondtriangles.svg	6	yes	53	1	792	0	0			0	0			1				0	
6.6.1	mac	2023-07-07	23:15:41	23:24:25	521742	5d2f7fb4bb27200019010768	4	2	main_slash	11	advance_on_keypress_SLASH	38	stimuli_target_rectanglediamonds.svg	stimuli_distractor_diamondtriangles.svg	6	yes	57	0	266	0	0			0	0			1				0	
6.6.1	mac	2023-07-07	23:15:41	23:24:27	523474	5d2f7fb4bb27200019010768	4	2	main_slash	11	main_slash	39	stimuli_distractor_trianglediamonds.svg	stimuli_target_rectanglediamonds.svg	10	yes	53	1	841	0	0			0	0			1				0	
6.6.1	mac	2023-07-07	23:15:41	23:24:27	523474	5d2f7fb4bb27200019010768	4	2	main_slash	11	advance_on_keypress_SLASH	40	stimuli_distractor_trianglediamonds.svg	stimuli_target_rectanglediamonds.svg	10	yes	57	0	332	0	0			0	0			1				0	
6.6.1	mac	2023-07-07	23:15:41	23:24:30	526432	5d2f7fb4bb27200019010768	4	2	main_slash	11	main_slash	41	stimuli_target_diamondrectangles.svg	stimuli_distractor_trianglediamonds.svg	19	yes	0	0	2000	0	0			0	0			1				0	
6.6.1	mac	2023-07-07	23:15:41	23:24:30	526432	5d2f7fb4bb27200019010768	4	2	main_slash	11	advance_on_keypress_SLASH	42	stimuli_target_diamondrectangles.svg	stimuli_distractor_trianglediamonds.svg	19	yes	57	0	272	0	0			0	0			1				0	
6.6.1	mac	2023-07-07	23:15:41	23:24:32	528406	5d2f7fb4bb27200019010768	4	2	main_slash	11	main_slash	43	stimuli_distractor_diamondtriangles.svg	stimuli_target_diamondsquares.svg	32	yes	53	1	1073	0	0			0	0			1				0	
6.6.1	mac	2023-07-07	23:15:41	23:24:32	528406	5d2f7fb4bb27200019010768	4	2	main_slash	11	advance_on_keypress_SLASH	44	stimuli_distractor_diamondtriangles.svg	stimuli_target_diamondsquares.svg	32	yes	57	0	184	0	0			0	0			1				0	
6.6.1	mac	2023-07-07	23:15:41	23:24:35	531216	5d2f7fb4bb27200019010768	4	2	main_slash	11	main_slash	45	stimuli_distractor_diamondtriangles.svg	stimuli_distractor_trianglediamonds.svg	38	no	0	1	2000	0	0			0	0			1				0	
6.6.1	mac	2023-07-07	23:15:41	23:24:35	531216	5d2f7fb4bb27200019010768	4	2	main_slash	11	advance_on_keypress_SLASH	46	stimuli_distractor_diamondtriangles.svg	stimuli_distractor_trianglediamonds.svg	38	no	57	0	267	0	0			0	0			1				0	
6.6.1	mac	2023-07-07	23:15:41	23:24:37	534116	5d2f7fb4bb27200019010768	4	2	main_slash	11	main_slash	47	stimuli_distractor_diamondtriangles.svg	stimuli_target_diamondrectangles.svg	31	yes	0	0	2000	0	0			0	0			1				0	
6.6.1	mac	2023-07-07	23:15:41	23:24:37	534116	5d2f7fb4bb27200019010768	4	2	main_slash	11	advance_on_keypress_SLASH	48	stimuli_distractor_diamondtriangles.svg	stimuli_target_diamondrectangles.svg	31	yes	57	0	302	0	0			0	0			1				0	
6.6.1	mac	2023-07-07	23:15:41	23:24:40	536252	5d2f7fb4bb27200019010768	4	2	main_slash	11	main_slash	49	stimuli_distractor_diamondtriangles.svg	stimuli_distractor_diamondtriangles.svg	40	no	53	0	1201	0	0			0	0			1				0	
6.6.1	mac	2023-07-07	23:15:41	23:24:40	536252	5d2f7fb4bb27200019010768	4	2	main_slash	11	advance_on_keypress_SLASH	50	stimuli_distractor_diamondtriangles.svg	stimuli_distractor_diamondtriangles.svg	40	no	57	0	405	0	0			0	0			1				0	
6.6.1	mac	2023-07-07	23:15:41	23:24:41	538082	5d2f7fb4bb27200019010768	4	2	main_slash	11	main_slash	51	stimuli_target_squaretriangles.svg	stimuli_distractor_trianglediamonds.svg	3	yes	53	1	800	0	0			0	0			1				0	
6.6.1	mac	2023-07-07	23:15:41	23:24:41	538082	5d2f7fb4bb27200019010768	4	2	main_slash	11	advance_on_keypress_SLASH	52	stimuli_target_squaretriangles.svg	stimuli_distractor_trianglediamonds.svg	3	yes	57	0	277	0	0			0	0			1				0	
6.6.1	mac	2023-07-07	23:15:41	23:24:43	539834	5d2f7fb4bb27200019010768	4	2	main_slash	11	main_slash	53	stimuli_distractor_trianglediamonds.svg	stimuli_target_squarediamonds.svg	12	yes	53	1	851	0	0			0	0			1				0	
6.6.1	mac	2023-07-07	23:15:41	23:24:43	539834	5d2f7fb4bb27200019010768	4	2	main_slash	11	advance_on_keypress_SLASH	54	stimuli_distractor_trianglediamonds.svg	stimuli_target_squarediamonds.svg	12	yes	57	0	328	0	0			0	0			1				0	
6.6.1	mac	2023-07-07	23:15:41	23:24:45	541601	5d2f7fb4bb27200019010768	4	2	main_slash	11	main_slash	55	stimuli_distractor_diamondtriangles.svg	stimuli_target_squarediamonds.svg	16	yes	53	1	818	0	0			0	0			1				0	
6.6.1	mac	2023-07-07	23:15:41	23:24:45	541601	5d2f7fb4bb27200019010768	4	2	main_slash	11	advance_on_keypress_SLASH	56	stimuli_distractor_diamondtriangles.svg	stimuli_target_squarediamonds.svg	16	yes	57	0	263	0	0			0	0			1				0	
6.6.1	mac	2023-07-07	23:15:41	23:24:47	543366	5d2f7fb4bb27200019010768	4	2	main_slash	11	main_slash	57	stimuli_distractor_diamondtriangles.svg	stimuli_target_squaretriangles.svg	15	yes	53	1	866	0	0			0	0			1				0	
6.6.1	mac	2023-07-07	23:15:41	23:24:47	543366	5d2f7fb4bb27200019010768	4	2	main_slash	11	advance_on_keypress_SLASH	58	stimuli_distractor_diamondtriangles.svg	stimuli_target_squaretriangles.svg	15	yes	57	0	274	0	0			0	0			1				0	
6.6.1	mac	2023-07-07	23:15:41	23:24:50	546266	5d2f7fb4bb27200019010768	4	2	main_slash	11	main_slash	59	stimuli_target_diamondsquares.svg	stimuli_distractor_diamondtriangles.svg	24	yes	0	0	2000	0	0			0	0			1				0	
6.6.1	mac	2023-07-07	23:15:41	23:24:50	546266	5d2f7fb4bb27200019010768	4	2	main_slash	11	advance_on_keypress_SLASH	60	stimuli_target_diamondsquares.svg	stimuli_distractor_diamondtriangles.svg	24	yes	57	0	271	0	0			0	0			1				0	
6.6.1	mac	2023-07-07	23:15:41	23:24:51	547975	5d2f7fb4bb27200019010768	4	2	main_slash	11	main_slash	61	stimuli_target_trianglerectangles.svg	stimuli_distractor_diamondtriangles.svg	21	yes	53	1	809	0	0			0	0			1				0	
6.6.1	mac	2023-07-07	23:15:41	23:24:51	547975	5d2f7fb4bb27200019010768	4	2	main_slash	11	advance_on_keypress_SLASH	62	stimuli_target_trianglerectangles.svg	stimuli_distractor_diamondtriangles.svg	21	yes	57	0	289	0	0			0	0			1				0	
6.6.1	mac	2023-07-07	23:15:41	23:24:54	550899	5d2f7fb4bb27200019010768	4	2	main_slash	11	main_slash	63	stimuli_target_trianglerectangles.svg	stimuli_distractor_trianglediamonds.svg	17	yes	0	0	2000	0	0			0	0			1				0	
6.6.1	mac	2023-07-07	23:15:41	23:24:54	550899	5d2f7fb4bb27200019010768	4	2	main_slash	11	advance_on_keypress_SLASH	64	stimuli_target_trianglerectangles.svg	stimuli_distractor_trianglediamonds.svg	17	yes	57	0	343	0	0			0	0			1				0	
6.6.1	mac	2023-07-07	23:15:41	23:24:57	553866	5d2f7fb4bb27200019010768	4	2	main_slash	11	main_slash	65	stimuli_distractor_trianglediamonds.svg	stimuli_target_trianglerectangles.svg	25	yes	0	0	2000	0	0			0	0			1				0	
6.6.1	mac	2023-07-07	23:15:41	23:24:57	553866	5d2f7fb4bb27200019010768	4	2	main_slash	11	advance_on_keypress_SLASH	66	stimuli_distractor_trianglediamonds.svg	stimuli_target_trianglerectangles.svg	25	yes	57	0	345	0	0			0	0			1				0	
6.6.1	mac	2023-07-07	23:15:41	23:25:00	556832	5d2f7fb4bb27200019010768	4	2	main_slash	11	main_slash	67	stimuli_distractor_diamondtriangles.svg	stimuli_distractor_diamondtriangles.svg	39	no	0	1	2000	0	0			0	0			1				0	
6.6.1	mac	2023-07-07	23:15:41	23:25:00	556832	5d2f7fb4bb27200019010768	4	2	main_slash	11	advance_on_keypress_SLASH	68	stimuli_distractor_diamondtriangles.svg	stimuli_distractor_diamondtriangles.svg	39	no	57	0	305	0	0			0	0			1				0	
6.6.1	mac	2023-07-07	23:15:41	23:25:02	558561	5d2f7fb4bb27200019010768	4	2	main_slash	11	main_slash	69	stimuli_target_squarediamonds.svg	stimuli_distractor_trianglediamonds.svg	4	yes	53	1	796	0	0			0	0			1				0	
6.6.1	mac	2023-07-07	23:15:41	23:25:02	558561	5d2f7fb4bb27200019010768	4	2	main_slash	11	advance_on_keypress_SLASH	70	stimuli_target_squarediamonds.svg	stimuli_distractor_trianglediamonds.svg	4	yes	57	0	268	0	0			0	0			1				0	
6.6.1	mac	2023-07-07	23:15:41	23:25:04	560266	5d2f7fb4bb27200019010768	4	2	main_slash	11	main_slash	71	stimuli_distractor_trianglediamonds.svg	stimuli_distractor_diamondtriangles.svg	35	no	53	0	800	0	0			0	0			1				0	
6.6.1	mac	2023-07-07	23:15:41	23:25:04	560266	5d2f7fb4bb27200019010768	4	2	main_slash	11	advance_on_keypress_SLASH	72	stimuli_distractor_trianglediamonds.svg	stimuli_distractor_diamondtriangles.svg	35	no	57	0	370	0	0			0	0			1				0	
6.6.1	mac	2023-07-07	23:15:41	23:25:05	562090	5d2f7fb4bb27200019010768	4	2	main_slash	11	main_slash	73	stimuli_target_squarediamonds.svg	stimuli_distractor_diamondtriangles.svg	8	yes	53	1	824	0	0			0	0			1				0	
6.6.1	mac	2023-07-07	23:15:41	23:25:05	562090	5d2f7fb4bb27200019010768	4	2	main_slash	11	advance_on_keypress_SLASH	74	stimuli_target_squarediamonds.svg	stimuli_distractor_diamondtriangles.svg	8	yes	57	0	216	0	0			0	0			1				0	
6.6.1	mac	2023-07-07	23:15:41	23:25:07	563733	5d2f7fb4bb27200019010768	4	2	main_slash	11	main_slash	75	stimuli_distractor_trianglediamonds.svg	stimuli_target_rectangletriangles.svg	9	yes	53	1	801	0	0			0	0			1				0	
6.6.1	mac	2023-07-07	23:15:41	23:25:07	563733	5d2f7fb4bb27200019010768	4	2	main_slash	11	advance_on_keypress_SLASH	76	stimuli_distractor_trianglediamonds.svg	stimuli_target_rectangletriangles.svg	9	yes	57	0	241	0	0			0	0			1				0	
6.6.1	mac	2023-07-07	23:15:41	23:25:10	566599	5d2f7fb4bb27200019010768	4	2	main_slash	11	main_slash	77	stimuli_distractor_trianglediamonds.svg	stimuli_target_trianglesquares.svg	26	yes	0	0	2000	0	0			0	0			1				0	
6.6.1	mac	2023-07-07	23:15:41	23:25:10	566599	5d2f7fb4bb27200019010768	4	2	main_slash	11	advance_on_keypress_SLASH	78	stimuli_distractor_trianglediamonds.svg	stimuli_target_trianglesquares.svg	26	yes	57	0	634	0	0			0	0			1				0	
6.6.1	mac	2023-07-07	23:15:41	23:25:12	568633	5d2f7fb4bb27200019010768	4	2	main_slash	11	main_slash	79	stimuli_distractor_diamondtriangles.svg	stimuli_target_trianglesquares.svg	30	yes	53	1	767	0	0			0	0			1				0	
6.6.1	mac	2023-07-07	23:15:41	23:25:12	568633	5d2f7fb4bb27200019010768	4	2	main_slash	11	advance_on_keypress_SLASH	80	stimuli_distractor_diamondtriangles.svg	stimuli_target_trianglesquares.svg	30	yes	57	0	249	0	0			0	0			1				0	
6.6.1	mac	2023-07-07	23:15:41	23:25:14	570396	5d2f7fb4bb27200019010768	4	2	main_slash	11	main_slash	81	stimuli_distractor_trianglediamonds.svg	stimuli_target_squaretriangles.svg	11	yes	53	1	881	0	0			0	0			1				0	
6.6.1	mac	2023-07-07	23:15:41	23:25:14	570396	5d2f7fb4bb27200019010768	4	2	main_slash	11	advance_on_keypress_SLASH	82	stimuli_distractor_trianglediamonds.svg	stimuli_target_squaretriangles.svg	11	yes	57	0	226	0	0			0	0			1				0	
6.6.1	mac	2023-07-07	23:15:41	23:25:17	573249	5d2f7fb4bb27200019010768	4	2	main_slash	11	main_slash	83	stimuli_distractor_trianglediamonds.svg	stimuli_distractor_trianglediamonds.svg	33	no	0	1	2000	0	0			0	0			1				0	
6.6.1	mac	2023-07-07	23:15:41	23:25:17	573249	5d2f7fb4bb27200019010768	4	2	main_slash	11	advance_on_keypress_SLASH	84	stimuli_distractor_trianglediamonds.svg	stimuli_distractor_trianglediamonds.svg	33	no	57	0	294	0	0			0	0			1				0	
6.6.1	mac	2023-07-07	23:15:41	23:25:18	575030	5d2f7fb4bb27200019010768	4	2	main_slash	11	main_slash	85	stimuli_distractor_trianglediamonds.svg	stimuli_target_diamondsquares.svg	28	yes	53	1	864	0	0			0	0			1				0	
6.6.1	mac	2023-07-07	23:15:41	23:25:18	575030	5d2f7fb4bb27200019010768	4	2	main_slash	11	advance_on_keypress_SLASH	86	stimuli_distractor_trianglediamonds.svg	stimuli_target_diamondsquares.svg	28	yes	57	0	270	0	0			0	0			1				0	
6.6.1	mac	2023-07-07	23:15:41	23:25:20	576773	5d2f7fb4bb27200019010768	4	2	main_slash	11	main_slash	87	stimuli_distractor_diamondtriangles.svg	stimuli_target_diamondsquares.svg	32	yes	53	1	841	0	0			0	0			1				0	
6.6.1	mac	2023-07-07	23:15:41	23:25:20	576773	5d2f7fb4bb27200019010768	4	2	main_slash	11	advance_on_keypress_SLASH	88	stimuli_distractor_diamondtriangles.svg	stimuli_target_diamondsquares.svg	32	yes	57	0	235	0	0			0	0			1				0	
6.6.1	mac	2023-07-07	23:15:41	23:25:22	578440	5d2f7fb4bb27200019010768	4	2	main_slash	11	main_slash	89	stimuli_target_rectanglediamonds.svg	stimuli_distractor_diamondtriangles.svg	6	yes	53	1	808	0	0			0	0			1				0	
6.6.1	mac	2023-07-07	23:15:41	23:25:22	578440	5d2f7fb4bb27200019010768	4	2	main_slash	11	advance_on_keypress_SLASH	90	stimuli_target_rectanglediamonds.svg	stimuli_distractor_diamondtriangles.svg	6	yes	57	0	208	0	0			0	0			1				0	
6.6.1	mac	2023-07-07	23:15:41	23:25:23	580102	5d2f7fb4bb27200019010768	4	2	main_slash	11	main_slash	91	stimuli_target_squarediamonds.svg	stimuli_distractor_trianglediamonds.svg	4	yes	53	1	820	0	0			0	0			1				0	
6.6.1	mac	2023-07-07	23:15:41	23:25:23	580102	5d2f7fb4bb27200019010768	4	2	main_slash	11	advance_on_keypress_SLASH	92	stimuli_target_squarediamonds.svg	stimuli_distractor_trianglediamonds.svg	4	yes	57	0	222	0	0			0	0			1				0	
6.6.1	mac	2023-07-07	23:15:41	23:25:26	582950	5d2f7fb4bb27200019010768	4	2	main_slash	11	main_slash	93	stimuli_distractor_diamondtriangles.svg	stimuli_distractor_diamondtriangles.svg	39	no	0	1	2000	0	0			0	0			1				0	
6.6.1	mac	2023-07-07	23:15:41	23:25:26	582950	5d2f7fb4bb27200019010768	4	2	main_slash	11	advance_on_keypress_SLASH	94	stimuli_distractor_diamondtriangles.svg	stimuli_distractor_diamondtriangles.svg	39	no	57	0	376	0	0			0	0			1				0	
6.6.1	mac	2023-07-07	23:15:41	23:25:29	585950	5d2f7fb4bb27200019010768	4	2	main_slash	11	main_slash	95	stimuli_distractor_diamondtriangles.svg	stimuli_distractor_trianglediamonds.svg	37	no	0	1	2000	0	0			0	0			1				0	
6.6.1	mac	2023-07-07	23:15:41	23:25:29	585950	5d2f7fb4bb27200019010768	4	2	main_slash	11	advance_on_keypress_SLASH	96	stimuli_distractor_diamondtriangles.svg	stimuli_distractor_trianglediamonds.svg	37	no	57	0	437	0	0			0	0			1				0	
6.6.1	mac	2023-07-07	23:15:41	23:25:31	587870	5d2f7fb4bb27200019010768	4	2	main_slash	11	main_slash	97	stimuli_distractor_trianglediamonds.svg	stimuli_target_trianglesquares.svg	26	yes	53	1	855	0	0			0	0			1				0	
6.6.1	mac	2023-07-07	23:15:41	23:25:31	587870	5d2f7fb4bb27200019010768	4	2	main_slash	11	advance_on_keypress_SLASH	98	stimuli_distractor_trianglediamonds.svg	stimuli_target_trianglesquares.svg	26	yes	57	0	362	0	0			0	0			1				0	
6.6.1	mac	2023-07-07	23:15:41	23:25:33	589525	5d2f7fb4bb27200019010768	4	2	main_slash	11	main_slash	99	stimuli_target_rectangletriangles.svg	stimuli_distractor_trianglediamonds.svg	1	yes	53	1	677	0	0			0	0			1				0	
6.6.1	mac	2023-07-07	23:15:41	23:25:33	589525	5d2f7fb4bb27200019010768	4	2	main_slash	11	advance_on_keypress_SLASH	100	stimuli_target_rectangletriangles.svg	stimuli_distractor_trianglediamonds.svg	1	yes	57	0	270	0	0			0	0			1				0	
6.6.1	mac	2023-07-07	23:15:41	23:25:35	591226	5d2f7fb4bb27200019010768	4	2	main_slash	11	main_slash	101	stimuli_distractor_diamondtriangles.svg	stimuli_target_rectangletriangles.svg	13	yes	53	1	795	0	0			0	0			1				0	
6.6.1	mac	2023-07-07	23:15:41	23:25:35	591226	5d2f7fb4bb27200019010768	4	2	main_slash	11	advance_on_keypress_SLASH	102	stimuli_distractor_diamondtriangles.svg	stimuli_target_rectangletriangles.svg	13	yes	57	0	177	0	0			0	0			1				0	
6.6.1	mac	2023-07-07	23:15:41	23:25:36	592864	5d2f7fb4bb27200019010768	4	2	main_slash	11	main_slash	103	stimuli_distractor_trianglediamonds.svg	stimuli_target_rectanglediamonds.svg	10	yes	53	1	831	0	0			0	0			1				0	
6.6.1	mac	2023-07-07	23:15:41	23:25:36	592864	5d2f7fb4bb27200019010768	4	2	main_slash	11	advance_on_keypress_SLASH	104	stimuli_distractor_trianglediamonds.svg	stimuli_target_rectanglediamonds.svg	10	yes	57	0	177	0	0			0	0			1				0	
6.6.1	mac	2023-07-07	23:15:41	23:25:39	595666	5d2f7fb4bb27200019010768	4	2	main_slash	11	main_slash	105	stimuli_target_trianglesquares.svg	stimuli_distractor_diamondtriangles.svg	22	yes	0	0	2000	0	0			0	0			1				0	
6.6.1	mac	2023-07-07	23:15:41	23:25:39	595666	5d2f7fb4bb27200019010768	4	2	main_slash	11	advance_on_keypress_SLASH	106	stimuli_target_trianglesquares.svg	stimuli_distractor_diamondtriangles.svg	22	yes	57	0	308	0	0			0	0			1				0	
6.6.1	mac	2023-07-07	23:15:41	23:25:42	598600	5d2f7fb4bb27200019010768	4	2	main_slash	11	main_slash	107	stimuli_distractor_diamondtriangles.svg	stimuli_distractor_diamondtriangles.svg	40	no	0	1	2000	0	0			0	0			1				0	
6.6.1	mac	2023-07-07	23:15:41	23:25:42	598600	5d2f7fb4bb27200019010768	4	2	main_slash	11	advance_on_keypress_SLASH	108	stimuli_distractor_diamondtriangles.svg	stimuli_distractor_diamondtriangles.svg	40	no	57	0	183	0	0			0	0			1				0	
6.6.1	mac	2023-07-07	23:15:41	23:25:44	600186	5d2f7fb4bb27200019010768	4	2	main_slash	11	main_slash	109	stimuli_target_diamondrectangles.svg	stimuli_distractor_trianglediamonds.svg	19	yes	53	1	766	0	0			0	0			1				0	
6.6.1	mac	2023-07-07	23:15:41	23:25:44	600186	5d2f7fb4bb27200019010768	4	2	main_slash	11	advance_on_keypress_SLASH	110	stimuli_target_diamondrectangles.svg	stimuli_distractor_trianglediamonds.svg	19	yes	57	0	494	0	0			0	0			1				0	
6.6.1	mac	2023-07-07	23:15:41	23:25:46	602134	5d2f7fb4bb27200019010768	4	2	main_slash	11	main_slash	111	stimuli_target_squaretriangles.svg	stimuli_distractor_trianglediamonds.svg	3	yes	53	1	835	0	0			0	0			1				0	
6.6.1	mac	2023-07-07	23:15:41	23:25:46	602134	5d2f7fb4bb27200019010768	4	2	main_slash	11	advance_on_keypress_SLASH	112	stimuli_target_squaretriangles.svg	stimuli_distractor_trianglediamonds.svg	3	yes	57	0	197	0	0			0	0			1				0	
6.6.1	mac	2023-07-07	23:15:41	23:25:47	603753	5d2f7fb4bb27200019010768	4	2	main_slash	11	main_slash	113	stimuli_target_squarediamonds.svg	stimuli_distractor_diamondtriangles.svg	8	yes	53	1	787	0	0			0	0			1				0	
6.6.1	mac	2023-07-07	23:15:41	23:25:47	603753	5d2f7fb4bb27200019010768	4	2	main_slash	11	advance_on_keypress_SLASH	114	stimuli_target_squarediamonds.svg	stimuli_distractor_diamondtriangles.svg	8	yes	57	0	231	0	0			0	0			1				0	
6.6.1	mac	2023-07-07	23:15:41	23:25:49	605415	5d2f7fb4bb27200019010768	4	2	main_slash	11	main_slash	115	stimuli_distractor_trianglediamonds.svg	stimuli_target_rectangletriangles.svg	9	yes	53	1	799	0	0			0	0			1				0	
6.6.1	mac	2023-07-07	23:15:41	23:25:49	605415	5d2f7fb4bb27200019010768	4	2	main_slash	11	advance_on_keypress_SLASH	116	stimuli_distractor_trianglediamonds.svg	stimuli_target_rectangletriangles.svg	9	yes	57	0	190	0	0			0	0			1				0	
6.6.1	mac	2023-07-07	23:15:41	23:25:52	608232	5d2f7fb4bb27200019010768	4	2	main_slash	11	main_slash	117	stimuli_distractor_diamondtriangles.svg	stimuli_target_trianglesquares.svg	30	yes	0	0	2000	0	0			0	0			1				0	
6.6.1	mac	2023-07-07	23:15:41	23:25:52	608232	5d2f7fb4bb27200019010768	4	2	main_slash	11	advance_on_keypress_SLASH	118	stimuli_distractor_diamondtriangles.svg	stimuli_target_trianglesquares.svg	30	yes	57	0	475	0	0			0	0			1				0	
6.6.1	mac	2023-07-07	23:15:41	23:25:54	610205	5d2f7fb4bb27200019010768	4	2	main_slash	11	main_slash	119	stimuli_distractor_diamondtriangles.svg	stimuli_target_trianglerectangles.svg	29	yes	53	1	872	0	0			0	0			1				0	
6.6.1	mac	2023-07-07	23:15:41	23:25:54	610205	5d2f7fb4bb27200019010768	4	2	main_slash	11	advance_on_keypress_SLASH	120	stimuli_distractor_diamondtriangles.svg	stimuli_target_trianglerectangles.svg	29	yes	57	0	234	0	0			0	0			1				0	
6.6.1	mac	2023-07-07	23:15:41	23:25:55	611841	5d2f7fb4bb27200019010768	4	2	main_slash	11	main_slash	121	stimuli_target_diamondsquares.svg	stimuli_distractor_diamondtriangles.svg	24	yes	53	1	776	0	0			0	0			1				0	
6.6.1	mac	2023-07-07	23:15:41	23:25:55	611841	5d2f7fb4bb27200019010768	4	2	main_slash	11	advance_on_keypress_SLASH	122	stimuli_target_diamondsquares.svg	stimuli_distractor_diamondtriangles.svg	24	yes	57	0	185	0	0			0	0			1				0	
6.6.1	mac	2023-07-07	23:15:41	23:25:57	613458	5d2f7fb4bb27200019010768	4	2	main_slash	11	main_slash	123	stimuli_distractor_trianglediamonds.svg	stimuli_target_diamondrectangles.svg	27	yes	53	1	809	0	0			0	0			1				0	
6.6.1	mac	2023-07-07	23:15:41	23:25:57	613458	5d2f7fb4bb27200019010768	4	2	main_slash	11	advance_on_keypress_SLASH	124	stimuli_distractor_trianglediamonds.svg	stimuli_target_diamondrectangles.svg	27	yes	57	0	153	0	0			0	0			1				0	
6.6.1	mac	2023-07-07	23:15:41	23:25:58	614958	5d2f7fb4bb27200019010768	4	2	main_slash	11	main_slash	125	stimuli_distractor_diamondtriangles.svg	stimuli_target_squarediamonds.svg	16	yes	53	1	709	0	0			0	0			1				0	
6.6.1	mac	2023-07-07	23:15:41	23:25:58	614958	5d2f7fb4bb27200019010768	4	2	main_slash	11	advance_on_keypress_SLASH	126	stimuli_distractor_diamondtriangles.svg	stimuli_target_squarediamonds.svg	16	yes	57	0	157	0	0			0	0			1				0	
6.6.1	mac	2023-07-07	23:15:41	23:26:00	616510	5d2f7fb4bb27200019010768	4	2	main_slash	11	main_slash	127	stimuli_distractor_diamondtriangles.svg	stimuli_target_rectanglediamonds.svg	14	yes	53	1	762	0	0			0	0			1				0	
6.6.1	mac	2023-07-07	23:15:41	23:26:00	616510	5d2f7fb4bb27200019010768	4	2	main_slash	11	advance_on_keypress_SLASH	128	stimuli_distractor_diamondtriangles.svg	stimuli_target_rectanglediamonds.svg	14	yes	57	0	116	0	0			0	0			1				0	
6.6.1	mac	2023-07-07	23:15:41	23:26:01	617958	5d2f7fb4bb27200019010768	4	2	main_slash	11	main_slash	129	stimuli_target_trianglesquares.svg	stimuli_distractor_trianglediamonds.svg	18	yes	53	1	709	0	0			0	0			1				0	
6.6.1	mac	2023-07-07	23:15:41	23:26:01	617958	5d2f7fb4bb27200019010768	4	2	main_slash	11	advance_on_keypress_SLASH	130	stimuli_target_trianglesquares.svg	stimuli_distractor_trianglediamonds.svg	18	yes	57	0	127	0	0			0	0			1				0	
6.6.1	mac	2023-07-07	23:15:41	23:26:03	619488	5d2f7fb4bb27200019010768	4	2	main_slash	11	main_slash	131	stimuli_target_trianglerectangles.svg	stimuli_distractor_trianglediamonds.svg	17	yes	53	1	773	0	0			0	0			1				0	
6.6.1	mac	2023-07-07	23:15:41	23:26:03	619488	5d2f7fb4bb27200019010768	4	2	main_slash	11	advance_on_keypress_SLASH	132	stimuli_target_trianglerectangles.svg	stimuli_distractor_trianglediamonds.svg	17	yes	57	0	91	0	0			0	0			1				0	
6.6.1	mac	2023-07-07	23:15:41	23:26:04	620978	5d2f7fb4bb27200019010768	4	2	main_slash	11	main_slash	133	stimuli_target_rectangletriangles.svg	stimuli_distractor_diamondtriangles.svg	5	yes	53	1	762	0	0			0	0			1				0	
6.6.1	mac	2023-07-07	23:15:41	23:26:04	620978	5d2f7fb4bb27200019010768	4	2	main_slash	11	advance_on_keypress_SLASH	134	stimuli_target_rectangletriangles.svg	stimuli_distractor_diamondtriangles.svg	5	yes	57	0	82	0	0			0	0			1				0	
6.6.1	mac	2023-07-07	23:15:41	23:26:06	622503	5d2f7fb4bb27200019010768	4	2	main_slash	11	main_slash	135	stimuli_target_rectanglediamonds.svg	stimuli_distractor_trianglediamonds.svg	2	yes	53	1	803	0	0			0	0			1				0	
6.6.1	mac	2023-07-07	23:15:41	23:26:06	622503	5d2f7fb4bb27200019010768	4	2	main_slash	11	advance_on_keypress_SLASH	136	stimuli_target_rectanglediamonds.svg	stimuli_distractor_trianglediamonds.svg	2	yes	57	0	201	0	0			0	0			1				0	
6.6.1	mac	2023-07-07	23:15:41	23:26:07	624113	5d2f7fb4bb27200019010768	4	2	main_slash	11	main_slash	137	stimuli_target_squaretriangles.svg	stimuli_distractor_diamondtriangles.svg	7	yes	53	1	781	0	0			0	0			1				0	
6.6.1	mac	2023-07-07	23:15:41	23:26:07	624113	5d2f7fb4bb27200019010768	4	2	main_slash	11	advance_on_keypress_SLASH	138	stimuli_target_squaretriangles.svg	stimuli_distractor_diamondtriangles.svg	7	yes	57	0	107	0	0			0	0			1				0	
6.6.1	mac	2023-07-07	23:15:41	23:26:09	625582	5d2f7fb4bb27200019010768	4	2	main_slash	11	main_slash	139	stimuli_distractor_diamondtriangles.svg	stimuli_target_diamondrectangles.svg	31	yes	53	1	734	0	0			0	0			1				0	
6.6.1	mac	2023-07-07	23:15:41	23:26:09	625582	5d2f7fb4bb27200019010768	4	2	main_slash	11	advance_on_keypress_SLASH	140	stimuli_distractor_diamondtriangles.svg	stimuli_target_diamondrectangles.svg	31	yes	57	0	122	0	0			0	0			1				0	
6.6.1	mac	2023-07-07	23:15:41	23:26:11	627305	5d2f7fb4bb27200019010768	4	2	main_slash	11	main_slash	141	stimuli_distractor_diamondtriangles.svg	stimuli_distractor_trianglediamonds.svg	38	no	53	0	973	0	0			0	0			1				0	
6.6.1	mac	2023-07-07	23:15:41	23:26:11	627305	5d2f7fb4bb27200019010768	4	2	main_slash	11	advance_on_keypress_SLASH	142	stimuli_distractor_diamondtriangles.svg	stimuli_distractor_trianglediamonds.svg	38	no	57	0	156	0	0			0	0			1				0	
6.6.1	mac	2023-07-07	23:15:41	23:26:12	628895	5d2f7fb4bb27200019010768	4	2	main_slash	11	main_slash	143	stimuli_distractor_diamondtriangles.svg	stimuli_target_squaretriangles.svg	15	yes	53	1	796	0	0			0	0			1				0	
6.6.1	mac	2023-07-07	23:15:41	23:26:12	628895	5d2f7fb4bb27200019010768	4	2	main_slash	11	advance_on_keypress_SLASH	144	stimuli_distractor_diamondtriangles.svg	stimuli_target_squaretriangles.svg	15	yes	57	0	142	0	0			0	0			1				0	
6.6.1	mac	2023-07-07	23:15:41	23:26:15	631666	5d2f7fb4bb27200019010768	4	2	main_slash	11	main_slash	145	stimuli_target_diamondsquares.svg	stimuli_distractor_trianglediamonds.svg	20	yes	0	0	2000	0	0			0	0			1				0	
6.6.1	mac	2023-07-07	23:15:41	23:26:15	631666	5d2f7fb4bb27200019010768	4	2	main_slash	11	advance_on_keypress_SLASH	146	stimuli_target_diamondsquares.svg	stimuli_distractor_trianglediamonds.svg	20	yes	57	0	354	0	0			0	0			1				0	
6.6.1	mac	2023-07-07	23:15:41	23:26:18	634648	5d2f7fb4bb27200019010768	4	2	main_slash	11	main_slash	147	stimuli_distractor_trianglediamonds.svg	stimuli_target_trianglerectangles.svg	25	yes	0	0	2000	0	0			0	0			1				0	
6.6.1	mac	2023-07-07	23:15:41	23:26:18	634648	5d2f7fb4bb27200019010768	4	2	main_slash	11	advance_on_keypress_SLASH	148	stimuli_distractor_trianglediamonds.svg	stimuli_target_trianglerectangles.svg	25	yes	57	0	454	0	0			0	0			1				0	
6.6.1	mac	2023-07-07	23:15:41	23:26:21	637733	5d2f7fb4bb27200019010768	4	2	main_slash	11	main_slash	149	stimuli_distractor_trianglediamonds.svg	stimuli_distractor_diamondtriangles.svg	35	no	0	1	2000	0	0			0	0			1				0	
6.6.1	mac	2023-07-07	23:15:41	23:26:21	637733	5d2f7fb4bb27200019010768	4	2	main_slash	11	advance_on_keypress_SLASH	150	stimuli_distractor_trianglediamonds.svg	stimuli_distractor_diamondtriangles.svg	35	no	57	0	285	0	0			0	0			1				0	
6.6.1	mac	2023-07-07	23:15:41	23:26:24	640649	5d2f7fb4bb27200019010768	4	2	main_slash	11	main_slash	151	stimuli_target_diamondrectangles.svg	stimuli_distractor_diamondtriangles.svg	23	yes	0	0	2000	0	0			0	0			1				0	
6.6.1	mac	2023-07-07	23:15:41	23:26:24	640649	5d2f7fb4bb27200019010768	4	2	main_slash	11	advance_on_keypress_SLASH	152	stimuli_target_diamondrectangles.svg	stimuli_distractor_diamondtriangles.svg	23	yes	57	0	214	0	0			0	0			1				0	
6.6.1	mac	2023-07-07	23:15:41	23:26:27	643482	5d2f7fb4bb27200019010768	4	2	main_slash	11	main_slash	153	stimuli_target_trianglerectangles.svg	stimuli_distractor_diamondtriangles.svg	21	yes	0	0	2000	0	0			0	0			1				0	
6.6.1	mac	2023-07-07	23:15:41	23:26:27	643482	5d2f7fb4bb27200019010768	4	2	main_slash	11	advance_on_keypress_SLASH	154	stimuli_target_trianglerectangles.svg	stimuli_distractor_diamondtriangles.svg	21	yes	57	0	502	0	0			0	0			1				0	
6.6.1	mac	2023-07-07	23:15:41	23:26:30	646615	5d2f7fb4bb27200019010768	4	2	main_slash	11	main_slash	155	stimuli_distractor_trianglediamonds.svg	stimuli_distractor_diamondtriangles.svg	36	no	0	1	2000	0	0			0	0			1				0	
6.6.1	mac	2023-07-07	23:15:41	23:26:30	646615	5d2f7fb4bb27200019010768	4	2	main_slash	11	advance_on_keypress_SLASH	156	stimuli_distractor_trianglediamonds.svg	stimuli_distractor_diamondtriangles.svg	36	no	57	0	285	0	0			0	0			1				0	
6.6.1	mac	2023-07-07	23:15:41	23:26:32	648168	5d2f7fb4bb27200019010768	4	2	main_slash	11	main_slash	157	stimuli_distractor_trianglediamonds.svg	stimuli_target_squarediamonds.svg	12	yes	53	1	637	0	0			0	0			1				0	
6.6.1	mac	2023-07-07	23:15:41	23:26:32	648168	5d2f7fb4bb27200019010768	4	2	main_slash	11	advance_on_keypress_SLASH	158	stimuli_distractor_trianglediamonds.svg	stimuli_target_squarediamonds.svg	12	yes	57	0	627	0	0			0	0			1				0	
6.6.1	mac	2023-07-07	23:15:41	23:26:35	651415	5d2f7fb4bb27200019010768	4	2	main_slash	11	main_slash	159	stimuli_distractor_trianglediamonds.svg	stimuli_distractor_trianglediamonds.svg	34	no	0	1	2000	0	0			0	0			1				0	
6.6.1	mac	2023-07-07	23:15:41	23:26:35	651415	5d2f7fb4bb27200019010768	4	2	main_slash	11	advance_on_keypress_SLASH	160	stimuli_distractor_trianglediamonds.svg	stimuli_distractor_trianglediamonds.svg	34	no	57	0	283	0	0			0	0			1				0	
6.6.1	mac	2023-07-07	23:15:41	23:26:35	651415	5d2f7fb4bb27200019010768	4	2	headphonecheck_calibration	14	headphonecheck_calibrationIntro	1	stimuli_distractor_trianglediamonds.svg	stimuli_distractor_trianglediamonds.svg	34	no	calibrationButton	0	1957	0	0			0	0			1				0	
6.6.1	mac	2023-07-07	23:15:41	23:26:35	651415	5d2f7fb4bb27200019010768	4	2	headphonecheck_testphase	15	test_collectResponse	3	stimuli_distractor_trianglediamonds.svg	stimuli_distractor_trianglediamonds.svg	34	no	second	1	14143	1	1	antiphase_hc_iso.wav	2	0	0			1				0	
6.6.1	mac	2023-07-07	23:15:41	23:26:35	651415	5d2f7fb4bb27200019010768	4	2	headphonecheck_testphase	15	test_collectResponse	6	stimuli_distractor_trianglediamonds.svg	stimuli_distractor_trianglediamonds.svg	34	no	third	0	577	2	3	antiphase_hc_soi.wav	1	0	0			1				0	
6.6.1	mac	2023-07-07	23:15:41	23:26:35	651415	5d2f7fb4bb27200019010768	4	2	headphonecheck_testphase	15	test_collectResponse	9	stimuli_distractor_trianglediamonds.svg	stimuli_distractor_trianglediamonds.svg	34	no	third	1	384	3	6	antiphase_hc_ois.wav	3	0	0			1				0	
6.6.1	mac	2023-07-07	23:15:41	23:26:35	651415	5d2f7fb4bb27200019010768	4	2	headphonecheck_testphase	15	test_collectResponse	12	stimuli_distractor_trianglediamonds.svg	stimuli_distractor_trianglediamonds.svg	34	no	third	1	194	4	2	antiphase_hc_ios.wav	3	0	0			1				0	
6.6.1	mac	2023-07-07	23:15:41	23:26:35	651415	5d2f7fb4bb27200019010768	4	2	headphonecheck_testphase	15	test_collectResponse	15	stimuli_distractor_trianglediamonds.svg	stimuli_distractor_trianglediamonds.svg	34	no	second	0	210	5	4	antiphase_hc_sio.wav	1	0	0			1				0	
6.6.1	mac	2023-07-07	23:15:41	23:26:35	651415	5d2f7fb4bb27200019010768	4	2	headphonecheck_testphase	15	test_collectResponse	18	stimuli_distractor_trianglediamonds.svg	stimuli_distractor_trianglediamonds.svg	34	no	second	1	1177	6	5	antiphase_hc_osi.wav	2	0	0			1				0	
6.6.1	mac	2023-07-07	23:15:41	23:26:35	651415	5d2f7fb4bb27200019010768	4	2	stereocheck_calibration	17	stereocheck_calibrationIntro	1	stimuli_distractor_trianglediamonds.svg	stimuli_distractor_trianglediamonds.svg	34	no	stereocheck_calibrationButton	0	2386	6	5	antiphase_hc_osi.wav	2	0	0			1				0	
6.6.1	mac	2023-07-07	23:15:41	23:26:35	651415	5d2f7fb4bb27200019010768	4	2	stereocheck_testphase	18	stereocheck_test_collectResponse	3	stimuli_distractor_trianglediamonds.svg	stimuli_distractor_trianglediamonds.svg	34	no	stereocheck_left	1	527	6	5	antiphase_hc_osi.wav	2	1	2	noise_calib_stim_LEFT.wav	1	1				0	
6.6.1	mac	2023-07-07	23:15:41	23:26:35	651415	5d2f7fb4bb27200019010768	4	2	stereocheck_testphase	18	stereocheck_test_collectResponse	6	stimuli_distractor_trianglediamonds.svg	stimuli_distractor_trianglediamonds.svg	34	no	stereocheck_left	1	510	6	5	antiphase_hc_osi.wav	2	2	3	noise_calib_stim_LEFT.wav	1	1				0	
6.6.1	mac	2023-07-07	23:15:41	23:26:35	651415	5d2f7fb4bb27200019010768	4	2	stereocheck_testphase	18	stereocheck_test_collectResponse	9	stimuli_distractor_trianglediamonds.svg	stimuli_distractor_trianglediamonds.svg	34	no	stereocheck_left	1	244	6	5	antiphase_hc_osi.wav	2	3	1	noise_calib_stim_LEFT.wav	1	1				0	
6.6.1	mac	2023-07-07	23:15:41	23:26:35	651415	5d2f7fb4bb27200019010768	4	2	stereocheck_testphase	18	stereocheck_test_collectResponse	12	stimuli_distractor_trianglediamonds.svg	stimuli_distractor_trianglediamonds.svg	34	no	stereocheck_right	1	127	6	5	antiphase_hc_osi.wav	2	4	5	noise_calib_stim_RIGHT.wav	2	1				0	
6.6.1	mac	2023-07-07	23:15:41	23:26:35	651415	5d2f7fb4bb27200019010768	4	2	stereocheck_testphase	18	stereocheck_test_collectResponse	15	stimuli_distractor_trianglediamonds.svg	stimuli_distractor_trianglediamonds.svg	34	no	stereocheck_right	1	195	6	5	antiphase_hc_osi.wav	2	5	6	noise_calib_stim_RIGHT.wav	2	1				0	
6.6.1	mac	2023-07-07	23:15:41	23:26:35	651415	5d2f7fb4bb27200019010768	4	2	stereocheck_testphase	18	stereocheck_test_collectResponse	18	stimuli_distractor_trianglediamonds.svg	stimuli_distractor_trianglediamonds.svg	34	no	stereocheck_right	1	193	6	5	antiphase_hc_osi.wav	2	6	4	noise_calib_stim_RIGHT.wav	2	1				0	
6.6.1	mac	2023-07-07	23:15:41	23:26:35	651415	5d2f7fb4bb27200019010768	4	2	DL_practice	21	DL_practice	2	stimuli_distractor_trianglediamonds.svg	stimuli_distractor_trianglediamonds.svg	34	no	da	1	1278	6	5	antiphase_hc_osi.wav	2	6	4	noise_calib_stim_RIGHT.wav	2	8	blb_dichoticlistening_da-da.mp3	da	da	0	left
6.6.1	mac	2023-07-07	23:15:41	23:26:35	651415	5d2f7fb4bb27200019010768	4	2	DL_practice	21	DL_practice	3	stimuli_distractor_trianglediamonds.svg	stimuli_distractor_trianglediamonds.svg	34	no	ka	0	2111	6	5	antiphase_hc_osi.wav	2	6	4	noise_calib_stim_RIGHT.wav	2	18	blb_dichoticlistening_ga-ta.mp3	ga	ta	1	other
6.6.1	mac	2023-07-07	23:15:41	23:26:35	651415	5d2f7fb4bb27200019010768	4	2	DL_practice	21	DL_practice	4	stimuli_distractor_trianglediamonds.svg	stimuli_distractor_trianglediamonds.svg	34	no	da	1	1112	6	5	antiphase_hc_osi.wav	2	6	4	noise_calib_stim_RIGHT.wav	2	7	blb_dichoticlistening_da-ba.mp3	da	ba	1	left
6.6.1	mac	2023-07-07	23:15:41	23:26:35	651415	5d2f7fb4bb27200019010768	4	2	DL_practice	21	DL_practice	5	stimuli_distractor_trianglediamonds.svg	stimuli_distractor_trianglediamonds.svg	34	no	ba	1	1277	6	5	antiphase_hc_osi.wav	2	6	4	noise_calib_stim_RIGHT.wav	2	1	blb_dichoticlistening_ba-ba.mp3	ba	ba	0	left
6.6.1	mac	2023-07-07	23:15:41	23:26:35	651415	5d2f7fb4bb27200019010768	4	2	DL_practice	21	DL_practice	6	stimuli_distractor_trianglediamonds.svg	stimuli_distractor_trianglediamonds.svg	34	no	ka	1	894	6	5	antiphase_hc_osi.wav	2	6	4	noise_calib_stim_RIGHT.wav	2	23	blb_dichoticlistening_ka-pa.mp3	ka	pa	1	left
6.6.1	mac	2023-07-07	23:15:41	23:26:35	651415	5d2f7fb4bb27200019010768	4	2	DL_practice	21	DL_practice	7	stimuli_distractor_trianglediamonds.svg	stimuli_distractor_trianglediamonds.svg	34	no	pa	1	828	6	5	antiphase_hc_osi.wav	2	6	4	noise_calib_stim_RIGHT.wav	2	29	blb_dichoticlistening_pa-pa.mp3	pa	pa	0	left
6.6.1	mac	2023-07-07	23:15:41	23:26:35	651415	5d2f7fb4bb27200019010768	4	2	DL_practice	21	DL_practice	8	stimuli_distractor_trianglediamonds.svg	stimuli_distractor_trianglediamonds.svg	34	no	ka	1	1445	6	5	antiphase_hc_osi.wav	2	6	4	noise_calib_stim_RIGHT.wav	2	22	blb_dichoticlistening_ka-ka.mp3	ka	ka	0	left
6.6.1	mac	2023-07-07	23:15:41	23:26:35	651415	5d2f7fb4bb27200019010768	4	2	DL_practice	21	DL_practice	9	stimuli_distractor_trianglediamonds.svg	stimuli_distractor_trianglediamonds.svg	34	no	ta	1	1127	6	5	antiphase_hc_osi.wav	2	6	4	noise_calib_stim_RIGHT.wav	2	36	blb_dichoticlistening_ta-ta.mp3	ta	ta	0	left
6.6.1	mac	2023-07-07	23:15:41	23:26:35	651415	5d2f7fb4bb27200019010768	4	2	DL_practice	21	DL_practice	10	stimuli_distractor_trianglediamonds.svg	stimuli_distractor_trianglediamonds.svg	34	no	ga	1	1611	6	5	antiphase_hc_osi.wav	2	6	4	noise_calib_stim_RIGHT.wav	2	15	blb_dichoticlistening_ga-ga.mp3	ga	ga	0	left
6.6.1	mac	2023-07-07	23:15:41	23:26:35	651415	5d2f7fb4bb27200019010768	4	2	DL_test	23	DL_test	1	stimuli_distractor_trianglediamonds.svg	stimuli_distractor_trianglediamonds.svg	34	no	ga	0	1278	6	5	antiphase_hc_osi.wav	2	6	4	noise_calib_stim_RIGHT.wav	2	12	blb_dichoticlistening_da-ta.mp3	da	ta	1	other
6.6.1	mac	2023-07-07	23:15:41	23:26:35	651415	5d2f7fb4bb27200019010768	4	2	DL_test	23	DL_test	2	stimuli_distractor_trianglediamonds.svg	stimuli_distractor_trianglediamonds.svg	34	no	ka	1	1244	6	5	antiphase_hc_osi.wav	2	6	4	noise_calib_stim_RIGHT.wav	2	20	blb_dichoticlistening_ka-da.mp3	ka	da	1	left
6.6.1	mac	2023-07-07	23:15:41	23:26:35	651415	5d2f7fb4bb27200019010768	4	2	DL_test	23	DL_test	3	stimuli_distractor_trianglediamonds.svg	stimuli_distractor_trianglediamonds.svg	34	no	ka	1	612	6	5	antiphase_hc_osi.wav	2	6	4	noise_calib_stim_RIGHT.wav	2	24	blb_dichoticlistening_ka-ta.mp3	ka	ta	1	left
6.6.1	mac	2023-07-07	23:15:41	23:26:35	651415	5d2f7fb4bb27200019010768	4	2	DL_test	23	DL_test	4	stimuli_distractor_trianglediamonds.svg	stimuli_distractor_trianglediamonds.svg	34	no	ba	1	1545	6	5	antiphase_hc_osi.wav	2	6	4	noise_calib_stim_RIGHT.wav	2	13	blb_dichoticlistening_ga-ba.mp3	ga	ba	1	right
6.6.1	mac	2023-07-07	23:15:41	23:26:35	651415	5d2f7fb4bb27200019010768	4	2	DL_test	23	DL_test	5	stimuli_distractor_trianglediamonds.svg	stimuli_distractor_trianglediamonds.svg	34	no	pa	1	1394	6	5	antiphase_hc_osi.wav	2	6	4	noise_calib_stim_RIGHT.wav	2	26	blb_dichoticlistening_pa-da.mp3	pa	da	1	left
6.6.1	mac	2023-07-07	23:15:41	23:26:35	651415	5d2f7fb4bb27200019010768	4	2	DL_test	23	DL_test	6	stimuli_distractor_trianglediamonds.svg	stimuli_distractor_trianglediamonds.svg	34	no	ka	1	778	6	5	antiphase_hc_osi.wav	2	6	4	noise_calib_stim_RIGHT.wav	2	19	blb_dichoticlistening_ka-ba.mp3	ka	ba	1	left
6.6.1	mac	2023-07-07	23:15:41	23:26:35	651415	5d2f7fb4bb27200019010768	4	2	DL_test	23	DL_test	7	stimuli_distractor_trianglediamonds.svg	stimuli_distractor_trianglediamonds.svg	34	no	ga	1	744	6	5	antiphase_hc_osi.wav	2	6	4	noise_calib_stim_RIGHT.wav	2	15	blb_dichoticlistening_ga-ga.mp3	ga	ga	0	left
6.6.1	mac	2023-07-07	23:15:41	23:26:35	651415	5d2f7fb4bb27200019010768	4	2	DL_test	23	DL_test	8	stimuli_distractor_trianglediamonds.svg	stimuli_distractor_trianglediamonds.svg	34	no	pa	1	1661	6	5	antiphase_hc_osi.wav	2	6	4	noise_calib_stim_RIGHT.wav	2	17	blb_dichoticlistening_ga-pa.mp3	ga	pa	1	right
6.6.1	mac	2023-07-07	23:15:41	23:26:35	651415	5d2f7fb4bb27200019010768	4	2	DL_test	23	DL_test	9	stimuli_distractor_trianglediamonds.svg	stimuli_distractor_trianglediamonds.svg	34	no	ta	1	995	6	5	antiphase_hc_osi.wav	2	6	4	noise_calib_stim_RIGHT.wav	2	36	blb_dichoticlistening_ta-ta.mp3	ta	ta	0	left
6.6.1	mac	2023-07-07	23:15:41	23:26:35	651415	5d2f7fb4bb27200019010768	4	2	DL_test	23	DL_test	10	stimuli_distractor_trianglediamonds.svg	stimuli_distractor_trianglediamonds.svg	34	no	ta	1	1045	6	5	antiphase_hc_osi.wav	2	6	4	noise_calib_stim_RIGHT.wav	2	32	blb_dichoticlistening_ta-da.mp3	ta	da	1	left
6.6.1	mac	2023-07-07	23:15:41	23:26:35	651415	5d2f7fb4bb27200019010768	4	2	DL_test	23	DL_test	11	stimuli_distractor_trianglediamonds.svg	stimuli_distractor_trianglediamonds.svg	34	no	ka	1	578	6	5	antiphase_hc_osi.wav	2	6	4	noise_calib_stim_RIGHT.wav	2	21	blb_dichoticlistening_ka-ga.mp3	ka	ga	1	left
6.6.1	mac	2023-07-07	23:15:41	23:26:35	651415	5d2f7fb4bb27200019010768	4	2	DL_test	23	DL_test	12	stimuli_distractor_trianglediamonds.svg	stimuli_distractor_trianglediamonds.svg	34	no	pa	0	1345	6	5	antiphase_hc_osi.wav	2	6	4	noise_calib_stim_RIGHT.wav	2	10	blb_dichoticlistening_da-ka.mp3	da	ka	1	other
6.6.1	mac	2023-07-07	23:15:41	23:26:35	651415	5d2f7fb4bb27200019010768	4	2	DL_test	23	DL_test	13	stimuli_distractor_trianglediamonds.svg	stimuli_distractor_trianglediamonds.svg	34	no	ta	1	1578	6	5	antiphase_hc_osi.wav	2	6	4	noise_calib_stim_RIGHT.wav	2	35	blb_dichoticlistening_ta-pa.mp3	ta	pa	1	left
6.6.1	mac	2023-07-07	23:15:41	23:26:35	651415	5d2f7fb4bb27200019010768	4	2	DL_test	23	DL_test	14	stimuli_distractor_trianglediamonds.svg	stimuli_distractor_trianglediamonds.svg	34	no	ta	0	1012	6	5	antiphase_hc_osi.wav	2	6	4	noise_calib_stim_RIGHT.wav	2	11	blb_dichoticlistening_da-pa.mp3	da	pa	1	other
6.6.1	mac	2023-07-07	23:15:41	23:26:35	651415	5d2f7fb4bb27200019010768	4	2	DL_test	23	DL_test	15	stimuli_distractor_trianglediamonds.svg	stimuli_distractor_trianglediamonds.svg	34	no	pa	1	1895	6	5	antiphase_hc_osi.wav	2	6	4	noise_calib_stim_RIGHT.wav	2	27	blb_dichoticlistening_pa-ga.mp3	pa	ga	1	left
6.6.1	mac	2023-07-07	23:15:41	23:26:35	651415	5d2f7fb4bb27200019010768	4	2	DL_test	23	DL_test	16	stimuli_distractor_trianglediamonds.svg	stimuli_distractor_trianglediamonds.svg	34	no	ka	1	1044	6	5	antiphase_hc_osi.wav	2	6	4	noise_calib_stim_RIGHT.wav	2	23	blb_dichoticlistening_ka-pa.mp3	ka	pa	1	left
6.6.1	mac	2023-07-07	23:15:41	23:26:35	651415	5d2f7fb4bb27200019010768	4	2	DL_test	23	DL_test	17	stimuli_distractor_trianglediamonds.svg	stimuli_distractor_trianglediamonds.svg	34	no	pa	0	828	6	5	antiphase_hc_osi.wav	2	6	4	noise_calib_stim_RIGHT.wav	2	1	blb_dichoticlistening_ba-ba.mp3	ba	ba	0	other
6.6.1	mac	2023-07-07	23:15:41	23:26:35	651415	5d2f7fb4bb27200019010768	4	2	DL_test	23	DL_test	18	stimuli_distractor_trianglediamonds.svg	stimuli_distractor_trianglediamonds.svg	34	no	ga	1	1429	6	5	antiphase_hc_osi.wav	2	6	4	noise_calib_stim_RIGHT.wav	2	14	blb_dichoticlistening_ga-da.mp3	ga	da	1	left
6.6.1	mac	2023-07-07	23:15:41	23:26:35	651415	5d2f7fb4bb27200019010768	4	2	DL_test	23	DL_test	19	stimuli_distractor_trianglediamonds.svg	stimuli_distractor_trianglediamonds.svg	34	no	pa	1	978	6	5	antiphase_hc_osi.wav	2	6	4	noise_calib_stim_RIGHT.wav	2	5	blb_dichoticlistening_ba-pa.mp3	ba	pa	1	right
6.6.1	mac	2023-07-07	23:15:41	23:26:35	651415	5d2f7fb4bb27200019010768	4	2	DL_test	23	DL_test	20	stimuli_distractor_trianglediamonds.svg	stimuli_distractor_trianglediamonds.svg	34	no	ga	1	1161	6	5	antiphase_hc_osi.wav	2	6	4	noise_calib_stim_RIGHT.wav	2	9	blb_dichoticlistening_da-ga.mp3	da	ga	1	right
6.6.1	mac	2023-07-07	23:15:41	23:26:35	651415	5d2f7fb4bb27200019010768	4	2	DL_test	23	DL_test	21	stimuli_distractor_trianglediamonds.svg	stimuli_distractor_trianglediamonds.svg	34	no	ka	0	1561	6	5	antiphase_hc_osi.wav	2	6	4	noise_calib_stim_RIGHT.wav	2	30	blb_dichoticlistening_pa-ta.mp3	pa	ta	1	other
6.6.1	mac	2023-07-07	23:15:41	23:26:35	651415	5d2f7fb4bb27200019010768	4	2	DL_test	23	DL_test	22	stimuli_distractor_trianglediamonds.svg	stimuli_distractor_trianglediamonds.svg	34	no	ka	1	1345	6	5	antiphase_hc_osi.wav	2	6	4	noise_calib_stim_RIGHT.wav	2	4	blb_dichoticlistening_ba-ka.mp3	ba	ka	1	right
6.6.1	mac	2023-07-07	23:15:41	23:26:35	651415	5d2f7fb4bb27200019010768	4	2	DL_test	23	DL_test	23	stimuli_distractor_trianglediamonds.svg	stimuli_distractor_trianglediamonds.svg	34	no	ka	0	1645	6	5	antiphase_hc_osi.wav	2	6	4	noise_calib_stim_RIGHT.wav	2	18	blb_dichoticlistening_ga-ta.mp3	ga	ta	1	other
6.6.1	mac	2023-07-07	23:15:41	23:26:35	651415	5d2f7fb4bb27200019010768	4	2	DL_test	23	DL_test	24	stimuli_distractor_trianglediamonds.svg	stimuli_distractor_trianglediamonds.svg	34	no	pa	1	778	6	5	antiphase_hc_osi.wav	2	6	4	noise_calib_stim_RIGHT.wav	2	29	blb_dichoticlistening_pa-pa.mp3	pa	pa	0	left
6.6.1	mac	2023-07-07	23:15:41	23:26:35	651415	5d2f7fb4bb27200019010768	4	2	DL_test	23	DL_test	25	stimuli_distractor_trianglediamonds.svg	stimuli_distractor_trianglediamonds.svg	34	no	ba	1	1762	6	5	antiphase_hc_osi.wav	2	6	4	noise_calib_stim_RIGHT.wav	2	3	blb_dichoticlistening_ba-ga.mp3	ba	ga	1	left
