build	computer.platform	date	time	timestamp	time_elapsed_ms	subject	group	session	blockcode	blocknum	trialcode	trialnum	stimulus_left	stimulus_right	stim_index	target_present	response	correct	latency	headphonecheck_countTestTrials	headphonecheck_index	headphonecheck_testSound	headphonecheck_correctResponse	stereocheck_countTestTrials	stereocheck_index	stereocheck_testSound	stereocheck_correctResponse	DL_index	DL_soundfile	DL_leftSound	DL_rightSound	DL_dualSound	DL_choice
6.6.1	win	2023-06-02	08:01:45	0	0	630a2fd6e76ccbe74374656d	2	1	headphonecheck_calibration	4	headphonecheck_calibrationIntro	1			0		calibrationButton	0	3202	0	0			0	0			1				0	
6.6.1	win	2023-06-02	08:01:45	0	0	630a2fd6e76ccbe74374656d	2	1	headphonecheck_testphase	5	test_collectResponse	3			0		third	1	653	1	2	antiphase_hc_ios.wav	3	0	0			1				0	
6.6.1	win	2023-06-02	08:01:45	0	0	630a2fd6e76ccbe74374656d	2	1	headphonecheck_testphase	5	test_collectResponse	6			0		first	1	256	2	4	antiphase_hc_sio.wav	1	0	0			1				0	
6.6.1	win	2023-06-02	08:01:45	0	0	630a2fd6e76ccbe74374656d	2	1	headphonecheck_testphase	5	test_collectResponse	9			0		third	1	232	3	6	antiphase_hc_ois.wav	3	0	0			1				0	
6.6.1	win	2023-06-02	08:01:45	0	0	630a2fd6e76ccbe74374656d	2	1	headphonecheck_testphase	5	test_collectResponse	12			0		second	1	226	4	1	antiphase_hc_iso.wav	2	0	0			1				0	
6.6.1	win	2023-06-02	08:01:45	0	0	630a2fd6e76ccbe74374656d	2	1	headphonecheck_testphase	5	test_collectResponse	15			0		second	1	270	5	5	antiphase_hc_osi.wav	2	0	0			1				0	
6.6.1	win	2023-06-02	08:01:45	0	0	630a2fd6e76ccbe74374656d	2	1	headphonecheck_testphase	5	test_collectResponse	18			0		first	1	236	6	3	antiphase_hc_soi.wav	1	0	0			1				0	
6.6.1	win	2023-06-02	08:01:45	0	0	630a2fd6e76ccbe74374656d	2	1	stereocheck_calibration	7	stereocheck_calibrationIntro	1			0		stereocheck_calibrationButton	0	7064	6	3	antiphase_hc_soi.wav	1	0	0			1				0	
6.6.1	win	2023-06-02	08:01:45	0	0	630a2fd6e76ccbe74374656d	2	1	stereocheck_testphase	8	stereocheck_test_collectResponse	3			0		stereocheck_right	1	256	6	3	antiphase_hc_soi.wav	1	1	5	noise_calib_stim_RIGHT.wav	2	1				0	
6.6.1	win	2023-06-02	08:01:45	0	0	630a2fd6e76ccbe74374656d	2	1	stereocheck_testphase	8	stereocheck_test_collectResponse	6			0		stereocheck_left	1	402	6	3	antiphase_hc_soi.wav	1	2	1	noise_calib_stim_LEFT.wav	1	1				0	
6.6.1	win	2023-06-02	08:01:45	0	0	630a2fd6e76ccbe74374656d	2	1	stereocheck_testphase	8	stereocheck_test_collectResponse	9			0		stereocheck_left	1	227	6	3	antiphase_hc_soi.wav	1	3	3	noise_calib_stim_LEFT.wav	1	1				0	
6.6.1	win	2023-06-02	08:01:45	0	0	630a2fd6e76ccbe74374656d	2	1	stereocheck_testphase	8	stereocheck_test_collectResponse	12			0		stereocheck_right	1	296	6	3	antiphase_hc_soi.wav	1	4	4	noise_calib_stim_RIGHT.wav	2	1				0	
6.6.1	win	2023-06-02	08:01:45	0	0	630a2fd6e76ccbe74374656d	2	1	stereocheck_testphase	8	stereocheck_test_collectResponse	15			0		stereocheck_right	1	500	6	3	antiphase_hc_soi.wav	1	5	6	noise_calib_stim_RIGHT.wav	2	1				0	
6.6.1	win	2023-06-02	08:01:45	0	0	630a2fd6e76ccbe74374656d	2	1	stereocheck_testphase	8	stereocheck_test_collectResponse	18			0		stereocheck_left	1	226	6	3	antiphase_hc_soi.wav	1	6	2	noise_calib_stim_LEFT.wav	1	1				0	
6.6.1	win	2023-06-02	08:01:45	0	0	630a2fd6e76ccbe74374656d	2	1	DL_practice	11	DL_practice	2			0		ga	1	1143	6	3	antiphase_hc_soi.wav	1	6	2	noise_calib_stim_LEFT.wav	1	15	blb_dichoticlistening_ga-ga.mp3	ga	ga	0	left
6.6.1	win	2023-06-02	08:01:45	0	0	630a2fd6e76ccbe74374656d	2	1	DL_practice	11	DL_practice	3			0		ka	0	1469	6	3	antiphase_hc_soi.wav	1	6	2	noise_calib_stim_LEFT.wav	1	36	blb_dichoticlistening_ta-ta.mp3	ta	ta	0	other
6.6.1	win	2023-06-02	08:01:45	0	0	630a2fd6e76ccbe74374656d	2	1	DL_practice	11	DL_practice	4			0		pa	1	1422	6	3	antiphase_hc_soi.wav	1	6	2	noise_calib_stim_LEFT.wav	1	23	blb_dichoticlistening_ka-pa.mp3	ka	pa	1	right
6.6.1	win	2023-06-02	08:01:45	0	0	630a2fd6e76ccbe74374656d	2	1	DL_practice	11	DL_practice	5			0		da	1	3805	6	3	antiphase_hc_soi.wav	1	6	2	noise_calib_stim_LEFT.wav	1	7	blb_dichoticlistening_da-ba.mp3	da	ba	1	left
6.6.1	win	2023-06-02	08:01:45	0	0	630a2fd6e76ccbe74374656d	2	1	DL_practice	11	DL_practice	6			0		ka	0	1257	6	3	antiphase_hc_soi.wav	1	6	2	noise_calib_stim_LEFT.wav	1	18	blb_dichoticlistening_ga-ta.mp3	ga	ta	1	other
6.6.1	win	2023-06-02	08:01:45	0	0	630a2fd6e76ccbe74374656d	2	1	DL_practice	11	DL_practice	7			0		da	1	1576	6	3	antiphase_hc_soi.wav	1	6	2	noise_calib_stim_LEFT.wav	1	8	blb_dichoticlistening_da-da.mp3	da	da	0	left
6.6.1	win	2023-06-02	08:01:45	0	0	630a2fd6e76ccbe74374656d	2	1	DL_practice	11	DL_practice	8			0		ba	1	1918	6	3	antiphase_hc_soi.wav	1	6	2	noise_calib_stim_LEFT.wav	1	1	blb_dichoticlistening_ba-ba.mp3	ba	ba	0	left
6.6.1	win	2023-06-02	08:01:45	0	0	630a2fd6e76ccbe74374656d	2	1	DL_practice	11	DL_practice	9			0		pa	1	1361	6	3	antiphase_hc_soi.wav	1	6	2	noise_calib_stim_LEFT.wav	1	29	blb_dichoticlistening_pa-pa.mp3	pa	pa	0	left
6.6.1	win	2023-06-02	08:01:45	0	0	630a2fd6e76ccbe74374656d	2	1	DL_practice	11	DL_practice	10			0		ka	1	955	6	3	antiphase_hc_soi.wav	1	6	2	noise_calib_stim_LEFT.wav	1	22	blb_dichoticlistening_ka-ka.mp3	ka	ka	0	left
6.6.1	win	2023-06-02	08:01:45	0	0	630a2fd6e76ccbe74374656d	2	1	DL_test	13	DL_test	1			0		ga	1	1154	6	3	antiphase_hc_soi.wav	1	6	2	noise_calib_stim_LEFT.wav	1	14	blb_dichoticlistening_ga-da.mp3	ga	da	1	left
6.6.1	win	2023-06-02	08:01:45	0	0	630a2fd6e76ccbe74374656d	2	1	DL_test	13	DL_test	2			0		ka	0	1248	6	3	antiphase_hc_soi.wav	1	6	2	noise_calib_stim_LEFT.wav	1	36	blb_dichoticlistening_ta-ta.mp3	ta	ta	0	other
6.6.1	win	2023-06-02	08:01:45	0	0	630a2fd6e76ccbe74374656d	2	1	DL_test	13	DL_test	3			0		pa	0	1449	6	3	antiphase_hc_soi.wav	1	6	2	noise_calib_stim_LEFT.wav	1	6	blb_dichoticlistening_ba-ta.mp3	ba	ta	1	other
6.6.1	win	2023-06-02	08:01:45	0	0	630a2fd6e76ccbe74374656d	2	1	DL_test	13	DL_test	4			0		pa	1	1039	6	3	antiphase_hc_soi.wav	1	6	2	noise_calib_stim_LEFT.wav	1	29	blb_dichoticlistening_pa-pa.mp3	pa	pa	0	left
6.6.1	win	2023-06-02	08:01:45	0	0	630a2fd6e76ccbe74374656d	2	1	DL_test	13	DL_test	5			0		ka	0	1924	6	3	antiphase_hc_soi.wav	1	6	2	noise_calib_stim_LEFT.wav	1	17	blb_dichoticlistening_ga-pa.mp3	ga	pa	1	other
6.6.1	win	2023-06-02	08:01:45	0	0	630a2fd6e76ccbe74374656d	2	1	DL_test	13	DL_test	6			0		pa	0	2589	6	3	antiphase_hc_soi.wav	1	6	2	noise_calib_stim_LEFT.wav	1	19	blb_dichoticlistening_ka-ba.mp3	ka	ba	1	other
6.6.1	win	2023-06-02	08:01:45	0	0	630a2fd6e76ccbe74374656d	2	1	DL_test	13	DL_test	7			0		ba	1	1678	6	3	antiphase_hc_soi.wav	1	6	2	noise_calib_stim_LEFT.wav	1	7	blb_dichoticlistening_da-ba.mp3	da	ba	1	right
6.6.1	win	2023-06-02	08:01:45	0	0	630a2fd6e76ccbe74374656d	2	1	DL_test	13	DL_test	8			0		ga	1	1252	6	3	antiphase_hc_soi.wav	1	6	2	noise_calib_stim_LEFT.wav	1	33	blb_dichoticlistening_ta-ga.mp3	ta	ga	1	right
6.6.1	win	2023-06-02	08:01:45	0	0	630a2fd6e76ccbe74374656d	2	1	DL_test	13	DL_test	9			0		ka	1	1210	6	3	antiphase_hc_soi.wav	1	6	2	noise_calib_stim_LEFT.wav	1	34	blb_dichoticlistening_ta-ka.mp3	ta	ka	1	right
6.6.1	win	2023-06-02	08:01:45	0	0	630a2fd6e76ccbe74374656d	2	1	DL_test	13	DL_test	10			0		pa	1	1433	6	3	antiphase_hc_soi.wav	1	6	2	noise_calib_stim_LEFT.wav	1	11	blb_dichoticlistening_da-pa.mp3	da	pa	1	right
6.6.1	win	2023-06-02	08:01:45	0	0	630a2fd6e76ccbe74374656d	2	1	DL_test	13	DL_test	11			0		ba	1	1985	6	3	antiphase_hc_soi.wav	1	6	2	noise_calib_stim_LEFT.wav	1	1	blb_dichoticlistening_ba-ba.mp3	ba	ba	0	left
6.6.1	win	2023-06-02	08:01:45	0	0	630a2fd6e76ccbe74374656d	2	1	DL_test	13	DL_test	12			0		ka	1	1288	6	3	antiphase_hc_soi.wav	1	6	2	noise_calib_stim_LEFT.wav	1	24	blb_dichoticlistening_ka-ta.mp3	ka	ta	1	left
6.6.1	win	2023-06-02	08:01:45	0	0	630a2fd6e76ccbe74374656d	2	1	DL_test	13	DL_test	13			0		ka	1	1161	6	3	antiphase_hc_soi.wav	1	6	2	noise_calib_stim_LEFT.wav	1	16	blb_dichoticlistening_ga-ka.mp3	ga	ka	1	right
6.6.1	win	2023-06-02	08:01:45	0	0	630a2fd6e76ccbe74374656d	2	1	DL_test	13	DL_test	14			0		ga	0	1094	6	3	antiphase_hc_soi.wav	1	6	2	noise_calib_stim_LEFT.wav	1	2	blb_dichoticlistening_ba-da.mp3	ba	da	1	other
6.6.1	win	2023-06-02	08:01:45	0	0	630a2fd6e76ccbe74374656d	2	1	DL_test	13	DL_test	15			0		ga	1	1139	6	3	antiphase_hc_soi.wav	1	6	2	noise_calib_stim_LEFT.wav	1	15	blb_dichoticlistening_ga-ga.mp3	ga	ga	0	left
6.6.1	win	2023-06-02	08:01:45	0	0	630a2fd6e76ccbe74374656d	2	1	DL_test	13	DL_test	16			0		ka	0	2006	6	3	antiphase_hc_soi.wav	1	6	2	noise_calib_stim_LEFT.wav	1	31	blb_dichoticlistening_ta-ba.mp3	ta	ba	1	other
6.6.1	win	2023-06-02	08:01:45	0	0	630a2fd6e76ccbe74374656d	2	1	DL_test	13	DL_test	17			0		ga	1	1339	6	3	antiphase_hc_soi.wav	1	6	2	noise_calib_stim_LEFT.wav	1	13	blb_dichoticlistening_ga-ba.mp3	ga	ba	1	left
6.6.1	win	2023-06-02	08:01:45	0	0	630a2fd6e76ccbe74374656d	2	1	DL_test	13	DL_test	18			0		ka	1	1351	6	3	antiphase_hc_soi.wav	1	6	2	noise_calib_stim_LEFT.wav	1	4	blb_dichoticlistening_ba-ka.mp3	ba	ka	1	right
6.6.1	win	2023-06-02	08:01:45	0	0	630a2fd6e76ccbe74374656d	2	1	DL_test	13	DL_test	19			0		ka	0	1729	6	3	antiphase_hc_soi.wav	1	6	2	noise_calib_stim_LEFT.wav	1	12	blb_dichoticlistening_da-ta.mp3	da	ta	1	other
6.6.1	win	2023-06-02	08:01:45	0	0	630a2fd6e76ccbe74374656d	2	1	DL_test	13	DL_test	20			0		pa	1	1356	6	3	antiphase_hc_soi.wav	1	6	2	noise_calib_stim_LEFT.wav	1	35	blb_dichoticlistening_ta-pa.mp3	ta	pa	1	right
6.6.1	win	2023-06-02	08:01:45	0	0	630a2fd6e76ccbe74374656d	2	1	DL_test	13	DL_test	21			0		pa	1	2877	6	3	antiphase_hc_soi.wav	1	6	2	noise_calib_stim_LEFT.wav	1	27	blb_dichoticlistening_pa-ga.mp3	pa	ga	1	left
6.6.1	win	2023-06-02	08:01:45	0	0	630a2fd6e76ccbe74374656d	2	1	DL_test	13	DL_test	22			0		ka	0	1315	6	3	antiphase_hc_soi.wav	1	6	2	noise_calib_stim_LEFT.wav	1	18	blb_dichoticlistening_ga-ta.mp3	ga	ta	1	other
6.6.1	win	2023-06-02	08:01:45	0	0	630a2fd6e76ccbe74374656d	2	1	DL_test	13	DL_test	23			0		ka	1	2822	6	3	antiphase_hc_soi.wav	1	6	2	noise_calib_stim_LEFT.wav	1	21	blb_dichoticlistening_ka-ga.mp3	ka	ga	1	left
6.6.1	win	2023-06-02	08:01:45	0	0	630a2fd6e76ccbe74374656d	2	1	DL_test	13	DL_test	24			0		ka	1	1469	6	3	antiphase_hc_soi.wav	1	6	2	noise_calib_stim_LEFT.wav	1	20	blb_dichoticlistening_ka-da.mp3	ka	da	1	left
6.6.1	win	2023-06-02	08:01:45	0	0	630a2fd6e76ccbe74374656d	2	1	DL_test	13	DL_test	25			0		ka	1	947	6	3	antiphase_hc_soi.wav	1	6	2	noise_calib_stim_LEFT.wav	1	22	blb_dichoticlistening_ka-ka.mp3	ka	ka	0	left
6.6.1	win	2023-06-02	08:01:45	0	0	630a2fd6e76ccbe74374656d	2	1	DL_test	13	DL_test	26			0		ga	0	1178	6	3	antiphase_hc_soi.wav	1	6	2	noise_calib_stim_LEFT.wav	1	32	blb_dichoticlistening_ta-da.mp3	ta	da	1	other
6.6.1	win	2023-06-02	08:01:45	0	0	630a2fd6e76ccbe74374656d	2	1	DL_test	13	DL_test	27			0		ga	0	1427	6	3	antiphase_hc_soi.wav	1	6	2	noise_calib_stim_LEFT.wav	1	8	blb_dichoticlistening_da-da.mp3	da	da	0	other
6.6.1	win	2023-06-02	08:01:45	0	0	630a2fd6e76ccbe74374656d	2	1	DL_test	13	DL_test	28			0		ka	1	1391	6	3	antiphase_hc_soi.wav	1	6	2	noise_calib_stim_LEFT.wav	1	28	blb_dichoticlistening_pa-ka.mp3	pa	ka	1	right
6.6.1	win	2023-06-02	08:01:45	0	0	630a2fd6e76ccbe74374656d	2	1	DL_test	13	DL_test	29			0		pa	1	1172	6	3	antiphase_hc_soi.wav	1	6	2	noise_calib_stim_LEFT.wav	1	25	blb_dichoticlistening_pa-ba.mp3	pa	ba	1	left
6.6.1	win	2023-06-02	08:01:45	0	0	630a2fd6e76ccbe74374656d	2	1	DL_test	13	DL_test	30			0		pa	1	1109	6	3	antiphase_hc_soi.wav	1	6	2	noise_calib_stim_LEFT.wav	1	30	blb_dichoticlistening_pa-ta.mp3	pa	ta	1	left
6.6.1	win	2023-06-02	08:01:45	0	0	630a2fd6e76ccbe74374656d	2	1	DL_test	13	DL_test	31			0		ga	1	1171	6	3	antiphase_hc_soi.wav	1	6	2	noise_calib_stim_LEFT.wav	1	9	blb_dichoticlistening_da-ga.mp3	da	ga	1	right
6.6.1	win	2023-06-02	08:01:45	0	0	630a2fd6e76ccbe74374656d	2	1	DL_test	13	DL_test	32			0		pa	1	1347	6	3	antiphase_hc_soi.wav	1	6	2	noise_calib_stim_LEFT.wav	1	5	blb_dichoticlistening_ba-pa.mp3	ba	pa	1	right
6.6.1	win	2023-06-02	08:01:45	0	0	630a2fd6e76ccbe74374656d	2	1	DL_test	13	DL_test	33			0		pa	1	1183	6	3	antiphase_hc_soi.wav	1	6	2	noise_calib_stim_LEFT.wav	1	26	blb_dichoticlistening_pa-da.mp3	pa	da	1	left
6.6.1	win	2023-06-02	08:01:45	0	0	630a2fd6e76ccbe74374656d	2	1	DL_test	13	DL_test	34			0		pa	1	1089	6	3	antiphase_hc_soi.wav	1	6	2	noise_calib_stim_LEFT.wav	1	23	blb_dichoticlistening_ka-pa.mp3	ka	pa	1	right
6.6.1	win	2023-06-02	08:01:45	0	0	630a2fd6e76ccbe74374656d	2	1	DL_test	13	DL_test	35			0		ga	1	1794	6	3	antiphase_hc_soi.wav	1	6	2	noise_calib_stim_LEFT.wav	1	3	blb_dichoticlistening_ba-ga.mp3	ba	ga	1	right
6.6.1	win	2023-06-02	08:01:45	0	0	630a2fd6e76ccbe74374656d	2	1	DL_test	13	DL_test	36			0		pa	0	1317	6	3	antiphase_hc_soi.wav	1	6	2	noise_calib_stim_LEFT.wav	1	10	blb_dichoticlistening_da-ka.mp3	da	ka	1	other
6.6.1	win	2023-06-02	08:01:45	0	0	630a2fd6e76ccbe74374656d	2	1	DL_test	14	DL_test	1			0		pa	0	1705	6	3	antiphase_hc_soi.wav	1	6	2	noise_calib_stim_LEFT.wav	1	13	blb_dichoticlistening_ga-ba.mp3	ga	ba	1	other
6.6.1	win	2023-06-02	08:01:45	0	0	630a2fd6e76ccbe74374656d	2	1	DL_test	14	DL_test	2			0		ka	0	1120	6	3	antiphase_hc_soi.wav	1	6	2	noise_calib_stim_LEFT.wav	1	33	blb_dichoticlistening_ta-ga.mp3	ta	ga	1	other
6.6.1	win	2023-06-02	08:01:45	0	0	630a2fd6e76ccbe74374656d	2	1	DL_test	14	DL_test	3			0		ga	1	1542	6	3	antiphase_hc_soi.wav	1	6	2	noise_calib_stim_LEFT.wav	1	3	blb_dichoticlistening_ba-ga.mp3	ba	ga	1	right
6.6.1	win	2023-06-02	08:01:45	0	0	630a2fd6e76ccbe74374656d	2	1	DL_test	14	DL_test	4			0		pa	1	1974	6	3	antiphase_hc_soi.wav	1	6	2	noise_calib_stim_LEFT.wav	1	5	blb_dichoticlistening_ba-pa.mp3	ba	pa	1	right
6.6.1	win	2023-06-02	08:01:45	0	0	630a2fd6e76ccbe74374656d	2	1	DL_test	14	DL_test	5			0		pa	0	1404	6	3	antiphase_hc_soi.wav	1	6	2	noise_calib_stim_LEFT.wav	1	10	blb_dichoticlistening_da-ka.mp3	da	ka	1	other
6.6.1	win	2023-06-02	08:01:45	0	0	630a2fd6e76ccbe74374656d	2	1	DL_test	14	DL_test	6			0		ka	1	1693	6	3	antiphase_hc_soi.wav	1	6	2	noise_calib_stim_LEFT.wav	1	19	blb_dichoticlistening_ka-ba.mp3	ka	ba	1	left
6.6.1	win	2023-06-02	08:01:45	0	0	630a2fd6e76ccbe74374656d	2	1	DL_test	14	DL_test	7			0		ka	0	1815	6	3	antiphase_hc_soi.wav	1	6	2	noise_calib_stim_LEFT.wav	1	27	blb_dichoticlistening_pa-ga.mp3	pa	ga	1	other
6.6.1	win	2023-06-02	08:01:45	0	0	630a2fd6e76ccbe74374656d	2	1	DL_test	14	DL_test	8			0		pa	1	1102	6	3	antiphase_hc_soi.wav	1	6	2	noise_calib_stim_LEFT.wav	1	11	blb_dichoticlistening_da-pa.mp3	da	pa	1	right
6.6.1	win	2023-06-02	08:01:45	0	0	630a2fd6e76ccbe74374656d	2	1	DL_test	14	DL_test	9			0		ka	0	1039	6	3	antiphase_hc_soi.wav	1	6	2	noise_calib_stim_LEFT.wav	1	18	blb_dichoticlistening_ga-ta.mp3	ga	ta	1	other
6.6.1	win	2023-06-02	08:01:45	0	0	630a2fd6e76ccbe74374656d	2	1	DL_test	14	DL_test	10			0		pa	1	1020	6	3	antiphase_hc_soi.wav	1	6	2	noise_calib_stim_LEFT.wav	1	29	blb_dichoticlistening_pa-pa.mp3	pa	pa	0	left
6.6.1	win	2023-06-02	08:01:45	0	0	630a2fd6e76ccbe74374656d	2	1	DL_test	14	DL_test	11			0		ba	1	1866	6	3	antiphase_hc_soi.wav	1	6	2	noise_calib_stim_LEFT.wav	1	1	blb_dichoticlistening_ba-ba.mp3	ba	ba	0	left
6.6.1	win	2023-06-02	08:01:45	0	0	630a2fd6e76ccbe74374656d	2	1	DL_test	14	DL_test	12			0		pa	1	1466	6	3	antiphase_hc_soi.wav	1	6	2	noise_calib_stim_LEFT.wav	1	25	blb_dichoticlistening_pa-ba.mp3	pa	ba	1	left
6.6.1	win	2023-06-02	08:01:45	0	0	630a2fd6e76ccbe74374656d	2	1	DL_test	14	DL_test	13			0		ka	0	1070	6	3	antiphase_hc_soi.wav	1	6	2	noise_calib_stim_LEFT.wav	1	36	blb_dichoticlistening_ta-ta.mp3	ta	ta	0	other
6.6.1	win	2023-06-02	08:01:45	0	0	630a2fd6e76ccbe74374656d	2	1	DL_test	14	DL_test	14			0		ga	1	1575	6	3	antiphase_hc_soi.wav	1	6	2	noise_calib_stim_LEFT.wav	1	15	blb_dichoticlistening_ga-ga.mp3	ga	ga	0	left
6.6.1	win	2023-06-02	08:01:45	0	0	630a2fd6e76ccbe74374656d	2	1	DL_test	14	DL_test	15			0		ka	1	1192	6	3	antiphase_hc_soi.wav	1	6	2	noise_calib_stim_LEFT.wav	1	21	blb_dichoticlistening_ka-ga.mp3	ka	ga	1	left
6.6.1	win	2023-06-02	08:01:45	0	0	630a2fd6e76ccbe74374656d	2	1	DL_test	14	DL_test	16			0		ga	0	2713	6	3	antiphase_hc_soi.wav	1	6	2	noise_calib_stim_LEFT.wav	1	2	blb_dichoticlistening_ba-da.mp3	ba	da	1	other
6.6.1	win	2023-06-02	08:01:45	0	0	630a2fd6e76ccbe74374656d	2	1	DL_test	14	DL_test	17			0		da	1	1302	6	3	antiphase_hc_soi.wav	1	6	2	noise_calib_stim_LEFT.wav	1	8	blb_dichoticlistening_da-da.mp3	da	da	0	left
6.6.1	win	2023-06-02	08:01:45	0	0	630a2fd6e76ccbe74374656d	2	1	DL_test	14	DL_test	18			0		ka	1	1196	6	3	antiphase_hc_soi.wav	1	6	2	noise_calib_stim_LEFT.wav	1	34	blb_dichoticlistening_ta-ka.mp3	ta	ka	1	right
6.6.1	win	2023-06-02	08:01:45	0	0	630a2fd6e76ccbe74374656d	2	1	DL_test	14	DL_test	19			0		ga	1	994	6	3	antiphase_hc_soi.wav	1	6	2	noise_calib_stim_LEFT.wav	1	9	blb_dichoticlistening_da-ga.mp3	da	ga	1	right
6.6.1	win	2023-06-02	08:01:45	0	0	630a2fd6e76ccbe74374656d	2	1	DL_test	14	DL_test	20			0		ka	1	1109	6	3	antiphase_hc_soi.wav	1	6	2	noise_calib_stim_LEFT.wav	1	23	blb_dichoticlistening_ka-pa.mp3	ka	pa	1	left
6.6.1	win	2023-06-02	08:01:45	0	0	630a2fd6e76ccbe74374656d	2	1	DL_test	14	DL_test	21			0		ka	0	2915	6	3	antiphase_hc_soi.wav	1	6	2	noise_calib_stim_LEFT.wav	1	26	blb_dichoticlistening_pa-da.mp3	pa	da	1	other
6.6.1	win	2023-06-02	08:01:45	0	0	630a2fd6e76ccbe74374656d	2	1	DL_test	14	DL_test	22			0		ka	1	1181	6	3	antiphase_hc_soi.wav	1	6	2	noise_calib_stim_LEFT.wav	1	22	blb_dichoticlistening_ka-ka.mp3	ka	ka	0	left
6.6.1	win	2023-06-02	08:01:45	0	0	630a2fd6e76ccbe74374656d	2	1	DL_test	14	DL_test	23			0		ka	0	2457	6	3	antiphase_hc_soi.wav	1	6	2	noise_calib_stim_LEFT.wav	1	12	blb_dichoticlistening_da-ta.mp3	da	ta	1	other
6.6.1	win	2023-06-02	08:01:45	0	0	630a2fd6e76ccbe74374656d	2	1	DL_test	14	DL_test	24			0		pa	0	1203	6	3	antiphase_hc_soi.wav	1	6	2	noise_calib_stim_LEFT.wav	1	31	blb_dichoticlistening_ta-ba.mp3	ta	ba	1	other
6.6.1	win	2023-06-02	08:01:45	0	0	630a2fd6e76ccbe74374656d	2	1	DL_test	14	DL_test	25			0		da	1	5134	6	3	antiphase_hc_soi.wav	1	6	2	noise_calib_stim_LEFT.wav	1	7	blb_dichoticlistening_da-ba.mp3	da	ba	1	left
6.6.1	win	2023-06-02	08:01:45	0	0	630a2fd6e76ccbe74374656d	2	1	DL_test	14	DL_test	26			0		ka	1	1267	6	3	antiphase_hc_soi.wav	1	6	2	noise_calib_stim_LEFT.wav	1	4	blb_dichoticlistening_ba-ka.mp3	ba	ka	1	right
6.6.1	win	2023-06-02	08:01:45	0	0	630a2fd6e76ccbe74374656d	2	1	DL_test	14	DL_test	27			0		pa	1	1229	6	3	antiphase_hc_soi.wav	1	6	2	noise_calib_stim_LEFT.wav	1	17	blb_dichoticlistening_ga-pa.mp3	ga	pa	1	right
6.6.1	win	2023-06-02	08:01:45	0	0	630a2fd6e76ccbe74374656d	2	1	DL_test	14	DL_test	28			0		ka	0	1664	6	3	antiphase_hc_soi.wav	1	6	2	noise_calib_stim_LEFT.wav	1	30	blb_dichoticlistening_pa-ta.mp3	pa	ta	1	other
6.6.1	win	2023-06-02	08:01:45	0	0	630a2fd6e76ccbe74374656d	2	1	DL_test	14	DL_test	29			0		ka	0	2837	6	3	antiphase_hc_soi.wav	1	6	2	noise_calib_stim_LEFT.wav	1	6	blb_dichoticlistening_ba-ta.mp3	ba	ta	1	other
6.6.1	win	2023-06-02	08:01:45	0	0	630a2fd6e76ccbe74374656d	2	1	DL_test	14	DL_test	30			0		pa	1	1245	6	3	antiphase_hc_soi.wav	1	6	2	noise_calib_stim_LEFT.wav	1	35	blb_dichoticlistening_ta-pa.mp3	ta	pa	1	right
6.6.1	win	2023-06-02	08:01:45	0	0	630a2fd6e76ccbe74374656d	2	1	DL_test	14	DL_test	31			0		ka	1	1364	6	3	antiphase_hc_soi.wav	1	6	2	noise_calib_stim_LEFT.wav	1	20	blb_dichoticlistening_ka-da.mp3	ka	da	1	left
6.6.1	win	2023-06-02	08:01:45	0	0	630a2fd6e76ccbe74374656d	2	1	DL_test	14	DL_test	32			0		ga	1	1093	6	3	antiphase_hc_soi.wav	1	6	2	noise_calib_stim_LEFT.wav	1	14	blb_dichoticlistening_ga-da.mp3	ga	da	1	left
6.6.1	win	2023-06-02	08:01:45	0	0	630a2fd6e76ccbe74374656d	2	1	DL_test	14	DL_test	33			0		ka	1	1127	6	3	antiphase_hc_soi.wav	1	6	2	noise_calib_stim_LEFT.wav	1	16	blb_dichoticlistening_ga-ka.mp3	ga	ka	1	right
6.6.1	win	2023-06-02	08:01:45	0	0	630a2fd6e76ccbe74374656d	2	1	DL_test	14	DL_test	34			0		ka	1	1483	6	3	antiphase_hc_soi.wav	1	6	2	noise_calib_stim_LEFT.wav	1	28	blb_dichoticlistening_pa-ka.mp3	pa	ka	1	right
6.6.1	win	2023-06-02	08:01:45	0	0	630a2fd6e76ccbe74374656d	2	1	DL_test	14	DL_test	35			0		ka	1	1278	6	3	antiphase_hc_soi.wav	1	6	2	noise_calib_stim_LEFT.wav	1	24	blb_dichoticlistening_ka-ta.mp3	ka	ta	1	left
6.6.1	win	2023-06-02	08:01:45	0	0	630a2fd6e76ccbe74374656d	2	1	DL_test	14	DL_test	36			0		ga	0	1341	6	3	antiphase_hc_soi.wav	1	6	2	noise_calib_stim_LEFT.wav	1	32	blb_dichoticlistening_ta-da.mp3	ta	da	1	other
6.6.1	win	2023-06-02	08:01:45	0	0	630a2fd6e76ccbe74374656d	2	1	DL_test	15	DL_test	1			0		ka	1	967	6	3	antiphase_hc_soi.wav	1	6	2	noise_calib_stim_LEFT.wav	1	21	blb_dichoticlistening_ka-ga.mp3	ka	ga	1	left
6.6.1	win	2023-06-02	08:01:45	0	0	630a2fd6e76ccbe74374656d	2	1	DL_test	15	DL_test	2			0		pa	1	933	6	3	antiphase_hc_soi.wav	1	6	2	noise_calib_stim_LEFT.wav	1	23	blb_dichoticlistening_ka-pa.mp3	ka	pa	1	right
6.6.1	win	2023-06-02	08:01:45	0	0	630a2fd6e76ccbe74374656d	2	1	DL_test	15	DL_test	3			0		ka	1	938	6	3	antiphase_hc_soi.wav	1	6	2	noise_calib_stim_LEFT.wav	1	34	blb_dichoticlistening_ta-ka.mp3	ta	ka	1	right
6.6.1	win	2023-06-02	08:01:45	0	0	630a2fd6e76ccbe74374656d	2	1	DL_test	15	DL_test	4			0		ga	1	1112	6	3	antiphase_hc_soi.wav	1	6	2	noise_calib_stim_LEFT.wav	1	15	blb_dichoticlistening_ga-ga.mp3	ga	ga	0	left
6.6.1	win	2023-06-02	08:01:45	0	0	630a2fd6e76ccbe74374656d	2	1	DL_test	15	DL_test	5			0		ka	1	1183	6	3	antiphase_hc_soi.wav	1	6	2	noise_calib_stim_LEFT.wav	1	28	blb_dichoticlistening_pa-ka.mp3	pa	ka	1	right
6.6.1	win	2023-06-02	08:01:45	0	0	630a2fd6e76ccbe74374656d	2	1	DL_test	15	DL_test	6			0		ga	1	1430	6	3	antiphase_hc_soi.wav	1	6	2	noise_calib_stim_LEFT.wav	1	3	blb_dichoticlistening_ba-ga.mp3	ba	ga	1	right
6.6.1	win	2023-06-02	08:01:45	0	0	630a2fd6e76ccbe74374656d	2	1	DL_test	15	DL_test	7			0		ka	0	1357	6	3	antiphase_hc_soi.wav	1	6	2	noise_calib_stim_LEFT.wav	1	30	blb_dichoticlistening_pa-ta.mp3	pa	ta	1	other
6.6.1	win	2023-06-02	08:01:45	0	0	630a2fd6e76ccbe74374656d	2	1	DL_test	15	DL_test	8			0		ba	1	1351	6	3	antiphase_hc_soi.wav	1	6	2	noise_calib_stim_LEFT.wav	1	13	blb_dichoticlistening_ga-ba.mp3	ga	ba	1	right
6.6.1	win	2023-06-02	08:01:45	0	0	630a2fd6e76ccbe74374656d	2	1	DL_test	15	DL_test	9			0		pa	1	1536	6	3	antiphase_hc_soi.wav	1	6	2	noise_calib_stim_LEFT.wav	1	11	blb_dichoticlistening_da-pa.mp3	da	pa	1	right
6.6.1	win	2023-06-02	08:01:45	0	0	630a2fd6e76ccbe74374656d	2	1	DL_test	15	DL_test	10			0		ga	0	1509	6	3	antiphase_hc_soi.wav	1	6	2	noise_calib_stim_LEFT.wav	1	7	blb_dichoticlistening_da-ba.mp3	da	ba	1	other
6.6.1	win	2023-06-02	08:01:45	0	0	630a2fd6e76ccbe74374656d	2	1	DL_test	15	DL_test	11			0		pa	1	1483	6	3	antiphase_hc_soi.wav	1	6	2	noise_calib_stim_LEFT.wav	1	25	blb_dichoticlistening_pa-ba.mp3	pa	ba	1	left
6.6.1	win	2023-06-02	08:01:45	0	0	630a2fd6e76ccbe74374656d	2	1	DL_test	15	DL_test	12			0		da	1	2217	6	3	antiphase_hc_soi.wav	1	6	2	noise_calib_stim_LEFT.wav	1	8	blb_dichoticlistening_da-da.mp3	da	da	0	left
6.6.1	win	2023-06-02	08:01:45	0	0	630a2fd6e76ccbe74374656d	2	1	DL_test	15	DL_test	13			0		pa	0	1510	6	3	antiphase_hc_soi.wav	1	6	2	noise_calib_stim_LEFT.wav	1	10	blb_dichoticlistening_da-ka.mp3	da	ka	1	other
6.6.1	win	2023-06-02	08:01:45	0	0	630a2fd6e76ccbe74374656d	2	1	DL_test	15	DL_test	14			0		ka	0	1342	6	3	antiphase_hc_soi.wav	1	6	2	noise_calib_stim_LEFT.wav	1	18	blb_dichoticlistening_ga-ta.mp3	ga	ta	1	other
6.6.1	win	2023-06-02	08:01:45	0	0	630a2fd6e76ccbe74374656d	2	1	DL_test	15	DL_test	15			0		pa	1	1573	6	3	antiphase_hc_soi.wav	1	6	2	noise_calib_stim_LEFT.wav	1	29	blb_dichoticlistening_pa-pa.mp3	pa	pa	0	left
6.6.1	win	2023-06-02	08:01:45	0	0	630a2fd6e76ccbe74374656d	2	1	DL_test	15	DL_test	16			0		pa	1	2220	6	3	antiphase_hc_soi.wav	1	6	2	noise_calib_stim_LEFT.wav	1	26	blb_dichoticlistening_pa-da.mp3	pa	da	1	left
6.6.1	win	2023-06-02	08:01:45	0	0	630a2fd6e76ccbe74374656d	2	1	DL_test	15	DL_test	17			0		pa	1	1139	6	3	antiphase_hc_soi.wav	1	6	2	noise_calib_stim_LEFT.wav	1	5	blb_dichoticlistening_ba-pa.mp3	ba	pa	1	right
6.6.1	win	2023-06-02	08:01:45	0	0	630a2fd6e76ccbe74374656d	2	1	DL_test	15	DL_test	18			0		pa	1	1167	6	3	antiphase_hc_soi.wav	1	6	2	noise_calib_stim_LEFT.wav	1	17	blb_dichoticlistening_ga-pa.mp3	ga	pa	1	right
6.6.1	win	2023-06-02	08:01:45	0	0	630a2fd6e76ccbe74374656d	2	1	DL_test	15	DL_test	19			0		ka	1	2464	6	3	antiphase_hc_soi.wav	1	6	2	noise_calib_stim_LEFT.wav	1	19	blb_dichoticlistening_ka-ba.mp3	ka	ba	1	left
6.6.1	win	2023-06-02	08:01:45	0	0	630a2fd6e76ccbe74374656d	2	1	DL_test	15	DL_test	20			0		ka	0	3175	6	3	antiphase_hc_soi.wav	1	6	2	noise_calib_stim_LEFT.wav	1	31	blb_dichoticlistening_ta-ba.mp3	ta	ba	1	other
6.6.1	win	2023-06-02	08:01:45	0	0	630a2fd6e76ccbe74374656d	2	1	DL_test	15	DL_test	21			0		ka	1	1346	6	3	antiphase_hc_soi.wav	1	6	2	noise_calib_stim_LEFT.wav	1	16	blb_dichoticlistening_ga-ka.mp3	ga	ka	1	right
6.6.1	win	2023-06-02	08:01:45	0	0	630a2fd6e76ccbe74374656d	2	1	DL_test	15	DL_test	22			0		ga	1	1497	6	3	antiphase_hc_soi.wav	1	6	2	noise_calib_stim_LEFT.wav	1	33	blb_dichoticlistening_ta-ga.mp3	ta	ga	1	right
6.6.1	win	2023-06-02	08:01:45	0	0	630a2fd6e76ccbe74374656d	2	1	DL_test	15	DL_test	23			0		ga	0	1656	6	3	antiphase_hc_soi.wav	1	6	2	noise_calib_stim_LEFT.wav	1	2	blb_dichoticlistening_ba-da.mp3	ba	da	1	other
6.6.1	win	2023-06-02	08:01:45	0	0	630a2fd6e76ccbe74374656d	2	1	DL_test	15	DL_test	24			0		pa	1	1509	6	3	antiphase_hc_soi.wav	1	6	2	noise_calib_stim_LEFT.wav	1	27	blb_dichoticlistening_pa-ga.mp3	pa	ga	1	left
6.6.1	win	2023-06-02	08:01:45	0	0	630a2fd6e76ccbe74374656d	2	1	DL_test	15	DL_test	25			0		ta	1	1648	6	3	antiphase_hc_soi.wav	1	6	2	noise_calib_stim_LEFT.wav	1	36	blb_dichoticlistening_ta-ta.mp3	ta	ta	0	left
6.6.1	win	2023-06-02	08:01:45	0	0	630a2fd6e76ccbe74374656d	2	1	DL_test	15	DL_test	26			0		pa	1	1896	6	3	antiphase_hc_soi.wav	1	6	2	noise_calib_stim_LEFT.wav	1	35	blb_dichoticlistening_ta-pa.mp3	ta	pa	1	right
6.6.1	win	2023-06-02	08:01:45	0	0	630a2fd6e76ccbe74374656d	2	1	DL_test	15	DL_test	27			0		ka	1	1553	6	3	antiphase_hc_soi.wav	1	6	2	noise_calib_stim_LEFT.wav	1	4	blb_dichoticlistening_ba-ka.mp3	ba	ka	1	right
6.6.1	win	2023-06-02	08:01:45	0	0	630a2fd6e76ccbe74374656d	2	1	DL_test	15	DL_test	28			0		ga	0	8607	6	3	antiphase_hc_soi.wav	1	6	2	noise_calib_stim_LEFT.wav	1	32	blb_dichoticlistening_ta-da.mp3	ta	da	1	other
6.6.1	win	2023-06-02	08:01:45	0	0	630a2fd6e76ccbe74374656d	2	1	DL_test	15	DL_test	29			0		ta	1	2684	6	3	antiphase_hc_soi.wav	1	6	2	noise_calib_stim_LEFT.wav	1	6	blb_dichoticlistening_ba-ta.mp3	ba	ta	1	right
6.6.1	win	2023-06-02	08:01:45	0	0	630a2fd6e76ccbe74374656d	2	1	DL_test	15	DL_test	30			0		ta	1	1454	6	3	antiphase_hc_soi.wav	1	6	2	noise_calib_stim_LEFT.wav	1	24	blb_dichoticlistening_ka-ta.mp3	ka	ta	1	right
6.6.1	win	2023-06-02	08:01:45	0	0	630a2fd6e76ccbe74374656d	2	1	DL_test	15	DL_test	31			0		ga	1	1566	6	3	antiphase_hc_soi.wav	1	6	2	noise_calib_stim_LEFT.wav	1	9	blb_dichoticlistening_da-ga.mp3	da	ga	1	right
6.6.1	win	2023-06-02	08:01:45	0	0	630a2fd6e76ccbe74374656d	2	1	DL_test	15	DL_test	32			0		ka	1	1693	6	3	antiphase_hc_soi.wav	1	6	2	noise_calib_stim_LEFT.wav	1	22	blb_dichoticlistening_ka-ka.mp3	ka	ka	0	left
6.6.1	win	2023-06-02	08:01:45	0	0	630a2fd6e76ccbe74374656d	2	1	DL_test	15	DL_test	33			0		ga	1	2072	6	3	antiphase_hc_soi.wav	1	6	2	noise_calib_stim_LEFT.wav	1	14	blb_dichoticlistening_ga-da.mp3	ga	da	1	left
6.6.1	win	2023-06-02	08:01:45	0	0	630a2fd6e76ccbe74374656d	2	1	DL_test	15	DL_test	34			0		ka	1	1511	6	3	antiphase_hc_soi.wav	1	6	2	noise_calib_stim_LEFT.wav	1	20	blb_dichoticlistening_ka-da.mp3	ka	da	1	left
6.6.1	win	2023-06-02	08:01:45	0	0	630a2fd6e76ccbe74374656d	2	1	DL_test	15	DL_test	35			0		ta	1	1220	6	3	antiphase_hc_soi.wav	1	6	2	noise_calib_stim_LEFT.wav	1	12	blb_dichoticlistening_da-ta.mp3	da	ta	1	right
6.6.1	win	2023-06-02	08:01:45	0	0	630a2fd6e76ccbe74374656d	2	1	DL_test	15	DL_test	36			0		pa	0	1103	6	3	antiphase_hc_soi.wav	1	6	2	noise_calib_stim_LEFT.wav	1	1	blb_dichoticlistening_ba-ba.mp3	ba	ba	0	other
6.6.1	win	2023-06-02	08:01:45	0	0	630a2fd6e76ccbe74374656d	2	1	DL_test	16	DL_test	1			0		ka	1	1640	6	3	antiphase_hc_soi.wav	1	6	2	noise_calib_stim_LEFT.wav	1	19	blb_dichoticlistening_ka-ba.mp3	ka	ba	1	left
6.6.1	win	2023-06-02	08:01:45	0	0	630a2fd6e76ccbe74374656d	2	1	DL_test	16	DL_test	2			0		ta	1	1719	6	3	antiphase_hc_soi.wav	1	6	2	noise_calib_stim_LEFT.wav	1	24	blb_dichoticlistening_ka-ta.mp3	ka	ta	1	right
6.6.1	win	2023-06-02	08:01:45	0	0	630a2fd6e76ccbe74374656d	2	1	DL_test	16	DL_test	3			0		pa	0	1091	6	3	antiphase_hc_soi.wav	1	6	2	noise_calib_stim_LEFT.wav	1	1	blb_dichoticlistening_ba-ba.mp3	ba	ba	0	other
6.6.1	win	2023-06-02	08:01:45	0	0	630a2fd6e76ccbe74374656d	2	1	DL_test	16	DL_test	4			0		ga	1	1310	6	3	antiphase_hc_soi.wav	1	6	2	noise_calib_stim_LEFT.wav	1	33	blb_dichoticlistening_ta-ga.mp3	ta	ga	1	right
6.6.1	win	2023-06-02	08:01:45	0	0	630a2fd6e76ccbe74374656d	2	1	DL_test	16	DL_test	5			0		pa	1	1161	6	3	antiphase_hc_soi.wav	1	6	2	noise_calib_stim_LEFT.wav	1	5	blb_dichoticlistening_ba-pa.mp3	ba	pa	1	right
6.6.1	win	2023-06-02	08:01:45	0	0	630a2fd6e76ccbe74374656d	2	1	DL_test	16	DL_test	6			0		da	1	1204	6	3	antiphase_hc_soi.wav	1	6	2	noise_calib_stim_LEFT.wav	1	14	blb_dichoticlistening_ga-da.mp3	ga	da	1	right
6.6.1	win	2023-06-02	08:01:45	0	0	630a2fd6e76ccbe74374656d	2	1	DL_test	16	DL_test	7			0		ta	1	1173	6	3	antiphase_hc_soi.wav	1	6	2	noise_calib_stim_LEFT.wav	1	36	blb_dichoticlistening_ta-ta.mp3	ta	ta	0	left
6.6.1	win	2023-06-02	08:01:45	0	0	630a2fd6e76ccbe74374656d	2	1	DL_test	16	DL_test	8			0		ta	1	1068	6	3	antiphase_hc_soi.wav	1	6	2	noise_calib_stim_LEFT.wav	1	32	blb_dichoticlistening_ta-da.mp3	ta	da	1	left
6.6.1	win	2023-06-02	08:01:45	0	0	630a2fd6e76ccbe74374656d	2	1	DL_test	16	DL_test	9			0		ga	1	1583	6	3	antiphase_hc_soi.wav	1	6	2	noise_calib_stim_LEFT.wav	1	27	blb_dichoticlistening_pa-ga.mp3	pa	ga	1	right
6.6.1	win	2023-06-02	08:01:45	0	0	630a2fd6e76ccbe74374656d	2	1	DL_test	16	DL_test	10			0		pa	1	1185	6	3	antiphase_hc_soi.wav	1	6	2	noise_calib_stim_LEFT.wav	1	29	blb_dichoticlistening_pa-pa.mp3	pa	pa	0	left
6.6.1	win	2023-06-02	08:01:45	0	0	630a2fd6e76ccbe74374656d	2	1	DL_test	16	DL_test	11			0		ka	1	1015	6	3	antiphase_hc_soi.wav	1	6	2	noise_calib_stim_LEFT.wav	1	21	blb_dichoticlistening_ka-ga.mp3	ka	ga	1	left
6.6.1	win	2023-06-02	08:01:45	0	0	630a2fd6e76ccbe74374656d	2	1	DL_test	16	DL_test	12			0		pa	0	1087	6	3	antiphase_hc_soi.wav	1	6	2	noise_calib_stim_LEFT.wav	1	31	blb_dichoticlistening_ta-ba.mp3	ta	ba	1	other
6.6.1	win	2023-06-02	08:01:45	0	0	630a2fd6e76ccbe74374656d	2	1	DL_test	16	DL_test	13			0		ta	1	1402	6	3	antiphase_hc_soi.wav	1	6	2	noise_calib_stim_LEFT.wav	1	6	blb_dichoticlistening_ba-ta.mp3	ba	ta	1	right
6.6.1	win	2023-06-02	08:01:45	0	0	630a2fd6e76ccbe74374656d	2	1	DL_test	16	DL_test	14			0		ka	1	1306	6	3	antiphase_hc_soi.wav	1	6	2	noise_calib_stim_LEFT.wav	1	20	blb_dichoticlistening_ka-da.mp3	ka	da	1	left
6.6.1	win	2023-06-02	08:01:45	0	0	630a2fd6e76ccbe74374656d	2	1	DL_test	16	DL_test	15			0		ga	1	1029	6	3	antiphase_hc_soi.wav	1	6	2	noise_calib_stim_LEFT.wav	1	3	blb_dichoticlistening_ba-ga.mp3	ba	ga	1	right
6.6.1	win	2023-06-02	08:01:45	0	0	630a2fd6e76ccbe74374656d	2	1	DL_test	16	DL_test	16			0		pa	1	1137	6	3	antiphase_hc_soi.wav	1	6	2	noise_calib_stim_LEFT.wav	1	35	blb_dichoticlistening_ta-pa.mp3	ta	pa	1	right
6.6.1	win	2023-06-02	08:01:45	0	0	630a2fd6e76ccbe74374656d	2	1	DL_test	16	DL_test	17			0		pa	0	1245	6	3	antiphase_hc_soi.wav	1	6	2	noise_calib_stim_LEFT.wav	1	10	blb_dichoticlistening_da-ka.mp3	da	ka	1	other
6.6.1	win	2023-06-02	08:01:45	0	0	630a2fd6e76ccbe74374656d	2	1	DL_test	16	DL_test	18			0		da	1	1410	6	3	antiphase_hc_soi.wav	1	6	2	noise_calib_stim_LEFT.wav	1	7	blb_dichoticlistening_da-ba.mp3	da	ba	1	left
6.6.1	win	2023-06-02	08:01:45	0	0	630a2fd6e76ccbe74374656d	2	1	DL_test	16	DL_test	19			0		pa	1	1318	6	3	antiphase_hc_soi.wav	1	6	2	noise_calib_stim_LEFT.wav	1	11	blb_dichoticlistening_da-pa.mp3	da	pa	1	right
6.6.1	win	2023-06-02	08:01:45	0	0	630a2fd6e76ccbe74374656d	2	1	DL_test	16	DL_test	20			0		da	1	1251	6	3	antiphase_hc_soi.wav	1	6	2	noise_calib_stim_LEFT.wav	1	8	blb_dichoticlistening_da-da.mp3	da	da	0	left
6.6.1	win	2023-06-02	08:01:45	0	0	630a2fd6e76ccbe74374656d	2	1	DL_test	16	DL_test	21			0		da	1	1876	6	3	antiphase_hc_soi.wav	1	6	2	noise_calib_stim_LEFT.wav	1	2	blb_dichoticlistening_ba-da.mp3	ba	da	1	right
6.6.1	win	2023-06-02	08:01:45	0	0	630a2fd6e76ccbe74374656d	2	1	DL_test	16	DL_test	22			0		ba	1	1583	6	3	antiphase_hc_soi.wav	1	6	2	noise_calib_stim_LEFT.wav	1	13	blb_dichoticlistening_ga-ba.mp3	ga	ba	1	right
6.6.1	win	2023-06-02	08:01:45	0	0	630a2fd6e76ccbe74374656d	2	1	DL_test	16	DL_test	23			0		pa	1	1484	6	3	antiphase_hc_soi.wav	1	6	2	noise_calib_stim_LEFT.wav	1	26	blb_dichoticlistening_pa-da.mp3	pa	da	1	left
6.6.1	win	2023-06-02	08:01:45	0	0	630a2fd6e76ccbe74374656d	2	1	DL_test	16	DL_test	24			0		pa	1	851	6	3	antiphase_hc_soi.wav	1	6	2	noise_calib_stim_LEFT.wav	1	25	blb_dichoticlistening_pa-ba.mp3	pa	ba	1	left
6.6.1	win	2023-06-02	08:01:45	0	0	630a2fd6e76ccbe74374656d	2	1	DL_test	16	DL_test	25			0		ka	1	995	6	3	antiphase_hc_soi.wav	1	6	2	noise_calib_stim_LEFT.wav	1	34	blb_dichoticlistening_ta-ka.mp3	ta	ka	1	right
6.6.1	win	2023-06-02	08:01:45	0	0	630a2fd6e76ccbe74374656d	2	1	DL_test	16	DL_test	26			0		ta	1	1153	6	3	antiphase_hc_soi.wav	1	6	2	noise_calib_stim_LEFT.wav	1	12	blb_dichoticlistening_da-ta.mp3	da	ta	1	right
6.6.1	win	2023-06-02	08:01:45	0	0	630a2fd6e76ccbe74374656d	2	1	DL_test	16	DL_test	27			0		pa	1	803	6	3	antiphase_hc_soi.wav	1	6	2	noise_calib_stim_LEFT.wav	1	17	blb_dichoticlistening_ga-pa.mp3	ga	pa	1	right
6.6.1	win	2023-06-02	08:01:45	0	0	630a2fd6e76ccbe74374656d	2	1	DL_test	16	DL_test	28			0		pa	1	1062	6	3	antiphase_hc_soi.wav	1	6	2	noise_calib_stim_LEFT.wav	1	23	blb_dichoticlistening_ka-pa.mp3	ka	pa	1	right
6.6.1	win	2023-06-02	08:01:45	0	0	630a2fd6e76ccbe74374656d	2	1	DL_test	16	DL_test	29			0		ka	0	1117	6	3	antiphase_hc_soi.wav	1	6	2	noise_calib_stim_LEFT.wav	1	18	blb_dichoticlistening_ga-ta.mp3	ga	ta	1	other
6.6.1	win	2023-06-02	08:01:45	0	0	630a2fd6e76ccbe74374656d	2	1	DL_test	16	DL_test	30			0		ta	1	1141	6	3	antiphase_hc_soi.wav	1	6	2	noise_calib_stim_LEFT.wav	1	30	blb_dichoticlistening_pa-ta.mp3	pa	ta	1	right
6.6.1	win	2023-06-02	08:01:45	0	0	630a2fd6e76ccbe74374656d	2	1	DL_test	16	DL_test	31			0		ka	1	1358	6	3	antiphase_hc_soi.wav	1	6	2	noise_calib_stim_LEFT.wav	1	4	blb_dichoticlistening_ba-ka.mp3	ba	ka	1	right
6.6.1	win	2023-06-02	08:01:45	0	0	630a2fd6e76ccbe74374656d	2	1	DL_test	16	DL_test	32			0		ta	0	1327	6	3	antiphase_hc_soi.wav	1	6	2	noise_calib_stim_LEFT.wav	1	28	blb_dichoticlistening_pa-ka.mp3	pa	ka	1	other
6.6.1	win	2023-06-02	08:01:45	0	0	630a2fd6e76ccbe74374656d	2	1	DL_test	16	DL_test	33			0		ka	1	1253	6	3	antiphase_hc_soi.wav	1	6	2	noise_calib_stim_LEFT.wav	1	16	blb_dichoticlistening_ga-ka.mp3	ga	ka	1	right
6.6.1	win	2023-06-02	08:01:45	0	0	630a2fd6e76ccbe74374656d	2	1	DL_test	16	DL_test	34			0		ga	1	1067	6	3	antiphase_hc_soi.wav	1	6	2	noise_calib_stim_LEFT.wav	1	15	blb_dichoticlistening_ga-ga.mp3	ga	ga	0	left
6.6.1	win	2023-06-02	08:01:45	0	0	630a2fd6e76ccbe74374656d	2	1	DL_test	16	DL_test	35			0		ka	1	1046	6	3	antiphase_hc_soi.wav	1	6	2	noise_calib_stim_LEFT.wav	1	22	blb_dichoticlistening_ka-ka.mp3	ka	ka	0	left
6.6.1	win	2023-06-02	08:01:45	0	0	630a2fd6e76ccbe74374656d	2	1	DL_test	16	DL_test	36			0		ga	1	1218	6	3	antiphase_hc_soi.wav	1	6	2	noise_calib_stim_LEFT.wav	1	9	blb_dichoticlistening_da-ga.mp3	da	ga	1	right
6.6.1	win	2023-06-02	08:01:45	08:21:32	1181630	630a2fd6e76ccbe74374656d	2	1	practice_z	22	practice_z	1	stimuli_distractor_trianglediamonds.svg	stimuli_distractor_trianglediamonds.svg	15	no	0	1	2000	6	3	antiphase_hc_soi.wav	1	6	2	noise_calib_stim_LEFT.wav	1	9	blb_dichoticlistening_da-ga.mp3	da	ga	1	right
6.6.1	win	2023-06-02	08:01:45	08:21:32	1181630	630a2fd6e76ccbe74374656d	2	1	practice_z	22	advance_on_keypress_ZEE	2	stimuli_distractor_trianglediamonds.svg	stimuli_distractor_trianglediamonds.svg	15	no	57	0	4450	6	3	antiphase_hc_soi.wav	1	6	2	noise_calib_stim_LEFT.wav	1	9	blb_dichoticlistening_da-ga.mp3	da	ga	1	right
6.6.1	win	2023-06-02	08:01:45	08:21:40	1189737	630a2fd6e76ccbe74374656d	2	1	practice_z	22	practice_z	3	stimuli_target_rectanglediamonds.svg	stimuli_distractor_trianglediamonds.svg	4	yes	0	0	2000	6	3	antiphase_hc_soi.wav	1	6	2	noise_calib_stim_LEFT.wav	1	9	blb_dichoticlistening_da-ga.mp3	da	ga	1	right
6.6.1	win	2023-06-02	08:01:45	08:21:40	1189737	630a2fd6e76ccbe74374656d	2	1	practice_z	22	advance_on_keypress_ZEE	4	stimuli_target_rectanglediamonds.svg	stimuli_distractor_trianglediamonds.svg	4	yes	57	0	1468	6	3	antiphase_hc_soi.wav	1	6	2	noise_calib_stim_LEFT.wav	1	9	blb_dichoticlistening_da-ga.mp3	da	ga	1	right
6.6.1	win	2023-06-02	08:01:45	08:21:44	1193860	630a2fd6e76ccbe74374656d	2	1	practice_z	22	practice_z	5	stimuli_target_diamondsquares.svg	stimuli_distractor_diamondtriangles.svg	3	yes	44	1	1030	6	3	antiphase_hc_soi.wav	1	6	2	noise_calib_stim_LEFT.wav	1	9	blb_dichoticlistening_da-ga.mp3	da	ga	1	right
6.6.1	win	2023-06-02	08:01:45	08:21:44	1193860	630a2fd6e76ccbe74374656d	2	1	practice_z	22	advance_on_keypress_ZEE	6	stimuli_target_diamondsquares.svg	stimuli_distractor_diamondtriangles.svg	3	yes	57	0	1250	6	3	antiphase_hc_soi.wav	1	6	2	noise_calib_stim_LEFT.wav	1	9	blb_dichoticlistening_da-ga.mp3	da	ga	1	right
6.6.1	win	2023-06-02	08:01:45	08:21:48	1197410	630a2fd6e76ccbe74374656d	2	1	practice_z	22	practice_z	7	stimuli_target_squarediamonds.svg	stimuli_distractor_trianglediamonds.svg	5	yes	44	1	672	6	3	antiphase_hc_soi.wav	1	6	2	noise_calib_stim_LEFT.wav	1	9	blb_dichoticlistening_da-ga.mp3	da	ga	1	right
6.6.1	win	2023-06-02	08:01:45	08:21:48	1197410	630a2fd6e76ccbe74374656d	2	1	practice_z	22	advance_on_keypress_ZEE	8	stimuli_target_squarediamonds.svg	stimuli_distractor_trianglediamonds.svg	5	yes	57	0	315	6	3	antiphase_hc_soi.wav	1	6	2	noise_calib_stim_LEFT.wav	1	9	blb_dichoticlistening_da-ga.mp3	da	ga	1	right
6.6.1	win	2023-06-02	08:01:45	08:21:50	1199879	630a2fd6e76ccbe74374656d	2	1	practice_z	22	practice_z	9	stimuli_distractor_trianglediamonds.svg	stimuli_target_rectanglediamonds.svg	10	yes	44	1	535	6	3	antiphase_hc_soi.wav	1	6	2	noise_calib_stim_LEFT.wav	1	9	blb_dichoticlistening_da-ga.mp3	da	ga	1	right
6.6.1	win	2023-06-02	08:01:45	08:21:50	1199879	630a2fd6e76ccbe74374656d	2	1	practice_z	22	advance_on_keypress_ZEE	10	stimuli_distractor_trianglediamonds.svg	stimuli_target_rectanglediamonds.svg	10	yes	57	0	337	6	3	antiphase_hc_soi.wav	1	6	2	noise_calib_stim_LEFT.wav	1	9	blb_dichoticlistening_da-ga.mp3	da	ga	1	right
6.6.1	win	2023-06-02	08:01:45	08:21:53	1202508	630a2fd6e76ccbe74374656d	2	1	practice_z	22	practice_z	11	stimuli_target_squarediamonds.svg	stimuli_distractor_diamondtriangles.svg	2	yes	44	1	666	6	3	antiphase_hc_soi.wav	1	6	2	noise_calib_stim_LEFT.wav	1	9	blb_dichoticlistening_da-ga.mp3	da	ga	1	right
6.6.1	win	2023-06-02	08:01:45	08:21:53	1202508	630a2fd6e76ccbe74374656d	2	1	practice_z	22	advance_on_keypress_ZEE	12	stimuli_target_squarediamonds.svg	stimuli_distractor_diamondtriangles.svg	2	yes	57	0	376	6	3	antiphase_hc_soi.wav	1	6	2	noise_calib_stim_LEFT.wav	1	9	blb_dichoticlistening_da-ga.mp3	da	ga	1	right
6.6.1	win	2023-06-02	08:01:45	08:21:57	1206513	630a2fd6e76ccbe74374656d	2	1	practice_z	22	practice_z	13	stimuli_distractor_trianglediamonds.svg	stimuli_distractor_diamondtriangles.svg	16	no	0	1	2000	6	3	antiphase_hc_soi.wav	1	6	2	noise_calib_stim_LEFT.wav	1	9	blb_dichoticlistening_da-ga.mp3	da	ga	1	right
6.6.1	win	2023-06-02	08:01:45	08:21:57	1206513	630a2fd6e76ccbe74374656d	2	1	practice_z	22	advance_on_keypress_ZEE	14	stimuli_distractor_trianglediamonds.svg	stimuli_distractor_diamondtriangles.svg	16	no	57	0	296	6	3	antiphase_hc_soi.wav	1	6	2	noise_calib_stim_LEFT.wav	1	9	blb_dichoticlistening_da-ga.mp3	da	ga	1	right
6.6.1	win	2023-06-02	08:01:45	08:22:00	1209890	630a2fd6e76ccbe74374656d	2	1	practice_z	22	practice_z	15	stimuli_distractor_trianglediamonds.svg	stimuli_target_diamondrectangles.svg	12	yes	44	1	1408	6	3	antiphase_hc_soi.wav	1	6	2	noise_calib_stim_LEFT.wav	1	9	blb_dichoticlistening_da-ga.mp3	da	ga	1	right
6.6.1	win	2023-06-02	08:01:45	08:22:00	1209890	630a2fd6e76ccbe74374656d	2	1	practice_z	22	advance_on_keypress_ZEE	16	stimuli_distractor_trianglediamonds.svg	stimuli_target_diamondrectangles.svg	12	yes	57	0	751	6	3	antiphase_hc_soi.wav	1	6	2	noise_calib_stim_LEFT.wav	1	9	blb_dichoticlistening_da-ga.mp3	da	ga	1	right
6.6.1	win	2023-06-02	08:01:45	08:22:03	1213175	630a2fd6e76ccbe74374656d	2	1	practice_z	22	practice_z	17	stimuli_distractor_diamondtriangles.svg	stimuli_target_diamondrectangles.svg	8	yes	44	1	910	6	3	antiphase_hc_soi.wav	1	6	2	noise_calib_stim_LEFT.wav	1	9	blb_dichoticlistening_da-ga.mp3	da	ga	1	right
6.6.1	win	2023-06-02	08:01:45	08:22:03	1213175	630a2fd6e76ccbe74374656d	2	1	practice_z	22	advance_on_keypress_ZEE	18	stimuli_distractor_diamondtriangles.svg	stimuli_target_diamondrectangles.svg	8	yes	57	0	544	6	3	antiphase_hc_soi.wav	1	6	2	noise_calib_stim_LEFT.wav	1	9	blb_dichoticlistening_da-ga.mp3	da	ga	1	right
6.6.1	win	2023-06-02	08:01:45	08:22:06	1216089	630a2fd6e76ccbe74374656d	2	1	practice_z	22	practice_z	19	stimuli_distractor_trianglediamonds.svg	stimuli_target_squarediamonds.svg	11	yes	44	1	747	6	3	antiphase_hc_soi.wav	1	6	2	noise_calib_stim_LEFT.wav	1	9	blb_dichoticlistening_da-ga.mp3	da	ga	1	right
6.6.1	win	2023-06-02	08:01:45	08:22:06	1216089	630a2fd6e76ccbe74374656d	2	1	practice_z	22	advance_on_keypress_ZEE	20	stimuli_distractor_trianglediamonds.svg	stimuli_target_squarediamonds.svg	11	yes	57	0	280	6	3	antiphase_hc_soi.wav	1	6	2	noise_calib_stim_LEFT.wav	1	9	blb_dichoticlistening_da-ga.mp3	da	ga	1	right
6.6.1	win	2023-06-02	08:01:45	08:22:10	1219951	630a2fd6e76ccbe74374656d	2	1	practice_z	22	practice_z	21	stimuli_distractor_diamondtriangles.svg	stimuli_target_trianglerectangles.svg	9	yes	44	1	1953	6	3	antiphase_hc_soi.wav	1	6	2	noise_calib_stim_LEFT.wav	1	9	blb_dichoticlistening_da-ga.mp3	da	ga	1	right
6.6.1	win	2023-06-02	08:01:45	08:22:10	1219951	630a2fd6e76ccbe74374656d	2	1	practice_z	22	advance_on_keypress_ZEE	22	stimuli_distractor_diamondtriangles.svg	stimuli_target_trianglerectangles.svg	9	yes	57	0	308	6	3	antiphase_hc_soi.wav	1	6	2	noise_calib_stim_LEFT.wav	1	9	blb_dichoticlistening_da-ga.mp3	da	ga	1	right
6.6.1	win	2023-06-02	08:01:45	08:22:14	1223882	630a2fd6e76ccbe74374656d	2	1	practice_z	22	practice_z	23	stimuli_distractor_diamondtriangles.svg	stimuli_distractor_trianglediamonds.svg	14	no	0	1	2000	6	3	antiphase_hc_soi.wav	1	6	2	noise_calib_stim_LEFT.wav	1	9	blb_dichoticlistening_da-ga.mp3	da	ga	1	right
6.6.1	win	2023-06-02	08:01:45	08:22:14	1223882	630a2fd6e76ccbe74374656d	2	1	practice_z	22	advance_on_keypress_ZEE	24	stimuli_distractor_diamondtriangles.svg	stimuli_distractor_trianglediamonds.svg	14	no	57	0	506	6	3	antiphase_hc_soi.wav	1	6	2	noise_calib_stim_LEFT.wav	1	9	blb_dichoticlistening_da-ga.mp3	da	ga	1	right
6.6.1	win	2023-06-02	08:01:45	08:22:18	1228015	630a2fd6e76ccbe74374656d	2	1	practice_z	22	practice_z	25	stimuli_distractor_diamondtriangles.svg	stimuli_distractor_diamondtriangles.svg	13	no	0	1	2000	6	3	antiphase_hc_soi.wav	1	6	2	noise_calib_stim_LEFT.wav	1	9	blb_dichoticlistening_da-ga.mp3	da	ga	1	right
6.6.1	win	2023-06-02	08:01:45	08:22:18	1228015	630a2fd6e76ccbe74374656d	2	1	practice_z	22	advance_on_keypress_ZEE	26	stimuli_distractor_diamondtriangles.svg	stimuli_distractor_diamondtriangles.svg	13	no	57	0	241	6	3	antiphase_hc_soi.wav	1	6	2	noise_calib_stim_LEFT.wav	1	9	blb_dichoticlistening_da-ga.mp3	da	ga	1	right
6.6.1	win	2023-06-02	08:01:45	08:22:21	1230537	630a2fd6e76ccbe74374656d	2	1	practice_z	22	practice_z	27	stimuli_target_diamondsquares.svg	stimuli_distractor_trianglediamonds.svg	6	yes	44	1	655	6	3	antiphase_hc_soi.wav	1	6	2	noise_calib_stim_LEFT.wav	1	9	blb_dichoticlistening_da-ga.mp3	da	ga	1	right
6.6.1	win	2023-06-02	08:01:45	08:22:21	1230537	630a2fd6e76ccbe74374656d	2	1	practice_z	22	advance_on_keypress_ZEE	28	stimuli_target_diamondsquares.svg	stimuli_distractor_trianglediamonds.svg	6	yes	57	0	313	6	3	antiphase_hc_soi.wav	1	6	2	noise_calib_stim_LEFT.wav	1	9	blb_dichoticlistening_da-ga.mp3	da	ga	1	right
6.6.1	win	2023-06-02	08:01:45	08:22:24	1233321	630a2fd6e76ccbe74374656d	2	1	practice_z	22	practice_z	29	stimuli_distractor_diamondtriangles.svg	stimuli_target_rectangletriangles.svg	7	yes	44	1	840	6	3	antiphase_hc_soi.wav	1	6	2	noise_calib_stim_LEFT.wav	1	9	blb_dichoticlistening_da-ga.mp3	da	ga	1	right
6.6.1	win	2023-06-02	08:01:45	08:22:24	1233321	630a2fd6e76ccbe74374656d	2	1	practice_z	22	advance_on_keypress_ZEE	30	stimuli_distractor_diamondtriangles.svg	stimuli_target_rectangletriangles.svg	7	yes	57	0	993	6	3	antiphase_hc_soi.wav	1	6	2	noise_calib_stim_LEFT.wav	1	9	blb_dichoticlistening_da-ga.mp3	da	ga	1	right
6.6.1	win	2023-06-02	08:01:45	08:22:27	1236845	630a2fd6e76ccbe74374656d	2	1	practice_z	22	practice_z	31	stimuli_target_rectanglediamonds.svg	stimuli_distractor_diamondtriangles.svg	1	yes	44	1	860	6	3	antiphase_hc_soi.wav	1	6	2	noise_calib_stim_LEFT.wav	1	9	blb_dichoticlistening_da-ga.mp3	da	ga	1	right
6.6.1	win	2023-06-02	08:01:45	08:22:27	1236845	630a2fd6e76ccbe74374656d	2	1	practice_z	22	advance_on_keypress_ZEE	32	stimuli_target_rectanglediamonds.svg	stimuli_distractor_diamondtriangles.svg	1	yes	57	0	153	6	3	antiphase_hc_soi.wav	1	6	2	noise_calib_stim_LEFT.wav	1	9	blb_dichoticlistening_da-ga.mp3	da	ga	1	right
6.6.1	win	2023-06-02	08:01:45	08:22:33	1242388	630a2fd6e76ccbe74374656d	2	1	main_z	24	main_z	1	stimuli_distractor_trianglediamonds.svg	stimuli_target_trianglerectangles.svg	25	yes	44	1	812	6	3	antiphase_hc_soi.wav	1	6	2	noise_calib_stim_LEFT.wav	1	9	blb_dichoticlistening_da-ga.mp3	da	ga	1	right
6.6.1	win	2023-06-02	08:01:45	08:22:33	1242388	630a2fd6e76ccbe74374656d	2	1	main_z	24	advance_on_keypress_ZEE	2	stimuli_distractor_trianglediamonds.svg	stimuli_target_trianglerectangles.svg	25	yes	57	0	593	6	3	antiphase_hc_soi.wav	1	6	2	noise_calib_stim_LEFT.wav	1	9	blb_dichoticlistening_da-ga.mp3	da	ga	1	right
6.6.1	win	2023-06-02	08:01:45	08:22:35	1244667	630a2fd6e76ccbe74374656d	2	1	main_z	24	main_z	3	stimuli_target_diamondrectangles.svg	stimuli_distractor_trianglediamonds.svg	19	yes	44	1	1061	6	3	antiphase_hc_soi.wav	1	6	2	noise_calib_stim_LEFT.wav	1	9	blb_dichoticlistening_da-ga.mp3	da	ga	1	right
6.6.1	win	2023-06-02	08:01:45	08:22:35	1244667	630a2fd6e76ccbe74374656d	2	1	main_z	24	advance_on_keypress_ZEE	4	stimuli_target_diamondrectangles.svg	stimuli_distractor_trianglediamonds.svg	19	yes	57	0	494	6	3	antiphase_hc_soi.wav	1	6	2	noise_calib_stim_LEFT.wav	1	9	blb_dichoticlistening_da-ga.mp3	da	ga	1	right
6.6.1	win	2023-06-02	08:01:45	08:22:37	1246476	630a2fd6e76ccbe74374656d	2	1	main_z	24	main_z	5	stimuli_distractor_trianglediamonds.svg	stimuli_target_diamondsquares.svg	28	yes	44	1	694	6	3	antiphase_hc_soi.wav	1	6	2	noise_calib_stim_LEFT.wav	1	9	blb_dichoticlistening_da-ga.mp3	da	ga	1	right
6.6.1	win	2023-06-02	08:01:45	08:22:37	1246476	630a2fd6e76ccbe74374656d	2	1	main_z	24	advance_on_keypress_ZEE	6	stimuli_distractor_trianglediamonds.svg	stimuli_target_diamondsquares.svg	28	yes	57	0	366	6	3	antiphase_hc_soi.wav	1	6	2	noise_calib_stim_LEFT.wav	1	9	blb_dichoticlistening_da-ga.mp3	da	ga	1	right
6.6.1	win	2023-06-02	08:01:45	08:22:40	1249466	630a2fd6e76ccbe74374656d	2	1	main_z	24	main_z	7	stimuli_distractor_diamondtriangles.svg	stimuli_distractor_diamondtriangles.svg	39	no	0	1	2000	6	3	antiphase_hc_soi.wav	1	6	2	noise_calib_stim_LEFT.wav	1	9	blb_dichoticlistening_da-ga.mp3	da	ga	1	right
6.6.1	win	2023-06-02	08:01:45	08:22:40	1249466	630a2fd6e76ccbe74374656d	2	1	main_z	24	advance_on_keypress_ZEE	8	stimuli_distractor_diamondtriangles.svg	stimuli_distractor_diamondtriangles.svg	39	no	57	0	659	6	3	antiphase_hc_soi.wav	1	6	2	noise_calib_stim_LEFT.wav	1	9	blb_dichoticlistening_da-ga.mp3	da	ga	1	right
6.6.1	win	2023-06-02	08:01:45	08:22:42	1251427	630a2fd6e76ccbe74374656d	2	1	main_z	24	main_z	9	stimuli_distractor_trianglediamonds.svg	stimuli_target_diamondrectangles.svg	27	yes	44	1	682	6	3	antiphase_hc_soi.wav	1	6	2	noise_calib_stim_LEFT.wav	1	9	blb_dichoticlistening_da-ga.mp3	da	ga	1	right
6.6.1	win	2023-06-02	08:01:45	08:22:42	1251427	630a2fd6e76ccbe74374656d	2	1	main_z	24	advance_on_keypress_ZEE	10	stimuli_distractor_trianglediamonds.svg	stimuli_target_diamondrectangles.svg	27	yes	57	0	102	6	3	antiphase_hc_soi.wav	1	6	2	noise_calib_stim_LEFT.wav	1	9	blb_dichoticlistening_da-ga.mp3	da	ga	1	right
6.6.1	win	2023-06-02	08:01:45	08:22:43	1252916	630a2fd6e76ccbe74374656d	2	1	main_z	24	main_z	11	stimuli_distractor_trianglediamonds.svg	stimuli_target_rectanglediamonds.svg	10	yes	44	1	765	6	3	antiphase_hc_soi.wav	1	6	2	noise_calib_stim_LEFT.wav	1	9	blb_dichoticlistening_da-ga.mp3	da	ga	1	right
6.6.1	win	2023-06-02	08:01:45	08:22:43	1252916	630a2fd6e76ccbe74374656d	2	1	main_z	24	advance_on_keypress_ZEE	12	stimuli_distractor_trianglediamonds.svg	stimuli_target_rectanglediamonds.svg	10	yes	57	0	242	6	3	antiphase_hc_soi.wav	1	6	2	noise_calib_stim_LEFT.wav	1	9	blb_dichoticlistening_da-ga.mp3	da	ga	1	right
6.6.1	win	2023-06-02	08:01:45	08:22:45	1254737	630a2fd6e76ccbe74374656d	2	1	main_z	24	main_z	13	stimuli_target_trianglerectangles.svg	stimuli_distractor_diamondtriangles.svg	21	yes	44	1	962	6	3	antiphase_hc_soi.wav	1	6	2	noise_calib_stim_LEFT.wav	1	9	blb_dichoticlistening_da-ga.mp3	da	ga	1	right
6.6.1	win	2023-06-02	08:01:45	08:22:45	1254737	630a2fd6e76ccbe74374656d	2	1	main_z	24	advance_on_keypress_ZEE	14	stimuli_target_trianglerectangles.svg	stimuli_distractor_diamondtriangles.svg	21	yes	57	0	148	6	3	antiphase_hc_soi.wav	1	6	2	noise_calib_stim_LEFT.wav	1	9	blb_dichoticlistening_da-ga.mp3	da	ga	1	right
6.6.1	win	2023-06-02	08:01:45	08:22:47	1256555	630a2fd6e76ccbe74374656d	2	1	main_z	24	main_z	15	stimuli_target_diamondsquares.svg	stimuli_distractor_diamondtriangles.svg	24	yes	44	1	1046	6	3	antiphase_hc_soi.wav	1	6	2	noise_calib_stim_LEFT.wav	1	9	blb_dichoticlistening_da-ga.mp3	da	ga	1	right
6.6.1	win	2023-06-02	08:01:45	08:22:47	1256555	630a2fd6e76ccbe74374656d	2	1	main_z	24	advance_on_keypress_ZEE	16	stimuli_target_diamondsquares.svg	stimuli_distractor_diamondtriangles.svg	24	yes	57	0	260	6	3	antiphase_hc_soi.wav	1	6	2	noise_calib_stim_LEFT.wav	1	9	blb_dichoticlistening_da-ga.mp3	da	ga	1	right
6.6.1	win	2023-06-02	08:01:45	08:22:49	1258551	630a2fd6e76ccbe74374656d	2	1	main_z	24	main_z	17	stimuli_target_rectangletriangles.svg	stimuli_distractor_diamondtriangles.svg	5	yes	44	1	1115	6	3	antiphase_hc_soi.wav	1	6	2	noise_calib_stim_LEFT.wav	1	9	blb_dichoticlistening_da-ga.mp3	da	ga	1	right
6.6.1	win	2023-06-02	08:01:45	08:22:49	1258551	630a2fd6e76ccbe74374656d	2	1	main_z	24	advance_on_keypress_ZEE	18	stimuli_target_rectangletriangles.svg	stimuli_distractor_diamondtriangles.svg	5	yes	57	0	890	6	3	antiphase_hc_soi.wav	1	6	2	noise_calib_stim_LEFT.wav	1	9	blb_dichoticlistening_da-ga.mp3	da	ga	1	right
6.6.1	win	2023-06-02	08:01:45	08:22:51	1260937	630a2fd6e76ccbe74374656d	2	1	main_z	24	main_z	19	stimuli_target_squarediamonds.svg	stimuli_distractor_diamondtriangles.svg	8	yes	44	1	877	6	3	antiphase_hc_soi.wav	1	6	2	noise_calib_stim_LEFT.wav	1	9	blb_dichoticlistening_da-ga.mp3	da	ga	1	right
6.6.1	win	2023-06-02	08:01:45	08:22:51	1260937	630a2fd6e76ccbe74374656d	2	1	main_z	24	advance_on_keypress_ZEE	20	stimuli_target_squarediamonds.svg	stimuli_distractor_diamondtriangles.svg	8	yes	57	0	1050	6	3	antiphase_hc_soi.wav	1	6	2	noise_calib_stim_LEFT.wav	1	9	blb_dichoticlistening_da-ga.mp3	da	ga	1	right
6.6.1	win	2023-06-02	08:01:45	08:22:55	1264611	630a2fd6e76ccbe74374656d	2	1	main_z	24	main_z	21	stimuli_distractor_trianglediamonds.svg	stimuli_distractor_trianglediamonds.svg	34	no	0	1	2000	6	3	antiphase_hc_soi.wav	1	6	2	noise_calib_stim_LEFT.wav	1	9	blb_dichoticlistening_da-ga.mp3	da	ga	1	right
6.6.1	win	2023-06-02	08:01:45	08:22:55	1264611	630a2fd6e76ccbe74374656d	2	1	main_z	24	advance_on_keypress_ZEE	22	stimuli_distractor_trianglediamonds.svg	stimuli_distractor_trianglediamonds.svg	34	no	57	0	610	6	3	antiphase_hc_soi.wav	1	6	2	noise_calib_stim_LEFT.wav	1	9	blb_dichoticlistening_da-ga.mp3	da	ga	1	right
6.6.1	win	2023-06-02	08:01:45	08:22:57	1266520	630a2fd6e76ccbe74374656d	2	1	main_z	24	main_z	23	stimuli_target_diamondrectangles.svg	stimuli_distractor_diamondtriangles.svg	23	yes	44	1	678	6	3	antiphase_hc_soi.wav	1	6	2	noise_calib_stim_LEFT.wav	1	9	blb_dichoticlistening_da-ga.mp3	da	ga	1	right
6.6.1	win	2023-06-02	08:01:45	08:22:57	1266520	630a2fd6e76ccbe74374656d	2	1	main_z	24	advance_on_keypress_ZEE	24	stimuli_target_diamondrectangles.svg	stimuli_distractor_diamondtriangles.svg	23	yes	57	0	486	6	3	antiphase_hc_soi.wav	1	6	2	noise_calib_stim_LEFT.wav	1	9	blb_dichoticlistening_da-ga.mp3	da	ga	1	right
6.6.1	win	2023-06-02	08:01:45	08:22:59	1268389	630a2fd6e76ccbe74374656d	2	1	main_z	24	main_z	25	stimuli_distractor_diamondtriangles.svg	stimuli_target_trianglerectangles.svg	29	yes	44	1	760	6	3	antiphase_hc_soi.wav	1	6	2	noise_calib_stim_LEFT.wav	1	9	blb_dichoticlistening_da-ga.mp3	da	ga	1	right
6.6.1	win	2023-06-02	08:01:45	08:22:59	1268389	630a2fd6e76ccbe74374656d	2	1	main_z	24	advance_on_keypress_ZEE	26	stimuli_distractor_diamondtriangles.svg	stimuli_target_trianglerectangles.svg	29	yes	57	0	218	6	3	antiphase_hc_soi.wav	1	6	2	noise_calib_stim_LEFT.wav	1	9	blb_dichoticlistening_da-ga.mp3	da	ga	1	right
6.6.1	win	2023-06-02	08:01:45	08:23:01	1271235	630a2fd6e76ccbe74374656d	2	1	main_z	24	main_z	27	stimuli_distractor_trianglediamonds.svg	stimuli_target_squaretriangles.svg	11	yes	0	0	2000	6	3	antiphase_hc_soi.wav	1	6	2	noise_calib_stim_LEFT.wav	1	9	blb_dichoticlistening_da-ga.mp3	da	ga	1	right
6.6.1	win	2023-06-02	08:01:45	08:23:01	1271235	630a2fd6e76ccbe74374656d	2	1	main_z	24	advance_on_keypress_ZEE	28	stimuli_distractor_trianglediamonds.svg	stimuli_target_squaretriangles.svg	11	yes	57	0	283	6	3	antiphase_hc_soi.wav	1	6	2	noise_calib_stim_LEFT.wav	1	9	blb_dichoticlistening_da-ga.mp3	da	ga	1	right
6.6.1	win	2023-06-02	08:01:45	08:23:03	1272819	630a2fd6e76ccbe74374656d	2	1	main_z	24	main_z	29	stimuli_target_squaretriangles.svg	stimuli_distractor_trianglediamonds.svg	3	yes	44	1	681	6	3	antiphase_hc_soi.wav	1	6	2	noise_calib_stim_LEFT.wav	1	9	blb_dichoticlistening_da-ga.mp3	da	ga	1	right
6.6.1	win	2023-06-02	08:01:45	08:23:03	1272819	630a2fd6e76ccbe74374656d	2	1	main_z	24	advance_on_keypress_ZEE	30	stimuli_target_squaretriangles.svg	stimuli_distractor_trianglediamonds.svg	3	yes	57	0	126	6	3	antiphase_hc_soi.wav	1	6	2	noise_calib_stim_LEFT.wav	1	9	blb_dichoticlistening_da-ga.mp3	da	ga	1	right
6.6.1	win	2023-06-02	08:01:45	08:23:05	1274373	630a2fd6e76ccbe74374656d	2	1	main_z	24	main_z	31	stimuli_distractor_diamondtriangles.svg	stimuli_target_trianglesquares.svg	30	yes	44	1	805	6	3	antiphase_hc_soi.wav	1	6	2	noise_calib_stim_LEFT.wav	1	9	blb_dichoticlistening_da-ga.mp3	da	ga	1	right
6.6.1	win	2023-06-02	08:01:45	08:23:05	1274373	630a2fd6e76ccbe74374656d	2	1	main_z	24	advance_on_keypress_ZEE	32	stimuli_distractor_diamondtriangles.svg	stimuli_target_trianglesquares.svg	30	yes	57	0	224	6	3	antiphase_hc_soi.wav	1	6	2	noise_calib_stim_LEFT.wav	1	9	blb_dichoticlistening_da-ga.mp3	da	ga	1	right
6.6.1	win	2023-06-02	08:01:45	08:23:06	1275890	630a2fd6e76ccbe74374656d	2	1	main_z	24	main_z	33	stimuli_target_diamondsquares.svg	stimuli_distractor_trianglediamonds.svg	20	yes	44	1	673	6	3	antiphase_hc_soi.wav	1	6	2	noise_calib_stim_LEFT.wav	1	9	blb_dichoticlistening_da-ga.mp3	da	ga	1	right
6.6.1	win	2023-06-02	08:01:45	08:23:06	1275890	630a2fd6e76ccbe74374656d	2	1	main_z	24	advance_on_keypress_ZEE	34	stimuli_target_diamondsquares.svg	stimuli_distractor_trianglediamonds.svg	20	yes	57	0	122	6	3	antiphase_hc_soi.wav	1	6	2	noise_calib_stim_LEFT.wav	1	9	blb_dichoticlistening_da-ga.mp3	da	ga	1	right
6.6.1	win	2023-06-02	08:01:45	08:23:09	1278628	630a2fd6e76ccbe74374656d	2	1	main_z	24	main_z	35	stimuli_distractor_diamondtriangles.svg	stimuli_target_squaretriangles.svg	15	yes	0	0	2000	6	3	antiphase_hc_soi.wav	1	6	2	noise_calib_stim_LEFT.wav	1	9	blb_dichoticlistening_da-ga.mp3	da	ga	1	right
6.6.1	win	2023-06-02	08:01:45	08:23:09	1278628	630a2fd6e76ccbe74374656d	2	1	main_z	24	advance_on_keypress_ZEE	36	stimuli_distractor_diamondtriangles.svg	stimuli_target_squaretriangles.svg	15	yes	57	0	339	6	3	antiphase_hc_soi.wav	1	6	2	noise_calib_stim_LEFT.wav	1	9	blb_dichoticlistening_da-ga.mp3	da	ga	1	right
6.6.1	win	2023-06-02	08:01:45	08:23:12	1281586	630a2fd6e76ccbe74374656d	2	1	main_z	24	main_z	37	stimuli_distractor_diamondtriangles.svg	stimuli_distractor_trianglediamonds.svg	37	no	0	1	2000	6	3	antiphase_hc_soi.wav	1	6	2	noise_calib_stim_LEFT.wav	1	9	blb_dichoticlistening_da-ga.mp3	da	ga	1	right
6.6.1	win	2023-06-02	08:01:45	08:23:12	1281586	630a2fd6e76ccbe74374656d	2	1	main_z	24	advance_on_keypress_ZEE	38	stimuli_distractor_diamondtriangles.svg	stimuli_distractor_trianglediamonds.svg	37	no	57	0	287	6	3	antiphase_hc_soi.wav	1	6	2	noise_calib_stim_LEFT.wav	1	9	blb_dichoticlistening_da-ga.mp3	da	ga	1	right
6.6.1	win	2023-06-02	08:01:45	08:23:15	1284495	630a2fd6e76ccbe74374656d	2	1	main_z	24	main_z	39	stimuli_distractor_trianglediamonds.svg	stimuli_distractor_diamondtriangles.svg	35	no	0	1	2000	6	3	antiphase_hc_soi.wav	1	6	2	noise_calib_stim_LEFT.wav	1	9	blb_dichoticlistening_da-ga.mp3	da	ga	1	right
6.6.1	win	2023-06-02	08:01:45	08:23:15	1284495	630a2fd6e76ccbe74374656d	2	1	main_z	24	advance_on_keypress_ZEE	40	stimuli_distractor_trianglediamonds.svg	stimuli_distractor_diamondtriangles.svg	35	no	57	0	372	6	3	antiphase_hc_soi.wav	1	6	2	noise_calib_stim_LEFT.wav	1	9	blb_dichoticlistening_da-ga.mp3	da	ga	1	right
6.6.1	win	2023-06-02	08:01:45	08:23:17	1286341	630a2fd6e76ccbe74374656d	2	1	main_z	24	main_z	41	stimuli_target_squarediamonds.svg	stimuli_distractor_trianglediamonds.svg	4	yes	44	1	852	6	3	antiphase_hc_soi.wav	1	6	2	noise_calib_stim_LEFT.wav	1	9	blb_dichoticlistening_da-ga.mp3	da	ga	1	right
6.6.1	win	2023-06-02	08:01:45	08:23:17	1286341	630a2fd6e76ccbe74374656d	2	1	main_z	24	advance_on_keypress_ZEE	42	stimuli_target_squarediamonds.svg	stimuli_distractor_trianglediamonds.svg	4	yes	57	0	132	6	3	antiphase_hc_soi.wav	1	6	2	noise_calib_stim_LEFT.wav	1	9	blb_dichoticlistening_da-ga.mp3	da	ga	1	right
6.6.1	win	2023-06-02	08:01:45	08:23:18	1287911	630a2fd6e76ccbe74374656d	2	1	main_z	24	main_z	43	stimuli_target_trianglesquares.svg	stimuli_distractor_diamondtriangles.svg	22	yes	44	1	814	6	3	antiphase_hc_soi.wav	1	6	2	noise_calib_stim_LEFT.wav	1	9	blb_dichoticlistening_da-ga.mp3	da	ga	1	right
6.6.1	win	2023-06-02	08:01:45	08:23:18	1287911	630a2fd6e76ccbe74374656d	2	1	main_z	24	advance_on_keypress_ZEE	44	stimuli_target_trianglesquares.svg	stimuli_distractor_diamondtriangles.svg	22	yes	57	0	140	6	3	antiphase_hc_soi.wav	1	6	2	noise_calib_stim_LEFT.wav	1	9	blb_dichoticlistening_da-ga.mp3	da	ga	1	right
6.6.1	win	2023-06-02	08:01:45	08:23:21	1290676	630a2fd6e76ccbe74374656d	2	1	main_z	24	main_z	45	stimuli_distractor_diamondtriangles.svg	stimuli_target_rectangletriangles.svg	13	yes	0	0	2000	6	3	antiphase_hc_soi.wav	1	6	2	noise_calib_stim_LEFT.wav	1	9	blb_dichoticlistening_da-ga.mp3	da	ga	1	right
6.6.1	win	2023-06-02	08:01:45	08:23:21	1290676	630a2fd6e76ccbe74374656d	2	1	main_z	24	advance_on_keypress_ZEE	46	stimuli_distractor_diamondtriangles.svg	stimuli_target_rectangletriangles.svg	13	yes	57	0	1407	6	3	antiphase_hc_soi.wav	1	6	2	noise_calib_stim_LEFT.wav	1	9	blb_dichoticlistening_da-ga.mp3	da	ga	1	right
6.6.1	win	2023-06-02	08:01:45	08:23:24	1293563	630a2fd6e76ccbe74374656d	2	1	main_z	24	main_z	47	stimuli_target_rectanglediamonds.svg	stimuli_distractor_trianglediamonds.svg	2	yes	44	1	857	6	3	antiphase_hc_soi.wav	1	6	2	noise_calib_stim_LEFT.wav	1	9	blb_dichoticlistening_da-ga.mp3	da	ga	1	right
6.6.1	win	2023-06-02	08:01:45	08:23:24	1293563	630a2fd6e76ccbe74374656d	2	1	main_z	24	advance_on_keypress_ZEE	48	stimuli_target_rectanglediamonds.svg	stimuli_distractor_trianglediamonds.svg	2	yes	57	0	108	6	3	antiphase_hc_soi.wav	1	6	2	noise_calib_stim_LEFT.wav	1	9	blb_dichoticlistening_da-ga.mp3	da	ga	1	right
6.6.1	win	2023-06-02	08:01:45	08:23:27	1296294	630a2fd6e76ccbe74374656d	2	1	main_z	24	main_z	49	stimuli_target_trianglerectangles.svg	stimuli_distractor_trianglediamonds.svg	17	yes	0	0	2000	6	3	antiphase_hc_soi.wav	1	6	2	noise_calib_stim_LEFT.wav	1	9	blb_dichoticlistening_da-ga.mp3	da	ga	1	right
6.6.1	win	2023-06-02	08:01:45	08:23:27	1296294	630a2fd6e76ccbe74374656d	2	1	main_z	24	advance_on_keypress_ZEE	50	stimuli_target_trianglerectangles.svg	stimuli_distractor_trianglediamonds.svg	17	yes	57	0	581	6	3	antiphase_hc_soi.wav	1	6	2	noise_calib_stim_LEFT.wav	1	9	blb_dichoticlistening_da-ga.mp3	da	ga	1	right
6.6.1	win	2023-06-02	08:01:45	08:23:29	1298429	630a2fd6e76ccbe74374656d	2	1	main_z	24	main_z	51	stimuli_target_rectangletriangles.svg	stimuli_distractor_trianglediamonds.svg	1	yes	44	1	935	6	3	antiphase_hc_soi.wav	1	6	2	noise_calib_stim_LEFT.wav	1	9	blb_dichoticlistening_da-ga.mp3	da	ga	1	right
6.6.1	win	2023-06-02	08:01:45	08:23:29	1298429	630a2fd6e76ccbe74374656d	2	1	main_z	24	advance_on_keypress_ZEE	52	stimuli_target_rectangletriangles.svg	stimuli_distractor_trianglediamonds.svg	1	yes	57	0	111	6	3	antiphase_hc_soi.wav	1	6	2	noise_calib_stim_LEFT.wav	1	9	blb_dichoticlistening_da-ga.mp3	da	ga	1	right
6.6.1	win	2023-06-02	08:01:45	08:23:30	1299961	630a2fd6e76ccbe74374656d	2	1	main_z	24	main_z	53	stimuli_distractor_diamondtriangles.svg	stimuli_target_squarediamonds.svg	16	yes	44	1	794	6	3	antiphase_hc_soi.wav	1	6	2	noise_calib_stim_LEFT.wav	1	9	blb_dichoticlistening_da-ga.mp3	da	ga	1	right
6.6.1	win	2023-06-02	08:01:45	08:23:30	1299961	630a2fd6e76ccbe74374656d	2	1	main_z	24	advance_on_keypress_ZEE	54	stimuli_distractor_diamondtriangles.svg	stimuli_target_squarediamonds.svg	16	yes	57	0	123	6	3	antiphase_hc_soi.wav	1	6	2	noise_calib_stim_LEFT.wav	1	9	blb_dichoticlistening_da-ga.mp3	da	ga	1	right
6.6.1	win	2023-06-02	08:01:45	08:23:32	1301578	630a2fd6e76ccbe74374656d	2	1	main_z	24	main_z	55	stimuli_distractor_trianglediamonds.svg	stimuli_target_trianglesquares.svg	26	yes	44	1	872	6	3	antiphase_hc_soi.wav	1	6	2	noise_calib_stim_LEFT.wav	1	9	blb_dichoticlistening_da-ga.mp3	da	ga	1	right
6.6.1	win	2023-06-02	08:01:45	08:23:32	1301578	630a2fd6e76ccbe74374656d	2	1	main_z	24	advance_on_keypress_ZEE	56	stimuli_distractor_trianglediamonds.svg	stimuli_target_trianglesquares.svg	26	yes	57	0	118	6	3	antiphase_hc_soi.wav	1	6	2	noise_calib_stim_LEFT.wav	1	9	blb_dichoticlistening_da-ga.mp3	da	ga	1	right
6.6.1	win	2023-06-02	08:01:45	08:23:35	1304318	630a2fd6e76ccbe74374656d	2	1	main_z	24	main_z	57	stimuli_target_squaretriangles.svg	stimuli_distractor_diamondtriangles.svg	7	yes	0	0	2000	6	3	antiphase_hc_soi.wav	1	6	2	noise_calib_stim_LEFT.wav	1	9	blb_dichoticlistening_da-ga.mp3	da	ga	1	right
6.6.1	win	2023-06-02	08:01:45	08:23:35	1304318	630a2fd6e76ccbe74374656d	2	1	main_z	24	advance_on_keypress_ZEE	58	stimuli_target_squaretriangles.svg	stimuli_distractor_diamondtriangles.svg	7	yes	57	0	593	6	3	antiphase_hc_soi.wav	1	6	2	noise_calib_stim_LEFT.wav	1	9	blb_dichoticlistening_da-ga.mp3	da	ga	1	right
6.6.1	win	2023-06-02	08:01:45	08:23:36	1306179	630a2fd6e76ccbe74374656d	2	1	main_z	24	main_z	59	stimuli_distractor_trianglediamonds.svg	stimuli_target_rectangletriangles.svg	9	yes	44	1	649	6	3	antiphase_hc_soi.wav	1	6	2	noise_calib_stim_LEFT.wav	1	9	blb_dichoticlistening_da-ga.mp3	da	ga	1	right
6.6.1	win	2023-06-02	08:01:45	08:23:36	1306179	630a2fd6e76ccbe74374656d	2	1	main_z	24	advance_on_keypress_ZEE	60	stimuli_distractor_trianglediamonds.svg	stimuli_target_rectangletriangles.svg	9	yes	57	0	111	6	3	antiphase_hc_soi.wav	1	6	2	noise_calib_stim_LEFT.wav	1	9	blb_dichoticlistening_da-ga.mp3	da	ga	1	right
6.6.1	win	2023-06-02	08:01:45	08:23:38	1307725	630a2fd6e76ccbe74374656d	2	1	main_z	24	main_z	61	stimuli_distractor_diamondtriangles.svg	stimuli_target_diamondsquares.svg	32	yes	44	1	807	6	3	antiphase_hc_soi.wav	1	6	2	noise_calib_stim_LEFT.wav	1	9	blb_dichoticlistening_da-ga.mp3	da	ga	1	right
6.6.1	win	2023-06-02	08:01:45	08:23:38	1307725	630a2fd6e76ccbe74374656d	2	1	main_z	24	advance_on_keypress_ZEE	62	stimuli_distractor_diamondtriangles.svg	stimuli_target_diamondsquares.svg	32	yes	57	0	123	6	3	antiphase_hc_soi.wav	1	6	2	noise_calib_stim_LEFT.wav	1	9	blb_dichoticlistening_da-ga.mp3	da	ga	1	right
6.6.1	win	2023-06-02	08:01:45	08:23:41	1310475	630a2fd6e76ccbe74374656d	2	1	main_z	24	main_z	63	stimuli_distractor_trianglediamonds.svg	stimuli_distractor_diamondtriangles.svg	36	no	0	1	2000	6	3	antiphase_hc_soi.wav	1	6	2	noise_calib_stim_LEFT.wav	1	9	blb_dichoticlistening_da-ga.mp3	da	ga	1	right
6.6.1	win	2023-06-02	08:01:45	08:23:41	1310475	630a2fd6e76ccbe74374656d	2	1	main_z	24	advance_on_keypress_ZEE	64	stimuli_distractor_trianglediamonds.svg	stimuli_distractor_diamondtriangles.svg	36	no	57	0	1580	6	3	antiphase_hc_soi.wav	1	6	2	noise_calib_stim_LEFT.wav	1	9	blb_dichoticlistening_da-ga.mp3	da	ga	1	right
6.6.1	win	2023-06-02	08:01:45	08:23:44	1313461	630a2fd6e76ccbe74374656d	2	1	main_z	24	main_z	65	stimuli_distractor_diamondtriangles.svg	stimuli_target_rectanglediamonds.svg	14	yes	44	1	787	6	3	antiphase_hc_soi.wav	1	6	2	noise_calib_stim_LEFT.wav	1	9	blb_dichoticlistening_da-ga.mp3	da	ga	1	right
6.6.1	win	2023-06-02	08:01:45	08:23:44	1313461	630a2fd6e76ccbe74374656d	2	1	main_z	24	advance_on_keypress_ZEE	66	stimuli_distractor_diamondtriangles.svg	stimuli_target_rectanglediamonds.svg	14	yes	57	0	102	6	3	antiphase_hc_soi.wav	1	6	2	noise_calib_stim_LEFT.wav	1	9	blb_dichoticlistening_da-ga.mp3	da	ga	1	right
6.6.1	win	2023-06-02	08:01:45	08:23:45	1314997	630a2fd6e76ccbe74374656d	2	1	main_z	24	main_z	67	stimuli_distractor_diamondtriangles.svg	stimuli_target_diamondrectangles.svg	31	yes	44	1	813	6	3	antiphase_hc_soi.wav	1	6	2	noise_calib_stim_LEFT.wav	1	9	blb_dichoticlistening_da-ga.mp3	da	ga	1	right
6.6.1	win	2023-06-02	08:01:45	08:23:45	1314997	630a2fd6e76ccbe74374656d	2	1	main_z	24	advance_on_keypress_ZEE	68	stimuli_distractor_diamondtriangles.svg	stimuli_target_diamondrectangles.svg	31	yes	57	0	151	6	3	antiphase_hc_soi.wav	1	6	2	noise_calib_stim_LEFT.wav	1	9	blb_dichoticlistening_da-ga.mp3	da	ga	1	right
6.6.1	win	2023-06-02	08:01:45	08:23:48	1317736	630a2fd6e76ccbe74374656d	2	1	main_z	24	main_z	69	stimuli_distractor_diamondtriangles.svg	stimuli_distractor_diamondtriangles.svg	40	no	44	0	1963	6	3	antiphase_hc_soi.wav	1	6	2	noise_calib_stim_LEFT.wav	1	9	blb_dichoticlistening_da-ga.mp3	da	ga	1	right
6.6.1	win	2023-06-02	08:01:45	08:23:48	1317736	630a2fd6e76ccbe74374656d	2	1	main_z	24	advance_on_keypress_ZEE	70	stimuli_distractor_diamondtriangles.svg	stimuli_distractor_diamondtriangles.svg	40	no	57	0	166	6	3	antiphase_hc_soi.wav	1	6	2	noise_calib_stim_LEFT.wav	1	9	blb_dichoticlistening_da-ga.mp3	da	ga	1	right
6.6.1	win	2023-06-02	08:01:45	08:23:50	1319623	630a2fd6e76ccbe74374656d	2	1	main_z	24	main_z	71	stimuli_distractor_diamondtriangles.svg	stimuli_distractor_trianglediamonds.svg	38	no	44	0	1100	6	3	antiphase_hc_soi.wav	1	6	2	noise_calib_stim_LEFT.wav	1	9	blb_dichoticlistening_da-ga.mp3	da	ga	1	right
6.6.1	win	2023-06-02	08:01:45	08:23:50	1319623	630a2fd6e76ccbe74374656d	2	1	main_z	24	advance_on_keypress_ZEE	72	stimuli_distractor_diamondtriangles.svg	stimuli_distractor_trianglediamonds.svg	38	no	57	0	105	6	3	antiphase_hc_soi.wav	1	6	2	noise_calib_stim_LEFT.wav	1	9	blb_dichoticlistening_da-ga.mp3	da	ga	1	right
6.6.1	win	2023-06-02	08:01:45	08:23:53	1322353	630a2fd6e76ccbe74374656d	2	1	main_z	24	main_z	73	stimuli_distractor_trianglediamonds.svg	stimuli_target_squarediamonds.svg	12	yes	0	0	2000	6	3	antiphase_hc_soi.wav	1	6	2	noise_calib_stim_LEFT.wav	1	9	blb_dichoticlistening_da-ga.mp3	da	ga	1	right
6.6.1	win	2023-06-02	08:01:45	08:23:53	1322353	630a2fd6e76ccbe74374656d	2	1	main_z	24	advance_on_keypress_ZEE	74	stimuli_distractor_trianglediamonds.svg	stimuli_target_squarediamonds.svg	12	yes	57	0	2800	6	3	antiphase_hc_soi.wav	1	6	2	noise_calib_stim_LEFT.wav	1	9	blb_dichoticlistening_da-ga.mp3	da	ga	1	right
6.6.1	win	2023-06-02	08:01:45	08:23:58	1327771	630a2fd6e76ccbe74374656d	2	1	main_z	24	main_z	75	stimuli_distractor_trianglediamonds.svg	stimuli_distractor_trianglediamonds.svg	33	no	0	1	2000	6	3	antiphase_hc_soi.wav	1	6	2	noise_calib_stim_LEFT.wav	1	9	blb_dichoticlistening_da-ga.mp3	da	ga	1	right
6.6.1	win	2023-06-02	08:01:45	08:23:58	1327771	630a2fd6e76ccbe74374656d	2	1	main_z	24	advance_on_keypress_ZEE	76	stimuli_distractor_trianglediamonds.svg	stimuli_distractor_trianglediamonds.svg	33	no	57	0	458	6	3	antiphase_hc_soi.wav	1	6	2	noise_calib_stim_LEFT.wav	1	9	blb_dichoticlistening_da-ga.mp3	da	ga	1	right
6.6.1	win	2023-06-02	08:01:45	08:24:00	1329649	630a2fd6e76ccbe74374656d	2	1	main_z	24	main_z	77	stimuli_target_rectanglediamonds.svg	stimuli_distractor_diamondtriangles.svg	6	yes	44	1	799	6	3	antiphase_hc_soi.wav	1	6	2	noise_calib_stim_LEFT.wav	1	9	blb_dichoticlistening_da-ga.mp3	da	ga	1	right
6.6.1	win	2023-06-02	08:01:45	08:24:00	1329649	630a2fd6e76ccbe74374656d	2	1	main_z	24	advance_on_keypress_ZEE	78	stimuli_target_rectanglediamonds.svg	stimuli_distractor_diamondtriangles.svg	6	yes	57	0	265	6	3	antiphase_hc_soi.wav	1	6	2	noise_calib_stim_LEFT.wav	1	9	blb_dichoticlistening_da-ga.mp3	da	ga	1	right
6.6.1	win	2023-06-02	08:01:45	08:24:01	1331263	630a2fd6e76ccbe74374656d	2	1	main_z	24	main_z	79	stimuli_target_trianglesquares.svg	stimuli_distractor_trianglediamonds.svg	18	yes	44	1	729	6	3	antiphase_hc_soi.wav	1	6	2	noise_calib_stim_LEFT.wav	1	9	blb_dichoticlistening_da-ga.mp3	da	ga	1	right
6.6.1	win	2023-06-02	08:01:45	08:24:01	1331263	630a2fd6e76ccbe74374656d	2	1	main_z	24	advance_on_keypress_ZEE	80	stimuli_target_trianglesquares.svg	stimuli_distractor_trianglediamonds.svg	18	yes	57	0	163	6	3	antiphase_hc_soi.wav	1	6	2	noise_calib_stim_LEFT.wav	1	9	blb_dichoticlistening_da-ga.mp3	da	ga	1	right
6.6.1	win	2023-06-02	08:01:45	08:24:03	1332873	630a2fd6e76ccbe74374656d	2	1	main_z	24	main_z	81	stimuli_target_diamondsquares.svg	stimuli_distractor_trianglediamonds.svg	20	yes	44	1	824	6	3	antiphase_hc_soi.wav	1	6	2	noise_calib_stim_LEFT.wav	1	9	blb_dichoticlistening_da-ga.mp3	da	ga	1	right
6.6.1	win	2023-06-02	08:01:45	08:24:03	1332873	630a2fd6e76ccbe74374656d	2	1	main_z	24	advance_on_keypress_ZEE	82	stimuli_target_diamondsquares.svg	stimuli_distractor_trianglediamonds.svg	20	yes	57	0	265	6	3	antiphase_hc_soi.wav	1	6	2	noise_calib_stim_LEFT.wav	1	9	blb_dichoticlistening_da-ga.mp3	da	ga	1	right
6.6.1	win	2023-06-02	08:01:45	08:24:05	1334453	630a2fd6e76ccbe74374656d	2	1	main_z	24	main_z	83	stimuli_target_diamondsquares.svg	stimuli_distractor_diamondtriangles.svg	24	yes	44	1	695	6	3	antiphase_hc_soi.wav	1	6	2	noise_calib_stim_LEFT.wav	1	9	blb_dichoticlistening_da-ga.mp3	da	ga	1	right
6.6.1	win	2023-06-02	08:01:45	08:24:05	1334453	630a2fd6e76ccbe74374656d	2	1	main_z	24	advance_on_keypress_ZEE	84	stimuli_target_diamondsquares.svg	stimuli_distractor_diamondtriangles.svg	24	yes	57	0	150	6	3	antiphase_hc_soi.wav	1	6	2	noise_calib_stim_LEFT.wav	1	9	blb_dichoticlistening_da-ga.mp3	da	ga	1	right
6.6.1	win	2023-06-02	08:01:45	08:24:07	1337225	630a2fd6e76ccbe74374656d	2	1	main_z	24	main_z	85	stimuli_distractor_diamondtriangles.svg	stimuli_distractor_diamondtriangles.svg	40	no	0	1	2000	6	3	antiphase_hc_soi.wav	1	6	2	noise_calib_stim_LEFT.wav	1	9	blb_dichoticlistening_da-ga.mp3	da	ga	1	right
6.6.1	win	2023-06-02	08:01:45	08:24:07	1337225	630a2fd6e76ccbe74374656d	2	1	main_z	24	advance_on_keypress_ZEE	86	stimuli_distractor_diamondtriangles.svg	stimuli_distractor_diamondtriangles.svg	40	no	57	0	588	6	3	antiphase_hc_soi.wav	1	6	2	noise_calib_stim_LEFT.wav	1	9	blb_dichoticlistening_da-ga.mp3	da	ga	1	right
6.6.1	win	2023-06-02	08:01:45	08:24:11	1340431	630a2fd6e76ccbe74374656d	2	1	main_z	24	main_z	87	stimuli_distractor_trianglediamonds.svg	stimuli_distractor_diamondtriangles.svg	35	no	0	1	2000	6	3	antiphase_hc_soi.wav	1	6	2	noise_calib_stim_LEFT.wav	1	9	blb_dichoticlistening_da-ga.mp3	da	ga	1	right
6.6.1	win	2023-06-02	08:01:45	08:24:11	1340431	630a2fd6e76ccbe74374656d	2	1	main_z	24	advance_on_keypress_ZEE	88	stimuli_distractor_trianglediamonds.svg	stimuli_distractor_diamondtriangles.svg	35	no	57	0	286	6	3	antiphase_hc_soi.wav	1	6	2	noise_calib_stim_LEFT.wav	1	9	blb_dichoticlistening_da-ga.mp3	da	ga	1	right
6.6.1	win	2023-06-02	08:01:45	08:24:12	1342021	630a2fd6e76ccbe74374656d	2	1	main_z	24	main_z	89	stimuli_distractor_trianglediamonds.svg	stimuli_target_rectanglediamonds.svg	10	yes	44	1	681	6	3	antiphase_hc_soi.wav	1	6	2	noise_calib_stim_LEFT.wav	1	9	blb_dichoticlistening_da-ga.mp3	da	ga	1	right
6.6.1	win	2023-06-02	08:01:45	08:24:12	1342021	630a2fd6e76ccbe74374656d	2	1	main_z	24	advance_on_keypress_ZEE	90	stimuli_distractor_trianglediamonds.svg	stimuli_target_rectanglediamonds.svg	10	yes	57	0	137	6	3	antiphase_hc_soi.wav	1	6	2	noise_calib_stim_LEFT.wav	1	9	blb_dichoticlistening_da-ga.mp3	da	ga	1	right
6.6.1	win	2023-06-02	08:01:45	08:24:14	1343657	630a2fd6e76ccbe74374656d	2	1	main_z	24	main_z	91	stimuli_target_trianglesquares.svg	stimuli_distractor_trianglediamonds.svg	18	yes	44	1	835	6	3	antiphase_hc_soi.wav	1	6	2	noise_calib_stim_LEFT.wav	1	9	blb_dichoticlistening_da-ga.mp3	da	ga	1	right
6.6.1	win	2023-06-02	08:01:45	08:24:14	1343657	630a2fd6e76ccbe74374656d	2	1	main_z	24	advance_on_keypress_ZEE	92	stimuli_target_trianglesquares.svg	stimuli_distractor_trianglediamonds.svg	18	yes	57	0	1184	6	3	antiphase_hc_soi.wav	1	6	2	noise_calib_stim_LEFT.wav	1	9	blb_dichoticlistening_da-ga.mp3	da	ga	1	right
6.6.1	win	2023-06-02	08:01:45	08:24:16	1346253	630a2fd6e76ccbe74374656d	2	1	main_z	24	main_z	93	stimuli_target_rectangletriangles.svg	stimuli_distractor_diamondtriangles.svg	5	yes	44	1	786	6	3	antiphase_hc_soi.wav	1	6	2	noise_calib_stim_LEFT.wav	1	9	blb_dichoticlistening_da-ga.mp3	da	ga	1	right
6.6.1	win	2023-06-02	08:01:45	08:24:16	1346253	630a2fd6e76ccbe74374656d	2	1	main_z	24	advance_on_keypress_ZEE	94	stimuli_target_rectangletriangles.svg	stimuli_distractor_diamondtriangles.svg	5	yes	57	0	177	6	3	antiphase_hc_soi.wav	1	6	2	noise_calib_stim_LEFT.wav	1	9	blb_dichoticlistening_da-ga.mp3	da	ga	1	right
6.6.1	win	2023-06-02	08:01:45	08:24:18	1347927	630a2fd6e76ccbe74374656d	2	1	main_z	24	main_z	95	stimuli_target_squaretriangles.svg	stimuli_distractor_trianglediamonds.svg	3	yes	44	1	872	6	3	antiphase_hc_soi.wav	1	6	2	noise_calib_stim_LEFT.wav	1	9	blb_dichoticlistening_da-ga.mp3	da	ga	1	right
6.6.1	win	2023-06-02	08:01:45	08:24:18	1347927	630a2fd6e76ccbe74374656d	2	1	main_z	24	advance_on_keypress_ZEE	96	stimuli_target_squaretriangles.svg	stimuli_distractor_trianglediamonds.svg	3	yes	57	0	111	6	3	antiphase_hc_soi.wav	1	6	2	noise_calib_stim_LEFT.wav	1	9	blb_dichoticlistening_da-ga.mp3	da	ga	1	right
6.6.1	win	2023-06-02	08:01:45	08:24:21	1350660	630a2fd6e76ccbe74374656d	2	1	main_z	24	main_z	97	stimuli_distractor_trianglediamonds.svg	stimuli_distractor_diamondtriangles.svg	36	no	0	1	2000	6	3	antiphase_hc_soi.wav	1	6	2	noise_calib_stim_LEFT.wav	1	9	blb_dichoticlistening_da-ga.mp3	da	ga	1	right
6.6.1	win	2023-06-02	08:01:45	08:24:21	1350660	630a2fd6e76ccbe74374656d	2	1	main_z	24	advance_on_keypress_ZEE	98	stimuli_distractor_trianglediamonds.svg	stimuli_distractor_diamondtriangles.svg	36	no	57	0	277	6	3	antiphase_hc_soi.wav	1	6	2	noise_calib_stim_LEFT.wav	1	9	blb_dichoticlistening_da-ga.mp3	da	ga	1	right
6.6.1	win	2023-06-02	08:01:45	08:24:22	1352261	630a2fd6e76ccbe74374656d	2	1	main_z	24	main_z	99	stimuli_distractor_diamondtriangles.svg	stimuli_target_trianglesquares.svg	30	yes	44	1	704	6	3	antiphase_hc_soi.wav	1	6	2	noise_calib_stim_LEFT.wav	1	9	blb_dichoticlistening_da-ga.mp3	da	ga	1	right
6.6.1	win	2023-06-02	08:01:45	08:24:22	1352261	630a2fd6e76ccbe74374656d	2	1	main_z	24	advance_on_keypress_ZEE	100	stimuli_distractor_diamondtriangles.svg	stimuli_target_trianglesquares.svg	30	yes	57	0	105	6	3	antiphase_hc_soi.wav	1	6	2	noise_calib_stim_LEFT.wav	1	9	blb_dichoticlistening_da-ga.mp3	da	ga	1	right
6.6.1	win	2023-06-02	08:01:45	08:24:24	1354061	630a2fd6e76ccbe74374656d	2	1	main_z	24	main_z	101	stimuli_distractor_trianglediamonds.svg	stimuli_distractor_trianglediamonds.svg	33	no	44	0	1073	6	3	antiphase_hc_soi.wav	1	6	2	noise_calib_stim_LEFT.wav	1	9	blb_dichoticlistening_da-ga.mp3	da	ga	1	right
6.6.1	win	2023-06-02	08:01:45	08:24:24	1354061	630a2fd6e76ccbe74374656d	2	1	main_z	24	advance_on_keypress_ZEE	102	stimuli_distractor_trianglediamonds.svg	stimuli_distractor_trianglediamonds.svg	33	no	57	0	220	6	3	antiphase_hc_soi.wav	1	6	2	noise_calib_stim_LEFT.wav	1	9	blb_dichoticlistening_da-ga.mp3	da	ga	1	right
6.6.1	win	2023-06-02	08:01:45	08:24:26	1356141	630a2fd6e76ccbe74374656d	2	1	main_z	24	main_z	103	stimuli_target_diamondrectangles.svg	stimuli_distractor_trianglediamonds.svg	19	yes	44	1	1198	6	3	antiphase_hc_soi.wav	1	6	2	noise_calib_stim_LEFT.wav	1	9	blb_dichoticlistening_da-ga.mp3	da	ga	1	right
6.6.1	win	2023-06-02	08:01:45	08:24:26	1356141	630a2fd6e76ccbe74374656d	2	1	main_z	24	advance_on_keypress_ZEE	104	stimuli_target_diamondrectangles.svg	stimuli_distractor_trianglediamonds.svg	19	yes	57	0	696	6	3	antiphase_hc_soi.wav	1	6	2	noise_calib_stim_LEFT.wav	1	9	blb_dichoticlistening_da-ga.mp3	da	ga	1	right
6.6.1	win	2023-06-02	08:01:45	08:24:28	1358243	630a2fd6e76ccbe74374656d	2	1	main_z	24	main_z	105	stimuli_distractor_diamondtriangles.svg	stimuli_target_squaretriangles.svg	15	yes	44	1	783	6	3	antiphase_hc_soi.wav	1	6	2	noise_calib_stim_LEFT.wav	1	9	blb_dichoticlistening_da-ga.mp3	da	ga	1	right
6.6.1	win	2023-06-02	08:01:45	08:24:28	1358243	630a2fd6e76ccbe74374656d	2	1	main_z	24	advance_on_keypress_ZEE	106	stimuli_distractor_diamondtriangles.svg	stimuli_target_squaretriangles.svg	15	yes	57	0	135	6	3	antiphase_hc_soi.wav	1	6	2	noise_calib_stim_LEFT.wav	1	9	blb_dichoticlistening_da-ga.mp3	da	ga	1	right
6.6.1	win	2023-06-02	08:01:45	08:24:30	1359785	630a2fd6e76ccbe74374656d	2	1	main_z	24	main_z	107	stimuli_distractor_trianglediamonds.svg	stimuli_target_diamondsquares.svg	28	yes	44	1	780	6	3	antiphase_hc_soi.wav	1	6	2	noise_calib_stim_LEFT.wav	1	9	blb_dichoticlistening_da-ga.mp3	da	ga	1	right
6.6.1	win	2023-06-02	08:01:45	08:24:30	1359785	630a2fd6e76ccbe74374656d	2	1	main_z	24	advance_on_keypress_ZEE	108	stimuli_distractor_trianglediamonds.svg	stimuli_target_diamondsquares.svg	28	yes	57	0	126	6	3	antiphase_hc_soi.wav	1	6	2	noise_calib_stim_LEFT.wav	1	9	blb_dichoticlistening_da-ga.mp3	da	ga	1	right
6.6.1	win	2023-06-02	08:01:45	08:24:32	1361597	630a2fd6e76ccbe74374656d	2	1	main_z	24	main_z	109	stimuli_target_trianglerectangles.svg	stimuli_distractor_trianglediamonds.svg	17	yes	44	1	1064	6	3	antiphase_hc_soi.wav	1	6	2	noise_calib_stim_LEFT.wav	1	9	blb_dichoticlistening_da-ga.mp3	da	ga	1	right
6.6.1	win	2023-06-02	08:01:45	08:24:32	1361597	630a2fd6e76ccbe74374656d	2	1	main_z	24	advance_on_keypress_ZEE	110	stimuli_target_trianglerectangles.svg	stimuli_distractor_trianglediamonds.svg	17	yes	57	0	128	6	3	antiphase_hc_soi.wav	1	6	2	noise_calib_stim_LEFT.wav	1	9	blb_dichoticlistening_da-ga.mp3	da	ga	1	right
6.6.1	win	2023-06-02	08:01:45	08:24:35	1364344	630a2fd6e76ccbe74374656d	2	1	main_z	24	main_z	111	stimuli_distractor_trianglediamonds.svg	stimuli_distractor_trianglediamonds.svg	34	no	0	1	2000	6	3	antiphase_hc_soi.wav	1	6	2	noise_calib_stim_LEFT.wav	1	9	blb_dichoticlistening_da-ga.mp3	da	ga	1	right
6.6.1	win	2023-06-02	08:01:45	08:24:35	1364344	630a2fd6e76ccbe74374656d	2	1	main_z	24	advance_on_keypress_ZEE	112	stimuli_distractor_trianglediamonds.svg	stimuli_distractor_trianglediamonds.svg	34	no	57	0	651	6	3	antiphase_hc_soi.wav	1	6	2	noise_calib_stim_LEFT.wav	1	9	blb_dichoticlistening_da-ga.mp3	da	ga	1	right
6.6.1	win	2023-06-02	08:01:45	08:24:37	1366351	630a2fd6e76ccbe74374656d	2	1	main_z	24	main_z	113	stimuli_target_squarediamonds.svg	stimuli_distractor_trianglediamonds.svg	4	yes	44	1	734	6	3	antiphase_hc_soi.wav	1	6	2	noise_calib_stim_LEFT.wav	1	9	blb_dichoticlistening_da-ga.mp3	da	ga	1	right
6.6.1	win	2023-06-02	08:01:45	08:24:37	1366351	630a2fd6e76ccbe74374656d	2	1	main_z	24	advance_on_keypress_ZEE	114	stimuli_target_squarediamonds.svg	stimuli_distractor_trianglediamonds.svg	4	yes	57	0	153	6	3	antiphase_hc_soi.wav	1	6	2	noise_calib_stim_LEFT.wav	1	9	blb_dichoticlistening_da-ga.mp3	da	ga	1	right
6.6.1	win	2023-06-02	08:01:45	08:24:38	1368218	630a2fd6e76ccbe74374656d	2	1	main_z	24	main_z	115	stimuli_target_squaretriangles.svg	stimuli_distractor_diamondtriangles.svg	7	yes	44	1	1085	6	3	antiphase_hc_soi.wav	1	6	2	noise_calib_stim_LEFT.wav	1	9	blb_dichoticlistening_da-ga.mp3	da	ga	1	right
6.6.1	win	2023-06-02	08:01:45	08:24:38	1368218	630a2fd6e76ccbe74374656d	2	1	main_z	24	advance_on_keypress_ZEE	116	stimuli_target_squaretriangles.svg	stimuli_distractor_diamondtriangles.svg	7	yes	57	0	130	6	3	antiphase_hc_soi.wav	1	6	2	noise_calib_stim_LEFT.wav	1	9	blb_dichoticlistening_da-ga.mp3	da	ga	1	right
6.6.1	win	2023-06-02	08:01:45	08:24:41	1370691	630a2fd6e76ccbe74374656d	2	1	main_z	24	main_z	117	stimuli_distractor_diamondtriangles.svg	stimuli_target_rectanglediamonds.svg	14	yes	44	1	1724	6	3	antiphase_hc_soi.wav	1	6	2	noise_calib_stim_LEFT.wav	1	9	blb_dichoticlistening_da-ga.mp3	da	ga	1	right
6.6.1	win	2023-06-02	08:01:45	08:24:41	1370691	630a2fd6e76ccbe74374656d	2	1	main_z	24	advance_on_keypress_ZEE	118	stimuli_distractor_diamondtriangles.svg	stimuli_target_rectanglediamonds.svg	14	yes	57	0	115	6	3	antiphase_hc_soi.wav	1	6	2	noise_calib_stim_LEFT.wav	1	9	blb_dichoticlistening_da-ga.mp3	da	ga	1	right
6.6.1	win	2023-06-02	08:01:45	08:24:42	1372187	630a2fd6e76ccbe74374656d	2	1	main_z	24	main_z	119	stimuli_target_rectanglediamonds.svg	stimuli_distractor_trianglediamonds.svg	2	yes	44	1	758	6	3	antiphase_hc_soi.wav	1	6	2	noise_calib_stim_LEFT.wav	1	9	blb_dichoticlistening_da-ga.mp3	da	ga	1	right
6.6.1	win	2023-06-02	08:01:45	08:24:42	1372187	630a2fd6e76ccbe74374656d	2	1	main_z	24	advance_on_keypress_ZEE	120	stimuli_target_rectanglediamonds.svg	stimuli_distractor_trianglediamonds.svg	2	yes	57	0	151	6	3	antiphase_hc_soi.wav	1	6	2	noise_calib_stim_LEFT.wav	1	9	blb_dichoticlistening_da-ga.mp3	da	ga	1	right
6.6.1	win	2023-06-02	08:01:45	08:24:44	1373637	630a2fd6e76ccbe74374656d	2	1	main_z	24	main_z	121	stimuli_distractor_diamondtriangles.svg	stimuli_target_rectangletriangles.svg	13	yes	44	1	681	6	3	antiphase_hc_soi.wav	1	6	2	noise_calib_stim_LEFT.wav	1	9	blb_dichoticlistening_da-ga.mp3	da	ga	1	right
6.6.1	win	2023-06-02	08:01:45	08:24:44	1373637	630a2fd6e76ccbe74374656d	2	1	main_z	24	advance_on_keypress_ZEE	122	stimuli_distractor_diamondtriangles.svg	stimuli_target_rectangletriangles.svg	13	yes	57	0	144	6	3	antiphase_hc_soi.wav	1	6	2	noise_calib_stim_LEFT.wav	1	9	blb_dichoticlistening_da-ga.mp3	da	ga	1	right
6.6.1	win	2023-06-02	08:01:45	08:24:45	1375193	630a2fd6e76ccbe74374656d	2	1	main_z	24	main_z	123	stimuli_distractor_diamondtriangles.svg	stimuli_target_squarediamonds.svg	16	yes	44	1	789	6	3	antiphase_hc_soi.wav	1	6	2	noise_calib_stim_LEFT.wav	1	9	blb_dichoticlistening_da-ga.mp3	da	ga	1	right
6.6.1	win	2023-06-02	08:01:45	08:24:45	1375193	630a2fd6e76ccbe74374656d	2	1	main_z	24	advance_on_keypress_ZEE	124	stimuli_distractor_diamondtriangles.svg	stimuli_target_squarediamonds.svg	16	yes	57	0	115	6	3	antiphase_hc_soi.wav	1	6	2	noise_calib_stim_LEFT.wav	1	9	blb_dichoticlistening_da-ga.mp3	da	ga	1	right
6.6.1	win	2023-06-02	08:01:45	08:24:47	1377039	630a2fd6e76ccbe74374656d	2	1	main_z	24	main_z	125	stimuli_target_trianglesquares.svg	stimuli_distractor_diamondtriangles.svg	22	yes	44	1	1113	6	3	antiphase_hc_soi.wav	1	6	2	noise_calib_stim_LEFT.wav	1	9	blb_dichoticlistening_da-ga.mp3	da	ga	1	right
6.6.1	win	2023-06-02	08:01:45	08:24:47	1377039	630a2fd6e76ccbe74374656d	2	1	main_z	24	advance_on_keypress_ZEE	126	stimuli_target_trianglesquares.svg	stimuli_distractor_diamondtriangles.svg	22	yes	57	0	98	6	3	antiphase_hc_soi.wav	1	6	2	noise_calib_stim_LEFT.wav	1	9	blb_dichoticlistening_da-ga.mp3	da	ga	1	right
6.6.1	win	2023-06-02	08:01:45	08:24:49	1378660	630a2fd6e76ccbe74374656d	2	1	main_z	24	main_z	127	stimuli_distractor_diamondtriangles.svg	stimuli_target_trianglerectangles.svg	29	yes	44	1	867	6	3	antiphase_hc_soi.wav	1	6	2	noise_calib_stim_LEFT.wav	1	9	blb_dichoticlistening_da-ga.mp3	da	ga	1	right
6.6.1	win	2023-06-02	08:01:45	08:24:49	1378660	630a2fd6e76ccbe74374656d	2	1	main_z	24	advance_on_keypress_ZEE	128	stimuli_distractor_diamondtriangles.svg	stimuli_target_trianglerectangles.svg	29	yes	57	0	108	6	3	antiphase_hc_soi.wav	1	6	2	noise_calib_stim_LEFT.wav	1	9	blb_dichoticlistening_da-ga.mp3	da	ga	1	right
6.6.1	win	2023-06-02	08:01:45	08:24:50	1380259	630a2fd6e76ccbe74374656d	2	1	main_z	24	main_z	129	stimuli_target_squarediamonds.svg	stimuli_distractor_diamondtriangles.svg	8	yes	44	1	873	6	3	antiphase_hc_soi.wav	1	6	2	noise_calib_stim_LEFT.wav	1	9	blb_dichoticlistening_da-ga.mp3	da	ga	1	right
6.6.1	win	2023-06-02	08:01:45	08:24:50	1380259	630a2fd6e76ccbe74374656d	2	1	main_z	24	advance_on_keypress_ZEE	130	stimuli_target_squarediamonds.svg	stimuli_distractor_diamondtriangles.svg	8	yes	57	0	98	6	3	antiphase_hc_soi.wav	1	6	2	noise_calib_stim_LEFT.wav	1	9	blb_dichoticlistening_da-ga.mp3	da	ga	1	right
6.6.1	win	2023-06-02	08:01:45	08:24:52	1381771	630a2fd6e76ccbe74374656d	2	1	main_z	24	main_z	131	stimuli_target_diamondrectangles.svg	stimuli_distractor_diamondtriangles.svg	23	yes	44	1	791	6	3	antiphase_hc_soi.wav	1	6	2	noise_calib_stim_LEFT.wav	1	9	blb_dichoticlistening_da-ga.mp3	da	ga	1	right
6.6.1	win	2023-06-02	08:01:45	08:24:52	1381771	630a2fd6e76ccbe74374656d	2	1	main_z	24	advance_on_keypress_ZEE	132	stimuli_target_diamondrectangles.svg	stimuli_distractor_diamondtriangles.svg	23	yes	57	0	97	6	3	antiphase_hc_soi.wav	1	6	2	noise_calib_stim_LEFT.wav	1	9	blb_dichoticlistening_da-ga.mp3	da	ga	1	right
6.6.1	win	2023-06-02	08:01:45	08:24:54	1383581	630a2fd6e76ccbe74374656d	2	1	main_z	24	main_z	133	stimuli_target_rectanglediamonds.svg	stimuli_distractor_diamondtriangles.svg	6	yes	44	1	1092	6	3	antiphase_hc_soi.wav	1	6	2	noise_calib_stim_LEFT.wav	1	9	blb_dichoticlistening_da-ga.mp3	da	ga	1	right
6.6.1	win	2023-06-02	08:01:45	08:24:54	1383581	630a2fd6e76ccbe74374656d	2	1	main_z	24	advance_on_keypress_ZEE	134	stimuli_target_rectanglediamonds.svg	stimuli_distractor_diamondtriangles.svg	6	yes	57	0	107	6	3	antiphase_hc_soi.wav	1	6	2	noise_calib_stim_LEFT.wav	1	9	blb_dichoticlistening_da-ga.mp3	da	ga	1	right
6.6.1	win	2023-06-02	08:01:45	08:24:57	1386313	630a2fd6e76ccbe74374656d	2	1	main_z	24	main_z	135	stimuli_distractor_trianglediamonds.svg	stimuli_target_squaretriangles.svg	11	yes	0	0	2000	6	3	antiphase_hc_soi.wav	1	6	2	noise_calib_stim_LEFT.wav	1	9	blb_dichoticlistening_da-ga.mp3	da	ga	1	right
6.6.1	win	2023-06-02	08:01:45	08:24:57	1386313	630a2fd6e76ccbe74374656d	2	1	main_z	24	advance_on_keypress_ZEE	136	stimuli_distractor_trianglediamonds.svg	stimuli_target_squaretriangles.svg	11	yes	57	0	778	6	3	antiphase_hc_soi.wav	1	6	2	noise_calib_stim_LEFT.wav	1	9	blb_dichoticlistening_da-ga.mp3	da	ga	1	right
6.6.1	win	2023-06-02	08:01:45	08:24:59	1388435	630a2fd6e76ccbe74374656d	2	1	main_z	24	main_z	137	stimuli_distractor_trianglediamonds.svg	stimuli_target_diamondrectangles.svg	27	yes	44	1	722	6	3	antiphase_hc_soi.wav	1	6	2	noise_calib_stim_LEFT.wav	1	9	blb_dichoticlistening_da-ga.mp3	da	ga	1	right
6.6.1	win	2023-06-02	08:01:45	08:24:59	1388435	630a2fd6e76ccbe74374656d	2	1	main_z	24	advance_on_keypress_ZEE	138	stimuli_distractor_trianglediamonds.svg	stimuli_target_diamondrectangles.svg	27	yes	57	0	123	6	3	antiphase_hc_soi.wav	1	6	2	noise_calib_stim_LEFT.wav	1	9	blb_dichoticlistening_da-ga.mp3	da	ga	1	right
6.6.1	win	2023-06-02	08:01:45	08:25:00	1389875	630a2fd6e76ccbe74374656d	2	1	main_z	24	main_z	139	stimuli_target_rectangletriangles.svg	stimuli_distractor_trianglediamonds.svg	1	yes	44	1	690	6	3	antiphase_hc_soi.wav	1	6	2	noise_calib_stim_LEFT.wav	1	9	blb_dichoticlistening_da-ga.mp3	da	ga	1	right
6.6.1	win	2023-06-02	08:01:45	08:25:00	1389875	630a2fd6e76ccbe74374656d	2	1	main_z	24	advance_on_keypress_ZEE	140	stimuli_target_rectangletriangles.svg	stimuli_distractor_trianglediamonds.svg	1	yes	57	0	139	6	3	antiphase_hc_soi.wav	1	6	2	noise_calib_stim_LEFT.wav	1	9	blb_dichoticlistening_da-ga.mp3	da	ga	1	right
6.6.1	win	2023-06-02	08:01:45	08:25:02	1391449	630a2fd6e76ccbe74374656d	2	1	main_z	24	main_z	141	stimuli_distractor_diamondtriangles.svg	stimuli_target_diamondrectangles.svg	31	yes	44	1	815	6	3	antiphase_hc_soi.wav	1	6	2	noise_calib_stim_LEFT.wav	1	9	blb_dichoticlistening_da-ga.mp3	da	ga	1	right
6.6.1	win	2023-06-02	08:01:45	08:25:02	1391449	630a2fd6e76ccbe74374656d	2	1	main_z	24	advance_on_keypress_ZEE	142	stimuli_distractor_diamondtriangles.svg	stimuli_target_diamondrectangles.svg	31	yes	57	0	129	6	3	antiphase_hc_soi.wav	1	6	2	noise_calib_stim_LEFT.wav	1	9	blb_dichoticlistening_da-ga.mp3	da	ga	1	right
6.6.1	win	2023-06-02	08:01:45	08:25:04	1394203	630a2fd6e76ccbe74374656d	2	1	main_z	24	main_z	143	stimuli_distractor_diamondtriangles.svg	stimuli_distractor_trianglediamonds.svg	37	no	0	1	2000	6	3	antiphase_hc_soi.wav	1	6	2	noise_calib_stim_LEFT.wav	1	9	blb_dichoticlistening_da-ga.mp3	da	ga	1	right
6.6.1	win	2023-06-02	08:01:45	08:25:04	1394203	630a2fd6e76ccbe74374656d	2	1	main_z	24	advance_on_keypress_ZEE	144	stimuli_distractor_diamondtriangles.svg	stimuli_distractor_trianglediamonds.svg	37	no	57	0	646	6	3	antiphase_hc_soi.wav	1	6	2	noise_calib_stim_LEFT.wav	1	9	blb_dichoticlistening_da-ga.mp3	da	ga	1	right
6.6.1	win	2023-06-02	08:01:45	08:25:08	1397470	630a2fd6e76ccbe74374656d	2	1	main_z	24	main_z	145	stimuli_distractor_diamondtriangles.svg	stimuli_distractor_trianglediamonds.svg	38	no	0	1	2000	6	3	antiphase_hc_soi.wav	1	6	2	noise_calib_stim_LEFT.wav	1	9	blb_dichoticlistening_da-ga.mp3	da	ga	1	right
6.6.1	win	2023-06-02	08:01:45	08:25:08	1397470	630a2fd6e76ccbe74374656d	2	1	main_z	24	advance_on_keypress_ZEE	146	stimuli_distractor_diamondtriangles.svg	stimuli_distractor_trianglediamonds.svg	38	no	57	0	265	6	3	antiphase_hc_soi.wav	1	6	2	noise_calib_stim_LEFT.wav	1	9	blb_dichoticlistening_da-ga.mp3	da	ga	1	right
6.6.1	win	2023-06-02	08:01:45	08:25:10	1399908	630a2fd6e76ccbe74374656d	2	1	main_z	24	main_z	147	stimuli_distractor_diamondtriangles.svg	stimuli_target_diamondsquares.svg	32	yes	44	1	1508	6	3	antiphase_hc_soi.wav	1	6	2	noise_calib_stim_LEFT.wav	1	9	blb_dichoticlistening_da-ga.mp3	da	ga	1	right
6.6.1	win	2023-06-02	08:01:45	08:25:10	1399908	630a2fd6e76ccbe74374656d	2	1	main_z	24	advance_on_keypress_ZEE	148	stimuli_distractor_diamondtriangles.svg	stimuli_target_diamondsquares.svg	32	yes	57	0	538	6	3	antiphase_hc_soi.wav	1	6	2	noise_calib_stim_LEFT.wav	1	9	blb_dichoticlistening_da-ga.mp3	da	ga	1	right
6.6.1	win	2023-06-02	08:01:45	08:25:12	1401781	630a2fd6e76ccbe74374656d	2	1	main_z	24	main_z	149	stimuli_distractor_trianglediamonds.svg	stimuli_target_trianglerectangles.svg	25	yes	44	1	712	6	3	antiphase_hc_soi.wav	1	6	2	noise_calib_stim_LEFT.wav	1	9	blb_dichoticlistening_da-ga.mp3	da	ga	1	right
6.6.1	win	2023-06-02	08:01:45	08:25:12	1401781	630a2fd6e76ccbe74374656d	2	1	main_z	24	advance_on_keypress_ZEE	150	stimuli_distractor_trianglediamonds.svg	stimuli_target_trianglerectangles.svg	25	yes	57	0	120	6	3	antiphase_hc_soi.wav	1	6	2	noise_calib_stim_LEFT.wav	1	9	blb_dichoticlistening_da-ga.mp3	da	ga	1	right
6.6.1	win	2023-06-02	08:01:45	08:25:15	1404524	630a2fd6e76ccbe74374656d	2	1	main_z	24	main_z	151	stimuli_distractor_trianglediamonds.svg	stimuli_target_rectangletriangles.svg	9	yes	0	0	2000	6	3	antiphase_hc_soi.wav	1	6	2	noise_calib_stim_LEFT.wav	1	9	blb_dichoticlistening_da-ga.mp3	da	ga	1	right
6.6.1	win	2023-06-02	08:01:45	08:25:15	1404524	630a2fd6e76ccbe74374656d	2	1	main_z	24	advance_on_keypress_ZEE	152	stimuli_distractor_trianglediamonds.svg	stimuli_target_rectangletriangles.svg	9	yes	57	0	453	6	3	antiphase_hc_soi.wav	1	6	2	noise_calib_stim_LEFT.wav	1	9	blb_dichoticlistening_da-ga.mp3	da	ga	1	right
6.6.1	win	2023-06-02	08:01:45	08:25:16	1406283	630a2fd6e76ccbe74374656d	2	1	main_z	24	main_z	153	stimuli_distractor_trianglediamonds.svg	stimuli_target_trianglesquares.svg	26	yes	44	1	686	6	3	antiphase_hc_soi.wav	1	6	2	noise_calib_stim_LEFT.wav	1	9	blb_dichoticlistening_da-ga.mp3	da	ga	1	right
6.6.1	win	2023-06-02	08:01:45	08:25:16	1406283	630a2fd6e76ccbe74374656d	2	1	main_z	24	advance_on_keypress_ZEE	154	stimuli_distractor_trianglediamonds.svg	stimuli_target_trianglesquares.svg	26	yes	57	0	96	6	3	antiphase_hc_soi.wav	1	6	2	noise_calib_stim_LEFT.wav	1	9	blb_dichoticlistening_da-ga.mp3	da	ga	1	right
6.6.1	win	2023-06-02	08:01:45	08:25:18	1407783	630a2fd6e76ccbe74374656d	2	1	main_z	24	main_z	155	stimuli_target_trianglerectangles.svg	stimuli_distractor_diamondtriangles.svg	21	yes	44	1	781	6	3	antiphase_hc_soi.wav	1	6	2	noise_calib_stim_LEFT.wav	1	9	blb_dichoticlistening_da-ga.mp3	da	ga	1	right
6.6.1	win	2023-06-02	08:01:45	08:25:18	1407783	630a2fd6e76ccbe74374656d	2	1	main_z	24	advance_on_keypress_ZEE	156	stimuli_target_trianglerectangles.svg	stimuli_distractor_diamondtriangles.svg	21	yes	57	0	87	6	3	antiphase_hc_soi.wav	1	6	2	noise_calib_stim_LEFT.wav	1	9	blb_dichoticlistening_da-ga.mp3	da	ga	1	right
6.6.1	win	2023-06-02	08:01:45	08:25:21	1410493	630a2fd6e76ccbe74374656d	2	1	main_z	24	main_z	157	stimuli_distractor_diamondtriangles.svg	stimuli_distractor_diamondtriangles.svg	39	no	0	1	2000	6	3	antiphase_hc_soi.wav	1	6	2	noise_calib_stim_LEFT.wav	1	9	blb_dichoticlistening_da-ga.mp3	da	ga	1	right
6.6.1	win	2023-06-02	08:01:45	08:25:21	1410493	630a2fd6e76ccbe74374656d	2	1	main_z	24	advance_on_keypress_ZEE	158	stimuli_distractor_diamondtriangles.svg	stimuli_distractor_diamondtriangles.svg	39	no	57	0	1824	6	3	antiphase_hc_soi.wav	1	6	2	noise_calib_stim_LEFT.wav	1	9	blb_dichoticlistening_da-ga.mp3	da	ga	1	right
6.6.1	win	2023-06-02	08:01:45	08:25:24	1413680	630a2fd6e76ccbe74374656d	2	1	main_z	24	main_z	159	stimuli_distractor_trianglediamonds.svg	stimuli_target_squarediamonds.svg	12	yes	44	1	745	6	3	antiphase_hc_soi.wav	1	6	2	noise_calib_stim_LEFT.wav	1	9	blb_dichoticlistening_da-ga.mp3	da	ga	1	right
6.6.1	win	2023-06-02	08:01:45	08:25:24	1413680	630a2fd6e76ccbe74374656d	2	1	main_z	24	advance_on_keypress_ZEE	160	stimuli_distractor_trianglediamonds.svg	stimuli_target_squarediamonds.svg	12	yes	57	0	176	6	3	antiphase_hc_soi.wav	1	6	2	noise_calib_stim_LEFT.wav	1	9	blb_dichoticlistening_da-ga.mp3	da	ga	1	right
6.6.1	win	2023-06-02	08:01:45	08:25:47	1437288	630a2fd6e76ccbe74374656d	2	1	practice_slash	26	practice_slash	1	stimuli_distractor_trianglediamonds.svg	stimuli_distractor_diamondtriangles.svg	16	no	0	1	2000	6	3	antiphase_hc_soi.wav	1	6	2	noise_calib_stim_LEFT.wav	1	9	blb_dichoticlistening_da-ga.mp3	da	ga	1	right
6.6.1	win	2023-06-02	08:01:45	08:25:47	1437288	630a2fd6e76ccbe74374656d	2	1	practice_slash	26	advance_on_keypress_SLASH	2	stimuli_distractor_trianglediamonds.svg	stimuli_distractor_diamondtriangles.svg	16	no	57	0	357	6	3	antiphase_hc_soi.wav	1	6	2	noise_calib_stim_LEFT.wav	1	9	blb_dichoticlistening_da-ga.mp3	da	ga	1	right
6.6.1	win	2023-06-02	08:01:45	08:25:51	1441275	630a2fd6e76ccbe74374656d	2	1	practice_slash	26	practice_slash	3	stimuli_distractor_trianglediamonds.svg	stimuli_distractor_trianglediamonds.svg	15	no	0	1	2000	6	3	antiphase_hc_soi.wav	1	6	2	noise_calib_stim_LEFT.wav	1	9	blb_dichoticlistening_da-ga.mp3	da	ga	1	right
6.6.1	win	2023-06-02	08:01:45	08:25:51	1441275	630a2fd6e76ccbe74374656d	2	1	practice_slash	26	advance_on_keypress_SLASH	4	stimuli_distractor_trianglediamonds.svg	stimuli_distractor_trianglediamonds.svg	15	no	57	0	458	6	3	antiphase_hc_soi.wav	1	6	2	noise_calib_stim_LEFT.wav	1	9	blb_dichoticlistening_da-ga.mp3	da	ga	1	right
6.6.1	win	2023-06-02	08:01:45	08:25:54	1444023	630a2fd6e76ccbe74374656d	2	1	practice_slash	26	practice_slash	5	stimuli_distractor_trianglediamonds.svg	stimuli_target_squarediamonds.svg	11	yes	53	1	663	6	3	antiphase_hc_soi.wav	1	6	2	noise_calib_stim_LEFT.wav	1	9	blb_dichoticlistening_da-ga.mp3	da	ga	1	right
6.6.1	win	2023-06-02	08:01:45	08:25:54	1444023	630a2fd6e76ccbe74374656d	2	1	practice_slash	26	advance_on_keypress_SLASH	6	stimuli_distractor_trianglediamonds.svg	stimuli_target_squarediamonds.svg	11	yes	57	0	392	6	3	antiphase_hc_soi.wav	1	6	2	noise_calib_stim_LEFT.wav	1	9	blb_dichoticlistening_da-ga.mp3	da	ga	1	right
6.6.1	win	2023-06-02	08:01:45	08:25:57	1447051	630a2fd6e76ccbe74374656d	2	1	practice_slash	26	practice_slash	7	stimuli_distractor_trianglediamonds.svg	stimuli_target_diamondrectangles.svg	12	yes	53	1	1012	6	3	antiphase_hc_soi.wav	1	6	2	noise_calib_stim_LEFT.wav	1	9	blb_dichoticlistening_da-ga.mp3	da	ga	1	right
6.6.1	win	2023-06-02	08:01:45	08:25:57	1447051	630a2fd6e76ccbe74374656d	2	1	practice_slash	26	advance_on_keypress_SLASH	8	stimuli_distractor_trianglediamonds.svg	stimuli_target_diamondrectangles.svg	12	yes	57	0	64	6	3	antiphase_hc_soi.wav	1	6	2	noise_calib_stim_LEFT.wav	1	9	blb_dichoticlistening_da-ga.mp3	da	ga	1	right
6.6.1	win	2023-06-02	08:01:45	08:26:01	1450742	630a2fd6e76ccbe74374656d	2	1	practice_slash	26	practice_slash	9	stimuli_distractor_diamondtriangles.svg	stimuli_distractor_diamondtriangles.svg	13	no	0	1	2000	6	3	antiphase_hc_soi.wav	1	6	2	noise_calib_stim_LEFT.wav	1	9	blb_dichoticlistening_da-ga.mp3	da	ga	1	right
6.6.1	win	2023-06-02	08:01:45	08:26:01	1450742	630a2fd6e76ccbe74374656d	2	1	practice_slash	26	advance_on_keypress_SLASH	10	stimuli_distractor_diamondtriangles.svg	stimuli_distractor_diamondtriangles.svg	13	no	57	0	350	6	3	antiphase_hc_soi.wav	1	6	2	noise_calib_stim_LEFT.wav	1	9	blb_dichoticlistening_da-ga.mp3	da	ga	1	right
6.6.1	win	2023-06-02	08:01:45	08:26:04	1453533	630a2fd6e76ccbe74374656d	2	1	practice_slash	26	practice_slash	11	stimuli_target_squarediamonds.svg	stimuli_distractor_trianglediamonds.svg	5	yes	53	1	816	6	3	antiphase_hc_soi.wav	1	6	2	noise_calib_stim_LEFT.wav	1	9	blb_dichoticlistening_da-ga.mp3	da	ga	1	right
6.6.1	win	2023-06-02	08:01:45	08:26:04	1453533	630a2fd6e76ccbe74374656d	2	1	practice_slash	26	advance_on_keypress_SLASH	12	stimuli_target_squarediamonds.svg	stimuli_distractor_trianglediamonds.svg	5	yes	57	0	322	6	3	antiphase_hc_soi.wav	1	6	2	noise_calib_stim_LEFT.wav	1	9	blb_dichoticlistening_da-ga.mp3	da	ga	1	right
6.6.1	win	2023-06-02	08:01:45	08:26:07	1456339	630a2fd6e76ccbe74374656d	2	1	practice_slash	26	practice_slash	13	stimuli_distractor_diamondtriangles.svg	stimuli_target_rectangletriangles.svg	7	yes	53	1	859	6	3	antiphase_hc_soi.wav	1	6	2	noise_calib_stim_LEFT.wav	1	9	blb_dichoticlistening_da-ga.mp3	da	ga	1	right
6.6.1	win	2023-06-02	08:01:45	08:26:07	1456339	630a2fd6e76ccbe74374656d	2	1	practice_slash	26	advance_on_keypress_SLASH	14	stimuli_distractor_diamondtriangles.svg	stimuli_target_rectangletriangles.svg	7	yes	57	0	0	6	3	antiphase_hc_soi.wav	1	6	2	noise_calib_stim_LEFT.wav	1	9	blb_dichoticlistening_da-ga.mp3	da	ga	1	right
6.6.1	win	2023-06-02	08:01:45	08:26:10	1460074	630a2fd6e76ccbe74374656d	2	1	practice_slash	26	practice_slash	15	stimuli_distractor_diamondtriangles.svg	stimuli_distractor_trianglediamonds.svg	14	no	0	1	2000	6	3	antiphase_hc_soi.wav	1	6	2	noise_calib_stim_LEFT.wav	1	9	blb_dichoticlistening_da-ga.mp3	da	ga	1	right
6.6.1	win	2023-06-02	08:01:45	08:26:10	1460074	630a2fd6e76ccbe74374656d	2	1	practice_slash	26	advance_on_keypress_SLASH	16	stimuli_distractor_diamondtriangles.svg	stimuli_distractor_trianglediamonds.svg	14	no	57	0	349	6	3	antiphase_hc_soi.wav	1	6	2	noise_calib_stim_LEFT.wav	1	9	blb_dichoticlistening_da-ga.mp3	da	ga	1	right
6.6.1	win	2023-06-02	08:01:45	08:26:13	1462733	630a2fd6e76ccbe74374656d	2	1	practice_slash	26	practice_slash	17	stimuli_distractor_trianglediamonds.svg	stimuli_target_rectanglediamonds.svg	10	yes	53	1	683	6	3	antiphase_hc_soi.wav	1	6	2	noise_calib_stim_LEFT.wav	1	9	blb_dichoticlistening_da-ga.mp3	da	ga	1	right
6.6.1	win	2023-06-02	08:01:45	08:26:13	1462733	630a2fd6e76ccbe74374656d	2	1	practice_slash	26	advance_on_keypress_SLASH	18	stimuli_distractor_trianglediamonds.svg	stimuli_target_rectanglediamonds.svg	10	yes	57	0	203	6	3	antiphase_hc_soi.wav	1	6	2	noise_calib_stim_LEFT.wav	1	9	blb_dichoticlistening_da-ga.mp3	da	ga	1	right
6.6.1	win	2023-06-02	08:01:45	08:26:16	1465701	630a2fd6e76ccbe74374656d	2	1	practice_slash	26	practice_slash	19	stimuli_target_diamondsquares.svg	stimuli_distractor_diamondtriangles.svg	3	yes	53	1	1142	6	3	antiphase_hc_soi.wav	1	6	2	noise_calib_stim_LEFT.wav	1	9	blb_dichoticlistening_da-ga.mp3	da	ga	1	right
