build	computer.platform	date	time	timestamp	time_elapsed_ms	subject	group	session	blockcode	blocknum	trialcode	trialnum	stimulus_left	stimulus_right	stim_index	target_present	response	correct	latency	headphonecheck_countTestTrials	headphonecheck_index	headphonecheck_testSound	headphonecheck_correctResponse	stereocheck_countTestTrials	stereocheck_index	stereocheck_testSound	stereocheck_correctResponse	DL_index	DL_soundfile	DL_leftSound	DL_rightSound	DL_dualSound	DL_choice
6.6.1	win	2023-06-02	08:38:41	08:41:34	171029	61084dbab48ab21fce452554	4	1	practice_z	5	practice_z	1	stimuli_target_diamondsquares.svg	stimuli_distractor_trianglediamonds.svg	6	yes	44	1	556	0	0			0	0			1				0	
6.6.1	win	2023-06-02	08:38:41	08:41:34	171029	61084dbab48ab21fce452554	4	1	practice_z	5	advance_on_keypress_ZEE	2	stimuli_target_diamondsquares.svg	stimuli_distractor_trianglediamonds.svg	6	yes	57	0	1002	0	0			0	0			1				0	
6.6.1	win	2023-06-02	08:38:41	08:41:37	174054	61084dbab48ab21fce452554	4	1	practice_z	5	practice_z	3	stimuli_distractor_trianglediamonds.svg	stimuli_distractor_diamondtriangles.svg	16	no	44	0	381	0	0			0	0			1				0	
6.6.1	win	2023-06-02	08:38:41	08:41:37	174054	61084dbab48ab21fce452554	4	1	practice_z	5	advance_on_keypress_ZEE	4	stimuli_distractor_trianglediamonds.svg	stimuli_distractor_diamondtriangles.svg	16	no	57	0	1102	0	0			0	0			1				0	
6.6.1	win	2023-06-02	08:38:41	08:41:41	177800	61084dbab48ab21fce452554	4	1	practice_z	5	practice_z	5	stimuli_distractor_diamondtriangles.svg	stimuli_target_diamondrectangles.svg	8	yes	44	1	994	0	0			0	0			1				0	
6.6.1	win	2023-06-02	08:38:41	08:41:41	177800	61084dbab48ab21fce452554	4	1	practice_z	5	advance_on_keypress_ZEE	6	stimuli_distractor_diamondtriangles.svg	stimuli_target_diamondrectangles.svg	8	yes	57	0	1078	0	0			0	0			1				0	
6.6.1	win	2023-06-02	08:38:41	08:41:44	181279	61084dbab48ab21fce452554	4	1	practice_z	5	practice_z	7	stimuli_distractor_diamondtriangles.svg	stimuli_distractor_trianglediamonds.svg	14	no	44	0	773	0	0			0	0			1				0	
6.6.1	win	2023-06-02	08:38:41	08:41:44	181279	61084dbab48ab21fce452554	4	1	practice_z	5	advance_on_keypress_ZEE	8	stimuli_distractor_diamondtriangles.svg	stimuli_distractor_trianglediamonds.svg	14	no	57	0	927	0	0			0	0			1				0	
6.6.1	win	2023-06-02	08:38:41	08:41:49	185839	61084dbab48ab21fce452554	4	1	practice_z	5	practice_z	9	stimuli_distractor_diamondtriangles.svg	stimuli_target_trianglerectangles.svg	9	yes	0	0	2000	0	0			0	0			1				0	
6.6.1	win	2023-06-02	08:38:41	08:41:49	185839	61084dbab48ab21fce452554	4	1	practice_z	5	advance_on_keypress_ZEE	10	stimuli_distractor_diamondtriangles.svg	stimuli_target_trianglerectangles.svg	9	yes	57	0	816	0	0			0	0			1				0	
6.6.1	win	2023-06-02	08:38:41	08:41:52	188786	61084dbab48ab21fce452554	4	1	practice_z	5	practice_z	11	stimuli_target_rectanglediamonds.svg	stimuli_distractor_diamondtriangles.svg	1	yes	44	1	480	0	0			0	0			1				0	
6.6.1	win	2023-06-02	08:38:41	08:41:52	188786	61084dbab48ab21fce452554	4	1	practice_z	5	advance_on_keypress_ZEE	12	stimuli_target_rectanglediamonds.svg	stimuli_distractor_diamondtriangles.svg	1	yes	57	0	870	0	0			0	0			1				0	
6.6.1	win	2023-06-02	08:38:41	08:41:55	192300	61084dbab48ab21fce452554	4	1	practice_z	5	practice_z	13	stimuli_target_squarediamonds.svg	stimuli_distractor_trianglediamonds.svg	5	yes	44	1	994	0	0			0	0			1				0	
6.6.1	win	2023-06-02	08:38:41	08:41:55	192300	61084dbab48ab21fce452554	4	1	practice_z	5	advance_on_keypress_ZEE	14	stimuli_target_squarediamonds.svg	stimuli_distractor_trianglediamonds.svg	5	yes	57	0	554	0	0			0	0			1				0	
6.6.1	win	2023-06-02	08:38:41	08:41:58	195045	61084dbab48ab21fce452554	4	1	practice_z	5	practice_z	15	stimuli_distractor_trianglediamonds.svg	stimuli_target_rectanglediamonds.svg	10	yes	44	1	555	0	0			0	0			1				0	
6.6.1	win	2023-06-02	08:38:41	08:41:58	195045	61084dbab48ab21fce452554	4	1	practice_z	5	advance_on_keypress_ZEE	16	stimuli_distractor_trianglediamonds.svg	stimuli_target_rectanglediamonds.svg	10	yes	57	0	4343	0	0			0	0			1				0	
6.6.1	win	2023-06-02	08:38:41	08:42:05	201538	61084dbab48ab21fce452554	4	1	practice_z	5	practice_z	17	stimuli_distractor_trianglediamonds.svg	stimuli_target_squarediamonds.svg	11	yes	44	1	504	0	0			0	0			1				0	
6.6.1	win	2023-06-02	08:38:41	08:42:05	201538	61084dbab48ab21fce452554	4	1	practice_z	5	advance_on_keypress_ZEE	18	stimuli_distractor_trianglediamonds.svg	stimuli_target_squarediamonds.svg	11	yes	57	0	737	0	0			0	0			1				0	
6.6.1	win	2023-06-02	08:38:41	08:42:07	204488	61084dbab48ab21fce452554	4	1	practice_z	5	practice_z	19	stimuli_target_squarediamonds.svg	stimuli_distractor_diamondtriangles.svg	2	yes	44	1	565	0	0			0	0			1				0	
6.6.1	win	2023-06-02	08:38:41	08:42:07	204488	61084dbab48ab21fce452554	4	1	practice_z	5	advance_on_keypress_ZEE	20	stimuli_target_squarediamonds.svg	stimuli_distractor_diamondtriangles.svg	2	yes	57	0	458	0	0			0	0			1				0	
6.6.1	win	2023-06-02	08:38:41	08:42:10	207254	61084dbab48ab21fce452554	4	1	practice_z	5	practice_z	21	stimuli_target_rectanglediamonds.svg	stimuli_distractor_trianglediamonds.svg	4	yes	44	1	664	0	0			0	0			1				0	
6.6.1	win	2023-06-02	08:38:41	08:42:10	207254	61084dbab48ab21fce452554	4	1	practice_z	5	advance_on_keypress_ZEE	22	stimuli_target_rectanglediamonds.svg	stimuli_distractor_trianglediamonds.svg	4	yes	57	0	472	0	0			0	0			1				0	
6.6.1	win	2023-06-02	08:38:41	08:42:14	211373	61084dbab48ab21fce452554	4	1	practice_z	5	practice_z	23	stimuli_distractor_trianglediamonds.svg	stimuli_target_diamondrectangles.svg	12	yes	0	0	2000	0	0			0	0			1				0	
6.6.1	win	2023-06-02	08:38:41	08:42:14	211373	61084dbab48ab21fce452554	4	1	practice_z	5	advance_on_keypress_ZEE	24	stimuli_distractor_trianglediamonds.svg	stimuli_target_diamondrectangles.svg	12	yes	57	0	847	0	0			0	0			1				0	
6.6.1	win	2023-06-02	08:38:41	08:42:18	214783	61084dbab48ab21fce452554	4	1	practice_z	5	practice_z	25	stimuli_target_diamondsquares.svg	stimuli_distractor_diamondtriangles.svg	3	yes	44	1	910	0	0			0	0			1				0	
6.6.1	win	2023-06-02	08:38:41	08:42:18	214783	61084dbab48ab21fce452554	4	1	practice_z	5	advance_on_keypress_ZEE	26	stimuli_target_diamondsquares.svg	stimuli_distractor_diamondtriangles.svg	3	yes	57	0	440	0	0			0	0			1				0	
6.6.1	win	2023-06-02	08:38:41	08:42:20	217447	61084dbab48ab21fce452554	4	1	practice_z	5	practice_z	27	stimuli_distractor_diamondtriangles.svg	stimuli_target_rectangletriangles.svg	7	yes	44	1	591	0	0			0	0			1				0	
6.6.1	win	2023-06-02	08:38:41	08:42:20	217447	61084dbab48ab21fce452554	4	1	practice_z	5	advance_on_keypress_ZEE	28	stimuli_distractor_diamondtriangles.svg	stimuli_target_rectangletriangles.svg	7	yes	57	0	615	0	0			0	0			1				0	
6.6.1	win	2023-06-02	08:38:41	08:42:25	221706	61084dbab48ab21fce452554	4	1	practice_z	5	practice_z	29	stimuli_distractor_diamondtriangles.svg	stimuli_distractor_diamondtriangles.svg	13	no	0	1	2000	0	0			0	0			1				0	
6.6.1	win	2023-06-02	08:38:41	08:42:25	221706	61084dbab48ab21fce452554	4	1	practice_z	5	advance_on_keypress_ZEE	30	stimuli_distractor_diamondtriangles.svg	stimuli_distractor_diamondtriangles.svg	13	no	57	0	471	0	0			0	0			1				0	
6.6.1	win	2023-06-02	08:38:41	08:42:29	225823	61084dbab48ab21fce452554	4	1	practice_z	5	practice_z	31	stimuli_distractor_trianglediamonds.svg	stimuli_distractor_trianglediamonds.svg	15	no	0	1	2000	0	0			0	0			1				0	
6.6.1	win	2023-06-02	08:38:41	08:42:29	225823	61084dbab48ab21fce452554	4	1	practice_z	5	advance_on_keypress_ZEE	32	stimuli_distractor_trianglediamonds.svg	stimuli_distractor_trianglediamonds.svg	15	no	57	0	456	0	0			0	0			1				0	
6.6.1	win	2023-06-02	08:38:41	08:42:38	235088	61084dbab48ab21fce452554	4	1	main_z	7	main_z	1	stimuli_distractor_diamondtriangles.svg	stimuli_distractor_trianglediamonds.svg	37	no	0	1	2000	0	0			0	0			1				0	
6.6.1	win	2023-06-02	08:38:41	08:42:38	235088	61084dbab48ab21fce452554	4	1	main_z	7	advance_on_keypress_ZEE	2	stimuli_distractor_diamondtriangles.svg	stimuli_distractor_trianglediamonds.svg	37	no	57	0	824	0	0			0	0			1				0	
6.6.1	win	2023-06-02	08:38:41	08:42:40	236950	61084dbab48ab21fce452554	4	1	main_z	7	main_z	3	stimuli_distractor_trianglediamonds.svg	stimuli_target_squaretriangles.svg	11	yes	44	1	394	0	0			0	0			1				0	
6.6.1	win	2023-06-02	08:38:41	08:42:40	236950	61084dbab48ab21fce452554	4	1	main_z	7	advance_on_keypress_ZEE	4	stimuli_distractor_trianglediamonds.svg	stimuli_target_squaretriangles.svg	11	yes	57	0	1001	0	0			0	0			1				0	
6.6.1	win	2023-06-02	08:38:41	08:42:42	238970	61084dbab48ab21fce452554	4	1	main_z	7	main_z	5	stimuli_distractor_diamondtriangles.svg	stimuli_target_squarediamonds.svg	16	yes	44	1	380	0	0			0	0			1				0	
6.6.1	win	2023-06-02	08:38:41	08:42:42	238970	61084dbab48ab21fce452554	4	1	main_z	7	advance_on_keypress_ZEE	6	stimuli_distractor_diamondtriangles.svg	stimuli_target_squarediamonds.svg	16	yes	57	0	747	0	0			0	0			1				0	
6.6.1	win	2023-06-02	08:38:41	08:42:44	240783	61084dbab48ab21fce452554	4	1	main_z	7	main_z	7	stimuli_distractor_diamondtriangles.svg	stimuli_target_rectangletriangles.svg	13	yes	44	1	411	0	0			0	0			1				0	
6.6.1	win	2023-06-02	08:38:41	08:42:44	240783	61084dbab48ab21fce452554	4	1	main_z	7	advance_on_keypress_ZEE	8	stimuli_distractor_diamondtriangles.svg	stimuli_target_rectangletriangles.svg	13	yes	57	0	644	0	0			0	0			1				0	
6.6.1	win	2023-06-02	08:38:41	08:42:47	244055	61084dbab48ab21fce452554	4	1	main_z	7	main_z	9	stimuli_distractor_diamondtriangles.svg	stimuli_distractor_diamondtriangles.svg	39	no	0	1	2000	0	0			0	0			1				0	
6.6.1	win	2023-06-02	08:38:41	08:42:47	244055	61084dbab48ab21fce452554	4	1	main_z	7	advance_on_keypress_ZEE	10	stimuli_distractor_diamondtriangles.svg	stimuli_distractor_diamondtriangles.svg	39	no	57	0	567	0	0			0	0			1				0	
6.6.1	win	2023-06-02	08:38:41	08:42:50	247272	61084dbab48ab21fce452554	4	1	main_z	7	main_z	11	stimuli_distractor_trianglediamonds.svg	stimuli_distractor_trianglediamonds.svg	33	no	0	1	2000	0	0			0	0			1				0	
6.6.1	win	2023-06-02	08:38:41	08:42:50	247272	61084dbab48ab21fce452554	4	1	main_z	7	advance_on_keypress_ZEE	12	stimuli_distractor_trianglediamonds.svg	stimuli_distractor_trianglediamonds.svg	33	no	57	0	813	0	0			0	0			1				0	
6.6.1	win	2023-06-02	08:38:41	08:42:52	249154	61084dbab48ab21fce452554	4	1	main_z	7	main_z	13	stimuli_distractor_diamondtriangles.svg	stimuli_target_rectanglediamonds.svg	14	yes	44	1	432	0	0			0	0			1				0	
6.6.1	win	2023-06-02	08:38:41	08:42:52	249154	61084dbab48ab21fce452554	4	1	main_z	7	advance_on_keypress_ZEE	14	stimuli_distractor_diamondtriangles.svg	stimuli_target_rectanglediamonds.svg	14	yes	57	0	529	0	0			0	0			1				0	
6.6.1	win	2023-06-02	08:38:41	08:42:54	251048	61084dbab48ab21fce452554	4	1	main_z	7	main_z	15	stimuli_target_squaretriangles.svg	stimuli_distractor_trianglediamonds.svg	3	yes	44	1	727	0	0			0	0			1				0	
6.6.1	win	2023-06-02	08:38:41	08:42:54	251048	61084dbab48ab21fce452554	4	1	main_z	7	advance_on_keypress_ZEE	16	stimuli_target_squaretriangles.svg	stimuli_distractor_trianglediamonds.svg	3	yes	57	0	612	0	0			0	0			1				0	
6.6.1	win	2023-06-02	08:38:41	08:42:56	253146	61084dbab48ab21fce452554	4	1	main_z	7	main_z	17	stimuli_target_trianglesquares.svg	stimuli_distractor_trianglediamonds.svg	18	yes	44	1	858	0	0			0	0			1				0	
6.6.1	win	2023-06-02	08:38:41	08:42:56	253146	61084dbab48ab21fce452554	4	1	main_z	7	advance_on_keypress_ZEE	18	stimuli_target_trianglesquares.svg	stimuli_distractor_trianglediamonds.svg	18	yes	57	0	537	0	0			0	0			1				0	
6.6.1	win	2023-06-02	08:38:41	08:42:59	256322	61084dbab48ab21fce452554	4	1	main_z	7	main_z	19	stimuli_distractor_trianglediamonds.svg	stimuli_distractor_diamondtriangles.svg	35	no	0	1	2000	0	0			0	0			1				0	
6.6.1	win	2023-06-02	08:38:41	08:42:59	256322	61084dbab48ab21fce452554	4	1	main_z	7	advance_on_keypress_ZEE	20	stimuli_distractor_trianglediamonds.svg	stimuli_distractor_diamondtriangles.svg	35	no	57	0	462	0	0			0	0			1				0	
6.6.1	win	2023-06-02	08:38:41	08:43:02	259422	61084dbab48ab21fce452554	4	1	main_z	7	main_z	21	stimuli_distractor_diamondtriangles.svg	stimuli_distractor_trianglediamonds.svg	38	no	0	1	2000	0	0			0	0			1				0	
6.6.1	win	2023-06-02	08:38:41	08:43:02	259422	61084dbab48ab21fce452554	4	1	main_z	7	advance_on_keypress_ZEE	22	stimuli_distractor_diamondtriangles.svg	stimuli_distractor_trianglediamonds.svg	38	no	57	0	444	0	0			0	0			1				0	
6.6.1	win	2023-06-02	08:38:41	08:43:04	261250	61084dbab48ab21fce452554	4	1	main_z	7	main_z	23	stimuli_distractor_trianglediamonds.svg	stimuli_distractor_trianglediamonds.svg	34	no	44	0	744	0	0			0	0			1				0	
6.6.1	win	2023-06-02	08:38:41	08:43:04	261250	61084dbab48ab21fce452554	4	1	main_z	7	advance_on_keypress_ZEE	24	stimuli_distractor_trianglediamonds.svg	stimuli_distractor_trianglediamonds.svg	34	no	57	0	543	0	0			0	0			1				0	
6.6.1	win	2023-06-02	08:38:41	08:43:06	263019	61084dbab48ab21fce452554	4	1	main_z	7	main_z	25	stimuli_distractor_trianglediamonds.svg	stimuli_target_rectanglediamonds.svg	10	yes	44	1	597	0	0			0	0			1				0	
6.6.1	win	2023-06-02	08:38:41	08:43:06	263019	61084dbab48ab21fce452554	4	1	main_z	7	advance_on_keypress_ZEE	26	stimuli_distractor_trianglediamonds.svg	stimuli_target_rectanglediamonds.svg	10	yes	57	0	582	0	0			0	0			1				0	
6.6.1	win	2023-06-02	08:38:41	08:43:08	265091	61084dbab48ab21fce452554	4	1	main_z	7	main_z	27	stimuli_target_diamondsquares.svg	stimuli_distractor_diamondtriangles.svg	24	yes	44	1	852	0	0			0	0			1				0	
6.6.1	win	2023-06-02	08:38:41	08:43:08	265091	61084dbab48ab21fce452554	4	1	main_z	7	advance_on_keypress_ZEE	28	stimuli_target_diamondsquares.svg	stimuli_distractor_diamondtriangles.svg	24	yes	57	0	431	0	0			0	0			1				0	
6.6.1	win	2023-06-02	08:38:41	08:43:11	268172	61084dbab48ab21fce452554	4	1	main_z	7	main_z	29	stimuli_target_squaretriangles.svg	stimuli_distractor_diamondtriangles.svg	7	yes	0	0	2000	0	0			0	0			1				0	
6.6.1	win	2023-06-02	08:38:41	08:43:11	268172	61084dbab48ab21fce452554	4	1	main_z	7	advance_on_keypress_ZEE	30	stimuli_target_squaretriangles.svg	stimuli_distractor_diamondtriangles.svg	7	yes	57	0	626	0	0			0	0			1				0	
6.6.1	win	2023-06-02	08:38:41	08:43:13	270124	61084dbab48ab21fce452554	4	1	main_z	7	main_z	31	stimuli_distractor_trianglediamonds.svg	stimuli_target_diamondsquares.svg	28	yes	44	1	686	0	0			0	0			1				0	
6.6.1	win	2023-06-02	08:38:41	08:43:13	270124	61084dbab48ab21fce452554	4	1	main_z	7	advance_on_keypress_ZEE	32	stimuli_distractor_trianglediamonds.svg	stimuli_target_diamondsquares.svg	28	yes	57	0	456	0	0			0	0			1				0	
6.6.1	win	2023-06-02	08:38:41	08:43:15	272138	61084dbab48ab21fce452554	4	1	main_z	7	main_z	33	stimuli_target_rectanglediamonds.svg	stimuli_distractor_diamondtriangles.svg	6	yes	44	1	916	0	0			0	0			1				0	
6.6.1	win	2023-06-02	08:38:41	08:43:15	272138	61084dbab48ab21fce452554	4	1	main_z	7	advance_on_keypress_ZEE	34	stimuli_target_rectanglediamonds.svg	stimuli_distractor_diamondtriangles.svg	6	yes	57	0	492	0	0			0	0			1				0	
6.6.1	win	2023-06-02	08:38:41	08:43:18	275272	61084dbab48ab21fce452554	4	1	main_z	7	main_z	35	stimuli_distractor_diamondtriangles.svg	stimuli_distractor_diamondtriangles.svg	40	no	0	1	2000	0	0			0	0			1				0	
6.6.1	win	2023-06-02	08:38:41	08:43:18	275272	61084dbab48ab21fce452554	4	1	main_z	7	advance_on_keypress_ZEE	36	stimuli_distractor_diamondtriangles.svg	stimuli_distractor_diamondtriangles.svg	40	no	57	0	567	0	0			0	0			1				0	
6.6.1	win	2023-06-02	08:38:41	08:43:20	277092	61084dbab48ab21fce452554	4	1	main_z	7	main_z	37	stimuli_target_rectangletriangles.svg	stimuli_distractor_trianglediamonds.svg	1	yes	44	1	603	0	0			0	0			1				0	
6.6.1	win	2023-06-02	08:38:41	08:43:20	277092	61084dbab48ab21fce452554	4	1	main_z	7	advance_on_keypress_ZEE	38	stimuli_target_rectangletriangles.svg	stimuli_distractor_trianglediamonds.svg	1	yes	57	0	424	0	0			0	0			1				0	
6.6.1	win	2023-06-02	08:38:41	08:43:23	279836	61084dbab48ab21fce452554	4	1	main_z	7	main_z	39	stimuli_distractor_diamondtriangles.svg	stimuli_target_trianglerectangles.svg	29	yes	44	1	1680	0	0			0	0			1				0	
6.6.1	win	2023-06-02	08:38:41	08:43:23	279836	61084dbab48ab21fce452554	4	1	main_z	7	advance_on_keypress_ZEE	40	stimuli_distractor_diamondtriangles.svg	stimuli_target_trianglerectangles.svg	29	yes	57	0	545	0	0			0	0			1				0	
6.6.1	win	2023-06-02	08:38:41	08:43:26	283005	61084dbab48ab21fce452554	4	1	main_z	7	main_z	41	stimuli_target_trianglerectangles.svg	stimuli_distractor_trianglediamonds.svg	17	yes	0	0	2000	0	0			0	0			1				0	
6.6.1	win	2023-06-02	08:38:41	08:43:26	283005	61084dbab48ab21fce452554	4	1	main_z	7	advance_on_keypress_ZEE	42	stimuli_target_trianglerectangles.svg	stimuli_distractor_trianglediamonds.svg	17	yes	57	0	716	0	0			0	0			1				0	
6.6.1	win	2023-06-02	08:38:41	08:43:29	286372	61084dbab48ab21fce452554	4	1	main_z	7	main_z	43	stimuli_distractor_diamondtriangles.svg	stimuli_target_diamondrectangles.svg	31	yes	0	0	2000	0	0			0	0			1				0	
6.6.1	win	2023-06-02	08:38:41	08:43:29	286372	61084dbab48ab21fce452554	4	1	main_z	7	advance_on_keypress_ZEE	44	stimuli_distractor_diamondtriangles.svg	stimuli_target_diamondrectangles.svg	31	yes	57	0	477	0	0			0	0			1				0	
6.6.1	win	2023-06-02	08:38:41	08:43:31	288161	61084dbab48ab21fce452554	4	1	main_z	7	main_z	45	stimuli_distractor_diamondtriangles.svg	stimuli_target_trianglesquares.svg	30	yes	44	1	672	0	0			0	0			1				0	
6.6.1	win	2023-06-02	08:38:41	08:43:31	288161	61084dbab48ab21fce452554	4	1	main_z	7	advance_on_keypress_ZEE	46	stimuli_distractor_diamondtriangles.svg	stimuli_target_trianglesquares.svg	30	yes	57	0	460	0	0			0	0			1				0	
6.6.1	win	2023-06-02	08:38:41	08:43:33	289942	61084dbab48ab21fce452554	4	1	main_z	7	main_z	47	stimuli_target_rectangletriangles.svg	stimuli_distractor_diamondtriangles.svg	5	yes	44	1	686	0	0			0	0			1				0	
6.6.1	win	2023-06-02	08:38:41	08:43:33	289942	61084dbab48ab21fce452554	4	1	main_z	7	advance_on_keypress_ZEE	48	stimuli_target_rectangletriangles.svg	stimuli_distractor_diamondtriangles.svg	5	yes	57	0	403	0	0			0	0			1				0	
6.6.1	win	2023-06-02	08:38:41	08:43:34	291445	61084dbab48ab21fce452554	4	1	main_z	7	main_z	49	stimuli_target_rectanglediamonds.svg	stimuli_distractor_trianglediamonds.svg	2	yes	44	1	456	0	0			0	0			1				0	
6.6.1	win	2023-06-02	08:38:41	08:43:34	291445	61084dbab48ab21fce452554	4	1	main_z	7	advance_on_keypress_ZEE	50	stimuli_target_rectanglediamonds.svg	stimuli_distractor_trianglediamonds.svg	2	yes	57	0	505	0	0			0	0			1				0	
6.6.1	win	2023-06-02	08:38:41	08:43:36	293446	61084dbab48ab21fce452554	4	1	main_z	7	main_z	51	stimuli_distractor_trianglediamonds.svg	stimuli_target_trianglesquares.svg	26	yes	44	1	858	0	0			0	0			1				0	
6.6.1	win	2023-06-02	08:38:41	08:43:36	293446	61084dbab48ab21fce452554	4	1	main_z	7	advance_on_keypress_ZEE	52	stimuli_distractor_trianglediamonds.svg	stimuli_target_trianglesquares.svg	26	yes	57	0	465	0	0			0	0			1				0	
6.6.1	win	2023-06-02	08:38:41	08:43:40	296555	61084dbab48ab21fce452554	4	1	main_z	7	main_z	53	stimuli_target_squarediamonds.svg	stimuli_distractor_trianglediamonds.svg	4	yes	0	0	2000	0	0			0	0			1				0	
6.6.1	win	2023-06-02	08:38:41	08:43:40	296555	61084dbab48ab21fce452554	4	1	main_z	7	advance_on_keypress_ZEE	54	stimuli_target_squarediamonds.svg	stimuli_distractor_trianglediamonds.svg	4	yes	57	0	408	0	0			0	0			1				0	
6.6.1	win	2023-06-02	08:38:41	08:43:41	298199	61084dbab48ab21fce452554	4	1	main_z	7	main_z	55	stimuli_distractor_diamondtriangles.svg	stimuli_target_squaretriangles.svg	15	yes	44	1	593	0	0			0	0			1				0	
6.6.1	win	2023-06-02	08:38:41	08:43:41	298199	61084dbab48ab21fce452554	4	1	main_z	7	advance_on_keypress_ZEE	56	stimuli_distractor_diamondtriangles.svg	stimuli_target_squaretriangles.svg	15	yes	57	0	337	0	0			0	0			1				0	
6.6.1	win	2023-06-02	08:38:41	08:43:44	301172	61084dbab48ab21fce452554	4	1	main_z	7	main_z	57	stimuli_target_diamondrectangles.svg	stimuli_distractor_trianglediamonds.svg	19	yes	0	0	2000	0	0			0	0			1				0	
6.6.1	win	2023-06-02	08:38:41	08:43:44	301172	61084dbab48ab21fce452554	4	1	main_z	7	advance_on_keypress_ZEE	58	stimuli_target_diamondrectangles.svg	stimuli_distractor_trianglediamonds.svg	19	yes	57	0	354	0	0			0	0			1				0	
6.6.1	win	2023-06-02	08:38:41	08:43:45	302480	61084dbab48ab21fce452554	4	1	main_z	7	main_z	59	stimuli_distractor_trianglediamonds.svg	stimuli_target_rectangletriangles.svg	9	yes	44	1	307	0	0			0	0			1				0	
6.6.1	win	2023-06-02	08:38:41	08:43:45	302480	61084dbab48ab21fce452554	4	1	main_z	7	advance_on_keypress_ZEE	60	stimuli_distractor_trianglediamonds.svg	stimuli_target_rectangletriangles.svg	9	yes	57	0	431	0	0			0	0			1				0	
6.6.1	win	2023-06-02	08:38:41	08:43:49	305555	61084dbab48ab21fce452554	4	1	main_z	7	main_z	61	stimuli_distractor_diamondtriangles.svg	stimuli_target_diamondsquares.svg	32	yes	0	0	2000	0	0			0	0			1				0	
6.6.1	win	2023-06-02	08:38:41	08:43:49	305555	61084dbab48ab21fce452554	4	1	main_z	7	advance_on_keypress_ZEE	62	stimuli_distractor_diamondtriangles.svg	stimuli_target_diamondsquares.svg	32	yes	57	0	472	0	0			0	0			1				0	
6.6.1	win	2023-06-02	08:38:41	08:43:52	308672	61084dbab48ab21fce452554	4	1	main_z	7	main_z	63	stimuli_target_diamondsquares.svg	stimuli_distractor_trianglediamonds.svg	20	yes	0	0	2000	0	0			0	0			1				0	
6.6.1	win	2023-06-02	08:38:41	08:43:52	308672	61084dbab48ab21fce452554	4	1	main_z	7	advance_on_keypress_ZEE	64	stimuli_target_diamondsquares.svg	stimuli_distractor_trianglediamonds.svg	20	yes	57	0	469	0	0			0	0			1				0	
6.6.1	win	2023-06-02	08:38:41	08:43:53	310384	61084dbab48ab21fce452554	4	1	main_z	7	main_z	65	stimuli_target_trianglerectangles.svg	stimuli_distractor_diamondtriangles.svg	21	yes	44	1	595	0	0			0	0			1				0	
6.6.1	win	2023-06-02	08:38:41	08:43:53	310384	61084dbab48ab21fce452554	4	1	main_z	7	advance_on_keypress_ZEE	66	stimuli_target_trianglerectangles.svg	stimuli_distractor_diamondtriangles.svg	21	yes	57	0	363	0	0			0	0			1				0	
6.6.1	win	2023-06-02	08:38:41	08:43:55	311948	61084dbab48ab21fce452554	4	1	main_z	7	main_z	67	stimuli_distractor_trianglediamonds.svg	stimuli_target_trianglerectangles.svg	25	yes	44	1	575	0	0			0	0			1				0	
6.6.1	win	2023-06-02	08:38:41	08:43:55	311948	61084dbab48ab21fce452554	4	1	main_z	7	advance_on_keypress_ZEE	68	stimuli_distractor_trianglediamonds.svg	stimuli_target_trianglerectangles.svg	25	yes	57	0	363	0	0			0	0			1				0	
6.6.1	win	2023-06-02	08:38:41	08:43:56	313454	61084dbab48ab21fce452554	4	1	main_z	7	main_z	69	stimuli_distractor_trianglediamonds.svg	stimuli_target_diamondrectangles.svg	27	yes	44	1	503	0	0			0	0			1				0	
6.6.1	win	2023-06-02	08:38:41	08:43:56	313454	61084dbab48ab21fce452554	4	1	main_z	7	advance_on_keypress_ZEE	70	stimuli_distractor_trianglediamonds.svg	stimuli_target_diamondrectangles.svg	27	yes	57	0	301	0	0			0	0			1				0	
6.6.1	win	2023-06-02	08:38:41	08:43:58	315177	61084dbab48ab21fce452554	4	1	main_z	7	main_z	71	stimuli_target_trianglesquares.svg	stimuli_distractor_diamondtriangles.svg	22	yes	44	1	771	0	0			0	0			1				0	
6.6.1	win	2023-06-02	08:38:41	08:43:58	315177	61084dbab48ab21fce452554	4	1	main_z	7	advance_on_keypress_ZEE	72	stimuli_target_trianglesquares.svg	stimuli_distractor_diamondtriangles.svg	22	yes	57	0	290	0	0			0	0			1				0	
6.6.1	win	2023-06-02	08:38:41	08:44:00	316936	61084dbab48ab21fce452554	4	1	main_z	7	main_z	73	stimuli_target_squarediamonds.svg	stimuli_distractor_diamondtriangles.svg	8	yes	44	1	831	0	0			0	0			1				0	
6.6.1	win	2023-06-02	08:38:41	08:44:00	316936	61084dbab48ab21fce452554	4	1	main_z	7	advance_on_keypress_ZEE	74	stimuli_target_squarediamonds.svg	stimuli_distractor_diamondtriangles.svg	8	yes	57	0	476	0	0			0	0			1				0	
6.6.1	win	2023-06-02	08:38:41	08:44:03	320039	61084dbab48ab21fce452554	4	1	main_z	7	main_z	75	stimuli_distractor_trianglediamonds.svg	stimuli_distractor_diamondtriangles.svg	36	no	0	1	2000	0	0			0	0			1				0	
6.6.1	win	2023-06-02	08:38:41	08:44:03	320039	61084dbab48ab21fce452554	4	1	main_z	7	advance_on_keypress_ZEE	76	stimuli_distractor_trianglediamonds.svg	stimuli_distractor_diamondtriangles.svg	36	no	57	0	351	0	0			0	0			1				0	
6.6.1	win	2023-06-02	08:38:41	08:44:05	321779	61084dbab48ab21fce452554	4	1	main_z	7	main_z	77	stimuli_target_diamondrectangles.svg	stimuli_distractor_diamondtriangles.svg	23	yes	44	1	741	0	0			0	0			1				0	
6.6.1	win	2023-06-02	08:38:41	08:44:05	321779	61084dbab48ab21fce452554	4	1	main_z	7	advance_on_keypress_ZEE	78	stimuli_target_diamondrectangles.svg	stimuli_distractor_diamondtriangles.svg	23	yes	57	0	428	0	0			0	0			1				0	
6.6.1	win	2023-06-02	08:38:41	08:44:07	324091	61084dbab48ab21fce452554	4	1	main_z	7	main_z	79	stimuli_distractor_trianglediamonds.svg	stimuli_target_squarediamonds.svg	12	yes	44	1	1253	0	0			0	0			1				0	
6.6.1	win	2023-06-02	08:38:41	08:44:07	324091	61084dbab48ab21fce452554	4	1	main_z	7	advance_on_keypress_ZEE	80	stimuli_distractor_trianglediamonds.svg	stimuli_target_squarediamonds.svg	12	yes	57	0	496	0	0			0	0			1				0	
6.6.1	win	2023-06-02	08:38:41	08:44:10	327222	61084dbab48ab21fce452554	4	1	main_z	7	main_z	81	stimuli_target_trianglesquares.svg	stimuli_distractor_trianglediamonds.svg	18	yes	0	0	2000	0	0			0	0			1				0	
6.6.1	win	2023-06-02	08:38:41	08:44:10	327222	61084dbab48ab21fce452554	4	1	main_z	7	advance_on_keypress_ZEE	82	stimuli_target_trianglesquares.svg	stimuli_distractor_trianglediamonds.svg	18	yes	57	0	558	0	0			0	0			1				0	
6.6.1	win	2023-06-02	08:38:41	08:44:12	329164	61084dbab48ab21fce452554	4	1	main_z	7	main_z	83	stimuli_target_squarediamonds.svg	stimuli_distractor_diamondtriangles.svg	8	yes	44	1	741	0	0			0	0			1				0	
6.6.1	win	2023-06-02	08:38:41	08:44:12	329164	61084dbab48ab21fce452554	4	1	main_z	7	advance_on_keypress_ZEE	84	stimuli_target_squarediamonds.svg	stimuli_distractor_diamondtriangles.svg	8	yes	57	0	394	0	0			0	0			1				0	
6.6.1	win	2023-06-02	08:38:41	08:44:15	332189	61084dbab48ab21fce452554	4	1	main_z	7	main_z	85	stimuli_distractor_diamondtriangles.svg	stimuli_target_diamondrectangles.svg	31	yes	0	0	2000	0	0			0	0			1				0	
6.6.1	win	2023-06-02	08:38:41	08:44:15	332189	61084dbab48ab21fce452554	4	1	main_z	7	advance_on_keypress_ZEE	86	stimuli_distractor_diamondtriangles.svg	stimuli_target_diamondrectangles.svg	31	yes	57	0	2818	0	0			0	0			1				0	
6.6.1	win	2023-06-02	08:38:41	08:44:19	336151	61084dbab48ab21fce452554	4	1	main_z	7	main_z	87	stimuli_distractor_diamondtriangles.svg	stimuli_target_rectanglediamonds.svg	14	yes	44	1	496	0	0			0	0			1				0	
6.6.1	win	2023-06-02	08:38:41	08:44:19	336151	61084dbab48ab21fce452554	4	1	main_z	7	advance_on_keypress_ZEE	88	stimuli_distractor_diamondtriangles.svg	stimuli_target_rectanglediamonds.svg	14	yes	57	0	401	0	0			0	0			1				0	
6.6.1	win	2023-06-02	08:38:41	08:44:21	337820	61084dbab48ab21fce452554	4	1	main_z	7	main_z	89	stimuli_distractor_trianglediamonds.svg	stimuli_target_diamondsquares.svg	28	yes	44	1	631	0	0			0	0			1				0	
6.6.1	win	2023-06-02	08:38:41	08:44:21	337820	61084dbab48ab21fce452554	4	1	main_z	7	advance_on_keypress_ZEE	90	stimuli_distractor_trianglediamonds.svg	stimuli_target_diamondsquares.svg	28	yes	57	0	387	0	0			0	0			1				0	
6.6.1	win	2023-06-02	08:38:41	08:44:23	339674	61084dbab48ab21fce452554	4	1	main_z	7	main_z	91	stimuli_distractor_diamondtriangles.svg	stimuli_distractor_trianglediamonds.svg	37	no	44	0	819	0	0			0	0			1				0	
6.6.1	win	2023-06-02	08:38:41	08:44:23	339674	61084dbab48ab21fce452554	4	1	main_z	7	advance_on_keypress_ZEE	92	stimuli_distractor_diamondtriangles.svg	stimuli_distractor_trianglediamonds.svg	37	no	57	0	504	0	0			0	0			1				0	
6.6.1	win	2023-06-02	08:38:41	08:44:25	341566	61084dbab48ab21fce452554	4	1	main_z	7	main_z	93	stimuli_target_rectanglediamonds.svg	stimuli_distractor_diamondtriangles.svg	6	yes	44	1	743	0	0			0	0			1				0	
6.6.1	win	2023-06-02	08:38:41	08:44:25	341566	61084dbab48ab21fce452554	4	1	main_z	7	advance_on_keypress_ZEE	94	stimuli_target_rectanglediamonds.svg	stimuli_distractor_diamondtriangles.svg	6	yes	57	0	476	0	0			0	0			1				0	
6.6.1	win	2023-06-02	08:38:41	08:44:27	343817	61084dbab48ab21fce452554	4	1	main_z	7	main_z	95	stimuli_distractor_trianglediamonds.svg	stimuli_target_trianglerectangles.svg	25	yes	44	1	1145	0	0			0	0			1				0	
6.6.1	win	2023-06-02	08:38:41	08:44:27	343817	61084dbab48ab21fce452554	4	1	main_z	7	advance_on_keypress_ZEE	96	stimuli_distractor_trianglediamonds.svg	stimuli_target_trianglerectangles.svg	25	yes	57	0	331	0	0			0	0			1				0	
6.6.1	win	2023-06-02	08:38:41	08:44:30	346789	61084dbab48ab21fce452554	4	1	main_z	7	main_z	97	stimuli_distractor_diamondtriangles.svg	stimuli_distractor_diamondtriangles.svg	40	no	0	1	2000	0	0			0	0			1				0	
6.6.1	win	2023-06-02	08:38:41	08:44:30	346789	61084dbab48ab21fce452554	4	1	main_z	7	advance_on_keypress_ZEE	98	stimuli_distractor_diamondtriangles.svg	stimuli_distractor_diamondtriangles.svg	40	no	57	0	473	0	0			0	0			1				0	
6.6.1	win	2023-06-02	08:38:41	08:44:32	348555	61084dbab48ab21fce452554	4	1	main_z	7	main_z	99	stimuli_distractor_diamondtriangles.svg	stimuli_target_squaretriangles.svg	15	yes	44	1	650	0	0			0	0			1				0	
6.6.1	win	2023-06-02	08:38:41	08:44:32	348555	61084dbab48ab21fce452554	4	1	main_z	7	advance_on_keypress_ZEE	100	stimuli_distractor_diamondtriangles.svg	stimuli_target_squaretriangles.svg	15	yes	57	0	424	0	0			0	0			1				0	
6.6.1	win	2023-06-02	08:38:41	08:44:33	350224	61084dbab48ab21fce452554	4	1	main_z	7	main_z	101	stimuli_target_trianglerectangles.svg	stimuli_distractor_diamondtriangles.svg	21	yes	44	1	602	0	0			0	0			1				0	
6.6.1	win	2023-06-02	08:38:41	08:44:33	350224	61084dbab48ab21fce452554	4	1	main_z	7	advance_on_keypress_ZEE	102	stimuli_target_trianglerectangles.svg	stimuli_distractor_diamondtriangles.svg	21	yes	57	0	398	0	0			0	0			1				0	
6.6.1	win	2023-06-02	08:38:41	08:44:35	351911	61084dbab48ab21fce452554	4	1	main_z	7	main_z	103	stimuli_target_trianglesquares.svg	stimuli_distractor_diamondtriangles.svg	22	yes	44	1	639	0	0			0	0			1				0	
6.6.1	win	2023-06-02	08:38:41	08:44:35	351911	61084dbab48ab21fce452554	4	1	main_z	7	advance_on_keypress_ZEE	104	stimuli_target_trianglesquares.svg	stimuli_distractor_diamondtriangles.svg	22	yes	57	0	321	0	0			0	0			1				0	
6.6.1	win	2023-06-02	08:38:41	08:44:38	354872	61084dbab48ab21fce452554	4	1	main_z	7	main_z	105	stimuli_distractor_trianglediamonds.svg	stimuli_distractor_diamondtriangles.svg	36	no	0	1	2000	0	0			0	0			1				0	
6.6.1	win	2023-06-02	08:38:41	08:44:38	354872	61084dbab48ab21fce452554	4	1	main_z	7	advance_on_keypress_ZEE	106	stimuli_distractor_trianglediamonds.svg	stimuli_distractor_diamondtriangles.svg	36	no	57	0	556	0	0			0	0			1				0	
6.6.1	win	2023-06-02	08:38:41	08:44:39	356387	61084dbab48ab21fce452554	4	1	main_z	7	main_z	107	stimuli_target_rectangletriangles.svg	stimuli_distractor_diamondtriangles.svg	5	yes	44	1	315	0	0			0	0			1				0	
6.6.1	win	2023-06-02	08:38:41	08:44:39	356387	61084dbab48ab21fce452554	4	1	main_z	7	advance_on_keypress_ZEE	108	stimuli_target_rectangletriangles.svg	stimuli_distractor_diamondtriangles.svg	5	yes	57	0	354	0	0			0	0			1				0	
6.6.1	win	2023-06-02	08:38:41	08:44:41	357771	61084dbab48ab21fce452554	4	1	main_z	7	main_z	109	stimuli_target_rectangletriangles.svg	stimuli_distractor_trianglediamonds.svg	1	yes	44	1	378	0	0			0	0			1				0	
6.6.1	win	2023-06-02	08:38:41	08:44:41	357771	61084dbab48ab21fce452554	4	1	main_z	7	advance_on_keypress_ZEE	110	stimuli_target_rectangletriangles.svg	stimuli_distractor_trianglediamonds.svg	1	yes	57	0	383	0	0			0	0			1				0	
6.6.1	win	2023-06-02	08:38:41	08:44:42	359508	61084dbab48ab21fce452554	4	1	main_z	7	main_z	111	stimuli_distractor_trianglediamonds.svg	stimuli_target_trianglesquares.svg	26	yes	44	1	703	0	0			0	0			1				0	
6.6.1	win	2023-06-02	08:38:41	08:44:42	359508	61084dbab48ab21fce452554	4	1	main_z	7	advance_on_keypress_ZEE	112	stimuli_distractor_trianglediamonds.svg	stimuli_target_trianglesquares.svg	26	yes	57	0	357	0	0			0	0			1				0	
6.6.1	win	2023-06-02	08:38:41	08:44:44	361362	61084dbab48ab21fce452554	4	1	main_z	7	main_z	113	stimuli_target_trianglerectangles.svg	stimuli_distractor_trianglediamonds.svg	17	yes	44	1	857	0	0			0	0			1				0	
6.6.1	win	2023-06-02	08:38:41	08:44:44	361362	61084dbab48ab21fce452554	4	1	main_z	7	advance_on_keypress_ZEE	114	stimuli_target_trianglerectangles.svg	stimuli_distractor_trianglediamonds.svg	17	yes	57	0	326	0	0			0	0			1				0	
6.6.1	win	2023-06-02	08:38:41	08:44:47	364322	61084dbab48ab21fce452554	4	1	main_z	7	main_z	115	stimuli_target_squarediamonds.svg	stimuli_distractor_trianglediamonds.svg	4	yes	0	0	2000	0	0			0	0			1				0	
6.6.1	win	2023-06-02	08:38:41	08:44:47	364322	61084dbab48ab21fce452554	4	1	main_z	7	advance_on_keypress_ZEE	116	stimuli_target_squarediamonds.svg	stimuli_distractor_trianglediamonds.svg	4	yes	57	0	518	0	0			0	0			1				0	
6.6.1	win	2023-06-02	08:38:41	08:44:49	366119	61084dbab48ab21fce452554	4	1	main_z	7	main_z	117	stimuli_distractor_trianglediamonds.svg	stimuli_target_squarediamonds.svg	12	yes	44	1	630	0	0			0	0			1				0	
6.6.1	win	2023-06-02	08:38:41	08:44:49	366119	61084dbab48ab21fce452554	4	1	main_z	7	advance_on_keypress_ZEE	118	stimuli_distractor_trianglediamonds.svg	stimuli_target_squarediamonds.svg	12	yes	57	0	294	0	0			0	0			1				0	
6.6.1	win	2023-06-02	08:38:41	08:44:52	369039	61084dbab48ab21fce452554	4	1	main_z	7	main_z	119	stimuli_distractor_diamondtriangles.svg	stimuli_distractor_trianglediamonds.svg	38	no	0	1	2000	0	0			0	0			1				0	
6.6.1	win	2023-06-02	08:38:41	08:44:52	369039	61084dbab48ab21fce452554	4	1	main_z	7	advance_on_keypress_ZEE	120	stimuli_distractor_diamondtriangles.svg	stimuli_distractor_trianglediamonds.svg	38	no	57	0	604	0	0			0	0			1				0	
6.6.1	win	2023-06-02	08:38:41	08:44:55	372289	61084dbab48ab21fce452554	4	1	main_z	7	main_z	121	stimuli_distractor_trianglediamonds.svg	stimuli_target_diamondrectangles.svg	27	yes	0	0	2000	0	0			0	0			1				0	
6.6.1	win	2023-06-02	08:38:41	08:44:55	372289	61084dbab48ab21fce452554	4	1	main_z	7	advance_on_keypress_ZEE	122	stimuli_distractor_trianglediamonds.svg	stimuli_target_diamondrectangles.svg	27	yes	57	0	516	0	0			0	0			1				0	
6.6.1	win	2023-06-02	08:38:41	08:44:57	374006	61084dbab48ab21fce452554	4	1	main_z	7	main_z	123	stimuli_target_diamondrectangles.svg	stimuli_distractor_trianglediamonds.svg	19	yes	44	1	551	0	0			0	0			1				0	
6.6.1	win	2023-06-02	08:38:41	08:44:57	374006	61084dbab48ab21fce452554	4	1	main_z	7	advance_on_keypress_ZEE	124	stimuli_target_diamondrectangles.svg	stimuli_distractor_trianglediamonds.svg	19	yes	57	0	573	0	0			0	0			1				0	
6.6.1	win	2023-06-02	08:38:41	08:44:59	376003	61084dbab48ab21fce452554	4	1	main_z	7	main_z	125	stimuli_distractor_trianglediamonds.svg	stimuli_target_rectangletriangles.svg	9	yes	44	1	781	0	0			0	0			1				0	
6.6.1	win	2023-06-02	08:38:41	08:44:59	376003	61084dbab48ab21fce452554	4	1	main_z	7	advance_on_keypress_ZEE	126	stimuli_distractor_trianglediamonds.svg	stimuli_target_rectangletriangles.svg	9	yes	57	0	373	0	0			0	0			1				0	
6.6.1	win	2023-06-02	08:38:41	08:45:00	377521	61084dbab48ab21fce452554	4	1	main_z	7	main_z	127	stimuli_target_rectanglediamonds.svg	stimuli_distractor_trianglediamonds.svg	2	yes	44	1	507	0	0			0	0			1				0	
6.6.1	win	2023-06-02	08:38:41	08:45:00	377521	61084dbab48ab21fce452554	4	1	main_z	7	advance_on_keypress_ZEE	128	stimuli_target_rectanglediamonds.svg	stimuli_distractor_trianglediamonds.svg	2	yes	57	0	379	0	0			0	0			1				0	
6.6.1	win	2023-06-02	08:38:41	08:45:02	379074	61084dbab48ab21fce452554	4	1	main_z	7	main_z	129	stimuli_distractor_diamondtriangles.svg	stimuli_target_rectangletriangles.svg	13	yes	44	1	535	0	0			0	0			1				0	
6.6.1	win	2023-06-02	08:38:41	08:45:02	379074	61084dbab48ab21fce452554	4	1	main_z	7	advance_on_keypress_ZEE	130	stimuli_distractor_diamondtriangles.svg	stimuli_target_rectangletriangles.svg	13	yes	57	0	355	0	0			0	0			1				0	
6.6.1	win	2023-06-02	08:38:41	08:45:04	380597	61084dbab48ab21fce452554	4	1	main_z	7	main_z	131	stimuli_distractor_diamondtriangles.svg	stimuli_target_squarediamonds.svg	16	yes	44	1	525	0	0			0	0			1				0	
6.6.1	win	2023-06-02	08:38:41	08:45:04	380597	61084dbab48ab21fce452554	4	1	main_z	7	advance_on_keypress_ZEE	132	stimuli_distractor_diamondtriangles.svg	stimuli_target_squarediamonds.svg	16	yes	57	0	292	0	0			0	0			1				0	
6.6.1	win	2023-06-02	08:38:41	08:45:05	382495	61084dbab48ab21fce452554	4	1	main_z	7	main_z	133	stimuli_distractor_diamondtriangles.svg	stimuli_target_diamondsquares.svg	32	yes	44	1	973	0	0			0	0			1				0	
6.6.1	win	2023-06-02	08:38:41	08:45:05	382495	61084dbab48ab21fce452554	4	1	main_z	7	advance_on_keypress_ZEE	134	stimuli_distractor_diamondtriangles.svg	stimuli_target_diamondsquares.svg	32	yes	57	0	291	0	0			0	0			1				0	
6.6.1	win	2023-06-02	08:38:41	08:45:08	385422	61084dbab48ab21fce452554	4	1	main_z	7	main_z	135	stimuli_distractor_trianglediamonds.svg	stimuli_distractor_trianglediamonds.svg	33	no	0	1	2000	0	0			0	0			1				0	
6.6.1	win	2023-06-02	08:38:41	08:45:08	385422	61084dbab48ab21fce452554	4	1	main_z	7	advance_on_keypress_ZEE	136	stimuli_distractor_trianglediamonds.svg	stimuli_distractor_trianglediamonds.svg	33	no	57	0	450	0	0			0	0			1				0	
6.6.1	win	2023-06-02	08:38:41	08:45:10	387156	61084dbab48ab21fce452554	4	1	main_z	7	main_z	137	stimuli_target_diamondsquares.svg	stimuli_distractor_diamondtriangles.svg	24	yes	44	1	634	0	0			0	0			1				0	
6.6.1	win	2023-06-02	08:38:41	08:45:10	387156	61084dbab48ab21fce452554	4	1	main_z	7	advance_on_keypress_ZEE	138	stimuli_target_diamondsquares.svg	stimuli_distractor_diamondtriangles.svg	24	yes	57	0	320	0	0			0	0			1				0	
6.6.1	win	2023-06-02	08:38:41	08:45:12	388831	61084dbab48ab21fce452554	4	1	main_z	7	main_z	139	stimuli_distractor_diamondtriangles.svg	stimuli_target_trianglerectangles.svg	29	yes	44	1	709	0	0			0	0			1				0	
6.6.1	win	2023-06-02	08:38:41	08:45:12	388831	61084dbab48ab21fce452554	4	1	main_z	7	advance_on_keypress_ZEE	140	stimuli_distractor_diamondtriangles.svg	stimuli_target_trianglerectangles.svg	29	yes	57	0	361	0	0			0	0			1				0	
6.6.1	win	2023-06-02	08:38:41	08:45:14	390978	61084dbab48ab21fce452554	4	1	main_z	7	main_z	141	stimuli_target_diamondsquares.svg	stimuli_distractor_trianglediamonds.svg	20	yes	44	1	1156	0	0			0	0			1				0	
6.6.1	win	2023-06-02	08:38:41	08:45:14	390978	61084dbab48ab21fce452554	4	1	main_z	7	advance_on_keypress_ZEE	142	stimuli_target_diamondsquares.svg	stimuli_distractor_trianglediamonds.svg	20	yes	57	0	248	0	0			0	0			1				0	
6.6.1	win	2023-06-02	08:38:41	08:45:17	393873	61084dbab48ab21fce452554	4	1	main_z	7	main_z	143	stimuli_distractor_trianglediamonds.svg	stimuli_distractor_diamondtriangles.svg	35	no	0	1	2000	0	0			0	0			1				0	
6.6.1	win	2023-06-02	08:38:41	08:45:17	393873	61084dbab48ab21fce452554	4	1	main_z	7	advance_on_keypress_ZEE	144	stimuli_distractor_trianglediamonds.svg	stimuli_distractor_diamondtriangles.svg	35	no	57	0	419	0	0			0	0			1				0	
6.6.1	win	2023-06-02	08:38:41	08:45:20	396939	61084dbab48ab21fce452554	4	1	main_z	7	main_z	145	stimuli_distractor_diamondtriangles.svg	stimuli_distractor_diamondtriangles.svg	39	no	0	1	2000	0	0			0	0			1				0	
6.6.1	win	2023-06-02	08:38:41	08:45:20	396939	61084dbab48ab21fce452554	4	1	main_z	7	advance_on_keypress_ZEE	146	stimuli_distractor_diamondtriangles.svg	stimuli_distractor_diamondtriangles.svg	39	no	57	0	476	0	0			0	0			1				0	
6.6.1	win	2023-06-02	08:38:41	08:45:22	398589	61084dbab48ab21fce452554	4	1	main_z	7	main_z	147	stimuli_target_diamondrectangles.svg	stimuli_distractor_diamondtriangles.svg	23	yes	44	1	533	0	0			0	0			1				0	
6.6.1	win	2023-06-02	08:38:41	08:45:22	398589	61084dbab48ab21fce452554	4	1	main_z	7	advance_on_keypress_ZEE	148	stimuli_target_diamondrectangles.svg	stimuli_distractor_diamondtriangles.svg	23	yes	57	0	318	0	0			0	0			1				0	
6.6.1	win	2023-06-02	08:38:41	08:45:25	401556	61084dbab48ab21fce452554	4	1	main_z	7	main_z	149	stimuli_distractor_trianglediamonds.svg	stimuli_distractor_trianglediamonds.svg	34	no	0	1	2000	0	0			0	0			1				0	
6.6.1	win	2023-06-02	08:38:41	08:45:25	401556	61084dbab48ab21fce452554	4	1	main_z	7	advance_on_keypress_ZEE	150	stimuli_distractor_trianglediamonds.svg	stimuli_distractor_trianglediamonds.svg	34	no	57	0	443	0	0			0	0			1				0	
6.6.1	win	2023-06-02	08:38:41	08:45:26	403454	61084dbab48ab21fce452554	4	1	main_z	7	main_z	151	stimuli_distractor_trianglediamonds.svg	stimuli_target_rectanglediamonds.svg	10	yes	44	1	815	0	0			0	0			1				0	
6.6.1	win	2023-06-02	08:38:41	08:45:26	403454	61084dbab48ab21fce452554	4	1	main_z	7	advance_on_keypress_ZEE	152	stimuli_distractor_trianglediamonds.svg	stimuli_target_rectanglediamonds.svg	10	yes	57	0	278	0	0			0	0			1				0	
6.6.1	win	2023-06-02	08:38:41	08:45:28	404872	61084dbab48ab21fce452554	4	1	main_z	7	main_z	153	stimuli_distractor_trianglediamonds.svg	stimuli_target_squaretriangles.svg	11	yes	44	1	500	0	0			0	0			1				0	
6.6.1	win	2023-06-02	08:38:41	08:45:28	404872	61084dbab48ab21fce452554	4	1	main_z	7	advance_on_keypress_ZEE	154	stimuli_distractor_trianglediamonds.svg	stimuli_target_squaretriangles.svg	11	yes	57	0	354	0	0			0	0			1				0	
6.6.1	win	2023-06-02	08:38:41	08:45:29	406369	61084dbab48ab21fce452554	4	1	main_z	7	main_z	155	stimuli_target_squaretriangles.svg	stimuli_distractor_diamondtriangles.svg	7	yes	44	1	497	0	0			0	0			1				0	
6.6.1	win	2023-06-02	08:38:41	08:45:29	406369	61084dbab48ab21fce452554	4	1	main_z	7	advance_on_keypress_ZEE	156	stimuli_target_squaretriangles.svg	stimuli_distractor_diamondtriangles.svg	7	yes	57	0	366	0	0			0	0			1				0	
6.6.1	win	2023-06-02	08:38:41	08:45:31	407895	61084dbab48ab21fce452554	4	1	main_z	7	main_z	157	stimuli_distractor_diamondtriangles.svg	stimuli_target_trianglesquares.svg	30	yes	44	1	523	0	0			0	0			1				0	
6.6.1	win	2023-06-02	08:38:41	08:45:31	407895	61084dbab48ab21fce452554	4	1	main_z	7	advance_on_keypress_ZEE	158	stimuli_distractor_diamondtriangles.svg	stimuli_target_trianglesquares.svg	30	yes	57	0	322	0	0			0	0			1				0	
6.6.1	win	2023-06-02	08:38:41	08:45:34	410856	61084dbab48ab21fce452554	4	1	main_z	7	main_z	159	stimuli_target_squaretriangles.svg	stimuli_distractor_trianglediamonds.svg	3	yes	0	0	2000	0	0			0	0			1				0	
6.6.1	win	2023-06-02	08:38:41	08:45:34	410856	61084dbab48ab21fce452554	4	1	main_z	7	advance_on_keypress_ZEE	160	stimuli_target_squaretriangles.svg	stimuli_distractor_trianglediamonds.svg	3	yes	57	0	3128	0	0			0	0			1				0	
6.6.1	win	2023-06-02	08:38:41	08:47:55	552158	61084dbab48ab21fce452554	4	1	practice_slash	9	practice_slash	1	stimuli_distractor_diamondtriangles.svg	stimuli_distractor_diamondtriangles.svg	13	no	0	1	2000	0	0			0	0			1				0	
6.6.1	win	2023-06-02	08:38:41	08:47:55	552158	61084dbab48ab21fce452554	4	1	practice_slash	9	advance_on_keypress_SLASH	2	stimuli_distractor_diamondtriangles.svg	stimuli_distractor_diamondtriangles.svg	13	no	57	0	1078	0	0			0	0			1				0	
6.6.1	win	2023-06-02	08:38:41	08:47:58	555341	61084dbab48ab21fce452554	4	1	practice_slash	9	practice_slash	3	stimuli_target_squarediamonds.svg	stimuli_distractor_trianglediamonds.svg	5	yes	53	1	466	0	0			0	0			1				0	
6.6.1	win	2023-06-02	08:38:41	08:47:58	555341	61084dbab48ab21fce452554	4	1	practice_slash	9	advance_on_keypress_SLASH	4	stimuli_target_squarediamonds.svg	stimuli_distractor_trianglediamonds.svg	5	yes	57	0	441	0	0			0	0			1				0	
6.6.1	win	2023-06-02	08:38:41	08:48:02	559425	61084dbab48ab21fce452554	4	1	practice_slash	9	practice_slash	5	stimuli_distractor_trianglediamonds.svg	stimuli_distractor_trianglediamonds.svg	15	no	0	1	2000	0	0			0	0			1				0	
6.6.1	win	2023-06-02	08:38:41	08:48:02	559425	61084dbab48ab21fce452554	4	1	practice_slash	9	advance_on_keypress_SLASH	6	stimuli_distractor_trianglediamonds.svg	stimuli_distractor_trianglediamonds.svg	15	no	57	0	449	0	0			0	0			1				0	
6.6.1	win	2023-06-02	08:38:41	08:48:05	562188	61084dbab48ab21fce452554	4	1	practice_slash	9	practice_slash	7	stimuli_target_rectanglediamonds.svg	stimuli_distractor_diamondtriangles.svg	1	yes	53	1	663	0	0			0	0			1				0	
6.6.1	win	2023-06-02	08:38:41	08:48:05	562188	61084dbab48ab21fce452554	4	1	practice_slash	9	advance_on_keypress_SLASH	8	stimuli_target_rectanglediamonds.svg	stimuli_distractor_diamondtriangles.svg	1	yes	57	0	336	0	0			0	0			1				0	
6.6.1	win	2023-06-02	08:38:41	08:48:08	564748	61084dbab48ab21fce452554	4	1	practice_slash	9	practice_slash	9	stimuli_distractor_diamondtriangles.svg	stimuli_target_trianglerectangles.svg	9	yes	53	1	573	0	0			0	0			1				0	
6.6.1	win	2023-06-02	08:38:41	08:48:08	564748	61084dbab48ab21fce452554	4	1	practice_slash	9	advance_on_keypress_SLASH	10	stimuli_distractor_diamondtriangles.svg	stimuli_target_trianglerectangles.svg	9	yes	57	0	407	0	0			0	0			1				0	
6.6.1	win	2023-06-02	08:38:41	08:48:10	567328	61084dbab48ab21fce452554	4	1	practice_slash	9	practice_slash	11	stimuli_target_diamondsquares.svg	stimuli_distractor_diamondtriangles.svg	3	yes	53	1	536	0	0			0	0			1				0	
6.6.1	win	2023-06-02	08:38:41	08:48:10	567328	61084dbab48ab21fce452554	4	1	practice_slash	9	advance_on_keypress_SLASH	12	stimuli_target_diamondsquares.svg	stimuli_distractor_diamondtriangles.svg	3	yes	57	0	301	0	0			0	0			1				0	
6.6.1	win	2023-06-02	08:38:41	08:48:13	569974	61084dbab48ab21fce452554	4	1	practice_slash	9	practice_slash	13	stimuli_target_rectanglediamonds.svg	stimuli_distractor_trianglediamonds.svg	4	yes	53	1	699	0	0			0	0			1				0	
6.6.1	win	2023-06-02	08:38:41	08:48:13	569974	61084dbab48ab21fce452554	4	1	practice_slash	9	advance_on_keypress_SLASH	14	stimuli_target_rectanglediamonds.svg	stimuli_distractor_trianglediamonds.svg	4	yes	57	0	333	0	0			0	0			1				0	
6.6.1	win	2023-06-02	08:38:41	08:48:15	572376	61084dbab48ab21fce452554	4	1	practice_slash	9	practice_slash	15	stimuli_distractor_trianglediamonds.svg	stimuli_target_rectanglediamonds.svg	10	yes	53	1	418	0	0			0	0			1				0	
6.6.1	win	2023-06-02	08:38:41	08:48:15	572376	61084dbab48ab21fce452554	4	1	practice_slash	9	advance_on_keypress_SLASH	16	stimuli_distractor_trianglediamonds.svg	stimuli_target_rectanglediamonds.svg	10	yes	57	0	476	0	0			0	0			1				0	
6.6.1	win	2023-06-02	08:38:41	08:48:18	574873	61084dbab48ab21fce452554	4	1	practice_slash	9	practice_slash	17	stimuli_target_squarediamonds.svg	stimuli_distractor_diamondtriangles.svg	2	yes	53	1	381	0	0			0	0			1				0	
6.6.1	win	2023-06-02	08:38:41	08:48:18	574873	61084dbab48ab21fce452554	4	1	practice_slash	9	advance_on_keypress_SLASH	18	stimuli_target_squarediamonds.svg	stimuli_distractor_diamondtriangles.svg	2	yes	57	0	288	0	0			0	0			1				0	
6.6.1	win	2023-06-02	08:38:41	08:48:22	578808	61084dbab48ab21fce452554	4	1	practice_slash	9	practice_slash	19	stimuli_distractor_diamondtriangles.svg	stimuli_distractor_trianglediamonds.svg	14	no	0	1	2000	0	0			0	0			1				0	
6.6.1	win	2023-06-02	08:38:41	08:48:22	578808	61084dbab48ab21fce452554	4	1	practice_slash	9	advance_on_keypress_SLASH	20	stimuli_distractor_diamondtriangles.svg	stimuli_distractor_trianglediamonds.svg	14	no	57	0	424	0	0			0	0			1				0	
6.6.1	win	2023-06-02	08:38:41	08:48:24	581295	61084dbab48ab21fce452554	4	1	practice_slash	9	practice_slash	21	stimuli_distractor_trianglediamonds.svg	stimuli_target_squarediamonds.svg	11	yes	53	1	420	0	0			0	0			1				0	
6.6.1	win	2023-06-02	08:38:41	08:48:24	581295	61084dbab48ab21fce452554	4	1	practice_slash	9	advance_on_keypress_SLASH	22	stimuli_distractor_trianglediamonds.svg	stimuli_target_squarediamonds.svg	11	yes	57	0	445	0	0			0	0			1				0	
6.6.1	win	2023-06-02	08:38:41	08:48:27	583844	61084dbab48ab21fce452554	4	1	practice_slash	9	practice_slash	23	stimuli_distractor_diamondtriangles.svg	stimuli_target_rectangletriangles.svg	7	yes	53	1	469	0	0			0	0			1				0	
6.6.1	win	2023-06-02	08:38:41	08:48:27	583844	61084dbab48ab21fce452554	4	1	practice_slash	9	advance_on_keypress_SLASH	24	stimuli_distractor_diamondtriangles.svg	stimuli_target_rectangletriangles.svg	7	yes	57	0	404	0	0			0	0			1				0	
6.6.1	win	2023-06-02	08:38:41	08:48:29	586416	61084dbab48ab21fce452554	4	1	practice_slash	9	practice_slash	25	stimuli_distractor_diamondtriangles.svg	stimuli_target_diamondrectangles.svg	8	yes	53	1	524	0	0			0	0			1				0	
6.6.1	win	2023-06-02	08:38:41	08:48:29	586416	61084dbab48ab21fce452554	4	1	practice_slash	9	advance_on_keypress_SLASH	26	stimuli_distractor_diamondtriangles.svg	stimuli_target_diamondrectangles.svg	8	yes	57	0	420	0	0			0	0			1				0	
6.6.1	win	2023-06-02	08:38:41	08:48:32	589036	61084dbab48ab21fce452554	4	1	practice_slash	9	practice_slash	27	stimuli_distractor_trianglediamonds.svg	stimuli_distractor_diamondtriangles.svg	16	no	53	0	562	0	0			0	0			1				0	
6.6.1	win	2023-06-02	08:38:41	08:48:32	589036	61084dbab48ab21fce452554	4	1	practice_slash	9	advance_on_keypress_SLASH	28	stimuli_distractor_trianglediamonds.svg	stimuli_distractor_diamondtriangles.svg	16	no	57	0	342	0	0			0	0			1				0	
6.6.1	win	2023-06-02	08:38:41	08:48:34	591462	61084dbab48ab21fce452554	4	1	practice_slash	9	practice_slash	29	stimuli_target_diamondsquares.svg	stimuli_distractor_trianglediamonds.svg	6	yes	53	1	454	0	0			0	0			1				0	
6.6.1	win	2023-06-02	08:38:41	08:48:34	591462	61084dbab48ab21fce452554	4	1	practice_slash	9	advance_on_keypress_SLASH	30	stimuli_target_diamondsquares.svg	stimuli_distractor_trianglediamonds.svg	6	yes	57	0	324	0	0			0	0			1				0	
6.6.1	win	2023-06-02	08:38:41	08:48:37	593989	61084dbab48ab21fce452554	4	1	practice_slash	9	practice_slash	31	stimuli_distractor_trianglediamonds.svg	stimuli_target_diamondrectangles.svg	12	yes	53	1	563	0	0			0	0			1				0	
6.6.1	win	2023-06-02	08:38:41	08:48:37	593989	61084dbab48ab21fce452554	4	1	practice_slash	9	advance_on_keypress_SLASH	32	stimuli_distractor_trianglediamonds.svg	stimuli_target_diamondrectangles.svg	12	yes	57	0	642	0	0			0	0			1				0	
6.6.1	win	2023-06-02	08:38:41	08:48:41	598450	61084dbab48ab21fce452554	4	1	main_slash	11	main_slash	1	stimuli_distractor_diamondtriangles.svg	stimuli_distractor_trianglediamonds.svg	37	no	53	0	693	0	0			0	0			1				0	
6.6.1	win	2023-06-02	08:38:41	08:48:41	598450	61084dbab48ab21fce452554	4	1	main_slash	11	advance_on_keypress_SLASH	2	stimuli_distractor_diamondtriangles.svg	stimuli_distractor_trianglediamonds.svg	37	no	57	0	681	0	0			0	0			1				0	
6.6.1	win	2023-06-02	08:38:41	08:48:43	600446	61084dbab48ab21fce452554	4	1	main_slash	11	main_slash	3	stimuli_target_rectangletriangles.svg	stimuli_distractor_trianglediamonds.svg	1	yes	53	1	672	0	0			0	0			1				0	
6.6.1	win	2023-06-02	08:38:41	08:48:43	600446	61084dbab48ab21fce452554	4	1	main_slash	11	advance_on_keypress_SLASH	4	stimuli_target_rectangletriangles.svg	stimuli_distractor_trianglediamonds.svg	1	yes	57	0	540	0	0			0	0			1				0	
6.6.1	win	2023-06-02	08:38:41	08:48:47	603624	61084dbab48ab21fce452554	4	1	main_slash	11	main_slash	5	stimuli_distractor_trianglediamonds.svg	stimuli_distractor_diamondtriangles.svg	36	no	0	1	2000	0	0			0	0			1				0	
6.6.1	win	2023-06-02	08:38:41	08:48:47	603624	61084dbab48ab21fce452554	4	1	main_slash	11	advance_on_keypress_SLASH	6	stimuli_distractor_trianglediamonds.svg	stimuli_distractor_diamondtriangles.svg	36	no	57	0	308	0	0			0	0			1				0	
6.6.1	win	2023-06-02	08:38:41	08:48:48	605185	61084dbab48ab21fce452554	4	1	main_slash	11	main_slash	7	stimuli_target_squarediamonds.svg	stimuli_distractor_diamondtriangles.svg	8	yes	53	1	612	0	0			0	0			1				0	
6.6.1	win	2023-06-02	08:38:41	08:48:48	605185	61084dbab48ab21fce452554	4	1	main_slash	11	advance_on_keypress_SLASH	8	stimuli_target_squarediamonds.svg	stimuli_distractor_diamondtriangles.svg	8	yes	57	0	578	0	0			0	0			1				0	
6.6.1	win	2023-06-02	08:38:41	08:48:50	606967	61084dbab48ab21fce452554	4	1	main_slash	11	main_slash	9	stimuli_distractor_diamondtriangles.svg	stimuli_target_diamondrectangles.svg	31	yes	53	1	577	0	0			0	0			1				0	
6.6.1	win	2023-06-02	08:38:41	08:48:50	606967	61084dbab48ab21fce452554	4	1	main_slash	11	advance_on_keypress_SLASH	10	stimuli_distractor_diamondtriangles.svg	stimuli_target_diamondrectangles.svg	31	yes	57	0	476	0	0			0	0			1				0	
6.6.1	win	2023-06-02	08:38:41	08:48:51	608461	61084dbab48ab21fce452554	4	1	main_slash	11	main_slash	11	stimuli_distractor_diamondtriangles.svg	stimuli_target_rectangletriangles.svg	13	yes	53	1	388	0	0			0	0			1				0	
6.6.1	win	2023-06-02	08:38:41	08:48:51	608461	61084dbab48ab21fce452554	4	1	main_slash	11	advance_on_keypress_SLASH	12	stimuli_distractor_diamondtriangles.svg	stimuli_target_rectangletriangles.svg	13	yes	57	0	403	0	0			0	0			1				0	
6.6.1	win	2023-06-02	08:38:41	08:48:53	609889	61084dbab48ab21fce452554	4	1	main_slash	11	main_slash	13	stimuli_target_diamondrectangles.svg	stimuli_distractor_trianglediamonds.svg	19	yes	53	1	373	0	0			0	0			1				0	
6.6.1	win	2023-06-02	08:38:41	08:48:53	609889	61084dbab48ab21fce452554	4	1	main_slash	11	advance_on_keypress_SLASH	14	stimuli_target_diamondrectangles.svg	stimuli_distractor_trianglediamonds.svg	19	yes	57	0	454	0	0			0	0			1				0	
6.6.1	win	2023-06-02	08:38:41	08:48:54	611411	61084dbab48ab21fce452554	4	1	main_slash	11	main_slash	15	stimuli_distractor_diamondtriangles.svg	stimuli_target_diamondsquares.svg	32	yes	53	1	420	0	0			0	0			1				0	
6.6.1	win	2023-06-02	08:38:41	08:48:54	611411	61084dbab48ab21fce452554	4	1	main_slash	11	advance_on_keypress_SLASH	16	stimuli_distractor_diamondtriangles.svg	stimuli_target_diamondsquares.svg	32	yes	57	0	431	0	0			0	0			1				0	
6.6.1	win	2023-06-02	08:38:41	08:48:56	612833	61084dbab48ab21fce452554	4	1	main_slash	11	main_slash	17	stimuli_target_rectanglediamonds.svg	stimuli_distractor_diamondtriangles.svg	6	yes	53	1	342	0	0			0	0			1				0	
6.6.1	win	2023-06-02	08:38:41	08:48:56	612833	61084dbab48ab21fce452554	4	1	main_slash	11	advance_on_keypress_SLASH	18	stimuli_target_rectanglediamonds.svg	stimuli_distractor_diamondtriangles.svg	6	yes	57	0	476	0	0			0	0			1				0	
6.6.1	win	2023-06-02	08:38:41	08:48:57	614374	61084dbab48ab21fce452554	4	1	main_slash	11	main_slash	19	stimuli_distractor_diamondtriangles.svg	stimuli_target_rectanglediamonds.svg	14	yes	53	1	434	0	0			0	0			1				0	
6.6.1	win	2023-06-02	08:38:41	08:48:57	614374	61084dbab48ab21fce452554	4	1	main_slash	11	advance_on_keypress_SLASH	20	stimuli_distractor_diamondtriangles.svg	stimuli_target_rectanglediamonds.svg	14	yes	57	0	429	0	0			0	0			1				0	
6.6.1	win	2023-06-02	08:38:41	08:49:00	617441	61084dbab48ab21fce452554	4	1	main_slash	11	main_slash	21	stimuli_distractor_trianglediamonds.svg	stimuli_distractor_trianglediamonds.svg	34	no	0	1	2000	0	0			0	0			1				0	
6.6.1	win	2023-06-02	08:38:41	08:49:00	617441	61084dbab48ab21fce452554	4	1	main_slash	11	advance_on_keypress_SLASH	22	stimuli_distractor_trianglediamonds.svg	stimuli_distractor_trianglediamonds.svg	34	no	57	0	421	0	0			0	0			1				0	
6.6.1	win	2023-06-02	08:38:41	08:49:02	618922	61084dbab48ab21fce452554	4	1	main_slash	11	main_slash	23	stimuli_target_trianglesquares.svg	stimuli_distractor_trianglediamonds.svg	18	yes	53	1	415	0	0			0	0			1				0	
6.6.1	win	2023-06-02	08:38:41	08:49:02	618922	61084dbab48ab21fce452554	4	1	main_slash	11	advance_on_keypress_SLASH	24	stimuli_target_trianglesquares.svg	stimuli_distractor_trianglediamonds.svg	18	yes	57	0	424	0	0			0	0			1				0	
6.6.1	win	2023-06-02	08:38:41	08:49:03	620305	61084dbab48ab21fce452554	4	1	main_slash	11	main_slash	25	stimuli_distractor_trianglediamonds.svg	stimuli_target_trianglesquares.svg	26	yes	53	1	314	0	0			0	0			1				0	
6.6.1	win	2023-06-02	08:38:41	08:49:03	620305	61084dbab48ab21fce452554	4	1	main_slash	11	advance_on_keypress_SLASH	26	stimuli_distractor_trianglediamonds.svg	stimuli_target_trianglesquares.svg	26	yes	57	0	472	0	0			0	0			1				0	
6.6.1	win	2023-06-02	08:38:41	08:49:05	621763	61084dbab48ab21fce452554	4	1	main_slash	11	main_slash	27	stimuli_target_diamondrectangles.svg	stimuli_distractor_diamondtriangles.svg	23	yes	53	1	356	0	0			0	0			1				0	
6.6.1	win	2023-06-02	08:38:41	08:49:05	621763	61084dbab48ab21fce452554	4	1	main_slash	11	advance_on_keypress_SLASH	28	stimuli_target_diamondrectangles.svg	stimuli_distractor_diamondtriangles.svg	23	yes	57	0	572	0	0			0	0			1				0	
6.6.1	win	2023-06-02	08:38:41	08:49:06	623270	61084dbab48ab21fce452554	4	1	main_slash	11	main_slash	29	stimuli_target_diamondsquares.svg	stimuli_distractor_diamondtriangles.svg	24	yes	53	1	296	0	0			0	0			1				0	
6.6.1	win	2023-06-02	08:38:41	08:49:06	623270	61084dbab48ab21fce452554	4	1	main_slash	11	advance_on_keypress_SLASH	30	stimuli_target_diamondsquares.svg	stimuli_distractor_diamondtriangles.svg	24	yes	57	0	466	0	0			0	0			1				0	
6.6.1	win	2023-06-02	08:38:41	08:49:08	624759	61084dbab48ab21fce452554	4	1	main_slash	11	main_slash	31	stimuli_distractor_trianglediamonds.svg	stimuli_distractor_diamondtriangles.svg	35	no	53	0	384	0	0			0	0			1				0	
6.6.1	win	2023-06-02	08:38:41	08:49:08	624759	61084dbab48ab21fce452554	4	1	main_slash	11	advance_on_keypress_SLASH	32	stimuli_distractor_trianglediamonds.svg	stimuli_distractor_diamondtriangles.svg	35	no	57	0	680	0	0			0	0			1				0	
6.6.1	win	2023-06-02	08:38:41	08:49:10	626572	61084dbab48ab21fce452554	4	1	main_slash	11	main_slash	33	stimuli_distractor_trianglediamonds.svg	stimuli_target_diamondsquares.svg	28	yes	53	1	498	0	0			0	0			1				0	
6.6.1	win	2023-06-02	08:38:41	08:49:10	626572	61084dbab48ab21fce452554	4	1	main_slash	11	advance_on_keypress_SLASH	34	stimuli_distractor_trianglediamonds.svg	stimuli_target_diamondsquares.svg	28	yes	57	0	491	0	0			0	0			1				0	
6.6.1	win	2023-06-02	08:38:41	08:49:11	628320	61084dbab48ab21fce452554	4	1	main_slash	11	main_slash	35	stimuli_distractor_trianglediamonds.svg	stimuli_target_trianglerectangles.svg	25	yes	53	1	613	0	0			0	0			1				0	
6.6.1	win	2023-06-02	08:38:41	08:49:11	628320	61084dbab48ab21fce452554	4	1	main_slash	11	advance_on_keypress_SLASH	36	stimuli_distractor_trianglediamonds.svg	stimuli_target_trianglerectangles.svg	25	yes	57	0	434	0	0			0	0			1				0	
6.6.1	win	2023-06-02	08:38:41	08:49:13	629735	61084dbab48ab21fce452554	4	1	main_slash	11	main_slash	37	stimuli_distractor_trianglediamonds.svg	stimuli_target_diamondrectangles.svg	27	yes	53	1	345	0	0			0	0			1				0	
6.6.1	win	2023-06-02	08:38:41	08:49:13	629735	61084dbab48ab21fce452554	4	1	main_slash	11	advance_on_keypress_SLASH	38	stimuli_distractor_trianglediamonds.svg	stimuli_target_diamondrectangles.svg	27	yes	57	0	480	0	0			0	0			1				0	
6.6.1	win	2023-06-02	08:38:41	08:49:14	631384	61084dbab48ab21fce452554	4	1	main_slash	11	main_slash	39	stimuli_distractor_diamondtriangles.svg	stimuli_target_trianglesquares.svg	30	yes	53	1	544	0	0			0	0			1				0	
6.6.1	win	2023-06-02	08:38:41	08:49:14	631384	61084dbab48ab21fce452554	4	1	main_slash	11	advance_on_keypress_SLASH	40	stimuli_distractor_diamondtriangles.svg	stimuli_target_trianglesquares.svg	30	yes	57	0	332	0	0			0	0			1				0	
6.6.1	win	2023-06-02	08:38:41	08:49:16	633494	61084dbab48ab21fce452554	4	1	main_slash	11	main_slash	41	stimuli_target_squaretriangles.svg	stimuli_distractor_trianglediamonds.svg	3	yes	53	1	1137	0	0			0	0			1				0	
6.6.1	win	2023-06-02	08:38:41	08:49:16	633494	61084dbab48ab21fce452554	4	1	main_slash	11	advance_on_keypress_SLASH	42	stimuli_target_squaretriangles.svg	stimuli_distractor_trianglediamonds.svg	3	yes	57	0	762	0	0			0	0			1				0	
6.6.1	win	2023-06-02	08:38:41	08:49:19	635754	61084dbab48ab21fce452554	4	1	main_slash	11	main_slash	43	stimuli_distractor_diamondtriangles.svg	stimuli_target_trianglerectangles.svg	29	yes	53	1	863	0	0			0	0			1				0	
6.6.1	win	2023-06-02	08:38:41	08:49:19	635754	61084dbab48ab21fce452554	4	1	main_slash	11	advance_on_keypress_SLASH	44	stimuli_distractor_diamondtriangles.svg	stimuli_target_trianglerectangles.svg	29	yes	57	0	406	0	0			0	0			1				0	
6.6.1	win	2023-06-02	08:38:41	08:49:22	638791	61084dbab48ab21fce452554	4	1	main_slash	11	main_slash	45	stimuli_distractor_diamondtriangles.svg	stimuli_distractor_diamondtriangles.svg	39	no	0	1	2000	0	0			0	0			1				0	
6.6.1	win	2023-06-02	08:38:41	08:49:22	638791	61084dbab48ab21fce452554	4	1	main_slash	11	advance_on_keypress_SLASH	46	stimuli_distractor_diamondtriangles.svg	stimuli_distractor_diamondtriangles.svg	39	no	57	0	728	0	0			0	0			1				0	
6.6.1	win	2023-06-02	08:38:41	08:49:24	640909	61084dbab48ab21fce452554	4	1	main_slash	11	main_slash	47	stimuli_distractor_trianglediamonds.svg	stimuli_target_squarediamonds.svg	12	yes	53	1	752	0	0			0	0			1				0	
6.6.1	win	2023-06-02	08:38:41	08:49:24	640909	61084dbab48ab21fce452554	4	1	main_slash	11	advance_on_keypress_SLASH	48	stimuli_distractor_trianglediamonds.svg	stimuli_target_squarediamonds.svg	12	yes	57	0	600	0	0			0	0			1				0	
6.6.1	win	2023-06-02	08:38:41	08:49:26	643483	61084dbab48ab21fce452554	4	1	main_slash	11	main_slash	49	stimuli_target_squarediamonds.svg	stimuli_distractor_trianglediamonds.svg	4	yes	53	1	1326	0	0			0	0			1				0	
6.6.1	win	2023-06-02	08:38:41	08:49:26	643483	61084dbab48ab21fce452554	4	1	main_slash	11	advance_on_keypress_SLASH	50	stimuli_target_squarediamonds.svg	stimuli_distractor_trianglediamonds.svg	4	yes	57	0	542	0	0			0	0			1				0	
6.6.1	win	2023-06-02	08:38:41	08:49:28	645328	61084dbab48ab21fce452554	4	1	main_slash	11	main_slash	51	stimuli_target_trianglerectangles.svg	stimuli_distractor_diamondtriangles.svg	21	yes	53	1	671	0	0			0	0			1				0	
6.6.1	win	2023-06-02	08:38:41	08:49:28	645328	61084dbab48ab21fce452554	4	1	main_slash	11	advance_on_keypress_SLASH	52	stimuli_target_trianglerectangles.svg	stimuli_distractor_diamondtriangles.svg	21	yes	57	0	357	0	0			0	0			1				0	
6.6.1	win	2023-06-02	08:38:41	08:49:30	646897	61084dbab48ab21fce452554	4	1	main_slash	11	main_slash	53	stimuli_distractor_trianglediamonds.svg	stimuli_target_rectanglediamonds.svg	10	yes	53	1	573	0	0			0	0			1				0	
6.6.1	win	2023-06-02	08:38:41	08:49:30	646897	61084dbab48ab21fce452554	4	1	main_slash	11	advance_on_keypress_SLASH	54	stimuli_distractor_trianglediamonds.svg	stimuli_target_rectanglediamonds.svg	10	yes	57	0	365	0	0			0	0			1				0	
6.6.1	win	2023-06-02	08:38:41	08:49:32	648572	61084dbab48ab21fce452554	4	1	main_slash	11	main_slash	55	stimuli_target_trianglerectangles.svg	stimuli_distractor_trianglediamonds.svg	17	yes	53	1	664	0	0			0	0			1				0	
6.6.1	win	2023-06-02	08:38:41	08:49:32	648572	61084dbab48ab21fce452554	4	1	main_slash	11	advance_on_keypress_SLASH	56	stimuli_target_trianglerectangles.svg	stimuli_distractor_trianglediamonds.svg	17	yes	57	0	3469	0	0			0	0			1				0	
6.6.1	win	2023-06-02	08:38:41	08:49:38	654691	61084dbab48ab21fce452554	4	1	main_slash	11	main_slash	57	stimuli_distractor_diamondtriangles.svg	stimuli_distractor_trianglediamonds.svg	38	no	0	1	2000	0	0			0	0			1				0	
6.6.1	win	2023-06-02	08:38:41	08:49:38	654691	61084dbab48ab21fce452554	4	1	main_slash	11	advance_on_keypress_SLASH	58	stimuli_distractor_diamondtriangles.svg	stimuli_distractor_trianglediamonds.svg	38	no	57	0	601	0	0			0	0			1				0	
6.6.1	win	2023-06-02	08:38:41	08:49:39	656468	61084dbab48ab21fce452554	4	1	main_slash	11	main_slash	59	stimuli_target_diamondsquares.svg	stimuli_distractor_trianglediamonds.svg	20	yes	53	1	527	0	0			0	0			1				0	
6.6.1	win	2023-06-02	08:38:41	08:49:39	656468	61084dbab48ab21fce452554	4	1	main_slash	11	advance_on_keypress_SLASH	60	stimuli_target_diamondsquares.svg	stimuli_distractor_trianglediamonds.svg	20	yes	57	0	364	0	0			0	0			1				0	
6.6.1	win	2023-06-02	08:38:41	08:49:41	657810	61084dbab48ab21fce452554	4	1	main_slash	11	main_slash	61	stimuli_target_rectangletriangles.svg	stimuli_distractor_diamondtriangles.svg	5	yes	53	1	335	0	0			0	0			1				0	
6.6.1	win	2023-06-02	08:38:41	08:49:41	657810	61084dbab48ab21fce452554	4	1	main_slash	11	advance_on_keypress_SLASH	62	stimuli_target_rectangletriangles.svg	stimuli_distractor_diamondtriangles.svg	5	yes	57	0	573	0	0			0	0			1				0	
6.6.1	win	2023-06-02	08:38:41	08:49:42	659336	61084dbab48ab21fce452554	4	1	main_slash	11	main_slash	63	stimuli_target_rectanglediamonds.svg	stimuli_distractor_trianglediamonds.svg	2	yes	53	1	312	0	0			0	0			1				0	
6.6.1	win	2023-06-02	08:38:41	08:49:42	659336	61084dbab48ab21fce452554	4	1	main_slash	11	advance_on_keypress_SLASH	64	stimuli_target_rectanglediamonds.svg	stimuli_distractor_trianglediamonds.svg	2	yes	57	0	446	0	0			0	0			1				0	
6.6.1	win	2023-06-02	08:38:41	08:49:44	660794	61084dbab48ab21fce452554	4	1	main_slash	11	main_slash	65	stimuli_distractor_trianglediamonds.svg	stimuli_target_squaretriangles.svg	11	yes	53	1	387	0	0			0	0			1				0	
6.6.1	win	2023-06-02	08:38:41	08:49:44	660794	61084dbab48ab21fce452554	4	1	main_slash	11	advance_on_keypress_SLASH	66	stimuli_distractor_trianglediamonds.svg	stimuli_target_squaretriangles.svg	11	yes	57	0	688	0	0			0	0			1				0	
6.6.1	win	2023-06-02	08:38:41	08:49:47	664124	61084dbab48ab21fce452554	4	1	main_slash	11	main_slash	67	stimuli_distractor_trianglediamonds.svg	stimuli_distractor_trianglediamonds.svg	33	no	0	1	2000	0	0			0	0			1				0	
6.6.1	win	2023-06-02	08:38:41	08:49:47	664124	61084dbab48ab21fce452554	4	1	main_slash	11	advance_on_keypress_SLASH	68	stimuli_distractor_trianglediamonds.svg	stimuli_distractor_trianglediamonds.svg	33	no	57	0	435	0	0			0	0			1				0	
6.6.1	win	2023-06-02	08:38:41	08:49:49	665801	61084dbab48ab21fce452554	4	1	main_slash	11	main_slash	69	stimuli_distractor_diamondtriangles.svg	stimuli_target_squarediamonds.svg	16	yes	53	1	594	0	0			0	0			1				0	
6.6.1	win	2023-06-02	08:38:41	08:49:49	665801	61084dbab48ab21fce452554	4	1	main_slash	11	advance_on_keypress_SLASH	70	stimuli_distractor_diamondtriangles.svg	stimuli_target_squarediamonds.svg	16	yes	57	0	331	0	0			0	0			1				0	
6.6.1	win	2023-06-02	08:38:41	08:49:50	667294	61084dbab48ab21fce452554	4	1	main_slash	11	main_slash	71	stimuli_target_trianglesquares.svg	stimuli_distractor_diamondtriangles.svg	22	yes	53	1	520	0	0			0	0			1				0	
6.6.1	win	2023-06-02	08:38:41	08:49:50	667294	61084dbab48ab21fce452554	4	1	main_slash	11	advance_on_keypress_SLASH	72	stimuli_target_trianglesquares.svg	stimuli_distractor_diamondtriangles.svg	22	yes	57	0	356	0	0			0	0			1				0	
6.6.1	win	2023-06-02	08:38:41	08:49:52	668678	61084dbab48ab21fce452554	4	1	main_slash	11	main_slash	73	stimuli_target_squaretriangles.svg	stimuli_distractor_diamondtriangles.svg	7	yes	53	1	388	0	0			0	0			1				0	
6.6.1	win	2023-06-02	08:38:41	08:49:52	668678	61084dbab48ab21fce452554	4	1	main_slash	11	advance_on_keypress_SLASH	74	stimuli_target_squaretriangles.svg	stimuli_distractor_diamondtriangles.svg	7	yes	57	0	426	0	0			0	0			1				0	
6.6.1	win	2023-06-02	08:38:41	08:49:55	671741	61084dbab48ab21fce452554	4	1	main_slash	11	main_slash	75	stimuli_distractor_diamondtriangles.svg	stimuli_target_squaretriangles.svg	15	yes	0	0	2000	0	0			0	0			1				0	
6.6.1	win	2023-06-02	08:38:41	08:49:55	671741	61084dbab48ab21fce452554	4	1	main_slash	11	advance_on_keypress_SLASH	76	stimuli_distractor_diamondtriangles.svg	stimuli_target_squaretriangles.svg	15	yes	57	0	349	0	0			0	0			1				0	
6.6.1	win	2023-06-02	08:38:41	08:49:58	674741	61084dbab48ab21fce452554	4	1	main_slash	11	main_slash	77	stimuli_distractor_diamondtriangles.svg	stimuli_distractor_diamondtriangles.svg	40	no	0	1	2000	0	0			0	0			1				0	
6.6.1	win	2023-06-02	08:38:41	08:49:58	674741	61084dbab48ab21fce452554	4	1	main_slash	11	advance_on_keypress_SLASH	78	stimuli_distractor_diamondtriangles.svg	stimuli_distractor_diamondtriangles.svg	40	no	57	0	447	0	0			0	0			1				0	
6.6.1	win	2023-06-02	08:38:41	08:49:59	676465	61084dbab48ab21fce452554	4	1	main_slash	11	main_slash	79	stimuli_distractor_trianglediamonds.svg	stimuli_target_rectangletriangles.svg	9	yes	53	1	640	0	0			0	0			1				0	
6.6.1	win	2023-06-02	08:38:41	08:49:59	676465	61084dbab48ab21fce452554	4	1	main_slash	11	advance_on_keypress_SLASH	80	stimuli_distractor_trianglediamonds.svg	stimuli_target_rectangletriangles.svg	9	yes	57	0	357	0	0			0	0			1				0	
6.6.1	win	2023-06-02	08:38:41	08:50:01	677881	61084dbab48ab21fce452554	4	1	main_slash	11	main_slash	81	stimuli_distractor_diamondtriangles.svg	stimuli_target_diamondsquares.svg	32	yes	53	1	424	0	0			0	0			1				0	
6.6.1	win	2023-06-02	08:38:41	08:50:01	677881	61084dbab48ab21fce452554	4	1	main_slash	11	advance_on_keypress_SLASH	82	stimuli_distractor_diamondtriangles.svg	stimuli_target_diamondsquares.svg	32	yes	57	0	610	0	0			0	0			1				0	
6.6.1	win	2023-06-02	08:38:41	08:50:03	679624	61084dbab48ab21fce452554	4	1	main_slash	11	main_slash	83	stimuli_target_squaretriangles.svg	stimuli_distractor_diamondtriangles.svg	7	yes	53	1	499	0	0			0	0			1				0	
6.6.1	win	2023-06-02	08:38:41	08:50:03	679624	61084dbab48ab21fce452554	4	1	main_slash	11	advance_on_keypress_SLASH	84	stimuli_target_squaretriangles.svg	stimuli_distractor_diamondtriangles.svg	7	yes	57	0	387	0	0			0	0			1				0	
6.6.1	win	2023-06-02	08:38:41	08:50:04	681085	61084dbab48ab21fce452554	4	1	main_slash	11	main_slash	85	stimuli_target_diamondrectangles.svg	stimuli_distractor_trianglediamonds.svg	19	yes	53	1	428	0	0			0	0			1				0	
6.6.1	win	2023-06-02	08:38:41	08:50:04	681085	61084dbab48ab21fce452554	4	1	main_slash	11	advance_on_keypress_SLASH	86	stimuli_target_diamondrectangles.svg	stimuli_distractor_trianglediamonds.svg	19	yes	57	0	11	0	0			0	0			1				0	
6.6.1	win	2023-06-02	08:38:41	08:50:07	683624	61084dbab48ab21fce452554	4	1	main_slash	11	main_slash	87	stimuli_distractor_trianglediamonds.svg	stimuli_target_rectangletriangles.svg	9	yes	53	1	1883	0	0			0	0			1				0	
6.6.1	win	2023-06-02	08:38:41	08:50:07	683624	61084dbab48ab21fce452554	4	1	main_slash	11	advance_on_keypress_SLASH	88	stimuli_distractor_trianglediamonds.svg	stimuli_target_rectangletriangles.svg	9	yes	57	0	1005	0	0			0	0			1				0	
6.6.1	win	2023-06-02	08:38:41	08:50:09	685657	61084dbab48ab21fce452554	4	1	main_slash	11	main_slash	89	stimuli_target_rectangletriangles.svg	stimuli_distractor_diamondtriangles.svg	5	yes	53	1	373	0	0			0	0			1				0	
6.6.1	win	2023-06-02	08:38:41	08:50:09	685657	61084dbab48ab21fce452554	4	1	main_slash	11	advance_on_keypress_SLASH	90	stimuli_target_rectangletriangles.svg	stimuli_distractor_diamondtriangles.svg	5	yes	57	0	456	0	0			0	0			1				0	
6.6.1	win	2023-06-02	08:38:41	08:50:10	687149	61084dbab48ab21fce452554	4	1	main_slash	11	main_slash	91	stimuli_target_diamondrectangles.svg	stimuli_distractor_diamondtriangles.svg	23	yes	53	1	392	0	0			0	0			1				0	
6.6.1	win	2023-06-02	08:38:41	08:50:10	687149	61084dbab48ab21fce452554	4	1	main_slash	11	advance_on_keypress_SLASH	92	stimuli_target_diamondrectangles.svg	stimuli_distractor_diamondtriangles.svg	23	yes	57	0	540	0	0			0	0			1				0	
6.6.1	win	2023-06-02	08:38:41	08:50:12	688741	61084dbab48ab21fce452554	4	1	main_slash	11	main_slash	93	stimuli_distractor_diamondtriangles.svg	stimuli_target_squarediamonds.svg	16	yes	53	1	416	0	0			0	0			1				0	
6.6.1	win	2023-06-02	08:38:41	08:50:12	688741	61084dbab48ab21fce452554	4	1	main_slash	11	advance_on_keypress_SLASH	94	stimuli_distractor_diamondtriangles.svg	stimuli_target_squarediamonds.svg	16	yes	57	0	461	0	0			0	0			1				0	
6.6.1	win	2023-06-02	08:38:41	08:50:13	690234	61084dbab48ab21fce452554	4	1	main_slash	11	main_slash	95	stimuli_target_trianglesquares.svg	stimuli_distractor_diamondtriangles.svg	22	yes	53	1	393	0	0			0	0			1				0	
6.6.1	win	2023-06-02	08:38:41	08:50:13	690234	61084dbab48ab21fce452554	4	1	main_slash	11	advance_on_keypress_SLASH	96	stimuli_target_trianglesquares.svg	stimuli_distractor_diamondtriangles.svg	22	yes	57	0	434	0	0			0	0			1				0	
6.6.1	win	2023-06-02	08:38:41	08:50:16	693308	61084dbab48ab21fce452554	4	1	main_slash	11	main_slash	97	stimuli_distractor_diamondtriangles.svg	stimuli_distractor_diamondtriangles.svg	40	no	0	1	2000	0	0			0	0			1				0	
6.6.1	win	2023-06-02	08:38:41	08:50:16	693308	61084dbab48ab21fce452554	4	1	main_slash	11	advance_on_keypress_SLASH	98	stimuli_distractor_diamondtriangles.svg	stimuli_distractor_diamondtriangles.svg	40	no	57	0	808	0	0			0	0			1				0	
6.6.1	win	2023-06-02	08:38:41	08:50:20	696758	61084dbab48ab21fce452554	4	1	main_slash	11	main_slash	99	stimuli_distractor_diamondtriangles.svg	stimuli_distractor_trianglediamonds.svg	38	no	0	1	2000	0	0			0	0			1				0	
6.6.1	win	2023-06-02	08:38:41	08:50:20	696758	61084dbab48ab21fce452554	4	1	main_slash	11	advance_on_keypress_SLASH	100	stimuli_distractor_diamondtriangles.svg	stimuli_distractor_trianglediamonds.svg	38	no	57	0	463	0	0			0	0			1				0	
6.6.1	win	2023-06-02	08:38:41	08:50:23	699858	61084dbab48ab21fce452554	4	1	main_slash	11	main_slash	101	stimuli_distractor_diamondtriangles.svg	stimuli_distractor_diamondtriangles.svg	39	no	0	1	2000	0	0			0	0			1				0	
6.6.1	win	2023-06-02	08:38:41	08:50:23	699858	61084dbab48ab21fce452554	4	1	main_slash	11	advance_on_keypress_SLASH	102	stimuli_distractor_diamondtriangles.svg	stimuli_distractor_diamondtriangles.svg	39	no	57	0	344	0	0			0	0			1				0	
6.6.1	win	2023-06-02	08:38:41	08:50:24	701330	61084dbab48ab21fce452554	4	1	main_slash	11	main_slash	103	stimuli_distractor_trianglediamonds.svg	stimuli_target_squaretriangles.svg	11	yes	53	1	489	0	0			0	0			1				0	
6.6.1	win	2023-06-02	08:38:41	08:50:24	701330	61084dbab48ab21fce452554	4	1	main_slash	11	advance_on_keypress_SLASH	104	stimuli_distractor_trianglediamonds.svg	stimuli_target_squaretriangles.svg	11	yes	57	0	437	0	0			0	0			1				0	
6.6.1	win	2023-06-02	08:38:41	08:50:26	702719	61084dbab48ab21fce452554	4	1	main_slash	11	main_slash	105	stimuli_target_rectangletriangles.svg	stimuli_distractor_trianglediamonds.svg	1	yes	53	1	311	0	0			0	0			1				0	
6.6.1	win	2023-06-02	08:38:41	08:50:26	702719	61084dbab48ab21fce452554	4	1	main_slash	11	advance_on_keypress_SLASH	106	stimuli_target_rectangletriangles.svg	stimuli_distractor_trianglediamonds.svg	1	yes	57	0	361	0	0			0	0			1				0	
6.6.1	win	2023-06-02	08:38:41	08:50:27	703993	61084dbab48ab21fce452554	4	1	main_slash	11	main_slash	107	stimuli_distractor_trianglediamonds.svg	stimuli_distractor_trianglediamonds.svg	33	no	53	0	286	0	0			0	0			1				0	
6.6.1	win	2023-06-02	08:38:41	08:50:27	703993	61084dbab48ab21fce452554	4	1	main_slash	11	advance_on_keypress_SLASH	108	stimuli_distractor_trianglediamonds.svg	stimuli_distractor_trianglediamonds.svg	33	no	57	0	933	0	0			0	0			1				0	
6.6.1	win	2023-06-02	08:38:41	08:50:29	706170	61084dbab48ab21fce452554	4	1	main_slash	11	main_slash	109	stimuli_target_squarediamonds.svg	stimuli_distractor_trianglediamonds.svg	4	yes	53	1	596	0	0			0	0			1				0	
6.6.1	win	2023-06-02	08:38:41	08:50:29	706170	61084dbab48ab21fce452554	4	1	main_slash	11	advance_on_keypress_SLASH	110	stimuli_target_squarediamonds.svg	stimuli_distractor_trianglediamonds.svg	4	yes	57	0	473	0	0			0	0			1				0	
6.6.1	win	2023-06-02	08:38:41	08:50:31	707768	61084dbab48ab21fce452554	4	1	main_slash	11	main_slash	111	stimuli_target_squaretriangles.svg	stimuli_distractor_trianglediamonds.svg	3	yes	53	1	493	0	0			0	0			1				0	
6.6.1	win	2023-06-02	08:38:41	08:50:31	707768	61084dbab48ab21fce452554	4	1	main_slash	11	advance_on_keypress_SLASH	112	stimuli_target_squaretriangles.svg	stimuli_distractor_trianglediamonds.svg	3	yes	57	0	469	0	0			0	0			1				0	
6.6.1	win	2023-06-02	08:38:41	08:50:32	709441	61084dbab48ab21fce452554	4	1	main_slash	11	main_slash	113	stimuli_distractor_trianglediamonds.svg	stimuli_target_squarediamonds.svg	12	yes	53	1	566	0	0			0	0			1				0	
6.6.1	win	2023-06-02	08:38:41	08:50:32	709441	61084dbab48ab21fce452554	4	1	main_slash	11	advance_on_keypress_SLASH	114	stimuli_distractor_trianglediamonds.svg	stimuli_target_squarediamonds.svg	12	yes	57	0	324	0	0			0	0			1				0	
6.6.1	win	2023-06-02	08:38:41	08:50:34	710946	61084dbab48ab21fce452554	4	1	main_slash	11	main_slash	115	stimuli_distractor_trianglediamonds.svg	stimuli_target_trianglesquares.svg	26	yes	53	1	538	0	0			0	0			1				0	
6.6.1	win	2023-06-02	08:38:41	08:50:34	710946	61084dbab48ab21fce452554	4	1	main_slash	11	advance_on_keypress_SLASH	116	stimuli_distractor_trianglediamonds.svg	stimuli_target_trianglesquares.svg	26	yes	57	0	397	0	0			0	0			1				0	
6.6.1	win	2023-06-02	08:38:41	08:50:37	713991	61084dbab48ab21fce452554	4	1	main_slash	11	main_slash	117	stimuli_target_squarediamonds.svg	stimuli_distractor_diamondtriangles.svg	8	yes	0	0	2000	0	0			0	0			1				0	
6.6.1	win	2023-06-02	08:38:41	08:50:37	713991	61084dbab48ab21fce452554	4	1	main_slash	11	advance_on_keypress_SLASH	118	stimuli_target_squarediamonds.svg	stimuli_distractor_diamondtriangles.svg	8	yes	57	0	551	0	0			0	0			1				0	
6.6.1	win	2023-06-02	08:38:41	08:50:40	717191	61084dbab48ab21fce452554	4	1	main_slash	11	main_slash	119	stimuli_target_trianglerectangles.svg	stimuli_distractor_diamondtriangles.svg	21	yes	0	0	2000	0	0			0	0			1				0	
6.6.1	win	2023-06-02	08:38:41	08:50:40	717191	61084dbab48ab21fce452554	4	1	main_slash	11	advance_on_keypress_SLASH	120	stimuli_target_trianglerectangles.svg	stimuli_distractor_diamondtriangles.svg	21	yes	57	0	658	0	0			0	0			1				0	
6.6.1	win	2023-06-02	08:38:41	08:50:42	718888	61084dbab48ab21fce452554	4	1	main_slash	11	main_slash	121	stimuli_target_rectanglediamonds.svg	stimuli_distractor_trianglediamonds.svg	2	yes	53	1	397	0	0			0	0			1				0	
6.6.1	win	2023-06-02	08:38:41	08:50:42	718888	61084dbab48ab21fce452554	4	1	main_slash	11	advance_on_keypress_SLASH	122	stimuli_target_rectanglediamonds.svg	stimuli_distractor_trianglediamonds.svg	2	yes	57	0	363	0	0			0	0			1				0	
6.6.1	win	2023-06-02	08:38:41	08:50:44	720743	61084dbab48ab21fce452554	4	1	main_slash	11	main_slash	123	stimuli_distractor_diamondtriangles.svg	stimuli_target_diamondrectangles.svg	31	yes	53	1	868	0	0			0	0			1				0	
6.6.1	win	2023-06-02	08:38:41	08:50:44	720743	61084dbab48ab21fce452554	4	1	main_slash	11	advance_on_keypress_SLASH	124	stimuli_distractor_diamondtriangles.svg	stimuli_target_diamondrectangles.svg	31	yes	57	0	460	0	0			0	0			1				0	
6.6.1	win	2023-06-02	08:38:41	08:50:45	722415	61084dbab48ab21fce452554	4	1	main_slash	11	main_slash	125	stimuli_target_trianglesquares.svg	stimuli_distractor_trianglediamonds.svg	18	yes	53	1	573	0	0			0	0			1				0	
6.6.1	win	2023-06-02	08:38:41	08:50:45	722415	61084dbab48ab21fce452554	4	1	main_slash	11	advance_on_keypress_SLASH	126	stimuli_target_trianglesquares.svg	stimuli_distractor_trianglediamonds.svg	18	yes	57	0	607	0	0			0	0			1				0	
6.6.1	win	2023-06-02	08:38:41	08:50:48	724561	61084dbab48ab21fce452554	4	1	main_slash	11	main_slash	127	stimuli_distractor_trianglediamonds.svg	stimuli_target_rectanglediamonds.svg	10	yes	53	1	903	0	0			0	0			1				0	
6.6.1	win	2023-06-02	08:38:41	08:50:48	724561	61084dbab48ab21fce452554	4	1	main_slash	11	advance_on_keypress_SLASH	128	stimuli_distractor_trianglediamonds.svg	stimuli_target_rectanglediamonds.svg	10	yes	57	0	356	0	0			0	0			1				0	
6.6.1	win	2023-06-02	08:38:41	08:50:51	727558	61084dbab48ab21fce452554	4	1	main_slash	11	main_slash	129	stimuli_target_diamondsquares.svg	stimuli_distractor_trianglediamonds.svg	20	yes	0	0	2000	0	0			0	0			1				0	
6.6.1	win	2023-06-02	08:38:41	08:50:51	727558	61084dbab48ab21fce452554	4	1	main_slash	11	advance_on_keypress_SLASH	130	stimuli_target_diamondsquares.svg	stimuli_distractor_trianglediamonds.svg	20	yes	57	0	532	0	0			0	0			1				0	
6.6.1	win	2023-06-02	08:38:41	08:50:54	730741	61084dbab48ab21fce452554	4	1	main_slash	11	main_slash	131	stimuli_distractor_diamondtriangles.svg	stimuli_target_rectangletriangles.svg	13	yes	0	0	2000	0	0			0	0			1				0	
6.6.1	win	2023-06-02	08:38:41	08:50:54	730741	61084dbab48ab21fce452554	4	1	main_slash	11	advance_on_keypress_SLASH	132	stimuli_distractor_diamondtriangles.svg	stimuli_target_rectangletriangles.svg	13	yes	57	0	515	0	0			0	0			1				0	
6.6.1	win	2023-06-02	08:38:41	08:50:57	733908	61084dbab48ab21fce452554	4	1	main_slash	11	main_slash	133	stimuli_distractor_trianglediamonds.svg	stimuli_distractor_diamondtriangles.svg	36	no	0	1	2000	0	0			0	0			1				0	
6.6.1	win	2023-06-02	08:38:41	08:50:57	733908	61084dbab48ab21fce452554	4	1	main_slash	11	advance_on_keypress_SLASH	134	stimuli_distractor_trianglediamonds.svg	stimuli_distractor_diamondtriangles.svg	36	no	57	0	304	0	0			0	0			1				0	
6.6.1	win	2023-06-02	08:38:41	08:50:58	735352	61084dbab48ab21fce452554	4	1	main_slash	11	main_slash	135	stimuli_distractor_diamondtriangles.svg	stimuli_target_rectanglediamonds.svg	14	yes	53	1	493	0	0			0	0			1				0	
6.6.1	win	2023-06-02	08:38:41	08:50:58	735352	61084dbab48ab21fce452554	4	1	main_slash	11	advance_on_keypress_SLASH	136	stimuli_distractor_diamondtriangles.svg	stimuli_target_rectanglediamonds.svg	14	yes	57	0	322	0	0			0	0			1				0	
6.6.1	win	2023-06-02	08:38:41	08:51:00	737094	61084dbab48ab21fce452554	4	1	main_slash	11	main_slash	137	stimuli_distractor_trianglediamonds.svg	stimuli_target_trianglerectangles.svg	25	yes	53	1	785	0	0			0	0			1				0	
6.6.1	win	2023-06-02	08:38:41	08:51:00	737094	61084dbab48ab21fce452554	4	1	main_slash	11	advance_on_keypress_SLASH	138	stimuli_distractor_trianglediamonds.svg	stimuli_target_trianglerectangles.svg	25	yes	57	0	354	0	0			0	0			1				0	
6.6.1	win	2023-06-02	08:38:41	08:51:02	738755	61084dbab48ab21fce452554	4	1	main_slash	11	main_slash	139	stimuli_target_rectanglediamonds.svg	stimuli_distractor_diamondtriangles.svg	6	yes	53	1	663	0	0			0	0			1				0	
6.6.1	win	2023-06-02	08:38:41	08:51:02	738755	61084dbab48ab21fce452554	4	1	main_slash	11	advance_on_keypress_SLASH	140	stimuli_target_rectanglediamonds.svg	stimuli_distractor_diamondtriangles.svg	6	yes	57	0	331	0	0			0	0			1				0	
6.6.1	win	2023-06-02	08:38:41	08:51:05	741725	61084dbab48ab21fce452554	4	1	main_slash	11	main_slash	141	stimuli_target_trianglerectangles.svg	stimuli_distractor_trianglediamonds.svg	17	yes	0	0	2000	0	0			0	0			1				0	
6.6.1	win	2023-06-02	08:38:41	08:51:05	741725	61084dbab48ab21fce452554	4	1	main_slash	11	advance_on_keypress_SLASH	142	stimuli_target_trianglerectangles.svg	stimuli_distractor_trianglediamonds.svg	17	yes	57	0	344	0	0			0	0			1				0	
6.6.1	win	2023-06-02	08:38:41	08:51:08	744708	61084dbab48ab21fce452554	4	1	main_slash	11	main_slash	143	stimuli_distractor_trianglediamonds.svg	stimuli_distractor_diamondtriangles.svg	35	no	0	1	2000	0	0			0	0			1				0	
6.6.1	win	2023-06-02	08:38:41	08:51:08	744708	61084dbab48ab21fce452554	4	1	main_slash	11	advance_on_keypress_SLASH	144	stimuli_distractor_trianglediamonds.svg	stimuli_distractor_diamondtriangles.svg	35	no	57	0	2067	0	0			0	0			1				0	
6.6.1	win	2023-06-02	08:38:41	08:51:12	749425	61084dbab48ab21fce452554	4	1	main_slash	11	main_slash	145	stimuli_distractor_diamondtriangles.svg	stimuli_distractor_trianglediamonds.svg	37	no	0	1	2000	0	0			0	0			1				0	
6.6.1	win	2023-06-02	08:38:41	08:51:12	749425	61084dbab48ab21fce452554	4	1	main_slash	11	advance_on_keypress_SLASH	146	stimuli_distractor_diamondtriangles.svg	stimuli_distractor_trianglediamonds.svg	37	no	57	0	336	0	0			0	0			1				0	
6.6.1	win	2023-06-02	08:38:41	08:51:15	752408	61084dbab48ab21fce452554	4	1	main_slash	11	main_slash	147	stimuli_distractor_diamondtriangles.svg	stimuli_target_trianglerectangles.svg	29	yes	0	0	2000	0	0			0	0			1				0	
6.6.1	win	2023-06-02	08:38:41	08:51:15	752408	61084dbab48ab21fce452554	4	1	main_slash	11	advance_on_keypress_SLASH	148	stimuli_distractor_diamondtriangles.svg	stimuli_target_trianglerectangles.svg	29	yes	57	0	383	0	0			0	0			1				0	
6.6.1	win	2023-06-02	08:38:41	08:51:17	753848	61084dbab48ab21fce452554	4	1	main_slash	11	main_slash	149	stimuli_distractor_diamondtriangles.svg	stimuli_target_squaretriangles.svg	15	yes	53	1	406	0	0			0	0			1				0	
6.6.1	win	2023-06-02	08:38:41	08:51:17	753848	61084dbab48ab21fce452554	4	1	main_slash	11	advance_on_keypress_SLASH	150	stimuli_distractor_diamondtriangles.svg	stimuli_target_squaretriangles.svg	15	yes	57	0	333	0	0			0	0			1				0	
6.6.1	win	2023-06-02	08:38:41	08:51:20	756825	61084dbab48ab21fce452554	4	1	main_slash	11	main_slash	151	stimuli_distractor_trianglediamonds.svg	stimuli_distractor_trianglediamonds.svg	34	no	0	1	2000	0	0			0	0			1				0	
6.6.1	win	2023-06-02	08:38:41	08:51:20	756825	61084dbab48ab21fce452554	4	1	main_slash	11	advance_on_keypress_SLASH	152	stimuli_distractor_trianglediamonds.svg	stimuli_distractor_trianglediamonds.svg	34	no	57	0	1223	0	0			0	0			1				0	
6.6.1	win	2023-06-02	08:38:41	08:51:22	759229	61084dbab48ab21fce452554	4	1	main_slash	11	main_slash	153	stimuli_target_diamondsquares.svg	stimuli_distractor_diamondtriangles.svg	24	yes	53	1	538	0	0			0	0			1				0	
6.6.1	win	2023-06-02	08:38:41	08:51:22	759229	61084dbab48ab21fce452554	4	1	main_slash	11	advance_on_keypress_SLASH	154	stimuli_target_diamondsquares.svg	stimuli_distractor_diamondtriangles.svg	24	yes	57	0	323	0	0			0	0			1				0	
6.6.1	win	2023-06-02	08:38:41	08:51:24	760724	61084dbab48ab21fce452554	4	1	main_slash	11	main_slash	155	stimuli_distractor_diamondtriangles.svg	stimuli_target_trianglesquares.svg	30	yes	53	1	532	0	0			0	0			1				0	
6.6.1	win	2023-06-02	08:38:41	08:51:24	760724	61084dbab48ab21fce452554	4	1	main_slash	11	advance_on_keypress_SLASH	156	stimuli_distractor_diamondtriangles.svg	stimuli_target_trianglesquares.svg	30	yes	57	0	318	0	0			0	0			1				0	
6.6.1	win	2023-06-02	08:38:41	08:51:25	762110	61084dbab48ab21fce452554	4	1	main_slash	11	main_slash	157	stimuli_distractor_trianglediamonds.svg	stimuli_target_diamondsquares.svg	28	yes	53	1	418	0	0			0	0			1				0	
6.6.1	win	2023-06-02	08:38:41	08:51:25	762110	61084dbab48ab21fce452554	4	1	main_slash	11	advance_on_keypress_SLASH	158	stimuli_distractor_trianglediamonds.svg	stimuli_target_diamondsquares.svg	28	yes	57	0	316	0	0			0	0			1				0	
6.6.1	win	2023-06-02	08:38:41	08:51:26	763494	61084dbab48ab21fce452554	4	1	main_slash	11	main_slash	159	stimuli_distractor_trianglediamonds.svg	stimuli_target_diamondrectangles.svg	27	yes	53	1	418	0	0			0	0			1				0	
6.6.1	win	2023-06-02	08:38:41	08:51:26	763494	61084dbab48ab21fce452554	4	1	main_slash	11	advance_on_keypress_SLASH	160	stimuli_distractor_trianglediamonds.svg	stimuli_target_diamondrectangles.svg	27	yes	57	0	432	0	0			0	0			1				0	
6.6.1	win	2023-06-02	08:38:41	08:51:26	763494	61084dbab48ab21fce452554	4	1	headphonecheck_calibration	14	headphonecheck_calibrationIntro	1	stimuli_distractor_trianglediamonds.svg	stimuli_target_diamondrectangles.svg	27	yes	calibrationButton	0	3522	0	0			0	0			1				0	
6.6.1	win	2023-06-02	08:38:41	08:51:26	763494	61084dbab48ab21fce452554	4	1	headphonecheck_testphase	15	test_collectResponse	3	stimuli_distractor_trianglediamonds.svg	stimuli_target_diamondrectangles.svg	27	yes	third	0	3415	1	4	antiphase_hc_sio.wav	1	0	0			1				0	
6.6.1	win	2023-06-02	08:38:41	08:51:26	763494	61084dbab48ab21fce452554	4	1	headphonecheck_testphase	15	test_collectResponse	6	stimuli_distractor_trianglediamonds.svg	stimuli_target_diamondrectangles.svg	27	yes	third	1	21140	2	2	antiphase_hc_ios.wav	3	0	0			1				0	
6.6.1	win	2023-06-02	08:38:41	08:51:26	763494	61084dbab48ab21fce452554	4	1	headphonecheck_testphase	15	test_collectResponse	9	stimuli_distractor_trianglediamonds.svg	stimuli_target_diamondrectangles.svg	27	yes	third	1	6043	3	6	antiphase_hc_ois.wav	3	0	0			1				0	
6.6.1	win	2023-06-02	08:38:41	08:51:26	763494	61084dbab48ab21fce452554	4	1	headphonecheck_testphase	15	test_collectResponse	12	stimuli_distractor_trianglediamonds.svg	stimuli_target_diamondrectangles.svg	27	yes	second	1	99	4	5	antiphase_hc_osi.wav	2	0	0			1				0	
6.6.1	win	2023-06-02	08:38:41	08:51:26	763494	61084dbab48ab21fce452554	4	1	headphonecheck_testphase	15	test_collectResponse	15	stimuli_distractor_trianglediamonds.svg	stimuli_target_diamondrectangles.svg	27	yes	second	1	547	5	1	antiphase_hc_iso.wav	2	0	0			1				0	
6.6.1	win	2023-06-02	08:38:41	08:51:26	763494	61084dbab48ab21fce452554	4	1	headphonecheck_testphase	15	test_collectResponse	18	stimuli_distractor_trianglediamonds.svg	stimuli_target_diamondrectangles.svg	27	yes	first	1	139	6	3	antiphase_hc_soi.wav	1	0	0			1				0	
6.6.1	win	2023-06-02	08:38:41	08:51:26	763494	61084dbab48ab21fce452554	4	1	stereocheck_calibration	17	stereocheck_calibrationIntro	1	stimuli_distractor_trianglediamonds.svg	stimuli_target_diamondrectangles.svg	27	yes	stereocheck_calibrationButton	0	7012	6	3	antiphase_hc_soi.wav	1	0	0			1				0	
6.6.1	win	2023-06-02	08:38:41	08:51:26	763494	61084dbab48ab21fce452554	4	1	stereocheck_testphase	18	stereocheck_test_collectResponse	3	stimuli_distractor_trianglediamonds.svg	stimuli_target_diamondrectangles.svg	27	yes	stereocheck_left	1	467	6	3	antiphase_hc_soi.wav	1	1	1	noise_calib_stim_LEFT.wav	1	1				0	
6.6.1	win	2023-06-02	08:38:41	08:51:26	763494	61084dbab48ab21fce452554	4	1	stereocheck_testphase	18	stereocheck_test_collectResponse	6	stimuli_distractor_trianglediamonds.svg	stimuli_target_diamondrectangles.svg	27	yes	stereocheck_right	1	312	6	3	antiphase_hc_soi.wav	1	2	5	noise_calib_stim_RIGHT.wav	2	1				0	
6.6.1	win	2023-06-02	08:38:41	08:51:26	763494	61084dbab48ab21fce452554	4	1	stereocheck_testphase	18	stereocheck_test_collectResponse	9	stimuli_distractor_trianglediamonds.svg	stimuli_target_diamondrectangles.svg	27	yes	stereocheck_right	1	205	6	3	antiphase_hc_soi.wav	1	3	4	noise_calib_stim_RIGHT.wav	2	1				0	
6.6.1	win	2023-06-02	08:38:41	08:51:26	763494	61084dbab48ab21fce452554	4	1	stereocheck_testphase	18	stereocheck_test_collectResponse	12	stimuli_distractor_trianglediamonds.svg	stimuli_target_diamondrectangles.svg	27	yes	stereocheck_left	1	204	6	3	antiphase_hc_soi.wav	1	4	3	noise_calib_stim_LEFT.wav	1	1				0	
6.6.1	win	2023-06-02	08:38:41	08:51:26	763494	61084dbab48ab21fce452554	4	1	stereocheck_testphase	18	stereocheck_test_collectResponse	15	stimuli_distractor_trianglediamonds.svg	stimuli_target_diamondrectangles.svg	27	yes	stereocheck_right	1	213	6	3	antiphase_hc_soi.wav	1	5	6	noise_calib_stim_RIGHT.wav	2	1				0	
6.6.1	win	2023-06-02	08:38:41	08:51:26	763494	61084dbab48ab21fce452554	4	1	stereocheck_testphase	18	stereocheck_test_collectResponse	18	stimuli_distractor_trianglediamonds.svg	stimuli_target_diamondrectangles.svg	27	yes	stereocheck_left	1	223	6	3	antiphase_hc_soi.wav	1	6	2	noise_calib_stim_LEFT.wav	1	1				0	
6.6.1	win	2023-06-02	08:38:41	08:51:26	763494	61084dbab48ab21fce452554	4	1	DL_practice	21	DL_practice	2	stimuli_distractor_trianglediamonds.svg	stimuli_target_diamondrectangles.svg	27	yes	ga	1	3501	6	3	antiphase_hc_soi.wav	1	6	2	noise_calib_stim_LEFT.wav	1	18	blb_dichoticlistening_ga-ta.mp3	ga	ta	1	left
6.6.1	win	2023-06-02	08:38:41	08:51:26	763494	61084dbab48ab21fce452554	4	1	DL_practice	21	DL_practice	3	stimuli_distractor_trianglediamonds.svg	stimuli_target_diamondrectangles.svg	27	yes	pa	1	944	6	3	antiphase_hc_soi.wav	1	6	2	noise_calib_stim_LEFT.wav	1	29	blb_dichoticlistening_pa-pa.mp3	pa	pa	0	left
6.6.1	win	2023-06-02	08:38:41	08:51:26	763494	61084dbab48ab21fce452554	4	1	DL_practice	21	DL_practice	4	stimuli_distractor_trianglediamonds.svg	stimuli_target_diamondrectangles.svg	27	yes	ga	0	3219	6	3	antiphase_hc_soi.wav	1	6	2	noise_calib_stim_LEFT.wav	1	23	blb_dichoticlistening_ka-pa.mp3	ka	pa	1	other
6.6.1	win	2023-06-02	08:38:41	08:51:26	763494	61084dbab48ab21fce452554	4	1	DL_practice	21	DL_practice	5	stimuli_distractor_trianglediamonds.svg	stimuli_target_diamondrectangles.svg	27	yes	ka	1	2309	6	3	antiphase_hc_soi.wav	1	6	2	noise_calib_stim_LEFT.wav	1	22	blb_dichoticlistening_ka-ka.mp3	ka	ka	0	left
6.6.1	win	2023-06-02	08:38:41	08:51:26	763494	61084dbab48ab21fce452554	4	1	DL_practice	21	DL_practice	6	stimuli_distractor_trianglediamonds.svg	stimuli_target_diamondrectangles.svg	27	yes	ka	0	778	6	3	antiphase_hc_soi.wav	1	6	2	noise_calib_stim_LEFT.wav	1	36	blb_dichoticlistening_ta-ta.mp3	ta	ta	0	other
6.6.1	win	2023-06-02	08:38:41	08:51:26	763494	61084dbab48ab21fce452554	4	1	DL_practice	21	DL_practice	7	stimuli_distractor_trianglediamonds.svg	stimuli_target_diamondrectangles.svg	27	yes	ba	1	1176	6	3	antiphase_hc_soi.wav	1	6	2	noise_calib_stim_LEFT.wav	1	1	blb_dichoticlistening_ba-ba.mp3	ba	ba	0	left
6.6.1	win	2023-06-02	08:38:41	08:51:26	763494	61084dbab48ab21fce452554	4	1	DL_practice	21	DL_practice	8	stimuli_distractor_trianglediamonds.svg	stimuli_target_diamondrectangles.svg	27	yes	da	1	917	6	3	antiphase_hc_soi.wav	1	6	2	noise_calib_stim_LEFT.wav	1	8	blb_dichoticlistening_da-da.mp3	da	da	0	left
6.6.1	win	2023-06-02	08:38:41	08:51:26	763494	61084dbab48ab21fce452554	4	1	DL_practice	21	DL_practice	9	stimuli_distractor_trianglediamonds.svg	stimuli_target_diamondrectangles.svg	27	yes	da	1	830	6	3	antiphase_hc_soi.wav	1	6	2	noise_calib_stim_LEFT.wav	1	7	blb_dichoticlistening_da-ba.mp3	da	ba	1	left
6.6.1	win	2023-06-02	08:38:41	08:51:26	763494	61084dbab48ab21fce452554	4	1	DL_practice	21	DL_practice	10	stimuli_distractor_trianglediamonds.svg	stimuli_target_diamondrectangles.svg	27	yes	ga	1	920	6	3	antiphase_hc_soi.wav	1	6	2	noise_calib_stim_LEFT.wav	1	15	blb_dichoticlistening_ga-ga.mp3	ga	ga	0	left
6.6.1	win	2023-06-02	08:38:41	08:51:26	763494	61084dbab48ab21fce452554	4	1	DL_test	23	DL_test	1	stimuli_distractor_trianglediamonds.svg	stimuli_target_diamondrectangles.svg	27	yes	ka	0	1097	6	3	antiphase_hc_soi.wav	1	6	2	noise_calib_stim_LEFT.wav	1	35	blb_dichoticlistening_ta-pa.mp3	ta	pa	1	other
6.6.1	win	2023-06-02	08:38:41	08:51:26	763494	61084dbab48ab21fce452554	4	1	DL_test	23	DL_test	2	stimuli_distractor_trianglediamonds.svg	stimuli_target_diamondrectangles.svg	27	yes	ga	1	1100	6	3	antiphase_hc_soi.wav	1	6	2	noise_calib_stim_LEFT.wav	1	3	blb_dichoticlistening_ba-ga.mp3	ba	ga	1	right
6.6.1	win	2023-06-02	08:38:41	08:51:26	763494	61084dbab48ab21fce452554	4	1	DL_test	23	DL_test	3	stimuli_distractor_trianglediamonds.svg	stimuli_target_diamondrectangles.svg	27	yes	ka	0	1168	6	3	antiphase_hc_soi.wav	1	6	2	noise_calib_stim_LEFT.wav	1	6	blb_dichoticlistening_ba-ta.mp3	ba	ta	1	other
6.6.1	win	2023-06-02	08:38:41	08:51:26	763494	61084dbab48ab21fce452554	4	1	DL_test	23	DL_test	4	stimuli_distractor_trianglediamonds.svg	stimuli_target_diamondrectangles.svg	27	yes	pa	1	1800	6	3	antiphase_hc_soi.wav	1	6	2	noise_calib_stim_LEFT.wav	1	17	blb_dichoticlistening_ga-pa.mp3	ga	pa	1	right
6.6.1	win	2023-06-02	08:38:41	08:51:26	763494	61084dbab48ab21fce452554	4	1	DL_test	23	DL_test	5	stimuli_distractor_trianglediamonds.svg	stimuli_target_diamondrectangles.svg	27	yes	da	1	1095	6	3	antiphase_hc_soi.wav	1	6	2	noise_calib_stim_LEFT.wav	1	14	blb_dichoticlistening_ga-da.mp3	ga	da	1	right
6.6.1	win	2023-06-02	08:38:41	08:51:26	763494	61084dbab48ab21fce452554	4	1	DL_test	23	DL_test	6	stimuli_distractor_trianglediamonds.svg	stimuli_target_diamondrectangles.svg	27	yes	da	1	674	6	3	antiphase_hc_soi.wav	1	6	2	noise_calib_stim_LEFT.wav	1	8	blb_dichoticlistening_da-da.mp3	da	da	0	left
6.6.1	win	2023-06-02	08:38:41	08:51:26	763494	61084dbab48ab21fce452554	4	1	DL_test	23	DL_test	7	stimuli_distractor_trianglediamonds.svg	stimuli_target_diamondrectangles.svg	27	yes	pa	1	1000	6	3	antiphase_hc_soi.wav	1	6	2	noise_calib_stim_LEFT.wav	1	5	blb_dichoticlistening_ba-pa.mp3	ba	pa	1	right
6.6.1	win	2023-06-02	08:38:41	08:51:26	763494	61084dbab48ab21fce452554	4	1	DL_test	23	DL_test	8	stimuli_distractor_trianglediamonds.svg	stimuli_target_diamondrectangles.svg	27	yes	ka	1	1102	6	3	antiphase_hc_soi.wav	1	6	2	noise_calib_stim_LEFT.wav	1	23	blb_dichoticlistening_ka-pa.mp3	ka	pa	1	left
6.6.1	win	2023-06-02	08:38:41	08:51:26	763494	61084dbab48ab21fce452554	4	1	DL_test	23	DL_test	9	stimuli_distractor_trianglediamonds.svg	stimuli_target_diamondrectangles.svg	27	yes	ba	1	1570	6	3	antiphase_hc_soi.wav	1	6	2	noise_calib_stim_LEFT.wav	1	25	blb_dichoticlistening_pa-ba.mp3	pa	ba	1	right
6.6.1	win	2023-06-02	08:38:41	08:51:26	763494	61084dbab48ab21fce452554	4	1	DL_test	23	DL_test	10	stimuli_distractor_trianglediamonds.svg	stimuli_target_diamondrectangles.svg	27	yes	ka	0	1190	6	3	antiphase_hc_soi.wav	1	6	2	noise_calib_stim_LEFT.wav	1	11	blb_dichoticlistening_da-pa.mp3	da	pa	1	other
6.6.1	win	2023-06-02	08:38:41	08:51:26	763494	61084dbab48ab21fce452554	4	1	DL_test	23	DL_test	11	stimuli_distractor_trianglediamonds.svg	stimuli_target_diamondrectangles.svg	27	yes	ga	0	1252	6	3	antiphase_hc_soi.wav	1	6	2	noise_calib_stim_LEFT.wav	1	20	blb_dichoticlistening_ka-da.mp3	ka	da	1	other
6.6.1	win	2023-06-02	08:38:41	08:51:26	763494	61084dbab48ab21fce452554	4	1	DL_test	23	DL_test	12	stimuli_distractor_trianglediamonds.svg	stimuli_target_diamondrectangles.svg	27	yes	ka	1	1248	6	3	antiphase_hc_soi.wav	1	6	2	noise_calib_stim_LEFT.wav	1	19	blb_dichoticlistening_ka-ba.mp3	ka	ba	1	left
6.6.1	win	2023-06-02	08:38:41	08:51:26	763494	61084dbab48ab21fce452554	4	1	DL_test	23	DL_test	13	stimuli_distractor_trianglediamonds.svg	stimuli_target_diamondrectangles.svg	27	yes	ba	1	1231	6	3	antiphase_hc_soi.wav	1	6	2	noise_calib_stim_LEFT.wav	1	1	blb_dichoticlistening_ba-ba.mp3	ba	ba	0	left
6.6.1	win	2023-06-02	08:38:41	08:51:26	763494	61084dbab48ab21fce452554	4	1	DL_test	23	DL_test	14	stimuli_distractor_trianglediamonds.svg	stimuli_target_diamondrectangles.svg	27	yes	ga	1	1165	6	3	antiphase_hc_soi.wav	1	6	2	noise_calib_stim_LEFT.wav	1	9	blb_dichoticlistening_da-ga.mp3	da	ga	1	right
6.6.1	win	2023-06-02	08:38:41	08:51:26	763494	61084dbab48ab21fce452554	4	1	DL_test	23	DL_test	15	stimuli_distractor_trianglediamonds.svg	stimuli_target_diamondrectangles.svg	27	yes	da	1	914	6	3	antiphase_hc_soi.wav	1	6	2	noise_calib_stim_LEFT.wav	1	7	blb_dichoticlistening_da-ba.mp3	da	ba	1	left
6.6.1	win	2023-06-02	08:38:41	08:51:26	763494	61084dbab48ab21fce452554	4	1	DL_test	23	DL_test	16	stimuli_distractor_trianglediamonds.svg	stimuli_target_diamondrectangles.svg	27	yes	da	1	1384	6	3	antiphase_hc_soi.wav	1	6	2	noise_calib_stim_LEFT.wav	1	10	blb_dichoticlistening_da-ka.mp3	da	ka	1	left
6.6.1	win	2023-06-02	08:38:41	08:51:26	763494	61084dbab48ab21fce452554	4	1	DL_test	23	DL_test	17	stimuli_distractor_trianglediamonds.svg	stimuli_target_diamondrectangles.svg	27	yes	ka	0	1965	6	3	antiphase_hc_soi.wav	1	6	2	noise_calib_stim_LEFT.wav	1	12	blb_dichoticlistening_da-ta.mp3	da	ta	1	other
6.6.1	win	2023-06-02	08:38:41	08:51:26	763494	61084dbab48ab21fce452554	4	1	DL_test	23	DL_test	18	stimuli_distractor_trianglediamonds.svg	stimuli_target_diamondrectangles.svg	27	yes	da	1	1036	6	3	antiphase_hc_soi.wav	1	6	2	noise_calib_stim_LEFT.wav	1	26	blb_dichoticlistening_pa-da.mp3	pa	da	1	right
6.6.1	win	2023-06-02	08:38:41	08:51:26	763494	61084dbab48ab21fce452554	4	1	DL_test	23	DL_test	19	stimuli_distractor_trianglediamonds.svg	stimuli_target_diamondrectangles.svg	27	yes	ka	1	1140	6	3	antiphase_hc_soi.wav	1	6	2	noise_calib_stim_LEFT.wav	1	21	blb_dichoticlistening_ka-ga.mp3	ka	ga	1	left
6.6.1	win	2023-06-02	08:38:41	08:51:26	763494	61084dbab48ab21fce452554	4	1	DL_test	23	DL_test	20	stimuli_distractor_trianglediamonds.svg	stimuli_target_diamondrectangles.svg	27	yes	ga	1	742	6	3	antiphase_hc_soi.wav	1	6	2	noise_calib_stim_LEFT.wav	1	33	blb_dichoticlistening_ta-ga.mp3	ta	ga	1	right
6.6.1	win	2023-06-02	08:38:41	08:51:26	763494	61084dbab48ab21fce452554	4	1	DL_test	23	DL_test	21	stimuli_distractor_trianglediamonds.svg	stimuli_target_diamondrectangles.svg	27	yes	ka	1	1037	6	3	antiphase_hc_soi.wav	1	6	2	noise_calib_stim_LEFT.wav	1	4	blb_dichoticlistening_ba-ka.mp3	ba	ka	1	right
6.6.1	win	2023-06-02	08:38:41	08:51:26	763494	61084dbab48ab21fce452554	4	1	DL_test	23	DL_test	22	stimuli_distractor_trianglediamonds.svg	stimuli_target_diamondrectangles.svg	27	yes	ga	1	753	6	3	antiphase_hc_soi.wav	1	6	2	noise_calib_stim_LEFT.wav	1	27	blb_dichoticlistening_pa-ga.mp3	pa	ga	1	right
6.6.1	win	2023-06-02	08:38:41	08:51:26	763494	61084dbab48ab21fce452554	4	1	DL_test	23	DL_test	23	stimuli_distractor_trianglediamonds.svg	stimuli_target_diamondrectangles.svg	27	yes	ka	0	815	6	3	antiphase_hc_soi.wav	1	6	2	noise_calib_stim_LEFT.wav	1	30	blb_dichoticlistening_pa-ta.mp3	pa	ta	1	other
6.6.1	win	2023-06-02	08:38:41	08:51:26	763494	61084dbab48ab21fce452554	4	1	DL_test	23	DL_test	24	stimuli_distractor_trianglediamonds.svg	stimuli_target_diamondrectangles.svg	27	yes	ka	1	716	6	3	antiphase_hc_soi.wav	1	6	2	noise_calib_stim_LEFT.wav	1	34	blb_dichoticlistening_ta-ka.mp3	ta	ka	1	right
6.6.1	win	2023-06-02	08:38:41	08:51:26	763494	61084dbab48ab21fce452554	4	1	DL_test	23	DL_test	25	stimuli_distractor_trianglediamonds.svg	stimuli_target_diamondrectangles.svg	27	yes	pa	1	1441	6	3	antiphase_hc_soi.wav	1	6	2	noise_calib_stim_LEFT.wav	1	29	blb_dichoticlistening_pa-pa.mp3	pa	pa	0	left
6.6.1	win	2023-06-02	08:38:41	08:51:26	763494	61084dbab48ab21fce452554	4	1	DL_test	23	DL_test	26	stimuli_distractor_trianglediamonds.svg	stimuli_target_diamondrectangles.svg	27	yes	ga	0	879	6	3	antiphase_hc_soi.wav	1	6	2	noise_calib_stim_LEFT.wav	1	32	blb_dichoticlistening_ta-da.mp3	ta	da	1	other
