build	computer.platform	date	time	timestamp	time_elapsed_ms	subject	group	session	blockcode	blocknum	trialcode	trialnum	stimulus_left	stimulus_right	stim_index	target_present	response	correct	latency	headphonecheck_countTestTrials	headphonecheck_index	headphonecheck_testSound	headphonecheck_correctResponse	stereocheck_countTestTrials	stereocheck_index	stereocheck_testSound	stereocheck_correctResponse	DL_index	DL_soundfile	DL_leftSound	DL_rightSound	DL_dualSound	DL_choice
6.6.1	win	2023-07-07	14:08:32	0	0	5fb70808c7c7bb1d76c2b9d4	2	1	headphonecheck_calibration	4	headphonecheck_calibrationIntro	1			0		calibrationButton	0	3595	0	0			0	0			1				0	
6.6.1	win	2023-07-07	14:08:32	0	0	5fb70808c7c7bb1d76c2b9d4	2	1	headphonecheck_testphase	5	test_collectResponse	3			0		second	1	527	1	5	antiphase_hc_osi.wav	2	0	0			1				0	
6.6.1	win	2023-07-07	14:08:32	0	0	5fb70808c7c7bb1d76c2b9d4	2	1	headphonecheck_testphase	5	test_collectResponse	6			0		third	1	306	2	2	antiphase_hc_ios.wav	3	0	0			1				0	
6.6.1	win	2023-07-07	14:08:32	0	0	5fb70808c7c7bb1d76c2b9d4	2	1	headphonecheck_testphase	5	test_collectResponse	9			0		first	1	267	3	3	antiphase_hc_soi.wav	1	0	0			1				0	
6.6.1	win	2023-07-07	14:08:32	0	0	5fb70808c7c7bb1d76c2b9d4	2	1	headphonecheck_testphase	5	test_collectResponse	12			0		second	1	236	4	1	antiphase_hc_iso.wav	2	0	0			1				0	
6.6.1	win	2023-07-07	14:08:32	0	0	5fb70808c7c7bb1d76c2b9d4	2	1	headphonecheck_testphase	5	test_collectResponse	15			0		third	1	200	5	6	antiphase_hc_ois.wav	3	0	0			1				0	
6.6.1	win	2023-07-07	14:08:32	0	0	5fb70808c7c7bb1d76c2b9d4	2	1	headphonecheck_testphase	5	test_collectResponse	18			0		first	1	247	6	4	antiphase_hc_sio.wav	1	0	0			1				0	
6.6.1	win	2023-07-07	14:08:32	0	0	5fb70808c7c7bb1d76c2b9d4	2	1	stereocheck_calibration	7	stereocheck_calibrationIntro	1			0		stereocheck_calibrationButton	0	4385	6	4	antiphase_hc_sio.wav	1	0	0			1				0	
6.6.1	win	2023-07-07	14:08:32	0	0	5fb70808c7c7bb1d76c2b9d4	2	1	stereocheck_testphase	8	stereocheck_test_collectResponse	3			0		stereocheck_left	1	726	6	4	antiphase_hc_sio.wav	1	1	1	noise_calib_stim_LEFT.wav	1	1				0	
6.6.1	win	2023-07-07	14:08:32	0	0	5fb70808c7c7bb1d76c2b9d4	2	1	stereocheck_testphase	8	stereocheck_test_collectResponse	6			0		stereocheck_right	1	3517	6	4	antiphase_hc_sio.wav	1	2	4	noise_calib_stim_RIGHT.wav	2	1				0	
6.6.1	win	2023-07-07	14:08:32	0	0	5fb70808c7c7bb1d76c2b9d4	2	1	stereocheck_testphase	8	stereocheck_test_collectResponse	9			0		stereocheck_left	1	1518	6	4	antiphase_hc_sio.wav	1	3	2	noise_calib_stim_LEFT.wav	1	1				0	
6.6.1	win	2023-07-07	14:08:32	0	0	5fb70808c7c7bb1d76c2b9d4	2	1	stereocheck_testphase	8	stereocheck_test_collectResponse	12			0		stereocheck_right	1	570	6	4	antiphase_hc_sio.wav	1	4	6	noise_calib_stim_RIGHT.wav	2	1				0	
6.6.1	win	2023-07-07	14:08:32	0	0	5fb70808c7c7bb1d76c2b9d4	2	1	stereocheck_testphase	8	stereocheck_test_collectResponse	15			0		stereocheck_right	1	322	6	4	antiphase_hc_sio.wav	1	5	5	noise_calib_stim_RIGHT.wav	2	1				0	
6.6.1	win	2023-07-07	14:08:32	0	0	5fb70808c7c7bb1d76c2b9d4	2	1	stereocheck_testphase	8	stereocheck_test_collectResponse	18			0		stereocheck_left	1	234	6	4	antiphase_hc_sio.wav	1	6	3	noise_calib_stim_LEFT.wav	1	1				0	
6.6.1	win	2023-07-07	14:08:32	0	0	5fb70808c7c7bb1d76c2b9d4	2	1	DL_practice	11	DL_practice	2			0		ka	1	992	6	4	antiphase_hc_sio.wav	1	6	3	noise_calib_stim_LEFT.wav	1	23	blb_dichoticlistening_ka-pa.mp3	ka	pa	1	left
6.6.1	win	2023-07-07	14:08:32	0	0	5fb70808c7c7bb1d76c2b9d4	2	1	DL_practice	11	DL_practice	3			0		da	1	986	6	4	antiphase_hc_sio.wav	1	6	3	noise_calib_stim_LEFT.wav	1	7	blb_dichoticlistening_da-ba.mp3	da	ba	1	left
6.6.1	win	2023-07-07	14:08:32	0	0	5fb70808c7c7bb1d76c2b9d4	2	1	DL_practice	11	DL_practice	4			0		ga	1	1539	6	4	antiphase_hc_sio.wav	1	6	3	noise_calib_stim_LEFT.wav	1	18	blb_dichoticlistening_ga-ta.mp3	ga	ta	1	left
6.6.1	win	2023-07-07	14:08:32	0	0	5fb70808c7c7bb1d76c2b9d4	2	1	DL_practice	11	DL_practice	5			0		pa	1	1052	6	4	antiphase_hc_sio.wav	1	6	3	noise_calib_stim_LEFT.wav	1	29	blb_dichoticlistening_pa-pa.mp3	pa	pa	0	left
6.6.1	win	2023-07-07	14:08:32	0	0	5fb70808c7c7bb1d76c2b9d4	2	1	DL_practice	11	DL_practice	6			0		ga	1	859	6	4	antiphase_hc_sio.wav	1	6	3	noise_calib_stim_LEFT.wav	1	15	blb_dichoticlistening_ga-ga.mp3	ga	ga	0	left
6.6.1	win	2023-07-07	14:08:32	0	0	5fb70808c7c7bb1d76c2b9d4	2	1	DL_practice	11	DL_practice	7			0		ka	1	940	6	4	antiphase_hc_sio.wav	1	6	3	noise_calib_stim_LEFT.wav	1	22	blb_dichoticlistening_ka-ka.mp3	ka	ka	0	left
6.6.1	win	2023-07-07	14:08:32	0	0	5fb70808c7c7bb1d76c2b9d4	2	1	DL_practice	11	DL_practice	8			0		ba	1	1568	6	4	antiphase_hc_sio.wav	1	6	3	noise_calib_stim_LEFT.wav	1	1	blb_dichoticlistening_ba-ba.mp3	ba	ba	0	left
6.6.1	win	2023-07-07	14:08:32	0	0	5fb70808c7c7bb1d76c2b9d4	2	1	DL_practice	11	DL_practice	9			0		ta	1	1299	6	4	antiphase_hc_sio.wav	1	6	3	noise_calib_stim_LEFT.wav	1	36	blb_dichoticlistening_ta-ta.mp3	ta	ta	0	left
6.6.1	win	2023-07-07	14:08:32	0	0	5fb70808c7c7bb1d76c2b9d4	2	1	DL_practice	11	DL_practice	10			0		da	1	848	6	4	antiphase_hc_sio.wav	1	6	3	noise_calib_stim_LEFT.wav	1	8	blb_dichoticlistening_da-da.mp3	da	da	0	left
6.6.1	win	2023-07-07	14:08:32	0	0	5fb70808c7c7bb1d76c2b9d4	2	1	DL_test	13	DL_test	1			0		ba	1	749	6	4	antiphase_hc_sio.wav	1	6	3	noise_calib_stim_LEFT.wav	1	5	blb_dichoticlistening_ba-pa.mp3	ba	pa	1	left
6.6.1	win	2023-07-07	14:08:32	0	0	5fb70808c7c7bb1d76c2b9d4	2	1	DL_test	13	DL_test	2			0		pa	1	1134	6	4	antiphase_hc_sio.wav	1	6	3	noise_calib_stim_LEFT.wav	1	29	blb_dichoticlistening_pa-pa.mp3	pa	pa	0	left
6.6.1	win	2023-07-07	14:08:32	0	0	5fb70808c7c7bb1d76c2b9d4	2	1	DL_test	13	DL_test	3			0		ga	1	977	6	4	antiphase_hc_sio.wav	1	6	3	noise_calib_stim_LEFT.wav	1	16	blb_dichoticlistening_ga-ka.mp3	ga	ka	1	left
6.6.1	win	2023-07-07	14:08:32	0	0	5fb70808c7c7bb1d76c2b9d4	2	1	DL_test	13	DL_test	4			0		pa	1	961	6	4	antiphase_hc_sio.wav	1	6	3	noise_calib_stim_LEFT.wav	1	27	blb_dichoticlistening_pa-ga.mp3	pa	ga	1	left
6.6.1	win	2023-07-07	14:08:32	0	0	5fb70808c7c7bb1d76c2b9d4	2	1	DL_test	13	DL_test	5			0		da	1	794	6	4	antiphase_hc_sio.wav	1	6	3	noise_calib_stim_LEFT.wav	1	12	blb_dichoticlistening_da-ta.mp3	da	ta	1	left
6.6.1	win	2023-07-07	14:08:32	0	0	5fb70808c7c7bb1d76c2b9d4	2	1	DL_test	13	DL_test	6			0		da	1	968	6	4	antiphase_hc_sio.wav	1	6	3	noise_calib_stim_LEFT.wav	1	10	blb_dichoticlistening_da-ka.mp3	da	ka	1	left
6.6.1	win	2023-07-07	14:08:32	0	0	5fb70808c7c7bb1d76c2b9d4	2	1	DL_test	13	DL_test	7			0		ba	1	1302	6	4	antiphase_hc_sio.wav	1	6	3	noise_calib_stim_LEFT.wav	1	4	blb_dichoticlistening_ba-ka.mp3	ba	ka	1	left
6.6.1	win	2023-07-07	14:08:32	0	0	5fb70808c7c7bb1d76c2b9d4	2	1	DL_test	13	DL_test	8			0		ta	1	796	6	4	antiphase_hc_sio.wav	1	6	3	noise_calib_stim_LEFT.wav	1	36	blb_dichoticlistening_ta-ta.mp3	ta	ta	0	left
6.6.1	win	2023-07-07	14:08:32	0	0	5fb70808c7c7bb1d76c2b9d4	2	1	DL_test	13	DL_test	9			0		ta	1	655	6	4	antiphase_hc_sio.wav	1	6	3	noise_calib_stim_LEFT.wav	1	32	blb_dichoticlistening_ta-da.mp3	ta	da	1	left
6.6.1	win	2023-07-07	14:08:32	0	0	5fb70808c7c7bb1d76c2b9d4	2	1	DL_test	13	DL_test	10			0		ba	1	1404	6	4	antiphase_hc_sio.wav	1	6	3	noise_calib_stim_LEFT.wav	1	6	blb_dichoticlistening_ba-ta.mp3	ba	ta	1	left
6.6.1	win	2023-07-07	14:08:32	0	0	5fb70808c7c7bb1d76c2b9d4	2	1	DL_test	13	DL_test	11			0		ga	1	930	6	4	antiphase_hc_sio.wav	1	6	3	noise_calib_stim_LEFT.wav	1	15	blb_dichoticlistening_ga-ga.mp3	ga	ga	0	left
6.6.1	win	2023-07-07	14:08:32	0	0	5fb70808c7c7bb1d76c2b9d4	2	1	DL_test	13	DL_test	12			0		ka	1	995	6	4	antiphase_hc_sio.wav	1	6	3	noise_calib_stim_LEFT.wav	1	20	blb_dichoticlistening_ka-da.mp3	ka	da	1	left
6.6.1	win	2023-07-07	14:08:32	0	0	5fb70808c7c7bb1d76c2b9d4	2	1	DL_test	13	DL_test	13			0		da	1	1159	6	4	antiphase_hc_sio.wav	1	6	3	noise_calib_stim_LEFT.wav	1	9	blb_dichoticlistening_da-ga.mp3	da	ga	1	left
6.6.1	win	2023-07-07	14:08:32	0	0	5fb70808c7c7bb1d76c2b9d4	2	1	DL_test	13	DL_test	14			0		ba	1	903	6	4	antiphase_hc_sio.wav	1	6	3	noise_calib_stim_LEFT.wav	1	2	blb_dichoticlistening_ba-da.mp3	ba	da	1	left
6.6.1	win	2023-07-07	14:08:32	0	0	5fb70808c7c7bb1d76c2b9d4	2	1	DL_test	13	DL_test	15			0		ka	1	711	6	4	antiphase_hc_sio.wav	1	6	3	noise_calib_stim_LEFT.wav	1	21	blb_dichoticlistening_ka-ga.mp3	ka	ga	1	left
6.6.1	win	2023-07-07	14:08:32	0	0	5fb70808c7c7bb1d76c2b9d4	2	1	DL_test	13	DL_test	16			0		ga	1	1094	6	4	antiphase_hc_sio.wav	1	6	3	noise_calib_stim_LEFT.wav	1	17	blb_dichoticlistening_ga-pa.mp3	ga	pa	1	left
6.6.1	win	2023-07-07	14:08:32	0	0	5fb70808c7c7bb1d76c2b9d4	2	1	DL_test	13	DL_test	17			0		pa	1	654	6	4	antiphase_hc_sio.wav	1	6	3	noise_calib_stim_LEFT.wav	1	28	blb_dichoticlistening_pa-ka.mp3	pa	ka	1	left
6.6.1	win	2023-07-07	14:08:32	0	0	5fb70808c7c7bb1d76c2b9d4	2	1	DL_test	13	DL_test	18			0		pa	1	983	6	4	antiphase_hc_sio.wav	1	6	3	noise_calib_stim_LEFT.wav	1	30	blb_dichoticlistening_pa-ta.mp3	pa	ta	1	left
6.6.1	win	2023-07-07	14:08:32	0	0	5fb70808c7c7bb1d76c2b9d4	2	1	DL_test	13	DL_test	19			0		ta	1	886	6	4	antiphase_hc_sio.wav	1	6	3	noise_calib_stim_LEFT.wav	1	35	blb_dichoticlistening_ta-pa.mp3	ta	pa	1	left
6.6.1	win	2023-07-07	14:08:32	0	0	5fb70808c7c7bb1d76c2b9d4	2	1	DL_test	13	DL_test	20			0		ba	1	1141	6	4	antiphase_hc_sio.wav	1	6	3	noise_calib_stim_LEFT.wav	1	3	blb_dichoticlistening_ba-ga.mp3	ba	ga	1	left
6.6.1	win	2023-07-07	14:08:32	0	0	5fb70808c7c7bb1d76c2b9d4	2	1	DL_test	13	DL_test	21			0		ta	1	1263	6	4	antiphase_hc_sio.wav	1	6	3	noise_calib_stim_LEFT.wav	1	33	blb_dichoticlistening_ta-ga.mp3	ta	ga	1	left
6.6.1	win	2023-07-07	14:08:32	0	0	5fb70808c7c7bb1d76c2b9d4	2	1	DL_test	13	DL_test	22			0		ka	1	978	6	4	antiphase_hc_sio.wav	1	6	3	noise_calib_stim_LEFT.wav	1	19	blb_dichoticlistening_ka-ba.mp3	ka	ba	1	left
6.6.1	win	2023-07-07	14:08:32	0	0	5fb70808c7c7bb1d76c2b9d4	2	1	DL_test	13	DL_test	23			0		ka	1	1331	6	4	antiphase_hc_sio.wav	1	6	3	noise_calib_stim_LEFT.wav	1	24	blb_dichoticlistening_ka-ta.mp3	ka	ta	1	left
6.6.1	win	2023-07-07	14:08:32	0	0	5fb70808c7c7bb1d76c2b9d4	2	1	DL_test	13	DL_test	24			0		ga	1	1052	6	4	antiphase_hc_sio.wav	1	6	3	noise_calib_stim_LEFT.wav	1	13	blb_dichoticlistening_ga-ba.mp3	ga	ba	1	left
6.6.1	win	2023-07-07	14:08:32	0	0	5fb70808c7c7bb1d76c2b9d4	2	1	DL_test	13	DL_test	25			0		da	1	964	6	4	antiphase_hc_sio.wav	1	6	3	noise_calib_stim_LEFT.wav	1	8	blb_dichoticlistening_da-da.mp3	da	da	0	left
6.6.1	win	2023-07-07	14:08:32	0	0	5fb70808c7c7bb1d76c2b9d4	2	1	DL_test	13	DL_test	26			0		da	1	726	6	4	antiphase_hc_sio.wav	1	6	3	noise_calib_stim_LEFT.wav	1	7	blb_dichoticlistening_da-ba.mp3	da	ba	1	left
6.6.1	win	2023-07-07	14:08:32	0	0	5fb70808c7c7bb1d76c2b9d4	2	1	DL_test	13	DL_test	27			0		ka	1	1000	6	4	antiphase_hc_sio.wav	1	6	3	noise_calib_stim_LEFT.wav	1	23	blb_dichoticlistening_ka-pa.mp3	ka	pa	1	left
6.6.1	win	2023-07-07	14:08:32	0	0	5fb70808c7c7bb1d76c2b9d4	2	1	DL_test	13	DL_test	28			0		ta	1	1361	6	4	antiphase_hc_sio.wav	1	6	3	noise_calib_stim_LEFT.wav	1	34	blb_dichoticlistening_ta-ka.mp3	ta	ka	1	left
6.6.1	win	2023-07-07	14:08:32	0	0	5fb70808c7c7bb1d76c2b9d4	2	1	DL_test	13	DL_test	29			0		ga	1	742	6	4	antiphase_hc_sio.wav	1	6	3	noise_calib_stim_LEFT.wav	1	14	blb_dichoticlistening_ga-da.mp3	ga	da	1	left
6.6.1	win	2023-07-07	14:08:32	0	0	5fb70808c7c7bb1d76c2b9d4	2	1	DL_test	13	DL_test	30			0		da	1	1401	6	4	antiphase_hc_sio.wav	1	6	3	noise_calib_stim_LEFT.wav	1	11	blb_dichoticlistening_da-pa.mp3	da	pa	1	left
6.6.1	win	2023-07-07	14:08:32	0	0	5fb70808c7c7bb1d76c2b9d4	2	1	DL_test	13	DL_test	31			0		ba	1	1665	6	4	antiphase_hc_sio.wav	1	6	3	noise_calib_stim_LEFT.wav	1	1	blb_dichoticlistening_ba-ba.mp3	ba	ba	0	left
6.6.1	win	2023-07-07	14:08:32	0	0	5fb70808c7c7bb1d76c2b9d4	2	1	DL_test	13	DL_test	32			0		pa	1	2118	6	4	antiphase_hc_sio.wav	1	6	3	noise_calib_stim_LEFT.wav	1	26	blb_dichoticlistening_pa-da.mp3	pa	da	1	left
6.6.1	win	2023-07-07	14:08:32	0	0	5fb70808c7c7bb1d76c2b9d4	2	1	DL_test	13	DL_test	33			0		ta	1	1137	6	4	antiphase_hc_sio.wav	1	6	3	noise_calib_stim_LEFT.wav	1	31	blb_dichoticlistening_ta-ba.mp3	ta	ba	1	left
6.6.1	win	2023-07-07	14:08:32	0	0	5fb70808c7c7bb1d76c2b9d4	2	1	DL_test	13	DL_test	34			0		pa	1	899	6	4	antiphase_hc_sio.wav	1	6	3	noise_calib_stim_LEFT.wav	1	25	blb_dichoticlistening_pa-ba.mp3	pa	ba	1	left
6.6.1	win	2023-07-07	14:08:32	0	0	5fb70808c7c7bb1d76c2b9d4	2	1	DL_test	13	DL_test	35			0		ga	1	1209	6	4	antiphase_hc_sio.wav	1	6	3	noise_calib_stim_LEFT.wav	1	18	blb_dichoticlistening_ga-ta.mp3	ga	ta	1	left
6.6.1	win	2023-07-07	14:08:32	0	0	5fb70808c7c7bb1d76c2b9d4	2	1	DL_test	13	DL_test	36			0		ka	1	834	6	4	antiphase_hc_sio.wav	1	6	3	noise_calib_stim_LEFT.wav	1	22	blb_dichoticlistening_ka-ka.mp3	ka	ka	0	left
6.6.1	win	2023-07-07	14:08:32	0	0	5fb70808c7c7bb1d76c2b9d4	2	1	DL_test	14	DL_test	1			0		pa	1	1230	6	4	antiphase_hc_sio.wav	1	6	3	noise_calib_stim_LEFT.wav	1	28	blb_dichoticlistening_pa-ka.mp3	pa	ka	1	left
6.6.1	win	2023-07-07	14:08:32	0	0	5fb70808c7c7bb1d76c2b9d4	2	1	DL_test	14	DL_test	2			0		pa	1	476	6	4	antiphase_hc_sio.wav	1	6	3	noise_calib_stim_LEFT.wav	1	30	blb_dichoticlistening_pa-ta.mp3	pa	ta	1	left
6.6.1	win	2023-07-07	14:08:32	0	0	5fb70808c7c7bb1d76c2b9d4	2	1	DL_test	14	DL_test	3			0		ga	1	797	6	4	antiphase_hc_sio.wav	1	6	3	noise_calib_stim_LEFT.wav	1	18	blb_dichoticlistening_ga-ta.mp3	ga	ta	1	left
6.6.1	win	2023-07-07	14:08:32	0	0	5fb70808c7c7bb1d76c2b9d4	2	1	DL_test	14	DL_test	4			0		da	1	758	6	4	antiphase_hc_sio.wav	1	6	3	noise_calib_stim_LEFT.wav	1	8	blb_dichoticlistening_da-da.mp3	da	da	0	left
6.6.1	win	2023-07-07	14:08:32	0	0	5fb70808c7c7bb1d76c2b9d4	2	1	DL_test	14	DL_test	5			0		ta	1	998	6	4	antiphase_hc_sio.wav	1	6	3	noise_calib_stim_LEFT.wav	1	33	blb_dichoticlistening_ta-ga.mp3	ta	ga	1	left
6.6.1	win	2023-07-07	14:08:32	0	0	5fb70808c7c7bb1d76c2b9d4	2	1	DL_test	14	DL_test	6			0		ba	1	1463	6	4	antiphase_hc_sio.wav	1	6	3	noise_calib_stim_LEFT.wav	1	3	blb_dichoticlistening_ba-ga.mp3	ba	ga	1	left
6.6.1	win	2023-07-07	14:08:32	0	0	5fb70808c7c7bb1d76c2b9d4	2	1	DL_test	14	DL_test	7			0		da	1	764	6	4	antiphase_hc_sio.wav	1	6	3	noise_calib_stim_LEFT.wav	1	9	blb_dichoticlistening_da-ga.mp3	da	ga	1	left
6.6.1	win	2023-07-07	14:08:32	0	0	5fb70808c7c7bb1d76c2b9d4	2	1	DL_test	14	DL_test	8			0		ka	1	986	6	4	antiphase_hc_sio.wav	1	6	3	noise_calib_stim_LEFT.wav	1	20	blb_dichoticlistening_ka-da.mp3	ka	da	1	left
6.6.1	win	2023-07-07	14:08:32	0	0	5fb70808c7c7bb1d76c2b9d4	2	1	DL_test	14	DL_test	9			0		ga	1	719	6	4	antiphase_hc_sio.wav	1	6	3	noise_calib_stim_LEFT.wav	1	14	blb_dichoticlistening_ga-da.mp3	ga	da	1	left
6.6.1	win	2023-07-07	14:08:32	0	0	5fb70808c7c7bb1d76c2b9d4	2	1	DL_test	14	DL_test	10			0		ka	1	680	6	4	antiphase_hc_sio.wav	1	6	3	noise_calib_stim_LEFT.wav	1	19	blb_dichoticlistening_ka-ba.mp3	ka	ba	1	left
6.6.1	win	2023-07-07	14:08:32	0	0	5fb70808c7c7bb1d76c2b9d4	2	1	DL_test	14	DL_test	11			0		ta	1	1399	6	4	antiphase_hc_sio.wav	1	6	3	noise_calib_stim_LEFT.wav	1	31	blb_dichoticlistening_ta-ba.mp3	ta	ba	1	left
6.6.1	win	2023-07-07	14:08:32	0	0	5fb70808c7c7bb1d76c2b9d4	2	1	DL_test	14	DL_test	12			0		ba	1	1039	6	4	antiphase_hc_sio.wav	1	6	3	noise_calib_stim_LEFT.wav	1	4	blb_dichoticlistening_ba-ka.mp3	ba	ka	1	left
6.6.1	win	2023-07-07	14:08:32	0	0	5fb70808c7c7bb1d76c2b9d4	2	1	DL_test	14	DL_test	13			0		ta	1	1261	6	4	antiphase_hc_sio.wav	1	6	3	noise_calib_stim_LEFT.wav	1	35	blb_dichoticlistening_ta-pa.mp3	ta	pa	1	left
6.6.1	win	2023-07-07	14:08:32	0	0	5fb70808c7c7bb1d76c2b9d4	2	1	DL_test	14	DL_test	14			0		ga	1	805	6	4	antiphase_hc_sio.wav	1	6	3	noise_calib_stim_LEFT.wav	1	15	blb_dichoticlistening_ga-ga.mp3	ga	ga	0	left
6.6.1	win	2023-07-07	14:08:32	0	0	5fb70808c7c7bb1d76c2b9d4	2	1	DL_test	14	DL_test	15			0		ka	1	982	6	4	antiphase_hc_sio.wav	1	6	3	noise_calib_stim_LEFT.wav	1	23	blb_dichoticlistening_ka-pa.mp3	ka	pa	1	left
6.6.1	win	2023-07-07	14:08:32	0	0	5fb70808c7c7bb1d76c2b9d4	2	1	DL_test	14	DL_test	16			0		ta	1	1054	6	4	antiphase_hc_sio.wav	1	6	3	noise_calib_stim_LEFT.wav	1	36	blb_dichoticlistening_ta-ta.mp3	ta	ta	0	left
6.6.1	win	2023-07-07	14:08:32	0	0	5fb70808c7c7bb1d76c2b9d4	2	1	DL_test	14	DL_test	17			0		ba	1	1149	6	4	antiphase_hc_sio.wav	1	6	3	noise_calib_stim_LEFT.wav	1	2	blb_dichoticlistening_ba-da.mp3	ba	da	1	left
6.6.1	win	2023-07-07	14:08:32	0	0	5fb70808c7c7bb1d76c2b9d4	2	1	DL_test	14	DL_test	18			0		ba	1	808	6	4	antiphase_hc_sio.wav	1	6	3	noise_calib_stim_LEFT.wav	1	6	blb_dichoticlistening_ba-ta.mp3	ba	ta	1	left
6.6.1	win	2023-07-07	14:08:32	0	0	5fb70808c7c7bb1d76c2b9d4	2	1	DL_test	14	DL_test	19			0		da	1	648	6	4	antiphase_hc_sio.wav	1	6	3	noise_calib_stim_LEFT.wav	1	12	blb_dichoticlistening_da-ta.mp3	da	ta	1	left
6.6.1	win	2023-07-07	14:08:32	0	0	5fb70808c7c7bb1d76c2b9d4	2	1	DL_test	14	DL_test	20			0		pa	1	1550	6	4	antiphase_hc_sio.wav	1	6	3	noise_calib_stim_LEFT.wav	1	27	blb_dichoticlistening_pa-ga.mp3	pa	ga	1	left
6.6.1	win	2023-07-07	14:08:32	0	0	5fb70808c7c7bb1d76c2b9d4	2	1	DL_test	14	DL_test	21			0		ta	1	1454	6	4	antiphase_hc_sio.wav	1	6	3	noise_calib_stim_LEFT.wav	1	34	blb_dichoticlistening_ta-ka.mp3	ta	ka	1	left
6.6.1	win	2023-07-07	14:08:32	0	0	5fb70808c7c7bb1d76c2b9d4	2	1	DL_test	14	DL_test	22			0		pa	1	851	6	4	antiphase_hc_sio.wav	1	6	3	noise_calib_stim_LEFT.wav	1	25	blb_dichoticlistening_pa-ba.mp3	pa	ba	1	left
6.6.1	win	2023-07-07	14:08:32	0	0	5fb70808c7c7bb1d76c2b9d4	2	1	DL_test	14	DL_test	23			0		da	1	1344	6	4	antiphase_hc_sio.wav	1	6	3	noise_calib_stim_LEFT.wav	1	10	blb_dichoticlistening_da-ka.mp3	da	ka	1	left
6.6.1	win	2023-07-07	14:08:32	0	0	5fb70808c7c7bb1d76c2b9d4	2	1	DL_test	14	DL_test	24			0		ba	1	1845	6	4	antiphase_hc_sio.wav	1	6	3	noise_calib_stim_LEFT.wav	1	5	blb_dichoticlistening_ba-pa.mp3	ba	pa	1	left
6.6.1	win	2023-07-07	14:08:32	0	0	5fb70808c7c7bb1d76c2b9d4	2	1	DL_test	14	DL_test	25			0		pa	1	1553	6	4	antiphase_hc_sio.wav	1	6	3	noise_calib_stim_LEFT.wav	1	26	blb_dichoticlistening_pa-da.mp3	pa	da	1	left
6.6.1	win	2023-07-07	14:08:32	0	0	5fb70808c7c7bb1d76c2b9d4	2	1	DL_test	14	DL_test	26			0		ga	1	1179	6	4	antiphase_hc_sio.wav	1	6	3	noise_calib_stim_LEFT.wav	1	13	blb_dichoticlistening_ga-ba.mp3	ga	ba	1	left
6.6.1	win	2023-07-07	14:08:32	0	0	5fb70808c7c7bb1d76c2b9d4	2	1	DL_test	14	DL_test	27			0		ka	1	698	6	4	antiphase_hc_sio.wav	1	6	3	noise_calib_stim_LEFT.wav	1	21	blb_dichoticlistening_ka-ga.mp3	ka	ga	1	left
6.6.1	win	2023-07-07	14:08:32	0	0	5fb70808c7c7bb1d76c2b9d4	2	1	DL_test	14	DL_test	28			0		ka	1	614	6	4	antiphase_hc_sio.wav	1	6	3	noise_calib_stim_LEFT.wav	1	22	blb_dichoticlistening_ka-ka.mp3	ka	ka	0	left
6.6.1	win	2023-07-07	14:08:32	0	0	5fb70808c7c7bb1d76c2b9d4	2	1	DL_test	14	DL_test	29			0		ba	1	1100	6	4	antiphase_hc_sio.wav	1	6	3	noise_calib_stim_LEFT.wav	1	1	blb_dichoticlistening_ba-ba.mp3	ba	ba	0	left
6.6.1	win	2023-07-07	14:08:32	0	0	5fb70808c7c7bb1d76c2b9d4	2	1	DL_test	14	DL_test	30			0		pa	1	1155	6	4	antiphase_hc_sio.wav	1	6	3	noise_calib_stim_LEFT.wav	1	29	blb_dichoticlistening_pa-pa.mp3	pa	pa	0	left
6.6.1	win	2023-07-07	14:08:32	0	0	5fb70808c7c7bb1d76c2b9d4	2	1	DL_test	14	DL_test	31			0		da	1	1044	6	4	antiphase_hc_sio.wav	1	6	3	noise_calib_stim_LEFT.wav	1	11	blb_dichoticlistening_da-pa.mp3	da	pa	1	left
6.6.1	win	2023-07-07	14:08:32	0	0	5fb70808c7c7bb1d76c2b9d4	2	1	DL_test	14	DL_test	32			0		ka	1	1115	6	4	antiphase_hc_sio.wav	1	6	3	noise_calib_stim_LEFT.wav	1	24	blb_dichoticlistening_ka-ta.mp3	ka	ta	1	left
6.6.1	win	2023-07-07	14:08:32	0	0	5fb70808c7c7bb1d76c2b9d4	2	1	DL_test	14	DL_test	33			0		da	1	1558	6	4	antiphase_hc_sio.wav	1	6	3	noise_calib_stim_LEFT.wav	1	7	blb_dichoticlistening_da-ba.mp3	da	ba	1	left
6.6.1	win	2023-07-07	14:08:32	0	0	5fb70808c7c7bb1d76c2b9d4	2	1	DL_test	14	DL_test	34			0		ga	1	806	6	4	antiphase_hc_sio.wav	1	6	3	noise_calib_stim_LEFT.wav	1	16	blb_dichoticlistening_ga-ka.mp3	ga	ka	1	left
6.6.1	win	2023-07-07	14:08:32	0	0	5fb70808c7c7bb1d76c2b9d4	2	1	DL_test	14	DL_test	35			0		ta	1	1094	6	4	antiphase_hc_sio.wav	1	6	3	noise_calib_stim_LEFT.wav	1	32	blb_dichoticlistening_ta-da.mp3	ta	da	1	left
6.6.1	win	2023-07-07	14:08:32	0	0	5fb70808c7c7bb1d76c2b9d4	2	1	DL_test	14	DL_test	36			0		ga	1	1001	6	4	antiphase_hc_sio.wav	1	6	3	noise_calib_stim_LEFT.wav	1	17	blb_dichoticlistening_ga-pa.mp3	ga	pa	1	left
6.6.1	win	2023-07-07	14:08:32	0	0	5fb70808c7c7bb1d76c2b9d4	2	1	DL_test	15	DL_test	1			0		da	1	670	6	4	antiphase_hc_sio.wav	1	6	3	noise_calib_stim_LEFT.wav	1	9	blb_dichoticlistening_da-ga.mp3	da	ga	1	left
6.6.1	win	2023-07-07	14:08:32	0	0	5fb70808c7c7bb1d76c2b9d4	2	1	DL_test	15	DL_test	2			0		ta	1	1300	6	4	antiphase_hc_sio.wav	1	6	3	noise_calib_stim_LEFT.wav	1	35	blb_dichoticlistening_ta-pa.mp3	ta	pa	1	left
6.6.1	win	2023-07-07	14:08:32	0	0	5fb70808c7c7bb1d76c2b9d4	2	1	DL_test	15	DL_test	3			0		ka	1	1494	6	4	antiphase_hc_sio.wav	1	6	3	noise_calib_stim_LEFT.wav	1	20	blb_dichoticlistening_ka-da.mp3	ka	da	1	left
6.6.1	win	2023-07-07	14:08:32	0	0	5fb70808c7c7bb1d76c2b9d4	2	1	DL_test	15	DL_test	4			0		ba	1	1048	6	4	antiphase_hc_sio.wav	1	6	3	noise_calib_stim_LEFT.wav	1	4	blb_dichoticlistening_ba-ka.mp3	ba	ka	1	left
6.6.1	win	2023-07-07	14:08:32	0	0	5fb70808c7c7bb1d76c2b9d4	2	1	DL_test	15	DL_test	5			0		da	1	893	6	4	antiphase_hc_sio.wav	1	6	3	noise_calib_stim_LEFT.wav	1	10	blb_dichoticlistening_da-ka.mp3	da	ka	1	left
6.6.1	win	2023-07-07	14:08:32	0	0	5fb70808c7c7bb1d76c2b9d4	2	1	DL_test	15	DL_test	6			0		ka	1	917	6	4	antiphase_hc_sio.wav	1	6	3	noise_calib_stim_LEFT.wav	1	22	blb_dichoticlistening_ka-ka.mp3	ka	ka	0	left
6.6.1	win	2023-07-07	14:08:32	0	0	5fb70808c7c7bb1d76c2b9d4	2	1	DL_test	15	DL_test	7			0		ta	1	1224	6	4	antiphase_hc_sio.wav	1	6	3	noise_calib_stim_LEFT.wav	1	36	blb_dichoticlistening_ta-ta.mp3	ta	ta	0	left
6.6.1	win	2023-07-07	14:08:32	0	0	5fb70808c7c7bb1d76c2b9d4	2	1	DL_test	15	DL_test	8			0		ga	1	685	6	4	antiphase_hc_sio.wav	1	6	3	noise_calib_stim_LEFT.wav	1	13	blb_dichoticlistening_ga-ba.mp3	ga	ba	1	left
6.6.1	win	2023-07-07	14:08:32	0	0	5fb70808c7c7bb1d76c2b9d4	2	1	DL_test	15	DL_test	9			0		ka	1	755	6	4	antiphase_hc_sio.wav	1	6	3	noise_calib_stim_LEFT.wav	1	24	blb_dichoticlistening_ka-ta.mp3	ka	ta	1	left
6.6.1	win	2023-07-07	14:08:32	0	0	5fb70808c7c7bb1d76c2b9d4	2	1	DL_test	15	DL_test	10			0		ga	1	516	6	4	antiphase_hc_sio.wav	1	6	3	noise_calib_stim_LEFT.wav	1	16	blb_dichoticlistening_ga-ka.mp3	ga	ka	1	left
6.6.1	win	2023-07-07	14:08:32	0	0	5fb70808c7c7bb1d76c2b9d4	2	1	DL_test	15	DL_test	11			0		ta	1	1098	6	4	antiphase_hc_sio.wav	1	6	3	noise_calib_stim_LEFT.wav	1	31	blb_dichoticlistening_ta-ba.mp3	ta	ba	1	left
6.6.1	win	2023-07-07	14:08:32	0	0	5fb70808c7c7bb1d76c2b9d4	2	1	DL_test	15	DL_test	12			0		ba	1	883	6	4	antiphase_hc_sio.wav	1	6	3	noise_calib_stim_LEFT.wav	1	5	blb_dichoticlistening_ba-pa.mp3	ba	pa	1	left
6.6.1	win	2023-07-07	14:08:32	0	0	5fb70808c7c7bb1d76c2b9d4	2	1	DL_test	15	DL_test	13			0		pa	1	1063	6	4	antiphase_hc_sio.wav	1	6	3	noise_calib_stim_LEFT.wav	1	27	blb_dichoticlistening_pa-ga.mp3	pa	ga	1	left
6.6.1	win	2023-07-07	14:08:32	0	0	5fb70808c7c7bb1d76c2b9d4	2	1	DL_test	15	DL_test	14			0		ta	1	1389	6	4	antiphase_hc_sio.wav	1	6	3	noise_calib_stim_LEFT.wav	1	33	blb_dichoticlistening_ta-ga.mp3	ta	ga	1	left
6.6.1	win	2023-07-07	14:08:32	0	0	5fb70808c7c7bb1d76c2b9d4	2	1	DL_test	15	DL_test	15			0		da	1	730	6	4	antiphase_hc_sio.wav	1	6	3	noise_calib_stim_LEFT.wav	1	12	blb_dichoticlistening_da-ta.mp3	da	ta	1	left
6.6.1	win	2023-07-07	14:08:32	0	0	5fb70808c7c7bb1d76c2b9d4	2	1	DL_test	15	DL_test	16			0		pa	1	1323	6	4	antiphase_hc_sio.wav	1	6	3	noise_calib_stim_LEFT.wav	1	26	blb_dichoticlistening_pa-da.mp3	pa	da	1	left
6.6.1	win	2023-07-07	14:08:32	0	0	5fb70808c7c7bb1d76c2b9d4	2	1	DL_test	15	DL_test	17			0		ba	1	1613	6	4	antiphase_hc_sio.wav	1	6	3	noise_calib_stim_LEFT.wav	1	2	blb_dichoticlistening_ba-da.mp3	ba	da	1	left
6.6.1	win	2023-07-07	14:08:32	0	0	5fb70808c7c7bb1d76c2b9d4	2	1	DL_test	15	DL_test	18			0		ba	1	475	6	4	antiphase_hc_sio.wav	1	6	3	noise_calib_stim_LEFT.wav	1	1	blb_dichoticlistening_ba-ba.mp3	ba	ba	0	left
6.6.1	win	2023-07-07	14:08:32	0	0	5fb70808c7c7bb1d76c2b9d4	2	1	DL_test	15	DL_test	19			0		ta	1	1246	6	4	antiphase_hc_sio.wav	1	6	3	noise_calib_stim_LEFT.wav	1	32	blb_dichoticlistening_ta-da.mp3	ta	da	1	left
6.6.1	win	2023-07-07	14:08:32	0	0	5fb70808c7c7bb1d76c2b9d4	2	1	DL_test	15	DL_test	20			0		ga	1	1319	6	4	antiphase_hc_sio.wav	1	6	3	noise_calib_stim_LEFT.wav	1	18	blb_dichoticlistening_ga-ta.mp3	ga	ta	1	left
6.6.1	win	2023-07-07	14:08:32	0	0	5fb70808c7c7bb1d76c2b9d4	2	1	DL_test	15	DL_test	21			0		da	1	1021	6	4	antiphase_hc_sio.wav	1	6	3	noise_calib_stim_LEFT.wav	1	8	blb_dichoticlistening_da-da.mp3	da	da	0	left
6.6.1	win	2023-07-07	14:08:32	0	0	5fb70808c7c7bb1d76c2b9d4	2	1	DL_test	15	DL_test	22			0		ga	1	728	6	4	antiphase_hc_sio.wav	1	6	3	noise_calib_stim_LEFT.wav	1	17	blb_dichoticlistening_ga-pa.mp3	ga	pa	1	left
6.6.1	win	2023-07-07	14:08:32	0	0	5fb70808c7c7bb1d76c2b9d4	2	1	DL_test	15	DL_test	23			0		da	1	738	6	4	antiphase_hc_sio.wav	1	6	3	noise_calib_stim_LEFT.wav	1	11	blb_dichoticlistening_da-pa.mp3	da	pa	1	left
6.6.1	win	2023-07-07	14:08:32	0	0	5fb70808c7c7bb1d76c2b9d4	2	1	DL_test	15	DL_test	24			0		ba	1	646	6	4	antiphase_hc_sio.wav	1	6	3	noise_calib_stim_LEFT.wav	1	3	blb_dichoticlistening_ba-ga.mp3	ba	ga	1	left
6.6.1	win	2023-07-07	14:08:32	0	0	5fb70808c7c7bb1d76c2b9d4	2	1	DL_test	15	DL_test	25			0		pa	1	783	6	4	antiphase_hc_sio.wav	1	6	3	noise_calib_stim_LEFT.wav	1	29	blb_dichoticlistening_pa-pa.mp3	pa	pa	0	left
6.6.1	win	2023-07-07	14:08:32	0	0	5fb70808c7c7bb1d76c2b9d4	2	1	DL_test	15	DL_test	26			0		ta	1	863	6	4	antiphase_hc_sio.wav	1	6	3	noise_calib_stim_LEFT.wav	1	34	blb_dichoticlistening_ta-ka.mp3	ta	ka	1	left
6.6.1	win	2023-07-07	14:08:32	0	0	5fb70808c7c7bb1d76c2b9d4	2	1	DL_test	15	DL_test	27			0		ga	0	574	6	4	antiphase_hc_sio.wav	1	6	3	noise_calib_stim_LEFT.wav	1	7	blb_dichoticlistening_da-ba.mp3	da	ba	1	other
6.6.1	win	2023-07-07	14:08:32	0	0	5fb70808c7c7bb1d76c2b9d4	2	1	DL_test	15	DL_test	28			0		pa	1	1447	6	4	antiphase_hc_sio.wav	1	6	3	noise_calib_stim_LEFT.wav	1	30	blb_dichoticlistening_pa-ta.mp3	pa	ta	1	left
6.6.1	win	2023-07-07	14:08:32	0	0	5fb70808c7c7bb1d76c2b9d4	2	1	DL_test	15	DL_test	29			0		pa	1	1084	6	4	antiphase_hc_sio.wav	1	6	3	noise_calib_stim_LEFT.wav	1	28	blb_dichoticlistening_pa-ka.mp3	pa	ka	1	left
6.6.1	win	2023-07-07	14:08:32	0	0	5fb70808c7c7bb1d76c2b9d4	2	1	DL_test	15	DL_test	30			0		ka	1	1400	6	4	antiphase_hc_sio.wav	1	6	3	noise_calib_stim_LEFT.wav	1	19	blb_dichoticlistening_ka-ba.mp3	ka	ba	1	left
6.6.1	win	2023-07-07	14:08:32	0	0	5fb70808c7c7bb1d76c2b9d4	2	1	DL_test	15	DL_test	31			0		ka	1	528	6	4	antiphase_hc_sio.wav	1	6	3	noise_calib_stim_LEFT.wav	1	23	blb_dichoticlistening_ka-pa.mp3	ka	pa	1	left
6.6.1	win	2023-07-07	14:08:32	0	0	5fb70808c7c7bb1d76c2b9d4	2	1	DL_test	15	DL_test	32			0		ga	1	888	6	4	antiphase_hc_sio.wav	1	6	3	noise_calib_stim_LEFT.wav	1	14	blb_dichoticlistening_ga-da.mp3	ga	da	1	left
6.6.1	win	2023-07-07	14:08:32	0	0	5fb70808c7c7bb1d76c2b9d4	2	1	DL_test	15	DL_test	33			0		ga	1	669	6	4	antiphase_hc_sio.wav	1	6	3	noise_calib_stim_LEFT.wav	1	15	blb_dichoticlistening_ga-ga.mp3	ga	ga	0	left
6.6.1	win	2023-07-07	14:08:32	0	0	5fb70808c7c7bb1d76c2b9d4	2	1	DL_test	15	DL_test	34			0		ba	1	1318	6	4	antiphase_hc_sio.wav	1	6	3	noise_calib_stim_LEFT.wav	1	6	blb_dichoticlistening_ba-ta.mp3	ba	ta	1	left
6.6.1	win	2023-07-07	14:08:32	0	0	5fb70808c7c7bb1d76c2b9d4	2	1	DL_test	15	DL_test	35			0		ka	1	837	6	4	antiphase_hc_sio.wav	1	6	3	noise_calib_stim_LEFT.wav	1	21	blb_dichoticlistening_ka-ga.mp3	ka	ga	1	left
6.6.1	win	2023-07-07	14:08:32	0	0	5fb70808c7c7bb1d76c2b9d4	2	1	DL_test	15	DL_test	36			0		pa	1	810	6	4	antiphase_hc_sio.wav	1	6	3	noise_calib_stim_LEFT.wav	1	25	blb_dichoticlistening_pa-ba.mp3	pa	ba	1	left
6.6.1	win	2023-07-07	14:08:32	0	0	5fb70808c7c7bb1d76c2b9d4	2	1	DL_test	16	DL_test	1			0		ka	1	902	6	4	antiphase_hc_sio.wav	1	6	3	noise_calib_stim_LEFT.wav	1	23	blb_dichoticlistening_ka-pa.mp3	ka	pa	1	left
6.6.1	win	2023-07-07	14:08:32	0	0	5fb70808c7c7bb1d76c2b9d4	2	1	DL_test	16	DL_test	2			0		da	1	925	6	4	antiphase_hc_sio.wav	1	6	3	noise_calib_stim_LEFT.wav	1	9	blb_dichoticlistening_da-ga.mp3	da	ga	1	left
6.6.1	win	2023-07-07	14:08:32	0	0	5fb70808c7c7bb1d76c2b9d4	2	1	DL_test	16	DL_test	3			0		ga	1	639	6	4	antiphase_hc_sio.wav	1	6	3	noise_calib_stim_LEFT.wav	1	13	blb_dichoticlistening_ga-ba.mp3	ga	ba	1	left
6.6.1	win	2023-07-07	14:08:32	0	0	5fb70808c7c7bb1d76c2b9d4	2	1	DL_test	16	DL_test	4			0		ga	1	841	6	4	antiphase_hc_sio.wav	1	6	3	noise_calib_stim_LEFT.wav	1	16	blb_dichoticlistening_ga-ka.mp3	ga	ka	1	left
6.6.1	win	2023-07-07	14:08:32	0	0	5fb70808c7c7bb1d76c2b9d4	2	1	DL_test	16	DL_test	5			0		da	1	777	6	4	antiphase_hc_sio.wav	1	6	3	noise_calib_stim_LEFT.wav	1	8	blb_dichoticlistening_da-da.mp3	da	da	0	left
6.6.1	win	2023-07-07	14:08:32	0	0	5fb70808c7c7bb1d76c2b9d4	2	1	DL_test	16	DL_test	6			0		ta	1	1110	6	4	antiphase_hc_sio.wav	1	6	3	noise_calib_stim_LEFT.wav	1	35	blb_dichoticlistening_ta-pa.mp3	ta	pa	1	left
6.6.1	win	2023-07-07	14:08:32	0	0	5fb70808c7c7bb1d76c2b9d4	2	1	DL_test	16	DL_test	7			0		da	1	1235	6	4	antiphase_hc_sio.wav	1	6	3	noise_calib_stim_LEFT.wav	1	12	blb_dichoticlistening_da-ta.mp3	da	ta	1	left
6.6.1	win	2023-07-07	14:08:32	0	0	5fb70808c7c7bb1d76c2b9d4	2	1	DL_test	16	DL_test	8			0		ta	1	1270	6	4	antiphase_hc_sio.wav	1	6	3	noise_calib_stim_LEFT.wav	1	33	blb_dichoticlistening_ta-ga.mp3	ta	ga	1	left
6.6.1	win	2023-07-07	14:08:32	0	0	5fb70808c7c7bb1d76c2b9d4	2	1	DL_test	16	DL_test	9			0		ba	1	808	6	4	antiphase_hc_sio.wav	1	6	3	noise_calib_stim_LEFT.wav	1	6	blb_dichoticlistening_ba-ta.mp3	ba	ta	1	left
6.6.1	win	2023-07-07	14:08:32	0	0	5fb70808c7c7bb1d76c2b9d4	2	1	DL_test	16	DL_test	10			0		ba	1	512	6	4	antiphase_hc_sio.wav	1	6	3	noise_calib_stim_LEFT.wav	1	1	blb_dichoticlistening_ba-ba.mp3	ba	ba	0	left
6.6.1	win	2023-07-07	14:08:32	0	0	5fb70808c7c7bb1d76c2b9d4	2	1	DL_test	16	DL_test	11			0		ka	1	1040	6	4	antiphase_hc_sio.wav	1	6	3	noise_calib_stim_LEFT.wav	1	22	blb_dichoticlistening_ka-ka.mp3	ka	ka	0	left
6.6.1	win	2023-07-07	14:08:32	0	0	5fb70808c7c7bb1d76c2b9d4	2	1	DL_test	16	DL_test	12			0		ba	1	1320	6	4	antiphase_hc_sio.wav	1	6	3	noise_calib_stim_LEFT.wav	1	4	blb_dichoticlistening_ba-ka.mp3	ba	ka	1	left
6.6.1	win	2023-07-07	14:08:32	0	0	5fb70808c7c7bb1d76c2b9d4	2	1	DL_test	16	DL_test	13			0		da	1	845	6	4	antiphase_hc_sio.wav	1	6	3	noise_calib_stim_LEFT.wav	1	7	blb_dichoticlistening_da-ba.mp3	da	ba	1	left
6.6.1	win	2023-07-07	14:08:32	0	0	5fb70808c7c7bb1d76c2b9d4	2	1	DL_test	16	DL_test	14			0		ba	1	765	6	4	antiphase_hc_sio.wav	1	6	3	noise_calib_stim_LEFT.wav	1	3	blb_dichoticlistening_ba-ga.mp3	ba	ga	1	left
6.6.1	win	2023-07-07	14:08:32	0	0	5fb70808c7c7bb1d76c2b9d4	2	1	DL_test	16	DL_test	15			0		ga	1	744	6	4	antiphase_hc_sio.wav	1	6	3	noise_calib_stim_LEFT.wav	1	17	blb_dichoticlistening_ga-pa.mp3	ga	pa	1	left
6.6.1	win	2023-07-07	14:08:32	0	0	5fb70808c7c7bb1d76c2b9d4	2	1	DL_test	16	DL_test	16			0		ta	1	1908	6	4	antiphase_hc_sio.wav	1	6	3	noise_calib_stim_LEFT.wav	1	34	blb_dichoticlistening_ta-ka.mp3	ta	ka	1	left
6.6.1	win	2023-07-07	14:08:32	0	0	5fb70808c7c7bb1d76c2b9d4	2	1	DL_test	16	DL_test	17			0		ta	1	1171	6	4	antiphase_hc_sio.wav	1	6	3	noise_calib_stim_LEFT.wav	1	32	blb_dichoticlistening_ta-da.mp3	ta	da	1	left
6.6.1	win	2023-07-07	14:08:32	0	0	5fb70808c7c7bb1d76c2b9d4	2	1	DL_test	16	DL_test	18			0		da	1	1136	6	4	antiphase_hc_sio.wav	1	6	3	noise_calib_stim_LEFT.wav	1	11	blb_dichoticlistening_da-pa.mp3	da	pa	1	left
6.6.1	win	2023-07-07	14:08:32	0	0	5fb70808c7c7bb1d76c2b9d4	2	1	DL_test	16	DL_test	19			0		ga	1	975	6	4	antiphase_hc_sio.wav	1	6	3	noise_calib_stim_LEFT.wav	1	18	blb_dichoticlistening_ga-ta.mp3	ga	ta	1	left
6.6.1	win	2023-07-07	14:08:32	0	0	5fb70808c7c7bb1d76c2b9d4	2	1	DL_test	16	DL_test	20			0		ta	1	1469	6	4	antiphase_hc_sio.wav	1	6	3	noise_calib_stim_LEFT.wav	1	31	blb_dichoticlistening_ta-ba.mp3	ta	ba	1	left
6.6.1	win	2023-07-07	14:08:32	0	0	5fb70808c7c7bb1d76c2b9d4	2	1	DL_test	16	DL_test	21			0		pa	1	1544	6	4	antiphase_hc_sio.wav	1	6	3	noise_calib_stim_LEFT.wav	1	29	blb_dichoticlistening_pa-pa.mp3	pa	pa	0	left
6.6.1	win	2023-07-07	14:08:32	0	0	5fb70808c7c7bb1d76c2b9d4	2	1	DL_test	16	DL_test	22			0		ba	1	1810	6	4	antiphase_hc_sio.wav	1	6	3	noise_calib_stim_LEFT.wav	1	2	blb_dichoticlistening_ba-da.mp3	ba	da	1	left
6.6.1	win	2023-07-07	14:08:32	0	0	5fb70808c7c7bb1d76c2b9d4	2	1	DL_test	16	DL_test	23			0		ta	1	1238	6	4	antiphase_hc_sio.wav	1	6	3	noise_calib_stim_LEFT.wav	1	36	blb_dichoticlistening_ta-ta.mp3	ta	ta	0	left
6.6.1	win	2023-07-07	14:08:32	0	0	5fb70808c7c7bb1d76c2b9d4	2	1	DL_test	16	DL_test	24			0		ba	1	2099	6	4	antiphase_hc_sio.wav	1	6	3	noise_calib_stim_LEFT.wav	1	5	blb_dichoticlistening_ba-pa.mp3	ba	pa	1	left
6.6.1	win	2023-07-07	14:08:32	0	0	5fb70808c7c7bb1d76c2b9d4	2	1	DL_test	16	DL_test	25			0		pa	1	1475	6	4	antiphase_hc_sio.wav	1	6	3	noise_calib_stim_LEFT.wav	1	26	blb_dichoticlistening_pa-da.mp3	pa	da	1	left
6.6.1	win	2023-07-07	14:08:32	0	0	5fb70808c7c7bb1d76c2b9d4	2	1	DL_test	16	DL_test	26			0		pa	1	994	6	4	antiphase_hc_sio.wav	1	6	3	noise_calib_stim_LEFT.wav	1	25	blb_dichoticlistening_pa-ba.mp3	pa	ba	1	left
6.6.1	win	2023-07-07	14:08:32	0	0	5fb70808c7c7bb1d76c2b9d4	2	1	DL_test	16	DL_test	27			0		pa	1	513	6	4	antiphase_hc_sio.wav	1	6	3	noise_calib_stim_LEFT.wav	1	27	blb_dichoticlistening_pa-ga.mp3	pa	ga	1	left
6.6.1	win	2023-07-07	14:08:32	0	0	5fb70808c7c7bb1d76c2b9d4	2	1	DL_test	16	DL_test	28			0		ga	1	1443	6	4	antiphase_hc_sio.wav	1	6	3	noise_calib_stim_LEFT.wav	1	15	blb_dichoticlistening_ga-ga.mp3	ga	ga	0	left
6.6.1	win	2023-07-07	14:08:32	0	0	5fb70808c7c7bb1d76c2b9d4	2	1	DL_test	16	DL_test	29			0		ka	1	992	6	4	antiphase_hc_sio.wav	1	6	3	noise_calib_stim_LEFT.wav	1	21	blb_dichoticlistening_ka-ga.mp3	ka	ga	1	left
6.6.1	win	2023-07-07	14:08:32	0	0	5fb70808c7c7bb1d76c2b9d4	2	1	DL_test	16	DL_test	30			0		ka	1	509	6	4	antiphase_hc_sio.wav	1	6	3	noise_calib_stim_LEFT.wav	1	20	blb_dichoticlistening_ka-da.mp3	ka	da	1	left
6.6.1	win	2023-07-07	14:08:32	0	0	5fb70808c7c7bb1d76c2b9d4	2	1	DL_test	16	DL_test	31			0		pa	1	664	6	4	antiphase_hc_sio.wav	1	6	3	noise_calib_stim_LEFT.wav	1	30	blb_dichoticlistening_pa-ta.mp3	pa	ta	1	left
6.6.1	win	2023-07-07	14:08:32	0	0	5fb70808c7c7bb1d76c2b9d4	2	1	DL_test	16	DL_test	32			0		ga	1	1116	6	4	antiphase_hc_sio.wav	1	6	3	noise_calib_stim_LEFT.wav	1	14	blb_dichoticlistening_ga-da.mp3	ga	da	1	left
6.6.1	win	2023-07-07	14:08:32	0	0	5fb70808c7c7bb1d76c2b9d4	2	1	DL_test	16	DL_test	33			0		da	1	767	6	4	antiphase_hc_sio.wav	1	6	3	noise_calib_stim_LEFT.wav	1	10	blb_dichoticlistening_da-ka.mp3	da	ka	1	left
6.6.1	win	2023-07-07	14:08:32	0	0	5fb70808c7c7bb1d76c2b9d4	2	1	DL_test	16	DL_test	34			0		pa	1	1182	6	4	antiphase_hc_sio.wav	1	6	3	noise_calib_stim_LEFT.wav	1	28	blb_dichoticlistening_pa-ka.mp3	pa	ka	1	left
6.6.1	win	2023-07-07	14:08:32	0	0	5fb70808c7c7bb1d76c2b9d4	2	1	DL_test	16	DL_test	35			0		ka	1	732	6	4	antiphase_hc_sio.wav	1	6	3	noise_calib_stim_LEFT.wav	1	19	blb_dichoticlistening_ka-ba.mp3	ka	ba	1	left
6.6.1	win	2023-07-07	14:08:32	0	0	5fb70808c7c7bb1d76c2b9d4	2	1	DL_test	16	DL_test	36			0		ka	1	419	6	4	antiphase_hc_sio.wav	1	6	3	noise_calib_stim_LEFT.wav	1	24	blb_dichoticlistening_ka-ta.mp3	ka	ta	1	left
6.6.1	win	2023-07-07	14:08:32	14:19:28	649502	5fb70808c7c7bb1d76c2b9d4	2	1	practice_z	22	practice_z	1	stimuli_distractor_diamondtriangles.svg	stimuli_distractor_diamondtriangles.svg	13	no	0	1	2000	6	4	antiphase_hc_sio.wav	1	6	3	noise_calib_stim_LEFT.wav	1	24	blb_dichoticlistening_ka-ta.mp3	ka	ta	1	left
6.6.1	win	2023-07-07	14:08:32	14:19:28	649502	5fb70808c7c7bb1d76c2b9d4	2	1	practice_z	22	advance_on_keypress_ZEE	2	stimuli_distractor_diamondtriangles.svg	stimuli_distractor_diamondtriangles.svg	13	no	57	0	2337	6	4	antiphase_hc_sio.wav	1	6	3	noise_calib_stim_LEFT.wav	1	24	blb_dichoticlistening_ka-ta.mp3	ka	ta	1	left
6.6.1	win	2023-07-07	14:08:32	14:19:34	654842	5fb70808c7c7bb1d76c2b9d4	2	1	practice_z	22	practice_z	3	stimuli_target_diamondsquares.svg	stimuli_distractor_trianglediamonds.svg	6	yes	44	1	1361	6	4	antiphase_hc_sio.wav	1	6	3	noise_calib_stim_LEFT.wav	1	24	blb_dichoticlistening_ka-ta.mp3	ka	ta	1	left
6.6.1	win	2023-07-07	14:08:32	14:19:34	654842	5fb70808c7c7bb1d76c2b9d4	2	1	practice_z	22	advance_on_keypress_ZEE	4	stimuli_target_diamondsquares.svg	stimuli_distractor_trianglediamonds.svg	6	yes	57	0	625	6	4	antiphase_hc_sio.wav	1	6	3	noise_calib_stim_LEFT.wav	1	24	blb_dichoticlistening_ka-ta.mp3	ka	ta	1	left
6.6.1	win	2023-07-07	14:08:32	14:19:37	658308	5fb70808c7c7bb1d76c2b9d4	2	1	practice_z	22	practice_z	5	stimuli_target_squarediamonds.svg	stimuli_distractor_diamondtriangles.svg	2	yes	44	1	1197	6	4	antiphase_hc_sio.wav	1	6	3	noise_calib_stim_LEFT.wav	1	24	blb_dichoticlistening_ka-ta.mp3	ka	ta	1	left
6.6.1	win	2023-07-07	14:08:32	14:19:37	658308	5fb70808c7c7bb1d76c2b9d4	2	1	practice_z	22	advance_on_keypress_ZEE	6	stimuli_target_squarediamonds.svg	stimuli_distractor_diamondtriangles.svg	2	yes	57	0	763	6	4	antiphase_hc_sio.wav	1	6	3	noise_calib_stim_LEFT.wav	1	24	blb_dichoticlistening_ka-ta.mp3	ka	ta	1	left
6.6.1	win	2023-07-07	14:08:32	14:19:41	661583	5fb70808c7c7bb1d76c2b9d4	2	1	practice_z	22	practice_z	7	stimuli_distractor_diamondtriangles.svg	stimuli_target_diamondrectangles.svg	8	yes	44	1	858	6	4	antiphase_hc_sio.wav	1	6	3	noise_calib_stim_LEFT.wav	1	24	blb_dichoticlistening_ka-ta.mp3	ka	ta	1	left
6.6.1	win	2023-07-07	14:08:32	14:19:41	661583	5fb70808c7c7bb1d76c2b9d4	2	1	practice_z	22	advance_on_keypress_ZEE	8	stimuli_distractor_diamondtriangles.svg	stimuli_target_diamondrectangles.svg	8	yes	57	0	438	6	4	antiphase_hc_sio.wav	1	6	3	noise_calib_stim_LEFT.wav	1	24	blb_dichoticlistening_ka-ta.mp3	ka	ta	1	left
6.6.1	win	2023-07-07	14:08:32	14:19:44	664618	5fb70808c7c7bb1d76c2b9d4	2	1	practice_z	22	practice_z	9	stimuli_distractor_diamondtriangles.svg	stimuli_target_rectangletriangles.svg	7	yes	44	1	962	6	4	antiphase_hc_sio.wav	1	6	3	noise_calib_stim_LEFT.wav	1	24	blb_dichoticlistening_ka-ta.mp3	ka	ta	1	left
6.6.1	win	2023-07-07	14:08:32	14:19:44	664618	5fb70808c7c7bb1d76c2b9d4	2	1	practice_z	22	advance_on_keypress_ZEE	10	stimuli_distractor_diamondtriangles.svg	stimuli_target_rectangletriangles.svg	7	yes	57	0	401	6	4	antiphase_hc_sio.wav	1	6	3	noise_calib_stim_LEFT.wav	1	24	blb_dichoticlistening_ka-ta.mp3	ka	ta	1	left
6.6.1	win	2023-07-07	14:08:32	14:19:46	667525	5fb70808c7c7bb1d76c2b9d4	2	1	practice_z	22	practice_z	11	stimuli_distractor_trianglediamonds.svg	stimuli_target_diamondrectangles.svg	12	yes	44	1	854	6	4	antiphase_hc_sio.wav	1	6	3	noise_calib_stim_LEFT.wav	1	24	blb_dichoticlistening_ka-ta.mp3	ka	ta	1	left
6.6.1	win	2023-07-07	14:08:32	14:19:46	667525	5fb70808c7c7bb1d76c2b9d4	2	1	practice_z	22	advance_on_keypress_ZEE	12	stimuli_distractor_trianglediamonds.svg	stimuli_target_diamondrectangles.svg	12	yes	57	0	404	6	4	antiphase_hc_sio.wav	1	6	3	noise_calib_stim_LEFT.wav	1	24	blb_dichoticlistening_ka-ta.mp3	ka	ta	1	left
6.6.1	win	2023-07-07	14:08:32	14:19:51	671568	5fb70808c7c7bb1d76c2b9d4	2	1	practice_z	22	practice_z	13	stimuli_distractor_trianglediamonds.svg	stimuli_distractor_diamondtriangles.svg	16	no	0	1	2000	6	4	antiphase_hc_sio.wav	1	6	3	noise_calib_stim_LEFT.wav	1	24	blb_dichoticlistening_ka-ta.mp3	ka	ta	1	left
6.6.1	win	2023-07-07	14:08:32	14:19:51	671568	5fb70808c7c7bb1d76c2b9d4	2	1	practice_z	22	advance_on_keypress_ZEE	14	stimuli_distractor_trianglediamonds.svg	stimuli_distractor_diamondtriangles.svg	16	no	57	0	335	6	4	antiphase_hc_sio.wav	1	6	3	noise_calib_stim_LEFT.wav	1	24	blb_dichoticlistening_ka-ta.mp3	ka	ta	1	left
6.6.1	win	2023-07-07	14:08:32	14:19:53	674378	5fb70808c7c7bb1d76c2b9d4	2	1	practice_z	22	practice_z	15	stimuli_target_rectanglediamonds.svg	stimuli_distractor_trianglediamonds.svg	4	yes	44	1	829	6	4	antiphase_hc_sio.wav	1	6	3	noise_calib_stim_LEFT.wav	1	24	blb_dichoticlistening_ka-ta.mp3	ka	ta	1	left
6.6.1	win	2023-07-07	14:08:32	14:19:53	674378	5fb70808c7c7bb1d76c2b9d4	2	1	practice_z	22	advance_on_keypress_ZEE	16	stimuli_target_rectanglediamonds.svg	stimuli_distractor_trianglediamonds.svg	4	yes	57	0	435	6	4	antiphase_hc_sio.wav	1	6	3	noise_calib_stim_LEFT.wav	1	24	blb_dichoticlistening_ka-ta.mp3	ka	ta	1	left
6.6.1	win	2023-07-07	14:08:32	14:19:56	677479	5fb70808c7c7bb1d76c2b9d4	2	1	practice_z	22	practice_z	17	stimuli_distractor_diamondtriangles.svg	stimuli_target_trianglerectangles.svg	9	yes	44	1	1014	6	4	antiphase_hc_sio.wav	1	6	3	noise_calib_stim_LEFT.wav	1	24	blb_dichoticlistening_ka-ta.mp3	ka	ta	1	left
6.6.1	win	2023-07-07	14:08:32	14:19:56	677479	5fb70808c7c7bb1d76c2b9d4	2	1	practice_z	22	advance_on_keypress_ZEE	18	stimuli_distractor_diamondtriangles.svg	stimuli_target_trianglerectangles.svg	9	yes	57	0	421	6	4	antiphase_hc_sio.wav	1	6	3	noise_calib_stim_LEFT.wav	1	24	blb_dichoticlistening_ka-ta.mp3	ka	ta	1	left
6.6.1	win	2023-07-07	14:08:32	14:20:00	681544	5fb70808c7c7bb1d76c2b9d4	2	1	practice_z	22	practice_z	19	stimuli_distractor_trianglediamonds.svg	stimuli_distractor_trianglediamonds.svg	15	no	0	1	2000	6	4	antiphase_hc_sio.wav	1	6	3	noise_calib_stim_LEFT.wav	1	24	blb_dichoticlistening_ka-ta.mp3	ka	ta	1	left
6.6.1	win	2023-07-07	14:08:32	14:20:00	681544	5fb70808c7c7bb1d76c2b9d4	2	1	practice_z	22	advance_on_keypress_ZEE	20	stimuli_distractor_trianglediamonds.svg	stimuli_distractor_trianglediamonds.svg	15	no	57	0	271	6	4	antiphase_hc_sio.wav	1	6	3	noise_calib_stim_LEFT.wav	1	24	blb_dichoticlistening_ka-ta.mp3	ka	ta	1	left
6.6.1	win	2023-07-07	14:08:32	14:20:03	684099	5fb70808c7c7bb1d76c2b9d4	2	1	practice_z	22	practice_z	21	stimuli_target_squarediamonds.svg	stimuli_distractor_trianglediamonds.svg	5	yes	44	1	641	6	4	antiphase_hc_sio.wav	1	6	3	noise_calib_stim_LEFT.wav	1	24	blb_dichoticlistening_ka-ta.mp3	ka	ta	1	left
6.6.1	win	2023-07-07	14:08:32	14:20:03	684099	5fb70808c7c7bb1d76c2b9d4	2	1	practice_z	22	advance_on_keypress_ZEE	22	stimuli_target_squarediamonds.svg	stimuli_distractor_trianglediamonds.svg	5	yes	57	0	1133	6	4	antiphase_hc_sio.wav	1	6	3	noise_calib_stim_LEFT.wav	1	24	blb_dichoticlistening_ka-ta.mp3	ka	ta	1	left
6.6.1	win	2023-07-07	14:08:32	14:20:06	687470	5fb70808c7c7bb1d76c2b9d4	2	1	practice_z	22	practice_z	23	stimuli_target_rectanglediamonds.svg	stimuli_distractor_diamondtriangles.svg	1	yes	44	1	597	6	4	antiphase_hc_sio.wav	1	6	3	noise_calib_stim_LEFT.wav	1	24	blb_dichoticlistening_ka-ta.mp3	ka	ta	1	left
6.6.1	win	2023-07-07	14:08:32	14:20:06	687470	5fb70808c7c7bb1d76c2b9d4	2	1	practice_z	22	advance_on_keypress_ZEE	24	stimuli_target_rectanglediamonds.svg	stimuli_distractor_diamondtriangles.svg	1	yes	57	0	317	6	4	antiphase_hc_sio.wav	1	6	3	noise_calib_stim_LEFT.wav	1	24	blb_dichoticlistening_ka-ta.mp3	ka	ta	1	left
6.6.1	win	2023-07-07	14:08:32	14:20:10	690609	5fb70808c7c7bb1d76c2b9d4	2	1	practice_z	22	practice_z	25	stimuli_target_diamondsquares.svg	stimuli_distractor_diamondtriangles.svg	3	yes	44	1	1168	6	4	antiphase_hc_sio.wav	1	6	3	noise_calib_stim_LEFT.wav	1	24	blb_dichoticlistening_ka-ta.mp3	ka	ta	1	left
6.6.1	win	2023-07-07	14:08:32	14:20:10	690609	5fb70808c7c7bb1d76c2b9d4	2	1	practice_z	22	advance_on_keypress_ZEE	26	stimuli_target_diamondsquares.svg	stimuli_distractor_diamondtriangles.svg	3	yes	57	0	428	6	4	antiphase_hc_sio.wav	1	6	3	noise_calib_stim_LEFT.wav	1	24	blb_dichoticlistening_ka-ta.mp3	ka	ta	1	left
6.6.1	win	2023-07-07	14:08:32	14:20:12	693551	5fb70808c7c7bb1d76c2b9d4	2	1	practice_z	22	practice_z	27	stimuli_distractor_trianglediamonds.svg	stimuli_target_rectanglediamonds.svg	10	yes	44	1	879	6	4	antiphase_hc_sio.wav	1	6	3	noise_calib_stim_LEFT.wav	1	24	blb_dichoticlistening_ka-ta.mp3	ka	ta	1	left
6.6.1	win	2023-07-07	14:08:32	14:20:12	693551	5fb70808c7c7bb1d76c2b9d4	2	1	practice_z	22	advance_on_keypress_ZEE	28	stimuli_distractor_trianglediamonds.svg	stimuli_target_rectanglediamonds.svg	10	yes	57	0	260	6	4	antiphase_hc_sio.wav	1	6	3	noise_calib_stim_LEFT.wav	1	24	blb_dichoticlistening_ka-ta.mp3	ka	ta	1	left
6.6.1	win	2023-07-07	14:08:32	14:20:16	697450	5fb70808c7c7bb1d76c2b9d4	2	1	practice_z	22	practice_z	29	stimuli_distractor_diamondtriangles.svg	stimuli_distractor_trianglediamonds.svg	14	no	0	1	2000	6	4	antiphase_hc_sio.wav	1	6	3	noise_calib_stim_LEFT.wav	1	24	blb_dichoticlistening_ka-ta.mp3	ka	ta	1	left
6.6.1	win	2023-07-07	14:08:32	14:20:16	697450	5fb70808c7c7bb1d76c2b9d4	2	1	practice_z	22	advance_on_keypress_ZEE	30	stimuli_distractor_diamondtriangles.svg	stimuli_distractor_trianglediamonds.svg	14	no	57	0	843	6	4	antiphase_hc_sio.wav	1	6	3	noise_calib_stim_LEFT.wav	1	24	blb_dichoticlistening_ka-ta.mp3	ka	ta	1	left
6.6.1	win	2023-07-07	14:08:32	14:20:20	700666	5fb70808c7c7bb1d76c2b9d4	2	1	practice_z	22	practice_z	31	stimuli_distractor_trianglediamonds.svg	stimuli_target_squarediamonds.svg	11	yes	44	1	735	6	4	antiphase_hc_sio.wav	1	6	3	noise_calib_stim_LEFT.wav	1	24	blb_dichoticlistening_ka-ta.mp3	ka	ta	1	left
6.6.1	win	2023-07-07	14:08:32	14:20:20	700666	5fb70808c7c7bb1d76c2b9d4	2	1	practice_z	22	advance_on_keypress_ZEE	32	stimuli_distractor_trianglediamonds.svg	stimuli_target_squarediamonds.svg	11	yes	57	0	744	6	4	antiphase_hc_sio.wav	1	6	3	noise_calib_stim_LEFT.wav	1	24	blb_dichoticlistening_ka-ta.mp3	ka	ta	1	left
6.6.1	win	2023-07-07	14:08:32	14:20:29	709705	5fb70808c7c7bb1d76c2b9d4	2	1	main_z	24	main_z	1	stimuli_target_squaretriangles.svg	stimuli_distractor_diamondtriangles.svg	7	yes	44	1	850	6	4	antiphase_hc_sio.wav	1	6	3	noise_calib_stim_LEFT.wav	1	24	blb_dichoticlistening_ka-ta.mp3	ka	ta	1	left
6.6.1	win	2023-07-07	14:08:32	14:20:29	709705	5fb70808c7c7bb1d76c2b9d4	2	1	main_z	24	advance_on_keypress_ZEE	2	stimuli_target_squaretriangles.svg	stimuli_distractor_diamondtriangles.svg	7	yes	57	0	1981	6	4	antiphase_hc_sio.wav	1	6	3	noise_calib_stim_LEFT.wav	1	24	blb_dichoticlistening_ka-ta.mp3	ka	ta	1	left
6.6.1	win	2023-07-07	14:08:32	14:20:32	713090	5fb70808c7c7bb1d76c2b9d4	2	1	main_z	24	main_z	3	stimuli_target_rectangletriangles.svg	stimuli_distractor_trianglediamonds.svg	1	yes	44	1	756	6	4	antiphase_hc_sio.wav	1	6	3	noise_calib_stim_LEFT.wav	1	24	blb_dichoticlistening_ka-ta.mp3	ka	ta	1	left
6.6.1	win	2023-07-07	14:08:32	14:20:32	713090	5fb70808c7c7bb1d76c2b9d4	2	1	main_z	24	advance_on_keypress_ZEE	4	stimuli_target_rectangletriangles.svg	stimuli_distractor_trianglediamonds.svg	1	yes	57	0	4710	6	4	antiphase_hc_sio.wav	1	6	3	noise_calib_stim_LEFT.wav	1	24	blb_dichoticlistening_ka-ta.mp3	ka	ta	1	left
6.6.1	win	2023-07-07	14:08:32	14:20:39	720430	5fb70808c7c7bb1d76c2b9d4	2	1	main_z	24	main_z	5	stimuli_distractor_diamondtriangles.svg	stimuli_distractor_trianglediamonds.svg	38	no	0	1	2000	6	4	antiphase_hc_sio.wav	1	6	3	noise_calib_stim_LEFT.wav	1	24	blb_dichoticlistening_ka-ta.mp3	ka	ta	1	left
6.6.1	win	2023-07-07	14:08:32	14:20:39	720430	5fb70808c7c7bb1d76c2b9d4	2	1	main_z	24	advance_on_keypress_ZEE	6	stimuli_distractor_diamondtriangles.svg	stimuli_distractor_trianglediamonds.svg	38	no	57	0	928	6	4	antiphase_hc_sio.wav	1	6	3	noise_calib_stim_LEFT.wav	1	24	blb_dichoticlistening_ka-ta.mp3	ka	ta	1	left
6.6.1	win	2023-07-07	14:08:32	14:20:42	722963	5fb70808c7c7bb1d76c2b9d4	2	1	main_z	24	main_z	7	stimuli_target_diamondsquares.svg	stimuli_distractor_trianglediamonds.svg	20	yes	44	1	969	6	4	antiphase_hc_sio.wav	1	6	3	noise_calib_stim_LEFT.wav	1	24	blb_dichoticlistening_ka-ta.mp3	ka	ta	1	left
6.6.1	win	2023-07-07	14:08:32	14:20:42	722963	5fb70808c7c7bb1d76c2b9d4	2	1	main_z	24	advance_on_keypress_ZEE	8	stimuli_target_diamondsquares.svg	stimuli_distractor_trianglediamonds.svg	20	yes	57	0	1008	6	4	antiphase_hc_sio.wav	1	6	3	noise_calib_stim_LEFT.wav	1	24	blb_dichoticlistening_ka-ta.mp3	ka	ta	1	left
6.6.1	win	2023-07-07	14:08:32	14:20:44	725454	5fb70808c7c7bb1d76c2b9d4	2	1	main_z	24	main_z	9	stimuli_distractor_trianglediamonds.svg	stimuli_target_squarediamonds.svg	12	yes	44	1	846	6	4	antiphase_hc_sio.wav	1	6	3	noise_calib_stim_LEFT.wav	1	24	blb_dichoticlistening_ka-ta.mp3	ka	ta	1	left
6.6.1	win	2023-07-07	14:08:32	14:20:44	725454	5fb70808c7c7bb1d76c2b9d4	2	1	main_z	24	advance_on_keypress_ZEE	10	stimuli_distractor_trianglediamonds.svg	stimuli_target_squarediamonds.svg	12	yes	57	0	907	6	4	antiphase_hc_sio.wav	1	6	3	noise_calib_stim_LEFT.wav	1	24	blb_dichoticlistening_ka-ta.mp3	ka	ta	1	left
6.6.1	win	2023-07-07	14:08:32	14:20:47	727730	5fb70808c7c7bb1d76c2b9d4	2	1	main_z	24	main_z	11	stimuli_target_rectanglediamonds.svg	stimuli_distractor_diamondtriangles.svg	6	yes	44	1	740	6	4	antiphase_hc_sio.wav	1	6	3	noise_calib_stim_LEFT.wav	1	24	blb_dichoticlistening_ka-ta.mp3	ka	ta	1	left
6.6.1	win	2023-07-07	14:08:32	14:20:47	727730	5fb70808c7c7bb1d76c2b9d4	2	1	main_z	24	advance_on_keypress_ZEE	12	stimuli_target_rectanglediamonds.svg	stimuli_distractor_diamondtriangles.svg	6	yes	57	0	918	6	4	antiphase_hc_sio.wav	1	6	3	noise_calib_stim_LEFT.wav	1	24	blb_dichoticlistening_ka-ta.mp3	ka	ta	1	left
6.6.1	win	2023-07-07	14:08:32	14:20:49	730119	5fb70808c7c7bb1d76c2b9d4	2	1	main_z	24	main_z	13	stimuli_target_squaretriangles.svg	stimuli_distractor_trianglediamonds.svg	3	yes	44	1	831	6	4	antiphase_hc_sio.wav	1	6	3	noise_calib_stim_LEFT.wav	1	24	blb_dichoticlistening_ka-ta.mp3	ka	ta	1	left
6.6.1	win	2023-07-07	14:08:32	14:20:49	730119	5fb70808c7c7bb1d76c2b9d4	2	1	main_z	24	advance_on_keypress_ZEE	14	stimuli_target_squaretriangles.svg	stimuli_distractor_trianglediamonds.svg	3	yes	57	0	660	6	4	antiphase_hc_sio.wav	1	6	3	noise_calib_stim_LEFT.wav	1	24	blb_dichoticlistening_ka-ta.mp3	ka	ta	1	left
6.6.1	win	2023-07-07	14:08:32	14:20:51	732148	5fb70808c7c7bb1d76c2b9d4	2	1	main_z	24	main_z	15	stimuli_target_squarediamonds.svg	stimuli_distractor_diamondtriangles.svg	8	yes	44	1	727	6	4	antiphase_hc_sio.wav	1	6	3	noise_calib_stim_LEFT.wav	1	24	blb_dichoticlistening_ka-ta.mp3	ka	ta	1	left
6.6.1	win	2023-07-07	14:08:32	14:20:51	732148	5fb70808c7c7bb1d76c2b9d4	2	1	main_z	24	advance_on_keypress_ZEE	16	stimuli_target_squarediamonds.svg	stimuli_distractor_diamondtriangles.svg	8	yes	57	0	722	6	4	antiphase_hc_sio.wav	1	6	3	noise_calib_stim_LEFT.wav	1	24	blb_dichoticlistening_ka-ta.mp3	ka	ta	1	left
6.6.1	win	2023-07-07	14:08:32	14:20:54	735503	5fb70808c7c7bb1d76c2b9d4	2	1	main_z	24	main_z	17	stimuli_target_trianglerectangles.svg	stimuli_distractor_diamondtriangles.svg	21	yes	0	0	2000	6	4	antiphase_hc_sio.wav	1	6	3	noise_calib_stim_LEFT.wav	1	24	blb_dichoticlistening_ka-ta.mp3	ka	ta	1	left
6.6.1	win	2023-07-07	14:08:32	14:20:54	735503	5fb70808c7c7bb1d76c2b9d4	2	1	main_z	24	advance_on_keypress_ZEE	18	stimuli_target_trianglerectangles.svg	stimuli_distractor_diamondtriangles.svg	21	yes	57	0	832	6	4	antiphase_hc_sio.wav	1	6	3	noise_calib_stim_LEFT.wav	1	24	blb_dichoticlistening_ka-ta.mp3	ka	ta	1	left
6.6.1	win	2023-07-07	14:08:32	14:20:57	737901	5fb70808c7c7bb1d76c2b9d4	2	1	main_z	24	main_z	19	stimuli_distractor_trianglediamonds.svg	stimuli_target_rectanglediamonds.svg	10	yes	44	1	916	6	4	antiphase_hc_sio.wav	1	6	3	noise_calib_stim_LEFT.wav	1	24	blb_dichoticlistening_ka-ta.mp3	ka	ta	1	left
6.6.1	win	2023-07-07	14:08:32	14:20:57	737901	5fb70808c7c7bb1d76c2b9d4	2	1	main_z	24	advance_on_keypress_ZEE	20	stimuli_distractor_trianglediamonds.svg	stimuli_target_rectanglediamonds.svg	10	yes	57	0	687	6	4	antiphase_hc_sio.wav	1	6	3	noise_calib_stim_LEFT.wav	1	24	blb_dichoticlistening_ka-ta.mp3	ka	ta	1	left
6.6.1	win	2023-07-07	14:08:32	14:20:59	740327	5fb70808c7c7bb1d76c2b9d4	2	1	main_z	24	main_z	21	stimuli_distractor_trianglediamonds.svg	stimuli_target_trianglerectangles.svg	25	yes	44	1	1096	6	4	antiphase_hc_sio.wav	1	6	3	noise_calib_stim_LEFT.wav	1	24	blb_dichoticlistening_ka-ta.mp3	ka	ta	1	left
6.6.1	win	2023-07-07	14:08:32	14:20:59	740327	5fb70808c7c7bb1d76c2b9d4	2	1	main_z	24	advance_on_keypress_ZEE	22	stimuli_distractor_trianglediamonds.svg	stimuli_target_trianglerectangles.svg	25	yes	57	0	692	6	4	antiphase_hc_sio.wav	1	6	3	noise_calib_stim_LEFT.wav	1	24	blb_dichoticlistening_ka-ta.mp3	ka	ta	1	left
6.6.1	win	2023-07-07	14:08:32	14:21:02	742891	5fb70808c7c7bb1d76c2b9d4	2	1	main_z	24	main_z	23	stimuli_distractor_diamondtriangles.svg	stimuli_distractor_trianglediamonds.svg	37	no	44	0	1245	6	4	antiphase_hc_sio.wav	1	6	3	noise_calib_stim_LEFT.wav	1	24	blb_dichoticlistening_ka-ta.mp3	ka	ta	1	left
6.6.1	win	2023-07-07	14:08:32	14:21:02	742891	5fb70808c7c7bb1d76c2b9d4	2	1	main_z	24	advance_on_keypress_ZEE	24	stimuli_distractor_diamondtriangles.svg	stimuli_distractor_trianglediamonds.svg	37	no	57	0	643	6	4	antiphase_hc_sio.wav	1	6	3	noise_calib_stim_LEFT.wav	1	24	blb_dichoticlistening_ka-ta.mp3	ka	ta	1	left
6.6.1	win	2023-07-07	14:08:32	14:21:04	744936	5fb70808c7c7bb1d76c2b9d4	2	1	main_z	24	main_z	25	stimuli_target_squarediamonds.svg	stimuli_distractor_trianglediamonds.svg	4	yes	44	1	775	6	4	antiphase_hc_sio.wav	1	6	3	noise_calib_stim_LEFT.wav	1	24	blb_dichoticlistening_ka-ta.mp3	ka	ta	1	left
6.6.1	win	2023-07-07	14:08:32	14:21:04	744936	5fb70808c7c7bb1d76c2b9d4	2	1	main_z	24	advance_on_keypress_ZEE	26	stimuli_target_squarediamonds.svg	stimuli_distractor_trianglediamonds.svg	4	yes	57	0	416	6	4	antiphase_hc_sio.wav	1	6	3	noise_calib_stim_LEFT.wav	1	24	blb_dichoticlistening_ka-ta.mp3	ka	ta	1	left
6.6.1	win	2023-07-07	14:08:32	14:21:07	747993	5fb70808c7c7bb1d76c2b9d4	2	1	main_z	24	main_z	27	stimuli_target_trianglerectangles.svg	stimuli_distractor_trianglediamonds.svg	17	yes	0	0	2000	6	4	antiphase_hc_sio.wav	1	6	3	noise_calib_stim_LEFT.wav	1	24	blb_dichoticlistening_ka-ta.mp3	ka	ta	1	left
6.6.1	win	2023-07-07	14:08:32	14:21:07	747993	5fb70808c7c7bb1d76c2b9d4	2	1	main_z	24	advance_on_keypress_ZEE	28	stimuli_target_trianglerectangles.svg	stimuli_distractor_trianglediamonds.svg	17	yes	57	0	905	6	4	antiphase_hc_sio.wav	1	6	3	noise_calib_stim_LEFT.wav	1	24	blb_dichoticlistening_ka-ta.mp3	ka	ta	1	left
6.6.1	win	2023-07-07	14:08:32	14:21:09	750462	5fb70808c7c7bb1d76c2b9d4	2	1	main_z	24	main_z	29	stimuli_target_diamondsquares.svg	stimuli_distractor_diamondtriangles.svg	24	yes	44	1	923	6	4	antiphase_hc_sio.wav	1	6	3	noise_calib_stim_LEFT.wav	1	24	blb_dichoticlistening_ka-ta.mp3	ka	ta	1	left
6.6.1	win	2023-07-07	14:08:32	14:21:09	750462	5fb70808c7c7bb1d76c2b9d4	2	1	main_z	24	advance_on_keypress_ZEE	30	stimuli_target_diamondsquares.svg	stimuli_distractor_diamondtriangles.svg	24	yes	57	0	550	6	4	antiphase_hc_sio.wav	1	6	3	noise_calib_stim_LEFT.wav	1	24	blb_dichoticlistening_ka-ta.mp3	ka	ta	1	left
6.6.1	win	2023-07-07	14:08:32	14:21:12	752643	5fb70808c7c7bb1d76c2b9d4	2	1	main_z	24	main_z	31	stimuli_distractor_diamondtriangles.svg	stimuli_target_rectanglediamonds.svg	14	yes	44	1	988	6	4	antiphase_hc_sio.wav	1	6	3	noise_calib_stim_LEFT.wav	1	24	blb_dichoticlistening_ka-ta.mp3	ka	ta	1	left
6.6.1	win	2023-07-07	14:08:32	14:21:12	752643	5fb70808c7c7bb1d76c2b9d4	2	1	main_z	24	advance_on_keypress_ZEE	32	stimuli_distractor_diamondtriangles.svg	stimuli_target_rectanglediamonds.svg	14	yes	57	0	548	6	4	antiphase_hc_sio.wav	1	6	3	noise_calib_stim_LEFT.wav	1	24	blb_dichoticlistening_ka-ta.mp3	ka	ta	1	left
6.6.1	win	2023-07-07	14:08:32	14:21:15	755837	5fb70808c7c7bb1d76c2b9d4	2	1	main_z	24	main_z	33	stimuli_distractor_diamondtriangles.svg	stimuli_distractor_diamondtriangles.svg	39	no	0	1	2000	6	4	antiphase_hc_sio.wav	1	6	3	noise_calib_stim_LEFT.wav	1	24	blb_dichoticlistening_ka-ta.mp3	ka	ta	1	left
6.6.1	win	2023-07-07	14:08:32	14:21:15	755837	5fb70808c7c7bb1d76c2b9d4	2	1	main_z	24	advance_on_keypress_ZEE	34	stimuli_distractor_diamondtriangles.svg	stimuli_distractor_diamondtriangles.svg	39	no	57	0	1033	6	4	antiphase_hc_sio.wav	1	6	3	noise_calib_stim_LEFT.wav	1	24	blb_dichoticlistening_ka-ta.mp3	ka	ta	1	left
6.6.1	win	2023-07-07	14:08:32	14:21:17	758075	5fb70808c7c7bb1d76c2b9d4	2	1	main_z	24	main_z	35	stimuli_distractor_diamondtriangles.svg	stimuli_target_rectangletriangles.svg	13	yes	44	1	557	6	4	antiphase_hc_sio.wav	1	6	3	noise_calib_stim_LEFT.wav	1	24	blb_dichoticlistening_ka-ta.mp3	ka	ta	1	left
6.6.1	win	2023-07-07	14:08:32	14:21:17	758075	5fb70808c7c7bb1d76c2b9d4	2	1	main_z	24	advance_on_keypress_ZEE	36	stimuli_distractor_diamondtriangles.svg	stimuli_target_rectangletriangles.svg	13	yes	57	0	503	6	4	antiphase_hc_sio.wav	1	6	3	noise_calib_stim_LEFT.wav	1	24	blb_dichoticlistening_ka-ta.mp3	ka	ta	1	left
6.6.1	win	2023-07-07	14:08:32	14:21:20	761217	5fb70808c7c7bb1d76c2b9d4	2	1	main_z	24	main_z	37	stimuli_distractor_trianglediamonds.svg	stimuli_distractor_trianglediamonds.svg	34	no	0	1	2000	6	4	antiphase_hc_sio.wav	1	6	3	noise_calib_stim_LEFT.wav	1	24	blb_dichoticlistening_ka-ta.mp3	ka	ta	1	left
6.6.1	win	2023-07-07	14:08:32	14:21:20	761217	5fb70808c7c7bb1d76c2b9d4	2	1	main_z	24	advance_on_keypress_ZEE	38	stimuli_distractor_trianglediamonds.svg	stimuli_distractor_trianglediamonds.svg	34	no	57	0	558	6	4	antiphase_hc_sio.wav	1	6	3	noise_calib_stim_LEFT.wav	1	24	blb_dichoticlistening_ka-ta.mp3	ka	ta	1	left
6.6.1	win	2023-07-07	14:08:32	14:21:22	763012	5fb70808c7c7bb1d76c2b9d4	2	1	main_z	24	main_z	39	stimuli_distractor_diamondtriangles.svg	stimuli_target_squaretriangles.svg	15	yes	44	1	597	6	4	antiphase_hc_sio.wav	1	6	3	noise_calib_stim_LEFT.wav	1	24	blb_dichoticlistening_ka-ta.mp3	ka	ta	1	left
6.6.1	win	2023-07-07	14:08:32	14:21:22	763012	5fb70808c7c7bb1d76c2b9d4	2	1	main_z	24	advance_on_keypress_ZEE	40	stimuli_distractor_diamondtriangles.svg	stimuli_target_squaretriangles.svg	15	yes	57	0	436	6	4	antiphase_hc_sio.wav	1	6	3	noise_calib_stim_LEFT.wav	1	24	blb_dichoticlistening_ka-ta.mp3	ka	ta	1	left
6.6.1	win	2023-07-07	14:08:32	14:21:24	764935	5fb70808c7c7bb1d76c2b9d4	2	1	main_z	24	main_z	41	stimuli_distractor_trianglediamonds.svg	stimuli_target_rectangletriangles.svg	9	yes	44	1	840	6	4	antiphase_hc_sio.wav	1	6	3	noise_calib_stim_LEFT.wav	1	24	blb_dichoticlistening_ka-ta.mp3	ka	ta	1	left
6.6.1	win	2023-07-07	14:08:32	14:21:24	764935	5fb70808c7c7bb1d76c2b9d4	2	1	main_z	24	advance_on_keypress_ZEE	42	stimuli_distractor_trianglediamonds.svg	stimuli_target_rectangletriangles.svg	9	yes	57	0	374	6	4	antiphase_hc_sio.wav	1	6	3	noise_calib_stim_LEFT.wav	1	24	blb_dichoticlistening_ka-ta.mp3	ka	ta	1	left
6.6.1	win	2023-07-07	14:08:32	14:21:26	766916	5fb70808c7c7bb1d76c2b9d4	2	1	main_z	24	main_z	43	stimuli_distractor_diamondtriangles.svg	stimuli_target_trianglerectangles.svg	29	yes	44	1	971	6	4	antiphase_hc_sio.wav	1	6	3	noise_calib_stim_LEFT.wav	1	24	blb_dichoticlistening_ka-ta.mp3	ka	ta	1	left
6.6.1	win	2023-07-07	14:08:32	14:21:26	766916	5fb70808c7c7bb1d76c2b9d4	2	1	main_z	24	advance_on_keypress_ZEE	44	stimuli_distractor_diamondtriangles.svg	stimuli_target_trianglerectangles.svg	29	yes	57	0	445	6	4	antiphase_hc_sio.wav	1	6	3	noise_calib_stim_LEFT.wav	1	24	blb_dichoticlistening_ka-ta.mp3	ka	ta	1	left
6.6.1	win	2023-07-07	14:08:32	14:21:28	769217	5fb70808c7c7bb1d76c2b9d4	2	1	main_z	24	main_z	45	stimuli_target_diamondrectangles.svg	stimuli_distractor_diamondtriangles.svg	23	yes	44	1	1224	6	4	antiphase_hc_sio.wav	1	6	3	noise_calib_stim_LEFT.wav	1	24	blb_dichoticlistening_ka-ta.mp3	ka	ta	1	left
6.6.1	win	2023-07-07	14:08:32	14:21:28	769217	5fb70808c7c7bb1d76c2b9d4	2	1	main_z	24	advance_on_keypress_ZEE	46	stimuli_target_diamondrectangles.svg	stimuli_distractor_diamondtriangles.svg	23	yes	57	0	463	6	4	antiphase_hc_sio.wav	1	6	3	noise_calib_stim_LEFT.wav	1	24	blb_dichoticlistening_ka-ta.mp3	ka	ta	1	left
6.6.1	win	2023-07-07	14:08:32	14:21:30	771007	5fb70808c7c7bb1d76c2b9d4	2	1	main_z	24	main_z	47	stimuli_distractor_trianglediamonds.svg	stimuli_target_squaretriangles.svg	11	yes	44	1	698	6	4	antiphase_hc_sio.wav	1	6	3	noise_calib_stim_LEFT.wav	1	24	blb_dichoticlistening_ka-ta.mp3	ka	ta	1	left
6.6.1	win	2023-07-07	14:08:32	14:21:30	771007	5fb70808c7c7bb1d76c2b9d4	2	1	main_z	24	advance_on_keypress_ZEE	48	stimuli_distractor_trianglediamonds.svg	stimuli_target_squaretriangles.svg	11	yes	57	0	406	6	4	antiphase_hc_sio.wav	1	6	3	noise_calib_stim_LEFT.wav	1	24	blb_dichoticlistening_ka-ta.mp3	ka	ta	1	left
6.6.1	win	2023-07-07	14:08:32	14:21:32	773034	5fb70808c7c7bb1d76c2b9d4	2	1	main_z	24	main_z	49	stimuli_distractor_trianglediamonds.svg	stimuli_target_diamondrectangles.svg	27	yes	44	1	978	6	4	antiphase_hc_sio.wav	1	6	3	noise_calib_stim_LEFT.wav	1	24	blb_dichoticlistening_ka-ta.mp3	ka	ta	1	left
6.6.1	win	2023-07-07	14:08:32	14:21:32	773034	5fb70808c7c7bb1d76c2b9d4	2	1	main_z	24	advance_on_keypress_ZEE	50	stimuli_distractor_trianglediamonds.svg	stimuli_target_diamondrectangles.svg	27	yes	57	0	371	6	4	antiphase_hc_sio.wav	1	6	3	noise_calib_stim_LEFT.wav	1	24	blb_dichoticlistening_ka-ta.mp3	ka	ta	1	left
6.6.1	win	2023-07-07	14:08:32	14:21:34	775143	5fb70808c7c7bb1d76c2b9d4	2	1	main_z	24	main_z	51	stimuli_distractor_diamondtriangles.svg	stimuli_target_trianglesquares.svg	30	yes	44	1	1105	6	4	antiphase_hc_sio.wav	1	6	3	noise_calib_stim_LEFT.wav	1	24	blb_dichoticlistening_ka-ta.mp3	ka	ta	1	left
6.6.1	win	2023-07-07	14:08:32	14:21:34	775143	5fb70808c7c7bb1d76c2b9d4	2	1	main_z	24	advance_on_keypress_ZEE	52	stimuli_distractor_diamondtriangles.svg	stimuli_target_trianglesquares.svg	30	yes	57	0	404	6	4	antiphase_hc_sio.wav	1	6	3	noise_calib_stim_LEFT.wav	1	24	blb_dichoticlistening_ka-ta.mp3	ka	ta	1	left
6.6.1	win	2023-07-07	14:08:32	14:21:36	777205	5fb70808c7c7bb1d76c2b9d4	2	1	main_z	24	main_z	53	stimuli_target_rectangletriangles.svg	stimuli_distractor_diamondtriangles.svg	5	yes	44	1	1017	6	4	antiphase_hc_sio.wav	1	6	3	noise_calib_stim_LEFT.wav	1	24	blb_dichoticlistening_ka-ta.mp3	ka	ta	1	left
6.6.1	win	2023-07-07	14:08:32	14:21:36	777205	5fb70808c7c7bb1d76c2b9d4	2	1	main_z	24	advance_on_keypress_ZEE	54	stimuli_target_rectangletriangles.svg	stimuli_distractor_diamondtriangles.svg	5	yes	57	0	345	6	4	antiphase_hc_sio.wav	1	6	3	noise_calib_stim_LEFT.wav	1	24	blb_dichoticlistening_ka-ta.mp3	ka	ta	1	left
6.6.1	win	2023-07-07	14:08:32	14:21:38	779137	5fb70808c7c7bb1d76c2b9d4	2	1	main_z	24	main_z	55	stimuli_target_diamondrectangles.svg	stimuli_distractor_trianglediamonds.svg	19	yes	44	1	952	6	4	antiphase_hc_sio.wav	1	6	3	noise_calib_stim_LEFT.wav	1	24	blb_dichoticlistening_ka-ta.mp3	ka	ta	1	left
6.6.1	win	2023-07-07	14:08:32	14:21:38	779137	5fb70808c7c7bb1d76c2b9d4	2	1	main_z	24	advance_on_keypress_ZEE	56	stimuli_target_diamondrectangles.svg	stimuli_distractor_trianglediamonds.svg	19	yes	57	0	329	6	4	antiphase_hc_sio.wav	1	6	3	noise_calib_stim_LEFT.wav	1	24	blb_dichoticlistening_ka-ta.mp3	ka	ta	1	left
6.6.1	win	2023-07-07	14:08:32	14:21:40	781142	5fb70808c7c7bb1d76c2b9d4	2	1	main_z	24	main_z	57	stimuli_distractor_trianglediamonds.svg	stimuli_distractor_diamondtriangles.svg	36	no	44	0	1042	6	4	antiphase_hc_sio.wav	1	6	3	noise_calib_stim_LEFT.wav	1	24	blb_dichoticlistening_ka-ta.mp3	ka	ta	1	left
6.6.1	win	2023-07-07	14:08:32	14:21:40	781142	5fb70808c7c7bb1d76c2b9d4	2	1	main_z	24	advance_on_keypress_ZEE	58	stimuli_distractor_trianglediamonds.svg	stimuli_distractor_diamondtriangles.svg	36	no	57	0	328	6	4	antiphase_hc_sio.wav	1	6	3	noise_calib_stim_LEFT.wav	1	24	blb_dichoticlistening_ka-ta.mp3	ka	ta	1	left
6.6.1	win	2023-07-07	14:08:32	14:21:42	782986	5fb70808c7c7bb1d76c2b9d4	2	1	main_z	24	main_z	59	stimuli_target_rectanglediamonds.svg	stimuli_distractor_trianglediamonds.svg	2	yes	44	1	888	6	4	antiphase_hc_sio.wav	1	6	3	noise_calib_stim_LEFT.wav	1	24	blb_dichoticlistening_ka-ta.mp3	ka	ta	1	left
6.6.1	win	2023-07-07	14:08:32	14:21:42	782986	5fb70808c7c7bb1d76c2b9d4	2	1	main_z	24	advance_on_keypress_ZEE	60	stimuli_target_rectanglediamonds.svg	stimuli_distractor_trianglediamonds.svg	2	yes	57	0	348	6	4	antiphase_hc_sio.wav	1	6	3	noise_calib_stim_LEFT.wav	1	24	blb_dichoticlistening_ka-ta.mp3	ka	ta	1	left
6.6.1	win	2023-07-07	14:08:32	14:21:44	784855	5fb70808c7c7bb1d76c2b9d4	2	1	main_z	24	main_z	61	stimuli_distractor_trianglediamonds.svg	stimuli_target_trianglesquares.svg	26	yes	44	1	875	6	4	antiphase_hc_sio.wav	1	6	3	noise_calib_stim_LEFT.wav	1	24	blb_dichoticlistening_ka-ta.mp3	ka	ta	1	left
6.6.1	win	2023-07-07	14:08:32	14:21:44	784855	5fb70808c7c7bb1d76c2b9d4	2	1	main_z	24	advance_on_keypress_ZEE	62	stimuli_distractor_trianglediamonds.svg	stimuli_target_trianglesquares.svg	26	yes	57	0	352	6	4	antiphase_hc_sio.wav	1	6	3	noise_calib_stim_LEFT.wav	1	24	blb_dichoticlistening_ka-ta.mp3	ka	ta	1	left
6.6.1	win	2023-07-07	14:08:32	14:21:46	787032	5fb70808c7c7bb1d76c2b9d4	2	1	main_z	24	main_z	63	stimuli_distractor_diamondtriangles.svg	stimuli_target_squarediamonds.svg	16	yes	44	1	1182	6	4	antiphase_hc_sio.wav	1	6	3	noise_calib_stim_LEFT.wav	1	24	blb_dichoticlistening_ka-ta.mp3	ka	ta	1	left
6.6.1	win	2023-07-07	14:08:32	14:21:46	787032	5fb70808c7c7bb1d76c2b9d4	2	1	main_z	24	advance_on_keypress_ZEE	64	stimuli_distractor_diamondtriangles.svg	stimuli_target_squarediamonds.svg	16	yes	57	0	351	6	4	antiphase_hc_sio.wav	1	6	3	noise_calib_stim_LEFT.wav	1	24	blb_dichoticlistening_ka-ta.mp3	ka	ta	1	left
6.6.1	win	2023-07-07	14:08:32	14:21:48	789128	5fb70808c7c7bb1d76c2b9d4	2	1	main_z	24	main_z	65	stimuli_distractor_trianglediamonds.svg	stimuli_distractor_diamondtriangles.svg	35	no	44	0	1101	6	4	antiphase_hc_sio.wav	1	6	3	noise_calib_stim_LEFT.wav	1	24	blb_dichoticlistening_ka-ta.mp3	ka	ta	1	left
6.6.1	win	2023-07-07	14:08:32	14:21:48	789128	5fb70808c7c7bb1d76c2b9d4	2	1	main_z	24	advance_on_keypress_ZEE	66	stimuli_distractor_trianglediamonds.svg	stimuli_distractor_diamondtriangles.svg	35	no	57	0	353	6	4	antiphase_hc_sio.wav	1	6	3	noise_calib_stim_LEFT.wav	1	24	blb_dichoticlistening_ka-ta.mp3	ka	ta	1	left
6.6.1	win	2023-07-07	14:08:32	14:21:51	792143	5fb70808c7c7bb1d76c2b9d4	2	1	main_z	24	main_z	67	stimuli_distractor_diamondtriangles.svg	stimuli_distractor_diamondtriangles.svg	40	no	0	1	2000	6	4	antiphase_hc_sio.wav	1	6	3	noise_calib_stim_LEFT.wav	1	24	blb_dichoticlistening_ka-ta.mp3	ka	ta	1	left
6.6.1	win	2023-07-07	14:08:32	14:21:51	792143	5fb70808c7c7bb1d76c2b9d4	2	1	main_z	24	advance_on_keypress_ZEE	68	stimuli_distractor_diamondtriangles.svg	stimuli_distractor_diamondtriangles.svg	40	no	57	0	981	6	4	antiphase_hc_sio.wav	1	6	3	noise_calib_stim_LEFT.wav	1	24	blb_dichoticlistening_ka-ta.mp3	ka	ta	1	left
6.6.1	win	2023-07-07	14:08:32	14:21:53	794448	5fb70808c7c7bb1d76c2b9d4	2	1	main_z	24	main_z	69	stimuli_distractor_trianglediamonds.svg	stimuli_target_diamondsquares.svg	28	yes	44	1	675	6	4	antiphase_hc_sio.wav	1	6	3	noise_calib_stim_LEFT.wav	1	24	blb_dichoticlistening_ka-ta.mp3	ka	ta	1	left
6.6.1	win	2023-07-07	14:08:32	14:21:53	794448	5fb70808c7c7bb1d76c2b9d4	2	1	main_z	24	advance_on_keypress_ZEE	70	stimuli_distractor_trianglediamonds.svg	stimuli_target_diamondsquares.svg	28	yes	57	0	368	6	4	antiphase_hc_sio.wav	1	6	3	noise_calib_stim_LEFT.wav	1	24	blb_dichoticlistening_ka-ta.mp3	ka	ta	1	left
6.6.1	win	2023-07-07	14:08:32	14:21:55	796181	5fb70808c7c7bb1d76c2b9d4	2	1	main_z	24	main_z	71	stimuli_distractor_diamondtriangles.svg	stimuli_target_diamondrectangles.svg	31	yes	44	1	727	6	4	antiphase_hc_sio.wav	1	6	3	noise_calib_stim_LEFT.wav	1	24	blb_dichoticlistening_ka-ta.mp3	ka	ta	1	left
6.6.1	win	2023-07-07	14:08:32	14:21:55	796181	5fb70808c7c7bb1d76c2b9d4	2	1	main_z	24	advance_on_keypress_ZEE	72	stimuli_distractor_diamondtriangles.svg	stimuli_target_diamondrectangles.svg	31	yes	57	0	337	6	4	antiphase_hc_sio.wav	1	6	3	noise_calib_stim_LEFT.wav	1	24	blb_dichoticlistening_ka-ta.mp3	ka	ta	1	left
6.6.1	win	2023-07-07	14:08:32	14:21:57	797806	5fb70808c7c7bb1d76c2b9d4	2	1	main_z	24	main_z	73	stimuli_target_trianglesquares.svg	stimuli_distractor_trianglediamonds.svg	18	yes	44	1	649	6	4	antiphase_hc_sio.wav	1	6	3	noise_calib_stim_LEFT.wav	1	24	blb_dichoticlistening_ka-ta.mp3	ka	ta	1	left
6.6.1	win	2023-07-07	14:08:32	14:21:57	797806	5fb70808c7c7bb1d76c2b9d4	2	1	main_z	24	advance_on_keypress_ZEE	74	stimuli_target_trianglesquares.svg	stimuli_distractor_trianglediamonds.svg	18	yes	57	0	350	6	4	antiphase_hc_sio.wav	1	6	3	noise_calib_stim_LEFT.wav	1	24	blb_dichoticlistening_ka-ta.mp3	ka	ta	1	left
6.6.1	win	2023-07-07	14:08:32	14:21:58	799560	5fb70808c7c7bb1d76c2b9d4	2	1	main_z	24	main_z	75	stimuli_distractor_diamondtriangles.svg	stimuli_target_diamondsquares.svg	32	yes	44	1	757	6	4	antiphase_hc_sio.wav	1	6	3	noise_calib_stim_LEFT.wav	1	24	blb_dichoticlistening_ka-ta.mp3	ka	ta	1	left
6.6.1	win	2023-07-07	14:08:32	14:21:58	799560	5fb70808c7c7bb1d76c2b9d4	2	1	main_z	24	advance_on_keypress_ZEE	76	stimuli_distractor_diamondtriangles.svg	stimuli_target_diamondsquares.svg	32	yes	57	0	311	6	4	antiphase_hc_sio.wav	1	6	3	noise_calib_stim_LEFT.wav	1	24	blb_dichoticlistening_ka-ta.mp3	ka	ta	1	left
6.6.1	win	2023-07-07	14:08:32	14:22:01	802502	5fb70808c7c7bb1d76c2b9d4	2	1	main_z	24	main_z	77	stimuli_distractor_trianglediamonds.svg	stimuli_distractor_trianglediamonds.svg	33	no	0	1	2000	6	4	antiphase_hc_sio.wav	1	6	3	noise_calib_stim_LEFT.wav	1	24	blb_dichoticlistening_ka-ta.mp3	ka	ta	1	left
6.6.1	win	2023-07-07	14:08:32	14:22:01	802502	5fb70808c7c7bb1d76c2b9d4	2	1	main_z	24	advance_on_keypress_ZEE	78	stimuli_distractor_trianglediamonds.svg	stimuli_distractor_trianglediamonds.svg	33	no	57	0	702	6	4	antiphase_hc_sio.wav	1	6	3	noise_calib_stim_LEFT.wav	1	24	blb_dichoticlistening_ka-ta.mp3	ka	ta	1	left
6.6.1	win	2023-07-07	14:08:32	14:22:04	804704	5fb70808c7c7bb1d76c2b9d4	2	1	main_z	24	main_z	79	stimuli_target_trianglesquares.svg	stimuli_distractor_diamondtriangles.svg	22	yes	44	1	855	6	4	antiphase_hc_sio.wav	1	6	3	noise_calib_stim_LEFT.wav	1	24	blb_dichoticlistening_ka-ta.mp3	ka	ta	1	left
6.6.1	win	2023-07-07	14:08:32	14:22:04	804704	5fb70808c7c7bb1d76c2b9d4	2	1	main_z	24	advance_on_keypress_ZEE	80	stimuli_target_trianglesquares.svg	stimuli_distractor_diamondtriangles.svg	22	yes	57	0	316	6	4	antiphase_hc_sio.wav	1	6	3	noise_calib_stim_LEFT.wav	1	24	blb_dichoticlistening_ka-ta.mp3	ka	ta	1	left
6.6.1	win	2023-07-07	14:08:32	14:22:07	807665	5fb70808c7c7bb1d76c2b9d4	2	1	main_z	24	main_z	81	stimuli_distractor_trianglediamonds.svg	stimuli_target_trianglerectangles.svg	25	yes	0	0	2000	6	4	antiphase_hc_sio.wav	1	6	3	noise_calib_stim_LEFT.wav	1	24	blb_dichoticlistening_ka-ta.mp3	ka	ta	1	left
6.6.1	win	2023-07-07	14:08:32	14:22:07	807665	5fb70808c7c7bb1d76c2b9d4	2	1	main_z	24	advance_on_keypress_ZEE	82	stimuli_distractor_trianglediamonds.svg	stimuli_target_trianglerectangles.svg	25	yes	57	0	1027	6	4	antiphase_hc_sio.wav	1	6	3	noise_calib_stim_LEFT.wav	1	24	blb_dichoticlistening_ka-ta.mp3	ka	ta	1	left
6.6.1	win	2023-07-07	14:08:32	14:22:09	809904	5fb70808c7c7bb1d76c2b9d4	2	1	main_z	24	main_z	83	stimuli_distractor_diamondtriangles.svg	stimuli_target_rectanglediamonds.svg	14	yes	44	1	576	6	4	antiphase_hc_sio.wav	1	6	3	noise_calib_stim_LEFT.wav	1	24	blb_dichoticlistening_ka-ta.mp3	ka	ta	1	left
6.6.1	win	2023-07-07	14:08:32	14:22:09	809904	5fb70808c7c7bb1d76c2b9d4	2	1	main_z	24	advance_on_keypress_ZEE	84	stimuli_distractor_diamondtriangles.svg	stimuli_target_rectanglediamonds.svg	14	yes	57	0	328	6	4	antiphase_hc_sio.wav	1	6	3	noise_calib_stim_LEFT.wav	1	24	blb_dichoticlistening_ka-ta.mp3	ka	ta	1	left
6.6.1	win	2023-07-07	14:08:32	14:22:10	811381	5fb70808c7c7bb1d76c2b9d4	2	1	main_z	24	main_z	85	stimuli_target_squarediamonds.svg	stimuli_distractor_trianglediamonds.svg	4	yes	44	1	522	6	4	antiphase_hc_sio.wav	1	6	3	noise_calib_stim_LEFT.wav	1	24	blb_dichoticlistening_ka-ta.mp3	ka	ta	1	left
6.6.1	win	2023-07-07	14:08:32	14:22:10	811381	5fb70808c7c7bb1d76c2b9d4	2	1	main_z	24	advance_on_keypress_ZEE	86	stimuli_target_squarediamonds.svg	stimuli_distractor_trianglediamonds.svg	4	yes	57	0	324	6	4	antiphase_hc_sio.wav	1	6	3	noise_calib_stim_LEFT.wav	1	24	blb_dichoticlistening_ka-ta.mp3	ka	ta	1	left
6.6.1	win	2023-07-07	14:08:32	14:22:12	812862	5fb70808c7c7bb1d76c2b9d4	2	1	main_z	24	main_z	87	stimuli_target_trianglerectangles.svg	stimuli_distractor_trianglediamonds.svg	17	yes	44	1	516	6	4	antiphase_hc_sio.wav	1	6	3	noise_calib_stim_LEFT.wav	1	24	blb_dichoticlistening_ka-ta.mp3	ka	ta	1	left
6.6.1	win	2023-07-07	14:08:32	14:22:12	812862	5fb70808c7c7bb1d76c2b9d4	2	1	main_z	24	advance_on_keypress_ZEE	88	stimuli_target_trianglerectangles.svg	stimuli_distractor_trianglediamonds.svg	17	yes	57	0	311	6	4	antiphase_hc_sio.wav	1	6	3	noise_calib_stim_LEFT.wav	1	24	blb_dichoticlistening_ka-ta.mp3	ka	ta	1	left
6.6.1	win	2023-07-07	14:08:32	14:22:14	814815	5fb70808c7c7bb1d76c2b9d4	2	1	main_z	24	main_z	89	stimuli_distractor_diamondtriangles.svg	stimuli_target_diamondrectangles.svg	31	yes	44	1	1008	6	4	antiphase_hc_sio.wav	1	6	3	noise_calib_stim_LEFT.wav	1	24	blb_dichoticlistening_ka-ta.mp3	ka	ta	1	left
6.6.1	win	2023-07-07	14:08:32	14:22:14	814815	5fb70808c7c7bb1d76c2b9d4	2	1	main_z	24	advance_on_keypress_ZEE	90	stimuli_distractor_diamondtriangles.svg	stimuli_target_diamondrectangles.svg	31	yes	57	0	239	6	4	antiphase_hc_sio.wav	1	6	3	noise_calib_stim_LEFT.wav	1	24	blb_dichoticlistening_ka-ta.mp3	ka	ta	1	left
6.6.1	win	2023-07-07	14:08:32	14:22:15	816429	5fb70808c7c7bb1d76c2b9d4	2	1	main_z	24	main_z	91	stimuli_distractor_diamondtriangles.svg	stimuli_target_trianglerectangles.svg	29	yes	44	1	739	6	4	antiphase_hc_sio.wav	1	6	3	noise_calib_stim_LEFT.wav	1	24	blb_dichoticlistening_ka-ta.mp3	ka	ta	1	left
6.6.1	win	2023-07-07	14:08:32	14:22:15	816429	5fb70808c7c7bb1d76c2b9d4	2	1	main_z	24	advance_on_keypress_ZEE	92	stimuli_distractor_diamondtriangles.svg	stimuli_target_trianglerectangles.svg	29	yes	57	0	318	6	4	antiphase_hc_sio.wav	1	6	3	noise_calib_stim_LEFT.wav	1	24	blb_dichoticlistening_ka-ta.mp3	ka	ta	1	left
6.6.1	win	2023-07-07	14:08:32	14:22:17	818066	5fb70808c7c7bb1d76c2b9d4	2	1	main_z	24	main_z	93	stimuli_target_diamondsquares.svg	stimuli_distractor_trianglediamonds.svg	20	yes	44	1	677	6	4	antiphase_hc_sio.wav	1	6	3	noise_calib_stim_LEFT.wav	1	24	blb_dichoticlistening_ka-ta.mp3	ka	ta	1	left
6.6.1	win	2023-07-07	14:08:32	14:22:17	818066	5fb70808c7c7bb1d76c2b9d4	2	1	main_z	24	advance_on_keypress_ZEE	94	stimuli_target_diamondsquares.svg	stimuli_distractor_trianglediamonds.svg	20	yes	57	0	307	6	4	antiphase_hc_sio.wav	1	6	3	noise_calib_stim_LEFT.wav	1	24	blb_dichoticlistening_ka-ta.mp3	ka	ta	1	left
6.6.1	win	2023-07-07	14:08:32	14:22:19	819743	5fb70808c7c7bb1d76c2b9d4	2	1	main_z	24	main_z	95	stimuli_distractor_trianglediamonds.svg	stimuli_target_squarediamonds.svg	12	yes	44	1	740	6	4	antiphase_hc_sio.wav	1	6	3	noise_calib_stim_LEFT.wav	1	24	blb_dichoticlistening_ka-ta.mp3	ka	ta	1	left
6.6.1	win	2023-07-07	14:08:32	14:22:19	819743	5fb70808c7c7bb1d76c2b9d4	2	1	main_z	24	advance_on_keypress_ZEE	96	stimuli_distractor_trianglediamonds.svg	stimuli_target_squarediamonds.svg	12	yes	57	0	302	6	4	antiphase_hc_sio.wav	1	6	3	noise_calib_stim_LEFT.wav	1	24	blb_dichoticlistening_ka-ta.mp3	ka	ta	1	left
6.6.1	win	2023-07-07	14:08:32	14:22:20	821365	5fb70808c7c7bb1d76c2b9d4	2	1	main_z	24	main_z	97	stimuli_target_trianglesquares.svg	stimuli_distractor_diamondtriangles.svg	22	yes	44	1	679	6	4	antiphase_hc_sio.wav	1	6	3	noise_calib_stim_LEFT.wav	1	24	blb_dichoticlistening_ka-ta.mp3	ka	ta	1	left
6.6.1	win	2023-07-07	14:08:32	14:22:20	821365	5fb70808c7c7bb1d76c2b9d4	2	1	main_z	24	advance_on_keypress_ZEE	98	stimuli_target_trianglesquares.svg	stimuli_distractor_diamondtriangles.svg	22	yes	57	0	292	6	4	antiphase_hc_sio.wav	1	6	3	noise_calib_stim_LEFT.wav	1	24	blb_dichoticlistening_ka-ta.mp3	ka	ta	1	left
6.6.1	win	2023-07-07	14:08:32	14:22:22	823154	5fb70808c7c7bb1d76c2b9d4	2	1	main_z	24	main_z	99	stimuli_target_diamondsquares.svg	stimuli_distractor_diamondtriangles.svg	24	yes	44	1	870	6	4	antiphase_hc_sio.wav	1	6	3	noise_calib_stim_LEFT.wav	1	24	blb_dichoticlistening_ka-ta.mp3	ka	ta	1	left
6.6.1	win	2023-07-07	14:08:32	14:22:22	823154	5fb70808c7c7bb1d76c2b9d4	2	1	main_z	24	advance_on_keypress_ZEE	100	stimuli_target_diamondsquares.svg	stimuli_distractor_diamondtriangles.svg	24	yes	57	0	275	6	4	antiphase_hc_sio.wav	1	6	3	noise_calib_stim_LEFT.wav	1	24	blb_dichoticlistening_ka-ta.mp3	ka	ta	1	left
6.6.1	win	2023-07-07	14:08:32	14:22:24	825055	5fb70808c7c7bb1d76c2b9d4	2	1	main_z	24	main_z	101	stimuli_target_trianglerectangles.svg	stimuli_distractor_diamondtriangles.svg	21	yes	44	1	988	6	4	antiphase_hc_sio.wav	1	6	3	noise_calib_stim_LEFT.wav	1	24	blb_dichoticlistening_ka-ta.mp3	ka	ta	1	left
6.6.1	win	2023-07-07	14:08:32	14:22:24	825055	5fb70808c7c7bb1d76c2b9d4	2	1	main_z	24	advance_on_keypress_ZEE	102	stimuli_target_trianglerectangles.svg	stimuli_distractor_diamondtriangles.svg	21	yes	57	0	269	6	4	antiphase_hc_sio.wav	1	6	3	noise_calib_stim_LEFT.wav	1	24	blb_dichoticlistening_ka-ta.mp3	ka	ta	1	left
6.6.1	win	2023-07-07	14:08:32	14:22:26	827028	5fb70808c7c7bb1d76c2b9d4	2	1	main_z	24	main_z	103	stimuli_distractor_trianglediamonds.svg	stimuli_distractor_diamondtriangles.svg	36	no	44	0	1063	6	4	antiphase_hc_sio.wav	1	6	3	noise_calib_stim_LEFT.wav	1	24	blb_dichoticlistening_ka-ta.mp3	ka	ta	1	left
6.6.1	win	2023-07-07	14:08:32	14:22:26	827028	5fb70808c7c7bb1d76c2b9d4	2	1	main_z	24	advance_on_keypress_ZEE	104	stimuli_distractor_trianglediamonds.svg	stimuli_distractor_diamondtriangles.svg	36	no	57	0	236	6	4	antiphase_hc_sio.wav	1	6	3	noise_calib_stim_LEFT.wav	1	24	blb_dichoticlistening_ka-ta.mp3	ka	ta	1	left
6.6.1	win	2023-07-07	14:08:32	14:22:29	829914	5fb70808c7c7bb1d76c2b9d4	2	1	main_z	24	main_z	105	stimuli_target_squaretriangles.svg	stimuli_distractor_diamondtriangles.svg	7	yes	0	0	2000	6	4	antiphase_hc_sio.wav	1	6	3	noise_calib_stim_LEFT.wav	1	24	blb_dichoticlistening_ka-ta.mp3	ka	ta	1	left
6.6.1	win	2023-07-07	14:08:32	14:22:29	829914	5fb70808c7c7bb1d76c2b9d4	2	1	main_z	24	advance_on_keypress_ZEE	106	stimuli_target_squaretriangles.svg	stimuli_distractor_diamondtriangles.svg	7	yes	57	0	717	6	4	antiphase_hc_sio.wav	1	6	3	noise_calib_stim_LEFT.wav	1	24	blb_dichoticlistening_ka-ta.mp3	ka	ta	1	left
6.6.1	win	2023-07-07	14:08:32	14:22:31	832339	5fb70808c7c7bb1d76c2b9d4	2	1	main_z	24	main_z	107	stimuli_target_rectangletriangles.svg	stimuli_distractor_diamondtriangles.svg	5	yes	44	1	1062	6	4	antiphase_hc_sio.wav	1	6	3	noise_calib_stim_LEFT.wav	1	24	blb_dichoticlistening_ka-ta.mp3	ka	ta	1	left
6.6.1	win	2023-07-07	14:08:32	14:22:31	832339	5fb70808c7c7bb1d76c2b9d4	2	1	main_z	24	advance_on_keypress_ZEE	108	stimuli_target_rectangletriangles.svg	stimuli_distractor_diamondtriangles.svg	5	yes	57	0	267	6	4	antiphase_hc_sio.wav	1	6	3	noise_calib_stim_LEFT.wav	1	24	blb_dichoticlistening_ka-ta.mp3	ka	ta	1	left
6.6.1	win	2023-07-07	14:08:32	14:22:33	834256	5fb70808c7c7bb1d76c2b9d4	2	1	main_z	24	main_z	109	stimuli_distractor_diamondtriangles.svg	stimuli_target_trianglesquares.svg	30	yes	44	1	1014	6	4	antiphase_hc_sio.wav	1	6	3	noise_calib_stim_LEFT.wav	1	24	blb_dichoticlistening_ka-ta.mp3	ka	ta	1	left
6.6.1	win	2023-07-07	14:08:32	14:22:33	834256	5fb70808c7c7bb1d76c2b9d4	2	1	main_z	24	advance_on_keypress_ZEE	110	stimuli_distractor_diamondtriangles.svg	stimuli_target_trianglesquares.svg	30	yes	57	0	260	6	4	antiphase_hc_sio.wav	1	6	3	noise_calib_stim_LEFT.wav	1	24	blb_dichoticlistening_ka-ta.mp3	ka	ta	1	left
6.6.1	win	2023-07-07	14:08:32	14:22:35	835918	5fb70808c7c7bb1d76c2b9d4	2	1	main_z	24	main_z	111	stimuli_distractor_diamondtriangles.svg	stimuli_target_squarediamonds.svg	16	yes	44	1	759	6	4	antiphase_hc_sio.wav	1	6	3	noise_calib_stim_LEFT.wav	1	24	blb_dichoticlistening_ka-ta.mp3	ka	ta	1	left
6.6.1	win	2023-07-07	14:08:32	14:22:35	835918	5fb70808c7c7bb1d76c2b9d4	2	1	main_z	24	advance_on_keypress_ZEE	112	stimuli_distractor_diamondtriangles.svg	stimuli_target_squarediamonds.svg	16	yes	57	0	290	6	4	antiphase_hc_sio.wav	1	6	3	noise_calib_stim_LEFT.wav	1	24	blb_dichoticlistening_ka-ta.mp3	ka	ta	1	left
6.6.1	win	2023-07-07	14:08:32	14:22:37	838050	5fb70808c7c7bb1d76c2b9d4	2	1	main_z	24	main_z	113	stimuli_distractor_diamondtriangles.svg	stimuli_distractor_trianglediamonds.svg	38	no	44	0	1210	6	4	antiphase_hc_sio.wav	1	6	3	noise_calib_stim_LEFT.wav	1	24	blb_dichoticlistening_ka-ta.mp3	ka	ta	1	left
6.6.1	win	2023-07-07	14:08:32	14:22:37	838050	5fb70808c7c7bb1d76c2b9d4	2	1	main_z	24	advance_on_keypress_ZEE	114	stimuli_distractor_diamondtriangles.svg	stimuli_distractor_trianglediamonds.svg	38	no	57	0	210	6	4	antiphase_hc_sio.wav	1	6	3	noise_calib_stim_LEFT.wav	1	24	blb_dichoticlistening_ka-ta.mp3	ka	ta	1	left
6.6.1	win	2023-07-07	14:08:32	14:22:39	839959	5fb70808c7c7bb1d76c2b9d4	2	1	main_z	24	main_z	115	stimuli_target_diamondrectangles.svg	stimuli_distractor_diamondtriangles.svg	23	yes	44	1	1070	6	4	antiphase_hc_sio.wav	1	6	3	noise_calib_stim_LEFT.wav	1	24	blb_dichoticlistening_ka-ta.mp3	ka	ta	1	left
6.6.1	win	2023-07-07	14:08:32	14:22:39	839959	5fb70808c7c7bb1d76c2b9d4	2	1	main_z	24	advance_on_keypress_ZEE	116	stimuli_target_diamondrectangles.svg	stimuli_distractor_diamondtriangles.svg	23	yes	57	0	212	6	4	antiphase_hc_sio.wav	1	6	3	noise_calib_stim_LEFT.wav	1	24	blb_dichoticlistening_ka-ta.mp3	ka	ta	1	left
6.6.1	win	2023-07-07	14:08:32	14:22:41	841716	5fb70808c7c7bb1d76c2b9d4	2	1	main_z	24	main_z	117	stimuli_distractor_diamondtriangles.svg	stimuli_target_diamondsquares.svg	32	yes	44	1	913	6	4	antiphase_hc_sio.wav	1	6	3	noise_calib_stim_LEFT.wav	1	24	blb_dichoticlistening_ka-ta.mp3	ka	ta	1	left
6.6.1	win	2023-07-07	14:08:32	14:22:41	841716	5fb70808c7c7bb1d76c2b9d4	2	1	main_z	24	advance_on_keypress_ZEE	118	stimuli_distractor_diamondtriangles.svg	stimuli_target_diamondsquares.svg	32	yes	57	0	260	6	4	antiphase_hc_sio.wav	1	6	3	noise_calib_stim_LEFT.wav	1	24	blb_dichoticlistening_ka-ta.mp3	ka	ta	1	left
6.6.1	win	2023-07-07	14:08:32	14:22:43	843593	5fb70808c7c7bb1d76c2b9d4	2	1	main_z	24	main_z	119	stimuli_target_squarediamonds.svg	stimuli_distractor_diamondtriangles.svg	8	yes	44	1	991	6	4	antiphase_hc_sio.wav	1	6	3	noise_calib_stim_LEFT.wav	1	24	blb_dichoticlistening_ka-ta.mp3	ka	ta	1	left
6.6.1	win	2023-07-07	14:08:32	14:22:43	843593	5fb70808c7c7bb1d76c2b9d4	2	1	main_z	24	advance_on_keypress_ZEE	120	stimuli_target_squarediamonds.svg	stimuli_distractor_diamondtriangles.svg	8	yes	57	0	223	6	4	antiphase_hc_sio.wav	1	6	3	noise_calib_stim_LEFT.wav	1	24	blb_dichoticlistening_ka-ta.mp3	ka	ta	1	left
6.6.1	win	2023-07-07	14:08:32	14:22:45	845742	5fb70808c7c7bb1d76c2b9d4	2	1	main_z	24	main_z	121	stimuli_target_rectanglediamonds.svg	stimuli_distractor_trianglediamonds.svg	2	yes	44	1	1290	6	4	antiphase_hc_sio.wav	1	6	3	noise_calib_stim_LEFT.wav	1	24	blb_dichoticlistening_ka-ta.mp3	ka	ta	1	left
6.6.1	win	2023-07-07	14:08:32	14:22:45	845742	5fb70808c7c7bb1d76c2b9d4	2	1	main_z	24	advance_on_keypress_ZEE	122	stimuli_target_rectanglediamonds.svg	stimuli_distractor_trianglediamonds.svg	2	yes	57	0	216	6	4	antiphase_hc_sio.wav	1	6	3	noise_calib_stim_LEFT.wav	1	24	blb_dichoticlistening_ka-ta.mp3	ka	ta	1	left
6.6.1	win	2023-07-07	14:08:32	14:22:46	847395	5fb70808c7c7bb1d76c2b9d4	2	1	main_z	24	main_z	123	stimuli_distractor_trianglediamonds.svg	stimuli_target_rectanglediamonds.svg	10	yes	44	1	796	6	4	antiphase_hc_sio.wav	1	6	3	noise_calib_stim_LEFT.wav	1	24	blb_dichoticlistening_ka-ta.mp3	ka	ta	1	left
6.6.1	win	2023-07-07	14:08:32	14:22:46	847395	5fb70808c7c7bb1d76c2b9d4	2	1	main_z	24	advance_on_keypress_ZEE	124	stimuli_distractor_trianglediamonds.svg	stimuli_target_rectanglediamonds.svg	10	yes	57	0	252	6	4	antiphase_hc_sio.wav	1	6	3	noise_calib_stim_LEFT.wav	1	24	blb_dichoticlistening_ka-ta.mp3	ka	ta	1	left
6.6.1	win	2023-07-07	14:08:32	14:22:48	849066	5fb70808c7c7bb1d76c2b9d4	2	1	main_z	24	main_z	125	stimuli_distractor_diamondtriangles.svg	stimuli_target_squaretriangles.svg	15	yes	44	1	783	6	4	antiphase_hc_sio.wav	1	6	3	noise_calib_stim_LEFT.wav	1	24	blb_dichoticlistening_ka-ta.mp3	ka	ta	1	left
6.6.1	win	2023-07-07	14:08:32	14:22:48	849066	5fb70808c7c7bb1d76c2b9d4	2	1	main_z	24	advance_on_keypress_ZEE	126	stimuli_distractor_diamondtriangles.svg	stimuli_target_squaretriangles.svg	15	yes	57	0	271	6	4	antiphase_hc_sio.wav	1	6	3	noise_calib_stim_LEFT.wav	1	24	blb_dichoticlistening_ka-ta.mp3	ka	ta	1	left
6.6.1	win	2023-07-07	14:08:32	14:22:50	850758	5fb70808c7c7bb1d76c2b9d4	2	1	main_z	24	main_z	127	stimuli_distractor_trianglediamonds.svg	stimuli_target_squaretriangles.svg	11	yes	44	1	777	6	4	antiphase_hc_sio.wav	1	6	3	noise_calib_stim_LEFT.wav	1	24	blb_dichoticlistening_ka-ta.mp3	ka	ta	1	left
6.6.1	win	2023-07-07	14:08:32	14:22:50	850758	5fb70808c7c7bb1d76c2b9d4	2	1	main_z	24	advance_on_keypress_ZEE	128	stimuli_distractor_trianglediamonds.svg	stimuli_target_squaretriangles.svg	11	yes	57	0	243	6	4	antiphase_hc_sio.wav	1	6	3	noise_calib_stim_LEFT.wav	1	24	blb_dichoticlistening_ka-ta.mp3	ka	ta	1	left
6.6.1	win	2023-07-07	14:08:32	14:22:53	853629	5fb70808c7c7bb1d76c2b9d4	2	1	main_z	24	main_z	129	stimuli_distractor_trianglediamonds.svg	stimuli_distractor_trianglediamonds.svg	33	no	0	1	2000	6	4	antiphase_hc_sio.wav	1	6	3	noise_calib_stim_LEFT.wav	1	24	blb_dichoticlistening_ka-ta.mp3	ka	ta	1	left
6.6.1	win	2023-07-07	14:08:32	14:22:53	853629	5fb70808c7c7bb1d76c2b9d4	2	1	main_z	24	advance_on_keypress_ZEE	130	stimuli_distractor_trianglediamonds.svg	stimuli_distractor_trianglediamonds.svg	33	no	57	0	629	6	4	antiphase_hc_sio.wav	1	6	3	noise_calib_stim_LEFT.wav	1	24	blb_dichoticlistening_ka-ta.mp3	ka	ta	1	left
6.6.1	win	2023-07-07	14:08:32	14:22:56	856894	5fb70808c7c7bb1d76c2b9d4	2	1	main_z	24	main_z	131	stimuli_distractor_trianglediamonds.svg	stimuli_distractor_trianglediamonds.svg	34	no	0	1	2000	6	4	antiphase_hc_sio.wav	1	6	3	noise_calib_stim_LEFT.wav	1	24	blb_dichoticlistening_ka-ta.mp3	ka	ta	1	left
6.6.1	win	2023-07-07	14:08:32	14:22:56	856894	5fb70808c7c7bb1d76c2b9d4	2	1	main_z	24	advance_on_keypress_ZEE	132	stimuli_distractor_trianglediamonds.svg	stimuli_distractor_trianglediamonds.svg	34	no	57	0	735	6	4	antiphase_hc_sio.wav	1	6	3	noise_calib_stim_LEFT.wav	1	24	blb_dichoticlistening_ka-ta.mp3	ka	ta	1	left
6.6.1	win	2023-07-07	14:08:32	14:22:58	858889	5fb70808c7c7bb1d76c2b9d4	2	1	main_z	24	main_z	133	stimuli_target_trianglesquares.svg	stimuli_distractor_trianglediamonds.svg	18	yes	44	1	615	6	4	antiphase_hc_sio.wav	1	6	3	noise_calib_stim_LEFT.wav	1	24	blb_dichoticlistening_ka-ta.mp3	ka	ta	1	left
6.6.1	win	2023-07-07	14:08:32	14:22:58	858889	5fb70808c7c7bb1d76c2b9d4	2	1	main_z	24	advance_on_keypress_ZEE	134	stimuli_target_trianglesquares.svg	stimuli_distractor_trianglediamonds.svg	18	yes	57	0	310	6	4	antiphase_hc_sio.wav	1	6	3	noise_calib_stim_LEFT.wav	1	24	blb_dichoticlistening_ka-ta.mp3	ka	ta	1	left
6.6.1	win	2023-07-07	14:08:32	14:22:59	860518	5fb70808c7c7bb1d76c2b9d4	2	1	main_z	24	main_z	135	stimuli_target_rectanglediamonds.svg	stimuli_distractor_diamondtriangles.svg	6	yes	44	1	678	6	4	antiphase_hc_sio.wav	1	6	3	noise_calib_stim_LEFT.wav	1	24	blb_dichoticlistening_ka-ta.mp3	ka	ta	1	left
6.6.1	win	2023-07-07	14:08:32	14:22:59	860518	5fb70808c7c7bb1d76c2b9d4	2	1	main_z	24	advance_on_keypress_ZEE	136	stimuli_target_rectanglediamonds.svg	stimuli_distractor_diamondtriangles.svg	6	yes	57	0	316	6	4	antiphase_hc_sio.wav	1	6	3	noise_calib_stim_LEFT.wav	1	24	blb_dichoticlistening_ka-ta.mp3	ka	ta	1	left
6.6.1	win	2023-07-07	14:08:32	14:23:01	862227	5fb70808c7c7bb1d76c2b9d4	2	1	main_z	24	main_z	137	stimuli_distractor_trianglediamonds.svg	stimuli_target_diamondrectangles.svg	27	yes	44	1	756	6	4	antiphase_hc_sio.wav	1	6	3	noise_calib_stim_LEFT.wav	1	24	blb_dichoticlistening_ka-ta.mp3	ka	ta	1	left
6.6.1	win	2023-07-07	14:08:32	14:23:01	862227	5fb70808c7c7bb1d76c2b9d4	2	1	main_z	24	advance_on_keypress_ZEE	138	stimuli_distractor_trianglediamonds.svg	stimuli_target_diamondrectangles.svg	27	yes	57	0	221	6	4	antiphase_hc_sio.wav	1	6	3	noise_calib_stim_LEFT.wav	1	24	blb_dichoticlistening_ka-ta.mp3	ka	ta	1	left
6.6.1	win	2023-07-07	14:08:32	14:23:04	864592	5fb70808c7c7bb1d76c2b9d4	2	1	main_z	24	main_z	139	stimuli_distractor_diamondtriangles.svg	stimuli_distractor_trianglediamonds.svg	37	no	44	0	1505	6	4	antiphase_hc_sio.wav	1	6	3	noise_calib_stim_LEFT.wav	1	24	blb_dichoticlistening_ka-ta.mp3	ka	ta	1	left
6.6.1	win	2023-07-07	14:08:32	14:23:04	864592	5fb70808c7c7bb1d76c2b9d4	2	1	main_z	24	advance_on_keypress_ZEE	140	stimuli_distractor_diamondtriangles.svg	stimuli_distractor_trianglediamonds.svg	37	no	57	0	133	6	4	antiphase_hc_sio.wav	1	6	3	noise_calib_stim_LEFT.wav	1	24	blb_dichoticlistening_ka-ta.mp3	ka	ta	1	left
6.6.1	win	2023-07-07	14:08:32	14:23:06	867369	5fb70808c7c7bb1d76c2b9d4	2	1	main_z	24	main_z	141	stimuli_distractor_diamondtriangles.svg	stimuli_distractor_diamondtriangles.svg	39	no	0	1	2000	6	4	antiphase_hc_sio.wav	1	6	3	noise_calib_stim_LEFT.wav	1	24	blb_dichoticlistening_ka-ta.mp3	ka	ta	1	left
6.6.1	win	2023-07-07	14:08:32	14:23:06	867369	5fb70808c7c7bb1d76c2b9d4	2	1	main_z	24	advance_on_keypress_ZEE	142	stimuli_distractor_diamondtriangles.svg	stimuli_distractor_diamondtriangles.svg	39	no	57	0	499	6	4	antiphase_hc_sio.wav	1	6	3	noise_calib_stim_LEFT.wav	1	24	blb_dichoticlistening_ka-ta.mp3	ka	ta	1	left
6.6.1	win	2023-07-07	14:08:32	14:23:08	869137	5fb70808c7c7bb1d76c2b9d4	2	1	main_z	24	main_z	143	stimuli_target_diamondrectangles.svg	stimuli_distractor_trianglediamonds.svg	19	yes	44	1	620	6	4	antiphase_hc_sio.wav	1	6	3	noise_calib_stim_LEFT.wav	1	24	blb_dichoticlistening_ka-ta.mp3	ka	ta	1	left
6.6.1	win	2023-07-07	14:08:32	14:23:08	869137	5fb70808c7c7bb1d76c2b9d4	2	1	main_z	24	advance_on_keypress_ZEE	144	stimuli_target_diamondrectangles.svg	stimuli_distractor_trianglediamonds.svg	19	yes	57	0	251	6	4	antiphase_hc_sio.wav	1	6	3	noise_calib_stim_LEFT.wav	1	24	blb_dichoticlistening_ka-ta.mp3	ka	ta	1	left
6.6.1	win	2023-07-07	14:08:32	14:23:11	872034	5fb70808c7c7bb1d76c2b9d4	2	1	main_z	24	main_z	145	stimuli_distractor_trianglediamonds.svg	stimuli_distractor_diamondtriangles.svg	35	no	0	1	2000	6	4	antiphase_hc_sio.wav	1	6	3	noise_calib_stim_LEFT.wav	1	24	blb_dichoticlistening_ka-ta.mp3	ka	ta	1	left
6.6.1	win	2023-07-07	14:08:32	14:23:11	872034	5fb70808c7c7bb1d76c2b9d4	2	1	main_z	24	advance_on_keypress_ZEE	146	stimuli_distractor_trianglediamonds.svg	stimuli_distractor_diamondtriangles.svg	35	no	57	0	596	6	4	antiphase_hc_sio.wav	1	6	3	noise_calib_stim_LEFT.wav	1	24	blb_dichoticlistening_ka-ta.mp3	ka	ta	1	left
6.6.1	win	2023-07-07	14:08:32	14:23:14	875263	5fb70808c7c7bb1d76c2b9d4	2	1	main_z	24	main_z	147	stimuli_distractor_diamondtriangles.svg	stimuli_distractor_diamondtriangles.svg	40	no	0	1	2000	6	4	antiphase_hc_sio.wav	1	6	3	noise_calib_stim_LEFT.wav	1	24	blb_dichoticlistening_ka-ta.mp3	ka	ta	1	left
6.6.1	win	2023-07-07	14:08:32	14:23:14	875263	5fb70808c7c7bb1d76c2b9d4	2	1	main_z	24	advance_on_keypress_ZEE	148	stimuli_distractor_diamondtriangles.svg	stimuli_distractor_diamondtriangles.svg	40	no	57	0	440	6	4	antiphase_hc_sio.wav	1	6	3	noise_calib_stim_LEFT.wav	1	24	blb_dichoticlistening_ka-ta.mp3	ka	ta	1	left
6.6.1	win	2023-07-07	14:08:32	14:23:16	876796	5fb70808c7c7bb1d76c2b9d4	2	1	main_z	24	main_z	149	stimuli_distractor_trianglediamonds.svg	stimuli_target_rectangletriangles.svg	9	yes	44	1	453	6	4	antiphase_hc_sio.wav	1	6	3	noise_calib_stim_LEFT.wav	1	24	blb_dichoticlistening_ka-ta.mp3	ka	ta	1	left
6.6.1	win	2023-07-07	14:08:32	14:23:16	876796	5fb70808c7c7bb1d76c2b9d4	2	1	main_z	24	advance_on_keypress_ZEE	150	stimuli_distractor_trianglediamonds.svg	stimuli_target_rectangletriangles.svg	9	yes	57	0	250	6	4	antiphase_hc_sio.wav	1	6	3	noise_calib_stim_LEFT.wav	1	24	blb_dichoticlistening_ka-ta.mp3	ka	ta	1	left
6.6.1	win	2023-07-07	14:08:32	14:23:17	878075	5fb70808c7c7bb1d76c2b9d4	2	1	main_z	24	main_z	151	stimuli_target_rectangletriangles.svg	stimuli_distractor_trianglediamonds.svg	1	yes	44	1	373	6	4	antiphase_hc_sio.wav	1	6	3	noise_calib_stim_LEFT.wav	1	24	blb_dichoticlistening_ka-ta.mp3	ka	ta	1	left
6.6.1	win	2023-07-07	14:08:32	14:23:17	878075	5fb70808c7c7bb1d76c2b9d4	2	1	main_z	24	advance_on_keypress_ZEE	152	stimuli_target_rectangletriangles.svg	stimuli_distractor_trianglediamonds.svg	1	yes	57	0	222	6	4	antiphase_hc_sio.wav	1	6	3	noise_calib_stim_LEFT.wav	1	24	blb_dichoticlistening_ka-ta.mp3	ka	ta	1	left
6.6.1	win	2023-07-07	14:08:32	14:23:18	879368	5fb70808c7c7bb1d76c2b9d4	2	1	main_z	24	main_z	153	stimuli_distractor_trianglediamonds.svg	stimuli_target_trianglesquares.svg	26	yes	44	1	426	6	4	antiphase_hc_sio.wav	1	6	3	noise_calib_stim_LEFT.wav	1	24	blb_dichoticlistening_ka-ta.mp3	ka	ta	1	left
6.6.1	win	2023-07-07	14:08:32	14:23:18	879368	5fb70808c7c7bb1d76c2b9d4	2	1	main_z	24	advance_on_keypress_ZEE	154	stimuli_distractor_trianglediamonds.svg	stimuli_target_trianglesquares.svg	26	yes	57	0	233	6	4	antiphase_hc_sio.wav	1	6	3	noise_calib_stim_LEFT.wav	1	24	blb_dichoticlistening_ka-ta.mp3	ka	ta	1	left
6.6.1	win	2023-07-07	14:08:32	14:23:20	880646	5fb70808c7c7bb1d76c2b9d4	2	1	main_z	24	main_z	155	stimuli_target_squaretriangles.svg	stimuli_distractor_trianglediamonds.svg	3	yes	44	1	405	6	4	antiphase_hc_sio.wav	1	6	3	noise_calib_stim_LEFT.wav	1	24	blb_dichoticlistening_ka-ta.mp3	ka	ta	1	left
6.6.1	win	2023-07-07	14:08:32	14:23:20	880646	5fb70808c7c7bb1d76c2b9d4	2	1	main_z	24	advance_on_keypress_ZEE	156	stimuli_target_squaretriangles.svg	stimuli_distractor_trianglediamonds.svg	3	yes	57	0	181	6	4	antiphase_hc_sio.wav	1	6	3	noise_calib_stim_LEFT.wav	1	24	blb_dichoticlistening_ka-ta.mp3	ka	ta	1	left
6.6.1	win	2023-07-07	14:08:32	14:23:21	881900	5fb70808c7c7bb1d76c2b9d4	2	1	main_z	24	main_z	157	stimuli_distractor_diamondtriangles.svg	stimuli_target_rectangletriangles.svg	13	yes	44	1	426	6	4	antiphase_hc_sio.wav	1	6	3	noise_calib_stim_LEFT.wav	1	24	blb_dichoticlistening_ka-ta.mp3	ka	ta	1	left
6.6.1	win	2023-07-07	14:08:32	14:23:21	881900	5fb70808c7c7bb1d76c2b9d4	2	1	main_z	24	advance_on_keypress_ZEE	158	stimuli_distractor_diamondtriangles.svg	stimuli_target_rectangletriangles.svg	13	yes	57	0	170	6	4	antiphase_hc_sio.wav	1	6	3	noise_calib_stim_LEFT.wav	1	24	blb_dichoticlistening_ka-ta.mp3	ka	ta	1	left
6.6.1	win	2023-07-07	14:08:32	14:23:22	883066	5fb70808c7c7bb1d76c2b9d4	2	1	main_z	24	main_z	159	stimuli_distractor_trianglediamonds.svg	stimuli_target_diamondsquares.svg	28	yes	44	1	361	6	4	antiphase_hc_sio.wav	1	6	3	noise_calib_stim_LEFT.wav	1	24	blb_dichoticlistening_ka-ta.mp3	ka	ta	1	left
6.6.1	win	2023-07-07	14:08:32	14:23:22	883066	5fb70808c7c7bb1d76c2b9d4	2	1	main_z	24	advance_on_keypress_ZEE	160	stimuli_distractor_trianglediamonds.svg	stimuli_target_diamondsquares.svg	28	yes	57	0	202	6	4	antiphase_hc_sio.wav	1	6	3	noise_calib_stim_LEFT.wav	1	24	blb_dichoticlistening_ka-ta.mp3	ka	ta	1	left
6.6.1	win	2023-07-07	14:08:32	14:23:52	913540	5fb70808c7c7bb1d76c2b9d4	2	1	practice_slash	26	practice_slash	1	stimuli_distractor_trianglediamonds.svg	stimuli_distractor_diamondtriangles.svg	16	no	53	0	339	6	4	antiphase_hc_sio.wav	1	6	3	noise_calib_stim_LEFT.wav	1	24	blb_dichoticlistening_ka-ta.mp3	ka	ta	1	left
6.6.1	win	2023-07-07	14:08:32	14:23:52	913540	5fb70808c7c7bb1d76c2b9d4	2	1	practice_slash	26	advance_on_keypress_SLASH	2	stimuli_distractor_trianglediamonds.svg	stimuli_distractor_diamondtriangles.svg	16	no	57	0	939	6	4	antiphase_hc_sio.wav	1	6	3	noise_calib_stim_LEFT.wav	1	24	blb_dichoticlistening_ka-ta.mp3	ka	ta	1	left
6.6.1	win	2023-07-07	14:08:32	14:23:56	916584	5fb70808c7c7bb1d76c2b9d4	2	1	practice_slash	26	practice_slash	3	stimuli_distractor_trianglediamonds.svg	stimuli_target_diamondrectangles.svg	12	yes	53	1	467	6	4	antiphase_hc_sio.wav	1	6	3	noise_calib_stim_LEFT.wav	1	24	blb_dichoticlistening_ka-ta.mp3	ka	ta	1	left
6.6.1	win	2023-07-07	14:08:32	14:23:56	916584	5fb70808c7c7bb1d76c2b9d4	2	1	practice_slash	26	advance_on_keypress_SLASH	4	stimuli_distractor_trianglediamonds.svg	stimuli_target_diamondrectangles.svg	12	yes	57	0	456	6	4	antiphase_hc_sio.wav	1	6	3	noise_calib_stim_LEFT.wav	1	24	blb_dichoticlistening_ka-ta.mp3	ka	ta	1	left
6.6.1	win	2023-07-07	14:08:32	14:23:58	919202	5fb70808c7c7bb1d76c2b9d4	2	1	practice_slash	26	practice_slash	5	stimuli_distractor_diamondtriangles.svg	stimuli_distractor_trianglediamonds.svg	14	no	53	0	523	6	4	antiphase_hc_sio.wav	1	6	3	noise_calib_stim_LEFT.wav	1	24	blb_dichoticlistening_ka-ta.mp3	ka	ta	1	left
6.6.1	win	2023-07-07	14:08:32	14:23:58	919202	5fb70808c7c7bb1d76c2b9d4	2	1	practice_slash	26	advance_on_keypress_SLASH	6	stimuli_distractor_diamondtriangles.svg	stimuli_distractor_trianglediamonds.svg	14	no	57	0	1244	6	4	antiphase_hc_sio.wav	1	6	3	noise_calib_stim_LEFT.wav	1	24	blb_dichoticlistening_ka-ta.mp3	ka	ta	1	left
6.6.1	win	2023-07-07	14:08:32	14:24:01	922465	5fb70808c7c7bb1d76c2b9d4	2	1	practice_slash	26	practice_slash	7	stimuli_target_squarediamonds.svg	stimuli_distractor_trianglediamonds.svg	5	yes	53	1	384	6	4	antiphase_hc_sio.wav	1	6	3	noise_calib_stim_LEFT.wav	1	24	blb_dichoticlistening_ka-ta.mp3	ka	ta	1	left
6.6.1	win	2023-07-07	14:08:32	14:24:01	922465	5fb70808c7c7bb1d76c2b9d4	2	1	practice_slash	26	advance_on_keypress_SLASH	8	stimuli_target_squarediamonds.svg	stimuli_distractor_trianglediamonds.svg	5	yes	57	0	424	6	4	antiphase_hc_sio.wav	1	6	3	noise_calib_stim_LEFT.wav	1	24	blb_dichoticlistening_ka-ta.mp3	ka	ta	1	left
6.6.1	win	2023-07-07	14:08:32	14:24:05	926526	5fb70808c7c7bb1d76c2b9d4	2	1	practice_slash	26	practice_slash	9	stimuli_distractor_diamondtriangles.svg	stimuli_distractor_diamondtriangles.svg	13	no	0	1	2000	6	4	antiphase_hc_sio.wav	1	6	3	noise_calib_stim_LEFT.wav	1	24	blb_dichoticlistening_ka-ta.mp3	ka	ta	1	left
6.6.1	win	2023-07-07	14:08:32	14:24:05	926526	5fb70808c7c7bb1d76c2b9d4	2	1	practice_slash	26	advance_on_keypress_SLASH	10	stimuli_distractor_diamondtriangles.svg	stimuli_distractor_diamondtriangles.svg	13	no	57	0	442	6	4	antiphase_hc_sio.wav	1	6	3	noise_calib_stim_LEFT.wav	1	24	blb_dichoticlistening_ka-ta.mp3	ka	ta	1	left
6.6.1	win	2023-07-07	14:08:32	14:24:08	929035	5fb70808c7c7bb1d76c2b9d4	2	1	practice_slash	26	practice_slash	11	stimuli_distractor_trianglediamonds.svg	stimuli_target_rectanglediamonds.svg	10	yes	53	1	430	6	4	antiphase_hc_sio.wav	1	6	3	noise_calib_stim_LEFT.wav	1	24	blb_dichoticlistening_ka-ta.mp3	ka	ta	1	left
6.6.1	win	2023-07-07	14:08:32	14:24:08	929035	5fb70808c7c7bb1d76c2b9d4	2	1	practice_slash	26	advance_on_keypress_SLASH	12	stimuli_distractor_trianglediamonds.svg	stimuli_target_rectanglediamonds.svg	10	yes	57	0	522	6	4	antiphase_hc_sio.wav	1	6	3	noise_calib_stim_LEFT.wav	1	24	blb_dichoticlistening_ka-ta.mp3	ka	ta	1	left
6.6.1	win	2023-07-07	14:08:32	14:24:11	931587	5fb70808c7c7bb1d76c2b9d4	2	1	practice_slash	26	practice_slash	13	stimuli_target_rectanglediamonds.svg	stimuli_distractor_diamondtriangles.svg	1	yes	53	1	379	6	4	antiphase_hc_sio.wav	1	6	3	noise_calib_stim_LEFT.wav	1	24	blb_dichoticlistening_ka-ta.mp3	ka	ta	1	left
6.6.1	win	2023-07-07	14:08:32	14:24:11	931587	5fb70808c7c7bb1d76c2b9d4	2	1	practice_slash	26	advance_on_keypress_SLASH	14	stimuli_target_rectanglediamonds.svg	stimuli_distractor_diamondtriangles.svg	1	yes	57	0	330	6	4	antiphase_hc_sio.wav	1	6	3	noise_calib_stim_LEFT.wav	1	24	blb_dichoticlistening_ka-ta.mp3	ka	ta	1	left
6.6.1	win	2023-07-07	14:08:32	14:24:13	933931	5fb70808c7c7bb1d76c2b9d4	2	1	practice_slash	26	practice_slash	15	stimuli_target_squarediamonds.svg	stimuli_distractor_diamondtriangles.svg	2	yes	53	1	363	6	4	antiphase_hc_sio.wav	1	6	3	noise_calib_stim_LEFT.wav	1	24	blb_dichoticlistening_ka-ta.mp3	ka	ta	1	left
6.6.1	win	2023-07-07	14:08:32	14:24:13	933931	5fb70808c7c7bb1d76c2b9d4	2	1	practice_slash	26	advance_on_keypress_SLASH	16	stimuli_target_squarediamonds.svg	stimuli_distractor_diamondtriangles.svg	2	yes	57	0	338	6	4	antiphase_hc_sio.wav	1	6	3	noise_calib_stim_LEFT.wav	1	24	blb_dichoticlistening_ka-ta.mp3	ka	ta	1	left
6.6.1	win	2023-07-07	14:08:32	14:24:15	936311	5fb70808c7c7bb1d76c2b9d4	2	1	practice_slash	26	practice_slash	17	stimuli_distractor_diamondtriangles.svg	stimuli_target_rectangletriangles.svg	7	yes	53	1	395	6	4	antiphase_hc_sio.wav	1	6	3	noise_calib_stim_LEFT.wav	1	24	blb_dichoticlistening_ka-ta.mp3	ka	ta	1	left
6.6.1	win	2023-07-07	14:08:32	14:24:15	936311	5fb70808c7c7bb1d76c2b9d4	2	1	practice_slash	26	advance_on_keypress_SLASH	18	stimuli_distractor_diamondtriangles.svg	stimuli_target_rectangletriangles.svg	7	yes	57	0	330	6	4	antiphase_hc_sio.wav	1	6	3	noise_calib_stim_LEFT.wav	1	24	blb_dichoticlistening_ka-ta.mp3	ka	ta	1	left
6.6.1	win	2023-07-07	14:08:32	14:24:18	938867	5fb70808c7c7bb1d76c2b9d4	2	1	practice_slash	26	practice_slash	19	stimuli_target_diamondsquares.svg	stimuli_distractor_trianglediamonds.svg	6	yes	53	1	603	6	4	antiphase_hc_sio.wav	1	6	3	noise_calib_stim_LEFT.wav	1	24	blb_dichoticlistening_ka-ta.mp3	ka	ta	1	left
6.6.1	win	2023-07-07	14:08:32	14:24:18	938867	5fb70808c7c7bb1d76c2b9d4	2	1	practice_slash	26	advance_on_keypress_SLASH	20	stimuli_target_diamondsquares.svg	stimuli_distractor_trianglediamonds.svg	6	yes	57	0	258	6	4	antiphase_hc_sio.wav	1	6	3	noise_calib_stim_LEFT.wav	1	24	blb_dichoticlistening_ka-ta.mp3	ka	ta	1	left
