build	computer.platform	date	time	timestamp	time_elapsed_ms	subject	group	session	blockcode	blocknum	trialcode	trialnum	stimulus_left	stimulus_right	stim_index	target_present	response	correct	latency	headphonecheck_countTestTrials	headphonecheck_index	headphonecheck_testSound	headphonecheck_correctResponse	stereocheck_countTestTrials	stereocheck_index	stereocheck_testSound	stereocheck_correctResponse	DL_index	DL_soundfile	DL_leftSound	DL_rightSound	DL_dualSound	DL_choice
6.6.0	win	2023-06-02	03:10:37	03:13:28	166628	5f20c7843957f61f62c58bb6	3	1	practice_slash	5	practice_slash	1	stimuli_distractor_diamondtriangles.svg	stimuli_distractor_trianglediamonds.svg	14	no	0	1	2000	0	0			0	0			1				0	
6.6.0	win	2023-06-02	03:10:37	03:13:28	166628	5f20c7843957f61f62c58bb6	3	1	practice_slash	5	advance_on_keypress_SLASH	2	stimuli_distractor_diamondtriangles.svg	stimuli_distractor_trianglediamonds.svg	14	no	57	0	1764	0	0			0	0			1				0	
6.6.0	win	2023-06-02	03:10:37	03:13:33	172040	5f20c7843957f61f62c58bb6	3	1	practice_slash	5	practice_slash	3	stimuli_target_squarediamonds.svg	stimuli_distractor_diamondtriangles.svg	2	yes	0	0	2000	0	0			0	0			1				0	
6.6.0	win	2023-06-02	03:10:37	03:13:33	172040	5f20c7843957f61f62c58bb6	3	1	practice_slash	5	advance_on_keypress_SLASH	4	stimuli_target_squarediamonds.svg	stimuli_distractor_diamondtriangles.svg	2	yes	57	0	2003	0	0			0	0			1				0	
6.6.0	win	2023-06-02	03:10:37	03:13:37	176193	5f20c7843957f61f62c58bb6	3	1	practice_slash	5	practice_slash	5	stimuli_distractor_diamondtriangles.svg	stimuli_target_diamondrectangles.svg	8	yes	53	1	506	0	0			0	0			1				0	
6.6.0	win	2023-06-02	03:10:37	03:13:37	176193	5f20c7843957f61f62c58bb6	3	1	practice_slash	5	advance_on_keypress_SLASH	6	stimuli_distractor_diamondtriangles.svg	stimuli_target_diamondrectangles.svg	8	yes	57	0	1749	0	0			0	0			1				0	
6.6.0	win	2023-06-02	03:10:37	03:13:41	180014	5f20c7843957f61f62c58bb6	3	1	practice_slash	5	practice_slash	7	stimuli_distractor_diamondtriangles.svg	stimuli_distractor_diamondtriangles.svg	13	no	53	0	417	0	0			0	0			1				0	
6.6.0	win	2023-06-02	03:10:37	03:13:41	180014	5f20c7843957f61f62c58bb6	3	1	practice_slash	5	advance_on_keypress_SLASH	8	stimuli_distractor_diamondtriangles.svg	stimuli_distractor_diamondtriangles.svg	13	no	57	0	973	0	0			0	0			1				0	
6.6.0	win	2023-06-02	03:10:37	03:13:44	183094	5f20c7843957f61f62c58bb6	3	1	practice_slash	5	practice_slash	9	stimuli_target_rectanglediamonds.svg	stimuli_distractor_trianglediamonds.svg	4	yes	53	1	467	0	0			0	0			1				0	
6.6.0	win	2023-06-02	03:10:37	03:13:44	183094	5f20c7843957f61f62c58bb6	3	1	practice_slash	5	advance_on_keypress_SLASH	10	stimuli_target_rectanglediamonds.svg	stimuli_distractor_trianglediamonds.svg	4	yes	57	0	582	0	0			0	0			1				0	
6.6.0	win	2023-06-02	03:10:37	03:13:47	185652	5f20c7843957f61f62c58bb6	3	1	practice_slash	5	practice_slash	11	stimuli_distractor_trianglediamonds.svg	stimuli_target_diamondrectangles.svg	12	yes	53	1	328	0	0			0	0			1				0	
6.6.0	win	2023-06-02	03:10:37	03:13:47	185652	5f20c7843957f61f62c58bb6	3	1	practice_slash	5	advance_on_keypress_SLASH	12	stimuli_distractor_trianglediamonds.svg	stimuli_target_diamondrectangles.svg	12	yes	57	0	906	0	0			0	0			1				0	
6.6.0	win	2023-06-02	03:10:37	03:13:49	188512	5f20c7843957f61f62c58bb6	3	1	practice_slash	5	practice_slash	13	stimuli_distractor_trianglediamonds.svg	stimuli_target_squarediamonds.svg	11	yes	53	1	306	0	0			0	0			1				0	
6.6.0	win	2023-06-02	03:10:37	03:13:49	188512	5f20c7843957f61f62c58bb6	3	1	practice_slash	5	advance_on_keypress_SLASH	14	stimuli_distractor_trianglediamonds.svg	stimuli_target_squarediamonds.svg	11	yes	57	0	515	0	0			0	0			1				0	
6.6.0	win	2023-06-02	03:10:37	03:13:54	192670	5f20c7843957f61f62c58bb6	3	1	practice_slash	5	practice_slash	15	stimuli_target_diamondsquares.svg	stimuli_distractor_trianglediamonds.svg	6	yes	0	0	2000	0	0			0	0			1				0	
6.6.0	win	2023-06-02	03:10:37	03:13:54	192670	5f20c7843957f61f62c58bb6	3	1	practice_slash	5	advance_on_keypress_SLASH	16	stimuli_target_diamondsquares.svg	stimuli_distractor_trianglediamonds.svg	6	yes	57	0	567	0	0			0	0			1				0	
6.6.0	win	2023-06-02	03:10:37	03:13:56	195284	5f20c7843957f61f62c58bb6	3	1	practice_slash	5	practice_slash	17	stimuli_target_rectanglediamonds.svg	stimuli_distractor_diamondtriangles.svg	1	yes	53	1	401	0	0			0	0			1				0	
6.6.0	win	2023-06-02	03:10:37	03:13:56	195284	5f20c7843957f61f62c58bb6	3	1	practice_slash	5	advance_on_keypress_SLASH	18	stimuli_target_rectanglediamonds.svg	stimuli_distractor_diamondtriangles.svg	1	yes	57	0	581	0	0			0	0			1				0	
6.6.0	win	2023-06-02	03:10:37	03:13:59	198226	5f20c7843957f61f62c58bb6	3	1	practice_slash	5	practice_slash	19	stimuli_distractor_trianglediamonds.svg	stimuli_distractor_trianglediamonds.svg	15	no	53	0	711	0	0			0	0			1				0	
6.6.0	win	2023-06-02	03:10:37	03:13:59	198226	5f20c7843957f61f62c58bb6	3	1	practice_slash	5	advance_on_keypress_SLASH	20	stimuli_distractor_trianglediamonds.svg	stimuli_distractor_trianglediamonds.svg	15	no	57	0	725	0	0			0	0			1				0	
6.6.0	win	2023-06-02	03:10:37	03:14:02	200918	5f20c7843957f61f62c58bb6	3	1	practice_slash	5	practice_slash	21	stimuli_distractor_trianglediamonds.svg	stimuli_target_rectanglediamonds.svg	10	yes	53	1	324	0	0			0	0			1				0	
6.6.0	win	2023-06-02	03:10:37	03:14:02	200918	5f20c7843957f61f62c58bb6	3	1	practice_slash	5	advance_on_keypress_SLASH	22	stimuli_distractor_trianglediamonds.svg	stimuli_target_rectanglediamonds.svg	10	yes	57	0	477	0	0			0	0			1				0	
6.6.0	win	2023-06-02	03:10:37	03:14:06	205042	5f20c7843957f61f62c58bb6	3	1	practice_slash	5	practice_slash	23	stimuli_distractor_trianglediamonds.svg	stimuli_distractor_diamondtriangles.svg	16	no	0	1	2000	0	0			0	0			1				0	
6.6.0	win	2023-06-02	03:10:37	03:14:06	205042	5f20c7843957f61f62c58bb6	3	1	practice_slash	5	advance_on_keypress_SLASH	24	stimuli_distractor_trianglediamonds.svg	stimuli_distractor_diamondtriangles.svg	16	no	57	0	516	0	0			0	0			1				0	
6.6.0	win	2023-06-02	03:10:37	03:14:09	207860	5f20c7843957f61f62c58bb6	3	1	practice_slash	5	practice_slash	25	stimuli_distractor_diamondtriangles.svg	stimuli_target_rectangletriangles.svg	7	yes	53	1	656	0	0			0	0			1				0	
6.6.0	win	2023-06-02	03:10:37	03:14:09	207860	5f20c7843957f61f62c58bb6	3	1	practice_slash	5	advance_on_keypress_SLASH	26	stimuli_distractor_diamondtriangles.svg	stimuli_target_rectangletriangles.svg	7	yes	57	0	790	0	0			0	0			1				0	
6.6.0	win	2023-06-02	03:10:37	03:14:12	210564	5f20c7843957f61f62c58bb6	3	1	practice_slash	5	practice_slash	27	stimuli_target_squarediamonds.svg	stimuli_distractor_trianglediamonds.svg	5	yes	53	1	280	0	0			0	0			1				0	
6.6.0	win	2023-06-02	03:10:37	03:14:12	210564	5f20c7843957f61f62c58bb6	3	1	practice_slash	5	advance_on_keypress_SLASH	28	stimuli_target_squarediamonds.svg	stimuli_distractor_trianglediamonds.svg	5	yes	57	0	936	0	0			0	0			1				0	
6.6.0	win	2023-06-02	03:10:37	03:14:14	213373	5f20c7843957f61f62c58bb6	3	1	practice_slash	5	practice_slash	29	stimuli_distractor_diamondtriangles.svg	stimuli_target_trianglerectangles.svg	9	yes	53	1	224	0	0			0	0			1				0	
6.6.0	win	2023-06-02	03:10:37	03:14:14	213373	5f20c7843957f61f62c58bb6	3	1	practice_slash	5	advance_on_keypress_SLASH	30	stimuli_distractor_diamondtriangles.svg	stimuli_target_trianglerectangles.svg	9	yes	57	0	578	0	0			0	0			1				0	
6.6.0	win	2023-06-02	03:10:37	03:14:19	217580	5f20c7843957f61f62c58bb6	3	1	practice_slash	5	practice_slash	31	stimuli_target_diamondsquares.svg	stimuli_distractor_diamondtriangles.svg	3	yes	0	0	2000	0	0			0	0			1				0	
6.6.0	win	2023-06-02	03:10:37	03:14:19	217580	5f20c7843957f61f62c58bb6	3	1	practice_slash	5	advance_on_keypress_SLASH	32	stimuli_target_diamondsquares.svg	stimuli_distractor_diamondtriangles.svg	3	yes	57	0	527	0	0			0	0			1				0	
6.6.0	win	2023-06-02	03:10:37	03:14:27	225774	5f20c7843957f61f62c58bb6	3	1	main_slash	7	main_slash	1	stimuli_target_squarediamonds.svg	stimuli_distractor_diamondtriangles.svg	8	yes	53	1	523	0	0			0	0			1				0	
6.6.0	win	2023-06-02	03:10:37	03:14:27	225774	5f20c7843957f61f62c58bb6	3	1	main_slash	7	advance_on_keypress_SLASH	2	stimuli_target_squarediamonds.svg	stimuli_distractor_diamondtriangles.svg	8	yes	57	0	3078	0	0			0	0			1				0	
6.6.0	win	2023-06-02	03:10:37	03:14:31	229692	5f20c7843957f61f62c58bb6	3	1	main_slash	7	main_slash	3	stimuli_distractor_trianglediamonds.svg	stimuli_target_squaretriangles.svg	11	yes	53	1	195	0	0			0	0			1				0	
6.6.0	win	2023-06-02	03:10:37	03:14:31	229692	5f20c7843957f61f62c58bb6	3	1	main_slash	7	advance_on_keypress_SLASH	4	stimuli_distractor_trianglediamonds.svg	stimuli_target_squaretriangles.svg	11	yes	57	0	748	0	0			0	0			1				0	
6.6.0	win	2023-06-02	03:10:37	03:14:32	231188	5f20c7843957f61f62c58bb6	3	1	main_slash	7	main_slash	5	stimuli_distractor_diamondtriangles.svg	stimuli_target_diamondsquares.svg	32	yes	53	1	92	0	0			0	0			1				0	
6.6.0	win	2023-06-02	03:10:37	03:14:32	231188	5f20c7843957f61f62c58bb6	3	1	main_slash	7	advance_on_keypress_SLASH	6	stimuli_distractor_diamondtriangles.svg	stimuli_target_diamondsquares.svg	32	yes	57	0	630	0	0			0	0			1				0	
6.6.0	win	2023-06-02	03:10:37	03:14:35	234461	5f20c7843957f61f62c58bb6	3	1	main_slash	7	main_slash	7	stimuli_distractor_trianglediamonds.svg	stimuli_target_trianglerectangles.svg	25	yes	0	0	2000	0	0			0	0			1				0	
6.6.0	win	2023-06-02	03:10:37	03:14:35	234461	5f20c7843957f61f62c58bb6	3	1	main_slash	7	advance_on_keypress_SLASH	8	stimuli_distractor_trianglediamonds.svg	stimuli_target_trianglerectangles.svg	25	yes	57	0	774	0	0			0	0			1				0	
6.6.0	win	2023-06-02	03:10:37	03:14:37	236353	5f20c7843957f61f62c58bb6	3	1	main_slash	7	main_slash	9	stimuli_distractor_trianglediamonds.svg	stimuli_target_trianglesquares.svg	26	yes	53	1	478	0	0			0	0			1				0	
6.6.0	win	2023-06-02	03:10:37	03:14:37	236353	5f20c7843957f61f62c58bb6	3	1	main_slash	7	advance_on_keypress_SLASH	10	stimuli_distractor_trianglediamonds.svg	stimuli_target_trianglesquares.svg	26	yes	57	0	708	0	0			0	0			1				0	
6.6.0	win	2023-06-02	03:10:37	03:14:39	238025	5f20c7843957f61f62c58bb6	3	1	main_slash	7	main_slash	11	stimuli_distractor_diamondtriangles.svg	stimuli_target_squaretriangles.svg	15	yes	53	1	319	0	0			0	0			1				0	
6.6.0	win	2023-06-02	03:10:37	03:14:39	238025	5f20c7843957f61f62c58bb6	3	1	main_slash	7	advance_on_keypress_SLASH	12	stimuli_distractor_diamondtriangles.svg	stimuli_target_squaretriangles.svg	15	yes	57	0	678	0	0			0	0			1				0	
6.6.0	win	2023-06-02	03:10:37	03:14:42	241355	5f20c7843957f61f62c58bb6	3	1	main_slash	7	main_slash	13	stimuli_distractor_trianglediamonds.svg	stimuli_distractor_diamondtriangles.svg	35	no	0	1	2000	0	0			0	0			1				0	
6.6.0	win	2023-06-02	03:10:37	03:14:42	241355	5f20c7843957f61f62c58bb6	3	1	main_slash	7	advance_on_keypress_SLASH	14	stimuli_distractor_trianglediamonds.svg	stimuli_distractor_diamondtriangles.svg	35	no	57	0	543	0	0			0	0			1				0	
6.6.0	win	2023-06-02	03:10:37	03:14:44	243187	5f20c7843957f61f62c58bb6	3	1	main_slash	7	main_slash	15	stimuli_distractor_diamondtriangles.svg	stimuli_target_diamondrectangles.svg	31	yes	53	1	652	0	0			0	0			1				0	
6.6.0	win	2023-06-02	03:10:37	03:14:44	243187	5f20c7843957f61f62c58bb6	3	1	main_slash	7	advance_on_keypress_SLASH	16	stimuli_distractor_diamondtriangles.svg	stimuli_target_diamondrectangles.svg	31	yes	57	0	764	0	0			0	0			1				0	
6.6.0	win	2023-06-02	03:10:37	03:14:46	244878	5f20c7843957f61f62c58bb6	3	1	main_slash	7	main_slash	17	stimuli_distractor_diamondtriangles.svg	stimuli_target_trianglesquares.svg	30	yes	53	1	278	0	0			0	0			1				0	
6.6.0	win	2023-06-02	03:10:37	03:14:46	244878	5f20c7843957f61f62c58bb6	3	1	main_slash	7	advance_on_keypress_SLASH	18	stimuli_distractor_diamondtriangles.svg	stimuli_target_trianglesquares.svg	30	yes	57	0	675	0	0			0	0			1				0	
6.6.0	win	2023-06-02	03:10:37	03:14:47	246482	5f20c7843957f61f62c58bb6	3	1	main_slash	7	main_slash	19	stimuli_target_squaretriangles.svg	stimuli_distractor_diamondtriangles.svg	7	yes	53	1	300	0	0			0	0			1				0	
6.6.0	win	2023-06-02	03:10:37	03:14:47	246482	5f20c7843957f61f62c58bb6	3	1	main_slash	7	advance_on_keypress_SLASH	20	stimuli_target_squaretriangles.svg	stimuli_distractor_diamondtriangles.svg	7	yes	57	0	675	0	0			0	0			1				0	
6.6.0	win	2023-06-02	03:10:37	03:14:49	248085	5f20c7843957f61f62c58bb6	3	1	main_slash	7	main_slash	21	stimuli_target_rectanglediamonds.svg	stimuli_distractor_trianglediamonds.svg	2	yes	53	1	288	0	0			0	0			1				0	
6.6.0	win	2023-06-02	03:10:37	03:14:49	248085	5f20c7843957f61f62c58bb6	3	1	main_slash	7	advance_on_keypress_SLASH	22	stimuli_target_rectanglediamonds.svg	stimuli_distractor_trianglediamonds.svg	2	yes	57	0	612	0	0			0	0			1				0	
6.6.0	win	2023-06-02	03:10:37	03:14:51	249565	5f20c7843957f61f62c58bb6	3	1	main_slash	7	main_slash	23	stimuli_target_diamondsquares.svg	stimuli_distractor_diamondtriangles.svg	24	yes	53	1	220	0	0			0	0			1				0	
6.6.0	win	2023-06-02	03:10:37	03:14:51	249565	5f20c7843957f61f62c58bb6	3	1	main_slash	7	advance_on_keypress_SLASH	24	stimuli_target_diamondsquares.svg	stimuli_distractor_diamondtriangles.svg	24	yes	57	0	702	0	0			0	0			1				0	
6.6.0	win	2023-06-02	03:10:37	03:14:54	252911	5f20c7843957f61f62c58bb6	3	1	main_slash	7	main_slash	25	stimuli_target_diamondsquares.svg	stimuli_distractor_trianglediamonds.svg	20	yes	0	0	2000	0	0			0	0			1				0	
6.6.0	win	2023-06-02	03:10:37	03:14:54	252911	5f20c7843957f61f62c58bb6	3	1	main_slash	7	advance_on_keypress_SLASH	26	stimuli_target_diamondsquares.svg	stimuli_distractor_trianglediamonds.svg	20	yes	57	0	619	0	0			0	0			1				0	
6.6.0	win	2023-06-02	03:10:37	03:14:55	254413	5f20c7843957f61f62c58bb6	3	1	main_slash	7	main_slash	27	stimuli_distractor_trianglediamonds.svg	stimuli_distractor_trianglediamonds.svg	33	no	53	0	239	0	0			0	0			1				0	
6.6.0	win	2023-06-02	03:10:37	03:14:55	254413	5f20c7843957f61f62c58bb6	3	1	main_slash	7	advance_on_keypress_SLASH	28	stimuli_distractor_trianglediamonds.svg	stimuli_distractor_trianglediamonds.svg	33	no	57	0	713	0	0			0	0			1				0	
6.6.0	win	2023-06-02	03:10:37	03:14:59	257773	5f20c7843957f61f62c58bb6	3	1	main_slash	7	main_slash	29	stimuli_target_diamondrectangles.svg	stimuli_distractor_diamondtriangles.svg	23	yes	0	0	2000	0	0			0	0			1				0	
6.6.0	win	2023-06-02	03:10:37	03:14:59	257773	5f20c7843957f61f62c58bb6	3	1	main_slash	7	advance_on_keypress_SLASH	30	stimuli_target_diamondrectangles.svg	stimuli_distractor_diamondtriangles.svg	23	yes	57	0	617	0	0			0	0			1				0	
6.6.0	win	2023-06-02	03:10:37	03:15:00	259292	5f20c7843957f61f62c58bb6	3	1	main_slash	7	main_slash	31	stimuli_target_trianglerectangles.svg	stimuli_distractor_diamondtriangles.svg	21	yes	53	1	256	0	0			0	0			1				0	
6.6.0	win	2023-06-02	03:10:37	03:15:00	259292	5f20c7843957f61f62c58bb6	3	1	main_slash	7	advance_on_keypress_SLASH	32	stimuli_target_trianglerectangles.svg	stimuli_distractor_diamondtriangles.svg	21	yes	57	0	677	0	0			0	0			1				0	
6.6.0	win	2023-06-02	03:10:37	03:15:02	261179	5f20c7843957f61f62c58bb6	3	1	main_slash	7	main_slash	33	stimuli_distractor_trianglediamonds.svg	stimuli_target_squarediamonds.svg	12	yes	53	1	577	0	0			0	0			1				0	
6.6.0	win	2023-06-02	03:10:37	03:15:02	261179	5f20c7843957f61f62c58bb6	3	1	main_slash	7	advance_on_keypress_SLASH	34	stimuli_distractor_trianglediamonds.svg	stimuli_target_squarediamonds.svg	12	yes	57	0	758	0	0			0	0			1				0	
6.6.0	win	2023-06-02	03:10:37	03:15:04	262793	5f20c7843957f61f62c58bb6	3	1	main_slash	7	main_slash	35	stimuli_target_diamondrectangles.svg	stimuli_distractor_trianglediamonds.svg	19	yes	53	1	226	0	0			0	0			1				0	
6.6.0	win	2023-06-02	03:10:37	03:15:04	262793	5f20c7843957f61f62c58bb6	3	1	main_slash	7	advance_on_keypress_SLASH	36	stimuli_target_diamondrectangles.svg	stimuli_distractor_trianglediamonds.svg	19	yes	57	0	764	0	0			0	0			1				0	
6.6.0	win	2023-06-02	03:10:37	03:15:05	264244	5f20c7843957f61f62c58bb6	3	1	main_slash	7	main_slash	37	stimuli_distractor_trianglediamonds.svg	stimuli_distractor_diamondtriangles.svg	36	no	53	0	46	0	0			0	0			1				0	
6.6.0	win	2023-06-02	03:10:37	03:15:05	264244	5f20c7843957f61f62c58bb6	3	1	main_slash	7	advance_on_keypress_SLASH	38	stimuli_distractor_trianglediamonds.svg	stimuli_distractor_diamondtriangles.svg	36	no	57	0	664	0	0			0	0			1				0	
6.6.0	win	2023-06-02	03:10:37	03:15:07	265674	5f20c7843957f61f62c58bb6	3	1	main_slash	7	main_slash	39	stimuli_distractor_trianglediamonds.svg	stimuli_distractor_trianglediamonds.svg	34	no	53	0	110	0	0			0	0			1				0	
6.6.0	win	2023-06-02	03:10:37	03:15:07	265674	5f20c7843957f61f62c58bb6	3	1	main_slash	7	advance_on_keypress_SLASH	40	stimuli_distractor_trianglediamonds.svg	stimuli_distractor_trianglediamonds.svg	34	no	57	0	567	0	0			0	0			1				0	
6.6.0	win	2023-06-02	03:10:37	03:15:08	266969	5f20c7843957f61f62c58bb6	3	1	main_slash	7	main_slash	41	stimuli_distractor_diamondtriangles.svg	stimuli_distractor_diamondtriangles.svg	40	no	53	0	90	0	0			0	0			1				0	
6.6.0	win	2023-06-02	03:10:37	03:15:08	266969	5f20c7843957f61f62c58bb6	3	1	main_slash	7	advance_on_keypress_SLASH	42	stimuli_distractor_diamondtriangles.svg	stimuli_distractor_diamondtriangles.svg	40	no	57	0	588	0	0			0	0			1				0	
6.6.0	win	2023-06-02	03:10:37	03:15:09	268459	5f20c7843957f61f62c58bb6	3	1	main_slash	7	main_slash	43	stimuli_distractor_diamondtriangles.svg	stimuli_target_trianglerectangles.svg	29	yes	53	1	265	0	0			0	0			1				0	
6.6.0	win	2023-06-02	03:10:37	03:15:09	268459	5f20c7843957f61f62c58bb6	3	1	main_slash	7	advance_on_keypress_SLASH	44	stimuli_distractor_diamondtriangles.svg	stimuli_target_trianglerectangles.svg	29	yes	57	0	515	0	0			0	0			1				0	
6.6.0	win	2023-06-02	03:10:37	03:15:11	269764	5f20c7843957f61f62c58bb6	3	1	main_slash	7	main_slash	45	stimuli_target_trianglesquares.svg	stimuli_distractor_diamondtriangles.svg	22	yes	53	1	138	0	0			0	0			1				0	
6.6.0	win	2023-06-02	03:10:37	03:15:11	269764	5f20c7843957f61f62c58bb6	3	1	main_slash	7	advance_on_keypress_SLASH	46	stimuli_target_trianglesquares.svg	stimuli_distractor_diamondtriangles.svg	22	yes	57	0	583	0	0			0	0			1				0	
6.6.0	win	2023-06-02	03:10:37	03:15:14	272992	5f20c7843957f61f62c58bb6	3	1	main_slash	7	main_slash	47	stimuli_target_rectangletriangles.svg	stimuli_distractor_diamondtriangles.svg	5	yes	0	0	2000	0	0			0	0			1				0	
6.6.0	win	2023-06-02	03:10:37	03:15:14	272992	5f20c7843957f61f62c58bb6	3	1	main_slash	7	advance_on_keypress_SLASH	48	stimuli_target_rectangletriangles.svg	stimuli_distractor_diamondtriangles.svg	5	yes	57	0	885	0	0			0	0			1				0	
6.6.0	win	2023-06-02	03:10:37	03:15:16	274661	5f20c7843957f61f62c58bb6	3	1	main_slash	7	main_slash	49	stimuli_target_squarediamonds.svg	stimuli_distractor_trianglediamonds.svg	4	yes	53	1	139	0	0			0	0			1				0	
6.6.0	win	2023-06-02	03:10:37	03:15:16	274661	5f20c7843957f61f62c58bb6	3	1	main_slash	7	advance_on_keypress_SLASH	50	stimuli_target_squarediamonds.svg	stimuli_distractor_trianglediamonds.svg	4	yes	57	0	774	0	0			0	0			1				0	
6.6.0	win	2023-06-02	03:10:37	03:15:17	276309	5f20c7843957f61f62c58bb6	3	1	main_slash	7	main_slash	51	stimuli_distractor_diamondtriangles.svg	stimuli_distractor_trianglediamonds.svg	38	no	53	0	239	0	0			0	0			1				0	
6.6.0	win	2023-06-02	03:10:37	03:15:17	276309	5f20c7843957f61f62c58bb6	3	1	main_slash	7	advance_on_keypress_SLASH	52	stimuli_distractor_diamondtriangles.svg	stimuli_distractor_trianglediamonds.svg	38	no	57	0	646	0	0			0	0			1				0	
6.6.0	win	2023-06-02	03:10:37	03:15:19	277817	5f20c7843957f61f62c58bb6	3	1	main_slash	7	main_slash	53	stimuli_target_rectangletriangles.svg	stimuli_distractor_trianglediamonds.svg	1	yes	53	1	215	0	0			0	0			1				0	
6.6.0	win	2023-06-02	03:10:37	03:15:19	277817	5f20c7843957f61f62c58bb6	3	1	main_slash	7	advance_on_keypress_SLASH	54	stimuli_target_rectangletriangles.svg	stimuli_distractor_trianglediamonds.svg	1	yes	57	0	711	0	0			0	0			1				0	
6.6.0	win	2023-06-02	03:10:37	03:15:20	279319	5f20c7843957f61f62c58bb6	3	1	main_slash	7	main_slash	55	stimuli_target_trianglesquares.svg	stimuli_distractor_trianglediamonds.svg	18	yes	53	1	152	0	0			0	0			1				0	
6.6.0	win	2023-06-02	03:10:37	03:15:20	279319	5f20c7843957f61f62c58bb6	3	1	main_slash	7	advance_on_keypress_SLASH	56	stimuli_target_trianglesquares.svg	stimuli_distractor_trianglediamonds.svg	18	yes	57	0	585	0	0			0	0			1				0	
6.6.0	win	2023-06-02	03:10:37	03:15:22	280779	5f20c7843957f61f62c58bb6	3	1	main_slash	7	main_slash	57	stimuli_target_rectanglediamonds.svg	stimuli_distractor_diamondtriangles.svg	6	yes	53	1	228	0	0			0	0			1				0	
6.6.0	win	2023-06-02	03:10:37	03:15:22	280779	5f20c7843957f61f62c58bb6	3	1	main_slash	7	advance_on_keypress_SLASH	58	stimuli_target_rectanglediamonds.svg	stimuli_distractor_diamondtriangles.svg	6	yes	57	0	757	0	0			0	0			1				0	
6.6.0	win	2023-06-02	03:10:37	03:15:23	282353	5f20c7843957f61f62c58bb6	3	1	main_slash	7	main_slash	59	stimuli_distractor_trianglediamonds.svg	stimuli_target_diamondrectangles.svg	27	yes	53	1	172	0	0			0	0			1				0	
6.6.0	win	2023-06-02	03:10:37	03:15:23	282353	5f20c7843957f61f62c58bb6	3	1	main_slash	7	advance_on_keypress_SLASH	60	stimuli_distractor_trianglediamonds.svg	stimuli_target_diamondrectangles.svg	27	yes	57	0	699	0	0			0	0			1				0	
6.6.0	win	2023-06-02	03:10:37	03:15:25	284029	5f20c7843957f61f62c58bb6	3	1	main_slash	7	main_slash	61	stimuli_target_squaretriangles.svg	stimuli_distractor_trianglediamonds.svg	3	yes	53	1	332	0	0			0	0			1				0	
6.6.0	win	2023-06-02	03:10:37	03:15:25	284029	5f20c7843957f61f62c58bb6	3	1	main_slash	7	advance_on_keypress_SLASH	62	stimuli_target_squaretriangles.svg	stimuli_distractor_trianglediamonds.svg	3	yes	57	0	662	0	0			0	0			1				0	
6.6.0	win	2023-06-02	03:10:37	03:15:27	285567	5f20c7843957f61f62c58bb6	3	1	main_slash	7	main_slash	63	stimuli_distractor_trianglediamonds.svg	stimuli_target_rectanglediamonds.svg	10	yes	53	1	222	0	0			0	0			1				0	
6.6.0	win	2023-06-02	03:10:37	03:15:27	285567	5f20c7843957f61f62c58bb6	3	1	main_slash	7	advance_on_keypress_SLASH	64	stimuli_distractor_trianglediamonds.svg	stimuli_target_rectanglediamonds.svg	10	yes	57	0	661	0	0			0	0			1				0	
6.6.0	win	2023-06-02	03:10:37	03:15:28	286894	5f20c7843957f61f62c58bb6	3	1	main_slash	7	main_slash	65	stimuli_distractor_diamondtriangles.svg	stimuli_target_rectangletriangles.svg	13	yes	53	1	34	0	0			0	0			1				0	
6.6.0	win	2023-06-02	03:10:37	03:15:28	286894	5f20c7843957f61f62c58bb6	3	1	main_slash	7	advance_on_keypress_SLASH	66	stimuli_distractor_diamondtriangles.svg	stimuli_target_rectangletriangles.svg	13	yes	57	0	877	0	0			0	0			1				0	
6.6.0	win	2023-06-02	03:10:37	03:15:30	288631	5f20c7843957f61f62c58bb6	3	1	main_slash	7	main_slash	67	stimuli_distractor_diamondtriangles.svg	stimuli_distractor_diamondtriangles.svg	39	no	53	0	222	0	0			0	0			1				0	
6.6.0	win	2023-06-02	03:10:37	03:15:30	288631	5f20c7843957f61f62c58bb6	3	1	main_slash	7	advance_on_keypress_SLASH	68	stimuli_distractor_diamondtriangles.svg	stimuli_distractor_diamondtriangles.svg	39	no	57	0	581	0	0			0	0			1				0	
6.6.0	win	2023-06-02	03:10:37	03:15:31	290141	5f20c7843957f61f62c58bb6	3	1	main_slash	7	main_slash	69	stimuli_distractor_diamondtriangles.svg	stimuli_distractor_trianglediamonds.svg	37	no	53	0	283	0	0			0	0			1				0	
6.6.0	win	2023-06-02	03:10:37	03:15:31	290141	5f20c7843957f61f62c58bb6	3	1	main_slash	7	advance_on_keypress_SLASH	70	stimuli_distractor_diamondtriangles.svg	stimuli_distractor_trianglediamonds.svg	37	no	57	0	692	0	0			0	0			1				0	
6.6.0	win	2023-06-02	03:10:37	03:15:32	291482	5f20c7843957f61f62c58bb6	3	1	main_slash	7	main_slash	71	stimuli_distractor_diamondtriangles.svg	stimuli_target_squarediamonds.svg	16	yes	53	1	9	0	0			0	0			1				0	
6.6.0	win	2023-06-02	03:10:37	03:15:32	291482	5f20c7843957f61f62c58bb6	3	1	main_slash	7	advance_on_keypress_SLASH	72	stimuli_distractor_diamondtriangles.svg	stimuli_target_squarediamonds.svg	16	yes	57	0	757	0	0			0	0			1				0	
6.6.0	win	2023-06-02	03:10:37	03:15:34	293085	5f20c7843957f61f62c58bb6	3	1	main_slash	7	main_slash	73	stimuli_distractor_diamondtriangles.svg	stimuli_target_rectanglediamonds.svg	14	yes	53	1	214	0	0			0	0			1				0	
6.6.0	win	2023-06-02	03:10:37	03:15:34	293085	5f20c7843957f61f62c58bb6	3	1	main_slash	7	advance_on_keypress_SLASH	74	stimuli_distractor_diamondtriangles.svg	stimuli_target_rectanglediamonds.svg	14	yes	57	0	680	0	0			0	0			1				0	
6.6.0	win	2023-06-02	03:10:37	03:15:35	294439	5f20c7843957f61f62c58bb6	3	1	main_slash	7	main_slash	75	stimuli_target_trianglerectangles.svg	stimuli_distractor_trianglediamonds.svg	17	yes	53	1	19	0	0			0	0			1				0	
6.6.0	win	2023-06-02	03:10:37	03:15:35	294439	5f20c7843957f61f62c58bb6	3	1	main_slash	7	advance_on_keypress_SLASH	76	stimuli_target_trianglerectangles.svg	stimuli_distractor_trianglediamonds.svg	17	yes	57	0	684	0	0			0	0			1				0	
6.6.0	win	2023-06-02	03:10:37	03:15:37	295878	5f20c7843957f61f62c58bb6	3	1	main_slash	7	main_slash	77	stimuli_distractor_trianglediamonds.svg	stimuli_target_rectangletriangles.svg	9	yes	53	1	109	0	0			0	0			1				0	
6.6.0	win	2023-06-02	03:10:37	03:15:37	295878	5f20c7843957f61f62c58bb6	3	1	main_slash	7	advance_on_keypress_SLASH	78	stimuli_distractor_trianglediamonds.svg	stimuli_target_rectangletriangles.svg	9	yes	57	0	673	0	0			0	0			1				0	
6.6.0	win	2023-06-02	03:10:37	03:15:38	297243	5f20c7843957f61f62c58bb6	3	1	main_slash	7	main_slash	79	stimuli_distractor_trianglediamonds.svg	stimuli_target_diamondsquares.svg	28	yes	53	1	59	0	0			0	0			1				0	
6.6.0	win	2023-06-02	03:10:37	03:15:38	297243	5f20c7843957f61f62c58bb6	3	1	main_slash	7	advance_on_keypress_SLASH	80	stimuli_distractor_trianglediamonds.svg	stimuli_target_diamondsquares.svg	28	yes	57	0	719	0	0			0	0			1				0	
6.6.0	win	2023-06-02	03:10:37	03:15:40	298613	5f20c7843957f61f62c58bb6	3	1	main_slash	7	main_slash	81	stimuli_distractor_diamondtriangles.svg	stimuli_target_rectanglediamonds.svg	14	yes	53	1	14	0	0			0	0			1				0	
6.6.0	win	2023-06-02	03:10:37	03:15:40	298613	5f20c7843957f61f62c58bb6	3	1	main_slash	7	advance_on_keypress_SLASH	82	stimuli_distractor_diamondtriangles.svg	stimuli_target_rectanglediamonds.svg	14	yes	57	0	696	0	0			0	0			1				0	
6.6.0	win	2023-06-02	03:10:37	03:15:41	300106	5f20c7843957f61f62c58bb6	3	1	main_slash	7	main_slash	83	stimuli_target_trianglesquares.svg	stimuli_distractor_diamondtriangles.svg	22	yes	53	1	141	0	0			0	0			1				0	
6.6.0	win	2023-06-02	03:10:37	03:15:41	300106	5f20c7843957f61f62c58bb6	3	1	main_slash	7	advance_on_keypress_SLASH	84	stimuli_target_trianglesquares.svg	stimuli_distractor_diamondtriangles.svg	22	yes	57	0	632	0	0			0	0			1				0	
6.6.0	win	2023-06-02	03:10:37	03:15:42	301533	5f20c7843957f61f62c58bb6	3	1	main_slash	7	main_slash	85	stimuli_target_rectangletriangles.svg	stimuli_distractor_diamondtriangles.svg	5	yes	53	1	152	0	0			0	0			1				0	
6.6.0	win	2023-06-02	03:10:37	03:15:42	301533	5f20c7843957f61f62c58bb6	3	1	main_slash	7	advance_on_keypress_SLASH	86	stimuli_target_rectangletriangles.svg	stimuli_distractor_diamondtriangles.svg	5	yes	57	0	706	0	0			0	0			1				0	
6.6.0	win	2023-06-02	03:10:37	03:15:44	303197	5f20c7843957f61f62c58bb6	3	1	main_slash	7	main_slash	87	stimuli_target_trianglerectangles.svg	stimuli_distractor_diamondtriangles.svg	21	yes	53	1	317	0	0			0	0			1				0	
6.6.0	win	2023-06-02	03:10:37	03:15:44	303197	5f20c7843957f61f62c58bb6	3	1	main_slash	7	advance_on_keypress_SLASH	88	stimuli_target_trianglerectangles.svg	stimuli_distractor_diamondtriangles.svg	21	yes	57	0	634	0	0			0	0			1				0	
6.6.0	win	2023-06-02	03:10:37	03:15:46	304709	5f20c7843957f61f62c58bb6	3	1	main_slash	7	main_slash	89	stimuli_distractor_diamondtriangles.svg	stimuli_target_diamondsquares.svg	32	yes	53	1	232	0	0			0	0			1				0	
6.6.0	win	2023-06-02	03:10:37	03:15:46	304709	5f20c7843957f61f62c58bb6	3	1	main_slash	7	advance_on_keypress_SLASH	90	stimuli_distractor_diamondtriangles.svg	stimuli_target_diamondsquares.svg	32	yes	57	0	620	0	0			0	0			1				0	
6.6.0	win	2023-06-02	03:10:37	03:15:47	306070	5f20c7843957f61f62c58bb6	3	1	main_slash	7	main_slash	91	stimuli_distractor_diamondtriangles.svg	stimuli_distractor_diamondtriangles.svg	39	no	53	0	94	0	0			0	0			1				0	
6.6.0	win	2023-06-02	03:10:37	03:15:47	306070	5f20c7843957f61f62c58bb6	3	1	main_slash	7	advance_on_keypress_SLASH	92	stimuli_distractor_diamondtriangles.svg	stimuli_distractor_diamondtriangles.svg	39	no	57	0	785	0	0			0	0			1				0	
6.6.0	win	2023-06-02	03:10:37	03:15:50	309491	5f20c7843957f61f62c58bb6	3	1	main_slash	7	main_slash	93	stimuli_distractor_trianglediamonds.svg	stimuli_target_rectanglediamonds.svg	10	yes	0	0	2000	0	0			0	0			1				0	
6.6.0	win	2023-06-02	03:10:37	03:15:50	309491	5f20c7843957f61f62c58bb6	3	1	main_slash	7	advance_on_keypress_SLASH	94	stimuli_distractor_trianglediamonds.svg	stimuli_target_rectanglediamonds.svg	10	yes	57	0	855	0	0			0	0			1				0	
6.6.0	win	2023-06-02	03:10:37	03:15:54	312988	5f20c7843957f61f62c58bb6	3	1	main_slash	7	main_slash	95	stimuli_target_diamondsquares.svg	stimuli_distractor_diamondtriangles.svg	24	yes	0	0	2000	0	0			0	0			1				0	
6.6.0	win	2023-06-02	03:10:37	03:15:54	312988	5f20c7843957f61f62c58bb6	3	1	main_slash	7	advance_on_keypress_SLASH	96	stimuli_target_diamondsquares.svg	stimuli_distractor_diamondtriangles.svg	24	yes	57	0	98	0	0			0	0			1				0	
6.6.0	win	2023-06-02	03:10:37	03:15:55	314230	5f20c7843957f61f62c58bb6	3	1	main_slash	7	main_slash	97	stimuli_distractor_trianglediamonds.svg	stimuli_distractor_trianglediamonds.svg	33	no	53	0	495	0	0			0	0			1				0	
6.6.0	win	2023-06-02	03:10:37	03:15:55	314230	5f20c7843957f61f62c58bb6	3	1	main_slash	7	advance_on_keypress_SLASH	98	stimuli_distractor_trianglediamonds.svg	stimuli_distractor_trianglediamonds.svg	33	no	57	0	935	0	0			0	0			1				0	
6.6.0	win	2023-06-02	03:10:37	03:15:57	316064	5f20c7843957f61f62c58bb6	3	1	main_slash	7	main_slash	99	stimuli_distractor_diamondtriangles.svg	stimuli_target_squarediamonds.svg	16	yes	53	1	264	0	0			0	0			1				0	
6.6.0	win	2023-06-02	03:10:37	03:15:57	316064	5f20c7843957f61f62c58bb6	3	1	main_slash	7	advance_on_keypress_SLASH	100	stimuli_distractor_diamondtriangles.svg	stimuli_target_squarediamonds.svg	16	yes	57	0	876	0	0			0	0			1				0	
6.6.0	win	2023-06-02	03:10:37	03:16:01	319582	5f20c7843957f61f62c58bb6	3	1	main_slash	7	main_slash	101	stimuli_distractor_diamondtriangles.svg	stimuli_target_trianglesquares.svg	30	yes	0	0	2000	0	0			0	0			1				0	
6.6.0	win	2023-06-02	03:10:37	03:16:01	319582	5f20c7843957f61f62c58bb6	3	1	main_slash	7	advance_on_keypress_SLASH	102	stimuli_distractor_diamondtriangles.svg	stimuli_target_trianglesquares.svg	30	yes	57	0	1305	0	0			0	0			1				0	
6.6.0	win	2023-06-02	03:10:37	03:16:03	321762	5f20c7843957f61f62c58bb6	3	1	main_slash	7	main_slash	103	stimuli_target_trianglerectangles.svg	stimuli_distractor_trianglediamonds.svg	17	yes	53	1	234	0	0			0	0			1				0	
6.6.0	win	2023-06-02	03:10:37	03:16:03	321762	5f20c7843957f61f62c58bb6	3	1	main_slash	7	advance_on_keypress_SLASH	104	stimuli_target_trianglerectangles.svg	stimuli_distractor_trianglediamonds.svg	17	yes	57	0	700	0	0			0	0			1				0	
6.6.0	win	2023-06-02	03:10:37	03:16:04	323468	5f20c7843957f61f62c58bb6	3	1	main_slash	7	main_slash	105	stimuli_distractor_diamondtriangles.svg	stimuli_target_squaretriangles.svg	15	yes	53	1	358	0	0			0	0			1				0	
6.6.0	win	2023-06-02	03:10:37	03:16:04	323468	5f20c7843957f61f62c58bb6	3	1	main_slash	7	advance_on_keypress_SLASH	106	stimuli_distractor_diamondtriangles.svg	stimuli_target_squaretriangles.svg	15	yes	57	0	733	0	0			0	0			1				0	
6.6.0	win	2023-06-02	03:10:37	03:16:08	326841	5f20c7843957f61f62c58bb6	3	1	main_slash	7	main_slash	107	stimuli_distractor_diamondtriangles.svg	stimuli_target_diamondrectangles.svg	31	yes	0	0	2000	0	0			0	0			1				0	
6.6.0	win	2023-06-02	03:10:37	03:16:08	326841	5f20c7843957f61f62c58bb6	3	1	main_slash	7	advance_on_keypress_SLASH	108	stimuli_distractor_diamondtriangles.svg	stimuli_target_diamondrectangles.svg	31	yes	57	0	607	0	0			0	0			1				0	
6.6.0	win	2023-06-02	03:10:37	03:16:09	328332	5f20c7843957f61f62c58bb6	3	1	main_slash	7	main_slash	109	stimuli_target_diamondrectangles.svg	stimuli_distractor_diamondtriangles.svg	23	yes	53	1	244	0	0			0	0			1				0	
6.6.0	win	2023-06-02	03:10:37	03:16:09	328332	5f20c7843957f61f62c58bb6	3	1	main_slash	7	advance_on_keypress_SLASH	110	stimuli_target_diamondrectangles.svg	stimuli_distractor_diamondtriangles.svg	23	yes	57	0	645	0	0			0	0			1				0	
6.6.0	win	2023-06-02	03:10:37	03:16:13	331620	5f20c7843957f61f62c58bb6	3	1	main_slash	7	main_slash	111	stimuli_target_rectanglediamonds.svg	stimuli_distractor_diamondtriangles.svg	6	yes	0	0	2000	0	0			0	0			1				0	
6.6.0	win	2023-06-02	03:10:37	03:16:13	331620	5f20c7843957f61f62c58bb6	3	1	main_slash	7	advance_on_keypress_SLASH	112	stimuli_target_rectanglediamonds.svg	stimuli_distractor_diamondtriangles.svg	6	yes	57	0	740	0	0			0	0			1				0	
6.6.0	win	2023-06-02	03:10:37	03:16:14	333257	5f20c7843957f61f62c58bb6	3	1	main_slash	7	main_slash	113	stimuli_distractor_trianglediamonds.svg	stimuli_distractor_diamondtriangles.svg	36	no	53	0	256	0	0			0	0			1				0	
6.6.0	win	2023-06-02	03:10:37	03:16:14	333257	5f20c7843957f61f62c58bb6	3	1	main_slash	7	advance_on_keypress_SLASH	114	stimuli_distractor_trianglediamonds.svg	stimuli_distractor_diamondtriangles.svg	36	no	57	0	837	0	0			0	0			1				0	
6.6.0	win	2023-06-02	03:10:37	03:16:18	336732	5f20c7843957f61f62c58bb6	3	1	main_slash	7	main_slash	115	stimuli_distractor_diamondtriangles.svg	stimuli_distractor_trianglediamonds.svg	37	no	0	1	2000	0	0			0	0			1				0	
6.6.0	win	2023-06-02	03:10:37	03:16:18	336732	5f20c7843957f61f62c58bb6	3	1	main_slash	7	advance_on_keypress_SLASH	116	stimuli_distractor_diamondtriangles.svg	stimuli_distractor_trianglediamonds.svg	37	no	57	0	840	0	0			0	0			1				0	
6.6.0	win	2023-06-02	03:10:37	03:16:19	338465	5f20c7843957f61f62c58bb6	3	1	main_slash	7	main_slash	117	stimuli_target_squaretriangles.svg	stimuli_distractor_trianglediamonds.svg	3	yes	53	1	252	0	0			0	0			1				0	
6.6.0	win	2023-06-02	03:10:37	03:16:19	338465	5f20c7843957f61f62c58bb6	3	1	main_slash	7	advance_on_keypress_SLASH	118	stimuli_target_squaretriangles.svg	stimuli_distractor_trianglediamonds.svg	3	yes	57	0	616	0	0			0	0			1				0	
6.6.0	win	2023-06-02	03:10:37	03:16:23	341728	5f20c7843957f61f62c58bb6	3	1	main_slash	7	main_slash	119	stimuli_target_squarediamonds.svg	stimuli_distractor_trianglediamonds.svg	4	yes	0	0	2000	0	0			0	0			1				0	
6.6.0	win	2023-06-02	03:10:37	03:16:23	341728	5f20c7843957f61f62c58bb6	3	1	main_slash	7	advance_on_keypress_SLASH	120	stimuli_target_squarediamonds.svg	stimuli_distractor_trianglediamonds.svg	4	yes	57	0	450	0	0			0	0			1				0	
6.6.0	win	2023-06-02	03:10:37	03:16:24	343010	5f20c7843957f61f62c58bb6	3	1	main_slash	7	main_slash	121	stimuli_distractor_trianglediamonds.svg	stimuli_target_diamondsquares.svg	28	yes	53	1	185	0	0			0	0			1				0	
6.6.0	win	2023-06-02	03:10:37	03:16:24	343010	5f20c7843957f61f62c58bb6	3	1	main_slash	7	advance_on_keypress_SLASH	122	stimuli_distractor_trianglediamonds.svg	stimuli_target_diamondsquares.svg	28	yes	57	0	1154	0	0			0	0			1				0	
6.6.0	win	2023-06-02	03:10:37	03:16:26	345057	5f20c7843957f61f62c58bb6	3	1	main_slash	7	main_slash	123	stimuli_distractor_trianglediamonds.svg	stimuli_target_rectangletriangles.svg	9	yes	53	1	251	0	0			0	0			1				0	
6.6.0	win	2023-06-02	03:10:37	03:16:26	345057	5f20c7843957f61f62c58bb6	3	1	main_slash	7	advance_on_keypress_SLASH	124	stimuli_distractor_trianglediamonds.svg	stimuli_target_rectangletriangles.svg	9	yes	57	0	765	0	0			0	0			1				0	
6.6.0	win	2023-06-02	03:10:37	03:16:29	348471	5f20c7843957f61f62c58bb6	3	1	main_slash	7	main_slash	125	stimuli_distractor_diamondtriangles.svg	stimuli_distractor_diamondtriangles.svg	40	no	0	1	2000	0	0			0	0			1				0	
6.6.0	win	2023-06-02	03:10:37	03:16:29	348471	5f20c7843957f61f62c58bb6	3	1	main_slash	7	advance_on_keypress_SLASH	126	stimuli_distractor_diamondtriangles.svg	stimuli_distractor_diamondtriangles.svg	40	no	57	0	129	0	0			0	0			1				0	
6.6.0	win	2023-06-02	03:10:37	03:16:31	349787	5f20c7843957f61f62c58bb6	3	1	main_slash	7	main_slash	127	stimuli_target_squarediamonds.svg	stimuli_distractor_diamondtriangles.svg	8	yes	53	1	552	0	0			0	0			1				0	
6.6.0	win	2023-06-02	03:10:37	03:16:31	349787	5f20c7843957f61f62c58bb6	3	1	main_slash	7	advance_on_keypress_SLASH	128	stimuli_target_squarediamonds.svg	stimuli_distractor_diamondtriangles.svg	8	yes	57	0	1305	0	0			0	0			1				0	
6.6.0	win	2023-06-02	03:10:37	03:16:33	352085	5f20c7843957f61f62c58bb6	3	1	main_slash	7	main_slash	129	stimuli_distractor_trianglediamonds.svg	stimuli_distractor_trianglediamonds.svg	34	no	53	0	352	0	0			0	0			1				0	
6.6.0	win	2023-06-02	03:10:37	03:16:33	352085	5f20c7843957f61f62c58bb6	3	1	main_slash	7	advance_on_keypress_SLASH	130	stimuli_distractor_trianglediamonds.svg	stimuli_distractor_trianglediamonds.svg	34	no	57	0	688	0	0			0	0			1				0	
6.6.0	win	2023-06-02	03:10:37	03:16:35	353692	5f20c7843957f61f62c58bb6	3	1	main_slash	7	main_slash	131	stimuli_distractor_diamondtriangles.svg	stimuli_target_trianglerectangles.svg	29	yes	53	1	277	0	0			0	0			1				0	
6.6.0	win	2023-06-02	03:10:37	03:16:35	353692	5f20c7843957f61f62c58bb6	3	1	main_slash	7	advance_on_keypress_SLASH	132	stimuli_distractor_diamondtriangles.svg	stimuli_target_trianglerectangles.svg	29	yes	57	0	683	0	0			0	0			1				0	
6.6.0	win	2023-06-02	03:10:37	03:16:36	355436	5f20c7843957f61f62c58bb6	3	1	main_slash	7	main_slash	133	stimuli_distractor_trianglediamonds.svg	stimuli_target_trianglerectangles.svg	25	yes	53	1	422	0	0			0	0			1				0	
6.6.0	win	2023-06-02	03:10:37	03:16:36	355436	5f20c7843957f61f62c58bb6	3	1	main_slash	7	advance_on_keypress_SLASH	134	stimuli_distractor_trianglediamonds.svg	stimuli_target_trianglerectangles.svg	25	yes	57	0	797	0	0			0	0			1				0	
6.6.0	win	2023-06-02	03:10:37	03:16:38	357046	5f20c7843957f61f62c58bb6	3	1	main_slash	7	main_slash	135	stimuli_target_rectangletriangles.svg	stimuli_distractor_trianglediamonds.svg	1	yes	53	1	168	0	0			0	0			1				0	
6.6.0	win	2023-06-02	03:10:37	03:16:38	357046	5f20c7843957f61f62c58bb6	3	1	main_slash	7	advance_on_keypress_SLASH	136	stimuli_target_rectangletriangles.svg	stimuli_distractor_trianglediamonds.svg	1	yes	57	0	843	0	0			0	0			1				0	
6.6.0	win	2023-06-02	03:10:37	03:16:40	358696	5f20c7843957f61f62c58bb6	3	1	main_slash	7	main_slash	137	stimuli_distractor_diamondtriangles.svg	stimuli_target_rectangletriangles.svg	13	yes	53	1	171	0	0			0	0			1				0	
6.6.0	win	2023-06-02	03:10:37	03:16:40	358696	5f20c7843957f61f62c58bb6	3	1	main_slash	7	advance_on_keypress_SLASH	138	stimuli_distractor_diamondtriangles.svg	stimuli_target_rectangletriangles.svg	13	yes	57	0	725	0	0			0	0			1				0	
6.6.0	win	2023-06-02	03:10:37	03:16:41	360286	5f20c7843957f61f62c58bb6	3	1	main_slash	7	main_slash	139	stimuli_distractor_trianglediamonds.svg	stimuli_target_squaretriangles.svg	11	yes	53	1	228	0	0			0	0			1				0	
6.6.0	win	2023-06-02	03:10:37	03:16:41	360286	5f20c7843957f61f62c58bb6	3	1	main_slash	7	advance_on_keypress_SLASH	140	stimuli_distractor_trianglediamonds.svg	stimuli_target_squaretriangles.svg	11	yes	57	0	790	0	0			0	0			1				0	
6.6.0	win	2023-06-02	03:10:37	03:16:43	361798	5f20c7843957f61f62c58bb6	3	1	main_slash	7	main_slash	141	stimuli_target_trianglesquares.svg	stimuli_distractor_trianglediamonds.svg	18	yes	53	1	91	0	0			0	0			1				0	
6.6.0	win	2023-06-02	03:10:37	03:16:43	361798	5f20c7843957f61f62c58bb6	3	1	main_slash	7	advance_on_keypress_SLASH	142	stimuli_target_trianglesquares.svg	stimuli_distractor_trianglediamonds.svg	18	yes	57	0	713	0	0			0	0			1				0	
6.6.0	win	2023-06-02	03:10:37	03:16:44	363182	5f20c7843957f61f62c58bb6	3	1	main_slash	7	main_slash	143	stimuli_target_squaretriangles.svg	stimuli_distractor_diamondtriangles.svg	7	yes	53	1	26	0	0			0	0			1				0	
6.6.0	win	2023-06-02	03:10:37	03:16:44	363182	5f20c7843957f61f62c58bb6	3	1	main_slash	7	advance_on_keypress_SLASH	144	stimuli_target_squaretriangles.svg	stimuli_distractor_diamondtriangles.svg	7	yes	57	0	762	0	0			0	0			1				0	
6.6.0	win	2023-06-02	03:10:37	03:16:46	364621	5f20c7843957f61f62c58bb6	3	1	main_slash	7	main_slash	145	stimuli_target_diamondsquares.svg	stimuli_distractor_trianglediamonds.svg	20	yes	53	1	33	0	0			0	0			1				0	
6.6.0	win	2023-06-02	03:10:37	03:16:46	364621	5f20c7843957f61f62c58bb6	3	1	main_slash	7	advance_on_keypress_SLASH	146	stimuli_target_diamondsquares.svg	stimuli_distractor_trianglediamonds.svg	20	yes	57	0	723	0	0			0	0			1				0	
6.6.0	win	2023-06-02	03:10:37	03:16:47	366009	5f20c7843957f61f62c58bb6	3	1	main_slash	7	main_slash	147	stimuli_distractor_trianglediamonds.svg	stimuli_target_diamondrectangles.svg	27	yes	53	1	23	0	0			0	0			1				0	
6.6.0	win	2023-06-02	03:10:37	03:16:47	366009	5f20c7843957f61f62c58bb6	3	1	main_slash	7	advance_on_keypress_SLASH	148	stimuli_distractor_trianglediamonds.svg	stimuli_target_diamondrectangles.svg	27	yes	57	0	724	0	0			0	0			1				0	
6.6.0	win	2023-06-02	03:10:37	03:16:50	369368	5f20c7843957f61f62c58bb6	3	1	main_slash	7	main_slash	149	stimuli_distractor_trianglediamonds.svg	stimuli_target_trianglesquares.svg	26	yes	0	0	2000	0	0			0	0			1				0	
6.6.0	win	2023-06-02	03:10:37	03:16:50	369368	5f20c7843957f61f62c58bb6	3	1	main_slash	7	advance_on_keypress_SLASH	150	stimuli_distractor_trianglediamonds.svg	stimuli_target_trianglesquares.svg	26	yes	57	0	26124	0	0			0	0			1				0	
6.6.0	win	2023-06-02	03:10:37	03:17:18	397505	5f20c7843957f61f62c58bb6	3	1	main_slash	7	main_slash	151	stimuli_target_diamondrectangles.svg	stimuli_distractor_trianglediamonds.svg	19	yes	53	1	1363	0	0			0	0			1				0	
6.6.0	win	2023-06-02	03:10:37	03:17:18	397505	5f20c7843957f61f62c58bb6	3	1	main_slash	7	advance_on_keypress_SLASH	152	stimuli_target_diamondrectangles.svg	stimuli_distractor_trianglediamonds.svg	19	yes	57	0	590	0	0			0	0			1				0	
6.6.0	win	2023-06-02	03:10:37	03:17:20	399073	5f20c7843957f61f62c58bb6	3	1	main_slash	7	main_slash	153	stimuli_target_rectanglediamonds.svg	stimuli_distractor_trianglediamonds.svg	2	yes	53	1	334	0	0			0	0			1				0	
6.6.0	win	2023-06-02	03:10:37	03:17:20	399073	5f20c7843957f61f62c58bb6	3	1	main_slash	7	advance_on_keypress_SLASH	154	stimuli_target_rectanglediamonds.svg	stimuli_distractor_trianglediamonds.svg	2	yes	57	0	573	0	0			0	0			1				0	
6.6.0	win	2023-06-02	03:10:37	03:17:22	400658	5f20c7843957f61f62c58bb6	3	1	main_slash	7	main_slash	155	stimuli_distractor_trianglediamonds.svg	stimuli_target_squarediamonds.svg	12	yes	53	1	369	0	0			0	0			1				0	
6.6.0	win	2023-06-02	03:10:37	03:17:22	400658	5f20c7843957f61f62c58bb6	3	1	main_slash	7	advance_on_keypress_SLASH	156	stimuli_distractor_trianglediamonds.svg	stimuli_target_squarediamonds.svg	12	yes	57	0	623	0	0			0	0			1				0	
6.6.0	win	2023-06-02	03:10:37	03:17:23	402141	5f20c7843957f61f62c58bb6	3	1	main_slash	7	main_slash	157	stimuli_distractor_trianglediamonds.svg	stimuli_distractor_diamondtriangles.svg	35	no	53	0	222	0	0			0	0			1				0	
6.6.0	win	2023-06-02	03:10:37	03:17:23	402141	5f20c7843957f61f62c58bb6	3	1	main_slash	7	advance_on_keypress_SLASH	158	stimuli_distractor_trianglediamonds.svg	stimuli_distractor_diamondtriangles.svg	35	no	57	0	563	0	0			0	0			1				0	
6.6.0	win	2023-06-02	03:10:37	03:17:24	403508	5f20c7843957f61f62c58bb6	3	1	main_slash	7	main_slash	159	stimuli_distractor_diamondtriangles.svg	stimuli_distractor_trianglediamonds.svg	38	no	53	0	157	0	0			0	0			1				0	
6.6.0	win	2023-06-02	03:10:37	03:17:24	403508	5f20c7843957f61f62c58bb6	3	1	main_slash	7	advance_on_keypress_SLASH	160	stimuli_distractor_diamondtriangles.svg	stimuli_distractor_trianglediamonds.svg	38	no	57	0	551	0	0			0	0			1				0	
6.6.0	win	2023-06-02	03:10:37	03:18:25	464215	5f20c7843957f61f62c58bb6	3	1	practice_z	9	practice_z	1	stimuli_distractor_trianglediamonds.svg	stimuli_distractor_diamondtriangles.svg	16	no	44	0	400	0	0			0	0			1				0	
6.6.0	win	2023-06-02	03:10:37	03:18:25	464215	5f20c7843957f61f62c58bb6	3	1	practice_z	9	advance_on_keypress_ZEE	2	stimuli_distractor_trianglediamonds.svg	stimuli_distractor_diamondtriangles.svg	16	no	57	0	845	0	0			0	0			1				0	
6.6.0	win	2023-06-02	03:10:37	03:18:28	466974	5f20c7843957f61f62c58bb6	3	1	practice_z	9	practice_z	3	stimuli_target_rectanglediamonds.svg	stimuli_distractor_diamondtriangles.svg	1	yes	44	1	263	0	0			0	0			1				0	
6.6.0	win	2023-06-02	03:10:37	03:18:28	466974	5f20c7843957f61f62c58bb6	3	1	practice_z	9	advance_on_keypress_ZEE	4	stimuli_target_rectanglediamonds.svg	stimuli_distractor_diamondtriangles.svg	1	yes	57	0	1385	0	0			0	0			1				0	
6.6.0	win	2023-06-02	03:10:37	03:18:31	470195	5f20c7843957f61f62c58bb6	3	1	practice_z	9	practice_z	5	stimuli_distractor_diamondtriangles.svg	stimuli_target_diamondrectangles.svg	8	yes	44	1	186	0	0			0	0			1				0	
6.6.0	win	2023-06-02	03:10:37	03:18:31	470195	5f20c7843957f61f62c58bb6	3	1	practice_z	9	advance_on_keypress_ZEE	6	stimuli_distractor_diamondtriangles.svg	stimuli_target_diamondrectangles.svg	8	yes	57	0	478	0	0			0	0			1				0	
6.6.0	win	2023-06-02	03:10:37	03:18:33	472392	5f20c7843957f61f62c58bb6	3	1	practice_z	9	practice_z	7	stimuli_distractor_diamondtriangles.svg	stimuli_target_trianglerectangles.svg	9	yes	44	1	69	0	0			0	0			1				0	
6.6.0	win	2023-06-02	03:10:37	03:18:33	472392	5f20c7843957f61f62c58bb6	3	1	practice_z	9	advance_on_keypress_ZEE	8	stimuli_distractor_diamondtriangles.svg	stimuli_target_trianglerectangles.svg	9	yes	57	0	565	0	0			0	0			1				0	
6.6.0	win	2023-06-02	03:10:37	03:18:36	474829	5f20c7843957f61f62c58bb6	3	1	practice_z	9	practice_z	9	stimuli_target_rectanglediamonds.svg	stimuli_distractor_trianglediamonds.svg	4	yes	44	1	226	0	0			0	0			1				0	
6.6.0	win	2023-06-02	03:10:37	03:18:36	474829	5f20c7843957f61f62c58bb6	3	1	practice_z	9	advance_on_keypress_ZEE	10	stimuli_target_rectanglediamonds.svg	stimuli_distractor_trianglediamonds.svg	4	yes	57	0	478	0	0			0	0			1				0	
6.6.0	win	2023-06-02	03:10:37	03:18:38	477099	5f20c7843957f61f62c58bb6	3	1	practice_z	9	practice_z	11	stimuli_distractor_trianglediamonds.svg	stimuli_distractor_trianglediamonds.svg	15	no	44	0	130	0	0			0	0			1				0	
6.6.0	win	2023-06-02	03:10:37	03:18:38	477099	5f20c7843957f61f62c58bb6	3	1	practice_z	9	advance_on_keypress_ZEE	12	stimuli_distractor_trianglediamonds.svg	stimuli_distractor_trianglediamonds.svg	15	no	57	0	2037	0	0			0	0			1				0	
6.6.0	win	2023-06-02	03:10:37	03:18:42	480968	5f20c7843957f61f62c58bb6	3	1	practice_z	9	practice_z	13	stimuli_distractor_diamondtriangles.svg	stimuli_target_rectangletriangles.svg	7	yes	44	1	186	0	0			0	0			1				0	
6.6.0	win	2023-06-02	03:10:37	03:18:42	480968	5f20c7843957f61f62c58bb6	3	1	practice_z	9	advance_on_keypress_ZEE	14	stimuli_distractor_diamondtriangles.svg	stimuli_target_rectangletriangles.svg	7	yes	57	0	447	0	0			0	0			1				0	
6.6.0	win	2023-06-02	03:10:37	03:18:44	483291	5f20c7843957f61f62c58bb6	3	1	practice_z	9	practice_z	15	stimuli_target_squarediamonds.svg	stimuli_distractor_diamondtriangles.svg	2	yes	44	1	228	0	0			0	0			1				0	
6.6.0	win	2023-06-02	03:10:37	03:18:44	483291	5f20c7843957f61f62c58bb6	3	1	practice_z	9	advance_on_keypress_ZEE	16	stimuli_target_squarediamonds.svg	stimuli_distractor_diamondtriangles.svg	2	yes	57	0	421	0	0			0	0			1				0	
6.6.0	win	2023-06-02	03:10:37	03:18:46	485462	5f20c7843957f61f62c58bb6	3	1	practice_z	9	practice_z	17	stimuli_target_squarediamonds.svg	stimuli_distractor_trianglediamonds.svg	5	yes	44	1	101	0	0			0	0			1				0	
6.6.0	win	2023-06-02	03:10:37	03:18:46	485462	5f20c7843957f61f62c58bb6	3	1	practice_z	9	advance_on_keypress_ZEE	18	stimuli_target_squarediamonds.svg	stimuli_distractor_trianglediamonds.svg	5	yes	57	0	205	0	0			0	0			1				0	
6.6.0	win	2023-06-02	03:10:37	03:18:48	487503	5f20c7843957f61f62c58bb6	3	1	practice_z	9	practice_z	19	stimuli_distractor_diamondtriangles.svg	stimuli_distractor_trianglediamonds.svg	14	no	44	0	193	0	0			0	0			1				0	
6.6.0	win	2023-06-02	03:10:37	03:18:48	487503	5f20c7843957f61f62c58bb6	3	1	practice_z	9	advance_on_keypress_ZEE	20	stimuli_distractor_diamondtriangles.svg	stimuli_distractor_trianglediamonds.svg	14	no	57	0	38	0	0			0	0			1				0	
6.6.0	win	2023-06-02	03:10:37	03:18:50	489549	5f20c7843957f61f62c58bb6	3	1	practice_z	9	practice_z	21	stimuli_distractor_trianglediamonds.svg	stimuli_target_rectanglediamonds.svg	10	yes	44	1	359	0	0			0	0			1				0	
6.6.0	win	2023-06-02	03:10:37	03:18:50	489549	5f20c7843957f61f62c58bb6	3	1	practice_z	9	advance_on_keypress_ZEE	22	stimuli_distractor_trianglediamonds.svg	stimuli_target_rectanglediamonds.svg	10	yes	57	0	84	0	0			0	0			1				0	
6.6.0	win	2023-06-02	03:10:37	03:18:53	491710	5f20c7843957f61f62c58bb6	3	1	practice_z	9	practice_z	23	stimuli_target_diamondsquares.svg	stimuli_distractor_trianglediamonds.svg	6	yes	44	1	438	0	0			0	0			1				0	
6.6.0	win	2023-06-02	03:10:37	03:18:53	491710	5f20c7843957f61f62c58bb6	3	1	practice_z	9	advance_on_keypress_ZEE	24	stimuli_target_diamondsquares.svg	stimuli_distractor_trianglediamonds.svg	6	yes	57	0	252	0	0			0	0			1				0	
6.6.0	win	2023-06-02	03:10:37	03:18:55	493916	5f20c7843957f61f62c58bb6	3	1	practice_z	9	practice_z	25	stimuli_distractor_diamondtriangles.svg	stimuli_distractor_diamondtriangles.svg	13	no	44	0	313	0	0			0	0			1				0	
6.6.0	win	2023-06-02	03:10:37	03:18:55	493916	5f20c7843957f61f62c58bb6	3	1	practice_z	9	advance_on_keypress_ZEE	26	stimuli_distractor_diamondtriangles.svg	stimuli_distractor_diamondtriangles.svg	13	no	57	0	2366	0	0			0	0			1				0	
6.6.0	win	2023-06-02	03:10:37	03:18:59	498119	5f20c7843957f61f62c58bb6	3	1	practice_z	9	practice_z	27	stimuli_distractor_trianglediamonds.svg	stimuli_target_squarediamonds.svg	11	yes	44	1	187	0	0			0	0			1				0	
6.6.0	win	2023-06-02	03:10:37	03:18:59	498119	5f20c7843957f61f62c58bb6	3	1	practice_z	9	advance_on_keypress_ZEE	28	stimuli_distractor_trianglediamonds.svg	stimuli_target_squarediamonds.svg	11	yes	57	0	558	0	0			0	0			1				0	
6.6.0	win	2023-06-02	03:10:37	03:19:01	500443	5f20c7843957f61f62c58bb6	3	1	practice_z	9	practice_z	29	stimuli_distractor_trianglediamonds.svg	stimuli_target_diamondrectangles.svg	12	yes	44	1	130	0	0			0	0			1				0	
6.6.0	win	2023-06-02	03:10:37	03:19:01	500443	5f20c7843957f61f62c58bb6	3	1	practice_z	9	advance_on_keypress_ZEE	30	stimuli_distractor_trianglediamonds.svg	stimuli_target_diamondrectangles.svg	12	yes	57	0	317	0	0			0	0			1				0	
6.6.0	win	2023-06-02	03:10:37	03:19:04	502606	5f20c7843957f61f62c58bb6	3	1	practice_z	9	practice_z	31	stimuli_target_diamondsquares.svg	stimuli_distractor_diamondtriangles.svg	3	yes	44	1	195	0	0			0	0			1				0	
6.6.0	win	2023-06-02	03:10:37	03:19:04	502606	5f20c7843957f61f62c58bb6	3	1	practice_z	9	advance_on_keypress_ZEE	32	stimuli_target_diamondsquares.svg	stimuli_distractor_diamondtriangles.svg	3	yes	57	0	299	0	0			0	0			1				0	
6.6.0	win	2023-06-02	03:10:37	03:19:08	507254	5f20c7843957f61f62c58bb6	3	1	main_z	11	main_z	1	stimuli_distractor_diamondtriangles.svg	stimuli_distractor_diamondtriangles.svg	39	no	44	0	416	0	0			0	0			1				0	
6.6.0	win	2023-06-02	03:10:37	03:19:08	507254	5f20c7843957f61f62c58bb6	3	1	main_z	11	advance_on_keypress_ZEE	2	stimuli_distractor_diamondtriangles.svg	stimuli_distractor_diamondtriangles.svg	39	no	57	0	1039	0	0			0	0			1				0	
6.6.0	win	2023-06-02	03:10:37	03:19:10	509142	5f20c7843957f61f62c58bb6	3	1	main_z	11	main_z	3	stimuli_target_rectanglediamonds.svg	stimuli_distractor_diamondtriangles.svg	6	yes	44	1	205	0	0			0	0			1				0	
6.6.0	win	2023-06-02	03:10:37	03:19:10	509142	5f20c7843957f61f62c58bb6	3	1	main_z	11	advance_on_keypress_ZEE	4	stimuli_target_rectanglediamonds.svg	stimuli_distractor_diamondtriangles.svg	6	yes	57	0	691	0	0			0	0			1				0	
6.6.0	win	2023-06-02	03:10:37	03:19:11	510530	5f20c7843957f61f62c58bb6	3	1	main_z	11	main_z	5	stimuli_distractor_trianglediamonds.svg	stimuli_target_diamondrectangles.svg	27	yes	44	1	62	0	0			0	0			1				0	
6.6.0	win	2023-06-02	03:10:37	03:19:11	510530	5f20c7843957f61f62c58bb6	3	1	main_z	11	advance_on_keypress_ZEE	6	stimuli_distractor_trianglediamonds.svg	stimuli_target_diamondrectangles.svg	27	yes	57	0	616	0	0			0	0			1				0	
6.6.0	win	2023-06-02	03:10:37	03:19:13	511912	5f20c7843957f61f62c58bb6	3	1	main_z	11	main_z	7	stimuli_distractor_trianglediamonds.svg	stimuli_target_rectanglediamonds.svg	10	yes	44	1	112	0	0			0	0			1				0	
6.6.0	win	2023-06-02	03:10:37	03:19:13	511912	5f20c7843957f61f62c58bb6	3	1	main_z	11	advance_on_keypress_ZEE	8	stimuli_distractor_trianglediamonds.svg	stimuli_target_rectanglediamonds.svg	10	yes	57	0	599	0	0			0	0			1				0	
6.6.0	win	2023-06-02	03:10:37	03:19:14	513323	5f20c7843957f61f62c58bb6	3	1	main_z	11	main_z	9	stimuli_target_squarediamonds.svg	stimuli_distractor_diamondtriangles.svg	8	yes	44	1	158	0	0			0	0			1				0	
6.6.0	win	2023-06-02	03:10:37	03:19:14	513323	5f20c7843957f61f62c58bb6	3	1	main_z	11	advance_on_keypress_ZEE	10	stimuli_target_squarediamonds.svg	stimuli_distractor_diamondtriangles.svg	8	yes	57	0	654	0	0			0	0			1				0	
6.6.0	win	2023-06-02	03:10:37	03:19:16	514651	5f20c7843957f61f62c58bb6	3	1	main_z	11	main_z	11	stimuli_distractor_diamondtriangles.svg	stimuli_distractor_trianglediamonds.svg	37	no	44	0	36	0	0			0	0			1				0	
6.6.0	win	2023-06-02	03:10:37	03:19:16	514651	5f20c7843957f61f62c58bb6	3	1	main_z	11	advance_on_keypress_ZEE	12	stimuli_distractor_diamondtriangles.svg	stimuli_distractor_trianglediamonds.svg	37	no	57	0	634	0	0			0	0			1				0	
6.6.0	win	2023-06-02	03:10:37	03:19:17	516503	5f20c7843957f61f62c58bb6	3	1	main_z	11	main_z	13	stimuli_distractor_diamondtriangles.svg	stimuli_target_rectangletriangles.svg	13	yes	44	1	574	0	0			0	0			1				0	
6.6.0	win	2023-06-02	03:10:37	03:19:17	516503	5f20c7843957f61f62c58bb6	3	1	main_z	11	advance_on_keypress_ZEE	14	stimuli_distractor_diamondtriangles.svg	stimuli_target_rectangletriangles.svg	13	yes	57	0	1053	0	0			0	0			1				0	
6.6.0	win	2023-06-02	03:10:37	03:19:19	518381	5f20c7843957f61f62c58bb6	3	1	main_z	11	main_z	15	stimuli_distractor_diamondtriangles.svg	stimuli_target_trianglesquares.svg	30	yes	44	1	187	0	0			0	0			1				0	
6.6.0	win	2023-06-02	03:10:37	03:19:19	518381	5f20c7843957f61f62c58bb6	3	1	main_z	11	advance_on_keypress_ZEE	16	stimuli_distractor_diamondtriangles.svg	stimuli_target_trianglesquares.svg	30	yes	57	0	679	0	0			0	0			1				0	
6.6.0	win	2023-06-02	03:10:37	03:19:21	519792	5f20c7843957f61f62c58bb6	3	1	main_z	11	main_z	17	stimuli_target_rectangletriangles.svg	stimuli_distractor_trianglediamonds.svg	1	yes	44	1	83	0	0			0	0			1				0	
6.6.0	win	2023-06-02	03:10:37	03:19:21	519792	5f20c7843957f61f62c58bb6	3	1	main_z	11	advance_on_keypress_ZEE	18	stimuli_target_rectangletriangles.svg	stimuli_distractor_trianglediamonds.svg	1	yes	57	0	680	0	0			0	0			1				0	
6.6.0	win	2023-06-02	03:10:37	03:19:22	521351	5f20c7843957f61f62c58bb6	3	1	main_z	11	main_z	19	stimuli_target_trianglerectangles.svg	stimuli_distractor_trianglediamonds.svg	17	yes	44	1	227	0	0			0	0			1				0	
6.6.0	win	2023-06-02	03:10:37	03:19:22	521351	5f20c7843957f61f62c58bb6	3	1	main_z	11	advance_on_keypress_ZEE	20	stimuli_target_trianglerectangles.svg	stimuli_distractor_trianglediamonds.svg	17	yes	57	0	700	0	0			0	0			1				0	
6.6.0	win	2023-06-02	03:10:37	03:19:24	522900	5f20c7843957f61f62c58bb6	3	1	main_z	11	main_z	21	stimuli_distractor_diamondtriangles.svg	stimuli_target_diamondsquares.svg	32	yes	44	1	211	0	0			0	0			1				0	
6.6.0	win	2023-06-02	03:10:37	03:19:24	522900	5f20c7843957f61f62c58bb6	3	1	main_z	11	advance_on_keypress_ZEE	22	stimuli_distractor_diamondtriangles.svg	stimuli_target_diamondsquares.svg	32	yes	57	0	673	0	0			0	0			1				0	
6.6.0	win	2023-06-02	03:10:37	03:19:25	524530	5f20c7843957f61f62c58bb6	3	1	main_z	11	main_z	23	stimuli_distractor_trianglediamonds.svg	stimuli_target_trianglesquares.svg	26	yes	44	1	325	0	0			0	0			1				0	
6.6.0	win	2023-06-02	03:10:37	03:19:25	524530	5f20c7843957f61f62c58bb6	3	1	main_z	11	advance_on_keypress_ZEE	24	stimuli_distractor_trianglediamonds.svg	stimuli_target_trianglesquares.svg	26	yes	57	0	650	0	0			0	0			1				0	
6.6.0	win	2023-06-02	03:10:37	03:19:27	526003	5f20c7843957f61f62c58bb6	3	1	main_z	11	main_z	25	stimuli_distractor_trianglediamonds.svg	stimuli_target_diamondsquares.svg	28	yes	44	1	183	0	0			0	0			1				0	
6.6.0	win	2023-06-02	03:10:37	03:19:27	526003	5f20c7843957f61f62c58bb6	3	1	main_z	11	advance_on_keypress_ZEE	26	stimuli_distractor_trianglediamonds.svg	stimuli_target_diamondsquares.svg	28	yes	57	0	632	0	0			0	0			1				0	
6.6.0	win	2023-06-02	03:10:37	03:19:28	527366	5f20c7843957f61f62c58bb6	3	1	main_z	11	main_z	27	stimuli_target_diamondsquares.svg	stimuli_distractor_trianglediamonds.svg	20	yes	44	1	81	0	0			0	0			1				0	
6.6.0	win	2023-06-02	03:10:37	03:19:28	527366	5f20c7843957f61f62c58bb6	3	1	main_z	11	advance_on_keypress_ZEE	28	stimuli_target_diamondsquares.svg	stimuli_distractor_trianglediamonds.svg	20	yes	57	0	726	0	0			0	0			1				0	
6.6.0	win	2023-06-02	03:10:37	03:19:30	529135	5f20c7843957f61f62c58bb6	3	1	main_z	11	main_z	29	stimuli_distractor_trianglediamonds.svg	stimuli_target_squaretriangles.svg	11	yes	44	1	401	0	0			0	0			1				0	
6.6.0	win	2023-06-02	03:10:37	03:19:30	529135	5f20c7843957f61f62c58bb6	3	1	main_z	11	advance_on_keypress_ZEE	30	stimuli_distractor_trianglediamonds.svg	stimuli_target_squaretriangles.svg	11	yes	57	0	776	0	0			0	0			1				0	
6.6.0	win	2023-06-02	03:10:37	03:19:32	530579	5f20c7843957f61f62c58bb6	3	1	main_z	11	main_z	31	stimuli_target_diamondrectangles.svg	stimuli_distractor_trianglediamonds.svg	19	yes	44	1	30	0	0			0	0			1				0	
6.6.0	win	2023-06-02	03:10:37	03:19:32	530579	5f20c7843957f61f62c58bb6	3	1	main_z	11	advance_on_keypress_ZEE	32	stimuli_target_diamondrectangles.svg	stimuli_distractor_trianglediamonds.svg	19	yes	57	0	681	0	0			0	0			1				0	
6.6.0	win	2023-06-02	03:10:37	03:19:33	532120	5f20c7843957f61f62c58bb6	3	1	main_z	11	main_z	33	stimuli_target_rectanglediamonds.svg	stimuli_distractor_trianglediamonds.svg	2	yes	44	1	206	0	0			0	0			1				0	
6.6.0	win	2023-06-02	03:10:37	03:19:33	532120	5f20c7843957f61f62c58bb6	3	1	main_z	11	advance_on_keypress_ZEE	34	stimuli_target_rectanglediamonds.svg	stimuli_distractor_trianglediamonds.svg	2	yes	57	0	673	0	0			0	0			1				0	
6.6.0	win	2023-06-02	03:10:37	03:19:35	533588	5f20c7843957f61f62c58bb6	3	1	main_z	11	main_z	35	stimuli_target_diamondrectangles.svg	stimuli_distractor_diamondtriangles.svg	23	yes	44	1	159	0	0			0	0			1				0	
6.6.0	win	2023-06-02	03:10:37	03:19:35	533588	5f20c7843957f61f62c58bb6	3	1	main_z	11	advance_on_keypress_ZEE	36	stimuli_target_diamondrectangles.svg	stimuli_distractor_diamondtriangles.svg	23	yes	57	0	778	0	0			0	0			1				0	
6.6.0	win	2023-06-02	03:10:37	03:19:37	535590	5f20c7843957f61f62c58bb6	3	1	main_z	11	main_z	37	stimuli_distractor_diamondtriangles.svg	stimuli_target_diamondrectangles.svg	31	yes	44	1	595	0	0			0	0			1				0	
6.6.0	win	2023-06-02	03:10:37	03:19:37	535590	5f20c7843957f61f62c58bb6	3	1	main_z	11	advance_on_keypress_ZEE	38	stimuli_distractor_diamondtriangles.svg	stimuli_target_diamondrectangles.svg	31	yes	57	0	723	0	0			0	0			1				0	
6.6.0	win	2023-06-02	03:10:37	03:19:38	537350	5f20c7843957f61f62c58bb6	3	1	main_z	11	main_z	39	stimuli_distractor_diamondtriangles.svg	stimuli_target_trianglerectangles.svg	29	yes	44	1	391	0	0			0	0			1				0	
6.6.0	win	2023-06-02	03:10:37	03:19:38	537350	5f20c7843957f61f62c58bb6	3	1	main_z	11	advance_on_keypress_ZEE	40	stimuli_distractor_diamondtriangles.svg	stimuli_target_trianglerectangles.svg	29	yes	57	0	625	0	0			0	0			1				0	
6.6.0	win	2023-06-02	03:10:37	03:19:40	538743	5f20c7843957f61f62c58bb6	3	1	main_z	11	main_z	41	stimuli_distractor_diamondtriangles.svg	stimuli_target_squaretriangles.svg	15	yes	44	1	135	0	0			0	0			1				0	
6.6.0	win	2023-06-02	03:10:37	03:19:40	538743	5f20c7843957f61f62c58bb6	3	1	main_z	11	advance_on_keypress_ZEE	42	stimuli_distractor_diamondtriangles.svg	stimuli_target_squaretriangles.svg	15	yes	57	0	506	0	0			0	0			1				0	
6.6.0	win	2023-06-02	03:10:37	03:19:41	540094	5f20c7843957f61f62c58bb6	3	1	main_z	11	main_z	43	stimuli_target_squarediamonds.svg	stimuli_distractor_trianglediamonds.svg	4	yes	44	1	204	0	0			0	0			1				0	
6.6.0	win	2023-06-02	03:10:37	03:19:41	540094	5f20c7843957f61f62c58bb6	3	1	main_z	11	advance_on_keypress_ZEE	44	stimuli_target_squarediamonds.svg	stimuli_distractor_trianglediamonds.svg	4	yes	57	0	629	0	0			0	0			1				0	
6.6.0	win	2023-06-02	03:10:37	03:19:42	541415	5f20c7843957f61f62c58bb6	3	1	main_z	11	main_z	45	stimuli_distractor_trianglediamonds.svg	stimuli_target_trianglerectangles.svg	25	yes	44	1	43	0	0			0	0			1				0	
6.6.0	win	2023-06-02	03:10:37	03:19:42	541415	5f20c7843957f61f62c58bb6	3	1	main_z	11	advance_on_keypress_ZEE	46	stimuli_distractor_trianglediamonds.svg	stimuli_target_trianglerectangles.svg	25	yes	57	0	629	0	0			0	0			1				0	
6.6.0	win	2023-06-02	03:10:37	03:19:44	542728	5f20c7843957f61f62c58bb6	3	1	main_z	11	main_z	47	stimuli_distractor_trianglediamonds.svg	stimuli_target_rectangletriangles.svg	9	yes	44	1	57	0	0			0	0			1				0	
6.6.0	win	2023-06-02	03:10:37	03:19:44	542728	5f20c7843957f61f62c58bb6	3	1	main_z	11	advance_on_keypress_ZEE	48	stimuli_distractor_trianglediamonds.svg	stimuli_target_rectangletriangles.svg	9	yes	57	0	670	0	0			0	0			1				0	
6.6.0	win	2023-06-02	03:10:37	03:19:45	544264	5f20c7843957f61f62c58bb6	3	1	main_z	11	main_z	49	stimuli_target_trianglerectangles.svg	stimuli_distractor_diamondtriangles.svg	21	yes	44	1	228	0	0			0	0			1				0	
6.6.0	win	2023-06-02	03:10:37	03:19:45	544264	5f20c7843957f61f62c58bb6	3	1	main_z	11	advance_on_keypress_ZEE	50	stimuli_target_trianglerectangles.svg	stimuli_distractor_diamondtriangles.svg	21	yes	57	0	749	0	0			0	0			1				0	
6.6.0	win	2023-06-02	03:10:37	03:19:47	546050	5f20c7843957f61f62c58bb6	3	1	main_z	11	main_z	51	stimuli_target_squaretriangles.svg	stimuli_distractor_trianglediamonds.svg	3	yes	44	1	399	0	0			0	0			1				0	
6.6.0	win	2023-06-02	03:10:37	03:19:47	546050	5f20c7843957f61f62c58bb6	3	1	main_z	11	advance_on_keypress_ZEE	52	stimuli_target_squaretriangles.svg	stimuli_distractor_trianglediamonds.svg	3	yes	57	0	19730	0	0			0	0			1				0	
6.6.0	win	2023-06-02	03:10:37	03:20:08	566763	5f20c7843957f61f62c58bb6	3	1	main_z	11	main_z	53	stimuli_target_diamondsquares.svg	stimuli_distractor_diamondtriangles.svg	24	yes	44	1	331	0	0			0	0			1				0	
6.6.0	win	2023-06-02	03:10:37	03:20:08	566763	5f20c7843957f61f62c58bb6	3	1	main_z	11	advance_on_keypress_ZEE	54	stimuli_target_diamondsquares.svg	stimuli_distractor_diamondtriangles.svg	24	yes	57	0	986	0	0			0	0			1				0	
6.6.0	win	2023-06-02	03:10:37	03:20:10	568599	5f20c7843957f61f62c58bb6	3	1	main_z	11	main_z	55	stimuli_target_trianglesquares.svg	stimuli_distractor_diamondtriangles.svg	22	yes	44	1	203	0	0			0	0			1				0	
6.6.0	win	2023-06-02	03:10:37	03:20:10	568599	5f20c7843957f61f62c58bb6	3	1	main_z	11	advance_on_keypress_ZEE	56	stimuli_target_trianglesquares.svg	stimuli_distractor_diamondtriangles.svg	22	yes	57	0	552	0	0			0	0			1				0	
6.6.0	win	2023-06-02	03:10:37	03:20:11	569916	5f20c7843957f61f62c58bb6	3	1	main_z	11	main_z	57	stimuli_target_trianglesquares.svg	stimuli_distractor_trianglediamonds.svg	18	yes	44	1	123	0	0			0	0			1				0	
6.6.0	win	2023-06-02	03:10:37	03:20:11	569916	5f20c7843957f61f62c58bb6	3	1	main_z	11	advance_on_keypress_ZEE	58	stimuli_target_trianglesquares.svg	stimuli_distractor_trianglediamonds.svg	18	yes	57	0	654	0	0			0	0			1				0	
6.6.0	win	2023-06-02	03:10:37	03:20:12	571459	5f20c7843957f61f62c58bb6	3	1	main_z	11	main_z	59	stimuli_distractor_trianglediamonds.svg	stimuli_distractor_diamondtriangles.svg	36	no	44	0	247	0	0			0	0			1				0	
6.6.0	win	2023-06-02	03:10:37	03:20:12	571459	5f20c7843957f61f62c58bb6	3	1	main_z	11	advance_on_keypress_ZEE	60	stimuli_distractor_trianglediamonds.svg	stimuli_distractor_diamondtriangles.svg	36	no	57	0	581	0	0			0	0			1				0	
6.6.0	win	2023-06-02	03:10:37	03:20:16	574693	5f20c7843957f61f62c58bb6	3	1	main_z	11	main_z	61	stimuli_target_rectangletriangles.svg	stimuli_distractor_diamondtriangles.svg	5	yes	0	0	2000	0	0			0	0			1				0	
6.6.0	win	2023-06-02	03:10:37	03:20:16	574693	5f20c7843957f61f62c58bb6	3	1	main_z	11	advance_on_keypress_ZEE	62	stimuli_target_rectangletriangles.svg	stimuli_distractor_diamondtriangles.svg	5	yes	57	0	347	0	0			0	0			1				0	
6.6.0	win	2023-06-02	03:10:37	03:20:17	576113	5f20c7843957f61f62c58bb6	3	1	main_z	11	main_z	63	stimuli_distractor_trianglediamonds.svg	stimuli_distractor_trianglediamonds.svg	34	no	44	0	423	0	0			0	0			1				0	
6.6.0	win	2023-06-02	03:10:37	03:20:17	576113	5f20c7843957f61f62c58bb6	3	1	main_z	11	advance_on_keypress_ZEE	64	stimuli_distractor_trianglediamonds.svg	stimuli_distractor_trianglediamonds.svg	34	no	57	0	612	0	0			0	0			1				0	
6.6.0	win	2023-06-02	03:10:37	03:20:19	577776	5f20c7843957f61f62c58bb6	3	1	main_z	11	main_z	65	stimuli_distractor_diamondtriangles.svg	stimuli_distractor_diamondtriangles.svg	40	no	44	0	404	0	0			0	0			1				0	
6.6.0	win	2023-06-02	03:10:37	03:20:19	577776	5f20c7843957f61f62c58bb6	3	1	main_z	11	advance_on_keypress_ZEE	66	stimuli_distractor_diamondtriangles.svg	stimuli_distractor_diamondtriangles.svg	40	no	57	0	669	0	0			0	0			1				0	
6.6.0	win	2023-06-02	03:10:37	03:20:20	579096	5f20c7843957f61f62c58bb6	3	1	main_z	11	main_z	67	stimuli_target_squaretriangles.svg	stimuli_distractor_diamondtriangles.svg	7	yes	44	1	9	0	0			0	0			1				0	
6.6.0	win	2023-06-02	03:10:37	03:20:20	579096	5f20c7843957f61f62c58bb6	3	1	main_z	11	advance_on_keypress_ZEE	68	stimuli_target_squaretriangles.svg	stimuli_distractor_diamondtriangles.svg	7	yes	57	0	653	0	0			0	0			1				0	
6.6.0	win	2023-06-02	03:10:37	03:20:21	580485	5f20c7843957f61f62c58bb6	3	1	main_z	11	main_z	69	stimuli_distractor_trianglediamonds.svg	stimuli_distractor_trianglediamonds.svg	33	no	44	0	100	0	0			0	0			1				0	
6.6.0	win	2023-06-02	03:10:37	03:20:21	580485	5f20c7843957f61f62c58bb6	3	1	main_z	11	advance_on_keypress_ZEE	70	stimuli_distractor_trianglediamonds.svg	stimuli_distractor_trianglediamonds.svg	33	no	57	0	765	0	0			0	0			1				0	
6.6.0	win	2023-06-02	03:10:37	03:20:23	582000	5f20c7843957f61f62c58bb6	3	1	main_z	11	main_z	71	stimuli_distractor_trianglediamonds.svg	stimuli_distractor_diamondtriangles.svg	35	no	44	0	99	0	0			0	0			1				0	
6.6.0	win	2023-06-02	03:10:37	03:20:23	582000	5f20c7843957f61f62c58bb6	3	1	main_z	11	advance_on_keypress_ZEE	72	stimuli_distractor_trianglediamonds.svg	stimuli_distractor_diamondtriangles.svg	35	no	57	0	573	0	0			0	0			1				0	
6.6.0	win	2023-06-02	03:10:37	03:20:24	583273	5f20c7843957f61f62c58bb6	3	1	main_z	11	main_z	73	stimuli_distractor_diamondtriangles.svg	stimuli_target_rectanglediamonds.svg	14	yes	44	1	56	0	0			0	0			1				0	
6.6.0	win	2023-06-02	03:10:37	03:20:24	583273	5f20c7843957f61f62c58bb6	3	1	main_z	11	advance_on_keypress_ZEE	74	stimuli_distractor_diamondtriangles.svg	stimuli_target_rectanglediamonds.svg	14	yes	57	0	592	0	0			0	0			1				0	
6.6.0	win	2023-06-02	03:10:37	03:20:26	584825	5f20c7843957f61f62c58bb6	3	1	main_z	11	main_z	75	stimuli_distractor_diamondtriangles.svg	stimuli_target_squarediamonds.svg	16	yes	44	1	327	0	0			0	0			1				0	
6.6.0	win	2023-06-02	03:10:37	03:20:26	584825	5f20c7843957f61f62c58bb6	3	1	main_z	11	advance_on_keypress_ZEE	76	stimuli_distractor_diamondtriangles.svg	stimuli_target_squarediamonds.svg	16	yes	57	0	626	0	0			0	0			1				0	
6.6.0	win	2023-06-02	03:10:37	03:20:27	586103	5f20c7843957f61f62c58bb6	3	1	main_z	11	main_z	77	stimuli_distractor_diamondtriangles.svg	stimuli_distractor_trianglediamonds.svg	38	no	44	0	22	0	0			0	0			1				0	
6.6.0	win	2023-06-02	03:10:37	03:20:27	586103	5f20c7843957f61f62c58bb6	3	1	main_z	11	advance_on_keypress_ZEE	78	stimuli_distractor_diamondtriangles.svg	stimuli_distractor_trianglediamonds.svg	38	no	57	0	631	0	0			0	0			1				0	
6.6.0	win	2023-06-02	03:10:37	03:20:29	587768	5f20c7843957f61f62c58bb6	3	1	main_z	11	main_z	79	stimuli_distractor_trianglediamonds.svg	stimuli_target_squarediamonds.svg	12	yes	44	1	389	0	0			0	0			1				0	
6.6.0	win	2023-06-02	03:10:37	03:20:29	587768	5f20c7843957f61f62c58bb6	3	1	main_z	11	advance_on_keypress_ZEE	80	stimuli_distractor_trianglediamonds.svg	stimuli_target_squarediamonds.svg	12	yes	57	0	689	0	0			0	0			1				0	
6.6.0	win	2023-06-02	03:10:37	03:20:30	589236	5f20c7843957f61f62c58bb6	3	1	main_z	11	main_z	81	stimuli_distractor_diamondtriangles.svg	stimuli_distractor_diamondtriangles.svg	40	no	44	0	142	0	0			0	0			1				0	
6.6.0	win	2023-06-02	03:10:37	03:20:30	589236	5f20c7843957f61f62c58bb6	3	1	main_z	11	advance_on_keypress_ZEE	82	stimuli_distractor_diamondtriangles.svg	stimuli_distractor_diamondtriangles.svg	40	no	57	0	663	0	0			0	0			1				0	
6.6.0	win	2023-06-02	03:10:37	03:20:32	590813	5f20c7843957f61f62c58bb6	3	1	main_z	11	main_z	83	stimuli_target_rectangletriangles.svg	stimuli_distractor_trianglediamonds.svg	1	yes	44	1	270	0	0			0	0			1				0	
6.6.0	win	2023-06-02	03:10:37	03:20:32	590813	5f20c7843957f61f62c58bb6	3	1	main_z	11	advance_on_keypress_ZEE	84	stimuli_target_rectangletriangles.svg	stimuli_distractor_trianglediamonds.svg	1	yes	57	0	668	0	0			0	0			1				0	
6.6.0	win	2023-06-02	03:10:37	03:20:33	592379	5f20c7843957f61f62c58bb6	3	1	main_z	11	main_z	85	stimuli_distractor_diamondtriangles.svg	stimuli_target_rectanglediamonds.svg	14	yes	44	1	255	0	0			0	0			1				0	
6.6.0	win	2023-06-02	03:10:37	03:20:33	592379	5f20c7843957f61f62c58bb6	3	1	main_z	11	advance_on_keypress_ZEE	86	stimuli_distractor_diamondtriangles.svg	stimuli_target_rectanglediamonds.svg	14	yes	57	0	552	0	0			0	0			1				0	
6.6.0	win	2023-06-02	03:10:37	03:20:35	593763	5f20c7843957f61f62c58bb6	3	1	main_z	11	main_z	87	stimuli_distractor_diamondtriangles.svg	stimuli_target_diamondsquares.svg	32	yes	44	1	189	0	0			0	0			1				0	
6.6.0	win	2023-06-02	03:10:37	03:20:35	593763	5f20c7843957f61f62c58bb6	3	1	main_z	11	advance_on_keypress_ZEE	88	stimuli_distractor_diamondtriangles.svg	stimuli_target_diamondsquares.svg	32	yes	57	0	587	0	0			0	0			1				0	
6.6.0	win	2023-06-02	03:10:37	03:20:36	595096	5f20c7843957f61f62c58bb6	3	1	main_z	11	main_z	89	stimuli_target_diamondrectangles.svg	stimuli_distractor_trianglediamonds.svg	19	yes	44	1	108	0	0			0	0			1				0	
6.6.0	win	2023-06-02	03:10:37	03:20:36	595096	5f20c7843957f61f62c58bb6	3	1	main_z	11	advance_on_keypress_ZEE	90	stimuli_target_diamondrectangles.svg	stimuli_distractor_trianglediamonds.svg	19	yes	57	0	641	0	0			0	0			1				0	
6.6.0	win	2023-06-02	03:10:37	03:20:38	596578	5f20c7843957f61f62c58bb6	3	1	main_z	11	main_z	91	stimuli_distractor_trianglediamonds.svg	stimuli_target_rectanglediamonds.svg	10	yes	44	1	208	0	0			0	0			1				0	
6.6.0	win	2023-06-02	03:10:37	03:20:38	596578	5f20c7843957f61f62c58bb6	3	1	main_z	11	advance_on_keypress_ZEE	92	stimuli_distractor_trianglediamonds.svg	stimuli_target_rectanglediamonds.svg	10	yes	57	0	791	0	0			0	0			1				0	
6.6.0	win	2023-06-02	03:10:37	03:20:39	598063	5f20c7843957f61f62c58bb6	3	1	main_z	11	main_z	93	stimuli_target_rectangletriangles.svg	stimuli_distractor_diamondtriangles.svg	5	yes	44	1	61	0	0			0	0			1				0	
6.6.0	win	2023-06-02	03:10:37	03:20:39	598063	5f20c7843957f61f62c58bb6	3	1	main_z	11	advance_on_keypress_ZEE	94	stimuli_target_rectangletriangles.svg	stimuli_distractor_diamondtriangles.svg	5	yes	57	0	642	0	0			0	0			1				0	
6.6.0	win	2023-06-02	03:10:37	03:20:41	599768	5f20c7843957f61f62c58bb6	3	1	main_z	11	main_z	95	stimuli_target_rectanglediamonds.svg	stimuli_distractor_trianglediamonds.svg	2	yes	44	1	434	0	0			0	0			1				0	
6.6.0	win	2023-06-02	03:10:37	03:20:41	599768	5f20c7843957f61f62c58bb6	3	1	main_z	11	advance_on_keypress_ZEE	96	stimuli_target_rectanglediamonds.svg	stimuli_distractor_trianglediamonds.svg	2	yes	57	0	612	0	0			0	0			1				0	
6.6.0	win	2023-06-02	03:10:37	03:20:42	601212	5f20c7843957f61f62c58bb6	3	1	main_z	11	main_z	97	stimuli_distractor_diamondtriangles.svg	stimuli_target_diamondrectangles.svg	31	yes	44	1	195	0	0			0	0			1				0	
6.6.0	win	2023-06-02	03:10:37	03:20:42	601212	5f20c7843957f61f62c58bb6	3	1	main_z	11	advance_on_keypress_ZEE	98	stimuli_distractor_diamondtriangles.svg	stimuli_target_diamondrectangles.svg	31	yes	57	0	676	0	0			0	0			1				0	
6.6.0	win	2023-06-02	03:10:37	03:20:44	602868	5f20c7843957f61f62c58bb6	3	1	main_z	11	main_z	99	stimuli_distractor_diamondtriangles.svg	stimuli_target_trianglerectangles.svg	29	yes	44	1	337	0	0			0	0			1				0	
6.6.0	win	2023-06-02	03:10:37	03:20:44	602868	5f20c7843957f61f62c58bb6	3	1	main_z	11	advance_on_keypress_ZEE	100	stimuli_distractor_diamondtriangles.svg	stimuli_target_trianglerectangles.svg	29	yes	57	0	741	0	0			0	0			1				0	
6.6.0	win	2023-06-02	03:10:37	03:20:45	604466	5f20c7843957f61f62c58bb6	3	1	main_z	11	main_z	101	stimuli_target_squaretriangles.svg	stimuli_distractor_trianglediamonds.svg	3	yes	44	1	220	0	0			0	0			1				0	
6.6.0	win	2023-06-02	03:10:37	03:20:45	604466	5f20c7843957f61f62c58bb6	3	1	main_z	11	advance_on_keypress_ZEE	102	stimuli_target_squaretriangles.svg	stimuli_distractor_trianglediamonds.svg	3	yes	57	0	888	0	0			0	0			1				0	
6.6.0	win	2023-06-02	03:10:37	03:20:47	606272	5f20c7843957f61f62c58bb6	3	1	main_z	11	main_z	103	stimuli_distractor_trianglediamonds.svg	stimuli_target_squarediamonds.svg	12	yes	44	1	277	0	0			0	0			1				0	
6.6.0	win	2023-06-02	03:10:37	03:20:47	606272	5f20c7843957f61f62c58bb6	3	1	main_z	11	advance_on_keypress_ZEE	104	stimuli_distractor_trianglediamonds.svg	stimuli_target_squarediamonds.svg	12	yes	57	0	668	0	0			0	0			1				0	
6.6.0	win	2023-06-02	03:10:37	03:20:49	607843	5f20c7843957f61f62c58bb6	3	1	main_z	11	main_z	105	stimuli_distractor_trianglediamonds.svg	stimuli_distractor_diamondtriangles.svg	35	no	44	0	265	0	0			0	0			1				0	
6.6.0	win	2023-06-02	03:10:37	03:20:49	607843	5f20c7843957f61f62c58bb6	3	1	main_z	11	advance_on_keypress_ZEE	106	stimuli_distractor_trianglediamonds.svg	stimuli_distractor_diamondtriangles.svg	35	no	57	0	57136	0	0			0	0			1				0	
6.6.0	win	2023-06-02	03:10:37	03:21:47	665767	5f20c7843957f61f62c58bb6	3	1	main_z	11	main_z	107	stimuli_target_squaretriangles.svg	stimuli_distractor_diamondtriangles.svg	7	yes	44	1	145	0	0			0	0			1				0	
6.6.0	win	2023-06-02	03:10:37	03:21:47	665767	5f20c7843957f61f62c58bb6	3	1	main_z	11	advance_on_keypress_ZEE	108	stimuli_target_squaretriangles.svg	stimuli_distractor_diamondtriangles.svg	7	yes	57	0	506	0	0			0	0			1				0	
6.6.0	win	2023-06-02	03:10:37	03:21:48	667054	5f20c7843957f61f62c58bb6	3	1	main_z	11	main_z	109	stimuli_distractor_trianglediamonds.svg	stimuli_target_squaretriangles.svg	11	yes	44	1	150	0	0			0	0			1				0	
6.6.0	win	2023-06-02	03:10:37	03:21:48	667054	5f20c7843957f61f62c58bb6	3	1	main_z	11	advance_on_keypress_ZEE	110	stimuli_distractor_trianglediamonds.svg	stimuli_target_squaretriangles.svg	11	yes	57	0	436	0	0			0	0			1				0	
6.6.0	win	2023-06-02	03:10:37	03:21:49	668244	5f20c7843957f61f62c58bb6	3	1	main_z	11	main_z	111	stimuli_target_trianglerectangles.svg	stimuli_distractor_diamondtriangles.svg	21	yes	44	1	107	0	0			0	0			1				0	
6.6.0	win	2023-06-02	03:10:37	03:21:49	668244	5f20c7843957f61f62c58bb6	3	1	main_z	11	advance_on_keypress_ZEE	112	stimuli_target_trianglerectangles.svg	stimuli_distractor_diamondtriangles.svg	21	yes	57	0	471	0	0			0	0			1				0	
6.6.0	win	2023-06-02	03:10:37	03:21:50	669542	5f20c7843957f61f62c58bb6	3	1	main_z	11	main_z	113	stimuli_distractor_diamondtriangles.svg	stimuli_distractor_trianglediamonds.svg	37	no	44	0	189	0	0			0	0			1				0	
6.6.0	win	2023-06-02	03:10:37	03:21:50	669542	5f20c7843957f61f62c58bb6	3	1	main_z	11	advance_on_keypress_ZEE	114	stimuli_distractor_diamondtriangles.svg	stimuli_distractor_trianglediamonds.svg	37	no	57	0	520	0	0			0	0			1				0	
6.6.0	win	2023-06-02	03:10:37	03:21:52	671083	5f20c7843957f61f62c58bb6	3	1	main_z	11	main_z	115	stimuli_target_trianglesquares.svg	stimuli_distractor_trianglediamonds.svg	18	yes	44	1	382	0	0			0	0			1				0	
6.6.0	win	2023-06-02	03:10:37	03:21:52	671083	5f20c7843957f61f62c58bb6	3	1	main_z	11	advance_on_keypress_ZEE	116	stimuli_target_trianglesquares.svg	stimuli_distractor_trianglediamonds.svg	18	yes	57	0	581	0	0			0	0			1				0	
6.6.0	win	2023-06-02	03:10:37	03:21:53	672370	5f20c7843957f61f62c58bb6	3	1	main_z	11	main_z	117	stimuli_target_diamondsquares.svg	stimuli_distractor_diamondtriangles.svg	24	yes	44	1	54	0	0			0	0			1				0	
6.6.0	win	2023-06-02	03:10:37	03:21:53	672370	5f20c7843957f61f62c58bb6	3	1	main_z	11	advance_on_keypress_ZEE	118	stimuli_target_diamondsquares.svg	stimuli_distractor_diamondtriangles.svg	24	yes	57	0	474	0	0			0	0			1				0	
6.6.0	win	2023-06-02	03:10:37	03:21:55	673725	5f20c7843957f61f62c58bb6	3	1	main_z	11	main_z	119	stimuli_distractor_trianglediamonds.svg	stimuli_target_trianglesquares.svg	26	yes	44	1	243	0	0			0	0			1				0	
6.6.0	win	2023-06-02	03:10:37	03:21:55	673725	5f20c7843957f61f62c58bb6	3	1	main_z	11	advance_on_keypress_ZEE	120	stimuli_distractor_trianglediamonds.svg	stimuli_target_trianglesquares.svg	26	yes	57	0	428	0	0			0	0			1				0	
6.6.0	win	2023-06-02	03:10:37	03:21:56	675019	5f20c7843957f61f62c58bb6	3	1	main_z	11	main_z	121	stimuli_distractor_diamondtriangles.svg	stimuli_distractor_trianglediamonds.svg	38	no	44	0	222	0	0			0	0			1				0	
6.6.0	win	2023-06-02	03:10:37	03:21:56	675019	5f20c7843957f61f62c58bb6	3	1	main_z	11	advance_on_keypress_ZEE	122	stimuli_distractor_diamondtriangles.svg	stimuli_distractor_trianglediamonds.svg	38	no	57	0	513	0	0			0	0			1				0	
6.6.0	win	2023-06-02	03:10:37	03:21:57	676459	5f20c7843957f61f62c58bb6	3	1	main_z	11	main_z	123	stimuli_distractor_diamondtriangles.svg	stimuli_target_trianglesquares.svg	30	yes	44	1	280	0	0			0	0			1				0	
6.6.0	win	2023-06-02	03:10:37	03:21:57	676459	5f20c7843957f61f62c58bb6	3	1	main_z	11	advance_on_keypress_ZEE	124	stimuli_distractor_diamondtriangles.svg	stimuli_target_trianglesquares.svg	30	yes	57	0	571	0	0			0	0			1				0	
6.6.0	win	2023-06-02	03:10:37	03:21:59	677833	5f20c7843957f61f62c58bb6	3	1	main_z	11	main_z	125	stimuli_target_trianglerectangles.svg	stimuli_distractor_trianglediamonds.svg	17	yes	44	1	155	0	0			0	0			1				0	
6.6.0	win	2023-06-02	03:10:37	03:21:59	677833	5f20c7843957f61f62c58bb6	3	1	main_z	11	advance_on_keypress_ZEE	126	stimuli_target_trianglerectangles.svg	stimuli_distractor_trianglediamonds.svg	17	yes	57	0	500	0	0			0	0			1				0	
6.6.0	win	2023-06-02	03:10:37	03:22:00	679171	5f20c7843957f61f62c58bb6	3	1	main_z	11	main_z	127	stimuli_target_trianglesquares.svg	stimuli_distractor_diamondtriangles.svg	22	yes	44	1	194	0	0			0	0			1				0	
6.6.0	win	2023-06-02	03:10:37	03:22:00	679171	5f20c7843957f61f62c58bb6	3	1	main_z	11	advance_on_keypress_ZEE	128	stimuli_target_trianglesquares.svg	stimuli_distractor_diamondtriangles.svg	22	yes	57	0	573	0	0			0	0			1				0	
6.6.0	win	2023-06-02	03:10:37	03:22:01	680517	5f20c7843957f61f62c58bb6	3	1	main_z	11	main_z	129	stimuli_distractor_trianglediamonds.svg	stimuli_target_rectangletriangles.svg	9	yes	44	1	141	0	0			0	0			1				0	
6.6.0	win	2023-06-02	03:10:37	03:22:01	680517	5f20c7843957f61f62c58bb6	3	1	main_z	11	advance_on_keypress_ZEE	130	stimuli_distractor_trianglediamonds.svg	stimuli_target_rectangletriangles.svg	9	yes	57	0	559	0	0			0	0			1				0	
6.6.0	win	2023-06-02	03:10:37	03:22:03	681829	5f20c7843957f61f62c58bb6	3	1	main_z	11	main_z	131	stimuli_target_diamondrectangles.svg	stimuli_distractor_diamondtriangles.svg	23	yes	44	1	123	0	0			0	0			1				0	
6.6.0	win	2023-06-02	03:10:37	03:22:03	681829	5f20c7843957f61f62c58bb6	3	1	main_z	11	advance_on_keypress_ZEE	132	stimuli_target_diamondrectangles.svg	stimuli_distractor_diamondtriangles.svg	23	yes	57	0	541	0	0			0	0			1				0	
6.6.0	win	2023-06-02	03:10:37	03:22:04	683127	5f20c7843957f61f62c58bb6	3	1	main_z	11	main_z	133	stimuli_distractor_diamondtriangles.svg	stimuli_target_rectangletriangles.svg	13	yes	44	1	119	0	0			0	0			1				0	
6.6.0	win	2023-06-02	03:10:37	03:22:04	683127	5f20c7843957f61f62c58bb6	3	1	main_z	11	advance_on_keypress_ZEE	134	stimuli_distractor_diamondtriangles.svg	stimuli_target_rectangletriangles.svg	13	yes	57	0	543	0	0			0	0			1				0	
6.6.0	win	2023-06-02	03:10:37	03:22:05	684404	5f20c7843957f61f62c58bb6	3	1	main_z	11	main_z	135	stimuli_target_diamondsquares.svg	stimuli_distractor_trianglediamonds.svg	20	yes	44	1	98	0	0			0	0			1				0	
6.6.0	win	2023-06-02	03:10:37	03:22:05	684404	5f20c7843957f61f62c58bb6	3	1	main_z	11	advance_on_keypress_ZEE	136	stimuli_target_diamondsquares.svg	stimuli_distractor_trianglediamonds.svg	20	yes	57	0	624	0	0			0	0			1				0	
6.6.0	win	2023-06-02	03:10:37	03:22:07	685882	5f20c7843957f61f62c58bb6	3	1	main_z	11	main_z	137	stimuli_target_squarediamonds.svg	stimuli_distractor_diamondtriangles.svg	8	yes	44	1	212	0	0			0	0			1				0	
6.6.0	win	2023-06-02	03:10:37	03:22:07	685882	5f20c7843957f61f62c58bb6	3	1	main_z	11	advance_on_keypress_ZEE	138	stimuli_target_squarediamonds.svg	stimuli_distractor_diamondtriangles.svg	8	yes	57	0	598	0	0			0	0			1				0	
6.6.0	win	2023-06-02	03:10:37	03:22:08	687152	5f20c7843957f61f62c58bb6	3	1	main_z	11	main_z	139	stimuli_target_squarediamonds.svg	stimuli_distractor_trianglediamonds.svg	4	yes	44	1	16	0	0			0	0			1				0	
6.6.0	win	2023-06-02	03:10:37	03:22:08	687152	5f20c7843957f61f62c58bb6	3	1	main_z	11	advance_on_keypress_ZEE	140	stimuli_target_squarediamonds.svg	stimuli_distractor_trianglediamonds.svg	4	yes	57	0	480	0	0			0	0			1				0	
6.6.0	win	2023-06-02	03:10:37	03:22:09	688356	5f20c7843957f61f62c58bb6	3	1	main_z	11	main_z	141	stimuli_distractor_diamondtriangles.svg	stimuli_distractor_diamondtriangles.svg	39	no	44	0	72	0	0			0	0			1				0	
6.6.0	win	2023-06-02	03:10:37	03:22:09	688356	5f20c7843957f61f62c58bb6	3	1	main_z	11	advance_on_keypress_ZEE	142	stimuli_distractor_diamondtriangles.svg	stimuli_distractor_diamondtriangles.svg	39	no	57	0	512	0	0			0	0			1				0	
6.6.0	win	2023-06-02	03:10:37	03:22:11	689593	5f20c7843957f61f62c58bb6	3	1	main_z	11	main_z	143	stimuli_target_rectanglediamonds.svg	stimuli_distractor_diamondtriangles.svg	6	yes	44	1	94	0	0			0	0			1				0	
6.6.0	win	2023-06-02	03:10:37	03:22:11	689593	5f20c7843957f61f62c58bb6	3	1	main_z	11	advance_on_keypress_ZEE	144	stimuli_target_rectanglediamonds.svg	stimuli_distractor_diamondtriangles.svg	6	yes	57	0	589	0	0			0	0			1				0	
6.6.0	win	2023-06-02	03:10:37	03:22:12	690909	5f20c7843957f61f62c58bb6	3	1	main_z	11	main_z	145	stimuli_distractor_diamondtriangles.svg	stimuli_target_squarediamonds.svg	16	yes	44	1	93	0	0			0	0			1				0	
6.6.0	win	2023-06-02	03:10:37	03:22:12	690909	5f20c7843957f61f62c58bb6	3	1	main_z	11	advance_on_keypress_ZEE	146	stimuli_distractor_diamondtriangles.svg	stimuli_target_squarediamonds.svg	16	yes	57	0	503	0	0			0	0			1				0	
6.6.0	win	2023-06-02	03:10:37	03:22:13	692159	5f20c7843957f61f62c58bb6	3	1	main_z	11	main_z	147	stimuli_distractor_trianglediamonds.svg	stimuli_distractor_diamondtriangles.svg	36	no	44	0	111	0	0			0	0			1				0	
6.6.0	win	2023-06-02	03:10:37	03:22:13	692159	5f20c7843957f61f62c58bb6	3	1	main_z	11	advance_on_keypress_ZEE	148	stimuli_distractor_trianglediamonds.svg	stimuli_distractor_diamondtriangles.svg	36	no	57	0	543	0	0			0	0			1				0	
6.6.0	win	2023-06-02	03:10:37	03:22:14	693382	5f20c7843957f61f62c58bb6	3	1	main_z	11	main_z	149	stimuli_distractor_trianglediamonds.svg	stimuli_target_diamondsquares.svg	28	yes	44	1	52	0	0			0	0			1				0	
6.6.0	win	2023-06-02	03:10:37	03:22:14	693382	5f20c7843957f61f62c58bb6	3	1	main_z	11	advance_on_keypress_ZEE	150	stimuli_distractor_trianglediamonds.svg	stimuli_target_diamondsquares.svg	28	yes	57	0	485	0	0			0	0			1				0	
6.6.0	win	2023-06-02	03:10:37	03:22:16	694798	5f20c7843957f61f62c58bb6	3	1	main_z	11	main_z	151	stimuli_distractor_trianglediamonds.svg	stimuli_distractor_trianglediamonds.svg	34	no	44	0	286	0	0			0	0			1				0	
6.6.0	win	2023-06-02	03:10:37	03:22:16	694798	5f20c7843957f61f62c58bb6	3	1	main_z	11	advance_on_keypress_ZEE	152	stimuli_distractor_trianglediamonds.svg	stimuli_distractor_trianglediamonds.svg	34	no	57	0	531	0	0			0	0			1				0	
6.6.0	win	2023-06-02	03:10:37	03:22:17	696177	5f20c7843957f61f62c58bb6	3	1	main_z	11	main_z	153	stimuli_distractor_trianglediamonds.svg	stimuli_distractor_trianglediamonds.svg	33	no	44	0	199	0	0			0	0			1				0	
6.6.0	win	2023-06-02	03:10:37	03:22:17	696177	5f20c7843957f61f62c58bb6	3	1	main_z	11	advance_on_keypress_ZEE	154	stimuli_distractor_trianglediamonds.svg	stimuli_distractor_trianglediamonds.svg	33	no	57	0	491	0	0			0	0			1				0	
6.6.0	win	2023-06-02	03:10:37	03:22:18	697444	5f20c7843957f61f62c58bb6	3	1	main_z	11	main_z	155	stimuli_distractor_trianglediamonds.svg	stimuli_target_trianglerectangles.svg	25	yes	44	1	135	0	0			0	0			1				0	
6.6.0	win	2023-06-02	03:10:37	03:22:18	697444	5f20c7843957f61f62c58bb6	3	1	main_z	11	advance_on_keypress_ZEE	156	stimuli_distractor_trianglediamonds.svg	stimuli_target_trianglerectangles.svg	25	yes	57	0	492	0	0			0	0			1				0	
6.6.0	win	2023-06-02	03:10:37	03:22:20	698794	5f20c7843957f61f62c58bb6	3	1	main_z	11	main_z	157	stimuli_distractor_trianglediamonds.svg	stimuli_target_diamondrectangles.svg	27	yes	44	1	219	0	0			0	0			1				0	
6.6.0	win	2023-06-02	03:10:37	03:22:20	698794	5f20c7843957f61f62c58bb6	3	1	main_z	11	advance_on_keypress_ZEE	158	stimuli_distractor_trianglediamonds.svg	stimuli_target_diamondrectangles.svg	27	yes	57	0	600	0	0			0	0			1				0	
6.6.0	win	2023-06-02	03:10:37	03:22:21	700237	5f20c7843957f61f62c58bb6	3	1	main_z	11	main_z	159	stimuli_distractor_diamondtriangles.svg	stimuli_target_squaretriangles.svg	15	yes	44	1	197	0	0			0	0			1				0	
6.6.0	win	2023-06-02	03:10:37	03:22:21	700237	5f20c7843957f61f62c58bb6	3	1	main_z	11	advance_on_keypress_ZEE	160	stimuli_distractor_diamondtriangles.svg	stimuli_target_squaretriangles.svg	15	yes	57	0	566	0	0			0	0			1				0	
6.6.0	win	2023-06-02	03:10:37	03:22:21	700237	5f20c7843957f61f62c58bb6	3	1	headphonecheck_calibration	14	headphonecheck_calibrationIntro	1	stimuli_distractor_diamondtriangles.svg	stimuli_target_squaretriangles.svg	15	yes	calibrationButton	0	3736	0	0			0	0			1				0	
6.6.0	win	2023-06-02	03:10:37	03:22:21	700237	5f20c7843957f61f62c58bb6	3	1	headphonecheck_testphase	15	test_collectResponse	3	stimuli_distractor_diamondtriangles.svg	stimuli_target_squaretriangles.svg	15	yes	third	1	1961	1	6	antiphase_hc_ois.wav	3	0	0			1				0	
6.6.0	win	2023-06-02	03:10:37	03:22:21	700237	5f20c7843957f61f62c58bb6	3	1	headphonecheck_testphase	15	test_collectResponse	6	stimuli_distractor_diamondtriangles.svg	stimuli_target_squaretriangles.svg	15	yes	third	1	191	2	2	antiphase_hc_ios.wav	3	0	0			1				0	
6.6.0	win	2023-06-02	03:10:37	03:22:21	700237	5f20c7843957f61f62c58bb6	3	1	headphonecheck_testphase	15	test_collectResponse	9	stimuli_distractor_diamondtriangles.svg	stimuli_target_squaretriangles.svg	15	yes	first	1	414	3	3	antiphase_hc_soi.wav	1	0	0			1				0	
6.6.0	win	2023-06-02	03:10:37	03:22:21	700237	5f20c7843957f61f62c58bb6	3	1	headphonecheck_testphase	15	test_collectResponse	12	stimuli_distractor_diamondtriangles.svg	stimuli_target_squaretriangles.svg	15	yes	first	1	541	4	4	antiphase_hc_sio.wav	1	0	0			1				0	
6.6.0	win	2023-06-02	03:10:37	03:22:21	700237	5f20c7843957f61f62c58bb6	3	1	headphonecheck_testphase	15	test_collectResponse	15	stimuli_distractor_diamondtriangles.svg	stimuli_target_squaretriangles.svg	15	yes	second	1	505	5	5	antiphase_hc_osi.wav	2	0	0			1				0	
6.6.0	win	2023-06-02	03:10:37	03:22:21	700237	5f20c7843957f61f62c58bb6	3	1	headphonecheck_testphase	15	test_collectResponse	18	stimuli_distractor_diamondtriangles.svg	stimuli_target_squaretriangles.svg	15	yes	second	1	444	6	1	antiphase_hc_iso.wav	2	0	0			1				0	
6.6.0	win	2023-06-02	03:10:37	03:22:21	700237	5f20c7843957f61f62c58bb6	3	1	stereocheck_calibration	17	stereocheck_calibrationIntro	1	stimuli_distractor_diamondtriangles.svg	stimuli_target_squaretriangles.svg	15	yes	stereocheck_calibrationButton	0	1625	6	1	antiphase_hc_iso.wav	2	0	0			1				0	
6.6.0	win	2023-06-02	03:10:37	03:22:21	700237	5f20c7843957f61f62c58bb6	3	1	stereocheck_testphase	18	stereocheck_test_collectResponse	3	stimuli_distractor_diamondtriangles.svg	stimuli_target_squaretriangles.svg	15	yes	stereocheck_left	1	7136	6	1	antiphase_hc_iso.wav	2	1	1	noise_calib_stim_LEFT.wav	1	1				0	
6.6.0	win	2023-06-02	03:10:37	03:22:21	700237	5f20c7843957f61f62c58bb6	3	1	stereocheck_testphase	18	stereocheck_test_collectResponse	6	stimuli_distractor_diamondtriangles.svg	stimuli_target_squaretriangles.svg	15	yes	stereocheck_right	1	849	6	1	antiphase_hc_iso.wav	2	2	6	noise_calib_stim_RIGHT.wav	2	1				0	
6.6.0	win	2023-06-02	03:10:37	03:22:21	700237	5f20c7843957f61f62c58bb6	3	1	stereocheck_testphase	18	stereocheck_test_collectResponse	9	stimuli_distractor_diamondtriangles.svg	stimuli_target_squaretriangles.svg	15	yes	stereocheck_right	1	690	6	1	antiphase_hc_iso.wav	2	3	5	noise_calib_stim_RIGHT.wav	2	1				0	
6.6.0	win	2023-06-02	03:10:37	03:22:21	700237	5f20c7843957f61f62c58bb6	3	1	stereocheck_testphase	18	stereocheck_test_collectResponse	12	stimuli_distractor_diamondtriangles.svg	stimuli_target_squaretriangles.svg	15	yes	stereocheck_left	1	518	6	1	antiphase_hc_iso.wav	2	4	3	noise_calib_stim_LEFT.wav	1	1				0	
6.6.0	win	2023-06-02	03:10:37	03:22:21	700237	5f20c7843957f61f62c58bb6	3	1	stereocheck_testphase	18	stereocheck_test_collectResponse	15	stimuli_distractor_diamondtriangles.svg	stimuli_target_squaretriangles.svg	15	yes	stereocheck_left	1	398	6	1	antiphase_hc_iso.wav	2	5	2	noise_calib_stim_LEFT.wav	1	1				0	
6.6.0	win	2023-06-02	03:10:37	03:22:21	700237	5f20c7843957f61f62c58bb6	3	1	stereocheck_testphase	18	stereocheck_test_collectResponse	18	stimuli_distractor_diamondtriangles.svg	stimuli_target_squaretriangles.svg	15	yes	stereocheck_right	1	632	6	1	antiphase_hc_iso.wav	2	6	4	noise_calib_stim_RIGHT.wav	2	1				0	
6.6.0	win	2023-06-02	03:10:37	03:22:21	700237	5f20c7843957f61f62c58bb6	3	1	DL_practice	21	DL_practice	2	stimuli_distractor_diamondtriangles.svg	stimuli_target_squaretriangles.svg	15	yes	ka	1	1438	6	1	antiphase_hc_iso.wav	2	6	4	noise_calib_stim_RIGHT.wav	2	23	blb_dichoticlistening_ka-pa.mp3	ka	pa	1	left
6.6.0	win	2023-06-02	03:10:37	03:22:21	700237	5f20c7843957f61f62c58bb6	3	1	DL_practice	21	DL_practice	3	stimuli_distractor_diamondtriangles.svg	stimuli_target_squaretriangles.svg	15	yes	ta	1	1895	6	1	antiphase_hc_iso.wav	2	6	4	noise_calib_stim_RIGHT.wav	2	36	blb_dichoticlistening_ta-ta.mp3	ta	ta	0	left
6.6.0	win	2023-06-02	03:10:37	03:22:21	700237	5f20c7843957f61f62c58bb6	3	1	DL_practice	21	DL_practice	4	stimuli_distractor_diamondtriangles.svg	stimuli_target_squaretriangles.svg	15	yes	ba	1	3684	6	1	antiphase_hc_iso.wav	2	6	4	noise_calib_stim_RIGHT.wav	2	7	blb_dichoticlistening_da-ba.mp3	da	ba	1	right
6.6.0	win	2023-06-02	03:10:37	03:22:21	700237	5f20c7843957f61f62c58bb6	3	1	DL_practice	21	DL_practice	5	stimuli_distractor_diamondtriangles.svg	stimuli_target_squaretriangles.svg	15	yes	pa	1	2062	6	1	antiphase_hc_iso.wav	2	6	4	noise_calib_stim_RIGHT.wav	2	29	blb_dichoticlistening_pa-pa.mp3	pa	pa	0	left
6.6.0	win	2023-06-02	03:10:37	03:22:21	700237	5f20c7843957f61f62c58bb6	3	1	DL_practice	21	DL_practice	6	stimuli_distractor_diamondtriangles.svg	stimuli_target_squaretriangles.svg	15	yes	ba	1	1638	6	1	antiphase_hc_iso.wav	2	6	4	noise_calib_stim_RIGHT.wav	2	1	blb_dichoticlistening_ba-ba.mp3	ba	ba	0	left
6.6.0	win	2023-06-02	03:10:37	03:22:21	700237	5f20c7843957f61f62c58bb6	3	1	DL_practice	21	DL_practice	7	stimuli_distractor_diamondtriangles.svg	stimuli_target_squaretriangles.svg	15	yes	ga	1	1511	6	1	antiphase_hc_iso.wav	2	6	4	noise_calib_stim_RIGHT.wav	2	18	blb_dichoticlistening_ga-ta.mp3	ga	ta	1	left
6.6.0	win	2023-06-02	03:10:37	03:22:21	700237	5f20c7843957f61f62c58bb6	3	1	DL_practice	21	DL_practice	8	stimuli_distractor_diamondtriangles.svg	stimuli_target_squaretriangles.svg	15	yes	ka	1	1163	6	1	antiphase_hc_iso.wav	2	6	4	noise_calib_stim_RIGHT.wav	2	22	blb_dichoticlistening_ka-ka.mp3	ka	ka	0	left
6.6.0	win	2023-06-02	03:10:37	03:22:21	700237	5f20c7843957f61f62c58bb6	3	1	DL_practice	21	DL_practice	9	stimuli_distractor_diamondtriangles.svg	stimuli_target_squaretriangles.svg	15	yes	da	1	1453	6	1	antiphase_hc_iso.wav	2	6	4	noise_calib_stim_RIGHT.wav	2	8	blb_dichoticlistening_da-da.mp3	da	da	0	left
6.6.0	win	2023-06-02	03:10:37	03:22:21	700237	5f20c7843957f61f62c58bb6	3	1	DL_practice	21	DL_practice	10	stimuli_distractor_diamondtriangles.svg	stimuli_target_squaretriangles.svg	15	yes	ga	1	991	6	1	antiphase_hc_iso.wav	2	6	4	noise_calib_stim_RIGHT.wav	2	15	blb_dichoticlistening_ga-ga.mp3	ga	ga	0	left
6.6.0	win	2023-06-02	03:10:37	03:22:21	700237	5f20c7843957f61f62c58bb6	3	1	DL_test	23	DL_test	1	stimuli_distractor_diamondtriangles.svg	stimuli_target_squaretriangles.svg	15	yes	ka	1	1443	6	1	antiphase_hc_iso.wav	2	6	4	noise_calib_stim_RIGHT.wav	2	24	blb_dichoticlistening_ka-ta.mp3	ka	ta	1	left
6.6.0	win	2023-06-02	03:10:37	03:22:21	700237	5f20c7843957f61f62c58bb6	3	1	DL_test	23	DL_test	2	stimuli_distractor_diamondtriangles.svg	stimuli_target_squaretriangles.svg	15	yes	pa	1	1280	6	1	antiphase_hc_iso.wav	2	6	4	noise_calib_stim_RIGHT.wav	2	30	blb_dichoticlistening_pa-ta.mp3	pa	ta	1	left
6.6.0	win	2023-06-02	03:10:37	03:22:21	700237	5f20c7843957f61f62c58bb6	3	1	DL_test	23	DL_test	3	stimuli_distractor_diamondtriangles.svg	stimuli_target_squaretriangles.svg	15	yes	ga	1	1142	6	1	antiphase_hc_iso.wav	2	6	4	noise_calib_stim_RIGHT.wav	2	18	blb_dichoticlistening_ga-ta.mp3	ga	ta	1	left
6.6.0	win	2023-06-02	03:10:37	03:22:21	700237	5f20c7843957f61f62c58bb6	3	1	DL_test	23	DL_test	4	stimuli_distractor_diamondtriangles.svg	stimuli_target_squaretriangles.svg	15	yes	ka	1	1351	6	1	antiphase_hc_iso.wav	2	6	4	noise_calib_stim_RIGHT.wav	2	23	blb_dichoticlistening_ka-pa.mp3	ka	pa	1	left
6.6.0	win	2023-06-02	03:10:37	03:22:21	700237	5f20c7843957f61f62c58bb6	3	1	DL_test	23	DL_test	5	stimuli_distractor_diamondtriangles.svg	stimuli_target_squaretriangles.svg	15	yes	ba	1	1629	6	1	antiphase_hc_iso.wav	2	6	4	noise_calib_stim_RIGHT.wav	2	1	blb_dichoticlistening_ba-ba.mp3	ba	ba	0	left
6.6.0	win	2023-06-02	03:10:37	03:22:21	700237	5f20c7843957f61f62c58bb6	3	1	DL_test	23	DL_test	6	stimuli_distractor_diamondtriangles.svg	stimuli_target_squaretriangles.svg	15	yes	pa	0	1898	6	1	antiphase_hc_iso.wav	2	6	4	noise_calib_stim_RIGHT.wav	2	31	blb_dichoticlistening_ta-ba.mp3	ta	ba	1	other
6.6.0	win	2023-06-02	03:10:37	03:22:21	700237	5f20c7843957f61f62c58bb6	3	1	DL_test	23	DL_test	7	stimuli_distractor_diamondtriangles.svg	stimuli_target_squaretriangles.svg	15	yes	pa	0	2019	6	1	antiphase_hc_iso.wav	2	6	4	noise_calib_stim_RIGHT.wav	2	10	blb_dichoticlistening_da-ka.mp3	da	ka	1	other
6.6.0	win	2023-06-02	03:10:37	03:22:21	700237	5f20c7843957f61f62c58bb6	3	1	DL_test	23	DL_test	8	stimuli_distractor_diamondtriangles.svg	stimuli_target_squaretriangles.svg	15	yes	pa	0	1333	6	1	antiphase_hc_iso.wav	2	6	4	noise_calib_stim_RIGHT.wav	2	6	blb_dichoticlistening_ba-ta.mp3	ba	ta	1	other
6.6.0	win	2023-06-02	03:10:37	03:22:21	700237	5f20c7843957f61f62c58bb6	3	1	DL_test	23	DL_test	9	stimuli_distractor_diamondtriangles.svg	stimuli_target_squaretriangles.svg	15	yes	da	1	2982	6	1	antiphase_hc_iso.wav	2	6	4	noise_calib_stim_RIGHT.wav	2	9	blb_dichoticlistening_da-ga.mp3	da	ga	1	left
6.6.0	win	2023-06-02	03:10:37	03:22:21	700237	5f20c7843957f61f62c58bb6	3	1	DL_test	23	DL_test	10	stimuli_distractor_diamondtriangles.svg	stimuli_target_squaretriangles.svg	15	yes	ta	1	1993	6	1	antiphase_hc_iso.wav	2	6	4	noise_calib_stim_RIGHT.wav	2	35	blb_dichoticlistening_ta-pa.mp3	ta	pa	1	left
6.6.0	win	2023-06-02	03:10:37	03:22:21	700237	5f20c7843957f61f62c58bb6	3	1	DL_test	23	DL_test	11	stimuli_distractor_diamondtriangles.svg	stimuli_target_squaretriangles.svg	15	yes	ga	1	2664	6	1	antiphase_hc_iso.wav	2	6	4	noise_calib_stim_RIGHT.wav	2	27	blb_dichoticlistening_pa-ga.mp3	pa	ga	1	right
6.6.0	win	2023-06-02	03:10:37	03:22:21	700237	5f20c7843957f61f62c58bb6	3	1	DL_test	23	DL_test	12	stimuli_distractor_diamondtriangles.svg	stimuli_target_squaretriangles.svg	15	yes	ga	1	1001	6	1	antiphase_hc_iso.wav	2	6	4	noise_calib_stim_RIGHT.wav	2	3	blb_dichoticlistening_ba-ga.mp3	ba	ga	1	right
6.6.0	win	2023-06-02	03:10:37	03:22:21	700237	5f20c7843957f61f62c58bb6	3	1	DL_test	23	DL_test	13	stimuli_distractor_diamondtriangles.svg	stimuli_target_squaretriangles.svg	15	yes	da	1	1859	6	1	antiphase_hc_iso.wav	2	6	4	noise_calib_stim_RIGHT.wav	2	26	blb_dichoticlistening_pa-da.mp3	pa	da	1	right
6.6.0	win	2023-06-02	03:10:37	03:22:21	700237	5f20c7843957f61f62c58bb6	3	1	DL_test	23	DL_test	14	stimuli_distractor_diamondtriangles.svg	stimuli_target_squaretriangles.svg	15	yes	ta	1	1733	6	1	antiphase_hc_iso.wav	2	6	4	noise_calib_stim_RIGHT.wav	2	36	blb_dichoticlistening_ta-ta.mp3	ta	ta	0	left
6.6.0	win	2023-06-02	03:10:37	03:22:21	700237	5f20c7843957f61f62c58bb6	3	1	DL_test	23	DL_test	15	stimuli_distractor_diamondtriangles.svg	stimuli_target_squaretriangles.svg	15	yes	ga	1	1532	6	1	antiphase_hc_iso.wav	2	6	4	noise_calib_stim_RIGHT.wav	2	21	blb_dichoticlistening_ka-ga.mp3	ka	ga	1	right
6.6.0	win	2023-06-02	03:10:37	03:22:21	700237	5f20c7843957f61f62c58bb6	3	1	DL_test	23	DL_test	16	stimuli_distractor_diamondtriangles.svg	stimuli_target_squaretriangles.svg	15	yes	ba	1	1977	6	1	antiphase_hc_iso.wav	2	6	4	noise_calib_stim_RIGHT.wav	2	13	blb_dichoticlistening_ga-ba.mp3	ga	ba	1	right
6.6.0	win	2023-06-02	03:10:37	03:22:21	700237	5f20c7843957f61f62c58bb6	3	1	DL_test	23	DL_test	17	stimuli_distractor_diamondtriangles.svg	stimuli_target_squaretriangles.svg	15	yes	pa	1	1762	6	1	antiphase_hc_iso.wav	2	6	4	noise_calib_stim_RIGHT.wav	2	5	blb_dichoticlistening_ba-pa.mp3	ba	pa	1	right
6.6.0	win	2023-06-02	03:10:37	03:22:21	700237	5f20c7843957f61f62c58bb6	3	1	DL_test	23	DL_test	18	stimuli_distractor_diamondtriangles.svg	stimuli_target_squaretriangles.svg	15	yes	ga	1	1444	6	1	antiphase_hc_iso.wav	2	6	4	noise_calib_stim_RIGHT.wav	2	33	blb_dichoticlistening_ta-ga.mp3	ta	ga	1	right
6.6.0	win	2023-06-02	03:10:37	03:22:21	700237	5f20c7843957f61f62c58bb6	3	1	DL_test	23	DL_test	19	stimuli_distractor_diamondtriangles.svg	stimuli_target_squaretriangles.svg	15	yes	ga	1	1109	6	1	antiphase_hc_iso.wav	2	6	4	noise_calib_stim_RIGHT.wav	2	14	blb_dichoticlistening_ga-da.mp3	ga	da	1	left
6.6.0	win	2023-06-02	03:10:37	03:22:21	700237	5f20c7843957f61f62c58bb6	3	1	DL_test	23	DL_test	20	stimuli_distractor_diamondtriangles.svg	stimuli_target_squaretriangles.svg	15	yes	pa	1	1612	6	1	antiphase_hc_iso.wav	2	6	4	noise_calib_stim_RIGHT.wav	2	28	blb_dichoticlistening_pa-ka.mp3	pa	ka	1	left
6.6.0	win	2023-06-02	03:10:37	03:22:21	700237	5f20c7843957f61f62c58bb6	3	1	DL_test	23	DL_test	21	stimuli_distractor_diamondtriangles.svg	stimuli_target_squaretriangles.svg	15	yes	da	1	1441	6	1	antiphase_hc_iso.wav	2	6	4	noise_calib_stim_RIGHT.wav	2	7	blb_dichoticlistening_da-ba.mp3	da	ba	1	left
6.6.0	win	2023-06-02	03:10:37	03:22:21	700237	5f20c7843957f61f62c58bb6	3	1	DL_test	23	DL_test	22	stimuli_distractor_diamondtriangles.svg	stimuli_target_squaretriangles.svg	15	yes	ka	1	1433	6	1	antiphase_hc_iso.wav	2	6	4	noise_calib_stim_RIGHT.wav	2	4	blb_dichoticlistening_ba-ka.mp3	ba	ka	1	right
6.6.0	win	2023-06-02	03:10:37	03:22:21	700237	5f20c7843957f61f62c58bb6	3	1	DL_test	23	DL_test	23	stimuli_distractor_diamondtriangles.svg	stimuli_target_squaretriangles.svg	15	yes	da	1	1791	6	1	antiphase_hc_iso.wav	2	6	4	noise_calib_stim_RIGHT.wav	2	8	blb_dichoticlistening_da-da.mp3	da	da	0	left
6.6.0	win	2023-06-02	03:10:37	03:22:21	700237	5f20c7843957f61f62c58bb6	3	1	DL_test	23	DL_test	24	stimuli_distractor_diamondtriangles.svg	stimuli_target_squaretriangles.svg	15	yes	da	1	1550	6	1	antiphase_hc_iso.wav	2	6	4	noise_calib_stim_RIGHT.wav	2	2	blb_dichoticlistening_ba-da.mp3	ba	da	1	right
6.6.0	win	2023-06-02	03:10:37	03:22:21	700237	5f20c7843957f61f62c58bb6	3	1	DL_test	23	DL_test	25	stimuli_distractor_diamondtriangles.svg	stimuli_target_squaretriangles.svg	15	yes	ka	1	1610	6	1	antiphase_hc_iso.wav	2	6	4	noise_calib_stim_RIGHT.wav	2	16	blb_dichoticlistening_ga-ka.mp3	ga	ka	1	right
6.6.0	win	2023-06-02	03:10:37	03:22:21	700237	5f20c7843957f61f62c58bb6	3	1	DL_test	23	DL_test	26	stimuli_distractor_diamondtriangles.svg	stimuli_target_squaretriangles.svg	15	yes	pa	1	2080	6	1	antiphase_hc_iso.wav	2	6	4	noise_calib_stim_RIGHT.wav	2	17	blb_dichoticlistening_ga-pa.mp3	ga	pa	1	right
