build	computer.platform	date	time	timestamp	time_elapsed_ms	subject	group	session	blockcode	blocknum	trialcode	trialnum	stimulus_left	stimulus_right	stim_index	target_present	response	correct	latency	headphonecheck_countTestTrials	headphonecheck_index	headphonecheck_testSound	headphonecheck_correctResponse	stereocheck_countTestTrials	stereocheck_index	stereocheck_testSound	stereocheck_correctResponse	DL_index	DL_soundfile	DL_leftSound	DL_rightSound	DL_dualSound	DL_choice
6.6.1	win	2023-06-02	06:00:10	06:03:41	208501	5654175604212700054a12b1	4	1	practice_z	5	practice_z	1	stimuli_distractor_trianglediamonds.svg	stimuli_target_rectanglediamonds.svg	10	yes	0	0	2000	0	0			0	0			1				0	
6.6.1	win	2023-06-02	06:00:10	06:03:41	208501	5654175604212700054a12b1	4	1	practice_z	5	advance_on_keypress_ZEE	2	stimuli_distractor_trianglediamonds.svg	stimuli_target_rectanglediamonds.svg	10	yes	57	0	678	0	0			0	0			1				0	
6.6.1	win	2023-06-02	06:00:10	06:03:45	212078	5654175604212700054a12b1	4	1	practice_z	5	practice_z	3	stimuli_distractor_diamondtriangles.svg	stimuli_distractor_diamondtriangles.svg	13	no	44	0	1275	0	0			0	0			1				0	
6.6.1	win	2023-06-02	06:00:10	06:03:45	212078	5654175604212700054a12b1	4	1	practice_z	5	advance_on_keypress_ZEE	4	stimuli_distractor_diamondtriangles.svg	stimuli_distractor_diamondtriangles.svg	13	no	57	0	440	0	0			0	0			1				0	
6.6.1	win	2023-06-02	06:00:10	06:03:49	216138	5654175604212700054a12b1	4	1	practice_z	5	practice_z	5	stimuli_target_diamondsquares.svg	stimuli_distractor_diamondtriangles.svg	3	yes	0	0	2000	0	0			0	0			1				0	
6.6.1	win	2023-06-02	06:00:10	06:03:49	216138	5654175604212700054a12b1	4	1	practice_z	5	advance_on_keypress_ZEE	6	stimuli_target_diamondsquares.svg	stimuli_distractor_diamondtriangles.svg	3	yes	57	0	1141	0	0			0	0			1				0	
6.6.1	win	2023-06-02	06:00:10	06:03:52	219434	5654175604212700054a12b1	4	1	practice_z	5	practice_z	7	stimuli_target_rectanglediamonds.svg	stimuli_distractor_diamondtriangles.svg	1	yes	44	1	539	0	0			0	0			1				0	
6.6.1	win	2023-06-02	06:00:10	06:03:52	219434	5654175604212700054a12b1	4	1	practice_z	5	advance_on_keypress_ZEE	8	stimuli_target_rectanglediamonds.svg	stimuli_distractor_diamondtriangles.svg	1	yes	57	0	333	0	0			0	0			1				0	
6.6.1	win	2023-06-02	06:00:10	06:03:54	221697	5654175604212700054a12b1	4	1	practice_z	5	practice_z	9	stimuli_target_rectanglediamonds.svg	stimuli_distractor_trianglediamonds.svg	4	yes	44	1	311	0	0			0	0			1				0	
6.6.1	win	2023-06-02	06:00:10	06:03:54	221697	5654175604212700054a12b1	4	1	practice_z	5	advance_on_keypress_ZEE	10	stimuli_target_rectanglediamonds.svg	stimuli_distractor_trianglediamonds.svg	4	yes	57	0	378	0	0			0	0			1				0	
6.6.1	win	2023-06-02	06:00:10	06:03:57	224113	5654175604212700054a12b1	4	1	practice_z	5	practice_z	11	stimuli_target_squarediamonds.svg	stimuli_distractor_trianglediamonds.svg	5	yes	44	1	419	0	0			0	0			1				0	
6.6.1	win	2023-06-02	06:00:10	06:03:57	224113	5654175604212700054a12b1	4	1	practice_z	5	advance_on_keypress_ZEE	12	stimuli_target_squarediamonds.svg	stimuli_distractor_trianglediamonds.svg	5	yes	57	0	250	0	0			0	0			1				0	
6.6.1	win	2023-06-02	06:00:10	06:03:59	226314	5654175604212700054a12b1	4	1	practice_z	5	practice_z	13	stimuli_target_squarediamonds.svg	stimuli_distractor_diamondtriangles.svg	2	yes	44	1	335	0	0			0	0			1				0	
6.6.1	win	2023-06-02	06:00:10	06:03:59	226314	5654175604212700054a12b1	4	1	practice_z	5	advance_on_keypress_ZEE	14	stimuli_target_squarediamonds.svg	stimuli_distractor_diamondtriangles.svg	2	yes	57	0	378	0	0			0	0			1				0	
6.6.1	win	2023-06-02	06:00:10	06:04:01	228589	5654175604212700054a12b1	4	1	practice_z	5	practice_z	15	stimuli_target_diamondsquares.svg	stimuli_distractor_trianglediamonds.svg	6	yes	44	1	282	0	0			0	0			1				0	
6.6.1	win	2023-06-02	06:00:10	06:04:01	228589	5654175604212700054a12b1	4	1	practice_z	5	advance_on_keypress_ZEE	16	stimuli_target_diamondsquares.svg	stimuli_distractor_trianglediamonds.svg	6	yes	57	0	232	0	0			0	0			1				0	
6.6.1	win	2023-06-02	06:00:10	06:04:03	230890	5654175604212700054a12b1	4	1	practice_z	5	practice_z	17	stimuli_distractor_diamondtriangles.svg	stimuli_target_rectangletriangles.svg	7	yes	44	1	444	0	0			0	0			1				0	
6.6.1	win	2023-06-02	06:00:10	06:04:03	230890	5654175604212700054a12b1	4	1	practice_z	5	advance_on_keypress_ZEE	18	stimuli_distractor_diamondtriangles.svg	stimuli_target_rectangletriangles.svg	7	yes	57	0	419	0	0			0	0			1				0	
6.6.1	win	2023-06-02	06:00:10	06:04:06	233537	5654175604212700054a12b1	4	1	practice_z	5	practice_z	19	stimuli_distractor_trianglediamonds.svg	stimuli_distractor_trianglediamonds.svg	15	no	44	0	612	0	0			0	0			1				0	
6.6.1	win	2023-06-02	06:00:10	06:04:06	233537	5654175604212700054a12b1	4	1	practice_z	5	advance_on_keypress_ZEE	20	stimuli_distractor_trianglediamonds.svg	stimuli_distractor_trianglediamonds.svg	15	no	57	0	1326	0	0			0	0			1				0	
6.6.1	win	2023-06-02	06:00:10	06:04:10	237129	5654175604212700054a12b1	4	1	practice_z	5	practice_z	21	stimuli_distractor_trianglediamonds.svg	stimuli_target_diamondrectangles.svg	12	yes	44	1	648	0	0			0	0			1				0	
6.6.1	win	2023-06-02	06:00:10	06:04:10	237129	5654175604212700054a12b1	4	1	practice_z	5	advance_on_keypress_ZEE	22	stimuli_distractor_trianglediamonds.svg	stimuli_target_diamondrectangles.svg	12	yes	57	0	297	0	0			0	0			1				0	
6.6.1	win	2023-06-02	06:00:10	06:04:14	241046	5654175604212700054a12b1	4	1	practice_z	5	practice_z	23	stimuli_distractor_diamondtriangles.svg	stimuli_distractor_trianglediamonds.svg	14	no	0	1	2000	0	0			0	0			1				0	
6.6.1	win	2023-06-02	06:00:10	06:04:14	241046	5654175604212700054a12b1	4	1	practice_z	5	advance_on_keypress_ZEE	24	stimuli_distractor_diamondtriangles.svg	stimuli_distractor_trianglediamonds.svg	14	no	57	0	296	0	0			0	0			1				0	
6.6.1	win	2023-06-02	06:00:10	06:04:17	244392	5654175604212700054a12b1	4	1	practice_z	5	practice_z	25	stimuli_distractor_diamondtriangles.svg	stimuli_target_diamondrectangles.svg	8	yes	44	1	1431	0	0			0	0			1				0	
6.6.1	win	2023-06-02	06:00:10	06:04:17	244392	5654175604212700054a12b1	4	1	practice_z	5	advance_on_keypress_ZEE	26	stimuli_distractor_diamondtriangles.svg	stimuli_target_diamondrectangles.svg	8	yes	57	0	200	0	0			0	0			1				0	
6.6.1	win	2023-06-02	06:00:10	06:04:20	247424	5654175604212700054a12b1	4	1	practice_z	5	practice_z	27	stimuli_distractor_diamondtriangles.svg	stimuli_target_trianglerectangles.svg	9	yes	44	1	1210	0	0			0	0			1				0	
6.6.1	win	2023-06-02	06:00:10	06:04:20	247424	5654175604212700054a12b1	4	1	practice_z	5	advance_on_keypress_ZEE	28	stimuli_distractor_diamondtriangles.svg	stimuli_target_trianglerectangles.svg	9	yes	57	0	219	0	0			0	0			1				0	
6.6.1	win	2023-06-02	06:00:10	06:04:23	249970	5654175604212700054a12b1	4	1	practice_z	5	practice_z	29	stimuli_distractor_trianglediamonds.svg	stimuli_target_squarediamonds.svg	11	yes	44	1	706	0	0			0	0			1				0	
6.6.1	win	2023-06-02	06:00:10	06:04:23	249970	5654175604212700054a12b1	4	1	practice_z	5	advance_on_keypress_ZEE	30	stimuli_distractor_trianglediamonds.svg	stimuli_target_squarediamonds.svg	11	yes	57	0	113	0	0			0	0			1				0	
6.6.1	win	2023-06-02	06:00:10	06:04:25	252560	5654175604212700054a12b1	4	1	practice_z	5	practice_z	31	stimuli_distractor_trianglediamonds.svg	stimuli_distractor_diamondtriangles.svg	16	no	44	0	854	0	0			0	0			1				0	
6.6.1	win	2023-06-02	06:00:10	06:04:25	252560	5654175604212700054a12b1	4	1	practice_z	5	advance_on_keypress_ZEE	32	stimuli_distractor_trianglediamonds.svg	stimuli_distractor_diamondtriangles.svg	16	no	57	0	80	0	0			0	0			1				0	
6.6.1	win	2023-06-02	06:00:10	06:04:30	257875	5654175604212700054a12b1	4	1	main_z	7	main_z	1	stimuli_distractor_trianglediamonds.svg	stimuli_target_trianglesquares.svg	26	yes	0	0	2000	0	0			0	0			1				0	
6.6.1	win	2023-06-02	06:00:10	06:04:30	257875	5654175604212700054a12b1	4	1	main_z	7	advance_on_keypress_ZEE	2	stimuli_distractor_trianglediamonds.svg	stimuli_target_trianglesquares.svg	26	yes	57	0	510	0	0			0	0			1				0	
6.6.1	win	2023-06-02	06:00:10	06:04:34	261002	5654175604212700054a12b1	4	1	main_z	7	main_z	3	stimuli_distractor_trianglediamonds.svg	stimuli_distractor_trianglediamonds.svg	33	no	0	1	2000	0	0			0	0			1				0	
6.6.1	win	2023-06-02	06:00:10	06:04:34	261002	5654175604212700054a12b1	4	1	main_z	7	advance_on_keypress_ZEE	4	stimuli_distractor_trianglediamonds.svg	stimuli_distractor_trianglediamonds.svg	33	no	57	0	497	0	0			0	0			1				0	
6.6.1	win	2023-06-02	06:00:10	06:04:35	262689	5654175604212700054a12b1	4	1	main_z	7	main_z	5	stimuli_distractor_trianglediamonds.svg	stimuli_target_squaretriangles.svg	11	yes	44	1	572	0	0			0	0			1				0	
6.6.1	win	2023-06-02	06:00:10	06:04:35	262689	5654175604212700054a12b1	4	1	main_z	7	advance_on_keypress_ZEE	6	stimuli_distractor_trianglediamonds.svg	stimuli_target_squaretriangles.svg	11	yes	57	0	660	0	0			0	0			1				0	
6.6.1	win	2023-06-02	06:00:10	06:04:39	265966	5654175604212700054a12b1	4	1	main_z	7	main_z	7	stimuli_distractor_diamondtriangles.svg	stimuli_distractor_diamondtriangles.svg	39	no	0	1	2000	0	0			0	0			1				0	
6.6.1	win	2023-06-02	06:00:10	06:04:39	265966	5654175604212700054a12b1	4	1	main_z	7	advance_on_keypress_ZEE	8	stimuli_distractor_diamondtriangles.svg	stimuli_distractor_diamondtriangles.svg	39	no	57	0	314	0	0			0	0			1				0	
6.6.1	win	2023-06-02	06:00:10	06:04:41	268899	5654175604212700054a12b1	4	1	main_z	7	main_z	9	stimuli_distractor_trianglediamonds.svg	stimuli_distractor_diamondtriangles.svg	35	no	0	1	2000	0	0			0	0			1				0	
6.6.1	win	2023-06-02	06:00:10	06:04:41	268899	5654175604212700054a12b1	4	1	main_z	7	advance_on_keypress_ZEE	10	stimuli_distractor_trianglediamonds.svg	stimuli_distractor_diamondtriangles.svg	35	no	57	0	313	0	0			0	0			1				0	
6.6.1	win	2023-06-02	06:00:10	06:04:44	271832	5654175604212700054a12b1	4	1	main_z	7	main_z	11	stimuli_distractor_diamondtriangles.svg	stimuli_distractor_trianglediamonds.svg	37	no	0	1	2000	0	0			0	0			1				0	
6.6.1	win	2023-06-02	06:00:10	06:04:44	271832	5654175604212700054a12b1	4	1	main_z	7	advance_on_keypress_ZEE	12	stimuli_distractor_diamondtriangles.svg	stimuli_distractor_trianglediamonds.svg	37	no	57	0	271	0	0			0	0			1				0	
6.6.1	win	2023-06-02	06:00:10	06:04:46	273171	5654175604212700054a12b1	4	1	main_z	7	main_z	13	stimuli_target_rectanglediamonds.svg	stimuli_distractor_diamondtriangles.svg	6	yes	44	1	448	0	0			0	0			1				0	
6.6.1	win	2023-06-02	06:00:10	06:04:46	273171	5654175604212700054a12b1	4	1	main_z	7	advance_on_keypress_ZEE	14	stimuli_target_rectanglediamonds.svg	stimuli_distractor_diamondtriangles.svg	6	yes	57	0	718	0	0			0	0			1				0	
6.6.1	win	2023-06-02	06:00:10	06:04:49	276505	5654175604212700054a12b1	4	1	main_z	7	main_z	15	stimuli_target_diamondsquares.svg	stimuli_distractor_trianglediamonds.svg	20	yes	0	0	2000	0	0			0	0			1				0	
6.6.1	win	2023-06-02	06:00:10	06:04:49	276505	5654175604212700054a12b1	4	1	main_z	7	advance_on_keypress_ZEE	16	stimuli_target_diamondsquares.svg	stimuli_distractor_trianglediamonds.svg	20	yes	57	0	274	0	0			0	0			1				0	
6.6.1	win	2023-06-02	06:00:10	06:04:51	277995	5654175604212700054a12b1	4	1	main_z	7	main_z	17	stimuli_target_squarediamonds.svg	stimuli_distractor_diamondtriangles.svg	8	yes	44	1	600	0	0			0	0			1				0	
6.6.1	win	2023-06-02	06:00:10	06:04:51	277995	5654175604212700054a12b1	4	1	main_z	7	advance_on_keypress_ZEE	18	stimuli_target_squarediamonds.svg	stimuli_distractor_diamondtriangles.svg	8	yes	57	0	875	0	0			0	0			1				0	
6.6.1	win	2023-06-02	06:00:10	06:04:54	281486	5654175604212700054a12b1	4	1	main_z	7	main_z	19	stimuli_target_trianglesquares.svg	stimuli_distractor_diamondtriangles.svg	22	yes	0	0	2000	0	0			0	0			1				0	
6.6.1	win	2023-06-02	06:00:10	06:04:54	281486	5654175604212700054a12b1	4	1	main_z	7	advance_on_keypress_ZEE	20	stimuli_target_trianglesquares.svg	stimuli_distractor_diamondtriangles.svg	22	yes	57	0	336	0	0			0	0			1				0	
6.6.1	win	2023-06-02	06:00:10	06:04:57	284438	5654175604212700054a12b1	4	1	main_z	7	main_z	21	stimuli_target_diamondsquares.svg	stimuli_distractor_diamondtriangles.svg	24	yes	0	0	2000	0	0			0	0			1				0	
6.6.1	win	2023-06-02	06:00:10	06:04:57	284438	5654175604212700054a12b1	4	1	main_z	7	advance_on_keypress_ZEE	22	stimuli_target_diamondsquares.svg	stimuli_distractor_diamondtriangles.svg	24	yes	57	0	258	0	0			0	0			1				0	
6.6.1	win	2023-06-02	06:00:10	06:04:58	285903	5654175604212700054a12b1	4	1	main_z	7	main_z	23	stimuli_distractor_diamondtriangles.svg	stimuli_target_squaretriangles.svg	15	yes	44	1	592	0	0			0	0			1				0	
6.6.1	win	2023-06-02	06:00:10	06:04:58	285903	5654175604212700054a12b1	4	1	main_z	7	advance_on_keypress_ZEE	24	stimuli_distractor_diamondtriangles.svg	stimuli_target_squaretriangles.svg	15	yes	57	0	598	0	0			0	0			1				0	
6.6.1	win	2023-06-02	06:00:10	06:05:00	287654	5654175604212700054a12b1	4	1	main_z	7	main_z	25	stimuli_target_rectangletriangles.svg	stimuli_distractor_diamondtriangles.svg	5	yes	44	1	532	0	0			0	0			1				0	
6.6.1	win	2023-06-02	06:00:10	06:05:00	287654	5654175604212700054a12b1	4	1	main_z	7	advance_on_keypress_ZEE	26	stimuli_target_rectangletriangles.svg	stimuli_distractor_diamondtriangles.svg	5	yes	57	0	511	0	0			0	0			1				0	
6.6.1	win	2023-06-02	06:00:10	06:05:02	289280	5654175604212700054a12b1	4	1	main_z	7	main_z	27	stimuli_distractor_diamondtriangles.svg	stimuli_target_rectangletriangles.svg	13	yes	44	1	497	0	0			0	0			1				0	
6.6.1	win	2023-06-02	06:00:10	06:05:02	289280	5654175604212700054a12b1	4	1	main_z	7	advance_on_keypress_ZEE	28	stimuli_distractor_diamondtriangles.svg	stimuli_target_rectangletriangles.svg	13	yes	57	0	431	0	0			0	0			1				0	
6.6.1	win	2023-06-02	06:00:10	06:05:03	290821	5654175604212700054a12b1	4	1	main_z	7	main_z	29	stimuli_distractor_diamondtriangles.svg	stimuli_target_rectanglediamonds.svg	14	yes	44	1	493	0	0			0	0			1				0	
6.6.1	win	2023-06-02	06:00:10	06:05:03	290821	5654175604212700054a12b1	4	1	main_z	7	advance_on_keypress_ZEE	30	stimuli_distractor_diamondtriangles.svg	stimuli_target_rectanglediamonds.svg	14	yes	57	0	436	0	0			0	0			1				0	
6.6.1	win	2023-06-02	06:00:10	06:05:05	292369	5654175604212700054a12b1	4	1	main_z	7	main_z	31	stimuli_target_squarediamonds.svg	stimuli_distractor_trianglediamonds.svg	4	yes	44	1	496	0	0			0	0			1				0	
6.6.1	win	2023-06-02	06:00:10	06:05:05	292369	5654175604212700054a12b1	4	1	main_z	7	advance_on_keypress_ZEE	32	stimuli_target_squarediamonds.svg	stimuli_distractor_trianglediamonds.svg	4	yes	57	0	434	0	0			0	0			1				0	
6.6.1	win	2023-06-02	06:00:10	06:05:06	293774	5654175604212700054a12b1	4	1	main_z	7	main_z	33	stimuli_target_squaretriangles.svg	stimuli_distractor_diamondtriangles.svg	7	yes	44	1	349	0	0			0	0			1				0	
6.6.1	win	2023-06-02	06:00:10	06:05:06	293774	5654175604212700054a12b1	4	1	main_z	7	advance_on_keypress_ZEE	34	stimuli_target_squaretriangles.svg	stimuli_distractor_diamondtriangles.svg	7	yes	57	0	358	0	0			0	0			1				0	
6.6.1	win	2023-06-02	06:00:10	06:05:08	295225	5654175604212700054a12b1	4	1	main_z	7	main_z	35	stimuli_target_rectangletriangles.svg	stimuli_distractor_trianglediamonds.svg	1	yes	44	1	473	0	0			0	0			1				0	
6.6.1	win	2023-06-02	06:00:10	06:05:08	295225	5654175604212700054a12b1	4	1	main_z	7	advance_on_keypress_ZEE	36	stimuli_target_rectangletriangles.svg	stimuli_distractor_trianglediamonds.svg	1	yes	57	0	352	0	0			0	0			1				0	
6.6.1	win	2023-06-02	06:00:10	06:05:10	297165	5654175604212700054a12b1	4	1	main_z	7	main_z	37	stimuli_distractor_diamondtriangles.svg	stimuli_target_diamondsquares.svg	32	yes	44	1	971	0	0			0	0			1				0	
6.6.1	win	2023-06-02	06:00:10	06:05:10	297165	5654175604212700054a12b1	4	1	main_z	7	advance_on_keypress_ZEE	38	stimuli_distractor_diamondtriangles.svg	stimuli_target_diamondsquares.svg	32	yes	57	0	215	0	0			0	0			1				0	
6.6.1	win	2023-06-02	06:00:10	06:05:13	299995	5654175604212700054a12b1	4	1	main_z	7	main_z	39	stimuli_distractor_trianglediamonds.svg	stimuli_target_diamondrectangles.svg	27	yes	0	0	2000	0	0			0	0			1				0	
6.6.1	win	2023-06-02	06:00:10	06:05:13	299995	5654175604212700054a12b1	4	1	main_z	7	advance_on_keypress_ZEE	40	stimuli_distractor_trianglediamonds.svg	stimuli_target_diamondrectangles.svg	27	yes	57	0	198	0	0			0	0			1				0	
6.6.1	win	2023-06-02	06:00:10	06:05:14	301321	5654175604212700054a12b1	4	1	main_z	7	main_z	41	stimuli_distractor_diamondtriangles.svg	stimuli_target_trianglerectangles.svg	29	yes	44	1	515	0	0			0	0			1				0	
6.6.1	win	2023-06-02	06:00:10	06:05:14	301321	5654175604212700054a12b1	4	1	main_z	7	advance_on_keypress_ZEE	42	stimuli_distractor_diamondtriangles.svg	stimuli_target_trianglerectangles.svg	29	yes	57	0	515	0	0			0	0			1				0	
6.6.1	win	2023-06-02	06:00:10	06:05:17	304455	5654175604212700054a12b1	4	1	main_z	7	main_z	43	stimuli_target_trianglerectangles.svg	stimuli_distractor_trianglediamonds.svg	17	yes	0	0	2000	0	0			0	0			1				0	
6.6.1	win	2023-06-02	06:00:10	06:05:17	304455	5654175604212700054a12b1	4	1	main_z	7	advance_on_keypress_ZEE	44	stimuli_target_trianglerectangles.svg	stimuli_distractor_trianglediamonds.svg	17	yes	57	0	296	0	0			0	0			1				0	
6.6.1	win	2023-06-02	06:00:10	06:05:19	306564	5654175604212700054a12b1	4	1	main_z	7	main_z	45	stimuli_distractor_trianglediamonds.svg	stimuli_target_trianglerectangles.svg	25	yes	44	1	1193	0	0			0	0			1				0	
6.6.1	win	2023-06-02	06:00:10	06:05:19	306564	5654175604212700054a12b1	4	1	main_z	7	advance_on_keypress_ZEE	46	stimuli_distractor_trianglediamonds.svg	stimuli_target_trianglerectangles.svg	25	yes	57	0	214	0	0			0	0			1				0	
6.6.1	win	2023-06-02	06:00:10	06:05:21	308008	5654175604212700054a12b1	4	1	main_z	7	main_z	47	stimuli_target_trianglesquares.svg	stimuli_distractor_trianglediamonds.svg	18	yes	44	1	613	0	0			0	0			1				0	
6.6.1	win	2023-06-02	06:00:10	06:05:21	308008	5654175604212700054a12b1	4	1	main_z	7	advance_on_keypress_ZEE	48	stimuli_target_trianglesquares.svg	stimuli_distractor_trianglediamonds.svg	18	yes	57	0	175	0	0			0	0			1				0	
6.6.1	win	2023-06-02	06:00:10	06:05:22	309822	5654175604212700054a12b1	4	1	main_z	7	main_z	49	stimuli_target_squaretriangles.svg	stimuli_distractor_trianglediamonds.svg	3	yes	44	1	1022	0	0			0	0			1				0	
6.6.1	win	2023-06-02	06:00:10	06:05:22	309822	5654175604212700054a12b1	4	1	main_z	7	advance_on_keypress_ZEE	50	stimuli_target_squaretriangles.svg	stimuli_distractor_trianglediamonds.svg	3	yes	57	0	186	0	0			0	0			1				0	
6.6.1	win	2023-06-02	06:00:10	06:05:25	312126	5654175604212700054a12b1	4	1	main_z	7	main_z	51	stimuli_distractor_trianglediamonds.svg	stimuli_target_rectanglediamonds.svg	10	yes	44	1	1496	0	0			0	0			1				0	
6.6.1	win	2023-06-02	06:00:10	06:05:25	312126	5654175604212700054a12b1	4	1	main_z	7	advance_on_keypress_ZEE	52	stimuli_distractor_trianglediamonds.svg	stimuli_target_rectanglediamonds.svg	10	yes	57	0	173	0	0			0	0			1				0	
6.6.1	win	2023-06-02	06:00:10	06:05:26	313571	5654175604212700054a12b1	4	1	main_z	7	main_z	53	stimuli_distractor_diamondtriangles.svg	stimuli_target_trianglesquares.svg	30	yes	44	1	656	0	0			0	0			1				0	
6.6.1	win	2023-06-02	06:00:10	06:05:26	313571	5654175604212700054a12b1	4	1	main_z	7	advance_on_keypress_ZEE	54	stimuli_distractor_diamondtriangles.svg	stimuli_target_trianglesquares.svg	30	yes	57	0	235	0	0			0	0			1				0	
6.6.1	win	2023-06-02	06:00:10	06:05:28	314956	5654175604212700054a12b1	4	1	main_z	7	main_z	55	stimuli_distractor_trianglediamonds.svg	stimuli_target_rectangletriangles.svg	9	yes	44	1	532	0	0			0	0			1				0	
6.6.1	win	2023-06-02	06:00:10	06:05:28	314956	5654175604212700054a12b1	4	1	main_z	7	advance_on_keypress_ZEE	56	stimuli_distractor_trianglediamonds.svg	stimuli_target_rectangletriangles.svg	9	yes	57	0	253	0	0			0	0			1				0	
6.6.1	win	2023-06-02	06:00:10	06:05:29	316266	5654175604212700054a12b1	4	1	main_z	7	main_z	57	stimuli_target_rectanglediamonds.svg	stimuli_distractor_trianglediamonds.svg	2	yes	44	1	436	0	0			0	0			1				0	
6.6.1	win	2023-06-02	06:00:10	06:05:29	316266	5654175604212700054a12b1	4	1	main_z	7	advance_on_keypress_ZEE	58	stimuli_target_rectanglediamonds.svg	stimuli_distractor_trianglediamonds.svg	2	yes	57	0	257	0	0			0	0			1				0	
6.6.1	win	2023-06-02	06:00:10	06:05:30	317708	5654175604212700054a12b1	4	1	main_z	7	main_z	59	stimuli_distractor_trianglediamonds.svg	stimuli_target_diamondsquares.svg	28	yes	44	1	569	0	0			0	0			1				0	
6.6.1	win	2023-06-02	06:00:10	06:05:30	317708	5654175604212700054a12b1	4	1	main_z	7	advance_on_keypress_ZEE	60	stimuli_distractor_trianglediamonds.svg	stimuli_target_diamondsquares.svg	28	yes	57	0	196	0	0			0	0			1				0	
6.6.1	win	2023-06-02	06:00:10	06:05:32	319218	5654175604212700054a12b1	4	1	main_z	7	main_z	61	stimuli_distractor_diamondtriangles.svg	stimuli_target_diamondrectangles.svg	31	yes	44	1	696	0	0			0	0			1				0	
6.6.1	win	2023-06-02	06:00:10	06:05:32	319218	5654175604212700054a12b1	4	1	main_z	7	advance_on_keypress_ZEE	62	stimuli_distractor_diamondtriangles.svg	stimuli_target_diamondrectangles.svg	31	yes	57	0	196	0	0			0	0			1				0	
6.6.1	win	2023-06-02	06:00:10	06:05:33	320526	5654175604212700054a12b1	4	1	main_z	7	main_z	63	stimuli_distractor_diamondtriangles.svg	stimuli_target_squarediamonds.svg	16	yes	44	1	496	0	0			0	0			1				0	
6.6.1	win	2023-06-02	06:00:10	06:05:33	320526	5654175604212700054a12b1	4	1	main_z	7	advance_on_keypress_ZEE	64	stimuli_distractor_diamondtriangles.svg	stimuli_target_squarediamonds.svg	16	yes	57	0	194	0	0			0	0			1				0	
6.6.1	win	2023-06-02	06:00:10	06:05:34	321892	5654175604212700054a12b1	4	1	main_z	7	main_z	65	stimuli_distractor_diamondtriangles.svg	stimuli_distractor_diamondtriangles.svg	40	no	44	0	553	0	0			0	0			1				0	
6.6.1	win	2023-06-02	06:00:10	06:05:34	321892	5654175604212700054a12b1	4	1	main_z	7	advance_on_keypress_ZEE	66	stimuli_distractor_diamondtriangles.svg	stimuli_distractor_diamondtriangles.svg	40	no	57	0	275	0	0			0	0			1				0	
6.6.1	win	2023-06-02	06:00:10	06:05:36	323138	5654175604212700054a12b1	4	1	main_z	7	main_z	67	stimuli_distractor_trianglediamonds.svg	stimuli_target_squarediamonds.svg	12	yes	44	1	357	0	0			0	0			1				0	
6.6.1	win	2023-06-02	06:00:10	06:05:36	323138	5654175604212700054a12b1	4	1	main_z	7	advance_on_keypress_ZEE	68	stimuli_distractor_trianglediamonds.svg	stimuli_target_squarediamonds.svg	12	yes	57	0	255	0	0			0	0			1				0	
6.6.1	win	2023-06-02	06:00:10	06:05:39	326012	5654175604212700054a12b1	4	1	main_z	7	main_z	69	stimuli_target_trianglerectangles.svg	stimuli_distractor_diamondtriangles.svg	21	yes	0	0	2000	0	0			0	0			1				0	
6.6.1	win	2023-06-02	06:00:10	06:05:39	326012	5654175604212700054a12b1	4	1	main_z	7	advance_on_keypress_ZEE	70	stimuli_target_trianglerectangles.svg	stimuli_distractor_diamondtriangles.svg	21	yes	57	0	228	0	0			0	0			1				0	
6.6.1	win	2023-06-02	06:00:10	06:05:41	328860	5654175604212700054a12b1	4	1	main_z	7	main_z	71	stimuli_distractor_trianglediamonds.svg	stimuli_distractor_trianglediamonds.svg	34	no	0	1	2000	0	0			0	0			1				0	
6.6.1	win	2023-06-02	06:00:10	06:05:41	328860	5654175604212700054a12b1	4	1	main_z	7	advance_on_keypress_ZEE	72	stimuli_distractor_trianglediamonds.svg	stimuli_distractor_trianglediamonds.svg	34	no	57	0	413	0	0			0	0			1				0	
6.6.1	win	2023-06-02	06:00:10	06:05:43	330604	5654175604212700054a12b1	4	1	main_z	7	main_z	73	stimuli_distractor_trianglediamonds.svg	stimuli_distractor_diamondtriangles.svg	36	no	44	0	714	0	0			0	0			1				0	
6.6.1	win	2023-06-02	06:00:10	06:05:43	330604	5654175604212700054a12b1	4	1	main_z	7	advance_on_keypress_ZEE	74	stimuli_distractor_trianglediamonds.svg	stimuli_distractor_diamondtriangles.svg	36	no	57	0	253	0	0			0	0			1				0	
6.6.1	win	2023-06-02	06:00:10	06:05:46	333478	5654175604212700054a12b1	4	1	main_z	7	main_z	75	stimuli_distractor_diamondtriangles.svg	stimuli_distractor_trianglediamonds.svg	38	no	0	1	2000	0	0			0	0			1				0	
6.6.1	win	2023-06-02	06:00:10	06:05:46	333478	5654175604212700054a12b1	4	1	main_z	7	advance_on_keypress_ZEE	76	stimuli_distractor_diamondtriangles.svg	stimuli_distractor_trianglediamonds.svg	38	no	57	0	228	0	0			0	0			1				0	
6.6.1	win	2023-06-02	06:00:10	06:05:49	336327	5654175604212700054a12b1	4	1	main_z	7	main_z	77	stimuli_target_diamondrectangles.svg	stimuli_distractor_trianglediamonds.svg	19	yes	0	0	2000	0	0			0	0			1				0	
6.6.1	win	2023-06-02	06:00:10	06:05:49	336327	5654175604212700054a12b1	4	1	main_z	7	advance_on_keypress_ZEE	78	stimuli_target_diamondrectangles.svg	stimuli_distractor_trianglediamonds.svg	19	yes	57	0	211	0	0			0	0			1				0	
6.6.1	win	2023-06-02	06:00:10	06:05:52	339157	5654175604212700054a12b1	4	1	main_z	7	main_z	79	stimuli_target_diamondrectangles.svg	stimuli_distractor_diamondtriangles.svg	23	yes	0	0	2000	0	0			0	0			1				0	
6.6.1	win	2023-06-02	06:00:10	06:05:52	339157	5654175604212700054a12b1	4	1	main_z	7	advance_on_keypress_ZEE	80	stimuli_target_diamondrectangles.svg	stimuli_distractor_diamondtriangles.svg	23	yes	57	0	834	0	0			0	0			1				0	
6.6.1	win	2023-06-02	06:00:10	06:05:54	341445	5654175604212700054a12b1	4	1	main_z	7	main_z	81	stimuli_distractor_diamondtriangles.svg	stimuli_target_diamondsquares.svg	32	yes	44	1	834	0	0			0	0			1				0	
6.6.1	win	2023-06-02	06:00:10	06:05:54	341445	5654175604212700054a12b1	4	1	main_z	7	advance_on_keypress_ZEE	82	stimuli_distractor_diamondtriangles.svg	stimuli_target_diamondsquares.svg	32	yes	57	0	198	0	0			0	0			1				0	
6.6.1	win	2023-06-02	06:00:10	06:05:55	342789	5654175604212700054a12b1	4	1	main_z	7	main_z	83	stimuli_target_squarediamonds.svg	stimuli_distractor_trianglediamonds.svg	4	yes	44	1	536	0	0			0	0			1				0	
6.6.1	win	2023-06-02	06:00:10	06:05:55	342789	5654175604212700054a12b1	4	1	main_z	7	advance_on_keypress_ZEE	84	stimuli_target_squarediamonds.svg	stimuli_distractor_trianglediamonds.svg	4	yes	57	0	237	0	0			0	0			1				0	
6.6.1	win	2023-06-02	06:00:10	06:05:57	344374	5654175604212700054a12b1	4	1	main_z	7	main_z	85	stimuli_target_rectanglediamonds.svg	stimuli_distractor_diamondtriangles.svg	6	yes	44	1	733	0	0			0	0			1				0	
6.6.1	win	2023-06-02	06:00:10	06:05:57	344374	5654175604212700054a12b1	4	1	main_z	7	advance_on_keypress_ZEE	86	stimuli_target_rectanglediamonds.svg	stimuli_distractor_diamondtriangles.svg	6	yes	57	0	233	0	0			0	0			1				0	
6.6.1	win	2023-06-02	06:00:10	06:05:58	345697	5654175604212700054a12b1	4	1	main_z	7	main_z	87	stimuli_distractor_diamondtriangles.svg	stimuli_target_rectanglediamonds.svg	14	yes	44	1	474	0	0			0	0			1				0	
6.6.1	win	2023-06-02	06:00:10	06:05:58	345697	5654175604212700054a12b1	4	1	main_z	7	advance_on_keypress_ZEE	88	stimuli_distractor_diamondtriangles.svg	stimuli_target_rectanglediamonds.svg	14	yes	57	0	215	0	0			0	0			1				0	
6.6.1	win	2023-06-02	06:00:10	06:06:00	347347	5654175604212700054a12b1	4	1	main_z	7	main_z	89	stimuli_target_trianglesquares.svg	stimuli_distractor_trianglediamonds.svg	18	yes	44	1	820	0	0			0	0			1				0	
6.6.1	win	2023-06-02	06:00:10	06:06:00	347347	5654175604212700054a12b1	4	1	main_z	7	advance_on_keypress_ZEE	90	stimuli_target_trianglesquares.svg	stimuli_distractor_trianglediamonds.svg	18	yes	57	0	177	0	0			0	0			1				0	
6.6.1	win	2023-06-02	06:00:10	06:06:01	348751	5654175604212700054a12b1	4	1	main_z	7	main_z	91	stimuli_distractor_diamondtriangles.svg	stimuli_target_trianglesquares.svg	30	yes	44	1	613	0	0			0	0			1				0	
6.6.1	win	2023-06-02	06:00:10	06:06:01	348751	5654175604212700054a12b1	4	1	main_z	7	advance_on_keypress_ZEE	92	stimuli_distractor_diamondtriangles.svg	stimuli_target_trianglesquares.svg	30	yes	57	0	214	0	0			0	0			1				0	
6.6.1	win	2023-06-02	06:00:10	06:06:03	350159	5654175604212700054a12b1	4	1	main_z	7	main_z	93	stimuli_distractor_diamondtriangles.svg	stimuli_target_rectangletriangles.svg	13	yes	44	1	578	0	0			0	0			1				0	
6.6.1	win	2023-06-02	06:00:10	06:06:03	350159	5654175604212700054a12b1	4	1	main_z	7	advance_on_keypress_ZEE	94	stimuli_distractor_diamondtriangles.svg	stimuli_target_rectangletriangles.svg	13	yes	57	0	219	0	0			0	0			1				0	
6.6.1	win	2023-06-02	06:00:10	06:06:04	351399	5654175604212700054a12b1	4	1	main_z	7	main_z	95	stimuli_target_rectanglediamonds.svg	stimuli_distractor_trianglediamonds.svg	2	yes	44	1	406	0	0			0	0			1				0	
6.6.1	win	2023-06-02	06:00:10	06:06:04	351399	5654175604212700054a12b1	4	1	main_z	7	advance_on_keypress_ZEE	96	stimuli_target_rectanglediamonds.svg	stimuli_distractor_trianglediamonds.svg	2	yes	57	0	214	0	0			0	0			1				0	
6.6.1	win	2023-06-02	06:00:10	06:06:05	352541	5654175604212700054a12b1	4	1	main_z	7	main_z	97	stimuli_target_rectangletriangles.svg	stimuli_distractor_trianglediamonds.svg	1	yes	44	1	312	0	0			0	0			1				0	
6.6.1	win	2023-06-02	06:00:10	06:06:05	352541	5654175604212700054a12b1	4	1	main_z	7	advance_on_keypress_ZEE	98	stimuli_target_rectangletriangles.svg	stimuli_distractor_trianglediamonds.svg	1	yes	57	0	239	0	0			0	0			1				0	
6.6.1	win	2023-06-02	06:00:10	06:06:06	353748	5654175604212700054a12b1	4	1	main_z	7	main_z	99	stimuli_distractor_trianglediamonds.svg	stimuli_distractor_diamondtriangles.svg	35	no	44	0	355	0	0			0	0			1				0	
6.6.1	win	2023-06-02	06:00:10	06:06:06	353748	5654175604212700054a12b1	4	1	main_z	7	advance_on_keypress_ZEE	100	stimuli_distractor_trianglediamonds.svg	stimuli_distractor_diamondtriangles.svg	35	no	57	0	397	0	0			0	0			1				0	
6.6.1	win	2023-06-02	06:00:10	06:06:08	355595	5654175604212700054a12b1	4	1	main_z	7	main_z	101	stimuli_target_diamondsquares.svg	stimuli_distractor_diamondtriangles.svg	24	yes	44	1	839	0	0			0	0			1				0	
6.6.1	win	2023-06-02	06:00:10	06:06:08	355595	5654175604212700054a12b1	4	1	main_z	7	advance_on_keypress_ZEE	102	stimuli_target_diamondsquares.svg	stimuli_distractor_diamondtriangles.svg	24	yes	57	0	138	0	0			0	0			1				0	
6.6.1	win	2023-06-02	06:00:10	06:06:09	356820	5654175604212700054a12b1	4	1	main_z	7	main_z	103	stimuli_distractor_trianglediamonds.svg	stimuli_target_rectanglediamonds.svg	10	yes	44	1	470	0	0			0	0			1				0	
6.6.1	win	2023-06-02	06:00:10	06:06:09	356820	5654175604212700054a12b1	4	1	main_z	7	advance_on_keypress_ZEE	104	stimuli_distractor_trianglediamonds.svg	stimuli_target_rectanglediamonds.svg	10	yes	57	0	218	0	0			0	0			1				0	
6.6.1	win	2023-06-02	06:00:10	06:06:12	359653	5654175604212700054a12b1	4	1	main_z	7	main_z	105	stimuli_distractor_trianglediamonds.svg	stimuli_target_trianglerectangles.svg	25	yes	0	0	2000	0	0			0	0			1				0	
6.6.1	win	2023-06-02	06:00:10	06:06:12	359653	5654175604212700054a12b1	4	1	main_z	7	advance_on_keypress_ZEE	106	stimuli_distractor_trianglediamonds.svg	stimuli_target_trianglerectangles.svg	25	yes	57	0	151	0	0			0	0			1				0	
6.6.1	win	2023-06-02	06:00:10	06:06:15	362423	5654175604212700054a12b1	4	1	main_z	7	main_z	107	stimuli_distractor_diamondtriangles.svg	stimuli_target_trianglerectangles.svg	29	yes	0	0	2000	0	0			0	0			1				0	
6.6.1	win	2023-06-02	06:00:10	06:06:15	362423	5654175604212700054a12b1	4	1	main_z	7	advance_on_keypress_ZEE	108	stimuli_distractor_diamondtriangles.svg	stimuli_target_trianglerectangles.svg	29	yes	57	0	317	0	0			0	0			1				0	
6.6.1	win	2023-06-02	06:00:10	06:06:18	365356	5654175604212700054a12b1	4	1	main_z	7	main_z	109	stimuli_distractor_trianglediamonds.svg	stimuli_distractor_trianglediamonds.svg	33	no	0	1	2000	0	0			0	0			1				0	
6.6.1	win	2023-06-02	06:00:10	06:06:18	365356	5654175604212700054a12b1	4	1	main_z	7	advance_on_keypress_ZEE	110	stimuli_distractor_trianglediamonds.svg	stimuli_distractor_trianglediamonds.svg	33	no	57	0	274	0	0			0	0			1				0	
6.6.1	win	2023-06-02	06:00:10	06:06:19	366622	5654175604212700054a12b1	4	1	main_z	7	main_z	111	stimuli_target_squaretriangles.svg	stimuli_distractor_diamondtriangles.svg	7	yes	44	1	375	0	0			0	0			1				0	
6.6.1	win	2023-06-02	06:00:10	06:06:19	366622	5654175604212700054a12b1	4	1	main_z	7	advance_on_keypress_ZEE	112	stimuli_target_squaretriangles.svg	stimuli_distractor_diamondtriangles.svg	7	yes	57	0	215	0	0			0	0			1				0	
6.6.1	win	2023-06-02	06:00:10	06:06:22	369453	5654175604212700054a12b1	4	1	main_z	7	main_z	113	stimuli_target_diamondsquares.svg	stimuli_distractor_trianglediamonds.svg	20	yes	0	0	2000	0	0			0	0			1				0	
6.6.1	win	2023-06-02	06:00:10	06:06:22	369453	5654175604212700054a12b1	4	1	main_z	7	advance_on_keypress_ZEE	114	stimuli_target_diamondsquares.svg	stimuli_distractor_trianglediamonds.svg	20	yes	57	0	231	0	0			0	0			1				0	
6.6.1	win	2023-06-02	06:00:10	06:06:24	371056	5654175604212700054a12b1	4	1	main_z	7	main_z	115	stimuli_distractor_diamondtriangles.svg	stimuli_target_diamondrectangles.svg	31	yes	44	1	754	0	0			0	0			1				0	
6.6.1	win	2023-06-02	06:00:10	06:06:24	371056	5654175604212700054a12b1	4	1	main_z	7	advance_on_keypress_ZEE	116	stimuli_distractor_diamondtriangles.svg	stimuli_target_diamondrectangles.svg	31	yes	57	0	217	0	0			0	0			1				0	
6.6.1	win	2023-06-02	06:00:10	06:06:26	373889	5654175604212700054a12b1	4	1	main_z	7	main_z	117	stimuli_distractor_diamondtriangles.svg	stimuli_distractor_trianglediamonds.svg	38	no	0	1	2000	0	0			0	0			1				0	
6.6.1	win	2023-06-02	06:00:10	06:06:26	373889	5654175604212700054a12b1	4	1	main_z	7	advance_on_keypress_ZEE	118	stimuli_distractor_diamondtriangles.svg	stimuli_distractor_trianglediamonds.svg	38	no	57	0	77	0	0			0	0			1				0	
6.6.1	win	2023-06-02	06:00:10	06:06:28	374973	5654175604212700054a12b1	4	1	main_z	7	main_z	119	stimuli_distractor_trianglediamonds.svg	stimuli_target_squaretriangles.svg	11	yes	44	1	387	0	0			0	0			1				0	
6.6.1	win	2023-06-02	06:00:10	06:06:28	374973	5654175604212700054a12b1	4	1	main_z	7	advance_on_keypress_ZEE	120	stimuli_distractor_trianglediamonds.svg	stimuli_target_squaretriangles.svg	11	yes	57	0	313	0	0			0	0			1				0	
6.6.1	win	2023-06-02	06:00:10	06:06:29	376719	5654175604212700054a12b1	4	1	main_z	7	main_z	121	stimuli_target_squaretriangles.svg	stimuli_distractor_trianglediamonds.svg	3	yes	44	1	812	0	0			0	0			1				0	
6.6.1	win	2023-06-02	06:00:10	06:06:29	376719	5654175604212700054a12b1	4	1	main_z	7	advance_on_keypress_ZEE	122	stimuli_target_squaretriangles.svg	stimuli_distractor_trianglediamonds.svg	3	yes	57	0	214	0	0			0	0			1				0	
6.6.1	win	2023-06-02	06:00:10	06:06:31	378527	5654175604212700054a12b1	4	1	main_z	7	main_z	123	stimuli_target_trianglesquares.svg	stimuli_distractor_diamondtriangles.svg	22	yes	44	1	978	0	0			0	0			1				0	
6.6.1	win	2023-06-02	06:00:10	06:06:31	378527	5654175604212700054a12b1	4	1	main_z	7	advance_on_keypress_ZEE	124	stimuli_target_trianglesquares.svg	stimuli_distractor_diamondtriangles.svg	22	yes	57	0	296	0	0			0	0			1				0	
6.6.1	win	2023-06-02	06:00:10	06:06:32	379890	5654175604212700054a12b1	4	1	main_z	7	main_z	125	stimuli_target_rectangletriangles.svg	stimuli_distractor_diamondtriangles.svg	5	yes	44	1	449	0	0			0	0			1				0	
6.6.1	win	2023-06-02	06:00:10	06:06:32	379890	5654175604212700054a12b1	4	1	main_z	7	advance_on_keypress_ZEE	126	stimuli_target_rectangletriangles.svg	stimuli_distractor_diamondtriangles.svg	5	yes	57	0	295	0	0			0	0			1				0	
6.6.1	win	2023-06-02	06:00:10	06:06:34	381217	5654175604212700054a12b1	4	1	main_z	7	main_z	127	stimuli_distractor_trianglediamonds.svg	stimuli_target_diamondsquares.svg	28	yes	44	1	413	0	0			0	0			1				0	
6.6.1	win	2023-06-02	06:00:10	06:06:34	381217	5654175604212700054a12b1	4	1	main_z	7	advance_on_keypress_ZEE	128	stimuli_distractor_trianglediamonds.svg	stimuli_target_diamondsquares.svg	28	yes	57	0	260	0	0			0	0			1				0	
6.6.1	win	2023-06-02	06:00:10	06:06:37	384095	5654175604212700054a12b1	4	1	main_z	7	main_z	129	stimuli_distractor_trianglediamonds.svg	stimuli_distractor_diamondtriangles.svg	36	no	0	1	2000	0	0			0	0			1				0	
6.6.1	win	2023-06-02	06:00:10	06:06:37	384095	5654175604212700054a12b1	4	1	main_z	7	advance_on_keypress_ZEE	130	stimuli_distractor_trianglediamonds.svg	stimuli_distractor_diamondtriangles.svg	36	no	57	0	68	0	0			0	0			1				0	
6.6.1	win	2023-06-02	06:00:10	06:06:38	385372	5654175604212700054a12b1	4	1	main_z	7	main_z	131	stimuli_distractor_trianglediamonds.svg	stimuli_target_trianglesquares.svg	26	yes	44	1	593	0	0			0	0			1				0	
6.6.1	win	2023-06-02	06:00:10	06:06:38	385372	5654175604212700054a12b1	4	1	main_z	7	advance_on_keypress_ZEE	132	stimuli_distractor_trianglediamonds.svg	stimuli_target_trianglesquares.svg	26	yes	57	0	217	0	0			0	0			1				0	
6.6.1	win	2023-06-02	06:00:10	06:06:41	388210	5654175604212700054a12b1	4	1	main_z	7	main_z	133	stimuli_distractor_diamondtriangles.svg	stimuli_distractor_diamondtriangles.svg	40	no	0	1	2000	0	0			0	0			1				0	
6.6.1	win	2023-06-02	06:00:10	06:06:41	388210	5654175604212700054a12b1	4	1	main_z	7	advance_on_keypress_ZEE	134	stimuli_distractor_diamondtriangles.svg	stimuli_distractor_diamondtriangles.svg	40	no	57	0	253	0	0			0	0			1				0	
6.6.1	win	2023-06-02	06:00:10	06:06:42	389551	5654175604212700054a12b1	4	1	main_z	7	main_z	135	stimuli_target_squarediamonds.svg	stimuli_distractor_diamondtriangles.svg	8	yes	44	1	469	0	0			0	0			1				0	
6.6.1	win	2023-06-02	06:00:10	06:06:42	389551	5654175604212700054a12b1	4	1	main_z	7	advance_on_keypress_ZEE	136	stimuli_target_squarediamonds.svg	stimuli_distractor_diamondtriangles.svg	8	yes	57	0	299	0	0			0	0			1				0	
6.6.1	win	2023-06-02	06:00:10	06:06:45	392464	5654175604212700054a12b1	4	1	main_z	7	main_z	137	stimuli_target_diamondrectangles.svg	stimuli_distractor_trianglediamonds.svg	19	yes	0	0	2000	0	0			0	0			1				0	
6.6.1	win	2023-06-02	06:00:10	06:06:45	392464	5654175604212700054a12b1	4	1	main_z	7	advance_on_keypress_ZEE	138	stimuli_target_diamondrectangles.svg	stimuli_distractor_trianglediamonds.svg	19	yes	57	0	258	0	0			0	0			1				0	
6.6.1	win	2023-06-02	06:00:10	06:06:48	395343	5654175604212700054a12b1	4	1	main_z	7	main_z	139	stimuli_distractor_diamondtriangles.svg	stimuli_distractor_diamondtriangles.svg	39	no	0	1	2000	0	0			0	0			1				0	
6.6.1	win	2023-06-02	06:00:10	06:06:48	395343	5654175604212700054a12b1	4	1	main_z	7	advance_on_keypress_ZEE	140	stimuli_distractor_diamondtriangles.svg	stimuli_distractor_diamondtriangles.svg	39	no	57	0	236	0	0			0	0			1				0	
6.6.1	win	2023-06-02	06:00:10	06:06:49	396650	5654175604212700054a12b1	4	1	main_z	7	main_z	141	stimuli_distractor_diamondtriangles.svg	stimuli_target_squaretriangles.svg	15	yes	44	1	453	0	0			0	0			1				0	
6.6.1	win	2023-06-02	06:00:10	06:06:49	396650	5654175604212700054a12b1	4	1	main_z	7	advance_on_keypress_ZEE	142	stimuli_distractor_diamondtriangles.svg	stimuli_target_squaretriangles.svg	15	yes	57	0	332	0	0			0	0			1				0	
6.6.1	win	2023-06-02	06:00:10	06:06:51	398055	5654175604212700054a12b1	4	1	main_z	7	main_z	143	stimuli_distractor_trianglediamonds.svg	stimuli_target_squarediamonds.svg	12	yes	44	1	452	0	0			0	0			1				0	
6.6.1	win	2023-06-02	06:00:10	06:06:51	398055	5654175604212700054a12b1	4	1	main_z	7	advance_on_keypress_ZEE	144	stimuli_distractor_trianglediamonds.svg	stimuli_target_squarediamonds.svg	12	yes	57	0	277	0	0			0	0			1				0	
6.6.1	win	2023-06-02	06:00:10	06:06:52	399319	5654175604212700054a12b1	4	1	main_z	7	main_z	145	stimuli_target_trianglerectangles.svg	stimuli_distractor_diamondtriangles.svg	21	yes	44	1	370	0	0			0	0			1				0	
6.6.1	win	2023-06-02	06:00:10	06:06:52	399319	5654175604212700054a12b1	4	1	main_z	7	advance_on_keypress_ZEE	146	stimuli_target_trianglerectangles.svg	stimuli_distractor_diamondtriangles.svg	21	yes	57	0	295	0	0			0	0			1				0	
6.6.1	win	2023-06-02	06:00:10	06:06:55	402234	5654175604212700054a12b1	4	1	main_z	7	main_z	147	stimuli_distractor_trianglediamonds.svg	stimuli_distractor_trianglediamonds.svg	34	no	0	1	2000	0	0			0	0			1				0	
6.6.1	win	2023-06-02	06:00:10	06:06:55	402234	5654175604212700054a12b1	4	1	main_z	7	advance_on_keypress_ZEE	148	stimuli_distractor_trianglediamonds.svg	stimuli_distractor_trianglediamonds.svg	34	no	57	0	90	0	0			0	0			1				0	
6.6.1	win	2023-06-02	06:00:10	06:06:56	403351	5654175604212700054a12b1	4	1	main_z	7	main_z	149	stimuli_distractor_trianglediamonds.svg	stimuli_target_rectangletriangles.svg	9	yes	44	1	409	0	0			0	0			1				0	
6.6.1	win	2023-06-02	06:00:10	06:06:56	403351	5654175604212700054a12b1	4	1	main_z	7	advance_on_keypress_ZEE	150	stimuli_distractor_trianglediamonds.svg	stimuli_target_rectangletriangles.svg	9	yes	57	0	280	0	0			0	0			1				0	
6.6.1	win	2023-06-02	06:00:10	06:06:59	406245	5654175604212700054a12b1	4	1	main_z	7	main_z	151	stimuli_distractor_diamondtriangles.svg	stimuli_distractor_trianglediamonds.svg	37	no	0	1	2000	0	0			0	0			1				0	
6.6.1	win	2023-06-02	06:00:10	06:06:59	406245	5654175604212700054a12b1	4	1	main_z	7	advance_on_keypress_ZEE	152	stimuli_distractor_diamondtriangles.svg	stimuli_distractor_trianglediamonds.svg	37	no	57	0	259	0	0			0	0			1				0	
6.6.1	win	2023-06-02	06:00:10	06:07:02	409124	5654175604212700054a12b1	4	1	main_z	7	main_z	153	stimuli_target_diamondrectangles.svg	stimuli_distractor_diamondtriangles.svg	23	yes	0	0	2000	0	0			0	0			1				0	
6.6.1	win	2023-06-02	06:00:10	06:07:02	409124	5654175604212700054a12b1	4	1	main_z	7	advance_on_keypress_ZEE	154	stimuli_target_diamondrectangles.svg	stimuli_distractor_diamondtriangles.svg	23	yes	57	0	245	0	0			0	0			1				0	
6.6.1	win	2023-06-02	06:00:10	06:07:05	411985	5654175604212700054a12b1	4	1	main_z	7	main_z	155	stimuli_distractor_trianglediamonds.svg	stimuli_target_diamondrectangles.svg	27	yes	0	0	2000	0	0			0	0			1				0	
6.6.1	win	2023-06-02	06:00:10	06:07:05	411985	5654175604212700054a12b1	4	1	main_z	7	advance_on_keypress_ZEE	156	stimuli_distractor_trianglediamonds.svg	stimuli_target_diamondrectangles.svg	27	yes	57	0	277	0	0			0	0			1				0	
6.6.1	win	2023-06-02	06:00:10	06:07:07	414882	5654175604212700054a12b1	4	1	main_z	7	main_z	157	stimuli_target_trianglerectangles.svg	stimuli_distractor_trianglediamonds.svg	17	yes	0	0	2000	0	0			0	0			1				0	
6.6.1	win	2023-06-02	06:00:10	06:07:07	414882	5654175604212700054a12b1	4	1	main_z	7	advance_on_keypress_ZEE	158	stimuli_target_trianglerectangles.svg	stimuli_distractor_trianglediamonds.svg	17	yes	57	0	133	0	0			0	0			1				0	
6.6.1	win	2023-06-02	06:00:10	06:07:09	416084	5654175604212700054a12b1	4	1	main_z	7	main_z	159	stimuli_distractor_diamondtriangles.svg	stimuli_target_squarediamonds.svg	16	yes	44	1	451	0	0			0	0			1				0	
6.6.1	win	2023-06-02	06:00:10	06:07:09	416084	5654175604212700054a12b1	4	1	main_z	7	advance_on_keypress_ZEE	160	stimuli_distractor_diamondtriangles.svg	stimuli_target_squarediamonds.svg	16	yes	57	0	259	0	0			0	0			1				0	
6.6.1	win	2023-06-02	06:00:10	06:07:30	437049	5654175604212700054a12b1	4	1	practice_slash	9	practice_slash	1	stimuli_distractor_trianglediamonds.svg	stimuli_target_rectanglediamonds.svg	10	yes	53	1	714	0	0			0	0			1				0	
6.6.1	win	2023-06-02	06:00:10	06:07:30	437049	5654175604212700054a12b1	4	1	practice_slash	9	advance_on_keypress_SLASH	2	stimuli_distractor_trianglediamonds.svg	stimuli_target_rectanglediamonds.svg	10	yes	57	0	416	0	0			0	0			1				0	
6.6.1	win	2023-06-02	06:00:10	06:07:34	441088	5654175604212700054a12b1	4	1	practice_slash	9	practice_slash	3	stimuli_distractor_diamondtriangles.svg	stimuli_distractor_diamondtriangles.svg	13	no	0	1	2000	0	0			0	0			1				0	
6.6.1	win	2023-06-02	06:00:10	06:07:34	441088	5654175604212700054a12b1	4	1	practice_slash	9	advance_on_keypress_SLASH	4	stimuli_distractor_diamondtriangles.svg	stimuli_distractor_diamondtriangles.svg	13	no	57	0	377	0	0			0	0			1				0	
6.6.1	win	2023-06-02	06:00:10	06:07:38	445081	5654175604212700054a12b1	4	1	practice_slash	9	practice_slash	5	stimuli_distractor_trianglediamonds.svg	stimuli_distractor_diamondtriangles.svg	16	no	0	1	2000	0	0			0	0			1				0	
6.6.1	win	2023-06-02	06:00:10	06:07:38	445081	5654175604212700054a12b1	4	1	practice_slash	9	advance_on_keypress_SLASH	6	stimuli_distractor_trianglediamonds.svg	stimuli_distractor_diamondtriangles.svg	16	no	57	0	263	0	0			0	0			1				0	
6.6.1	win	2023-06-02	06:00:10	06:07:40	447397	5654175604212700054a12b1	4	1	practice_slash	9	practice_slash	7	stimuli_target_rectanglediamonds.svg	stimuli_distractor_diamondtriangles.svg	1	yes	53	1	437	0	0			0	0			1				0	
6.6.1	win	2023-06-02	06:00:10	06:07:40	447397	5654175604212700054a12b1	4	1	practice_slash	9	advance_on_keypress_SLASH	8	stimuli_target_rectanglediamonds.svg	stimuli_distractor_diamondtriangles.svg	1	yes	57	0	421	0	0			0	0			1				0	
6.6.1	win	2023-06-02	06:00:10	06:07:42	449908	5654175604212700054a12b1	4	1	practice_slash	9	practice_slash	9	stimuli_target_squarediamonds.svg	stimuli_distractor_trianglediamonds.svg	5	yes	53	1	476	0	0			0	0			1				0	
6.6.1	win	2023-06-02	06:00:10	06:07:42	449908	5654175604212700054a12b1	4	1	practice_slash	9	advance_on_keypress_SLASH	10	stimuli_target_squarediamonds.svg	stimuli_distractor_trianglediamonds.svg	5	yes	57	0	279	0	0			0	0			1				0	
6.6.1	win	2023-06-02	06:00:10	06:07:45	452879	5654175604212700054a12b1	4	1	practice_slash	9	practice_slash	11	stimuli_distractor_diamondtriangles.svg	stimuli_target_diamondrectangles.svg	8	yes	53	1	1071	0	0			0	0			1				0	
6.6.1	win	2023-06-02	06:00:10	06:07:45	452879	5654175604212700054a12b1	4	1	practice_slash	9	advance_on_keypress_SLASH	12	stimuli_distractor_diamondtriangles.svg	stimuli_target_diamondrectangles.svg	8	yes	57	0	259	0	0			0	0			1				0	
6.6.1	win	2023-06-02	06:00:10	06:07:48	455212	5654175604212700054a12b1	4	1	practice_slash	9	practice_slash	13	stimuli_distractor_trianglediamonds.svg	stimuli_target_squarediamonds.svg	11	yes	53	1	452	0	0			0	0			1				0	
6.6.1	win	2023-06-02	06:00:10	06:07:48	455212	5654175604212700054a12b1	4	1	practice_slash	9	advance_on_keypress_SLASH	14	stimuli_distractor_trianglediamonds.svg	stimuli_target_squarediamonds.svg	11	yes	57	0	596	0	0			0	0			1				0	
6.6.1	win	2023-06-02	06:00:10	06:07:51	458205	5654175604212700054a12b1	4	1	practice_slash	9	practice_slash	15	stimuli_target_diamondsquares.svg	stimuli_distractor_diamondtriangles.svg	3	yes	53	1	780	0	0			0	0			1				0	
6.6.1	win	2023-06-02	06:00:10	06:07:51	458205	5654175604212700054a12b1	4	1	practice_slash	9	advance_on_keypress_SLASH	16	stimuli_target_diamondsquares.svg	stimuli_distractor_diamondtriangles.svg	3	yes	57	0	394	0	0			0	0			1				0	
6.6.1	win	2023-06-02	06:00:10	06:07:53	460792	5654175604212700054a12b1	4	1	practice_slash	9	practice_slash	17	stimuli_distractor_trianglediamonds.svg	stimuli_target_diamondrectangles.svg	12	yes	53	1	572	0	0			0	0			1				0	
6.6.1	win	2023-06-02	06:00:10	06:07:53	460792	5654175604212700054a12b1	4	1	practice_slash	9	advance_on_keypress_SLASH	18	stimuli_distractor_trianglediamonds.svg	stimuli_target_diamondrectangles.svg	12	yes	57	0	242	0	0			0	0			1				0	
6.6.1	win	2023-06-02	06:00:10	06:07:56	463082	5654175604212700054a12b1	4	1	practice_slash	9	practice_slash	19	stimuli_target_rectanglediamonds.svg	stimuli_distractor_trianglediamonds.svg	4	yes	53	1	432	0	0			0	0			1				0	
6.6.1	win	2023-06-02	06:00:10	06:07:56	463082	5654175604212700054a12b1	4	1	practice_slash	9	advance_on_keypress_SLASH	20	stimuli_target_rectanglediamonds.svg	stimuli_distractor_trianglediamonds.svg	4	yes	57	0	262	0	0			0	0			1				0	
6.6.1	win	2023-06-02	06:00:10	06:08:00	466959	5654175604212700054a12b1	4	1	practice_slash	9	practice_slash	21	stimuli_target_diamondsquares.svg	stimuli_distractor_trianglediamonds.svg	6	yes	0	0	2000	0	0			0	0			1				0	
6.6.1	win	2023-06-02	06:00:10	06:08:00	466959	5654175604212700054a12b1	4	1	practice_slash	9	advance_on_keypress_SLASH	22	stimuli_target_diamondsquares.svg	stimuli_distractor_trianglediamonds.svg	6	yes	57	0	279	0	0			0	0			1				0	
6.6.1	win	2023-06-02	06:00:10	06:08:02	469470	5654175604212700054a12b1	4	1	practice_slash	9	practice_slash	23	stimuli_distractor_diamondtriangles.svg	stimuli_target_rectangletriangles.svg	7	yes	53	1	615	0	0			0	0			1				0	
6.6.1	win	2023-06-02	06:00:10	06:08:02	469470	5654175604212700054a12b1	4	1	practice_slash	9	advance_on_keypress_SLASH	24	stimuli_distractor_diamondtriangles.svg	stimuli_target_rectangletriangles.svg	7	yes	57	0	588	0	0			0	0			1				0	
6.6.1	win	2023-06-02	06:00:10	06:08:06	473008	5654175604212700054a12b1	4	1	practice_slash	9	practice_slash	25	stimuli_distractor_diamondtriangles.svg	stimuli_target_trianglerectangles.svg	9	yes	53	1	1334	0	0			0	0			1				0	
6.6.1	win	2023-06-02	06:00:10	06:08:06	473008	5654175604212700054a12b1	4	1	practice_slash	9	advance_on_keypress_SLASH	26	stimuli_distractor_diamondtriangles.svg	stimuli_target_trianglerectangles.svg	9	yes	57	0	320	0	0			0	0			1				0	
6.6.1	win	2023-06-02	06:00:10	06:08:08	475364	5654175604212700054a12b1	4	1	practice_slash	9	practice_slash	27	stimuli_target_squarediamonds.svg	stimuli_distractor_diamondtriangles.svg	2	yes	53	1	418	0	0			0	0			1				0	
6.6.1	win	2023-06-02	06:00:10	06:08:08	475364	5654175604212700054a12b1	4	1	practice_slash	9	advance_on_keypress_SLASH	28	stimuli_target_squarediamonds.svg	stimuli_distractor_diamondtriangles.svg	2	yes	57	0	293	0	0			0	0			1				0	
6.6.1	win	2023-06-02	06:00:10	06:08:12	479274	5654175604212700054a12b1	4	1	practice_slash	9	practice_slash	29	stimuli_distractor_trianglediamonds.svg	stimuli_distractor_trianglediamonds.svg	15	no	0	1	2000	0	0			0	0			1				0	
6.6.1	win	2023-06-02	06:00:10	06:08:12	479274	5654175604212700054a12b1	4	1	practice_slash	9	advance_on_keypress_SLASH	30	stimuli_distractor_trianglediamonds.svg	stimuli_distractor_trianglediamonds.svg	15	no	57	0	341	0	0			0	0			1				0	
6.6.1	win	2023-06-02	06:00:10	06:08:16	483231	5654175604212700054a12b1	4	1	practice_slash	9	practice_slash	31	stimuli_distractor_diamondtriangles.svg	stimuli_distractor_trianglediamonds.svg	14	no	0	1	2000	0	0			0	0			1				0	
6.6.1	win	2023-06-02	06:00:10	06:08:16	483231	5654175604212700054a12b1	4	1	practice_slash	9	advance_on_keypress_SLASH	32	stimuli_distractor_diamondtriangles.svg	stimuli_distractor_trianglediamonds.svg	14	no	57	0	402	0	0			0	0			1				0	
6.6.1	win	2023-06-02	06:00:10	06:08:21	488023	5654175604212700054a12b1	4	1	main_slash	11	main_slash	1	stimuli_distractor_trianglediamonds.svg	stimuli_target_squaretriangles.svg	11	yes	53	1	434	0	0			0	0			1				0	
6.6.1	win	2023-06-02	06:00:10	06:08:21	488023	5654175604212700054a12b1	4	1	main_slash	11	advance_on_keypress_SLASH	2	stimuli_distractor_trianglediamonds.svg	stimuli_target_squaretriangles.svg	11	yes	57	0	653	0	0			0	0			1				0	
6.6.1	win	2023-06-02	06:00:10	06:08:24	491297	5654175604212700054a12b1	4	1	main_slash	11	main_slash	3	stimuli_distractor_trianglediamonds.svg	stimuli_distractor_trianglediamonds.svg	34	no	0	1	2000	0	0			0	0			1				0	
6.6.1	win	2023-06-02	06:00:10	06:08:24	491297	5654175604212700054a12b1	4	1	main_slash	11	advance_on_keypress_SLASH	4	stimuli_distractor_trianglediamonds.svg	stimuli_distractor_trianglediamonds.svg	34	no	57	0	308	0	0			0	0			1				0	
6.6.1	win	2023-06-02	06:00:10	06:08:25	492658	5654175604212700054a12b1	4	1	main_slash	11	main_slash	5	stimuli_target_rectangletriangles.svg	stimuli_distractor_trianglediamonds.svg	1	yes	53	1	434	0	0			0	0			1				0	
6.6.1	win	2023-06-02	06:00:10	06:08:25	492658	5654175604212700054a12b1	4	1	main_slash	11	advance_on_keypress_SLASH	6	stimuli_target_rectangletriangles.svg	stimuli_distractor_trianglediamonds.svg	1	yes	57	0	512	0	0			0	0			1				0	
6.6.1	win	2023-06-02	06:00:10	06:08:28	495788	5654175604212700054a12b1	4	1	main_slash	11	main_slash	7	stimuli_target_trianglerectangles.svg	stimuli_distractor_trianglediamonds.svg	17	yes	0	0	2000	0	0			0	0			1				0	
6.6.1	win	2023-06-02	06:00:10	06:08:28	495788	5654175604212700054a12b1	4	1	main_slash	11	advance_on_keypress_SLASH	8	stimuli_target_trianglerectangles.svg	stimuli_distractor_trianglediamonds.svg	17	yes	57	0	357	0	0			0	0			1				0	
6.6.1	win	2023-06-02	06:00:10	06:08:30	497218	5654175604212700054a12b1	4	1	main_slash	11	main_slash	9	stimuli_distractor_trianglediamonds.svg	stimuli_target_squarediamonds.svg	12	yes	53	1	454	0	0			0	0			1				0	
6.6.1	win	2023-06-02	06:00:10	06:08:30	497218	5654175604212700054a12b1	4	1	main_slash	11	advance_on_keypress_SLASH	10	stimuli_distractor_trianglediamonds.svg	stimuli_target_squarediamonds.svg	12	yes	57	0	334	0	0			0	0			1				0	
6.6.1	win	2023-06-02	06:00:10	06:08:33	500170	5654175604212700054a12b1	4	1	main_slash	11	main_slash	11	stimuli_distractor_diamondtriangles.svg	stimuli_distractor_diamondtriangles.svg	39	no	0	1	2000	0	0			0	0			1				0	
6.6.1	win	2023-06-02	06:00:10	06:08:33	500170	5654175604212700054a12b1	4	1	main_slash	11	advance_on_keypress_SLASH	12	stimuli_distractor_diamondtriangles.svg	stimuli_distractor_diamondtriangles.svg	39	no	57	0	294	0	0			0	0			1				0	
6.6.1	win	2023-06-02	06:00:10	06:08:34	501591	5654175604212700054a12b1	4	1	main_slash	11	main_slash	13	stimuli_distractor_diamondtriangles.svg	stimuli_target_trianglesquares.svg	30	yes	53	1	513	0	0			0	0			1				0	
6.6.1	win	2023-06-02	06:00:10	06:08:34	501591	5654175604212700054a12b1	4	1	main_slash	11	advance_on_keypress_SLASH	14	stimuli_distractor_diamondtriangles.svg	stimuli_target_trianglesquares.svg	30	yes	57	0	460	0	0			0	0			1				0	
6.6.1	win	2023-06-02	06:00:10	06:08:36	503441	5654175604212700054a12b1	4	1	main_slash	11	main_slash	15	stimuli_distractor_diamondtriangles.svg	stimuli_target_diamondrectangles.svg	31	yes	53	1	769	0	0			0	0			1				0	
6.6.1	win	2023-06-02	06:00:10	06:08:36	503441	5654175604212700054a12b1	4	1	main_slash	11	advance_on_keypress_SLASH	16	stimuli_distractor_diamondtriangles.svg	stimuli_target_diamondrectangles.svg	31	yes	57	0	418	0	0			0	0			1				0	
6.6.1	win	2023-06-02	06:00:10	06:08:37	504848	5654175604212700054a12b1	4	1	main_slash	11	main_slash	17	stimuli_target_squarediamonds.svg	stimuli_distractor_trianglediamonds.svg	4	yes	53	1	370	0	0			0	0			1				0	
6.6.1	win	2023-06-02	06:00:10	06:08:37	504848	5654175604212700054a12b1	4	1	main_slash	11	advance_on_keypress_SLASH	18	stimuli_target_squarediamonds.svg	stimuli_distractor_trianglediamonds.svg	4	yes	57	0	239	0	0			0	0			1				0	
6.6.1	win	2023-06-02	06:00:10	06:08:39	506016	5654175604212700054a12b1	4	1	main_slash	11	main_slash	19	stimuli_target_squarediamonds.svg	stimuli_distractor_diamondtriangles.svg	8	yes	53	1	313	0	0			0	0			1				0	
6.6.1	win	2023-06-02	06:00:10	06:08:39	506016	5654175604212700054a12b1	4	1	main_slash	11	advance_on_keypress_SLASH	20	stimuli_target_squarediamonds.svg	stimuli_distractor_diamondtriangles.svg	8	yes	57	0	253	0	0			0	0			1				0	
6.6.1	win	2023-06-02	06:00:10	06:08:40	507438	5654175604212700054a12b1	4	1	main_slash	11	main_slash	21	stimuli_distractor_diamondtriangles.svg	stimuli_distractor_trianglediamonds.svg	37	no	53	0	548	0	0			0	0			1				0	
6.6.1	win	2023-06-02	06:00:10	06:08:40	507438	5654175604212700054a12b1	4	1	main_slash	11	advance_on_keypress_SLASH	22	stimuli_distractor_diamondtriangles.svg	stimuli_distractor_trianglediamonds.svg	37	no	57	0	256	0	0			0	0			1				0	
6.6.1	win	2023-06-02	06:00:10	06:08:43	510309	5654175604212700054a12b1	4	1	main_slash	11	main_slash	23	stimuli_distractor_trianglediamonds.svg	stimuli_target_diamondrectangles.svg	27	yes	0	0	2000	0	0			0	0			1				0	
6.6.1	win	2023-06-02	06:00:10	06:08:43	510309	5654175604212700054a12b1	4	1	main_slash	11	advance_on_keypress_SLASH	24	stimuli_distractor_trianglediamonds.svg	stimuli_target_diamondrectangles.svg	27	yes	57	0	233	0	0			0	0			1				0	
6.6.1	win	2023-06-02	06:00:10	06:08:44	511531	5654175604212700054a12b1	4	1	main_slash	11	main_slash	25	stimuli_target_rectangletriangles.svg	stimuli_distractor_diamondtriangles.svg	5	yes	53	1	374	0	0			0	0			1				0	
6.6.1	win	2023-06-02	06:00:10	06:08:44	511531	5654175604212700054a12b1	4	1	main_slash	11	advance_on_keypress_SLASH	26	stimuli_target_rectangletriangles.svg	stimuli_distractor_diamondtriangles.svg	5	yes	57	0	233	0	0			0	0			1				0	
6.6.1	win	2023-06-02	06:00:10	06:08:45	512902	5654175604212700054a12b1	4	1	main_slash	11	main_slash	27	stimuli_distractor_diamondtriangles.svg	stimuli_target_trianglerectangles.svg	29	yes	53	1	517	0	0			0	0			1				0	
6.6.1	win	2023-06-02	06:00:10	06:08:45	512902	5654175604212700054a12b1	4	1	main_slash	11	advance_on_keypress_SLASH	28	stimuli_distractor_diamondtriangles.svg	stimuli_target_trianglerectangles.svg	29	yes	57	0	356	0	0			0	0			1				0	
6.6.1	win	2023-06-02	06:00:10	06:08:48	515878	5654175604212700054a12b1	4	1	main_slash	11	main_slash	29	stimuli_target_trianglerectangles.svg	stimuli_distractor_diamondtriangles.svg	21	yes	0	0	2000	0	0			0	0			1				0	
6.6.1	win	2023-06-02	06:00:10	06:08:48	515878	5654175604212700054a12b1	4	1	main_slash	11	advance_on_keypress_SLASH	30	stimuli_target_trianglerectangles.svg	stimuli_distractor_diamondtriangles.svg	21	yes	57	0	90	0	0			0	0			1				0	
6.6.1	win	2023-06-02	06:00:10	06:08:50	517113	5654175604212700054a12b1	4	1	main_slash	11	main_slash	31	stimuli_distractor_trianglediamonds.svg	stimuli_target_trianglesquares.svg	26	yes	53	1	526	0	0			0	0			1				0	
6.6.1	win	2023-06-02	06:00:10	06:08:50	517113	5654175604212700054a12b1	4	1	main_slash	11	advance_on_keypress_SLASH	32	stimuli_distractor_trianglediamonds.svg	stimuli_target_trianglesquares.svg	26	yes	57	0	292	0	0			0	0			1				0	
6.6.1	win	2023-06-02	06:00:10	06:08:52	518980	5654175604212700054a12b1	4	1	main_slash	11	main_slash	33	stimuli_target_trianglesquares.svg	stimuli_distractor_diamondtriangles.svg	22	yes	53	1	957	0	0			0	0			1				0	
6.6.1	win	2023-06-02	06:00:10	06:08:52	518980	5654175604212700054a12b1	4	1	main_slash	11	advance_on_keypress_SLASH	34	stimuli_target_trianglesquares.svg	stimuli_distractor_diamondtriangles.svg	22	yes	57	0	550	0	0			0	0			1				0	
6.6.1	win	2023-06-02	06:00:10	06:08:54	521043	5654175604212700054a12b1	4	1	main_slash	11	main_slash	35	stimuli_target_diamondrectangles.svg	stimuli_distractor_trianglediamonds.svg	19	yes	53	1	893	0	0			0	0			1				0	
6.6.1	win	2023-06-02	06:00:10	06:08:54	521043	5654175604212700054a12b1	4	1	main_slash	11	advance_on_keypress_SLASH	36	stimuli_target_diamondrectangles.svg	stimuli_distractor_trianglediamonds.svg	19	yes	57	0	239	0	0			0	0			1				0	
6.6.1	win	2023-06-02	06:00:10	06:08:56	523896	5654175604212700054a12b1	4	1	main_slash	11	main_slash	37	stimuli_target_diamondrectangles.svg	stimuli_distractor_diamondtriangles.svg	23	yes	0	0	2000	0	0			0	0			1				0	
6.6.1	win	2023-06-02	06:00:10	06:08:56	523896	5654175604212700054a12b1	4	1	main_slash	11	advance_on_keypress_SLASH	38	stimuli_target_diamondrectangles.svg	stimuli_distractor_diamondtriangles.svg	23	yes	57	0	229	0	0			0	0			1				0	
6.6.1	win	2023-06-02	06:00:10	06:08:58	525115	5654175604212700054a12b1	4	1	main_slash	11	main_slash	39	stimuli_target_squaretriangles.svg	stimuli_distractor_trianglediamonds.svg	3	yes	53	1	371	0	0			0	0			1				0	
6.6.1	win	2023-06-02	06:00:10	06:08:58	525115	5654175604212700054a12b1	4	1	main_slash	11	advance_on_keypress_SLASH	40	stimuli_target_squaretriangles.svg	stimuli_distractor_trianglediamonds.svg	3	yes	57	0	334	0	0			0	0			1				0	
6.6.1	win	2023-06-02	06:00:10	06:08:59	526342	5654175604212700054a12b1	4	1	main_slash	11	main_slash	41	stimuli_distractor_trianglediamonds.svg	stimuli_distractor_trianglediamonds.svg	33	no	53	0	277	0	0			0	0			1				0	
6.6.1	win	2023-06-02	06:00:10	06:08:59	526342	5654175604212700054a12b1	4	1	main_slash	11	advance_on_keypress_SLASH	42	stimuli_distractor_trianglediamonds.svg	stimuli_distractor_trianglediamonds.svg	33	no	57	0	448	0	0			0	0			1				0	
6.6.1	win	2023-06-02	06:00:10	06:09:02	529411	5654175604212700054a12b1	4	1	main_slash	11	main_slash	43	stimuli_distractor_trianglediamonds.svg	stimuli_distractor_diamondtriangles.svg	36	no	0	1	2000	0	0			0	0			1				0	
6.6.1	win	2023-06-02	06:00:10	06:09:02	529411	5654175604212700054a12b1	4	1	main_slash	11	advance_on_keypress_SLASH	44	stimuli_distractor_trianglediamonds.svg	stimuli_distractor_diamondtriangles.svg	36	no	57	0	256	0	0			0	0			1				0	
6.6.1	win	2023-06-02	06:00:10	06:09:03	530690	5654175604212700054a12b1	4	1	main_slash	11	main_slash	45	stimuli_distractor_trianglediamonds.svg	stimuli_target_rectangletriangles.svg	9	yes	53	1	407	0	0			0	0			1				0	
6.6.1	win	2023-06-02	06:00:10	06:09:03	530690	5654175604212700054a12b1	4	1	main_slash	11	advance_on_keypress_SLASH	46	stimuli_distractor_trianglediamonds.svg	stimuli_target_rectangletriangles.svg	9	yes	57	0	258	0	0			0	0			1				0	
6.6.1	win	2023-06-02	06:00:10	06:09:05	532077	5654175604212700054a12b1	4	1	main_slash	11	main_slash	47	stimuli_target_rectanglediamonds.svg	stimuli_distractor_trianglediamonds.svg	2	yes	53	1	515	0	0			0	0			1				0	
6.6.1	win	2023-06-02	06:00:10	06:09:05	532077	5654175604212700054a12b1	4	1	main_slash	11	advance_on_keypress_SLASH	48	stimuli_target_rectanglediamonds.svg	stimuli_distractor_trianglediamonds.svg	2	yes	57	0	235	0	0			0	0			1				0	
6.6.1	win	2023-06-02	06:00:10	06:09:08	534932	5654175604212700054a12b1	4	1	main_slash	11	main_slash	49	stimuli_distractor_diamondtriangles.svg	stimuli_distractor_diamondtriangles.svg	40	no	0	1	2000	0	0			0	0			1				0	
6.6.1	win	2023-06-02	06:00:10	06:09:08	534932	5654175604212700054a12b1	4	1	main_slash	11	advance_on_keypress_SLASH	50	stimuli_distractor_diamondtriangles.svg	stimuli_distractor_diamondtriangles.svg	40	no	57	0	250	0	0			0	0			1				0	
6.6.1	win	2023-06-02	06:00:10	06:09:09	536533	5654175604212700054a12b1	4	1	main_slash	11	main_slash	51	stimuli_target_diamondsquares.svg	stimuli_distractor_trianglediamonds.svg	20	yes	53	1	735	0	0			0	0			1				0	
6.6.1	win	2023-06-02	06:00:10	06:09:09	536533	5654175604212700054a12b1	4	1	main_slash	11	advance_on_keypress_SLASH	52	stimuli_target_diamondsquares.svg	stimuli_distractor_trianglediamonds.svg	20	yes	57	0	257	0	0			0	0			1				0	
6.6.1	win	2023-06-02	06:00:10	06:09:12	539405	5654175604212700054a12b1	4	1	main_slash	11	main_slash	53	stimuli_distractor_diamondtriangles.svg	stimuli_distractor_trianglediamonds.svg	38	no	0	1	2000	0	0			0	0			1				0	
6.6.1	win	2023-06-02	06:00:10	06:09:12	539405	5654175604212700054a12b1	4	1	main_slash	11	advance_on_keypress_SLASH	54	stimuli_distractor_diamondtriangles.svg	stimuli_distractor_trianglediamonds.svg	38	no	57	0	233	0	0			0	0			1				0	
6.6.1	win	2023-06-02	06:00:10	06:09:13	540608	5654175604212700054a12b1	4	1	main_slash	11	main_slash	55	stimuli_target_squaretriangles.svg	stimuli_distractor_diamondtriangles.svg	7	yes	53	1	354	0	0			0	0			1				0	
6.6.1	win	2023-06-02	06:00:10	06:09:13	540608	5654175604212700054a12b1	4	1	main_slash	11	advance_on_keypress_SLASH	56	stimuli_target_squaretriangles.svg	stimuli_distractor_diamondtriangles.svg	7	yes	57	0	258	0	0			0	0			1				0	
6.6.1	win	2023-06-02	06:00:10	06:09:15	541953	5654175604212700054a12b1	4	1	main_slash	11	main_slash	57	stimuli_distractor_diamondtriangles.svg	stimuli_target_rectangletriangles.svg	13	yes	53	1	476	0	0			0	0			1				0	
6.6.1	win	2023-06-02	06:00:10	06:09:15	541953	5654175604212700054a12b1	4	1	main_slash	11	advance_on_keypress_SLASH	58	stimuli_distractor_diamondtriangles.svg	stimuli_target_rectangletriangles.svg	13	yes	57	0	198	0	0			0	0			1				0	
6.6.1	win	2023-06-02	06:00:10	06:09:16	543318	5654175604212700054a12b1	4	1	main_slash	11	main_slash	59	stimuli_target_rectanglediamonds.svg	stimuli_distractor_diamondtriangles.svg	6	yes	53	1	550	0	0			0	0			1				0	
6.6.1	win	2023-06-02	06:00:10	06:09:16	543318	5654175604212700054a12b1	4	1	main_slash	11	advance_on_keypress_SLASH	60	stimuli_target_rectanglediamonds.svg	stimuli_distractor_diamondtriangles.svg	6	yes	57	0	236	0	0			0	0			1				0	
6.6.1	win	2023-06-02	06:00:10	06:09:17	544522	5654175604212700054a12b1	4	1	main_slash	11	main_slash	61	stimuli_distractor_diamondtriangles.svg	stimuli_target_rectanglediamonds.svg	14	yes	53	1	348	0	0			0	0			1				0	
6.6.1	win	2023-06-02	06:00:10	06:09:17	544522	5654175604212700054a12b1	4	1	main_slash	11	advance_on_keypress_SLASH	62	stimuli_distractor_diamondtriangles.svg	stimuli_target_rectanglediamonds.svg	14	yes	57	0	242	0	0			0	0			1				0	
6.6.1	win	2023-06-02	06:00:10	06:09:19	545954	5654175604212700054a12b1	4	1	main_slash	11	main_slash	63	stimuli_distractor_diamondtriangles.svg	stimuli_target_diamondsquares.svg	32	yes	53	1	574	0	0			0	0			1				0	
6.6.1	win	2023-06-02	06:00:10	06:09:19	545954	5654175604212700054a12b1	4	1	main_slash	11	advance_on_keypress_SLASH	64	stimuli_distractor_diamondtriangles.svg	stimuli_target_diamondsquares.svg	32	yes	57	0	225	0	0			0	0			1				0	
6.6.1	win	2023-06-02	06:00:10	06:09:20	547188	5654175604212700054a12b1	4	1	main_slash	11	main_slash	65	stimuli_distractor_trianglediamonds.svg	stimuli_target_rectanglediamonds.svg	10	yes	53	1	390	0	0			0	0			1				0	
6.6.1	win	2023-06-02	06:00:10	06:09:20	547188	5654175604212700054a12b1	4	1	main_slash	11	advance_on_keypress_SLASH	66	stimuli_distractor_trianglediamonds.svg	stimuli_target_rectanglediamonds.svg	10	yes	57	0	184	0	0			0	0			1				0	
6.6.1	win	2023-06-02	06:00:10	06:09:21	548490	5654175604212700054a12b1	4	1	main_slash	11	main_slash	67	stimuli_target_diamondsquares.svg	stimuli_distractor_diamondtriangles.svg	24	yes	53	1	504	0	0			0	0			1				0	
6.6.1	win	2023-06-02	06:00:10	06:09:21	548490	5654175604212700054a12b1	4	1	main_slash	11	advance_on_keypress_SLASH	68	stimuli_target_diamondsquares.svg	stimuli_distractor_diamondtriangles.svg	24	yes	57	0	196	0	0			0	0			1				0	
6.6.1	win	2023-06-02	06:00:10	06:09:24	551301	5654175604212700054a12b1	4	1	main_slash	11	main_slash	69	stimuli_distractor_trianglediamonds.svg	stimuli_target_trianglerectangles.svg	25	yes	0	0	2000	0	0			0	0			1				0	
6.6.1	win	2023-06-02	06:00:10	06:09:24	551301	5654175604212700054a12b1	4	1	main_slash	11	advance_on_keypress_SLASH	70	stimuli_distractor_trianglediamonds.svg	stimuli_target_trianglerectangles.svg	25	yes	57	0	275	0	0			0	0			1				0	
6.6.1	win	2023-06-02	06:00:10	06:09:25	552534	5654175604212700054a12b1	4	1	main_slash	11	main_slash	71	stimuli_distractor_diamondtriangles.svg	stimuli_target_squarediamonds.svg	16	yes	53	1	341	0	0			0	0			1				0	
6.6.1	win	2023-06-02	06:00:10	06:09:25	552534	5654175604212700054a12b1	4	1	main_slash	11	advance_on_keypress_SLASH	72	stimuli_distractor_diamondtriangles.svg	stimuli_target_squarediamonds.svg	16	yes	57	0	230	0	0			0	0			1				0	
6.6.1	win	2023-06-02	06:00:10	06:09:27	554008	5654175604212700054a12b1	4	1	main_slash	11	main_slash	73	stimuli_distractor_trianglediamonds.svg	stimuli_target_diamondsquares.svg	28	yes	53	1	629	0	0			0	0			1				0	
6.6.1	win	2023-06-02	06:00:10	06:09:27	554008	5654175604212700054a12b1	4	1	main_slash	11	advance_on_keypress_SLASH	74	stimuli_distractor_trianglediamonds.svg	stimuli_target_diamondsquares.svg	28	yes	57	0	155	0	0			0	0			1				0	
6.6.1	win	2023-06-02	06:00:10	06:09:28	555457	5654175604212700054a12b1	4	1	main_slash	11	main_slash	75	stimuli_target_trianglesquares.svg	stimuli_distractor_trianglediamonds.svg	18	yes	53	1	678	0	0			0	0			1				0	
6.6.1	win	2023-06-02	06:00:10	06:09:28	555457	5654175604212700054a12b1	4	1	main_slash	11	advance_on_keypress_SLASH	76	stimuli_target_trianglesquares.svg	stimuli_distractor_trianglediamonds.svg	18	yes	57	0	236	0	0			0	0			1				0	
6.6.1	win	2023-06-02	06:00:10	06:09:31	558313	5654175604212700054a12b1	4	1	main_slash	11	main_slash	77	stimuli_distractor_trianglediamonds.svg	stimuli_distractor_diamondtriangles.svg	35	no	0	1	2000	0	0			0	0			1				0	
6.6.1	win	2023-06-02	06:00:10	06:09:31	558313	5654175604212700054a12b1	4	1	main_slash	11	advance_on_keypress_SLASH	78	stimuli_distractor_trianglediamonds.svg	stimuli_distractor_diamondtriangles.svg	35	no	57	0	235	0	0			0	0			1				0	
6.6.1	win	2023-06-02	06:00:10	06:09:32	559472	5654175604212700054a12b1	4	1	main_slash	11	main_slash	79	stimuli_distractor_diamondtriangles.svg	stimuli_target_squaretriangles.svg	15	yes	53	1	305	0	0			0	0			1				0	
6.6.1	win	2023-06-02	06:00:10	06:09:32	559472	5654175604212700054a12b1	4	1	main_slash	11	advance_on_keypress_SLASH	80	stimuli_distractor_diamondtriangles.svg	stimuli_target_squaretriangles.svg	15	yes	57	0	236	0	0			0	0			1				0	
6.6.1	win	2023-06-02	06:00:10	06:09:35	562325	5654175604212700054a12b1	4	1	main_slash	11	main_slash	81	stimuli_distractor_diamondtriangles.svg	stimuli_distractor_diamondtriangles.svg	39	no	0	1	2000	0	0			0	0			1				0	
6.6.1	win	2023-06-02	06:00:10	06:09:35	562325	5654175604212700054a12b1	4	1	main_slash	11	advance_on_keypress_SLASH	82	stimuli_distractor_diamondtriangles.svg	stimuli_distractor_diamondtriangles.svg	39	no	57	0	234	0	0			0	0			1				0	
6.6.1	win	2023-06-02	06:00:10	06:09:36	563509	5654175604212700054a12b1	4	1	main_slash	11	main_slash	83	stimuli_distractor_trianglediamonds.svg	stimuli_target_squaretriangles.svg	11	yes	53	1	330	0	0			0	0			1				0	
6.6.1	win	2023-06-02	06:00:10	06:09:36	563509	5654175604212700054a12b1	4	1	main_slash	11	advance_on_keypress_SLASH	84	stimuli_distractor_trianglediamonds.svg	stimuli_target_squaretriangles.svg	11	yes	57	0	237	0	0			0	0			1				0	
6.6.1	win	2023-06-02	06:00:10	06:09:39	566361	5654175604212700054a12b1	4	1	main_slash	11	main_slash	85	stimuli_distractor_trianglediamonds.svg	stimuli_distractor_trianglediamonds.svg	34	no	0	1	2000	0	0			0	0			1				0	
6.6.1	win	2023-06-02	06:00:10	06:09:39	566361	5654175604212700054a12b1	4	1	main_slash	11	advance_on_keypress_SLASH	86	stimuli_distractor_trianglediamonds.svg	stimuli_distractor_trianglediamonds.svg	34	no	57	0	34	0	0			0	0			1				0	
6.6.1	win	2023-06-02	06:00:10	06:09:42	569010	5654175604212700054a12b1	4	1	main_slash	11	main_slash	87	stimuli_distractor_trianglediamonds.svg	stimuli_distractor_diamondtriangles.svg	36	no	0	1	2000	0	0			0	0			1				0	
6.6.1	win	2023-06-02	06:00:10	06:09:42	569010	5654175604212700054a12b1	4	1	main_slash	11	advance_on_keypress_SLASH	88	stimuli_distractor_trianglediamonds.svg	stimuli_distractor_diamondtriangles.svg	36	no	57	0	223	0	0			0	0			1				0	
6.6.1	win	2023-06-02	06:00:10	06:09:43	570824	5654175604212700054a12b1	4	1	main_slash	11	main_slash	89	stimuli_distractor_diamondtriangles.svg	stimuli_target_trianglerectangles.svg	29	yes	53	1	971	0	0			0	0			1				0	
6.6.1	win	2023-06-02	06:00:10	06:09:43	570824	5654175604212700054a12b1	4	1	main_slash	11	advance_on_keypress_SLASH	90	stimuli_distractor_diamondtriangles.svg	stimuli_target_trianglerectangles.svg	29	yes	57	0	337	0	0			0	0			1				0	
6.6.1	win	2023-06-02	06:00:10	06:09:45	572214	5654175604212700054a12b1	4	1	main_slash	11	main_slash	91	stimuli_target_squaretriangles.svg	stimuli_distractor_diamondtriangles.svg	7	yes	53	1	440	0	0			0	0			1				0	
6.6.1	win	2023-06-02	06:00:10	06:09:45	572214	5654175604212700054a12b1	4	1	main_slash	11	advance_on_keypress_SLASH	92	stimuli_target_squaretriangles.svg	stimuli_distractor_diamondtriangles.svg	7	yes	57	0	205	0	0			0	0			1				0	
6.6.1	win	2023-06-02	06:00:10	06:09:46	573677	5654175604212700054a12b1	4	1	main_slash	11	main_slash	93	stimuli_distractor_diamondtriangles.svg	stimuli_target_diamondsquares.svg	32	yes	53	1	638	0	0			0	0			1				0	
6.6.1	win	2023-06-02	06:00:10	06:09:46	573677	5654175604212700054a12b1	4	1	main_slash	11	advance_on_keypress_SLASH	94	stimuli_distractor_diamondtriangles.svg	stimuli_target_diamondsquares.svg	32	yes	57	0	210	0	0			0	0			1				0	
6.6.1	win	2023-06-02	06:00:10	06:09:48	574956	5654175604212700054a12b1	4	1	main_slash	11	main_slash	95	stimuli_distractor_diamondtriangles.svg	stimuli_target_squarediamonds.svg	16	yes	53	1	450	0	0			0	0			1				0	
6.6.1	win	2023-06-02	06:00:10	06:09:48	574956	5654175604212700054a12b1	4	1	main_slash	11	advance_on_keypress_SLASH	96	stimuli_distractor_diamondtriangles.svg	stimuli_target_squarediamonds.svg	16	yes	57	0	179	0	0			0	0			1				0	
6.6.1	win	2023-06-02	06:00:10	06:09:50	577749	5654175604212700054a12b1	4	1	main_slash	11	main_slash	97	stimuli_distractor_diamondtriangles.svg	stimuli_distractor_trianglediamonds.svg	38	no	0	1	2000	0	0			0	0			1				0	
6.6.1	win	2023-06-02	06:00:10	06:09:50	577749	5654175604212700054a12b1	4	1	main_slash	11	advance_on_keypress_SLASH	98	stimuli_distractor_diamondtriangles.svg	stimuli_distractor_trianglediamonds.svg	38	no	57	0	233	0	0			0	0			1				0	
6.6.1	win	2023-06-02	06:00:10	06:09:51	578909	5654175604212700054a12b1	4	1	main_slash	11	main_slash	99	stimuli_target_trianglerectangles.svg	stimuli_distractor_diamondtriangles.svg	21	yes	53	1	306	0	0			0	0			1				0	
6.6.1	win	2023-06-02	06:00:10	06:09:51	578909	5654175604212700054a12b1	4	1	main_slash	11	advance_on_keypress_SLASH	100	stimuli_target_trianglerectangles.svg	stimuli_distractor_diamondtriangles.svg	21	yes	57	0	398	0	0			0	0			1				0	
6.6.1	win	2023-06-02	06:00:10	06:09:53	580455	5654175604212700054a12b1	4	1	main_slash	11	main_slash	101	stimuli_target_trianglesquares.svg	stimuli_distractor_diamondtriangles.svg	22	yes	53	1	531	0	0			0	0			1				0	
6.6.1	win	2023-06-02	06:00:10	06:09:53	580455	5654175604212700054a12b1	4	1	main_slash	11	advance_on_keypress_SLASH	102	stimuli_target_trianglesquares.svg	stimuli_distractor_diamondtriangles.svg	22	yes	57	0	198	0	0			0	0			1				0	
6.6.1	win	2023-06-02	06:00:10	06:09:56	583270	5654175604212700054a12b1	4	1	main_slash	11	main_slash	103	stimuli_distractor_diamondtriangles.svg	stimuli_distractor_diamondtriangles.svg	40	no	0	1	2000	0	0			0	0			1				0	
6.6.1	win	2023-06-02	06:00:10	06:09:56	583270	5654175604212700054a12b1	4	1	main_slash	11	advance_on_keypress_SLASH	104	stimuli_distractor_diamondtriangles.svg	stimuli_distractor_diamondtriangles.svg	40	no	57	0	297	0	0			0	0			1				0	
6.6.1	win	2023-06-02	06:00:10	06:09:57	584548	5654175604212700054a12b1	4	1	main_slash	11	main_slash	105	stimuli_distractor_diamondtriangles.svg	stimuli_target_squaretriangles.svg	15	yes	53	1	364	0	0			0	0			1				0	
6.6.1	win	2023-06-02	06:00:10	06:09:57	584548	5654175604212700054a12b1	4	1	main_slash	11	advance_on_keypress_SLASH	106	stimuli_distractor_diamondtriangles.svg	stimuli_target_squaretriangles.svg	15	yes	57	0	277	0	0			0	0			1				0	
6.6.1	win	2023-06-02	06:00:10	06:10:00	587445	5654175604212700054a12b1	4	1	main_slash	11	main_slash	107	stimuli_distractor_trianglediamonds.svg	stimuli_distractor_diamondtriangles.svg	35	no	0	1	2000	0	0			0	0			1				0	
6.6.1	win	2023-06-02	06:00:10	06:10:00	587445	5654175604212700054a12b1	4	1	main_slash	11	advance_on_keypress_SLASH	108	stimuli_distractor_trianglediamonds.svg	stimuli_distractor_diamondtriangles.svg	35	no	57	0	92	0	0			0	0			1				0	
6.6.1	win	2023-06-02	06:00:10	06:10:01	588473	5654175604212700054a12b1	4	1	main_slash	11	main_slash	109	stimuli_target_diamondsquares.svg	stimuli_distractor_diamondtriangles.svg	24	yes	53	1	319	0	0			0	0			1				0	
6.6.1	win	2023-06-02	06:00:10	06:10:01	588473	5654175604212700054a12b1	4	1	main_slash	11	advance_on_keypress_SLASH	110	stimuli_target_diamondsquares.svg	stimuli_distractor_diamondtriangles.svg	24	yes	57	0	326	0	0			0	0			1				0	
6.6.1	win	2023-06-02	06:00:10	06:10:02	589774	5654175604212700054a12b1	4	1	main_slash	11	main_slash	111	stimuli_target_rectanglediamonds.svg	stimuli_distractor_trianglediamonds.svg	2	yes	53	1	353	0	0			0	0			1				0	
6.6.1	win	2023-06-02	06:00:10	06:10:02	589774	5654175604212700054a12b1	4	1	main_slash	11	advance_on_keypress_SLASH	112	stimuli_target_rectanglediamonds.svg	stimuli_distractor_trianglediamonds.svg	2	yes	57	0	239	0	0			0	0			1				0	
6.6.1	win	2023-06-02	06:00:10	06:10:03	590893	5654175604212700054a12b1	4	1	main_slash	11	main_slash	113	stimuli_distractor_diamondtriangles.svg	stimuli_target_diamondrectangles.svg	31	yes	53	1	266	0	0			0	0			1				0	
6.6.1	win	2023-06-02	06:00:10	06:10:03	590893	5654175604212700054a12b1	4	1	main_slash	11	advance_on_keypress_SLASH	114	stimuli_distractor_diamondtriangles.svg	stimuli_target_diamondrectangles.svg	31	yes	57	0	234	0	0			0	0			1				0	
6.6.1	win	2023-06-02	06:00:10	06:10:05	592221	5654175604212700054a12b1	4	1	main_slash	11	main_slash	115	stimuli_distractor_diamondtriangles.svg	stimuli_target_trianglesquares.svg	30	yes	53	1	473	0	0			0	0			1				0	
6.6.1	win	2023-06-02	06:00:10	06:10:05	592221	5654175604212700054a12b1	4	1	main_slash	11	advance_on_keypress_SLASH	116	stimuli_distractor_diamondtriangles.svg	stimuli_target_trianglesquares.svg	30	yes	57	0	249	0	0			0	0			1				0	
6.6.1	win	2023-06-02	06:00:10	06:10:06	593419	5654175604212700054a12b1	4	1	main_slash	11	main_slash	117	stimuli_distractor_trianglediamonds.svg	stimuli_distractor_trianglediamonds.svg	33	no	53	0	331	0	0			0	0			1				0	
6.6.1	win	2023-06-02	06:00:10	06:10:06	593419	5654175604212700054a12b1	4	1	main_slash	11	advance_on_keypress_SLASH	118	stimuli_distractor_trianglediamonds.svg	stimuli_distractor_trianglediamonds.svg	33	no	57	0	192	0	0			0	0			1				0	
6.6.1	win	2023-06-02	06:00:10	06:10:07	594903	5654175604212700054a12b1	4	1	main_slash	11	main_slash	119	stimuli_target_trianglesquares.svg	stimuli_distractor_trianglediamonds.svg	18	yes	53	1	670	0	0			0	0			1				0	
6.6.1	win	2023-06-02	06:00:10	06:10:07	594903	5654175604212700054a12b1	4	1	main_slash	11	advance_on_keypress_SLASH	120	stimuli_target_trianglesquares.svg	stimuli_distractor_trianglediamonds.svg	18	yes	57	0	260	0	0			0	0			1				0	
6.6.1	win	2023-06-02	06:00:10	06:10:09	596078	5654175604212700054a12b1	4	1	main_slash	11	main_slash	121	stimuli_distractor_diamondtriangles.svg	stimuli_target_rectangletriangles.svg	13	yes	53	1	300	0	0			0	0			1				0	
6.6.1	win	2023-06-02	06:00:10	06:10:09	596078	5654175604212700054a12b1	4	1	main_slash	11	advance_on_keypress_SLASH	122	stimuli_distractor_diamondtriangles.svg	stimuli_target_rectangletriangles.svg	13	yes	57	0	231	0	0			0	0			1				0	
6.6.1	win	2023-06-02	06:00:10	06:10:10	597265	5654175604212700054a12b1	4	1	main_slash	11	main_slash	123	stimuli_distractor_diamondtriangles.svg	stimuli_target_rectanglediamonds.svg	14	yes	53	1	341	0	0			0	0			1				0	
6.6.1	win	2023-06-02	06:00:10	06:10:10	597265	5654175604212700054a12b1	4	1	main_slash	11	advance_on_keypress_SLASH	124	stimuli_distractor_diamondtriangles.svg	stimuli_target_rectanglediamonds.svg	14	yes	57	0	170	0	0			0	0			1				0	
6.6.1	win	2023-06-02	06:00:10	06:10:11	598341	5654175604212700054a12b1	4	1	main_slash	11	main_slash	125	stimuli_target_rectanglediamonds.svg	stimuli_distractor_diamondtriangles.svg	6	yes	53	1	290	0	0			0	0			1				0	
6.6.1	win	2023-06-02	06:00:10	06:10:11	598341	5654175604212700054a12b1	4	1	main_slash	11	advance_on_keypress_SLASH	126	stimuli_target_rectanglediamonds.svg	stimuli_distractor_diamondtriangles.svg	6	yes	57	0	173	0	0			0	0			1				0	
6.6.1	win	2023-06-02	06:00:10	06:10:12	599388	5654175604212700054a12b1	4	1	main_slash	11	main_slash	127	stimuli_distractor_trianglediamonds.svg	stimuli_target_rectanglediamonds.svg	10	yes	53	1	252	0	0			0	0			1				0	
6.6.1	win	2023-06-02	06:00:10	06:10:12	599388	5654175604212700054a12b1	4	1	main_slash	11	advance_on_keypress_SLASH	128	stimuli_distractor_trianglediamonds.svg	stimuli_target_rectanglediamonds.svg	10	yes	57	0	149	0	0			0	0			1				0	
6.6.1	win	2023-06-02	06:00:10	06:10:15	602154	5654175604212700054a12b1	4	1	main_slash	11	main_slash	129	stimuli_distractor_diamondtriangles.svg	stimuli_distractor_trianglediamonds.svg	37	no	0	1	2000	0	0			0	0			1				0	
6.6.1	win	2023-06-02	06:00:10	06:10:15	602154	5654175604212700054a12b1	4	1	main_slash	11	advance_on_keypress_SLASH	130	stimuli_distractor_diamondtriangles.svg	stimuli_distractor_trianglediamonds.svg	37	no	57	0	374	0	0			0	0			1				0	
6.6.1	win	2023-06-02	06:00:10	06:10:16	603580	5654175604212700054a12b1	4	1	main_slash	11	main_slash	131	stimuli_target_rectangletriangles.svg	stimuli_distractor_diamondtriangles.svg	5	yes	53	1	432	0	0			0	0			1				0	
6.6.1	win	2023-06-02	06:00:10	06:10:16	603580	5654175604212700054a12b1	4	1	main_slash	11	advance_on_keypress_SLASH	132	stimuli_target_rectangletriangles.svg	stimuli_distractor_diamondtriangles.svg	5	yes	57	0	322	0	0			0	0			1				0	
6.6.1	win	2023-06-02	06:00:10	06:10:17	604823	5654175604212700054a12b1	4	1	main_slash	11	main_slash	133	stimuli_distractor_trianglediamonds.svg	stimuli_target_rectangletriangles.svg	9	yes	53	1	306	0	0			0	0			1				0	
6.6.1	win	2023-06-02	06:00:10	06:10:17	604823	5654175604212700054a12b1	4	1	main_slash	11	advance_on_keypress_SLASH	134	stimuli_distractor_trianglediamonds.svg	stimuli_target_rectangletriangles.svg	9	yes	57	0	291	0	0			0	0			1				0	
6.6.1	win	2023-06-02	06:00:10	06:10:20	607736	5654175604212700054a12b1	4	1	main_slash	11	main_slash	135	stimuli_target_trianglerectangles.svg	stimuli_distractor_trianglediamonds.svg	17	yes	0	0	2000	0	0			0	0			1				0	
6.6.1	win	2023-06-02	06:00:10	06:10:20	607736	5654175604212700054a12b1	4	1	main_slash	11	advance_on_keypress_SLASH	136	stimuli_target_trianglerectangles.svg	stimuli_distractor_trianglediamonds.svg	17	yes	57	0	199	0	0			0	0			1				0	
6.6.1	win	2023-06-02	06:00:10	06:10:22	609066	5654175604212700054a12b1	4	1	main_slash	11	main_slash	137	stimuli_target_diamondsquares.svg	stimuli_distractor_trianglediamonds.svg	20	yes	53	1	513	0	0			0	0			1				0	
6.6.1	win	2023-06-02	06:00:10	06:10:22	609066	5654175604212700054a12b1	4	1	main_slash	11	advance_on_keypress_SLASH	138	stimuli_target_diamondsquares.svg	stimuli_distractor_trianglediamonds.svg	20	yes	57	0	3269	0	0			0	0			1				0	
6.6.1	win	2023-06-02	06:00:10	06:10:26	613301	5654175604212700054a12b1	4	1	main_slash	11	main_slash	139	stimuli_target_squarediamonds.svg	stimuli_distractor_trianglediamonds.svg	4	yes	53	1	353	0	0			0	0			1				0	
6.6.1	win	2023-06-02	06:00:10	06:10:26	613301	5654175604212700054a12b1	4	1	main_slash	11	advance_on_keypress_SLASH	140	stimuli_target_squarediamonds.svg	stimuli_distractor_trianglediamonds.svg	4	yes	57	0	155	0	0			0	0			1				0	
6.6.1	win	2023-06-02	06:00:10	06:10:27	614387	5654175604212700054a12b1	4	1	main_slash	11	main_slash	141	stimuli_distractor_trianglediamonds.svg	stimuli_target_squarediamonds.svg	12	yes	53	1	313	0	0			0	0			1				0	
6.6.1	win	2023-06-02	06:00:10	06:10:27	614387	5654175604212700054a12b1	4	1	main_slash	11	advance_on_keypress_SLASH	142	stimuli_distractor_trianglediamonds.svg	stimuli_target_squarediamonds.svg	12	yes	57	0	222	0	0			0	0			1				0	
6.6.1	win	2023-06-02	06:00:10	06:10:30	617226	5654175604212700054a12b1	4	1	main_slash	11	main_slash	143	stimuli_distractor_trianglediamonds.svg	stimuli_target_trianglerectangles.svg	25	yes	0	0	2000	0	0			0	0			1				0	
6.6.1	win	2023-06-02	06:00:10	06:10:30	617226	5654175604212700054a12b1	4	1	main_slash	11	advance_on_keypress_SLASH	144	stimuli_distractor_trianglediamonds.svg	stimuli_target_trianglerectangles.svg	25	yes	57	0	252	0	0			0	0			1				0	
6.6.1	win	2023-06-02	06:00:10	06:10:33	620099	5654175604212700054a12b1	4	1	main_slash	11	main_slash	145	stimuli_target_diamondrectangles.svg	stimuli_distractor_diamondtriangles.svg	23	yes	0	0	2000	0	0			0	0			1				0	
6.6.1	win	2023-06-02	06:00:10	06:10:33	620099	5654175604212700054a12b1	4	1	main_slash	11	advance_on_keypress_SLASH	146	stimuli_target_diamondrectangles.svg	stimuli_distractor_diamondtriangles.svg	23	yes	57	0	264	0	0			0	0			1				0	
6.6.1	win	2023-06-02	06:00:10	06:10:34	621293	5654175604212700054a12b1	4	1	main_slash	11	main_slash	147	stimuli_target_squarediamonds.svg	stimuli_distractor_diamondtriangles.svg	8	yes	53	1	315	0	0			0	0			1				0	
6.6.1	win	2023-06-02	06:00:10	06:10:34	621293	5654175604212700054a12b1	4	1	main_slash	11	advance_on_keypress_SLASH	148	stimuli_target_squarediamonds.svg	stimuli_distractor_diamondtriangles.svg	8	yes	57	0	217	0	0			0	0			1				0	
6.6.1	win	2023-06-02	06:00:10	06:10:35	622495	5654175604212700054a12b1	4	1	main_slash	11	main_slash	149	stimuli_target_squaretriangles.svg	stimuli_distractor_trianglediamonds.svg	3	yes	53	1	366	0	0			0	0			1				0	
6.6.1	win	2023-06-02	06:00:10	06:10:35	622495	5654175604212700054a12b1	4	1	main_slash	11	advance_on_keypress_SLASH	150	stimuli_target_squaretriangles.svg	stimuli_distractor_trianglediamonds.svg	3	yes	57	0	177	0	0			0	0			1				0	
6.6.1	win	2023-06-02	06:00:10	06:10:36	623597	5654175604212700054a12b1	4	1	main_slash	11	main_slash	151	stimuli_distractor_trianglediamonds.svg	stimuli_target_diamondsquares.svg	28	yes	53	1	311	0	0			0	0			1				0	
6.6.1	win	2023-06-02	06:00:10	06:10:36	623597	5654175604212700054a12b1	4	1	main_slash	11	advance_on_keypress_SLASH	152	stimuli_distractor_trianglediamonds.svg	stimuli_target_diamondsquares.svg	28	yes	57	0	256	0	0			0	0			1				0	
6.6.1	win	2023-06-02	06:00:10	06:10:39	626468	5654175604212700054a12b1	4	1	main_slash	11	main_slash	153	stimuli_distractor_trianglediamonds.svg	stimuli_target_trianglesquares.svg	26	yes	0	0	2000	0	0			0	0			1				0	
6.6.1	win	2023-06-02	06:00:10	06:10:39	626468	5654175604212700054a12b1	4	1	main_slash	11	advance_on_keypress_SLASH	154	stimuli_distractor_trianglediamonds.svg	stimuli_target_trianglesquares.svg	26	yes	57	0	226	0	0			0	0			1				0	
6.6.1	win	2023-06-02	06:00:10	06:10:42	629310	5654175604212700054a12b1	4	1	main_slash	11	main_slash	155	stimuli_distractor_trianglediamonds.svg	stimuli_target_diamondrectangles.svg	27	yes	0	0	2000	0	0			0	0			1				0	
6.6.1	win	2023-06-02	06:00:10	06:10:42	629310	5654175604212700054a12b1	4	1	main_slash	11	advance_on_keypress_SLASH	156	stimuli_distractor_trianglediamonds.svg	stimuli_target_diamondrectangles.svg	27	yes	57	0	587	0	0			0	0			1				0	
6.6.1	win	2023-06-02	06:00:10	06:10:45	632517	5654175604212700054a12b1	4	1	main_slash	11	main_slash	157	stimuli_target_diamondrectangles.svg	stimuli_distractor_trianglediamonds.svg	19	yes	0	0	2000	0	0			0	0			1				0	
6.6.1	win	2023-06-02	06:00:10	06:10:45	632517	5654175604212700054a12b1	4	1	main_slash	11	advance_on_keypress_SLASH	158	stimuli_target_diamondrectangles.svg	stimuli_distractor_trianglediamonds.svg	19	yes	57	0	400	0	0			0	0			1				0	
6.6.1	win	2023-06-02	06:00:10	06:10:46	633853	5654175604212700054a12b1	4	1	main_slash	11	main_slash	159	stimuli_target_rectangletriangles.svg	stimuli_distractor_trianglediamonds.svg	1	yes	53	1	319	0	0			0	0			1				0	
6.6.1	win	2023-06-02	06:00:10	06:10:46	633853	5654175604212700054a12b1	4	1	main_slash	11	advance_on_keypress_SLASH	160	stimuli_target_rectangletriangles.svg	stimuli_distractor_trianglediamonds.svg	1	yes	57	0	1667	0	0			0	0			1				0	
6.6.1	win	2023-06-02	06:00:10	06:10:46	633853	5654175604212700054a12b1	4	1	headphonecheck_calibration	14	headphonecheck_calibrationIntro	1	stimuli_target_rectangletriangles.svg	stimuli_distractor_trianglediamonds.svg	1	yes	calibrationButton	0	2529	0	0			0	0			1				0	
6.6.1	win	2023-06-02	06:00:10	06:10:46	633853	5654175604212700054a12b1	4	1	headphonecheck_testphase	15	test_collectResponse	3	stimuli_target_rectangletriangles.svg	stimuli_distractor_trianglediamonds.svg	1	yes	second	1	396	1	5	antiphase_hc_osi.wav	2	0	0			1				0	
6.6.1	win	2023-06-02	06:00:10	06:10:46	633853	5654175604212700054a12b1	4	1	headphonecheck_testphase	15	test_collectResponse	6	stimuli_target_rectangletriangles.svg	stimuli_distractor_trianglediamonds.svg	1	yes	third	1	851	2	2	antiphase_hc_ios.wav	3	0	0			1				0	
6.6.1	win	2023-06-02	06:00:10	06:10:46	633853	5654175604212700054a12b1	4	1	headphonecheck_testphase	15	test_collectResponse	9	stimuli_target_rectangletriangles.svg	stimuli_distractor_trianglediamonds.svg	1	yes	second	1	539	3	1	antiphase_hc_iso.wav	2	0	0			1				0	
6.6.1	win	2023-06-02	06:00:10	06:10:46	633853	5654175604212700054a12b1	4	1	headphonecheck_testphase	15	test_collectResponse	12	stimuli_target_rectangletriangles.svg	stimuli_distractor_trianglediamonds.svg	1	yes	first	1	548	4	4	antiphase_hc_sio.wav	1	0	0			1				0	
6.6.1	win	2023-06-02	06:00:10	06:10:46	633853	5654175604212700054a12b1	4	1	headphonecheck_testphase	15	test_collectResponse	15	stimuli_target_rectangletriangles.svg	stimuli_distractor_trianglediamonds.svg	1	yes	first	1	269	5	3	antiphase_hc_soi.wav	1	0	0			1				0	
6.6.1	win	2023-06-02	06:00:10	06:10:46	633853	5654175604212700054a12b1	4	1	headphonecheck_testphase	15	test_collectResponse	18	stimuli_target_rectangletriangles.svg	stimuli_distractor_trianglediamonds.svg	1	yes	third	1	262	6	6	antiphase_hc_ois.wav	3	0	0			1				0	
6.6.1	win	2023-06-02	06:00:10	06:10:46	633853	5654175604212700054a12b1	4	1	stereocheck_calibration	17	stereocheck_calibrationIntro	1	stimuli_target_rectangletriangles.svg	stimuli_distractor_trianglediamonds.svg	1	yes	stereocheck_calibrationButton	0	4236	6	6	antiphase_hc_ois.wav	3	0	0			1				0	
6.6.1	win	2023-06-02	06:00:10	06:10:46	633853	5654175604212700054a12b1	4	1	stereocheck_testphase	18	stereocheck_test_collectResponse	3	stimuli_target_rectangletriangles.svg	stimuli_distractor_trianglediamonds.svg	1	yes	stereocheck_right	1	260	6	6	antiphase_hc_ois.wav	3	1	6	noise_calib_stim_RIGHT.wav	2	1				0	
6.6.1	win	2023-06-02	06:00:10	06:10:46	633853	5654175604212700054a12b1	4	1	stereocheck_testphase	18	stereocheck_test_collectResponse	6	stimuli_target_rectangletriangles.svg	stimuli_distractor_trianglediamonds.svg	1	yes	stereocheck_right	1	238	6	6	antiphase_hc_ois.wav	3	2	4	noise_calib_stim_RIGHT.wav	2	1				0	
6.6.1	win	2023-06-02	06:00:10	06:10:46	633853	5654175604212700054a12b1	4	1	stereocheck_testphase	18	stereocheck_test_collectResponse	9	stimuli_target_rectangletriangles.svg	stimuli_distractor_trianglediamonds.svg	1	yes	stereocheck_left	1	200	6	6	antiphase_hc_ois.wav	3	3	1	noise_calib_stim_LEFT.wav	1	1				0	
6.6.1	win	2023-06-02	06:00:10	06:10:46	633853	5654175604212700054a12b1	4	1	stereocheck_testphase	18	stereocheck_test_collectResponse	12	stimuli_target_rectangletriangles.svg	stimuli_distractor_trianglediamonds.svg	1	yes	stereocheck_left	1	170	6	6	antiphase_hc_ois.wav	3	4	3	noise_calib_stim_LEFT.wav	1	1				0	
6.6.1	win	2023-06-02	06:00:10	06:10:46	633853	5654175604212700054a12b1	4	1	stereocheck_testphase	18	stereocheck_test_collectResponse	15	stimuli_target_rectangletriangles.svg	stimuli_distractor_trianglediamonds.svg	1	yes	stereocheck_right	1	171	6	6	antiphase_hc_ois.wav	3	5	5	noise_calib_stim_RIGHT.wav	2	1				0	
6.6.1	win	2023-06-02	06:00:10	06:10:46	633853	5654175604212700054a12b1	4	1	stereocheck_testphase	18	stereocheck_test_collectResponse	18	stimuli_target_rectangletriangles.svg	stimuli_distractor_trianglediamonds.svg	1	yes	stereocheck_left	1	207	6	6	antiphase_hc_ois.wav	3	6	2	noise_calib_stim_LEFT.wav	1	1				0	
6.6.1	win	2023-06-02	06:00:10	06:10:46	633853	5654175604212700054a12b1	4	1	DL_practice	21	DL_practice	2	stimuli_target_rectangletriangles.svg	stimuli_distractor_trianglediamonds.svg	1	yes	ba	1	1530	6	6	antiphase_hc_ois.wav	3	6	2	noise_calib_stim_LEFT.wav	1	1	blb_dichoticlistening_ba-ba.mp3	ba	ba	0	left
6.6.1	win	2023-06-02	06:00:10	06:10:46	633853	5654175604212700054a12b1	4	1	DL_practice	21	DL_practice	3	stimuli_target_rectangletriangles.svg	stimuli_distractor_trianglediamonds.svg	1	yes	ka	0	1557	6	6	antiphase_hc_ois.wav	3	6	2	noise_calib_stim_LEFT.wav	1	18	blb_dichoticlistening_ga-ta.mp3	ga	ta	1	other
6.6.1	win	2023-06-02	06:00:10	06:10:46	633853	5654175604212700054a12b1	4	1	DL_practice	21	DL_practice	4	stimuli_target_rectangletriangles.svg	stimuli_distractor_trianglediamonds.svg	1	yes	da	1	937	6	6	antiphase_hc_ois.wav	3	6	2	noise_calib_stim_LEFT.wav	1	7	blb_dichoticlistening_da-ba.mp3	da	ba	1	left
6.6.1	win	2023-06-02	06:00:10	06:10:46	633853	5654175604212700054a12b1	4	1	DL_practice	21	DL_practice	5	stimuli_target_rectangletriangles.svg	stimuli_distractor_trianglediamonds.svg	1	yes	pa	1	954	6	6	antiphase_hc_ois.wav	3	6	2	noise_calib_stim_LEFT.wav	1	29	blb_dichoticlistening_pa-pa.mp3	pa	pa	0	left
6.6.1	win	2023-06-02	06:00:10	06:10:46	633853	5654175604212700054a12b1	4	1	DL_practice	21	DL_practice	6	stimuli_target_rectangletriangles.svg	stimuli_distractor_trianglediamonds.svg	1	yes	ka	1	954	6	6	antiphase_hc_ois.wav	3	6	2	noise_calib_stim_LEFT.wav	1	22	blb_dichoticlistening_ka-ka.mp3	ka	ka	0	left
6.6.1	win	2023-06-02	06:00:10	06:10:46	633853	5654175604212700054a12b1	4	1	DL_practice	21	DL_practice	7	stimuli_target_rectangletriangles.svg	stimuli_distractor_trianglediamonds.svg	1	yes	ga	1	989	6	6	antiphase_hc_ois.wav	3	6	2	noise_calib_stim_LEFT.wav	1	15	blb_dichoticlistening_ga-ga.mp3	ga	ga	0	left
6.6.1	win	2023-06-02	06:00:10	06:10:46	633853	5654175604212700054a12b1	4	1	DL_practice	21	DL_practice	8	stimuli_target_rectangletriangles.svg	stimuli_distractor_trianglediamonds.svg	1	yes	ta	1	1626	6	6	antiphase_hc_ois.wav	3	6	2	noise_calib_stim_LEFT.wav	1	36	blb_dichoticlistening_ta-ta.mp3	ta	ta	0	left
6.6.1	win	2023-06-02	06:00:10	06:10:46	633853	5654175604212700054a12b1	4	1	DL_practice	21	DL_practice	9	stimuli_target_rectangletriangles.svg	stimuli_distractor_trianglediamonds.svg	1	yes	pa	1	1317	6	6	antiphase_hc_ois.wav	3	6	2	noise_calib_stim_LEFT.wav	1	23	blb_dichoticlistening_ka-pa.mp3	ka	pa	1	right
6.6.1	win	2023-06-02	06:00:10	06:10:46	633853	5654175604212700054a12b1	4	1	DL_practice	21	DL_practice	10	stimuli_target_rectangletriangles.svg	stimuli_distractor_trianglediamonds.svg	1	yes	da	1	970	6	6	antiphase_hc_ois.wav	3	6	2	noise_calib_stim_LEFT.wav	1	8	blb_dichoticlistening_da-da.mp3	da	da	0	left
6.6.1	win	2023-06-02	06:00:10	06:10:46	633853	5654175604212700054a12b1	4	1	DL_test	23	DL_test	1	stimuli_target_rectangletriangles.svg	stimuli_distractor_trianglediamonds.svg	1	yes	da	1	2850	6	6	antiphase_hc_ois.wav	3	6	2	noise_calib_stim_LEFT.wav	1	20	blb_dichoticlistening_ka-da.mp3	ka	da	1	right
6.6.1	win	2023-06-02	06:00:10	06:10:46	633853	5654175604212700054a12b1	4	1	DL_test	23	DL_test	2	stimuli_target_rectangletriangles.svg	stimuli_distractor_trianglediamonds.svg	1	yes	ba	1	1127	6	6	antiphase_hc_ois.wav	3	6	2	noise_calib_stim_LEFT.wav	1	7	blb_dichoticlistening_da-ba.mp3	da	ba	1	right
6.6.1	win	2023-06-02	06:00:10	06:10:46	633853	5654175604212700054a12b1	4	1	DL_test	23	DL_test	3	stimuli_target_rectangletriangles.svg	stimuli_distractor_trianglediamonds.svg	1	yes	ta	1	1172	6	6	antiphase_hc_ois.wav	3	6	2	noise_calib_stim_LEFT.wav	1	36	blb_dichoticlistening_ta-ta.mp3	ta	ta	0	left
6.6.1	win	2023-06-02	06:00:10	06:10:46	633853	5654175604212700054a12b1	4	1	DL_test	23	DL_test	4	stimuli_target_rectangletriangles.svg	stimuli_distractor_trianglediamonds.svg	1	yes	ka	1	776	6	6	antiphase_hc_ois.wav	3	6	2	noise_calib_stim_LEFT.wav	1	28	blb_dichoticlistening_pa-ka.mp3	pa	ka	1	right
6.6.1	win	2023-06-02	06:00:10	06:10:46	633853	5654175604212700054a12b1	4	1	DL_test	23	DL_test	5	stimuli_target_rectangletriangles.svg	stimuli_distractor_trianglediamonds.svg	1	yes	pa	1	1210	6	6	antiphase_hc_ois.wav	3	6	2	noise_calib_stim_LEFT.wav	1	35	blb_dichoticlistening_ta-pa.mp3	ta	pa	1	right
6.6.1	win	2023-06-02	06:00:10	06:10:46	633853	5654175604212700054a12b1	4	1	DL_test	23	DL_test	6	stimuli_target_rectangletriangles.svg	stimuli_distractor_trianglediamonds.svg	1	yes	pa	1	739	6	6	antiphase_hc_ois.wav	3	6	2	noise_calib_stim_LEFT.wav	1	5	blb_dichoticlistening_ba-pa.mp3	ba	pa	1	right
6.6.1	win	2023-06-02	06:00:10	06:10:46	633853	5654175604212700054a12b1	4	1	DL_test	23	DL_test	7	stimuli_target_rectangletriangles.svg	stimuli_distractor_trianglediamonds.svg	1	yes	ka	0	833	6	6	antiphase_hc_ois.wav	3	6	2	noise_calib_stim_LEFT.wav	1	18	blb_dichoticlistening_ga-ta.mp3	ga	ta	1	other
6.6.1	win	2023-06-02	06:00:10	06:10:46	633853	5654175604212700054a12b1	4	1	DL_test	23	DL_test	8	stimuli_target_rectangletriangles.svg	stimuli_distractor_trianglediamonds.svg	1	yes	ta	1	1055	6	6	antiphase_hc_ois.wav	3	6	2	noise_calib_stim_LEFT.wav	1	30	blb_dichoticlistening_pa-ta.mp3	pa	ta	1	right
6.6.1	win	2023-06-02	06:00:10	06:10:46	633853	5654175604212700054a12b1	4	1	DL_test	23	DL_test	9	stimuli_target_rectangletriangles.svg	stimuli_distractor_trianglediamonds.svg	1	yes	ga	1	798	6	6	antiphase_hc_ois.wav	3	6	2	noise_calib_stim_LEFT.wav	1	33	blb_dichoticlistening_ta-ga.mp3	ta	ga	1	right
6.6.1	win	2023-06-02	06:00:10	06:10:46	633853	5654175604212700054a12b1	4	1	DL_test	23	DL_test	10	stimuli_target_rectangletriangles.svg	stimuli_distractor_trianglediamonds.svg	1	yes	pa	0	1452	6	6	antiphase_hc_ois.wav	3	6	2	noise_calib_stim_LEFT.wav	1	31	blb_dichoticlistening_ta-ba.mp3	ta	ba	1	other
6.6.1	win	2023-06-02	06:00:10	06:10:46	633853	5654175604212700054a12b1	4	1	DL_test	23	DL_test	11	stimuli_target_rectangletriangles.svg	stimuli_distractor_trianglediamonds.svg	1	yes	ka	1	983	6	6	antiphase_hc_ois.wav	3	6	2	noise_calib_stim_LEFT.wav	1	34	blb_dichoticlistening_ta-ka.mp3	ta	ka	1	right
6.6.1	win	2023-06-02	06:00:10	06:10:46	633853	5654175604212700054a12b1	4	1	DL_test	23	DL_test	12	stimuli_target_rectangletriangles.svg	stimuli_distractor_trianglediamonds.svg	1	yes	ta	1	955	6	6	antiphase_hc_ois.wav	3	6	2	noise_calib_stim_LEFT.wav	1	6	blb_dichoticlistening_ba-ta.mp3	ba	ta	1	right
6.6.1	win	2023-06-02	06:00:10	06:10:46	633853	5654175604212700054a12b1	4	1	DL_test	23	DL_test	13	stimuli_target_rectangletriangles.svg	stimuli_distractor_trianglediamonds.svg	1	yes	ga	1	686	6	6	antiphase_hc_ois.wav	3	6	2	noise_calib_stim_LEFT.wav	1	9	blb_dichoticlistening_da-ga.mp3	da	ga	1	right
6.6.1	win	2023-06-02	06:00:10	06:10:46	633853	5654175604212700054a12b1	4	1	DL_test	23	DL_test	14	stimuli_target_rectangletriangles.svg	stimuli_distractor_trianglediamonds.svg	1	yes	ka	1	794	6	6	antiphase_hc_ois.wav	3	6	2	noise_calib_stim_LEFT.wav	1	19	blb_dichoticlistening_ka-ba.mp3	ka	ba	1	left
6.6.1	win	2023-06-02	06:00:10	06:10:46	633853	5654175604212700054a12b1	4	1	DL_test	23	DL_test	15	stimuli_target_rectangletriangles.svg	stimuli_distractor_trianglediamonds.svg	1	yes	da	1	1380	6	6	antiphase_hc_ois.wav	3	6	2	noise_calib_stim_LEFT.wav	1	8	blb_dichoticlistening_da-da.mp3	da	da	0	left
6.6.1	win	2023-06-02	06:00:10	06:10:46	633853	5654175604212700054a12b1	4	1	DL_test	23	DL_test	16	stimuli_target_rectangletriangles.svg	stimuli_distractor_trianglediamonds.svg	1	yes	ka	1	595	6	6	antiphase_hc_ois.wav	3	6	2	noise_calib_stim_LEFT.wav	1	24	blb_dichoticlistening_ka-ta.mp3	ka	ta	1	left
6.6.1	win	2023-06-02	06:00:10	06:10:46	633853	5654175604212700054a12b1	4	1	DL_test	23	DL_test	17	stimuli_target_rectangletriangles.svg	stimuli_distractor_trianglediamonds.svg	1	yes	ga	1	691	6	6	antiphase_hc_ois.wav	3	6	2	noise_calib_stim_LEFT.wav	1	13	blb_dichoticlistening_ga-ba.mp3	ga	ba	1	left
6.6.1	win	2023-06-02	06:00:10	06:10:46	633853	5654175604212700054a12b1	4	1	DL_test	23	DL_test	18	stimuli_target_rectangletriangles.svg	stimuli_distractor_trianglediamonds.svg	1	yes	ta	1	1067	6	6	antiphase_hc_ois.wav	3	6	2	noise_calib_stim_LEFT.wav	1	12	blb_dichoticlistening_da-ta.mp3	da	ta	1	right
6.6.1	win	2023-06-02	06:00:10	06:10:46	633853	5654175604212700054a12b1	4	1	DL_test	23	DL_test	19	stimuli_target_rectangletriangles.svg	stimuli_distractor_trianglediamonds.svg	1	yes	pa	1	1070	6	6	antiphase_hc_ois.wav	3	6	2	noise_calib_stim_LEFT.wav	1	11	blb_dichoticlistening_da-pa.mp3	da	pa	1	right
6.6.1	win	2023-06-02	06:00:10	06:10:46	633853	5654175604212700054a12b1	4	1	DL_test	23	DL_test	20	stimuli_target_rectangletriangles.svg	stimuli_distractor_trianglediamonds.svg	1	yes	pa	1	981	6	6	antiphase_hc_ois.wav	3	6	2	noise_calib_stim_LEFT.wav	1	25	blb_dichoticlistening_pa-ba.mp3	pa	ba	1	left
6.6.1	win	2023-06-02	06:00:10	06:10:46	633853	5654175604212700054a12b1	4	1	DL_test	23	DL_test	21	stimuli_target_rectangletriangles.svg	stimuli_distractor_trianglediamonds.svg	1	yes	pa	1	1085	6	6	antiphase_hc_ois.wav	3	6	2	noise_calib_stim_LEFT.wav	1	17	blb_dichoticlistening_ga-pa.mp3	ga	pa	1	right
6.6.1	win	2023-06-02	06:00:10	06:10:46	633853	5654175604212700054a12b1	4	1	DL_test	23	DL_test	22	stimuli_target_rectangletriangles.svg	stimuli_distractor_trianglediamonds.svg	1	yes	da	1	667	6	6	antiphase_hc_ois.wav	3	6	2	noise_calib_stim_LEFT.wav	1	14	blb_dichoticlistening_ga-da.mp3	ga	da	1	right
6.6.1	win	2023-06-02	06:00:10	06:10:46	633853	5654175604212700054a12b1	4	1	DL_test	23	DL_test	23	stimuli_target_rectangletriangles.svg	stimuli_distractor_trianglediamonds.svg	1	yes	ta	1	1003	6	6	antiphase_hc_ois.wav	3	6	2	noise_calib_stim_LEFT.wav	1	32	blb_dichoticlistening_ta-da.mp3	ta	da	1	left
6.6.1	win	2023-06-02	06:00:10	06:10:46	633853	5654175604212700054a12b1	4	1	DL_test	23	DL_test	24	stimuli_target_rectangletriangles.svg	stimuli_distractor_trianglediamonds.svg	1	yes	ga	1	498	6	6	antiphase_hc_ois.wav	3	6	2	noise_calib_stim_LEFT.wav	1	3	blb_dichoticlistening_ba-ga.mp3	ba	ga	1	right
6.6.1	win	2023-06-02	06:00:10	06:10:46	633853	5654175604212700054a12b1	4	1	DL_test	23	DL_test	25	stimuli_target_rectangletriangles.svg	stimuli_distractor_trianglediamonds.svg	1	yes	ka	1	692	6	6	antiphase_hc_ois.wav	3	6	2	noise_calib_stim_LEFT.wav	1	22	blb_dichoticlistening_ka-ka.mp3	ka	ka	0	left
6.6.1	win	2023-06-02	06:00:10	06:10:46	633853	5654175604212700054a12b1	4	1	DL_test	23	DL_test	26	stimuli_target_rectangletriangles.svg	stimuli_distractor_trianglediamonds.svg	1	yes	ga	1	771	6	6	antiphase_hc_ois.wav	3	6	2	noise_calib_stim_LEFT.wav	1	15	blb_dichoticlistening_ga-ga.mp3	ga	ga	0	left
