build	computer.platform	date	time	timestamp	time_elapsed_ms	subject	group	session	blockcode	blocknum	trialcode	trialnum	stimulus_left	stimulus_right	stim_index	target_present	response	correct	latency	headphonecheck_countTestTrials	headphonecheck_index	headphonecheck_testSound	headphonecheck_correctResponse	stereocheck_countTestTrials	stereocheck_index	stereocheck_testSound	stereocheck_correctResponse	DL_index	DL_soundfile	DL_leftSound	DL_rightSound	DL_dualSound	DL_choice
6.6.1	win	2023-06-01	23:20:39	23:24:23	221518	633c74ad6178784ed5b52104	4	1	practice_z	5	practice_z	1	stimuli_target_diamondsquares.svg	stimuli_distractor_trianglediamonds.svg	6	yes	0	0	2000	0	0			0	0			1				0	
6.6.1	win	2023-06-01	23:20:39	23:24:23	221518	633c74ad6178784ed5b52104	4	1	practice_z	5	advance_on_keypress_ZEE	2	stimuli_target_diamondsquares.svg	stimuli_distractor_trianglediamonds.svg	6	yes	57	0	747	0	0			0	0			1				0	
6.6.1	win	2023-06-01	23:20:39	23:24:26	224508	633c74ad6178784ed5b52104	4	1	practice_z	5	practice_z	3	stimuli_distractor_trianglediamonds.svg	stimuli_distractor_trianglediamonds.svg	15	no	44	0	591	0	0			0	0			1				0	
6.6.1	win	2023-06-01	23:20:39	23:24:26	224508	633c74ad6178784ed5b52104	4	1	practice_z	5	advance_on_keypress_ZEE	4	stimuli_distractor_trianglediamonds.svg	stimuli_distractor_trianglediamonds.svg	15	no	57	0	663	0	0			0	0			1				0	
6.6.1	win	2023-06-01	23:20:39	23:24:29	227115	633c74ad6178784ed5b52104	4	1	practice_z	5	practice_z	5	stimuli_distractor_diamondtriangles.svg	stimuli_distractor_trianglediamonds.svg	14	no	44	0	298	0	0			0	0			1				0	
6.6.1	win	2023-06-01	23:20:39	23:24:29	227115	633c74ad6178784ed5b52104	4	1	practice_z	5	advance_on_keypress_ZEE	6	stimuli_distractor_diamondtriangles.svg	stimuli_distractor_trianglediamonds.svg	14	no	57	0	639	0	0			0	0			1				0	
6.6.1	win	2023-06-01	23:20:39	23:24:31	229632	633c74ad6178784ed5b52104	4	1	practice_z	5	practice_z	7	stimuli_distractor_diamondtriangles.svg	stimuli_target_diamondrectangles.svg	8	yes	44	1	232	0	0			0	0			1				0	
6.6.1	win	2023-06-01	23:20:39	23:24:31	229632	633c74ad6178784ed5b52104	4	1	practice_z	5	advance_on_keypress_ZEE	8	stimuli_distractor_diamondtriangles.svg	stimuli_target_diamondrectangles.svg	8	yes	57	0	454	0	0			0	0			1				0	
6.6.1	win	2023-06-01	23:20:39	23:24:34	231981	633c74ad6178784ed5b52104	4	1	practice_z	5	practice_z	9	stimuli_distractor_trianglediamonds.svg	stimuli_distractor_diamondtriangles.svg	16	no	44	0	248	0	0			0	0			1				0	
6.6.1	win	2023-06-01	23:20:39	23:24:34	231981	633c74ad6178784ed5b52104	4	1	practice_z	5	advance_on_keypress_ZEE	10	stimuli_distractor_trianglediamonds.svg	stimuli_distractor_diamondtriangles.svg	16	no	57	0	282	0	0			0	0			1				0	
6.6.1	win	2023-06-01	23:20:39	23:24:36	234126	633c74ad6178784ed5b52104	4	1	practice_z	5	practice_z	11	stimuli_target_squarediamonds.svg	stimuli_distractor_diamondtriangles.svg	2	yes	44	1	169	0	0			0	0			1				0	
6.6.1	win	2023-06-01	23:20:39	23:24:36	234126	633c74ad6178784ed5b52104	4	1	practice_z	5	advance_on_keypress_ZEE	12	stimuli_target_squarediamonds.svg	stimuli_distractor_diamondtriangles.svg	2	yes	57	0	418	0	0			0	0			1				0	
6.6.1	win	2023-06-01	23:20:39	23:24:38	236518	633c74ad6178784ed5b52104	4	1	practice_z	5	practice_z	13	stimuli_distractor_diamondtriangles.svg	stimuli_distractor_diamondtriangles.svg	13	no	44	0	320	0	0			0	0			1				0	
6.6.1	win	2023-06-01	23:20:39	23:24:38	236518	633c74ad6178784ed5b52104	4	1	practice_z	5	advance_on_keypress_ZEE	14	stimuli_distractor_diamondtriangles.svg	stimuli_distractor_diamondtriangles.svg	13	no	57	0	347	0	0			0	0			1				0	
6.6.1	win	2023-06-01	23:20:39	23:24:40	238649	633c74ad6178784ed5b52104	4	1	practice_z	5	practice_z	15	stimuli_distractor_trianglediamonds.svg	stimuli_target_diamondrectangles.svg	12	yes	44	1	129	0	0			0	0			1				0	
6.6.1	win	2023-06-01	23:20:39	23:24:40	238649	633c74ad6178784ed5b52104	4	1	practice_z	5	advance_on_keypress_ZEE	16	stimuli_distractor_trianglediamonds.svg	stimuli_target_diamondrectangles.svg	12	yes	57	0	355	0	0			0	0			1				0	
6.6.1	win	2023-06-01	23:20:39	23:24:43	240908	633c74ad6178784ed5b52104	4	1	practice_z	5	practice_z	17	stimuli_target_rectanglediamonds.svg	stimuli_distractor_diamondtriangles.svg	1	yes	44	1	244	0	0			0	0			1				0	
6.6.1	win	2023-06-01	23:20:39	23:24:43	240908	633c74ad6178784ed5b52104	4	1	practice_z	5	advance_on_keypress_ZEE	18	stimuli_target_rectanglediamonds.svg	stimuli_distractor_diamondtriangles.svg	1	yes	57	0	365	0	0			0	0			1				0	
6.6.1	win	2023-06-01	23:20:39	23:24:45	243248	633c74ad6178784ed5b52104	4	1	practice_z	5	practice_z	19	stimuli_target_rectanglediamonds.svg	stimuli_distractor_trianglediamonds.svg	4	yes	44	1	315	0	0			0	0			1				0	
6.6.1	win	2023-06-01	23:20:39	23:24:45	243248	633c74ad6178784ed5b52104	4	1	practice_z	5	advance_on_keypress_ZEE	20	stimuli_target_rectanglediamonds.svg	stimuli_distractor_trianglediamonds.svg	4	yes	57	0	302	0	0			0	0			1				0	
6.6.1	win	2023-06-01	23:20:39	23:24:47	245324	633c74ad6178784ed5b52104	4	1	practice_z	5	practice_z	21	stimuli_target_squarediamonds.svg	stimuli_distractor_trianglediamonds.svg	5	yes	44	1	125	0	0			0	0			1				0	
6.6.1	win	2023-06-01	23:20:39	23:24:47	245324	633c74ad6178784ed5b52104	4	1	practice_z	5	advance_on_keypress_ZEE	22	stimuli_target_squarediamonds.svg	stimuli_distractor_trianglediamonds.svg	5	yes	57	0	196	0	0			0	0			1				0	
6.6.1	win	2023-06-01	23:20:39	23:24:49	247293	633c74ad6178784ed5b52104	4	1	practice_z	5	practice_z	23	stimuli_distractor_trianglediamonds.svg	stimuli_target_squarediamonds.svg	11	yes	44	1	129	0	0			0	0			1				0	
6.6.1	win	2023-06-01	23:20:39	23:24:49	247293	633c74ad6178784ed5b52104	4	1	practice_z	5	advance_on_keypress_ZEE	24	stimuli_distractor_trianglediamonds.svg	stimuli_target_squarediamonds.svg	11	yes	57	0	408	0	0			0	0			1				0	
6.6.1	win	2023-06-01	23:20:39	23:24:51	249626	633c74ad6178784ed5b52104	4	1	practice_z	5	practice_z	25	stimuli_distractor_diamondtriangles.svg	stimuli_target_rectangletriangles.svg	7	yes	44	1	245	0	0			0	0			1				0	
6.6.1	win	2023-06-01	23:20:39	23:24:51	249626	633c74ad6178784ed5b52104	4	1	practice_z	5	advance_on_keypress_ZEE	26	stimuli_distractor_diamondtriangles.svg	stimuli_target_rectangletriangles.svg	7	yes	57	0	121	0	0			0	0			1				0	
6.6.1	win	2023-06-01	23:20:39	23:24:53	251501	633c74ad6178784ed5b52104	4	1	practice_z	5	practice_z	27	stimuli_target_diamondsquares.svg	stimuli_distractor_diamondtriangles.svg	3	yes	44	1	104	0	0			0	0			1				0	
6.6.1	win	2023-06-01	23:20:39	23:24:53	251501	633c74ad6178784ed5b52104	4	1	practice_z	5	advance_on_keypress_ZEE	28	stimuli_target_diamondsquares.svg	stimuli_distractor_diamondtriangles.svg	3	yes	57	0	90	0	0			0	0			1				0	
6.6.1	win	2023-06-01	23:20:39	23:24:55	253451	633c74ad6178784ed5b52104	4	1	practice_z	5	practice_z	29	stimuli_distractor_diamondtriangles.svg	stimuli_target_trianglerectangles.svg	9	yes	44	1	189	0	0			0	0			1				0	
6.6.1	win	2023-06-01	23:20:39	23:24:55	253451	633c74ad6178784ed5b52104	4	1	practice_z	5	advance_on_keypress_ZEE	30	stimuli_distractor_diamondtriangles.svg	stimuli_target_trianglerectangles.svg	9	yes	57	0	371	0	0			0	0			1				0	
6.6.1	win	2023-06-01	23:20:39	23:24:57	255628	633c74ad6178784ed5b52104	4	1	practice_z	5	practice_z	31	stimuli_distractor_trianglediamonds.svg	stimuli_target_rectanglediamonds.svg	10	yes	44	1	162	0	0			0	0			1				0	
6.6.1	win	2023-06-01	23:20:39	23:24:57	255628	633c74ad6178784ed5b52104	4	1	practice_z	5	advance_on_keypress_ZEE	32	stimuli_distractor_trianglediamonds.svg	stimuli_target_rectanglediamonds.svg	10	yes	57	0	202	0	0			0	0			1				0	
6.6.1	win	2023-06-01	23:20:39	23:25:02	260521	633c74ad6178784ed5b52104	4	1	main_z	7	main_z	1	stimuli_distractor_diamondtriangles.svg	stimuli_target_diamondsquares.svg	32	yes	44	1	252	0	0			0	0			1				0	
6.6.1	win	2023-06-01	23:20:39	23:25:02	260521	633c74ad6178784ed5b52104	4	1	main_z	7	advance_on_keypress_ZEE	2	stimuli_distractor_diamondtriangles.svg	stimuli_target_diamondsquares.svg	32	yes	57	0	896	0	0			0	0			1				0	
6.6.1	win	2023-06-01	23:20:39	23:25:04	262343	633c74ad6178784ed5b52104	4	1	main_z	7	main_z	3	stimuli_target_trianglerectangles.svg	stimuli_distractor_trianglediamonds.svg	17	yes	44	1	265	0	0			0	0			1				0	
6.6.1	win	2023-06-01	23:20:39	23:25:04	262343	633c74ad6178784ed5b52104	4	1	main_z	7	advance_on_keypress_ZEE	4	stimuli_target_trianglerectangles.svg	stimuli_distractor_trianglediamonds.svg	17	yes	57	0	877	0	0			0	0			1				0	
6.6.1	win	2023-06-01	23:20:39	23:25:06	264127	633c74ad6178784ed5b52104	4	1	main_z	7	main_z	5	stimuli_target_diamondsquares.svg	stimuli_distractor_diamondtriangles.svg	24	yes	44	1	264	0	0			0	0			1				0	
6.6.1	win	2023-06-01	23:20:39	23:25:06	264127	633c74ad6178784ed5b52104	4	1	main_z	7	advance_on_keypress_ZEE	6	stimuli_target_diamondsquares.svg	stimuli_distractor_diamondtriangles.svg	24	yes	57	0	722	0	0			0	0			1				0	
6.6.1	win	2023-06-01	23:20:39	23:25:07	265604	633c74ad6178784ed5b52104	4	1	main_z	7	main_z	7	stimuli_distractor_diamondtriangles.svg	stimuli_target_rectanglediamonds.svg	14	yes	44	1	110	0	0			0	0			1				0	
6.6.1	win	2023-06-01	23:20:39	23:25:07	265604	633c74ad6178784ed5b52104	4	1	main_z	7	advance_on_keypress_ZEE	8	stimuli_distractor_diamondtriangles.svg	stimuli_target_rectanglediamonds.svg	14	yes	57	0	841	0	0			0	0			1				0	
6.6.1	win	2023-06-01	23:20:39	23:25:09	267111	633c74ad6178784ed5b52104	4	1	main_z	7	main_z	9	stimuli_target_squarediamonds.svg	stimuli_distractor_diamondtriangles.svg	8	yes	44	1	33	0	0			0	0			1				0	
6.6.1	win	2023-06-01	23:20:39	23:25:09	267111	633c74ad6178784ed5b52104	4	1	main_z	7	advance_on_keypress_ZEE	10	stimuli_target_squarediamonds.svg	stimuli_distractor_diamondtriangles.svg	8	yes	57	0	891	0	0			0	0			1				0	
6.6.1	win	2023-06-01	23:20:39	23:25:11	268921	633c74ad6178784ed5b52104	4	1	main_z	7	main_z	11	stimuli_distractor_diamondtriangles.svg	stimuli_target_trianglesquares.svg	30	yes	44	1	256	0	0			0	0			1				0	
6.6.1	win	2023-06-01	23:20:39	23:25:11	268921	633c74ad6178784ed5b52104	4	1	main_z	7	advance_on_keypress_ZEE	12	stimuli_distractor_diamondtriangles.svg	stimuli_target_trianglesquares.svg	30	yes	57	0	622	0	0			0	0			1				0	
6.6.1	win	2023-06-01	23:20:39	23:25:12	270210	633c74ad6178784ed5b52104	4	1	main_z	7	main_z	13	stimuli_target_diamondrectangles.svg	stimuli_distractor_diamondtriangles.svg	23	yes	44	1	34	0	0			0	0			1				0	
6.6.1	win	2023-06-01	23:20:39	23:25:12	270210	633c74ad6178784ed5b52104	4	1	main_z	7	advance_on_keypress_ZEE	14	stimuli_target_diamondrectangles.svg	stimuli_distractor_diamondtriangles.svg	23	yes	57	0	954	0	0			0	0			1				0	
6.6.1	win	2023-06-01	23:20:39	23:25:14	272021	633c74ad6178784ed5b52104	4	1	main_z	7	main_z	15	stimuli_distractor_trianglediamonds.svg	stimuli_target_squaretriangles.svg	11	yes	44	1	211	0	0			0	0			1				0	
6.6.1	win	2023-06-01	23:20:39	23:25:14	272021	633c74ad6178784ed5b52104	4	1	main_z	7	advance_on_keypress_ZEE	16	stimuli_distractor_trianglediamonds.svg	stimuli_target_squaretriangles.svg	11	yes	57	0	559	0	0			0	0			1				0	
6.6.1	win	2023-06-01	23:20:39	23:25:15	273294	633c74ad6178784ed5b52104	4	1	main_z	7	main_z	17	stimuli_distractor_trianglediamonds.svg	stimuli_distractor_diamondtriangles.svg	36	no	44	0	50	0	0			0	0			1				0	
6.6.1	win	2023-06-01	23:20:39	23:25:15	273294	633c74ad6178784ed5b52104	4	1	main_z	7	advance_on_keypress_ZEE	18	stimuli_distractor_trianglediamonds.svg	stimuli_distractor_diamondtriangles.svg	36	no	57	0	899	0	0			0	0			1				0	
6.6.1	win	2023-06-01	23:20:39	23:25:17	275071	633c74ad6178784ed5b52104	4	1	main_z	7	main_z	19	stimuli_distractor_diamondtriangles.svg	stimuli_target_squaretriangles.svg	15	yes	44	1	226	0	0			0	0			1				0	
6.6.1	win	2023-06-01	23:20:39	23:25:17	275071	633c74ad6178784ed5b52104	4	1	main_z	7	advance_on_keypress_ZEE	20	stimuli_distractor_diamondtriangles.svg	stimuli_target_squaretriangles.svg	15	yes	57	0	784	0	0			0	0			1				0	
6.6.1	win	2023-06-01	23:20:39	23:25:18	276499	633c74ad6178784ed5b52104	4	1	main_z	7	main_z	21	stimuli_distractor_diamondtriangles.svg	stimuli_distractor_diamondtriangles.svg	40	no	44	0	6	0	0			0	0			1				0	
6.6.1	win	2023-06-01	23:20:39	23:25:18	276499	633c74ad6178784ed5b52104	4	1	main_z	7	advance_on_keypress_ZEE	22	stimuli_distractor_diamondtriangles.svg	stimuli_distractor_diamondtriangles.svg	40	no	57	0	747	0	0			0	0			1				0	
6.6.1	win	2023-06-01	23:20:39	23:25:20	278213	633c74ad6178784ed5b52104	4	1	main_z	7	main_z	23	stimuli_distractor_trianglediamonds.svg	stimuli_target_rectangletriangles.svg	9	yes	44	1	265	0	0			0	0			1				0	
6.6.1	win	2023-06-01	23:20:39	23:25:20	278213	633c74ad6178784ed5b52104	4	1	main_z	7	advance_on_keypress_ZEE	24	stimuli_distractor_trianglediamonds.svg	stimuli_target_rectangletriangles.svg	9	yes	57	0	700	0	0			0	0			1				0	
6.6.1	win	2023-06-01	23:20:39	23:25:22	279771	633c74ad6178784ed5b52104	4	1	main_z	7	main_z	25	stimuli_distractor_diamondtriangles.svg	stimuli_target_diamondrectangles.svg	31	yes	44	1	211	0	0			0	0			1				0	
6.6.1	win	2023-06-01	23:20:39	23:25:22	279771	633c74ad6178784ed5b52104	4	1	main_z	7	advance_on_keypress_ZEE	26	stimuli_distractor_diamondtriangles.svg	stimuli_target_diamondrectangles.svg	31	yes	57	0	659	0	0			0	0			1				0	
6.6.1	win	2023-06-01	23:20:39	23:25:23	281118	633c74ad6178784ed5b52104	4	1	main_z	7	main_z	27	stimuli_distractor_diamondtriangles.svg	stimuli_target_rectangletriangles.svg	13	yes	44	1	58	0	0			0	0			1				0	
6.6.1	win	2023-06-01	23:20:39	23:25:23	281118	633c74ad6178784ed5b52104	4	1	main_z	7	advance_on_keypress_ZEE	28	stimuli_distractor_diamondtriangles.svg	stimuli_target_rectangletriangles.svg	13	yes	57	0	1100	0	0			0	0			1				0	
6.6.1	win	2023-06-01	23:20:39	23:25:25	283101	633c74ad6178784ed5b52104	4	1	main_z	7	main_z	29	stimuli_target_squaretriangles.svg	stimuli_distractor_trianglediamonds.svg	3	yes	44	1	197	0	0			0	0			1				0	
6.6.1	win	2023-06-01	23:20:39	23:25:25	283101	633c74ad6178784ed5b52104	4	1	main_z	7	advance_on_keypress_ZEE	30	stimuli_target_squaretriangles.svg	stimuli_distractor_trianglediamonds.svg	3	yes	57	0	534	0	0			0	0			1				0	
6.6.1	win	2023-06-01	23:20:39	23:25:26	284439	633c74ad6178784ed5b52104	4	1	main_z	7	main_z	31	stimuli_distractor_trianglediamonds.svg	stimuli_target_trianglerectangles.svg	25	yes	44	1	162	0	0			0	0			1				0	
6.6.1	win	2023-06-01	23:20:39	23:25:26	284439	633c74ad6178784ed5b52104	4	1	main_z	7	advance_on_keypress_ZEE	32	stimuli_distractor_trianglediamonds.svg	stimuli_target_trianglerectangles.svg	25	yes	57	0	655	0	0			0	0			1				0	
6.6.1	win	2023-06-01	23:20:39	23:25:28	285987	633c74ad6178784ed5b52104	4	1	main_z	7	main_z	33	stimuli_distractor_trianglediamonds.svg	stimuli_distractor_trianglediamonds.svg	34	no	44	0	244	0	0			0	0			1				0	
6.6.1	win	2023-06-01	23:20:39	23:25:28	285987	633c74ad6178784ed5b52104	4	1	main_z	7	advance_on_keypress_ZEE	34	stimuli_distractor_trianglediamonds.svg	stimuli_distractor_trianglediamonds.svg	34	no	57	0	612	0	0			0	0			1				0	
6.6.1	win	2023-06-01	23:20:39	23:25:29	287548	633c74ad6178784ed5b52104	4	1	main_z	7	main_z	35	stimuli_target_squaretriangles.svg	stimuli_distractor_diamondtriangles.svg	7	yes	44	1	318	0	0			0	0			1				0	
6.6.1	win	2023-06-01	23:20:39	23:25:29	287548	633c74ad6178784ed5b52104	4	1	main_z	7	advance_on_keypress_ZEE	36	stimuli_target_squaretriangles.svg	stimuli_distractor_diamondtriangles.svg	7	yes	57	0	1913	0	0			0	0			1				0	
6.6.1	win	2023-06-01	23:20:39	23:25:32	290299	633c74ad6178784ed5b52104	4	1	main_z	7	main_z	37	stimuli_distractor_trianglediamonds.svg	stimuli_distractor_diamondtriangles.svg	35	no	44	0	190	0	0			0	0			1				0	
6.6.1	win	2023-06-01	23:20:39	23:25:32	290299	633c74ad6178784ed5b52104	4	1	main_z	7	advance_on_keypress_ZEE	38	stimuli_distractor_trianglediamonds.svg	stimuli_distractor_diamondtriangles.svg	35	no	57	0	2947	0	0			0	0			1				0	
6.6.1	win	2023-06-01	23:20:39	23:25:36	294003	633c74ad6178784ed5b52104	4	1	main_z	7	main_z	39	stimuli_target_trianglesquares.svg	stimuli_distractor_trianglediamonds.svg	18	yes	44	1	110	0	0			0	0			1				0	
6.6.1	win	2023-06-01	23:20:39	23:25:36	294003	633c74ad6178784ed5b52104	4	1	main_z	7	advance_on_keypress_ZEE	40	stimuli_target_trianglesquares.svg	stimuli_distractor_trianglediamonds.svg	18	yes	57	0	967	0	0			0	0			1				0	
6.6.1	win	2023-06-01	23:20:39	23:25:39	297610	633c74ad6178784ed5b52104	4	1	main_z	7	main_z	41	stimuli_distractor_trianglediamonds.svg	stimuli_target_squarediamonds.svg	12	yes	0	0	2000	0	0			0	0			1				0	
6.6.1	win	2023-06-01	23:20:39	23:25:39	297610	633c74ad6178784ed5b52104	4	1	main_z	7	advance_on_keypress_ZEE	42	stimuli_distractor_trianglediamonds.svg	stimuli_target_squarediamonds.svg	12	yes	57	0	754	0	0			0	0			1				0	
6.6.1	win	2023-06-01	23:20:39	23:25:41	299341	633c74ad6178784ed5b52104	4	1	main_z	7	main_z	43	stimuli_target_rectangletriangles.svg	stimuli_distractor_diamondtriangles.svg	5	yes	44	1	333	0	0			0	0			1				0	
6.6.1	win	2023-06-01	23:20:39	23:25:41	299341	633c74ad6178784ed5b52104	4	1	main_z	7	advance_on_keypress_ZEE	44	stimuli_target_rectangletriangles.svg	stimuli_distractor_diamondtriangles.svg	5	yes	57	0	492	0	0			0	0			1				0	
6.6.1	win	2023-06-01	23:20:39	23:25:42	300671	633c74ad6178784ed5b52104	4	1	main_z	7	main_z	45	stimuli_target_trianglerectangles.svg	stimuli_distractor_diamondtriangles.svg	21	yes	44	1	196	0	0			0	0			1				0	
6.6.1	win	2023-06-01	23:20:39	23:25:42	300671	633c74ad6178784ed5b52104	4	1	main_z	7	advance_on_keypress_ZEE	46	stimuli_target_trianglerectangles.svg	stimuli_distractor_diamondtriangles.svg	21	yes	57	0	675	0	0			0	0			1				0	
6.6.1	win	2023-06-01	23:20:39	23:25:44	302292	633c74ad6178784ed5b52104	4	1	main_z	7	main_z	47	stimuli_distractor_trianglediamonds.svg	stimuli_target_diamondrectangles.svg	27	yes	44	1	316	0	0			0	0			1				0	
6.6.1	win	2023-06-01	23:20:39	23:25:44	302292	633c74ad6178784ed5b52104	4	1	main_z	7	advance_on_keypress_ZEE	48	stimuli_distractor_trianglediamonds.svg	stimuli_target_diamondrectangles.svg	27	yes	57	0	295	0	0			0	0			1				0	
6.6.1	win	2023-06-01	23:20:39	23:25:47	305242	633c74ad6178784ed5b52104	4	1	main_z	7	main_z	49	stimuli_distractor_trianglediamonds.svg	stimuli_target_trianglesquares.svg	26	yes	0	0	2000	0	0			0	0			1				0	
6.6.1	win	2023-06-01	23:20:39	23:25:47	305242	633c74ad6178784ed5b52104	4	1	main_z	7	advance_on_keypress_ZEE	50	stimuli_distractor_trianglediamonds.svg	stimuli_target_trianglesquares.svg	26	yes	57	0	493	0	0			0	0			1				0	
6.6.1	win	2023-06-01	23:20:39	23:25:48	306438	633c74ad6178784ed5b52104	4	1	main_z	7	main_z	51	stimuli_distractor_diamondtriangles.svg	stimuli_distractor_trianglediamonds.svg	38	no	44	0	63	0	0			0	0			1				0	
6.6.1	win	2023-06-01	23:20:39	23:25:48	306438	633c74ad6178784ed5b52104	4	1	main_z	7	advance_on_keypress_ZEE	52	stimuli_distractor_diamondtriangles.svg	stimuli_distractor_trianglediamonds.svg	38	no	57	0	539	0	0			0	0			1				0	
6.6.1	win	2023-06-01	23:20:39	23:25:50	307873	633c74ad6178784ed5b52104	4	1	main_z	7	main_z	53	stimuli_target_rectanglediamonds.svg	stimuli_distractor_diamondtriangles.svg	6	yes	44	1	248	0	0			0	0			1				0	
6.6.1	win	2023-06-01	23:20:39	23:25:50	307873	633c74ad6178784ed5b52104	4	1	main_z	7	advance_on_keypress_ZEE	54	stimuli_target_rectanglediamonds.svg	stimuli_distractor_diamondtriangles.svg	6	yes	57	0	551	0	0			0	0			1				0	
6.6.1	win	2023-06-01	23:20:39	23:25:51	309315	633c74ad6178784ed5b52104	4	1	main_z	7	main_z	55	stimuli_target_squarediamonds.svg	stimuli_distractor_trianglediamonds.svg	4	yes	44	1	240	0	0			0	0			1				0	
6.6.1	win	2023-06-01	23:20:39	23:25:51	309315	633c74ad6178784ed5b52104	4	1	main_z	7	advance_on_keypress_ZEE	56	stimuli_target_squarediamonds.svg	stimuli_distractor_trianglediamonds.svg	4	yes	57	0	401	0	0			0	0			1				0	
6.6.1	win	2023-06-01	23:20:39	23:25:52	310737	633c74ad6178784ed5b52104	4	1	main_z	7	main_z	57	stimuli_target_rectanglediamonds.svg	stimuli_distractor_trianglediamonds.svg	2	yes	44	1	379	0	0			0	0			1				0	
6.6.1	win	2023-06-01	23:20:39	23:25:52	310737	633c74ad6178784ed5b52104	4	1	main_z	7	advance_on_keypress_ZEE	58	stimuli_target_rectanglediamonds.svg	stimuli_distractor_trianglediamonds.svg	2	yes	57	0	561	0	0			0	0			1				0	
6.6.1	win	2023-06-01	23:20:39	23:25:54	312069	633c74ad6178784ed5b52104	4	1	main_z	7	main_z	59	stimuli_target_trianglesquares.svg	stimuli_distractor_diamondtriangles.svg	22	yes	44	1	145	0	0			0	0			1				0	
6.6.1	win	2023-06-01	23:20:39	23:25:54	312069	633c74ad6178784ed5b52104	4	1	main_z	7	advance_on_keypress_ZEE	60	stimuli_target_trianglesquares.svg	stimuli_distractor_diamondtriangles.svg	22	yes	57	0	512	0	0			0	0			1				0	
6.6.1	win	2023-06-01	23:20:39	23:25:55	313452	633c74ad6178784ed5b52104	4	1	main_z	7	main_z	61	stimuli_distractor_diamondtriangles.svg	stimuli_target_squarediamonds.svg	16	yes	44	1	226	0	0			0	0			1				0	
6.6.1	win	2023-06-01	23:20:39	23:25:55	313452	633c74ad6178784ed5b52104	4	1	main_z	7	advance_on_keypress_ZEE	62	stimuli_distractor_diamondtriangles.svg	stimuli_target_squarediamonds.svg	16	yes	57	0	521	0	0			0	0			1				0	
6.6.1	win	2023-06-01	23:20:39	23:25:57	314866	633c74ad6178784ed5b52104	4	1	main_z	7	main_z	63	stimuli_distractor_trianglediamonds.svg	stimuli_distractor_trianglediamonds.svg	33	no	44	0	259	0	0			0	0			1				0	
6.6.1	win	2023-06-01	23:20:39	23:25:57	314866	633c74ad6178784ed5b52104	4	1	main_z	7	advance_on_keypress_ZEE	64	stimuli_distractor_trianglediamonds.svg	stimuli_distractor_trianglediamonds.svg	33	no	57	0	318	0	0			0	0			1				0	
6.6.1	win	2023-06-01	23:20:39	23:26:00	317824	633c74ad6178784ed5b52104	4	1	main_z	7	main_z	65	stimuli_distractor_diamondtriangles.svg	stimuli_distractor_diamondtriangles.svg	39	no	0	1	2000	0	0			0	0			1				0	
6.6.1	win	2023-06-01	23:20:39	23:26:00	317824	633c74ad6178784ed5b52104	4	1	main_z	7	advance_on_keypress_ZEE	66	stimuli_distractor_diamondtriangles.svg	stimuli_distractor_diamondtriangles.svg	39	no	57	0	461	0	0			0	0			1				0	
6.6.1	win	2023-06-01	23:20:39	23:26:01	319208	633c74ad6178784ed5b52104	4	1	main_z	7	main_z	67	stimuli_distractor_trianglediamonds.svg	stimuli_target_diamondsquares.svg	28	yes	44	1	283	0	0			0	0			1				0	
6.6.1	win	2023-06-01	23:20:39	23:26:01	319208	633c74ad6178784ed5b52104	4	1	main_z	7	advance_on_keypress_ZEE	68	stimuli_distractor_trianglediamonds.svg	stimuli_target_diamondsquares.svg	28	yes	57	0	338	0	0			0	0			1				0	
6.6.1	win	2023-06-01	23:20:39	23:26:02	320458	633c74ad6178784ed5b52104	4	1	main_z	7	main_z	69	stimuli_distractor_trianglediamonds.svg	stimuli_target_rectanglediamonds.svg	10	yes	44	1	268	0	0			0	0			1				0	
6.6.1	win	2023-06-01	23:20:39	23:26:02	320458	633c74ad6178784ed5b52104	4	1	main_z	7	advance_on_keypress_ZEE	70	stimuli_distractor_trianglediamonds.svg	stimuli_target_rectanglediamonds.svg	10	yes	57	0	376	0	0			0	0			1				0	
6.6.1	win	2023-06-01	23:20:39	23:26:04	321741	633c74ad6178784ed5b52104	4	1	main_z	7	main_z	71	stimuli_target_rectangletriangles.svg	stimuli_distractor_trianglediamonds.svg	1	yes	44	1	267	0	0			0	0			1				0	
6.6.1	win	2023-06-01	23:20:39	23:26:04	321741	633c74ad6178784ed5b52104	4	1	main_z	7	advance_on_keypress_ZEE	72	stimuli_target_rectangletriangles.svg	stimuli_distractor_trianglediamonds.svg	1	yes	57	0	368	0	0			0	0			1				0	
6.6.1	win	2023-06-01	23:20:39	23:26:05	323048	633c74ad6178784ed5b52104	4	1	main_z	7	main_z	73	stimuli_distractor_diamondtriangles.svg	stimuli_distractor_trianglediamonds.svg	37	no	44	0	290	0	0			0	0			1				0	
6.6.1	win	2023-06-01	23:20:39	23:26:05	323048	633c74ad6178784ed5b52104	4	1	main_z	7	advance_on_keypress_ZEE	74	stimuli_distractor_diamondtriangles.svg	stimuli_distractor_trianglediamonds.svg	37	no	57	0	335	0	0			0	0			1				0	
6.6.1	win	2023-06-01	23:20:39	23:26:06	324289	633c74ad6178784ed5b52104	4	1	main_z	7	main_z	75	stimuli_target_diamondsquares.svg	stimuli_distractor_trianglediamonds.svg	20	yes	44	1	264	0	0			0	0			1				0	
6.6.1	win	2023-06-01	23:20:39	23:26:06	324289	633c74ad6178784ed5b52104	4	1	main_z	7	advance_on_keypress_ZEE	76	stimuli_target_diamondsquares.svg	stimuli_distractor_trianglediamonds.svg	20	yes	57	0	283	0	0			0	0			1				0	
6.6.1	win	2023-06-01	23:20:39	23:26:09	327225	633c74ad6178784ed5b52104	4	1	main_z	7	main_z	77	stimuli_distractor_diamondtriangles.svg	stimuli_target_trianglerectangles.svg	29	yes	0	0	2000	0	0			0	0			1				0	
6.6.1	win	2023-06-01	23:20:39	23:26:09	327225	633c74ad6178784ed5b52104	4	1	main_z	7	advance_on_keypress_ZEE	78	stimuli_distractor_diamondtriangles.svg	stimuli_target_trianglerectangles.svg	29	yes	57	0	371	0	0			0	0			1				0	
6.6.1	win	2023-06-01	23:20:39	23:26:10	328280	633c74ad6178784ed5b52104	4	1	main_z	7	main_z	79	stimuli_target_diamondrectangles.svg	stimuli_distractor_trianglediamonds.svg	19	yes	44	1	40	0	0			0	0			1				0	
6.6.1	win	2023-06-01	23:20:39	23:26:10	328280	633c74ad6178784ed5b52104	4	1	main_z	7	advance_on_keypress_ZEE	80	stimuli_target_diamondrectangles.svg	stimuli_distractor_trianglediamonds.svg	19	yes	57	0	364	0	0			0	0			1				0	
6.6.1	win	2023-06-01	23:20:39	23:26:11	329622	633c74ad6178784ed5b52104	4	1	main_z	7	main_z	81	stimuli_target_rectanglediamonds.svg	stimuli_distractor_trianglediamonds.svg	2	yes	44	1	332	0	0			0	0			1				0	
6.6.1	win	2023-06-01	23:20:39	23:26:11	329622	633c74ad6178784ed5b52104	4	1	main_z	7	advance_on_keypress_ZEE	82	stimuli_target_rectanglediamonds.svg	stimuli_distractor_trianglediamonds.svg	2	yes	57	0	416	0	0			0	0			1				0	
6.6.1	win	2023-06-01	23:20:39	23:26:14	332690	633c74ad6178784ed5b52104	4	1	main_z	7	main_z	83	stimuli_distractor_diamondtriangles.svg	stimuli_target_trianglesquares.svg	30	yes	0	0	2000	0	0			0	0			1				0	
6.6.1	win	2023-06-01	23:20:39	23:26:14	332690	633c74ad6178784ed5b52104	4	1	main_z	7	advance_on_keypress_ZEE	84	stimuli_distractor_diamondtriangles.svg	stimuli_target_trianglesquares.svg	30	yes	57	0	552	0	0			0	0			1				0	
6.6.1	win	2023-06-01	23:20:39	23:26:16	334152	633c74ad6178784ed5b52104	4	1	main_z	7	main_z	85	stimuli_target_squarediamonds.svg	stimuli_distractor_diamondtriangles.svg	8	yes	44	1	261	0	0			0	0			1				0	
6.6.1	win	2023-06-01	23:20:39	23:26:16	334152	633c74ad6178784ed5b52104	4	1	main_z	7	advance_on_keypress_ZEE	86	stimuli_target_squarediamonds.svg	stimuli_distractor_diamondtriangles.svg	8	yes	57	0	535	0	0			0	0			1				0	
6.6.1	win	2023-06-01	23:20:39	23:26:19	337324	633c74ad6178784ed5b52104	4	1	main_z	7	main_z	87	stimuli_distractor_trianglediamonds.svg	stimuli_distractor_trianglediamonds.svg	33	no	0	1	2000	0	0			0	0			1				0	
6.6.1	win	2023-06-01	23:20:39	23:26:19	337324	633c74ad6178784ed5b52104	4	1	main_z	7	advance_on_keypress_ZEE	88	stimuli_distractor_trianglediamonds.svg	stimuli_distractor_trianglediamonds.svg	33	no	57	0	356	0	0			0	0			1				0	
6.6.1	win	2023-06-01	23:20:39	23:26:22	340325	633c74ad6178784ed5b52104	4	1	main_z	7	main_z	89	stimuli_target_squarediamonds.svg	stimuli_distractor_trianglediamonds.svg	4	yes	0	0	2000	0	0			0	0			1				0	
6.6.1	win	2023-06-01	23:20:39	23:26:22	340325	633c74ad6178784ed5b52104	4	1	main_z	7	advance_on_keypress_ZEE	90	stimuli_target_squarediamonds.svg	stimuli_distractor_trianglediamonds.svg	4	yes	57	0	415	0	0			0	0			1				0	
6.6.1	win	2023-06-01	23:20:39	23:26:23	341575	633c74ad6178784ed5b52104	4	1	main_z	7	main_z	91	stimuli_distractor_trianglediamonds.svg	stimuli_distractor_diamondtriangles.svg	36	no	44	0	185	0	0			0	0			1				0	
6.6.1	win	2023-06-01	23:20:39	23:26:23	341575	633c74ad6178784ed5b52104	4	1	main_z	7	advance_on_keypress_ZEE	92	stimuli_distractor_trianglediamonds.svg	stimuli_distractor_diamondtriangles.svg	36	no	57	0	449	0	0			0	0			1				0	
6.6.1	win	2023-06-01	23:20:39	23:26:25	342891	633c74ad6178784ed5b52104	4	1	main_z	7	main_z	93	stimuli_distractor_diamondtriangles.svg	stimuli_target_rectanglediamonds.svg	14	yes	44	1	217	0	0			0	0			1				0	
6.6.1	win	2023-06-01	23:20:39	23:26:25	342891	633c74ad6178784ed5b52104	4	1	main_z	7	advance_on_keypress_ZEE	94	stimuli_distractor_diamondtriangles.svg	stimuli_target_rectanglediamonds.svg	14	yes	57	0	1835	0	0			0	0			1				0	
6.6.1	win	2023-06-01	23:20:39	23:26:27	345482	633c74ad6178784ed5b52104	4	1	main_z	7	main_z	95	stimuli_distractor_diamondtriangles.svg	stimuli_target_squarediamonds.svg	16	yes	44	1	109	0	0			0	0			1				0	
6.6.1	win	2023-06-01	23:20:39	23:26:27	345482	633c74ad6178784ed5b52104	4	1	main_z	7	advance_on_keypress_ZEE	96	stimuli_distractor_diamondtriangles.svg	stimuli_target_squarediamonds.svg	16	yes	57	0	622	0	0			0	0			1				0	
6.6.1	win	2023-06-01	23:20:39	23:26:29	347075	633c74ad6178784ed5b52104	4	1	main_z	7	main_z	97	stimuli_target_squaretriangles.svg	stimuli_distractor_diamondtriangles.svg	7	yes	44	1	336	0	0			0	0			1				0	
6.6.1	win	2023-06-01	23:20:39	23:26:29	347075	633c74ad6178784ed5b52104	4	1	main_z	7	advance_on_keypress_ZEE	98	stimuli_target_squaretriangles.svg	stimuli_distractor_diamondtriangles.svg	7	yes	57	0	372	0	0			0	0			1				0	
6.6.1	win	2023-06-01	23:20:39	23:26:32	350091	633c74ad6178784ed5b52104	4	1	main_z	7	main_z	99	stimuli_distractor_diamondtriangles.svg	stimuli_distractor_trianglediamonds.svg	37	no	0	1	2000	0	0			0	0			1				0	
6.6.1	win	2023-06-01	23:20:39	23:26:32	350091	633c74ad6178784ed5b52104	4	1	main_z	7	advance_on_keypress_ZEE	100	stimuli_distractor_diamondtriangles.svg	stimuli_distractor_trianglediamonds.svg	37	no	57	0	330	0	0			0	0			1				0	
6.6.1	win	2023-06-01	23:20:39	23:26:33	351212	633c74ad6178784ed5b52104	4	1	main_z	7	main_z	101	stimuli_distractor_trianglediamonds.svg	stimuli_target_trianglesquares.svg	26	yes	44	1	137	0	0			0	0			1				0	
6.6.1	win	2023-06-01	23:20:39	23:26:33	351212	633c74ad6178784ed5b52104	4	1	main_z	7	advance_on_keypress_ZEE	102	stimuli_distractor_trianglediamonds.svg	stimuli_target_trianglesquares.svg	26	yes	57	0	542	0	0			0	0			1				0	
6.6.1	win	2023-06-01	23:20:39	23:26:35	352766	633c74ad6178784ed5b52104	4	1	main_z	7	main_z	103	stimuli_target_rectanglediamonds.svg	stimuli_distractor_diamondtriangles.svg	6	yes	44	1	374	0	0			0	0			1				0	
6.6.1	win	2023-06-01	23:20:39	23:26:35	352766	633c74ad6178784ed5b52104	4	1	main_z	7	advance_on_keypress_ZEE	104	stimuli_target_rectanglediamonds.svg	stimuli_distractor_diamondtriangles.svg	6	yes	57	0	481	0	0			0	0			1				0	
6.6.1	win	2023-06-01	23:20:39	23:26:38	355906	633c74ad6178784ed5b52104	4	1	main_z	7	main_z	105	stimuli_target_trianglesquares.svg	stimuli_distractor_diamondtriangles.svg	22	yes	0	0	2000	0	0			0	0			1				0	
6.6.1	win	2023-06-01	23:20:39	23:26:38	355906	633c74ad6178784ed5b52104	4	1	main_z	7	advance_on_keypress_ZEE	106	stimuli_target_trianglesquares.svg	stimuli_distractor_diamondtriangles.svg	22	yes	57	0	379	0	0			0	0			1				0	
6.6.1	win	2023-06-01	23:20:39	23:26:39	357148	633c74ad6178784ed5b52104	4	1	main_z	7	main_z	107	stimuli_target_trianglerectangles.svg	stimuli_distractor_trianglediamonds.svg	17	yes	44	1	226	0	0			0	0			1				0	
6.6.1	win	2023-06-01	23:20:39	23:26:39	357148	633c74ad6178784ed5b52104	4	1	main_z	7	advance_on_keypress_ZEE	108	stimuli_target_trianglerectangles.svg	stimuli_distractor_trianglediamonds.svg	17	yes	57	0	327	0	0			0	0			1				0	
6.6.1	win	2023-06-01	23:20:39	23:26:42	360106	633c74ad6178784ed5b52104	4	1	main_z	7	main_z	109	stimuli_distractor_trianglediamonds.svg	stimuli_distractor_diamondtriangles.svg	35	no	0	1	2000	0	0			0	0			1				0	
6.6.1	win	2023-06-01	23:20:39	23:26:42	360106	633c74ad6178784ed5b52104	4	1	main_z	7	advance_on_keypress_ZEE	110	stimuli_distractor_trianglediamonds.svg	stimuli_distractor_diamondtriangles.svg	35	no	57	0	453	0	0			0	0			1				0	
6.6.1	win	2023-06-01	23:20:39	23:26:43	361345	633c74ad6178784ed5b52104	4	1	main_z	7	main_z	111	stimuli_distractor_diamondtriangles.svg	stimuli_target_squaretriangles.svg	15	yes	44	1	140	0	0			0	0			1				0	
6.6.1	win	2023-06-01	23:20:39	23:26:43	361345	633c74ad6178784ed5b52104	4	1	main_z	7	advance_on_keypress_ZEE	112	stimuli_distractor_diamondtriangles.svg	stimuli_target_squaretriangles.svg	15	yes	57	0	489	0	0			0	0			1				0	
6.6.1	win	2023-06-01	23:20:39	23:26:46	364471	633c74ad6178784ed5b52104	4	1	main_z	7	main_z	113	stimuli_distractor_diamondtriangles.svg	stimuli_target_diamondsquares.svg	32	yes	0	0	2000	0	0			0	0			1				0	
6.6.1	win	2023-06-01	23:20:39	23:26:46	364471	633c74ad6178784ed5b52104	4	1	main_z	7	advance_on_keypress_ZEE	114	stimuli_distractor_diamondtriangles.svg	stimuli_target_diamondsquares.svg	32	yes	57	0	509	0	0			0	0			1				0	
6.6.1	win	2023-06-01	23:20:39	23:26:48	365912	633c74ad6178784ed5b52104	4	1	main_z	7	main_z	115	stimuli_distractor_trianglediamonds.svg	stimuli_target_rectanglediamonds.svg	10	yes	44	1	291	0	0			0	0			1				0	
6.6.1	win	2023-06-01	23:20:39	23:26:48	365912	633c74ad6178784ed5b52104	4	1	main_z	7	advance_on_keypress_ZEE	116	stimuli_distractor_trianglediamonds.svg	stimuli_target_rectanglediamonds.svg	10	yes	57	0	376	0	0			0	0			1				0	
6.6.1	win	2023-06-01	23:20:39	23:26:51	368923	633c74ad6178784ed5b52104	4	1	main_z	7	main_z	117	stimuli_target_rectangletriangles.svg	stimuli_distractor_diamondtriangles.svg	5	yes	0	0	2000	0	0			0	0			1				0	
6.6.1	win	2023-06-01	23:20:39	23:26:51	368923	633c74ad6178784ed5b52104	4	1	main_z	7	advance_on_keypress_ZEE	118	stimuli_target_rectangletriangles.svg	stimuli_distractor_diamondtriangles.svg	5	yes	57	0	337	0	0			0	0			1				0	
6.6.1	win	2023-06-01	23:20:39	23:26:52	370172	633c74ad6178784ed5b52104	4	1	main_z	7	main_z	119	stimuli_target_trianglerectangles.svg	stimuli_distractor_diamondtriangles.svg	21	yes	44	1	268	0	0			0	0			1				0	
6.6.1	win	2023-06-01	23:20:39	23:26:52	370172	633c74ad6178784ed5b52104	4	1	main_z	7	advance_on_keypress_ZEE	120	stimuli_target_trianglerectangles.svg	stimuli_distractor_diamondtriangles.svg	21	yes	57	0	229	0	0			0	0			1				0	
6.6.1	win	2023-06-01	23:20:39	23:26:53	371564	633c74ad6178784ed5b52104	4	1	main_z	7	main_z	121	stimuli_target_rectangletriangles.svg	stimuli_distractor_trianglediamonds.svg	1	yes	44	1	509	0	0			0	0			1				0	
6.6.1	win	2023-06-01	23:20:39	23:26:53	371564	633c74ad6178784ed5b52104	4	1	main_z	7	advance_on_keypress_ZEE	122	stimuli_target_rectangletriangles.svg	stimuli_distractor_trianglediamonds.svg	1	yes	57	0	1100	0	0			0	0			1				0	
6.6.1	win	2023-06-01	23:20:39	23:26:57	375305	633c74ad6178784ed5b52104	4	1	main_z	7	main_z	123	stimuli_distractor_trianglediamonds.svg	stimuli_distractor_trianglediamonds.svg	34	no	0	1	2000	0	0			0	0			1				0	
6.6.1	win	2023-06-01	23:20:39	23:26:57	375305	633c74ad6178784ed5b52104	4	1	main_z	7	advance_on_keypress_ZEE	124	stimuli_distractor_trianglediamonds.svg	stimuli_distractor_trianglediamonds.svg	34	no	57	0	333	0	0			0	0			1				0	
6.6.1	win	2023-06-01	23:20:39	23:26:58	376450	633c74ad6178784ed5b52104	4	1	main_z	7	main_z	125	stimuli_target_diamondrectangles.svg	stimuli_distractor_trianglediamonds.svg	19	yes	44	1	164	0	0			0	0			1				0	
6.6.1	win	2023-06-01	23:20:39	23:26:58	376450	633c74ad6178784ed5b52104	4	1	main_z	7	advance_on_keypress_ZEE	126	stimuli_target_diamondrectangles.svg	stimuli_distractor_trianglediamonds.svg	19	yes	57	0	319	0	0			0	0			1				0	
6.6.1	win	2023-06-01	23:20:39	23:27:01	379420	633c74ad6178784ed5b52104	4	1	main_z	7	main_z	127	stimuli_distractor_trianglediamonds.svg	stimuli_target_diamondsquares.svg	28	yes	0	0	2000	0	0			0	0			1				0	
6.6.1	win	2023-06-01	23:20:39	23:27:01	379420	633c74ad6178784ed5b52104	4	1	main_z	7	advance_on_keypress_ZEE	128	stimuli_distractor_trianglediamonds.svg	stimuli_target_diamondsquares.svg	28	yes	57	0	266	0	0			0	0			1				0	
6.6.1	win	2023-06-01	23:20:39	23:27:04	382338	633c74ad6178784ed5b52104	4	1	main_z	7	main_z	129	stimuli_distractor_trianglediamonds.svg	stimuli_target_squaretriangles.svg	11	yes	0	0	2000	0	0			0	0			1				0	
6.6.1	win	2023-06-01	23:20:39	23:27:04	382338	633c74ad6178784ed5b52104	4	1	main_z	7	advance_on_keypress_ZEE	130	stimuli_distractor_trianglediamonds.svg	stimuli_target_squaretriangles.svg	11	yes	57	0	381	0	0			0	0			1				0	
6.6.1	win	2023-06-01	23:20:39	23:27:05	383644	633c74ad6178784ed5b52104	4	1	main_z	7	main_z	131	stimuli_target_squaretriangles.svg	stimuli_distractor_trianglediamonds.svg	3	yes	44	1	273	0	0			0	0			1				0	
6.6.1	win	2023-06-01	23:20:39	23:27:05	383644	633c74ad6178784ed5b52104	4	1	main_z	7	advance_on_keypress_ZEE	132	stimuli_target_squaretriangles.svg	stimuli_distractor_trianglediamonds.svg	3	yes	57	0	642	0	0			0	0			1				0	
6.6.1	win	2023-06-01	23:20:39	23:27:07	385256	633c74ad6178784ed5b52104	4	1	main_z	7	main_z	133	stimuli_distractor_trianglediamonds.svg	stimuli_target_rectangletriangles.svg	9	yes	44	1	336	0	0			0	0			1				0	
6.6.1	win	2023-06-01	23:20:39	23:27:07	385256	633c74ad6178784ed5b52104	4	1	main_z	7	advance_on_keypress_ZEE	134	stimuli_distractor_trianglediamonds.svg	stimuli_target_rectangletriangles.svg	9	yes	57	0	480	0	0			0	0			1				0	
6.6.1	win	2023-06-01	23:20:39	23:27:08	386642	633c74ad6178784ed5b52104	4	1	main_z	7	main_z	135	stimuli_target_diamondrectangles.svg	stimuli_distractor_diamondtriangles.svg	23	yes	44	1	255	0	0			0	0			1				0	
6.6.1	win	2023-06-01	23:20:39	23:27:08	386642	633c74ad6178784ed5b52104	4	1	main_z	7	advance_on_keypress_ZEE	136	stimuli_target_diamondrectangles.svg	stimuli_distractor_diamondtriangles.svg	23	yes	57	0	407	0	0			0	0			1				0	
6.6.1	win	2023-06-01	23:20:39	23:27:10	387961	633c74ad6178784ed5b52104	4	1	main_z	7	main_z	137	stimuli_distractor_trianglediamonds.svg	stimuli_target_trianglerectangles.svg	25	yes	44	1	274	0	0			0	0			1				0	
6.6.1	win	2023-06-01	23:20:39	23:27:10	387961	633c74ad6178784ed5b52104	4	1	main_z	7	advance_on_keypress_ZEE	138	stimuli_distractor_trianglediamonds.svg	stimuli_target_trianglerectangles.svg	25	yes	57	0	362	0	0			0	0			1				0	
6.6.1	win	2023-06-01	23:20:39	23:27:11	389266	633c74ad6178784ed5b52104	4	1	main_z	7	main_z	139	stimuli_distractor_trianglediamonds.svg	stimuli_target_squarediamonds.svg	12	yes	44	1	313	0	0			0	0			1				0	
6.6.1	win	2023-06-01	23:20:39	23:27:11	389266	633c74ad6178784ed5b52104	4	1	main_z	7	advance_on_keypress_ZEE	140	stimuli_distractor_trianglediamonds.svg	stimuli_target_squarediamonds.svg	12	yes	57	0	503	0	0			0	0			1				0	
6.6.1	win	2023-06-01	23:20:39	23:27:14	392421	633c74ad6178784ed5b52104	4	1	main_z	7	main_z	141	stimuli_target_trianglesquares.svg	stimuli_distractor_trianglediamonds.svg	18	yes	0	0	2000	0	0			0	0			1				0	
6.6.1	win	2023-06-01	23:20:39	23:27:14	392421	633c74ad6178784ed5b52104	4	1	main_z	7	advance_on_keypress_ZEE	142	stimuli_target_trianglesquares.svg	stimuli_distractor_trianglediamonds.svg	18	yes	57	0	257	0	0			0	0			1				0	
6.6.1	win	2023-06-01	23:20:39	23:27:15	393555	633c74ad6178784ed5b52104	4	1	main_z	7	main_z	143	stimuli_target_diamondsquares.svg	stimuli_distractor_trianglediamonds.svg	20	yes	44	1	235	0	0			0	0			1				0	
6.6.1	win	2023-06-01	23:20:39	23:27:15	393555	633c74ad6178784ed5b52104	4	1	main_z	7	advance_on_keypress_ZEE	144	stimuli_target_diamondsquares.svg	stimuli_distractor_trianglediamonds.svg	20	yes	57	0	298	0	0			0	0			1				0	
6.6.1	win	2023-06-01	23:20:39	23:27:18	396529	633c74ad6178784ed5b52104	4	1	main_z	7	main_z	145	stimuli_distractor_diamondtriangles.svg	stimuli_target_diamondrectangles.svg	31	yes	0	0	2000	0	0			0	0			1				0	
6.6.1	win	2023-06-01	23:20:39	23:27:18	396529	633c74ad6178784ed5b52104	4	1	main_z	7	advance_on_keypress_ZEE	146	stimuli_distractor_diamondtriangles.svg	stimuli_target_diamondrectangles.svg	31	yes	57	0	333	0	0			0	0			1				0	
6.6.1	win	2023-06-01	23:20:39	23:27:19	397529	633c74ad6178784ed5b52104	4	1	main_z	7	main_z	147	stimuli_distractor_diamondtriangles.svg	stimuli_distractor_diamondtriangles.svg	39	no	44	0	27	0	0			0	0			1				0	
6.6.1	win	2023-06-01	23:20:39	23:27:19	397529	633c74ad6178784ed5b52104	4	1	main_z	7	advance_on_keypress_ZEE	148	stimuli_distractor_diamondtriangles.svg	stimuli_distractor_diamondtriangles.svg	39	no	57	0	385	0	0			0	0			1				0	
6.6.1	win	2023-06-01	23:20:39	23:27:22	400613	633c74ad6178784ed5b52104	4	1	main_z	7	main_z	149	stimuli_distractor_trianglediamonds.svg	stimuli_target_diamondrectangles.svg	27	yes	0	0	2000	0	0			0	0			1				0	
6.6.1	win	2023-06-01	23:20:39	23:27:22	400613	633c74ad6178784ed5b52104	4	1	main_z	7	advance_on_keypress_ZEE	150	stimuli_distractor_trianglediamonds.svg	stimuli_target_diamondrectangles.svg	27	yes	57	0	385	0	0			0	0			1				0	
6.6.1	win	2023-06-01	23:20:39	23:27:26	404677	633c74ad6178784ed5b52104	4	1	main_z	7	main_z	151	stimuli_distractor_diamondtriangles.svg	stimuli_target_rectangletriangles.svg	13	yes	0	0	2000	0	0			0	0			1				0	
6.6.1	win	2023-06-01	23:20:39	23:27:26	404677	633c74ad6178784ed5b52104	4	1	main_z	7	advance_on_keypress_ZEE	152	stimuli_distractor_diamondtriangles.svg	stimuli_target_rectangletriangles.svg	13	yes	57	0	679	0	0			0	0			1				0	
6.6.1	win	2023-06-01	23:20:39	23:27:30	408003	633c74ad6178784ed5b52104	4	1	main_z	7	main_z	153	stimuli_target_diamondsquares.svg	stimuli_distractor_diamondtriangles.svg	24	yes	0	0	2000	0	0			0	0			1				0	
6.6.1	win	2023-06-01	23:20:39	23:27:30	408003	633c74ad6178784ed5b52104	4	1	main_z	7	advance_on_keypress_ZEE	154	stimuli_target_diamondsquares.svg	stimuli_distractor_diamondtriangles.svg	24	yes	57	0	891	0	0			0	0			1				0	
6.6.1	win	2023-06-01	23:20:39	23:27:32	409828	633c74ad6178784ed5b52104	4	1	main_z	7	main_z	155	stimuli_distractor_diamondtriangles.svg	stimuli_distractor_diamondtriangles.svg	40	no	44	0	293	0	0			0	0			1				0	
6.6.1	win	2023-06-01	23:20:39	23:27:32	409828	633c74ad6178784ed5b52104	4	1	main_z	7	advance_on_keypress_ZEE	156	stimuli_distractor_diamondtriangles.svg	stimuli_distractor_diamondtriangles.svg	40	no	57	0	330	0	0			0	0			1				0	
6.6.1	win	2023-06-01	23:20:39	23:27:35	412803	633c74ad6178784ed5b52104	4	1	main_z	7	main_z	157	stimuli_distractor_diamondtriangles.svg	stimuli_distractor_trianglediamonds.svg	38	no	0	1	2000	0	0			0	0			1				0	
6.6.1	win	2023-06-01	23:20:39	23:27:35	412803	633c74ad6178784ed5b52104	4	1	main_z	7	advance_on_keypress_ZEE	158	stimuli_distractor_diamondtriangles.svg	stimuli_distractor_trianglediamonds.svg	38	no	57	0	404	0	0			0	0			1				0	
6.6.1	win	2023-06-01	23:20:39	23:27:36	414095	633c74ad6178784ed5b52104	4	1	main_z	7	main_z	159	stimuli_distractor_diamondtriangles.svg	stimuli_target_trianglerectangles.svg	29	yes	44	1	243	0	0			0	0			1				0	
6.6.1	win	2023-06-01	23:20:39	23:27:36	414095	633c74ad6178784ed5b52104	4	1	main_z	7	advance_on_keypress_ZEE	160	stimuli_distractor_diamondtriangles.svg	stimuli_target_trianglerectangles.svg	29	yes	57	0	296	0	0			0	0			1				0	
6.6.1	win	2023-06-01	23:20:39	23:28:09	447240	633c74ad6178784ed5b52104	4	1	practice_slash	9	practice_slash	1	stimuli_distractor_trianglediamonds.svg	stimuli_target_squarediamonds.svg	11	yes	53	1	654	0	0			0	0			1				0	
6.6.1	win	2023-06-01	23:20:39	23:28:09	447240	633c74ad6178784ed5b52104	4	1	practice_slash	9	advance_on_keypress_SLASH	2	stimuli_distractor_trianglediamonds.svg	stimuli_target_squarediamonds.svg	11	yes	57	0	1741	0	0			0	0			1				0	
6.6.1	win	2023-06-01	23:20:39	23:28:13	451058	633c74ad6178784ed5b52104	4	1	practice_slash	9	practice_slash	3	stimuli_distractor_trianglediamonds.svg	stimuli_distractor_diamondtriangles.svg	16	no	53	0	439	0	0			0	0			1				0	
6.6.1	win	2023-06-01	23:20:39	23:28:13	451058	633c74ad6178784ed5b52104	4	1	practice_slash	9	advance_on_keypress_SLASH	4	stimuli_distractor_trianglediamonds.svg	stimuli_distractor_diamondtriangles.svg	16	no	57	0	602	0	0			0	0			1				0	
6.6.1	win	2023-06-01	23:20:39	23:28:15	453581	633c74ad6178784ed5b52104	4	1	practice_slash	9	practice_slash	5	stimuli_distractor_diamondtriangles.svg	stimuli_target_rectangletriangles.svg	7	yes	53	1	262	0	0			0	0			1				0	
6.6.1	win	2023-06-01	23:20:39	23:28:15	453581	633c74ad6178784ed5b52104	4	1	practice_slash	9	advance_on_keypress_SLASH	6	stimuli_distractor_diamondtriangles.svg	stimuli_target_rectangletriangles.svg	7	yes	57	0	340	0	0			0	0			1				0	
6.6.1	win	2023-06-01	23:20:39	23:28:18	455975	633c74ad6178784ed5b52104	4	1	practice_slash	9	practice_slash	7	stimuli_distractor_diamondtriangles.svg	stimuli_target_diamondrectangles.svg	8	yes	53	1	406	0	0			0	0			1				0	
6.6.1	win	2023-06-01	23:20:39	23:28:18	455975	633c74ad6178784ed5b52104	4	1	practice_slash	9	advance_on_keypress_SLASH	8	stimuli_distractor_diamondtriangles.svg	stimuli_target_diamondrectangles.svg	8	yes	57	0	326	0	0			0	0			1				0	
6.6.1	win	2023-06-01	23:20:39	23:28:22	459935	633c74ad6178784ed5b52104	4	1	practice_slash	9	practice_slash	9	stimuli_distractor_diamondtriangles.svg	stimuli_distractor_diamondtriangles.svg	13	no	0	1	2000	0	0			0	0			1				0	
6.6.1	win	2023-06-01	23:20:39	23:28:22	459935	633c74ad6178784ed5b52104	4	1	practice_slash	9	advance_on_keypress_SLASH	10	stimuli_distractor_diamondtriangles.svg	stimuli_distractor_diamondtriangles.svg	13	no	57	0	488	0	0			0	0			1				0	
6.6.1	win	2023-06-01	23:20:39	23:28:26	464068	633c74ad6178784ed5b52104	4	1	practice_slash	9	practice_slash	11	stimuli_distractor_trianglediamonds.svg	stimuli_distractor_trianglediamonds.svg	15	no	0	1	2000	0	0			0	0			1				0	
6.6.1	win	2023-06-01	23:20:39	23:28:26	464068	633c74ad6178784ed5b52104	4	1	practice_slash	9	advance_on_keypress_SLASH	12	stimuli_distractor_trianglediamonds.svg	stimuli_distractor_trianglediamonds.svg	15	no	57	0	353	0	0			0	0			1				0	
6.6.1	win	2023-06-01	23:20:39	23:28:30	468069	633c74ad6178784ed5b52104	4	1	practice_slash	9	practice_slash	13	stimuli_distractor_diamondtriangles.svg	stimuli_distractor_trianglediamonds.svg	14	no	0	1	2000	0	0			0	0			1				0	
6.6.1	win	2023-06-01	23:20:39	23:28:30	468069	633c74ad6178784ed5b52104	4	1	practice_slash	9	advance_on_keypress_SLASH	14	stimuli_distractor_diamondtriangles.svg	stimuli_distractor_trianglediamonds.svg	14	no	57	0	381	0	0			0	0			1				0	
6.6.1	win	2023-06-01	23:20:39	23:28:34	472103	633c74ad6178784ed5b52104	4	1	practice_slash	9	practice_slash	15	stimuli_distractor_diamondtriangles.svg	stimuli_target_trianglerectangles.svg	9	yes	0	0	2000	0	0			0	0			1				0	
6.6.1	win	2023-06-01	23:20:39	23:28:34	472103	633c74ad6178784ed5b52104	4	1	practice_slash	9	advance_on_keypress_SLASH	16	stimuli_distractor_diamondtriangles.svg	stimuli_target_trianglerectangles.svg	9	yes	57	0	429	0	0			0	0			1				0	
6.6.1	win	2023-06-01	23:20:39	23:28:36	474674	633c74ad6178784ed5b52104	4	1	practice_slash	9	practice_slash	17	stimuli_target_rectanglediamonds.svg	stimuli_distractor_diamondtriangles.svg	1	yes	53	1	492	0	0			0	0			1				0	
6.6.1	win	2023-06-01	23:20:39	23:28:36	474674	633c74ad6178784ed5b52104	4	1	practice_slash	9	advance_on_keypress_SLASH	18	stimuli_target_rectanglediamonds.svg	stimuli_distractor_diamondtriangles.svg	1	yes	57	0	340	0	0			0	0			1				0	
6.6.1	win	2023-06-01	23:20:39	23:28:39	477163	633c74ad6178784ed5b52104	4	1	practice_slash	9	practice_slash	19	stimuli_distractor_trianglediamonds.svg	stimuli_target_diamondrectangles.svg	12	yes	53	1	511	0	0			0	0			1				0	
6.6.1	win	2023-06-01	23:20:39	23:28:39	477163	633c74ad6178784ed5b52104	4	1	practice_slash	9	advance_on_keypress_SLASH	20	stimuli_distractor_trianglediamonds.svg	stimuli_target_diamondrectangles.svg	12	yes	57	0	368	0	0			0	0			1				0	
6.6.1	win	2023-06-01	23:20:39	23:28:41	479509	633c74ad6178784ed5b52104	4	1	practice_slash	9	practice_slash	21	stimuli_target_rectanglediamonds.svg	stimuli_distractor_trianglediamonds.svg	4	yes	53	1	324	0	0			0	0			1				0	
6.6.1	win	2023-06-01	23:20:39	23:28:41	479509	633c74ad6178784ed5b52104	4	1	practice_slash	9	advance_on_keypress_SLASH	22	stimuli_target_rectanglediamonds.svg	stimuli_distractor_trianglediamonds.svg	4	yes	57	0	359	0	0			0	0			1				0	
6.6.1	win	2023-06-01	23:20:39	23:28:44	481961	633c74ad6178784ed5b52104	4	1	practice_slash	9	practice_slash	23	stimuli_target_squarediamonds.svg	stimuli_distractor_diamondtriangles.svg	2	yes	53	1	461	0	0			0	0			1				0	
6.6.1	win	2023-06-01	23:20:39	23:28:44	481961	633c74ad6178784ed5b52104	4	1	practice_slash	9	advance_on_keypress_SLASH	24	stimuli_target_squarediamonds.svg	stimuli_distractor_diamondtriangles.svg	2	yes	57	0	275	0	0			0	0			1				0	
6.6.1	win	2023-06-01	23:20:39	23:28:46	484229	633c74ad6178784ed5b52104	4	1	practice_slash	9	practice_slash	25	stimuli_target_squarediamonds.svg	stimuli_distractor_trianglediamonds.svg	5	yes	53	1	343	0	0			0	0			1				0	
6.6.1	win	2023-06-01	23:20:39	23:28:46	484229	633c74ad6178784ed5b52104	4	1	practice_slash	9	advance_on_keypress_SLASH	26	stimuli_target_squarediamonds.svg	stimuli_distractor_trianglediamonds.svg	5	yes	57	0	312	0	0			0	0			1				0	
6.6.1	win	2023-06-01	23:20:39	23:28:50	488202	633c74ad6178784ed5b52104	4	1	practice_slash	9	practice_slash	27	stimuli_target_diamondsquares.svg	stimuli_distractor_diamondtriangles.svg	3	yes	0	0	2000	0	0			0	0			1				0	
6.6.1	win	2023-06-01	23:20:39	23:28:50	488202	633c74ad6178784ed5b52104	4	1	practice_slash	9	advance_on_keypress_SLASH	28	stimuli_target_diamondsquares.svg	stimuli_distractor_diamondtriangles.svg	3	yes	57	0	239	0	0			0	0			1				0	
6.6.1	win	2023-06-01	23:20:39	23:28:52	490369	633c74ad6178784ed5b52104	4	1	practice_slash	9	practice_slash	29	stimuli_distractor_trianglediamonds.svg	stimuli_target_rectanglediamonds.svg	10	yes	53	1	282	0	0			0	0			1				0	
6.6.1	win	2023-06-01	23:20:39	23:28:52	490369	633c74ad6178784ed5b52104	4	1	practice_slash	9	advance_on_keypress_SLASH	30	stimuli_distractor_trianglediamonds.svg	stimuli_target_rectanglediamonds.svg	10	yes	57	0	233	0	0			0	0			1				0	
6.6.1	win	2023-06-01	23:20:39	23:28:54	492691	633c74ad6178784ed5b52104	4	1	practice_slash	9	practice_slash	31	stimuli_target_diamondsquares.svg	stimuli_distractor_trianglediamonds.svg	6	yes	53	1	442	0	0			0	0			1				0	
6.6.1	win	2023-06-01	23:20:39	23:28:54	492691	633c74ad6178784ed5b52104	4	1	practice_slash	9	advance_on_keypress_SLASH	32	stimuli_target_diamondsquares.svg	stimuli_distractor_trianglediamonds.svg	6	yes	57	0	355	0	0			0	0			1				0	
6.6.1	win	2023-06-01	23:20:39	23:29:01	499204	633c74ad6178784ed5b52104	4	1	main_slash	11	main_slash	1	stimuli_target_trianglerectangles.svg	stimuli_distractor_diamondtriangles.svg	21	yes	53	1	407	0	0			0	0			1				0	
6.6.1	win	2023-06-01	23:20:39	23:29:01	499204	633c74ad6178784ed5b52104	4	1	main_slash	11	advance_on_keypress_SLASH	2	stimuli_target_trianglerectangles.svg	stimuli_distractor_diamondtriangles.svg	21	yes	57	0	605	0	0			0	0			1				0	
6.6.1	win	2023-06-01	23:20:39	23:29:03	500798	633c74ad6178784ed5b52104	4	1	main_slash	11	main_slash	3	stimuli_distractor_trianglediamonds.svg	stimuli_target_rectanglediamonds.svg	10	yes	53	1	353	0	0			0	0			1				0	
6.6.1	win	2023-06-01	23:20:39	23:29:03	500798	633c74ad6178784ed5b52104	4	1	main_slash	11	advance_on_keypress_SLASH	4	stimuli_distractor_trianglediamonds.svg	stimuli_target_rectanglediamonds.svg	10	yes	57	0	450	0	0			0	0			1				0	
6.6.1	win	2023-06-01	23:20:39	23:29:04	502355	633c74ad6178784ed5b52104	4	1	main_slash	11	main_slash	5	stimuli_target_squaretriangles.svg	stimuli_distractor_trianglediamonds.svg	3	yes	53	1	459	0	0			0	0			1				0	
6.6.1	win	2023-06-01	23:20:39	23:29:04	502355	633c74ad6178784ed5b52104	4	1	main_slash	11	advance_on_keypress_SLASH	6	stimuli_target_squaretriangles.svg	stimuli_distractor_trianglediamonds.svg	3	yes	57	0	520	0	0			0	0			1				0	
6.6.1	win	2023-06-01	23:20:39	23:29:07	505514	633c74ad6178784ed5b52104	4	1	main_slash	11	main_slash	7	stimuli_target_trianglesquares.svg	stimuli_distractor_trianglediamonds.svg	18	yes	0	0	2000	0	0			0	0			1				0	
6.6.1	win	2023-06-01	23:20:39	23:29:07	505514	633c74ad6178784ed5b52104	4	1	main_slash	11	advance_on_keypress_SLASH	8	stimuli_target_trianglesquares.svg	stimuli_distractor_trianglediamonds.svg	18	yes	57	0	23	0	0			0	0			1				0	
6.6.1	win	2023-06-01	23:20:39	23:29:08	506577	633c74ad6178784ed5b52104	4	1	main_slash	11	main_slash	9	stimuli_target_rectanglediamonds.svg	stimuli_distractor_diamondtriangles.svg	6	yes	53	1	392	0	0			0	0			1				0	
6.6.1	win	2023-06-01	23:20:39	23:29:08	506577	633c74ad6178784ed5b52104	4	1	main_slash	11	advance_on_keypress_SLASH	10	stimuli_target_rectanglediamonds.svg	stimuli_distractor_diamondtriangles.svg	6	yes	57	0	1098	0	0			0	0			1				0	
6.6.1	win	2023-06-01	23:20:39	23:29:12	510331	633c74ad6178784ed5b52104	4	1	main_slash	11	main_slash	11	stimuli_target_diamondsquares.svg	stimuli_distractor_diamondtriangles.svg	24	yes	0	0	2000	0	0			0	0			1				0	
6.6.1	win	2023-06-01	23:20:39	23:29:12	510331	633c74ad6178784ed5b52104	4	1	main_slash	11	advance_on_keypress_SLASH	12	stimuli_target_diamondsquares.svg	stimuli_distractor_diamondtriangles.svg	24	yes	57	0	452	0	0			0	0			1				0	
6.6.1	win	2023-06-01	23:20:39	23:29:13	511716	633c74ad6178784ed5b52104	4	1	main_slash	11	main_slash	13	stimuli_target_diamondrectangles.svg	stimuli_distractor_trianglediamonds.svg	19	yes	53	1	286	0	0			0	0			1				0	
6.6.1	win	2023-06-01	23:20:39	23:29:13	511716	633c74ad6178784ed5b52104	4	1	main_slash	11	advance_on_keypress_SLASH	14	stimuli_target_diamondrectangles.svg	stimuli_distractor_trianglediamonds.svg	19	yes	57	0	390	0	0			0	0			1				0	
6.6.1	win	2023-06-01	23:20:39	23:29:15	513128	633c74ad6178784ed5b52104	4	1	main_slash	11	main_slash	15	stimuli_target_squaretriangles.svg	stimuli_distractor_diamondtriangles.svg	7	yes	53	1	379	0	0			0	0			1				0	
6.6.1	win	2023-06-01	23:20:39	23:29:15	513128	633c74ad6178784ed5b52104	4	1	main_slash	11	advance_on_keypress_SLASH	16	stimuli_target_squaretriangles.svg	stimuli_distractor_diamondtriangles.svg	7	yes	57	0	422	0	0			0	0			1				0	
6.6.1	win	2023-06-01	23:20:39	23:29:16	514644	633c74ad6178784ed5b52104	4	1	main_slash	11	main_slash	17	stimuli_distractor_trianglediamonds.svg	stimuli_target_rectangletriangles.svg	9	yes	53	1	449	0	0			0	0			1				0	
6.6.1	win	2023-06-01	23:20:39	23:29:16	514644	633c74ad6178784ed5b52104	4	1	main_slash	11	advance_on_keypress_SLASH	18	stimuli_distractor_trianglediamonds.svg	stimuli_target_rectangletriangles.svg	9	yes	57	0	370	0	0			0	0			1				0	
6.6.1	win	2023-06-01	23:20:39	23:29:19	517662	633c74ad6178784ed5b52104	4	1	main_slash	11	main_slash	19	stimuli_distractor_trianglediamonds.svg	stimuli_target_diamondrectangles.svg	27	yes	0	0	2000	0	0			0	0			1				0	
6.6.1	win	2023-06-01	23:20:39	23:29:19	517662	633c74ad6178784ed5b52104	4	1	main_slash	11	advance_on_keypress_SLASH	20	stimuli_distractor_trianglediamonds.svg	stimuli_target_diamondrectangles.svg	27	yes	57	0	386	0	0			0	0			1				0	
6.6.1	win	2023-06-01	23:20:39	23:29:21	518996	633c74ad6178784ed5b52104	4	1	main_slash	11	main_slash	21	stimuli_distractor_diamondtriangles.svg	stimuli_distractor_trianglediamonds.svg	37	no	53	0	300	0	0			0	0			1				0	
6.6.1	win	2023-06-01	23:20:39	23:29:21	518996	633c74ad6178784ed5b52104	4	1	main_slash	11	advance_on_keypress_SLASH	22	stimuli_distractor_diamondtriangles.svg	stimuli_distractor_trianglediamonds.svg	37	no	57	0	403	0	0			0	0			1				0	
6.6.1	win	2023-06-01	23:20:39	23:29:24	522047	633c74ad6178784ed5b52104	4	1	main_slash	11	main_slash	23	stimuli_distractor_diamondtriangles.svg	stimuli_target_trianglesquares.svg	30	yes	0	0	2000	0	0			0	0			1				0	
6.6.1	win	2023-06-01	23:20:39	23:29:24	522047	633c74ad6178784ed5b52104	4	1	main_slash	11	advance_on_keypress_SLASH	24	stimuli_distractor_diamondtriangles.svg	stimuli_target_trianglesquares.svg	30	yes	57	0	403	0	0			0	0			1				0	
6.6.1	win	2023-06-01	23:20:39	23:29:25	523458	633c74ad6178784ed5b52104	4	1	main_slash	11	main_slash	25	stimuli_target_squarediamonds.svg	stimuli_distractor_diamondtriangles.svg	8	yes	53	1	363	0	0			0	0			1				0	
6.6.1	win	2023-06-01	23:20:39	23:29:25	523458	633c74ad6178784ed5b52104	4	1	main_slash	11	advance_on_keypress_SLASH	26	stimuli_target_squarediamonds.svg	stimuli_distractor_diamondtriangles.svg	8	yes	57	0	446	0	0			0	0			1				0	
6.6.1	win	2023-06-01	23:20:39	23:29:28	526561	633c74ad6178784ed5b52104	4	1	main_slash	11	main_slash	27	stimuli_distractor_trianglediamonds.svg	stimuli_target_diamondsquares.svg	28	yes	0	0	2000	0	0			0	0			1				0	
6.6.1	win	2023-06-01	23:20:39	23:29:28	526561	633c74ad6178784ed5b52104	4	1	main_slash	11	advance_on_keypress_SLASH	28	stimuli_distractor_trianglediamonds.svg	stimuli_target_diamondsquares.svg	28	yes	57	0	431	0	0			0	0			1				0	
6.6.1	win	2023-06-01	23:20:39	23:29:30	527875	633c74ad6178784ed5b52104	4	1	main_slash	11	main_slash	29	stimuli_target_squarediamonds.svg	stimuli_distractor_trianglediamonds.svg	4	yes	53	1	230	0	0			0	0			1				0	
6.6.1	win	2023-06-01	23:20:39	23:29:30	527875	633c74ad6178784ed5b52104	4	1	main_slash	11	advance_on_keypress_SLASH	30	stimuli_target_squarediamonds.svg	stimuli_distractor_trianglediamonds.svg	4	yes	57	0	611	0	0			0	0			1				0	
6.6.1	win	2023-06-01	23:20:39	23:29:33	531145	633c74ad6178784ed5b52104	4	1	main_slash	11	main_slash	31	stimuli_target_diamondrectangles.svg	stimuli_distractor_diamondtriangles.svg	23	yes	0	0	2000	0	0			0	0			1				0	
6.6.1	win	2023-06-01	23:20:39	23:29:33	531145	633c74ad6178784ed5b52104	4	1	main_slash	11	advance_on_keypress_SLASH	32	stimuli_target_diamondrectangles.svg	stimuli_distractor_diamondtriangles.svg	23	yes	57	0	395	0	0			0	0			1				0	
6.6.1	win	2023-06-01	23:20:39	23:29:34	532414	633c74ad6178784ed5b52104	4	1	main_slash	11	main_slash	33	stimuli_distractor_diamondtriangles.svg	stimuli_target_squarediamonds.svg	16	yes	53	1	219	0	0			0	0			1				0	
6.6.1	win	2023-06-01	23:20:39	23:29:34	532414	633c74ad6178784ed5b52104	4	1	main_slash	11	advance_on_keypress_SLASH	34	stimuli_distractor_diamondtriangles.svg	stimuli_target_squarediamonds.svg	16	yes	57	0	500	0	0			0	0			1				0	
6.6.1	win	2023-06-01	23:20:39	23:29:36	533806	633c74ad6178784ed5b52104	4	1	main_slash	11	main_slash	35	stimuli_distractor_diamondtriangles.svg	stimuli_target_rectangletriangles.svg	13	yes	53	1	245	0	0			0	0			1				0	
6.6.1	win	2023-06-01	23:20:39	23:29:36	533806	633c74ad6178784ed5b52104	4	1	main_slash	11	advance_on_keypress_SLASH	36	stimuli_distractor_diamondtriangles.svg	stimuli_target_rectangletriangles.svg	13	yes	57	0	434	0	0			0	0			1				0	
6.6.1	win	2023-06-01	23:20:39	23:29:37	535145	633c74ad6178784ed5b52104	4	1	main_slash	11	main_slash	37	stimuli_distractor_diamondtriangles.svg	stimuli_target_squaretriangles.svg	15	yes	53	1	267	0	0			0	0			1				0	
6.6.1	win	2023-06-01	23:20:39	23:29:37	535145	633c74ad6178784ed5b52104	4	1	main_slash	11	advance_on_keypress_SLASH	38	stimuli_distractor_diamondtriangles.svg	stimuli_target_squaretriangles.svg	15	yes	57	0	418	0	0			0	0			1				0	
6.6.1	win	2023-06-01	23:20:39	23:29:38	536472	633c74ad6178784ed5b52104	4	1	main_slash	11	main_slash	39	stimuli_target_diamondsquares.svg	stimuli_distractor_trianglediamonds.svg	20	yes	53	1	261	0	0			0	0			1				0	
6.6.1	win	2023-06-01	23:20:39	23:29:38	536472	633c74ad6178784ed5b52104	4	1	main_slash	11	advance_on_keypress_SLASH	40	stimuli_target_diamondsquares.svg	stimuli_distractor_trianglediamonds.svg	20	yes	57	0	796	0	0			0	0			1				0	
6.6.1	win	2023-06-01	23:20:39	23:29:40	538191	633c74ad6178784ed5b52104	4	1	main_slash	11	main_slash	41	stimuli_target_trianglesquares.svg	stimuli_distractor_diamondtriangles.svg	22	yes	53	1	279	0	0			0	0			1				0	
6.6.1	win	2023-06-01	23:20:39	23:29:40	538191	633c74ad6178784ed5b52104	4	1	main_slash	11	advance_on_keypress_SLASH	42	stimuli_target_trianglesquares.svg	stimuli_distractor_diamondtriangles.svg	22	yes	57	0	391	0	0			0	0			1				0	
6.6.1	win	2023-06-01	23:20:39	23:29:43	541227	633c74ad6178784ed5b52104	4	1	main_slash	11	main_slash	43	stimuli_distractor_diamondtriangles.svg	stimuli_distractor_diamondtriangles.svg	40	no	0	1	2000	0	0			0	0			1				0	
6.6.1	win	2023-06-01	23:20:39	23:29:43	541227	633c74ad6178784ed5b52104	4	1	main_slash	11	advance_on_keypress_SLASH	44	stimuli_distractor_diamondtriangles.svg	stimuli_distractor_diamondtriangles.svg	40	no	57	0	2161	0	0			0	0			1				0	
6.6.1	win	2023-06-01	23:20:39	23:29:46	544376	633c74ad6178784ed5b52104	4	1	main_slash	11	main_slash	45	stimuli_target_rectanglediamonds.svg	stimuli_distractor_trianglediamonds.svg	2	yes	53	1	349	0	0			0	0			1				0	
6.6.1	win	2023-06-01	23:20:39	23:29:46	544376	633c74ad6178784ed5b52104	4	1	main_slash	11	advance_on_keypress_SLASH	46	stimuli_target_rectanglediamonds.svg	stimuli_distractor_trianglediamonds.svg	2	yes	57	0	495	0	0			0	0			1				0	
6.6.1	win	2023-06-01	23:20:39	23:29:47	545737	633c74ad6178784ed5b52104	4	1	main_slash	11	main_slash	47	stimuli_distractor_diamondtriangles.svg	stimuli_target_diamondrectangles.svg	31	yes	53	1	210	0	0			0	0			1				0	
6.6.1	win	2023-06-01	23:20:39	23:29:47	545737	633c74ad6178784ed5b52104	4	1	main_slash	11	advance_on_keypress_SLASH	48	stimuli_distractor_diamondtriangles.svg	stimuli_target_diamondrectangles.svg	31	yes	57	0	556	0	0			0	0			1				0	
6.6.1	win	2023-06-01	23:20:39	23:29:49	547283	633c74ad6178784ed5b52104	4	1	main_slash	11	main_slash	49	stimuli_distractor_diamondtriangles.svg	stimuli_distractor_trianglediamonds.svg	38	no	53	0	356	0	0			0	0			1				0	
6.6.1	win	2023-06-01	23:20:39	23:29:49	547283	633c74ad6178784ed5b52104	4	1	main_slash	11	advance_on_keypress_SLASH	50	stimuli_distractor_diamondtriangles.svg	stimuli_distractor_trianglediamonds.svg	38	no	57	0	487	0	0			0	0			1				0	
6.6.1	win	2023-06-01	23:20:39	23:29:51	548764	633c74ad6178784ed5b52104	4	1	main_slash	11	main_slash	51	stimuli_target_trianglerectangles.svg	stimuli_distractor_trianglediamonds.svg	17	yes	53	1	353	0	0			0	0			1				0	
6.6.1	win	2023-06-01	23:20:39	23:29:51	548764	633c74ad6178784ed5b52104	4	1	main_slash	11	advance_on_keypress_SLASH	52	stimuli_target_trianglerectangles.svg	stimuli_distractor_trianglediamonds.svg	17	yes	57	0	375	0	0			0	0			1				0	
6.6.1	win	2023-06-01	23:20:39	23:29:52	550131	633c74ad6178784ed5b52104	4	1	main_slash	11	main_slash	53	stimuli_distractor_diamondtriangles.svg	stimuli_target_trianglerectangles.svg	29	yes	53	1	355	0	0			0	0			1				0	
6.6.1	win	2023-06-01	23:20:39	23:29:52	550131	633c74ad6178784ed5b52104	4	1	main_slash	11	advance_on_keypress_SLASH	54	stimuli_distractor_diamondtriangles.svg	stimuli_target_trianglerectangles.svg	29	yes	57	0	329	0	0			0	0			1				0	
6.6.1	win	2023-06-01	23:20:39	23:29:53	551684	633c74ad6178784ed5b52104	4	1	main_slash	11	main_slash	55	stimuli_distractor_diamondtriangles.svg	stimuli_target_rectanglediamonds.svg	14	yes	53	1	573	0	0			0	0			1				0	
6.6.1	win	2023-06-01	23:20:39	23:29:53	551684	633c74ad6178784ed5b52104	4	1	main_slash	11	advance_on_keypress_SLASH	56	stimuli_distractor_diamondtriangles.svg	stimuli_target_rectanglediamonds.svg	14	yes	57	0	709	0	0			0	0			1				0	
6.6.1	win	2023-06-01	23:20:39	23:29:55	553454	633c74ad6178784ed5b52104	4	1	main_slash	11	main_slash	57	stimuli_distractor_trianglediamonds.svg	stimuli_distractor_diamondtriangles.svg	35	no	53	0	427	0	0			0	0			1				0	
6.6.1	win	2023-06-01	23:20:39	23:29:55	553454	633c74ad6178784ed5b52104	4	1	main_slash	11	advance_on_keypress_SLASH	58	stimuli_distractor_trianglediamonds.svg	stimuli_distractor_diamondtriangles.svg	35	no	57	0	517	0	0			0	0			1				0	
6.6.1	win	2023-06-01	23:20:39	23:29:57	555041	633c74ad6178784ed5b52104	4	1	main_slash	11	main_slash	59	stimuli_distractor_trianglediamonds.svg	stimuli_target_squaretriangles.svg	11	yes	53	1	431	0	0			0	0			1				0	
6.6.1	win	2023-06-01	23:20:39	23:29:57	555041	633c74ad6178784ed5b52104	4	1	main_slash	11	advance_on_keypress_SLASH	60	stimuli_distractor_trianglediamonds.svg	stimuli_target_squaretriangles.svg	11	yes	57	0	248	0	0			0	0			1				0	
6.6.1	win	2023-06-01	23:20:39	23:29:58	556287	633c74ad6178784ed5b52104	4	1	main_slash	11	main_slash	61	stimuli_target_rectangletriangles.svg	stimuli_distractor_diamondtriangles.svg	5	yes	53	1	343	0	0			0	0			1				0	
6.6.1	win	2023-06-01	23:20:39	23:29:58	556287	633c74ad6178784ed5b52104	4	1	main_slash	11	advance_on_keypress_SLASH	62	stimuli_target_rectangletriangles.svg	stimuli_distractor_diamondtriangles.svg	5	yes	57	0	401	0	0			0	0			1				0	
6.6.1	win	2023-06-01	23:20:39	23:29:59	557704	633c74ad6178784ed5b52104	4	1	main_slash	11	main_slash	63	stimuli_distractor_trianglediamonds.svg	stimuli_target_trianglerectangles.svg	25	yes	53	1	379	0	0			0	0			1				0	
6.6.1	win	2023-06-01	23:20:39	23:29:59	557704	633c74ad6178784ed5b52104	4	1	main_slash	11	advance_on_keypress_SLASH	64	stimuli_distractor_trianglediamonds.svg	stimuli_target_trianglerectangles.svg	25	yes	57	0	476	0	0			0	0			1				0	
6.6.1	win	2023-06-01	23:20:39	23:30:01	559039	633c74ad6178784ed5b52104	4	1	main_slash	11	main_slash	65	stimuli_distractor_trianglediamonds.svg	stimuli_target_trianglesquares.svg	26	yes	53	1	230	0	0			0	0			1				0	
6.6.1	win	2023-06-01	23:20:39	23:30:01	559039	633c74ad6178784ed5b52104	4	1	main_slash	11	advance_on_keypress_SLASH	66	stimuli_distractor_trianglediamonds.svg	stimuli_target_trianglesquares.svg	26	yes	57	0	483	0	0			0	0			1				0	
6.6.1	win	2023-06-01	23:20:39	23:30:03	560909	633c74ad6178784ed5b52104	4	1	main_slash	11	main_slash	67	stimuli_distractor_diamondtriangles.svg	stimuli_distractor_diamondtriangles.svg	39	no	53	0	732	0	0			0	0			1				0	
6.6.1	win	2023-06-01	23:20:39	23:30:03	560909	633c74ad6178784ed5b52104	4	1	main_slash	11	advance_on_keypress_SLASH	68	stimuli_distractor_diamondtriangles.svg	stimuli_distractor_diamondtriangles.svg	39	no	57	0	409	0	0			0	0			1				0	
6.6.1	win	2023-06-01	23:20:39	23:30:06	563960	633c74ad6178784ed5b52104	4	1	main_slash	11	main_slash	69	stimuli_distractor_diamondtriangles.svg	stimuli_target_diamondsquares.svg	32	yes	0	0	2000	0	0			0	0			1				0	
6.6.1	win	2023-06-01	23:20:39	23:30:06	563960	633c74ad6178784ed5b52104	4	1	main_slash	11	advance_on_keypress_SLASH	70	stimuli_distractor_diamondtriangles.svg	stimuli_target_diamondsquares.svg	32	yes	57	0	681	0	0			0	0			1				0	
6.6.1	win	2023-06-01	23:20:39	23:30:07	565443	633c74ad6178784ed5b52104	4	1	main_slash	11	main_slash	71	stimuli_distractor_trianglediamonds.svg	stimuli_target_squarediamonds.svg	12	yes	53	1	150	0	0			0	0			1				0	
6.6.1	win	2023-06-01	23:20:39	23:30:07	565443	633c74ad6178784ed5b52104	4	1	main_slash	11	advance_on_keypress_SLASH	72	stimuli_distractor_trianglediamonds.svg	stimuli_target_squarediamonds.svg	12	yes	57	0	412	0	0			0	0			1				0	
6.6.1	win	2023-06-01	23:20:39	23:30:09	566772	633c74ad6178784ed5b52104	4	1	main_slash	11	main_slash	73	stimuli_distractor_trianglediamonds.svg	stimuli_distractor_trianglediamonds.svg	34	no	53	0	263	0	0			0	0			1				0	
6.6.1	win	2023-06-01	23:20:39	23:30:09	566772	633c74ad6178784ed5b52104	4	1	main_slash	11	advance_on_keypress_SLASH	74	stimuli_distractor_trianglediamonds.svg	stimuli_distractor_trianglediamonds.svg	34	no	57	0	391	0	0			0	0			1				0	
6.6.1	win	2023-06-01	23:20:39	23:30:10	568179	633c74ad6178784ed5b52104	4	1	main_slash	11	main_slash	75	stimuli_distractor_trianglediamonds.svg	stimuli_distractor_trianglediamonds.svg	33	no	53	0	369	0	0			0	0			1				0	
6.6.1	win	2023-06-01	23:20:39	23:30:10	568179	633c74ad6178784ed5b52104	4	1	main_slash	11	advance_on_keypress_SLASH	76	stimuli_distractor_trianglediamonds.svg	stimuli_distractor_trianglediamonds.svg	33	no	57	0	313	0	0			0	0			1				0	
6.6.1	win	2023-06-01	23:20:39	23:30:11	569621	633c74ad6178784ed5b52104	4	1	main_slash	11	main_slash	77	stimuli_target_rectangletriangles.svg	stimuli_distractor_trianglediamonds.svg	1	yes	53	1	479	0	0			0	0			1				0	
6.6.1	win	2023-06-01	23:20:39	23:30:11	569621	633c74ad6178784ed5b52104	4	1	main_slash	11	advance_on_keypress_SLASH	78	stimuli_target_rectangletriangles.svg	stimuli_distractor_trianglediamonds.svg	1	yes	57	0	336	0	0			0	0			1				0	
6.6.1	win	2023-06-01	23:20:39	23:30:13	571027	633c74ad6178784ed5b52104	4	1	main_slash	11	main_slash	79	stimuli_distractor_trianglediamonds.svg	stimuli_distractor_diamondtriangles.svg	36	no	53	0	418	0	0			0	0			1				0	
6.6.1	win	2023-06-01	23:20:39	23:30:13	571027	633c74ad6178784ed5b52104	4	1	main_slash	11	advance_on_keypress_SLASH	80	stimuli_distractor_trianglediamonds.svg	stimuli_distractor_diamondtriangles.svg	36	no	57	0	572	0	0			0	0			1				0	
6.6.1	win	2023-06-01	23:20:39	23:30:15	572891	633c74ad6178784ed5b52104	4	1	main_slash	11	main_slash	81	stimuli_distractor_trianglediamonds.svg	stimuli_target_diamondrectangles.svg	27	yes	53	1	649	0	0			0	0			1				0	
6.6.1	win	2023-06-01	23:20:39	23:30:15	572891	633c74ad6178784ed5b52104	4	1	main_slash	11	advance_on_keypress_SLASH	82	stimuli_distractor_trianglediamonds.svg	stimuli_target_diamondrectangles.svg	27	yes	57	0	552	0	0			0	0			1				0	
6.6.1	win	2023-06-01	23:20:39	23:30:16	574398	633c74ad6178784ed5b52104	4	1	main_slash	11	main_slash	83	stimuli_target_diamondrectangles.svg	stimuli_distractor_diamondtriangles.svg	23	yes	53	1	307	0	0			0	0			1				0	
6.6.1	win	2023-06-01	23:20:39	23:30:16	574398	633c74ad6178784ed5b52104	4	1	main_slash	11	advance_on_keypress_SLASH	84	stimuli_target_diamondrectangles.svg	stimuli_distractor_diamondtriangles.svg	23	yes	57	0	393	0	0			0	0			1				0	
6.6.1	win	2023-06-01	23:20:39	23:30:17	575733	633c74ad6178784ed5b52104	4	1	main_slash	11	main_slash	85	stimuli_distractor_trianglediamonds.svg	stimuli_distractor_diamondtriangles.svg	35	no	53	0	308	0	0			0	0			1				0	
6.6.1	win	2023-06-01	23:20:39	23:30:17	575733	633c74ad6178784ed5b52104	4	1	main_slash	11	advance_on_keypress_SLASH	86	stimuli_distractor_trianglediamonds.svg	stimuli_distractor_diamondtriangles.svg	35	no	57	0	315	0	0			0	0			1				0	
6.6.1	win	2023-06-01	23:20:39	23:30:19	576991	633c74ad6178784ed5b52104	4	1	main_slash	11	main_slash	87	stimuli_distractor_diamondtriangles.svg	stimuli_target_trianglerectangles.svg	29	yes	53	1	299	0	0			0	0			1				0	
6.6.1	win	2023-06-01	23:20:39	23:30:19	576991	633c74ad6178784ed5b52104	4	1	main_slash	11	advance_on_keypress_SLASH	88	stimuli_distractor_diamondtriangles.svg	stimuli_target_trianglerectangles.svg	29	yes	57	0	315	0	0			0	0			1				0	
6.6.1	win	2023-06-01	23:20:39	23:30:20	578377	633c74ad6178784ed5b52104	4	1	main_slash	11	main_slash	89	stimuli_distractor_diamondtriangles.svg	stimuli_distractor_trianglediamonds.svg	37	no	53	0	419	0	0			0	0			1				0	
6.6.1	win	2023-06-01	23:20:39	23:30:20	578377	633c74ad6178784ed5b52104	4	1	main_slash	11	advance_on_keypress_SLASH	90	stimuli_distractor_diamondtriangles.svg	stimuli_distractor_trianglediamonds.svg	37	no	57	0	256	0	0			0	0			1				0	
6.6.1	win	2023-06-01	23:20:39	23:30:21	579683	633c74ad6178784ed5b52104	4	1	main_slash	11	main_slash	91	stimuli_distractor_diamondtriangles.svg	stimuli_target_squarediamonds.svg	16	yes	53	1	408	0	0			0	0			1				0	
6.6.1	win	2023-06-01	23:20:39	23:30:21	579683	633c74ad6178784ed5b52104	4	1	main_slash	11	advance_on_keypress_SLASH	92	stimuli_distractor_diamondtriangles.svg	stimuli_target_squarediamonds.svg	16	yes	57	0	297	0	0			0	0			1				0	
6.6.1	win	2023-06-01	23:20:39	23:30:23	580977	633c74ad6178784ed5b52104	4	1	main_slash	11	main_slash	93	stimuli_distractor_diamondtriangles.svg	stimuli_target_trianglesquares.svg	30	yes	53	1	352	0	0			0	0			1				0	
6.6.1	win	2023-06-01	23:20:39	23:30:23	580977	633c74ad6178784ed5b52104	4	1	main_slash	11	advance_on_keypress_SLASH	94	stimuli_distractor_diamondtriangles.svg	stimuli_target_trianglesquares.svg	30	yes	57	0	340	0	0			0	0			1				0	
6.6.1	win	2023-06-01	23:20:39	23:30:24	582299	633c74ad6178784ed5b52104	4	1	main_slash	11	main_slash	95	stimuli_target_squaretriangles.svg	stimuli_distractor_diamondtriangles.svg	7	yes	53	1	341	0	0			0	0			1				0	
6.6.1	win	2023-06-01	23:20:39	23:30:24	582299	633c74ad6178784ed5b52104	4	1	main_slash	11	advance_on_keypress_SLASH	96	stimuli_target_squaretriangles.svg	stimuli_distractor_diamondtriangles.svg	7	yes	57	0	331	0	0			0	0			1				0	
6.6.1	win	2023-06-01	23:20:39	23:30:27	585275	633c74ad6178784ed5b52104	4	1	main_slash	11	main_slash	97	stimuli_distractor_diamondtriangles.svg	stimuli_distractor_diamondtriangles.svg	39	no	0	1	2000	0	0			0	0			1				0	
6.6.1	win	2023-06-01	23:20:39	23:30:27	585275	633c74ad6178784ed5b52104	4	1	main_slash	11	advance_on_keypress_SLASH	98	stimuli_distractor_diamondtriangles.svg	stimuli_distractor_diamondtriangles.svg	39	no	57	0	310	0	0			0	0			1				0	
6.6.1	win	2023-06-01	23:20:39	23:30:28	586569	633c74ad6178784ed5b52104	4	1	main_slash	11	main_slash	99	stimuli_target_diamondsquares.svg	stimuli_distractor_trianglediamonds.svg	20	yes	53	1	345	0	0			0	0			1				0	
6.6.1	win	2023-06-01	23:20:39	23:30:28	586569	633c74ad6178784ed5b52104	4	1	main_slash	11	advance_on_keypress_SLASH	100	stimuli_target_diamondsquares.svg	stimuli_distractor_trianglediamonds.svg	20	yes	57	0	298	0	0			0	0			1				0	
6.6.1	win	2023-06-01	23:20:39	23:30:30	587882	633c74ad6178784ed5b52104	4	1	main_slash	11	main_slash	101	stimuli_distractor_trianglediamonds.svg	stimuli_target_trianglerectangles.svg	25	yes	53	1	374	0	0			0	0			1				0	
6.6.1	win	2023-06-01	23:20:39	23:30:30	587882	633c74ad6178784ed5b52104	4	1	main_slash	11	advance_on_keypress_SLASH	102	stimuli_distractor_trianglediamonds.svg	stimuli_target_trianglerectangles.svg	25	yes	57	0	286	0	0			0	0			1				0	
6.6.1	win	2023-06-01	23:20:39	23:30:31	589138	633c74ad6178784ed5b52104	4	1	main_slash	11	main_slash	103	stimuli_target_rectanglediamonds.svg	stimuli_distractor_trianglediamonds.svg	2	yes	53	1	330	0	0			0	0			1				0	
6.6.1	win	2023-06-01	23:20:39	23:30:31	589138	633c74ad6178784ed5b52104	4	1	main_slash	11	advance_on_keypress_SLASH	104	stimuli_target_rectanglediamonds.svg	stimuli_distractor_trianglediamonds.svg	2	yes	57	0	271	0	0			0	0			1				0	
6.6.1	win	2023-06-01	23:20:39	23:30:32	590457	633c74ad6178784ed5b52104	4	1	main_slash	11	main_slash	105	stimuli_distractor_trianglediamonds.svg	stimuli_target_trianglesquares.svg	26	yes	53	1	395	0	0			0	0			1				0	
6.6.1	win	2023-06-01	23:20:39	23:30:32	590457	633c74ad6178784ed5b52104	4	1	main_slash	11	advance_on_keypress_SLASH	106	stimuli_distractor_trianglediamonds.svg	stimuli_target_trianglesquares.svg	26	yes	57	0	296	0	0			0	0			1				0	
6.6.1	win	2023-06-01	23:20:39	23:30:33	591718	633c74ad6178784ed5b52104	4	1	main_slash	11	main_slash	107	stimuli_distractor_trianglediamonds.svg	stimuli_target_squaretriangles.svg	11	yes	53	1	327	0	0			0	0			1				0	
6.6.1	win	2023-06-01	23:20:39	23:30:33	591718	633c74ad6178784ed5b52104	4	1	main_slash	11	advance_on_keypress_SLASH	108	stimuli_distractor_trianglediamonds.svg	stimuli_target_squaretriangles.svg	11	yes	57	0	295	0	0			0	0			1				0	
6.6.1	win	2023-06-01	23:20:39	23:30:35	592855	633c74ad6178784ed5b52104	4	1	main_slash	11	main_slash	109	stimuli_target_diamondsquares.svg	stimuli_distractor_diamondtriangles.svg	24	yes	53	1	214	0	0			0	0			1				0	
6.6.1	win	2023-06-01	23:20:39	23:30:35	592855	633c74ad6178784ed5b52104	4	1	main_slash	11	advance_on_keypress_SLASH	110	stimuli_target_diamondsquares.svg	stimuli_distractor_diamondtriangles.svg	24	yes	57	0	480	0	0			0	0			1				0	
6.6.1	win	2023-06-01	23:20:39	23:30:36	594333	633c74ad6178784ed5b52104	4	1	main_slash	11	main_slash	111	stimuli_distractor_trianglediamonds.svg	stimuli_target_squarediamonds.svg	12	yes	53	1	343	0	0			0	0			1				0	
6.6.1	win	2023-06-01	23:20:39	23:30:36	594333	633c74ad6178784ed5b52104	4	1	main_slash	11	advance_on_keypress_SLASH	112	stimuli_distractor_trianglediamonds.svg	stimuli_target_squarediamonds.svg	12	yes	57	0	911	0	0			0	0			1				0	
6.6.1	win	2023-06-01	23:20:39	23:30:38	596162	633c74ad6178784ed5b52104	4	1	main_slash	11	main_slash	113	stimuli_distractor_trianglediamonds.svg	stimuli_distractor_trianglediamonds.svg	34	no	53	0	288	0	0			0	0			1				0	
6.6.1	win	2023-06-01	23:20:39	23:30:38	596162	633c74ad6178784ed5b52104	4	1	main_slash	11	advance_on_keypress_SLASH	114	stimuli_distractor_trianglediamonds.svg	stimuli_distractor_trianglediamonds.svg	34	no	57	0	279	0	0			0	0			1				0	
6.6.1	win	2023-06-01	23:20:39	23:30:39	597409	633c74ad6178784ed5b52104	4	1	main_slash	11	main_slash	115	stimuli_distractor_diamondtriangles.svg	stimuli_target_diamondsquares.svg	32	yes	53	1	334	0	0			0	0			1				0	
6.6.1	win	2023-06-01	23:20:39	23:30:39	597409	633c74ad6178784ed5b52104	4	1	main_slash	11	advance_on_keypress_SLASH	116	stimuli_distractor_diamondtriangles.svg	stimuli_target_diamondsquares.svg	32	yes	57	0	325	0	0			0	0			1				0	
6.6.1	win	2023-06-01	23:20:39	23:30:40	598665	633c74ad6178784ed5b52104	4	1	main_slash	11	main_slash	117	stimuli_target_trianglesquares.svg	stimuli_distractor_trianglediamonds.svg	18	yes	53	1	291	0	0			0	0			1				0	
6.6.1	win	2023-06-01	23:20:39	23:30:40	598665	633c74ad6178784ed5b52104	4	1	main_slash	11	advance_on_keypress_SLASH	118	stimuli_target_trianglesquares.svg	stimuli_distractor_trianglediamonds.svg	18	yes	57	0	291	0	0			0	0			1				0	
6.6.1	win	2023-06-01	23:20:39	23:30:42	600007	633c74ad6178784ed5b52104	4	1	main_slash	11	main_slash	119	stimuli_target_rectanglediamonds.svg	stimuli_distractor_diamondtriangles.svg	6	yes	53	1	418	0	0			0	0			1				0	
6.6.1	win	2023-06-01	23:20:39	23:30:42	600007	633c74ad6178784ed5b52104	4	1	main_slash	11	advance_on_keypress_SLASH	120	stimuli_target_rectanglediamonds.svg	stimuli_distractor_diamondtriangles.svg	6	yes	57	0	301	0	0			0	0			1				0	
6.6.1	win	2023-06-01	23:20:39	23:30:43	601337	633c74ad6178784ed5b52104	4	1	main_slash	11	main_slash	121	stimuli_distractor_trianglediamonds.svg	stimuli_distractor_trianglediamonds.svg	33	no	53	0	381	0	0			0	0			1				0	
6.6.1	win	2023-06-01	23:20:39	23:30:43	601337	633c74ad6178784ed5b52104	4	1	main_slash	11	advance_on_keypress_SLASH	122	stimuli_distractor_trianglediamonds.svg	stimuli_distractor_trianglediamonds.svg	33	no	57	0	169	0	0			0	0			1				0	
6.6.1	win	2023-06-01	23:20:39	23:30:44	602444	633c74ad6178784ed5b52104	4	1	main_slash	11	main_slash	123	stimuli_distractor_trianglediamonds.svg	stimuli_target_rectangletriangles.svg	9	yes	53	1	287	0	0			0	0			1				0	
6.6.1	win	2023-06-01	23:20:39	23:30:44	602444	633c74ad6178784ed5b52104	4	1	main_slash	11	advance_on_keypress_SLASH	124	stimuli_distractor_trianglediamonds.svg	stimuli_target_rectangletriangles.svg	9	yes	57	0	392	0	0			0	0			1				0	
6.6.1	win	2023-06-01	23:20:39	23:30:46	603946	633c74ad6178784ed5b52104	4	1	main_slash	11	main_slash	125	stimuli_distractor_trianglediamonds.svg	stimuli_distractor_diamondtriangles.svg	36	no	53	0	469	0	0			0	0			1				0	
6.6.1	win	2023-06-01	23:20:39	23:30:46	603946	633c74ad6178784ed5b52104	4	1	main_slash	11	advance_on_keypress_SLASH	126	stimuli_distractor_trianglediamonds.svg	stimuli_distractor_diamondtriangles.svg	36	no	57	0	335	0	0			0	0			1				0	
6.6.1	win	2023-06-01	23:20:39	23:30:47	605273	633c74ad6178784ed5b52104	4	1	main_slash	11	main_slash	127	stimuli_distractor_diamondtriangles.svg	stimuli_target_squaretriangles.svg	15	yes	53	1	350	0	0			0	0			1				0	
6.6.1	win	2023-06-01	23:20:39	23:30:47	605273	633c74ad6178784ed5b52104	4	1	main_slash	11	advance_on_keypress_SLASH	128	stimuli_distractor_diamondtriangles.svg	stimuli_target_squaretriangles.svg	15	yes	57	0	209	0	0			0	0			1				0	
6.6.1	win	2023-06-01	23:20:39	23:30:49	607304	633c74ad6178784ed5b52104	4	1	main_slash	11	main_slash	129	stimuli_distractor_diamondtriangles.svg	stimuli_target_rectangletriangles.svg	13	yes	53	1	1181	0	0			0	0			1				0	
6.6.1	win	2023-06-01	23:20:39	23:30:49	607304	633c74ad6178784ed5b52104	4	1	main_slash	11	advance_on_keypress_SLASH	130	stimuli_distractor_diamondtriangles.svg	stimuli_target_rectangletriangles.svg	13	yes	57	0	536	0	0			0	0			1				0	
6.6.1	win	2023-06-01	23:20:39	23:30:51	608994	633c74ad6178784ed5b52104	4	1	main_slash	11	main_slash	131	stimuli_distractor_diamondtriangles.svg	stimuli_distractor_trianglediamonds.svg	38	no	53	0	501	0	0			0	0			1				0	
6.6.1	win	2023-06-01	23:20:39	23:30:51	608994	633c74ad6178784ed5b52104	4	1	main_slash	11	advance_on_keypress_SLASH	132	stimuli_distractor_diamondtriangles.svg	stimuli_distractor_trianglediamonds.svg	38	no	57	0	927	0	0			0	0			1				0	
6.6.1	win	2023-06-01	23:20:39	23:30:53	610969	633c74ad6178784ed5b52104	4	1	main_slash	11	main_slash	133	stimuli_target_rectangletriangles.svg	stimuli_distractor_diamondtriangles.svg	5	yes	53	1	413	0	0			0	0			1				0	
6.6.1	win	2023-06-01	23:20:39	23:30:53	610969	633c74ad6178784ed5b52104	4	1	main_slash	11	advance_on_keypress_SLASH	134	stimuli_target_rectangletriangles.svg	stimuli_distractor_diamondtriangles.svg	5	yes	57	0	258	0	0			0	0			1				0	
6.6.1	win	2023-06-01	23:20:39	23:30:54	612265	633c74ad6178784ed5b52104	4	1	main_slash	11	main_slash	135	stimuli_distractor_trianglediamonds.svg	stimuli_target_rectanglediamonds.svg	10	yes	53	1	392	0	0			0	0			1				0	
6.6.1	win	2023-06-01	23:20:39	23:30:54	612265	633c74ad6178784ed5b52104	4	1	main_slash	11	advance_on_keypress_SLASH	136	stimuli_distractor_trianglediamonds.svg	stimuli_target_rectanglediamonds.svg	10	yes	57	0	331	0	0			0	0			1				0	
6.6.1	win	2023-06-01	23:20:39	23:30:56	613764	633c74ad6178784ed5b52104	4	1	main_slash	11	main_slash	137	stimuli_target_trianglerectangles.svg	stimuli_distractor_trianglediamonds.svg	17	yes	53	1	526	0	0			0	0			1				0	
6.6.1	win	2023-06-01	23:20:39	23:30:56	613764	633c74ad6178784ed5b52104	4	1	main_slash	11	advance_on_keypress_SLASH	138	stimuli_target_trianglerectangles.svg	stimuli_distractor_trianglediamonds.svg	17	yes	57	0	300	0	0			0	0			1				0	
6.6.1	win	2023-06-01	23:20:39	23:30:57	615040	633c74ad6178784ed5b52104	4	1	main_slash	11	main_slash	139	stimuli_target_rectangletriangles.svg	stimuli_distractor_trianglediamonds.svg	1	yes	53	1	334	0	0			0	0			1				0	
6.6.1	win	2023-06-01	23:20:39	23:30:57	615040	633c74ad6178784ed5b52104	4	1	main_slash	11	advance_on_keypress_SLASH	140	stimuli_target_rectangletriangles.svg	stimuli_distractor_trianglediamonds.svg	1	yes	57	0	284	0	0			0	0			1				0	
6.6.1	win	2023-06-01	23:20:39	23:30:58	616357	633c74ad6178784ed5b52104	4	1	main_slash	11	main_slash	141	stimuli_distractor_diamondtriangles.svg	stimuli_target_rectanglediamonds.svg	14	yes	53	1	386	0	0			0	0			1				0	
6.6.1	win	2023-06-01	23:20:39	23:30:58	616357	633c74ad6178784ed5b52104	4	1	main_slash	11	advance_on_keypress_SLASH	142	stimuli_distractor_diamondtriangles.svg	stimuli_target_rectanglediamonds.svg	14	yes	57	0	289	0	0			0	0			1				0	
6.6.1	win	2023-06-01	23:20:39	23:30:59	617721	633c74ad6178784ed5b52104	4	1	main_slash	11	main_slash	143	stimuli_target_squarediamonds.svg	stimuli_distractor_diamondtriangles.svg	8	yes	53	1	432	0	0			0	0			1				0	
6.6.1	win	2023-06-01	23:20:39	23:30:59	617721	633c74ad6178784ed5b52104	4	1	main_slash	11	advance_on_keypress_SLASH	144	stimuli_target_squarediamonds.svg	stimuli_distractor_diamondtriangles.svg	8	yes	57	0	441	0	0			0	0			1				0	
6.6.1	win	2023-06-01	23:20:39	23:31:02	619820	633c74ad6178784ed5b52104	4	1	main_slash	11	main_slash	145	stimuli_target_trianglesquares.svg	stimuli_distractor_diamondtriangles.svg	22	yes	53	1	1014	0	0			0	0			1				0	
6.6.1	win	2023-06-01	23:20:39	23:31:02	619820	633c74ad6178784ed5b52104	4	1	main_slash	11	advance_on_keypress_SLASH	146	stimuli_target_trianglesquares.svg	stimuli_distractor_diamondtriangles.svg	22	yes	57	0	1055	0	0			0	0			1				0	
6.6.1	win	2023-06-01	23:20:39	23:31:05	623523	633c74ad6178784ed5b52104	4	1	main_slash	11	main_slash	147	stimuli_distractor_diamondtriangles.svg	stimuli_target_diamondrectangles.svg	31	yes	0	0	2000	0	0			0	0			1				0	
6.6.1	win	2023-06-01	23:20:39	23:31:05	623523	633c74ad6178784ed5b52104	4	1	main_slash	11	advance_on_keypress_SLASH	148	stimuli_distractor_diamondtriangles.svg	stimuli_target_diamondrectangles.svg	31	yes	57	0	414	0	0			0	0			1				0	
6.6.1	win	2023-06-01	23:20:39	23:31:08	626589	633c74ad6178784ed5b52104	4	1	main_slash	11	main_slash	149	stimuli_distractor_diamondtriangles.svg	stimuli_distractor_diamondtriangles.svg	40	no	0	1	2000	0	0			0	0			1				0	
6.6.1	win	2023-06-01	23:20:39	23:31:08	626589	633c74ad6178784ed5b52104	4	1	main_slash	11	advance_on_keypress_SLASH	150	stimuli_distractor_diamondtriangles.svg	stimuli_distractor_diamondtriangles.svg	40	no	57	0	336	0	0			0	0			1				0	
6.6.1	win	2023-06-01	23:20:39	23:31:10	628026	633c74ad6178784ed5b52104	4	1	main_slash	11	main_slash	151	stimuli_target_diamondrectangles.svg	stimuli_distractor_trianglediamonds.svg	19	yes	53	1	455	0	0			0	0			1				0	
6.6.1	win	2023-06-01	23:20:39	23:31:10	628026	633c74ad6178784ed5b52104	4	1	main_slash	11	advance_on_keypress_SLASH	152	stimuli_target_diamondrectangles.svg	stimuli_distractor_trianglediamonds.svg	19	yes	57	0	262	0	0			0	0			1				0	
6.6.1	win	2023-06-01	23:20:39	23:31:11	629339	633c74ad6178784ed5b52104	4	1	main_slash	11	main_slash	153	stimuli_target_trianglerectangles.svg	stimuli_distractor_diamondtriangles.svg	21	yes	53	1	417	0	0			0	0			1				0	
6.6.1	win	2023-06-01	23:20:39	23:31:11	629339	633c74ad6178784ed5b52104	4	1	main_slash	11	advance_on_keypress_SLASH	154	stimuli_target_trianglerectangles.svg	stimuli_distractor_diamondtriangles.svg	21	yes	57	0	292	0	0			0	0			1				0	
6.6.1	win	2023-06-01	23:20:39	23:31:13	630778	633c74ad6178784ed5b52104	4	1	main_slash	11	main_slash	155	stimuli_target_squaretriangles.svg	stimuli_distractor_trianglediamonds.svg	3	yes	53	1	506	0	0			0	0			1				0	
6.6.1	win	2023-06-01	23:20:39	23:31:13	630778	633c74ad6178784ed5b52104	4	1	main_slash	11	advance_on_keypress_SLASH	156	stimuli_target_squaretriangles.svg	stimuli_distractor_trianglediamonds.svg	3	yes	57	0	1092	0	0			0	0			1				0	
6.6.1	win	2023-06-01	23:20:39	23:31:15	632931	633c74ad6178784ed5b52104	4	1	main_slash	11	main_slash	157	stimuli_distractor_trianglediamonds.svg	stimuli_target_diamondsquares.svg	28	yes	53	1	426	0	0			0	0			1				0	
6.6.1	win	2023-06-01	23:20:39	23:31:15	632931	633c74ad6178784ed5b52104	4	1	main_slash	11	advance_on_keypress_SLASH	158	stimuli_distractor_trianglediamonds.svg	stimuli_target_diamondsquares.svg	28	yes	57	0	340	0	0			0	0			1				0	
6.6.1	win	2023-06-01	23:20:39	23:31:16	634284	633c74ad6178784ed5b52104	4	1	main_slash	11	main_slash	159	stimuli_target_squarediamonds.svg	stimuli_distractor_trianglediamonds.svg	4	yes	53	1	378	0	0			0	0			1				0	
6.6.1	win	2023-06-01	23:20:39	23:31:16	634284	633c74ad6178784ed5b52104	4	1	main_slash	11	advance_on_keypress_SLASH	160	stimuli_target_squarediamonds.svg	stimuli_distractor_trianglediamonds.svg	4	yes	57	0	324	0	0			0	0			1				0	
6.6.1	win	2023-06-01	23:20:39	23:31:16	634284	633c74ad6178784ed5b52104	4	1	headphonecheck_calibration	14	headphonecheck_calibrationIntro	1	stimuli_target_squarediamonds.svg	stimuli_distractor_trianglediamonds.svg	4	yes	calibrationButton	0	1918	0	0			0	0			1				0	
6.6.1	win	2023-06-01	23:20:39	23:31:16	634284	633c74ad6178784ed5b52104	4	1	headphonecheck_testphase	15	test_collectResponse	3	stimuli_target_squarediamonds.svg	stimuli_distractor_trianglediamonds.svg	4	yes	first	0	18229	1	6	antiphase_hc_ois.wav	3	0	0			1				0	
6.6.1	win	2023-06-01	23:20:39	23:31:16	634284	633c74ad6178784ed5b52104	4	1	headphonecheck_testphase	15	test_collectResponse	6	stimuli_target_squarediamonds.svg	stimuli_distractor_trianglediamonds.svg	4	yes	second	0	3375	2	3	antiphase_hc_soi.wav	1	0	0			1				0	
6.6.1	win	2023-06-01	23:20:39	23:31:16	634284	633c74ad6178784ed5b52104	4	1	headphonecheck_testphase	15	test_collectResponse	9	stimuli_target_squarediamonds.svg	stimuli_distractor_trianglediamonds.svg	4	yes	third	0	1251	3	5	antiphase_hc_osi.wav	2	0	0			1				0	
6.6.1	win	2023-06-01	23:20:39	23:31:16	634284	633c74ad6178784ed5b52104	4	1	headphonecheck_testphase	15	test_collectResponse	12	stimuli_target_squarediamonds.svg	stimuli_distractor_trianglediamonds.svg	4	yes	first	0	1069	4	1	antiphase_hc_iso.wav	2	0	0			1				0	
6.6.1	win	2023-06-01	23:20:39	23:31:16	634284	633c74ad6178784ed5b52104	4	1	headphonecheck_testphase	15	test_collectResponse	15	stimuli_target_squarediamonds.svg	stimuli_distractor_trianglediamonds.svg	4	yes	second	0	3460	5	2	antiphase_hc_ios.wav	3	0	0			1				0	
6.6.1	win	2023-06-01	23:20:39	23:31:16	634284	633c74ad6178784ed5b52104	4	1	headphonecheck_testphase	15	test_collectResponse	18	stimuli_target_squarediamonds.svg	stimuli_distractor_trianglediamonds.svg	4	yes	third	0	1000	6	4	antiphase_hc_sio.wav	1	0	0			1				0	
6.6.1	win	2023-06-01	23:20:39	23:31:16	634284	633c74ad6178784ed5b52104	4	1	stereocheck_calibration	17	stereocheck_calibrationIntro	1	stimuli_target_squarediamonds.svg	stimuli_distractor_trianglediamonds.svg	4	yes	stereocheck_calibrationButton	0	4166	6	4	antiphase_hc_sio.wav	1	0	0			1				0	
6.6.1	win	2023-06-01	23:20:39	23:31:16	634284	633c74ad6178784ed5b52104	4	1	stereocheck_testphase	18	stereocheck_test_collectResponse	3	stimuli_target_squarediamonds.svg	stimuli_distractor_trianglediamonds.svg	4	yes	stereocheck_left	0	777	6	4	antiphase_hc_sio.wav	1	1	5	noise_calib_stim_RIGHT.wav	2	1				0	
6.6.1	win	2023-06-01	23:20:39	23:31:16	634284	633c74ad6178784ed5b52104	4	1	stereocheck_testphase	18	stereocheck_test_collectResponse	6	stimuli_target_squarediamonds.svg	stimuli_distractor_trianglediamonds.svg	4	yes	stereocheck_left	0	485	6	4	antiphase_hc_sio.wav	1	2	4	noise_calib_stim_RIGHT.wav	2	1				0	
6.6.1	win	2023-06-01	23:20:39	23:31:16	634284	633c74ad6178784ed5b52104	4	1	stereocheck_testphase	18	stereocheck_test_collectResponse	9	stimuli_target_squarediamonds.svg	stimuli_distractor_trianglediamonds.svg	4	yes	stereocheck_right	0	600	6	4	antiphase_hc_sio.wav	1	3	1	noise_calib_stim_LEFT.wav	1	1				0	
6.6.1	win	2023-06-01	23:20:39	23:31:16	634284	633c74ad6178784ed5b52104	4	1	stereocheck_testphase	18	stereocheck_test_collectResponse	12	stimuli_target_squarediamonds.svg	stimuli_distractor_trianglediamonds.svg	4	yes	stereocheck_right	0	511	6	4	antiphase_hc_sio.wav	1	4	2	noise_calib_stim_LEFT.wav	1	1				0	
6.6.1	win	2023-06-01	23:20:39	23:31:16	634284	633c74ad6178784ed5b52104	4	1	stereocheck_testphase	18	stereocheck_test_collectResponse	15	stimuli_target_squarediamonds.svg	stimuli_distractor_trianglediamonds.svg	4	yes	stereocheck_right	0	466	6	4	antiphase_hc_sio.wav	1	5	3	noise_calib_stim_LEFT.wav	1	1				0	
6.6.1	win	2023-06-01	23:20:39	23:31:16	634284	633c74ad6178784ed5b52104	4	1	stereocheck_testphase	18	stereocheck_test_collectResponse	18	stimuli_target_squarediamonds.svg	stimuli_distractor_trianglediamonds.svg	4	yes	stereocheck_left	0	441	6	4	antiphase_hc_sio.wav	1	6	6	noise_calib_stim_RIGHT.wav	2	1				0	
6.6.1	win	2023-06-01	23:20:39	23:31:16	634284	633c74ad6178784ed5b52104	4	1	DL_practice	21	DL_practice	2	stimuli_target_squarediamonds.svg	stimuli_distractor_trianglediamonds.svg	4	yes	ta	1	1477	6	4	antiphase_hc_sio.wav	1	6	6	noise_calib_stim_RIGHT.wav	2	36	blb_dichoticlistening_ta-ta.mp3	ta	ta	0	left
6.6.1	win	2023-06-01	23:20:39	23:31:16	634284	633c74ad6178784ed5b52104	4	1	DL_practice	21	DL_practice	3	stimuli_target_squarediamonds.svg	stimuli_distractor_trianglediamonds.svg	4	yes	ta	0	1797	6	4	antiphase_hc_sio.wav	1	6	6	noise_calib_stim_RIGHT.wav	2	23	blb_dichoticlistening_ka-pa.mp3	ka	pa	1	other
6.6.1	win	2023-06-01	23:20:39	23:31:16	634284	633c74ad6178784ed5b52104	4	1	DL_practice	21	DL_practice	4	stimuli_target_squarediamonds.svg	stimuli_distractor_trianglediamonds.svg	4	yes	da	1	975	6	4	antiphase_hc_sio.wav	1	6	6	noise_calib_stim_RIGHT.wav	2	7	blb_dichoticlistening_da-ba.mp3	da	ba	1	left
6.6.1	win	2023-06-01	23:20:39	23:31:16	634284	633c74ad6178784ed5b52104	4	1	DL_practice	21	DL_practice	5	stimuli_target_squarediamonds.svg	stimuli_distractor_trianglediamonds.svg	4	yes	pa	1	1245	6	4	antiphase_hc_sio.wav	1	6	6	noise_calib_stim_RIGHT.wav	2	29	blb_dichoticlistening_pa-pa.mp3	pa	pa	0	left
6.6.1	win	2023-06-01	23:20:39	23:31:16	634284	633c74ad6178784ed5b52104	4	1	DL_practice	21	DL_practice	6	stimuli_target_squarediamonds.svg	stimuli_distractor_trianglediamonds.svg	4	yes	da	0	1557	6	4	antiphase_hc_sio.wav	1	6	6	noise_calib_stim_RIGHT.wav	2	18	blb_dichoticlistening_ga-ta.mp3	ga	ta	1	other
6.6.1	win	2023-06-01	23:20:39	23:31:16	634284	633c74ad6178784ed5b52104	4	1	DL_practice	21	DL_practice	7	stimuli_target_squarediamonds.svg	stimuli_distractor_trianglediamonds.svg	4	yes	da	1	852	6	4	antiphase_hc_sio.wav	1	6	6	noise_calib_stim_RIGHT.wav	2	8	blb_dichoticlistening_da-da.mp3	da	da	0	left
6.6.1	win	2023-06-01	23:20:39	23:31:16	634284	633c74ad6178784ed5b52104	4	1	DL_practice	21	DL_practice	8	stimuli_target_squarediamonds.svg	stimuli_distractor_trianglediamonds.svg	4	yes	ga	1	920	6	4	antiphase_hc_sio.wav	1	6	6	noise_calib_stim_RIGHT.wav	2	15	blb_dichoticlistening_ga-ga.mp3	ga	ga	0	left
6.6.1	win	2023-06-01	23:20:39	23:31:16	634284	633c74ad6178784ed5b52104	4	1	DL_practice	21	DL_practice	9	stimuli_target_squarediamonds.svg	stimuli_distractor_trianglediamonds.svg	4	yes	ka	1	1204	6	4	antiphase_hc_sio.wav	1	6	6	noise_calib_stim_RIGHT.wav	2	22	blb_dichoticlistening_ka-ka.mp3	ka	ka	0	left
6.6.1	win	2023-06-01	23:20:39	23:31:16	634284	633c74ad6178784ed5b52104	4	1	DL_practice	21	DL_practice	10	stimuli_target_squarediamonds.svg	stimuli_distractor_trianglediamonds.svg	4	yes	ba	1	1756	6	4	antiphase_hc_sio.wav	1	6	6	noise_calib_stim_RIGHT.wav	2	1	blb_dichoticlistening_ba-ba.mp3	ba	ba	0	left
6.6.1	win	2023-06-01	23:20:39	23:31:16	634284	633c74ad6178784ed5b52104	4	1	DL_test	23	DL_test	1	stimuli_target_squarediamonds.svg	stimuli_distractor_trianglediamonds.svg	4	yes	pa	0	2787	6	4	antiphase_hc_sio.wav	1	6	6	noise_calib_stim_RIGHT.wav	2	6	blb_dichoticlistening_ba-ta.mp3	ba	ta	1	other
6.6.1	win	2023-06-01	23:20:39	23:31:16	634284	633c74ad6178784ed5b52104	4	1	DL_test	23	DL_test	2	stimuli_target_squarediamonds.svg	stimuli_distractor_trianglediamonds.svg	4	yes	pa	0	1047	6	4	antiphase_hc_sio.wav	1	6	6	noise_calib_stim_RIGHT.wav	2	19	blb_dichoticlistening_ka-ba.mp3	ka	ba	1	other
6.6.1	win	2023-06-01	23:20:39	23:31:16	634284	633c74ad6178784ed5b52104	4	1	DL_test	23	DL_test	3	stimuli_target_squarediamonds.svg	stimuli_distractor_trianglediamonds.svg	4	yes	pa	1	920	6	4	antiphase_hc_sio.wav	1	6	6	noise_calib_stim_RIGHT.wav	2	30	blb_dichoticlistening_pa-ta.mp3	pa	ta	1	left
6.6.1	win	2023-06-01	23:20:39	23:31:16	634284	633c74ad6178784ed5b52104	4	1	DL_test	23	DL_test	4	stimuli_target_squarediamonds.svg	stimuli_distractor_trianglediamonds.svg	4	yes	pa	1	1142	6	4	antiphase_hc_sio.wav	1	6	6	noise_calib_stim_RIGHT.wav	2	25	blb_dichoticlistening_pa-ba.mp3	pa	ba	1	left
6.6.1	win	2023-06-01	23:20:39	23:31:16	634284	633c74ad6178784ed5b52104	4	1	DL_test	23	DL_test	5	stimuli_target_squarediamonds.svg	stimuli_distractor_trianglediamonds.svg	4	yes	ta	1	1017	6	4	antiphase_hc_sio.wav	1	6	6	noise_calib_stim_RIGHT.wav	2	35	blb_dichoticlistening_ta-pa.mp3	ta	pa	1	left
6.6.1	win	2023-06-01	23:20:39	23:31:16	634284	633c74ad6178784ed5b52104	4	1	DL_test	23	DL_test	6	stimuli_target_squarediamonds.svg	stimuli_distractor_trianglediamonds.svg	4	yes	pa	1	912	6	4	antiphase_hc_sio.wav	1	6	6	noise_calib_stim_RIGHT.wav	2	29	blb_dichoticlistening_pa-pa.mp3	pa	pa	0	left
6.6.1	win	2023-06-01	23:20:39	23:31:16	634284	633c74ad6178784ed5b52104	4	1	DL_test	23	DL_test	7	stimuli_target_squarediamonds.svg	stimuli_distractor_trianglediamonds.svg	4	yes	pa	1	2384	6	4	antiphase_hc_sio.wav	1	6	6	noise_calib_stim_RIGHT.wav	2	28	blb_dichoticlistening_pa-ka.mp3	pa	ka	1	left
6.6.1	win	2023-06-01	23:20:39	23:31:16	634284	633c74ad6178784ed5b52104	4	1	DL_test	23	DL_test	8	stimuli_target_squarediamonds.svg	stimuli_distractor_trianglediamonds.svg	4	yes	ka	1	4001	6	4	antiphase_hc_sio.wav	1	6	6	noise_calib_stim_RIGHT.wav	2	16	blb_dichoticlistening_ga-ka.mp3	ga	ka	1	right
6.6.1	win	2023-06-01	23:20:39	23:31:16	634284	633c74ad6178784ed5b52104	4	1	DL_test	23	DL_test	9	stimuli_target_squarediamonds.svg	stimuli_distractor_trianglediamonds.svg	4	yes	ga	1	877	6	4	antiphase_hc_sio.wav	1	6	6	noise_calib_stim_RIGHT.wav	2	15	blb_dichoticlistening_ga-ga.mp3	ga	ga	0	left
6.6.1	win	2023-06-01	23:20:39	23:31:16	634284	633c74ad6178784ed5b52104	4	1	DL_test	23	DL_test	10	stimuli_target_squarediamonds.svg	stimuli_distractor_trianglediamonds.svg	4	yes	pa	1	1144	6	4	antiphase_hc_sio.wav	1	6	6	noise_calib_stim_RIGHT.wav	2	27	blb_dichoticlistening_pa-ga.mp3	pa	ga	1	left
6.6.1	win	2023-06-01	23:20:39	23:31:16	634284	633c74ad6178784ed5b52104	4	1	DL_test	23	DL_test	11	stimuli_target_squarediamonds.svg	stimuli_distractor_trianglediamonds.svg	4	yes	ta	1	1201	6	4	antiphase_hc_sio.wav	1	6	6	noise_calib_stim_RIGHT.wav	2	33	blb_dichoticlistening_ta-ga.mp3	ta	ga	1	left
6.6.1	win	2023-06-01	23:20:39	23:31:16	634284	633c74ad6178784ed5b52104	4	1	DL_test	23	DL_test	12	stimuli_target_squarediamonds.svg	stimuli_distractor_trianglediamonds.svg	4	yes	ta	1	953	6	4	antiphase_hc_sio.wav	1	6	6	noise_calib_stim_RIGHT.wav	2	31	blb_dichoticlistening_ta-ba.mp3	ta	ba	1	left
6.6.1	win	2023-06-01	23:20:39	23:31:16	634284	633c74ad6178784ed5b52104	4	1	DL_test	23	DL_test	13	stimuli_target_squarediamonds.svg	stimuli_distractor_trianglediamonds.svg	4	yes	da	1	1012	6	4	antiphase_hc_sio.wav	1	6	6	noise_calib_stim_RIGHT.wav	2	14	blb_dichoticlistening_ga-da.mp3	ga	da	1	right
6.6.1	win	2023-06-01	23:20:39	23:31:16	634284	633c74ad6178784ed5b52104	4	1	DL_test	23	DL_test	14	stimuli_target_squarediamonds.svg	stimuli_distractor_trianglediamonds.svg	4	yes	da	0	1420	6	4	antiphase_hc_sio.wav	1	6	6	noise_calib_stim_RIGHT.wav	2	18	blb_dichoticlistening_ga-ta.mp3	ga	ta	1	other
6.6.1	win	2023-06-01	23:20:39	23:31:16	634284	633c74ad6178784ed5b52104	4	1	DL_test	23	DL_test	15	stimuli_target_squarediamonds.svg	stimuli_distractor_trianglediamonds.svg	4	yes	da	1	722	6	4	antiphase_hc_sio.wav	1	6	6	noise_calib_stim_RIGHT.wav	2	7	blb_dichoticlistening_da-ba.mp3	da	ba	1	left
6.6.1	win	2023-06-01	23:20:39	23:31:16	634284	633c74ad6178784ed5b52104	4	1	DL_test	23	DL_test	16	stimuli_target_squarediamonds.svg	stimuli_distractor_trianglediamonds.svg	4	yes	ta	1	1046	6	4	antiphase_hc_sio.wav	1	6	6	noise_calib_stim_RIGHT.wav	2	34	blb_dichoticlistening_ta-ka.mp3	ta	ka	1	left
6.6.1	win	2023-06-01	23:20:39	23:31:16	634284	633c74ad6178784ed5b52104	4	1	DL_test	23	DL_test	17	stimuli_target_squarediamonds.svg	stimuli_distractor_trianglediamonds.svg	4	yes	da	1	799	6	4	antiphase_hc_sio.wav	1	6	6	noise_calib_stim_RIGHT.wav	2	2	blb_dichoticlistening_ba-da.mp3	ba	da	1	right
6.6.1	win	2023-06-01	23:20:39	23:31:16	634284	633c74ad6178784ed5b52104	4	1	DL_test	23	DL_test	18	stimuli_target_squarediamonds.svg	stimuli_distractor_trianglediamonds.svg	4	yes	pa	1	1242	6	4	antiphase_hc_sio.wav	1	6	6	noise_calib_stim_RIGHT.wav	2	26	blb_dichoticlistening_pa-da.mp3	pa	da	1	left
6.6.1	win	2023-06-01	23:20:39	23:31:16	634284	633c74ad6178784ed5b52104	4	1	DL_test	23	DL_test	19	stimuli_target_squarediamonds.svg	stimuli_distractor_trianglediamonds.svg	4	yes	ta	1	2717	6	4	antiphase_hc_sio.wav	1	6	6	noise_calib_stim_RIGHT.wav	2	12	blb_dichoticlistening_da-ta.mp3	da	ta	1	right
6.6.1	win	2023-06-01	23:20:39	23:31:16	634284	633c74ad6178784ed5b52104	4	1	DL_test	23	DL_test	20	stimuli_target_squarediamonds.svg	stimuli_distractor_trianglediamonds.svg	4	yes	ba	1	2581	6	4	antiphase_hc_sio.wav	1	6	6	noise_calib_stim_RIGHT.wav	2	1	blb_dichoticlistening_ba-ba.mp3	ba	ba	0	left
6.6.1	win	2023-06-01	23:20:39	23:31:16	634284	633c74ad6178784ed5b52104	4	1	DL_test	23	DL_test	21	stimuli_target_squarediamonds.svg	stimuli_distractor_trianglediamonds.svg	4	yes	pa	1	978	6	4	antiphase_hc_sio.wav	1	6	6	noise_calib_stim_RIGHT.wav	2	5	blb_dichoticlistening_ba-pa.mp3	ba	pa	1	right
6.6.1	win	2023-06-01	23:20:39	23:31:16	634284	633c74ad6178784ed5b52104	4	1	DL_test	23	DL_test	22	stimuli_target_squarediamonds.svg	stimuli_distractor_trianglediamonds.svg	4	yes	ta	0	1392	6	4	antiphase_hc_sio.wav	1	6	6	noise_calib_stim_RIGHT.wav	2	23	blb_dichoticlistening_ka-pa.mp3	ka	pa	1	other
6.6.1	win	2023-06-01	23:20:39	23:31:16	634284	633c74ad6178784ed5b52104	4	1	DL_test	23	DL_test	23	stimuli_target_squarediamonds.svg	stimuli_distractor_trianglediamonds.svg	4	yes	ka	1	1803	6	4	antiphase_hc_sio.wav	1	6	6	noise_calib_stim_RIGHT.wav	2	22	blb_dichoticlistening_ka-ka.mp3	ka	ka	0	left
6.6.1	win	2023-06-01	23:20:39	23:31:16	634284	633c74ad6178784ed5b52104	4	1	DL_test	23	DL_test	24	stimuli_target_squarediamonds.svg	stimuli_distractor_trianglediamonds.svg	4	yes	da	0	1054	6	4	antiphase_hc_sio.wav	1	6	6	noise_calib_stim_RIGHT.wav	2	3	blb_dichoticlistening_ba-ga.mp3	ba	ga	1	other
6.6.1	win	2023-06-01	23:20:39	23:31:16	634284	633c74ad6178784ed5b52104	4	1	DL_test	23	DL_test	25	stimuli_target_squarediamonds.svg	stimuli_distractor_trianglediamonds.svg	4	yes	da	0	632	6	4	antiphase_hc_sio.wav	1	6	6	noise_calib_stim_RIGHT.wav	2	13	blb_dichoticlistening_ga-ba.mp3	ga	ba	1	other
6.6.1	win	2023-06-01	23:20:39	23:31:16	634284	633c74ad6178784ed5b52104	4	1	DL_test	23	DL_test	26	stimuli_target_squarediamonds.svg	stimuli_distractor_trianglediamonds.svg	4	yes	ta	1	1039	6	4	antiphase_hc_sio.wav	1	6	6	noise_calib_stim_RIGHT.wav	2	36	blb_dichoticlistening_ta-ta.mp3	ta	ta	0	left
