build	computer.platform	date	time	timestamp	time_elapsed_ms	subject	group	session	blockcode	blocknum	trialcode	trialnum	stimulus_left	stimulus_right	stim_index	target_present	response	correct	latency	headphonecheck_countTestTrials	headphonecheck_index	headphonecheck_testSound	headphonecheck_correctResponse	stereocheck_countTestTrials	stereocheck_index	stereocheck_testSound	stereocheck_correctResponse	DL_index	DL_soundfile	DL_leftSound	DL_rightSound	DL_dualSound	DL_choice
6.6.1	mac	2023-06-02	07:15:15	07:19:39	261850	5c3dfadfef1d0d0001b2870e	4	1	practice_z	5	practice_z	1	stimuli_distractor_trianglediamonds.svg	stimuli_target_squarediamonds.svg	11	yes	44	1	1084	0	0			0	0			1				0	
6.6.1	mac	2023-06-02	07:15:15	07:19:39	261850	5c3dfadfef1d0d0001b2870e	4	1	practice_z	5	advance_on_keypress_ZEE	2	stimuli_distractor_trianglediamonds.svg	stimuli_target_squarediamonds.svg	11	yes	57	0	1111	0	0			0	0			1				0	
6.6.1	mac	2023-06-02	07:15:15	07:19:42	265244	5c3dfadfef1d0d0001b2870e	4	1	practice_z	5	practice_z	3	stimuli_distractor_diamondtriangles.svg	stimuli_target_trianglerectangles.svg	9	yes	44	1	665	0	0			0	0			1				0	
6.6.1	mac	2023-06-02	07:15:15	07:19:42	265244	5c3dfadfef1d0d0001b2870e	4	1	practice_z	5	advance_on_keypress_ZEE	4	stimuli_distractor_diamondtriangles.svg	stimuli_target_trianglerectangles.svg	9	yes	57	0	1550	0	0			0	0			1				0	
6.6.1	mac	2023-06-02	07:15:15	07:19:46	268913	5c3dfadfef1d0d0001b2870e	4	1	practice_z	5	practice_z	5	stimuli_target_rectanglediamonds.svg	stimuli_distractor_diamondtriangles.svg	1	yes	44	1	486	0	0			0	0			1				0	
6.6.1	mac	2023-06-02	07:15:15	07:19:46	268913	5c3dfadfef1d0d0001b2870e	4	1	practice_z	5	advance_on_keypress_ZEE	6	stimuli_target_rectanglediamonds.svg	stimuli_distractor_diamondtriangles.svg	1	yes	57	0	663	0	0			0	0			1				0	
6.6.1	mac	2023-06-02	07:15:15	07:19:49	271603	5c3dfadfef1d0d0001b2870e	4	1	practice_z	5	practice_z	7	stimuli_target_rectanglediamonds.svg	stimuli_distractor_trianglediamonds.svg	4	yes	44	1	413	0	0			0	0			1				0	
6.6.1	mac	2023-06-02	07:15:15	07:19:49	271603	5c3dfadfef1d0d0001b2870e	4	1	practice_z	5	advance_on_keypress_ZEE	8	stimuli_target_rectanglediamonds.svg	stimuli_distractor_trianglediamonds.svg	4	yes	57	0	1915	0	0			0	0			1				0	
6.6.1	mac	2023-06-02	07:15:15	07:19:53	275412	5c3dfadfef1d0d0001b2870e	4	1	practice_z	5	practice_z	9	stimuli_distractor_diamondtriangles.svg	stimuli_distractor_trianglediamonds.svg	14	no	44	0	276	0	0			0	0			1				0	
6.6.1	mac	2023-06-02	07:15:15	07:19:53	275412	5c3dfadfef1d0d0001b2870e	4	1	practice_z	5	advance_on_keypress_ZEE	10	stimuli_distractor_diamondtriangles.svg	stimuli_distractor_trianglediamonds.svg	14	no	57	0	7388	0	0			0	0			1				0	
6.6.1	mac	2023-06-02	07:15:15	07:20:04	286419	5c3dfadfef1d0d0001b2870e	4	1	practice_z	5	practice_z	11	stimuli_distractor_trianglediamonds.svg	stimuli_distractor_trianglediamonds.svg	15	no	0	1	2000	0	0			0	0			1				0	
6.6.1	mac	2023-06-02	07:15:15	07:20:04	286419	5c3dfadfef1d0d0001b2870e	4	1	practice_z	5	advance_on_keypress_ZEE	12	stimuli_distractor_trianglediamonds.svg	stimuli_distractor_trianglediamonds.svg	15	no	57	0	1016	0	0			0	0			1				0	
6.6.1	mac	2023-06-02	07:15:15	07:20:08	291059	5c3dfadfef1d0d0001b2870e	4	1	practice_z	5	practice_z	13	stimuli_target_diamondsquares.svg	stimuli_distractor_trianglediamonds.svg	6	yes	0	0	2000	0	0			0	0			1				0	
6.6.1	mac	2023-06-02	07:15:15	07:20:08	291059	5c3dfadfef1d0d0001b2870e	4	1	practice_z	5	advance_on_keypress_ZEE	14	stimuli_target_diamondsquares.svg	stimuli_distractor_trianglediamonds.svg	6	yes	57	0	804	0	0			0	0			1				0	
6.6.1	mac	2023-06-02	07:15:15	07:20:11	294002	5c3dfadfef1d0d0001b2870e	4	1	practice_z	5	practice_z	15	stimuli_distractor_diamondtriangles.svg	stimuli_target_rectangletriangles.svg	7	yes	44	1	519	0	0			0	0			1				0	
6.6.1	mac	2023-06-02	07:15:15	07:20:11	294002	5c3dfadfef1d0d0001b2870e	4	1	practice_z	5	advance_on_keypress_ZEE	16	stimuli_distractor_diamondtriangles.svg	stimuli_target_rectangletriangles.svg	7	yes	57	0	1094	0	0			0	0			1				0	
6.6.1	mac	2023-06-02	07:15:15	07:20:16	298713	5c3dfadfef1d0d0001b2870e	4	1	practice_z	5	practice_z	17	stimuli_distractor_diamondtriangles.svg	stimuli_target_diamondrectangles.svg	8	yes	0	0	2000	0	0			0	0			1				0	
6.6.1	mac	2023-06-02	07:15:15	07:20:16	298713	5c3dfadfef1d0d0001b2870e	4	1	practice_z	5	advance_on_keypress_ZEE	18	stimuli_distractor_diamondtriangles.svg	stimuli_target_diamondrectangles.svg	8	yes	57	0	659	0	0			0	0			1				0	
6.6.1	mac	2023-06-02	07:15:15	07:20:19	301319	5c3dfadfef1d0d0001b2870e	4	1	practice_z	5	practice_z	19	stimuli_distractor_trianglediamonds.svg	stimuli_target_rectanglediamonds.svg	10	yes	44	1	327	0	0			0	0			1				0	
6.6.1	mac	2023-06-02	07:15:15	07:20:19	301319	5c3dfadfef1d0d0001b2870e	4	1	practice_z	5	advance_on_keypress_ZEE	20	stimuli_distractor_trianglediamonds.svg	stimuli_target_rectanglediamonds.svg	10	yes	57	0	664	0	0			0	0			1				0	
6.6.1	mac	2023-06-02	07:15:15	07:20:23	305607	5c3dfadfef1d0d0001b2870e	4	1	practice_z	5	practice_z	21	stimuli_distractor_diamondtriangles.svg	stimuli_distractor_diamondtriangles.svg	13	no	0	1	2000	0	0			0	0			1				0	
6.6.1	mac	2023-06-02	07:15:15	07:20:23	305607	5c3dfadfef1d0d0001b2870e	4	1	practice_z	5	advance_on_keypress_ZEE	22	stimuli_distractor_diamondtriangles.svg	stimuli_distractor_diamondtriangles.svg	13	no	57	0	521	0	0			0	0			1				0	
6.6.1	mac	2023-06-02	07:15:15	07:20:27	309763	5c3dfadfef1d0d0001b2870e	4	1	practice_z	5	practice_z	23	stimuli_distractor_trianglediamonds.svg	stimuli_distractor_diamondtriangles.svg	16	no	0	1	2000	0	0			0	0			1				0	
6.6.1	mac	2023-06-02	07:15:15	07:20:27	309763	5c3dfadfef1d0d0001b2870e	4	1	practice_z	5	advance_on_keypress_ZEE	24	stimuli_distractor_trianglediamonds.svg	stimuli_distractor_diamondtriangles.svg	16	no	57	0	716	0	0			0	0			1				0	
6.6.1	mac	2023-06-02	07:15:15	07:20:30	312630	5c3dfadfef1d0d0001b2870e	4	1	practice_z	5	practice_z	25	stimuli_target_squarediamonds.svg	stimuli_distractor_trianglediamonds.svg	5	yes	44	1	523	0	0			0	0			1				0	
6.6.1	mac	2023-06-02	07:15:15	07:20:30	312630	5c3dfadfef1d0d0001b2870e	4	1	practice_z	5	advance_on_keypress_ZEE	26	stimuli_target_squarediamonds.svg	stimuli_distractor_trianglediamonds.svg	5	yes	57	0	776	0	0			0	0			1				0	
6.6.1	mac	2023-06-02	07:15:15	07:20:34	317039	5c3dfadfef1d0d0001b2870e	4	1	practice_z	5	practice_z	27	stimuli_target_diamondsquares.svg	stimuli_distractor_diamondtriangles.svg	3	yes	0	0	2000	0	0			0	0			1				0	
6.6.1	mac	2023-06-02	07:15:15	07:20:34	317039	5c3dfadfef1d0d0001b2870e	4	1	practice_z	5	advance_on_keypress_ZEE	28	stimuli_target_diamondsquares.svg	stimuli_distractor_diamondtriangles.svg	3	yes	57	0	695	0	0			0	0			1				0	
6.6.1	mac	2023-06-02	07:15:15	07:20:39	321362	5c3dfadfef1d0d0001b2870e	4	1	practice_z	5	practice_z	29	stimuli_distractor_trianglediamonds.svg	stimuli_target_diamondrectangles.svg	12	yes	0	0	2000	0	0			0	0			1				0	
6.6.1	mac	2023-06-02	07:15:15	07:20:39	321362	5c3dfadfef1d0d0001b2870e	4	1	practice_z	5	advance_on_keypress_ZEE	30	stimuli_distractor_trianglediamonds.svg	stimuli_target_diamondrectangles.svg	12	yes	57	0	620	0	0			0	0			1				0	
6.6.1	mac	2023-06-02	07:15:15	07:20:41	324119	5c3dfadfef1d0d0001b2870e	4	1	practice_z	5	practice_z	31	stimuli_target_squarediamonds.svg	stimuli_distractor_diamondtriangles.svg	2	yes	44	1	520	0	0			0	0			1				0	
6.6.1	mac	2023-06-02	07:15:15	07:20:41	324119	5c3dfadfef1d0d0001b2870e	4	1	practice_z	5	advance_on_keypress_ZEE	32	stimuli_target_squarediamonds.svg	stimuli_distractor_diamondtriangles.svg	2	yes	57	0	849	0	0			0	0			1				0	
6.6.1	mac	2023-06-02	07:15:15	07:21:05	347602	5c3dfadfef1d0d0001b2870e	4	1	main_z	7	main_z	1	stimuli_distractor_trianglediamonds.svg	stimuli_distractor_trianglediamonds.svg	33	no	0	1	2000	0	0			0	0			1				0	
6.6.1	mac	2023-06-02	07:15:15	07:21:05	347602	5c3dfadfef1d0d0001b2870e	4	1	main_z	7	advance_on_keypress_ZEE	2	stimuli_distractor_trianglediamonds.svg	stimuli_distractor_trianglediamonds.svg	33	no	57	0	1531	0	0			0	0			1				0	
6.6.1	mac	2023-06-02	07:15:15	07:21:08	350694	5c3dfadfef1d0d0001b2870e	4	1	main_z	7	main_z	3	stimuli_distractor_diamondtriangles.svg	stimuli_target_diamondrectangles.svg	31	yes	44	1	920	0	0			0	0			1				0	
6.6.1	mac	2023-06-02	07:15:15	07:21:08	350694	5c3dfadfef1d0d0001b2870e	4	1	main_z	7	advance_on_keypress_ZEE	4	stimuli_distractor_diamondtriangles.svg	stimuli_target_diamondrectangles.svg	31	yes	57	0	894	0	0			0	0			1				0	
6.6.1	mac	2023-06-02	07:15:15	07:21:10	352511	5c3dfadfef1d0d0001b2870e	4	1	main_z	7	main_z	5	stimuli_distractor_diamondtriangles.svg	stimuli_target_rectanglediamonds.svg	14	yes	44	1	298	0	0			0	0			1				0	
6.6.1	mac	2023-06-02	07:15:15	07:21:10	352511	5c3dfadfef1d0d0001b2870e	4	1	main_z	7	advance_on_keypress_ZEE	6	stimuli_distractor_diamondtriangles.svg	stimuli_target_rectanglediamonds.svg	14	yes	57	0	939	0	0			0	0			1				0	
6.6.1	mac	2023-06-02	07:15:15	07:21:12	354579	5c3dfadfef1d0d0001b2870e	4	1	main_z	7	main_z	7	stimuli_distractor_trianglediamonds.svg	stimuli_target_squaretriangles.svg	11	yes	44	1	495	0	0			0	0			1				0	
6.6.1	mac	2023-06-02	07:15:15	07:21:12	354579	5c3dfadfef1d0d0001b2870e	4	1	main_z	7	advance_on_keypress_ZEE	8	stimuli_distractor_trianglediamonds.svg	stimuli_target_squaretriangles.svg	11	yes	57	0	904	0	0			0	0			1				0	
6.6.1	mac	2023-06-02	07:15:15	07:21:15	358101	5c3dfadfef1d0d0001b2870e	4	1	main_z	7	main_z	9	stimuli_distractor_diamondtriangles.svg	stimuli_distractor_diamondtriangles.svg	40	no	0	1	2000	0	0			0	0			1				0	
6.6.1	mac	2023-06-02	07:15:15	07:21:15	358101	5c3dfadfef1d0d0001b2870e	4	1	main_z	7	advance_on_keypress_ZEE	10	stimuli_distractor_diamondtriangles.svg	stimuli_distractor_diamondtriangles.svg	40	no	57	0	633	0	0			0	0			1				0	
6.6.1	mac	2023-06-02	07:15:15	07:21:17	359851	5c3dfadfef1d0d0001b2870e	4	1	main_z	7	main_z	11	stimuli_distractor_diamondtriangles.svg	stimuli_target_squarediamonds.svg	16	yes	44	1	478	0	0			0	0			1				0	
6.6.1	mac	2023-06-02	07:15:15	07:21:17	359851	5c3dfadfef1d0d0001b2870e	4	1	main_z	7	advance_on_keypress_ZEE	12	stimuli_distractor_diamondtriangles.svg	stimuli_target_squarediamonds.svg	16	yes	57	0	1120	0	0			0	0			1				0	
6.6.1	mac	2023-06-02	07:15:15	07:21:19	362160	5c3dfadfef1d0d0001b2870e	4	1	main_z	7	main_z	13	stimuli_target_diamondsquares.svg	stimuli_distractor_trianglediamonds.svg	20	yes	44	1	568	0	0			0	0			1				0	
6.6.1	mac	2023-06-02	07:15:15	07:21:19	362160	5c3dfadfef1d0d0001b2870e	4	1	main_z	7	advance_on_keypress_ZEE	14	stimuli_target_diamondsquares.svg	stimuli_distractor_trianglediamonds.svg	20	yes	57	0	1067	0	0			0	0			1				0	
6.6.1	mac	2023-06-02	07:15:15	07:21:21	364173	5c3dfadfef1d0d0001b2870e	4	1	main_z	7	main_z	15	stimuli_target_rectanglediamonds.svg	stimuli_distractor_diamondtriangles.svg	6	yes	44	1	309	0	0			0	0			1				0	
6.6.1	mac	2023-06-02	07:15:15	07:21:21	364173	5c3dfadfef1d0d0001b2870e	4	1	main_z	7	advance_on_keypress_ZEE	16	stimuli_target_rectanglediamonds.svg	stimuli_distractor_diamondtriangles.svg	6	yes	57	0	986	0	0			0	0			1				0	
6.6.1	mac	2023-06-02	07:15:15	07:21:23	366142	5c3dfadfef1d0d0001b2870e	4	1	main_z	7	main_z	17	stimuli_target_rectanglediamonds.svg	stimuli_distractor_trianglediamonds.svg	2	yes	44	1	360	0	0			0	0			1				0	
6.6.1	mac	2023-06-02	07:15:15	07:21:23	366142	5c3dfadfef1d0d0001b2870e	4	1	main_z	7	advance_on_keypress_ZEE	18	stimuli_target_rectanglediamonds.svg	stimuli_distractor_trianglediamonds.svg	2	yes	57	0	779	0	0			0	0			1				0	
6.6.1	mac	2023-06-02	07:15:15	07:21:25	367806	5c3dfadfef1d0d0001b2870e	4	1	main_z	7	main_z	19	stimuli_distractor_trianglediamonds.svg	stimuli_target_rectangletriangles.svg	9	yes	44	1	274	0	0			0	0			1				0	
6.6.1	mac	2023-06-02	07:15:15	07:21:25	367806	5c3dfadfef1d0d0001b2870e	4	1	main_z	7	advance_on_keypress_ZEE	20	stimuli_distractor_trianglediamonds.svg	stimuli_target_rectangletriangles.svg	9	yes	57	0	944	0	0			0	0			1				0	
6.6.1	mac	2023-06-02	07:15:15	07:21:29	371381	5c3dfadfef1d0d0001b2870e	4	1	main_z	7	main_z	21	stimuli_target_diamondsquares.svg	stimuli_distractor_diamondtriangles.svg	24	yes	0	0	2000	0	0			0	0			1				0	
6.6.1	mac	2023-06-02	07:15:15	07:21:29	371381	5c3dfadfef1d0d0001b2870e	4	1	main_z	7	advance_on_keypress_ZEE	22	stimuli_target_diamondsquares.svg	stimuli_distractor_diamondtriangles.svg	24	yes	57	0	1085	0	0			0	0			1				0	
6.6.1	mac	2023-06-02	07:15:15	07:21:31	373753	5c3dfadfef1d0d0001b2870e	4	1	main_z	7	main_z	23	stimuli_target_squarediamonds.svg	stimuli_distractor_trianglediamonds.svg	4	yes	44	1	650	0	0			0	0			1				0	
6.6.1	mac	2023-06-02	07:15:15	07:21:31	373753	5c3dfadfef1d0d0001b2870e	4	1	main_z	7	advance_on_keypress_ZEE	24	stimuli_target_squarediamonds.svg	stimuli_distractor_trianglediamonds.svg	4	yes	57	0	744	0	0			0	0			1				0	
6.6.1	mac	2023-06-02	07:15:15	07:21:34	377123	5c3dfadfef1d0d0001b2870e	4	1	main_z	7	main_z	25	stimuli_target_trianglerectangles.svg	stimuli_distractor_trianglediamonds.svg	17	yes	0	0	2000	0	0			0	0			1				0	
6.6.1	mac	2023-06-02	07:15:15	07:21:34	377123	5c3dfadfef1d0d0001b2870e	4	1	main_z	7	advance_on_keypress_ZEE	26	stimuli_target_trianglerectangles.svg	stimuli_distractor_trianglediamonds.svg	17	yes	57	0	629	0	0			0	0			1				0	
6.6.1	mac	2023-06-02	07:15:15	07:21:38	380378	5c3dfadfef1d0d0001b2870e	4	1	main_z	7	main_z	27	stimuli_distractor_trianglediamonds.svg	stimuli_distractor_trianglediamonds.svg	34	no	0	1	2000	0	0			0	0			1				0	
6.6.1	mac	2023-06-02	07:15:15	07:21:38	380378	5c3dfadfef1d0d0001b2870e	4	1	main_z	7	advance_on_keypress_ZEE	28	stimuli_distractor_trianglediamonds.svg	stimuli_distractor_trianglediamonds.svg	34	no	57	0	682	0	0			0	0			1				0	
6.6.1	mac	2023-06-02	07:15:15	07:21:39	382134	5c3dfadfef1d0d0001b2870e	4	1	main_z	7	main_z	29	stimuli_target_rectangletriangles.svg	stimuli_distractor_diamondtriangles.svg	5	yes	44	1	448	0	0			0	0			1				0	
6.6.1	mac	2023-06-02	07:15:15	07:21:39	382134	5c3dfadfef1d0d0001b2870e	4	1	main_z	7	advance_on_keypress_ZEE	30	stimuli_target_rectangletriangles.svg	stimuli_distractor_diamondtriangles.svg	5	yes	57	0	777	0	0			0	0			1				0	
6.6.1	mac	2023-06-02	07:15:15	07:21:43	385523	5c3dfadfef1d0d0001b2870e	4	1	main_z	7	main_z	31	stimuli_distractor_diamondtriangles.svg	stimuli_distractor_diamondtriangles.svg	39	no	0	1	2000	0	0			0	0			1				0	
6.6.1	mac	2023-06-02	07:15:15	07:21:43	385523	5c3dfadfef1d0d0001b2870e	4	1	main_z	7	advance_on_keypress_ZEE	32	stimuli_distractor_diamondtriangles.svg	stimuli_distractor_diamondtriangles.svg	39	no	57	0	587	0	0			0	0			1				0	
6.6.1	mac	2023-06-02	07:15:15	07:21:45	387337	5c3dfadfef1d0d0001b2870e	4	1	main_z	7	main_z	33	stimuli_target_trianglesquares.svg	stimuli_distractor_diamondtriangles.svg	22	yes	44	1	605	0	0			0	0			1				0	
6.6.1	mac	2023-06-02	07:15:15	07:21:45	387337	5c3dfadfef1d0d0001b2870e	4	1	main_z	7	advance_on_keypress_ZEE	34	stimuli_target_trianglesquares.svg	stimuli_distractor_diamondtriangles.svg	22	yes	57	0	1098	0	0			0	0			1				0	
6.6.1	mac	2023-06-02	07:15:15	07:21:47	389497	5c3dfadfef1d0d0001b2870e	4	1	main_z	7	main_z	35	stimuli_distractor_trianglediamonds.svg	stimuli_target_rectanglediamonds.svg	10	yes	44	1	431	0	0			0	0			1				0	
6.6.1	mac	2023-06-02	07:15:15	07:21:47	389497	5c3dfadfef1d0d0001b2870e	4	1	main_z	7	advance_on_keypress_ZEE	36	stimuli_distractor_trianglediamonds.svg	stimuli_target_rectanglediamonds.svg	10	yes	57	0	747	0	0			0	0			1				0	
6.6.1	mac	2023-06-02	07:15:15	07:21:50	392369	5c3dfadfef1d0d0001b2870e	4	1	main_z	7	main_z	37	stimuli_distractor_diamondtriangles.svg	stimuli_target_squaretriangles.svg	15	yes	44	1	1496	0	0			0	0			1				0	
6.6.1	mac	2023-06-02	07:15:15	07:21:50	392369	5c3dfadfef1d0d0001b2870e	4	1	main_z	7	advance_on_keypress_ZEE	38	stimuli_distractor_diamondtriangles.svg	stimuli_target_squaretriangles.svg	15	yes	57	0	747	0	0			0	0			1				0	
6.6.1	mac	2023-06-02	07:15:15	07:21:51	394222	5c3dfadfef1d0d0001b2870e	4	1	main_z	7	main_z	39	stimuli_target_squaretriangles.svg	stimuli_distractor_trianglediamonds.svg	3	yes	44	1	477	0	0			0	0			1				0	
6.6.1	mac	2023-06-02	07:15:15	07:21:51	394222	5c3dfadfef1d0d0001b2870e	4	1	main_z	7	advance_on_keypress_ZEE	40	stimuli_target_squaretriangles.svg	stimuli_distractor_trianglediamonds.svg	3	yes	57	0	784	0	0			0	0			1				0	
6.6.1	mac	2023-06-02	07:15:15	07:21:55	397629	5c3dfadfef1d0d0001b2870e	4	1	main_z	7	main_z	41	stimuli_distractor_diamondtriangles.svg	stimuli_distractor_trianglediamonds.svg	38	no	0	1	2000	0	0			0	0			1				0	
6.6.1	mac	2023-06-02	07:15:15	07:21:55	397629	5c3dfadfef1d0d0001b2870e	4	1	main_z	7	advance_on_keypress_ZEE	42	stimuli_distractor_diamondtriangles.svg	stimuli_distractor_trianglediamonds.svg	38	no	57	0	585	0	0			0	0			1				0	
6.6.1	mac	2023-06-02	07:15:15	07:21:57	399438	5c3dfadfef1d0d0001b2870e	4	1	main_z	7	main_z	43	stimuli_target_trianglerectangles.svg	stimuli_distractor_diamondtriangles.svg	21	yes	44	1	587	0	0			0	0			1				0	
6.6.1	mac	2023-06-02	07:15:15	07:21:57	399438	5c3dfadfef1d0d0001b2870e	4	1	main_z	7	advance_on_keypress_ZEE	44	stimuli_target_trianglerectangles.svg	stimuli_distractor_diamondtriangles.svg	21	yes	57	0	728	0	0			0	0			1				0	
6.6.1	mac	2023-06-02	07:15:15	07:21:58	401221	5c3dfadfef1d0d0001b2870e	4	1	main_z	7	main_z	45	stimuli_target_rectangletriangles.svg	stimuli_distractor_trianglediamonds.svg	1	yes	44	1	423	0	0			0	0			1				0	
6.6.1	mac	2023-06-02	07:15:15	07:21:58	401221	5c3dfadfef1d0d0001b2870e	4	1	main_z	7	advance_on_keypress_ZEE	46	stimuli_target_rectangletriangles.svg	stimuli_distractor_trianglediamonds.svg	1	yes	57	0	668	0	0			0	0			1				0	
6.6.1	mac	2023-06-02	07:15:15	07:22:02	404516	5c3dfadfef1d0d0001b2870e	4	1	main_z	7	main_z	47	stimuli_distractor_trianglediamonds.svg	stimuli_target_diamondrectangles.svg	27	yes	0	0	2000	0	0			0	0			1				0	
6.6.1	mac	2023-06-02	07:15:15	07:22:02	404516	5c3dfadfef1d0d0001b2870e	4	1	main_z	7	advance_on_keypress_ZEE	48	stimuli_distractor_trianglediamonds.svg	stimuli_target_diamondrectangles.svg	27	yes	57	0	787	0	0			0	0			1				0	
6.6.1	mac	2023-06-02	07:15:15	07:22:04	406622	5c3dfadfef1d0d0001b2870e	4	1	main_z	7	main_z	49	stimuli_distractor_trianglediamonds.svg	stimuli_target_trianglesquares.svg	26	yes	44	1	698	0	0			0	0			1				0	
6.6.1	mac	2023-06-02	07:15:15	07:22:04	406622	5c3dfadfef1d0d0001b2870e	4	1	main_z	7	advance_on_keypress_ZEE	50	stimuli_distractor_trianglediamonds.svg	stimuli_target_trianglesquares.svg	26	yes	57	0	565	0	0			0	0			1				0	
6.6.1	mac	2023-06-02	07:15:15	07:22:07	409828	5c3dfadfef1d0d0001b2870e	4	1	main_z	7	main_z	51	stimuli_distractor_trianglediamonds.svg	stimuli_distractor_diamondtriangles.svg	36	no	0	1	2000	0	0			0	0			1				0	
6.6.1	mac	2023-06-02	07:15:15	07:22:07	409828	5c3dfadfef1d0d0001b2870e	4	1	main_z	7	advance_on_keypress_ZEE	52	stimuli_distractor_trianglediamonds.svg	stimuli_distractor_diamondtriangles.svg	36	no	57	0	474	0	0			0	0			1				0	
6.6.1	mac	2023-06-02	07:15:15	07:22:10	412931	5c3dfadfef1d0d0001b2870e	4	1	main_z	7	main_z	53	stimuli_distractor_diamondtriangles.svg	stimuli_distractor_trianglediamonds.svg	37	no	0	1	2000	0	0			0	0			1				0	
6.6.1	mac	2023-06-02	07:15:15	07:22:10	412931	5c3dfadfef1d0d0001b2870e	4	1	main_z	7	advance_on_keypress_ZEE	54	stimuli_distractor_diamondtriangles.svg	stimuli_distractor_trianglediamonds.svg	37	no	57	0	609	0	0			0	0			1				0	
6.6.1	mac	2023-06-02	07:15:15	07:22:13	416173	5c3dfadfef1d0d0001b2870e	4	1	main_z	7	main_z	55	stimuli_distractor_diamondtriangles.svg	stimuli_target_trianglesquares.svg	30	yes	0	0	2000	0	0			0	0			1				0	
6.6.1	mac	2023-06-02	07:15:15	07:22:13	416173	5c3dfadfef1d0d0001b2870e	4	1	main_z	7	advance_on_keypress_ZEE	56	stimuli_distractor_diamondtriangles.svg	stimuli_target_trianglesquares.svg	30	yes	57	0	425	0	0			0	0			1				0	
6.6.1	mac	2023-06-02	07:15:15	07:22:15	417858	5c3dfadfef1d0d0001b2870e	4	1	main_z	7	main_z	57	stimuli_target_squaretriangles.svg	stimuli_distractor_diamondtriangles.svg	7	yes	44	1	630	0	0			0	0			1				0	
6.6.1	mac	2023-06-02	07:15:15	07:22:15	417858	5c3dfadfef1d0d0001b2870e	4	1	main_z	7	advance_on_keypress_ZEE	58	stimuli_target_squaretriangles.svg	stimuli_distractor_diamondtriangles.svg	7	yes	57	0	818	0	0			0	0			1				0	
6.6.1	mac	2023-06-02	07:15:15	07:22:19	421298	5c3dfadfef1d0d0001b2870e	4	1	main_z	7	main_z	59	stimuli_distractor_trianglediamonds.svg	stimuli_target_diamondsquares.svg	28	yes	0	0	2000	0	0			0	0			1				0	
6.6.1	mac	2023-06-02	07:15:15	07:22:19	421298	5c3dfadfef1d0d0001b2870e	4	1	main_z	7	advance_on_keypress_ZEE	60	stimuli_distractor_trianglediamonds.svg	stimuli_target_diamondsquares.svg	28	yes	57	0	447	0	0			0	0			1				0	
6.6.1	mac	2023-06-02	07:15:15	07:22:20	422796	5c3dfadfef1d0d0001b2870e	4	1	main_z	7	main_z	61	stimuli_distractor_diamondtriangles.svg	stimuli_target_rectangletriangles.svg	13	yes	44	1	420	0	0			0	0			1				0	
6.6.1	mac	2023-06-02	07:15:15	07:22:20	422796	5c3dfadfef1d0d0001b2870e	4	1	main_z	7	advance_on_keypress_ZEE	62	stimuli_distractor_diamondtriangles.svg	stimuli_target_rectangletriangles.svg	13	yes	57	0	759	0	0			0	0			1				0	
6.6.1	mac	2023-06-02	07:15:15	07:22:23	426185	5c3dfadfef1d0d0001b2870e	4	1	main_z	7	main_z	63	stimuli_target_diamondrectangles.svg	stimuli_distractor_trianglediamonds.svg	19	yes	0	0	2000	0	0			0	0			1				0	
6.6.1	mac	2023-06-02	07:15:15	07:22:23	426185	5c3dfadfef1d0d0001b2870e	4	1	main_z	7	advance_on_keypress_ZEE	64	stimuli_target_diamondrectangles.svg	stimuli_distractor_trianglediamonds.svg	19	yes	57	0	416	0	0			0	0			1				0	
6.6.1	mac	2023-06-02	07:15:15	07:22:26	429231	5c3dfadfef1d0d0001b2870e	4	1	main_z	7	main_z	65	stimuli_distractor_trianglediamonds.svg	stimuli_distractor_diamondtriangles.svg	35	no	0	1	2000	0	0			0	0			1				0	
6.6.1	mac	2023-06-02	07:15:15	07:22:26	429231	5c3dfadfef1d0d0001b2870e	4	1	main_z	7	advance_on_keypress_ZEE	66	stimuli_distractor_trianglediamonds.svg	stimuli_distractor_diamondtriangles.svg	35	no	57	0	702	0	0			0	0			1				0	
6.6.1	mac	2023-06-02	07:15:15	07:22:28	430897	5c3dfadfef1d0d0001b2870e	4	1	main_z	7	main_z	67	stimuli_distractor_trianglediamonds.svg	stimuli_target_squarediamonds.svg	12	yes	44	1	331	0	0			0	0			1				0	
6.6.1	mac	2023-06-02	07:15:15	07:22:28	430897	5c3dfadfef1d0d0001b2870e	4	1	main_z	7	advance_on_keypress_ZEE	68	stimuli_distractor_trianglediamonds.svg	stimuli_target_squarediamonds.svg	12	yes	57	0	675	0	0			0	0			1				0	
6.6.1	mac	2023-06-02	07:15:15	07:22:30	432675	5c3dfadfef1d0d0001b2870e	4	1	main_z	7	main_z	69	stimuli_target_squarediamonds.svg	stimuli_distractor_diamondtriangles.svg	8	yes	44	1	472	0	0			0	0			1				0	
6.6.1	mac	2023-06-02	07:15:15	07:22:30	432675	5c3dfadfef1d0d0001b2870e	4	1	main_z	7	advance_on_keypress_ZEE	70	stimuli_target_squarediamonds.svg	stimuli_distractor_diamondtriangles.svg	8	yes	57	0	630	0	0			0	0			1				0	
6.6.1	mac	2023-06-02	07:15:15	07:22:33	435935	5c3dfadfef1d0d0001b2870e	4	1	main_z	7	main_z	71	stimuli_distractor_trianglediamonds.svg	stimuli_target_trianglerectangles.svg	25	yes	0	0	2000	0	0			0	0			1				0	
6.6.1	mac	2023-06-02	07:15:15	07:22:33	435935	5c3dfadfef1d0d0001b2870e	4	1	main_z	7	advance_on_keypress_ZEE	72	stimuli_distractor_trianglediamonds.svg	stimuli_target_trianglerectangles.svg	25	yes	57	0	485	0	0			0	0			1				0	
6.6.1	mac	2023-06-02	07:15:15	07:22:36	439052	5c3dfadfef1d0d0001b2870e	4	1	main_z	7	main_z	73	stimuli_target_diamondrectangles.svg	stimuli_distractor_diamondtriangles.svg	23	yes	0	0	2000	0	0			0	0			1				0	
6.6.1	mac	2023-06-02	07:15:15	07:22:36	439052	5c3dfadfef1d0d0001b2870e	4	1	main_z	7	advance_on_keypress_ZEE	74	stimuli_target_diamondrectangles.svg	stimuli_distractor_diamondtriangles.svg	23	yes	57	0	469	0	0			0	0			1				0	
6.6.1	mac	2023-06-02	07:15:15	07:22:39	442141	5c3dfadfef1d0d0001b2870e	4	1	main_z	7	main_z	75	stimuli_distractor_diamondtriangles.svg	stimuli_target_diamondsquares.svg	32	yes	0	0	2000	0	0			0	0			1				0	
6.6.1	mac	2023-06-02	07:15:15	07:22:39	442141	5c3dfadfef1d0d0001b2870e	4	1	main_z	7	advance_on_keypress_ZEE	76	stimuli_distractor_diamondtriangles.svg	stimuli_target_diamondsquares.svg	32	yes	57	0	435	0	0			0	0			1				0	
6.6.1	mac	2023-06-02	07:15:15	07:22:42	445206	5c3dfadfef1d0d0001b2870e	4	1	main_z	7	main_z	77	stimuli_target_trianglesquares.svg	stimuli_distractor_trianglediamonds.svg	18	yes	0	0	2000	0	0			0	0			1				0	
6.6.1	mac	2023-06-02	07:15:15	07:22:42	445206	5c3dfadfef1d0d0001b2870e	4	1	main_z	7	advance_on_keypress_ZEE	78	stimuli_target_trianglesquares.svg	stimuli_distractor_trianglediamonds.svg	18	yes	57	0	398	0	0			0	0			1				0	
6.6.1	mac	2023-06-02	07:15:15	07:22:45	448235	5c3dfadfef1d0d0001b2870e	4	1	main_z	7	main_z	79	stimuli_distractor_diamondtriangles.svg	stimuli_target_trianglerectangles.svg	29	yes	0	0	2000	0	0			0	0			1				0	
6.6.1	mac	2023-06-02	07:15:15	07:22:45	448235	5c3dfadfef1d0d0001b2870e	4	1	main_z	7	advance_on_keypress_ZEE	80	stimuli_distractor_diamondtriangles.svg	stimuli_target_trianglerectangles.svg	29	yes	57	0	571	0	0			0	0			1				0	
6.6.1	mac	2023-06-02	07:15:15	07:22:47	450036	5c3dfadfef1d0d0001b2870e	4	1	main_z	7	main_z	81	stimuli_distractor_trianglediamonds.svg	stimuli_target_squarediamonds.svg	12	yes	44	1	599	0	0			0	0			1				0	
6.6.1	mac	2023-06-02	07:15:15	07:22:47	450036	5c3dfadfef1d0d0001b2870e	4	1	main_z	7	advance_on_keypress_ZEE	82	stimuli_distractor_trianglediamonds.svg	stimuli_target_squarediamonds.svg	12	yes	57	0	1232	0	0			0	0			1				0	
6.6.1	mac	2023-06-02	07:15:15	07:22:50	452467	5c3dfadfef1d0d0001b2870e	4	1	main_z	7	main_z	83	stimuli_target_squaretriangles.svg	stimuli_distractor_trianglediamonds.svg	3	yes	44	1	558	0	0			0	0			1				0	
6.6.1	mac	2023-06-02	07:15:15	07:22:50	452467	5c3dfadfef1d0d0001b2870e	4	1	main_z	7	advance_on_keypress_ZEE	84	stimuli_target_squaretriangles.svg	stimuli_distractor_trianglediamonds.svg	3	yes	57	0	582	0	0			0	0			1				0	
6.6.1	mac	2023-06-02	07:15:15	07:22:52	454321	5c3dfadfef1d0d0001b2870e	4	1	main_z	7	main_z	85	stimuli_target_rectangletriangles.svg	stimuli_distractor_diamondtriangles.svg	5	yes	44	1	642	0	0			0	0			1				0	
6.6.1	mac	2023-06-02	07:15:15	07:22:52	454321	5c3dfadfef1d0d0001b2870e	4	1	main_z	7	advance_on_keypress_ZEE	86	stimuli_target_rectangletriangles.svg	stimuli_distractor_diamondtriangles.svg	5	yes	57	0	600	0	0			0	0			1				0	
6.6.1	mac	2023-06-02	07:15:15	07:22:55	457535	5c3dfadfef1d0d0001b2870e	4	1	main_z	7	main_z	87	stimuli_target_diamondsquares.svg	stimuli_distractor_trianglediamonds.svg	20	yes	0	0	2000	0	0			0	0			1				0	
6.6.1	mac	2023-06-02	07:15:15	07:22:55	457535	5c3dfadfef1d0d0001b2870e	4	1	main_z	7	advance_on_keypress_ZEE	88	stimuli_target_diamondsquares.svg	stimuli_distractor_trianglediamonds.svg	20	yes	57	0	457	0	0			0	0			1				0	
6.6.1	mac	2023-06-02	07:15:15	07:22:58	460614	5c3dfadfef1d0d0001b2870e	4	1	main_z	7	main_z	89	stimuli_distractor_trianglediamonds.svg	stimuli_distractor_diamondtriangles.svg	36	no	0	1	2000	0	0			0	0			1				0	
6.6.1	mac	2023-06-02	07:15:15	07:22:58	460614	5c3dfadfef1d0d0001b2870e	4	1	main_z	7	advance_on_keypress_ZEE	90	stimuli_distractor_trianglediamonds.svg	stimuli_distractor_diamondtriangles.svg	36	no	57	0	502	0	0			0	0			1				0	
6.6.1	mac	2023-06-02	07:15:15	07:23:01	463751	5c3dfadfef1d0d0001b2870e	4	1	main_z	7	main_z	91	stimuli_distractor_diamondtriangles.svg	stimuli_target_diamondsquares.svg	32	yes	0	0	2000	0	0			0	0			1				0	
6.6.1	mac	2023-06-02	07:15:15	07:23:01	463751	5c3dfadfef1d0d0001b2870e	4	1	main_z	7	advance_on_keypress_ZEE	92	stimuli_distractor_diamondtriangles.svg	stimuli_target_diamondsquares.svg	32	yes	57	0	538	0	0			0	0			1				0	
6.6.1	mac	2023-06-02	07:15:15	07:23:02	465196	5c3dfadfef1d0d0001b2870e	4	1	main_z	7	main_z	93	stimuli_distractor_diamondtriangles.svg	stimuli_target_trianglesquares.svg	30	yes	44	1	287	0	0			0	0			1				0	
6.6.1	mac	2023-06-02	07:15:15	07:23:02	465196	5c3dfadfef1d0d0001b2870e	4	1	main_z	7	advance_on_keypress_ZEE	94	stimuli_distractor_diamondtriangles.svg	stimuli_target_trianglesquares.svg	30	yes	57	0	579	0	0			0	0			1				0	
6.6.1	mac	2023-06-02	07:15:15	07:23:04	466908	5c3dfadfef1d0d0001b2870e	4	1	main_z	7	main_z	95	stimuli_target_rectanglediamonds.svg	stimuli_distractor_trianglediamonds.svg	2	yes	44	1	506	0	0			0	0			1				0	
6.6.1	mac	2023-06-02	07:15:15	07:23:04	466908	5c3dfadfef1d0d0001b2870e	4	1	main_z	7	advance_on_keypress_ZEE	96	stimuli_target_rectanglediamonds.svg	stimuli_distractor_trianglediamonds.svg	2	yes	57	0	808	0	0			0	0			1				0	
6.6.1	mac	2023-06-02	07:15:15	07:23:08	470346	5c3dfadfef1d0d0001b2870e	4	1	main_z	7	main_z	97	stimuli_distractor_trianglediamonds.svg	stimuli_target_trianglesquares.svg	26	yes	0	0	2000	0	0			0	0			1				0	
6.6.1	mac	2023-06-02	07:15:15	07:23:08	470346	5c3dfadfef1d0d0001b2870e	4	1	main_z	7	advance_on_keypress_ZEE	98	stimuli_distractor_trianglediamonds.svg	stimuli_target_trianglesquares.svg	26	yes	57	0	599	0	0			0	0			1				0	
6.6.1	mac	2023-06-02	07:15:15	07:23:11	473555	5c3dfadfef1d0d0001b2870e	4	1	main_z	7	main_z	99	stimuli_target_trianglesquares.svg	stimuli_distractor_trianglediamonds.svg	18	yes	0	0	2000	0	0			0	0			1				0	
6.6.1	mac	2023-06-02	07:15:15	07:23:11	473555	5c3dfadfef1d0d0001b2870e	4	1	main_z	7	advance_on_keypress_ZEE	100	stimuli_target_trianglesquares.svg	stimuli_distractor_trianglediamonds.svg	18	yes	57	0	634	0	0			0	0			1				0	
6.6.1	mac	2023-06-02	07:15:15	07:23:12	475124	5c3dfadfef1d0d0001b2870e	4	1	main_z	7	main_z	101	stimuli_distractor_diamondtriangles.svg	stimuli_target_rectanglediamonds.svg	14	yes	44	1	309	0	0			0	0			1				0	
6.6.1	mac	2023-06-02	07:15:15	07:23:12	475124	5c3dfadfef1d0d0001b2870e	4	1	main_z	7	advance_on_keypress_ZEE	102	stimuli_distractor_diamondtriangles.svg	stimuli_target_rectanglediamonds.svg	14	yes	57	0	1063	0	0			0	0			1				0	
6.6.1	mac	2023-06-02	07:15:15	07:23:16	478821	5c3dfadfef1d0d0001b2870e	4	1	main_z	7	main_z	103	stimuli_distractor_diamondtriangles.svg	stimuli_distractor_trianglediamonds.svg	37	no	0	1	2000	0	0			0	0			1				0	
6.6.1	mac	2023-06-02	07:15:15	07:23:16	478821	5c3dfadfef1d0d0001b2870e	4	1	main_z	7	advance_on_keypress_ZEE	104	stimuli_distractor_diamondtriangles.svg	stimuli_distractor_trianglediamonds.svg	37	no	57	0	629	0	0			0	0			1				0	
6.6.1	mac	2023-06-02	07:15:15	07:23:19	482074	5c3dfadfef1d0d0001b2870e	4	1	main_z	7	main_z	105	stimuli_distractor_trianglediamonds.svg	stimuli_target_diamondsquares.svg	28	yes	0	0	2000	0	0			0	0			1				0	
6.6.1	mac	2023-06-02	07:15:15	07:23:19	482074	5c3dfadfef1d0d0001b2870e	4	1	main_z	7	advance_on_keypress_ZEE	106	stimuli_distractor_trianglediamonds.svg	stimuli_target_diamondsquares.svg	28	yes	57	0	617	0	0			0	0			1				0	
6.6.1	mac	2023-06-02	07:15:15	07:23:21	483605	5c3dfadfef1d0d0001b2870e	4	1	main_z	7	main_z	107	stimuli_distractor_diamondtriangles.svg	stimuli_distractor_diamondtriangles.svg	40	no	44	0	277	0	0			0	0			1				0	
6.6.1	mac	2023-06-02	07:15:15	07:23:21	483605	5c3dfadfef1d0d0001b2870e	4	1	main_z	7	advance_on_keypress_ZEE	108	stimuli_distractor_diamondtriangles.svg	stimuli_distractor_diamondtriangles.svg	40	no	57	0	650	0	0			0	0			1				0	
6.6.1	mac	2023-06-02	07:15:15	07:23:23	485265	5c3dfadfef1d0d0001b2870e	4	1	main_z	7	main_z	109	stimuli_target_diamondrectangles.svg	stimuli_distractor_trianglediamonds.svg	19	yes	44	1	386	0	0			0	0			1				0	
6.6.1	mac	2023-06-02	07:15:15	07:23:23	485265	5c3dfadfef1d0d0001b2870e	4	1	main_z	7	advance_on_keypress_ZEE	110	stimuli_target_diamondrectangles.svg	stimuli_distractor_trianglediamonds.svg	19	yes	57	0	651	0	0			0	0			1				0	
6.6.1	mac	2023-06-02	07:15:15	07:23:24	486969	5c3dfadfef1d0d0001b2870e	4	1	main_z	7	main_z	111	stimuli_target_squarediamonds.svg	stimuli_distractor_trianglediamonds.svg	4	yes	44	1	422	0	0			0	0			1				0	
6.6.1	mac	2023-06-02	07:15:15	07:23:24	486969	5c3dfadfef1d0d0001b2870e	4	1	main_z	7	advance_on_keypress_ZEE	112	stimuli_target_squarediamonds.svg	stimuli_distractor_trianglediamonds.svg	4	yes	57	0	763	0	0			0	0			1				0	
6.6.1	mac	2023-06-02	07:15:15	07:23:28	490357	5c3dfadfef1d0d0001b2870e	4	1	main_z	7	main_z	113	stimuli_distractor_trianglediamonds.svg	stimuli_target_diamondrectangles.svg	27	yes	0	0	2000	0	0			0	0			1				0	
6.6.1	mac	2023-06-02	07:15:15	07:23:28	490357	5c3dfadfef1d0d0001b2870e	4	1	main_z	7	advance_on_keypress_ZEE	114	stimuli_distractor_trianglediamonds.svg	stimuli_target_diamondrectangles.svg	27	yes	57	0	411	0	0			0	0			1				0	
6.6.1	mac	2023-06-02	07:15:15	07:23:29	491706	5c3dfadfef1d0d0001b2870e	4	1	main_z	7	main_z	115	stimuli_target_rectanglediamonds.svg	stimuli_distractor_diamondtriangles.svg	6	yes	44	1	301	0	0			0	0			1				0	
6.6.1	mac	2023-06-02	07:15:15	07:23:29	491706	5c3dfadfef1d0d0001b2870e	4	1	main_z	7	advance_on_keypress_ZEE	116	stimuli_target_rectanglediamonds.svg	stimuli_distractor_diamondtriangles.svg	6	yes	57	0	721	0	0			0	0			1				0	
6.6.1	mac	2023-06-02	07:15:15	07:23:32	495048	5c3dfadfef1d0d0001b2870e	4	1	main_z	7	main_z	117	stimuli_target_diamondsquares.svg	stimuli_distractor_diamondtriangles.svg	24	yes	0	0	2000	0	0			0	0			1				0	
6.6.1	mac	2023-06-02	07:15:15	07:23:32	495048	5c3dfadfef1d0d0001b2870e	4	1	main_z	7	advance_on_keypress_ZEE	118	stimuli_target_diamondsquares.svg	stimuli_distractor_diamondtriangles.svg	24	yes	57	0	504	0	0			0	0			1				0	
6.6.1	mac	2023-06-02	07:15:15	07:23:35	498173	5c3dfadfef1d0d0001b2870e	4	1	main_z	7	main_z	119	stimuli_distractor_diamondtriangles.svg	stimuli_distractor_diamondtriangles.svg	39	no	0	1	2000	0	0			0	0			1				0	
6.6.1	mac	2023-06-02	07:15:15	07:23:35	498173	5c3dfadfef1d0d0001b2870e	4	1	main_z	7	advance_on_keypress_ZEE	120	stimuli_distractor_diamondtriangles.svg	stimuli_distractor_diamondtriangles.svg	39	no	57	0	462	0	0			0	0			1				0	
6.6.1	mac	2023-06-02	07:15:15	07:23:38	501245	5c3dfadfef1d0d0001b2870e	4	1	main_z	7	main_z	121	stimuli_distractor_trianglediamonds.svg	stimuli_distractor_trianglediamonds.svg	34	no	0	1	2000	0	0			0	0			1				0	
6.6.1	mac	2023-06-02	07:15:15	07:23:38	501245	5c3dfadfef1d0d0001b2870e	4	1	main_z	7	advance_on_keypress_ZEE	122	stimuli_distractor_trianglediamonds.svg	stimuli_distractor_trianglediamonds.svg	34	no	57	0	582	0	0			0	0			1				0	
6.6.1	mac	2023-06-02	07:15:15	07:23:42	504452	5c3dfadfef1d0d0001b2870e	4	1	main_z	7	main_z	123	stimuli_distractor_diamondtriangles.svg	stimuli_target_trianglerectangles.svg	29	yes	0	0	2000	0	0			0	0			1				0	
6.6.1	mac	2023-06-02	07:15:15	07:23:42	504452	5c3dfadfef1d0d0001b2870e	4	1	main_z	7	advance_on_keypress_ZEE	124	stimuli_distractor_diamondtriangles.svg	stimuli_target_trianglerectangles.svg	29	yes	57	0	493	0	0			0	0			1				0	
6.6.1	mac	2023-06-02	07:15:15	07:23:45	507557	5c3dfadfef1d0d0001b2870e	4	1	main_z	7	main_z	125	stimuli_distractor_trianglediamonds.svg	stimuli_distractor_diamondtriangles.svg	35	no	0	1	2000	0	0			0	0			1				0	
6.6.1	mac	2023-06-02	07:15:15	07:23:45	507557	5c3dfadfef1d0d0001b2870e	4	1	main_z	7	advance_on_keypress_ZEE	126	stimuli_distractor_trianglediamonds.svg	stimuli_distractor_diamondtriangles.svg	35	no	57	0	798	0	0			0	0			1				0	
6.6.1	mac	2023-06-02	07:15:15	07:23:48	510979	5c3dfadfef1d0d0001b2870e	4	1	main_z	7	main_z	127	stimuli_distractor_trianglediamonds.svg	stimuli_target_trianglerectangles.svg	25	yes	0	0	2000	0	0			0	0			1				0	
6.6.1	mac	2023-06-02	07:15:15	07:23:48	510979	5c3dfadfef1d0d0001b2870e	4	1	main_z	7	advance_on_keypress_ZEE	128	stimuli_distractor_trianglediamonds.svg	stimuli_target_trianglerectangles.svg	25	yes	57	0	398	0	0			0	0			1				0	
6.6.1	mac	2023-06-02	07:15:15	07:23:51	514002	5c3dfadfef1d0d0001b2870e	4	1	main_z	7	main_z	129	stimuli_target_trianglerectangles.svg	stimuli_distractor_diamondtriangles.svg	21	yes	0	0	2000	0	0			0	0			1				0	
6.6.1	mac	2023-06-02	07:15:15	07:23:51	514002	5c3dfadfef1d0d0001b2870e	4	1	main_z	7	advance_on_keypress_ZEE	130	stimuli_target_trianglerectangles.svg	stimuli_distractor_diamondtriangles.svg	21	yes	57	0	397	0	0			0	0			1				0	
6.6.1	mac	2023-06-02	07:15:15	07:23:53	515321	5c3dfadfef1d0d0001b2870e	4	1	main_z	7	main_z	131	stimuli_distractor_trianglediamonds.svg	stimuli_target_squaretriangles.svg	11	yes	44	1	295	0	0			0	0			1				0	
6.6.1	mac	2023-06-02	07:15:15	07:23:53	515321	5c3dfadfef1d0d0001b2870e	4	1	main_z	7	advance_on_keypress_ZEE	132	stimuli_distractor_trianglediamonds.svg	stimuli_target_squaretriangles.svg	11	yes	57	0	872	0	0			0	0			1				0	
6.6.1	mac	2023-06-02	07:15:15	07:23:55	517255	5c3dfadfef1d0d0001b2870e	4	1	main_z	7	main_z	133	stimuli_target_trianglesquares.svg	stimuli_distractor_diamondtriangles.svg	22	yes	44	1	443	0	0			0	0			1				0	
6.6.1	mac	2023-06-02	07:15:15	07:23:55	517255	5c3dfadfef1d0d0001b2870e	4	1	main_z	7	advance_on_keypress_ZEE	134	stimuli_target_trianglesquares.svg	stimuli_distractor_diamondtriangles.svg	22	yes	57	0	1006	0	0			0	0			1				0	
6.6.1	mac	2023-06-02	07:15:15	07:23:56	519163	5c3dfadfef1d0d0001b2870e	4	1	main_z	7	main_z	135	stimuli_distractor_diamondtriangles.svg	stimuli_distractor_trianglediamonds.svg	38	no	44	0	283	0	0			0	0			1				0	
6.6.1	mac	2023-06-02	07:15:15	07:23:56	519163	5c3dfadfef1d0d0001b2870e	4	1	main_z	7	advance_on_keypress_ZEE	136	stimuli_distractor_diamondtriangles.svg	stimuli_distractor_trianglediamonds.svg	38	no	57	0	565	0	0			0	0			1				0	
6.6.1	mac	2023-06-02	07:15:15	07:23:58	520810	5c3dfadfef1d0d0001b2870e	4	1	main_z	7	main_z	137	stimuli_target_rectangletriangles.svg	stimuli_distractor_trianglediamonds.svg	1	yes	44	1	459	0	0			0	0			1				0	
6.6.1	mac	2023-06-02	07:15:15	07:23:58	520810	5c3dfadfef1d0d0001b2870e	4	1	main_z	7	advance_on_keypress_ZEE	138	stimuli_target_rectangletriangles.svg	stimuli_distractor_trianglediamonds.svg	1	yes	57	0	778	0	0			0	0			1				0	
6.6.1	mac	2023-06-02	07:15:15	07:24:00	522686	5c3dfadfef1d0d0001b2870e	4	1	main_z	7	main_z	139	stimuli_target_squarediamonds.svg	stimuli_distractor_diamondtriangles.svg	8	yes	44	1	484	0	0			0	0			1				0	
6.6.1	mac	2023-06-02	07:15:15	07:24:00	522686	5c3dfadfef1d0d0001b2870e	4	1	main_z	7	advance_on_keypress_ZEE	140	stimuli_target_squarediamonds.svg	stimuli_distractor_diamondtriangles.svg	8	yes	57	0	1137	0	0			0	0			1				0	
6.6.1	mac	2023-06-02	07:15:15	07:24:04	526456	5c3dfadfef1d0d0001b2870e	4	1	main_z	7	main_z	141	stimuli_distractor_trianglediamonds.svg	stimuli_target_rectangletriangles.svg	9	yes	0	0	2000	0	0			0	0			1				0	
6.6.1	mac	2023-06-02	07:15:15	07:24:04	526456	5c3dfadfef1d0d0001b2870e	4	1	main_z	7	advance_on_keypress_ZEE	142	stimuli_distractor_trianglediamonds.svg	stimuli_target_rectangletriangles.svg	9	yes	57	0	720	0	0			0	0			1				0	
6.6.1	mac	2023-06-02	07:15:15	07:24:05	528205	5c3dfadfef1d0d0001b2870e	4	1	main_z	7	main_z	143	stimuli_distractor_diamondtriangles.svg	stimuli_target_squaretriangles.svg	15	yes	44	1	410	0	0			0	0			1				0	
6.6.1	mac	2023-06-02	07:15:15	07:24:05	528205	5c3dfadfef1d0d0001b2870e	4	1	main_z	7	advance_on_keypress_ZEE	144	stimuli_distractor_diamondtriangles.svg	stimuli_target_squaretriangles.svg	15	yes	57	0	1076	0	0			0	0			1				0	
6.6.1	mac	2023-06-02	07:15:15	07:24:09	531914	5c3dfadfef1d0d0001b2870e	4	1	main_z	7	main_z	145	stimuli_distractor_diamondtriangles.svg	stimuli_target_squarediamonds.svg	16	yes	0	0	2000	0	0			0	0			1				0	
6.6.1	mac	2023-06-02	07:15:15	07:24:09	531914	5c3dfadfef1d0d0001b2870e	4	1	main_z	7	advance_on_keypress_ZEE	146	stimuli_distractor_diamondtriangles.svg	stimuli_target_squarediamonds.svg	16	yes	57	0	886	0	0			0	0			1				0	
6.6.1	mac	2023-06-02	07:15:15	07:24:13	535421	5c3dfadfef1d0d0001b2870e	4	1	main_z	7	main_z	147	stimuli_distractor_trianglediamonds.svg	stimuli_distractor_trianglediamonds.svg	33	no	0	1	2000	0	0			0	0			1				0	
6.6.1	mac	2023-06-02	07:15:15	07:24:13	535421	5c3dfadfef1d0d0001b2870e	4	1	main_z	7	advance_on_keypress_ZEE	148	stimuli_distractor_trianglediamonds.svg	stimuli_distractor_trianglediamonds.svg	33	no	57	0	512	0	0			0	0			1				0	
6.6.1	mac	2023-06-02	07:15:15	07:24:14	537034	5c3dfadfef1d0d0001b2870e	4	1	main_z	7	main_z	149	stimuli_target_squaretriangles.svg	stimuli_distractor_diamondtriangles.svg	7	yes	44	1	487	0	0			0	0			1				0	
6.6.1	mac	2023-06-02	07:15:15	07:24:14	537034	5c3dfadfef1d0d0001b2870e	4	1	main_z	7	advance_on_keypress_ZEE	150	stimuli_target_squaretriangles.svg	stimuli_distractor_diamondtriangles.svg	7	yes	57	0	1000	0	0			0	0			1				0	
6.6.1	mac	2023-06-02	07:15:15	07:24:18	540655	5c3dfadfef1d0d0001b2870e	4	1	main_z	7	main_z	151	stimuli_distractor_diamondtriangles.svg	stimuli_target_diamondrectangles.svg	31	yes	0	0	2000	0	0			0	0			1				0	
6.6.1	mac	2023-06-02	07:15:15	07:24:18	540655	5c3dfadfef1d0d0001b2870e	4	1	main_z	7	advance_on_keypress_ZEE	152	stimuli_distractor_diamondtriangles.svg	stimuli_target_diamondrectangles.svg	31	yes	57	0	597	0	0			0	0			1				0	
6.6.1	mac	2023-06-02	07:15:15	07:24:20	542341	5c3dfadfef1d0d0001b2870e	4	1	main_z	7	main_z	153	stimuli_distractor_diamondtriangles.svg	stimuli_target_rectangletriangles.svg	13	yes	44	1	477	0	0			0	0			1				0	
6.6.1	mac	2023-06-02	07:15:15	07:24:20	542341	5c3dfadfef1d0d0001b2870e	4	1	main_z	7	advance_on_keypress_ZEE	154	stimuli_distractor_diamondtriangles.svg	stimuli_target_rectangletriangles.svg	13	yes	57	0	1313	0	0			0	0			1				0	
6.6.1	mac	2023-06-02	07:15:15	07:24:24	546266	5c3dfadfef1d0d0001b2870e	4	1	main_z	7	main_z	155	stimuli_target_diamondrectangles.svg	stimuli_distractor_diamondtriangles.svg	23	yes	0	0	2000	0	0			0	0			1				0	
6.6.1	mac	2023-06-02	07:15:15	07:24:24	546266	5c3dfadfef1d0d0001b2870e	4	1	main_z	7	advance_on_keypress_ZEE	156	stimuli_target_diamondrectangles.svg	stimuli_distractor_diamondtriangles.svg	23	yes	57	0	345	0	0			0	0			1				0	
6.6.1	mac	2023-06-02	07:15:15	07:24:25	547624	5c3dfadfef1d0d0001b2870e	4	1	main_z	7	main_z	157	stimuli_distractor_trianglediamonds.svg	stimuli_target_rectanglediamonds.svg	10	yes	44	1	401	0	0			0	0			1				0	
6.6.1	mac	2023-06-02	07:15:15	07:24:25	547624	5c3dfadfef1d0d0001b2870e	4	1	main_z	7	advance_on_keypress_ZEE	158	stimuli_distractor_trianglediamonds.svg	stimuli_target_rectanglediamonds.svg	10	yes	57	0	588	0	0			0	0			1				0	
6.6.1	mac	2023-06-02	07:15:15	07:24:27	549456	5c3dfadfef1d0d0001b2870e	4	1	main_z	7	main_z	159	stimuli_target_trianglerectangles.svg	stimuli_distractor_trianglediamonds.svg	17	yes	44	1	610	0	0			0	0			1				0	
6.6.1	mac	2023-06-02	07:15:15	07:24:27	549456	5c3dfadfef1d0d0001b2870e	4	1	main_z	7	advance_on_keypress_ZEE	160	stimuli_target_trianglerectangles.svg	stimuli_distractor_trianglediamonds.svg	17	yes	57	0	5	0	0			0	0			1				0	
6.6.1	mac	2023-06-02	07:15:15	07:25:02	584607	5c3dfadfef1d0d0001b2870e	4	1	practice_slash	9	practice_slash	1	stimuli_distractor_trianglediamonds.svg	stimuli_distractor_trianglediamonds.svg	15	no	0	1	2000	0	0			0	0			1				0	
6.6.1	mac	2023-06-02	07:15:15	07:25:02	584607	5c3dfadfef1d0d0001b2870e	4	1	practice_slash	9	advance_on_keypress_SLASH	2	stimuli_distractor_trianglediamonds.svg	stimuli_distractor_trianglediamonds.svg	15	no	57	0	1277	0	0			0	0			1				0	
6.6.1	mac	2023-06-02	07:15:15	07:25:07	589500	5c3dfadfef1d0d0001b2870e	4	1	practice_slash	9	practice_slash	3	stimuli_distractor_trianglediamonds.svg	stimuli_target_diamondrectangles.svg	12	yes	0	0	2000	0	0			0	0			1				0	
6.6.1	mac	2023-06-02	07:15:15	07:25:07	589500	5c3dfadfef1d0d0001b2870e	4	1	practice_slash	9	advance_on_keypress_SLASH	4	stimuli_distractor_trianglediamonds.svg	stimuli_target_diamondrectangles.svg	12	yes	57	0	1001	0	0			0	0			1				0	
6.6.1	mac	2023-06-02	07:15:15	07:25:10	592464	5c3dfadfef1d0d0001b2870e	4	1	practice_slash	9	practice_slash	5	stimuli_distractor_trianglediamonds.svg	stimuli_target_rectanglediamonds.svg	10	yes	53	1	337	0	0			0	0			1				0	
6.6.1	mac	2023-06-02	07:15:15	07:25:10	592464	5c3dfadfef1d0d0001b2870e	4	1	practice_slash	9	advance_on_keypress_SLASH	6	stimuli_distractor_trianglediamonds.svg	stimuli_target_rectanglediamonds.svg	10	yes	57	0	941	0	0			0	0			1				0	
6.6.1	mac	2023-06-02	07:15:15	07:25:13	595315	5c3dfadfef1d0d0001b2870e	4	1	practice_slash	9	practice_slash	7	stimuli_distractor_diamondtriangles.svg	stimuli_target_rectangletriangles.svg	7	yes	53	1	275	0	0			0	0			1				0	
6.6.1	mac	2023-06-02	07:15:15	07:25:13	595315	5c3dfadfef1d0d0001b2870e	4	1	practice_slash	9	advance_on_keypress_SLASH	8	stimuli_distractor_diamondtriangles.svg	stimuli_target_rectangletriangles.svg	7	yes	57	0	954	0	0			0	0			1				0	
6.6.1	mac	2023-06-02	07:15:15	07:25:15	598133	5c3dfadfef1d0d0001b2870e	4	1	practice_slash	9	practice_slash	9	stimuli_distractor_diamondtriangles.svg	stimuli_target_trianglerectangles.svg	9	yes	53	1	238	0	0			0	0			1				0	
6.6.1	mac	2023-06-02	07:15:15	07:25:15	598133	5c3dfadfef1d0d0001b2870e	4	1	practice_slash	9	advance_on_keypress_SLASH	10	stimuli_distractor_diamondtriangles.svg	stimuli_target_trianglerectangles.svg	9	yes	57	0	543	0	0			0	0			1				0	
6.6.1	mac	2023-06-02	07:15:15	07:25:18	600563	5c3dfadfef1d0d0001b2870e	4	1	practice_slash	9	practice_slash	11	stimuli_distractor_diamondtriangles.svg	stimuli_distractor_trianglediamonds.svg	14	no	53	0	255	0	0			0	0			1				0	
6.6.1	mac	2023-06-02	07:15:15	07:25:18	600563	5c3dfadfef1d0d0001b2870e	4	1	practice_slash	9	advance_on_keypress_SLASH	12	stimuli_distractor_diamondtriangles.svg	stimuli_distractor_trianglediamonds.svg	14	no	57	0	835	0	0			0	0			1				0	
6.6.1	mac	2023-06-02	07:15:15	07:25:21	603281	5c3dfadfef1d0d0001b2870e	4	1	practice_slash	9	practice_slash	13	stimuli_target_rectanglediamonds.svg	stimuli_distractor_diamondtriangles.svg	1	yes	53	1	257	0	0			0	0			1				0	
6.6.1	mac	2023-06-02	07:15:15	07:25:21	603281	5c3dfadfef1d0d0001b2870e	4	1	practice_slash	9	advance_on_keypress_SLASH	14	stimuli_target_rectanglediamonds.svg	stimuli_distractor_diamondtriangles.svg	1	yes	57	0	630	0	0			0	0			1				0	
6.6.1	mac	2023-06-02	07:15:15	07:25:23	605778	5c3dfadfef1d0d0001b2870e	4	1	practice_slash	9	practice_slash	15	stimuli_target_rectanglediamonds.svg	stimuli_distractor_trianglediamonds.svg	4	yes	53	1	234	0	0			0	0			1				0	
6.6.1	mac	2023-06-02	07:15:15	07:25:23	605778	5c3dfadfef1d0d0001b2870e	4	1	practice_slash	9	advance_on_keypress_SLASH	16	stimuli_target_rectanglediamonds.svg	stimuli_distractor_trianglediamonds.svg	4	yes	57	0	615	0	0			0	0			1				0	
6.6.1	mac	2023-06-02	07:15:15	07:25:26	608262	5c3dfadfef1d0d0001b2870e	4	1	practice_slash	9	practice_slash	17	stimuli_target_diamondsquares.svg	stimuli_distractor_diamondtriangles.svg	3	yes	53	1	240	0	0			0	0			1				0	
6.6.1	mac	2023-06-02	07:15:15	07:25:26	608262	5c3dfadfef1d0d0001b2870e	4	1	practice_slash	9	advance_on_keypress_SLASH	18	stimuli_target_diamondsquares.svg	stimuli_distractor_diamondtriangles.svg	3	yes	57	0	916	0	0			0	0			1				0	
6.6.1	mac	2023-06-02	07:15:15	07:25:28	611151	5c3dfadfef1d0d0001b2870e	4	1	practice_slash	9	practice_slash	19	stimuli_distractor_trianglediamonds.svg	stimuli_target_squarediamonds.svg	11	yes	53	1	333	0	0			0	0			1				0	
6.6.1	mac	2023-06-02	07:15:15	07:25:28	611151	5c3dfadfef1d0d0001b2870e	4	1	practice_slash	9	advance_on_keypress_SLASH	20	stimuli_distractor_trianglediamonds.svg	stimuli_target_squarediamonds.svg	11	yes	57	0	495	0	0			0	0			1				0	
6.6.1	mac	2023-06-02	07:15:15	07:25:31	613560	5c3dfadfef1d0d0001b2870e	4	1	practice_slash	9	practice_slash	21	stimuli_target_squarediamonds.svg	stimuli_distractor_trianglediamonds.svg	5	yes	53	1	290	0	0			0	0			1				0	
6.6.1	mac	2023-06-02	07:15:15	07:25:31	613560	5c3dfadfef1d0d0001b2870e	4	1	practice_slash	9	advance_on_keypress_SLASH	22	stimuli_target_squarediamonds.svg	stimuli_distractor_trianglediamonds.svg	5	yes	57	0	578	0	0			0	0			1				0	
6.6.1	mac	2023-06-02	07:15:15	07:25:33	616009	5c3dfadfef1d0d0001b2870e	4	1	practice_slash	9	practice_slash	23	stimuli_distractor_trianglediamonds.svg	stimuli_distractor_diamondtriangles.svg	16	no	53	0	235	0	0			0	0			1				0	
6.6.1	mac	2023-06-02	07:15:15	07:25:33	616009	5c3dfadfef1d0d0001b2870e	4	1	practice_slash	9	advance_on_keypress_SLASH	24	stimuli_distractor_trianglediamonds.svg	stimuli_distractor_diamondtriangles.svg	16	no	57	0	519	0	0			0	0			1				0	
6.6.1	mac	2023-06-02	07:15:15	07:25:36	618379	5c3dfadfef1d0d0001b2870e	4	1	practice_slash	9	practice_slash	25	stimuli_distractor_diamondtriangles.svg	stimuli_distractor_diamondtriangles.svg	13	no	53	0	216	0	0			0	0			1				0	
6.6.1	mac	2023-06-02	07:15:15	07:25:36	618379	5c3dfadfef1d0d0001b2870e	4	1	practice_slash	9	advance_on_keypress_SLASH	26	stimuli_distractor_diamondtriangles.svg	stimuli_distractor_diamondtriangles.svg	13	no	57	0	632	0	0			0	0			1				0	
6.6.1	mac	2023-06-02	07:15:15	07:25:38	621157	5c3dfadfef1d0d0001b2870e	4	1	practice_slash	9	practice_slash	27	stimuli_target_squarediamonds.svg	stimuli_distractor_diamondtriangles.svg	2	yes	53	1	522	0	0			0	0			1				0	
6.6.1	mac	2023-06-02	07:15:15	07:25:38	621157	5c3dfadfef1d0d0001b2870e	4	1	practice_slash	9	advance_on_keypress_SLASH	28	stimuli_target_squarediamonds.svg	stimuli_distractor_diamondtriangles.svg	2	yes	57	0	558	0	0			0	0			1				0	
6.6.1	mac	2023-06-02	07:15:15	07:25:43	625342	5c3dfadfef1d0d0001b2870e	4	1	practice_slash	9	practice_slash	29	stimuli_target_diamondsquares.svg	stimuli_distractor_trianglediamonds.svg	6	yes	0	0	2000	0	0			0	0			1				0	
6.6.1	mac	2023-06-02	07:15:15	07:25:43	625342	5c3dfadfef1d0d0001b2870e	4	1	practice_slash	9	advance_on_keypress_SLASH	30	stimuli_target_diamondsquares.svg	stimuli_distractor_trianglediamonds.svg	6	yes	57	0	788	0	0			0	0			1				0	
6.6.1	mac	2023-06-02	07:15:15	07:25:45	627982	5c3dfadfef1d0d0001b2870e	4	1	practice_slash	9	practice_slash	31	stimuli_distractor_diamondtriangles.svg	stimuli_target_diamondrectangles.svg	8	yes	53	1	234	0	0			0	0			1				0	
6.6.1	mac	2023-06-02	07:15:15	07:25:45	627982	5c3dfadfef1d0d0001b2870e	4	1	practice_slash	9	advance_on_keypress_SLASH	32	stimuli_distractor_diamondtriangles.svg	stimuli_target_diamondrectangles.svg	8	yes	57	0	589	0	0			0	0			1				0	
6.6.1	mac	2023-06-02	07:15:15	07:26:02	645250	5c3dfadfef1d0d0001b2870e	4	1	main_slash	11	main_slash	1	stimuli_distractor_trianglediamonds.svg	stimuli_target_squaretriangles.svg	11	yes	53	1	219	0	0			0	0			1				0	
6.6.1	mac	2023-06-02	07:15:15	07:26:02	645250	5c3dfadfef1d0d0001b2870e	4	1	main_slash	11	advance_on_keypress_SLASH	2	stimuli_distractor_trianglediamonds.svg	stimuli_target_squaretriangles.svg	11	yes	57	0	1162	0	0			0	0			1				0	
6.6.1	mac	2023-06-02	07:15:15	07:26:06	649034	5c3dfadfef1d0d0001b2870e	4	1	main_slash	11	main_slash	3	stimuli_distractor_trianglediamonds.svg	stimuli_target_rectanglediamonds.svg	10	yes	0	0	2000	0	0			0	0			1				0	
6.6.1	mac	2023-06-02	07:15:15	07:26:06	649034	5c3dfadfef1d0d0001b2870e	4	1	main_slash	11	advance_on_keypress_SLASH	4	stimuli_distractor_trianglediamonds.svg	stimuli_target_rectanglediamonds.svg	10	yes	57	0	420	0	0			0	0			1				0	
6.6.1	mac	2023-06-02	07:15:15	07:26:08	650292	5c3dfadfef1d0d0001b2870e	4	1	main_slash	11	main_slash	5	stimuli_distractor_diamondtriangles.svg	stimuli_target_rectangletriangles.svg	13	yes	53	1	209	0	0			0	0			1				0	
6.6.1	mac	2023-06-02	07:15:15	07:26:08	650292	5c3dfadfef1d0d0001b2870e	4	1	main_slash	11	advance_on_keypress_SLASH	6	stimuli_distractor_diamondtriangles.svg	stimuli_target_rectangletriangles.svg	13	yes	57	0	1313	0	0			0	0			1				0	
6.6.1	mac	2023-06-02	07:15:15	07:26:10	652552	5c3dfadfef1d0d0001b2870e	4	1	main_slash	11	main_slash	7	stimuli_distractor_diamondtriangles.svg	stimuli_target_squarediamonds.svg	16	yes	53	1	323	0	0			0	0			1				0	
6.6.1	mac	2023-06-02	07:15:15	07:26:10	652552	5c3dfadfef1d0d0001b2870e	4	1	main_slash	11	advance_on_keypress_SLASH	8	stimuli_distractor_diamondtriangles.svg	stimuli_target_squarediamonds.svg	16	yes	57	0	787	0	0			0	0			1				0	
6.6.1	mac	2023-06-02	07:15:15	07:26:11	654214	5c3dfadfef1d0d0001b2870e	4	1	main_slash	11	main_slash	9	stimuli_target_diamondrectangles.svg	stimuli_distractor_diamondtriangles.svg	23	yes	53	1	243	0	0			0	0			1				0	
6.6.1	mac	2023-06-02	07:15:15	07:26:11	654214	5c3dfadfef1d0d0001b2870e	4	1	main_slash	11	advance_on_keypress_SLASH	10	stimuli_target_diamondrectangles.svg	stimuli_distractor_diamondtriangles.svg	23	yes	57	0	1124	0	0			0	0			1				0	
6.6.1	mac	2023-06-02	07:15:15	07:26:14	656261	5c3dfadfef1d0d0001b2870e	4	1	main_slash	11	main_slash	11	stimuli_target_trianglesquares.svg	stimuli_distractor_trianglediamonds.svg	18	yes	53	1	292	0	0			0	0			1				0	
6.6.1	mac	2023-06-02	07:15:15	07:26:14	656261	5c3dfadfef1d0d0001b2870e	4	1	main_slash	11	advance_on_keypress_SLASH	12	stimuli_target_trianglesquares.svg	stimuli_distractor_trianglediamonds.svg	18	yes	57	0	1694	0	0			0	0			1				0	
6.6.1	mac	2023-06-02	07:15:15	07:26:16	658807	5c3dfadfef1d0d0001b2870e	4	1	main_slash	11	main_slash	13	stimuli_distractor_trianglediamonds.svg	stimuli_target_trianglerectangles.svg	25	yes	53	1	224	0	0			0	0			1				0	
6.6.1	mac	2023-06-02	07:15:15	07:26:16	658807	5c3dfadfef1d0d0001b2870e	4	1	main_slash	11	advance_on_keypress_SLASH	14	stimuli_distractor_trianglediamonds.svg	stimuli_target_trianglerectangles.svg	25	yes	57	0	1294	0	0			0	0			1				0	
6.6.1	mac	2023-06-02	07:15:15	07:26:18	661106	5c3dfadfef1d0d0001b2870e	4	1	main_slash	11	main_slash	15	stimuli_distractor_trianglediamonds.svg	stimuli_target_squarediamonds.svg	12	yes	53	1	391	0	0			0	0			1				0	
6.6.1	mac	2023-06-02	07:15:15	07:26:18	661106	5c3dfadfef1d0d0001b2870e	4	1	main_slash	11	advance_on_keypress_SLASH	16	stimuli_distractor_trianglediamonds.svg	stimuli_target_squarediamonds.svg	12	yes	57	0	852	0	0			0	0			1				0	
6.6.1	mac	2023-06-02	07:15:15	07:26:20	662985	5c3dfadfef1d0d0001b2870e	4	1	main_slash	11	main_slash	17	stimuli_target_squaretriangles.svg	stimuli_distractor_trianglediamonds.svg	3	yes	53	1	401	0	0			0	0			1				0	
6.6.1	mac	2023-06-02	07:15:15	07:26:20	662985	5c3dfadfef1d0d0001b2870e	4	1	main_slash	11	advance_on_keypress_SLASH	18	stimuli_target_squaretriangles.svg	stimuli_distractor_trianglediamonds.svg	3	yes	57	0	716	0	0			0	0			1				0	
6.6.1	mac	2023-06-02	07:15:15	07:26:24	666324	5c3dfadfef1d0d0001b2870e	4	1	main_slash	11	main_slash	19	stimuli_target_trianglerectangles.svg	stimuli_distractor_trianglediamonds.svg	17	yes	0	0	2000	0	0			0	0			1				0	
6.6.1	mac	2023-06-02	07:15:15	07:26:24	666324	5c3dfadfef1d0d0001b2870e	4	1	main_slash	11	advance_on_keypress_SLASH	20	stimuli_target_trianglerectangles.svg	stimuli_distractor_trianglediamonds.svg	17	yes	57	0	712	0	0			0	0			1				0	
6.6.1	mac	2023-06-02	07:15:15	07:26:27	669675	5c3dfadfef1d0d0001b2870e	4	1	main_slash	11	main_slash	21	stimuli_distractor_diamondtriangles.svg	stimuli_distractor_trianglediamonds.svg	38	no	0	1	2000	0	0			0	0			1				0	
6.6.1	mac	2023-06-02	07:15:15	07:26:27	669675	5c3dfadfef1d0d0001b2870e	4	1	main_slash	11	advance_on_keypress_SLASH	22	stimuli_distractor_diamondtriangles.svg	stimuli_distractor_trianglediamonds.svg	38	no	57	0	590	0	0			0	0			1				0	
6.6.1	mac	2023-06-02	07:15:15	07:26:28	671101	5c3dfadfef1d0d0001b2870e	4	1	main_slash	11	main_slash	23	stimuli_distractor_trianglediamonds.svg	stimuli_target_diamondrectangles.svg	27	yes	53	1	208	0	0			0	0			1				0	
6.6.1	mac	2023-06-02	07:15:15	07:26:28	671101	5c3dfadfef1d0d0001b2870e	4	1	main_slash	11	advance_on_keypress_SLASH	24	stimuli_distractor_trianglediamonds.svg	stimuli_target_diamondrectangles.svg	27	yes	57	0	1437	0	0			0	0			1				0	
6.6.1	mac	2023-06-02	07:15:15	07:26:32	675169	5c3dfadfef1d0d0001b2870e	4	1	main_slash	11	main_slash	25	stimuli_distractor_trianglediamonds.svg	stimuli_target_rectangletriangles.svg	9	yes	0	0	2000	0	0			0	0			1				0	
6.6.1	mac	2023-06-02	07:15:15	07:26:32	675169	5c3dfadfef1d0d0001b2870e	4	1	main_slash	11	advance_on_keypress_SLASH	26	stimuli_distractor_trianglediamonds.svg	stimuli_target_rectangletriangles.svg	9	yes	57	0	532	0	0			0	0			1				0	
6.6.1	mac	2023-06-02	07:15:15	07:26:34	676552	5c3dfadfef1d0d0001b2870e	4	1	main_slash	11	main_slash	27	stimuli_target_squaretriangles.svg	stimuli_distractor_diamondtriangles.svg	7	yes	53	1	216	0	0			0	0			1				0	
6.6.1	mac	2023-06-02	07:15:15	07:26:34	676552	5c3dfadfef1d0d0001b2870e	4	1	main_slash	11	advance_on_keypress_SLASH	28	stimuli_target_squaretriangles.svg	stimuli_distractor_diamondtriangles.svg	7	yes	57	0	755	0	0			0	0			1				0	
6.6.1	mac	2023-06-02	07:15:15	07:26:36	678349	5c3dfadfef1d0d0001b2870e	4	1	main_slash	11	main_slash	29	stimuli_distractor_diamondtriangles.svg	stimuli_target_trianglerectangles.svg	29	yes	53	1	417	0	0			0	0			1				0	
6.6.1	mac	2023-06-02	07:15:15	07:26:36	678349	5c3dfadfef1d0d0001b2870e	4	1	main_slash	11	advance_on_keypress_SLASH	30	stimuli_distractor_diamondtriangles.svg	stimuli_target_trianglerectangles.svg	29	yes	57	0	938	0	0			0	0			1				0	
6.6.1	mac	2023-06-02	07:15:15	07:26:37	680153	5c3dfadfef1d0d0001b2870e	4	1	main_slash	11	main_slash	31	stimuli_distractor_diamondtriangles.svg	stimuli_target_squaretriangles.svg	15	yes	53	1	226	0	0			0	0			1				0	
6.6.1	mac	2023-06-02	07:15:15	07:26:37	680153	5c3dfadfef1d0d0001b2870e	4	1	main_slash	11	advance_on_keypress_SLASH	32	stimuli_distractor_diamondtriangles.svg	stimuli_target_squaretriangles.svg	15	yes	57	0	697	0	0			0	0			1				0	
6.6.1	mac	2023-06-02	07:15:15	07:26:41	683464	5c3dfadfef1d0d0001b2870e	4	1	main_slash	11	main_slash	33	stimuli_target_squarediamonds.svg	stimuli_distractor_diamondtriangles.svg	8	yes	0	0	2000	0	0			0	0			1				0	
6.6.1	mac	2023-06-02	07:15:15	07:26:41	683464	5c3dfadfef1d0d0001b2870e	4	1	main_slash	11	advance_on_keypress_SLASH	34	stimuli_target_squarediamonds.svg	stimuli_distractor_diamondtriangles.svg	8	yes	57	0	440	0	0			0	0			1				0	
6.6.1	mac	2023-06-02	07:15:15	07:26:44	686530	5c3dfadfef1d0d0001b2870e	4	1	main_slash	11	main_slash	35	stimuli_distractor_diamondtriangles.svg	stimuli_distractor_diamondtriangles.svg	40	no	0	1	2000	0	0			0	0			1				0	
6.6.1	mac	2023-06-02	07:15:15	07:26:44	686530	5c3dfadfef1d0d0001b2870e	4	1	main_slash	11	advance_on_keypress_SLASH	36	stimuli_distractor_diamondtriangles.svg	stimuli_distractor_diamondtriangles.svg	40	no	57	0	527	0	0			0	0			1				0	
6.6.1	mac	2023-06-02	07:15:15	07:26:46	688258	5c3dfadfef1d0d0001b2870e	4	1	main_slash	11	main_slash	37	stimuli_distractor_diamondtriangles.svg	stimuli_target_trianglesquares.svg	30	yes	53	1	572	0	0			0	0			1				0	
6.6.1	mac	2023-06-02	07:15:15	07:26:46	688258	5c3dfadfef1d0d0001b2870e	4	1	main_slash	11	advance_on_keypress_SLASH	38	stimuli_distractor_diamondtriangles.svg	stimuli_target_trianglesquares.svg	30	yes	57	0	962	0	0			0	0			1				0	
6.6.1	mac	2023-06-02	07:15:15	07:26:49	691851	5c3dfadfef1d0d0001b2870e	4	1	main_slash	11	main_slash	39	stimuli_distractor_trianglediamonds.svg	stimuli_distractor_diamondtriangles.svg	36	no	0	1	2000	0	0			0	0			1				0	
6.6.1	mac	2023-06-02	07:15:15	07:26:49	691851	5c3dfadfef1d0d0001b2870e	4	1	main_slash	11	advance_on_keypress_SLASH	40	stimuli_distractor_trianglediamonds.svg	stimuli_distractor_diamondtriangles.svg	36	no	57	0	686	0	0			0	0			1				0	
6.6.1	mac	2023-06-02	07:15:15	07:26:51	693414	5c3dfadfef1d0d0001b2870e	4	1	main_slash	11	main_slash	41	stimuli_distractor_diamondtriangles.svg	stimuli_distractor_diamondtriangles.svg	39	no	53	0	242	0	0			0	0			1				0	
6.6.1	mac	2023-06-02	07:15:15	07:26:51	693414	5c3dfadfef1d0d0001b2870e	4	1	main_slash	11	advance_on_keypress_SLASH	42	stimuli_distractor_diamondtriangles.svg	stimuli_distractor_diamondtriangles.svg	39	no	57	0	577	0	0			0	0			1				0	
6.6.1	mac	2023-06-02	07:15:15	07:26:52	695028	5c3dfadfef1d0d0001b2870e	4	1	main_slash	11	main_slash	43	stimuli_distractor_diamondtriangles.svg	stimuli_target_diamondrectangles.svg	31	yes	53	1	411	0	0			0	0			1				0	
6.6.1	mac	2023-06-02	07:15:15	07:26:52	695028	5c3dfadfef1d0d0001b2870e	4	1	main_slash	11	advance_on_keypress_SLASH	44	stimuli_distractor_diamondtriangles.svg	stimuli_target_diamondrectangles.svg	31	yes	57	0	707	0	0			0	0			1				0	
6.6.1	mac	2023-06-02	07:15:15	07:26:54	696673	5c3dfadfef1d0d0001b2870e	4	1	main_slash	11	main_slash	45	stimuli_distractor_diamondtriangles.svg	stimuli_target_rectanglediamonds.svg	14	yes	53	1	311	0	0			0	0			1				0	
6.6.1	mac	2023-06-02	07:15:15	07:26:54	696673	5c3dfadfef1d0d0001b2870e	4	1	main_slash	11	advance_on_keypress_SLASH	46	stimuli_distractor_diamondtriangles.svg	stimuli_target_rectanglediamonds.svg	14	yes	57	0	948	0	0			0	0			1				0	
6.6.1	mac	2023-06-02	07:15:15	07:26:56	698961	5c3dfadfef1d0d0001b2870e	4	1	main_slash	11	main_slash	47	stimuli_distractor_diamondtriangles.svg	stimuli_target_diamondsquares.svg	32	yes	53	1	712	0	0			0	0			1				0	
6.6.1	mac	2023-06-02	07:15:15	07:26:56	698961	5c3dfadfef1d0d0001b2870e	4	1	main_slash	11	advance_on_keypress_SLASH	48	stimuli_distractor_diamondtriangles.svg	stimuli_target_diamondsquares.svg	32	yes	57	0	605	0	0			0	0			1				0	
6.6.1	mac	2023-06-02	07:15:15	07:26:58	700411	5c3dfadfef1d0d0001b2870e	4	1	main_slash	11	main_slash	49	stimuli_target_diamondsquares.svg	stimuli_distractor_diamondtriangles.svg	24	yes	53	1	222	0	0			0	0			1				0	
6.6.1	mac	2023-06-02	07:15:15	07:26:58	700411	5c3dfadfef1d0d0001b2870e	4	1	main_slash	11	advance_on_keypress_SLASH	50	stimuli_target_diamondsquares.svg	stimuli_distractor_diamondtriangles.svg	24	yes	57	0	1204	0	0			0	0			1				0	
6.6.1	mac	2023-06-02	07:15:15	07:27:00	702480	5c3dfadfef1d0d0001b2870e	4	1	main_slash	11	main_slash	51	stimuli_target_trianglerectangles.svg	stimuli_distractor_diamondtriangles.svg	21	yes	53	1	237	0	0			0	0			1				0	
6.6.1	mac	2023-06-02	07:15:15	07:27:00	702480	5c3dfadfef1d0d0001b2870e	4	1	main_slash	11	advance_on_keypress_SLASH	52	stimuli_target_trianglerectangles.svg	stimuli_distractor_diamondtriangles.svg	21	yes	57	0	1405	0	0			0	0			1				0	
6.6.1	mac	2023-06-02	07:15:15	07:27:02	704754	5c3dfadfef1d0d0001b2870e	4	1	main_slash	11	main_slash	53	stimuli_distractor_trianglediamonds.svg	stimuli_distractor_diamondtriangles.svg	35	no	53	0	232	0	0			0	0			1				0	
6.6.1	mac	2023-06-02	07:15:15	07:27:02	704754	5c3dfadfef1d0d0001b2870e	4	1	main_slash	11	advance_on_keypress_SLASH	54	stimuli_distractor_trianglediamonds.svg	stimuli_distractor_diamondtriangles.svg	35	no	57	0	640	0	0			0	0			1				0	
6.6.1	mac	2023-06-02	07:15:15	07:27:05	708009	5c3dfadfef1d0d0001b2870e	4	1	main_slash	11	main_slash	55	stimuli_target_rectangletriangles.svg	stimuli_distractor_trianglediamonds.svg	1	yes	0	0	2000	0	0			0	0			1				0	
6.6.1	mac	2023-06-02	07:15:15	07:27:05	708009	5c3dfadfef1d0d0001b2870e	4	1	main_slash	11	advance_on_keypress_SLASH	56	stimuli_target_rectangletriangles.svg	stimuli_distractor_trianglediamonds.svg	1	yes	57	0	675	0	0			0	0			1				0	
6.6.1	mac	2023-06-02	07:15:15	07:27:07	709587	5c3dfadfef1d0d0001b2870e	4	1	main_slash	11	main_slash	57	stimuli_target_diamondsquares.svg	stimuli_distractor_trianglediamonds.svg	20	yes	53	1	284	0	0			0	0			1				0	
6.6.1	mac	2023-06-02	07:15:15	07:27:07	709587	5c3dfadfef1d0d0001b2870e	4	1	main_slash	11	advance_on_keypress_SLASH	58	stimuli_target_diamondsquares.svg	stimuli_distractor_trianglediamonds.svg	20	yes	57	0	32658	0	0			0	0			1				0	
6.6.1	mac	2023-06-02	07:15:15	07:27:40	743209	5c3dfadfef1d0d0001b2870e	4	1	main_slash	11	main_slash	59	stimuli_target_rectanglediamonds.svg	stimuli_distractor_trianglediamonds.svg	2	yes	53	1	328	0	0			0	0			1				0	
6.6.1	mac	2023-06-02	07:15:15	07:27:40	743209	5c3dfadfef1d0d0001b2870e	4	1	main_slash	11	advance_on_keypress_SLASH	60	stimuli_target_rectanglediamonds.svg	stimuli_distractor_trianglediamonds.svg	2	yes	57	0	985	0	0			0	0			1				0	
6.6.1	mac	2023-06-02	07:15:15	07:27:42	745024	5c3dfadfef1d0d0001b2870e	4	1	main_slash	11	main_slash	61	stimuli_target_trianglesquares.svg	stimuli_distractor_diamondtriangles.svg	22	yes	53	1	200	0	0			0	0			1				0	
6.6.1	mac	2023-06-02	07:15:15	07:27:42	745024	5c3dfadfef1d0d0001b2870e	4	1	main_slash	11	advance_on_keypress_SLASH	62	stimuli_target_trianglesquares.svg	stimuli_distractor_diamondtriangles.svg	22	yes	57	0	1527	0	0			0	0			1				0	
6.6.1	mac	2023-06-02	07:15:15	07:27:44	747235	5c3dfadfef1d0d0001b2870e	4	1	main_slash	11	main_slash	63	stimuli_distractor_trianglediamonds.svg	stimuli_target_diamondsquares.svg	28	yes	53	1	67	0	0			0	0			1				0	
6.6.1	mac	2023-06-02	07:15:15	07:27:44	747235	5c3dfadfef1d0d0001b2870e	4	1	main_slash	11	advance_on_keypress_SLASH	64	stimuli_distractor_trianglediamonds.svg	stimuli_target_diamondsquares.svg	28	yes	57	0	1723	0	0			0	0			1				0	
6.6.1	mac	2023-06-02	07:15:15	07:27:49	751580	5c3dfadfef1d0d0001b2870e	4	1	main_slash	11	main_slash	65	stimuli_distractor_trianglediamonds.svg	stimuli_distractor_trianglediamonds.svg	33	no	0	1	2000	0	0			0	0			1				0	
6.6.1	mac	2023-06-02	07:15:15	07:27:49	751580	5c3dfadfef1d0d0001b2870e	4	1	main_slash	11	advance_on_keypress_SLASH	66	stimuli_distractor_trianglediamonds.svg	stimuli_distractor_trianglediamonds.svg	33	no	57	0	457	0	0			0	0			1				0	
6.6.1	mac	2023-06-02	07:15:15	07:27:50	753130	5c3dfadfef1d0d0001b2870e	4	1	main_slash	11	main_slash	67	stimuli_distractor_trianglediamonds.svg	stimuli_target_trianglesquares.svg	26	yes	53	1	474	0	0			0	0			1				0	
6.6.1	mac	2023-06-02	07:15:15	07:27:50	753130	5c3dfadfef1d0d0001b2870e	4	1	main_slash	11	advance_on_keypress_SLASH	68	stimuli_distractor_trianglediamonds.svg	stimuli_target_trianglesquares.svg	26	yes	57	0	768	0	0			0	0			1				0	
6.6.1	mac	2023-06-02	07:15:15	07:27:52	755181	5c3dfadfef1d0d0001b2870e	4	1	main_slash	11	main_slash	69	stimuli_target_rectanglediamonds.svg	stimuli_distractor_diamondtriangles.svg	6	yes	53	1	657	0	0			0	0			1				0	
6.6.1	mac	2023-06-02	07:15:15	07:27:52	755181	5c3dfadfef1d0d0001b2870e	4	1	main_slash	11	advance_on_keypress_SLASH	70	stimuli_target_rectanglediamonds.svg	stimuli_distractor_diamondtriangles.svg	6	yes	57	0	565	0	0			0	0			1				0	
6.6.1	mac	2023-06-02	07:15:15	07:27:54	756565	5c3dfadfef1d0d0001b2870e	4	1	main_slash	11	main_slash	71	stimuli_target_diamondrectangles.svg	stimuli_distractor_trianglediamonds.svg	19	yes	53	1	194	0	0			0	0			1				0	
6.6.1	mac	2023-06-02	07:15:15	07:27:54	756565	5c3dfadfef1d0d0001b2870e	4	1	main_slash	11	advance_on_keypress_SLASH	72	stimuli_target_diamondrectangles.svg	stimuli_distractor_trianglediamonds.svg	19	yes	57	0	1142	0	0			0	0			1				0	
6.6.1	mac	2023-06-02	07:15:15	07:27:58	760317	5c3dfadfef1d0d0001b2870e	4	1	main_slash	11	main_slash	73	stimuli_distractor_diamondtriangles.svg	stimuli_distractor_trianglediamonds.svg	37	no	0	1	2000	0	0			0	0			1				0	
6.6.1	mac	2023-06-02	07:15:15	07:27:58	760317	5c3dfadfef1d0d0001b2870e	4	1	main_slash	11	advance_on_keypress_SLASH	74	stimuli_distractor_diamondtriangles.svg	stimuli_distractor_trianglediamonds.svg	37	no	57	0	771	0	0			0	0			1				0	
6.6.1	mac	2023-06-02	07:15:15	07:27:59	761997	5c3dfadfef1d0d0001b2870e	4	1	main_slash	11	main_slash	75	stimuli_target_squarediamonds.svg	stimuli_distractor_trianglediamonds.svg	4	yes	53	1	288	0	0			0	0			1				0	
6.6.1	mac	2023-06-02	07:15:15	07:27:59	761997	5c3dfadfef1d0d0001b2870e	4	1	main_slash	11	advance_on_keypress_SLASH	76	stimuli_target_squarediamonds.svg	stimuli_distractor_trianglediamonds.svg	4	yes	57	0	664	0	0			0	0			1				0	
6.6.1	mac	2023-06-02	07:15:15	07:28:03	765294	5c3dfadfef1d0d0001b2870e	4	1	main_slash	11	main_slash	77	stimuli_target_rectangletriangles.svg	stimuli_distractor_diamondtriangles.svg	5	yes	0	0	2000	0	0			0	0			1				0	
6.6.1	mac	2023-06-02	07:15:15	07:28:03	765294	5c3dfadfef1d0d0001b2870e	4	1	main_slash	11	advance_on_keypress_SLASH	78	stimuli_target_rectangletriangles.svg	stimuli_distractor_diamondtriangles.svg	5	yes	57	0	612	0	0			0	0			1				0	
6.6.1	mac	2023-06-02	07:15:15	07:28:06	768529	5c3dfadfef1d0d0001b2870e	4	1	main_slash	11	main_slash	79	stimuli_distractor_trianglediamonds.svg	stimuli_distractor_trianglediamonds.svg	34	no	0	1	2000	0	0			0	0			1				0	
6.6.1	mac	2023-06-02	07:15:15	07:28:06	768529	5c3dfadfef1d0d0001b2870e	4	1	main_slash	11	advance_on_keypress_SLASH	80	stimuli_distractor_trianglediamonds.svg	stimuli_distractor_trianglediamonds.svg	34	no	57	0	455	0	0			0	0			1				0	
6.6.1	mac	2023-06-02	07:15:15	07:28:09	771614	5c3dfadfef1d0d0001b2870e	4	1	main_slash	11	main_slash	81	stimuli_distractor_trianglediamonds.svg	stimuli_distractor_trianglediamonds.svg	34	no	0	1	2000	0	0			0	0			1				0	
6.6.1	mac	2023-06-02	07:15:15	07:28:09	771614	5c3dfadfef1d0d0001b2870e	4	1	main_slash	11	advance_on_keypress_SLASH	82	stimuli_distractor_trianglediamonds.svg	stimuli_distractor_trianglediamonds.svg	34	no	57	0	20548	0	0			0	0			1				0	
6.6.1	mac	2023-06-02	07:15:15	07:28:31	793306	5c3dfadfef1d0d0001b2870e	4	1	main_slash	11	main_slash	83	stimuli_target_squaretriangles.svg	stimuli_distractor_trianglediamonds.svg	3	yes	53	1	515	0	0			0	0			1				0	
6.6.1	mac	2023-06-02	07:15:15	07:28:31	793306	5c3dfadfef1d0d0001b2870e	4	1	main_slash	11	advance_on_keypress_SLASH	84	stimuli_target_squaretriangles.svg	stimuli_distractor_trianglediamonds.svg	3	yes	57	0	1546	0	0			0	0			1				0	
6.6.1	mac	2023-06-02	07:15:15	07:28:33	795883	5c3dfadfef1d0d0001b2870e	4	1	main_slash	11	main_slash	85	stimuli_target_rectangletriangles.svg	stimuli_distractor_diamondtriangles.svg	5	yes	53	1	400	0	0			0	0			1				0	
6.6.1	mac	2023-06-02	07:15:15	07:28:33	795883	5c3dfadfef1d0d0001b2870e	4	1	main_slash	11	advance_on_keypress_SLASH	86	stimuli_target_rectangletriangles.svg	stimuli_distractor_diamondtriangles.svg	5	yes	57	0	1414	0	0			0	0			1				0	
6.6.1	mac	2023-06-02	07:15:15	07:28:35	798181	5c3dfadfef1d0d0001b2870e	4	1	main_slash	11	main_slash	87	stimuli_distractor_diamondtriangles.svg	stimuli_target_squarediamonds.svg	16	yes	53	1	256	0	0			0	0			1				0	
6.6.1	mac	2023-06-02	07:15:15	07:28:35	798181	5c3dfadfef1d0d0001b2870e	4	1	main_slash	11	advance_on_keypress_SLASH	88	stimuli_distractor_diamondtriangles.svg	stimuli_target_squarediamonds.svg	16	yes	57	0	885	0	0			0	0			1				0	
6.6.1	mac	2023-06-02	07:15:15	07:28:37	799968	5c3dfadfef1d0d0001b2870e	4	1	main_slash	11	main_slash	89	stimuli_target_squaretriangles.svg	stimuli_distractor_diamondtriangles.svg	7	yes	53	1	283	0	0			0	0			1				0	
6.6.1	mac	2023-06-02	07:15:15	07:28:37	799968	5c3dfadfef1d0d0001b2870e	4	1	main_slash	11	advance_on_keypress_SLASH	90	stimuli_target_squaretriangles.svg	stimuli_distractor_diamondtriangles.svg	7	yes	57	0	987	0	0			0	0			1				0	
6.6.1	mac	2023-06-02	07:15:15	07:28:39	801847	5c3dfadfef1d0d0001b2870e	4	1	main_slash	11	main_slash	91	stimuli_target_squarediamonds.svg	stimuli_distractor_diamondtriangles.svg	8	yes	53	1	266	0	0			0	0			1				0	
6.6.1	mac	2023-06-02	07:15:15	07:28:39	801847	5c3dfadfef1d0d0001b2870e	4	1	main_slash	11	advance_on_keypress_SLASH	92	stimuli_target_squarediamonds.svg	stimuli_distractor_diamondtriangles.svg	8	yes	57	0	819	0	0			0	0			1				0	
6.6.1	mac	2023-06-02	07:15:15	07:28:41	803537	5c3dfadfef1d0d0001b2870e	4	1	main_slash	11	main_slash	93	stimuli_target_squarediamonds.svg	stimuli_distractor_trianglediamonds.svg	4	yes	53	1	248	0	0			0	0			1				0	
6.6.1	mac	2023-06-02	07:15:15	07:28:41	803537	5c3dfadfef1d0d0001b2870e	4	1	main_slash	11	advance_on_keypress_SLASH	94	stimuli_target_squarediamonds.svg	stimuli_distractor_trianglediamonds.svg	4	yes	57	0	593	0	0			0	0			1				0	
6.6.1	mac	2023-06-02	07:15:15	07:28:43	805281	5c3dfadfef1d0d0001b2870e	4	1	main_slash	11	main_slash	95	stimuli_target_diamondsquares.svg	stimuli_distractor_trianglediamonds.svg	20	yes	53	1	535	0	0			0	0			1				0	
6.6.1	mac	2023-06-02	07:15:15	07:28:43	805281	5c3dfadfef1d0d0001b2870e	4	1	main_slash	11	advance_on_keypress_SLASH	96	stimuli_target_diamondsquares.svg	stimuli_distractor_trianglediamonds.svg	20	yes	57	0	621	0	0			0	0			1				0	
6.6.1	mac	2023-06-02	07:15:15	07:28:44	806683	5c3dfadfef1d0d0001b2870e	4	1	main_slash	11	main_slash	97	stimuli_distractor_diamondtriangles.svg	stimuli_distractor_diamondtriangles.svg	39	no	53	0	142	0	0			0	0			1				0	
6.6.1	mac	2023-06-02	07:15:15	07:28:44	806683	5c3dfadfef1d0d0001b2870e	4	1	main_slash	11	advance_on_keypress_SLASH	98	stimuli_distractor_diamondtriangles.svg	stimuli_distractor_diamondtriangles.svg	39	no	57	0	620	0	0			0	0			1				0	
6.6.1	mac	2023-06-02	07:15:15	07:28:47	809938	5c3dfadfef1d0d0001b2870e	4	1	main_slash	11	main_slash	99	stimuli_target_diamondsquares.svg	stimuli_distractor_diamondtriangles.svg	24	yes	0	0	2000	0	0			0	0			1				0	
6.6.1	mac	2023-06-02	07:15:15	07:28:47	809938	5c3dfadfef1d0d0001b2870e	4	1	main_slash	11	advance_on_keypress_SLASH	100	stimuli_target_diamondsquares.svg	stimuli_distractor_diamondtriangles.svg	24	yes	57	0	578	0	0			0	0			1				0	
6.6.1	mac	2023-06-02	07:15:15	07:28:49	811393	5c3dfadfef1d0d0001b2870e	4	1	main_slash	11	main_slash	101	stimuli_distractor_diamondtriangles.svg	stimuli_target_squaretriangles.svg	15	yes	53	1	248	0	0			0	0			1				0	
6.6.1	mac	2023-06-02	07:15:15	07:28:49	811393	5c3dfadfef1d0d0001b2870e	4	1	main_slash	11	advance_on_keypress_SLASH	102	stimuli_distractor_diamondtriangles.svg	stimuli_target_squaretriangles.svg	15	yes	57	0	814	0	0			0	0			1				0	
6.6.1	mac	2023-06-02	07:15:15	07:28:50	813157	5c3dfadfef1d0d0001b2870e	4	1	main_slash	11	main_slash	103	stimuli_distractor_diamondtriangles.svg	stimuli_target_rectanglediamonds.svg	14	yes	53	1	323	0	0			0	0			1				0	
6.6.1	mac	2023-06-02	07:15:15	07:28:50	813157	5c3dfadfef1d0d0001b2870e	4	1	main_slash	11	advance_on_keypress_SLASH	104	stimuli_distractor_diamondtriangles.svg	stimuli_target_rectanglediamonds.svg	14	yes	57	0	720	0	0			0	0			1				0	
6.6.1	mac	2023-06-02	07:15:15	07:28:52	814741	5c3dfadfef1d0d0001b2870e	4	1	main_slash	11	main_slash	105	stimuli_distractor_trianglediamonds.svg	stimuli_target_trianglerectangles.svg	25	yes	53	1	239	0	0			0	0			1				0	
6.6.1	mac	2023-06-02	07:15:15	07:28:52	814741	5c3dfadfef1d0d0001b2870e	4	1	main_slash	11	advance_on_keypress_SLASH	106	stimuli_distractor_trianglediamonds.svg	stimuli_target_trianglerectangles.svg	25	yes	57	0	556	0	0			0	0			1				0	
6.6.1	mac	2023-06-02	07:15:15	07:28:54	816646	5c3dfadfef1d0d0001b2870e	4	1	main_slash	11	main_slash	107	stimuli_distractor_trianglediamonds.svg	stimuli_target_trianglesquares.svg	26	yes	53	1	718	0	0			0	0			1				0	
6.6.1	mac	2023-06-02	07:15:15	07:28:54	816646	5c3dfadfef1d0d0001b2870e	4	1	main_slash	11	advance_on_keypress_SLASH	108	stimuli_distractor_trianglediamonds.svg	stimuli_target_trianglesquares.svg	26	yes	57	0	669	0	0			0	0			1				0	
6.6.1	mac	2023-06-02	07:15:15	07:28:57	819949	5c3dfadfef1d0d0001b2870e	4	1	main_slash	11	main_slash	109	stimuli_target_trianglerectangles.svg	stimuli_distractor_trianglediamonds.svg	17	yes	0	0	2000	0	0			0	0			1				0	
6.6.1	mac	2023-06-02	07:15:15	07:28:57	819949	5c3dfadfef1d0d0001b2870e	4	1	main_slash	11	advance_on_keypress_SLASH	110	stimuli_target_trianglerectangles.svg	stimuli_distractor_trianglediamonds.svg	17	yes	57	0	493	0	0			0	0			1				0	
6.6.1	mac	2023-06-02	07:15:15	07:29:00	823067	5c3dfadfef1d0d0001b2870e	4	1	main_slash	11	main_slash	111	stimuli_distractor_trianglediamonds.svg	stimuli_distractor_trianglediamonds.svg	33	no	0	1	2000	0	0			0	0			1				0	
6.6.1	mac	2023-06-02	07:15:15	07:29:00	823067	5c3dfadfef1d0d0001b2870e	4	1	main_slash	11	advance_on_keypress_SLASH	112	stimuli_distractor_trianglediamonds.svg	stimuli_distractor_trianglediamonds.svg	33	no	57	0	381	0	0			0	0			1				0	
6.6.1	mac	2023-06-02	07:15:15	07:29:02	824304	5c3dfadfef1d0d0001b2870e	4	1	main_slash	11	main_slash	113	stimuli_target_rectangletriangles.svg	stimuli_distractor_trianglediamonds.svg	1	yes	53	1	229	0	0			0	0			1				0	
6.6.1	mac	2023-06-02	07:15:15	07:29:02	824304	5c3dfadfef1d0d0001b2870e	4	1	main_slash	11	advance_on_keypress_SLASH	114	stimuli_target_rectangletriangles.svg	stimuli_distractor_trianglediamonds.svg	1	yes	57	0	1309	0	0			0	0			1				0	
6.6.1	mac	2023-06-02	07:15:15	07:29:05	828225	5c3dfadfef1d0d0001b2870e	4	1	main_slash	11	main_slash	115	stimuli_distractor_trianglediamonds.svg	stimuli_target_rectanglediamonds.svg	10	yes	0	0	2000	0	0			0	0			1				0	
6.6.1	mac	2023-06-02	07:15:15	07:29:05	828225	5c3dfadfef1d0d0001b2870e	4	1	main_slash	11	advance_on_keypress_SLASH	116	stimuli_distractor_trianglediamonds.svg	stimuli_target_rectanglediamonds.svg	10	yes	57	0	562	0	0			0	0			1				0	
6.6.1	mac	2023-06-02	07:15:15	07:29:07	829725	5c3dfadfef1d0d0001b2870e	4	1	main_slash	11	main_slash	117	stimuli_distractor_trianglediamonds.svg	stimuli_target_diamondsquares.svg	28	yes	53	1	294	0	0			0	0			1				0	
6.6.1	mac	2023-06-02	07:15:15	07:29:07	829725	5c3dfadfef1d0d0001b2870e	4	1	main_slash	11	advance_on_keypress_SLASH	118	stimuli_distractor_trianglediamonds.svg	stimuli_target_diamondsquares.svg	28	yes	57	0	1058	0	0			0	0			1				0	
6.6.1	mac	2023-06-02	07:15:15	07:29:11	833413	5c3dfadfef1d0d0001b2870e	4	1	main_slash	11	main_slash	119	stimuli_target_diamondrectangles.svg	stimuli_distractor_diamondtriangles.svg	23	yes	0	0	2000	0	0			0	0			1				0	
6.6.1	mac	2023-06-02	07:15:15	07:29:11	833413	5c3dfadfef1d0d0001b2870e	4	1	main_slash	11	advance_on_keypress_SLASH	120	stimuli_target_diamondrectangles.svg	stimuli_distractor_diamondtriangles.svg	23	yes	57	0	471	0	0			0	0			1				0	
6.6.1	mac	2023-06-02	07:15:15	07:29:12	834777	5c3dfadfef1d0d0001b2870e	4	1	main_slash	11	main_slash	121	stimuli_distractor_trianglediamonds.svg	stimuli_distractor_diamondtriangles.svg	36	no	53	0	275	0	0			0	0			1				0	
6.6.1	mac	2023-06-02	07:15:15	07:29:12	834777	5c3dfadfef1d0d0001b2870e	4	1	main_slash	11	advance_on_keypress_SLASH	122	stimuli_distractor_trianglediamonds.svg	stimuli_distractor_diamondtriangles.svg	36	no	57	0	714	0	0			0	0			1				0	
6.6.1	mac	2023-06-02	07:15:15	07:29:14	836499	5c3dfadfef1d0d0001b2870e	4	1	main_slash	11	main_slash	123	stimuli_distractor_trianglediamonds.svg	stimuli_target_rectangletriangles.svg	9	yes	53	1	383	0	0			0	0			1				0	
6.6.1	mac	2023-06-02	07:15:15	07:29:14	836499	5c3dfadfef1d0d0001b2870e	4	1	main_slash	11	advance_on_keypress_SLASH	124	stimuli_distractor_trianglediamonds.svg	stimuli_target_rectangletriangles.svg	9	yes	57	0	558	0	0			0	0			1				0	
6.6.1	mac	2023-06-02	07:15:15	07:29:15	838250	5c3dfadfef1d0d0001b2870e	4	1	main_slash	11	main_slash	125	stimuli_distractor_diamondtriangles.svg	stimuli_target_trianglerectangles.svg	29	yes	53	1	565	0	0			0	0			1				0	
6.6.1	mac	2023-06-02	07:15:15	07:29:15	838250	5c3dfadfef1d0d0001b2870e	4	1	main_slash	11	advance_on_keypress_SLASH	126	stimuli_distractor_diamondtriangles.svg	stimuli_target_trianglerectangles.svg	29	yes	57	0	769	0	0			0	0			1				0	
6.6.1	mac	2023-06-02	07:15:15	07:29:19	841642	5c3dfadfef1d0d0001b2870e	4	1	main_slash	11	main_slash	127	stimuli_distractor_diamondtriangles.svg	stimuli_target_diamondrectangles.svg	31	yes	0	0	2000	0	0			0	0			1				0	
6.6.1	mac	2023-06-02	07:15:15	07:29:19	841642	5c3dfadfef1d0d0001b2870e	4	1	main_slash	11	advance_on_keypress_SLASH	128	stimuli_distractor_diamondtriangles.svg	stimuli_target_diamondrectangles.svg	31	yes	57	0	563	0	0			0	0			1				0	
6.6.1	mac	2023-06-02	07:15:15	07:29:20	843074	5c3dfadfef1d0d0001b2870e	4	1	main_slash	11	main_slash	129	stimuli_target_trianglesquares.svg	stimuli_distractor_trianglediamonds.svg	18	yes	53	1	239	0	0			0	0			1				0	
6.6.1	mac	2023-06-02	07:15:15	07:29:20	843074	5c3dfadfef1d0d0001b2870e	4	1	main_slash	11	advance_on_keypress_SLASH	130	stimuli_target_trianglesquares.svg	stimuli_distractor_trianglediamonds.svg	18	yes	57	0	1009	0	0			0	0			1				0	
6.6.1	mac	2023-06-02	07:15:15	07:29:24	846721	5c3dfadfef1d0d0001b2870e	4	1	main_slash	11	main_slash	131	stimuli_distractor_diamondtriangles.svg	stimuli_distractor_trianglediamonds.svg	38	no	0	1	2000	0	0			0	0			1				0	
6.6.1	mac	2023-06-02	07:15:15	07:29:24	846721	5c3dfadfef1d0d0001b2870e	4	1	main_slash	11	advance_on_keypress_SLASH	132	stimuli_distractor_diamondtriangles.svg	stimuli_distractor_trianglediamonds.svg	38	no	57	0	389	0	0			0	0			1				0	
6.6.1	mac	2023-06-02	07:15:15	07:29:25	847978	5c3dfadfef1d0d0001b2870e	4	1	main_slash	11	main_slash	133	stimuli_distractor_diamondtriangles.svg	stimuli_target_diamondsquares.svg	32	yes	53	1	246	0	0			0	0			1				0	
6.6.1	mac	2023-06-02	07:15:15	07:29:25	847978	5c3dfadfef1d0d0001b2870e	4	1	main_slash	11	advance_on_keypress_SLASH	134	stimuli_distractor_diamondtriangles.svg	stimuli_target_diamondsquares.svg	32	yes	57	0	1022	0	0			0	0			1				0	
6.6.1	mac	2023-06-02	07:15:15	07:29:27	849876	5c3dfadfef1d0d0001b2870e	4	1	main_slash	11	main_slash	135	stimuli_target_trianglerectangles.svg	stimuli_distractor_diamondtriangles.svg	21	yes	53	1	255	0	0			0	0			1				0	
6.6.1	mac	2023-06-02	07:15:15	07:29:27	849876	5c3dfadfef1d0d0001b2870e	4	1	main_slash	11	advance_on_keypress_SLASH	136	stimuli_target_trianglerectangles.svg	stimuli_distractor_diamondtriangles.svg	21	yes	57	0	1013	0	0			0	0			1				0	
6.6.1	mac	2023-06-02	07:15:15	07:29:29	851754	5c3dfadfef1d0d0001b2870e	4	1	main_slash	11	main_slash	137	stimuli_distractor_diamondtriangles.svg	stimuli_target_rectangletriangles.svg	13	yes	53	1	238	0	0			0	0			1				0	
6.6.1	mac	2023-06-02	07:15:15	07:29:29	851754	5c3dfadfef1d0d0001b2870e	4	1	main_slash	11	advance_on_keypress_SLASH	138	stimuli_distractor_diamondtriangles.svg	stimuli_target_rectangletriangles.svg	13	yes	57	0	2390	0	0			0	0			1				0	
6.6.1	mac	2023-06-02	07:15:15	07:29:32	855002	5c3dfadfef1d0d0001b2870e	4	1	main_slash	11	main_slash	139	stimuli_distractor_trianglediamonds.svg	stimuli_target_squaretriangles.svg	11	yes	53	1	235	0	0			0	0			1				0	
6.6.1	mac	2023-06-02	07:15:15	07:29:32	855002	5c3dfadfef1d0d0001b2870e	4	1	main_slash	11	advance_on_keypress_SLASH	140	stimuli_distractor_trianglediamonds.svg	stimuli_target_squaretriangles.svg	11	yes	57	0	1202	0	0			0	0			1				0	
6.6.1	mac	2023-06-02	07:15:15	07:29:34	857055	5c3dfadfef1d0d0001b2870e	4	1	main_slash	11	main_slash	141	stimuli_distractor_trianglediamonds.svg	stimuli_distractor_diamondtriangles.svg	35	no	53	0	225	0	0			0	0			1				0	
6.6.1	mac	2023-06-02	07:15:15	07:29:34	857055	5c3dfadfef1d0d0001b2870e	4	1	main_slash	11	advance_on_keypress_SLASH	142	stimuli_distractor_trianglediamonds.svg	stimuli_distractor_diamondtriangles.svg	35	no	57	0	1558	0	0			0	0			1				0	
6.6.1	mac	2023-06-02	07:15:15	07:29:37	859479	5c3dfadfef1d0d0001b2870e	4	1	main_slash	11	main_slash	143	stimuli_distractor_trianglediamonds.svg	stimuli_target_diamondrectangles.svg	27	yes	53	1	242	0	0			0	0			1				0	
6.6.1	mac	2023-06-02	07:15:15	07:29:37	859479	5c3dfadfef1d0d0001b2870e	4	1	main_slash	11	advance_on_keypress_SLASH	144	stimuli_distractor_trianglediamonds.svg	stimuli_target_diamondrectangles.svg	27	yes	57	0	1062	0	0			0	0			1				0	
6.6.1	mac	2023-06-02	07:15:15	07:29:39	861416	5c3dfadfef1d0d0001b2870e	4	1	main_slash	11	main_slash	145	stimuli_distractor_trianglediamonds.svg	stimuli_target_squarediamonds.svg	12	yes	53	1	237	0	0			0	0			1				0	
6.6.1	mac	2023-06-02	07:15:15	07:29:39	861416	5c3dfadfef1d0d0001b2870e	4	1	main_slash	11	advance_on_keypress_SLASH	146	stimuli_distractor_trianglediamonds.svg	stimuli_target_squarediamonds.svg	12	yes	57	0	1033	0	0			0	0			1				0	
6.6.1	mac	2023-06-02	07:15:15	07:29:42	865078	5c3dfadfef1d0d0001b2870e	4	1	main_slash	11	main_slash	147	stimuli_target_rectanglediamonds.svg	stimuli_distractor_trianglediamonds.svg	2	yes	0	0	2000	0	0			0	0			1				0	
6.6.1	mac	2023-06-02	07:15:15	07:29:42	865078	5c3dfadfef1d0d0001b2870e	4	1	main_slash	11	advance_on_keypress_SLASH	148	stimuli_target_rectanglediamonds.svg	stimuli_distractor_trianglediamonds.svg	2	yes	57	0	376	0	0			0	0			1				0	
6.6.1	mac	2023-06-02	07:15:15	07:29:44	866346	5c3dfadfef1d0d0001b2870e	4	1	main_slash	11	main_slash	149	stimuli_distractor_diamondtriangles.svg	stimuli_distractor_trianglediamonds.svg	37	no	53	0	265	0	0			0	0			1				0	
6.6.1	mac	2023-06-02	07:15:15	07:29:44	866346	5c3dfadfef1d0d0001b2870e	4	1	main_slash	11	advance_on_keypress_SLASH	150	stimuli_distractor_diamondtriangles.svg	stimuli_distractor_trianglediamonds.svg	37	no	57	0	828	0	0			0	0			1				0	
6.6.1	mac	2023-06-02	07:15:15	07:29:47	869787	5c3dfadfef1d0d0001b2870e	4	1	main_slash	11	main_slash	151	stimuli_distractor_diamondtriangles.svg	stimuli_distractor_diamondtriangles.svg	40	no	0	1	2000	0	0			0	0			1				0	
6.6.1	mac	2023-06-02	07:15:15	07:29:47	869787	5c3dfadfef1d0d0001b2870e	4	1	main_slash	11	advance_on_keypress_SLASH	152	stimuli_distractor_diamondtriangles.svg	stimuli_distractor_diamondtriangles.svg	40	no	57	0	521	0	0			0	0			1				0	
6.6.1	mac	2023-06-02	07:15:15	07:29:48	871128	5c3dfadfef1d0d0001b2870e	4	1	main_slash	11	main_slash	153	stimuli_target_trianglesquares.svg	stimuli_distractor_diamondtriangles.svg	22	yes	53	1	197	0	0			0	0			1				0	
6.6.1	mac	2023-06-02	07:15:15	07:29:48	871128	5c3dfadfef1d0d0001b2870e	4	1	main_slash	11	advance_on_keypress_SLASH	154	stimuli_target_trianglesquares.svg	stimuli_distractor_diamondtriangles.svg	22	yes	57	0	1293	0	0			0	0			1				0	
6.6.1	mac	2023-06-02	07:15:15	07:29:51	873386	5c3dfadfef1d0d0001b2870e	4	1	main_slash	11	main_slash	155	stimuli_distractor_diamondtriangles.svg	stimuli_target_trianglesquares.svg	30	yes	53	1	345	0	0			0	0			1				0	
6.6.1	mac	2023-06-02	07:15:15	07:29:51	873386	5c3dfadfef1d0d0001b2870e	4	1	main_slash	11	advance_on_keypress_SLASH	156	stimuli_distractor_diamondtriangles.svg	stimuli_target_trianglesquares.svg	30	yes	57	0	803	0	0			0	0			1				0	
6.6.1	mac	2023-06-02	07:15:15	07:29:54	876811	5c3dfadfef1d0d0001b2870e	4	1	main_slash	11	main_slash	157	stimuli_target_diamondrectangles.svg	stimuli_distractor_trianglediamonds.svg	19	yes	0	0	2000	0	0			0	0			1				0	
6.6.1	mac	2023-06-02	07:15:15	07:29:54	876811	5c3dfadfef1d0d0001b2870e	4	1	main_slash	11	advance_on_keypress_SLASH	158	stimuli_target_diamondrectangles.svg	stimuli_distractor_trianglediamonds.svg	19	yes	57	0	421	0	0			0	0			1				0	
6.6.1	mac	2023-06-02	07:15:15	07:29:57	879865	5c3dfadfef1d0d0001b2870e	4	1	main_slash	11	main_slash	159	stimuli_target_rectanglediamonds.svg	stimuli_distractor_diamondtriangles.svg	6	yes	0	0	2000	0	0			0	0			1				0	
6.6.1	mac	2023-06-02	07:15:15	07:29:57	879865	5c3dfadfef1d0d0001b2870e	4	1	main_slash	11	advance_on_keypress_SLASH	160	stimuli_target_rectanglediamonds.svg	stimuli_distractor_diamondtriangles.svg	6	yes	57	0	468	0	0			0	0			1				0	
6.6.1	mac	2023-06-02	07:15:15	07:29:57	879865	5c3dfadfef1d0d0001b2870e	4	1	headphonecheck_calibration	14	headphonecheck_calibrationIntro	1	stimuli_target_rectanglediamonds.svg	stimuli_distractor_diamondtriangles.svg	6	yes	calibrationButton	0	1690	0	0			0	0			1				0	
6.6.1	mac	2023-06-02	07:15:15	07:29:57	879865	5c3dfadfef1d0d0001b2870e	4	1	headphonecheck_testphase	15	test_collectResponse	3	stimuli_target_rectanglediamonds.svg	stimuli_distractor_diamondtriangles.svg	6	yes	second	1	417	1	5	antiphase_hc_osi.wav	2	0	0			1				0	
6.6.1	mac	2023-06-02	07:15:15	07:29:57	879865	5c3dfadfef1d0d0001b2870e	4	1	headphonecheck_testphase	15	test_collectResponse	6	stimuli_target_rectanglediamonds.svg	stimuli_distractor_diamondtriangles.svg	6	yes	third	1	200	2	6	antiphase_hc_ois.wav	3	0	0			1				0	
6.6.1	mac	2023-06-02	07:15:15	07:29:57	879865	5c3dfadfef1d0d0001b2870e	4	1	headphonecheck_testphase	15	test_collectResponse	9	stimuli_target_rectanglediamonds.svg	stimuli_distractor_diamondtriangles.svg	6	yes	third	1	177	3	2	antiphase_hc_ios.wav	3	0	0			1				0	
6.6.1	mac	2023-06-02	07:15:15	07:29:57	879865	5c3dfadfef1d0d0001b2870e	4	1	headphonecheck_testphase	15	test_collectResponse	12	stimuli_target_rectanglediamonds.svg	stimuli_distractor_diamondtriangles.svg	6	yes	first	1	163	4	3	antiphase_hc_soi.wav	1	0	0			1				0	
6.6.1	mac	2023-06-02	07:15:15	07:29:57	879865	5c3dfadfef1d0d0001b2870e	4	1	headphonecheck_testphase	15	test_collectResponse	15	stimuli_target_rectanglediamonds.svg	stimuli_distractor_diamondtriangles.svg	6	yes	second	1	195	5	1	antiphase_hc_iso.wav	2	0	0			1				0	
6.6.1	mac	2023-06-02	07:15:15	07:29:57	879865	5c3dfadfef1d0d0001b2870e	4	1	headphonecheck_testphase	15	test_collectResponse	18	stimuli_target_rectanglediamonds.svg	stimuli_distractor_diamondtriangles.svg	6	yes	first	1	455	6	4	antiphase_hc_sio.wav	1	0	0			1				0	
6.6.1	mac	2023-06-02	07:15:15	07:29:57	879865	5c3dfadfef1d0d0001b2870e	4	1	stereocheck_calibration	17	stereocheck_calibrationIntro	1	stimuli_target_rectanglediamonds.svg	stimuli_distractor_diamondtriangles.svg	6	yes	stereocheck_calibrationButton	0	2828	6	4	antiphase_hc_sio.wav	1	0	0			1				0	
6.6.1	mac	2023-06-02	07:15:15	07:29:57	879865	5c3dfadfef1d0d0001b2870e	4	1	stereocheck_testphase	18	stereocheck_test_collectResponse	3	stimuli_target_rectanglediamonds.svg	stimuli_distractor_diamondtriangles.svg	6	yes	stereocheck_right	1	363	6	4	antiphase_hc_sio.wav	1	1	6	noise_calib_stim_RIGHT.wav	2	1				0	
6.6.1	mac	2023-06-02	07:15:15	07:29:57	879865	5c3dfadfef1d0d0001b2870e	4	1	stereocheck_testphase	18	stereocheck_test_collectResponse	6	stimuli_target_rectanglediamonds.svg	stimuli_distractor_diamondtriangles.svg	6	yes	stereocheck_right	1	188	6	4	antiphase_hc_sio.wav	1	2	5	noise_calib_stim_RIGHT.wav	2	1				0	
6.6.1	mac	2023-06-02	07:15:15	07:29:57	879865	5c3dfadfef1d0d0001b2870e	4	1	stereocheck_testphase	18	stereocheck_test_collectResponse	9	stimuli_target_rectanglediamonds.svg	stimuli_distractor_diamondtriangles.svg	6	yes	stereocheck_left	1	369	6	4	antiphase_hc_sio.wav	1	3	2	noise_calib_stim_LEFT.wav	1	1				0	
6.6.1	mac	2023-06-02	07:15:15	07:29:57	879865	5c3dfadfef1d0d0001b2870e	4	1	stereocheck_testphase	18	stereocheck_test_collectResponse	12	stimuli_target_rectanglediamonds.svg	stimuli_distractor_diamondtriangles.svg	6	yes	stereocheck_left	1	196	6	4	antiphase_hc_sio.wav	1	4	3	noise_calib_stim_LEFT.wav	1	1				0	
6.6.1	mac	2023-06-02	07:15:15	07:29:57	879865	5c3dfadfef1d0d0001b2870e	4	1	stereocheck_testphase	18	stereocheck_test_collectResponse	15	stimuli_target_rectanglediamonds.svg	stimuli_distractor_diamondtriangles.svg	6	yes	stereocheck_right	1	236	6	4	antiphase_hc_sio.wav	1	5	4	noise_calib_stim_RIGHT.wav	2	1				0	
6.6.1	mac	2023-06-02	07:15:15	07:29:57	879865	5c3dfadfef1d0d0001b2870e	4	1	stereocheck_testphase	18	stereocheck_test_collectResponse	18	stimuli_target_rectanglediamonds.svg	stimuli_distractor_diamondtriangles.svg	6	yes	stereocheck_left	1	193	6	4	antiphase_hc_sio.wav	1	6	1	noise_calib_stim_LEFT.wav	1	1				0	
6.6.1	mac	2023-06-02	07:15:15	07:29:57	879865	5c3dfadfef1d0d0001b2870e	4	1	DL_practice	21	DL_practice	2	stimuli_target_rectanglediamonds.svg	stimuli_distractor_diamondtriangles.svg	6	yes	pa	1	1746	6	4	antiphase_hc_sio.wav	1	6	1	noise_calib_stim_LEFT.wav	1	29	blb_dichoticlistening_pa-pa.mp3	pa	pa	0	left
6.6.1	mac	2023-06-02	07:15:15	07:29:57	879865	5c3dfadfef1d0d0001b2870e	4	1	DL_practice	21	DL_practice	3	stimuli_target_rectanglediamonds.svg	stimuli_distractor_diamondtriangles.svg	6	yes	ka	0	1146	6	4	antiphase_hc_sio.wav	1	6	1	noise_calib_stim_LEFT.wav	1	18	blb_dichoticlistening_ga-ta.mp3	ga	ta	1	other
6.6.1	mac	2023-06-02	07:15:15	07:29:57	879865	5c3dfadfef1d0d0001b2870e	4	1	DL_practice	21	DL_practice	4	stimuli_target_rectanglediamonds.svg	stimuli_distractor_diamondtriangles.svg	6	yes	ta	1	1582	6	4	antiphase_hc_sio.wav	1	6	1	noise_calib_stim_LEFT.wav	1	36	blb_dichoticlistening_ta-ta.mp3	ta	ta	0	left
6.6.1	mac	2023-06-02	07:15:15	07:29:57	879865	5c3dfadfef1d0d0001b2870e	4	1	DL_practice	21	DL_practice	5	stimuli_target_rectanglediamonds.svg	stimuli_distractor_diamondtriangles.svg	6	yes	ka	1	801	6	4	antiphase_hc_sio.wav	1	6	1	noise_calib_stim_LEFT.wav	1	22	blb_dichoticlistening_ka-ka.mp3	ka	ka	0	left
6.6.1	mac	2023-06-02	07:15:15	07:29:57	879865	5c3dfadfef1d0d0001b2870e	4	1	DL_practice	21	DL_practice	6	stimuli_target_rectanglediamonds.svg	stimuli_distractor_diamondtriangles.svg	6	yes	ta	0	1491	6	4	antiphase_hc_sio.wav	1	6	1	noise_calib_stim_LEFT.wav	1	23	blb_dichoticlistening_ka-pa.mp3	ka	pa	1	other
6.6.1	mac	2023-06-02	07:15:15	07:29:57	879865	5c3dfadfef1d0d0001b2870e	4	1	DL_practice	21	DL_practice	7	stimuli_target_rectanglediamonds.svg	stimuli_distractor_diamondtriangles.svg	6	yes	ba	1	2308	6	4	antiphase_hc_sio.wav	1	6	1	noise_calib_stim_LEFT.wav	1	1	blb_dichoticlistening_ba-ba.mp3	ba	ba	0	left
6.6.1	mac	2023-06-02	07:15:15	07:29:57	879865	5c3dfadfef1d0d0001b2870e	4	1	DL_practice	21	DL_practice	8	stimuli_target_rectanglediamonds.svg	stimuli_distractor_diamondtriangles.svg	6	yes	ga	1	1327	6	4	antiphase_hc_sio.wav	1	6	1	noise_calib_stim_LEFT.wav	1	15	blb_dichoticlistening_ga-ga.mp3	ga	ga	0	left
6.6.1	mac	2023-06-02	07:15:15	07:29:57	879865	5c3dfadfef1d0d0001b2870e	4	1	DL_practice	21	DL_practice	9	stimuli_target_rectanglediamonds.svg	stimuli_distractor_diamondtriangles.svg	6	yes	pa	0	1537	6	4	antiphase_hc_sio.wav	1	6	1	noise_calib_stim_LEFT.wav	1	7	blb_dichoticlistening_da-ba.mp3	da	ba	1	other
6.6.1	mac	2023-06-02	07:15:15	07:29:57	879865	5c3dfadfef1d0d0001b2870e	4	1	DL_practice	21	DL_practice	10	stimuli_target_rectanglediamonds.svg	stimuli_distractor_diamondtriangles.svg	6	yes	da	1	1049	6	4	antiphase_hc_sio.wav	1	6	1	noise_calib_stim_LEFT.wav	1	8	blb_dichoticlistening_da-da.mp3	da	da	0	left
6.6.1	mac	2023-06-02	07:15:15	07:29:57	879865	5c3dfadfef1d0d0001b2870e	4	1	DL_test	23	DL_test	1	stimuli_target_rectanglediamonds.svg	stimuli_distractor_diamondtriangles.svg	6	yes	ka	0	1189	6	4	antiphase_hc_sio.wav	1	6	1	noise_calib_stim_LEFT.wav	1	27	blb_dichoticlistening_pa-ga.mp3	pa	ga	1	other
6.6.1	mac	2023-06-02	07:15:15	07:29:57	879865	5c3dfadfef1d0d0001b2870e	4	1	DL_test	23	DL_test	2	stimuli_target_rectanglediamonds.svg	stimuli_distractor_diamondtriangles.svg	6	yes	pa	1	1192	6	4	antiphase_hc_sio.wav	1	6	1	noise_calib_stim_LEFT.wav	1	11	blb_dichoticlistening_da-pa.mp3	da	pa	1	right
6.6.1	mac	2023-06-02	07:15:15	07:29:57	879865	5c3dfadfef1d0d0001b2870e	4	1	DL_test	23	DL_test	3	stimuli_target_rectanglediamonds.svg	stimuli_distractor_diamondtriangles.svg	6	yes	da	1	1918	6	4	antiphase_hc_sio.wav	1	6	1	noise_calib_stim_LEFT.wav	1	26	blb_dichoticlistening_pa-da.mp3	pa	da	1	right
6.6.1	mac	2023-06-02	07:15:15	07:29:57	879865	5c3dfadfef1d0d0001b2870e	4	1	DL_test	23	DL_test	4	stimuli_target_rectanglediamonds.svg	stimuli_distractor_diamondtriangles.svg	6	yes	da	1	1457	6	4	antiphase_hc_sio.wav	1	6	1	noise_calib_stim_LEFT.wav	1	7	blb_dichoticlistening_da-ba.mp3	da	ba	1	left
6.6.1	mac	2023-06-02	07:15:15	07:29:57	879865	5c3dfadfef1d0d0001b2870e	4	1	DL_test	23	DL_test	5	stimuli_target_rectanglediamonds.svg	stimuli_distractor_diamondtriangles.svg	6	yes	ta	1	1159	6	4	antiphase_hc_sio.wav	1	6	1	noise_calib_stim_LEFT.wav	1	35	blb_dichoticlistening_ta-pa.mp3	ta	pa	1	left
6.6.1	mac	2023-06-02	07:15:15	07:29:57	879865	5c3dfadfef1d0d0001b2870e	4	1	DL_test	23	DL_test	6	stimuli_target_rectanglediamonds.svg	stimuli_distractor_diamondtriangles.svg	6	yes	ka	1	834	6	4	antiphase_hc_sio.wav	1	6	1	noise_calib_stim_LEFT.wav	1	19	blb_dichoticlistening_ka-ba.mp3	ka	ba	1	left
6.6.1	mac	2023-06-02	07:15:15	07:29:57	879865	5c3dfadfef1d0d0001b2870e	4	1	DL_test	23	DL_test	7	stimuli_target_rectanglediamonds.svg	stimuli_distractor_diamondtriangles.svg	6	yes	pa	1	2308	6	4	antiphase_hc_sio.wav	1	6	1	noise_calib_stim_LEFT.wav	1	29	blb_dichoticlistening_pa-pa.mp3	pa	pa	0	left
6.6.1	mac	2023-06-02	07:15:15	07:29:57	879865	5c3dfadfef1d0d0001b2870e	4	1	DL_test	23	DL_test	8	stimuli_target_rectanglediamonds.svg	stimuli_distractor_diamondtriangles.svg	6	yes	ta	0	2147	6	4	antiphase_hc_sio.wav	1	6	1	noise_calib_stim_LEFT.wav	1	10	blb_dichoticlistening_da-ka.mp3	da	ka	1	other
6.6.1	mac	2023-06-02	07:15:15	07:29:57	879865	5c3dfadfef1d0d0001b2870e	4	1	DL_test	23	DL_test	9	stimuli_target_rectanglediamonds.svg	stimuli_distractor_diamondtriangles.svg	6	yes	ka	1	910	6	4	antiphase_hc_sio.wav	1	6	1	noise_calib_stim_LEFT.wav	1	16	blb_dichoticlistening_ga-ka.mp3	ga	ka	1	right
6.6.1	mac	2023-06-02	07:15:15	07:29:57	879865	5c3dfadfef1d0d0001b2870e	4	1	DL_test	23	DL_test	10	stimuli_target_rectanglediamonds.svg	stimuli_distractor_diamondtriangles.svg	6	yes	ka	1	2328	6	4	antiphase_hc_sio.wav	1	6	1	noise_calib_stim_LEFT.wav	1	21	blb_dichoticlistening_ka-ga.mp3	ka	ga	1	left
6.6.1	mac	2023-06-02	07:15:15	07:29:57	879865	5c3dfadfef1d0d0001b2870e	4	1	DL_test	23	DL_test	11	stimuli_target_rectanglediamonds.svg	stimuli_distractor_diamondtriangles.svg	6	yes	ka	0	1189	6	4	antiphase_hc_sio.wav	1	6	1	noise_calib_stim_LEFT.wav	1	18	blb_dichoticlistening_ga-ta.mp3	ga	ta	1	other
6.6.1	mac	2023-06-02	07:15:15	07:29:57	879865	5c3dfadfef1d0d0001b2870e	4	1	DL_test	23	DL_test	12	stimuli_target_rectanglediamonds.svg	stimuli_distractor_diamondtriangles.svg	6	yes	ta	1	1307	6	4	antiphase_hc_sio.wav	1	6	1	noise_calib_stim_LEFT.wav	1	30	blb_dichoticlistening_pa-ta.mp3	pa	ta	1	right
6.6.1	mac	2023-06-02	07:15:15	07:29:57	879865	5c3dfadfef1d0d0001b2870e	4	1	DL_test	23	DL_test	13	stimuli_target_rectanglediamonds.svg	stimuli_distractor_diamondtriangles.svg	6	yes	ba	1	1842	6	4	antiphase_hc_sio.wav	1	6	1	noise_calib_stim_LEFT.wav	1	13	blb_dichoticlistening_ga-ba.mp3	ga	ba	1	right
6.6.1	mac	2023-06-02	07:15:15	07:29:57	879865	5c3dfadfef1d0d0001b2870e	4	1	DL_test	23	DL_test	14	stimuli_target_rectanglediamonds.svg	stimuli_distractor_diamondtriangles.svg	6	yes	pa	1	1111	6	4	antiphase_hc_sio.wav	1	6	1	noise_calib_stim_LEFT.wav	1	25	blb_dichoticlistening_pa-ba.mp3	pa	ba	1	left
6.6.1	mac	2023-06-02	07:15:15	07:29:57	879865	5c3dfadfef1d0d0001b2870e	4	1	DL_test	23	DL_test	15	stimuli_target_rectanglediamonds.svg	stimuli_distractor_diamondtriangles.svg	6	yes	ga	1	959	6	4	antiphase_hc_sio.wav	1	6	1	noise_calib_stim_LEFT.wav	1	3	blb_dichoticlistening_ba-ga.mp3	ba	ga	1	right
6.6.1	mac	2023-06-02	07:15:15	07:29:57	879865	5c3dfadfef1d0d0001b2870e	4	1	DL_test	23	DL_test	16	stimuli_target_rectanglediamonds.svg	stimuli_distractor_diamondtriangles.svg	6	yes	ka	1	746	6	4	antiphase_hc_sio.wav	1	6	1	noise_calib_stim_LEFT.wav	1	4	blb_dichoticlistening_ba-ka.mp3	ba	ka	1	right
6.6.1	mac	2023-06-02	07:15:15	07:29:57	879865	5c3dfadfef1d0d0001b2870e	4	1	DL_test	23	DL_test	17	stimuli_target_rectanglediamonds.svg	stimuli_distractor_diamondtriangles.svg	6	yes	ta	1	1597	6	4	antiphase_hc_sio.wav	1	6	1	noise_calib_stim_LEFT.wav	1	31	blb_dichoticlistening_ta-ba.mp3	ta	ba	1	left
6.6.1	mac	2023-06-02	07:15:15	07:29:57	879865	5c3dfadfef1d0d0001b2870e	4	1	DL_test	23	DL_test	18	stimuli_target_rectanglediamonds.svg	stimuli_distractor_diamondtriangles.svg	6	yes	ka	1	640	6	4	antiphase_hc_sio.wav	1	6	1	noise_calib_stim_LEFT.wav	1	22	blb_dichoticlistening_ka-ka.mp3	ka	ka	0	left
6.6.1	mac	2023-06-02	07:15:15	07:29:57	879865	5c3dfadfef1d0d0001b2870e	4	1	DL_test	23	DL_test	19	stimuli_target_rectanglediamonds.svg	stimuli_distractor_diamondtriangles.svg	6	yes	da	1	2195	6	4	antiphase_hc_sio.wav	1	6	1	noise_calib_stim_LEFT.wav	1	8	blb_dichoticlistening_da-da.mp3	da	da	0	left
6.6.1	mac	2023-06-02	07:15:15	07:29:57	879865	5c3dfadfef1d0d0001b2870e	4	1	DL_test	23	DL_test	20	stimuli_target_rectanglediamonds.svg	stimuli_distractor_diamondtriangles.svg	6	yes	pa	1	1258	6	4	antiphase_hc_sio.wav	1	6	1	noise_calib_stim_LEFT.wav	1	17	blb_dichoticlistening_ga-pa.mp3	ga	pa	1	right
6.6.1	mac	2023-06-02	07:15:15	07:29:57	879865	5c3dfadfef1d0d0001b2870e	4	1	DL_test	23	DL_test	21	stimuli_target_rectanglediamonds.svg	stimuli_distractor_diamondtriangles.svg	6	yes	ta	1	1852	6	4	antiphase_hc_sio.wav	1	6	1	noise_calib_stim_LEFT.wav	1	36	blb_dichoticlistening_ta-ta.mp3	ta	ta	0	left
6.6.1	mac	2023-06-02	07:15:15	07:29:57	879865	5c3dfadfef1d0d0001b2870e	4	1	DL_test	23	DL_test	22	stimuli_target_rectanglediamonds.svg	stimuli_distractor_diamondtriangles.svg	6	yes	ka	1	1440	6	4	antiphase_hc_sio.wav	1	6	1	noise_calib_stim_LEFT.wav	1	24	blb_dichoticlistening_ka-ta.mp3	ka	ta	1	left
6.6.1	mac	2023-06-02	07:15:15	07:29:57	879865	5c3dfadfef1d0d0001b2870e	4	1	DL_test	23	DL_test	23	stimuli_target_rectanglediamonds.svg	stimuli_distractor_diamondtriangles.svg	6	yes	ka	0	3405	6	4	antiphase_hc_sio.wav	1	6	1	noise_calib_stim_LEFT.wav	1	12	blb_dichoticlistening_da-ta.mp3	da	ta	1	other
6.6.1	mac	2023-06-02	07:15:15	07:29:57	879865	5c3dfadfef1d0d0001b2870e	4	1	DL_test	23	DL_test	24	stimuli_target_rectanglediamonds.svg	stimuli_distractor_diamondtriangles.svg	6	yes	ka	1	1168	6	4	antiphase_hc_sio.wav	1	6	1	noise_calib_stim_LEFT.wav	1	28	blb_dichoticlistening_pa-ka.mp3	pa	ka	1	right
6.6.1	mac	2023-06-02	07:15:15	07:29:57	879865	5c3dfadfef1d0d0001b2870e	4	1	DL_test	23	DL_test	25	stimuli_target_rectanglediamonds.svg	stimuli_distractor_diamondtriangles.svg	6	yes	pa	1	690	6	4	antiphase_hc_sio.wav	1	6	1	noise_calib_stim_LEFT.wav	1	5	blb_dichoticlistening_ba-pa.mp3	ba	pa	1	right
6.6.1	mac	2023-06-02	07:15:15	07:29:57	879865	5c3dfadfef1d0d0001b2870e	4	1	DL_test	23	DL_test	26	stimuli_target_rectanglediamonds.svg	stimuli_distractor_diamondtriangles.svg	6	yes	da	1	1326	6	4	antiphase_hc_sio.wav	1	6	1	noise_calib_stim_LEFT.wav	1	14	blb_dichoticlistening_ga-da.mp3	ga	da	1	right
