build	computer.platform	date	time	timestamp	time_elapsed_ms	subject	group	session	blockcode	blocknum	trialcode	trialnum	stimulus_left	stimulus_right	stim_index	target_present	response	correct	latency	headphonecheck_countTestTrials	headphonecheck_index	headphonecheck_testSound	headphonecheck_correctResponse	stereocheck_countTestTrials	stereocheck_index	stereocheck_testSound	stereocheck_correctResponse	DL_index	DL_soundfile	DL_leftSound	DL_rightSound	DL_dualSound	DL_choice
6.6.1	win	2023-06-12	13:15:22	0	0	610b64dc95ff0ef5b5b9ac6b	1	1	headphonecheck_calibration	4	headphonecheck_calibrationIntro	1			0		calibrationButton	0	8263	0	0			0	0			1				0	
6.6.1	win	2023-06-12	13:15:22	0	0	610b64dc95ff0ef5b5b9ac6b	1	1	headphonecheck_testphase	5	test_collectResponse	3			0		third	1	856	1	2	antiphase_hc_ios.wav	3	0	0			1				0	
6.6.1	win	2023-06-12	13:15:22	0	0	610b64dc95ff0ef5b5b9ac6b	1	1	headphonecheck_testphase	5	test_collectResponse	6			0		first	1	3851	2	4	antiphase_hc_sio.wav	1	0	0			1				0	
6.6.1	win	2023-06-12	13:15:22	0	0	610b64dc95ff0ef5b5b9ac6b	1	1	headphonecheck_testphase	5	test_collectResponse	9			0		second	1	1240	3	1	antiphase_hc_iso.wav	2	0	0			1				0	
6.6.1	win	2023-06-12	13:15:22	0	0	610b64dc95ff0ef5b5b9ac6b	1	1	headphonecheck_testphase	5	test_collectResponse	12			0		third	1	500	4	6	antiphase_hc_ois.wav	3	0	0			1				0	
6.6.1	win	2023-06-12	13:15:22	0	0	610b64dc95ff0ef5b5b9ac6b	1	1	headphonecheck_testphase	5	test_collectResponse	15			0		second	1	454	5	5	antiphase_hc_osi.wav	2	0	0			1				0	
6.6.1	win	2023-06-12	13:15:22	0	0	610b64dc95ff0ef5b5b9ac6b	1	1	headphonecheck_testphase	5	test_collectResponse	18			0		first	1	431	6	3	antiphase_hc_soi.wav	1	0	0			1				0	
6.6.1	win	2023-06-12	13:15:22	0	0	610b64dc95ff0ef5b5b9ac6b	1	1	stereocheck_calibration	7	stereocheck_calibrationIntro	1			0		stereocheck_calibrationButton	0	2911	6	3	antiphase_hc_soi.wav	1	0	0			1				0	
6.6.1	win	2023-06-12	13:15:22	0	0	610b64dc95ff0ef5b5b9ac6b	1	1	stereocheck_testphase	8	stereocheck_test_collectResponse	3			0		stereocheck_left	1	608	6	3	antiphase_hc_soi.wav	1	1	2	noise_calib_stim_LEFT.wav	1	1				0	
6.6.1	win	2023-06-12	13:15:22	0	0	610b64dc95ff0ef5b5b9ac6b	1	1	stereocheck_testphase	8	stereocheck_test_collectResponse	6			0		stereocheck_right	1	791	6	3	antiphase_hc_soi.wav	1	2	4	noise_calib_stim_RIGHT.wav	2	1				0	
6.6.1	win	2023-06-12	13:15:22	0	0	610b64dc95ff0ef5b5b9ac6b	1	1	stereocheck_testphase	8	stereocheck_test_collectResponse	9			0		stereocheck_left	1	699	6	3	antiphase_hc_soi.wav	1	3	3	noise_calib_stim_LEFT.wav	1	1				0	
6.6.1	win	2023-06-12	13:15:22	0	0	610b64dc95ff0ef5b5b9ac6b	1	1	stereocheck_testphase	8	stereocheck_test_collectResponse	12			0		stereocheck_left	1	4633	6	3	antiphase_hc_soi.wav	1	4	1	noise_calib_stim_LEFT.wav	1	1				0	
6.6.1	win	2023-06-12	13:15:22	0	0	610b64dc95ff0ef5b5b9ac6b	1	1	stereocheck_testphase	8	stereocheck_test_collectResponse	15			0		stereocheck_right	1	651	6	3	antiphase_hc_soi.wav	1	5	5	noise_calib_stim_RIGHT.wav	2	1				0	
6.6.1	win	2023-06-12	13:15:22	0	0	610b64dc95ff0ef5b5b9ac6b	1	1	stereocheck_testphase	8	stereocheck_test_collectResponse	18			0		stereocheck_right	1	771	6	3	antiphase_hc_soi.wav	1	6	6	noise_calib_stim_RIGHT.wav	2	1				0	
6.6.1	win	2023-06-12	13:15:22	0	0	610b64dc95ff0ef5b5b9ac6b	1	1	DL_practice	11	DL_practice	2			0		ga	1	1309	6	3	antiphase_hc_soi.wav	1	6	6	noise_calib_stim_RIGHT.wav	2	18	blb_dichoticlistening_ga-ta.mp3	ga	ta	1	left
6.6.1	win	2023-06-12	13:15:22	0	0	610b64dc95ff0ef5b5b9ac6b	1	1	DL_practice	11	DL_practice	3			0		ka	1	1097	6	3	antiphase_hc_soi.wav	1	6	6	noise_calib_stim_RIGHT.wav	2	22	blb_dichoticlistening_ka-ka.mp3	ka	ka	0	left
6.6.1	win	2023-06-12	13:15:22	0	0	610b64dc95ff0ef5b5b9ac6b	1	1	DL_practice	11	DL_practice	4			0		ka	1	1704	6	3	antiphase_hc_soi.wav	1	6	6	noise_calib_stim_RIGHT.wav	2	23	blb_dichoticlistening_ka-pa.mp3	ka	pa	1	left
6.6.1	win	2023-06-12	13:15:22	0	0	610b64dc95ff0ef5b5b9ac6b	1	1	DL_practice	11	DL_practice	5			0		ba	1	1382	6	3	antiphase_hc_soi.wav	1	6	6	noise_calib_stim_RIGHT.wav	2	1	blb_dichoticlistening_ba-ba.mp3	ba	ba	0	left
6.6.1	win	2023-06-12	13:15:22	0	0	610b64dc95ff0ef5b5b9ac6b	1	1	DL_practice	11	DL_practice	6			0		pa	1	1943	6	3	antiphase_hc_soi.wav	1	6	6	noise_calib_stim_RIGHT.wav	2	29	blb_dichoticlistening_pa-pa.mp3	pa	pa	0	left
6.6.1	win	2023-06-12	13:15:22	0	0	610b64dc95ff0ef5b5b9ac6b	1	1	DL_practice	11	DL_practice	7			0		da	1	2427	6	3	antiphase_hc_soi.wav	1	6	6	noise_calib_stim_RIGHT.wav	2	7	blb_dichoticlistening_da-ba.mp3	da	ba	1	left
6.6.1	win	2023-06-12	13:15:22	0	0	610b64dc95ff0ef5b5b9ac6b	1	1	DL_practice	11	DL_practice	8			0		ga	1	771	6	3	antiphase_hc_soi.wav	1	6	6	noise_calib_stim_RIGHT.wav	2	15	blb_dichoticlistening_ga-ga.mp3	ga	ga	0	left
6.6.1	win	2023-06-12	13:15:22	0	0	610b64dc95ff0ef5b5b9ac6b	1	1	DL_practice	11	DL_practice	9			0		da	1	1460	6	3	antiphase_hc_soi.wav	1	6	6	noise_calib_stim_RIGHT.wav	2	8	blb_dichoticlistening_da-da.mp3	da	da	0	left
6.6.1	win	2023-06-12	13:15:22	0	0	610b64dc95ff0ef5b5b9ac6b	1	1	DL_practice	11	DL_practice	10			0		ta	1	1778	6	3	antiphase_hc_soi.wav	1	6	6	noise_calib_stim_RIGHT.wav	2	36	blb_dichoticlistening_ta-ta.mp3	ta	ta	0	left
6.6.1	win	2023-06-12	13:15:22	0	0	610b64dc95ff0ef5b5b9ac6b	1	1	DL_test	13	DL_test	1			0		ba	1	1637	6	3	antiphase_hc_soi.wav	1	6	6	noise_calib_stim_RIGHT.wav	2	5	blb_dichoticlistening_ba-pa.mp3	ba	pa	1	left
6.6.1	win	2023-06-12	13:15:22	0	0	610b64dc95ff0ef5b5b9ac6b	1	1	DL_test	13	DL_test	2			0		ta	1	1803	6	3	antiphase_hc_soi.wav	1	6	6	noise_calib_stim_RIGHT.wav	2	30	blb_dichoticlistening_pa-ta.mp3	pa	ta	1	right
6.6.1	win	2023-06-12	13:15:22	0	0	610b64dc95ff0ef5b5b9ac6b	1	1	DL_test	13	DL_test	3			0		da	0	2187	6	3	antiphase_hc_soi.wav	1	6	6	noise_calib_stim_RIGHT.wav	2	13	blb_dichoticlistening_ga-ba.mp3	ga	ba	1	other
6.6.1	win	2023-06-12	13:15:22	0	0	610b64dc95ff0ef5b5b9ac6b	1	1	DL_test	13	DL_test	4			0		ta	1	1610	6	3	antiphase_hc_soi.wav	1	6	6	noise_calib_stim_RIGHT.wav	2	32	blb_dichoticlistening_ta-da.mp3	ta	da	1	left
6.6.1	win	2023-06-12	13:15:22	0	0	610b64dc95ff0ef5b5b9ac6b	1	1	DL_test	13	DL_test	5			0		ga	1	1228	6	3	antiphase_hc_soi.wav	1	6	6	noise_calib_stim_RIGHT.wav	2	15	blb_dichoticlistening_ga-ga.mp3	ga	ga	0	left
6.6.1	win	2023-06-12	13:15:22	0	0	610b64dc95ff0ef5b5b9ac6b	1	1	DL_test	13	DL_test	6			0		ka	1	2616	6	3	antiphase_hc_soi.wav	1	6	6	noise_calib_stim_RIGHT.wav	2	22	blb_dichoticlistening_ka-ka.mp3	ka	ka	0	left
6.6.1	win	2023-06-12	13:15:22	0	0	610b64dc95ff0ef5b5b9ac6b	1	1	DL_test	13	DL_test	7			0		ba	1	1420	6	3	antiphase_hc_soi.wav	1	6	6	noise_calib_stim_RIGHT.wav	2	1	blb_dichoticlistening_ba-ba.mp3	ba	ba	0	left
6.6.1	win	2023-06-12	13:15:22	0	0	610b64dc95ff0ef5b5b9ac6b	1	1	DL_test	13	DL_test	8			0		ta	1	2513	6	3	antiphase_hc_soi.wav	1	6	6	noise_calib_stim_RIGHT.wav	2	6	blb_dichoticlistening_ba-ta.mp3	ba	ta	1	right
6.6.1	win	2023-06-12	13:15:22	0	0	610b64dc95ff0ef5b5b9ac6b	1	1	DL_test	13	DL_test	9			0		ka	1	1566	6	3	antiphase_hc_soi.wav	1	6	6	noise_calib_stim_RIGHT.wav	2	24	blb_dichoticlistening_ka-ta.mp3	ka	ta	1	left
6.6.1	win	2023-06-12	13:15:22	0	0	610b64dc95ff0ef5b5b9ac6b	1	1	DL_test	13	DL_test	10			0		pa	1	2519	6	3	antiphase_hc_soi.wav	1	6	6	noise_calib_stim_RIGHT.wav	2	25	blb_dichoticlistening_pa-ba.mp3	pa	ba	1	left
6.6.1	win	2023-06-12	13:15:22	0	0	610b64dc95ff0ef5b5b9ac6b	1	1	DL_test	13	DL_test	11			0		da	1	2817	6	3	antiphase_hc_soi.wav	1	6	6	noise_calib_stim_RIGHT.wav	2	7	blb_dichoticlistening_da-ba.mp3	da	ba	1	left
6.6.1	win	2023-06-12	13:15:22	0	0	610b64dc95ff0ef5b5b9ac6b	1	1	DL_test	13	DL_test	12			0		da	1	1111	6	3	antiphase_hc_soi.wav	1	6	6	noise_calib_stim_RIGHT.wav	2	8	blb_dichoticlistening_da-da.mp3	da	da	0	left
6.6.1	win	2023-06-12	13:15:22	0	0	610b64dc95ff0ef5b5b9ac6b	1	1	DL_test	13	DL_test	13			0		ka	1	1625	6	3	antiphase_hc_soi.wav	1	6	6	noise_calib_stim_RIGHT.wav	2	16	blb_dichoticlistening_ga-ka.mp3	ga	ka	1	right
6.6.1	win	2023-06-12	13:15:22	0	0	610b64dc95ff0ef5b5b9ac6b	1	1	DL_test	13	DL_test	14			0		ba	1	1653	6	3	antiphase_hc_soi.wav	1	6	6	noise_calib_stim_RIGHT.wav	2	3	blb_dichoticlistening_ba-ga.mp3	ba	ga	1	left
6.6.1	win	2023-06-12	13:15:22	0	0	610b64dc95ff0ef5b5b9ac6b	1	1	DL_test	13	DL_test	15			0		da	1	990	6	3	antiphase_hc_soi.wav	1	6	6	noise_calib_stim_RIGHT.wav	2	2	blb_dichoticlistening_ba-da.mp3	ba	da	1	right
6.6.1	win	2023-06-12	13:15:22	0	0	610b64dc95ff0ef5b5b9ac6b	1	1	DL_test	13	DL_test	16			0		ta	1	3488	6	3	antiphase_hc_soi.wav	1	6	6	noise_calib_stim_RIGHT.wav	2	12	blb_dichoticlistening_da-ta.mp3	da	ta	1	right
6.6.1	win	2023-06-12	13:15:22	0	0	610b64dc95ff0ef5b5b9ac6b	1	1	DL_test	13	DL_test	17			0		pa	1	2031	6	3	antiphase_hc_soi.wav	1	6	6	noise_calib_stim_RIGHT.wav	2	17	blb_dichoticlistening_ga-pa.mp3	ga	pa	1	right
6.6.1	win	2023-06-12	13:15:22	0	0	610b64dc95ff0ef5b5b9ac6b	1	1	DL_test	13	DL_test	18			0		pa	1	1899	6	3	antiphase_hc_soi.wav	1	6	6	noise_calib_stim_RIGHT.wav	2	26	blb_dichoticlistening_pa-da.mp3	pa	da	1	left
6.6.1	win	2023-06-12	13:15:22	0	0	610b64dc95ff0ef5b5b9ac6b	1	1	DL_test	13	DL_test	19			0		ka	1	1136	6	3	antiphase_hc_soi.wav	1	6	6	noise_calib_stim_RIGHT.wav	2	19	blb_dichoticlistening_ka-ba.mp3	ka	ba	1	left
6.6.1	win	2023-06-12	13:15:22	0	0	610b64dc95ff0ef5b5b9ac6b	1	1	DL_test	13	DL_test	20			0		da	1	1009	6	3	antiphase_hc_soi.wav	1	6	6	noise_calib_stim_RIGHT.wav	2	9	blb_dichoticlistening_da-ga.mp3	da	ga	1	left
6.6.1	win	2023-06-12	13:15:22	0	0	610b64dc95ff0ef5b5b9ac6b	1	1	DL_test	13	DL_test	21			0		pa	1	2020	6	3	antiphase_hc_soi.wav	1	6	6	noise_calib_stim_RIGHT.wav	2	27	blb_dichoticlistening_pa-ga.mp3	pa	ga	1	left
6.6.1	win	2023-06-12	13:15:22	0	0	610b64dc95ff0ef5b5b9ac6b	1	1	DL_test	13	DL_test	22			0		ka	1	1142	6	3	antiphase_hc_soi.wav	1	6	6	noise_calib_stim_RIGHT.wav	2	28	blb_dichoticlistening_pa-ka.mp3	pa	ka	1	right
6.6.1	win	2023-06-12	13:15:22	0	0	610b64dc95ff0ef5b5b9ac6b	1	1	DL_test	13	DL_test	23			0		ka	1	1221	6	3	antiphase_hc_soi.wav	1	6	6	noise_calib_stim_RIGHT.wav	2	34	blb_dichoticlistening_ta-ka.mp3	ta	ka	1	right
6.6.1	win	2023-06-12	13:15:22	0	0	610b64dc95ff0ef5b5b9ac6b	1	1	DL_test	13	DL_test	24			0		pa	1	1876	6	3	antiphase_hc_soi.wav	1	6	6	noise_calib_stim_RIGHT.wav	2	29	blb_dichoticlistening_pa-pa.mp3	pa	pa	0	left
6.6.1	win	2023-06-12	13:15:22	0	0	610b64dc95ff0ef5b5b9ac6b	1	1	DL_test	13	DL_test	25			0		ka	1	1091	6	3	antiphase_hc_soi.wav	1	6	6	noise_calib_stim_RIGHT.wav	2	23	blb_dichoticlistening_ka-pa.mp3	ka	pa	1	left
6.6.1	win	2023-06-12	13:15:22	0	0	610b64dc95ff0ef5b5b9ac6b	1	1	DL_test	13	DL_test	26			0		ka	0	1539	6	3	antiphase_hc_soi.wav	1	6	6	noise_calib_stim_RIGHT.wav	2	33	blb_dichoticlistening_ta-ga.mp3	ta	ga	1	other
6.6.1	win	2023-06-12	13:15:22	0	0	610b64dc95ff0ef5b5b9ac6b	1	1	DL_test	13	DL_test	27			0		ta	0	4700	6	3	antiphase_hc_soi.wav	1	6	6	noise_calib_stim_RIGHT.wav	2	4	blb_dichoticlistening_ba-ka.mp3	ba	ka	1	other
6.6.1	win	2023-06-12	13:15:22	0	0	610b64dc95ff0ef5b5b9ac6b	1	1	DL_test	13	DL_test	28			0		ta	1	1023	6	3	antiphase_hc_soi.wav	1	6	6	noise_calib_stim_RIGHT.wav	2	35	blb_dichoticlistening_ta-pa.mp3	ta	pa	1	left
6.6.1	win	2023-06-12	13:15:22	0	0	610b64dc95ff0ef5b5b9ac6b	1	1	DL_test	13	DL_test	29			0		ka	1	3456	6	3	antiphase_hc_soi.wav	1	6	6	noise_calib_stim_RIGHT.wav	2	21	blb_dichoticlistening_ka-ga.mp3	ka	ga	1	left
6.6.1	win	2023-06-12	13:15:22	0	0	610b64dc95ff0ef5b5b9ac6b	1	1	DL_test	13	DL_test	30			0		ka	1	1833	6	3	antiphase_hc_soi.wav	1	6	6	noise_calib_stim_RIGHT.wav	2	20	blb_dichoticlistening_ka-da.mp3	ka	da	1	left
6.6.1	win	2023-06-12	13:15:22	0	0	610b64dc95ff0ef5b5b9ac6b	1	1	DL_test	13	DL_test	31			0		ga	1	891	6	3	antiphase_hc_soi.wav	1	6	6	noise_calib_stim_RIGHT.wav	2	18	blb_dichoticlistening_ga-ta.mp3	ga	ta	1	left
6.6.1	win	2023-06-12	13:15:22	0	0	610b64dc95ff0ef5b5b9ac6b	1	1	DL_test	13	DL_test	32			0		ta	1	1234	6	3	antiphase_hc_soi.wav	1	6	6	noise_calib_stim_RIGHT.wav	2	31	blb_dichoticlistening_ta-ba.mp3	ta	ba	1	left
6.6.1	win	2023-06-12	13:15:22	0	0	610b64dc95ff0ef5b5b9ac6b	1	1	DL_test	13	DL_test	33			0		ta	1	1097	6	3	antiphase_hc_soi.wav	1	6	6	noise_calib_stim_RIGHT.wav	2	36	blb_dichoticlistening_ta-ta.mp3	ta	ta	0	left
6.6.1	win	2023-06-12	13:15:22	0	0	610b64dc95ff0ef5b5b9ac6b	1	1	DL_test	13	DL_test	34			0		ga	1	934	6	3	antiphase_hc_soi.wav	1	6	6	noise_calib_stim_RIGHT.wav	2	14	blb_dichoticlistening_ga-da.mp3	ga	da	1	left
6.6.1	win	2023-06-12	13:15:22	0	0	610b64dc95ff0ef5b5b9ac6b	1	1	DL_test	13	DL_test	35			0		pa	0	1717	6	3	antiphase_hc_soi.wav	1	6	6	noise_calib_stim_RIGHT.wav	2	10	blb_dichoticlistening_da-ka.mp3	da	ka	1	other
6.6.1	win	2023-06-12	13:15:22	0	0	610b64dc95ff0ef5b5b9ac6b	1	1	DL_test	13	DL_test	36			0		ba	0	1647	6	3	antiphase_hc_soi.wav	1	6	6	noise_calib_stim_RIGHT.wav	2	11	blb_dichoticlistening_da-pa.mp3	da	pa	1	other
6.6.1	win	2023-06-12	13:15:22	0	0	610b64dc95ff0ef5b5b9ac6b	1	1	DL_test	14	DL_test	1			0		ta	1	1546	6	3	antiphase_hc_soi.wav	1	6	6	noise_calib_stim_RIGHT.wav	2	36	blb_dichoticlistening_ta-ta.mp3	ta	ta	0	left
6.6.1	win	2023-06-12	13:15:22	0	0	610b64dc95ff0ef5b5b9ac6b	1	1	DL_test	14	DL_test	2			0		ga	1	1612	6	3	antiphase_hc_soi.wav	1	6	6	noise_calib_stim_RIGHT.wav	2	16	blb_dichoticlistening_ga-ka.mp3	ga	ka	1	left
6.6.1	win	2023-06-12	13:15:22	0	0	610b64dc95ff0ef5b5b9ac6b	1	1	DL_test	14	DL_test	3			0		da	0	1761	6	3	antiphase_hc_soi.wav	1	6	6	noise_calib_stim_RIGHT.wav	2	13	blb_dichoticlistening_ga-ba.mp3	ga	ba	1	other
6.6.1	win	2023-06-12	13:15:22	0	0	610b64dc95ff0ef5b5b9ac6b	1	1	DL_test	14	DL_test	4			0		ka	1	1637	6	3	antiphase_hc_soi.wav	1	6	6	noise_calib_stim_RIGHT.wav	2	24	blb_dichoticlistening_ka-ta.mp3	ka	ta	1	left
6.6.1	win	2023-06-12	13:15:22	0	0	610b64dc95ff0ef5b5b9ac6b	1	1	DL_test	14	DL_test	5			0		ka	1	876	6	3	antiphase_hc_soi.wav	1	6	6	noise_calib_stim_RIGHT.wav	2	20	blb_dichoticlistening_ka-da.mp3	ka	da	1	left
6.6.1	win	2023-06-12	13:15:22	0	0	610b64dc95ff0ef5b5b9ac6b	1	1	DL_test	14	DL_test	6			0		pa	1	2126	6	3	antiphase_hc_soi.wav	1	6	6	noise_calib_stim_RIGHT.wav	2	23	blb_dichoticlistening_ka-pa.mp3	ka	pa	1	right
6.6.1	win	2023-06-12	13:15:22	0	0	610b64dc95ff0ef5b5b9ac6b	1	1	DL_test	14	DL_test	7			0		pa	1	706	6	3	antiphase_hc_soi.wav	1	6	6	noise_calib_stim_RIGHT.wav	2	28	blb_dichoticlistening_pa-ka.mp3	pa	ka	1	left
6.6.1	win	2023-06-12	13:15:22	0	0	610b64dc95ff0ef5b5b9ac6b	1	1	DL_test	14	DL_test	8			0		ba	0	1356	6	3	antiphase_hc_soi.wav	1	6	6	noise_calib_stim_RIGHT.wav	2	9	blb_dichoticlistening_da-ga.mp3	da	ga	1	other
6.6.1	win	2023-06-12	13:15:22	0	0	610b64dc95ff0ef5b5b9ac6b	1	1	DL_test	14	DL_test	9			0		ga	1	1138	6	3	antiphase_hc_soi.wav	1	6	6	noise_calib_stim_RIGHT.wav	2	14	blb_dichoticlistening_ga-da.mp3	ga	da	1	left
6.6.1	win	2023-06-12	13:15:22	0	0	610b64dc95ff0ef5b5b9ac6b	1	1	DL_test	14	DL_test	10			0		ta	1	1721	6	3	antiphase_hc_soi.wav	1	6	6	noise_calib_stim_RIGHT.wav	2	32	blb_dichoticlistening_ta-da.mp3	ta	da	1	left
6.6.1	win	2023-06-12	13:15:22	0	0	610b64dc95ff0ef5b5b9ac6b	1	1	DL_test	14	DL_test	11			0		pa	1	2609	6	3	antiphase_hc_soi.wav	1	6	6	noise_calib_stim_RIGHT.wav	2	27	blb_dichoticlistening_pa-ga.mp3	pa	ga	1	left
6.6.1	win	2023-06-12	13:15:22	0	0	610b64dc95ff0ef5b5b9ac6b	1	1	DL_test	14	DL_test	12			0		pa	1	1455	6	3	antiphase_hc_soi.wav	1	6	6	noise_calib_stim_RIGHT.wav	2	30	blb_dichoticlistening_pa-ta.mp3	pa	ta	1	left
6.6.1	win	2023-06-12	13:15:22	0	0	610b64dc95ff0ef5b5b9ac6b	1	1	DL_test	14	DL_test	13			0		pa	1	1497	6	3	antiphase_hc_soi.wav	1	6	6	noise_calib_stim_RIGHT.wav	2	5	blb_dichoticlistening_ba-pa.mp3	ba	pa	1	right
6.6.1	win	2023-06-12	13:15:22	0	0	610b64dc95ff0ef5b5b9ac6b	1	1	DL_test	14	DL_test	14			0		ba	1	1562	6	3	antiphase_hc_soi.wav	1	6	6	noise_calib_stim_RIGHT.wav	2	4	blb_dichoticlistening_ba-ka.mp3	ba	ka	1	left
6.6.1	win	2023-06-12	13:15:22	0	0	610b64dc95ff0ef5b5b9ac6b	1	1	DL_test	14	DL_test	15			0		ga	1	1832	6	3	antiphase_hc_soi.wav	1	6	6	noise_calib_stim_RIGHT.wav	2	15	blb_dichoticlistening_ga-ga.mp3	ga	ga	0	left
6.6.1	win	2023-06-12	13:15:22	0	0	610b64dc95ff0ef5b5b9ac6b	1	1	DL_test	14	DL_test	16			0		da	1	1176	6	3	antiphase_hc_soi.wav	1	6	6	noise_calib_stim_RIGHT.wav	2	2	blb_dichoticlistening_ba-da.mp3	ba	da	1	right
6.6.1	win	2023-06-12	13:15:22	0	0	610b64dc95ff0ef5b5b9ac6b	1	1	DL_test	14	DL_test	17			0		ga	1	1005	6	3	antiphase_hc_soi.wav	1	6	6	noise_calib_stim_RIGHT.wav	2	18	blb_dichoticlistening_ga-ta.mp3	ga	ta	1	left
6.6.1	win	2023-06-12	13:15:22	0	0	610b64dc95ff0ef5b5b9ac6b	1	1	DL_test	14	DL_test	18			0		ta	1	1331	6	3	antiphase_hc_soi.wav	1	6	6	noise_calib_stim_RIGHT.wav	2	31	blb_dichoticlistening_ta-ba.mp3	ta	ba	1	left
6.6.1	win	2023-06-12	13:15:22	0	0	610b64dc95ff0ef5b5b9ac6b	1	1	DL_test	14	DL_test	19			0		pa	1	1155	6	3	antiphase_hc_soi.wav	1	6	6	noise_calib_stim_RIGHT.wav	2	29	blb_dichoticlistening_pa-pa.mp3	pa	pa	0	left
6.6.1	win	2023-06-12	13:15:22	0	0	610b64dc95ff0ef5b5b9ac6b	1	1	DL_test	14	DL_test	20			0		ta	1	1262	6	3	antiphase_hc_soi.wav	1	6	6	noise_calib_stim_RIGHT.wav	2	33	blb_dichoticlistening_ta-ga.mp3	ta	ga	1	left
6.6.1	win	2023-06-12	13:15:22	0	0	610b64dc95ff0ef5b5b9ac6b	1	1	DL_test	14	DL_test	21			0		da	1	1444	6	3	antiphase_hc_soi.wav	1	6	6	noise_calib_stim_RIGHT.wav	2	12	blb_dichoticlistening_da-ta.mp3	da	ta	1	left
6.6.1	win	2023-06-12	13:15:22	0	0	610b64dc95ff0ef5b5b9ac6b	1	1	DL_test	14	DL_test	22			0		da	1	848	6	3	antiphase_hc_soi.wav	1	6	6	noise_calib_stim_RIGHT.wav	2	8	blb_dichoticlistening_da-da.mp3	da	da	0	left
6.6.1	win	2023-06-12	13:15:22	0	0	610b64dc95ff0ef5b5b9ac6b	1	1	DL_test	14	DL_test	23			0		pa	0	1217	6	3	antiphase_hc_soi.wav	1	6	6	noise_calib_stim_RIGHT.wav	2	10	blb_dichoticlistening_da-ka.mp3	da	ka	1	other
6.6.1	win	2023-06-12	13:15:22	0	0	610b64dc95ff0ef5b5b9ac6b	1	1	DL_test	14	DL_test	24			0		ba	1	1688	6	3	antiphase_hc_soi.wav	1	6	6	noise_calib_stim_RIGHT.wav	2	6	blb_dichoticlistening_ba-ta.mp3	ba	ta	1	left
6.6.1	win	2023-06-12	13:15:22	0	0	610b64dc95ff0ef5b5b9ac6b	1	1	DL_test	14	DL_test	25			0		pa	1	1211	6	3	antiphase_hc_soi.wav	1	6	6	noise_calib_stim_RIGHT.wav	2	26	blb_dichoticlistening_pa-da.mp3	pa	da	1	left
6.6.1	win	2023-06-12	13:15:22	0	0	610b64dc95ff0ef5b5b9ac6b	1	1	DL_test	14	DL_test	26			0		ka	1	1147	6	3	antiphase_hc_soi.wav	1	6	6	noise_calib_stim_RIGHT.wav	2	19	blb_dichoticlistening_ka-ba.mp3	ka	ba	1	left
6.6.1	win	2023-06-12	13:15:22	0	0	610b64dc95ff0ef5b5b9ac6b	1	1	DL_test	14	DL_test	27			0		pa	1	1678	6	3	antiphase_hc_soi.wav	1	6	6	noise_calib_stim_RIGHT.wav	2	17	blb_dichoticlistening_ga-pa.mp3	ga	pa	1	right
6.6.1	win	2023-06-12	13:15:22	0	0	610b64dc95ff0ef5b5b9ac6b	1	1	DL_test	14	DL_test	28			0		pa	1	740	6	3	antiphase_hc_soi.wav	1	6	6	noise_calib_stim_RIGHT.wav	2	11	blb_dichoticlistening_da-pa.mp3	da	pa	1	right
6.6.1	win	2023-06-12	13:15:22	0	0	610b64dc95ff0ef5b5b9ac6b	1	1	DL_test	14	DL_test	29			0		ba	1	1124	6	3	antiphase_hc_soi.wav	1	6	6	noise_calib_stim_RIGHT.wav	2	1	blb_dichoticlistening_ba-ba.mp3	ba	ba	0	left
6.6.1	win	2023-06-12	13:15:22	0	0	610b64dc95ff0ef5b5b9ac6b	1	1	DL_test	14	DL_test	30			0		ka	1	1475	6	3	antiphase_hc_soi.wav	1	6	6	noise_calib_stim_RIGHT.wav	2	21	blb_dichoticlistening_ka-ga.mp3	ka	ga	1	left
6.6.1	win	2023-06-12	13:15:22	0	0	610b64dc95ff0ef5b5b9ac6b	1	1	DL_test	14	DL_test	31			0		ba	1	1848	6	3	antiphase_hc_soi.wav	1	6	6	noise_calib_stim_RIGHT.wav	2	3	blb_dichoticlistening_ba-ga.mp3	ba	ga	1	left
6.6.1	win	2023-06-12	13:15:22	0	0	610b64dc95ff0ef5b5b9ac6b	1	1	DL_test	14	DL_test	32			0		da	1	1555	6	3	antiphase_hc_soi.wav	1	6	6	noise_calib_stim_RIGHT.wav	2	7	blb_dichoticlistening_da-ba.mp3	da	ba	1	left
6.6.1	win	2023-06-12	13:15:22	0	0	610b64dc95ff0ef5b5b9ac6b	1	1	DL_test	14	DL_test	33			0		ta	1	1504	6	3	antiphase_hc_soi.wav	1	6	6	noise_calib_stim_RIGHT.wav	2	34	blb_dichoticlistening_ta-ka.mp3	ta	ka	1	left
6.6.1	win	2023-06-12	13:15:22	0	0	610b64dc95ff0ef5b5b9ac6b	1	1	DL_test	14	DL_test	34			0		ka	1	1921	6	3	antiphase_hc_soi.wav	1	6	6	noise_calib_stim_RIGHT.wav	2	22	blb_dichoticlistening_ka-ka.mp3	ka	ka	0	left
6.6.1	win	2023-06-12	13:15:22	0	0	610b64dc95ff0ef5b5b9ac6b	1	1	DL_test	14	DL_test	35			0		pa	1	1739	6	3	antiphase_hc_soi.wav	1	6	6	noise_calib_stim_RIGHT.wav	2	25	blb_dichoticlistening_pa-ba.mp3	pa	ba	1	left
6.6.1	win	2023-06-12	13:15:22	0	0	610b64dc95ff0ef5b5b9ac6b	1	1	DL_test	14	DL_test	36			0		ta	1	1212	6	3	antiphase_hc_soi.wav	1	6	6	noise_calib_stim_RIGHT.wav	2	35	blb_dichoticlistening_ta-pa.mp3	ta	pa	1	left
6.6.1	win	2023-06-12	13:15:22	0	0	610b64dc95ff0ef5b5b9ac6b	1	1	DL_test	15	DL_test	1			0		ka	1	1003	6	3	antiphase_hc_soi.wav	1	6	6	noise_calib_stim_RIGHT.wav	2	23	blb_dichoticlistening_ka-pa.mp3	ka	pa	1	left
6.6.1	win	2023-06-12	13:15:22	0	0	610b64dc95ff0ef5b5b9ac6b	1	1	DL_test	15	DL_test	2			0		da	1	972	6	3	antiphase_hc_soi.wav	1	6	6	noise_calib_stim_RIGHT.wav	2	8	blb_dichoticlistening_da-da.mp3	da	da	0	left
6.6.1	win	2023-06-12	13:15:22	0	0	610b64dc95ff0ef5b5b9ac6b	1	1	DL_test	15	DL_test	3			0		ba	1	1778	6	3	antiphase_hc_soi.wav	1	6	6	noise_calib_stim_RIGHT.wav	2	6	blb_dichoticlistening_ba-ta.mp3	ba	ta	1	left
6.6.1	win	2023-06-12	13:15:22	0	0	610b64dc95ff0ef5b5b9ac6b	1	1	DL_test	15	DL_test	4			0		ta	1	1913	6	3	antiphase_hc_soi.wav	1	6	6	noise_calib_stim_RIGHT.wav	2	32	blb_dichoticlistening_ta-da.mp3	ta	da	1	left
6.6.1	win	2023-06-12	13:15:22	0	0	610b64dc95ff0ef5b5b9ac6b	1	1	DL_test	15	DL_test	5			0		ka	1	1065	6	3	antiphase_hc_soi.wav	1	6	6	noise_calib_stim_RIGHT.wav	2	20	blb_dichoticlistening_ka-da.mp3	ka	da	1	left
6.6.1	win	2023-06-12	13:15:22	0	0	610b64dc95ff0ef5b5b9ac6b	1	1	DL_test	15	DL_test	6			0		ta	1	1826	6	3	antiphase_hc_soi.wav	1	6	6	noise_calib_stim_RIGHT.wav	2	31	blb_dichoticlistening_ta-ba.mp3	ta	ba	1	left
6.6.1	win	2023-06-12	13:15:22	0	0	610b64dc95ff0ef5b5b9ac6b	1	1	DL_test	15	DL_test	7			0		ta	1	1126	6	3	antiphase_hc_soi.wav	1	6	6	noise_calib_stim_RIGHT.wav	2	35	blb_dichoticlistening_ta-pa.mp3	ta	pa	1	left
6.6.1	win	2023-06-12	13:15:22	0	0	610b64dc95ff0ef5b5b9ac6b	1	1	DL_test	15	DL_test	8			0		ta	1	605	6	3	antiphase_hc_soi.wav	1	6	6	noise_calib_stim_RIGHT.wav	2	36	blb_dichoticlistening_ta-ta.mp3	ta	ta	0	left
6.6.1	win	2023-06-12	13:15:22	0	0	610b64dc95ff0ef5b5b9ac6b	1	1	DL_test	15	DL_test	9			0		da	1	2128	6	3	antiphase_hc_soi.wav	1	6	6	noise_calib_stim_RIGHT.wav	2	9	blb_dichoticlistening_da-ga.mp3	da	ga	1	left
6.6.1	win	2023-06-12	13:15:22	0	0	610b64dc95ff0ef5b5b9ac6b	1	1	DL_test	15	DL_test	10			0		pa	1	1487	6	3	antiphase_hc_soi.wav	1	6	6	noise_calib_stim_RIGHT.wav	2	29	blb_dichoticlistening_pa-pa.mp3	pa	pa	0	left
6.6.1	win	2023-06-12	13:15:22	0	0	610b64dc95ff0ef5b5b9ac6b	1	1	DL_test	15	DL_test	11			0		da	1	1360	6	3	antiphase_hc_soi.wav	1	6	6	noise_calib_stim_RIGHT.wav	2	7	blb_dichoticlistening_da-ba.mp3	da	ba	1	left
6.6.1	win	2023-06-12	13:15:22	0	0	610b64dc95ff0ef5b5b9ac6b	1	1	DL_test	15	DL_test	12			0		ka	1	1213	6	3	antiphase_hc_soi.wav	1	6	6	noise_calib_stim_RIGHT.wav	2	19	blb_dichoticlistening_ka-ba.mp3	ka	ba	1	left
6.6.1	win	2023-06-12	13:15:22	0	0	610b64dc95ff0ef5b5b9ac6b	1	1	DL_test	15	DL_test	13			0		pa	1	1085	6	3	antiphase_hc_soi.wav	1	6	6	noise_calib_stim_RIGHT.wav	2	27	blb_dichoticlistening_pa-ga.mp3	pa	ga	1	left
6.6.1	win	2023-06-12	13:15:22	0	0	610b64dc95ff0ef5b5b9ac6b	1	1	DL_test	15	DL_test	14			0		pa	1	990	6	3	antiphase_hc_soi.wav	1	6	6	noise_calib_stim_RIGHT.wav	2	30	blb_dichoticlistening_pa-ta.mp3	pa	ta	1	left
6.6.1	win	2023-06-12	13:15:22	0	0	610b64dc95ff0ef5b5b9ac6b	1	1	DL_test	15	DL_test	15			0		ba	1	1340	6	3	antiphase_hc_soi.wav	1	6	6	noise_calib_stim_RIGHT.wav	2	1	blb_dichoticlistening_ba-ba.mp3	ba	ba	0	left
6.6.1	win	2023-06-12	13:15:22	0	0	610b64dc95ff0ef5b5b9ac6b	1	1	DL_test	15	DL_test	16			0		ga	1	1033	6	3	antiphase_hc_soi.wav	1	6	6	noise_calib_stim_RIGHT.wav	2	16	blb_dichoticlistening_ga-ka.mp3	ga	ka	1	left
6.6.1	win	2023-06-12	13:15:22	0	0	610b64dc95ff0ef5b5b9ac6b	1	1	DL_test	15	DL_test	17			0		ga	1	626	6	3	antiphase_hc_soi.wav	1	6	6	noise_calib_stim_RIGHT.wav	2	15	blb_dichoticlistening_ga-ga.mp3	ga	ga	0	left
6.6.1	win	2023-06-12	13:15:22	0	0	610b64dc95ff0ef5b5b9ac6b	1	1	DL_test	15	DL_test	18			0		ga	1	659	6	3	antiphase_hc_soi.wav	1	6	6	noise_calib_stim_RIGHT.wav	2	14	blb_dichoticlistening_ga-da.mp3	ga	da	1	left
6.6.1	win	2023-06-12	13:15:22	0	0	610b64dc95ff0ef5b5b9ac6b	1	1	DL_test	15	DL_test	19			0		ka	1	1119	6	3	antiphase_hc_soi.wav	1	6	6	noise_calib_stim_RIGHT.wav	2	22	blb_dichoticlistening_ka-ka.mp3	ka	ka	0	left
6.6.1	win	2023-06-12	13:15:22	0	0	610b64dc95ff0ef5b5b9ac6b	1	1	DL_test	15	DL_test	20			0		ka	1	754	6	3	antiphase_hc_soi.wav	1	6	6	noise_calib_stim_RIGHT.wav	2	21	blb_dichoticlistening_ka-ga.mp3	ka	ga	1	left
6.6.1	win	2023-06-12	13:15:22	0	0	610b64dc95ff0ef5b5b9ac6b	1	1	DL_test	15	DL_test	21			0		da	1	1310	6	3	antiphase_hc_soi.wav	1	6	6	noise_calib_stim_RIGHT.wav	2	12	blb_dichoticlistening_da-ta.mp3	da	ta	1	left
6.6.1	win	2023-06-12	13:15:22	0	0	610b64dc95ff0ef5b5b9ac6b	1	1	DL_test	15	DL_test	22			0		ba	1	1639	6	3	antiphase_hc_soi.wav	1	6	6	noise_calib_stim_RIGHT.wav	2	2	blb_dichoticlistening_ba-da.mp3	ba	da	1	left
6.6.1	win	2023-06-12	13:15:22	0	0	610b64dc95ff0ef5b5b9ac6b	1	1	DL_test	15	DL_test	23			0		ga	1	1237	6	3	antiphase_hc_soi.wav	1	6	6	noise_calib_stim_RIGHT.wav	2	13	blb_dichoticlistening_ga-ba.mp3	ga	ba	1	left
6.6.1	win	2023-06-12	13:15:22	0	0	610b64dc95ff0ef5b5b9ac6b	1	1	DL_test	15	DL_test	24			0		pa	1	5460	6	3	antiphase_hc_soi.wav	1	6	6	noise_calib_stim_RIGHT.wav	2	26	blb_dichoticlistening_pa-da.mp3	pa	da	1	left
6.6.1	win	2023-06-12	13:15:22	0	0	610b64dc95ff0ef5b5b9ac6b	1	1	DL_test	15	DL_test	25			0		ka	0	19033	6	3	antiphase_hc_soi.wav	1	6	6	noise_calib_stim_RIGHT.wav	2	17	blb_dichoticlistening_ga-pa.mp3	ga	pa	1	other
6.6.1	win	2023-06-12	13:15:22	0	0	610b64dc95ff0ef5b5b9ac6b	1	1	DL_test	15	DL_test	26			0		pa	1	1667	6	3	antiphase_hc_soi.wav	1	6	6	noise_calib_stim_RIGHT.wav	2	25	blb_dichoticlistening_pa-ba.mp3	pa	ba	1	left
6.6.1	win	2023-06-12	13:15:22	0	0	610b64dc95ff0ef5b5b9ac6b	1	1	DL_test	15	DL_test	27			0		ka	0	1780	6	3	antiphase_hc_soi.wav	1	6	6	noise_calib_stim_RIGHT.wav	2	33	blb_dichoticlistening_ta-ga.mp3	ta	ga	1	other
6.6.1	win	2023-06-12	13:15:22	0	0	610b64dc95ff0ef5b5b9ac6b	1	1	DL_test	15	DL_test	28			0		ka	1	2203	6	3	antiphase_hc_soi.wav	1	6	6	noise_calib_stim_RIGHT.wav	2	24	blb_dichoticlistening_ka-ta.mp3	ka	ta	1	left
6.6.1	win	2023-06-12	13:15:22	0	0	610b64dc95ff0ef5b5b9ac6b	1	1	DL_test	15	DL_test	29			0		pa	1	4021	6	3	antiphase_hc_soi.wav	1	6	6	noise_calib_stim_RIGHT.wav	2	5	blb_dichoticlistening_ba-pa.mp3	ba	pa	1	right
6.6.1	win	2023-06-12	13:15:22	0	0	610b64dc95ff0ef5b5b9ac6b	1	1	DL_test	15	DL_test	30			0		ba	1	1985	6	3	antiphase_hc_soi.wav	1	6	6	noise_calib_stim_RIGHT.wav	2	3	blb_dichoticlistening_ba-ga.mp3	ba	ga	1	left
6.6.1	win	2023-06-12	13:15:22	0	0	610b64dc95ff0ef5b5b9ac6b	1	1	DL_test	15	DL_test	31			0		da	1	3800	6	3	antiphase_hc_soi.wav	1	6	6	noise_calib_stim_RIGHT.wav	2	10	blb_dichoticlistening_da-ka.mp3	da	ka	1	left
6.6.1	win	2023-06-12	13:15:22	0	0	610b64dc95ff0ef5b5b9ac6b	1	1	DL_test	15	DL_test	32			0		pa	1	2417	6	3	antiphase_hc_soi.wav	1	6	6	noise_calib_stim_RIGHT.wav	2	28	blb_dichoticlistening_pa-ka.mp3	pa	ka	1	left
6.6.1	win	2023-06-12	13:15:22	0	0	610b64dc95ff0ef5b5b9ac6b	1	1	DL_test	15	DL_test	33			0		da	0	2171	6	3	antiphase_hc_soi.wav	1	6	6	noise_calib_stim_RIGHT.wav	2	18	blb_dichoticlistening_ga-ta.mp3	ga	ta	1	other
6.6.1	win	2023-06-12	13:15:22	0	0	610b64dc95ff0ef5b5b9ac6b	1	1	DL_test	15	DL_test	34			0		ga	0	3004	6	3	antiphase_hc_soi.wav	1	6	6	noise_calib_stim_RIGHT.wav	2	4	blb_dichoticlistening_ba-ka.mp3	ba	ka	1	other
6.6.1	win	2023-06-12	13:15:22	0	0	610b64dc95ff0ef5b5b9ac6b	1	1	DL_test	15	DL_test	35			0		ka	1	2640	6	3	antiphase_hc_soi.wav	1	6	6	noise_calib_stim_RIGHT.wav	2	34	blb_dichoticlistening_ta-ka.mp3	ta	ka	1	right
6.6.1	win	2023-06-12	13:15:22	0	0	610b64dc95ff0ef5b5b9ac6b	1	1	DL_test	15	DL_test	36			0		da	1	1759	6	3	antiphase_hc_soi.wav	1	6	6	noise_calib_stim_RIGHT.wav	2	11	blb_dichoticlistening_da-pa.mp3	da	pa	1	left
6.6.1	win	2023-06-12	13:15:22	0	0	610b64dc95ff0ef5b5b9ac6b	1	1	DL_test	16	DL_test	1			0		da	0	2658	6	3	antiphase_hc_soi.wav	1	6	6	noise_calib_stim_RIGHT.wav	2	17	blb_dichoticlistening_ga-pa.mp3	ga	pa	1	other
6.6.1	win	2023-06-12	13:15:22	0	0	610b64dc95ff0ef5b5b9ac6b	1	1	DL_test	16	DL_test	2			0		pa	1	2275	6	3	antiphase_hc_soi.wav	1	6	6	noise_calib_stim_RIGHT.wav	2	30	blb_dichoticlistening_pa-ta.mp3	pa	ta	1	left
6.6.1	win	2023-06-12	13:15:22	0	0	610b64dc95ff0ef5b5b9ac6b	1	1	DL_test	16	DL_test	3			0		da	1	1036	6	3	antiphase_hc_soi.wav	1	6	6	noise_calib_stim_RIGHT.wav	2	7	blb_dichoticlistening_da-ba.mp3	da	ba	1	left
6.6.1	win	2023-06-12	13:15:22	0	0	610b64dc95ff0ef5b5b9ac6b	1	1	DL_test	16	DL_test	4			0		ka	1	947	6	3	antiphase_hc_soi.wav	1	6	6	noise_calib_stim_RIGHT.wav	2	19	blb_dichoticlistening_ka-ba.mp3	ka	ba	1	left
6.6.1	win	2023-06-12	13:15:22	0	0	610b64dc95ff0ef5b5b9ac6b	1	1	DL_test	16	DL_test	5			0		ka	1	928	6	3	antiphase_hc_soi.wav	1	6	6	noise_calib_stim_RIGHT.wav	2	23	blb_dichoticlistening_ka-pa.mp3	ka	pa	1	left
6.6.1	win	2023-06-12	13:15:22	0	0	610b64dc95ff0ef5b5b9ac6b	1	1	DL_test	16	DL_test	6			0		ga	0	1431	6	3	antiphase_hc_soi.wav	1	6	6	noise_calib_stim_RIGHT.wav	2	4	blb_dichoticlistening_ba-ka.mp3	ba	ka	1	other
6.6.1	win	2023-06-12	13:15:22	0	0	610b64dc95ff0ef5b5b9ac6b	1	1	DL_test	16	DL_test	7			0		ta	1	1104	6	3	antiphase_hc_soi.wav	1	6	6	noise_calib_stim_RIGHT.wav	2	31	blb_dichoticlistening_ta-ba.mp3	ta	ba	1	left
6.6.1	win	2023-06-12	13:15:22	0	0	610b64dc95ff0ef5b5b9ac6b	1	1	DL_test	16	DL_test	8			0		pa	1	1604	6	3	antiphase_hc_soi.wav	1	6	6	noise_calib_stim_RIGHT.wav	2	11	blb_dichoticlistening_da-pa.mp3	da	pa	1	right
6.6.1	win	2023-06-12	13:15:22	0	0	610b64dc95ff0ef5b5b9ac6b	1	1	DL_test	16	DL_test	9			0		pa	1	1177	6	3	antiphase_hc_soi.wav	1	6	6	noise_calib_stim_RIGHT.wav	2	28	blb_dichoticlistening_pa-ka.mp3	pa	ka	1	left
6.6.1	win	2023-06-12	13:15:22	0	0	610b64dc95ff0ef5b5b9ac6b	1	1	DL_test	16	DL_test	10			0		ta	1	1495	6	3	antiphase_hc_soi.wav	1	6	6	noise_calib_stim_RIGHT.wav	2	36	blb_dichoticlistening_ta-ta.mp3	ta	ta	0	left
6.6.1	win	2023-06-12	13:15:22	0	0	610b64dc95ff0ef5b5b9ac6b	1	1	DL_test	16	DL_test	11			0		ba	1	1298	6	3	antiphase_hc_soi.wav	1	6	6	noise_calib_stim_RIGHT.wav	2	1	blb_dichoticlistening_ba-ba.mp3	ba	ba	0	left
6.6.1	win	2023-06-12	13:15:22	0	0	610b64dc95ff0ef5b5b9ac6b	1	1	DL_test	16	DL_test	12			0		ka	1	1141	6	3	antiphase_hc_soi.wav	1	6	6	noise_calib_stim_RIGHT.wav	2	20	blb_dichoticlistening_ka-da.mp3	ka	da	1	left
6.6.1	win	2023-06-12	13:15:22	0	0	610b64dc95ff0ef5b5b9ac6b	1	1	DL_test	16	DL_test	13			0		da	1	1209	6	3	antiphase_hc_soi.wav	1	6	6	noise_calib_stim_RIGHT.wav	2	2	blb_dichoticlistening_ba-da.mp3	ba	da	1	right
6.6.1	win	2023-06-12	13:15:22	0	0	610b64dc95ff0ef5b5b9ac6b	1	1	DL_test	16	DL_test	14			0		ba	1	2113	6	3	antiphase_hc_soi.wav	1	6	6	noise_calib_stim_RIGHT.wav	2	3	blb_dichoticlistening_ba-ga.mp3	ba	ga	1	left
6.6.1	win	2023-06-12	13:15:22	0	0	610b64dc95ff0ef5b5b9ac6b	1	1	DL_test	16	DL_test	15			0		pa	1	1366	6	3	antiphase_hc_soi.wav	1	6	6	noise_calib_stim_RIGHT.wav	2	25	blb_dichoticlistening_pa-ba.mp3	pa	ba	1	left
6.6.1	win	2023-06-12	13:15:22	0	0	610b64dc95ff0ef5b5b9ac6b	1	1	DL_test	16	DL_test	16			0		ta	1	1504	6	3	antiphase_hc_soi.wav	1	6	6	noise_calib_stim_RIGHT.wav	2	24	blb_dichoticlistening_ka-ta.mp3	ka	ta	1	right
6.6.1	win	2023-06-12	13:15:22	0	0	610b64dc95ff0ef5b5b9ac6b	1	1	DL_test	16	DL_test	17			0		pa	0	1281	6	3	antiphase_hc_soi.wav	1	6	6	noise_calib_stim_RIGHT.wav	2	10	blb_dichoticlistening_da-ka.mp3	da	ka	1	other
6.6.1	win	2023-06-12	13:15:22	0	0	610b64dc95ff0ef5b5b9ac6b	1	1	DL_test	16	DL_test	18			0		pa	1	2039	6	3	antiphase_hc_soi.wav	1	6	6	noise_calib_stim_RIGHT.wav	2	29	blb_dichoticlistening_pa-pa.mp3	pa	pa	0	left
6.6.1	win	2023-06-12	13:15:22	0	0	610b64dc95ff0ef5b5b9ac6b	1	1	DL_test	16	DL_test	19			0		ta	1	1463	6	3	antiphase_hc_soi.wav	1	6	6	noise_calib_stim_RIGHT.wav	2	35	blb_dichoticlistening_ta-pa.mp3	ta	pa	1	left
6.6.1	win	2023-06-12	13:15:22	0	0	610b64dc95ff0ef5b5b9ac6b	1	1	DL_test	16	DL_test	20			0		pa	1	1465	6	3	antiphase_hc_soi.wav	1	6	6	noise_calib_stim_RIGHT.wav	2	27	blb_dichoticlistening_pa-ga.mp3	pa	ga	1	left
6.6.1	win	2023-06-12	13:15:22	0	0	610b64dc95ff0ef5b5b9ac6b	1	1	DL_test	16	DL_test	21			0		ta	1	1620	6	3	antiphase_hc_soi.wav	1	6	6	noise_calib_stim_RIGHT.wav	2	34	blb_dichoticlistening_ta-ka.mp3	ta	ka	1	left
6.6.1	win	2023-06-12	13:15:22	0	0	610b64dc95ff0ef5b5b9ac6b	1	1	DL_test	16	DL_test	22			0		da	1	1428	6	3	antiphase_hc_soi.wav	1	6	6	noise_calib_stim_RIGHT.wav	2	9	blb_dichoticlistening_da-ga.mp3	da	ga	1	left
6.6.1	win	2023-06-12	13:15:22	0	0	610b64dc95ff0ef5b5b9ac6b	1	1	DL_test	16	DL_test	23			0		ka	0	988	6	3	antiphase_hc_soi.wav	1	6	6	noise_calib_stim_RIGHT.wav	2	32	blb_dichoticlistening_ta-da.mp3	ta	da	1	other
6.6.1	win	2023-06-12	13:15:22	0	0	610b64dc95ff0ef5b5b9ac6b	1	1	DL_test	16	DL_test	24			0		ta	0	1935	6	3	antiphase_hc_soi.wav	1	6	6	noise_calib_stim_RIGHT.wav	2	5	blb_dichoticlistening_ba-pa.mp3	ba	pa	1	other
6.6.1	win	2023-06-12	13:15:22	0	0	610b64dc95ff0ef5b5b9ac6b	1	1	DL_test	16	DL_test	25			0		ka	1	5259	6	3	antiphase_hc_soi.wav	1	6	6	noise_calib_stim_RIGHT.wav	2	22	blb_dichoticlistening_ka-ka.mp3	ka	ka	0	left
6.6.1	win	2023-06-12	13:15:22	0	0	610b64dc95ff0ef5b5b9ac6b	1	1	DL_test	16	DL_test	26			0		da	0	1803	6	3	antiphase_hc_soi.wav	1	6	6	noise_calib_stim_RIGHT.wav	2	13	blb_dichoticlistening_ga-ba.mp3	ga	ba	1	other
6.6.1	win	2023-06-12	13:15:22	0	0	610b64dc95ff0ef5b5b9ac6b	1	1	DL_test	16	DL_test	27			0		ka	1	1713	6	3	antiphase_hc_soi.wav	1	6	6	noise_calib_stim_RIGHT.wav	2	21	blb_dichoticlistening_ka-ga.mp3	ka	ga	1	left
6.6.1	win	2023-06-12	13:15:22	0	0	610b64dc95ff0ef5b5b9ac6b	1	1	DL_test	16	DL_test	28			0		ta	1	1402	6	3	antiphase_hc_soi.wav	1	6	6	noise_calib_stim_RIGHT.wav	2	18	blb_dichoticlistening_ga-ta.mp3	ga	ta	1	right
6.6.1	win	2023-06-12	13:15:22	0	0	610b64dc95ff0ef5b5b9ac6b	1	1	DL_test	16	DL_test	29			0		da	1	1217	6	3	antiphase_hc_soi.wav	1	6	6	noise_calib_stim_RIGHT.wav	2	8	blb_dichoticlistening_da-da.mp3	da	da	0	left
6.6.1	win	2023-06-12	13:15:22	0	0	610b64dc95ff0ef5b5b9ac6b	1	1	DL_test	16	DL_test	30			0		da	1	878	6	3	antiphase_hc_soi.wav	1	6	6	noise_calib_stim_RIGHT.wav	2	14	blb_dichoticlistening_ga-da.mp3	ga	da	1	right
6.6.1	win	2023-06-12	13:15:22	0	0	610b64dc95ff0ef5b5b9ac6b	1	1	DL_test	16	DL_test	31			0		ka	1	1577	6	3	antiphase_hc_soi.wav	1	6	6	noise_calib_stim_RIGHT.wav	2	16	blb_dichoticlistening_ga-ka.mp3	ga	ka	1	right
6.6.1	win	2023-06-12	13:15:22	0	0	610b64dc95ff0ef5b5b9ac6b	1	1	DL_test	16	DL_test	32			0		da	1	3009	6	3	antiphase_hc_soi.wav	1	6	6	noise_calib_stim_RIGHT.wav	2	12	blb_dichoticlistening_da-ta.mp3	da	ta	1	left
6.6.1	win	2023-06-12	13:15:22	0	0	610b64dc95ff0ef5b5b9ac6b	1	1	DL_test	16	DL_test	33			0		pa	0	1892	6	3	antiphase_hc_soi.wav	1	6	6	noise_calib_stim_RIGHT.wav	2	6	blb_dichoticlistening_ba-ta.mp3	ba	ta	1	other
6.6.1	win	2023-06-12	13:15:22	0	0	610b64dc95ff0ef5b5b9ac6b	1	1	DL_test	16	DL_test	34			0		da	0	2069	6	3	antiphase_hc_soi.wav	1	6	6	noise_calib_stim_RIGHT.wav	2	15	blb_dichoticlistening_ga-ga.mp3	ga	ga	0	other
6.6.1	win	2023-06-12	13:15:22	0	0	610b64dc95ff0ef5b5b9ac6b	1	1	DL_test	16	DL_test	35			0		ta	1	2829	6	3	antiphase_hc_soi.wav	1	6	6	noise_calib_stim_RIGHT.wav	2	33	blb_dichoticlistening_ta-ga.mp3	ta	ga	1	left
6.6.1	win	2023-06-12	13:15:22	0	0	610b64dc95ff0ef5b5b9ac6b	1	1	DL_test	16	DL_test	36			0		pa	1	1718	6	3	antiphase_hc_soi.wav	1	6	6	noise_calib_stim_RIGHT.wav	2	26	blb_dichoticlistening_pa-da.mp3	pa	da	1	left
6.6.1	win	2023-06-12	13:15:22	13:29:50	863310	610b64dc95ff0ef5b5b9ac6b	1	1	practice_slash	22	practice_slash	1	stimuli_target_diamondsquares.svg	stimuli_distractor_trianglediamonds.svg	6	yes	0	0	2000	6	3	antiphase_hc_soi.wav	1	6	6	noise_calib_stim_RIGHT.wav	2	26	blb_dichoticlistening_pa-da.mp3	pa	da	1	left
6.6.1	win	2023-06-12	13:15:22	13:29:50	863310	610b64dc95ff0ef5b5b9ac6b	1	1	practice_slash	22	advance_on_keypress_SLASH	2	stimuli_target_diamondsquares.svg	stimuli_distractor_trianglediamonds.svg	6	yes	57	0	548	6	3	antiphase_hc_soi.wav	1	6	6	noise_calib_stim_RIGHT.wav	2	26	blb_dichoticlistening_pa-da.mp3	pa	da	1	left
6.6.1	win	2023-06-12	13:15:22	13:29:53	866046	610b64dc95ff0ef5b5b9ac6b	1	1	practice_slash	22	practice_slash	3	stimuli_distractor_diamondtriangles.svg	stimuli_target_trianglerectangles.svg	9	yes	53	1	524	6	3	antiphase_hc_soi.wav	1	6	6	noise_calib_stim_RIGHT.wav	2	26	blb_dichoticlistening_pa-da.mp3	pa	da	1	left
6.6.1	win	2023-06-12	13:15:22	13:29:53	866046	610b64dc95ff0ef5b5b9ac6b	1	1	practice_slash	22	advance_on_keypress_SLASH	4	stimuli_distractor_diamondtriangles.svg	stimuli_target_trianglerectangles.svg	9	yes	57	0	450	6	3	antiphase_hc_soi.wav	1	6	6	noise_calib_stim_RIGHT.wav	2	26	blb_dichoticlistening_pa-da.mp3	pa	da	1	left
6.6.1	win	2023-06-12	13:15:22	13:29:55	868563	610b64dc95ff0ef5b5b9ac6b	1	1	practice_slash	22	practice_slash	5	stimuli_target_rectanglediamonds.svg	stimuli_distractor_trianglediamonds.svg	4	yes	53	1	407	6	3	antiphase_hc_soi.wav	1	6	6	noise_calib_stim_RIGHT.wav	2	26	blb_dichoticlistening_pa-da.mp3	pa	da	1	left
6.6.1	win	2023-06-12	13:15:22	13:29:55	868563	610b64dc95ff0ef5b5b9ac6b	1	1	practice_slash	22	advance_on_keypress_SLASH	6	stimuli_target_rectanglediamonds.svg	stimuli_distractor_trianglediamonds.svg	4	yes	57	0	359	6	3	antiphase_hc_soi.wav	1	6	6	noise_calib_stim_RIGHT.wav	2	26	blb_dichoticlistening_pa-da.mp3	pa	da	1	left
6.6.1	win	2023-06-12	13:15:22	13:29:58	871315	610b64dc95ff0ef5b5b9ac6b	1	1	practice_slash	22	practice_slash	7	stimuli_distractor_diamondtriangles.svg	stimuli_distractor_trianglediamonds.svg	14	no	53	0	759	6	3	antiphase_hc_soi.wav	1	6	6	noise_calib_stim_RIGHT.wav	2	26	blb_dichoticlistening_pa-da.mp3	pa	da	1	left
6.6.1	win	2023-06-12	13:15:22	13:29:58	871315	610b64dc95ff0ef5b5b9ac6b	1	1	practice_slash	22	advance_on_keypress_SLASH	8	stimuli_distractor_diamondtriangles.svg	stimuli_distractor_trianglediamonds.svg	14	no	57	0	429	6	3	antiphase_hc_soi.wav	1	6	6	noise_calib_stim_RIGHT.wav	2	26	blb_dichoticlistening_pa-da.mp3	pa	da	1	left
6.6.1	win	2023-06-12	13:15:22	13:30:01	873775	610b64dc95ff0ef5b5b9ac6b	1	1	practice_slash	22	practice_slash	9	stimuli_target_squarediamonds.svg	stimuli_distractor_trianglediamonds.svg	5	yes	53	1	371	6	3	antiphase_hc_soi.wav	1	6	6	noise_calib_stim_RIGHT.wav	2	26	blb_dichoticlistening_pa-da.mp3	pa	da	1	left
6.6.1	win	2023-06-12	13:15:22	13:30:01	873775	610b64dc95ff0ef5b5b9ac6b	1	1	practice_slash	22	advance_on_keypress_SLASH	10	stimuli_target_squarediamonds.svg	stimuli_distractor_trianglediamonds.svg	5	yes	57	0	364	6	3	antiphase_hc_soi.wav	1	6	6	noise_calib_stim_RIGHT.wav	2	26	blb_dichoticlistening_pa-da.mp3	pa	da	1	left
6.6.1	win	2023-06-12	13:15:22	13:30:03	876056	610b64dc95ff0ef5b5b9ac6b	1	1	practice_slash	22	practice_slash	11	stimuli_distractor_diamondtriangles.svg	stimuli_target_diamondrectangles.svg	8	yes	53	1	263	6	3	antiphase_hc_soi.wav	1	6	6	noise_calib_stim_RIGHT.wav	2	26	blb_dichoticlistening_pa-da.mp3	pa	da	1	left
6.6.1	win	2023-06-12	13:15:22	13:30:03	876056	610b64dc95ff0ef5b5b9ac6b	1	1	practice_slash	22	advance_on_keypress_SLASH	12	stimuli_distractor_diamondtriangles.svg	stimuli_target_diamondrectangles.svg	8	yes	57	0	325	6	3	antiphase_hc_soi.wav	1	6	6	noise_calib_stim_RIGHT.wav	2	26	blb_dichoticlistening_pa-da.mp3	pa	da	1	left
6.6.1	win	2023-06-12	13:15:22	13:30:05	878116	610b64dc95ff0ef5b5b9ac6b	1	1	practice_slash	22	practice_slash	13	stimuli_target_rectanglediamonds.svg	stimuli_distractor_diamondtriangles.svg	1	yes	53	1	88	6	3	antiphase_hc_soi.wav	1	6	6	noise_calib_stim_RIGHT.wav	2	26	blb_dichoticlistening_pa-da.mp3	pa	da	1	left
6.6.1	win	2023-06-12	13:15:22	13:30:05	878116	610b64dc95ff0ef5b5b9ac6b	1	1	practice_slash	22	advance_on_keypress_SLASH	14	stimuli_target_rectanglediamonds.svg	stimuli_distractor_diamondtriangles.svg	1	yes	57	0	348	6	3	antiphase_hc_soi.wav	1	6	6	noise_calib_stim_RIGHT.wav	2	26	blb_dichoticlistening_pa-da.mp3	pa	da	1	left
6.6.1	win	2023-06-12	13:15:22	13:30:08	880986	610b64dc95ff0ef5b5b9ac6b	1	1	practice_slash	22	practice_slash	15	stimuli_distractor_trianglediamonds.svg	stimuli_distractor_diamondtriangles.svg	16	no	53	0	876	6	3	antiphase_hc_soi.wav	1	6	6	noise_calib_stim_RIGHT.wav	2	26	blb_dichoticlistening_pa-da.mp3	pa	da	1	left
6.6.1	win	2023-06-12	13:15:22	13:30:08	880986	610b64dc95ff0ef5b5b9ac6b	1	1	practice_slash	22	advance_on_keypress_SLASH	16	stimuli_distractor_trianglediamonds.svg	stimuli_distractor_diamondtriangles.svg	16	no	57	0	290	6	3	antiphase_hc_soi.wav	1	6	6	noise_calib_stim_RIGHT.wav	2	26	blb_dichoticlistening_pa-da.mp3	pa	da	1	left
6.6.1	win	2023-06-12	13:15:22	13:30:10	883277	610b64dc95ff0ef5b5b9ac6b	1	1	practice_slash	22	practice_slash	17	stimuli_target_squarediamonds.svg	stimuli_distractor_diamondtriangles.svg	2	yes	53	1	366	6	3	antiphase_hc_soi.wav	1	6	6	noise_calib_stim_RIGHT.wav	2	26	blb_dichoticlistening_pa-da.mp3	pa	da	1	left
6.6.1	win	2023-06-12	13:15:22	13:30:10	883277	610b64dc95ff0ef5b5b9ac6b	1	1	practice_slash	22	advance_on_keypress_SLASH	18	stimuli_target_squarediamonds.svg	stimuli_distractor_diamondtriangles.svg	2	yes	57	0	364	6	3	antiphase_hc_soi.wav	1	6	6	noise_calib_stim_RIGHT.wav	2	26	blb_dichoticlistening_pa-da.mp3	pa	da	1	left
6.6.1	win	2023-06-12	13:15:22	13:30:12	885550	610b64dc95ff0ef5b5b9ac6b	1	1	practice_slash	22	practice_slash	19	stimuli_distractor_trianglediamonds.svg	stimuli_target_squarediamonds.svg	11	yes	53	1	254	6	3	antiphase_hc_soi.wav	1	6	6	noise_calib_stim_RIGHT.wav	2	26	blb_dichoticlistening_pa-da.mp3	pa	da	1	left
6.6.1	win	2023-06-12	13:15:22	13:30:12	885550	610b64dc95ff0ef5b5b9ac6b	1	1	practice_slash	22	advance_on_keypress_SLASH	20	stimuli_distractor_trianglediamonds.svg	stimuli_target_squarediamonds.svg	11	yes	57	0	225	6	3	antiphase_hc_soi.wav	1	6	6	noise_calib_stim_RIGHT.wav	2	26	blb_dichoticlistening_pa-da.mp3	pa	da	1	left
6.6.1	win	2023-06-12	13:15:22	13:30:14	887577	610b64dc95ff0ef5b5b9ac6b	1	1	practice_slash	22	practice_slash	21	stimuli_distractor_trianglediamonds.svg	stimuli_target_rectanglediamonds.svg	10	yes	53	1	163	6	3	antiphase_hc_soi.wav	1	6	6	noise_calib_stim_RIGHT.wav	2	26	blb_dichoticlistening_pa-da.mp3	pa	da	1	left
6.6.1	win	2023-06-12	13:15:22	13:30:14	887577	610b64dc95ff0ef5b5b9ac6b	1	1	practice_slash	22	advance_on_keypress_SLASH	22	stimuli_distractor_trianglediamonds.svg	stimuli_target_rectanglediamonds.svg	10	yes	57	0	310	6	3	antiphase_hc_soi.wav	1	6	6	noise_calib_stim_RIGHT.wav	2	26	blb_dichoticlistening_pa-da.mp3	pa	da	1	left
6.6.1	win	2023-06-12	13:15:22	13:30:17	889783	610b64dc95ff0ef5b5b9ac6b	1	1	practice_slash	22	practice_slash	23	stimuli_distractor_trianglediamonds.svg	stimuli_target_diamondrectangles.svg	12	yes	53	1	236	6	3	antiphase_hc_soi.wav	1	6	6	noise_calib_stim_RIGHT.wav	2	26	blb_dichoticlistening_pa-da.mp3	pa	da	1	left
6.6.1	win	2023-06-12	13:15:22	13:30:17	889783	610b64dc95ff0ef5b5b9ac6b	1	1	practice_slash	22	advance_on_keypress_SLASH	24	stimuli_distractor_trianglediamonds.svg	stimuli_target_diamondrectangles.svg	12	yes	57	0	170	6	3	antiphase_hc_soi.wav	1	6	6	noise_calib_stim_RIGHT.wav	2	26	blb_dichoticlistening_pa-da.mp3	pa	da	1	left
6.6.1	win	2023-06-12	13:15:22	13:30:19	891640	610b64dc95ff0ef5b5b9ac6b	1	1	practice_slash	22	practice_slash	25	stimuli_distractor_diamondtriangles.svg	stimuli_distractor_diamondtriangles.svg	13	no	53	0	41	6	3	antiphase_hc_soi.wav	1	6	6	noise_calib_stim_RIGHT.wav	2	26	blb_dichoticlistening_pa-da.mp3	pa	da	1	left
6.6.1	win	2023-06-12	13:15:22	13:30:19	891640	610b64dc95ff0ef5b5b9ac6b	1	1	practice_slash	22	advance_on_keypress_SLASH	26	stimuli_distractor_diamondtriangles.svg	stimuli_distractor_diamondtriangles.svg	13	no	57	0	324	6	3	antiphase_hc_soi.wav	1	6	6	noise_calib_stim_RIGHT.wav	2	26	blb_dichoticlistening_pa-da.mp3	pa	da	1	left
6.6.1	win	2023-06-12	13:15:22	13:30:21	893826	610b64dc95ff0ef5b5b9ac6b	1	1	practice_slash	22	practice_slash	27	stimuli_distractor_diamondtriangles.svg	stimuli_target_rectangletriangles.svg	7	yes	53	1	210	6	3	antiphase_hc_soi.wav	1	6	6	noise_calib_stim_RIGHT.wav	2	26	blb_dichoticlistening_pa-da.mp3	pa	da	1	left
6.6.1	win	2023-06-12	13:15:22	13:30:21	893826	610b64dc95ff0ef5b5b9ac6b	1	1	practice_slash	22	advance_on_keypress_SLASH	28	stimuli_distractor_diamondtriangles.svg	stimuli_target_rectangletriangles.svg	7	yes	57	0	245	6	3	antiphase_hc_soi.wav	1	6	6	noise_calib_stim_RIGHT.wav	2	26	blb_dichoticlistening_pa-da.mp3	pa	da	1	left
6.6.1	win	2023-06-12	13:15:22	13:30:23	895976	610b64dc95ff0ef5b5b9ac6b	1	1	practice_slash	22	practice_slash	29	stimuli_distractor_trianglediamonds.svg	stimuli_distractor_trianglediamonds.svg	15	no	53	0	259	6	3	antiphase_hc_soi.wav	1	6	6	noise_calib_stim_RIGHT.wav	2	26	blb_dichoticlistening_pa-da.mp3	pa	da	1	left
6.6.1	win	2023-06-12	13:15:22	13:30:23	895976	610b64dc95ff0ef5b5b9ac6b	1	1	practice_slash	22	advance_on_keypress_SLASH	30	stimuli_distractor_trianglediamonds.svg	stimuli_distractor_trianglediamonds.svg	15	no	57	0	255	6	3	antiphase_hc_soi.wav	1	6	6	noise_calib_stim_RIGHT.wav	2	26	blb_dichoticlistening_pa-da.mp3	pa	da	1	left
6.6.1	win	2023-06-12	13:15:22	13:30:25	898425	610b64dc95ff0ef5b5b9ac6b	1	1	practice_slash	22	practice_slash	31	stimuli_target_diamondsquares.svg	stimuli_distractor_diamondtriangles.svg	3	yes	53	1	558	6	3	antiphase_hc_soi.wav	1	6	6	noise_calib_stim_RIGHT.wav	2	26	blb_dichoticlistening_pa-da.mp3	pa	da	1	left
6.6.1	win	2023-06-12	13:15:22	13:30:25	898425	610b64dc95ff0ef5b5b9ac6b	1	1	practice_slash	22	advance_on_keypress_SLASH	32	stimuli_target_diamondsquares.svg	stimuli_distractor_diamondtriangles.svg	3	yes	57	0	415	6	3	antiphase_hc_soi.wav	1	6	6	noise_calib_stim_RIGHT.wav	2	26	blb_dichoticlistening_pa-da.mp3	pa	da	1	left
6.6.1	win	2023-06-12	13:15:22	13:30:31	904425	610b64dc95ff0ef5b5b9ac6b	1	1	main_slash	24	main_slash	1	stimuli_distractor_trianglediamonds.svg	stimuli_target_squarediamonds.svg	12	yes	53	1	333	6	3	antiphase_hc_soi.wav	1	6	6	noise_calib_stim_RIGHT.wav	2	26	blb_dichoticlistening_pa-da.mp3	pa	da	1	left
6.6.1	win	2023-06-12	13:15:22	13:30:31	904425	610b64dc95ff0ef5b5b9ac6b	1	1	main_slash	24	advance_on_keypress_SLASH	2	stimuli_distractor_trianglediamonds.svg	stimuli_target_squarediamonds.svg	12	yes	57	0	805	6	3	antiphase_hc_soi.wav	1	6	6	noise_calib_stim_RIGHT.wav	2	26	blb_dichoticlistening_pa-da.mp3	pa	da	1	left
6.6.1	win	2023-06-12	13:15:22	13:30:33	906048	610b64dc95ff0ef5b5b9ac6b	1	1	main_slash	24	main_slash	3	stimuli_distractor_diamondtriangles.svg	stimuli_target_squaretriangles.svg	15	yes	53	1	179	6	3	antiphase_hc_soi.wav	1	6	6	noise_calib_stim_RIGHT.wav	2	26	blb_dichoticlistening_pa-da.mp3	pa	da	1	left
6.6.1	win	2023-06-12	13:15:22	13:30:33	906048	610b64dc95ff0ef5b5b9ac6b	1	1	main_slash	24	advance_on_keypress_SLASH	4	stimuli_distractor_diamondtriangles.svg	stimuli_target_squaretriangles.svg	15	yes	57	0	628	6	3	antiphase_hc_soi.wav	1	6	6	noise_calib_stim_RIGHT.wav	2	26	blb_dichoticlistening_pa-da.mp3	pa	da	1	left
6.6.1	win	2023-06-12	13:15:22	13:30:34	907465	610b64dc95ff0ef5b5b9ac6b	1	1	main_slash	24	main_slash	5	stimuli_distractor_diamondtriangles.svg	stimuli_distractor_diamondtriangles.svg	39	no	53	0	162	6	3	antiphase_hc_soi.wav	1	6	6	noise_calib_stim_RIGHT.wav	2	26	blb_dichoticlistening_pa-da.mp3	pa	da	1	left
6.6.1	win	2023-06-12	13:15:22	13:30:34	907465	610b64dc95ff0ef5b5b9ac6b	1	1	main_slash	24	advance_on_keypress_SLASH	6	stimuli_distractor_diamondtriangles.svg	stimuli_distractor_diamondtriangles.svg	39	no	57	0	666	6	3	antiphase_hc_soi.wav	1	6	6	noise_calib_stim_RIGHT.wav	2	26	blb_dichoticlistening_pa-da.mp3	pa	da	1	left
6.6.1	win	2023-06-12	13:15:22	13:30:36	909070	610b64dc95ff0ef5b5b9ac6b	1	1	main_slash	24	main_slash	7	stimuli_distractor_diamondtriangles.svg	stimuli_target_diamondsquares.svg	32	yes	53	1	284	6	3	antiphase_hc_soi.wav	1	6	6	noise_calib_stim_RIGHT.wav	2	26	blb_dichoticlistening_pa-da.mp3	pa	da	1	left
6.6.1	win	2023-06-12	13:15:22	13:30:36	909070	610b64dc95ff0ef5b5b9ac6b	1	1	main_slash	24	advance_on_keypress_SLASH	8	stimuli_distractor_diamondtriangles.svg	stimuli_target_diamondsquares.svg	32	yes	57	0	2856	6	3	antiphase_hc_soi.wav	1	6	6	noise_calib_stim_RIGHT.wav	2	26	blb_dichoticlistening_pa-da.mp3	pa	da	1	left
6.6.1	win	2023-06-12	13:15:22	13:30:40	912811	610b64dc95ff0ef5b5b9ac6b	1	1	main_slash	24	main_slash	9	stimuli_target_squaretriangles.svg	stimuli_distractor_trianglediamonds.svg	3	yes	53	1	240	6	3	antiphase_hc_soi.wav	1	6	6	noise_calib_stim_RIGHT.wav	2	26	blb_dichoticlistening_pa-da.mp3	pa	da	1	left
6.6.1	win	2023-06-12	13:15:22	13:30:40	912811	610b64dc95ff0ef5b5b9ac6b	1	1	main_slash	24	advance_on_keypress_SLASH	10	stimuli_target_squaretriangles.svg	stimuli_distractor_trianglediamonds.svg	3	yes	57	0	742	6	3	antiphase_hc_soi.wav	1	6	6	noise_calib_stim_RIGHT.wav	2	26	blb_dichoticlistening_pa-da.mp3	pa	da	1	left
6.6.1	win	2023-06-12	13:15:22	13:30:41	914497	610b64dc95ff0ef5b5b9ac6b	1	1	main_slash	24	main_slash	11	stimuli_distractor_trianglediamonds.svg	stimuli_target_diamondrectangles.svg	27	yes	53	1	309	6	3	antiphase_hc_soi.wav	1	6	6	noise_calib_stim_RIGHT.wav	2	26	blb_dichoticlistening_pa-da.mp3	pa	da	1	left
6.6.1	win	2023-06-12	13:15:22	13:30:41	914497	610b64dc95ff0ef5b5b9ac6b	1	1	main_slash	24	advance_on_keypress_SLASH	12	stimuli_distractor_trianglediamonds.svg	stimuli_target_diamondrectangles.svg	27	yes	57	0	894	6	3	antiphase_hc_soi.wav	1	6	6	noise_calib_stim_RIGHT.wav	2	26	blb_dichoticlistening_pa-da.mp3	pa	da	1	left
6.6.1	win	2023-06-12	13:15:22	13:30:43	916256	610b64dc95ff0ef5b5b9ac6b	1	1	main_slash	24	main_slash	13	stimuli_distractor_trianglediamonds.svg	stimuli_target_rectanglediamonds.svg	10	yes	53	1	233	6	3	antiphase_hc_soi.wav	1	6	6	noise_calib_stim_RIGHT.wav	2	26	blb_dichoticlistening_pa-da.mp3	pa	da	1	left
6.6.1	win	2023-06-12	13:15:22	13:30:43	916256	610b64dc95ff0ef5b5b9ac6b	1	1	main_slash	24	advance_on_keypress_SLASH	14	stimuli_distractor_trianglediamonds.svg	stimuli_target_rectanglediamonds.svg	10	yes	57	0	497	6	3	antiphase_hc_soi.wav	1	6	6	noise_calib_stim_RIGHT.wav	2	26	blb_dichoticlistening_pa-da.mp3	pa	da	1	left
6.6.1	win	2023-06-12	13:15:22	13:30:45	917676	610b64dc95ff0ef5b5b9ac6b	1	1	main_slash	24	main_slash	15	stimuli_distractor_diamondtriangles.svg	stimuli_target_rectanglediamonds.svg	14	yes	53	1	270	6	3	antiphase_hc_soi.wav	1	6	6	noise_calib_stim_RIGHT.wav	2	26	blb_dichoticlistening_pa-da.mp3	pa	da	1	left
6.6.1	win	2023-06-12	13:15:22	13:30:45	917676	610b64dc95ff0ef5b5b9ac6b	1	1	main_slash	24	advance_on_keypress_SLASH	16	stimuli_distractor_diamondtriangles.svg	stimuli_target_rectanglediamonds.svg	14	yes	57	0	426	6	3	antiphase_hc_soi.wav	1	6	6	noise_calib_stim_RIGHT.wav	2	26	blb_dichoticlistening_pa-da.mp3	pa	da	1	left
6.6.1	win	2023-06-12	13:15:22	13:30:46	918978	610b64dc95ff0ef5b5b9ac6b	1	1	main_slash	24	main_slash	17	stimuli_target_rectangletriangles.svg	stimuli_distractor_trianglediamonds.svg	1	yes	53	1	238	6	3	antiphase_hc_soi.wav	1	6	6	noise_calib_stim_RIGHT.wav	2	26	blb_dichoticlistening_pa-da.mp3	pa	da	1	left
6.6.1	win	2023-06-12	13:15:22	13:30:46	918978	610b64dc95ff0ef5b5b9ac6b	1	1	main_slash	24	advance_on_keypress_SLASH	18	stimuli_target_rectangletriangles.svg	stimuli_distractor_trianglediamonds.svg	1	yes	57	0	397	6	3	antiphase_hc_soi.wav	1	6	6	noise_calib_stim_RIGHT.wav	2	26	blb_dichoticlistening_pa-da.mp3	pa	da	1	left
6.6.1	win	2023-06-12	13:15:22	13:30:47	920280	610b64dc95ff0ef5b5b9ac6b	1	1	main_slash	24	main_slash	19	stimuli_distractor_diamondtriangles.svg	stimuli_distractor_diamondtriangles.svg	40	no	53	0	256	6	3	antiphase_hc_soi.wav	1	6	6	noise_calib_stim_RIGHT.wav	2	26	blb_dichoticlistening_pa-da.mp3	pa	da	1	left
6.6.1	win	2023-06-12	13:15:22	13:30:47	920280	610b64dc95ff0ef5b5b9ac6b	1	1	main_slash	24	advance_on_keypress_SLASH	20	stimuli_distractor_diamondtriangles.svg	stimuli_distractor_diamondtriangles.svg	40	no	57	0	418	6	3	antiphase_hc_soi.wav	1	6	6	noise_calib_stim_RIGHT.wav	2	26	blb_dichoticlistening_pa-da.mp3	pa	da	1	left
6.6.1	win	2023-06-12	13:15:22	13:30:48	921610	610b64dc95ff0ef5b5b9ac6b	1	1	main_slash	24	main_slash	21	stimuli_target_squaretriangles.svg	stimuli_distractor_diamondtriangles.svg	7	yes	53	1	269	6	3	antiphase_hc_soi.wav	1	6	6	noise_calib_stim_RIGHT.wav	2	26	blb_dichoticlistening_pa-da.mp3	pa	da	1	left
6.6.1	win	2023-06-12	13:15:22	13:30:48	921610	610b64dc95ff0ef5b5b9ac6b	1	1	main_slash	24	advance_on_keypress_SLASH	22	stimuli_target_squaretriangles.svg	stimuli_distractor_diamondtriangles.svg	7	yes	57	0	479	6	3	antiphase_hc_soi.wav	1	6	6	noise_calib_stim_RIGHT.wav	2	26	blb_dichoticlistening_pa-da.mp3	pa	da	1	left
6.6.1	win	2023-06-12	13:15:22	13:30:50	922955	610b64dc95ff0ef5b5b9ac6b	1	1	main_slash	24	main_slash	23	stimuli_target_trianglesquares.svg	stimuli_distractor_diamondtriangles.svg	22	yes	53	1	230	6	3	antiphase_hc_soi.wav	1	6	6	noise_calib_stim_RIGHT.wav	2	26	blb_dichoticlistening_pa-da.mp3	pa	da	1	left
6.6.1	win	2023-06-12	13:15:22	13:30:50	922955	610b64dc95ff0ef5b5b9ac6b	1	1	main_slash	24	advance_on_keypress_SLASH	24	stimuli_target_trianglesquares.svg	stimuli_distractor_diamondtriangles.svg	22	yes	57	0	562	6	3	antiphase_hc_soi.wav	1	6	6	noise_calib_stim_RIGHT.wav	2	26	blb_dichoticlistening_pa-da.mp3	pa	da	1	left
6.6.1	win	2023-06-12	13:15:22	13:30:51	924481	610b64dc95ff0ef5b5b9ac6b	1	1	main_slash	24	main_slash	25	stimuli_target_squarediamonds.svg	stimuli_distractor_trianglediamonds.svg	4	yes	53	1	322	6	3	antiphase_hc_soi.wav	1	6	6	noise_calib_stim_RIGHT.wav	2	26	blb_dichoticlistening_pa-da.mp3	pa	da	1	left
6.6.1	win	2023-06-12	13:15:22	13:30:51	924481	610b64dc95ff0ef5b5b9ac6b	1	1	main_slash	24	advance_on_keypress_SLASH	26	stimuli_target_squarediamonds.svg	stimuli_distractor_trianglediamonds.svg	4	yes	57	0	620	6	3	antiphase_hc_soi.wav	1	6	6	noise_calib_stim_RIGHT.wav	2	26	blb_dichoticlistening_pa-da.mp3	pa	da	1	left
6.6.1	win	2023-06-12	13:15:22	13:30:53	925935	610b64dc95ff0ef5b5b9ac6b	1	1	main_slash	24	main_slash	27	stimuli_target_diamondrectangles.svg	stimuli_distractor_diamondtriangles.svg	23	yes	53	1	192	6	3	antiphase_hc_soi.wav	1	6	6	noise_calib_stim_RIGHT.wav	2	26	blb_dichoticlistening_pa-da.mp3	pa	da	1	left
6.6.1	win	2023-06-12	13:15:22	13:30:53	925935	610b64dc95ff0ef5b5b9ac6b	1	1	main_slash	24	advance_on_keypress_SLASH	28	stimuli_target_diamondrectangles.svg	stimuli_distractor_diamondtriangles.svg	23	yes	57	0	402	6	3	antiphase_hc_soi.wav	1	6	6	noise_calib_stim_RIGHT.wav	2	26	blb_dichoticlistening_pa-da.mp3	pa	da	1	left
6.6.1	win	2023-06-12	13:15:22	13:30:56	928660	610b64dc95ff0ef5b5b9ac6b	1	1	main_slash	24	main_slash	29	stimuli_distractor_diamondtriangles.svg	stimuli_target_trianglerectangles.svg	29	yes	53	1	1682	6	3	antiphase_hc_soi.wav	1	6	6	noise_calib_stim_RIGHT.wav	2	26	blb_dichoticlistening_pa-da.mp3	pa	da	1	left
6.6.1	win	2023-06-12	13:15:22	13:30:56	928660	610b64dc95ff0ef5b5b9ac6b	1	1	main_slash	24	advance_on_keypress_SLASH	30	stimuli_distractor_diamondtriangles.svg	stimuli_target_trianglerectangles.svg	29	yes	57	0	415	6	3	antiphase_hc_soi.wav	1	6	6	noise_calib_stim_RIGHT.wav	2	26	blb_dichoticlistening_pa-da.mp3	pa	da	1	left
6.6.1	win	2023-06-12	13:15:22	13:30:57	930552	610b64dc95ff0ef5b5b9ac6b	1	1	main_slash	24	main_slash	31	stimuli_target_squarediamonds.svg	stimuli_distractor_diamondtriangles.svg	8	yes	53	1	823	6	3	antiphase_hc_soi.wav	1	6	6	noise_calib_stim_RIGHT.wav	2	26	blb_dichoticlistening_pa-da.mp3	pa	da	1	left
6.6.1	win	2023-06-12	13:15:22	13:30:57	930552	610b64dc95ff0ef5b5b9ac6b	1	1	main_slash	24	advance_on_keypress_SLASH	32	stimuli_target_squarediamonds.svg	stimuli_distractor_diamondtriangles.svg	8	yes	57	0	408	6	3	antiphase_hc_soi.wav	1	6	6	noise_calib_stim_RIGHT.wav	2	26	blb_dichoticlistening_pa-da.mp3	pa	da	1	left
6.6.1	win	2023-06-12	13:15:22	13:30:59	932349	610b64dc95ff0ef5b5b9ac6b	1	1	main_slash	24	main_slash	33	stimuli_distractor_diamondtriangles.svg	stimuli_distractor_trianglediamonds.svg	37	no	53	0	755	6	3	antiphase_hc_soi.wav	1	6	6	noise_calib_stim_RIGHT.wav	2	26	blb_dichoticlistening_pa-da.mp3	pa	da	1	left
6.6.1	win	2023-06-12	13:15:22	13:30:59	932349	610b64dc95ff0ef5b5b9ac6b	1	1	main_slash	24	advance_on_keypress_SLASH	34	stimuli_distractor_diamondtriangles.svg	stimuli_distractor_trianglediamonds.svg	37	no	57	0	393	6	3	antiphase_hc_soi.wav	1	6	6	noise_calib_stim_RIGHT.wav	2	26	blb_dichoticlistening_pa-da.mp3	pa	da	1	left
6.6.1	win	2023-06-12	13:15:22	13:31:02	935380	610b64dc95ff0ef5b5b9ac6b	1	1	main_slash	24	main_slash	35	stimuli_distractor_diamondtriangles.svg	stimuli_target_diamondrectangles.svg	31	yes	0	0	2000	6	3	antiphase_hc_soi.wav	1	6	6	noise_calib_stim_RIGHT.wav	2	26	blb_dichoticlistening_pa-da.mp3	pa	da	1	left
6.6.1	win	2023-06-12	13:15:22	13:31:02	935380	610b64dc95ff0ef5b5b9ac6b	1	1	main_slash	24	advance_on_keypress_SLASH	36	stimuli_distractor_diamondtriangles.svg	stimuli_target_diamondrectangles.svg	31	yes	57	0	392	6	3	antiphase_hc_soi.wav	1	6	6	noise_calib_stim_RIGHT.wav	2	26	blb_dichoticlistening_pa-da.mp3	pa	da	1	left
6.6.1	win	2023-06-12	13:15:22	13:31:05	938414	610b64dc95ff0ef5b5b9ac6b	1	1	main_slash	24	main_slash	37	stimuli_distractor_trianglediamonds.svg	stimuli_target_trianglerectangles.svg	25	yes	0	0	2000	6	3	antiphase_hc_soi.wav	1	6	6	noise_calib_stim_RIGHT.wav	2	26	blb_dichoticlistening_pa-da.mp3	pa	da	1	left
6.6.1	win	2023-06-12	13:15:22	13:31:05	938414	610b64dc95ff0ef5b5b9ac6b	1	1	main_slash	24	advance_on_keypress_SLASH	38	stimuli_distractor_trianglediamonds.svg	stimuli_target_trianglerectangles.svg	25	yes	57	0	270	6	3	antiphase_hc_soi.wav	1	6	6	noise_calib_stim_RIGHT.wav	2	26	blb_dichoticlistening_pa-da.mp3	pa	da	1	left
6.6.1	win	2023-06-12	13:15:22	13:31:07	939621	610b64dc95ff0ef5b5b9ac6b	1	1	main_slash	24	main_slash	39	stimuli_distractor_diamondtriangles.svg	stimuli_target_squarediamonds.svg	16	yes	53	1	290	6	3	antiphase_hc_soi.wav	1	6	6	noise_calib_stim_RIGHT.wav	2	26	blb_dichoticlistening_pa-da.mp3	pa	da	1	left
6.6.1	win	2023-06-12	13:15:22	13:31:07	939621	610b64dc95ff0ef5b5b9ac6b	1	1	main_slash	24	advance_on_keypress_SLASH	40	stimuli_distractor_diamondtriangles.svg	stimuli_target_squarediamonds.svg	16	yes	57	0	666	6	3	antiphase_hc_soi.wav	1	6	6	noise_calib_stim_RIGHT.wav	2	26	blb_dichoticlistening_pa-da.mp3	pa	da	1	left
6.6.1	win	2023-06-12	13:15:22	13:31:08	941173	610b64dc95ff0ef5b5b9ac6b	1	1	main_slash	24	main_slash	41	stimuli_distractor_trianglediamonds.svg	stimuli_distractor_trianglediamonds.svg	34	no	53	0	242	6	3	antiphase_hc_soi.wav	1	6	6	noise_calib_stim_RIGHT.wav	2	26	blb_dichoticlistening_pa-da.mp3	pa	da	1	left
6.6.1	win	2023-06-12	13:15:22	13:31:08	941173	610b64dc95ff0ef5b5b9ac6b	1	1	main_slash	24	advance_on_keypress_SLASH	42	stimuli_distractor_trianglediamonds.svg	stimuli_distractor_trianglediamonds.svg	34	no	57	0	505	6	3	antiphase_hc_soi.wav	1	6	6	noise_calib_stim_RIGHT.wav	2	26	blb_dichoticlistening_pa-da.mp3	pa	da	1	left
6.6.1	win	2023-06-12	13:15:22	13:31:10	942627	610b64dc95ff0ef5b5b9ac6b	1	1	main_slash	24	main_slash	43	stimuli_target_rectanglediamonds.svg	stimuli_distractor_diamondtriangles.svg	6	yes	53	1	311	6	3	antiphase_hc_soi.wav	1	6	6	noise_calib_stim_RIGHT.wav	2	26	blb_dichoticlistening_pa-da.mp3	pa	da	1	left
6.6.1	win	2023-06-12	13:15:22	13:31:10	942627	610b64dc95ff0ef5b5b9ac6b	1	1	main_slash	24	advance_on_keypress_SLASH	44	stimuli_target_rectanglediamonds.svg	stimuli_distractor_diamondtriangles.svg	6	yes	57	0	480	6	3	antiphase_hc_soi.wav	1	6	6	noise_calib_stim_RIGHT.wav	2	26	blb_dichoticlistening_pa-da.mp3	pa	da	1	left
6.6.1	win	2023-06-12	13:15:22	13:31:11	944000	610b64dc95ff0ef5b5b9ac6b	1	1	main_slash	24	main_slash	45	stimuli_target_diamondsquares.svg	stimuli_distractor_trianglediamonds.svg	20	yes	53	1	250	6	3	antiphase_hc_soi.wav	1	6	6	noise_calib_stim_RIGHT.wav	2	26	blb_dichoticlistening_pa-da.mp3	pa	da	1	left
6.6.1	win	2023-06-12	13:15:22	13:31:11	944000	610b64dc95ff0ef5b5b9ac6b	1	1	main_slash	24	advance_on_keypress_SLASH	46	stimuli_target_diamondsquares.svg	stimuli_distractor_trianglediamonds.svg	20	yes	57	0	384	6	3	antiphase_hc_soi.wav	1	6	6	noise_calib_stim_RIGHT.wav	2	26	blb_dichoticlistening_pa-da.mp3	pa	da	1	left
6.6.1	win	2023-06-12	13:15:22	13:31:12	945453	610b64dc95ff0ef5b5b9ac6b	1	1	main_slash	24	main_slash	47	stimuli_distractor_trianglediamonds.svg	stimuli_target_rectangletriangles.svg	9	yes	53	1	418	6	3	antiphase_hc_soi.wav	1	6	6	noise_calib_stim_RIGHT.wav	2	26	blb_dichoticlistening_pa-da.mp3	pa	da	1	left
6.6.1	win	2023-06-12	13:15:22	13:31:12	945453	610b64dc95ff0ef5b5b9ac6b	1	1	main_slash	24	advance_on_keypress_SLASH	48	stimuli_distractor_trianglediamonds.svg	stimuli_target_rectangletriangles.svg	9	yes	57	0	524	6	3	antiphase_hc_soi.wav	1	6	6	noise_calib_stim_RIGHT.wav	2	26	blb_dichoticlistening_pa-da.mp3	pa	da	1	left
6.6.1	win	2023-06-12	13:15:22	13:31:14	946968	610b64dc95ff0ef5b5b9ac6b	1	1	main_slash	24	main_slash	49	stimuli_distractor_trianglediamonds.svg	stimuli_distractor_trianglediamonds.svg	33	no	53	0	351	6	3	antiphase_hc_soi.wav	1	6	6	noise_calib_stim_RIGHT.wav	2	26	blb_dichoticlistening_pa-da.mp3	pa	da	1	left
6.6.1	win	2023-06-12	13:15:22	13:31:14	946968	610b64dc95ff0ef5b5b9ac6b	1	1	main_slash	24	advance_on_keypress_SLASH	50	stimuli_distractor_trianglediamonds.svg	stimuli_distractor_trianglediamonds.svg	33	no	57	0	368	6	3	antiphase_hc_soi.wav	1	6	6	noise_calib_stim_RIGHT.wav	2	26	blb_dichoticlistening_pa-da.mp3	pa	da	1	left
6.6.1	win	2023-06-12	13:15:22	13:31:17	949985	610b64dc95ff0ef5b5b9ac6b	1	1	main_slash	24	main_slash	51	stimuli_target_trianglerectangles.svg	stimuli_distractor_diamondtriangles.svg	21	yes	0	0	2000	6	3	antiphase_hc_soi.wav	1	6	6	noise_calib_stim_RIGHT.wav	2	26	blb_dichoticlistening_pa-da.mp3	pa	da	1	left
6.6.1	win	2023-06-12	13:15:22	13:31:17	949985	610b64dc95ff0ef5b5b9ac6b	1	1	main_slash	24	advance_on_keypress_SLASH	52	stimuli_target_trianglerectangles.svg	stimuli_distractor_diamondtriangles.svg	21	yes	57	0	315	6	3	antiphase_hc_soi.wav	1	6	6	noise_calib_stim_RIGHT.wav	2	26	blb_dichoticlistening_pa-da.mp3	pa	da	1	left
6.6.1	win	2023-06-12	13:15:22	13:31:18	951171	610b64dc95ff0ef5b5b9ac6b	1	1	main_slash	24	main_slash	53	stimuli_target_diamondsquares.svg	stimuli_distractor_diamondtriangles.svg	24	yes	53	1	218	6	3	antiphase_hc_soi.wav	1	6	6	noise_calib_stim_RIGHT.wav	2	26	blb_dichoticlistening_pa-da.mp3	pa	da	1	left
6.6.1	win	2023-06-12	13:15:22	13:31:18	951171	610b64dc95ff0ef5b5b9ac6b	1	1	main_slash	24	advance_on_keypress_SLASH	54	stimuli_target_diamondsquares.svg	stimuli_distractor_diamondtriangles.svg	24	yes	57	0	379	6	3	antiphase_hc_soi.wav	1	6	6	noise_calib_stim_RIGHT.wav	2	26	blb_dichoticlistening_pa-da.mp3	pa	da	1	left
6.6.1	win	2023-06-12	13:15:22	13:31:20	952891	610b64dc95ff0ef5b5b9ac6b	1	1	main_slash	24	main_slash	55	stimuli_distractor_trianglediamonds.svg	stimuli_target_diamondsquares.svg	28	yes	53	1	705	6	3	antiphase_hc_soi.wav	1	6	6	noise_calib_stim_RIGHT.wav	2	26	blb_dichoticlistening_pa-da.mp3	pa	da	1	left
6.6.1	win	2023-06-12	13:15:22	13:31:20	952891	610b64dc95ff0ef5b5b9ac6b	1	1	main_slash	24	advance_on_keypress_SLASH	56	stimuli_distractor_trianglediamonds.svg	stimuli_target_diamondsquares.svg	28	yes	57	0	396	6	3	antiphase_hc_soi.wav	1	6	6	noise_calib_stim_RIGHT.wav	2	26	blb_dichoticlistening_pa-da.mp3	pa	da	1	left
6.6.1	win	2023-06-12	13:15:22	13:31:22	954738	610b64dc95ff0ef5b5b9ac6b	1	1	main_slash	24	main_slash	57	stimuli_target_rectanglediamonds.svg	stimuli_distractor_trianglediamonds.svg	2	yes	53	1	801	6	3	antiphase_hc_soi.wav	1	6	6	noise_calib_stim_RIGHT.wav	2	26	blb_dichoticlistening_pa-da.mp3	pa	da	1	left
6.6.1	win	2023-06-12	13:15:22	13:31:22	954738	610b64dc95ff0ef5b5b9ac6b	1	1	main_slash	24	advance_on_keypress_SLASH	58	stimuli_target_rectanglediamonds.svg	stimuli_distractor_trianglediamonds.svg	2	yes	57	0	319	6	3	antiphase_hc_soi.wav	1	6	6	noise_calib_stim_RIGHT.wav	2	26	blb_dichoticlistening_pa-da.mp3	pa	da	1	left
6.6.1	win	2023-06-12	13:15:22	13:31:24	957440	610b64dc95ff0ef5b5b9ac6b	1	1	main_slash	24	main_slash	59	stimuli_distractor_trianglediamonds.svg	stimuli_distractor_diamondtriangles.svg	36	no	53	0	1736	6	3	antiphase_hc_soi.wav	1	6	6	noise_calib_stim_RIGHT.wav	2	26	blb_dichoticlistening_pa-da.mp3	pa	da	1	left
6.6.1	win	2023-06-12	13:15:22	13:31:24	957440	610b64dc95ff0ef5b5b9ac6b	1	1	main_slash	24	advance_on_keypress_SLASH	60	stimuli_distractor_trianglediamonds.svg	stimuli_distractor_diamondtriangles.svg	36	no	57	0	258	6	3	antiphase_hc_soi.wav	1	6	6	noise_calib_stim_RIGHT.wav	2	26	blb_dichoticlistening_pa-da.mp3	pa	da	1	left
6.6.1	win	2023-06-12	13:15:22	13:31:25	958593	610b64dc95ff0ef5b5b9ac6b	1	1	main_slash	24	main_slash	61	stimuli_distractor_trianglediamonds.svg	stimuli_target_squaretriangles.svg	11	yes	53	1	254	6	3	antiphase_hc_soi.wav	1	6	6	noise_calib_stim_RIGHT.wav	2	26	blb_dichoticlistening_pa-da.mp3	pa	da	1	left
6.6.1	win	2023-06-12	13:15:22	13:31:25	958593	610b64dc95ff0ef5b5b9ac6b	1	1	main_slash	24	advance_on_keypress_SLASH	62	stimuli_distractor_trianglediamonds.svg	stimuli_target_squaretriangles.svg	11	yes	57	0	383	6	3	antiphase_hc_soi.wav	1	6	6	noise_calib_stim_RIGHT.wav	2	26	blb_dichoticlistening_pa-da.mp3	pa	da	1	left
6.6.1	win	2023-06-12	13:15:22	13:31:27	959931	610b64dc95ff0ef5b5b9ac6b	1	1	main_slash	24	main_slash	63	stimuli_distractor_diamondtriangles.svg	stimuli_target_rectangletriangles.svg	13	yes	53	1	309	6	3	antiphase_hc_soi.wav	1	6	6	noise_calib_stim_RIGHT.wav	2	26	blb_dichoticlistening_pa-da.mp3	pa	da	1	left
6.6.1	win	2023-06-12	13:15:22	13:31:27	959931	610b64dc95ff0ef5b5b9ac6b	1	1	main_slash	24	advance_on_keypress_SLASH	64	stimuli_distractor_diamondtriangles.svg	stimuli_target_rectangletriangles.svg	13	yes	57	0	227	6	3	antiphase_hc_soi.wav	1	6	6	noise_calib_stim_RIGHT.wav	2	26	blb_dichoticlistening_pa-da.mp3	pa	da	1	left
6.6.1	win	2023-06-12	13:15:22	13:31:28	961033	610b64dc95ff0ef5b5b9ac6b	1	1	main_slash	24	main_slash	65	stimuli_distractor_trianglediamonds.svg	stimuli_distractor_diamondtriangles.svg	35	no	53	0	243	6	3	antiphase_hc_soi.wav	1	6	6	noise_calib_stim_RIGHT.wav	2	26	blb_dichoticlistening_pa-da.mp3	pa	da	1	left
6.6.1	win	2023-06-12	13:15:22	13:31:28	961033	610b64dc95ff0ef5b5b9ac6b	1	1	main_slash	24	advance_on_keypress_SLASH	66	stimuli_distractor_trianglediamonds.svg	stimuli_distractor_diamondtriangles.svg	35	no	57	0	89	6	3	antiphase_hc_soi.wav	1	6	6	noise_calib_stim_RIGHT.wav	2	26	blb_dichoticlistening_pa-da.mp3	pa	da	1	left
6.6.1	win	2023-06-12	13:15:22	13:31:29	962176	610b64dc95ff0ef5b5b9ac6b	1	1	main_slash	24	main_slash	67	stimuli_target_trianglerectangles.svg	stimuli_distractor_trianglediamonds.svg	17	yes	53	1	420	6	3	antiphase_hc_soi.wav	1	6	6	noise_calib_stim_RIGHT.wav	2	26	blb_dichoticlistening_pa-da.mp3	pa	da	1	left
6.6.1	win	2023-06-12	13:15:22	13:31:29	962176	610b64dc95ff0ef5b5b9ac6b	1	1	main_slash	24	advance_on_keypress_SLASH	68	stimuli_target_trianglerectangles.svg	stimuli_distractor_trianglediamonds.svg	17	yes	57	0	333	6	3	antiphase_hc_soi.wav	1	6	6	noise_calib_stim_RIGHT.wav	2	26	blb_dichoticlistening_pa-da.mp3	pa	da	1	left
6.6.1	win	2023-06-12	13:15:22	13:31:32	965158	610b64dc95ff0ef5b5b9ac6b	1	1	main_slash	24	main_slash	69	stimuli_distractor_trianglediamonds.svg	stimuli_target_trianglesquares.svg	26	yes	0	0	2000	6	3	antiphase_hc_soi.wav	1	6	6	noise_calib_stim_RIGHT.wav	2	26	blb_dichoticlistening_pa-da.mp3	pa	da	1	left
6.6.1	win	2023-06-12	13:15:22	13:31:32	965158	610b64dc95ff0ef5b5b9ac6b	1	1	main_slash	24	advance_on_keypress_SLASH	70	stimuli_distractor_trianglediamonds.svg	stimuli_target_trianglesquares.svg	26	yes	57	0	291	6	3	antiphase_hc_soi.wav	1	6	6	noise_calib_stim_RIGHT.wav	2	26	blb_dichoticlistening_pa-da.mp3	pa	da	1	left
6.6.1	win	2023-06-12	13:15:22	13:31:33	966609	610b64dc95ff0ef5b5b9ac6b	1	1	main_slash	24	main_slash	71	stimuli_target_rectangletriangles.svg	stimuli_distractor_diamondtriangles.svg	5	yes	53	1	512	6	3	antiphase_hc_soi.wav	1	6	6	noise_calib_stim_RIGHT.wav	2	26	blb_dichoticlistening_pa-da.mp3	pa	da	1	left
6.6.1	win	2023-06-12	13:15:22	13:31:33	966609	610b64dc95ff0ef5b5b9ac6b	1	1	main_slash	24	advance_on_keypress_SLASH	72	stimuli_target_rectangletriangles.svg	stimuli_distractor_diamondtriangles.svg	5	yes	57	0	250	6	3	antiphase_hc_soi.wav	1	6	6	noise_calib_stim_RIGHT.wav	2	26	blb_dichoticlistening_pa-da.mp3	pa	da	1	left
6.6.1	win	2023-06-12	13:15:22	13:31:35	967903	610b64dc95ff0ef5b5b9ac6b	1	1	main_slash	24	main_slash	73	stimuli_distractor_diamondtriangles.svg	stimuli_distractor_trianglediamonds.svg	38	no	53	0	394	6	3	antiphase_hc_soi.wav	1	6	6	noise_calib_stim_RIGHT.wav	2	26	blb_dichoticlistening_pa-da.mp3	pa	da	1	left
6.6.1	win	2023-06-12	13:15:22	13:31:35	967903	610b64dc95ff0ef5b5b9ac6b	1	1	main_slash	24	advance_on_keypress_SLASH	74	stimuli_distractor_diamondtriangles.svg	stimuli_distractor_trianglediamonds.svg	38	no	57	0	214	6	3	antiphase_hc_soi.wav	1	6	6	noise_calib_stim_RIGHT.wav	2	26	blb_dichoticlistening_pa-da.mp3	pa	da	1	left
6.6.1	win	2023-06-12	13:15:22	13:31:36	969418	610b64dc95ff0ef5b5b9ac6b	1	1	main_slash	24	main_slash	75	stimuli_target_trianglesquares.svg	stimuli_distractor_trianglediamonds.svg	18	yes	53	1	659	6	3	antiphase_hc_soi.wav	1	6	6	noise_calib_stim_RIGHT.wav	2	26	blb_dichoticlistening_pa-da.mp3	pa	da	1	left
6.6.1	win	2023-06-12	13:15:22	13:31:36	969418	610b64dc95ff0ef5b5b9ac6b	1	1	main_slash	24	advance_on_keypress_SLASH	76	stimuli_target_trianglesquares.svg	stimuli_distractor_trianglediamonds.svg	18	yes	57	0	271	6	3	antiphase_hc_soi.wav	1	6	6	noise_calib_stim_RIGHT.wav	2	26	blb_dichoticlistening_pa-da.mp3	pa	da	1	left
6.6.1	win	2023-06-12	13:15:22	13:31:37	970546	610b64dc95ff0ef5b5b9ac6b	1	1	main_slash	24	main_slash	77	stimuli_distractor_diamondtriangles.svg	stimuli_target_trianglesquares.svg	30	yes	53	1	220	6	3	antiphase_hc_soi.wav	1	6	6	noise_calib_stim_RIGHT.wav	2	26	blb_dichoticlistening_pa-da.mp3	pa	da	1	left
6.6.1	win	2023-06-12	13:15:22	13:31:37	970546	610b64dc95ff0ef5b5b9ac6b	1	1	main_slash	24	advance_on_keypress_SLASH	78	stimuli_distractor_diamondtriangles.svg	stimuli_target_trianglesquares.svg	30	yes	57	0	106	6	3	antiphase_hc_soi.wav	1	6	6	noise_calib_stim_RIGHT.wav	2	26	blb_dichoticlistening_pa-da.mp3	pa	da	1	left
6.6.1	win	2023-06-12	13:15:22	13:31:40	973294	610b64dc95ff0ef5b5b9ac6b	1	1	main_slash	24	main_slash	79	stimuli_target_diamondrectangles.svg	stimuli_distractor_trianglediamonds.svg	19	yes	0	0	2000	6	3	antiphase_hc_soi.wav	1	6	6	noise_calib_stim_RIGHT.wav	2	26	blb_dichoticlistening_pa-da.mp3	pa	da	1	left
6.6.1	win	2023-06-12	13:15:22	13:31:40	973294	610b64dc95ff0ef5b5b9ac6b	1	1	main_slash	24	advance_on_keypress_SLASH	80	stimuli_target_diamondrectangles.svg	stimuli_distractor_trianglediamonds.svg	19	yes	57	0	254	6	3	antiphase_hc_soi.wav	1	6	6	noise_calib_stim_RIGHT.wav	2	26	blb_dichoticlistening_pa-da.mp3	pa	da	1	left
6.6.1	win	2023-06-12	13:15:22	13:31:42	975448	610b64dc95ff0ef5b5b9ac6b	1	1	main_slash	24	main_slash	81	stimuli_distractor_diamondtriangles.svg	stimuli_target_trianglesquares.svg	30	yes	53	1	1253	6	3	antiphase_hc_soi.wav	1	6	6	noise_calib_stim_RIGHT.wav	2	26	blb_dichoticlistening_pa-da.mp3	pa	da	1	left
6.6.1	win	2023-06-12	13:15:22	13:31:42	975448	610b64dc95ff0ef5b5b9ac6b	1	1	main_slash	24	advance_on_keypress_SLASH	82	stimuli_distractor_diamondtriangles.svg	stimuli_target_trianglesquares.svg	30	yes	57	0	156	6	3	antiphase_hc_soi.wav	1	6	6	noise_calib_stim_RIGHT.wav	2	26	blb_dichoticlistening_pa-da.mp3	pa	da	1	left
6.6.1	win	2023-06-12	13:15:22	13:31:45	977839	610b64dc95ff0ef5b5b9ac6b	1	1	main_slash	24	main_slash	83	stimuli_distractor_diamondtriangles.svg	stimuli_target_diamondrectangles.svg	31	yes	53	1	1594	6	3	antiphase_hc_soi.wav	1	6	6	noise_calib_stim_RIGHT.wav	2	26	blb_dichoticlistening_pa-da.mp3	pa	da	1	left
6.6.1	win	2023-06-12	13:15:22	13:31:45	977839	610b64dc95ff0ef5b5b9ac6b	1	1	main_slash	24	advance_on_keypress_SLASH	84	stimuli_distractor_diamondtriangles.svg	stimuli_target_diamondrectangles.svg	31	yes	57	0	837	6	3	antiphase_hc_soi.wav	1	6	6	noise_calib_stim_RIGHT.wav	2	26	blb_dichoticlistening_pa-da.mp3	pa	da	1	left
6.6.1	win	2023-06-12	13:15:22	13:31:47	980015	610b64dc95ff0ef5b5b9ac6b	1	1	main_slash	24	main_slash	85	stimuli_distractor_trianglediamonds.svg	stimuli_target_diamondrectangles.svg	27	yes	53	1	701	6	3	antiphase_hc_soi.wav	1	6	6	noise_calib_stim_RIGHT.wav	2	26	blb_dichoticlistening_pa-da.mp3	pa	da	1	left
6.6.1	win	2023-06-12	13:15:22	13:31:47	980015	610b64dc95ff0ef5b5b9ac6b	1	1	main_slash	24	advance_on_keypress_SLASH	86	stimuli_distractor_trianglediamonds.svg	stimuli_target_diamondrectangles.svg	27	yes	57	0	90	6	3	antiphase_hc_soi.wav	1	6	6	noise_calib_stim_RIGHT.wav	2	26	blb_dichoticlistening_pa-da.mp3	pa	da	1	left
6.6.1	win	2023-06-12	13:15:22	13:31:48	981414	610b64dc95ff0ef5b5b9ac6b	1	1	main_slash	24	main_slash	87	stimuli_distractor_diamondtriangles.svg	stimuli_target_diamondsquares.svg	32	yes	53	1	667	6	3	antiphase_hc_soi.wav	1	6	6	noise_calib_stim_RIGHT.wav	2	26	blb_dichoticlistening_pa-da.mp3	pa	da	1	left
6.6.1	win	2023-06-12	13:15:22	13:31:48	981414	610b64dc95ff0ef5b5b9ac6b	1	1	main_slash	24	advance_on_keypress_SLASH	88	stimuli_distractor_diamondtriangles.svg	stimuli_target_diamondsquares.svg	32	yes	57	0	27	6	3	antiphase_hc_soi.wav	1	6	6	noise_calib_stim_RIGHT.wav	2	26	blb_dichoticlistening_pa-da.mp3	pa	da	1	left
6.6.1	win	2023-06-12	13:15:22	13:31:49	982378	610b64dc95ff0ef5b5b9ac6b	1	1	main_slash	24	main_slash	89	stimuli_distractor_diamondtriangles.svg	stimuli_target_rectanglediamonds.svg	14	yes	53	1	297	6	3	antiphase_hc_soi.wav	1	6	6	noise_calib_stim_RIGHT.wav	2	26	blb_dichoticlistening_pa-da.mp3	pa	da	1	left
6.6.1	win	2023-06-12	13:15:22	13:31:49	982378	610b64dc95ff0ef5b5b9ac6b	1	1	main_slash	24	advance_on_keypress_SLASH	90	stimuli_distractor_diamondtriangles.svg	stimuli_target_rectanglediamonds.svg	14	yes	57	0	39	6	3	antiphase_hc_soi.wav	1	6	6	noise_calib_stim_RIGHT.wav	2	26	blb_dichoticlistening_pa-da.mp3	pa	da	1	left
6.6.1	win	2023-06-12	13:15:22	13:31:50	983401	610b64dc95ff0ef5b5b9ac6b	1	1	main_slash	24	main_slash	91	stimuli_target_trianglerectangles.svg	stimuli_distractor_trianglediamonds.svg	17	yes	53	1	335	6	3	antiphase_hc_soi.wav	1	6	6	noise_calib_stim_RIGHT.wav	2	26	blb_dichoticlistening_pa-da.mp3	pa	da	1	left
6.6.1	win	2023-06-12	13:15:22	13:31:50	983401	610b64dc95ff0ef5b5b9ac6b	1	1	main_slash	24	advance_on_keypress_SLASH	92	stimuli_target_trianglerectangles.svg	stimuli_distractor_trianglediamonds.svg	17	yes	57	0	49	6	3	antiphase_hc_soi.wav	1	6	6	noise_calib_stim_RIGHT.wav	2	26	blb_dichoticlistening_pa-da.mp3	pa	da	1	left
6.6.1	win	2023-06-12	13:15:22	13:31:52	984749	610b64dc95ff0ef5b5b9ac6b	1	1	main_slash	24	main_slash	93	stimuli_target_diamondrectangles.svg	stimuli_distractor_trianglediamonds.svg	19	yes	53	1	650	6	3	antiphase_hc_soi.wav	1	6	6	noise_calib_stim_RIGHT.wav	2	26	blb_dichoticlistening_pa-da.mp3	pa	da	1	left
6.6.1	win	2023-06-12	13:15:22	13:31:52	984749	610b64dc95ff0ef5b5b9ac6b	1	1	main_slash	24	advance_on_keypress_SLASH	94	stimuli_target_diamondrectangles.svg	stimuli_distractor_trianglediamonds.svg	19	yes	57	0	95	6	3	antiphase_hc_soi.wav	1	6	6	noise_calib_stim_RIGHT.wav	2	26	blb_dichoticlistening_pa-da.mp3	pa	da	1	left
6.6.1	win	2023-06-12	13:15:22	13:31:53	985871	610b64dc95ff0ef5b5b9ac6b	1	1	main_slash	24	main_slash	95	stimuli_target_trianglerectangles.svg	stimuli_distractor_diamondtriangles.svg	21	yes	53	1	388	6	3	antiphase_hc_soi.wav	1	6	6	noise_calib_stim_RIGHT.wav	2	26	blb_dichoticlistening_pa-da.mp3	pa	da	1	left
6.6.1	win	2023-06-12	13:15:22	13:31:53	985871	610b64dc95ff0ef5b5b9ac6b	1	1	main_slash	24	advance_on_keypress_SLASH	96	stimuli_target_trianglerectangles.svg	stimuli_distractor_diamondtriangles.svg	21	yes	57	0	30	6	3	antiphase_hc_soi.wav	1	6	6	noise_calib_stim_RIGHT.wav	2	26	blb_dichoticlistening_pa-da.mp3	pa	da	1	left
6.6.1	win	2023-06-12	13:15:22	13:31:54	987292	610b64dc95ff0ef5b5b9ac6b	1	1	main_slash	24	main_slash	97	stimuli_distractor_trianglediamonds.svg	stimuli_distractor_trianglediamonds.svg	33	no	53	0	742	6	3	antiphase_hc_soi.wav	1	6	6	noise_calib_stim_RIGHT.wav	2	26	blb_dichoticlistening_pa-da.mp3	pa	da	1	left
6.6.1	win	2023-06-12	13:15:22	13:31:54	987292	610b64dc95ff0ef5b5b9ac6b	1	1	main_slash	24	advance_on_keypress_SLASH	98	stimuli_distractor_trianglediamonds.svg	stimuli_distractor_trianglediamonds.svg	33	no	57	0	42	6	3	antiphase_hc_soi.wav	1	6	6	noise_calib_stim_RIGHT.wav	2	26	blb_dichoticlistening_pa-da.mp3	pa	da	1	left
6.6.1	win	2023-06-12	13:15:22	13:31:55	988410	610b64dc95ff0ef5b5b9ac6b	1	1	main_slash	24	main_slash	99	stimuli_distractor_trianglediamonds.svg	stimuli_target_squaretriangles.svg	11	yes	53	1	443	6	3	antiphase_hc_soi.wav	1	6	6	noise_calib_stim_RIGHT.wav	2	26	blb_dichoticlistening_pa-da.mp3	pa	da	1	left
6.6.1	win	2023-06-12	13:15:22	13:31:55	988410	610b64dc95ff0ef5b5b9ac6b	1	1	main_slash	24	advance_on_keypress_SLASH	100	stimuli_distractor_trianglediamonds.svg	stimuli_target_squaretriangles.svg	11	yes	57	0	75	6	3	antiphase_hc_soi.wav	1	6	6	noise_calib_stim_RIGHT.wav	2	26	blb_dichoticlistening_pa-da.mp3	pa	da	1	left
6.6.1	win	2023-06-12	13:15:22	13:31:58	991117	610b64dc95ff0ef5b5b9ac6b	1	1	main_slash	24	main_slash	101	stimuli_distractor_diamondtriangles.svg	stimuli_distractor_diamondtriangles.svg	40	no	0	1	2000	6	3	antiphase_hc_soi.wav	1	6	6	noise_calib_stim_RIGHT.wav	2	26	blb_dichoticlistening_pa-da.mp3	pa	da	1	left
6.6.1	win	2023-06-12	13:15:22	13:31:58	991117	610b64dc95ff0ef5b5b9ac6b	1	1	main_slash	24	advance_on_keypress_SLASH	102	stimuli_distractor_diamondtriangles.svg	stimuli_distractor_diamondtriangles.svg	40	no	57	0	808	6	3	antiphase_hc_soi.wav	1	6	6	noise_calib_stim_RIGHT.wav	2	26	blb_dichoticlistening_pa-da.mp3	pa	da	1	left
6.6.1	win	2023-06-12	13:15:22	13:32:00	992907	610b64dc95ff0ef5b5b9ac6b	1	1	main_slash	24	main_slash	103	stimuli_distractor_diamondtriangles.svg	stimuli_target_squarediamonds.svg	16	yes	53	1	339	6	3	antiphase_hc_soi.wav	1	6	6	noise_calib_stim_RIGHT.wav	2	26	blb_dichoticlistening_pa-da.mp3	pa	da	1	left
6.6.1	win	2023-06-12	13:15:22	13:32:00	992907	610b64dc95ff0ef5b5b9ac6b	1	1	main_slash	24	advance_on_keypress_SLASH	104	stimuli_distractor_diamondtriangles.svg	stimuli_target_squarediamonds.svg	16	yes	57	0	74	6	3	antiphase_hc_soi.wav	1	6	6	noise_calib_stim_RIGHT.wav	2	26	blb_dichoticlistening_pa-da.mp3	pa	da	1	left
6.6.1	win	2023-06-12	13:15:22	13:32:01	993883	610b64dc95ff0ef5b5b9ac6b	1	1	main_slash	24	main_slash	105	stimuli_target_rectangletriangles.svg	stimuli_distractor_trianglediamonds.svg	1	yes	53	1	264	6	3	antiphase_hc_soi.wav	1	6	6	noise_calib_stim_RIGHT.wav	2	26	blb_dichoticlistening_pa-da.mp3	pa	da	1	left
6.6.1	win	2023-06-12	13:15:22	13:32:01	993883	610b64dc95ff0ef5b5b9ac6b	1	1	main_slash	24	advance_on_keypress_SLASH	106	stimuli_target_rectangletriangles.svg	stimuli_distractor_trianglediamonds.svg	1	yes	57	0	53	6	3	antiphase_hc_soi.wav	1	6	6	noise_calib_stim_RIGHT.wav	2	26	blb_dichoticlistening_pa-da.mp3	pa	da	1	left
6.6.1	win	2023-06-12	13:15:22	13:32:02	994847	610b64dc95ff0ef5b5b9ac6b	1	1	main_slash	24	main_slash	107	stimuli_target_diamondsquares.svg	stimuli_distractor_diamondtriangles.svg	24	yes	53	1	261	6	3	antiphase_hc_soi.wav	1	6	6	noise_calib_stim_RIGHT.wav	2	26	blb_dichoticlistening_pa-da.mp3	pa	da	1	left
6.6.1	win	2023-06-12	13:15:22	13:32:02	994847	610b64dc95ff0ef5b5b9ac6b	1	1	main_slash	24	advance_on_keypress_SLASH	108	stimuli_target_diamondsquares.svg	stimuli_distractor_diamondtriangles.svg	24	yes	57	0	66	6	3	antiphase_hc_soi.wav	1	6	6	noise_calib_stim_RIGHT.wav	2	26	blb_dichoticlistening_pa-da.mp3	pa	da	1	left
6.6.1	win	2023-06-12	13:15:22	13:32:03	995813	610b64dc95ff0ef5b5b9ac6b	1	1	main_slash	24	main_slash	109	stimuli_distractor_trianglediamonds.svg	stimuli_target_diamondsquares.svg	28	yes	53	1	260	6	3	antiphase_hc_soi.wav	1	6	6	noise_calib_stim_RIGHT.wav	2	26	blb_dichoticlistening_pa-da.mp3	pa	da	1	left
6.6.1	win	2023-06-12	13:15:22	13:32:03	995813	610b64dc95ff0ef5b5b9ac6b	1	1	main_slash	24	advance_on_keypress_SLASH	110	stimuli_distractor_trianglediamonds.svg	stimuli_target_diamondsquares.svg	28	yes	57	0	42	6	3	antiphase_hc_soi.wav	1	6	6	noise_calib_stim_RIGHT.wav	2	26	blb_dichoticlistening_pa-da.mp3	pa	da	1	left
6.6.1	win	2023-06-12	13:15:22	13:32:04	996713	610b64dc95ff0ef5b5b9ac6b	1	1	main_slash	24	main_slash	111	stimuli_distractor_trianglediamonds.svg	stimuli_target_rectangletriangles.svg	9	yes	53	1	226	6	3	antiphase_hc_soi.wav	1	6	6	noise_calib_stim_RIGHT.wav	2	26	blb_dichoticlistening_pa-da.mp3	pa	da	1	left
6.6.1	win	2023-06-12	13:15:22	13:32:04	996713	610b64dc95ff0ef5b5b9ac6b	1	1	main_slash	24	advance_on_keypress_SLASH	112	stimuli_distractor_trianglediamonds.svg	stimuli_target_rectangletriangles.svg	9	yes	57	0	61	6	3	antiphase_hc_soi.wav	1	6	6	noise_calib_stim_RIGHT.wav	2	26	blb_dichoticlistening_pa-da.mp3	pa	da	1	left
6.6.1	win	2023-06-12	13:15:22	13:32:05	997708	610b64dc95ff0ef5b5b9ac6b	1	1	main_slash	24	main_slash	113	stimuli_distractor_diamondtriangles.svg	stimuli_distractor_diamondtriangles.svg	39	no	53	0	305	6	3	antiphase_hc_soi.wav	1	6	6	noise_calib_stim_RIGHT.wav	2	26	blb_dichoticlistening_pa-da.mp3	pa	da	1	left
6.6.1	win	2023-06-12	13:15:22	13:32:05	997708	610b64dc95ff0ef5b5b9ac6b	1	1	main_slash	24	advance_on_keypress_SLASH	114	stimuli_distractor_diamondtriangles.svg	stimuli_distractor_diamondtriangles.svg	39	no	57	0	18	6	3	antiphase_hc_soi.wav	1	6	6	noise_calib_stim_RIGHT.wav	2	26	blb_dichoticlistening_pa-da.mp3	pa	da	1	left
6.6.1	win	2023-06-12	13:15:22	13:32:06	998755	610b64dc95ff0ef5b5b9ac6b	1	1	main_slash	24	main_slash	115	stimuli_target_squaretriangles.svg	stimuli_distractor_trianglediamonds.svg	3	yes	53	1	372	6	3	antiphase_hc_soi.wav	1	6	6	noise_calib_stim_RIGHT.wav	2	26	blb_dichoticlistening_pa-da.mp3	pa	da	1	left
6.6.1	win	2023-06-12	13:15:22	13:32:06	998755	610b64dc95ff0ef5b5b9ac6b	1	1	main_slash	24	advance_on_keypress_SLASH	116	stimuli_target_squaretriangles.svg	stimuli_distractor_trianglediamonds.svg	3	yes	57	0	48	6	3	antiphase_hc_soi.wav	1	6	6	noise_calib_stim_RIGHT.wav	2	26	blb_dichoticlistening_pa-da.mp3	pa	da	1	left
6.6.1	win	2023-06-12	13:15:22	13:32:07	999758	610b64dc95ff0ef5b5b9ac6b	1	1	main_slash	24	main_slash	117	stimuli_target_rectanglediamonds.svg	stimuli_distractor_diamondtriangles.svg	6	yes	53	1	304	6	3	antiphase_hc_soi.wav	1	6	6	noise_calib_stim_RIGHT.wav	2	26	blb_dichoticlistening_pa-da.mp3	pa	da	1	left
6.6.1	win	2023-06-12	13:15:22	13:32:07	999758	610b64dc95ff0ef5b5b9ac6b	1	1	main_slash	24	advance_on_keypress_SLASH	118	stimuli_target_rectanglediamonds.svg	stimuli_distractor_diamondtriangles.svg	6	yes	57	0	19	6	3	antiphase_hc_soi.wav	1	6	6	noise_calib_stim_RIGHT.wav	2	26	blb_dichoticlistening_pa-da.mp3	pa	da	1	left
6.6.1	win	2023-06-12	13:15:22	13:32:08	1000674	610b64dc95ff0ef5b5b9ac6b	1	1	main_slash	24	main_slash	119	stimuli_distractor_trianglediamonds.svg	stimuli_distractor_diamondtriangles.svg	35	no	53	0	251	6	3	antiphase_hc_soi.wav	1	6	6	noise_calib_stim_RIGHT.wav	2	26	blb_dichoticlistening_pa-da.mp3	pa	da	1	left
6.6.1	win	2023-06-12	13:15:22	13:32:08	1000674	610b64dc95ff0ef5b5b9ac6b	1	1	main_slash	24	advance_on_keypress_SLASH	120	stimuli_distractor_trianglediamonds.svg	stimuli_distractor_diamondtriangles.svg	35	no	57	0	18	6	3	antiphase_hc_soi.wav	1	6	6	noise_calib_stim_RIGHT.wav	2	26	blb_dichoticlistening_pa-da.mp3	pa	da	1	left
6.6.1	win	2023-06-12	13:15:22	13:32:09	1001755	610b64dc95ff0ef5b5b9ac6b	1	1	main_slash	24	main_slash	121	stimuli_target_squaretriangles.svg	stimuli_distractor_diamondtriangles.svg	7	yes	53	1	416	6	3	antiphase_hc_soi.wav	1	6	6	noise_calib_stim_RIGHT.wav	2	26	blb_dichoticlistening_pa-da.mp3	pa	da	1	left
6.6.1	win	2023-06-12	13:15:22	13:32:09	1001755	610b64dc95ff0ef5b5b9ac6b	1	1	main_slash	24	advance_on_keypress_SLASH	122	stimuli_target_squaretriangles.svg	stimuli_distractor_diamondtriangles.svg	7	yes	57	0	0	6	3	antiphase_hc_soi.wav	1	6	6	noise_calib_stim_RIGHT.wav	2	26	blb_dichoticlistening_pa-da.mp3	pa	da	1	left
6.6.1	win	2023-06-12	13:15:22	13:32:10	1002649	610b64dc95ff0ef5b5b9ac6b	1	1	main_slash	24	main_slash	123	stimuli_distractor_trianglediamonds.svg	stimuli_distractor_trianglediamonds.svg	34	no	53	0	227	6	3	antiphase_hc_soi.wav	1	6	6	noise_calib_stim_RIGHT.wav	2	26	blb_dichoticlistening_pa-da.mp3	pa	da	1	left
6.6.1	win	2023-06-12	13:15:22	13:32:10	1002649	610b64dc95ff0ef5b5b9ac6b	1	1	main_slash	24	advance_on_keypress_SLASH	124	stimuli_distractor_trianglediamonds.svg	stimuli_distractor_trianglediamonds.svg	34	no	57	0	3	6	3	antiphase_hc_soi.wav	1	6	6	noise_calib_stim_RIGHT.wav	2	26	blb_dichoticlistening_pa-da.mp3	pa	da	1	left
6.6.1	win	2023-06-12	13:15:22	13:32:11	1004095	610b64dc95ff0ef5b5b9ac6b	1	1	main_slash	24	main_slash	125	stimuli_target_diamondsquares.svg	stimuli_distractor_trianglediamonds.svg	20	yes	53	1	789	6	3	antiphase_hc_soi.wav	1	6	6	noise_calib_stim_RIGHT.wav	2	26	blb_dichoticlistening_pa-da.mp3	pa	da	1	left
6.6.1	win	2023-06-12	13:15:22	13:32:11	1004095	610b64dc95ff0ef5b5b9ac6b	1	1	main_slash	24	advance_on_keypress_SLASH	126	stimuli_target_diamondsquares.svg	stimuli_distractor_trianglediamonds.svg	20	yes	57	0	17	6	3	antiphase_hc_soi.wav	1	6	6	noise_calib_stim_RIGHT.wav	2	26	blb_dichoticlistening_pa-da.mp3	pa	da	1	left
6.6.1	win	2023-06-12	13:15:22	13:32:12	1005068	610b64dc95ff0ef5b5b9ac6b	1	1	main_slash	24	main_slash	127	stimuli_distractor_diamondtriangles.svg	stimuli_target_squaretriangles.svg	15	yes	53	1	312	6	3	antiphase_hc_soi.wav	1	6	6	noise_calib_stim_RIGHT.wav	2	26	blb_dichoticlistening_pa-da.mp3	pa	da	1	left
6.6.1	win	2023-06-12	13:15:22	13:32:12	1005068	610b64dc95ff0ef5b5b9ac6b	1	1	main_slash	24	advance_on_keypress_SLASH	128	stimuli_distractor_diamondtriangles.svg	stimuli_target_squaretriangles.svg	15	yes	57	0	21	6	3	antiphase_hc_soi.wav	1	6	6	noise_calib_stim_RIGHT.wav	2	26	blb_dichoticlistening_pa-da.mp3	pa	da	1	left
6.6.1	win	2023-06-12	13:15:22	13:32:13	1006090	610b64dc95ff0ef5b5b9ac6b	1	1	main_slash	24	main_slash	129	stimuli_target_trianglesquares.svg	stimuli_distractor_trianglediamonds.svg	18	yes	53	1	350	6	3	antiphase_hc_soi.wav	1	6	6	noise_calib_stim_RIGHT.wav	2	26	blb_dichoticlistening_pa-da.mp3	pa	da	1	left
6.6.1	win	2023-06-12	13:15:22	13:32:13	1006090	610b64dc95ff0ef5b5b9ac6b	1	1	main_slash	24	advance_on_keypress_SLASH	130	stimuli_target_trianglesquares.svg	stimuli_distractor_trianglediamonds.svg	18	yes	57	0	16	6	3	antiphase_hc_soi.wav	1	6	6	noise_calib_stim_RIGHT.wav	2	26	blb_dichoticlistening_pa-da.mp3	pa	da	1	left
6.6.1	win	2023-06-12	13:15:22	13:32:14	1007093	610b64dc95ff0ef5b5b9ac6b	1	1	main_slash	24	main_slash	131	stimuli_distractor_trianglediamonds.svg	stimuli_target_rectanglediamonds.svg	10	yes	53	1	336	6	3	antiphase_hc_soi.wav	1	6	6	noise_calib_stim_RIGHT.wav	2	26	blb_dichoticlistening_pa-da.mp3	pa	da	1	left
6.6.1	win	2023-06-12	13:15:22	13:32:14	1007093	610b64dc95ff0ef5b5b9ac6b	1	1	main_slash	24	advance_on_keypress_SLASH	132	stimuli_distractor_trianglediamonds.svg	stimuli_target_rectanglediamonds.svg	10	yes	57	0	14	6	3	antiphase_hc_soi.wav	1	6	6	noise_calib_stim_RIGHT.wav	2	26	blb_dichoticlistening_pa-da.mp3	pa	da	1	left
6.6.1	win	2023-06-12	13:15:22	13:32:15	1008077	610b64dc95ff0ef5b5b9ac6b	1	1	main_slash	24	main_slash	133	stimuli_distractor_diamondtriangles.svg	stimuli_target_rectangletriangles.svg	13	yes	53	1	321	6	3	antiphase_hc_soi.wav	1	6	6	noise_calib_stim_RIGHT.wav	2	26	blb_dichoticlistening_pa-da.mp3	pa	da	1	left
6.6.1	win	2023-06-12	13:15:22	13:32:15	1008077	610b64dc95ff0ef5b5b9ac6b	1	1	main_slash	24	advance_on_keypress_SLASH	134	stimuli_distractor_diamondtriangles.svg	stimuli_target_rectangletriangles.svg	13	yes	57	0	48	6	3	antiphase_hc_soi.wav	1	6	6	noise_calib_stim_RIGHT.wav	2	26	blb_dichoticlistening_pa-da.mp3	pa	da	1	left
6.6.1	win	2023-06-12	13:15:22	13:32:16	1009057	610b64dc95ff0ef5b5b9ac6b	1	1	main_slash	24	main_slash	135	stimuli_distractor_diamondtriangles.svg	stimuli_distractor_trianglediamonds.svg	38	no	53	0	283	6	3	antiphase_hc_soi.wav	1	6	6	noise_calib_stim_RIGHT.wav	2	26	blb_dichoticlistening_pa-da.mp3	pa	da	1	left
6.6.1	win	2023-06-12	13:15:22	13:32:16	1009057	610b64dc95ff0ef5b5b9ac6b	1	1	main_slash	24	advance_on_keypress_SLASH	136	stimuli_distractor_diamondtriangles.svg	stimuli_distractor_trianglediamonds.svg	38	no	57	0	57	6	3	antiphase_hc_soi.wav	1	6	6	noise_calib_stim_RIGHT.wav	2	26	blb_dichoticlistening_pa-da.mp3	pa	da	1	left
6.6.1	win	2023-06-12	13:15:22	13:32:17	1010038	610b64dc95ff0ef5b5b9ac6b	1	1	main_slash	24	main_slash	137	stimuli_distractor_diamondtriangles.svg	stimuli_distractor_trianglediamonds.svg	37	no	53	0	280	6	3	antiphase_hc_soi.wav	1	6	6	noise_calib_stim_RIGHT.wav	2	26	blb_dichoticlistening_pa-da.mp3	pa	da	1	left
6.6.1	win	2023-06-12	13:15:22	13:32:17	1010038	610b64dc95ff0ef5b5b9ac6b	1	1	main_slash	24	advance_on_keypress_SLASH	138	stimuli_distractor_diamondtriangles.svg	stimuli_distractor_trianglediamonds.svg	37	no	57	0	59	6	3	antiphase_hc_soi.wav	1	6	6	noise_calib_stim_RIGHT.wav	2	26	blb_dichoticlistening_pa-da.mp3	pa	da	1	left
6.6.1	win	2023-06-12	13:15:22	13:32:20	1012743	610b64dc95ff0ef5b5b9ac6b	1	1	main_slash	24	main_slash	139	stimuli_target_squarediamonds.svg	stimuli_distractor_diamondtriangles.svg	8	yes	0	0	2000	6	3	antiphase_hc_soi.wav	1	6	6	noise_calib_stim_RIGHT.wav	2	26	blb_dichoticlistening_pa-da.mp3	pa	da	1	left
6.6.1	win	2023-06-12	13:15:22	13:32:20	1012743	610b64dc95ff0ef5b5b9ac6b	1	1	main_slash	24	advance_on_keypress_SLASH	140	stimuli_target_squarediamonds.svg	stimuli_distractor_diamondtriangles.svg	8	yes	57	0	286	6	3	antiphase_hc_soi.wav	1	6	6	noise_calib_stim_RIGHT.wav	2	26	blb_dichoticlistening_pa-da.mp3	pa	da	1	left
6.6.1	win	2023-06-12	13:15:22	13:32:21	1013956	610b64dc95ff0ef5b5b9ac6b	1	1	main_slash	24	main_slash	141	stimuli_distractor_trianglediamonds.svg	stimuli_target_squarediamonds.svg	12	yes	53	1	280	6	3	antiphase_hc_soi.wav	1	6	6	noise_calib_stim_RIGHT.wav	2	26	blb_dichoticlistening_pa-da.mp3	pa	da	1	left
6.6.1	win	2023-06-12	13:15:22	13:32:21	1013956	610b64dc95ff0ef5b5b9ac6b	1	1	main_slash	24	advance_on_keypress_SLASH	142	stimuli_distractor_trianglediamonds.svg	stimuli_target_squarediamonds.svg	12	yes	57	0	34	6	3	antiphase_hc_soi.wav	1	6	6	noise_calib_stim_RIGHT.wav	2	26	blb_dichoticlistening_pa-da.mp3	pa	da	1	left
6.6.1	win	2023-06-12	13:15:22	13:32:22	1014975	610b64dc95ff0ef5b5b9ac6b	1	1	main_slash	24	main_slash	143	stimuli_target_trianglesquares.svg	stimuli_distractor_diamondtriangles.svg	22	yes	53	1	332	6	3	antiphase_hc_soi.wav	1	6	6	noise_calib_stim_RIGHT.wav	2	26	blb_dichoticlistening_pa-da.mp3	pa	da	1	left
6.6.1	win	2023-06-12	13:15:22	13:32:22	1014975	610b64dc95ff0ef5b5b9ac6b	1	1	main_slash	24	advance_on_keypress_SLASH	144	stimuli_target_trianglesquares.svg	stimuli_distractor_diamondtriangles.svg	22	yes	57	0	28	6	3	antiphase_hc_soi.wav	1	6	6	noise_calib_stim_RIGHT.wav	2	26	blb_dichoticlistening_pa-da.mp3	pa	da	1	left
6.6.1	win	2023-06-12	13:15:22	13:32:23	1016085	610b64dc95ff0ef5b5b9ac6b	1	1	main_slash	24	main_slash	145	stimuli_target_rectanglediamonds.svg	stimuli_distractor_trianglediamonds.svg	2	yes	53	1	441	6	3	antiphase_hc_soi.wav	1	6	6	noise_calib_stim_RIGHT.wav	2	26	blb_dichoticlistening_pa-da.mp3	pa	da	1	left
6.6.1	win	2023-06-12	13:15:22	13:32:23	1016085	610b64dc95ff0ef5b5b9ac6b	1	1	main_slash	24	advance_on_keypress_SLASH	146	stimuli_target_rectanglediamonds.svg	stimuli_distractor_trianglediamonds.svg	2	yes	57	0	58	6	3	antiphase_hc_soi.wav	1	6	6	noise_calib_stim_RIGHT.wav	2	26	blb_dichoticlistening_pa-da.mp3	pa	da	1	left
6.6.1	win	2023-06-12	13:15:22	13:32:24	1017162	610b64dc95ff0ef5b5b9ac6b	1	1	main_slash	24	main_slash	147	stimuli_distractor_trianglediamonds.svg	stimuli_target_trianglerectangles.svg	25	yes	53	1	366	6	3	antiphase_hc_soi.wav	1	6	6	noise_calib_stim_RIGHT.wav	2	26	blb_dichoticlistening_pa-da.mp3	pa	da	1	left
6.6.1	win	2023-06-12	13:15:22	13:32:24	1017162	610b64dc95ff0ef5b5b9ac6b	1	1	main_slash	24	advance_on_keypress_SLASH	148	stimuli_distractor_trianglediamonds.svg	stimuli_target_trianglerectangles.svg	25	yes	57	0	22	6	3	antiphase_hc_soi.wav	1	6	6	noise_calib_stim_RIGHT.wav	2	26	blb_dichoticlistening_pa-da.mp3	pa	da	1	left
6.6.1	win	2023-06-12	13:15:22	13:32:25	1018193	610b64dc95ff0ef5b5b9ac6b	1	1	main_slash	24	main_slash	149	stimuli_target_rectangletriangles.svg	stimuli_distractor_diamondtriangles.svg	5	yes	53	1	365	6	3	antiphase_hc_soi.wav	1	6	6	noise_calib_stim_RIGHT.wav	2	26	blb_dichoticlistening_pa-da.mp3	pa	da	1	left
6.6.1	win	2023-06-12	13:15:22	13:32:25	1018193	610b64dc95ff0ef5b5b9ac6b	1	1	main_slash	24	advance_on_keypress_SLASH	150	stimuli_target_rectangletriangles.svg	stimuli_distractor_diamondtriangles.svg	5	yes	57	0	770	6	3	antiphase_hc_soi.wav	1	6	6	noise_calib_stim_RIGHT.wav	2	26	blb_dichoticlistening_pa-da.mp3	pa	da	1	left
6.6.1	win	2023-06-12	13:15:22	13:32:27	1019960	610b64dc95ff0ef5b5b9ac6b	1	1	main_slash	24	main_slash	151	stimuli_target_squarediamonds.svg	stimuli_distractor_trianglediamonds.svg	4	yes	53	1	348	6	3	antiphase_hc_soi.wav	1	6	6	noise_calib_stim_RIGHT.wav	2	26	blb_dichoticlistening_pa-da.mp3	pa	da	1	left
6.6.1	win	2023-06-12	13:15:22	13:32:27	1019960	610b64dc95ff0ef5b5b9ac6b	1	1	main_slash	24	advance_on_keypress_SLASH	152	stimuli_target_squarediamonds.svg	stimuli_distractor_trianglediamonds.svg	4	yes	57	0	35	6	3	antiphase_hc_soi.wav	1	6	6	noise_calib_stim_RIGHT.wav	2	26	blb_dichoticlistening_pa-da.mp3	pa	da	1	left
6.6.1	win	2023-06-12	13:15:22	13:32:28	1021307	610b64dc95ff0ef5b5b9ac6b	1	1	main_slash	24	main_slash	153	stimuli_distractor_trianglediamonds.svg	stimuli_target_trianglesquares.svg	26	yes	53	1	662	6	3	antiphase_hc_soi.wav	1	6	6	noise_calib_stim_RIGHT.wav	2	26	blb_dichoticlistening_pa-da.mp3	pa	da	1	left
6.6.1	win	2023-06-12	13:15:22	13:32:28	1021307	610b64dc95ff0ef5b5b9ac6b	1	1	main_slash	24	advance_on_keypress_SLASH	154	stimuli_distractor_trianglediamonds.svg	stimuli_target_trianglesquares.svg	26	yes	57	0	652	6	3	antiphase_hc_soi.wav	1	6	6	noise_calib_stim_RIGHT.wav	2	26	blb_dichoticlistening_pa-da.mp3	pa	da	1	left
6.6.1	win	2023-06-12	13:15:22	13:32:30	1023399	610b64dc95ff0ef5b5b9ac6b	1	1	main_slash	24	main_slash	155	stimuli_distractor_diamondtriangles.svg	stimuli_target_trianglerectangles.svg	29	yes	53	1	803	6	3	antiphase_hc_soi.wav	1	6	6	noise_calib_stim_RIGHT.wav	2	26	blb_dichoticlistening_pa-da.mp3	pa	da	1	left
6.6.1	win	2023-06-12	13:15:22	13:32:30	1023399	610b64dc95ff0ef5b5b9ac6b	1	1	main_slash	24	advance_on_keypress_SLASH	156	stimuli_distractor_diamondtriangles.svg	stimuli_target_trianglerectangles.svg	29	yes	57	0	149	6	3	antiphase_hc_soi.wav	1	6	6	noise_calib_stim_RIGHT.wav	2	26	blb_dichoticlistening_pa-da.mp3	pa	da	1	left
6.6.1	win	2023-06-12	13:15:22	13:32:31	1024474	610b64dc95ff0ef5b5b9ac6b	1	1	main_slash	24	main_slash	157	stimuli_target_diamondrectangles.svg	stimuli_distractor_diamondtriangles.svg	23	yes	53	1	277	6	3	antiphase_hc_soi.wav	1	6	6	noise_calib_stim_RIGHT.wav	2	26	blb_dichoticlistening_pa-da.mp3	pa	da	1	left
6.6.1	win	2023-06-12	13:15:22	13:32:31	1024474	610b64dc95ff0ef5b5b9ac6b	1	1	main_slash	24	advance_on_keypress_SLASH	158	stimuli_target_diamondrectangles.svg	stimuli_distractor_diamondtriangles.svg	23	yes	57	0	43	6	3	antiphase_hc_soi.wav	1	6	6	noise_calib_stim_RIGHT.wav	2	26	blb_dichoticlistening_pa-da.mp3	pa	da	1	left
6.6.1	win	2023-06-12	13:15:22	13:32:32	1025400	610b64dc95ff0ef5b5b9ac6b	1	1	main_slash	24	main_slash	159	stimuli_distractor_trianglediamonds.svg	stimuli_distractor_diamondtriangles.svg	36	no	53	0	253	6	3	antiphase_hc_soi.wav	1	6	6	noise_calib_stim_RIGHT.wav	2	26	blb_dichoticlistening_pa-da.mp3	pa	da	1	left
6.6.1	win	2023-06-12	13:15:22	13:32:32	1025400	610b64dc95ff0ef5b5b9ac6b	1	1	main_slash	24	advance_on_keypress_SLASH	160	stimuli_distractor_trianglediamonds.svg	stimuli_distractor_diamondtriangles.svg	36	no	57	0	71	6	3	antiphase_hc_soi.wav	1	6	6	noise_calib_stim_RIGHT.wav	2	26	blb_dichoticlistening_pa-da.mp3	pa	da	1	left
6.6.1	win	2023-06-12	13:15:22	13:32:45	1038160	610b64dc95ff0ef5b5b9ac6b	1	1	practice_z	26	practice_z	1	stimuli_target_squarediamonds.svg	stimuli_distractor_trianglediamonds.svg	5	yes	44	1	355	6	3	antiphase_hc_soi.wav	1	6	6	noise_calib_stim_RIGHT.wav	2	26	blb_dichoticlistening_pa-da.mp3	pa	da	1	left
6.6.1	win	2023-06-12	13:15:22	13:32:45	1038160	610b64dc95ff0ef5b5b9ac6b	1	1	practice_z	26	advance_on_keypress_ZEE	2	stimuli_target_squarediamonds.svg	stimuli_distractor_trianglediamonds.svg	5	yes	57	0	1706	6	3	antiphase_hc_soi.wav	1	6	6	noise_calib_stim_RIGHT.wav	2	26	blb_dichoticlistening_pa-da.mp3	pa	da	1	left
6.6.1	win	2023-06-12	13:15:22	13:32:49	1041713	610b64dc95ff0ef5b5b9ac6b	1	1	practice_z	26	practice_z	3	stimuli_distractor_trianglediamonds.svg	stimuli_distractor_diamondtriangles.svg	16	no	44	0	209	6	3	antiphase_hc_soi.wav	1	6	6	noise_calib_stim_RIGHT.wav	2	26	blb_dichoticlistening_pa-da.mp3	pa	da	1	left
6.6.1	win	2023-06-12	13:15:22	13:32:49	1041713	610b64dc95ff0ef5b5b9ac6b	1	1	practice_z	26	advance_on_keypress_ZEE	4	stimuli_distractor_trianglediamonds.svg	stimuli_distractor_diamondtriangles.svg	16	no	57	0	410	6	3	antiphase_hc_soi.wav	1	6	6	noise_calib_stim_RIGHT.wav	2	26	blb_dichoticlistening_pa-da.mp3	pa	da	1	left
6.6.1	win	2023-06-12	13:15:22	13:32:51	1043857	610b64dc95ff0ef5b5b9ac6b	1	1	practice_z	26	practice_z	5	stimuli_distractor_diamondtriangles.svg	stimuli_target_trianglerectangles.svg	9	yes	44	1	101	6	3	antiphase_hc_soi.wav	1	6	6	noise_calib_stim_RIGHT.wav	2	26	blb_dichoticlistening_pa-da.mp3	pa	da	1	left
6.6.1	win	2023-06-12	13:15:22	13:32:51	1043857	610b64dc95ff0ef5b5b9ac6b	1	1	practice_z	26	advance_on_keypress_ZEE	6	stimuli_distractor_diamondtriangles.svg	stimuli_target_trianglerectangles.svg	9	yes	57	0	462	6	3	antiphase_hc_soi.wav	1	6	6	noise_calib_stim_RIGHT.wav	2	26	blb_dichoticlistening_pa-da.mp3	pa	da	1	left
6.6.1	win	2023-06-12	13:15:22	13:32:53	1046266	610b64dc95ff0ef5b5b9ac6b	1	1	practice_z	26	practice_z	7	stimuli_target_rectanglediamonds.svg	stimuli_distractor_diamondtriangles.svg	1	yes	44	1	292	6	3	antiphase_hc_soi.wav	1	6	6	noise_calib_stim_RIGHT.wav	2	26	blb_dichoticlistening_pa-da.mp3	pa	da	1	left
6.6.1	win	2023-06-12	13:15:22	13:32:53	1046266	610b64dc95ff0ef5b5b9ac6b	1	1	practice_z	26	advance_on_keypress_ZEE	8	stimuli_target_rectanglediamonds.svg	stimuli_distractor_diamondtriangles.svg	1	yes	57	0	415	6	3	antiphase_hc_soi.wav	1	6	6	noise_calib_stim_RIGHT.wav	2	26	blb_dichoticlistening_pa-da.mp3	pa	da	1	left
6.6.1	win	2023-06-12	13:15:22	13:32:56	1048708	610b64dc95ff0ef5b5b9ac6b	1	1	practice_z	26	practice_z	9	stimuli_distractor_diamondtriangles.svg	stimuli_target_diamondrectangles.svg	8	yes	44	1	377	6	3	antiphase_hc_soi.wav	1	6	6	noise_calib_stim_RIGHT.wav	2	26	blb_dichoticlistening_pa-da.mp3	pa	da	1	left
6.6.1	win	2023-06-12	13:15:22	13:32:56	1048708	610b64dc95ff0ef5b5b9ac6b	1	1	practice_z	26	advance_on_keypress_ZEE	10	stimuli_distractor_diamondtriangles.svg	stimuli_target_diamondrectangles.svg	8	yes	57	0	421	6	3	antiphase_hc_soi.wav	1	6	6	noise_calib_stim_RIGHT.wav	2	26	blb_dichoticlistening_pa-da.mp3	pa	da	1	left
6.6.1	win	2023-06-12	13:15:22	13:32:58	1051198	610b64dc95ff0ef5b5b9ac6b	1	1	practice_z	26	practice_z	11	stimuli_distractor_trianglediamonds.svg	stimuli_target_diamondrectangles.svg	12	yes	44	1	423	6	3	antiphase_hc_soi.wav	1	6	6	noise_calib_stim_RIGHT.wav	2	26	blb_dichoticlistening_pa-da.mp3	pa	da	1	left
6.6.1	win	2023-06-12	13:15:22	13:32:58	1051198	610b64dc95ff0ef5b5b9ac6b	1	1	practice_z	26	advance_on_keypress_ZEE	12	stimuli_distractor_trianglediamonds.svg	stimuli_target_diamondrectangles.svg	12	yes	57	0	355	6	3	antiphase_hc_soi.wav	1	6	6	noise_calib_stim_RIGHT.wav	2	26	blb_dichoticlistening_pa-da.mp3	pa	da	1	left
6.6.1	win	2023-06-12	13:15:22	13:33:00	1053543	610b64dc95ff0ef5b5b9ac6b	1	1	practice_z	26	practice_z	13	stimuli_distractor_diamondtriangles.svg	stimuli_distractor_trianglediamonds.svg	14	no	44	0	350	6	3	antiphase_hc_soi.wav	1	6	6	noise_calib_stim_RIGHT.wav	2	26	blb_dichoticlistening_pa-da.mp3	pa	da	1	left
6.6.1	win	2023-06-12	13:15:22	13:33:00	1053543	610b64dc95ff0ef5b5b9ac6b	1	1	practice_z	26	advance_on_keypress_ZEE	14	stimuli_distractor_diamondtriangles.svg	stimuli_distractor_trianglediamonds.svg	14	no	57	0	854	6	3	antiphase_hc_soi.wav	1	6	6	noise_calib_stim_RIGHT.wav	2	26	blb_dichoticlistening_pa-da.mp3	pa	da	1	left
6.6.1	win	2023-06-12	13:15:22	13:33:03	1056157	610b64dc95ff0ef5b5b9ac6b	1	1	practice_z	26	practice_z	15	stimuli_target_diamondsquares.svg	stimuli_distractor_trianglediamonds.svg	6	yes	44	1	114	6	3	antiphase_hc_soi.wav	1	6	6	noise_calib_stim_RIGHT.wav	2	26	blb_dichoticlistening_pa-da.mp3	pa	da	1	left
