build	computer.platform	date	time	timestamp	time_elapsed_ms	subject	group	session	blockcode	blocknum	trialcode	trialnum	stimulus_left	stimulus_right	stim_index	target_present	response	correct	latency	headphonecheck_countTestTrials	headphonecheck_index	headphonecheck_testSound	headphonecheck_correctResponse	stereocheck_countTestTrials	stereocheck_index	stereocheck_testSound	stereocheck_correctResponse	DL_index	DL_soundfile	DL_leftSound	DL_rightSound	DL_dualSound	DL_choice
6.6.1	win	2023-06-28	10:55:22	10:58:37	189878	60ef047e8969715a3db7181a	4	1	practice_z	5	practice_z	1	stimuli_target_diamondsquares.svg	stimuli_distractor_diamondtriangles.svg	3	yes	44	1	1288	0	0			0	0			1				0	
6.6.1	win	2023-06-28	10:55:22	10:58:37	189878	60ef047e8969715a3db7181a	4	1	practice_z	5	advance_on_keypress_ZEE	2	stimuli_target_diamondsquares.svg	stimuli_distractor_diamondtriangles.svg	3	yes	57	0	1738	0	0			0	0			1				0	
6.6.1	win	2023-06-28	10:55:22	10:58:42	194695	60ef047e8969715a3db7181a	4	1	practice_z	5	practice_z	3	stimuli_distractor_diamondtriangles.svg	stimuli_target_trianglerectangles.svg	9	yes	44	1	1418	0	0			0	0			1				0	
6.6.1	win	2023-06-28	10:55:22	10:58:42	194695	60ef047e8969715a3db7181a	4	1	practice_z	5	advance_on_keypress_ZEE	4	stimuli_distractor_diamondtriangles.svg	stimuli_target_trianglerectangles.svg	9	yes	57	0	3223	0	0			0	0			1				0	
6.6.1	win	2023-06-28	10:55:22	10:58:48	200542	60ef047e8969715a3db7181a	4	1	practice_z	5	practice_z	5	stimuli_target_diamondsquares.svg	stimuli_distractor_trianglediamonds.svg	6	yes	44	1	980	0	0			0	0			1				0	
6.6.1	win	2023-06-28	10:55:22	10:58:48	200542	60ef047e8969715a3db7181a	4	1	practice_z	5	advance_on_keypress_ZEE	6	stimuli_target_diamondsquares.svg	stimuli_distractor_trianglediamonds.svg	6	yes	57	0	394	0	0			0	0			1				0	
6.6.1	win	2023-06-28	10:55:22	10:58:51	203494	60ef047e8969715a3db7181a	4	1	practice_z	5	practice_z	7	stimuli_target_squarediamonds.svg	stimuli_distractor_diamondtriangles.svg	2	yes	44	1	897	0	0			0	0			1				0	
6.6.1	win	2023-06-28	10:55:22	10:58:51	203494	60ef047e8969715a3db7181a	4	1	practice_z	5	advance_on_keypress_ZEE	8	stimuli_target_squarediamonds.svg	stimuli_distractor_diamondtriangles.svg	2	yes	57	0	275	0	0			0	0			1				0	
6.6.1	win	2023-06-28	10:55:22	10:58:53	206216	60ef047e8969715a3db7181a	4	1	practice_z	5	practice_z	9	stimuli_distractor_trianglediamonds.svg	stimuli_target_squarediamonds.svg	11	yes	44	1	799	0	0			0	0			1				0	
6.6.1	win	2023-06-28	10:55:22	10:58:53	206216	60ef047e8969715a3db7181a	4	1	practice_z	5	advance_on_keypress_ZEE	10	stimuli_distractor_trianglediamonds.svg	stimuli_target_squarediamonds.svg	11	yes	57	0	413	0	0			0	0			1				0	
6.6.1	win	2023-06-28	10:55:22	10:58:56	209192	60ef047e8969715a3db7181a	4	1	practice_z	5	practice_z	11	stimuli_distractor_trianglediamonds.svg	stimuli_distractor_diamondtriangles.svg	16	no	44	0	906	0	0			0	0			1				0	
6.6.1	win	2023-06-28	10:55:22	10:58:56	209192	60ef047e8969715a3db7181a	4	1	practice_z	5	advance_on_keypress_ZEE	12	stimuli_distractor_trianglediamonds.svg	stimuli_distractor_diamondtriangles.svg	16	no	57	0	1732	0	0			0	0			1				0	
6.6.1	win	2023-06-28	10:55:22	10:59:01	213526	60ef047e8969715a3db7181a	4	1	practice_z	5	practice_z	13	stimuli_distractor_diamondtriangles.svg	stimuli_distractor_diamondtriangles.svg	13	no	44	0	940	0	0			0	0			1				0	
6.6.1	win	2023-06-28	10:55:22	10:59:01	213526	60ef047e8969715a3db7181a	4	1	practice_z	5	advance_on_keypress_ZEE	14	stimuli_distractor_diamondtriangles.svg	stimuli_distractor_diamondtriangles.svg	13	no	57	0	669	0	0			0	0			1				0	
6.6.1	win	2023-06-28	10:55:22	10:59:05	217838	60ef047e8969715a3db7181a	4	1	practice_z	5	practice_z	15	stimuli_distractor_diamondtriangles.svg	stimuli_target_rectangletriangles.svg	7	yes	0	0	2000	0	0			0	0			1				0	
6.6.1	win	2023-06-28	10:55:22	10:59:05	217838	60ef047e8969715a3db7181a	4	1	practice_z	5	advance_on_keypress_ZEE	16	stimuli_distractor_diamondtriangles.svg	stimuli_target_rectangletriangles.svg	7	yes	57	0	446	0	0			0	0			1				0	
6.6.1	win	2023-06-28	10:55:22	10:59:08	220806	60ef047e8969715a3db7181a	4	1	practice_z	5	practice_z	17	stimuli_distractor_trianglediamonds.svg	stimuli_distractor_trianglediamonds.svg	15	no	44	0	867	0	0			0	0			1				0	
6.6.1	win	2023-06-28	10:55:22	10:59:08	220806	60ef047e8969715a3db7181a	4	1	practice_z	5	advance_on_keypress_ZEE	18	stimuli_distractor_trianglediamonds.svg	stimuli_distractor_trianglediamonds.svg	15	no	57	0	750	0	0			0	0			1				0	
6.6.1	win	2023-06-28	10:55:22	10:59:12	225207	60ef047e8969715a3db7181a	4	1	practice_z	5	practice_z	19	stimuli_distractor_trianglediamonds.svg	stimuli_target_rectanglediamonds.svg	10	yes	0	0	2000	0	0			0	0			1				0	
6.6.1	win	2023-06-28	10:55:22	10:59:12	225207	60ef047e8969715a3db7181a	4	1	practice_z	5	advance_on_keypress_ZEE	20	stimuli_distractor_trianglediamonds.svg	stimuli_target_rectanglediamonds.svg	10	yes	57	0	604	0	0			0	0			1				0	
6.6.1	win	2023-06-28	10:55:22	10:59:15	227790	60ef047e8969715a3db7181a	4	1	practice_z	5	practice_z	21	stimuli_distractor_trianglediamonds.svg	stimuli_target_diamondrectangles.svg	12	yes	44	1	330	0	0			0	0			1				0	
6.6.1	win	2023-06-28	10:55:22	10:59:15	227790	60ef047e8969715a3db7181a	4	1	practice_z	5	advance_on_keypress_ZEE	22	stimuli_distractor_trianglediamonds.svg	stimuli_target_diamondrectangles.svg	12	yes	57	0	507	0	0			0	0			1				0	
6.6.1	win	2023-06-28	10:55:22	10:59:18	230910	60ef047e8969715a3db7181a	4	1	practice_z	5	practice_z	23	stimuli_distractor_diamondtriangles.svg	stimuli_target_diamondrectangles.svg	8	yes	44	1	966	0	0			0	0			1				0	
6.6.1	win	2023-06-28	10:55:22	10:59:18	230910	60ef047e8969715a3db7181a	4	1	practice_z	5	advance_on_keypress_ZEE	24	stimuli_distractor_diamondtriangles.svg	stimuli_target_diamondrectangles.svg	8	yes	57	0	677	0	0			0	0			1				0	
6.6.1	win	2023-06-28	10:55:22	10:59:22	234247	60ef047e8969715a3db7181a	4	1	practice_z	5	practice_z	25	stimuli_target_squarediamonds.svg	stimuli_distractor_trianglediamonds.svg	5	yes	44	1	1000	0	0			0	0			1				0	
6.6.1	win	2023-06-28	10:55:22	10:59:22	234247	60ef047e8969715a3db7181a	4	1	practice_z	5	advance_on_keypress_ZEE	26	stimuli_target_squarediamonds.svg	stimuli_distractor_trianglediamonds.svg	5	yes	57	0	486	0	0			0	0			1				0	
6.6.1	win	2023-06-28	10:55:22	10:59:24	237151	60ef047e8969715a3db7181a	4	1	practice_z	5	practice_z	27	stimuli_target_rectanglediamonds.svg	stimuli_distractor_diamondtriangles.svg	1	yes	44	1	769	0	0			0	0			1				0	
6.6.1	win	2023-06-28	10:55:22	10:59:24	237151	60ef047e8969715a3db7181a	4	1	practice_z	5	advance_on_keypress_ZEE	28	stimuli_target_rectanglediamonds.svg	stimuli_distractor_diamondtriangles.svg	1	yes	57	0	458	0	0			0	0			1				0	
6.6.1	win	2023-06-28	10:55:22	10:59:27	239886	60ef047e8969715a3db7181a	4	1	practice_z	5	practice_z	29	stimuli_distractor_diamondtriangles.svg	stimuli_distractor_trianglediamonds.svg	14	no	44	0	637	0	0			0	0			1				0	
6.6.1	win	2023-06-28	10:55:22	10:59:27	239886	60ef047e8969715a3db7181a	4	1	practice_z	5	advance_on_keypress_ZEE	30	stimuli_distractor_diamondtriangles.svg	stimuli_distractor_trianglediamonds.svg	14	no	57	0	418	0	0			0	0			1				0	
6.6.1	win	2023-06-28	10:55:22	10:59:31	243950	60ef047e8969715a3db7181a	4	1	practice_z	5	practice_z	31	stimuli_target_rectanglediamonds.svg	stimuli_distractor_trianglediamonds.svg	4	yes	0	0	2000	0	0			0	0			1				0	
6.6.1	win	2023-06-28	10:55:22	10:59:31	243950	60ef047e8969715a3db7181a	4	1	practice_z	5	advance_on_keypress_ZEE	32	stimuli_target_rectanglediamonds.svg	stimuli_distractor_trianglediamonds.svg	4	yes	57	0	709	0	0			0	0			1				0	
6.6.1	win	2023-06-28	10:55:22	10:59:45	257404	60ef047e8969715a3db7181a	4	1	main_z	7	main_z	1	stimuli_distractor_trianglediamonds.svg	stimuli_distractor_diamondtriangles.svg	36	no	0	1	2000	0	0			0	0			1				0	
6.6.1	win	2023-06-28	10:55:22	10:59:45	257404	60ef047e8969715a3db7181a	4	1	main_z	7	advance_on_keypress_ZEE	2	stimuli_distractor_trianglediamonds.svg	stimuli_distractor_diamondtriangles.svg	36	no	57	0	813	0	0			0	0			1				0	
6.6.1	win	2023-06-28	10:55:22	10:59:48	260873	60ef047e8969715a3db7181a	4	1	main_z	7	main_z	3	stimuli_target_rectanglediamonds.svg	stimuli_distractor_trianglediamonds.svg	2	yes	0	0	2000	0	0			0	0			1				0	
6.6.1	win	2023-06-28	10:55:22	10:59:48	260873	60ef047e8969715a3db7181a	4	1	main_z	7	advance_on_keypress_ZEE	4	stimuli_target_rectanglediamonds.svg	stimuli_distractor_trianglediamonds.svg	2	yes	57	0	776	0	0			0	0			1				0	
6.6.1	win	2023-06-28	10:55:22	10:59:52	264291	60ef047e8969715a3db7181a	4	1	main_z	7	main_z	5	stimuli_target_rectangletriangles.svg	stimuli_distractor_diamondtriangles.svg	5	yes	0	0	2000	0	0			0	0			1				0	
6.6.1	win	2023-06-28	10:55:22	10:59:52	264291	60ef047e8969715a3db7181a	4	1	main_z	7	advance_on_keypress_ZEE	6	stimuli_target_rectangletriangles.svg	stimuli_distractor_diamondtriangles.svg	5	yes	57	0	622	0	0			0	0			1				0	
6.6.1	win	2023-06-28	10:55:22	10:59:54	266643	60ef047e8969715a3db7181a	4	1	main_z	7	main_z	7	stimuli_distractor_diamondtriangles.svg	stimuli_target_trianglesquares.svg	30	yes	44	1	1083	0	0			0	0			1				0	
6.6.1	win	2023-06-28	10:55:22	10:59:54	266643	60ef047e8969715a3db7181a	4	1	main_z	7	advance_on_keypress_ZEE	8	stimuli_distractor_diamondtriangles.svg	stimuli_target_trianglesquares.svg	30	yes	57	0	1207	0	0			0	0			1				0	
6.6.1	win	2023-06-28	10:55:22	10:59:58	270495	60ef047e8969715a3db7181a	4	1	main_z	7	main_z	9	stimuli_target_squarediamonds.svg	stimuli_distractor_trianglediamonds.svg	4	yes	0	0	2000	0	0			0	0			1				0	
6.6.1	win	2023-06-28	10:55:22	10:59:58	270495	60ef047e8969715a3db7181a	4	1	main_z	7	advance_on_keypress_ZEE	10	stimuli_target_squarediamonds.svg	stimuli_distractor_trianglediamonds.svg	4	yes	57	0	347	0	0			0	0			1				0	
6.6.1	win	2023-06-28	10:55:22	11:00:01	273496	60ef047e8969715a3db7181a	4	1	main_z	7	main_z	11	stimuli_distractor_trianglediamonds.svg	stimuli_target_squarediamonds.svg	12	yes	0	0	2000	0	0			0	0			1				0	
6.6.1	win	2023-06-28	10:55:22	11:00:01	273496	60ef047e8969715a3db7181a	4	1	main_z	7	advance_on_keypress_ZEE	12	stimuli_distractor_trianglediamonds.svg	stimuli_target_squarediamonds.svg	12	yes	57	0	409	0	0			0	0			1				0	
6.6.1	win	2023-06-28	10:55:22	11:00:03	275491	60ef047e8969715a3db7181a	4	1	main_z	7	main_z	13	stimuli_distractor_trianglediamonds.svg	stimuli_target_trianglesquares.svg	26	yes	44	1	944	0	0			0	0			1				0	
6.6.1	win	2023-06-28	10:55:22	11:00:03	275491	60ef047e8969715a3db7181a	4	1	main_z	7	advance_on_keypress_ZEE	14	stimuli_distractor_trianglediamonds.svg	stimuli_target_trianglesquares.svg	26	yes	57	0	2489	0	0			0	0			1				0	
6.6.1	win	2023-06-28	10:55:22	11:00:08	280616	60ef047e8969715a3db7181a	4	1	main_z	7	main_z	15	stimuli_target_diamondrectangles.svg	stimuli_distractor_trianglediamonds.svg	19	yes	0	0	2000	0	0			0	0			1				0	
6.6.1	win	2023-06-28	10:55:22	11:00:08	280616	60ef047e8969715a3db7181a	4	1	main_z	7	advance_on_keypress_ZEE	16	stimuli_target_diamondrectangles.svg	stimuli_distractor_trianglediamonds.svg	19	yes	57	0	529	0	0			0	0			1				0	
6.6.1	win	2023-06-28	10:55:22	11:00:10	282723	60ef047e8969715a3db7181a	4	1	main_z	7	main_z	17	stimuli_distractor_trianglediamonds.svg	stimuli_target_diamondsquares.svg	28	yes	44	1	922	0	0			0	0			1				0	
6.6.1	win	2023-06-28	10:55:22	11:00:10	282723	60ef047e8969715a3db7181a	4	1	main_z	7	advance_on_keypress_ZEE	18	stimuli_distractor_trianglediamonds.svg	stimuli_target_diamondsquares.svg	28	yes	57	0	1188	0	0			0	0			1				0	
6.6.1	win	2023-06-28	10:55:22	11:00:14	286552	60ef047e8969715a3db7181a	4	1	main_z	7	main_z	19	stimuli_distractor_trianglediamonds.svg	stimuli_target_rectangletriangles.svg	9	yes	0	0	2000	0	0			0	0			1				0	
6.6.1	win	2023-06-28	10:55:22	11:00:14	286552	60ef047e8969715a3db7181a	4	1	main_z	7	advance_on_keypress_ZEE	20	stimuli_distractor_trianglediamonds.svg	stimuli_target_rectangletriangles.svg	9	yes	57	0	273	0	0			0	0			1				0	
6.6.1	win	2023-06-28	10:55:22	11:00:16	288539	60ef047e8969715a3db7181a	4	1	main_z	7	main_z	21	stimuli_target_trianglerectangles.svg	stimuli_distractor_trianglediamonds.svg	17	yes	44	1	1069	0	0			0	0			1				0	
6.6.1	win	2023-06-28	10:55:22	11:00:16	288539	60ef047e8969715a3db7181a	4	1	main_z	7	advance_on_keypress_ZEE	22	stimuli_target_trianglerectangles.svg	stimuli_distractor_trianglediamonds.svg	17	yes	57	0	1344	0	0			0	0			1				0	
6.6.1	win	2023-06-28	10:55:22	11:00:19	291347	60ef047e8969715a3db7181a	4	1	main_z	7	main_z	23	stimuli_target_squarediamonds.svg	stimuli_distractor_diamondtriangles.svg	8	yes	44	1	825	0	0			0	0			1				0	
6.6.1	win	2023-06-28	10:55:22	11:00:19	291347	60ef047e8969715a3db7181a	4	1	main_z	7	advance_on_keypress_ZEE	24	stimuli_target_squarediamonds.svg	stimuli_distractor_diamondtriangles.svg	8	yes	57	0	647	0	0			0	0			1				0	
6.6.1	win	2023-06-28	10:55:22	11:00:22	294639	60ef047e8969715a3db7181a	4	1	main_z	7	main_z	25	stimuli_distractor_diamondtriangles.svg	stimuli_target_squarediamonds.svg	16	yes	0	0	2000	0	0			0	0			1				0	
6.6.1	win	2023-06-28	10:55:22	11:00:22	294639	60ef047e8969715a3db7181a	4	1	main_z	7	advance_on_keypress_ZEE	26	stimuli_distractor_diamondtriangles.svg	stimuli_target_squarediamonds.svg	16	yes	57	0	249	0	0			0	0			1				0	
6.6.1	win	2023-06-28	10:55:22	11:00:25	297541	60ef047e8969715a3db7181a	4	1	main_z	7	main_z	27	stimuli_target_squaretriangles.svg	stimuli_distractor_trianglediamonds.svg	3	yes	0	0	2000	0	0			0	0			1				0	
6.6.1	win	2023-06-28	10:55:22	11:00:25	297541	60ef047e8969715a3db7181a	4	1	main_z	7	advance_on_keypress_ZEE	28	stimuli_target_squaretriangles.svg	stimuli_distractor_trianglediamonds.svg	3	yes	57	0	44	0	0			0	0			1				0	
6.6.1	win	2023-06-28	10:55:22	11:00:26	299115	60ef047e8969715a3db7181a	4	1	main_z	7	main_z	29	stimuli_target_diamondsquares.svg	stimuli_distractor_trianglediamonds.svg	20	yes	44	1	872	0	0			0	0			1				0	
6.6.1	win	2023-06-28	10:55:22	11:00:26	299115	60ef047e8969715a3db7181a	4	1	main_z	7	advance_on_keypress_ZEE	30	stimuli_target_diamondsquares.svg	stimuli_distractor_trianglediamonds.svg	20	yes	57	0	652	0	0			0	0			1				0	
6.6.1	win	2023-06-28	10:55:22	11:00:30	302410	60ef047e8969715a3db7181a	4	1	main_z	7	main_z	31	stimuli_distractor_diamondtriangles.svg	stimuli_target_rectanglediamonds.svg	14	yes	0	0	2000	0	0			0	0			1				0	
6.6.1	win	2023-06-28	10:55:22	11:00:30	302410	60ef047e8969715a3db7181a	4	1	main_z	7	advance_on_keypress_ZEE	32	stimuli_distractor_diamondtriangles.svg	stimuli_target_rectanglediamonds.svg	14	yes	57	0	407	0	0			0	0			1				0	
6.6.1	win	2023-06-28	10:55:22	11:00:32	304707	60ef047e8969715a3db7181a	4	1	main_z	7	main_z	33	stimuli_distractor_trianglediamonds.svg	stimuli_target_diamondrectangles.svg	27	yes	44	1	1245	0	0			0	0			1				0	
6.6.1	win	2023-06-28	10:55:22	11:00:32	304707	60ef047e8969715a3db7181a	4	1	main_z	7	advance_on_keypress_ZEE	34	stimuli_distractor_trianglediamonds.svg	stimuli_target_diamondrectangles.svg	27	yes	57	0	818	0	0			0	0			1				0	
6.6.1	win	2023-06-28	10:55:22	11:00:34	307026	60ef047e8969715a3db7181a	4	1	main_z	7	main_z	35	stimuli_distractor_diamondtriangles.svg	stimuli_target_diamondrectangles.svg	31	yes	44	1	847	0	0			0	0			1				0	
6.6.1	win	2023-06-28	10:55:22	11:00:34	307026	60ef047e8969715a3db7181a	4	1	main_z	7	advance_on_keypress_ZEE	36	stimuli_distractor_diamondtriangles.svg	stimuli_target_diamondrectangles.svg	31	yes	57	0	492	0	0			0	0			1				0	
6.6.1	win	2023-06-28	10:55:22	11:00:37	310164	60ef047e8969715a3db7181a	4	1	main_z	7	main_z	37	stimuli_target_diamondsquares.svg	stimuli_distractor_diamondtriangles.svg	24	yes	0	0	2000	0	0			0	0			1				0	
6.6.1	win	2023-06-28	10:55:22	11:00:37	310164	60ef047e8969715a3db7181a	4	1	main_z	7	advance_on_keypress_ZEE	38	stimuli_target_diamondsquares.svg	stimuli_distractor_diamondtriangles.svg	24	yes	57	0	85	0	0			0	0			1				0	
6.6.1	win	2023-06-28	10:55:22	11:00:39	311819	60ef047e8969715a3db7181a	4	1	main_z	7	main_z	39	stimuli_distractor_trianglediamonds.svg	stimuli_target_trianglerectangles.svg	25	yes	44	1	920	0	0			0	0			1				0	
6.6.1	win	2023-06-28	10:55:22	11:00:39	311819	60ef047e8969715a3db7181a	4	1	main_z	7	advance_on_keypress_ZEE	40	stimuli_distractor_trianglediamonds.svg	stimuli_target_trianglerectangles.svg	25	yes	57	0	698	0	0			0	0			1				0	
6.6.1	win	2023-06-28	10:55:22	11:00:41	314147	60ef047e8969715a3db7181a	4	1	main_z	7	main_z	41	stimuli_distractor_trianglediamonds.svg	stimuli_target_rectanglediamonds.svg	10	yes	44	1	980	0	0			0	0			1				0	
6.6.1	win	2023-06-28	10:55:22	11:00:41	314147	60ef047e8969715a3db7181a	4	1	main_z	7	advance_on_keypress_ZEE	42	stimuli_distractor_trianglediamonds.svg	stimuli_target_rectanglediamonds.svg	10	yes	57	0	164	0	0			0	0			1				0	
6.6.1	win	2023-06-28	10:55:22	11:00:44	316967	60ef047e8969715a3db7181a	4	1	main_z	7	main_z	43	stimuli_target_rectanglediamonds.svg	stimuli_distractor_diamondtriangles.svg	6	yes	0	0	2000	0	0			0	0			1				0	
6.6.1	win	2023-06-28	10:55:22	11:00:44	316967	60ef047e8969715a3db7181a	4	1	main_z	7	advance_on_keypress_ZEE	44	stimuli_target_rectanglediamonds.svg	stimuli_distractor_diamondtriangles.svg	6	yes	57	0	410	0	0			0	0			1				0	
6.6.1	win	2023-06-28	10:55:22	11:00:47	320019	60ef047e8969715a3db7181a	4	1	main_z	7	main_z	45	stimuli_distractor_diamondtriangles.svg	stimuli_distractor_trianglediamonds.svg	38	no	0	1	2000	0	0			0	0			1				0	
6.6.1	win	2023-06-28	10:55:22	11:00:47	320019	60ef047e8969715a3db7181a	4	1	main_z	7	advance_on_keypress_ZEE	46	stimuli_distractor_diamondtriangles.svg	stimuli_distractor_trianglediamonds.svg	38	no	57	0	214	0	0			0	0			1				0	
6.6.1	win	2023-06-28	10:55:22	11:00:50	322887	60ef047e8969715a3db7181a	4	1	main_z	7	main_z	47	stimuli_distractor_diamondtriangles.svg	stimuli_target_squaretriangles.svg	15	yes	0	0	2000	0	0			0	0			1				0	
6.6.1	win	2023-06-28	10:55:22	11:00:50	322887	60ef047e8969715a3db7181a	4	1	main_z	7	advance_on_keypress_ZEE	48	stimuli_distractor_diamondtriangles.svg	stimuli_target_squaretriangles.svg	15	yes	57	0	250	0	0			0	0			1				0	
6.6.1	win	2023-06-28	10:55:22	11:00:52	324779	60ef047e8969715a3db7181a	4	1	main_z	7	main_z	49	stimuli_target_trianglerectangles.svg	stimuli_distractor_diamondtriangles.svg	21	yes	44	1	990	0	0			0	0			1				0	
6.6.1	win	2023-06-28	10:55:22	11:00:52	324779	60ef047e8969715a3db7181a	4	1	main_z	7	advance_on_keypress_ZEE	50	stimuli_target_trianglerectangles.svg	stimuli_distractor_diamondtriangles.svg	21	yes	57	0	309	0	0			0	0			1				0	
6.6.1	win	2023-06-28	10:55:22	11:00:54	326811	60ef047e8969715a3db7181a	4	1	main_z	7	main_z	51	stimuli_distractor_diamondtriangles.svg	stimuli_target_diamondsquares.svg	32	yes	44	1	1088	0	0			0	0			1				0	
6.6.1	win	2023-06-28	10:55:22	11:00:54	326811	60ef047e8969715a3db7181a	4	1	main_z	7	advance_on_keypress_ZEE	52	stimuli_distractor_diamondtriangles.svg	stimuli_target_diamondsquares.svg	32	yes	57	0	747	0	0			0	0			1				0	
6.6.1	win	2023-06-28	10:55:22	11:00:57	329523	60ef047e8969715a3db7181a	4	1	main_z	7	main_z	53	stimuli_target_trianglesquares.svg	stimuli_distractor_diamondtriangles.svg	22	yes	44	1	1316	0	0			0	0			1				0	
6.6.1	win	2023-06-28	10:55:22	11:00:57	329523	60ef047e8969715a3db7181a	4	1	main_z	7	advance_on_keypress_ZEE	54	stimuli_target_trianglesquares.svg	stimuli_distractor_diamondtriangles.svg	22	yes	57	0	269	0	0			0	0			1				0	
6.6.1	win	2023-06-28	10:55:22	11:01:00	332442	60ef047e8969715a3db7181a	4	1	main_z	7	main_z	55	stimuli_distractor_trianglediamonds.svg	stimuli_distractor_diamondtriangles.svg	35	no	0	1	2000	0	0			0	0			1				0	
6.6.1	win	2023-06-28	10:55:22	11:01:00	332442	60ef047e8969715a3db7181a	4	1	main_z	7	advance_on_keypress_ZEE	56	stimuli_distractor_trianglediamonds.svg	stimuli_distractor_diamondtriangles.svg	35	no	57	0	199	0	0			0	0			1				0	
6.6.1	win	2023-06-28	10:55:22	11:01:03	335293	60ef047e8969715a3db7181a	4	1	main_z	7	main_z	57	stimuli_distractor_diamondtriangles.svg	stimuli_target_rectangletriangles.svg	13	yes	0	0	2000	0	0			0	0			1				0	
6.6.1	win	2023-06-28	10:55:22	11:01:03	335293	60ef047e8969715a3db7181a	4	1	main_z	7	advance_on_keypress_ZEE	58	stimuli_distractor_diamondtriangles.svg	stimuli_target_rectangletriangles.svg	13	yes	57	0	220	0	0			0	0			1				0	
6.6.1	win	2023-06-28	10:55:22	11:01:04	337171	60ef047e8969715a3db7181a	4	1	main_z	7	main_z	59	stimuli_distractor_trianglediamonds.svg	stimuli_target_squaretriangles.svg	11	yes	44	1	1010	0	0			0	0			1				0	
6.6.1	win	2023-06-28	10:55:22	11:01:04	337171	60ef047e8969715a3db7181a	4	1	main_z	7	advance_on_keypress_ZEE	60	stimuli_distractor_trianglediamonds.svg	stimuli_target_squaretriangles.svg	11	yes	57	0	504	0	0			0	0			1				0	
6.6.1	win	2023-06-28	10:55:22	11:01:08	340312	60ef047e8969715a3db7181a	4	1	main_z	7	main_z	61	stimuli_distractor_trianglediamonds.svg	stimuli_distractor_trianglediamonds.svg	34	no	0	1	2000	0	0			0	0			1				0	
6.6.1	win	2023-06-28	10:55:22	11:01:08	340312	60ef047e8969715a3db7181a	4	1	main_z	7	advance_on_keypress_ZEE	62	stimuli_distractor_trianglediamonds.svg	stimuli_distractor_trianglediamonds.svg	34	no	57	0	425	0	0			0	0			1				0	
6.6.1	win	2023-06-28	10:55:22	11:01:10	342851	60ef047e8969715a3db7181a	4	1	main_z	7	main_z	63	stimuli_target_squaretriangles.svg	stimuli_distractor_diamondtriangles.svg	7	yes	44	1	1470	0	0			0	0			1				0	
6.6.1	win	2023-06-28	10:55:22	11:01:10	342851	60ef047e8969715a3db7181a	4	1	main_z	7	advance_on_keypress_ZEE	64	stimuli_target_squaretriangles.svg	stimuli_distractor_diamondtriangles.svg	7	yes	57	0	714	0	0			0	0			1				0	
6.6.1	win	2023-06-28	10:55:22	11:01:13	345347	60ef047e8969715a3db7181a	4	1	main_z	7	main_z	65	stimuli_distractor_diamondtriangles.svg	stimuli_distractor_trianglediamonds.svg	37	no	44	0	1132	0	0			0	0			1				0	
6.6.1	win	2023-06-28	10:55:22	11:01:13	345347	60ef047e8969715a3db7181a	4	1	main_z	7	advance_on_keypress_ZEE	66	stimuli_distractor_diamondtriangles.svg	stimuli_distractor_trianglediamonds.svg	37	no	57	0	669	0	0			0	0			1				0	
6.6.1	win	2023-06-28	10:55:22	11:01:16	348643	60ef047e8969715a3db7181a	4	1	main_z	7	main_z	67	stimuli_target_diamondrectangles.svg	stimuli_distractor_diamondtriangles.svg	23	yes	44	1	1976	0	0			0	0			1				0	
6.6.1	win	2023-06-28	10:55:22	11:01:16	348643	60ef047e8969715a3db7181a	4	1	main_z	7	advance_on_keypress_ZEE	68	stimuli_target_diamondrectangles.svg	stimuli_distractor_diamondtriangles.svg	23	yes	57	0	880	0	0			0	0			1				0	
6.6.1	win	2023-06-28	10:55:22	11:01:19	351595	60ef047e8969715a3db7181a	4	1	main_z	7	main_z	69	stimuli_distractor_diamondtriangles.svg	stimuli_distractor_diamondtriangles.svg	39	no	44	0	1427	0	0			0	0			1				0	
6.6.1	win	2023-06-28	10:55:22	11:01:19	351595	60ef047e8969715a3db7181a	4	1	main_z	7	advance_on_keypress_ZEE	70	stimuli_distractor_diamondtriangles.svg	stimuli_distractor_diamondtriangles.svg	39	no	57	0	728	0	0			0	0			1				0	
6.6.1	win	2023-06-28	10:55:22	11:01:21	353914	60ef047e8969715a3db7181a	4	1	main_z	7	main_z	71	stimuli_target_rectangletriangles.svg	stimuli_distractor_trianglediamonds.svg	1	yes	44	1	945	0	0			0	0			1				0	
6.6.1	win	2023-06-28	10:55:22	11:01:21	353914	60ef047e8969715a3db7181a	4	1	main_z	7	advance_on_keypress_ZEE	72	stimuli_target_rectangletriangles.svg	stimuli_distractor_trianglediamonds.svg	1	yes	57	0	298	0	0			0	0			1				0	
6.6.1	win	2023-06-28	10:55:22	11:01:24	356871	60ef047e8969715a3db7181a	4	1	main_z	7	main_z	73	stimuli_distractor_trianglediamonds.svg	stimuli_distractor_trianglediamonds.svg	33	no	0	1	2000	0	0			0	0			1				0	
6.6.1	win	2023-06-28	10:55:22	11:01:24	356871	60ef047e8969715a3db7181a	4	1	main_z	7	advance_on_keypress_ZEE	74	stimuli_distractor_trianglediamonds.svg	stimuli_distractor_trianglediamonds.svg	33	no	57	0	114	0	0			0	0			1				0	
6.6.1	win	2023-06-28	10:55:22	11:01:26	358635	60ef047e8969715a3db7181a	4	1	main_z	7	main_z	75	stimuli_distractor_diamondtriangles.svg	stimuli_target_trianglerectangles.svg	29	yes	44	1	996	0	0			0	0			1				0	
6.6.1	win	2023-06-28	10:55:22	11:01:26	358635	60ef047e8969715a3db7181a	4	1	main_z	7	advance_on_keypress_ZEE	76	stimuli_distractor_diamondtriangles.svg	stimuli_target_trianglerectangles.svg	29	yes	57	0	691	0	0			0	0			1				0	
6.6.1	win	2023-06-28	10:55:22	11:01:28	361099	60ef047e8969715a3db7181a	4	1	main_z	7	main_z	77	stimuli_target_trianglesquares.svg	stimuli_distractor_trianglediamonds.svg	18	yes	44	1	1126	0	0			0	0			1				0	
6.6.1	win	2023-06-28	10:55:22	11:01:28	361099	60ef047e8969715a3db7181a	4	1	main_z	7	advance_on_keypress_ZEE	78	stimuli_target_trianglesquares.svg	stimuli_distractor_trianglediamonds.svg	18	yes	57	0	287	0	0			0	0			1				0	
6.6.1	win	2023-06-28	10:55:22	11:01:31	363411	60ef047e8969715a3db7181a	4	1	main_z	7	main_z	79	stimuli_distractor_diamondtriangles.svg	stimuli_distractor_diamondtriangles.svg	40	no	44	0	1387	0	0			0	0			1				0	
6.6.1	win	2023-06-28	10:55:22	11:01:31	363411	60ef047e8969715a3db7181a	4	1	main_z	7	advance_on_keypress_ZEE	80	stimuli_distractor_diamondtriangles.svg	stimuli_distractor_diamondtriangles.svg	40	no	57	0	250	0	0			0	0			1				0	
6.6.1	win	2023-06-28	10:55:22	11:01:33	366011	60ef047e8969715a3db7181a	4	1	main_z	7	main_z	81	stimuli_distractor_diamondtriangles.svg	stimuli_target_diamondsquares.svg	32	yes	44	1	1702	0	0			0	0			1				0	
6.6.1	win	2023-06-28	10:55:22	11:01:33	366011	60ef047e8969715a3db7181a	4	1	main_z	7	advance_on_keypress_ZEE	82	stimuli_distractor_diamondtriangles.svg	stimuli_target_diamondsquares.svg	32	yes	57	0	288	0	0			0	0			1				0	
6.6.1	win	2023-06-28	10:55:22	11:01:36	368943	60ef047e8969715a3db7181a	4	1	main_z	7	main_z	83	stimuli_target_diamondrectangles.svg	stimuli_distractor_diamondtriangles.svg	23	yes	0	0	2000	0	0			0	0			1				0	
6.6.1	win	2023-06-28	10:55:22	11:01:36	368943	60ef047e8969715a3db7181a	4	1	main_z	7	advance_on_keypress_ZEE	84	stimuli_target_diamondrectangles.svg	stimuli_distractor_diamondtriangles.svg	23	yes	57	0	242	0	0			0	0			1				0	
6.6.1	win	2023-06-28	10:55:22	11:01:38	370827	60ef047e8969715a3db7181a	4	1	main_z	7	main_z	85	stimuli_target_rectangletriangles.svg	stimuli_distractor_trianglediamonds.svg	1	yes	44	1	999	0	0			0	0			1				0	
6.6.1	win	2023-06-28	10:55:22	11:01:38	370827	60ef047e8969715a3db7181a	4	1	main_z	7	advance_on_keypress_ZEE	86	stimuli_target_rectangletriangles.svg	stimuli_distractor_trianglediamonds.svg	1	yes	57	0	229	0	0			0	0			1				0	
6.6.1	win	2023-06-28	10:55:22	11:01:40	372515	60ef047e8969715a3db7181a	4	1	main_z	7	main_z	87	stimuli_target_rectanglediamonds.svg	stimuli_distractor_trianglediamonds.svg	2	yes	44	1	803	0	0			0	0			1				0	
6.6.1	win	2023-06-28	10:55:22	11:01:40	372515	60ef047e8969715a3db7181a	4	1	main_z	7	advance_on_keypress_ZEE	88	stimuli_target_rectanglediamonds.svg	stimuli_distractor_trianglediamonds.svg	2	yes	57	0	641	0	0			0	0			1				0	
6.6.1	win	2023-06-28	10:55:22	11:01:43	375797	60ef047e8969715a3db7181a	4	1	main_z	7	main_z	89	stimuli_target_diamondsquares.svg	stimuli_distractor_trianglediamonds.svg	20	yes	0	0	2000	0	0			0	0			1				0	
6.6.1	win	2023-06-28	10:55:22	11:01:43	375797	60ef047e8969715a3db7181a	4	1	main_z	7	advance_on_keypress_ZEE	90	stimuli_target_diamondsquares.svg	stimuli_distractor_trianglediamonds.svg	20	yes	57	0	332	0	0			0	0			1				0	
6.6.1	win	2023-06-28	10:55:22	11:01:45	377811	60ef047e8969715a3db7181a	4	1	main_z	7	main_z	91	stimuli_target_squaretriangles.svg	stimuli_distractor_diamondtriangles.svg	7	yes	44	1	1029	0	0			0	0			1				0	
6.6.1	win	2023-06-28	10:55:22	11:01:45	377811	60ef047e8969715a3db7181a	4	1	main_z	7	advance_on_keypress_ZEE	92	stimuli_target_squaretriangles.svg	stimuli_distractor_diamondtriangles.svg	7	yes	57	0	195	0	0			0	0			1				0	
6.6.1	win	2023-06-28	10:55:22	11:01:47	379387	60ef047e8969715a3db7181a	4	1	main_z	7	main_z	93	stimuli_target_squaretriangles.svg	stimuli_distractor_trianglediamonds.svg	3	yes	44	1	721	0	0			0	0			1				0	
6.6.1	win	2023-06-28	10:55:22	11:01:47	379387	60ef047e8969715a3db7181a	4	1	main_z	7	advance_on_keypress_ZEE	94	stimuli_target_squaretriangles.svg	stimuli_distractor_trianglediamonds.svg	3	yes	57	0	459	0	0			0	0			1				0	
6.6.1	win	2023-06-28	10:55:22	11:01:49	381507	60ef047e8969715a3db7181a	4	1	main_z	7	main_z	95	stimuli_distractor_diamondtriangles.svg	stimuli_target_rectangletriangles.svg	13	yes	44	1	1023	0	0			0	0			1				0	
6.6.1	win	2023-06-28	10:55:22	11:01:49	381507	60ef047e8969715a3db7181a	4	1	main_z	7	advance_on_keypress_ZEE	96	stimuli_distractor_diamondtriangles.svg	stimuli_target_rectangletriangles.svg	13	yes	57	0	141	0	0			0	0			1				0	
6.6.1	win	2023-06-28	10:55:22	11:01:51	383387	60ef047e8969715a3db7181a	4	1	main_z	7	main_z	97	stimuli_distractor_trianglediamonds.svg	stimuli_target_trianglesquares.svg	26	yes	44	1	1103	0	0			0	0			1				0	
6.6.1	win	2023-06-28	10:55:22	11:01:51	383387	60ef047e8969715a3db7181a	4	1	main_z	7	advance_on_keypress_ZEE	98	stimuli_distractor_trianglediamonds.svg	stimuli_target_trianglesquares.svg	26	yes	57	0	177	0	0			0	0			1				0	
6.6.1	win	2023-06-28	10:55:22	11:01:53	385259	60ef047e8969715a3db7181a	4	1	main_z	7	main_z	99	stimuli_target_trianglesquares.svg	stimuli_distractor_diamondtriangles.svg	22	yes	44	1	1040	0	0			0	0			1				0	
6.6.1	win	2023-06-28	10:55:22	11:01:53	385259	60ef047e8969715a3db7181a	4	1	main_z	7	advance_on_keypress_ZEE	100	stimuli_target_trianglesquares.svg	stimuli_distractor_diamondtriangles.svg	22	yes	57	0	189	0	0			0	0			1				0	
6.6.1	win	2023-06-28	10:55:22	11:01:54	387171	60ef047e8969715a3db7181a	4	1	main_z	7	main_z	101	stimuli_distractor_diamondtriangles.svg	stimuli_target_trianglesquares.svg	30	yes	44	1	1085	0	0			0	0			1				0	
6.6.1	win	2023-06-28	10:55:22	11:01:54	387171	60ef047e8969715a3db7181a	4	1	main_z	7	advance_on_keypress_ZEE	102	stimuli_distractor_diamondtriangles.svg	stimuli_target_trianglesquares.svg	30	yes	57	0	136	0	0			0	0			1				0	
6.6.1	win	2023-06-28	10:55:22	11:01:56	388827	60ef047e8969715a3db7181a	4	1	main_z	7	main_z	103	stimuli_distractor_diamondtriangles.svg	stimuli_target_diamondrectangles.svg	31	yes	44	1	873	0	0			0	0			1				0	
6.6.1	win	2023-06-28	10:55:22	11:01:56	388827	60ef047e8969715a3db7181a	4	1	main_z	7	advance_on_keypress_ZEE	104	stimuli_distractor_diamondtriangles.svg	stimuli_target_diamondrectangles.svg	31	yes	57	0	261	0	0			0	0			1				0	
6.6.1	win	2023-06-28	10:55:22	11:01:58	390771	60ef047e8969715a3db7181a	4	1	main_z	7	main_z	105	stimuli_target_diamondsquares.svg	stimuli_distractor_diamondtriangles.svg	24	yes	44	1	1033	0	0			0	0			1				0	
6.6.1	win	2023-06-28	10:55:22	11:01:58	390771	60ef047e8969715a3db7181a	4	1	main_z	7	advance_on_keypress_ZEE	106	stimuli_target_diamondsquares.svg	stimuli_distractor_diamondtriangles.svg	24	yes	57	0	142	0	0			0	0			1				0	
6.6.1	win	2023-06-28	10:55:22	11:01:59	392179	60ef047e8969715a3db7181a	4	1	main_z	7	main_z	107	stimuli_distractor_trianglediamonds.svg	stimuli_target_diamondrectangles.svg	27	yes	44	1	623	0	0			0	0			1				0	
6.6.1	win	2023-06-28	10:55:22	11:01:59	392179	60ef047e8969715a3db7181a	4	1	main_z	7	advance_on_keypress_ZEE	108	stimuli_distractor_trianglediamonds.svg	stimuli_target_diamondrectangles.svg	27	yes	57	0	173	0	0			0	0			1				0	
6.6.1	win	2023-06-28	10:55:22	11:02:01	393571	60ef047e8969715a3db7181a	4	1	main_z	7	main_z	109	stimuli_distractor_trianglediamonds.svg	stimuli_target_squaretriangles.svg	11	yes	44	1	581	0	0			0	0			1				0	
6.6.1	win	2023-06-28	10:55:22	11:02:01	393571	60ef047e8969715a3db7181a	4	1	main_z	7	advance_on_keypress_ZEE	110	stimuli_distractor_trianglediamonds.svg	stimuli_target_squaretriangles.svg	11	yes	57	0	237	0	0			0	0			1				0	
6.6.1	win	2023-06-28	10:55:22	11:02:02	395227	60ef047e8969715a3db7181a	4	1	main_z	7	main_z	111	stimuli_target_trianglerectangles.svg	stimuli_distractor_diamondtriangles.svg	21	yes	44	1	770	0	0			0	0			1				0	
6.6.1	win	2023-06-28	10:55:22	11:02:02	395227	60ef047e8969715a3db7181a	4	1	main_z	7	advance_on_keypress_ZEE	112	stimuli_target_trianglerectangles.svg	stimuli_distractor_diamondtriangles.svg	21	yes	57	0	194	0	0			0	0			1				0	
6.6.1	win	2023-06-28	10:55:22	11:02:04	396714	60ef047e8969715a3db7181a	4	1	main_z	7	main_z	113	stimuli_target_rectanglediamonds.svg	stimuli_distractor_diamondtriangles.svg	6	yes	44	1	657	0	0			0	0			1				0	
6.6.1	win	2023-06-28	10:55:22	11:02:04	396714	60ef047e8969715a3db7181a	4	1	main_z	7	advance_on_keypress_ZEE	114	stimuli_target_rectanglediamonds.svg	stimuli_distractor_diamondtriangles.svg	6	yes	57	0	214	0	0			0	0			1				0	
6.6.1	win	2023-06-28	10:55:22	11:02:06	399131	60ef047e8969715a3db7181a	4	1	main_z	7	main_z	115	stimuli_distractor_trianglediamonds.svg	stimuli_target_rectanglediamonds.svg	10	yes	44	1	1556	0	0			0	0			1				0	
6.6.1	win	2023-06-28	10:55:22	11:02:06	399131	60ef047e8969715a3db7181a	4	1	main_z	7	advance_on_keypress_ZEE	116	stimuli_distractor_trianglediamonds.svg	stimuli_target_rectanglediamonds.svg	10	yes	57	0	148	0	0			0	0			1				0	
6.6.1	win	2023-06-28	10:55:22	11:02:09	401926	60ef047e8969715a3db7181a	4	1	main_z	7	main_z	117	stimuli_distractor_trianglediamonds.svg	stimuli_distractor_diamondtriangles.svg	35	no	0	1	2000	0	0			0	0			1				0	
6.6.1	win	2023-06-28	10:55:22	11:02:09	401926	60ef047e8969715a3db7181a	4	1	main_z	7	advance_on_keypress_ZEE	118	stimuli_distractor_trianglediamonds.svg	stimuli_distractor_diamondtriangles.svg	35	no	57	0	1283	0	0			0	0			1				0	
6.6.1	win	2023-06-28	10:55:22	11:02:12	404755	60ef047e8969715a3db7181a	4	1	main_z	7	main_z	119	stimuli_distractor_trianglediamonds.svg	stimuli_target_trianglerectangles.svg	25	yes	44	1	893	0	0			0	0			1				0	
6.6.1	win	2023-06-28	10:55:22	11:02:12	404755	60ef047e8969715a3db7181a	4	1	main_z	7	advance_on_keypress_ZEE	120	stimuli_distractor_trianglediamonds.svg	stimuli_target_trianglerectangles.svg	25	yes	57	0	160	0	0			0	0			1				0	
6.6.1	win	2023-06-28	10:55:22	11:02:15	407483	60ef047e8969715a3db7181a	4	1	main_z	7	main_z	121	stimuli_distractor_trianglediamonds.svg	stimuli_target_squarediamonds.svg	12	yes	44	1	1937	0	0			0	0			1				0	
6.6.1	win	2023-06-28	10:55:22	11:02:15	407483	60ef047e8969715a3db7181a	4	1	main_z	7	advance_on_keypress_ZEE	122	stimuli_distractor_trianglediamonds.svg	stimuli_target_squarediamonds.svg	12	yes	57	0	178	0	0			0	0			1				0	
6.6.1	win	2023-06-28	10:55:22	11:02:17	409780	60ef047e8969715a3db7181a	4	1	main_z	7	main_z	123	stimuli_target_trianglerectangles.svg	stimuli_distractor_trianglediamonds.svg	17	yes	44	1	1465	0	0			0	0			1				0	
6.6.1	win	2023-06-28	10:55:22	11:02:17	409780	60ef047e8969715a3db7181a	4	1	main_z	7	advance_on_keypress_ZEE	124	stimuli_target_trianglerectangles.svg	stimuli_distractor_trianglediamonds.svg	17	yes	57	0	109	0	0			0	0			1				0	
6.6.1	win	2023-06-28	10:55:22	11:02:20	412532	60ef047e8969715a3db7181a	4	1	main_z	7	main_z	125	stimuli_distractor_diamondtriangles.svg	stimuli_target_rectanglediamonds.svg	14	yes	0	0	2000	0	0			0	0			1				0	
6.6.1	win	2023-06-28	10:55:22	11:02:20	412532	60ef047e8969715a3db7181a	4	1	main_z	7	advance_on_keypress_ZEE	126	stimuli_distractor_diamondtriangles.svg	stimuli_target_rectanglediamonds.svg	14	yes	57	0	1149	0	0			0	0			1				0	
6.6.1	win	2023-06-28	10:55:22	11:02:24	416333	60ef047e8969715a3db7181a	4	1	main_z	7	main_z	127	stimuli_distractor_diamondtriangles.svg	stimuli_distractor_diamondtriangles.svg	39	no	0	1	2000	0	0			0	0			1				0	
6.6.1	win	2023-06-28	10:55:22	11:02:24	416333	60ef047e8969715a3db7181a	4	1	main_z	7	advance_on_keypress_ZEE	128	stimuli_distractor_diamondtriangles.svg	stimuli_distractor_diamondtriangles.svg	39	no	57	0	3675	0	0			0	0			1				0	
6.6.1	win	2023-06-28	10:55:22	11:02:30	422403	60ef047e8969715a3db7181a	4	1	main_z	7	main_z	129	stimuli_target_rectangletriangles.svg	stimuli_distractor_diamondtriangles.svg	5	yes	44	1	1749	0	0			0	0			1				0	
6.6.1	win	2023-06-28	10:55:22	11:02:30	422403	60ef047e8969715a3db7181a	4	1	main_z	7	advance_on_keypress_ZEE	130	stimuli_target_rectangletriangles.svg	stimuli_distractor_diamondtriangles.svg	5	yes	57	0	206	0	0			0	0			1				0	
6.6.1	win	2023-06-28	10:55:22	11:02:32	424315	60ef047e8969715a3db7181a	4	1	main_z	7	main_z	131	stimuli_target_squarediamonds.svg	stimuli_distractor_trianglediamonds.svg	4	yes	44	1	1060	0	0			0	0			1				0	
6.6.1	win	2023-06-28	10:55:22	11:02:32	424315	60ef047e8969715a3db7181a	4	1	main_z	7	advance_on_keypress_ZEE	132	stimuli_target_squarediamonds.svg	stimuli_distractor_trianglediamonds.svg	4	yes	57	0	97	0	0			0	0			1				0	
6.6.1	win	2023-06-28	10:55:22	11:02:33	426131	60ef047e8969715a3db7181a	4	1	main_z	7	main_z	133	stimuli_distractor_trianglediamonds.svg	stimuli_target_diamondsquares.svg	28	yes	44	1	1075	0	0			0	0			1				0	
6.6.1	win	2023-06-28	10:55:22	11:02:33	426131	60ef047e8969715a3db7181a	4	1	main_z	7	advance_on_keypress_ZEE	134	stimuli_distractor_trianglediamonds.svg	stimuli_target_diamondsquares.svg	28	yes	57	0	151	0	0			0	0			1				0	
6.6.1	win	2023-06-28	10:55:22	11:02:35	427803	60ef047e8969715a3db7181a	4	1	main_z	7	main_z	135	stimuli_distractor_diamondtriangles.svg	stimuli_target_squarediamonds.svg	16	yes	44	1	880	0	0			0	0			1				0	
6.6.1	win	2023-06-28	10:55:22	11:02:35	427803	60ef047e8969715a3db7181a	4	1	main_z	7	advance_on_keypress_ZEE	136	stimuli_distractor_diamondtriangles.svg	stimuli_target_squarediamonds.svg	16	yes	57	0	107	0	0			0	0			1				0	
6.6.1	win	2023-06-28	10:55:22	11:02:37	430123	60ef047e8969715a3db7181a	4	1	main_z	7	main_z	137	stimuli_distractor_diamondtriangles.svg	stimuli_target_squaretriangles.svg	15	yes	44	1	1565	0	0			0	0			1				0	
6.6.1	win	2023-06-28	10:55:22	11:02:37	430123	60ef047e8969715a3db7181a	4	1	main_z	7	advance_on_keypress_ZEE	138	stimuli_distractor_diamondtriangles.svg	stimuli_target_squaretriangles.svg	15	yes	57	0	85	0	0			0	0			1				0	
6.6.1	win	2023-06-28	10:55:22	11:02:40	432859	60ef047e8969715a3db7181a	4	1	main_z	7	main_z	139	stimuli_distractor_diamondtriangles.svg	stimuli_distractor_trianglediamonds.svg	38	no	0	1	2000	0	0			0	0			1				0	
6.6.1	win	2023-06-28	10:55:22	11:02:40	432859	60ef047e8969715a3db7181a	4	1	main_z	7	advance_on_keypress_ZEE	140	stimuli_distractor_diamondtriangles.svg	stimuli_distractor_trianglediamonds.svg	38	no	57	0	758	0	0			0	0			1				0	
6.6.1	win	2023-06-28	10:55:22	11:02:43	435611	60ef047e8969715a3db7181a	4	1	main_z	7	main_z	141	stimuli_distractor_trianglediamonds.svg	stimuli_distractor_trianglediamonds.svg	34	no	44	0	1351	0	0			0	0			1				0	
6.6.1	win	2023-06-28	10:55:22	11:02:43	435611	60ef047e8969715a3db7181a	4	1	main_z	7	advance_on_keypress_ZEE	142	stimuli_distractor_trianglediamonds.svg	stimuli_distractor_trianglediamonds.svg	34	no	57	0	1399	0	0			0	0			1				0	
6.6.1	win	2023-06-28	10:55:22	11:02:47	439531	60ef047e8969715a3db7181a	4	1	main_z	7	main_z	143	stimuli_distractor_diamondtriangles.svg	stimuli_target_trianglerectangles.svg	29	yes	44	1	1869	0	0			0	0			1				0	
6.6.1	win	2023-06-28	10:55:22	11:02:47	439531	60ef047e8969715a3db7181a	4	1	main_z	7	advance_on_keypress_ZEE	144	stimuli_distractor_diamondtriangles.svg	stimuli_target_trianglerectangles.svg	29	yes	57	0	152	0	0			0	0			1				0	
6.6.1	win	2023-06-28	10:55:22	11:02:49	441851	60ef047e8969715a3db7181a	4	1	main_z	7	main_z	145	stimuli_distractor_trianglediamonds.svg	stimuli_distractor_diamondtriangles.svg	36	no	44	0	1521	0	0			0	0			1				0	
6.6.1	win	2023-06-28	10:55:22	11:02:49	441851	60ef047e8969715a3db7181a	4	1	main_z	7	advance_on_keypress_ZEE	146	stimuli_distractor_trianglediamonds.svg	stimuli_distractor_diamondtriangles.svg	36	no	57	0	290	0	0			0	0			1				0	
6.6.1	win	2023-06-28	10:55:22	11:02:51	443667	60ef047e8969715a3db7181a	4	1	main_z	7	main_z	147	stimuli_target_squarediamonds.svg	stimuli_distractor_diamondtriangles.svg	8	yes	44	1	886	0	0			0	0			1				0	
6.6.1	win	2023-06-28	10:55:22	11:02:51	443667	60ef047e8969715a3db7181a	4	1	main_z	7	advance_on_keypress_ZEE	148	stimuli_target_squarediamonds.svg	stimuli_distractor_diamondtriangles.svg	8	yes	57	0	73	0	0			0	0			1				0	
6.6.1	win	2023-06-28	10:55:22	11:02:53	445243	60ef047e8969715a3db7181a	4	1	main_z	7	main_z	149	stimuli_distractor_trianglediamonds.svg	stimuli_target_rectangletriangles.svg	9	yes	44	1	861	0	0			0	0			1				0	
6.6.1	win	2023-06-28	10:55:22	11:02:53	445243	60ef047e8969715a3db7181a	4	1	main_z	7	advance_on_keypress_ZEE	150	stimuli_distractor_trianglediamonds.svg	stimuli_target_rectangletriangles.svg	9	yes	57	0	74	0	0			0	0			1				0	
6.6.1	win	2023-06-28	10:55:22	11:02:55	447949	60ef047e8969715a3db7181a	4	1	main_z	7	main_z	151	stimuli_distractor_diamondtriangles.svg	stimuli_distractor_diamondtriangles.svg	40	no	0	1	2000	0	0			0	0			1				0	
6.6.1	win	2023-06-28	10:55:22	11:02:55	447949	60ef047e8969715a3db7181a	4	1	main_z	7	advance_on_keypress_ZEE	152	stimuli_distractor_diamondtriangles.svg	stimuli_distractor_diamondtriangles.svg	40	no	57	0	380	0	0			0	0			1				0	
6.6.1	win	2023-06-28	10:55:22	11:02:58	450984	60ef047e8969715a3db7181a	4	1	main_z	7	main_z	153	stimuli_distractor_diamondtriangles.svg	stimuli_distractor_trianglediamonds.svg	37	no	0	1	2000	0	0			0	0			1				0	
6.6.1	win	2023-06-28	10:55:22	11:02:58	450984	60ef047e8969715a3db7181a	4	1	main_z	7	advance_on_keypress_ZEE	154	stimuli_distractor_diamondtriangles.svg	stimuli_distractor_trianglediamonds.svg	37	no	57	0	513	0	0			0	0			1				0	
6.6.1	win	2023-06-28	10:55:22	11:03:01	454152	60ef047e8969715a3db7181a	4	1	main_z	7	main_z	155	stimuli_target_diamondrectangles.svg	stimuli_distractor_trianglediamonds.svg	19	yes	0	0	2000	0	0			0	0			1				0	
6.6.1	win	2023-06-28	10:55:22	11:03:01	454152	60ef047e8969715a3db7181a	4	1	main_z	7	advance_on_keypress_ZEE	156	stimuli_target_diamondrectangles.svg	stimuli_distractor_trianglediamonds.svg	19	yes	57	0	424	0	0			0	0			1				0	
6.6.1	win	2023-06-28	10:55:22	11:03:04	457221	60ef047e8969715a3db7181a	4	1	main_z	7	main_z	157	stimuli_distractor_trianglediamonds.svg	stimuli_distractor_trianglediamonds.svg	33	no	0	1	2000	0	0			0	0			1				0	
6.6.1	win	2023-06-28	10:55:22	11:03:04	457221	60ef047e8969715a3db7181a	4	1	main_z	7	advance_on_keypress_ZEE	158	stimuli_distractor_trianglediamonds.svg	stimuli_distractor_trianglediamonds.svg	33	no	57	0	140	0	0			0	0			1				0	
6.6.1	win	2023-06-28	10:55:22	11:03:06	459083	60ef047e8969715a3db7181a	4	1	main_z	7	main_z	159	stimuli_target_trianglesquares.svg	stimuli_distractor_trianglediamonds.svg	18	yes	44	1	1077	0	0			0	0			1				0	
6.6.1	win	2023-06-28	10:55:22	11:03:06	459083	60ef047e8969715a3db7181a	4	1	main_z	7	advance_on_keypress_ZEE	160	stimuli_target_trianglesquares.svg	stimuli_distractor_trianglediamonds.svg	18	yes	57	0	89	0	0			0	0			1				0	
6.6.1	win	2023-06-28	10:55:22	11:04:11	523358	60ef047e8969715a3db7181a	4	1	practice_slash	9	practice_slash	1	stimuli_target_rectanglediamonds.svg	stimuli_distractor_diamondtriangles.svg	1	yes	53	1	968	0	0			0	0			1				0	
6.6.1	win	2023-06-28	10:55:22	11:04:11	523358	60ef047e8969715a3db7181a	4	1	practice_slash	9	advance_on_keypress_SLASH	2	stimuli_target_rectanglediamonds.svg	stimuli_distractor_diamondtriangles.svg	1	yes	57	0	535	0	0			0	0			1				0	
6.6.1	win	2023-06-28	10:55:22	11:04:14	526246	60ef047e8969715a3db7181a	4	1	practice_slash	9	practice_slash	3	stimuli_target_rectanglediamonds.svg	stimuli_distractor_trianglediamonds.svg	4	yes	53	1	704	0	0			0	0			1				0	
6.6.1	win	2023-06-28	10:55:22	11:04:14	526246	60ef047e8969715a3db7181a	4	1	practice_slash	9	advance_on_keypress_SLASH	4	stimuli_target_rectanglediamonds.svg	stimuli_distractor_trianglediamonds.svg	4	yes	57	0	531	0	0			0	0			1				0	
6.6.1	win	2023-06-28	10:55:22	11:04:17	529478	60ef047e8969715a3db7181a	4	1	practice_slash	9	practice_slash	5	stimuli_distractor_diamondtriangles.svg	stimuli_target_trianglerectangles.svg	9	yes	53	1	1052	0	0			0	0			1				0	
6.6.1	win	2023-06-28	10:55:22	11:04:17	529478	60ef047e8969715a3db7181a	4	1	practice_slash	9	advance_on_keypress_SLASH	6	stimuli_distractor_diamondtriangles.svg	stimuli_target_trianglerectangles.svg	9	yes	57	0	464	0	0			0	0			1				0	
6.6.1	win	2023-06-28	10:55:22	11:04:21	533595	60ef047e8969715a3db7181a	4	1	practice_slash	9	practice_slash	7	stimuli_distractor_trianglediamonds.svg	stimuli_distractor_trianglediamonds.svg	15	no	0	1	2000	0	0			0	0			1				0	
6.6.1	win	2023-06-28	10:55:22	11:04:21	533595	60ef047e8969715a3db7181a	4	1	practice_slash	9	advance_on_keypress_SLASH	8	stimuli_distractor_trianglediamonds.svg	stimuli_distractor_trianglediamonds.svg	15	no	57	0	561	0	0			0	0			1				0	
6.6.1	win	2023-06-28	10:55:22	11:04:24	537120	60ef047e8969715a3db7181a	4	1	practice_slash	9	practice_slash	9	stimuli_distractor_trianglediamonds.svg	stimuli_distractor_diamondtriangles.svg	16	no	53	0	1305	0	0			0	0			1				0	
6.6.1	win	2023-06-28	10:55:22	11:04:24	537120	60ef047e8969715a3db7181a	4	1	practice_slash	9	advance_on_keypress_SLASH	10	stimuli_distractor_trianglediamonds.svg	stimuli_distractor_diamondtriangles.svg	16	no	57	0	474	0	0			0	0			1				0	
6.6.1	win	2023-06-28	10:55:22	11:04:27	540143	60ef047e8969715a3db7181a	4	1	practice_slash	9	practice_slash	11	stimuli_target_diamondsquares.svg	stimuli_distractor_diamondtriangles.svg	3	yes	53	1	910	0	0			0	0			1				0	
6.6.1	win	2023-06-28	10:55:22	11:04:27	540143	60ef047e8969715a3db7181a	4	1	practice_slash	9	advance_on_keypress_SLASH	12	stimuli_target_diamondsquares.svg	stimuli_distractor_diamondtriangles.svg	3	yes	57	0	104	0	0			0	0			1				0	
6.6.1	win	2023-06-28	10:55:22	11:04:30	543095	60ef047e8969715a3db7181a	4	1	practice_slash	9	practice_slash	13	stimuli_target_squarediamonds.svg	stimuli_distractor_diamondtriangles.svg	2	yes	53	1	1194	0	0			0	0			1				0	
6.6.1	win	2023-06-28	10:55:22	11:04:30	543095	60ef047e8969715a3db7181a	4	1	practice_slash	9	advance_on_keypress_SLASH	14	stimuli_target_squarediamonds.svg	stimuli_distractor_diamondtriangles.svg	2	yes	57	0	40	0	0			0	0			1				0	
6.6.1	win	2023-06-28	10:55:22	11:04:33	546071	60ef047e8969715a3db7181a	4	1	practice_slash	9	practice_slash	15	stimuli_distractor_diamondtriangles.svg	stimuli_target_rectangletriangles.svg	7	yes	53	1	1285	0	0			0	0			1				0	
6.6.1	win	2023-06-28	10:55:22	11:04:33	546071	60ef047e8969715a3db7181a	4	1	practice_slash	9	advance_on_keypress_SLASH	16	stimuli_distractor_diamondtriangles.svg	stimuli_target_rectangletriangles.svg	7	yes	57	0	424	0	0			0	0			1				0	
6.6.1	win	2023-06-28	10:55:22	11:04:36	548847	60ef047e8969715a3db7181a	4	1	practice_slash	9	practice_slash	17	stimuli_distractor_trianglediamonds.svg	stimuli_target_squarediamonds.svg	11	yes	53	1	710	0	0			0	0			1				0	
6.6.1	win	2023-06-28	10:55:22	11:04:36	548847	60ef047e8969715a3db7181a	4	1	practice_slash	9	advance_on_keypress_SLASH	18	stimuli_distractor_trianglediamonds.svg	stimuli_target_squarediamonds.svg	11	yes	57	0	415	0	0			0	0			1				0	
6.6.1	win	2023-06-28	10:55:22	11:04:39	551790	60ef047e8969715a3db7181a	4	1	practice_slash	9	practice_slash	19	stimuli_target_diamondsquares.svg	stimuli_distractor_trianglediamonds.svg	6	yes	53	1	869	0	0			0	0			1				0	
6.6.1	win	2023-06-28	10:55:22	11:04:39	551790	60ef047e8969715a3db7181a	4	1	practice_slash	9	advance_on_keypress_SLASH	20	stimuli_target_diamondsquares.svg	stimuli_distractor_trianglediamonds.svg	6	yes	57	0	80	0	0			0	0			1				0	
6.6.1	win	2023-06-28	10:55:22	11:04:42	554358	60ef047e8969715a3db7181a	4	1	practice_slash	9	practice_slash	21	stimuli_distractor_trianglediamonds.svg	stimuli_target_diamondrectangles.svg	12	yes	53	1	836	0	0			0	0			1				0	
6.6.1	win	2023-06-28	10:55:22	11:04:42	554358	60ef047e8969715a3db7181a	4	1	practice_slash	9	advance_on_keypress_SLASH	22	stimuli_distractor_trianglediamonds.svg	stimuli_target_diamondrectangles.svg	12	yes	57	0	280	0	0			0	0			1				0	
6.6.1	win	2023-06-28	10:55:22	11:04:44	557038	60ef047e8969715a3db7181a	4	1	practice_slash	9	practice_slash	23	stimuli_distractor_diamondtriangles.svg	stimuli_target_diamondrectangles.svg	8	yes	53	1	748	0	0			0	0			1				0	
6.6.1	win	2023-06-28	10:55:22	11:04:44	557038	60ef047e8969715a3db7181a	4	1	practice_slash	9	advance_on_keypress_SLASH	24	stimuli_distractor_diamondtriangles.svg	stimuli_target_diamondrectangles.svg	8	yes	57	0	556	0	0			0	0			1				0	
6.6.1	win	2023-06-28	10:55:22	11:04:47	559782	60ef047e8969715a3db7181a	4	1	practice_slash	9	practice_slash	25	stimuli_distractor_trianglediamonds.svg	stimuli_target_rectanglediamonds.svg	10	yes	53	1	540	0	0			0	0			1				0	
6.6.1	win	2023-06-28	10:55:22	11:04:47	559782	60ef047e8969715a3db7181a	4	1	practice_slash	9	advance_on_keypress_SLASH	26	stimuli_distractor_trianglediamonds.svg	stimuli_target_rectanglediamonds.svg	10	yes	57	0	277	0	0			0	0			1				0	
6.6.1	win	2023-06-28	10:55:22	11:04:49	562014	60ef047e8969715a3db7181a	4	1	practice_slash	9	practice_slash	27	stimuli_target_squarediamonds.svg	stimuli_distractor_trianglediamonds.svg	5	yes	53	1	304	0	0			0	0			1				0	
6.6.1	win	2023-06-28	10:55:22	11:04:49	562014	60ef047e8969715a3db7181a	4	1	practice_slash	9	advance_on_keypress_SLASH	28	stimuli_target_squarediamonds.svg	stimuli_distractor_trianglediamonds.svg	5	yes	57	0	395	0	0			0	0			1				0	
6.6.1	win	2023-06-28	10:55:22	11:04:52	564838	60ef047e8969715a3db7181a	4	1	practice_slash	9	practice_slash	29	stimuli_distractor_diamondtriangles.svg	stimuli_distractor_trianglediamonds.svg	14	no	53	0	777	0	0			0	0			1				0	
6.6.1	win	2023-06-28	10:55:22	11:04:52	564838	60ef047e8969715a3db7181a	4	1	practice_slash	9	advance_on_keypress_SLASH	30	stimuli_distractor_diamondtriangles.svg	stimuli_distractor_trianglediamonds.svg	14	no	57	0	40	0	0			0	0			1				0	
6.6.1	win	2023-06-28	10:55:22	11:04:56	568528	60ef047e8969715a3db7181a	4	1	practice_slash	9	practice_slash	31	stimuli_distractor_diamondtriangles.svg	stimuli_distractor_diamondtriangles.svg	13	no	0	1	2000	0	0			0	0			1				0	
6.6.1	win	2023-06-28	10:55:22	11:04:56	568528	60ef047e8969715a3db7181a	4	1	practice_slash	9	advance_on_keypress_SLASH	32	stimuli_distractor_diamondtriangles.svg	stimuli_distractor_diamondtriangles.svg	13	no	57	0	139	0	0			0	0			1				0	
6.6.1	win	2023-06-28	10:55:22	11:05:00	573171	60ef047e8969715a3db7181a	4	1	main_slash	11	main_slash	1	stimuli_distractor_trianglediamonds.svg	stimuli_target_rectangletriangles.svg	9	yes	53	1	709	0	0			0	0			1				0	
6.6.1	win	2023-06-28	10:55:22	11:05:00	573171	60ef047e8969715a3db7181a	4	1	main_slash	11	advance_on_keypress_SLASH	2	stimuli_distractor_trianglediamonds.svg	stimuli_target_rectangletriangles.svg	9	yes	57	0	279	0	0			0	0			1				0	
6.6.1	win	2023-06-28	10:55:22	11:05:02	574907	60ef047e8969715a3db7181a	4	1	main_slash	11	main_slash	3	stimuli_target_rectangletriangles.svg	stimuli_distractor_trianglediamonds.svg	1	yes	53	1	810	0	0			0	0			1				0	
6.6.1	win	2023-06-28	10:55:22	11:05:02	574907	60ef047e8969715a3db7181a	4	1	main_slash	11	advance_on_keypress_SLASH	4	stimuli_target_rectangletriangles.svg	stimuli_distractor_trianglediamonds.svg	1	yes	57	0	145	0	0			0	0			1				0	
6.6.1	win	2023-06-28	10:55:22	11:05:05	577698	60ef047e8969715a3db7181a	4	1	main_slash	11	main_slash	5	stimuli_target_diamondrectangles.svg	stimuli_distractor_trianglediamonds.svg	19	yes	0	0	2000	0	0			0	0			1				0	
6.6.1	win	2023-06-28	10:55:22	11:05:05	577698	60ef047e8969715a3db7181a	4	1	main_slash	11	advance_on_keypress_SLASH	6	stimuli_target_diamondrectangles.svg	stimuli_distractor_trianglediamonds.svg	19	yes	57	0	528	0	0			0	0			1				0	
6.6.1	win	2023-06-28	10:55:22	11:05:08	580483	60ef047e8969715a3db7181a	4	1	main_slash	11	main_slash	7	stimuli_distractor_diamondtriangles.svg	stimuli_distractor_diamondtriangles.svg	39	no	53	0	1601	0	0			0	0			1				0	
6.6.1	win	2023-06-28	10:55:22	11:05:08	580483	60ef047e8969715a3db7181a	4	1	main_slash	11	advance_on_keypress_SLASH	8	stimuli_distractor_diamondtriangles.svg	stimuli_distractor_diamondtriangles.svg	39	no	57	0	79	0	0			0	0			1				0	
6.6.1	win	2023-06-28	10:55:22	11:05:09	582139	60ef047e8969715a3db7181a	4	1	main_slash	11	main_slash	9	stimuli_distractor_diamondtriangles.svg	stimuli_target_squarediamonds.svg	16	yes	53	1	922	0	0			0	0			1				0	
6.6.1	win	2023-06-28	10:55:22	11:05:09	582139	60ef047e8969715a3db7181a	4	1	main_slash	11	advance_on_keypress_SLASH	10	stimuli_distractor_diamondtriangles.svg	stimuli_target_squarediamonds.svg	16	yes	57	0	92	0	0			0	0			1				0	
6.6.1	win	2023-06-28	10:55:22	11:05:11	584179	60ef047e8969715a3db7181a	4	1	main_slash	11	main_slash	11	stimuli_target_trianglesquares.svg	stimuli_distractor_diamondtriangles.svg	22	yes	53	1	1311	0	0			0	0			1				0	
6.6.1	win	2023-06-28	10:55:22	11:05:11	584179	60ef047e8969715a3db7181a	4	1	main_slash	11	advance_on_keypress_SLASH	12	stimuli_target_trianglesquares.svg	stimuli_distractor_diamondtriangles.svg	22	yes	57	0	89	0	0			0	0			1				0	
6.6.1	win	2023-06-28	10:55:22	11:05:13	585627	60ef047e8969715a3db7181a	4	1	main_slash	11	main_slash	13	stimuli_target_diamondsquares.svg	stimuli_distractor_diamondtriangles.svg	24	yes	53	1	708	0	0			0	0			1				0	
6.6.1	win	2023-06-28	10:55:22	11:05:13	585627	60ef047e8969715a3db7181a	4	1	main_slash	11	advance_on_keypress_SLASH	14	stimuli_target_diamondsquares.svg	stimuli_distractor_diamondtriangles.svg	24	yes	57	0	119	0	0			0	0			1				0	
6.6.1	win	2023-06-28	10:55:22	11:05:14	586915	60ef047e8969715a3db7181a	4	1	main_slash	11	main_slash	15	stimuli_distractor_trianglediamonds.svg	stimuli_target_squaretriangles.svg	11	yes	53	1	529	0	0			0	0			1				0	
6.6.1	win	2023-06-28	10:55:22	11:05:14	586915	60ef047e8969715a3db7181a	4	1	main_slash	11	advance_on_keypress_SLASH	16	stimuli_distractor_trianglediamonds.svg	stimuli_target_squaretriangles.svg	11	yes	57	0	82	0	0			0	0			1				0	
6.6.1	win	2023-06-28	10:55:22	11:05:15	588196	60ef047e8969715a3db7181a	4	1	main_slash	11	main_slash	17	stimuli_target_squarediamonds.svg	stimuli_distractor_trianglediamonds.svg	4	yes	53	1	542	0	0			0	0			1				0	
6.6.1	win	2023-06-28	10:55:22	11:05:15	588196	60ef047e8969715a3db7181a	4	1	main_slash	11	advance_on_keypress_SLASH	18	stimuli_target_squarediamonds.svg	stimuli_distractor_trianglediamonds.svg	4	yes	57	0	79	0	0			0	0			1				0	
6.6.1	win	2023-06-28	10:55:22	11:05:17	589627	60ef047e8969715a3db7181a	4	1	main_slash	11	main_slash	19	stimuli_target_trianglesquares.svg	stimuli_distractor_trianglediamonds.svg	18	yes	53	1	706	0	0			0	0			1				0	
6.6.1	win	2023-06-28	10:55:22	11:05:17	589627	60ef047e8969715a3db7181a	4	1	main_slash	11	advance_on_keypress_SLASH	20	stimuli_target_trianglesquares.svg	stimuli_distractor_trianglediamonds.svg	18	yes	57	0	101	0	0			0	0			1				0	
6.6.1	win	2023-06-28	10:55:22	11:05:18	590987	60ef047e8969715a3db7181a	4	1	main_slash	11	main_slash	21	stimuli_distractor_trianglediamonds.svg	stimuli_target_trianglerectangles.svg	25	yes	53	1	616	0	0			0	0			1				0	
6.6.1	win	2023-06-28	10:55:22	11:05:18	590987	60ef047e8969715a3db7181a	4	1	main_slash	11	advance_on_keypress_SLASH	22	stimuli_distractor_trianglediamonds.svg	stimuli_target_trianglerectangles.svg	25	yes	57	0	62	0	0			0	0			1				0	
6.6.1	win	2023-06-28	10:55:22	11:05:20	592427	60ef047e8969715a3db7181a	4	1	main_slash	11	main_slash	23	stimuli_target_rectanglediamonds.svg	stimuli_distractor_trianglediamonds.svg	2	yes	53	1	722	0	0			0	0			1				0	
6.6.1	win	2023-06-28	10:55:22	11:05:20	592427	60ef047e8969715a3db7181a	4	1	main_slash	11	advance_on_keypress_SLASH	24	stimuli_target_rectanglediamonds.svg	stimuli_distractor_trianglediamonds.svg	2	yes	57	0	84	0	0			0	0			1				0	
6.6.1	win	2023-06-28	10:55:22	11:05:22	595156	60ef047e8969715a3db7181a	4	1	main_slash	11	main_slash	25	stimuli_distractor_diamondtriangles.svg	stimuli_target_diamondsquares.svg	32	yes	0	0	2000	0	0			0	0			1				0	
6.6.1	win	2023-06-28	10:55:22	11:05:22	595156	60ef047e8969715a3db7181a	4	1	main_slash	11	advance_on_keypress_SLASH	26	stimuli_distractor_diamondtriangles.svg	stimuli_target_diamondsquares.svg	32	yes	57	0	445	0	0			0	0			1				0	
6.6.1	win	2023-06-28	10:55:22	11:05:24	596971	60ef047e8969715a3db7181a	4	1	main_slash	11	main_slash	27	stimuli_distractor_diamondtriangles.svg	stimuli_target_trianglerectangles.svg	29	yes	53	1	713	0	0			0	0			1				0	
6.6.1	win	2023-06-28	10:55:22	11:05:24	596971	60ef047e8969715a3db7181a	4	1	main_slash	11	advance_on_keypress_SLASH	28	stimuli_distractor_diamondtriangles.svg	stimuli_target_trianglerectangles.svg	29	yes	57	0	75	0	0			0	0			1				0	
6.6.1	win	2023-06-28	10:55:22	11:05:26	598411	60ef047e8969715a3db7181a	4	1	main_slash	11	main_slash	29	stimuli_distractor_diamondtriangles.svg	stimuli_distractor_diamondtriangles.svg	40	no	53	0	719	0	0			0	0			1				0	
6.6.1	win	2023-06-28	10:55:22	11:05:26	598411	60ef047e8969715a3db7181a	4	1	main_slash	11	advance_on_keypress_SLASH	30	stimuli_distractor_diamondtriangles.svg	stimuli_distractor_diamondtriangles.svg	40	no	57	0	113	0	0			0	0			1				0	
6.6.1	win	2023-06-28	10:55:22	11:05:28	601176	60ef047e8969715a3db7181a	4	1	main_slash	11	main_slash	31	stimuli_target_diamondsquares.svg	stimuli_distractor_trianglediamonds.svg	20	yes	0	0	2000	0	0			0	0			1				0	
6.6.1	win	2023-06-28	10:55:22	11:05:28	601176	60ef047e8969715a3db7181a	4	1	main_slash	11	advance_on_keypress_SLASH	32	stimuli_target_diamondsquares.svg	stimuli_distractor_trianglediamonds.svg	20	yes	57	0	497	0	0			0	0			1				0	
6.6.1	win	2023-06-28	10:55:22	11:05:32	604328	60ef047e8969715a3db7181a	4	1	main_slash	11	main_slash	33	stimuli_distractor_trianglediamonds.svg	stimuli_distractor_diamondtriangles.svg	36	no	0	1	2000	0	0			0	0			1				0	
6.6.1	win	2023-06-28	10:55:22	11:05:32	604328	60ef047e8969715a3db7181a	4	1	main_slash	11	advance_on_keypress_SLASH	34	stimuli_distractor_trianglediamonds.svg	stimuli_distractor_diamondtriangles.svg	36	no	57	0	682	0	0			0	0			1				0	
6.6.1	win	2023-06-28	10:55:22	11:05:34	607139	60ef047e8969715a3db7181a	4	1	main_slash	11	main_slash	35	stimuli_target_rectangletriangles.svg	stimuli_distractor_diamondtriangles.svg	5	yes	53	1	1477	0	0			0	0			1				0	
6.6.1	win	2023-06-28	10:55:22	11:05:34	607139	60ef047e8969715a3db7181a	4	1	main_slash	11	advance_on_keypress_SLASH	36	stimuli_target_rectangletriangles.svg	stimuli_distractor_diamondtriangles.svg	5	yes	57	0	48	0	0			0	0			1				0	
6.6.1	win	2023-06-28	10:55:22	11:05:37	609715	60ef047e8969715a3db7181a	4	1	main_slash	11	main_slash	37	stimuli_target_trianglerectangles.svg	stimuli_distractor_diamondtriangles.svg	21	yes	53	1	1885	0	0			0	0			1				0	
6.6.1	win	2023-06-28	10:55:22	11:05:37	609715	60ef047e8969715a3db7181a	4	1	main_slash	11	advance_on_keypress_SLASH	38	stimuli_target_trianglerectangles.svg	stimuli_distractor_diamondtriangles.svg	21	yes	57	0	104	0	0			0	0			1				0	
6.6.1	win	2023-06-28	10:55:22	11:05:39	611675	60ef047e8969715a3db7181a	4	1	main_slash	11	main_slash	39	stimuli_distractor_trianglediamonds.svg	stimuli_target_rectanglediamonds.svg	10	yes	53	1	1210	0	0			0	0			1				0	
6.6.1	win	2023-06-28	10:55:22	11:05:39	611675	60ef047e8969715a3db7181a	4	1	main_slash	11	advance_on_keypress_SLASH	40	stimuli_distractor_trianglediamonds.svg	stimuli_target_rectanglediamonds.svg	10	yes	57	0	73	0	0			0	0			1				0	
6.6.1	win	2023-06-28	10:55:22	11:05:41	613475	60ef047e8969715a3db7181a	4	1	main_slash	11	main_slash	41	stimuli_target_squarediamonds.svg	stimuli_distractor_diamondtriangles.svg	8	yes	53	1	1093	0	0			0	0			1				0	
6.6.1	win	2023-06-28	10:55:22	11:05:41	613475	60ef047e8969715a3db7181a	4	1	main_slash	11	advance_on_keypress_SLASH	42	stimuli_target_squarediamonds.svg	stimuli_distractor_diamondtriangles.svg	8	yes	57	0	104	0	0			0	0			1				0	
6.6.1	win	2023-06-28	10:55:22	11:05:43	615467	60ef047e8969715a3db7181a	4	1	main_slash	11	main_slash	43	stimuli_distractor_diamondtriangles.svg	stimuli_distractor_trianglediamonds.svg	37	no	53	0	1250	0	0			0	0			1				0	
6.6.1	win	2023-06-28	10:55:22	11:05:43	615467	60ef047e8969715a3db7181a	4	1	main_slash	11	advance_on_keypress_SLASH	44	stimuli_distractor_diamondtriangles.svg	stimuli_distractor_trianglediamonds.svg	37	no	57	0	703	0	0			0	0			1				0	
6.6.1	win	2023-06-28	10:55:22	11:05:45	617372	60ef047e8969715a3db7181a	4	1	main_slash	11	main_slash	45	stimuli_distractor_trianglediamonds.svg	stimuli_target_squarediamonds.svg	12	yes	53	1	553	0	0			0	0			1				0	
6.6.1	win	2023-06-28	10:55:22	11:05:45	617372	60ef047e8969715a3db7181a	4	1	main_slash	11	advance_on_keypress_SLASH	46	stimuli_distractor_trianglediamonds.svg	stimuli_target_squarediamonds.svg	12	yes	57	0	106	0	0			0	0			1				0	
6.6.1	win	2023-06-28	10:55:22	11:05:47	619339	60ef047e8969715a3db7181a	4	1	main_slash	11	main_slash	47	stimuli_distractor_trianglediamonds.svg	stimuli_target_diamondrectangles.svg	27	yes	53	1	1220	0	0			0	0			1				0	
6.6.1	win	2023-06-28	10:55:22	11:05:47	619339	60ef047e8969715a3db7181a	4	1	main_slash	11	advance_on_keypress_SLASH	48	stimuli_distractor_trianglediamonds.svg	stimuli_target_diamondrectangles.svg	27	yes	57	0	474	0	0			0	0			1				0	
6.6.1	win	2023-06-28	10:55:22	11:05:48	621123	60ef047e8969715a3db7181a	4	1	main_slash	11	main_slash	49	stimuli_distractor_diamondtriangles.svg	stimuli_target_squaretriangles.svg	15	yes	53	1	670	0	0			0	0			1				0	
6.6.1	win	2023-06-28	10:55:22	11:05:48	621123	60ef047e8969715a3db7181a	4	1	main_slash	11	advance_on_keypress_SLASH	50	stimuli_distractor_diamondtriangles.svg	stimuli_target_squaretriangles.svg	15	yes	57	0	218	0	0			0	0			1				0	
6.6.1	win	2023-06-28	10:55:22	11:05:50	622548	60ef047e8969715a3db7181a	4	1	main_slash	11	main_slash	51	stimuli_distractor_diamondtriangles.svg	stimuli_target_rectanglediamonds.svg	14	yes	53	1	560	0	0			0	0			1				0	
6.6.1	win	2023-06-28	10:55:22	11:05:50	622548	60ef047e8969715a3db7181a	4	1	main_slash	11	advance_on_keypress_SLASH	52	stimuli_distractor_diamondtriangles.svg	stimuli_target_rectanglediamonds.svg	14	yes	57	0	113	0	0			0	0			1				0	
6.6.1	win	2023-06-28	10:55:22	11:05:52	624260	60ef047e8969715a3db7181a	4	1	main_slash	11	main_slash	53	stimuli_distractor_trianglediamonds.svg	stimuli_target_diamondsquares.svg	28	yes	53	1	955	0	0			0	0			1				0	
6.6.1	win	2023-06-28	10:55:22	11:05:52	624260	60ef047e8969715a3db7181a	4	1	main_slash	11	advance_on_keypress_SLASH	54	stimuli_distractor_trianglediamonds.svg	stimuli_target_diamondsquares.svg	28	yes	57	0	83	0	0			0	0			1				0	
6.6.1	win	2023-06-28	10:55:22	11:05:54	626989	60ef047e8969715a3db7181a	4	1	main_slash	11	main_slash	55	stimuli_distractor_diamondtriangles.svg	stimuli_target_rectangletriangles.svg	13	yes	0	0	2000	0	0			0	0			1				0	
6.6.1	win	2023-06-28	10:55:22	11:05:54	626989	60ef047e8969715a3db7181a	4	1	main_slash	11	advance_on_keypress_SLASH	56	stimuli_distractor_diamondtriangles.svg	stimuli_target_rectangletriangles.svg	13	yes	57	0	484	0	0			0	0			1				0	
6.6.1	win	2023-06-28	10:55:22	11:05:56	628651	60ef047e8969715a3db7181a	4	1	main_slash	11	main_slash	57	stimuli_distractor_trianglediamonds.svg	stimuli_target_trianglesquares.svg	26	yes	53	1	527	0	0			0	0			1				0	
6.6.1	win	2023-06-28	10:55:22	11:05:56	628651	60ef047e8969715a3db7181a	4	1	main_slash	11	advance_on_keypress_SLASH	58	stimuli_distractor_trianglediamonds.svg	stimuli_target_trianglesquares.svg	26	yes	57	0	8	0	0			0	0			1				0	
6.6.1	win	2023-06-28	10:55:22	11:05:57	630211	60ef047e8969715a3db7181a	4	1	main_slash	11	main_slash	59	stimuli_distractor_diamondtriangles.svg	stimuli_target_trianglesquares.svg	30	yes	53	1	870	0	0			0	0			1				0	
6.6.1	win	2023-06-28	10:55:22	11:05:57	630211	60ef047e8969715a3db7181a	4	1	main_slash	11	advance_on_keypress_SLASH	60	stimuli_distractor_diamondtriangles.svg	stimuli_target_trianglesquares.svg	30	yes	57	0	98	0	0			0	0			1				0	
6.6.1	win	2023-06-28	10:55:22	11:06:00	632958	60ef047e8969715a3db7181a	4	1	main_slash	11	main_slash	61	stimuli_distractor_diamondtriangles.svg	stimuli_target_diamondrectangles.svg	31	yes	0	0	2000	0	0			0	0			1				0	
6.6.1	win	2023-06-28	10:55:22	11:06:00	632958	60ef047e8969715a3db7181a	4	1	main_slash	11	advance_on_keypress_SLASH	62	stimuli_distractor_diamondtriangles.svg	stimuli_target_diamondrectangles.svg	31	yes	57	0	499	0	0			0	0			1				0	
6.6.1	win	2023-06-28	10:55:22	11:06:02	634915	60ef047e8969715a3db7181a	4	1	main_slash	11	main_slash	63	stimuli_target_trianglerectangles.svg	stimuli_distractor_trianglediamonds.svg	17	yes	53	1	805	0	0			0	0			1				0	
6.6.1	win	2023-06-28	10:55:22	11:06:02	634915	60ef047e8969715a3db7181a	4	1	main_slash	11	advance_on_keypress_SLASH	64	stimuli_target_trianglerectangles.svg	stimuli_distractor_trianglediamonds.svg	17	yes	57	0	84	0	0			0	0			1				0	
6.6.1	win	2023-06-28	10:55:22	11:06:04	636259	60ef047e8969715a3db7181a	4	1	main_slash	11	main_slash	65	stimuli_target_diamondrectangles.svg	stimuli_distractor_diamondtriangles.svg	23	yes	53	1	615	0	0			0	0			1				0	
6.6.1	win	2023-06-28	10:55:22	11:06:04	636259	60ef047e8969715a3db7181a	4	1	main_slash	11	advance_on_keypress_SLASH	66	stimuli_target_diamondrectangles.svg	stimuli_distractor_diamondtriangles.svg	23	yes	57	0	61	0	0			0	0			1				0	
6.6.1	win	2023-06-28	10:55:22	11:06:05	637667	60ef047e8969715a3db7181a	4	1	main_slash	11	main_slash	67	stimuli_distractor_trianglediamonds.svg	stimuli_distractor_diamondtriangles.svg	35	no	53	0	689	0	0			0	0			1				0	
6.6.1	win	2023-06-28	10:55:22	11:06:05	637667	60ef047e8969715a3db7181a	4	1	main_slash	11	advance_on_keypress_SLASH	68	stimuli_distractor_trianglediamonds.svg	stimuli_distractor_diamondtriangles.svg	35	no	57	0	788	0	0			0	0			1				0	
6.6.1	win	2023-06-28	10:55:22	11:06:07	639995	60ef047e8969715a3db7181a	4	1	main_slash	11	main_slash	69	stimuli_distractor_diamondtriangles.svg	stimuli_distractor_trianglediamonds.svg	38	no	53	0	899	0	0			0	0			1				0	
6.6.1	win	2023-06-28	10:55:22	11:06:07	639995	60ef047e8969715a3db7181a	4	1	main_slash	11	advance_on_keypress_SLASH	70	stimuli_distractor_diamondtriangles.svg	stimuli_distractor_trianglediamonds.svg	38	no	57	0	38	0	0			0	0			1				0	
6.6.1	win	2023-06-28	10:55:22	11:06:09	641819	60ef047e8969715a3db7181a	4	1	main_slash	11	main_slash	71	stimuli_distractor_trianglediamonds.svg	stimuli_distractor_trianglediamonds.svg	34	no	53	0	1139	0	0			0	0			1				0	
6.6.1	win	2023-06-28	10:55:22	11:06:09	641819	60ef047e8969715a3db7181a	4	1	main_slash	11	advance_on_keypress_SLASH	72	stimuli_distractor_trianglediamonds.svg	stimuli_distractor_trianglediamonds.svg	34	no	57	0	36	0	0			0	0			1				0	
6.6.1	win	2023-06-28	10:55:22	11:06:11	643491	60ef047e8969715a3db7181a	4	1	main_slash	11	main_slash	73	stimuli_target_squaretriangles.svg	stimuli_distractor_trianglediamonds.svg	3	yes	53	1	994	0	0			0	0			1				0	
6.6.1	win	2023-06-28	10:55:22	11:06:11	643491	60ef047e8969715a3db7181a	4	1	main_slash	11	advance_on_keypress_SLASH	74	stimuli_target_squaretriangles.svg	stimuli_distractor_trianglediamonds.svg	3	yes	57	0	59233	0	0			0	0			1				0	
6.6.1	win	2023-06-28	10:55:22	11:07:12	704795	60ef047e8969715a3db7181a	4	1	main_slash	11	main_slash	75	stimuli_target_squaretriangles.svg	stimuli_distractor_diamondtriangles.svg	7	yes	53	1	1434	0	0			0	0			1				0	
6.6.1	win	2023-06-28	10:55:22	11:07:12	704795	60ef047e8969715a3db7181a	4	1	main_slash	11	advance_on_keypress_SLASH	76	stimuli_target_squaretriangles.svg	stimuli_distractor_diamondtriangles.svg	7	yes	57	0	39	0	0			0	0			1				0	
6.6.1	win	2023-06-28	10:55:22	11:07:15	707479	60ef047e8969715a3db7181a	4	1	main_slash	11	main_slash	77	stimuli_distractor_trianglediamonds.svg	stimuli_distractor_trianglediamonds.svg	33	no	0	1	2000	0	0			0	0			1				0	
6.6.1	win	2023-06-28	10:55:22	11:07:15	707479	60ef047e8969715a3db7181a	4	1	main_slash	11	advance_on_keypress_SLASH	78	stimuli_distractor_trianglediamonds.svg	stimuli_distractor_trianglediamonds.svg	33	no	57	0	258	0	0			0	0			1				0	
6.6.1	win	2023-06-28	10:55:22	11:07:16	708835	60ef047e8969715a3db7181a	4	1	main_slash	11	main_slash	79	stimuli_target_rectanglediamonds.svg	stimuli_distractor_diamondtriangles.svg	6	yes	53	1	455	0	0			0	0			1				0	
6.6.1	win	2023-06-28	10:55:22	11:07:16	708835	60ef047e8969715a3db7181a	4	1	main_slash	11	advance_on_keypress_SLASH	80	stimuli_target_rectanglediamonds.svg	stimuli_distractor_diamondtriangles.svg	6	yes	57	0	52	0	0			0	0			1				0	
6.6.1	win	2023-06-28	10:55:22	11:07:17	710163	60ef047e8969715a3db7181a	4	1	main_slash	11	main_slash	81	stimuli_target_rectangletriangles.svg	stimuli_distractor_trianglediamonds.svg	1	yes	53	1	632	0	0			0	0			1				0	
6.6.1	win	2023-06-28	10:55:22	11:07:17	710163	60ef047e8969715a3db7181a	4	1	main_slash	11	advance_on_keypress_SLASH	82	stimuli_target_rectangletriangles.svg	stimuli_distractor_trianglediamonds.svg	1	yes	57	0	54	0	0			0	0			1				0	
6.6.1	win	2023-06-28	10:55:22	11:07:19	711499	60ef047e8969715a3db7181a	4	1	main_slash	11	main_slash	83	stimuli_distractor_diamondtriangles.svg	stimuli_target_trianglerectangles.svg	29	yes	53	1	634	0	0			0	0			1				0	
6.6.1	win	2023-06-28	10:55:22	11:07:19	711499	60ef047e8969715a3db7181a	4	1	main_slash	11	advance_on_keypress_SLASH	84	stimuli_distractor_diamondtriangles.svg	stimuli_target_trianglerectangles.svg	29	yes	57	0	17	0	0			0	0			1				0	
6.6.1	win	2023-06-28	10:55:22	11:07:21	713692	60ef047e8969715a3db7181a	4	1	main_slash	11	main_slash	85	stimuli_distractor_trianglediamonds.svg	stimuli_target_trianglerectangles.svg	25	yes	53	1	1509	0	0			0	0			1				0	
6.6.1	win	2023-06-28	10:55:22	11:07:21	713692	60ef047e8969715a3db7181a	4	1	main_slash	11	advance_on_keypress_SLASH	86	stimuli_distractor_trianglediamonds.svg	stimuli_target_trianglerectangles.svg	25	yes	57	0	31	0	0			0	0			1				0	
6.6.1	win	2023-06-28	10:55:22	11:07:22	715043	60ef047e8969715a3db7181a	4	1	main_slash	11	main_slash	87	stimuli_distractor_trianglediamonds.svg	stimuli_target_rectangletriangles.svg	9	yes	53	1	676	0	0			0	0			1				0	
6.6.1	win	2023-06-28	10:55:22	11:07:22	715043	60ef047e8969715a3db7181a	4	1	main_slash	11	advance_on_keypress_SLASH	88	stimuli_distractor_trianglediamonds.svg	stimuli_target_rectangletriangles.svg	9	yes	57	0	56	0	0			0	0			1				0	
6.6.1	win	2023-06-28	10:55:22	11:07:24	716628	60ef047e8969715a3db7181a	4	1	main_slash	11	main_slash	89	stimuli_target_trianglesquares.svg	stimuli_distractor_trianglediamonds.svg	18	yes	53	1	893	0	0			0	0			1				0	
6.6.1	win	2023-06-28	10:55:22	11:07:24	716628	60ef047e8969715a3db7181a	4	1	main_slash	11	advance_on_keypress_SLASH	90	stimuli_target_trianglesquares.svg	stimuli_distractor_trianglediamonds.svg	18	yes	57	0	25	0	0			0	0			1				0	
6.6.1	win	2023-06-28	10:55:22	11:07:25	717931	60ef047e8969715a3db7181a	4	1	main_slash	11	main_slash	91	stimuli_target_squarediamonds.svg	stimuli_distractor_diamondtriangles.svg	8	yes	53	1	630	0	0			0	0			1				0	
6.6.1	win	2023-06-28	10:55:22	11:07:25	717931	60ef047e8969715a3db7181a	4	1	main_slash	11	advance_on_keypress_SLASH	92	stimuli_target_squarediamonds.svg	stimuli_distractor_diamondtriangles.svg	8	yes	57	0	43	0	0			0	0			1				0	
6.6.1	win	2023-06-28	10:55:22	11:07:28	720635	60ef047e8969715a3db7181a	4	1	main_slash	11	main_slash	93	stimuli_distractor_trianglediamonds.svg	stimuli_target_diamondsquares.svg	28	yes	0	0	2000	0	0			0	0			1				0	
6.6.1	win	2023-06-28	10:55:22	11:07:28	720635	60ef047e8969715a3db7181a	4	1	main_slash	11	advance_on_keypress_SLASH	94	stimuli_distractor_trianglediamonds.svg	stimuli_target_diamondsquares.svg	28	yes	57	0	366	0	0			0	0			1				0	
6.6.1	win	2023-06-28	10:55:22	11:07:30	722260	60ef047e8969715a3db7181a	4	1	main_slash	11	main_slash	95	stimuli_distractor_diamondtriangles.svg	stimuli_target_rectanglediamonds.svg	14	yes	53	1	606	0	0			0	0			1				0	
6.6.1	win	2023-06-28	10:55:22	11:07:30	722260	60ef047e8969715a3db7181a	4	1	main_slash	11	advance_on_keypress_SLASH	96	stimuli_distractor_diamondtriangles.svg	stimuli_target_rectanglediamonds.svg	14	yes	57	0	52	0	0			0	0			1				0	
6.6.1	win	2023-06-28	10:55:22	11:07:32	724954	60ef047e8969715a3db7181a	4	1	main_slash	11	main_slash	97	stimuli_distractor_diamondtriangles.svg	stimuli_distractor_diamondtriangles.svg	39	no	0	1	2000	0	0			0	0			1				0	
6.6.1	win	2023-06-28	10:55:22	11:07:32	724954	60ef047e8969715a3db7181a	4	1	main_slash	11	advance_on_keypress_SLASH	98	stimuli_distractor_diamondtriangles.svg	stimuli_distractor_diamondtriangles.svg	39	no	57	0	119	0	0			0	0			1				0	
6.6.1	win	2023-06-28	10:55:22	11:07:34	726371	60ef047e8969715a3db7181a	4	1	main_slash	11	main_slash	99	stimuli_target_rectanglediamonds.svg	stimuli_distractor_trianglediamonds.svg	2	yes	53	1	649	0	0			0	0			1				0	
6.6.1	win	2023-06-28	10:55:22	11:07:34	726371	60ef047e8969715a3db7181a	4	1	main_slash	11	advance_on_keypress_SLASH	100	stimuli_target_rectanglediamonds.svg	stimuli_distractor_trianglediamonds.svg	2	yes	57	0	45	0	0			0	0			1				0	
6.6.1	win	2023-06-28	10:55:22	11:07:35	728091	60ef047e8969715a3db7181a	4	1	main_slash	11	main_slash	101	stimuli_target_diamondsquares.svg	stimuli_distractor_diamondtriangles.svg	24	yes	53	1	1018	0	0			0	0			1				0	
6.6.1	win	2023-06-28	10:55:22	11:07:35	728091	60ef047e8969715a3db7181a	4	1	main_slash	11	advance_on_keypress_SLASH	102	stimuli_target_diamondsquares.svg	stimuli_distractor_diamondtriangles.svg	24	yes	57	0	32	0	0			0	0			1				0	
6.6.1	win	2023-06-28	10:55:22	11:07:38	730774	60ef047e8969715a3db7181a	4	1	main_slash	11	main_slash	103	stimuli_target_trianglerectangles.svg	stimuli_distractor_trianglediamonds.svg	17	yes	0	0	2000	0	0			0	0			1				0	
6.6.1	win	2023-06-28	10:55:22	11:07:38	730774	60ef047e8969715a3db7181a	4	1	main_slash	11	advance_on_keypress_SLASH	104	stimuli_target_trianglerectangles.svg	stimuli_distractor_trianglediamonds.svg	17	yes	57	0	443	0	0			0	0			1				0	
6.6.1	win	2023-06-28	10:55:22	11:07:40	732555	60ef047e8969715a3db7181a	4	1	main_slash	11	main_slash	105	stimuli_distractor_trianglediamonds.svg	stimuli_target_trianglesquares.svg	26	yes	53	1	696	0	0			0	0			1				0	
6.6.1	win	2023-06-28	10:55:22	11:07:40	732555	60ef047e8969715a3db7181a	4	1	main_slash	11	advance_on_keypress_SLASH	106	stimuli_distractor_trianglediamonds.svg	stimuli_target_trianglesquares.svg	26	yes	57	0	51	0	0			0	0			1				0	
6.6.1	win	2023-06-28	10:55:22	11:07:41	733875	60ef047e8969715a3db7181a	4	1	main_slash	11	main_slash	107	stimuli_distractor_diamondtriangles.svg	stimuli_target_trianglesquares.svg	30	yes	53	1	616	0	0			0	0			1				0	
6.6.1	win	2023-06-28	10:55:22	11:07:41	733875	60ef047e8969715a3db7181a	4	1	main_slash	11	advance_on_keypress_SLASH	108	stimuli_distractor_diamondtriangles.svg	stimuli_target_trianglesquares.svg	30	yes	57	0	38	0	0			0	0			1				0	
6.6.1	win	2023-06-28	10:55:22	11:07:42	735227	60ef047e8969715a3db7181a	4	1	main_slash	11	main_slash	109	stimuli_target_trianglesquares.svg	stimuli_distractor_diamondtriangles.svg	22	yes	53	1	667	0	0			0	0			1				0	
6.6.1	win	2023-06-28	10:55:22	11:07:42	735227	60ef047e8969715a3db7181a	4	1	main_slash	11	advance_on_keypress_SLASH	110	stimuli_target_trianglesquares.svg	stimuli_distractor_diamondtriangles.svg	22	yes	57	0	47	0	0			0	0			1				0	
6.6.1	win	2023-06-28	10:55:22	11:07:44	736915	60ef047e8969715a3db7181a	4	1	main_slash	11	main_slash	111	stimuli_distractor_trianglediamonds.svg	stimuli_target_diamondrectangles.svg	27	yes	53	1	988	0	0			0	0			1				0	
6.6.1	win	2023-06-28	10:55:22	11:07:44	736915	60ef047e8969715a3db7181a	4	1	main_slash	11	advance_on_keypress_SLASH	112	stimuli_distractor_trianglediamonds.svg	stimuli_target_diamondrectangles.svg	27	yes	57	0	19	0	0			0	0			1				0	
6.6.1	win	2023-06-28	10:55:22	11:07:47	739594	60ef047e8969715a3db7181a	4	1	main_slash	11	main_slash	113	stimuli_distractor_diamondtriangles.svg	stimuli_distractor_trianglediamonds.svg	37	no	0	1	2000	0	0			0	0			1				0	
6.6.1	win	2023-06-28	10:55:22	11:07:47	739594	60ef047e8969715a3db7181a	4	1	main_slash	11	advance_on_keypress_SLASH	114	stimuli_distractor_diamondtriangles.svg	stimuli_distractor_trianglediamonds.svg	37	no	57	0	686	0	0			0	0			1				0	
6.6.1	win	2023-06-28	10:55:22	11:07:49	741724	60ef047e8969715a3db7181a	4	1	main_slash	11	main_slash	115	stimuli_distractor_trianglediamonds.svg	stimuli_distractor_diamondtriangles.svg	35	no	53	0	793	0	0			0	0			1				0	
6.6.1	win	2023-06-28	10:55:22	11:07:49	741724	60ef047e8969715a3db7181a	4	1	main_slash	11	advance_on_keypress_SLASH	116	stimuli_distractor_trianglediamonds.svg	stimuli_distractor_diamondtriangles.svg	35	no	57	0	32	0	0			0	0			1				0	
6.6.1	win	2023-06-28	10:55:22	11:07:51	743571	60ef047e8969715a3db7181a	4	1	main_slash	11	main_slash	117	stimuli_distractor_diamondtriangles.svg	stimuli_target_rectangletriangles.svg	13	yes	53	1	1157	0	0			0	0			1				0	
6.6.1	win	2023-06-28	10:55:22	11:07:51	743571	60ef047e8969715a3db7181a	4	1	main_slash	11	advance_on_keypress_SLASH	118	stimuli_distractor_diamondtriangles.svg	stimuli_target_rectangletriangles.svg	13	yes	57	0	69	0	0			0	0			1				0	
6.6.1	win	2023-06-28	10:55:22	11:07:53	745579	60ef047e8969715a3db7181a	4	1	main_slash	11	main_slash	119	stimuli_distractor_diamondtriangles.svg	stimuli_target_diamondsquares.svg	32	yes	53	1	1298	0	0			0	0			1				0	
6.6.1	win	2023-06-28	10:55:22	11:07:53	745579	60ef047e8969715a3db7181a	4	1	main_slash	11	advance_on_keypress_SLASH	120	stimuli_distractor_diamondtriangles.svg	stimuli_target_diamondsquares.svg	32	yes	57	0	13	0	0			0	0			1				0	
6.6.1	win	2023-06-28	10:55:22	11:07:54	746851	60ef047e8969715a3db7181a	4	1	main_slash	11	main_slash	121	stimuli_distractor_trianglediamonds.svg	stimuli_target_rectanglediamonds.svg	10	yes	53	1	585	0	0			0	0			1				0	
6.6.1	win	2023-06-28	10:55:22	11:07:54	746851	60ef047e8969715a3db7181a	4	1	main_slash	11	advance_on_keypress_SLASH	122	stimuli_distractor_trianglediamonds.svg	stimuli_target_rectanglediamonds.svg	10	yes	57	0	33	0	0			0	0			1				0	
6.6.1	win	2023-06-28	10:55:22	11:07:56	748827	60ef047e8969715a3db7181a	4	1	main_slash	11	main_slash	123	stimuli_target_diamondrectangles.svg	stimuli_distractor_diamondtriangles.svg	23	yes	53	1	1294	0	0			0	0			1				0	
6.6.1	win	2023-06-28	10:55:22	11:07:56	748827	60ef047e8969715a3db7181a	4	1	main_slash	11	advance_on_keypress_SLASH	124	stimuli_target_diamondrectangles.svg	stimuli_distractor_diamondtriangles.svg	23	yes	57	0	49	0	0			0	0			1				0	
6.6.1	win	2023-06-28	10:55:22	11:07:59	751517	60ef047e8969715a3db7181a	4	1	main_slash	11	main_slash	125	stimuli_distractor_trianglediamonds.svg	stimuli_distractor_trianglediamonds.svg	34	no	0	1	2000	0	0			0	0			1				0	
6.6.1	win	2023-06-28	10:55:22	11:07:59	751517	60ef047e8969715a3db7181a	4	1	main_slash	11	advance_on_keypress_SLASH	126	stimuli_distractor_trianglediamonds.svg	stimuli_distractor_trianglediamonds.svg	34	no	57	0	316	0	0			0	0			1				0	
6.6.1	win	2023-06-28	10:55:22	11:08:00	753019	60ef047e8969715a3db7181a	4	1	main_slash	11	main_slash	127	stimuli_target_squarediamonds.svg	stimuli_distractor_trianglediamonds.svg	4	yes	53	1	533	0	0			0	0			1				0	
6.6.1	win	2023-06-28	10:55:22	11:08:00	753019	60ef047e8969715a3db7181a	4	1	main_slash	11	advance_on_keypress_SLASH	128	stimuli_target_squarediamonds.svg	stimuli_distractor_trianglediamonds.svg	4	yes	57	0	39	0	0			0	0			1				0	
6.6.1	win	2023-06-28	10:55:22	11:08:01	754227	60ef047e8969715a3db7181a	4	1	main_slash	11	main_slash	129	stimuli_target_squaretriangles.svg	stimuli_distractor_trianglediamonds.svg	3	yes	53	1	524	0	0			0	0			1				0	
6.6.1	win	2023-06-28	10:55:22	11:08:01	754227	60ef047e8969715a3db7181a	4	1	main_slash	11	advance_on_keypress_SLASH	130	stimuli_target_squaretriangles.svg	stimuli_distractor_trianglediamonds.svg	3	yes	57	0	78	0	0			0	0			1				0	
6.6.1	win	2023-06-28	10:55:22	11:08:03	755667	60ef047e8969715a3db7181a	4	1	main_slash	11	main_slash	131	stimuli_distractor_diamondtriangles.svg	stimuli_distractor_diamondtriangles.svg	40	no	53	0	714	0	0			0	0			1				0	
6.6.1	win	2023-06-28	10:55:22	11:08:03	755667	60ef047e8969715a3db7181a	4	1	main_slash	11	advance_on_keypress_SLASH	132	stimuli_distractor_diamondtriangles.svg	stimuli_distractor_diamondtriangles.svg	40	no	57	0	60	0	0			0	0			1				0	
6.6.1	win	2023-06-28	10:55:22	11:08:04	756971	60ef047e8969715a3db7181a	4	1	main_slash	11	main_slash	133	stimuli_target_squaretriangles.svg	stimuli_distractor_diamondtriangles.svg	7	yes	53	1	600	0	0			0	0			1				0	
6.6.1	win	2023-06-28	10:55:22	11:08:04	756971	60ef047e8969715a3db7181a	4	1	main_slash	11	advance_on_keypress_SLASH	134	stimuli_target_squaretriangles.svg	stimuli_distractor_diamondtriangles.svg	7	yes	57	0	16	0	0			0	0			1				0	
6.6.1	win	2023-06-28	10:55:22	11:08:06	758267	60ef047e8969715a3db7181a	4	1	main_slash	11	main_slash	135	stimuli_distractor_trianglediamonds.svg	stimuli_target_squarediamonds.svg	12	yes	53	1	612	0	0			0	0			1				0	
6.6.1	win	2023-06-28	10:55:22	11:08:06	758267	60ef047e8969715a3db7181a	4	1	main_slash	11	advance_on_keypress_SLASH	136	stimuli_distractor_trianglediamonds.svg	stimuli_target_squarediamonds.svg	12	yes	57	0	66	0	0			0	0			1				0	
6.6.1	win	2023-06-28	10:55:22	11:08:07	759563	60ef047e8969715a3db7181a	4	1	main_slash	11	main_slash	137	stimuli_target_rectangletriangles.svg	stimuli_distractor_diamondtriangles.svg	5	yes	53	1	574	0	0			0	0			1				0	
6.6.1	win	2023-06-28	10:55:22	11:08:07	759563	60ef047e8969715a3db7181a	4	1	main_slash	11	advance_on_keypress_SLASH	138	stimuli_target_rectangletriangles.svg	stimuli_distractor_diamondtriangles.svg	5	yes	57	0	46	0	0			0	0			1				0	
6.6.1	win	2023-06-28	10:55:22	11:08:09	761315	60ef047e8969715a3db7181a	4	1	main_slash	11	main_slash	139	stimuli_target_diamondrectangles.svg	stimuli_distractor_trianglediamonds.svg	19	yes	53	1	1059	0	0			0	0			1				0	
6.6.1	win	2023-06-28	10:55:22	11:08:09	761315	60ef047e8969715a3db7181a	4	1	main_slash	11	advance_on_keypress_SLASH	140	stimuli_target_diamondrectangles.svg	stimuli_distractor_trianglediamonds.svg	19	yes	57	0	18	0	0			0	0			1				0	
6.6.1	win	2023-06-28	10:55:22	11:08:10	762523	60ef047e8969715a3db7181a	4	1	main_slash	11	main_slash	141	stimuli_distractor_trianglediamonds.svg	stimuli_distractor_trianglediamonds.svg	33	no	53	0	533	0	0			0	0			1				0	
6.6.1	win	2023-06-28	10:55:22	11:08:10	762523	60ef047e8969715a3db7181a	4	1	main_slash	11	advance_on_keypress_SLASH	142	stimuli_distractor_trianglediamonds.svg	stimuli_distractor_trianglediamonds.svg	33	no	57	0	54	0	0			0	0			1				0	
6.6.1	win	2023-06-28	10:55:22	11:08:11	763955	60ef047e8969715a3db7181a	4	1	main_slash	11	main_slash	143	stimuli_distractor_diamondtriangles.svg	stimuli_target_squaretriangles.svg	15	yes	53	1	731	0	0			0	0			1				0	
6.6.1	win	2023-06-28	10:55:22	11:08:11	763955	60ef047e8969715a3db7181a	4	1	main_slash	11	advance_on_keypress_SLASH	144	stimuli_distractor_diamondtriangles.svg	stimuli_target_squaretriangles.svg	15	yes	57	0	28	0	0			0	0			1				0	
6.6.1	win	2023-06-28	10:55:22	11:08:12	765083	60ef047e8969715a3db7181a	4	1	main_slash	11	main_slash	145	stimuli_distractor_diamondtriangles.svg	stimuli_target_squarediamonds.svg	16	yes	53	1	441	0	0			0	0			1				0	
6.6.1	win	2023-06-28	10:55:22	11:08:12	765083	60ef047e8969715a3db7181a	4	1	main_slash	11	advance_on_keypress_SLASH	146	stimuli_distractor_diamondtriangles.svg	stimuli_target_squarediamonds.svg	16	yes	57	0	24	0	0			0	0			1				0	
6.6.1	win	2023-06-28	10:55:22	11:08:14	766900	60ef047e8969715a3db7181a	4	1	main_slash	11	main_slash	147	stimuli_distractor_diamondtriangles.svg	stimuli_distractor_trianglediamonds.svg	38	no	53	0	1141	0	0			0	0			1				0	
6.6.1	win	2023-06-28	10:55:22	11:08:14	766900	60ef047e8969715a3db7181a	4	1	main_slash	11	advance_on_keypress_SLASH	148	stimuli_distractor_diamondtriangles.svg	stimuli_distractor_trianglediamonds.svg	38	no	57	0	30	0	0			0	0			1				0	
6.6.1	win	2023-06-28	10:55:22	11:08:17	769576	60ef047e8969715a3db7181a	4	1	main_slash	11	main_slash	149	stimuli_distractor_trianglediamonds.svg	stimuli_distractor_diamondtriangles.svg	36	no	0	1	2000	0	0			0	0			1				0	
6.6.1	win	2023-06-28	10:55:22	11:08:17	769576	60ef047e8969715a3db7181a	4	1	main_slash	11	advance_on_keypress_SLASH	150	stimuli_distractor_trianglediamonds.svg	stimuli_distractor_diamondtriangles.svg	36	no	57	0	162	0	0			0	0			1				0	
6.6.1	win	2023-06-28	10:55:22	11:08:19	771763	60ef047e8969715a3db7181a	4	1	main_slash	11	main_slash	151	stimuli_target_diamondsquares.svg	stimuli_distractor_trianglediamonds.svg	20	yes	53	1	1370	0	0			0	0			1				0	
6.6.1	win	2023-06-28	10:55:22	11:08:19	771763	60ef047e8969715a3db7181a	4	1	main_slash	11	advance_on_keypress_SLASH	152	stimuli_target_diamondsquares.svg	stimuli_distractor_trianglediamonds.svg	20	yes	57	0	72	0	0			0	0			1				0	
6.6.1	win	2023-06-28	10:55:22	11:08:22	774478	60ef047e8969715a3db7181a	4	1	main_slash	11	main_slash	153	stimuli_target_trianglerectangles.svg	stimuli_distractor_diamondtriangles.svg	21	yes	0	0	2000	0	0			0	0			1				0	
6.6.1	win	2023-06-28	10:55:22	11:08:22	774478	60ef047e8969715a3db7181a	4	1	main_slash	11	advance_on_keypress_SLASH	154	stimuli_target_trianglerectangles.svg	stimuli_distractor_diamondtriangles.svg	21	yes	57	0	474	0	0			0	0			1				0	
6.6.1	win	2023-06-28	10:55:22	11:08:23	776131	60ef047e8969715a3db7181a	4	1	main_slash	11	main_slash	155	stimuli_distractor_trianglediamonds.svg	stimuli_target_squaretriangles.svg	11	yes	53	1	534	0	0			0	0			1				0	
6.6.1	win	2023-06-28	10:55:22	11:08:23	776131	60ef047e8969715a3db7181a	4	1	main_slash	11	advance_on_keypress_SLASH	156	stimuli_distractor_trianglediamonds.svg	stimuli_target_squaretriangles.svg	11	yes	57	0	39	0	0			0	0			1				0	
6.6.1	win	2023-06-28	10:55:22	11:08:25	777334	60ef047e8969715a3db7181a	4	1	main_slash	11	main_slash	157	stimuli_target_rectanglediamonds.svg	stimuli_distractor_diamondtriangles.svg	6	yes	53	1	517	0	0			0	0			1				0	
6.6.1	win	2023-06-28	10:55:22	11:08:25	777334	60ef047e8969715a3db7181a	4	1	main_slash	11	advance_on_keypress_SLASH	158	stimuli_target_rectanglediamonds.svg	stimuli_distractor_diamondtriangles.svg	6	yes	57	0	47	0	0			0	0			1				0	
6.6.1	win	2023-06-28	10:55:22	11:08:27	779251	60ef047e8969715a3db7181a	4	1	main_slash	11	main_slash	159	stimuli_distractor_diamondtriangles.svg	stimuli_target_diamondrectangles.svg	31	yes	53	1	1219	0	0			0	0			1				0	
6.6.1	win	2023-06-28	10:55:22	11:08:27	779251	60ef047e8969715a3db7181a	4	1	main_slash	11	advance_on_keypress_SLASH	160	stimuli_distractor_diamondtriangles.svg	stimuli_target_diamondrectangles.svg	31	yes	57	0	57	0	0			0	0			1				0	
6.6.1	win	2023-06-28	10:55:22	11:08:27	779251	60ef047e8969715a3db7181a	4	1	headphonecheck_calibration	14	headphonecheck_calibrationIntro	1	stimuli_distractor_diamondtriangles.svg	stimuli_target_diamondrectangles.svg	31	yes	calibrationButton	0	2320	0	0			0	0			1				0	
6.6.1	win	2023-06-28	10:55:22	11:08:27	779251	60ef047e8969715a3db7181a	4	1	headphonecheck_testphase	15	test_collectResponse	3	stimuli_distractor_diamondtriangles.svg	stimuli_target_diamondrectangles.svg	31	yes	third	1	725	1	2	antiphase_hc_ios.wav	3	0	0			1				0	
6.6.1	win	2023-06-28	10:55:22	11:08:27	779251	60ef047e8969715a3db7181a	4	1	headphonecheck_testphase	15	test_collectResponse	6	stimuli_distractor_diamondtriangles.svg	stimuli_target_diamondrectangles.svg	31	yes	first	1	120	2	4	antiphase_hc_sio.wav	1	0	0			1				0	
6.6.1	win	2023-06-28	10:55:22	11:08:27	779251	60ef047e8969715a3db7181a	4	1	headphonecheck_testphase	15	test_collectResponse	9	stimuli_distractor_diamondtriangles.svg	stimuli_target_diamondrectangles.svg	31	yes	third	1	1670	3	6	antiphase_hc_ois.wav	3	0	0			1				0	
6.6.1	win	2023-06-28	10:55:22	11:08:27	779251	60ef047e8969715a3db7181a	4	1	headphonecheck_testphase	15	test_collectResponse	12	stimuli_distractor_diamondtriangles.svg	stimuli_target_diamondrectangles.svg	31	yes	first	1	3032	4	3	antiphase_hc_soi.wav	1	0	0			1				0	
6.6.1	win	2023-06-28	10:55:22	11:08:27	779251	60ef047e8969715a3db7181a	4	1	headphonecheck_testphase	15	test_collectResponse	15	stimuli_distractor_diamondtriangles.svg	stimuli_target_diamondrectangles.svg	31	yes	second	1	190	5	1	antiphase_hc_iso.wav	2	0	0			1				0	
6.6.1	win	2023-06-28	10:55:22	11:08:27	779251	60ef047e8969715a3db7181a	4	1	headphonecheck_testphase	15	test_collectResponse	18	stimuli_distractor_diamondtriangles.svg	stimuli_target_diamondrectangles.svg	31	yes	second	1	136	6	5	antiphase_hc_osi.wav	2	0	0			1				0	
6.6.1	win	2023-06-28	10:55:22	11:08:27	779251	60ef047e8969715a3db7181a	4	1	stereocheck_calibration	17	stereocheck_calibrationIntro	1	stimuli_distractor_diamondtriangles.svg	stimuli_target_diamondrectangles.svg	31	yes	stereocheck_calibrationButton	0	1951	6	5	antiphase_hc_osi.wav	2	0	0			1				0	
6.6.1	win	2023-06-28	10:55:22	11:08:27	779251	60ef047e8969715a3db7181a	4	1	stereocheck_testphase	18	stereocheck_test_collectResponse	3	stimuli_distractor_diamondtriangles.svg	stimuli_target_diamondrectangles.svg	31	yes	stereocheck_right	1	278	6	5	antiphase_hc_osi.wav	2	1	4	noise_calib_stim_RIGHT.wav	2	1				0	
6.6.1	win	2023-06-28	10:55:22	11:08:27	779251	60ef047e8969715a3db7181a	4	1	stereocheck_testphase	18	stereocheck_test_collectResponse	6	stimuli_distractor_diamondtriangles.svg	stimuli_target_diamondrectangles.svg	31	yes	stereocheck_left	1	221	6	5	antiphase_hc_osi.wav	2	2	3	noise_calib_stim_LEFT.wav	1	1				0	
6.6.1	win	2023-06-28	10:55:22	11:08:27	779251	60ef047e8969715a3db7181a	4	1	stereocheck_testphase	18	stereocheck_test_collectResponse	9	stimuli_distractor_diamondtriangles.svg	stimuli_target_diamondrectangles.svg	31	yes	stereocheck_left	1	212	6	5	antiphase_hc_osi.wav	2	3	1	noise_calib_stim_LEFT.wav	1	1				0	
6.6.1	win	2023-06-28	10:55:22	11:08:27	779251	60ef047e8969715a3db7181a	4	1	stereocheck_testphase	18	stereocheck_test_collectResponse	12	stimuli_distractor_diamondtriangles.svg	stimuli_target_diamondrectangles.svg	31	yes	stereocheck_right	1	217	6	5	antiphase_hc_osi.wav	2	4	6	noise_calib_stim_RIGHT.wav	2	1				0	
6.6.1	win	2023-06-28	10:55:22	11:08:27	779251	60ef047e8969715a3db7181a	4	1	stereocheck_testphase	18	stereocheck_test_collectResponse	15	stimuli_distractor_diamondtriangles.svg	stimuli_target_diamondrectangles.svg	31	yes	stereocheck_left	1	122	6	5	antiphase_hc_osi.wav	2	5	2	noise_calib_stim_LEFT.wav	1	1				0	
6.6.1	win	2023-06-28	10:55:22	11:08:27	779251	60ef047e8969715a3db7181a	4	1	stereocheck_testphase	18	stereocheck_test_collectResponse	18	stimuli_distractor_diamondtriangles.svg	stimuli_target_diamondrectangles.svg	31	yes	stereocheck_left	0	2631	6	5	antiphase_hc_osi.wav	2	6	5	noise_calib_stim_RIGHT.wav	2	1				0	
6.6.1	win	2023-06-28	10:55:22	11:08:27	779251	60ef047e8969715a3db7181a	4	1	DL_practice	21	DL_practice	2	stimuli_distractor_diamondtriangles.svg	stimuli_target_diamondrectangles.svg	31	yes	da	1	1137	6	5	antiphase_hc_osi.wav	2	6	5	noise_calib_stim_RIGHT.wav	2	8	blb_dichoticlistening_da-da.mp3	da	da	0	left
6.6.1	win	2023-06-28	10:55:22	11:08:27	779251	60ef047e8969715a3db7181a	4	1	DL_practice	21	DL_practice	3	stimuli_distractor_diamondtriangles.svg	stimuli_target_diamondrectangles.svg	31	yes	pa	1	1254	6	5	antiphase_hc_osi.wav	2	6	5	noise_calib_stim_RIGHT.wav	2	29	blb_dichoticlistening_pa-pa.mp3	pa	pa	0	left
6.6.1	win	2023-06-28	10:55:22	11:08:27	779251	60ef047e8969715a3db7181a	4	1	DL_practice	21	DL_practice	4	stimuli_distractor_diamondtriangles.svg	stimuli_target_diamondrectangles.svg	31	yes	ta	1	1245	6	5	antiphase_hc_osi.wav	2	6	5	noise_calib_stim_RIGHT.wav	2	18	blb_dichoticlistening_ga-ta.mp3	ga	ta	1	right
6.6.1	win	2023-06-28	10:55:22	11:08:27	779251	60ef047e8969715a3db7181a	4	1	DL_practice	21	DL_practice	5	stimuli_distractor_diamondtriangles.svg	stimuli_target_diamondrectangles.svg	31	yes	pa	1	1019	6	5	antiphase_hc_osi.wav	2	6	5	noise_calib_stim_RIGHT.wav	2	23	blb_dichoticlistening_ka-pa.mp3	ka	pa	1	right
6.6.1	win	2023-06-28	10:55:22	11:08:27	779251	60ef047e8969715a3db7181a	4	1	DL_practice	21	DL_practice	6	stimuli_distractor_diamondtriangles.svg	stimuli_target_diamondrectangles.svg	31	yes	ta	1	1031	6	5	antiphase_hc_osi.wav	2	6	5	noise_calib_stim_RIGHT.wav	2	36	blb_dichoticlistening_ta-ta.mp3	ta	ta	0	left
6.6.1	win	2023-06-28	10:55:22	11:08:27	779251	60ef047e8969715a3db7181a	4	1	DL_practice	21	DL_practice	7	stimuli_distractor_diamondtriangles.svg	stimuli_target_diamondrectangles.svg	31	yes	da	1	1270	6	5	antiphase_hc_osi.wav	2	6	5	noise_calib_stim_RIGHT.wav	2	7	blb_dichoticlistening_da-ba.mp3	da	ba	1	left
6.6.1	win	2023-06-28	10:55:22	11:08:27	779251	60ef047e8969715a3db7181a	4	1	DL_practice	21	DL_practice	8	stimuli_distractor_diamondtriangles.svg	stimuli_target_diamondrectangles.svg	31	yes	ga	1	1076	6	5	antiphase_hc_osi.wav	2	6	5	noise_calib_stim_RIGHT.wav	2	15	blb_dichoticlistening_ga-ga.mp3	ga	ga	0	left
6.6.1	win	2023-06-28	10:55:22	11:08:27	779251	60ef047e8969715a3db7181a	4	1	DL_practice	21	DL_practice	9	stimuli_distractor_diamondtriangles.svg	stimuli_target_diamondrectangles.svg	31	yes	ka	1	1192	6	5	antiphase_hc_osi.wav	2	6	5	noise_calib_stim_RIGHT.wav	2	22	blb_dichoticlistening_ka-ka.mp3	ka	ka	0	left
6.6.1	win	2023-06-28	10:55:22	11:08:27	779251	60ef047e8969715a3db7181a	4	1	DL_practice	21	DL_practice	10	stimuli_distractor_diamondtriangles.svg	stimuli_target_diamondrectangles.svg	31	yes	ba	1	943	6	5	antiphase_hc_osi.wav	2	6	5	noise_calib_stim_RIGHT.wav	2	1	blb_dichoticlistening_ba-ba.mp3	ba	ba	0	left
6.6.1	win	2023-06-28	10:55:22	11:08:27	779251	60ef047e8969715a3db7181a	4	1	DL_test	23	DL_test	1	stimuli_distractor_diamondtriangles.svg	stimuli_target_diamondrectangles.svg	31	yes	ba	1	928	6	5	antiphase_hc_osi.wav	2	6	5	noise_calib_stim_RIGHT.wav	2	13	blb_dichoticlistening_ga-ba.mp3	ga	ba	1	right
6.6.1	win	2023-06-28	10:55:22	11:08:27	779251	60ef047e8969715a3db7181a	4	1	DL_test	23	DL_test	2	stimuli_distractor_diamondtriangles.svg	stimuli_target_diamondrectangles.svg	31	yes	ga	1	814	6	5	antiphase_hc_osi.wav	2	6	5	noise_calib_stim_RIGHT.wav	2	15	blb_dichoticlistening_ga-ga.mp3	ga	ga	0	left
6.6.1	win	2023-06-28	10:55:22	11:08:27	779251	60ef047e8969715a3db7181a	4	1	DL_test	23	DL_test	3	stimuli_distractor_diamondtriangles.svg	stimuli_target_diamondrectangles.svg	31	yes	ka	1	960	6	5	antiphase_hc_osi.wav	2	6	5	noise_calib_stim_RIGHT.wav	2	22	blb_dichoticlistening_ka-ka.mp3	ka	ka	0	left
6.6.1	win	2023-06-28	10:55:22	11:08:27	779251	60ef047e8969715a3db7181a	4	1	DL_test	23	DL_test	4	stimuli_distractor_diamondtriangles.svg	stimuli_target_diamondrectangles.svg	31	yes	pa	1	642	6	5	antiphase_hc_osi.wav	2	6	5	noise_calib_stim_RIGHT.wav	2	28	blb_dichoticlistening_pa-ka.mp3	pa	ka	1	left
6.6.1	win	2023-06-28	10:55:22	11:08:27	779251	60ef047e8969715a3db7181a	4	1	DL_test	23	DL_test	5	stimuli_distractor_diamondtriangles.svg	stimuli_target_diamondrectangles.svg	31	yes	da	1	1072	6	5	antiphase_hc_osi.wav	2	6	5	noise_calib_stim_RIGHT.wav	2	2	blb_dichoticlistening_ba-da.mp3	ba	da	1	right
6.6.1	win	2023-06-28	10:55:22	11:08:27	779251	60ef047e8969715a3db7181a	4	1	DL_test	23	DL_test	6	stimuli_distractor_diamondtriangles.svg	stimuli_target_diamondrectangles.svg	31	yes	ta	1	861	6	5	antiphase_hc_osi.wav	2	6	5	noise_calib_stim_RIGHT.wav	2	24	blb_dichoticlistening_ka-ta.mp3	ka	ta	1	right
6.6.1	win	2023-06-28	10:55:22	11:08:27	779251	60ef047e8969715a3db7181a	4	1	DL_test	23	DL_test	7	stimuli_distractor_diamondtriangles.svg	stimuli_target_diamondrectangles.svg	31	yes	pa	0	805	6	5	antiphase_hc_osi.wav	2	6	5	noise_calib_stim_RIGHT.wav	2	6	blb_dichoticlistening_ba-ta.mp3	ba	ta	1	other
6.6.1	win	2023-06-28	10:55:22	11:08:27	779251	60ef047e8969715a3db7181a	4	1	DL_test	23	DL_test	8	stimuli_distractor_diamondtriangles.svg	stimuli_target_diamondrectangles.svg	31	yes	pa	1	911	6	5	antiphase_hc_osi.wav	2	6	5	noise_calib_stim_RIGHT.wav	2	23	blb_dichoticlistening_ka-pa.mp3	ka	pa	1	right
6.6.1	win	2023-06-28	10:55:22	11:08:27	779251	60ef047e8969715a3db7181a	4	1	DL_test	23	DL_test	9	stimuli_distractor_diamondtriangles.svg	stimuli_target_diamondrectangles.svg	31	yes	ka	1	678	6	5	antiphase_hc_osi.wav	2	6	5	noise_calib_stim_RIGHT.wav	2	16	blb_dichoticlistening_ga-ka.mp3	ga	ka	1	right
6.6.1	win	2023-06-28	10:55:22	11:08:27	779251	60ef047e8969715a3db7181a	4	1	DL_test	23	DL_test	10	stimuli_distractor_diamondtriangles.svg	stimuli_target_diamondrectangles.svg	31	yes	ba	1	1257	6	5	antiphase_hc_osi.wav	2	6	5	noise_calib_stim_RIGHT.wav	2	7	blb_dichoticlistening_da-ba.mp3	da	ba	1	right
6.6.1	win	2023-06-28	10:55:22	11:08:27	779251	60ef047e8969715a3db7181a	4	1	DL_test	23	DL_test	11	stimuli_distractor_diamondtriangles.svg	stimuli_target_diamondrectangles.svg	31	yes	ka	1	734	6	5	antiphase_hc_osi.wav	2	6	5	noise_calib_stim_RIGHT.wav	2	34	blb_dichoticlistening_ta-ka.mp3	ta	ka	1	right
6.6.1	win	2023-06-28	10:55:22	11:08:27	779251	60ef047e8969715a3db7181a	4	1	DL_test	23	DL_test	12	stimuli_distractor_diamondtriangles.svg	stimuli_target_diamondrectangles.svg	31	yes	pa	1	876	6	5	antiphase_hc_osi.wav	2	6	5	noise_calib_stim_RIGHT.wav	2	25	blb_dichoticlistening_pa-ba.mp3	pa	ba	1	left
6.6.1	win	2023-06-28	10:55:22	11:08:27	779251	60ef047e8969715a3db7181a	4	1	DL_test	23	DL_test	13	stimuli_distractor_diamondtriangles.svg	stimuli_target_diamondrectangles.svg	31	yes	ta	1	1469	6	5	antiphase_hc_osi.wav	2	6	5	noise_calib_stim_RIGHT.wav	2	31	blb_dichoticlistening_ta-ba.mp3	ta	ba	1	left
6.6.1	win	2023-06-28	10:55:22	11:08:27	779251	60ef047e8969715a3db7181a	4	1	DL_test	23	DL_test	14	stimuli_distractor_diamondtriangles.svg	stimuli_target_diamondrectangles.svg	31	yes	ka	0	1684	6	5	antiphase_hc_osi.wav	2	6	5	noise_calib_stim_RIGHT.wav	2	33	blb_dichoticlistening_ta-ga.mp3	ta	ga	1	other
6.6.1	win	2023-06-28	10:55:22	11:08:27	779251	60ef047e8969715a3db7181a	4	1	DL_test	23	DL_test	15	stimuli_distractor_diamondtriangles.svg	stimuli_target_diamondrectangles.svg	31	yes	ka	1	949	6	5	antiphase_hc_osi.wav	2	6	5	noise_calib_stim_RIGHT.wav	2	19	blb_dichoticlistening_ka-ba.mp3	ka	ba	1	left
6.6.1	win	2023-06-28	10:55:22	11:08:27	779251	60ef047e8969715a3db7181a	4	1	DL_test	23	DL_test	16	stimuli_distractor_diamondtriangles.svg	stimuli_target_diamondrectangles.svg	31	yes	ka	1	712	6	5	antiphase_hc_osi.wav	2	6	5	noise_calib_stim_RIGHT.wav	2	20	blb_dichoticlistening_ka-da.mp3	ka	da	1	left
6.6.1	win	2023-06-28	10:55:22	11:08:27	779251	60ef047e8969715a3db7181a	4	1	DL_test	23	DL_test	17	stimuli_distractor_diamondtriangles.svg	stimuli_target_diamondrectangles.svg	31	yes	pa	1	744	6	5	antiphase_hc_osi.wav	2	6	5	noise_calib_stim_RIGHT.wav	2	26	blb_dichoticlistening_pa-da.mp3	pa	da	1	left
6.6.1	win	2023-06-28	10:55:22	11:08:27	779251	60ef047e8969715a3db7181a	4	1	DL_test	23	DL_test	18	stimuli_distractor_diamondtriangles.svg	stimuli_target_diamondrectangles.svg	31	yes	ta	1	944	6	5	antiphase_hc_osi.wav	2	6	5	noise_calib_stim_RIGHT.wav	2	32	blb_dichoticlistening_ta-da.mp3	ta	da	1	left
6.6.1	win	2023-06-28	10:55:22	11:08:27	779251	60ef047e8969715a3db7181a	4	1	DL_test	23	DL_test	19	stimuli_distractor_diamondtriangles.svg	stimuli_target_diamondrectangles.svg	31	yes	pa	1	676	6	5	antiphase_hc_osi.wav	2	6	5	noise_calib_stim_RIGHT.wav	2	11	blb_dichoticlistening_da-pa.mp3	da	pa	1	right
6.6.1	win	2023-06-28	10:55:22	11:08:27	779251	60ef047e8969715a3db7181a	4	1	DL_test	23	DL_test	20	stimuli_distractor_diamondtriangles.svg	stimuli_target_diamondrectangles.svg	31	yes	ta	1	611	6	5	antiphase_hc_osi.wav	2	6	5	noise_calib_stim_RIGHT.wav	2	12	blb_dichoticlistening_da-ta.mp3	da	ta	1	right
6.6.1	win	2023-06-28	10:55:22	11:08:27	779251	60ef047e8969715a3db7181a	4	1	DL_test	23	DL_test	21	stimuli_distractor_diamondtriangles.svg	stimuli_target_diamondrectangles.svg	31	yes	ta	1	922	6	5	antiphase_hc_osi.wav	2	6	5	noise_calib_stim_RIGHT.wav	2	36	blb_dichoticlistening_ta-ta.mp3	ta	ta	0	left
6.6.1	win	2023-06-28	10:55:22	11:08:27	779251	60ef047e8969715a3db7181a	4	1	DL_test	23	DL_test	22	stimuli_distractor_diamondtriangles.svg	stimuli_target_diamondrectangles.svg	31	yes	pa	1	546	6	5	antiphase_hc_osi.wav	2	6	5	noise_calib_stim_RIGHT.wav	2	5	blb_dichoticlistening_ba-pa.mp3	ba	pa	1	right
6.6.1	win	2023-06-28	10:55:22	11:08:27	779251	60ef047e8969715a3db7181a	4	1	DL_test	23	DL_test	23	stimuli_distractor_diamondtriangles.svg	stimuli_target_diamondrectangles.svg	31	yes	da	1	1243	6	5	antiphase_hc_osi.wav	2	6	5	noise_calib_stim_RIGHT.wav	2	9	blb_dichoticlistening_da-ga.mp3	da	ga	1	left
6.6.1	win	2023-06-28	10:55:22	11:08:27	779251	60ef047e8969715a3db7181a	4	1	DL_test	23	DL_test	24	stimuli_distractor_diamondtriangles.svg	stimuli_target_diamondrectangles.svg	31	yes	pa	1	1022	6	5	antiphase_hc_osi.wav	2	6	5	noise_calib_stim_RIGHT.wav	2	29	blb_dichoticlistening_pa-pa.mp3	pa	pa	0	left
6.6.1	win	2023-06-28	10:55:22	11:08:27	779251	60ef047e8969715a3db7181a	4	1	DL_test	23	DL_test	25	stimuli_distractor_diamondtriangles.svg	stimuli_target_diamondrectangles.svg	31	yes	ka	1	637	6	5	antiphase_hc_osi.wav	2	6	5	noise_calib_stim_RIGHT.wav	2	21	blb_dichoticlistening_ka-ga.mp3	ka	ga	1	left
6.6.1	win	2023-06-28	10:55:22	11:08:27	779251	60ef047e8969715a3db7181a	4	1	DL_test	23	DL_test	26	stimuli_distractor_diamondtriangles.svg	stimuli_target_diamondrectangles.svg	31	yes	da	0	1083	6	5	antiphase_hc_osi.wav	2	6	5	noise_calib_stim_RIGHT.wav	2	1	blb_dichoticlistening_ba-ba.mp3	ba	ba	0	other
