build	computer.platform	date	time	timestamp	time_elapsed_ms	subject	group	session	blockcode	blocknum	trialcode	trialnum	stimulus_left	stimulus_right	stim_index	target_present	response	correct	latency	headphonecheck_countTestTrials	headphonecheck_index	headphonecheck_testSound	headphonecheck_correctResponse	stereocheck_countTestTrials	stereocheck_index	stereocheck_testSound	stereocheck_correctResponse	DL_index	DL_soundfile	DL_leftSound	DL_rightSound	DL_dualSound	DL_choice
6.6.1	win	2023-07-09	10:26:11	0	0	61530d04a2176282b7ee6fac	2	1	headphonecheck_calibration	4	headphonecheck_calibrationIntro	1			0		calibrationButton	0	2199	0	0			0	0			1				0	
6.6.1	win	2023-07-09	10:26:11	0	0	61530d04a2176282b7ee6fac	2	1	headphonecheck_testphase	5	test_collectResponse	3			0		third	1	1589	1	6	antiphase_hc_ois.wav	3	0	0			1				0	
6.6.1	win	2023-07-09	10:26:11	0	0	61530d04a2176282b7ee6fac	2	1	headphonecheck_testphase	5	test_collectResponse	6			0		first	1	650	2	3	antiphase_hc_soi.wav	1	0	0			1				0	
6.6.1	win	2023-07-09	10:26:11	0	0	61530d04a2176282b7ee6fac	2	1	headphonecheck_testphase	5	test_collectResponse	9			0		first	1	135	3	4	antiphase_hc_sio.wav	1	0	0			1				0	
6.6.1	win	2023-07-09	10:26:11	0	0	61530d04a2176282b7ee6fac	2	1	headphonecheck_testphase	5	test_collectResponse	12			0		third	1	321	4	2	antiphase_hc_ios.wav	3	0	0			1				0	
6.6.1	win	2023-07-09	10:26:11	0	0	61530d04a2176282b7ee6fac	2	1	headphonecheck_testphase	5	test_collectResponse	15			0		second	1	1849	5	5	antiphase_hc_osi.wav	2	0	0			1				0	
6.6.1	win	2023-07-09	10:26:11	0	0	61530d04a2176282b7ee6fac	2	1	headphonecheck_testphase	5	test_collectResponse	18			0		second	1	3517	6	1	antiphase_hc_iso.wav	2	0	0			1				0	
6.6.1	win	2023-07-09	10:26:11	0	0	61530d04a2176282b7ee6fac	2	1	stereocheck_calibration	7	stereocheck_calibrationIntro	1			0		stereocheck_calibrationButton	0	3604	6	1	antiphase_hc_iso.wav	2	0	0			1				0	
6.6.1	win	2023-07-09	10:26:11	0	0	61530d04a2176282b7ee6fac	2	1	stereocheck_testphase	8	stereocheck_test_collectResponse	3			0		stereocheck_right	1	3614	6	1	antiphase_hc_iso.wav	2	1	5	noise_calib_stim_RIGHT.wav	2	1				0	
6.6.1	win	2023-07-09	10:26:11	0	0	61530d04a2176282b7ee6fac	2	1	stereocheck_testphase	8	stereocheck_test_collectResponse	6			0		stereocheck_right	1	468	6	1	antiphase_hc_iso.wav	2	2	6	noise_calib_stim_RIGHT.wav	2	1				0	
6.6.1	win	2023-07-09	10:26:11	0	0	61530d04a2176282b7ee6fac	2	1	stereocheck_testphase	8	stereocheck_test_collectResponse	9			0		stereocheck_left	1	548	6	1	antiphase_hc_iso.wav	2	3	3	noise_calib_stim_LEFT.wav	1	1				0	
6.6.1	win	2023-07-09	10:26:11	0	0	61530d04a2176282b7ee6fac	2	1	stereocheck_testphase	8	stereocheck_test_collectResponse	12			0		stereocheck_left	1	1001	6	1	antiphase_hc_iso.wav	2	4	1	noise_calib_stim_LEFT.wav	1	1				0	
6.6.1	win	2023-07-09	10:26:11	0	0	61530d04a2176282b7ee6fac	2	1	stereocheck_testphase	8	stereocheck_test_collectResponse	15			0		stereocheck_left	1	236	6	1	antiphase_hc_iso.wav	2	5	2	noise_calib_stim_LEFT.wav	1	1				0	
6.6.1	win	2023-07-09	10:26:11	0	0	61530d04a2176282b7ee6fac	2	1	stereocheck_testphase	8	stereocheck_test_collectResponse	18			0		stereocheck_right	1	277	6	1	antiphase_hc_iso.wav	2	6	4	noise_calib_stim_RIGHT.wav	2	1				0	
6.6.1	win	2023-07-09	10:26:11	0	0	61530d04a2176282b7ee6fac	2	1	DL_practice	11	DL_practice	2			0		pa	1	1570	6	1	antiphase_hc_iso.wav	2	6	4	noise_calib_stim_RIGHT.wav	2	29	blb_dichoticlistening_pa-pa.mp3	pa	pa	0	left
6.6.1	win	2023-07-09	10:26:11	0	0	61530d04a2176282b7ee6fac	2	1	DL_practice	11	DL_practice	3			0		ka	1	1633	6	1	antiphase_hc_iso.wav	2	6	4	noise_calib_stim_RIGHT.wav	2	22	blb_dichoticlistening_ka-ka.mp3	ka	ka	0	left
6.6.1	win	2023-07-09	10:26:11	0	0	61530d04a2176282b7ee6fac	2	1	DL_practice	11	DL_practice	4			0		ka	0	604	6	1	antiphase_hc_iso.wav	2	6	4	noise_calib_stim_RIGHT.wav	2	8	blb_dichoticlistening_da-da.mp3	da	da	0	other
6.6.1	win	2023-07-09	10:26:11	0	0	61530d04a2176282b7ee6fac	2	1	DL_practice	11	DL_practice	5			0		da	0	78	6	1	antiphase_hc_iso.wav	2	6	4	noise_calib_stim_RIGHT.wav	2	36	blb_dichoticlistening_ta-ta.mp3	ta	ta	0	other
6.6.1	win	2023-07-09	10:26:11	0	0	61530d04a2176282b7ee6fac	2	1	DL_practice	11	DL_practice	6			0		ta	0	700	6	1	antiphase_hc_iso.wav	2	6	4	noise_calib_stim_RIGHT.wav	2	1	blb_dichoticlistening_ba-ba.mp3	ba	ba	0	other
6.6.1	win	2023-07-09	10:26:11	0	0	61530d04a2176282b7ee6fac	2	1	DL_practice	11	DL_practice	7			0		ta	1	3090	6	1	antiphase_hc_iso.wav	2	6	4	noise_calib_stim_RIGHT.wav	2	18	blb_dichoticlistening_ga-ta.mp3	ga	ta	1	right
6.6.1	win	2023-07-09	10:26:11	0	0	61530d04a2176282b7ee6fac	2	1	DL_practice	11	DL_practice	8			0		ba	1	1322	6	1	antiphase_hc_iso.wav	2	6	4	noise_calib_stim_RIGHT.wav	2	7	blb_dichoticlistening_da-ba.mp3	da	ba	1	right
6.6.1	win	2023-07-09	10:26:11	0	0	61530d04a2176282b7ee6fac	2	1	DL_practice	11	DL_practice	9			0		ga	1	956	6	1	antiphase_hc_iso.wav	2	6	4	noise_calib_stim_RIGHT.wav	2	15	blb_dichoticlistening_ga-ga.mp3	ga	ga	0	left
6.6.1	win	2023-07-09	10:26:11	0	0	61530d04a2176282b7ee6fac	2	1	DL_practice	11	DL_practice	10			0		ka	1	1992	6	1	antiphase_hc_iso.wav	2	6	4	noise_calib_stim_RIGHT.wav	2	23	blb_dichoticlistening_ka-pa.mp3	ka	pa	1	left
6.6.1	win	2023-07-09	10:26:11	0	0	61530d04a2176282b7ee6fac	2	1	DL_test	13	DL_test	1			0		ta	1	1682	6	1	antiphase_hc_iso.wav	2	6	4	noise_calib_stim_RIGHT.wav	2	30	blb_dichoticlistening_pa-ta.mp3	pa	ta	1	right
6.6.1	win	2023-07-09	10:26:11	0	0	61530d04a2176282b7ee6fac	2	1	DL_test	13	DL_test	2			0		da	1	934	6	1	antiphase_hc_iso.wav	2	6	4	noise_calib_stim_RIGHT.wav	2	14	blb_dichoticlistening_ga-da.mp3	ga	da	1	right
6.6.1	win	2023-07-09	10:26:11	0	0	61530d04a2176282b7ee6fac	2	1	DL_test	13	DL_test	3			0		pa	1	1393	6	1	antiphase_hc_iso.wav	2	6	4	noise_calib_stim_RIGHT.wav	2	27	blb_dichoticlistening_pa-ga.mp3	pa	ga	1	left
6.6.1	win	2023-07-09	10:26:11	0	0	61530d04a2176282b7ee6fac	2	1	DL_test	13	DL_test	4			0		ka	1	1023	6	1	antiphase_hc_iso.wav	2	6	4	noise_calib_stim_RIGHT.wav	2	21	blb_dichoticlistening_ka-ga.mp3	ka	ga	1	left
6.6.1	win	2023-07-09	10:26:11	0	0	61530d04a2176282b7ee6fac	2	1	DL_test	13	DL_test	5			0		pa	1	1472	6	1	antiphase_hc_iso.wav	2	6	4	noise_calib_stim_RIGHT.wav	2	5	blb_dichoticlistening_ba-pa.mp3	ba	pa	1	right
6.6.1	win	2023-07-09	10:26:11	0	0	61530d04a2176282b7ee6fac	2	1	DL_test	13	DL_test	6			0		ta	1	1712	6	1	antiphase_hc_iso.wav	2	6	4	noise_calib_stim_RIGHT.wav	2	31	blb_dichoticlistening_ta-ba.mp3	ta	ba	1	left
6.6.1	win	2023-07-09	10:26:11	0	0	61530d04a2176282b7ee6fac	2	1	DL_test	13	DL_test	7			0		pa	1	2148	6	1	antiphase_hc_iso.wav	2	6	4	noise_calib_stim_RIGHT.wav	2	35	blb_dichoticlistening_ta-pa.mp3	ta	pa	1	right
6.6.1	win	2023-07-09	10:26:11	0	0	61530d04a2176282b7ee6fac	2	1	DL_test	13	DL_test	8			0		ta	1	1293	6	1	antiphase_hc_iso.wav	2	6	4	noise_calib_stim_RIGHT.wav	2	36	blb_dichoticlistening_ta-ta.mp3	ta	ta	0	left
6.6.1	win	2023-07-09	10:26:11	0	0	61530d04a2176282b7ee6fac	2	1	DL_test	13	DL_test	9			0		da	1	1118	6	1	antiphase_hc_iso.wav	2	6	4	noise_calib_stim_RIGHT.wav	2	2	blb_dichoticlistening_ba-da.mp3	ba	da	1	right
6.6.1	win	2023-07-09	10:26:11	0	0	61530d04a2176282b7ee6fac	2	1	DL_test	13	DL_test	10			0		ka	1	1458	6	1	antiphase_hc_iso.wav	2	6	4	noise_calib_stim_RIGHT.wav	2	34	blb_dichoticlistening_ta-ka.mp3	ta	ka	1	right
6.6.1	win	2023-07-09	10:26:11	0	0	61530d04a2176282b7ee6fac	2	1	DL_test	13	DL_test	11			0		da	0	1607	6	1	antiphase_hc_iso.wav	2	6	4	noise_calib_stim_RIGHT.wav	2	3	blb_dichoticlistening_ba-ga.mp3	ba	ga	1	other
6.6.1	win	2023-07-09	10:26:11	0	0	61530d04a2176282b7ee6fac	2	1	DL_test	13	DL_test	12			0		pa	1	1207	6	1	antiphase_hc_iso.wav	2	6	4	noise_calib_stim_RIGHT.wav	2	17	blb_dichoticlistening_ga-pa.mp3	ga	pa	1	right
6.6.1	win	2023-07-09	10:26:11	0	0	61530d04a2176282b7ee6fac	2	1	DL_test	13	DL_test	13			0		da	1	1323	6	1	antiphase_hc_iso.wav	2	6	4	noise_calib_stim_RIGHT.wav	2	10	blb_dichoticlistening_da-ka.mp3	da	ka	1	left
6.6.1	win	2023-07-09	10:26:11	0	0	61530d04a2176282b7ee6fac	2	1	DL_test	13	DL_test	14			0		ba	1	1672	6	1	antiphase_hc_iso.wav	2	6	4	noise_calib_stim_RIGHT.wav	2	13	blb_dichoticlistening_ga-ba.mp3	ga	ba	1	right
6.6.1	win	2023-07-09	10:26:11	0	0	61530d04a2176282b7ee6fac	2	1	DL_test	13	DL_test	15			0		ta	1	1550	6	1	antiphase_hc_iso.wav	2	6	4	noise_calib_stim_RIGHT.wav	2	33	blb_dichoticlistening_ta-ga.mp3	ta	ga	1	left
6.6.1	win	2023-07-09	10:26:11	0	0	61530d04a2176282b7ee6fac	2	1	DL_test	13	DL_test	16			0		da	1	1346	6	1	antiphase_hc_iso.wav	2	6	4	noise_calib_stim_RIGHT.wav	2	9	blb_dichoticlistening_da-ga.mp3	da	ga	1	left
6.6.1	win	2023-07-09	10:26:11	0	0	61530d04a2176282b7ee6fac	2	1	DL_test	13	DL_test	17			0		ta	1	1226	6	1	antiphase_hc_iso.wav	2	6	4	noise_calib_stim_RIGHT.wav	2	32	blb_dichoticlistening_ta-da.mp3	ta	da	1	left
6.6.1	win	2023-07-09	10:26:11	0	0	61530d04a2176282b7ee6fac	2	1	DL_test	13	DL_test	18			0		ka	1	1436	6	1	antiphase_hc_iso.wav	2	6	4	noise_calib_stim_RIGHT.wav	2	19	blb_dichoticlistening_ka-ba.mp3	ka	ba	1	left
6.6.1	win	2023-07-09	10:26:11	0	0	61530d04a2176282b7ee6fac	2	1	DL_test	13	DL_test	19			0		ba	1	1651	6	1	antiphase_hc_iso.wav	2	6	4	noise_calib_stim_RIGHT.wav	2	7	blb_dichoticlistening_da-ba.mp3	da	ba	1	right
6.6.1	win	2023-07-09	10:26:11	0	0	61530d04a2176282b7ee6fac	2	1	DL_test	13	DL_test	20			0		ka	1	1719	6	1	antiphase_hc_iso.wav	2	6	4	noise_calib_stim_RIGHT.wav	2	20	blb_dichoticlistening_ka-da.mp3	ka	da	1	left
6.6.1	win	2023-07-09	10:26:11	0	0	61530d04a2176282b7ee6fac	2	1	DL_test	13	DL_test	21			0		ta	1	1253	6	1	antiphase_hc_iso.wav	2	6	4	noise_calib_stim_RIGHT.wav	2	24	blb_dichoticlistening_ka-ta.mp3	ka	ta	1	right
6.6.1	win	2023-07-09	10:26:11	0	0	61530d04a2176282b7ee6fac	2	1	DL_test	13	DL_test	22			0		ta	1	1441	6	1	antiphase_hc_iso.wav	2	6	4	noise_calib_stim_RIGHT.wav	2	6	blb_dichoticlistening_ba-ta.mp3	ba	ta	1	right
6.6.1	win	2023-07-09	10:26:11	0	0	61530d04a2176282b7ee6fac	2	1	DL_test	13	DL_test	23			0		ka	1	1541	6	1	antiphase_hc_iso.wav	2	6	4	noise_calib_stim_RIGHT.wav	2	23	blb_dichoticlistening_ka-pa.mp3	ka	pa	1	left
6.6.1	win	2023-07-09	10:26:11	0	0	61530d04a2176282b7ee6fac	2	1	DL_test	13	DL_test	24			0		pa	1	1241	6	1	antiphase_hc_iso.wav	2	6	4	noise_calib_stim_RIGHT.wav	2	26	blb_dichoticlistening_pa-da.mp3	pa	da	1	left
6.6.1	win	2023-07-09	10:26:11	0	0	61530d04a2176282b7ee6fac	2	1	DL_test	13	DL_test	25			0		da	1	1107	6	1	antiphase_hc_iso.wav	2	6	4	noise_calib_stim_RIGHT.wav	2	11	blb_dichoticlistening_da-pa.mp3	da	pa	1	left
6.6.1	win	2023-07-09	10:26:11	0	0	61530d04a2176282b7ee6fac	2	1	DL_test	13	DL_test	26			0		pa	1	863	6	1	antiphase_hc_iso.wav	2	6	4	noise_calib_stim_RIGHT.wav	2	29	blb_dichoticlistening_pa-pa.mp3	pa	pa	0	left
6.6.1	win	2023-07-09	10:26:11	0	0	61530d04a2176282b7ee6fac	2	1	DL_test	13	DL_test	27			0		ka	1	1161	6	1	antiphase_hc_iso.wav	2	6	4	noise_calib_stim_RIGHT.wav	2	28	blb_dichoticlistening_pa-ka.mp3	pa	ka	1	right
6.6.1	win	2023-07-09	10:26:11	0	0	61530d04a2176282b7ee6fac	2	1	DL_test	13	DL_test	28			0		ka	1	1025	6	1	antiphase_hc_iso.wav	2	6	4	noise_calib_stim_RIGHT.wav	2	16	blb_dichoticlistening_ga-ka.mp3	ga	ka	1	right
6.6.1	win	2023-07-09	10:26:11	0	0	61530d04a2176282b7ee6fac	2	1	DL_test	13	DL_test	29			0		da	0	1376	6	1	antiphase_hc_iso.wav	2	6	4	noise_calib_stim_RIGHT.wav	2	18	blb_dichoticlistening_ga-ta.mp3	ga	ta	1	other
6.6.1	win	2023-07-09	10:26:11	0	0	61530d04a2176282b7ee6fac	2	1	DL_test	13	DL_test	30			0		da	1	1068	6	1	antiphase_hc_iso.wav	2	6	4	noise_calib_stim_RIGHT.wav	2	8	blb_dichoticlistening_da-da.mp3	da	da	0	left
6.6.1	win	2023-07-09	10:26:11	0	0	61530d04a2176282b7ee6fac	2	1	DL_test	13	DL_test	31			0		pa	1	1289	6	1	antiphase_hc_iso.wav	2	6	4	noise_calib_stim_RIGHT.wav	2	25	blb_dichoticlistening_pa-ba.mp3	pa	ba	1	left
6.6.1	win	2023-07-09	10:26:11	0	0	61530d04a2176282b7ee6fac	2	1	DL_test	13	DL_test	32			0		pa	0	474	6	1	antiphase_hc_iso.wav	2	6	4	noise_calib_stim_RIGHT.wav	2	22	blb_dichoticlistening_ka-ka.mp3	ka	ka	0	other
6.6.1	win	2023-07-09	10:26:11	0	0	61530d04a2176282b7ee6fac	2	1	DL_test	13	DL_test	33			0		ka	0	638	6	1	antiphase_hc_iso.wav	2	6	4	noise_calib_stim_RIGHT.wav	2	12	blb_dichoticlistening_da-ta.mp3	da	ta	1	other
6.6.1	win	2023-07-09	10:26:11	0	0	61530d04a2176282b7ee6fac	2	1	DL_test	13	DL_test	34			0		da	0	131	6	1	antiphase_hc_iso.wav	2	6	4	noise_calib_stim_RIGHT.wav	2	15	blb_dichoticlistening_ga-ga.mp3	ga	ga	0	other
6.6.1	win	2023-07-09	10:26:11	0	0	61530d04a2176282b7ee6fac	2	1	DL_test	13	DL_test	35			0		ka	1	1036	6	1	antiphase_hc_iso.wav	2	6	4	noise_calib_stim_RIGHT.wav	2	4	blb_dichoticlistening_ba-ka.mp3	ba	ka	1	right
6.6.1	win	2023-07-09	10:26:11	0	0	61530d04a2176282b7ee6fac	2	1	DL_test	13	DL_test	36			0		ba	1	985	6	1	antiphase_hc_iso.wav	2	6	4	noise_calib_stim_RIGHT.wav	2	1	blb_dichoticlistening_ba-ba.mp3	ba	ba	0	left
6.6.1	win	2023-07-09	10:26:11	0	0	61530d04a2176282b7ee6fac	2	1	DL_test	14	DL_test	1			0		pa	0	927	6	1	antiphase_hc_iso.wav	2	6	4	noise_calib_stim_RIGHT.wav	2	10	blb_dichoticlistening_da-ka.mp3	da	ka	1	other
6.6.1	win	2023-07-09	10:26:11	0	0	61530d04a2176282b7ee6fac	2	1	DL_test	14	DL_test	2			0		da	0	1079	6	1	antiphase_hc_iso.wav	2	6	4	noise_calib_stim_RIGHT.wav	2	3	blb_dichoticlistening_ba-ga.mp3	ba	ga	1	other
6.6.1	win	2023-07-09	10:26:11	0	0	61530d04a2176282b7ee6fac	2	1	DL_test	14	DL_test	3			0		da	0	1582	6	1	antiphase_hc_iso.wav	2	6	4	noise_calib_stim_RIGHT.wav	2	18	blb_dichoticlistening_ga-ta.mp3	ga	ta	1	other
6.6.1	win	2023-07-09	10:26:11	0	0	61530d04a2176282b7ee6fac	2	1	DL_test	14	DL_test	4			0		pa	1	1325	6	1	antiphase_hc_iso.wav	2	6	4	noise_calib_stim_RIGHT.wav	2	35	blb_dichoticlistening_ta-pa.mp3	ta	pa	1	right
6.6.1	win	2023-07-09	10:26:11	0	0	61530d04a2176282b7ee6fac	2	1	DL_test	14	DL_test	5			0		ba	1	1705	6	1	antiphase_hc_iso.wav	2	6	4	noise_calib_stim_RIGHT.wav	2	6	blb_dichoticlistening_ba-ta.mp3	ba	ta	1	left
6.6.1	win	2023-07-09	10:26:11	0	0	61530d04a2176282b7ee6fac	2	1	DL_test	14	DL_test	6			0		ta	1	2571	6	1	antiphase_hc_iso.wav	2	6	4	noise_calib_stim_RIGHT.wav	2	30	blb_dichoticlistening_pa-ta.mp3	pa	ta	1	right
6.6.1	win	2023-07-09	10:26:11	0	0	61530d04a2176282b7ee6fac	2	1	DL_test	14	DL_test	7			0		pa	1	1956	6	1	antiphase_hc_iso.wav	2	6	4	noise_calib_stim_RIGHT.wav	2	28	blb_dichoticlistening_pa-ka.mp3	pa	ka	1	left
6.6.1	win	2023-07-09	10:26:11	0	0	61530d04a2176282b7ee6fac	2	1	DL_test	14	DL_test	8			0		da	1	1053	6	1	antiphase_hc_iso.wav	2	6	4	noise_calib_stim_RIGHT.wav	2	8	blb_dichoticlistening_da-da.mp3	da	da	0	left
6.6.1	win	2023-07-09	10:26:11	0	0	61530d04a2176282b7ee6fac	2	1	DL_test	14	DL_test	9			0		pa	1	1284	6	1	antiphase_hc_iso.wav	2	6	4	noise_calib_stim_RIGHT.wav	2	25	blb_dichoticlistening_pa-ba.mp3	pa	ba	1	left
6.6.1	win	2023-07-09	10:26:11	0	0	61530d04a2176282b7ee6fac	2	1	DL_test	14	DL_test	10			0		ba	0	1367	6	1	antiphase_hc_iso.wav	2	6	4	noise_calib_stim_RIGHT.wav	2	17	blb_dichoticlistening_ga-pa.mp3	ga	pa	1	other
6.6.1	win	2023-07-09	10:26:11	0	0	61530d04a2176282b7ee6fac	2	1	DL_test	14	DL_test	11			0		ba	1	1153	6	1	antiphase_hc_iso.wav	2	6	4	noise_calib_stim_RIGHT.wav	2	13	blb_dichoticlistening_ga-ba.mp3	ga	ba	1	right
6.6.1	win	2023-07-09	10:26:11	0	0	61530d04a2176282b7ee6fac	2	1	DL_test	14	DL_test	12			0		ga	1	936	6	1	antiphase_hc_iso.wav	2	6	4	noise_calib_stim_RIGHT.wav	2	15	blb_dichoticlistening_ga-ga.mp3	ga	ga	0	left
6.6.1	win	2023-07-09	10:26:11	0	0	61530d04a2176282b7ee6fac	2	1	DL_test	14	DL_test	13			0		pa	1	1463	6	1	antiphase_hc_iso.wav	2	6	4	noise_calib_stim_RIGHT.wav	2	23	blb_dichoticlistening_ka-pa.mp3	ka	pa	1	right
6.6.1	win	2023-07-09	10:26:11	0	0	61530d04a2176282b7ee6fac	2	1	DL_test	14	DL_test	14			0		ta	1	1657	6	1	antiphase_hc_iso.wav	2	6	4	noise_calib_stim_RIGHT.wav	2	36	blb_dichoticlistening_ta-ta.mp3	ta	ta	0	left
6.6.1	win	2023-07-09	10:26:11	0	0	61530d04a2176282b7ee6fac	2	1	DL_test	14	DL_test	15			0		ka	1	1027	6	1	antiphase_hc_iso.wav	2	6	4	noise_calib_stim_RIGHT.wav	2	20	blb_dichoticlistening_ka-da.mp3	ka	da	1	left
6.6.1	win	2023-07-09	10:26:11	0	0	61530d04a2176282b7ee6fac	2	1	DL_test	14	DL_test	16			0		ta	1	2296	6	1	antiphase_hc_iso.wav	2	6	4	noise_calib_stim_RIGHT.wav	2	34	blb_dichoticlistening_ta-ka.mp3	ta	ka	1	left
6.6.1	win	2023-07-09	10:26:11	0	0	61530d04a2176282b7ee6fac	2	1	DL_test	14	DL_test	17			0		ba	1	1244	6	1	antiphase_hc_iso.wav	2	6	4	noise_calib_stim_RIGHT.wav	2	7	blb_dichoticlistening_da-ba.mp3	da	ba	1	right
6.6.1	win	2023-07-09	10:26:11	0	0	61530d04a2176282b7ee6fac	2	1	DL_test	14	DL_test	18			0		ka	1	1041	6	1	antiphase_hc_iso.wav	2	6	4	noise_calib_stim_RIGHT.wav	2	19	blb_dichoticlistening_ka-ba.mp3	ka	ba	1	left
6.6.1	win	2023-07-09	10:26:11	0	0	61530d04a2176282b7ee6fac	2	1	DL_test	14	DL_test	19			0		ba	1	1891	6	1	antiphase_hc_iso.wav	2	6	4	noise_calib_stim_RIGHT.wav	2	4	blb_dichoticlistening_ba-ka.mp3	ba	ka	1	left
6.6.1	win	2023-07-09	10:26:11	0	0	61530d04a2176282b7ee6fac	2	1	DL_test	14	DL_test	20			0		pa	1	1333	6	1	antiphase_hc_iso.wav	2	6	4	noise_calib_stim_RIGHT.wav	2	27	blb_dichoticlistening_pa-ga.mp3	pa	ga	1	left
6.6.1	win	2023-07-09	10:26:11	0	0	61530d04a2176282b7ee6fac	2	1	DL_test	14	DL_test	21			0		da	1	1411	6	1	antiphase_hc_iso.wav	2	6	4	noise_calib_stim_RIGHT.wav	2	9	blb_dichoticlistening_da-ga.mp3	da	ga	1	left
6.6.1	win	2023-07-09	10:26:11	0	0	61530d04a2176282b7ee6fac	2	1	DL_test	14	DL_test	22			0		ta	1	1117	6	1	antiphase_hc_iso.wav	2	6	4	noise_calib_stim_RIGHT.wav	2	32	blb_dichoticlistening_ta-da.mp3	ta	da	1	left
6.6.1	win	2023-07-09	10:26:11	0	0	61530d04a2176282b7ee6fac	2	1	DL_test	14	DL_test	23			0		ba	1	1077	6	1	antiphase_hc_iso.wav	2	6	4	noise_calib_stim_RIGHT.wav	2	1	blb_dichoticlistening_ba-ba.mp3	ba	ba	0	left
6.6.1	win	2023-07-09	10:26:11	0	0	61530d04a2176282b7ee6fac	2	1	DL_test	14	DL_test	24			0		pa	1	1003	6	1	antiphase_hc_iso.wav	2	6	4	noise_calib_stim_RIGHT.wav	2	11	blb_dichoticlistening_da-pa.mp3	da	pa	1	right
6.6.1	win	2023-07-09	10:26:11	0	0	61530d04a2176282b7ee6fac	2	1	DL_test	14	DL_test	25			0		ka	1	992	6	1	antiphase_hc_iso.wav	2	6	4	noise_calib_stim_RIGHT.wav	2	22	blb_dichoticlistening_ka-ka.mp3	ka	ka	0	left
6.6.1	win	2023-07-09	10:26:11	0	0	61530d04a2176282b7ee6fac	2	1	DL_test	14	DL_test	26			0		ga	1	1435	6	1	antiphase_hc_iso.wav	2	6	4	noise_calib_stim_RIGHT.wav	2	16	blb_dichoticlistening_ga-ka.mp3	ga	ka	1	left
6.6.1	win	2023-07-09	10:26:11	0	0	61530d04a2176282b7ee6fac	2	1	DL_test	14	DL_test	27			0		ba	1	1445	6	1	antiphase_hc_iso.wav	2	6	4	noise_calib_stim_RIGHT.wav	2	2	blb_dichoticlistening_ba-da.mp3	ba	da	1	left
6.6.1	win	2023-07-09	10:26:11	0	0	61530d04a2176282b7ee6fac	2	1	DL_test	14	DL_test	28			0		ta	1	1906	6	1	antiphase_hc_iso.wav	2	6	4	noise_calib_stim_RIGHT.wav	2	33	blb_dichoticlistening_ta-ga.mp3	ta	ga	1	left
6.6.1	win	2023-07-09	10:26:11	0	0	61530d04a2176282b7ee6fac	2	1	DL_test	14	DL_test	29			0		pa	1	1412	6	1	antiphase_hc_iso.wav	2	6	4	noise_calib_stim_RIGHT.wav	2	26	blb_dichoticlistening_pa-da.mp3	pa	da	1	left
6.6.1	win	2023-07-09	10:26:11	0	0	61530d04a2176282b7ee6fac	2	1	DL_test	14	DL_test	30			0		pa	1	1533	6	1	antiphase_hc_iso.wav	2	6	4	noise_calib_stim_RIGHT.wav	2	5	blb_dichoticlistening_ba-pa.mp3	ba	pa	1	right
6.6.1	win	2023-07-09	10:26:11	0	0	61530d04a2176282b7ee6fac	2	1	DL_test	14	DL_test	31			0		ta	1	1837	6	1	antiphase_hc_iso.wav	2	6	4	noise_calib_stim_RIGHT.wav	2	24	blb_dichoticlistening_ka-ta.mp3	ka	ta	1	right
6.6.1	win	2023-07-09	10:26:11	0	0	61530d04a2176282b7ee6fac	2	1	DL_test	14	DL_test	32			0		da	1	1151	6	1	antiphase_hc_iso.wav	2	6	4	noise_calib_stim_RIGHT.wav	2	14	blb_dichoticlistening_ga-da.mp3	ga	da	1	right
6.6.1	win	2023-07-09	10:26:11	0	0	61530d04a2176282b7ee6fac	2	1	DL_test	14	DL_test	33			0		ta	1	2196	6	1	antiphase_hc_iso.wav	2	6	4	noise_calib_stim_RIGHT.wav	2	12	blb_dichoticlistening_da-ta.mp3	da	ta	1	right
6.6.1	win	2023-07-09	10:26:11	0	0	61530d04a2176282b7ee6fac	2	1	DL_test	14	DL_test	34			0		ka	0	2285	6	1	antiphase_hc_iso.wav	2	6	4	noise_calib_stim_RIGHT.wav	2	31	blb_dichoticlistening_ta-ba.mp3	ta	ba	1	other
6.6.1	win	2023-07-09	10:26:11	0	0	61530d04a2176282b7ee6fac	2	1	DL_test	14	DL_test	35			0		pa	1	1098	6	1	antiphase_hc_iso.wav	2	6	4	noise_calib_stim_RIGHT.wav	2	29	blb_dichoticlistening_pa-pa.mp3	pa	pa	0	left
6.6.1	win	2023-07-09	10:26:11	0	0	61530d04a2176282b7ee6fac	2	1	DL_test	14	DL_test	36			0		ga	1	893	6	1	antiphase_hc_iso.wav	2	6	4	noise_calib_stim_RIGHT.wav	2	21	blb_dichoticlistening_ka-ga.mp3	ka	ga	1	right
6.6.1	win	2023-07-09	10:26:11	0	0	61530d04a2176282b7ee6fac	2	1	DL_test	15	DL_test	1			0		ka	1	1187	6	1	antiphase_hc_iso.wav	2	6	4	noise_calib_stim_RIGHT.wav	2	20	blb_dichoticlistening_ka-da.mp3	ka	da	1	left
6.6.1	win	2023-07-09	10:26:11	0	0	61530d04a2176282b7ee6fac	2	1	DL_test	15	DL_test	2			0		ba	1	1632	6	1	antiphase_hc_iso.wav	2	6	4	noise_calib_stim_RIGHT.wav	2	19	blb_dichoticlistening_ka-ba.mp3	ka	ba	1	right
6.6.1	win	2023-07-09	10:26:11	0	0	61530d04a2176282b7ee6fac	2	1	DL_test	15	DL_test	3			0		ba	1	1249	6	1	antiphase_hc_iso.wav	2	6	4	noise_calib_stim_RIGHT.wav	2	2	blb_dichoticlistening_ba-da.mp3	ba	da	1	left
6.6.1	win	2023-07-09	10:26:11	0	0	61530d04a2176282b7ee6fac	2	1	DL_test	15	DL_test	4			0		ga	1	1018	6	1	antiphase_hc_iso.wav	2	6	4	noise_calib_stim_RIGHT.wav	2	15	blb_dichoticlistening_ga-ga.mp3	ga	ga	0	left
6.6.1	win	2023-07-09	10:26:11	0	0	61530d04a2176282b7ee6fac	2	1	DL_test	15	DL_test	5			0		ga	1	1216	6	1	antiphase_hc_iso.wav	2	6	4	noise_calib_stim_RIGHT.wav	2	9	blb_dichoticlistening_da-ga.mp3	da	ga	1	right
6.6.1	win	2023-07-09	10:26:11	0	0	61530d04a2176282b7ee6fac	2	1	DL_test	15	DL_test	6			0		ta	1	1282	6	1	antiphase_hc_iso.wav	2	6	4	noise_calib_stim_RIGHT.wav	2	36	blb_dichoticlistening_ta-ta.mp3	ta	ta	0	left
6.6.1	win	2023-07-09	10:26:11	0	0	61530d04a2176282b7ee6fac	2	1	DL_test	15	DL_test	7			0		ba	1	1427	6	1	antiphase_hc_iso.wav	2	6	4	noise_calib_stim_RIGHT.wav	2	13	blb_dichoticlistening_ga-ba.mp3	ga	ba	1	right
6.6.1	win	2023-07-09	10:26:11	0	0	61530d04a2176282b7ee6fac	2	1	DL_test	15	DL_test	8			0		pa	0	1263	6	1	antiphase_hc_iso.wav	2	6	4	noise_calib_stim_RIGHT.wav	2	10	blb_dichoticlistening_da-ka.mp3	da	ka	1	other
6.6.1	win	2023-07-09	10:26:11	0	0	61530d04a2176282b7ee6fac	2	1	DL_test	15	DL_test	9			0		ka	1	1009	6	1	antiphase_hc_iso.wav	2	6	4	noise_calib_stim_RIGHT.wav	2	21	blb_dichoticlistening_ka-ga.mp3	ka	ga	1	left
6.6.1	win	2023-07-09	10:26:11	0	0	61530d04a2176282b7ee6fac	2	1	DL_test	15	DL_test	10			0		pa	1	1425	6	1	antiphase_hc_iso.wav	2	6	4	noise_calib_stim_RIGHT.wav	2	25	blb_dichoticlistening_pa-ba.mp3	pa	ba	1	left
6.6.1	win	2023-07-09	10:26:11	0	0	61530d04a2176282b7ee6fac	2	1	DL_test	15	DL_test	11			0		ta	1	1387	6	1	antiphase_hc_iso.wav	2	6	4	noise_calib_stim_RIGHT.wav	2	31	blb_dichoticlistening_ta-ba.mp3	ta	ba	1	left
6.6.1	win	2023-07-09	10:26:11	0	0	61530d04a2176282b7ee6fac	2	1	DL_test	15	DL_test	12			0		ta	1	2029	6	1	antiphase_hc_iso.wav	2	6	4	noise_calib_stim_RIGHT.wav	2	33	blb_dichoticlistening_ta-ga.mp3	ta	ga	1	left
6.6.1	win	2023-07-09	10:26:11	0	0	61530d04a2176282b7ee6fac	2	1	DL_test	15	DL_test	13			0		ba	1	1491	6	1	antiphase_hc_iso.wav	2	6	4	noise_calib_stim_RIGHT.wav	2	6	blb_dichoticlistening_ba-ta.mp3	ba	ta	1	left
6.6.1	win	2023-07-09	10:26:11	0	0	61530d04a2176282b7ee6fac	2	1	DL_test	15	DL_test	14			0		ka	1	996	6	1	antiphase_hc_iso.wav	2	6	4	noise_calib_stim_RIGHT.wav	2	28	blb_dichoticlistening_pa-ka.mp3	pa	ka	1	right
6.6.1	win	2023-07-09	10:26:11	0	0	61530d04a2176282b7ee6fac	2	1	DL_test	15	DL_test	15			0		ta	1	998	6	1	antiphase_hc_iso.wav	2	6	4	noise_calib_stim_RIGHT.wav	2	12	blb_dichoticlistening_da-ta.mp3	da	ta	1	right
6.6.1	win	2023-07-09	10:26:11	0	0	61530d04a2176282b7ee6fac	2	1	DL_test	15	DL_test	16			0		ka	1	1088	6	1	antiphase_hc_iso.wav	2	6	4	noise_calib_stim_RIGHT.wav	2	22	blb_dichoticlistening_ka-ka.mp3	ka	ka	0	left
6.6.1	win	2023-07-09	10:26:11	0	0	61530d04a2176282b7ee6fac	2	1	DL_test	15	DL_test	17			0		pa	1	1102	6	1	antiphase_hc_iso.wav	2	6	4	noise_calib_stim_RIGHT.wav	2	5	blb_dichoticlistening_ba-pa.mp3	ba	pa	1	right
6.6.1	win	2023-07-09	10:26:11	0	0	61530d04a2176282b7ee6fac	2	1	DL_test	15	DL_test	18			0		ta	1	1954	6	1	antiphase_hc_iso.wav	2	6	4	noise_calib_stim_RIGHT.wav	2	24	blb_dichoticlistening_ka-ta.mp3	ka	ta	1	right
6.6.1	win	2023-07-09	10:26:11	0	0	61530d04a2176282b7ee6fac	2	1	DL_test	15	DL_test	19			0		pa	1	1876	6	1	antiphase_hc_iso.wav	2	6	4	noise_calib_stim_RIGHT.wav	2	11	blb_dichoticlistening_da-pa.mp3	da	pa	1	right
6.6.1	win	2023-07-09	10:26:11	0	0	61530d04a2176282b7ee6fac	2	1	DL_test	15	DL_test	20			0		ba	1	1060	6	1	antiphase_hc_iso.wav	2	6	4	noise_calib_stim_RIGHT.wav	2	1	blb_dichoticlistening_ba-ba.mp3	ba	ba	0	left
6.6.1	win	2023-07-09	10:26:11	0	0	61530d04a2176282b7ee6fac	2	1	DL_test	15	DL_test	21			0		da	1	1843	6	1	antiphase_hc_iso.wav	2	6	4	noise_calib_stim_RIGHT.wav	2	32	blb_dichoticlistening_ta-da.mp3	ta	da	1	right
6.6.1	win	2023-07-09	10:26:11	0	0	61530d04a2176282b7ee6fac	2	1	DL_test	15	DL_test	22			0		pa	1	1687	6	1	antiphase_hc_iso.wav	2	6	4	noise_calib_stim_RIGHT.wav	2	23	blb_dichoticlistening_ka-pa.mp3	ka	pa	1	right
6.6.1	win	2023-07-09	10:26:11	0	0	61530d04a2176282b7ee6fac	2	1	DL_test	15	DL_test	23			0		ta	1	1090	6	1	antiphase_hc_iso.wav	2	6	4	noise_calib_stim_RIGHT.wav	2	18	blb_dichoticlistening_ga-ta.mp3	ga	ta	1	right
6.6.1	win	2023-07-09	10:26:11	0	0	61530d04a2176282b7ee6fac	2	1	DL_test	15	DL_test	24			0		pa	1	1439	6	1	antiphase_hc_iso.wav	2	6	4	noise_calib_stim_RIGHT.wav	2	26	blb_dichoticlistening_pa-da.mp3	pa	da	1	left
6.6.1	win	2023-07-09	10:26:11	0	0	61530d04a2176282b7ee6fac	2	1	DL_test	15	DL_test	25			0		ka	1	855	6	1	antiphase_hc_iso.wav	2	6	4	noise_calib_stim_RIGHT.wav	2	16	blb_dichoticlistening_ga-ka.mp3	ga	ka	1	right
6.6.1	win	2023-07-09	10:26:11	0	0	61530d04a2176282b7ee6fac	2	1	DL_test	15	DL_test	26			0		da	1	1064	6	1	antiphase_hc_iso.wav	2	6	4	noise_calib_stim_RIGHT.wav	2	14	blb_dichoticlistening_ga-da.mp3	ga	da	1	right
6.6.1	win	2023-07-09	10:26:11	0	0	61530d04a2176282b7ee6fac	2	1	DL_test	15	DL_test	27			0		ta	0	917	6	1	antiphase_hc_iso.wav	2	6	4	noise_calib_stim_RIGHT.wav	2	27	blb_dichoticlistening_pa-ga.mp3	pa	ga	1	other
6.6.1	win	2023-07-09	10:26:11	0	0	61530d04a2176282b7ee6fac	2	1	DL_test	15	DL_test	28			0		pa	1	720	6	1	antiphase_hc_iso.wav	2	6	4	noise_calib_stim_RIGHT.wav	2	29	blb_dichoticlistening_pa-pa.mp3	pa	pa	0	left
6.6.1	win	2023-07-09	10:26:11	0	0	61530d04a2176282b7ee6fac	2	1	DL_test	15	DL_test	29			0		ta	1	1739	6	1	antiphase_hc_iso.wav	2	6	4	noise_calib_stim_RIGHT.wav	2	35	blb_dichoticlistening_ta-pa.mp3	ta	pa	1	left
6.6.1	win	2023-07-09	10:26:11	0	0	61530d04a2176282b7ee6fac	2	1	DL_test	15	DL_test	30			0		da	1	1197	6	1	antiphase_hc_iso.wav	2	6	4	noise_calib_stim_RIGHT.wav	2	8	blb_dichoticlistening_da-da.mp3	da	da	0	left
6.6.1	win	2023-07-09	10:26:11	0	0	61530d04a2176282b7ee6fac	2	1	DL_test	15	DL_test	31			0		ba	1	1636	6	1	antiphase_hc_iso.wav	2	6	4	noise_calib_stim_RIGHT.wav	2	3	blb_dichoticlistening_ba-ga.mp3	ba	ga	1	left
6.6.1	win	2023-07-09	10:26:11	0	0	61530d04a2176282b7ee6fac	2	1	DL_test	15	DL_test	32			0		da	1	1951	6	1	antiphase_hc_iso.wav	2	6	4	noise_calib_stim_RIGHT.wav	2	7	blb_dichoticlistening_da-ba.mp3	da	ba	1	left
6.6.1	win	2023-07-09	10:26:11	0	0	61530d04a2176282b7ee6fac	2	1	DL_test	15	DL_test	33			0		pa	1	1010	6	1	antiphase_hc_iso.wav	2	6	4	noise_calib_stim_RIGHT.wav	2	17	blb_dichoticlistening_ga-pa.mp3	ga	pa	1	right
6.6.1	win	2023-07-09	10:26:11	0	0	61530d04a2176282b7ee6fac	2	1	DL_test	15	DL_test	34			0		ka	1	906	6	1	antiphase_hc_iso.wav	2	6	4	noise_calib_stim_RIGHT.wav	2	4	blb_dichoticlistening_ba-ka.mp3	ba	ka	1	right
6.6.1	win	2023-07-09	10:26:11	0	0	61530d04a2176282b7ee6fac	2	1	DL_test	15	DL_test	35			0		ta	1	1133	6	1	antiphase_hc_iso.wav	2	6	4	noise_calib_stim_RIGHT.wav	2	30	blb_dichoticlistening_pa-ta.mp3	pa	ta	1	right
6.6.1	win	2023-07-09	10:26:11	0	0	61530d04a2176282b7ee6fac	2	1	DL_test	15	DL_test	36			0		ta	1	2933	6	1	antiphase_hc_iso.wav	2	6	4	noise_calib_stim_RIGHT.wav	2	34	blb_dichoticlistening_ta-ka.mp3	ta	ka	1	left
6.6.1	win	2023-07-09	10:26:11	0	0	61530d04a2176282b7ee6fac	2	1	DL_test	16	DL_test	1			0		ba	1	1222	6	1	antiphase_hc_iso.wav	2	6	4	noise_calib_stim_RIGHT.wav	2	1	blb_dichoticlistening_ba-ba.mp3	ba	ba	0	left
6.6.1	win	2023-07-09	10:26:11	0	0	61530d04a2176282b7ee6fac	2	1	DL_test	16	DL_test	2			0		da	1	1635	6	1	antiphase_hc_iso.wav	2	6	4	noise_calib_stim_RIGHT.wav	2	14	blb_dichoticlistening_ga-da.mp3	ga	da	1	right
6.6.1	win	2023-07-09	10:26:11	0	0	61530d04a2176282b7ee6fac	2	1	DL_test	16	DL_test	3			0		pa	1	1048	6	1	antiphase_hc_iso.wav	2	6	4	noise_calib_stim_RIGHT.wav	2	27	blb_dichoticlistening_pa-ga.mp3	pa	ga	1	left
6.6.1	win	2023-07-09	10:26:11	0	0	61530d04a2176282b7ee6fac	2	1	DL_test	16	DL_test	4			0		da	1	1649	6	1	antiphase_hc_iso.wav	2	6	4	noise_calib_stim_RIGHT.wav	2	10	blb_dichoticlistening_da-ka.mp3	da	ka	1	left
6.6.1	win	2023-07-09	10:26:11	0	0	61530d04a2176282b7ee6fac	2	1	DL_test	16	DL_test	5			0		ka	0	1404	6	1	antiphase_hc_iso.wav	2	6	4	noise_calib_stim_RIGHT.wav	2	31	blb_dichoticlistening_ta-ba.mp3	ta	ba	1	other
6.6.1	win	2023-07-09	10:26:11	0	0	61530d04a2176282b7ee6fac	2	1	DL_test	16	DL_test	6			0		pa	1	994	6	1	antiphase_hc_iso.wav	2	6	4	noise_calib_stim_RIGHT.wav	2	5	blb_dichoticlistening_ba-pa.mp3	ba	pa	1	right
6.6.1	win	2023-07-09	10:26:11	0	0	61530d04a2176282b7ee6fac	2	1	DL_test	16	DL_test	7			0		ba	1	1805	6	1	antiphase_hc_iso.wav	2	6	4	noise_calib_stim_RIGHT.wav	2	7	blb_dichoticlistening_da-ba.mp3	da	ba	1	right
6.6.1	win	2023-07-09	10:26:11	0	0	61530d04a2176282b7ee6fac	2	1	DL_test	16	DL_test	8			0		ta	1	1653	6	1	antiphase_hc_iso.wav	2	6	4	noise_calib_stim_RIGHT.wav	2	12	blb_dichoticlistening_da-ta.mp3	da	ta	1	right
6.6.1	win	2023-07-09	10:26:11	0	0	61530d04a2176282b7ee6fac	2	1	DL_test	16	DL_test	9			0		pa	1	1038	6	1	antiphase_hc_iso.wav	2	6	4	noise_calib_stim_RIGHT.wav	2	29	blb_dichoticlistening_pa-pa.mp3	pa	pa	0	left
6.6.1	win	2023-07-09	10:26:11	0	0	61530d04a2176282b7ee6fac	2	1	DL_test	16	DL_test	10			0		ka	1	1026	6	1	antiphase_hc_iso.wav	2	6	4	noise_calib_stim_RIGHT.wav	2	22	blb_dichoticlistening_ka-ka.mp3	ka	ka	0	left
6.6.1	win	2023-07-09	10:26:11	0	0	61530d04a2176282b7ee6fac	2	1	DL_test	16	DL_test	11			0		ba	1	1605	6	1	antiphase_hc_iso.wav	2	6	4	noise_calib_stim_RIGHT.wav	2	6	blb_dichoticlistening_ba-ta.mp3	ba	ta	1	left
6.6.1	win	2023-07-09	10:26:11	0	0	61530d04a2176282b7ee6fac	2	1	DL_test	16	DL_test	12			0		ta	1	1381	6	1	antiphase_hc_iso.wav	2	6	4	noise_calib_stim_RIGHT.wav	2	18	blb_dichoticlistening_ga-ta.mp3	ga	ta	1	right
6.6.1	win	2023-07-09	10:26:11	0	0	61530d04a2176282b7ee6fac	2	1	DL_test	16	DL_test	13			0		pa	1	1384	6	1	antiphase_hc_iso.wav	2	6	4	noise_calib_stim_RIGHT.wav	2	26	blb_dichoticlistening_pa-da.mp3	pa	da	1	left
6.6.1	win	2023-07-09	10:26:11	0	0	61530d04a2176282b7ee6fac	2	1	DL_test	16	DL_test	14			0		da	1	1053	6	1	antiphase_hc_iso.wav	2	6	4	noise_calib_stim_RIGHT.wav	2	9	blb_dichoticlistening_da-ga.mp3	da	ga	1	left
6.6.1	win	2023-07-09	10:26:11	0	0	61530d04a2176282b7ee6fac	2	1	DL_test	16	DL_test	15			0		pa	1	1719	6	1	antiphase_hc_iso.wav	2	6	4	noise_calib_stim_RIGHT.wav	2	11	blb_dichoticlistening_da-pa.mp3	da	pa	1	right
6.6.1	win	2023-07-09	10:26:11	0	0	61530d04a2176282b7ee6fac	2	1	DL_test	16	DL_test	16			0		ka	1	877	6	1	antiphase_hc_iso.wav	2	6	4	noise_calib_stim_RIGHT.wav	2	24	blb_dichoticlistening_ka-ta.mp3	ka	ta	1	left
6.6.1	win	2023-07-09	10:26:11	0	0	61530d04a2176282b7ee6fac	2	1	DL_test	16	DL_test	17			0		ba	1	2313	6	1	antiphase_hc_iso.wav	2	6	4	noise_calib_stim_RIGHT.wav	2	4	blb_dichoticlistening_ba-ka.mp3	ba	ka	1	left
6.6.1	win	2023-07-09	10:26:11	0	0	61530d04a2176282b7ee6fac	2	1	DL_test	16	DL_test	18			0		da	0	1433	6	1	antiphase_hc_iso.wav	2	6	4	noise_calib_stim_RIGHT.wav	2	3	blb_dichoticlistening_ba-ga.mp3	ba	ga	1	other
6.6.1	win	2023-07-09	10:26:11	0	0	61530d04a2176282b7ee6fac	2	1	DL_test	16	DL_test	19			0		ka	1	1119	6	1	antiphase_hc_iso.wav	2	6	4	noise_calib_stim_RIGHT.wav	2	21	blb_dichoticlistening_ka-ga.mp3	ka	ga	1	left
6.6.1	win	2023-07-09	10:26:11	0	0	61530d04a2176282b7ee6fac	2	1	DL_test	16	DL_test	20			0		pa	1	1019	6	1	antiphase_hc_iso.wav	2	6	4	noise_calib_stim_RIGHT.wav	2	17	blb_dichoticlistening_ga-pa.mp3	ga	pa	1	right
6.6.1	win	2023-07-09	10:26:11	0	0	61530d04a2176282b7ee6fac	2	1	DL_test	16	DL_test	21			0		ta	1	1050	6	1	antiphase_hc_iso.wav	2	6	4	noise_calib_stim_RIGHT.wav	2	30	blb_dichoticlistening_pa-ta.mp3	pa	ta	1	right
6.6.1	win	2023-07-09	10:26:11	0	0	61530d04a2176282b7ee6fac	2	1	DL_test	16	DL_test	22			0		ka	1	1097	6	1	antiphase_hc_iso.wav	2	6	4	noise_calib_stim_RIGHT.wav	2	16	blb_dichoticlistening_ga-ka.mp3	ga	ka	1	right
6.6.1	win	2023-07-09	10:26:11	0	0	61530d04a2176282b7ee6fac	2	1	DL_test	16	DL_test	23			0		pa	1	1292	6	1	antiphase_hc_iso.wav	2	6	4	noise_calib_stim_RIGHT.wav	2	23	blb_dichoticlistening_ka-pa.mp3	ka	pa	1	right
6.6.1	win	2023-07-09	10:26:11	0	0	61530d04a2176282b7ee6fac	2	1	DL_test	16	DL_test	24			0		ta	1	1538	6	1	antiphase_hc_iso.wav	2	6	4	noise_calib_stim_RIGHT.wav	2	32	blb_dichoticlistening_ta-da.mp3	ta	da	1	left
6.6.1	win	2023-07-09	10:26:11	0	0	61530d04a2176282b7ee6fac	2	1	DL_test	16	DL_test	25			0		ga	1	1007	6	1	antiphase_hc_iso.wav	2	6	4	noise_calib_stim_RIGHT.wav	2	15	blb_dichoticlistening_ga-ga.mp3	ga	ga	0	left
6.6.1	win	2023-07-09	10:26:11	0	0	61530d04a2176282b7ee6fac	2	1	DL_test	16	DL_test	26			0		pa	1	1252	6	1	antiphase_hc_iso.wav	2	6	4	noise_calib_stim_RIGHT.wav	2	35	blb_dichoticlistening_ta-pa.mp3	ta	pa	1	right
6.6.1	win	2023-07-09	10:26:11	0	0	61530d04a2176282b7ee6fac	2	1	DL_test	16	DL_test	27			0		ka	1	1331	6	1	antiphase_hc_iso.wav	2	6	4	noise_calib_stim_RIGHT.wav	2	19	blb_dichoticlistening_ka-ba.mp3	ka	ba	1	left
6.6.1	win	2023-07-09	10:26:11	0	0	61530d04a2176282b7ee6fac	2	1	DL_test	16	DL_test	28			0		ka	1	1395	6	1	antiphase_hc_iso.wav	2	6	4	noise_calib_stim_RIGHT.wav	2	20	blb_dichoticlistening_ka-da.mp3	ka	da	1	left
6.6.1	win	2023-07-09	10:26:11	0	0	61530d04a2176282b7ee6fac	2	1	DL_test	16	DL_test	29			0		ta	1	1148	6	1	antiphase_hc_iso.wav	2	6	4	noise_calib_stim_RIGHT.wav	2	36	blb_dichoticlistening_ta-ta.mp3	ta	ta	0	left
6.6.1	win	2023-07-09	10:26:11	0	0	61530d04a2176282b7ee6fac	2	1	DL_test	16	DL_test	30			0		ka	1	943	6	1	antiphase_hc_iso.wav	2	6	4	noise_calib_stim_RIGHT.wav	2	34	blb_dichoticlistening_ta-ka.mp3	ta	ka	1	right
6.6.1	win	2023-07-09	10:26:11	0	0	61530d04a2176282b7ee6fac	2	1	DL_test	16	DL_test	31			0		pa	1	1554	6	1	antiphase_hc_iso.wav	2	6	4	noise_calib_stim_RIGHT.wav	2	28	blb_dichoticlistening_pa-ka.mp3	pa	ka	1	left
6.6.1	win	2023-07-09	10:26:11	0	0	61530d04a2176282b7ee6fac	2	1	DL_test	16	DL_test	32			0		pa	1	2349	6	1	antiphase_hc_iso.wav	2	6	4	noise_calib_stim_RIGHT.wav	2	25	blb_dichoticlistening_pa-ba.mp3	pa	ba	1	left
6.6.1	win	2023-07-09	10:26:11	0	0	61530d04a2176282b7ee6fac	2	1	DL_test	16	DL_test	33			0		da	1	1117	6	1	antiphase_hc_iso.wav	2	6	4	noise_calib_stim_RIGHT.wav	2	2	blb_dichoticlistening_ba-da.mp3	ba	da	1	right
6.6.1	win	2023-07-09	10:26:11	0	0	61530d04a2176282b7ee6fac	2	1	DL_test	16	DL_test	34			0		ba	1	1322	6	1	antiphase_hc_iso.wav	2	6	4	noise_calib_stim_RIGHT.wav	2	13	blb_dichoticlistening_ga-ba.mp3	ga	ba	1	right
6.6.1	win	2023-07-09	10:26:11	0	0	61530d04a2176282b7ee6fac	2	1	DL_test	16	DL_test	35			0		da	0	1754	6	1	antiphase_hc_iso.wav	2	6	4	noise_calib_stim_RIGHT.wav	2	33	blb_dichoticlistening_ta-ga.mp3	ta	ga	1	other
6.6.1	win	2023-07-09	10:26:11	0	0	61530d04a2176282b7ee6fac	2	1	DL_test	16	DL_test	36			0		da	1	929	6	1	antiphase_hc_iso.wav	2	6	4	noise_calib_stim_RIGHT.wav	2	8	blb_dichoticlistening_da-da.mp3	da	da	0	left
6.6.1	win	2023-07-09	10:26:11	10:39:26	785161	61530d04a2176282b7ee6fac	2	1	practice_z	22	practice_z	1	stimuli_distractor_diamondtriangles.svg	stimuli_target_rectangletriangles.svg	7	yes	0	0	2000	6	1	antiphase_hc_iso.wav	2	6	4	noise_calib_stim_RIGHT.wav	2	8	blb_dichoticlistening_da-da.mp3	da	da	0	left
6.6.1	win	2023-07-09	10:26:11	10:39:26	785161	61530d04a2176282b7ee6fac	2	1	practice_z	22	advance_on_keypress_ZEE	2	stimuli_distractor_diamondtriangles.svg	stimuli_target_rectangletriangles.svg	7	yes	57	0	1011	6	1	antiphase_hc_iso.wav	2	6	4	noise_calib_stim_RIGHT.wav	2	8	blb_dichoticlistening_da-da.mp3	da	da	0	left
6.6.1	win	2023-07-09	10:26:11	10:39:30	789839	61530d04a2176282b7ee6fac	2	1	practice_z	22	practice_z	3	stimuli_distractor_trianglediamonds.svg	stimuli_distractor_trianglediamonds.svg	15	no	0	1	2000	6	1	antiphase_hc_iso.wav	2	6	4	noise_calib_stim_RIGHT.wav	2	8	blb_dichoticlistening_da-da.mp3	da	da	0	left
6.6.1	win	2023-07-09	10:26:11	10:39:30	789839	61530d04a2176282b7ee6fac	2	1	practice_z	22	advance_on_keypress_ZEE	4	stimuli_distractor_trianglediamonds.svg	stimuli_distractor_trianglediamonds.svg	15	no	57	0	1075	6	1	antiphase_hc_iso.wav	2	6	4	noise_calib_stim_RIGHT.wav	2	8	blb_dichoticlistening_da-da.mp3	da	da	0	left
6.6.1	win	2023-07-09	10:26:11	10:39:34	793061	61530d04a2176282b7ee6fac	2	1	practice_z	22	practice_z	5	stimuli_distractor_trianglediamonds.svg	stimuli_target_squarediamonds.svg	11	yes	44	1	494	6	1	antiphase_hc_iso.wav	2	6	4	noise_calib_stim_RIGHT.wav	2	8	blb_dichoticlistening_da-da.mp3	da	da	0	left
6.6.1	win	2023-07-09	10:26:11	10:39:34	793061	61530d04a2176282b7ee6fac	2	1	practice_z	22	advance_on_keypress_ZEE	6	stimuli_distractor_trianglediamonds.svg	stimuli_target_squarediamonds.svg	11	yes	57	0	639	6	1	antiphase_hc_iso.wav	2	6	4	noise_calib_stim_RIGHT.wav	2	8	blb_dichoticlistening_da-da.mp3	da	da	0	left
6.6.1	win	2023-07-09	10:26:11	10:39:36	795738	61530d04a2176282b7ee6fac	2	1	practice_z	22	practice_z	7	stimuli_distractor_trianglediamonds.svg	stimuli_target_rectanglediamonds.svg	10	yes	44	1	391	6	1	antiphase_hc_iso.wav	2	6	4	noise_calib_stim_RIGHT.wav	2	8	blb_dichoticlistening_da-da.mp3	da	da	0	left
6.6.1	win	2023-07-09	10:26:11	10:39:36	795738	61530d04a2176282b7ee6fac	2	1	practice_z	22	advance_on_keypress_ZEE	8	stimuli_distractor_trianglediamonds.svg	stimuli_target_rectanglediamonds.svg	10	yes	57	0	964	6	1	antiphase_hc_iso.wav	2	6	4	noise_calib_stim_RIGHT.wav	2	8	blb_dichoticlistening_da-da.mp3	da	da	0	left
6.6.1	win	2023-07-09	10:26:11	10:39:41	800360	61530d04a2176282b7ee6fac	2	1	practice_z	22	practice_z	9	stimuli_distractor_diamondtriangles.svg	stimuli_distractor_diamondtriangles.svg	13	no	0	1	2000	6	1	antiphase_hc_iso.wav	2	6	4	noise_calib_stim_RIGHT.wav	2	8	blb_dichoticlistening_da-da.mp3	da	da	0	left
6.6.1	win	2023-07-09	10:26:11	10:39:41	800360	61530d04a2176282b7ee6fac	2	1	practice_z	22	advance_on_keypress_ZEE	10	stimuli_distractor_diamondtriangles.svg	stimuli_distractor_diamondtriangles.svg	13	no	57	0	273	6	1	antiphase_hc_iso.wav	2	6	4	noise_calib_stim_RIGHT.wav	2	8	blb_dichoticlistening_da-da.mp3	da	da	0	left
6.6.1	win	2023-07-09	10:26:11	10:39:43	802858	61530d04a2176282b7ee6fac	2	1	practice_z	22	practice_z	11	stimuli_target_diamondsquares.svg	stimuli_distractor_trianglediamonds.svg	6	yes	44	1	568	6	1	antiphase_hc_iso.wav	2	6	4	noise_calib_stim_RIGHT.wav	2	8	blb_dichoticlistening_da-da.mp3	da	da	0	left
6.6.1	win	2023-07-09	10:26:11	10:39:43	802858	61530d04a2176282b7ee6fac	2	1	practice_z	22	advance_on_keypress_ZEE	12	stimuli_target_diamondsquares.svg	stimuli_distractor_trianglediamonds.svg	6	yes	57	0	774	6	1	antiphase_hc_iso.wav	2	6	4	noise_calib_stim_RIGHT.wav	2	8	blb_dichoticlistening_da-da.mp3	da	da	0	left
6.6.1	win	2023-07-09	10:26:11	10:39:46	805949	61530d04a2176282b7ee6fac	2	1	practice_z	22	practice_z	13	stimuli_target_diamondsquares.svg	stimuli_distractor_diamondtriangles.svg	3	yes	44	1	679	6	1	antiphase_hc_iso.wav	2	6	4	noise_calib_stim_RIGHT.wav	2	8	blb_dichoticlistening_da-da.mp3	da	da	0	left
6.6.1	win	2023-07-09	10:26:11	10:39:46	805949	61530d04a2176282b7ee6fac	2	1	practice_z	22	advance_on_keypress_ZEE	14	stimuli_target_diamondsquares.svg	stimuli_distractor_diamondtriangles.svg	3	yes	57	0	23	6	1	antiphase_hc_iso.wav	2	6	4	noise_calib_stim_RIGHT.wav	2	8	blb_dichoticlistening_da-da.mp3	da	da	0	left
6.6.1	win	2023-07-09	10:26:11	10:39:49	808269	61530d04a2176282b7ee6fac	2	1	practice_z	22	practice_z	15	stimuli_distractor_diamondtriangles.svg	stimuli_target_trianglerectangles.svg	9	yes	44	1	650	6	1	antiphase_hc_iso.wav	2	6	4	noise_calib_stim_RIGHT.wav	2	8	blb_dichoticlistening_da-da.mp3	da	da	0	left
6.6.1	win	2023-07-09	10:26:11	10:39:49	808269	61530d04a2176282b7ee6fac	2	1	practice_z	22	advance_on_keypress_ZEE	16	stimuli_distractor_diamondtriangles.svg	stimuli_target_trianglerectangles.svg	9	yes	57	0	91	6	1	antiphase_hc_iso.wav	2	6	4	noise_calib_stim_RIGHT.wav	2	8	blb_dichoticlistening_da-da.mp3	da	da	0	left
6.6.1	win	2023-07-09	10:26:11	10:39:51	810410	61530d04a2176282b7ee6fac	2	1	practice_z	22	practice_z	17	stimuli_target_squarediamonds.svg	stimuli_distractor_trianglediamonds.svg	5	yes	44	1	412	6	1	antiphase_hc_iso.wav	2	6	4	noise_calib_stim_RIGHT.wav	2	8	blb_dichoticlistening_da-da.mp3	da	da	0	left
6.6.1	win	2023-07-09	10:26:11	10:39:51	810410	61530d04a2176282b7ee6fac	2	1	practice_z	22	advance_on_keypress_ZEE	18	stimuli_target_squarediamonds.svg	stimuli_distractor_trianglediamonds.svg	5	yes	57	0	360	6	1	antiphase_hc_iso.wav	2	6	4	noise_calib_stim_RIGHT.wav	2	8	blb_dichoticlistening_da-da.mp3	da	da	0	left
6.6.1	win	2023-07-09	10:26:11	10:39:54	813253	61530d04a2176282b7ee6fac	2	1	practice_z	22	practice_z	19	stimuli_distractor_diamondtriangles.svg	stimuli_target_diamondrectangles.svg	8	yes	44	1	823	6	1	antiphase_hc_iso.wav	2	6	4	noise_calib_stim_RIGHT.wav	2	8	blb_dichoticlistening_da-da.mp3	da	da	0	left
6.6.1	win	2023-07-09	10:26:11	10:39:54	813253	61530d04a2176282b7ee6fac	2	1	practice_z	22	advance_on_keypress_ZEE	20	stimuli_distractor_diamondtriangles.svg	stimuli_target_diamondrectangles.svg	8	yes	57	0	360	6	1	antiphase_hc_iso.wav	2	6	4	noise_calib_stim_RIGHT.wav	2	8	blb_dichoticlistening_da-da.mp3	da	da	0	left
6.6.1	win	2023-07-09	10:26:11	10:39:56	815664	61530d04a2176282b7ee6fac	2	1	practice_z	22	practice_z	21	stimuli_target_rectanglediamonds.svg	stimuli_distractor_trianglediamonds.svg	4	yes	44	1	404	6	1	antiphase_hc_iso.wav	2	6	4	noise_calib_stim_RIGHT.wav	2	8	blb_dichoticlistening_da-da.mp3	da	da	0	left
6.6.1	win	2023-07-09	10:26:11	10:39:56	815664	61530d04a2176282b7ee6fac	2	1	practice_z	22	advance_on_keypress_ZEE	22	stimuli_target_rectanglediamonds.svg	stimuli_distractor_trianglediamonds.svg	4	yes	57	0	425	6	1	antiphase_hc_iso.wav	2	6	4	noise_calib_stim_RIGHT.wav	2	8	blb_dichoticlistening_da-da.mp3	da	da	0	left
6.6.1	win	2023-07-09	10:26:11	10:40:00	819725	61530d04a2176282b7ee6fac	2	1	practice_z	22	practice_z	23	stimuli_distractor_trianglediamonds.svg	stimuli_distractor_diamondtriangles.svg	16	no	0	1	2000	6	1	antiphase_hc_iso.wav	2	6	4	noise_calib_stim_RIGHT.wav	2	8	blb_dichoticlistening_da-da.mp3	da	da	0	left
6.6.1	win	2023-07-09	10:26:11	10:40:00	819725	61530d04a2176282b7ee6fac	2	1	practice_z	22	advance_on_keypress_ZEE	24	stimuli_distractor_trianglediamonds.svg	stimuli_distractor_diamondtriangles.svg	16	no	57	0	436	6	1	antiphase_hc_iso.wav	2	6	4	noise_calib_stim_RIGHT.wav	2	8	blb_dichoticlistening_da-da.mp3	da	da	0	left
6.6.1	win	2023-07-09	10:26:11	10:40:03	822389	61530d04a2176282b7ee6fac	2	1	practice_z	22	practice_z	25	stimuli_distractor_trianglediamonds.svg	stimuli_target_diamondrectangles.svg	12	yes	44	1	584	6	1	antiphase_hc_iso.wav	2	6	4	noise_calib_stim_RIGHT.wav	2	8	blb_dichoticlistening_da-da.mp3	da	da	0	left
6.6.1	win	2023-07-09	10:26:11	10:40:03	822389	61530d04a2176282b7ee6fac	2	1	practice_z	22	advance_on_keypress_ZEE	26	stimuli_distractor_trianglediamonds.svg	stimuli_target_diamondrectangles.svg	12	yes	57	0	340	6	1	antiphase_hc_iso.wav	2	6	4	noise_calib_stim_RIGHT.wav	2	8	blb_dichoticlistening_da-da.mp3	da	da	0	left
6.6.1	win	2023-07-09	10:26:11	10:40:05	824951	61530d04a2176282b7ee6fac	2	1	practice_z	22	practice_z	27	stimuli_target_rectanglediamonds.svg	stimuli_distractor_diamondtriangles.svg	1	yes	44	1	583	6	1	antiphase_hc_iso.wav	2	6	4	noise_calib_stim_RIGHT.wav	2	8	blb_dichoticlistening_da-da.mp3	da	da	0	left
6.6.1	win	2023-07-09	10:26:11	10:40:05	824951	61530d04a2176282b7ee6fac	2	1	practice_z	22	advance_on_keypress_ZEE	28	stimuli_target_rectanglediamonds.svg	stimuli_distractor_diamondtriangles.svg	1	yes	57	0	164	6	1	antiphase_hc_iso.wav	2	6	4	noise_calib_stim_RIGHT.wav	2	8	blb_dichoticlistening_da-da.mp3	da	da	0	left
6.6.1	win	2023-07-09	10:26:11	10:40:08	827328	61530d04a2176282b7ee6fac	2	1	practice_z	22	practice_z	29	stimuli_target_squarediamonds.svg	stimuli_distractor_diamondtriangles.svg	2	yes	44	1	561	6	1	antiphase_hc_iso.wav	2	6	4	noise_calib_stim_RIGHT.wav	2	8	blb_dichoticlistening_da-da.mp3	da	da	0	left
6.6.1	win	2023-07-09	10:26:11	10:40:08	827328	61530d04a2176282b7ee6fac	2	1	practice_z	22	advance_on_keypress_ZEE	30	stimuli_target_squarediamonds.svg	stimuli_distractor_diamondtriangles.svg	2	yes	57	0	23	6	1	antiphase_hc_iso.wav	2	6	4	noise_calib_stim_RIGHT.wav	2	8	blb_dichoticlistening_da-da.mp3	da	da	0	left
6.6.1	win	2023-07-09	10:26:11	10:40:12	830996	61530d04a2176282b7ee6fac	2	1	practice_z	22	practice_z	31	stimuli_distractor_diamondtriangles.svg	stimuli_distractor_trianglediamonds.svg	14	no	0	1	2000	6	1	antiphase_hc_iso.wav	2	6	4	noise_calib_stim_RIGHT.wav	2	8	blb_dichoticlistening_da-da.mp3	da	da	0	left
6.6.1	win	2023-07-09	10:26:11	10:40:12	830996	61530d04a2176282b7ee6fac	2	1	practice_z	22	advance_on_keypress_ZEE	32	stimuli_distractor_diamondtriangles.svg	stimuli_distractor_trianglediamonds.svg	14	no	57	0	402	6	1	antiphase_hc_iso.wav	2	6	4	noise_calib_stim_RIGHT.wav	2	8	blb_dichoticlistening_da-da.mp3	da	da	0	left
6.6.1	win	2023-07-09	10:26:11	10:40:16	835622	61530d04a2176282b7ee6fac	2	1	main_z	24	main_z	1	stimuli_distractor_trianglediamonds.svg	stimuli_target_trianglesquares.svg	26	yes	44	1	766	6	1	antiphase_hc_iso.wav	2	6	4	noise_calib_stim_RIGHT.wav	2	8	blb_dichoticlistening_da-da.mp3	da	da	0	left
6.6.1	win	2023-07-09	10:26:11	10:40:16	835622	61530d04a2176282b7ee6fac	2	1	main_z	24	advance_on_keypress_ZEE	2	stimuli_distractor_trianglediamonds.svg	stimuli_target_trianglesquares.svg	26	yes	57	0	1489	6	1	antiphase_hc_iso.wav	2	6	4	noise_calib_stim_RIGHT.wav	2	8	blb_dichoticlistening_da-da.mp3	da	da	0	left
6.6.1	win	2023-07-09	10:26:11	10:40:19	838266	61530d04a2176282b7ee6fac	2	1	main_z	24	main_z	3	stimuli_target_diamondrectangles.svg	stimuli_distractor_diamondtriangles.svg	23	yes	44	1	514	6	1	antiphase_hc_iso.wav	2	6	4	noise_calib_stim_RIGHT.wav	2	8	blb_dichoticlistening_da-da.mp3	da	da	0	left
6.6.1	win	2023-07-09	10:26:11	10:40:19	838266	61530d04a2176282b7ee6fac	2	1	main_z	24	advance_on_keypress_ZEE	4	stimuli_target_diamondrectangles.svg	stimuli_distractor_diamondtriangles.svg	23	yes	57	0	1166	6	1	antiphase_hc_iso.wav	2	6	4	noise_calib_stim_RIGHT.wav	2	8	blb_dichoticlistening_da-da.mp3	da	da	0	left
6.6.1	win	2023-07-09	10:26:11	10:40:21	840637	61530d04a2176282b7ee6fac	2	1	main_z	24	main_z	5	stimuli_target_diamondrectangles.svg	stimuli_distractor_trianglediamonds.svg	19	yes	44	1	554	6	1	antiphase_hc_iso.wav	2	6	4	noise_calib_stim_RIGHT.wav	2	8	blb_dichoticlistening_da-da.mp3	da	da	0	left
6.6.1	win	2023-07-09	10:26:11	10:40:21	840637	61530d04a2176282b7ee6fac	2	1	main_z	24	advance_on_keypress_ZEE	6	stimuli_target_diamondrectangles.svg	stimuli_distractor_trianglediamonds.svg	19	yes	57	0	1215	6	1	antiphase_hc_iso.wav	2	6	4	noise_calib_stim_RIGHT.wav	2	8	blb_dichoticlistening_da-da.mp3	da	da	0	left
6.6.1	win	2023-07-09	10:26:11	10:40:23	842927	61530d04a2176282b7ee6fac	2	1	main_z	24	main_z	7	stimuli_distractor_trianglediamonds.svg	stimuli_target_rectangletriangles.svg	9	yes	44	1	430	6	1	antiphase_hc_iso.wav	2	6	4	noise_calib_stim_RIGHT.wav	2	8	blb_dichoticlistening_da-da.mp3	da	da	0	left
6.6.1	win	2023-07-09	10:26:11	10:40:23	842927	61530d04a2176282b7ee6fac	2	1	main_z	24	advance_on_keypress_ZEE	8	stimuli_distractor_trianglediamonds.svg	stimuli_target_rectangletriangles.svg	9	yes	57	0	1197	6	1	antiphase_hc_iso.wav	2	6	4	noise_calib_stim_RIGHT.wav	2	8	blb_dichoticlistening_da-da.mp3	da	da	0	left
6.6.1	win	2023-07-09	10:26:11	10:40:27	846779	61530d04a2176282b7ee6fac	2	1	main_z	24	main_z	9	stimuli_distractor_trianglediamonds.svg	stimuli_distractor_diamondtriangles.svg	36	no	0	1	2000	6	1	antiphase_hc_iso.wav	2	6	4	noise_calib_stim_RIGHT.wav	2	8	blb_dichoticlistening_da-da.mp3	da	da	0	left
6.6.1	win	2023-07-09	10:26:11	10:40:27	846779	61530d04a2176282b7ee6fac	2	1	main_z	24	advance_on_keypress_ZEE	10	stimuli_distractor_trianglediamonds.svg	stimuli_distractor_diamondtriangles.svg	36	no	57	0	834	6	1	antiphase_hc_iso.wav	2	6	4	noise_calib_stim_RIGHT.wav	2	8	blb_dichoticlistening_da-da.mp3	da	da	0	left
6.6.1	win	2023-07-09	10:26:11	10:40:29	848859	61530d04a2176282b7ee6fac	2	1	main_z	24	main_z	11	stimuli_distractor_diamondtriangles.svg	stimuli_target_diamondrectangles.svg	31	yes	44	1	601	6	1	antiphase_hc_iso.wav	2	6	4	noise_calib_stim_RIGHT.wav	2	8	blb_dichoticlistening_da-da.mp3	da	da	0	left
6.6.1	win	2023-07-09	10:26:11	10:40:29	848859	61530d04a2176282b7ee6fac	2	1	main_z	24	advance_on_keypress_ZEE	12	stimuli_distractor_diamondtriangles.svg	stimuli_target_diamondrectangles.svg	31	yes	57	0	1131	6	1	antiphase_hc_iso.wav	2	6	4	noise_calib_stim_RIGHT.wav	2	8	blb_dichoticlistening_da-da.mp3	da	da	0	left
6.6.1	win	2023-07-09	10:26:11	10:40:32	851046	61530d04a2176282b7ee6fac	2	1	main_z	24	main_z	13	stimuli_target_rectangletriangles.svg	stimuli_distractor_trianglediamonds.svg	1	yes	44	1	407	6	1	antiphase_hc_iso.wav	2	6	4	noise_calib_stim_RIGHT.wav	2	8	blb_dichoticlistening_da-da.mp3	da	da	0	left
6.6.1	win	2023-07-09	10:26:11	10:40:32	851046	61530d04a2176282b7ee6fac	2	1	main_z	24	advance_on_keypress_ZEE	14	stimuli_target_rectangletriangles.svg	stimuli_distractor_trianglediamonds.svg	1	yes	57	0	1162	6	1	antiphase_hc_iso.wav	2	6	4	noise_calib_stim_RIGHT.wav	2	8	blb_dichoticlistening_da-da.mp3	da	da	0	left
6.6.1	win	2023-07-09	10:26:11	10:40:34	853235	61530d04a2176282b7ee6fac	2	1	main_z	24	main_z	15	stimuli_distractor_trianglediamonds.svg	stimuli_target_squarediamonds.svg	12	yes	44	1	369	6	1	antiphase_hc_iso.wav	2	6	4	noise_calib_stim_RIGHT.wav	2	8	blb_dichoticlistening_da-da.mp3	da	da	0	left
6.6.1	win	2023-07-09	10:26:11	10:40:34	853235	61530d04a2176282b7ee6fac	2	1	main_z	24	advance_on_keypress_ZEE	16	stimuli_distractor_trianglediamonds.svg	stimuli_target_squarediamonds.svg	12	yes	57	0	1002	6	1	antiphase_hc_iso.wav	2	6	4	noise_calib_stim_RIGHT.wav	2	8	blb_dichoticlistening_da-da.mp3	da	da	0	left
6.6.1	win	2023-07-09	10:26:11	10:40:36	855349	61530d04a2176282b7ee6fac	2	1	main_z	24	main_z	17	stimuli_target_rectangletriangles.svg	stimuli_distractor_diamondtriangles.svg	5	yes	44	1	463	6	1	antiphase_hc_iso.wav	2	6	4	noise_calib_stim_RIGHT.wav	2	8	blb_dichoticlistening_da-da.mp3	da	da	0	left
6.6.1	win	2023-07-09	10:26:11	10:40:36	855349	61530d04a2176282b7ee6fac	2	1	main_z	24	advance_on_keypress_ZEE	18	stimuli_target_rectangletriangles.svg	stimuli_distractor_diamondtriangles.svg	5	yes	57	0	1155	6	1	antiphase_hc_iso.wav	2	6	4	noise_calib_stim_RIGHT.wav	2	8	blb_dichoticlistening_da-da.mp3	da	da	0	left
6.6.1	win	2023-07-09	10:26:11	10:40:38	857689	61530d04a2176282b7ee6fac	2	1	main_z	24	main_z	19	stimuli_target_diamondsquares.svg	stimuli_distractor_diamondtriangles.svg	24	yes	44	1	537	6	1	antiphase_hc_iso.wav	2	6	4	noise_calib_stim_RIGHT.wav	2	8	blb_dichoticlistening_da-da.mp3	da	da	0	left
6.6.1	win	2023-07-09	10:26:11	10:40:38	857689	61530d04a2176282b7ee6fac	2	1	main_z	24	advance_on_keypress_ZEE	20	stimuli_target_diamondsquares.svg	stimuli_distractor_diamondtriangles.svg	24	yes	57	0	1107	6	1	antiphase_hc_iso.wav	2	6	4	noise_calib_stim_RIGHT.wav	2	8	blb_dichoticlistening_da-da.mp3	da	da	0	left
6.6.1	win	2023-07-09	10:26:11	10:40:40	859868	61530d04a2176282b7ee6fac	2	1	main_z	24	main_z	21	stimuli_distractor_diamondtriangles.svg	stimuli_target_squaretriangles.svg	15	yes	44	1	437	6	1	antiphase_hc_iso.wav	2	6	4	noise_calib_stim_RIGHT.wav	2	8	blb_dichoticlistening_da-da.mp3	da	da	0	left
6.6.1	win	2023-07-09	10:26:11	10:40:40	859868	61530d04a2176282b7ee6fac	2	1	main_z	24	advance_on_keypress_ZEE	22	stimuli_distractor_diamondtriangles.svg	stimuli_target_squaretriangles.svg	15	yes	57	0	1039	6	1	antiphase_hc_iso.wav	2	6	4	noise_calib_stim_RIGHT.wav	2	8	blb_dichoticlistening_da-da.mp3	da	da	0	left
6.6.1	win	2023-07-09	10:26:11	10:40:43	862104	61530d04a2176282b7ee6fac	2	1	main_z	24	main_z	23	stimuli_distractor_trianglediamonds.svg	stimuli_target_trianglerectangles.svg	25	yes	44	1	559	6	1	antiphase_hc_iso.wav	2	6	4	noise_calib_stim_RIGHT.wav	2	8	blb_dichoticlistening_da-da.mp3	da	da	0	left
6.6.1	win	2023-07-09	10:26:11	10:40:43	862104	61530d04a2176282b7ee6fac	2	1	main_z	24	advance_on_keypress_ZEE	24	stimuli_distractor_trianglediamonds.svg	stimuli_target_trianglerectangles.svg	25	yes	57	0	1051	6	1	antiphase_hc_iso.wav	2	6	4	noise_calib_stim_RIGHT.wav	2	8	blb_dichoticlistening_da-da.mp3	da	da	0	left
6.6.1	win	2023-07-09	10:26:11	10:40:45	864186	61530d04a2176282b7ee6fac	2	1	main_z	24	main_z	25	stimuli_target_squaretriangles.svg	stimuli_distractor_diamondtriangles.svg	7	yes	44	1	393	6	1	antiphase_hc_iso.wav	2	6	4	noise_calib_stim_RIGHT.wav	2	8	blb_dichoticlistening_da-da.mp3	da	da	0	left
6.6.1	win	2023-07-09	10:26:11	10:40:45	864186	61530d04a2176282b7ee6fac	2	1	main_z	24	advance_on_keypress_ZEE	26	stimuli_target_squaretriangles.svg	stimuli_distractor_diamondtriangles.svg	7	yes	57	0	1141	6	1	antiphase_hc_iso.wav	2	6	4	noise_calib_stim_RIGHT.wav	2	8	blb_dichoticlistening_da-da.mp3	da	da	0	left
6.6.1	win	2023-07-09	10:26:11	10:40:47	866398	61530d04a2176282b7ee6fac	2	1	main_z	24	main_z	27	stimuli_distractor_trianglediamonds.svg	stimuli_target_rectanglediamonds.svg	10	yes	44	1	424	6	1	antiphase_hc_iso.wav	2	6	4	noise_calib_stim_RIGHT.wav	2	8	blb_dichoticlistening_da-da.mp3	da	da	0	left
6.6.1	win	2023-07-09	10:26:11	10:40:47	866398	61530d04a2176282b7ee6fac	2	1	main_z	24	advance_on_keypress_ZEE	28	stimuli_distractor_trianglediamonds.svg	stimuli_target_rectanglediamonds.svg	10	yes	57	0	1079	6	1	antiphase_hc_iso.wav	2	6	4	noise_calib_stim_RIGHT.wav	2	8	blb_dichoticlistening_da-da.mp3	da	da	0	left
6.6.1	win	2023-07-09	10:26:11	10:40:51	870122	61530d04a2176282b7ee6fac	2	1	main_z	24	main_z	29	stimuli_distractor_trianglediamonds.svg	stimuli_distractor_diamondtriangles.svg	35	no	0	1	2000	6	1	antiphase_hc_iso.wav	2	6	4	noise_calib_stim_RIGHT.wav	2	8	blb_dichoticlistening_da-da.mp3	da	da	0	left
6.6.1	win	2023-07-09	10:26:11	10:40:51	870122	61530d04a2176282b7ee6fac	2	1	main_z	24	advance_on_keypress_ZEE	30	stimuli_distractor_trianglediamonds.svg	stimuli_distractor_diamondtriangles.svg	35	no	57	0	604	6	1	antiphase_hc_iso.wav	2	6	4	noise_calib_stim_RIGHT.wav	2	8	blb_dichoticlistening_da-da.mp3	da	da	0	left
6.6.1	win	2023-07-09	10:26:11	10:40:52	871750	61530d04a2176282b7ee6fac	2	1	main_z	24	main_z	31	stimuli_target_squarediamonds.svg	stimuli_distractor_trianglediamonds.svg	4	yes	44	1	376	6	1	antiphase_hc_iso.wav	2	6	4	noise_calib_stim_RIGHT.wav	2	8	blb_dichoticlistening_da-da.mp3	da	da	0	left
6.6.1	win	2023-07-09	10:26:11	10:40:52	871750	61530d04a2176282b7ee6fac	2	1	main_z	24	advance_on_keypress_ZEE	32	stimuli_target_squarediamonds.svg	stimuli_distractor_trianglediamonds.svg	4	yes	57	0	864	6	1	antiphase_hc_iso.wav	2	6	4	noise_calib_stim_RIGHT.wav	2	8	blb_dichoticlistening_da-da.mp3	da	da	0	left
6.6.1	win	2023-07-09	10:26:11	10:40:54	873823	61530d04a2176282b7ee6fac	2	1	main_z	24	main_z	33	stimuli_target_trianglerectangles.svg	stimuli_distractor_trianglediamonds.svg	17	yes	44	1	555	6	1	antiphase_hc_iso.wav	2	6	4	noise_calib_stim_RIGHT.wav	2	8	blb_dichoticlistening_da-da.mp3	da	da	0	left
6.6.1	win	2023-07-09	10:26:11	10:40:54	873823	61530d04a2176282b7ee6fac	2	1	main_z	24	advance_on_keypress_ZEE	34	stimuli_target_trianglerectangles.svg	stimuli_distractor_trianglediamonds.svg	17	yes	57	0	994	6	1	antiphase_hc_iso.wav	2	6	4	noise_calib_stim_RIGHT.wav	2	8	blb_dichoticlistening_da-da.mp3	da	da	0	left
6.6.1	win	2023-07-09	10:26:11	10:40:58	877448	61530d04a2176282b7ee6fac	2	1	main_z	24	main_z	35	stimuli_distractor_diamondtriangles.svg	stimuli_distractor_diamondtriangles.svg	39	no	0	1	2000	6	1	antiphase_hc_iso.wav	2	6	4	noise_calib_stim_RIGHT.wav	2	8	blb_dichoticlistening_da-da.mp3	da	da	0	left
6.6.1	win	2023-07-09	10:26:11	10:40:58	877448	61530d04a2176282b7ee6fac	2	1	main_z	24	advance_on_keypress_ZEE	36	stimuli_distractor_diamondtriangles.svg	stimuli_distractor_diamondtriangles.svg	39	no	57	0	532	6	1	antiphase_hc_iso.wav	2	6	4	noise_calib_stim_RIGHT.wav	2	8	blb_dichoticlistening_da-da.mp3	da	da	0	left
6.6.1	win	2023-07-09	10:26:11	10:41:00	879065	61530d04a2176282b7ee6fac	2	1	main_z	24	main_z	37	stimuli_distractor_diamondtriangles.svg	stimuli_target_squarediamonds.svg	16	yes	44	1	436	6	1	antiphase_hc_iso.wav	2	6	4	noise_calib_stim_RIGHT.wav	2	8	blb_dichoticlistening_da-da.mp3	da	da	0	left
6.6.1	win	2023-07-09	10:26:11	10:41:00	879065	61530d04a2176282b7ee6fac	2	1	main_z	24	advance_on_keypress_ZEE	38	stimuli_distractor_diamondtriangles.svg	stimuli_target_squarediamonds.svg	16	yes	57	0	790	6	1	antiphase_hc_iso.wav	2	6	4	noise_calib_stim_RIGHT.wav	2	8	blb_dichoticlistening_da-da.mp3	da	da	0	left
6.6.1	win	2023-07-09	10:26:11	10:41:01	880944	61530d04a2176282b7ee6fac	2	1	main_z	24	main_z	39	stimuli_target_diamondsquares.svg	stimuli_distractor_trianglediamonds.svg	20	yes	44	1	451	6	1	antiphase_hc_iso.wav	2	6	4	noise_calib_stim_RIGHT.wav	2	8	blb_dichoticlistening_da-da.mp3	da	da	0	left
6.6.1	win	2023-07-09	10:26:11	10:41:01	880944	61530d04a2176282b7ee6fac	2	1	main_z	24	advance_on_keypress_ZEE	40	stimuli_target_diamondsquares.svg	stimuli_distractor_trianglediamonds.svg	20	yes	57	0	848	6	1	antiphase_hc_iso.wav	2	6	4	noise_calib_stim_RIGHT.wav	2	8	blb_dichoticlistening_da-da.mp3	da	da	0	left
6.6.1	win	2023-07-09	10:26:11	10:41:03	882932	61530d04a2176282b7ee6fac	2	1	main_z	24	main_z	41	stimuli_distractor_diamondtriangles.svg	stimuli_target_trianglesquares.svg	30	yes	44	1	491	6	1	antiphase_hc_iso.wav	2	6	4	noise_calib_stim_RIGHT.wav	2	8	blb_dichoticlistening_da-da.mp3	da	da	0	left
6.6.1	win	2023-07-09	10:26:11	10:41:03	882932	61530d04a2176282b7ee6fac	2	1	main_z	24	advance_on_keypress_ZEE	42	stimuli_distractor_diamondtriangles.svg	stimuli_target_trianglesquares.svg	30	yes	57	0	860	6	1	antiphase_hc_iso.wav	2	6	4	noise_calib_stim_RIGHT.wav	2	8	blb_dichoticlistening_da-da.mp3	da	da	0	left
6.6.1	win	2023-07-09	10:26:11	10:41:05	884827	61530d04a2176282b7ee6fac	2	1	main_z	24	main_z	43	stimuli_target_trianglerectangles.svg	stimuli_distractor_diamondtriangles.svg	21	yes	44	1	404	6	1	antiphase_hc_iso.wav	2	6	4	noise_calib_stim_RIGHT.wav	2	8	blb_dichoticlistening_da-da.mp3	da	da	0	left
6.6.1	win	2023-07-09	10:26:11	10:41:05	884827	61530d04a2176282b7ee6fac	2	1	main_z	24	advance_on_keypress_ZEE	44	stimuli_target_trianglerectangles.svg	stimuli_distractor_diamondtriangles.svg	21	yes	57	0	722	6	1	antiphase_hc_iso.wav	2	6	4	noise_calib_stim_RIGHT.wav	2	8	blb_dichoticlistening_da-da.mp3	da	da	0	left
6.6.1	win	2023-07-09	10:26:11	10:41:09	888188	61530d04a2176282b7ee6fac	2	1	main_z	24	main_z	45	stimuli_distractor_trianglediamonds.svg	stimuli_distractor_trianglediamonds.svg	33	no	0	1	2000	6	1	antiphase_hc_iso.wav	2	6	4	noise_calib_stim_RIGHT.wav	2	8	blb_dichoticlistening_da-da.mp3	da	da	0	left
6.6.1	win	2023-07-09	10:26:11	10:41:09	888188	61530d04a2176282b7ee6fac	2	1	main_z	24	advance_on_keypress_ZEE	46	stimuli_distractor_trianglediamonds.svg	stimuli_distractor_trianglediamonds.svg	33	no	57	0	520	6	1	antiphase_hc_iso.wav	2	6	4	noise_calib_stim_RIGHT.wav	2	8	blb_dichoticlistening_da-da.mp3	da	da	0	left
6.6.1	win	2023-07-09	10:26:11	10:41:11	890044	61530d04a2176282b7ee6fac	2	1	main_z	24	main_z	47	stimuli_distractor_trianglediamonds.svg	stimuli_distractor_trianglediamonds.svg	34	no	44	0	692	6	1	antiphase_hc_iso.wav	2	6	4	noise_calib_stim_RIGHT.wav	2	8	blb_dichoticlistening_da-da.mp3	da	da	0	left
6.6.1	win	2023-07-09	10:26:11	10:41:11	890044	61530d04a2176282b7ee6fac	2	1	main_z	24	advance_on_keypress_ZEE	48	stimuli_distractor_trianglediamonds.svg	stimuli_distractor_trianglediamonds.svg	34	no	57	0	620	6	1	antiphase_hc_iso.wav	2	6	4	noise_calib_stim_RIGHT.wav	2	8	blb_dichoticlistening_da-da.mp3	da	da	0	left
6.6.1	win	2023-07-09	10:26:11	10:41:12	891666	61530d04a2176282b7ee6fac	2	1	main_z	24	main_z	49	stimuli_target_trianglesquares.svg	stimuli_distractor_diamondtriangles.svg	22	yes	44	1	366	6	1	antiphase_hc_iso.wav	2	6	4	noise_calib_stim_RIGHT.wav	2	8	blb_dichoticlistening_da-da.mp3	da	da	0	left
6.6.1	win	2023-07-09	10:26:11	10:41:12	891666	61530d04a2176282b7ee6fac	2	1	main_z	24	advance_on_keypress_ZEE	50	stimuli_target_trianglesquares.svg	stimuli_distractor_diamondtriangles.svg	22	yes	57	0	683	6	1	antiphase_hc_iso.wav	2	6	4	noise_calib_stim_RIGHT.wav	2	8	blb_dichoticlistening_da-da.mp3	da	da	0	left
6.6.1	win	2023-07-09	10:26:11	10:41:14	893516	61530d04a2176282b7ee6fac	2	1	main_z	24	main_z	51	stimuli_distractor_trianglediamonds.svg	stimuli_target_diamondsquares.svg	28	yes	44	1	518	6	1	antiphase_hc_iso.wav	2	6	4	noise_calib_stim_RIGHT.wav	2	8	blb_dichoticlistening_da-da.mp3	da	da	0	left
6.6.1	win	2023-07-09	10:26:11	10:41:14	893516	61530d04a2176282b7ee6fac	2	1	main_z	24	advance_on_keypress_ZEE	52	stimuli_distractor_trianglediamonds.svg	stimuli_target_diamondsquares.svg	28	yes	57	0	516	6	1	antiphase_hc_iso.wav	2	6	4	noise_calib_stim_RIGHT.wav	2	8	blb_dichoticlistening_da-da.mp3	da	da	0	left
6.6.1	win	2023-07-09	10:26:11	10:41:16	895028	61530d04a2176282b7ee6fac	2	1	main_z	24	main_z	53	stimuli_target_rectanglediamonds.svg	stimuli_distractor_trianglediamonds.svg	2	yes	44	1	348	6	1	antiphase_hc_iso.wav	2	6	4	noise_calib_stim_RIGHT.wav	2	8	blb_dichoticlistening_da-da.mp3	da	da	0	left
6.6.1	win	2023-07-09	10:26:11	10:41:16	895028	61530d04a2176282b7ee6fac	2	1	main_z	24	advance_on_keypress_ZEE	54	stimuli_target_rectanglediamonds.svg	stimuli_distractor_trianglediamonds.svg	2	yes	57	0	555	6	1	antiphase_hc_iso.wav	2	6	4	noise_calib_stim_RIGHT.wav	2	8	blb_dichoticlistening_da-da.mp3	da	da	0	left
6.6.1	win	2023-07-09	10:26:11	10:41:17	896653	61530d04a2176282b7ee6fac	2	1	main_z	24	main_z	55	stimuli_distractor_diamondtriangles.svg	stimuli_target_rectanglediamonds.svg	14	yes	44	1	424	6	1	antiphase_hc_iso.wav	2	6	4	noise_calib_stim_RIGHT.wav	2	8	blb_dichoticlistening_da-da.mp3	da	da	0	left
6.6.1	win	2023-07-09	10:26:11	10:41:17	896653	61530d04a2176282b7ee6fac	2	1	main_z	24	advance_on_keypress_ZEE	56	stimuli_distractor_diamondtriangles.svg	stimuli_target_rectanglediamonds.svg	14	yes	57	0	710	6	1	antiphase_hc_iso.wav	2	6	4	noise_calib_stim_RIGHT.wav	2	8	blb_dichoticlistening_da-da.mp3	da	da	0	left
6.6.1	win	2023-07-09	10:26:11	10:41:19	898399	61530d04a2176282b7ee6fac	2	1	main_z	24	main_z	57	stimuli_target_squaretriangles.svg	stimuli_distractor_trianglediamonds.svg	3	yes	44	1	406	6	1	antiphase_hc_iso.wav	2	6	4	noise_calib_stim_RIGHT.wav	2	8	blb_dichoticlistening_da-da.mp3	da	da	0	left
6.6.1	win	2023-07-09	10:26:11	10:41:19	898399	61530d04a2176282b7ee6fac	2	1	main_z	24	advance_on_keypress_ZEE	58	stimuli_target_squaretriangles.svg	stimuli_distractor_trianglediamonds.svg	3	yes	57	0	524	6	1	antiphase_hc_iso.wav	2	6	4	noise_calib_stim_RIGHT.wav	2	8	blb_dichoticlistening_da-da.mp3	da	da	0	left
6.6.1	win	2023-07-09	10:26:11	10:41:21	899954	61530d04a2176282b7ee6fac	2	1	main_z	24	main_z	59	stimuli_target_trianglesquares.svg	stimuli_distractor_trianglediamonds.svg	18	yes	44	1	396	6	1	antiphase_hc_iso.wav	2	6	4	noise_calib_stim_RIGHT.wav	2	8	blb_dichoticlistening_da-da.mp3	da	da	0	left
6.6.1	win	2023-07-09	10:26:11	10:41:21	899954	61530d04a2176282b7ee6fac	2	1	main_z	24	advance_on_keypress_ZEE	60	stimuli_target_trianglesquares.svg	stimuli_distractor_trianglediamonds.svg	18	yes	57	0	413	6	1	antiphase_hc_iso.wav	2	6	4	noise_calib_stim_RIGHT.wav	2	8	blb_dichoticlistening_da-da.mp3	da	da	0	left
6.6.1	win	2023-07-09	10:26:11	10:41:24	903023	61530d04a2176282b7ee6fac	2	1	main_z	24	main_z	61	stimuli_distractor_diamondtriangles.svg	stimuli_distractor_diamondtriangles.svg	40	no	0	1	2000	6	1	antiphase_hc_iso.wav	2	6	4	noise_calib_stim_RIGHT.wav	2	8	blb_dichoticlistening_da-da.mp3	da	da	0	left
6.6.1	win	2023-07-09	10:26:11	10:41:24	903023	61530d04a2176282b7ee6fac	2	1	main_z	24	advance_on_keypress_ZEE	62	stimuli_distractor_diamondtriangles.svg	stimuli_distractor_diamondtriangles.svg	40	no	57	0	328	6	1	antiphase_hc_iso.wav	2	6	4	noise_calib_stim_RIGHT.wav	2	8	blb_dichoticlistening_da-da.mp3	da	da	0	left
6.6.1	win	2023-07-09	10:26:11	10:41:25	904385	61530d04a2176282b7ee6fac	2	1	main_z	24	main_z	63	stimuli_distractor_trianglediamonds.svg	stimuli_target_squaretriangles.svg	11	yes	44	1	373	6	1	antiphase_hc_iso.wav	2	6	4	noise_calib_stim_RIGHT.wav	2	8	blb_dichoticlistening_da-da.mp3	da	da	0	left
6.6.1	win	2023-07-09	10:26:11	10:41:25	904385	61530d04a2176282b7ee6fac	2	1	main_z	24	advance_on_keypress_ZEE	64	stimuli_distractor_trianglediamonds.svg	stimuli_target_squaretriangles.svg	11	yes	57	0	428	6	1	antiphase_hc_iso.wav	2	6	4	noise_calib_stim_RIGHT.wav	2	8	blb_dichoticlistening_da-da.mp3	da	da	0	left
6.6.1	win	2023-07-09	10:26:11	10:41:27	906043	61530d04a2176282b7ee6fac	2	1	main_z	24	main_z	65	stimuli_distractor_diamondtriangles.svg	stimuli_distractor_trianglediamonds.svg	38	no	44	0	591	6	1	antiphase_hc_iso.wav	2	6	4	noise_calib_stim_RIGHT.wav	2	8	blb_dichoticlistening_da-da.mp3	da	da	0	left
6.6.1	win	2023-07-09	10:26:11	10:41:27	906043	61530d04a2176282b7ee6fac	2	1	main_z	24	advance_on_keypress_ZEE	66	stimuli_distractor_diamondtriangles.svg	stimuli_distractor_trianglediamonds.svg	38	no	57	0	480	6	1	antiphase_hc_iso.wav	2	6	4	noise_calib_stim_RIGHT.wav	2	8	blb_dichoticlistening_da-da.mp3	da	da	0	left
6.6.1	win	2023-07-09	10:26:11	10:41:28	907812	61530d04a2176282b7ee6fac	2	1	main_z	24	main_z	67	stimuli_distractor_diamondtriangles.svg	stimuli_target_trianglerectangles.svg	29	yes	44	1	645	6	1	antiphase_hc_iso.wav	2	6	4	noise_calib_stim_RIGHT.wav	2	8	blb_dichoticlistening_da-da.mp3	da	da	0	left
6.6.1	win	2023-07-09	10:26:11	10:41:28	907812	61530d04a2176282b7ee6fac	2	1	main_z	24	advance_on_keypress_ZEE	68	stimuli_distractor_diamondtriangles.svg	stimuli_target_trianglerectangles.svg	29	yes	57	0	393	6	1	antiphase_hc_iso.wav	2	6	4	noise_calib_stim_RIGHT.wav	2	8	blb_dichoticlistening_da-da.mp3	da	da	0	left
6.6.1	win	2023-07-09	10:26:11	10:41:30	909263	61530d04a2176282b7ee6fac	2	1	main_z	24	main_z	69	stimuli_target_rectanglediamonds.svg	stimuli_distractor_diamondtriangles.svg	6	yes	44	1	415	6	1	antiphase_hc_iso.wav	2	6	4	noise_calib_stim_RIGHT.wav	2	8	blb_dichoticlistening_da-da.mp3	da	da	0	left
6.6.1	win	2023-07-09	10:26:11	10:41:30	909263	61530d04a2176282b7ee6fac	2	1	main_z	24	advance_on_keypress_ZEE	70	stimuli_target_rectanglediamonds.svg	stimuli_distractor_diamondtriangles.svg	6	yes	57	0	357	6	1	antiphase_hc_iso.wav	2	6	4	noise_calib_stim_RIGHT.wav	2	8	blb_dichoticlistening_da-da.mp3	da	da	0	left
6.6.1	win	2023-07-09	10:26:11	10:41:31	910921	61530d04a2176282b7ee6fac	2	1	main_z	24	main_z	71	stimuli_distractor_trianglediamonds.svg	stimuli_target_diamondrectangles.svg	27	yes	44	1	657	6	1	antiphase_hc_iso.wav	2	6	4	noise_calib_stim_RIGHT.wav	2	8	blb_dichoticlistening_da-da.mp3	da	da	0	left
6.6.1	win	2023-07-09	10:26:11	10:41:31	910921	61530d04a2176282b7ee6fac	2	1	main_z	24	advance_on_keypress_ZEE	72	stimuli_distractor_trianglediamonds.svg	stimuli_target_diamondrectangles.svg	27	yes	57	0	379	6	1	antiphase_hc_iso.wav	2	6	4	noise_calib_stim_RIGHT.wav	2	8	blb_dichoticlistening_da-da.mp3	da	da	0	left
6.6.1	win	2023-07-09	10:26:11	10:41:33	912372	61530d04a2176282b7ee6fac	2	1	main_z	24	main_z	73	stimuli_distractor_diamondtriangles.svg	stimuli_target_rectangletriangles.svg	13	yes	44	1	426	6	1	antiphase_hc_iso.wav	2	6	4	noise_calib_stim_RIGHT.wav	2	8	blb_dichoticlistening_da-da.mp3	da	da	0	left
6.6.1	win	2023-07-09	10:26:11	10:41:33	912372	61530d04a2176282b7ee6fac	2	1	main_z	24	advance_on_keypress_ZEE	74	stimuli_distractor_diamondtriangles.svg	stimuli_target_rectangletriangles.svg	13	yes	57	0	377	6	1	antiphase_hc_iso.wav	2	6	4	noise_calib_stim_RIGHT.wav	2	8	blb_dichoticlistening_da-da.mp3	da	da	0	left
6.6.1	win	2023-07-09	10:26:11	10:41:34	913827	61530d04a2176282b7ee6fac	2	1	main_z	24	main_z	75	stimuli_target_squarediamonds.svg	stimuli_distractor_diamondtriangles.svg	8	yes	44	1	450	6	1	antiphase_hc_iso.wav	2	6	4	noise_calib_stim_RIGHT.wav	2	8	blb_dichoticlistening_da-da.mp3	da	da	0	left
6.6.1	win	2023-07-09	10:26:11	10:41:34	913827	61530d04a2176282b7ee6fac	2	1	main_z	24	advance_on_keypress_ZEE	76	stimuli_target_squarediamonds.svg	stimuli_distractor_diamondtriangles.svg	8	yes	57	0	321	6	1	antiphase_hc_iso.wav	2	6	4	noise_calib_stim_RIGHT.wav	2	8	blb_dichoticlistening_da-da.mp3	da	da	0	left
6.6.1	win	2023-07-09	10:26:11	10:41:36	915388	61530d04a2176282b7ee6fac	2	1	main_z	24	main_z	77	stimuli_distractor_diamondtriangles.svg	stimuli_target_diamondsquares.svg	32	yes	44	1	594	6	1	antiphase_hc_iso.wav	2	6	4	noise_calib_stim_RIGHT.wav	2	8	blb_dichoticlistening_da-da.mp3	da	da	0	left
6.6.1	win	2023-07-09	10:26:11	10:41:36	915388	61530d04a2176282b7ee6fac	2	1	main_z	24	advance_on_keypress_ZEE	78	stimuli_distractor_diamondtriangles.svg	stimuli_target_diamondsquares.svg	32	yes	57	0	313	6	1	antiphase_hc_iso.wav	2	6	4	noise_calib_stim_RIGHT.wav	2	8	blb_dichoticlistening_da-da.mp3	da	da	0	left
6.6.1	win	2023-07-09	10:26:11	10:41:39	918358	61530d04a2176282b7ee6fac	2	1	main_z	24	main_z	79	stimuli_distractor_diamondtriangles.svg	stimuli_distractor_trianglediamonds.svg	37	no	0	1	2000	6	1	antiphase_hc_iso.wav	2	6	4	noise_calib_stim_RIGHT.wav	2	8	blb_dichoticlistening_da-da.mp3	da	da	0	left
6.6.1	win	2023-07-09	10:26:11	10:41:39	918358	61530d04a2176282b7ee6fac	2	1	main_z	24	advance_on_keypress_ZEE	80	stimuli_distractor_diamondtriangles.svg	stimuli_distractor_trianglediamonds.svg	37	no	57	0	275	6	1	antiphase_hc_iso.wav	2	6	4	noise_calib_stim_RIGHT.wav	2	8	blb_dichoticlistening_da-da.mp3	da	da	0	left
6.6.1	win	2023-07-09	10:26:11	10:41:40	919738	61530d04a2176282b7ee6fac	2	1	main_z	24	main_z	81	stimuli_distractor_trianglediamonds.svg	stimuli_target_trianglesquares.svg	26	yes	44	1	466	6	1	antiphase_hc_iso.wav	2	6	4	noise_calib_stim_RIGHT.wav	2	8	blb_dichoticlistening_da-da.mp3	da	da	0	left
6.6.1	win	2023-07-09	10:26:11	10:41:40	919738	61530d04a2176282b7ee6fac	2	1	main_z	24	advance_on_keypress_ZEE	82	stimuli_distractor_trianglediamonds.svg	stimuli_target_trianglesquares.svg	26	yes	57	0	374	6	1	antiphase_hc_iso.wav	2	6	4	noise_calib_stim_RIGHT.wav	2	8	blb_dichoticlistening_da-da.mp3	da	da	0	left
6.6.1	win	2023-07-09	10:26:11	10:41:42	921071	61530d04a2176282b7ee6fac	2	1	main_z	24	main_z	83	stimuli_target_rectangletriangles.svg	stimuli_distractor_trianglediamonds.svg	1	yes	44	1	317	6	1	antiphase_hc_iso.wav	2	6	4	noise_calib_stim_RIGHT.wav	2	8	blb_dichoticlistening_da-da.mp3	da	da	0	left
6.6.1	win	2023-07-09	10:26:11	10:41:42	921071	61530d04a2176282b7ee6fac	2	1	main_z	24	advance_on_keypress_ZEE	84	stimuli_target_rectangletriangles.svg	stimuli_distractor_trianglediamonds.svg	1	yes	57	0	287	6	1	antiphase_hc_iso.wav	2	6	4	noise_calib_stim_RIGHT.wav	2	8	blb_dichoticlistening_da-da.mp3	da	da	0	left
6.6.1	win	2023-07-09	10:26:11	10:41:43	922340	61530d04a2176282b7ee6fac	2	1	main_z	24	main_z	85	stimuli_target_rectangletriangles.svg	stimuli_distractor_diamondtriangles.svg	5	yes	44	1	338	6	1	antiphase_hc_iso.wav	2	6	4	noise_calib_stim_RIGHT.wav	2	8	blb_dichoticlistening_da-da.mp3	da	da	0	left
6.6.1	win	2023-07-09	10:26:11	10:41:43	922340	61530d04a2176282b7ee6fac	2	1	main_z	24	advance_on_keypress_ZEE	86	stimuli_target_rectangletriangles.svg	stimuli_distractor_diamondtriangles.svg	5	yes	57	0	257	6	1	antiphase_hc_iso.wav	2	6	4	noise_calib_stim_RIGHT.wav	2	8	blb_dichoticlistening_da-da.mp3	da	da	0	left
6.6.1	win	2023-07-09	10:26:11	10:41:44	923691	61530d04a2176282b7ee6fac	2	1	main_z	24	main_z	87	stimuli_distractor_diamondtriangles.svg	stimuli_target_diamondsquares.svg	32	yes	44	1	457	6	1	antiphase_hc_iso.wav	2	6	4	noise_calib_stim_RIGHT.wav	2	8	blb_dichoticlistening_da-da.mp3	da	da	0	left
6.6.1	win	2023-07-09	10:26:11	10:41:44	923691	61530d04a2176282b7ee6fac	2	1	main_z	24	advance_on_keypress_ZEE	88	stimuli_distractor_diamondtriangles.svg	stimuli_target_diamondsquares.svg	32	yes	57	0	259	6	1	antiphase_hc_iso.wav	2	6	4	noise_calib_stim_RIGHT.wav	2	8	blb_dichoticlistening_da-da.mp3	da	da	0	left
6.6.1	win	2023-07-09	10:26:11	10:41:45	924944	61530d04a2176282b7ee6fac	2	1	main_z	24	main_z	89	stimuli_distractor_trianglediamonds.svg	stimuli_target_squarediamonds.svg	12	yes	44	1	361	6	1	antiphase_hc_iso.wav	2	6	4	noise_calib_stim_RIGHT.wav	2	8	blb_dichoticlistening_da-da.mp3	da	da	0	left
6.6.1	win	2023-07-09	10:26:11	10:41:45	924944	61530d04a2176282b7ee6fac	2	1	main_z	24	advance_on_keypress_ZEE	90	stimuli_distractor_trianglediamonds.svg	stimuli_target_squarediamonds.svg	12	yes	57	0	272	6	1	antiphase_hc_iso.wav	2	6	4	noise_calib_stim_RIGHT.wav	2	8	blb_dichoticlistening_da-da.mp3	da	da	0	left
6.6.1	win	2023-07-09	10:26:11	10:41:47	926201	61530d04a2176282b7ee6fac	2	1	main_z	24	main_z	91	stimuli_distractor_diamondtriangles.svg	stimuli_target_rectangletriangles.svg	13	yes	44	1	336	6	1	antiphase_hc_iso.wav	2	6	4	noise_calib_stim_RIGHT.wav	2	8	blb_dichoticlistening_da-da.mp3	da	da	0	left
6.6.1	win	2023-07-09	10:26:11	10:41:47	926201	61530d04a2176282b7ee6fac	2	1	main_z	24	advance_on_keypress_ZEE	92	stimuli_distractor_diamondtriangles.svg	stimuli_target_rectangletriangles.svg	13	yes	57	0	309	6	1	antiphase_hc_iso.wav	2	6	4	noise_calib_stim_RIGHT.wav	2	8	blb_dichoticlistening_da-da.mp3	da	da	0	left
6.6.1	win	2023-07-09	10:26:11	10:41:48	927528	61530d04a2176282b7ee6fac	2	1	main_z	24	main_z	93	stimuli_target_squarediamonds.svg	stimuli_distractor_trianglediamonds.svg	4	yes	44	1	376	6	1	antiphase_hc_iso.wav	2	6	4	noise_calib_stim_RIGHT.wav	2	8	blb_dichoticlistening_da-da.mp3	da	da	0	left
6.6.1	win	2023-07-09	10:26:11	10:41:48	927528	61530d04a2176282b7ee6fac	2	1	main_z	24	advance_on_keypress_ZEE	94	stimuli_target_squarediamonds.svg	stimuli_distractor_trianglediamonds.svg	4	yes	57	0	256	6	1	antiphase_hc_iso.wav	2	6	4	noise_calib_stim_RIGHT.wav	2	8	blb_dichoticlistening_da-da.mp3	da	da	0	left
6.6.1	win	2023-07-09	10:26:11	10:41:50	929105	61530d04a2176282b7ee6fac	2	1	main_z	24	main_z	95	stimuli_distractor_trianglediamonds.svg	stimuli_distractor_diamondtriangles.svg	36	no	44	0	676	6	1	antiphase_hc_iso.wav	2	6	4	noise_calib_stim_RIGHT.wav	2	8	blb_dichoticlistening_da-da.mp3	da	da	0	left
6.6.1	win	2023-07-09	10:26:11	10:41:50	929105	61530d04a2176282b7ee6fac	2	1	main_z	24	advance_on_keypress_ZEE	96	stimuli_distractor_trianglediamonds.svg	stimuli_distractor_diamondtriangles.svg	36	no	57	0	1007	6	1	antiphase_hc_iso.wav	2	6	4	noise_calib_stim_RIGHT.wav	2	8	blb_dichoticlistening_da-da.mp3	da	da	0	left
6.6.1	win	2023-07-09	10:26:11	10:41:52	931348	61530d04a2176282b7ee6fac	2	1	main_z	24	main_z	97	stimuli_target_diamondsquares.svg	stimuli_distractor_diamondtriangles.svg	24	yes	44	1	603	6	1	antiphase_hc_iso.wav	2	6	4	noise_calib_stim_RIGHT.wav	2	8	blb_dichoticlistening_da-da.mp3	da	da	0	left
6.6.1	win	2023-07-09	10:26:11	10:41:52	931348	61530d04a2176282b7ee6fac	2	1	main_z	24	advance_on_keypress_ZEE	98	stimuli_target_diamondsquares.svg	stimuli_distractor_diamondtriangles.svg	24	yes	57	0	288	6	1	antiphase_hc_iso.wav	2	6	4	noise_calib_stim_RIGHT.wav	2	8	blb_dichoticlistening_da-da.mp3	da	da	0	left
6.6.1	win	2023-07-09	10:26:11	10:41:53	932754	61530d04a2176282b7ee6fac	2	1	main_z	24	main_z	99	stimuli_distractor_diamondtriangles.svg	stimuli_target_diamondrectangles.svg	31	yes	44	1	479	6	1	antiphase_hc_iso.wav	2	6	4	noise_calib_stim_RIGHT.wav	2	8	blb_dichoticlistening_da-da.mp3	da	da	0	left
6.6.1	win	2023-07-09	10:26:11	10:41:53	932754	61530d04a2176282b7ee6fac	2	1	main_z	24	advance_on_keypress_ZEE	100	stimuli_distractor_diamondtriangles.svg	stimuli_target_diamondrectangles.svg	31	yes	57	0	192	6	1	antiphase_hc_iso.wav	2	6	4	noise_calib_stim_RIGHT.wav	2	8	blb_dichoticlistening_da-da.mp3	da	da	0	left
6.6.1	win	2023-07-09	10:26:11	10:41:55	934034	61530d04a2176282b7ee6fac	2	1	main_z	24	main_z	101	stimuli_distractor_diamondtriangles.svg	stimuli_target_squarediamonds.svg	16	yes	44	1	443	6	1	antiphase_hc_iso.wav	2	6	4	noise_calib_stim_RIGHT.wav	2	8	blb_dichoticlistening_da-da.mp3	da	da	0	left
6.6.1	win	2023-07-09	10:26:11	10:41:55	934034	61530d04a2176282b7ee6fac	2	1	main_z	24	advance_on_keypress_ZEE	102	stimuli_distractor_diamondtriangles.svg	stimuli_target_squarediamonds.svg	16	yes	57	0	251	6	1	antiphase_hc_iso.wav	2	6	4	noise_calib_stim_RIGHT.wav	2	8	blb_dichoticlistening_da-da.mp3	da	da	0	left
6.6.1	win	2023-07-09	10:26:11	10:41:56	935304	61530d04a2176282b7ee6fac	2	1	main_z	24	main_z	103	stimuli_target_squarediamonds.svg	stimuli_distractor_diamondtriangles.svg	8	yes	44	1	376	6	1	antiphase_hc_iso.wav	2	6	4	noise_calib_stim_RIGHT.wav	2	8	blb_dichoticlistening_da-da.mp3	da	da	0	left
6.6.1	win	2023-07-09	10:26:11	10:41:56	935304	61530d04a2176282b7ee6fac	2	1	main_z	24	advance_on_keypress_ZEE	104	stimuli_target_squarediamonds.svg	stimuli_distractor_diamondtriangles.svg	8	yes	57	0	248	6	1	antiphase_hc_iso.wav	2	6	4	noise_calib_stim_RIGHT.wav	2	8	blb_dichoticlistening_da-da.mp3	da	da	0	left
6.6.1	win	2023-07-09	10:26:11	10:41:57	936828	61530d04a2176282b7ee6fac	2	1	main_z	24	main_z	105	stimuli_distractor_trianglediamonds.svg	stimuli_target_diamondrectangles.svg	27	yes	44	1	623	6	1	antiphase_hc_iso.wav	2	6	4	noise_calib_stim_RIGHT.wav	2	8	blb_dichoticlistening_da-da.mp3	da	da	0	left
6.6.1	win	2023-07-09	10:26:11	10:41:57	936828	61530d04a2176282b7ee6fac	2	1	main_z	24	advance_on_keypress_ZEE	106	stimuli_distractor_trianglediamonds.svg	stimuli_target_diamondrectangles.svg	27	yes	57	0	237	6	1	antiphase_hc_iso.wav	2	6	4	noise_calib_stim_RIGHT.wav	2	8	blb_dichoticlistening_da-da.mp3	da	da	0	left
6.6.1	win	2023-07-09	10:26:11	10:41:59	938138	61530d04a2176282b7ee6fac	2	1	main_z	24	main_z	107	stimuli_distractor_diamondtriangles.svg	stimuli_target_squaretriangles.svg	15	yes	44	1	433	6	1	antiphase_hc_iso.wav	2	6	4	noise_calib_stim_RIGHT.wav	2	8	blb_dichoticlistening_da-da.mp3	da	da	0	left
6.6.1	win	2023-07-09	10:26:11	10:41:59	938138	61530d04a2176282b7ee6fac	2	1	main_z	24	advance_on_keypress_ZEE	108	stimuli_distractor_diamondtriangles.svg	stimuli_target_squaretriangles.svg	15	yes	57	0	246	6	1	antiphase_hc_iso.wav	2	6	4	noise_calib_stim_RIGHT.wav	2	8	blb_dichoticlistening_da-da.mp3	da	da	0	left
6.6.1	win	2023-07-09	10:26:11	10:42:02	941036	61530d04a2176282b7ee6fac	2	1	main_z	24	main_z	109	stimuli_distractor_diamondtriangles.svg	stimuli_distractor_diamondtriangles.svg	40	no	0	1	2000	6	1	antiphase_hc_iso.wav	2	6	4	noise_calib_stim_RIGHT.wav	2	8	blb_dichoticlistening_da-da.mp3	da	da	0	left
6.6.1	win	2023-07-09	10:26:11	10:42:02	941036	61530d04a2176282b7ee6fac	2	1	main_z	24	advance_on_keypress_ZEE	110	stimuli_distractor_diamondtriangles.svg	stimuli_distractor_diamondtriangles.svg	40	no	57	0	334	6	1	antiphase_hc_iso.wav	2	6	4	noise_calib_stim_RIGHT.wav	2	8	blb_dichoticlistening_da-da.mp3	da	da	0	left
6.6.1	win	2023-07-09	10:26:11	10:42:03	942397	61530d04a2176282b7ee6fac	2	1	main_z	24	main_z	111	stimuli_target_squaretriangles.svg	stimuli_distractor_diamondtriangles.svg	7	yes	44	1	372	6	1	antiphase_hc_iso.wav	2	6	4	noise_calib_stim_RIGHT.wav	2	8	blb_dichoticlistening_da-da.mp3	da	da	0	left
6.6.1	win	2023-07-09	10:26:11	10:42:03	942397	61530d04a2176282b7ee6fac	2	1	main_z	24	advance_on_keypress_ZEE	112	stimuli_target_squaretriangles.svg	stimuli_distractor_diamondtriangles.svg	7	yes	57	0	201	6	1	antiphase_hc_iso.wav	2	6	4	noise_calib_stim_RIGHT.wav	2	8	blb_dichoticlistening_da-da.mp3	da	da	0	left
6.6.1	win	2023-07-09	10:26:11	10:42:04	943784	61530d04a2176282b7ee6fac	2	1	main_z	24	main_z	113	stimuli_distractor_diamondtriangles.svg	stimuli_target_trianglerectangles.svg	29	yes	44	1	536	6	1	antiphase_hc_iso.wav	2	6	4	noise_calib_stim_RIGHT.wav	2	8	blb_dichoticlistening_da-da.mp3	da	da	0	left
6.6.1	win	2023-07-09	10:26:11	10:42:04	943784	61530d04a2176282b7ee6fac	2	1	main_z	24	advance_on_keypress_ZEE	114	stimuli_distractor_diamondtriangles.svg	stimuli_target_trianglerectangles.svg	29	yes	57	0	673	6	1	antiphase_hc_iso.wav	2	6	4	noise_calib_stim_RIGHT.wav	2	8	blb_dichoticlistening_da-da.mp3	da	da	0	left
6.6.1	win	2023-07-09	10:26:11	10:42:06	945477	61530d04a2176282b7ee6fac	2	1	main_z	24	main_z	115	stimuli_distractor_trianglediamonds.svg	stimuli_distractor_trianglediamonds.svg	33	no	44	0	376	6	1	antiphase_hc_iso.wav	2	6	4	noise_calib_stim_RIGHT.wav	2	8	blb_dichoticlistening_da-da.mp3	da	da	0	left
6.6.1	win	2023-07-09	10:26:11	10:42:06	945477	61530d04a2176282b7ee6fac	2	1	main_z	24	advance_on_keypress_ZEE	116	stimuli_distractor_trianglediamonds.svg	stimuli_distractor_trianglediamonds.svg	33	no	57	0	1054	6	1	antiphase_hc_iso.wav	2	6	4	noise_calib_stim_RIGHT.wav	2	8	blb_dichoticlistening_da-da.mp3	da	da	0	left
6.6.1	win	2023-07-09	10:26:11	10:42:08	947562	61530d04a2176282b7ee6fac	2	1	main_z	24	main_z	117	stimuli_distractor_trianglediamonds.svg	stimuli_target_rectanglediamonds.svg	10	yes	44	1	385	6	1	antiphase_hc_iso.wav	2	6	4	noise_calib_stim_RIGHT.wav	2	8	blb_dichoticlistening_da-da.mp3	da	da	0	left
6.6.1	win	2023-07-09	10:26:11	10:42:08	947562	61530d04a2176282b7ee6fac	2	1	main_z	24	advance_on_keypress_ZEE	118	stimuli_distractor_trianglediamonds.svg	stimuli_target_rectanglediamonds.svg	10	yes	57	0	348	6	1	antiphase_hc_iso.wav	2	6	4	noise_calib_stim_RIGHT.wav	2	8	blb_dichoticlistening_da-da.mp3	da	da	0	left
6.6.1	win	2023-07-09	10:26:11	10:42:10	949156	61530d04a2176282b7ee6fac	2	1	main_z	24	main_z	119	stimuli_target_trianglesquares.svg	stimuli_distractor_diamondtriangles.svg	22	yes	44	1	597	6	1	antiphase_hc_iso.wav	2	6	4	noise_calib_stim_RIGHT.wav	2	8	blb_dichoticlistening_da-da.mp3	da	da	0	left
6.6.1	win	2023-07-09	10:26:11	10:42:10	949156	61530d04a2176282b7ee6fac	2	1	main_z	24	advance_on_keypress_ZEE	120	stimuli_target_trianglesquares.svg	stimuli_distractor_diamondtriangles.svg	22	yes	57	0	200	6	1	antiphase_hc_iso.wav	2	6	4	noise_calib_stim_RIGHT.wav	2	8	blb_dichoticlistening_da-da.mp3	da	da	0	left
6.6.1	win	2023-07-09	10:26:11	10:42:11	950622	61530d04a2176282b7ee6fac	2	1	main_z	24	main_z	121	stimuli_target_diamondrectangles.svg	stimuli_distractor_diamondtriangles.svg	23	yes	44	1	614	6	1	antiphase_hc_iso.wav	2	6	4	noise_calib_stim_RIGHT.wav	2	8	blb_dichoticlistening_da-da.mp3	da	da	0	left
6.6.1	win	2023-07-09	10:26:11	10:42:11	950622	61530d04a2176282b7ee6fac	2	1	main_z	24	advance_on_keypress_ZEE	122	stimuli_target_diamondrectangles.svg	stimuli_distractor_diamondtriangles.svg	23	yes	57	0	161	6	1	antiphase_hc_iso.wav	2	6	4	noise_calib_stim_RIGHT.wav	2	8	blb_dichoticlistening_da-da.mp3	da	da	0	left
6.6.1	win	2023-07-09	10:26:11	10:42:13	951952	61530d04a2176282b7ee6fac	2	1	main_z	24	main_z	123	stimuli_target_trianglerectangles.svg	stimuli_distractor_trianglediamonds.svg	17	yes	44	1	529	6	1	antiphase_hc_iso.wav	2	6	4	noise_calib_stim_RIGHT.wav	2	8	blb_dichoticlistening_da-da.mp3	da	da	0	left
6.6.1	win	2023-07-09	10:26:11	10:42:13	951952	61530d04a2176282b7ee6fac	2	1	main_z	24	advance_on_keypress_ZEE	124	stimuli_target_trianglerectangles.svg	stimuli_distractor_trianglediamonds.svg	17	yes	57	0	179	6	1	antiphase_hc_iso.wav	2	6	4	noise_calib_stim_RIGHT.wav	2	8	blb_dichoticlistening_da-da.mp3	da	da	0	left
6.6.1	win	2023-07-09	10:26:11	10:42:14	953200	61530d04a2176282b7ee6fac	2	1	main_z	24	main_z	125	stimuli_target_rectanglediamonds.svg	stimuli_distractor_diamondtriangles.svg	6	yes	44	1	412	6	1	antiphase_hc_iso.wav	2	6	4	noise_calib_stim_RIGHT.wav	2	8	blb_dichoticlistening_da-da.mp3	da	da	0	left
6.6.1	win	2023-07-09	10:26:11	10:42:14	953200	61530d04a2176282b7ee6fac	2	1	main_z	24	advance_on_keypress_ZEE	126	stimuli_target_rectanglediamonds.svg	stimuli_distractor_diamondtriangles.svg	6	yes	57	0	184	6	1	antiphase_hc_iso.wav	2	6	4	noise_calib_stim_RIGHT.wav	2	8	blb_dichoticlistening_da-da.mp3	da	da	0	left
6.6.1	win	2023-07-09	10:26:11	10:42:15	954627	61530d04a2176282b7ee6fac	2	1	main_z	24	main_z	127	stimuli_target_diamondrectangles.svg	stimuli_distractor_trianglediamonds.svg	19	yes	44	1	590	6	1	antiphase_hc_iso.wav	2	6	4	noise_calib_stim_RIGHT.wav	2	8	blb_dichoticlistening_da-da.mp3	da	da	0	left
6.6.1	win	2023-07-09	10:26:11	10:42:15	954627	61530d04a2176282b7ee6fac	2	1	main_z	24	advance_on_keypress_ZEE	128	stimuli_target_diamondrectangles.svg	stimuli_distractor_trianglediamonds.svg	19	yes	57	0	184	6	1	antiphase_hc_iso.wav	2	6	4	noise_calib_stim_RIGHT.wav	2	8	blb_dichoticlistening_da-da.mp3	da	da	0	left
6.6.1	win	2023-07-09	10:26:11	10:42:18	957453	61530d04a2176282b7ee6fac	2	1	main_z	24	main_z	129	stimuli_distractor_trianglediamonds.svg	stimuli_distractor_trianglediamonds.svg	34	no	0	1	2000	6	1	antiphase_hc_iso.wav	2	6	4	noise_calib_stim_RIGHT.wav	2	8	blb_dichoticlistening_da-da.mp3	da	da	0	left
6.6.1	win	2023-07-09	10:26:11	10:42:18	957453	61530d04a2176282b7ee6fac	2	1	main_z	24	advance_on_keypress_ZEE	130	stimuli_distractor_trianglediamonds.svg	stimuli_distractor_trianglediamonds.svg	34	no	57	0	503	6	1	antiphase_hc_iso.wav	2	6	4	noise_calib_stim_RIGHT.wav	2	8	blb_dichoticlistening_da-da.mp3	da	da	0	left
6.6.1	win	2023-07-09	10:26:11	10:42:20	958983	61530d04a2176282b7ee6fac	2	1	main_z	24	main_z	131	stimuli_distractor_trianglediamonds.svg	stimuli_distractor_diamondtriangles.svg	35	no	44	0	382	6	1	antiphase_hc_iso.wav	2	6	4	noise_calib_stim_RIGHT.wav	2	8	blb_dichoticlistening_da-da.mp3	da	da	0	left
6.6.1	win	2023-07-09	10:26:11	10:42:20	958983	61530d04a2176282b7ee6fac	2	1	main_z	24	advance_on_keypress_ZEE	132	stimuli_distractor_trianglediamonds.svg	stimuli_distractor_diamondtriangles.svg	35	no	57	0	253	6	1	antiphase_hc_iso.wav	2	6	4	noise_calib_stim_RIGHT.wav	2	8	blb_dichoticlistening_da-da.mp3	da	da	0	left
6.6.1	win	2023-07-09	10:26:11	10:42:21	960263	61530d04a2176282b7ee6fac	2	1	main_z	24	main_z	133	stimuli_distractor_diamondtriangles.svg	stimuli_target_trianglesquares.svg	30	yes	44	1	377	6	1	antiphase_hc_iso.wav	2	6	4	noise_calib_stim_RIGHT.wav	2	8	blb_dichoticlistening_da-da.mp3	da	da	0	left
6.6.1	win	2023-07-09	10:26:11	10:42:21	960263	61530d04a2176282b7ee6fac	2	1	main_z	24	advance_on_keypress_ZEE	134	stimuli_distractor_diamondtriangles.svg	stimuli_target_trianglesquares.svg	30	yes	57	0	175	6	1	antiphase_hc_iso.wav	2	6	4	noise_calib_stim_RIGHT.wav	2	8	blb_dichoticlistening_da-da.mp3	da	da	0	left
6.6.1	win	2023-07-09	10:26:11	10:42:22	961565	61530d04a2176282b7ee6fac	2	1	main_z	24	main_z	135	stimuli_distractor_diamondtriangles.svg	stimuli_target_rectanglediamonds.svg	14	yes	44	1	484	6	1	antiphase_hc_iso.wav	2	6	4	noise_calib_stim_RIGHT.wav	2	8	blb_dichoticlistening_da-da.mp3	da	da	0	left
6.6.1	win	2023-07-09	10:26:11	10:42:22	961565	61530d04a2176282b7ee6fac	2	1	main_z	24	advance_on_keypress_ZEE	136	stimuli_distractor_diamondtriangles.svg	stimuli_target_rectanglediamonds.svg	14	yes	57	0	57	6	1	antiphase_hc_iso.wav	2	6	4	noise_calib_stim_RIGHT.wav	2	8	blb_dichoticlistening_da-da.mp3	da	da	0	left
6.6.1	win	2023-07-09	10:26:11	10:42:23	962648	61530d04a2176282b7ee6fac	2	1	main_z	24	main_z	137	stimuli_target_squaretriangles.svg	stimuli_distractor_trianglediamonds.svg	3	yes	44	1	385	6	1	antiphase_hc_iso.wav	2	6	4	noise_calib_stim_RIGHT.wav	2	8	blb_dichoticlistening_da-da.mp3	da	da	0	left
6.6.1	win	2023-07-09	10:26:11	10:42:23	962648	61530d04a2176282b7ee6fac	2	1	main_z	24	advance_on_keypress_ZEE	138	stimuli_target_squaretriangles.svg	stimuli_distractor_trianglediamonds.svg	3	yes	57	0	173	6	1	antiphase_hc_iso.wav	2	6	4	noise_calib_stim_RIGHT.wav	2	8	blb_dichoticlistening_da-da.mp3	da	da	0	left
6.6.1	win	2023-07-09	10:26:11	10:42:24	963920	61530d04a2176282b7ee6fac	2	1	main_z	24	main_z	139	stimuli_distractor_trianglediamonds.svg	stimuli_target_rectangletriangles.svg	9	yes	44	1	458	6	1	antiphase_hc_iso.wav	2	6	4	noise_calib_stim_RIGHT.wav	2	8	blb_dichoticlistening_da-da.mp3	da	da	0	left
6.6.1	win	2023-07-09	10:26:11	10:42:24	963920	61530d04a2176282b7ee6fac	2	1	main_z	24	advance_on_keypress_ZEE	140	stimuli_distractor_trianglediamonds.svg	stimuli_target_rectangletriangles.svg	9	yes	57	0	178	6	1	antiphase_hc_iso.wav	2	6	4	noise_calib_stim_RIGHT.wav	2	8	blb_dichoticlistening_da-da.mp3	da	da	0	left
6.6.1	win	2023-07-09	10:26:11	10:42:26	965547	61530d04a2176282b7ee6fac	2	1	main_z	24	main_z	141	stimuli_distractor_trianglediamonds.svg	stimuli_target_diamondsquares.svg	28	yes	44	1	803	6	1	antiphase_hc_iso.wav	2	6	4	noise_calib_stim_RIGHT.wav	2	8	blb_dichoticlistening_da-da.mp3	da	da	0	left
6.6.1	win	2023-07-09	10:26:11	10:42:26	965547	61530d04a2176282b7ee6fac	2	1	main_z	24	advance_on_keypress_ZEE	142	stimuli_distractor_trianglediamonds.svg	stimuli_target_diamondsquares.svg	28	yes	57	0	453	6	1	antiphase_hc_iso.wav	2	6	4	noise_calib_stim_RIGHT.wav	2	8	blb_dichoticlistening_da-da.mp3	da	da	0	left
6.6.1	win	2023-07-09	10:26:11	10:42:28	967030	61530d04a2176282b7ee6fac	2	1	main_z	24	main_z	143	stimuli_target_diamondsquares.svg	stimuli_distractor_trianglediamonds.svg	20	yes	44	1	389	6	1	antiphase_hc_iso.wav	2	6	4	noise_calib_stim_RIGHT.wav	2	8	blb_dichoticlistening_da-da.mp3	da	da	0	left
6.6.1	win	2023-07-09	10:26:11	10:42:28	967030	61530d04a2176282b7ee6fac	2	1	main_z	24	advance_on_keypress_ZEE	144	stimuli_target_diamondsquares.svg	stimuli_distractor_trianglediamonds.svg	20	yes	57	0	199	6	1	antiphase_hc_iso.wav	2	6	4	noise_calib_stim_RIGHT.wav	2	8	blb_dichoticlistening_da-da.mp3	da	da	0	left
6.6.1	win	2023-07-09	10:26:11	10:42:30	969874	61530d04a2176282b7ee6fac	2	1	main_z	24	main_z	145	stimuli_distractor_diamondtriangles.svg	stimuli_distractor_trianglediamonds.svg	38	no	0	1	2000	6	1	antiphase_hc_iso.wav	2	6	4	noise_calib_stim_RIGHT.wav	2	8	blb_dichoticlistening_da-da.mp3	da	da	0	left
6.6.1	win	2023-07-09	10:26:11	10:42:30	969874	61530d04a2176282b7ee6fac	2	1	main_z	24	advance_on_keypress_ZEE	146	stimuli_distractor_diamondtriangles.svg	stimuli_distractor_trianglediamonds.svg	38	no	57	0	291	6	1	antiphase_hc_iso.wav	2	6	4	noise_calib_stim_RIGHT.wav	2	8	blb_dichoticlistening_da-da.mp3	da	da	0	left
6.6.1	win	2023-07-09	10:26:11	10:42:32	971129	61530d04a2176282b7ee6fac	2	1	main_z	24	main_z	147	stimuli_distractor_diamondtriangles.svg	stimuli_distractor_trianglediamonds.svg	37	no	44	0	324	6	1	antiphase_hc_iso.wav	2	6	4	noise_calib_stim_RIGHT.wav	2	8	blb_dichoticlistening_da-da.mp3	da	da	0	left
6.6.1	win	2023-07-09	10:26:11	10:42:32	971129	61530d04a2176282b7ee6fac	2	1	main_z	24	advance_on_keypress_ZEE	148	stimuli_distractor_diamondtriangles.svg	stimuli_distractor_trianglediamonds.svg	37	no	57	0	254	6	1	antiphase_hc_iso.wav	2	6	4	noise_calib_stim_RIGHT.wav	2	8	blb_dichoticlistening_da-da.mp3	da	da	0	left
6.6.1	win	2023-07-09	10:26:11	10:42:33	972403	61530d04a2176282b7ee6fac	2	1	main_z	24	main_z	149	stimuli_target_trianglerectangles.svg	stimuli_distractor_diamondtriangles.svg	21	yes	44	1	381	6	1	antiphase_hc_iso.wav	2	6	4	noise_calib_stim_RIGHT.wav	2	8	blb_dichoticlistening_da-da.mp3	da	da	0	left
6.6.1	win	2023-07-09	10:26:11	10:42:33	972403	61530d04a2176282b7ee6fac	2	1	main_z	24	advance_on_keypress_ZEE	150	stimuli_target_trianglerectangles.svg	stimuli_distractor_diamondtriangles.svg	21	yes	57	0	167	6	1	antiphase_hc_iso.wav	2	6	4	noise_calib_stim_RIGHT.wav	2	8	blb_dichoticlistening_da-da.mp3	da	da	0	left
6.6.1	win	2023-07-09	10:26:11	10:42:34	973562	61530d04a2176282b7ee6fac	2	1	main_z	24	main_z	151	stimuli_distractor_trianglediamonds.svg	stimuli_target_squaretriangles.svg	11	yes	44	1	344	6	1	antiphase_hc_iso.wav	2	6	4	noise_calib_stim_RIGHT.wav	2	8	blb_dichoticlistening_da-da.mp3	da	da	0	left
6.6.1	win	2023-07-09	10:26:11	10:42:34	973562	61530d04a2176282b7ee6fac	2	1	main_z	24	advance_on_keypress_ZEE	152	stimuli_distractor_trianglediamonds.svg	stimuli_target_squaretriangles.svg	11	yes	57	0	173	6	1	antiphase_hc_iso.wav	2	6	4	noise_calib_stim_RIGHT.wav	2	8	blb_dichoticlistening_da-da.mp3	da	da	0	left
6.6.1	win	2023-07-09	10:26:11	10:42:35	974751	61530d04a2176282b7ee6fac	2	1	main_z	24	main_z	153	stimuli_target_trianglesquares.svg	stimuli_distractor_trianglediamonds.svg	18	yes	44	1	384	6	1	antiphase_hc_iso.wav	2	6	4	noise_calib_stim_RIGHT.wav	2	8	blb_dichoticlistening_da-da.mp3	da	da	0	left
6.6.1	win	2023-07-09	10:26:11	10:42:35	974751	61530d04a2176282b7ee6fac	2	1	main_z	24	advance_on_keypress_ZEE	154	stimuli_target_trianglesquares.svg	stimuli_distractor_trianglediamonds.svg	18	yes	57	0	334	6	1	antiphase_hc_iso.wav	2	6	4	noise_calib_stim_RIGHT.wav	2	8	blb_dichoticlistening_da-da.mp3	da	da	0	left
6.6.1	win	2023-07-09	10:26:11	10:42:37	976041	61530d04a2176282b7ee6fac	2	1	main_z	24	main_z	155	stimuli_target_rectanglediamonds.svg	stimuli_distractor_trianglediamonds.svg	2	yes	44	1	309	6	1	antiphase_hc_iso.wav	2	6	4	noise_calib_stim_RIGHT.wav	2	8	blb_dichoticlistening_da-da.mp3	da	da	0	left
6.6.1	win	2023-07-09	10:26:11	10:42:37	976041	61530d04a2176282b7ee6fac	2	1	main_z	24	advance_on_keypress_ZEE	156	stimuli_target_rectanglediamonds.svg	stimuli_distractor_trianglediamonds.svg	2	yes	57	0	195	6	1	antiphase_hc_iso.wav	2	6	4	noise_calib_stim_RIGHT.wav	2	8	blb_dichoticlistening_da-da.mp3	da	da	0	left
6.6.1	win	2023-07-09	10:26:11	10:42:39	978882	61530d04a2176282b7ee6fac	2	1	main_z	24	main_z	157	stimuli_distractor_diamondtriangles.svg	stimuli_distractor_diamondtriangles.svg	39	no	0	1	2000	6	1	antiphase_hc_iso.wav	2	6	4	noise_calib_stim_RIGHT.wav	2	8	blb_dichoticlistening_da-da.mp3	da	da	0	left
6.6.1	win	2023-07-09	10:26:11	10:42:39	978882	61530d04a2176282b7ee6fac	2	1	main_z	24	advance_on_keypress_ZEE	158	stimuli_distractor_diamondtriangles.svg	stimuli_distractor_diamondtriangles.svg	39	no	57	0	287	6	1	antiphase_hc_iso.wav	2	6	4	noise_calib_stim_RIGHT.wav	2	8	blb_dichoticlistening_da-da.mp3	da	da	0	left
6.6.1	win	2023-07-09	10:26:11	10:42:41	980197	61530d04a2176282b7ee6fac	2	1	main_z	24	main_z	159	stimuli_distractor_trianglediamonds.svg	stimuli_target_trianglerectangles.svg	25	yes	44	1	384	6	1	antiphase_hc_iso.wav	2	6	4	noise_calib_stim_RIGHT.wav	2	8	blb_dichoticlistening_da-da.mp3	da	da	0	left
6.6.1	win	2023-07-09	10:26:11	10:42:41	980197	61530d04a2176282b7ee6fac	2	1	main_z	24	advance_on_keypress_ZEE	160	stimuli_distractor_trianglediamonds.svg	stimuli_target_trianglerectangles.svg	25	yes	57	0	293	6	1	antiphase_hc_iso.wav	2	6	4	noise_calib_stim_RIGHT.wav	2	8	blb_dichoticlistening_da-da.mp3	da	da	0	left
6.6.1	win	2023-07-09	10:26:11	10:45:53	1172331	61530d04a2176282b7ee6fac	2	1	practice_slash	26	practice_slash	1	stimuli_distractor_trianglediamonds.svg	stimuli_target_rectanglediamonds.svg	10	yes	53	1	455	6	1	antiphase_hc_iso.wav	2	6	4	noise_calib_stim_RIGHT.wav	2	8	blb_dichoticlistening_da-da.mp3	da	da	0	left
6.6.1	win	2023-07-09	10:26:11	10:45:53	1172331	61530d04a2176282b7ee6fac	2	1	practice_slash	26	advance_on_keypress_SLASH	2	stimuli_distractor_trianglediamonds.svg	stimuli_target_rectanglediamonds.svg	10	yes	57	0	985	6	1	antiphase_hc_iso.wav	2	6	4	noise_calib_stim_RIGHT.wav	2	8	blb_dichoticlistening_da-da.mp3	da	da	0	left
6.6.1	win	2023-07-09	10:26:11	10:45:56	1175402	61530d04a2176282b7ee6fac	2	1	practice_slash	26	practice_slash	3	stimuli_target_rectanglediamonds.svg	stimuli_distractor_trianglediamonds.svg	4	yes	53	1	429	6	1	antiphase_hc_iso.wav	2	6	4	noise_calib_stim_RIGHT.wav	2	8	blb_dichoticlistening_da-da.mp3	da	da	0	left
6.6.1	win	2023-07-09	10:26:11	10:45:56	1175402	61530d04a2176282b7ee6fac	2	1	practice_slash	26	advance_on_keypress_SLASH	4	stimuli_target_rectanglediamonds.svg	stimuli_distractor_trianglediamonds.svg	4	yes	57	0	175	6	1	antiphase_hc_iso.wav	2	6	4	noise_calib_stim_RIGHT.wav	2	8	blb_dichoticlistening_da-da.mp3	da	da	0	left
6.6.1	win	2023-07-09	10:26:11	10:45:59	1178059	61530d04a2176282b7ee6fac	2	1	practice_slash	26	practice_slash	5	stimuli_target_squarediamonds.svg	stimuli_distractor_diamondtriangles.svg	2	yes	53	1	800	6	1	antiphase_hc_iso.wav	2	6	4	noise_calib_stim_RIGHT.wav	2	8	blb_dichoticlistening_da-da.mp3	da	da	0	left
6.6.1	win	2023-07-09	10:26:11	10:45:59	1178059	61530d04a2176282b7ee6fac	2	1	practice_slash	26	advance_on_keypress_SLASH	6	stimuli_target_squarediamonds.svg	stimuli_distractor_diamondtriangles.svg	2	yes	57	0	542	6	1	antiphase_hc_iso.wav	2	6	4	noise_calib_stim_RIGHT.wav	2	8	blb_dichoticlistening_da-da.mp3	da	da	0	left
6.6.1	win	2023-07-09	10:26:11	10:46:01	1180891	61530d04a2176282b7ee6fac	2	1	practice_slash	26	practice_slash	7	stimuli_distractor_diamondtriangles.svg	stimuli_target_trianglerectangles.svg	9	yes	53	1	657	6	1	antiphase_hc_iso.wav	2	6	4	noise_calib_stim_RIGHT.wav	2	8	blb_dichoticlistening_da-da.mp3	da	da	0	left
6.6.1	win	2023-07-09	10:26:11	10:46:01	1180891	61530d04a2176282b7ee6fac	2	1	practice_slash	26	advance_on_keypress_SLASH	8	stimuli_distractor_diamondtriangles.svg	stimuli_target_trianglerectangles.svg	9	yes	57	0	358	6	1	antiphase_hc_iso.wav	2	6	4	noise_calib_stim_RIGHT.wav	2	8	blb_dichoticlistening_da-da.mp3	da	da	0	left
6.6.1	win	2023-07-09	10:26:11	10:46:04	1183452	61530d04a2176282b7ee6fac	2	1	practice_slash	26	practice_slash	9	stimuli_distractor_trianglediamonds.svg	stimuli_target_squarediamonds.svg	11	yes	53	1	537	6	1	antiphase_hc_iso.wav	2	6	4	noise_calib_stim_RIGHT.wav	2	8	blb_dichoticlistening_da-da.mp3	da	da	0	left
6.6.1	win	2023-07-09	10:26:11	10:46:04	1183452	61530d04a2176282b7ee6fac	2	1	practice_slash	26	advance_on_keypress_SLASH	10	stimuli_distractor_trianglediamonds.svg	stimuli_target_squarediamonds.svg	11	yes	57	0	143	6	1	antiphase_hc_iso.wav	2	6	4	noise_calib_stim_RIGHT.wav	2	8	blb_dichoticlistening_da-da.mp3	da	da	0	left
6.6.1	win	2023-07-09	10:26:11	10:46:06	1185793	61530d04a2176282b7ee6fac	2	1	practice_slash	26	practice_slash	11	stimuli_target_diamondsquares.svg	stimuli_distractor_trianglediamonds.svg	6	yes	53	1	547	6	1	antiphase_hc_iso.wav	2	6	4	noise_calib_stim_RIGHT.wav	2	8	blb_dichoticlistening_da-da.mp3	da	da	0	left
6.6.1	win	2023-07-09	10:26:11	10:46:06	1185793	61530d04a2176282b7ee6fac	2	1	practice_slash	26	advance_on_keypress_SLASH	12	stimuli_target_diamondsquares.svg	stimuli_distractor_trianglediamonds.svg	6	yes	57	0	465	6	1	antiphase_hc_iso.wav	2	6	4	noise_calib_stim_RIGHT.wav	2	8	blb_dichoticlistening_da-da.mp3	da	da	0	left
6.6.1	win	2023-07-09	10:26:11	10:46:09	1188382	61530d04a2176282b7ee6fac	2	1	practice_slash	26	practice_slash	13	stimuli_target_squarediamonds.svg	stimuli_distractor_trianglediamonds.svg	5	yes	53	1	474	6	1	antiphase_hc_iso.wav	2	6	4	noise_calib_stim_RIGHT.wav	2	8	blb_dichoticlistening_da-da.mp3	da	da	0	left
6.6.1	win	2023-07-09	10:26:11	10:46:09	1188382	61530d04a2176282b7ee6fac	2	1	practice_slash	26	advance_on_keypress_SLASH	14	stimuli_target_squarediamonds.svg	stimuli_distractor_trianglediamonds.svg	5	yes	57	0	301	6	1	antiphase_hc_iso.wav	2	6	4	noise_calib_stim_RIGHT.wav	2	8	blb_dichoticlistening_da-da.mp3	da	da	0	left
6.6.1	win	2023-07-09	10:26:11	10:46:13	1192324	61530d04a2176282b7ee6fac	2	1	practice_slash	26	practice_slash	15	stimuli_distractor_diamondtriangles.svg	stimuli_distractor_diamondtriangles.svg	13	no	0	1	2000	6	1	antiphase_hc_iso.wav	2	6	4	noise_calib_stim_RIGHT.wav	2	8	blb_dichoticlistening_da-da.mp3	da	da	0	left
6.6.1	win	2023-07-09	10:26:11	10:46:13	1192324	61530d04a2176282b7ee6fac	2	1	practice_slash	26	advance_on_keypress_SLASH	16	stimuli_distractor_diamondtriangles.svg	stimuli_distractor_diamondtriangles.svg	13	no	57	0	321	6	1	antiphase_hc_iso.wav	2	6	4	noise_calib_stim_RIGHT.wav	2	8	blb_dichoticlistening_da-da.mp3	da	da	0	left
6.6.1	win	2023-07-09	10:26:11	10:46:16	1195143	61530d04a2176282b7ee6fac	2	1	practice_slash	26	practice_slash	17	stimuli_distractor_trianglediamonds.svg	stimuli_distractor_trianglediamonds.svg	15	no	53	0	857	6	1	antiphase_hc_iso.wav	2	6	4	noise_calib_stim_RIGHT.wav	2	8	blb_dichoticlistening_da-da.mp3	da	da	0	left
6.6.1	win	2023-07-09	10:26:11	10:46:16	1195143	61530d04a2176282b7ee6fac	2	1	practice_slash	26	advance_on_keypress_SLASH	18	stimuli_distractor_trianglediamonds.svg	stimuli_distractor_trianglediamonds.svg	15	no	57	0	398	6	1	antiphase_hc_iso.wav	2	6	4	noise_calib_stim_RIGHT.wav	2	8	blb_dichoticlistening_da-da.mp3	da	da	0	left
6.6.1	win	2023-07-09	10:26:11	10:46:19	1198061	61530d04a2176282b7ee6fac	2	1	practice_slash	26	practice_slash	19	stimuli_distractor_trianglediamonds.svg	stimuli_distractor_diamondtriangles.svg	16	no	53	0	878	6	1	antiphase_hc_iso.wav	2	6	4	noise_calib_stim_RIGHT.wav	2	8	blb_dichoticlistening_da-da.mp3	da	da	0	left
