build	computer.platform	date	time	timestamp	time_elapsed_ms	subject	group	session	blockcode	blocknum	trialcode	trialnum	stimulus_left	stimulus_right	stim_index	target_present	response	correct	latency	headphonecheck_countTestTrials	headphonecheck_index	headphonecheck_testSound	headphonecheck_correctResponse	stereocheck_countTestTrials	stereocheck_index	stereocheck_testSound	stereocheck_correctResponse	DL_index	DL_soundfile	DL_leftSound	DL_rightSound	DL_dualSound	DL_choice
6.6.1	win	2023-06-02	02:19:48	02:29:52	600582	5d849ee0a954540019f513dd	3	1	practice_slash	5	practice_slash	1	stimuli_distractor_diamondtriangles.svg	stimuli_distractor_trianglediamonds.svg	14	no	53	0	1932	0	0			0	0			1				0	
6.6.1	win	2023-06-02	02:19:48	02:29:52	600582	5d849ee0a954540019f513dd	3	1	practice_slash	5	advance_on_keypress_SLASH	2	stimuli_distractor_diamondtriangles.svg	stimuli_distractor_trianglediamonds.svg	14	no	57	0	958	0	0			0	0			1				0	
6.6.1	win	2023-06-02	02:19:48	02:29:56	605183	5d849ee0a954540019f513dd	3	1	practice_slash	5	practice_slash	3	stimuli_distractor_trianglediamonds.svg	stimuli_distractor_trianglediamonds.svg	15	no	0	1	2000	0	0			0	0			1				0	
6.6.1	win	2023-06-02	02:19:48	02:29:56	605183	5d849ee0a954540019f513dd	3	1	practice_slash	5	advance_on_keypress_SLASH	4	stimuli_distractor_trianglediamonds.svg	stimuli_distractor_trianglediamonds.svg	15	no	57	0	662	0	0			0	0			1				0	
6.6.1	win	2023-06-02	02:19:48	02:30:01	609499	5d849ee0a954540019f513dd	3	1	practice_slash	5	practice_slash	5	stimuli_target_diamondsquares.svg	stimuli_distractor_diamondtriangles.svg	3	yes	0	0	2000	0	0			0	0			1				0	
6.6.1	win	2023-06-02	02:19:48	02:30:01	609499	5d849ee0a954540019f513dd	3	1	practice_slash	5	advance_on_keypress_SLASH	6	stimuli_target_diamondsquares.svg	stimuli_distractor_diamondtriangles.svg	3	yes	57	0	530	0	0			0	0			1				0	
6.6.1	win	2023-06-02	02:19:48	02:30:04	612896	5d849ee0a954540019f513dd	3	1	practice_slash	5	practice_slash	7	stimuli_target_squarediamonds.svg	stimuli_distractor_diamondtriangles.svg	2	yes	53	1	1195	0	0			0	0			1				0	
6.6.1	win	2023-06-02	02:19:48	02:30:04	612896	5d849ee0a954540019f513dd	3	1	practice_slash	5	advance_on_keypress_SLASH	8	stimuli_target_squarediamonds.svg	stimuli_distractor_diamondtriangles.svg	2	yes	57	0	650	0	0			0	0			1				0	
6.6.1	win	2023-06-02	02:19:48	02:30:08	617224	5d849ee0a954540019f513dd	3	1	practice_slash	5	practice_slash	9	stimuli_target_diamondsquares.svg	stimuli_distractor_trianglediamonds.svg	6	yes	0	0	2000	0	0			0	0			1				0	
6.6.1	win	2023-06-02	02:19:48	02:30:08	617224	5d849ee0a954540019f513dd	3	1	practice_slash	5	advance_on_keypress_SLASH	10	stimuli_target_diamondsquares.svg	stimuli_distractor_trianglediamonds.svg	6	yes	57	0	469	0	0			0	0			1				0	
6.6.1	win	2023-06-02	02:19:48	02:30:11	620202	5d849ee0a954540019f513dd	3	1	practice_slash	5	practice_slash	11	stimuli_target_rectanglediamonds.svg	stimuli_distractor_diamondtriangles.svg	1	yes	53	1	849	0	0			0	0			1				0	
6.6.1	win	2023-06-02	02:19:48	02:30:11	620202	5d849ee0a954540019f513dd	3	1	practice_slash	5	advance_on_keypress_SLASH	12	stimuli_target_rectanglediamonds.svg	stimuli_distractor_diamondtriangles.svg	1	yes	57	0	502	0	0			0	0			1				0	
6.6.1	win	2023-06-02	02:19:48	02:30:14	623453	5d849ee0a954540019f513dd	3	1	practice_slash	5	practice_slash	13	stimuli_distractor_diamondtriangles.svg	stimuli_target_diamondrectangles.svg	8	yes	53	1	1104	0	0			0	0			1				0	
6.6.1	win	2023-06-02	02:19:48	02:30:14	623453	5d849ee0a954540019f513dd	3	1	practice_slash	5	advance_on_keypress_SLASH	14	stimuli_distractor_diamondtriangles.svg	stimuli_target_diamondrectangles.svg	8	yes	57	0	636	0	0			0	0			1				0	
6.6.1	win	2023-06-02	02:19:48	02:30:18	626644	5d849ee0a954540019f513dd	3	1	practice_slash	5	practice_slash	15	stimuli_distractor_trianglediamonds.svg	stimuli_target_rectanglediamonds.svg	10	yes	53	1	880	0	0			0	0			1				0	
6.6.1	win	2023-06-02	02:19:48	02:30:18	626644	5d849ee0a954540019f513dd	3	1	practice_slash	5	advance_on_keypress_SLASH	16	stimuli_distractor_trianglediamonds.svg	stimuli_target_rectanglediamonds.svg	10	yes	57	0	468	0	0			0	0			1				0	
6.6.1	win	2023-06-02	02:19:48	02:30:21	629799	5d849ee0a954540019f513dd	3	1	practice_slash	5	practice_slash	17	stimuli_distractor_diamondtriangles.svg	stimuli_target_trianglerectangles.svg	9	yes	53	1	1024	0	0			0	0			1				0	
6.6.1	win	2023-06-02	02:19:48	02:30:21	629799	5d849ee0a954540019f513dd	3	1	practice_slash	5	advance_on_keypress_SLASH	18	stimuli_distractor_diamondtriangles.svg	stimuli_target_trianglerectangles.svg	9	yes	57	0	518	0	0			0	0			1				0	
6.6.1	win	2023-06-02	02:19:48	02:30:24	633230	5d849ee0a954540019f513dd	3	1	practice_slash	5	practice_slash	19	stimuli_distractor_diamondtriangles.svg	stimuli_target_rectangletriangles.svg	7	yes	53	1	1247	0	0			0	0			1				0	
6.6.1	win	2023-06-02	02:19:48	02:30:24	633230	5d849ee0a954540019f513dd	3	1	practice_slash	5	advance_on_keypress_SLASH	20	stimuli_distractor_diamondtriangles.svg	stimuli_target_rectangletriangles.svg	7	yes	57	0	484	0	0			0	0			1				0	
6.6.1	win	2023-06-02	02:19:48	02:30:28	636567	5d849ee0a954540019f513dd	3	1	practice_slash	5	practice_slash	21	stimuli_distractor_trianglediamonds.svg	stimuli_target_squarediamonds.svg	11	yes	53	1	1176	0	0			0	0			1				0	
6.6.1	win	2023-06-02	02:19:48	02:30:28	636567	5d849ee0a954540019f513dd	3	1	practice_slash	5	advance_on_keypress_SLASH	22	stimuli_distractor_trianglediamonds.svg	stimuli_target_squarediamonds.svg	11	yes	57	0	679	0	0			0	0			1				0	
6.6.1	win	2023-06-02	02:19:48	02:30:31	639852	5d849ee0a954540019f513dd	3	1	practice_slash	5	practice_slash	23	stimuli_target_squarediamonds.svg	stimuli_distractor_trianglediamonds.svg	5	yes	53	1	937	0	0			0	0			1				0	
6.6.1	win	2023-06-02	02:19:48	02:30:31	639852	5d849ee0a954540019f513dd	3	1	practice_slash	5	advance_on_keypress_SLASH	24	stimuli_target_squarediamonds.svg	stimuli_distractor_trianglediamonds.svg	5	yes	57	0	524	0	0			0	0			1				0	
6.6.1	win	2023-06-02	02:19:48	02:30:35	644037	5d849ee0a954540019f513dd	3	1	practice_slash	5	practice_slash	25	stimuli_distractor_trianglediamonds.svg	stimuli_distractor_diamondtriangles.svg	16	no	0	1	2000	0	0			0	0			1				0	
6.6.1	win	2023-06-02	02:19:48	02:30:35	644037	5d849ee0a954540019f513dd	3	1	practice_slash	5	advance_on_keypress_SLASH	26	stimuli_distractor_trianglediamonds.svg	stimuli_distractor_diamondtriangles.svg	16	no	57	0	556	0	0			0	0			1				0	
6.6.1	win	2023-06-02	02:19:48	02:30:38	647108	5d849ee0a954540019f513dd	3	1	practice_slash	5	practice_slash	27	stimuli_target_rectanglediamonds.svg	stimuli_distractor_trianglediamonds.svg	4	yes	53	1	852	0	0			0	0			1				0	
6.6.1	win	2023-06-02	02:19:48	02:30:38	647108	5d849ee0a954540019f513dd	3	1	practice_slash	5	advance_on_keypress_SLASH	28	stimuli_target_rectanglediamonds.svg	stimuli_distractor_trianglediamonds.svg	4	yes	57	0	626	0	0			0	0			1				0	
6.6.1	win	2023-06-02	02:19:48	02:30:42	651383	5d849ee0a954540019f513dd	3	1	practice_slash	5	practice_slash	29	stimuli_distractor_trianglediamonds.svg	stimuli_target_diamondrectangles.svg	12	yes	0	0	2000	0	0			0	0			1				0	
6.6.1	win	2023-06-02	02:19:48	02:30:42	651383	5d849ee0a954540019f513dd	3	1	practice_slash	5	advance_on_keypress_SLASH	30	stimuli_distractor_trianglediamonds.svg	stimuli_target_diamondrectangles.svg	12	yes	57	0	342	0	0			0	0			1				0	
6.6.1	win	2023-06-02	02:19:48	02:30:46	655392	5d849ee0a954540019f513dd	3	1	practice_slash	5	practice_slash	31	stimuli_distractor_diamondtriangles.svg	stimuli_distractor_diamondtriangles.svg	13	no	0	1	2000	0	0			0	0			1				0	
6.6.1	win	2023-06-02	02:19:48	02:30:46	655392	5d849ee0a954540019f513dd	3	1	practice_slash	5	advance_on_keypress_SLASH	32	stimuli_distractor_diamondtriangles.svg	stimuli_distractor_diamondtriangles.svg	13	no	57	0	366	0	0			0	0			1				0	
6.6.1	win	2023-06-02	02:19:48	02:40:40	1248581	5d849ee0a954540019f513dd	3	1	main_slash	7	main_slash	1	stimuli_distractor_trianglediamonds.svg	stimuli_distractor_trianglediamonds.svg	34	no	0	1	2000	0	0			0	0			1				0	
6.6.1	win	2023-06-02	02:19:48	02:40:40	1248581	5d849ee0a954540019f513dd	3	1	main_slash	7	advance_on_keypress_SLASH	2	stimuli_distractor_trianglediamonds.svg	stimuli_distractor_trianglediamonds.svg	34	no	57	0	1959	0	0			0	0			1				0	
6.6.1	win	2023-06-02	02:19:48	02:40:43	1251898	5d849ee0a954540019f513dd	3	1	main_slash	7	main_slash	3	stimuli_target_rectanglediamonds.svg	stimuli_distractor_trianglediamonds.svg	2	yes	53	1	688	0	0			0	0			1				0	
6.6.1	win	2023-06-02	02:19:48	02:40:43	1251898	5d849ee0a954540019f513dd	3	1	main_slash	7	advance_on_keypress_SLASH	4	stimuli_target_rectanglediamonds.svg	stimuli_distractor_trianglediamonds.svg	2	yes	57	0	1955	0	0			0	0			1				0	
6.6.1	win	2023-06-02	02:19:48	02:40:46	1255227	5d849ee0a954540019f513dd	3	1	main_slash	7	main_slash	5	stimuli_target_squarediamonds.svg	stimuli_distractor_trianglediamonds.svg	4	yes	53	1	732	0	0			0	0			1				0	
6.6.1	win	2023-06-02	02:19:48	02:40:46	1255227	5d849ee0a954540019f513dd	3	1	main_slash	7	advance_on_keypress_SLASH	6	stimuli_target_squarediamonds.svg	stimuli_distractor_trianglediamonds.svg	4	yes	57	0	1574	0	0			0	0			1				0	
6.6.1	win	2023-06-02	02:19:48	02:40:49	1258168	5d849ee0a954540019f513dd	3	1	main_slash	7	main_slash	7	stimuli_distractor_trianglediamonds.svg	stimuli_target_squaretriangles.svg	11	yes	53	1	717	0	0			0	0			1				0	
6.6.1	win	2023-06-02	02:19:48	02:40:49	1258168	5d849ee0a954540019f513dd	3	1	main_slash	7	advance_on_keypress_SLASH	8	stimuli_distractor_trianglediamonds.svg	stimuli_target_squaretriangles.svg	11	yes	57	0	1040	0	0			0	0			1				0	
6.6.1	win	2023-06-02	02:19:48	02:40:52	1260611	5d849ee0a954540019f513dd	3	1	main_slash	7	main_slash	9	stimuli_distractor_diamondtriangles.svg	stimuli_target_rectanglediamonds.svg	14	yes	53	1	741	0	0			0	0			1				0	
6.6.1	win	2023-06-02	02:19:48	02:40:52	1260611	5d849ee0a954540019f513dd	3	1	main_slash	7	advance_on_keypress_SLASH	10	stimuli_distractor_diamondtriangles.svg	stimuli_target_rectanglediamonds.svg	14	yes	57	0	894	0	0			0	0			1				0	
6.6.1	win	2023-06-02	02:19:48	02:40:55	1264145	5d849ee0a954540019f513dd	3	1	main_slash	7	main_slash	11	stimuli_target_trianglesquares.svg	stimuli_distractor_trianglediamonds.svg	18	yes	0	0	2000	0	0			0	0			1				0	
6.6.1	win	2023-06-02	02:19:48	02:40:55	1264145	5d849ee0a954540019f513dd	3	1	main_slash	7	advance_on_keypress_SLASH	12	stimuli_target_trianglesquares.svg	stimuli_distractor_trianglediamonds.svg	18	yes	57	0	393	0	0			0	0			1				0	
6.6.1	win	2023-06-02	02:19:48	02:40:57	1266465	5d849ee0a954540019f513dd	3	1	main_slash	7	main_slash	13	stimuli_target_trianglesquares.svg	stimuli_distractor_diamondtriangles.svg	22	yes	53	1	1264	0	0			0	0			1				0	
6.6.1	win	2023-06-02	02:19:48	02:40:57	1266465	5d849ee0a954540019f513dd	3	1	main_slash	7	advance_on_keypress_SLASH	14	stimuli_target_trianglesquares.svg	stimuli_distractor_diamondtriangles.svg	22	yes	57	0	532	0	0			0	0			1				0	
6.6.1	win	2023-06-02	02:19:48	02:41:00	1268643	5d849ee0a954540019f513dd	3	1	main_slash	7	main_slash	15	stimuli_distractor_diamondtriangles.svg	stimuli_target_squarediamonds.svg	16	yes	53	1	981	0	0			0	0			1				0	
6.6.1	win	2023-06-02	02:19:48	02:41:00	1268643	5d849ee0a954540019f513dd	3	1	main_slash	7	advance_on_keypress_SLASH	16	stimuli_distractor_diamondtriangles.svg	stimuli_target_squarediamonds.svg	16	yes	57	0	494	0	0			0	0			1				0	
6.6.1	win	2023-06-02	02:19:48	02:41:02	1271051	5d849ee0a954540019f513dd	3	1	main_slash	7	main_slash	17	stimuli_target_rectanglediamonds.svg	stimuli_distractor_diamondtriangles.svg	6	yes	53	1	1256	0	0			0	0			1				0	
6.6.1	win	2023-06-02	02:19:48	02:41:02	1271051	5d849ee0a954540019f513dd	3	1	main_slash	7	advance_on_keypress_SLASH	18	stimuli_target_rectanglediamonds.svg	stimuli_distractor_diamondtriangles.svg	6	yes	57	0	654	0	0			0	0			1				0	
6.6.1	win	2023-06-02	02:19:48	02:41:05	1274366	5d849ee0a954540019f513dd	3	1	main_slash	7	main_slash	19	stimuli_distractor_diamondtriangles.svg	stimuli_target_trianglerectangles.svg	29	yes	0	0	2000	0	0			0	0			1				0	
6.6.1	win	2023-06-02	02:19:48	02:41:05	1274366	5d849ee0a954540019f513dd	3	1	main_slash	7	advance_on_keypress_SLASH	20	stimuli_distractor_diamondtriangles.svg	stimuli_target_trianglerectangles.svg	29	yes	57	0	384	0	0			0	0			1				0	
6.6.1	win	2023-06-02	02:19:48	02:41:07	1276451	5d849ee0a954540019f513dd	3	1	main_slash	7	main_slash	21	stimuli_distractor_diamondtriangles.svg	stimuli_target_rectangletriangles.svg	13	yes	53	1	1055	0	0			0	0			1				0	
6.6.1	win	2023-06-02	02:19:48	02:41:07	1276451	5d849ee0a954540019f513dd	3	1	main_slash	7	advance_on_keypress_SLASH	22	stimuli_distractor_diamondtriangles.svg	stimuli_target_rectangletriangles.svg	13	yes	57	0	757	0	0			0	0			1				0	
6.6.1	win	2023-06-02	02:19:48	02:41:10	1278755	5d849ee0a954540019f513dd	3	1	main_slash	7	main_slash	23	stimuli_target_squaretriangles.svg	stimuli_distractor_trianglediamonds.svg	3	yes	53	1	893	0	0			0	0			1				0	
6.6.1	win	2023-06-02	02:19:48	02:41:10	1278755	5d849ee0a954540019f513dd	3	1	main_slash	7	advance_on_keypress_SLASH	24	stimuli_target_squaretriangles.svg	stimuli_distractor_trianglediamonds.svg	3	yes	57	0	665	0	0			0	0			1				0	
6.6.1	win	2023-06-02	02:19:48	02:41:12	1280947	5d849ee0a954540019f513dd	3	1	main_slash	7	main_slash	25	stimuli_target_rectangletriangles.svg	stimuli_distractor_diamondtriangles.svg	5	yes	53	1	886	0	0			0	0			1				0	
6.6.1	win	2023-06-02	02:19:48	02:41:12	1280947	5d849ee0a954540019f513dd	3	1	main_slash	7	advance_on_keypress_SLASH	26	stimuli_target_rectangletriangles.svg	stimuli_distractor_diamondtriangles.svg	5	yes	57	0	722	0	0			0	0			1				0	
6.6.1	win	2023-06-02	02:19:48	02:41:14	1283351	5d849ee0a954540019f513dd	3	1	main_slash	7	main_slash	27	stimuli_target_rectangletriangles.svg	stimuli_distractor_trianglediamonds.svg	1	yes	53	1	1011	0	0			0	0			1				0	
6.6.1	win	2023-06-02	02:19:48	02:41:14	1283351	5d849ee0a954540019f513dd	3	1	main_slash	7	advance_on_keypress_SLASH	28	stimuli_target_rectangletriangles.svg	stimuli_distractor_trianglediamonds.svg	1	yes	57	0	673	0	0			0	0			1				0	
6.6.1	win	2023-06-02	02:19:48	02:41:16	1285459	5d849ee0a954540019f513dd	3	1	main_slash	7	main_slash	29	stimuli_distractor_diamondtriangles.svg	stimuli_target_squaretriangles.svg	15	yes	53	1	797	0	0			0	0			1				0	
6.6.1	win	2023-06-02	02:19:48	02:41:16	1285459	5d849ee0a954540019f513dd	3	1	main_slash	7	advance_on_keypress_SLASH	30	stimuli_distractor_diamondtriangles.svg	stimuli_target_squaretriangles.svg	15	yes	57	0	621	0	0			0	0			1				0	
6.6.1	win	2023-06-02	02:19:48	02:41:18	1287451	5d849ee0a954540019f513dd	3	1	main_slash	7	main_slash	31	stimuli_distractor_trianglediamonds.svg	stimuli_target_rectangletriangles.svg	9	yes	53	1	740	0	0			0	0			1				0	
6.6.1	win	2023-06-02	02:19:48	02:41:18	1287451	5d849ee0a954540019f513dd	3	1	main_slash	7	advance_on_keypress_SLASH	32	stimuli_distractor_trianglediamonds.svg	stimuli_target_rectangletriangles.svg	9	yes	57	0	542	0	0			0	0			1				0	
6.6.1	win	2023-06-02	02:19:48	02:41:22	1290645	5d849ee0a954540019f513dd	3	1	main_slash	7	main_slash	33	stimuli_distractor_trianglediamonds.svg	stimuli_target_trianglerectangles.svg	25	yes	0	0	2000	0	0			0	0			1				0	
6.6.1	win	2023-06-02	02:19:48	02:41:22	1290645	5d849ee0a954540019f513dd	3	1	main_slash	7	advance_on_keypress_SLASH	34	stimuli_distractor_trianglediamonds.svg	stimuli_target_trianglerectangles.svg	25	yes	57	0	533	0	0			0	0			1				0	
6.6.1	win	2023-06-02	02:19:48	02:41:25	1293840	5d849ee0a954540019f513dd	3	1	main_slash	7	main_slash	35	stimuli_target_diamondrectangles.svg	stimuli_distractor_trianglediamonds.svg	19	yes	0	0	2000	0	0			0	0			1				0	
6.6.1	win	2023-06-02	02:19:48	02:41:25	1293840	5d849ee0a954540019f513dd	3	1	main_slash	7	advance_on_keypress_SLASH	36	stimuli_target_diamondrectangles.svg	stimuli_distractor_trianglediamonds.svg	19	yes	57	0	567	0	0			0	0			1				0	
6.6.1	win	2023-06-02	02:19:48	02:41:27	1295850	5d849ee0a954540019f513dd	3	1	main_slash	7	main_slash	37	stimuli_distractor_trianglediamonds.svg	stimuli_target_squarediamonds.svg	12	yes	53	1	797	0	0			0	0			1				0	
6.6.1	win	2023-06-02	02:19:48	02:41:27	1295850	5d849ee0a954540019f513dd	3	1	main_slash	7	advance_on_keypress_SLASH	38	stimuli_distractor_trianglediamonds.svg	stimuli_target_squarediamonds.svg	12	yes	57	0	589	0	0			0	0			1				0	
6.6.1	win	2023-06-02	02:19:48	02:41:29	1297875	5d849ee0a954540019f513dd	3	1	main_slash	7	main_slash	39	stimuli_target_squarediamonds.svg	stimuli_distractor_diamondtriangles.svg	8	yes	53	1	796	0	0			0	0			1				0	
6.6.1	win	2023-06-02	02:19:48	02:41:29	1297875	5d849ee0a954540019f513dd	3	1	main_slash	7	advance_on_keypress_SLASH	40	stimuli_target_squarediamonds.svg	stimuli_distractor_diamondtriangles.svg	8	yes	57	0	492	0	0			0	0			1				0	
6.6.1	win	2023-06-02	02:19:48	02:41:32	1301009	5d849ee0a954540019f513dd	3	1	main_slash	7	main_slash	41	stimuli_distractor_trianglediamonds.svg	stimuli_distractor_trianglediamonds.svg	33	no	0	1	2000	0	0			0	0			1				0	
6.6.1	win	2023-06-02	02:19:48	02:41:32	1301009	5d849ee0a954540019f513dd	3	1	main_slash	7	advance_on_keypress_SLASH	42	stimuli_distractor_trianglediamonds.svg	stimuli_distractor_trianglediamonds.svg	33	no	57	0	478	0	0			0	0			1				0	
6.6.1	win	2023-06-02	02:19:48	02:41:35	1304152	5d849ee0a954540019f513dd	3	1	main_slash	7	main_slash	43	stimuli_distractor_diamondtriangles.svg	stimuli_target_diamondrectangles.svg	31	yes	0	0	2000	0	0			0	0			1				0	
6.6.1	win	2023-06-02	02:19:48	02:41:35	1304152	5d849ee0a954540019f513dd	3	1	main_slash	7	advance_on_keypress_SLASH	44	stimuli_distractor_diamondtriangles.svg	stimuli_target_diamondrectangles.svg	31	yes	57	0	417	0	0			0	0			1				0	
6.6.1	win	2023-06-02	02:19:48	02:41:37	1306027	5d849ee0a954540019f513dd	3	1	main_slash	7	main_slash	45	stimuli_distractor_trianglediamonds.svg	stimuli_target_rectanglediamonds.svg	10	yes	53	1	816	0	0			0	0			1				0	
6.6.1	win	2023-06-02	02:19:48	02:41:37	1306027	5d849ee0a954540019f513dd	3	1	main_slash	7	advance_on_keypress_SLASH	46	stimuli_distractor_trianglediamonds.svg	stimuli_target_rectanglediamonds.svg	10	yes	57	0	558	0	0			0	0			1				0	
6.6.1	win	2023-06-02	02:19:48	02:41:40	1309228	5d849ee0a954540019f513dd	3	1	main_slash	7	main_slash	47	stimuli_distractor_trianglediamonds.svg	stimuli_distractor_diamondtriangles.svg	36	no	0	1	2000	0	0			0	0			1				0	
6.6.1	win	2023-06-02	02:19:48	02:41:40	1309228	5d849ee0a954540019f513dd	3	1	main_slash	7	advance_on_keypress_SLASH	48	stimuli_distractor_trianglediamonds.svg	stimuli_distractor_diamondtriangles.svg	36	no	57	0	343	0	0			0	0			1				0	
6.6.1	win	2023-06-02	02:19:48	02:41:43	1312228	5d849ee0a954540019f513dd	3	1	main_slash	7	main_slash	49	stimuli_distractor_trianglediamonds.svg	stimuli_target_diamondsquares.svg	28	yes	0	0	2000	0	0			0	0			1				0	
6.6.1	win	2023-06-02	02:19:48	02:41:43	1312228	5d849ee0a954540019f513dd	3	1	main_slash	7	advance_on_keypress_SLASH	50	stimuli_distractor_trianglediamonds.svg	stimuli_target_diamondsquares.svg	28	yes	57	0	430	0	0			0	0			1				0	
6.6.1	win	2023-06-02	02:19:48	02:41:45	1314059	5d849ee0a954540019f513dd	3	1	main_slash	7	main_slash	51	stimuli_target_squaretriangles.svg	stimuli_distractor_diamondtriangles.svg	7	yes	53	1	747	0	0			0	0			1				0	
6.6.1	win	2023-06-02	02:19:48	02:41:45	1314059	5d849ee0a954540019f513dd	3	1	main_slash	7	advance_on_keypress_SLASH	52	stimuli_target_squaretriangles.svg	stimuli_distractor_diamondtriangles.svg	7	yes	57	0	605	0	0			0	0			1				0	
6.6.1	win	2023-06-02	02:19:48	02:41:48	1317295	5d849ee0a954540019f513dd	3	1	main_slash	7	main_slash	53	stimuli_target_diamondsquares.svg	stimuli_distractor_trianglediamonds.svg	20	yes	0	0	2000	0	0			0	0			1				0	
6.6.1	win	2023-06-02	02:19:48	02:41:48	1317295	5d849ee0a954540019f513dd	3	1	main_slash	7	advance_on_keypress_SLASH	54	stimuli_target_diamondsquares.svg	stimuli_distractor_trianglediamonds.svg	20	yes	57	0	443	0	0			0	0			1				0	
6.6.1	win	2023-06-02	02:19:48	02:41:51	1320382	5d849ee0a954540019f513dd	3	1	main_slash	7	main_slash	55	stimuli_distractor_diamondtriangles.svg	stimuli_target_diamondsquares.svg	32	yes	0	0	2000	0	0			0	0			1				0	
6.6.1	win	2023-06-02	02:19:48	02:41:51	1320382	5d849ee0a954540019f513dd	3	1	main_slash	7	advance_on_keypress_SLASH	56	stimuli_distractor_diamondtriangles.svg	stimuli_target_diamondsquares.svg	32	yes	57	0	320	0	0			0	0			1				0	
6.6.1	win	2023-06-02	02:19:48	02:41:54	1323370	5d849ee0a954540019f513dd	3	1	main_slash	7	main_slash	57	stimuli_target_diamondsquares.svg	stimuli_distractor_diamondtriangles.svg	24	yes	0	0	2000	0	0			0	0			1				0	
6.6.1	win	2023-06-02	02:19:48	02:41:54	1323370	5d849ee0a954540019f513dd	3	1	main_slash	7	advance_on_keypress_SLASH	58	stimuli_target_diamondsquares.svg	stimuli_distractor_diamondtriangles.svg	24	yes	57	0	368	0	0			0	0			1				0	
6.6.1	win	2023-06-02	02:19:48	02:41:57	1326405	5d849ee0a954540019f513dd	3	1	main_slash	7	main_slash	59	stimuli_distractor_trianglediamonds.svg	stimuli_target_diamondrectangles.svg	27	yes	0	0	2000	0	0			0	0			1				0	
6.6.1	win	2023-06-02	02:19:48	02:41:57	1326405	5d849ee0a954540019f513dd	3	1	main_slash	7	advance_on_keypress_SLASH	60	stimuli_distractor_trianglediamonds.svg	stimuli_target_diamondrectangles.svg	27	yes	57	0	248	0	0			0	0			1				0	
6.6.1	win	2023-06-02	02:19:48	02:42:00	1329305	5d849ee0a954540019f513dd	3	1	main_slash	7	main_slash	61	stimuli_target_diamondrectangles.svg	stimuli_distractor_diamondtriangles.svg	23	yes	0	0	2000	0	0			0	0			1				0	
6.6.1	win	2023-06-02	02:19:48	02:42:00	1329305	5d849ee0a954540019f513dd	3	1	main_slash	7	advance_on_keypress_SLASH	62	stimuli_target_diamondrectangles.svg	stimuli_distractor_diamondtriangles.svg	23	yes	57	0	316	0	0			0	0			1				0	
6.6.1	win	2023-06-02	02:19:48	02:42:03	1331859	5d849ee0a954540019f513dd	3	1	main_slash	7	main_slash	63	stimuli_distractor_trianglediamonds.svg	stimuli_target_trianglesquares.svg	26	yes	53	1	1597	0	0			0	0			1				0	
6.6.1	win	2023-06-02	02:19:48	02:42:03	1331859	5d849ee0a954540019f513dd	3	1	main_slash	7	advance_on_keypress_SLASH	64	stimuli_distractor_trianglediamonds.svg	stimuli_target_trianglesquares.svg	26	yes	57	0	588	0	0			0	0			1				0	
6.6.1	win	2023-06-02	02:19:48	02:42:06	1334747	5d849ee0a954540019f513dd	3	1	main_slash	7	main_slash	65	stimuli_target_trianglerectangles.svg	stimuli_distractor_diamondtriangles.svg	21	yes	53	1	1652	0	0			0	0			1				0	
6.6.1	win	2023-06-02	02:19:48	02:42:06	1334747	5d849ee0a954540019f513dd	3	1	main_slash	7	advance_on_keypress_SLASH	66	stimuli_target_trianglerectangles.svg	stimuli_distractor_diamondtriangles.svg	21	yes	57	0	561	0	0			0	0			1				0	
6.6.1	win	2023-06-02	02:19:48	02:42:09	1337945	5d849ee0a954540019f513dd	3	1	main_slash	7	main_slash	67	stimuli_distractor_diamondtriangles.svg	stimuli_distractor_trianglediamonds.svg	38	no	0	1	2000	0	0			0	0			1				0	
6.6.1	win	2023-06-02	02:19:48	02:42:09	1337945	5d849ee0a954540019f513dd	3	1	main_slash	7	advance_on_keypress_SLASH	68	stimuli_distractor_diamondtriangles.svg	stimuli_distractor_trianglediamonds.svg	38	no	57	0	441	0	0			0	0			1				0	
6.6.1	win	2023-06-02	02:19:48	02:42:12	1341045	5d849ee0a954540019f513dd	3	1	main_slash	7	main_slash	69	stimuli_distractor_trianglediamonds.svg	stimuli_distractor_diamondtriangles.svg	35	no	0	1	2000	0	0			0	0			1				0	
6.6.1	win	2023-06-02	02:19:48	02:42:12	1341045	5d849ee0a954540019f513dd	3	1	main_slash	7	advance_on_keypress_SLASH	70	stimuli_distractor_trianglediamonds.svg	stimuli_distractor_diamondtriangles.svg	35	no	57	0	293	0	0			0	0			1				0	
6.6.1	win	2023-06-02	02:19:48	02:42:15	1343998	5d849ee0a954540019f513dd	3	1	main_slash	7	main_slash	71	stimuli_distractor_diamondtriangles.svg	stimuli_distractor_diamondtriangles.svg	39	no	0	1	2000	0	0			0	0			1				0	
6.6.1	win	2023-06-02	02:19:48	02:42:15	1343998	5d849ee0a954540019f513dd	3	1	main_slash	7	advance_on_keypress_SLASH	72	stimuli_distractor_diamondtriangles.svg	stimuli_distractor_diamondtriangles.svg	39	no	57	0	263	0	0			0	0			1				0	
6.6.1	win	2023-06-02	02:19:48	02:42:18	1346912	5d849ee0a954540019f513dd	3	1	main_slash	7	main_slash	73	stimuli_distractor_diamondtriangles.svg	stimuli_distractor_diamondtriangles.svg	40	no	0	1	2000	0	0			0	0			1				0	
6.6.1	win	2023-06-02	02:19:48	02:42:18	1346912	5d849ee0a954540019f513dd	3	1	main_slash	7	advance_on_keypress_SLASH	74	stimuli_distractor_diamondtriangles.svg	stimuli_distractor_diamondtriangles.svg	40	no	57	0	42	0	0			0	0			1				0	
6.6.1	win	2023-06-02	02:19:48	02:42:21	1349612	5d849ee0a954540019f513dd	3	1	main_slash	7	main_slash	75	stimuli_distractor_diamondtriangles.svg	stimuli_distractor_trianglediamonds.svg	37	no	0	1	2000	0	0			0	0			1				0	
6.6.1	win	2023-06-02	02:19:48	02:42:21	1349612	5d849ee0a954540019f513dd	3	1	main_slash	7	advance_on_keypress_SLASH	76	stimuli_distractor_diamondtriangles.svg	stimuli_distractor_trianglediamonds.svg	37	no	57	0	414	0	0			0	0			1				0	
6.6.1	win	2023-06-02	02:19:48	02:42:23	1351580	5d849ee0a954540019f513dd	3	1	main_slash	7	main_slash	77	stimuli_distractor_diamondtriangles.svg	stimuli_target_trianglesquares.svg	30	yes	53	1	900	0	0			0	0			1				0	
6.6.1	win	2023-06-02	02:19:48	02:42:23	1351580	5d849ee0a954540019f513dd	3	1	main_slash	7	advance_on_keypress_SLASH	78	stimuli_distractor_diamondtriangles.svg	stimuli_target_trianglesquares.svg	30	yes	57	0	632	0	0			0	0			1				0	
6.6.1	win	2023-06-02	02:19:48	02:42:25	1353923	5d849ee0a954540019f513dd	3	1	main_slash	7	main_slash	79	stimuli_target_trianglerectangles.svg	stimuli_distractor_trianglediamonds.svg	17	yes	53	1	1061	0	0			0	0			1				0	
6.6.1	win	2023-06-02	02:19:48	02:42:25	1353923	5d849ee0a954540019f513dd	3	1	main_slash	7	advance_on_keypress_SLASH	80	stimuli_target_trianglerectangles.svg	stimuli_distractor_trianglediamonds.svg	17	yes	57	0	538	0	0			0	0			1				0	
6.6.1	win	2023-06-02	02:19:48	02:42:27	1356235	5d849ee0a954540019f513dd	3	1	main_slash	7	main_slash	81	stimuli_target_squarediamonds.svg	stimuli_distractor_diamondtriangles.svg	8	yes	53	1	1141	0	0			0	0			1				0	
6.6.1	win	2023-06-02	02:19:48	02:42:27	1356235	5d849ee0a954540019f513dd	3	1	main_slash	7	advance_on_keypress_SLASH	82	stimuli_target_squarediamonds.svg	stimuli_distractor_diamondtriangles.svg	8	yes	57	0	454	0	0			0	0			1				0	
6.6.1	win	2023-06-02	02:19:48	02:42:30	1359338	5d849ee0a954540019f513dd	3	1	main_slash	7	main_slash	83	stimuli_distractor_trianglediamonds.svg	stimuli_target_rectanglediamonds.svg	10	yes	0	0	2000	0	0			0	0			1				0	
6.6.1	win	2023-06-02	02:19:48	02:42:30	1359338	5d849ee0a954540019f513dd	3	1	main_slash	7	advance_on_keypress_SLASH	84	stimuli_distractor_trianglediamonds.svg	stimuli_target_rectanglediamonds.svg	10	yes	57	0	290	0	0			0	0			1				0	
6.6.1	win	2023-06-02	02:19:48	02:42:33	1361590	5d849ee0a954540019f513dd	3	1	main_slash	7	main_slash	85	stimuli_target_rectanglediamonds.svg	stimuli_distractor_trianglediamonds.svg	2	yes	53	1	1317	0	0			0	0			1				0	
6.6.1	win	2023-06-02	02:19:48	02:42:33	1361590	5d849ee0a954540019f513dd	3	1	main_slash	7	advance_on_keypress_SLASH	86	stimuli_target_rectanglediamonds.svg	stimuli_distractor_trianglediamonds.svg	2	yes	57	0	472	0	0			0	0			1				0	
6.6.1	win	2023-06-02	02:19:48	02:42:35	1363603	5d849ee0a954540019f513dd	3	1	main_slash	7	main_slash	87	stimuli_distractor_diamondtriangles.svg	stimuli_target_rectangletriangles.svg	13	yes	53	1	892	0	0			0	0			1				0	
6.6.1	win	2023-06-02	02:19:48	02:42:35	1363603	5d849ee0a954540019f513dd	3	1	main_slash	7	advance_on_keypress_SLASH	88	stimuli_distractor_diamondtriangles.svg	stimuli_target_rectangletriangles.svg	13	yes	57	0	391	0	0			0	0			1				0	
6.6.1	win	2023-06-02	02:19:48	02:42:37	1365507	5d849ee0a954540019f513dd	3	1	main_slash	7	main_slash	89	stimuli_distractor_diamondtriangles.svg	stimuli_target_squaretriangles.svg	15	yes	53	1	862	0	0			0	0			1				0	
6.6.1	win	2023-06-02	02:19:48	02:42:37	1365507	5d849ee0a954540019f513dd	3	1	main_slash	7	advance_on_keypress_SLASH	90	stimuli_distractor_diamondtriangles.svg	stimuli_target_squaretriangles.svg	15	yes	57	0	427	0	0			0	0			1				0	
6.6.1	win	2023-06-02	02:19:48	02:42:39	1368443	5d849ee0a954540019f513dd	3	1	main_slash	7	main_slash	91	stimuli_target_trianglesquares.svg	stimuli_distractor_trianglediamonds.svg	18	yes	53	1	1881	0	0			0	0			1				0	
6.6.1	win	2023-06-02	02:19:48	02:42:39	1368443	5d849ee0a954540019f513dd	3	1	main_slash	7	advance_on_keypress_SLASH	92	stimuli_target_trianglesquares.svg	stimuli_distractor_trianglediamonds.svg	18	yes	57	0	381	0	0			0	0			1				0	
6.6.1	win	2023-06-02	02:19:48	02:42:42	1370636	5d849ee0a954540019f513dd	3	1	main_slash	7	main_slash	93	stimuli_target_trianglerectangles.svg	stimuli_distractor_diamondtriangles.svg	21	yes	53	1	1157	0	0			0	0			1				0	
6.6.1	win	2023-06-02	02:19:48	02:42:42	1370636	5d849ee0a954540019f513dd	3	1	main_slash	7	advance_on_keypress_SLASH	94	stimuli_target_trianglerectangles.svg	stimuli_distractor_diamondtriangles.svg	21	yes	57	0	510	0	0			0	0			1				0	
6.6.1	win	2023-06-02	02:19:48	02:42:44	1372787	5d849ee0a954540019f513dd	3	1	main_slash	7	main_slash	95	stimuli_distractor_trianglediamonds.svg	stimuli_target_rectangletriangles.svg	9	yes	53	1	992	0	0			0	0			1				0	
6.6.1	win	2023-06-02	02:19:48	02:42:44	1372787	5d849ee0a954540019f513dd	3	1	main_slash	7	advance_on_keypress_SLASH	96	stimuli_distractor_trianglediamonds.svg	stimuli_target_rectangletriangles.svg	9	yes	57	0	440	0	0			0	0			1				0	
6.6.1	win	2023-06-02	02:19:48	02:42:46	1374766	5d849ee0a954540019f513dd	3	1	main_slash	7	main_slash	97	stimuli_target_squaretriangles.svg	stimuli_distractor_trianglediamonds.svg	3	yes	53	1	885	0	0			0	0			1				0	
6.6.1	win	2023-06-02	02:19:48	02:42:46	1374766	5d849ee0a954540019f513dd	3	1	main_slash	7	advance_on_keypress_SLASH	98	stimuli_target_squaretriangles.svg	stimuli_distractor_trianglediamonds.svg	3	yes	57	0	321	0	0			0	0			1				0	
6.6.1	win	2023-06-02	02:19:48	02:42:49	1377736	5d849ee0a954540019f513dd	3	1	main_slash	7	main_slash	99	stimuli_distractor_diamondtriangles.svg	stimuli_target_rectanglediamonds.svg	14	yes	0	0	2000	0	0			0	0			1				0	
6.6.1	win	2023-06-02	02:19:48	02:42:49	1377736	5d849ee0a954540019f513dd	3	1	main_slash	7	advance_on_keypress_SLASH	100	stimuli_distractor_diamondtriangles.svg	stimuli_target_rectanglediamonds.svg	14	yes	57	0	306	0	0			0	0			1				0	
6.6.1	win	2023-06-02	02:19:48	02:42:50	1379467	5d849ee0a954540019f513dd	3	1	main_slash	7	main_slash	101	stimuli_distractor_trianglediamonds.svg	stimuli_target_diamondsquares.svg	28	yes	53	1	773	0	0			0	0			1				0	
6.6.1	win	2023-06-02	02:19:48	02:42:50	1379467	5d849ee0a954540019f513dd	3	1	main_slash	7	advance_on_keypress_SLASH	102	stimuli_distractor_trianglediamonds.svg	stimuli_target_diamondsquares.svg	28	yes	57	0	349	0	0			0	0			1				0	
6.6.1	win	2023-06-02	02:19:48	02:42:52	1381341	5d849ee0a954540019f513dd	3	1	main_slash	7	main_slash	103	stimuli_distractor_diamondtriangles.svg	stimuli_target_trianglerectangles.svg	29	yes	53	1	869	0	0			0	0			1				0	
6.6.1	win	2023-06-02	02:19:48	02:42:52	1381341	5d849ee0a954540019f513dd	3	1	main_slash	7	advance_on_keypress_SLASH	104	stimuli_distractor_diamondtriangles.svg	stimuli_target_trianglerectangles.svg	29	yes	57	0	331	0	0			0	0			1				0	
6.6.1	win	2023-06-02	02:19:48	02:42:54	1383043	5d849ee0a954540019f513dd	3	1	main_slash	7	main_slash	105	stimuli_target_trianglesquares.svg	stimuli_distractor_diamondtriangles.svg	22	yes	53	1	731	0	0			0	0			1				0	
6.6.1	win	2023-06-02	02:19:48	02:42:54	1383043	5d849ee0a954540019f513dd	3	1	main_slash	7	advance_on_keypress_SLASH	106	stimuli_target_trianglesquares.svg	stimuli_distractor_diamondtriangles.svg	22	yes	57	0	413	0	0			0	0			1				0	
6.6.1	win	2023-06-02	02:19:48	02:42:56	1384795	5d849ee0a954540019f513dd	3	1	main_slash	7	main_slash	107	stimuli_target_squaretriangles.svg	stimuli_distractor_diamondtriangles.svg	7	yes	53	1	683	0	0			0	0			1				0	
6.6.1	win	2023-06-02	02:19:48	02:42:56	1384795	5d849ee0a954540019f513dd	3	1	main_slash	7	advance_on_keypress_SLASH	108	stimuli_target_squaretriangles.svg	stimuli_distractor_diamondtriangles.svg	7	yes	57	0	311	0	0			0	0			1				0	
6.6.1	win	2023-06-02	02:19:48	02:42:58	1387155	5d849ee0a954540019f513dd	3	1	main_slash	7	main_slash	109	stimuli_target_trianglerectangles.svg	stimuli_distractor_trianglediamonds.svg	17	yes	53	1	1386	0	0			0	0			1				0	
6.6.1	win	2023-06-02	02:19:48	02:42:58	1387155	5d849ee0a954540019f513dd	3	1	main_slash	7	advance_on_keypress_SLASH	110	stimuli_target_trianglerectangles.svg	stimuli_distractor_trianglediamonds.svg	17	yes	57	0	1041	0	0			0	0			1				0	
6.6.1	win	2023-06-02	02:19:48	02:43:01	1389560	5d849ee0a954540019f513dd	3	1	main_slash	7	main_slash	111	stimuli_target_diamondsquares.svg	stimuli_distractor_trianglediamonds.svg	20	yes	53	1	702	0	0			0	0			1				0	
6.6.1	win	2023-06-02	02:19:48	02:43:01	1389560	5d849ee0a954540019f513dd	3	1	main_slash	7	advance_on_keypress_SLASH	112	stimuli_target_diamondsquares.svg	stimuli_distractor_trianglediamonds.svg	20	yes	57	0	330	0	0			0	0			1				0	
6.6.1	win	2023-06-02	02:19:48	02:43:02	1391163	5d849ee0a954540019f513dd	3	1	main_slash	7	main_slash	113	stimuli_target_rectangletriangles.svg	stimuli_distractor_trianglediamonds.svg	1	yes	53	1	618	0	0			0	0			1				0	
6.6.1	win	2023-06-02	02:19:48	02:43:02	1391163	5d849ee0a954540019f513dd	3	1	main_slash	7	advance_on_keypress_SLASH	114	stimuli_target_rectangletriangles.svg	stimuli_distractor_trianglediamonds.svg	1	yes	57	0	273	0	0			0	0			1				0	
6.6.1	win	2023-06-02	02:19:48	02:43:04	1392652	5d849ee0a954540019f513dd	3	1	main_slash	7	main_slash	115	stimuli_target_diamondrectangles.svg	stimuli_distractor_diamondtriangles.svg	23	yes	53	1	556	0	0			0	0			1				0	
6.6.1	win	2023-06-02	02:19:48	02:43:04	1392652	5d849ee0a954540019f513dd	3	1	main_slash	7	advance_on_keypress_SLASH	116	stimuli_target_diamondrectangles.svg	stimuli_distractor_diamondtriangles.svg	23	yes	57	0	341	0	0			0	0			1				0	
6.6.1	win	2023-06-02	02:19:48	02:43:05	1394177	5d849ee0a954540019f513dd	3	1	main_slash	7	main_slash	117	stimuli_target_diamondrectangles.svg	stimuli_distractor_trianglediamonds.svg	19	yes	53	1	518	0	0			0	0			1				0	
6.6.1	win	2023-06-02	02:19:48	02:43:05	1394177	5d849ee0a954540019f513dd	3	1	main_slash	7	advance_on_keypress_SLASH	118	stimuli_target_diamondrectangles.svg	stimuli_distractor_trianglediamonds.svg	19	yes	57	0	345	0	0			0	0			1				0	
6.6.1	win	2023-06-02	02:19:48	02:43:08	1397187	5d849ee0a954540019f513dd	3	1	main_slash	7	main_slash	119	stimuli_distractor_diamondtriangles.svg	stimuli_target_trianglesquares.svg	30	yes	0	0	2000	0	0			0	0			1				0	
6.6.1	win	2023-06-02	02:19:48	02:43:08	1397187	5d849ee0a954540019f513dd	3	1	main_slash	7	advance_on_keypress_SLASH	120	stimuli_distractor_diamondtriangles.svg	stimuli_target_trianglesquares.svg	30	yes	57	0	440	0	0			0	0			1				0	
6.6.1	win	2023-06-02	02:19:48	02:43:11	1400268	5d849ee0a954540019f513dd	3	1	main_slash	7	main_slash	121	stimuli_distractor_diamondtriangles.svg	stimuli_distractor_diamondtriangles.svg	39	no	0	1	2000	0	0			0	0			1				0	
6.6.1	win	2023-06-02	02:19:48	02:43:11	1400268	5d849ee0a954540019f513dd	3	1	main_slash	7	advance_on_keypress_SLASH	122	stimuli_distractor_diamondtriangles.svg	stimuli_distractor_diamondtriangles.svg	39	no	57	0	333	0	0			0	0			1				0	
6.6.1	win	2023-06-02	02:19:48	02:43:13	1402007	5d849ee0a954540019f513dd	3	1	main_slash	7	main_slash	123	stimuli_distractor_diamondtriangles.svg	stimuli_target_diamondsquares.svg	32	yes	53	1	750	0	0			0	0			1				0	
6.6.1	win	2023-06-02	02:19:48	02:43:13	1402007	5d849ee0a954540019f513dd	3	1	main_slash	7	advance_on_keypress_SLASH	124	stimuli_distractor_diamondtriangles.svg	stimuli_target_diamondsquares.svg	32	yes	57	0	247	0	0			0	0			1				0	
6.6.1	win	2023-06-02	02:19:48	02:43:15	1403596	5d849ee0a954540019f513dd	3	1	main_slash	7	main_slash	125	stimuli_distractor_diamondtriangles.svg	stimuli_distractor_trianglediamonds.svg	38	no	53	0	684	0	0			0	0			1				0	
6.6.1	win	2023-06-02	02:19:48	02:43:15	1403596	5d849ee0a954540019f513dd	3	1	main_slash	7	advance_on_keypress_SLASH	126	stimuli_distractor_diamondtriangles.svg	stimuli_distractor_trianglediamonds.svg	38	no	57	0	287	0	0			0	0			1				0	
6.6.1	win	2023-06-02	02:19:48	02:43:18	1406553	5d849ee0a954540019f513dd	3	1	main_slash	7	main_slash	127	stimuli_distractor_trianglediamonds.svg	stimuli_distractor_trianglediamonds.svg	33	no	0	1	2000	0	0			0	0			1				0	
6.6.1	win	2023-06-02	02:19:48	02:43:18	1406553	5d849ee0a954540019f513dd	3	1	main_slash	7	advance_on_keypress_SLASH	128	stimuli_distractor_trianglediamonds.svg	stimuli_distractor_trianglediamonds.svg	33	no	57	0	353	0	0			0	0			1				0	
6.6.1	win	2023-06-02	02:19:48	02:43:20	1408555	5d849ee0a954540019f513dd	3	1	main_slash	7	main_slash	129	stimuli_distractor_trianglediamonds.svg	stimuli_target_diamondrectangles.svg	27	yes	53	1	993	0	0			0	0			1				0	
6.6.1	win	2023-06-02	02:19:48	02:43:20	1408555	5d849ee0a954540019f513dd	3	1	main_slash	7	advance_on_keypress_SLASH	130	stimuli_distractor_trianglediamonds.svg	stimuli_target_diamondrectangles.svg	27	yes	57	0	305	0	0			0	0			1				0	
6.6.1	win	2023-06-02	02:19:48	02:43:21	1410141	5d849ee0a954540019f513dd	3	1	main_slash	7	main_slash	131	stimuli_distractor_trianglediamonds.svg	stimuli_target_squarediamonds.svg	12	yes	53	1	636	0	0			0	0			1				0	
6.6.1	win	2023-06-02	02:19:48	02:43:21	1410141	5d849ee0a954540019f513dd	3	1	main_slash	7	advance_on_keypress_SLASH	132	stimuli_distractor_trianglediamonds.svg	stimuli_target_squarediamonds.svg	12	yes	57	0	298	0	0			0	0			1				0	
6.6.1	win	2023-06-02	02:19:48	02:43:23	1411691	5d849ee0a954540019f513dd	3	1	main_slash	7	main_slash	133	stimuli_target_squarediamonds.svg	stimuli_distractor_trianglediamonds.svg	4	yes	53	1	613	0	0			0	0			1				0	
6.6.1	win	2023-06-02	02:19:48	02:43:23	1411691	5d849ee0a954540019f513dd	3	1	main_slash	7	advance_on_keypress_SLASH	134	stimuli_target_squarediamonds.svg	stimuli_distractor_trianglediamonds.svg	4	yes	57	0	299	0	0			0	0			1				0	
6.6.1	win	2023-06-02	02:19:48	02:43:24	1413299	5d849ee0a954540019f513dd	3	1	main_slash	7	main_slash	135	stimuli_target_diamondsquares.svg	stimuli_distractor_diamondtriangles.svg	24	yes	53	1	654	0	0			0	0			1				0	
6.6.1	win	2023-06-02	02:19:48	02:43:24	1413299	5d849ee0a954540019f513dd	3	1	main_slash	7	advance_on_keypress_SLASH	136	stimuli_target_diamondsquares.svg	stimuli_distractor_diamondtriangles.svg	24	yes	57	0	283	0	0			0	0			1				0	
6.6.1	win	2023-06-02	02:19:48	02:43:27	1416228	5d849ee0a954540019f513dd	3	1	main_slash	7	main_slash	137	stimuli_distractor_diamondtriangles.svg	stimuli_distractor_diamondtriangles.svg	40	no	0	1	2000	0	0			0	0			1				0	
6.6.1	win	2023-06-02	02:19:48	02:43:27	1416228	5d849ee0a954540019f513dd	3	1	main_slash	7	advance_on_keypress_SLASH	138	stimuli_distractor_diamondtriangles.svg	stimuli_distractor_diamondtriangles.svg	40	no	57	0	414	0	0			0	0			1				0	
6.6.1	win	2023-06-02	02:19:48	02:43:30	1419299	5d849ee0a954540019f513dd	3	1	main_slash	7	main_slash	139	stimuli_distractor_trianglediamonds.svg	stimuli_distractor_diamondtriangles.svg	35	no	0	1	2000	0	0			0	0			1				0	
6.6.1	win	2023-06-02	02:19:48	02:43:30	1419299	5d849ee0a954540019f513dd	3	1	main_slash	7	advance_on_keypress_SLASH	140	stimuli_distractor_trianglediamonds.svg	stimuli_distractor_diamondtriangles.svg	35	no	57	0	339	0	0			0	0			1				0	
6.6.1	win	2023-06-02	02:19:48	02:43:33	1422295	5d849ee0a954540019f513dd	3	1	main_slash	7	main_slash	141	stimuli_distractor_diamondtriangles.svg	stimuli_distractor_trianglediamonds.svg	37	no	0	1	2000	0	0			0	0			1				0	
6.6.1	win	2023-06-02	02:19:48	02:43:33	1422295	5d849ee0a954540019f513dd	3	1	main_slash	7	advance_on_keypress_SLASH	142	stimuli_distractor_diamondtriangles.svg	stimuli_distractor_trianglediamonds.svg	37	no	57	0	451	0	0			0	0			1				0	
6.6.1	win	2023-06-02	02:19:48	02:43:36	1425394	5d849ee0a954540019f513dd	3	1	main_slash	7	main_slash	143	stimuli_distractor_trianglediamonds.svg	stimuli_distractor_diamondtriangles.svg	36	no	0	1	2000	0	0			0	0			1				0	
6.6.1	win	2023-06-02	02:19:48	02:43:36	1425394	5d849ee0a954540019f513dd	3	1	main_slash	7	advance_on_keypress_SLASH	144	stimuli_distractor_trianglediamonds.svg	stimuli_distractor_diamondtriangles.svg	36	no	57	0	639	0	0			0	0			1				0	
6.6.1	win	2023-06-02	02:19:48	02:43:38	1427301	5d849ee0a954540019f513dd	3	1	main_slash	7	main_slash	145	stimuli_target_rectangletriangles.svg	stimuli_distractor_diamondtriangles.svg	5	yes	53	1	596	0	0			0	0			1				0	
6.6.1	win	2023-06-02	02:19:48	02:43:38	1427301	5d849ee0a954540019f513dd	3	1	main_slash	7	advance_on_keypress_SLASH	146	stimuli_target_rectangletriangles.svg	stimuli_distractor_diamondtriangles.svg	5	yes	57	0	331	0	0			0	0			1				0	
6.6.1	win	2023-06-02	02:19:48	02:43:41	1430280	5d849ee0a954540019f513dd	3	1	main_slash	7	main_slash	147	stimuli_distractor_trianglediamonds.svg	stimuli_target_trianglerectangles.svg	25	yes	0	0	2000	0	0			0	0			1				0	
6.6.1	win	2023-06-02	02:19:48	02:43:41	1430280	5d849ee0a954540019f513dd	3	1	main_slash	7	advance_on_keypress_SLASH	148	stimuli_distractor_trianglediamonds.svg	stimuli_target_trianglerectangles.svg	25	yes	57	0	428	0	0			0	0			1				0	
6.6.1	win	2023-06-02	02:19:48	02:43:43	1432267	5d849ee0a954540019f513dd	3	1	main_slash	7	main_slash	149	stimuli_distractor_diamondtriangles.svg	stimuli_target_diamondrectangles.svg	31	yes	53	1	897	0	0			0	0			1				0	
6.6.1	win	2023-06-02	02:19:48	02:43:43	1432267	5d849ee0a954540019f513dd	3	1	main_slash	7	advance_on_keypress_SLASH	150	stimuli_distractor_diamondtriangles.svg	stimuli_target_diamondrectangles.svg	31	yes	57	0	381	0	0			0	0			1				0	
6.6.1	win	2023-06-02	02:19:48	02:43:45	1434016	5d849ee0a954540019f513dd	3	1	main_slash	7	main_slash	151	stimuli_target_rectanglediamonds.svg	stimuli_distractor_diamondtriangles.svg	6	yes	53	1	708	0	0			0	0			1				0	
6.6.1	win	2023-06-02	02:19:48	02:43:45	1434016	5d849ee0a954540019f513dd	3	1	main_slash	7	advance_on_keypress_SLASH	152	stimuli_target_rectanglediamonds.svg	stimuli_distractor_diamondtriangles.svg	6	yes	57	0	327	0	0			0	0			1				0	
6.6.1	win	2023-06-02	02:19:48	02:43:47	1435973	5d849ee0a954540019f513dd	3	1	main_slash	7	main_slash	153	stimuli_distractor_trianglediamonds.svg	stimuli_target_squaretriangles.svg	11	yes	53	1	976	0	0			0	0			1				0	
6.6.1	win	2023-06-02	02:19:48	02:43:47	1435973	5d849ee0a954540019f513dd	3	1	main_slash	7	advance_on_keypress_SLASH	154	stimuli_distractor_trianglediamonds.svg	stimuli_target_squaretriangles.svg	11	yes	57	0	329	0	0			0	0			1				0	
6.6.1	win	2023-06-02	02:19:48	02:43:49	1437683	5d849ee0a954540019f513dd	3	1	main_slash	7	main_slash	155	stimuli_distractor_diamondtriangles.svg	stimuli_target_squarediamonds.svg	16	yes	53	1	730	0	0			0	0			1				0	
6.6.1	win	2023-06-02	02:19:48	02:43:49	1437683	5d849ee0a954540019f513dd	3	1	main_slash	7	advance_on_keypress_SLASH	156	stimuli_distractor_diamondtriangles.svg	stimuli_target_squarediamonds.svg	16	yes	57	0	228	0	0			0	0			1				0	
6.6.1	win	2023-06-02	02:19:48	02:43:52	1440561	5d849ee0a954540019f513dd	3	1	main_slash	7	main_slash	157	stimuli_distractor_trianglediamonds.svg	stimuli_distractor_trianglediamonds.svg	34	no	0	1	2000	0	0			0	0			1				0	
6.6.1	win	2023-06-02	02:19:48	02:43:52	1440561	5d849ee0a954540019f513dd	3	1	main_slash	7	advance_on_keypress_SLASH	158	stimuli_distractor_trianglediamonds.svg	stimuli_distractor_trianglediamonds.svg	34	no	57	0	257	0	0			0	0			1				0	
6.6.1	win	2023-06-02	02:19:48	02:43:53	1442196	5d849ee0a954540019f513dd	3	1	main_slash	7	main_slash	159	stimuli_distractor_trianglediamonds.svg	stimuli_target_trianglesquares.svg	26	yes	53	1	717	0	0			0	0			1				0	
6.6.1	win	2023-06-02	02:19:48	02:43:53	1442196	5d849ee0a954540019f513dd	3	1	main_slash	7	advance_on_keypress_SLASH	160	stimuli_distractor_trianglediamonds.svg	stimuli_target_trianglesquares.svg	26	yes	57	0	280	0	0			0	0			1				0	
6.6.1	win	2023-06-02	02:19:48	02:46:15	1583761	5d849ee0a954540019f513dd	3	1	practice_z	9	practice_z	1	stimuli_distractor_diamondtriangles.svg	stimuli_target_trianglerectangles.svg	9	yes	44	1	636	0	0			0	0			1				0	
6.6.1	win	2023-06-02	02:19:48	02:46:15	1583761	5d849ee0a954540019f513dd	3	1	practice_z	9	advance_on_keypress_ZEE	2	stimuli_distractor_diamondtriangles.svg	stimuli_target_trianglerectangles.svg	9	yes	57	0	626	0	0			0	0			1				0	
6.6.1	win	2023-06-02	02:19:48	02:46:18	1586510	5d849ee0a954540019f513dd	3	1	practice_z	9	practice_z	3	stimuli_target_rectanglediamonds.svg	stimuli_distractor_trianglediamonds.svg	4	yes	44	1	464	0	0			0	0			1				0	
6.6.1	win	2023-06-02	02:19:48	02:46:18	1586510	5d849ee0a954540019f513dd	3	1	practice_z	9	advance_on_keypress_ZEE	4	stimuli_target_rectanglediamonds.svg	stimuli_distractor_trianglediamonds.svg	4	yes	57	0	420	0	0			0	0			1				0	
6.6.1	win	2023-06-02	02:19:48	02:46:20	1589052	5d849ee0a954540019f513dd	3	1	practice_z	9	practice_z	5	stimuli_target_squarediamonds.svg	stimuli_distractor_trianglediamonds.svg	5	yes	44	1	474	0	0			0	0			1				0	
6.6.1	win	2023-06-02	02:19:48	02:46:20	1589052	5d849ee0a954540019f513dd	3	1	practice_z	9	advance_on_keypress_ZEE	6	stimuli_target_squarediamonds.svg	stimuli_distractor_trianglediamonds.svg	5	yes	57	0	486	0	0			0	0			1				0	
6.6.1	win	2023-06-02	02:19:48	02:46:23	1592033	5d849ee0a954540019f513dd	3	1	practice_z	9	practice_z	7	stimuli_target_diamondsquares.svg	stimuli_distractor_diamondtriangles.svg	3	yes	44	1	834	0	0			0	0			1				0	
6.6.1	win	2023-06-02	02:19:48	02:46:23	1592033	5d849ee0a954540019f513dd	3	1	practice_z	9	advance_on_keypress_ZEE	8	stimuli_target_diamondsquares.svg	stimuli_distractor_diamondtriangles.svg	3	yes	57	0	431	0	0			0	0			1				0	
6.6.1	win	2023-06-02	02:19:48	02:46:26	1594667	5d849ee0a954540019f513dd	3	1	practice_z	9	practice_z	9	stimuli_distractor_diamondtriangles.svg	stimuli_target_rectangletriangles.svg	7	yes	44	1	556	0	0			0	0			1				0	
6.6.1	win	2023-06-02	02:19:48	02:46:26	1594667	5d849ee0a954540019f513dd	3	1	practice_z	9	advance_on_keypress_ZEE	10	stimuli_distractor_diamondtriangles.svg	stimuli_target_rectangletriangles.svg	7	yes	57	0	406	0	0			0	0			1				0	
6.6.1	win	2023-06-02	02:19:48	02:46:30	1598727	5d849ee0a954540019f513dd	3	1	practice_z	9	practice_z	11	stimuli_distractor_diamondtriangles.svg	stimuli_distractor_diamondtriangles.svg	13	no	0	1	2000	0	0			0	0			1				0	
6.6.1	win	2023-06-02	02:19:48	02:46:30	1598727	5d849ee0a954540019f513dd	3	1	practice_z	9	advance_on_keypress_ZEE	12	stimuli_distractor_diamondtriangles.svg	stimuli_distractor_diamondtriangles.svg	13	no	57	0	443	0	0			0	0			1				0	
6.6.1	win	2023-06-02	02:19:48	02:46:32	1601444	5d849ee0a954540019f513dd	3	1	practice_z	9	practice_z	13	stimuli_distractor_trianglediamonds.svg	stimuli_target_diamondrectangles.svg	12	yes	44	1	616	0	0			0	0			1				0	
6.6.1	win	2023-06-02	02:19:48	02:46:32	1601444	5d849ee0a954540019f513dd	3	1	practice_z	9	advance_on_keypress_ZEE	14	stimuli_distractor_trianglediamonds.svg	stimuli_target_diamondrectangles.svg	12	yes	57	0	422	0	0			0	0			1				0	
6.6.1	win	2023-06-02	02:19:48	02:46:35	1604115	5d849ee0a954540019f513dd	3	1	practice_z	9	practice_z	15	stimuli_distractor_trianglediamonds.svg	stimuli_target_rectanglediamonds.svg	10	yes	44	1	588	0	0			0	0			1				0	
6.6.1	win	2023-06-02	02:19:48	02:46:35	1604115	5d849ee0a954540019f513dd	3	1	practice_z	9	advance_on_keypress_ZEE	16	stimuli_distractor_trianglediamonds.svg	stimuli_target_rectanglediamonds.svg	10	yes	57	0	428	0	0			0	0			1				0	
6.6.1	win	2023-06-02	02:19:48	02:46:38	1606793	5d849ee0a954540019f513dd	3	1	practice_z	9	practice_z	17	stimuli_distractor_trianglediamonds.svg	stimuli_target_squarediamonds.svg	11	yes	44	1	585	0	0			0	0			1				0	
6.6.1	win	2023-06-02	02:19:48	02:46:38	1606793	5d849ee0a954540019f513dd	3	1	practice_z	9	advance_on_keypress_ZEE	18	stimuli_distractor_trianglediamonds.svg	stimuli_target_squarediamonds.svg	11	yes	57	0	376	0	0			0	0			1				0	
6.6.1	win	2023-06-02	02:19:48	02:46:40	1609450	5d849ee0a954540019f513dd	3	1	practice_z	9	practice_z	19	stimuli_target_diamondsquares.svg	stimuli_distractor_trianglediamonds.svg	6	yes	44	1	608	0	0			0	0			1				0	
6.6.1	win	2023-06-02	02:19:48	02:46:40	1609450	5d849ee0a954540019f513dd	3	1	practice_z	9	advance_on_keypress_ZEE	20	stimuli_target_diamondsquares.svg	stimuli_distractor_trianglediamonds.svg	6	yes	57	0	535	0	0			0	0			1				0	
6.6.1	win	2023-06-02	02:19:48	02:46:43	1612280	5d849ee0a954540019f513dd	3	1	practice_z	9	practice_z	21	stimuli_distractor_diamondtriangles.svg	stimuli_target_diamondrectangles.svg	8	yes	44	1	639	0	0			0	0			1				0	
6.6.1	win	2023-06-02	02:19:48	02:46:43	1612280	5d849ee0a954540019f513dd	3	1	practice_z	9	advance_on_keypress_ZEE	22	stimuli_distractor_diamondtriangles.svg	stimuli_target_diamondrectangles.svg	8	yes	57	0	509	0	0			0	0			1				0	
6.6.1	win	2023-06-02	02:19:48	02:46:47	1616445	5d849ee0a954540019f513dd	3	1	practice_z	9	practice_z	23	stimuli_distractor_trianglediamonds.svg	stimuli_distractor_trianglediamonds.svg	15	no	0	1	2000	0	0			0	0			1				0	
6.6.1	win	2023-06-02	02:19:48	02:46:47	1616445	5d849ee0a954540019f513dd	3	1	practice_z	9	advance_on_keypress_ZEE	24	stimuli_distractor_trianglediamonds.svg	stimuli_distractor_trianglediamonds.svg	15	no	57	0	438	0	0			0	0			1				0	
6.6.1	win	2023-06-02	02:19:48	02:46:50	1619380	5d849ee0a954540019f513dd	3	1	practice_z	9	practice_z	25	stimuli_distractor_trianglediamonds.svg	stimuli_distractor_diamondtriangles.svg	16	no	44	0	835	0	0			0	0			1				0	
6.6.1	win	2023-06-02	02:19:48	02:46:50	1619380	5d849ee0a954540019f513dd	3	1	practice_z	9	advance_on_keypress_ZEE	26	stimuli_distractor_trianglediamonds.svg	stimuli_distractor_diamondtriangles.svg	16	no	57	0	377	0	0			0	0			1				0	
6.6.1	win	2023-06-02	02:19:48	02:46:53	1621979	5d849ee0a954540019f513dd	3	1	practice_z	9	practice_z	27	stimuli_target_rectanglediamonds.svg	stimuli_distractor_diamondtriangles.svg	1	yes	44	1	568	0	0			0	0			1				0	
6.6.1	win	2023-06-02	02:19:48	02:46:53	1621979	5d849ee0a954540019f513dd	3	1	practice_z	9	advance_on_keypress_ZEE	28	stimuli_target_rectanglediamonds.svg	stimuli_distractor_diamondtriangles.svg	1	yes	57	0	497	0	0			0	0			1				0	
6.6.1	win	2023-06-02	02:19:48	02:46:56	1624845	5d849ee0a954540019f513dd	3	1	practice_z	9	practice_z	29	stimuli_distractor_diamondtriangles.svg	stimuli_distractor_trianglediamonds.svg	14	no	44	0	700	0	0			0	0			1				0	
6.6.1	win	2023-06-02	02:19:48	02:46:56	1624845	5d849ee0a954540019f513dd	3	1	practice_z	9	advance_on_keypress_ZEE	30	stimuli_distractor_diamondtriangles.svg	stimuli_distractor_trianglediamonds.svg	14	no	57	0	398	0	0			0	0			1				0	
6.6.1	win	2023-06-02	02:19:48	02:46:58	1627399	5d849ee0a954540019f513dd	3	1	practice_z	9	practice_z	31	stimuli_target_squarediamonds.svg	stimuli_distractor_diamondtriangles.svg	2	yes	44	1	493	0	0			0	0			1				0	
6.6.1	win	2023-06-02	02:19:48	02:46:58	1627399	5d849ee0a954540019f513dd	3	1	practice_z	9	advance_on_keypress_ZEE	32	stimuli_target_squarediamonds.svg	stimuli_distractor_diamondtriangles.svg	2	yes	57	0	424	0	0			0	0			1				0	
6.6.1	win	2023-06-02	02:19:48	02:47:04	1632610	5d849ee0a954540019f513dd	3	1	main_z	11	main_z	1	stimuli_target_diamondsquares.svg	stimuli_distractor_diamondtriangles.svg	24	yes	0	0	2000	0	0			0	0			1				0	
6.6.1	win	2023-06-02	02:19:48	02:47:04	1632610	5d849ee0a954540019f513dd	3	1	main_z	11	advance_on_keypress_ZEE	2	stimuli_target_diamondsquares.svg	stimuli_distractor_diamondtriangles.svg	24	yes	57	0	320	0	0			0	0			1				0	
6.6.1	win	2023-06-02	02:19:48	02:47:05	1634376	5d849ee0a954540019f513dd	3	1	main_z	11	main_z	3	stimuli_distractor_trianglediamonds.svg	stimuli_target_diamondrectangles.svg	27	yes	44	1	777	0	0			0	0			1				0	
6.6.1	win	2023-06-02	02:19:48	02:47:05	1634376	5d849ee0a954540019f513dd	3	1	main_z	11	advance_on_keypress_ZEE	4	stimuli_distractor_trianglediamonds.svg	stimuli_target_diamondrectangles.svg	27	yes	57	0	617	0	0			0	0			1				0	
6.6.1	win	2023-06-02	02:19:48	02:47:07	1636322	5d849ee0a954540019f513dd	3	1	main_z	11	main_z	5	stimuli_target_diamondrectangles.svg	stimuli_distractor_diamondtriangles.svg	23	yes	44	1	679	0	0			0	0			1				0	
6.6.1	win	2023-06-02	02:19:48	02:47:07	1636322	5d849ee0a954540019f513dd	3	1	main_z	11	advance_on_keypress_ZEE	6	stimuli_target_diamondrectangles.svg	stimuli_distractor_diamondtriangles.svg	23	yes	57	0	452	0	0			0	0			1				0	
6.6.1	win	2023-06-02	02:19:48	02:47:09	1638138	5d849ee0a954540019f513dd	3	1	main_z	11	main_z	7	stimuli_target_trianglesquares.svg	stimuli_distractor_diamondtriangles.svg	22	yes	44	1	728	0	0			0	0			1				0	
6.6.1	win	2023-06-02	02:19:48	02:47:09	1638138	5d849ee0a954540019f513dd	3	1	main_z	11	advance_on_keypress_ZEE	8	stimuli_target_trianglesquares.svg	stimuli_distractor_diamondtriangles.svg	22	yes	57	0	379	0	0			0	0			1				0	
6.6.1	win	2023-06-02	02:19:48	02:47:12	1641160	5d849ee0a954540019f513dd	3	1	main_z	11	main_z	9	stimuli_distractor_diamondtriangles.svg	stimuli_distractor_diamondtriangles.svg	40	no	0	1	2000	0	0			0	0			1				0	
6.6.1	win	2023-06-02	02:19:48	02:47:12	1641160	5d849ee0a954540019f513dd	3	1	main_z	11	advance_on_keypress_ZEE	10	stimuli_distractor_diamondtriangles.svg	stimuli_distractor_diamondtriangles.svg	40	no	57	0	322	0	0			0	0			1				0	
6.6.1	win	2023-06-02	02:19:48	02:47:14	1642833	5d849ee0a954540019f513dd	3	1	main_z	11	main_z	11	stimuli_target_squaretriangles.svg	stimuli_distractor_trianglediamonds.svg	3	yes	44	1	692	0	0			0	0			1				0	
6.6.1	win	2023-06-02	02:19:48	02:47:14	1642833	5d849ee0a954540019f513dd	3	1	main_z	11	advance_on_keypress_ZEE	12	stimuli_target_squaretriangles.svg	stimuli_distractor_trianglediamonds.svg	3	yes	57	0	391	0	0			0	0			1				0	
6.6.1	win	2023-06-02	02:19:48	02:47:16	1644537	5d849ee0a954540019f513dd	3	1	main_z	11	main_z	13	stimuli_target_squarediamonds.svg	stimuli_distractor_diamondtriangles.svg	8	yes	44	1	663	0	0			0	0			1				0	
6.6.1	win	2023-06-02	02:19:48	02:47:16	1644537	5d849ee0a954540019f513dd	3	1	main_z	11	advance_on_keypress_ZEE	14	stimuli_target_squarediamonds.svg	stimuli_distractor_diamondtriangles.svg	8	yes	57	0	355	0	0			0	0			1				0	
6.6.1	win	2023-06-02	02:19:48	02:47:18	1646586	5d849ee0a954540019f513dd	3	1	main_z	11	main_z	15	stimuli_distractor_diamondtriangles.svg	stimuli_target_squaretriangles.svg	15	yes	44	1	1043	0	0			0	0			1				0	
6.6.1	win	2023-06-02	02:19:48	02:47:18	1646586	5d849ee0a954540019f513dd	3	1	main_z	11	advance_on_keypress_ZEE	16	stimuli_distractor_diamondtriangles.svg	stimuli_target_squaretriangles.svg	15	yes	57	0	297	0	0			0	0			1				0	
6.6.1	win	2023-06-02	02:19:48	02:47:19	1648245	5d849ee0a954540019f513dd	3	1	main_z	11	main_z	17	stimuli_target_rectangletriangles.svg	stimuli_distractor_trianglediamonds.svg	1	yes	44	1	708	0	0			0	0			1				0	
6.6.1	win	2023-06-02	02:19:48	02:47:19	1648245	5d849ee0a954540019f513dd	3	1	main_z	11	advance_on_keypress_ZEE	18	stimuli_target_rectangletriangles.svg	stimuli_distractor_trianglediamonds.svg	1	yes	57	0	350	0	0			0	0			1				0	
6.6.1	win	2023-06-02	02:19:48	02:47:21	1650006	5d849ee0a954540019f513dd	3	1	main_z	11	main_z	19	stimuli_distractor_diamondtriangles.svg	stimuli_target_trianglerectangles.svg	29	yes	44	1	734	0	0			0	0			1				0	
6.6.1	win	2023-06-02	02:19:48	02:47:21	1650006	5d849ee0a954540019f513dd	3	1	main_z	11	advance_on_keypress_ZEE	20	stimuli_distractor_diamondtriangles.svg	stimuli_target_trianglerectangles.svg	29	yes	57	0	305	0	0			0	0			1				0	
6.6.1	win	2023-06-02	02:19:48	02:47:24	1652944	5d849ee0a954540019f513dd	3	1	main_z	11	main_z	21	stimuli_distractor_diamondtriangles.svg	stimuli_target_diamondrectangles.svg	31	yes	0	0	2000	0	0			0	0			1				0	
6.6.1	win	2023-06-02	02:19:48	02:47:24	1652944	5d849ee0a954540019f513dd	3	1	main_z	11	advance_on_keypress_ZEE	22	stimuli_distractor_diamondtriangles.svg	stimuli_target_diamondrectangles.svg	31	yes	57	0	266	0	0			0	0			1				0	
6.6.1	win	2023-06-02	02:19:48	02:47:26	1654631	5d849ee0a954540019f513dd	3	1	main_z	11	main_z	23	stimuli_distractor_diamondtriangles.svg	stimuli_distractor_trianglediamonds.svg	38	no	44	0	759	0	0			0	0			1				0	
6.6.1	win	2023-06-02	02:19:48	02:47:26	1654631	5d849ee0a954540019f513dd	3	1	main_z	11	advance_on_keypress_ZEE	24	stimuli_distractor_diamondtriangles.svg	stimuli_distractor_trianglediamonds.svg	38	no	57	0	471	0	0			0	0			1				0	
6.6.1	win	2023-06-02	02:19:48	02:47:27	1656459	5d849ee0a954540019f513dd	3	1	main_z	11	main_z	25	stimuli_distractor_diamondtriangles.svg	stimuli_target_trianglesquares.svg	30	yes	44	1	715	0	0			0	0			1				0	
6.6.1	win	2023-06-02	02:19:48	02:47:27	1656459	5d849ee0a954540019f513dd	3	1	main_z	11	advance_on_keypress_ZEE	26	stimuli_distractor_diamondtriangles.svg	stimuli_target_trianglesquares.svg	30	yes	57	0	326	0	0			0	0			1				0	
6.6.1	win	2023-06-02	02:19:48	02:47:29	1658114	5d849ee0a954540019f513dd	3	1	main_z	11	main_z	27	stimuli_distractor_trianglediamonds.svg	stimuli_target_squarediamonds.svg	12	yes	44	1	671	0	0			0	0			1				0	
6.6.1	win	2023-06-02	02:19:48	02:47:29	1658114	5d849ee0a954540019f513dd	3	1	main_z	11	advance_on_keypress_ZEE	28	stimuli_distractor_trianglediamonds.svg	stimuli_target_squarediamonds.svg	12	yes	57	0	308	0	0			0	0			1				0	
6.6.1	win	2023-06-02	02:19:48	02:47:31	1659746	5d849ee0a954540019f513dd	3	1	main_z	11	main_z	29	stimuli_target_squaretriangles.svg	stimuli_distractor_diamondtriangles.svg	7	yes	44	1	662	0	0			0	0			1				0	
6.6.1	win	2023-06-02	02:19:48	02:47:31	1659746	5d849ee0a954540019f513dd	3	1	main_z	11	advance_on_keypress_ZEE	30	stimuli_target_squaretriangles.svg	stimuli_distractor_diamondtriangles.svg	7	yes	57	0	299	0	0			0	0			1				0	
6.6.1	win	2023-06-02	02:19:48	02:47:32	1661279	5d849ee0a954540019f513dd	3	1	main_z	11	main_z	31	stimuli_target_diamondsquares.svg	stimuli_distractor_trianglediamonds.svg	20	yes	44	1	573	0	0			0	0			1				0	
6.6.1	win	2023-06-02	02:19:48	02:47:32	1661279	5d849ee0a954540019f513dd	3	1	main_z	11	advance_on_keypress_ZEE	32	stimuli_target_diamondsquares.svg	stimuli_distractor_trianglediamonds.svg	20	yes	57	0	285	0	0			0	0			1				0	
6.6.1	win	2023-06-02	02:19:48	02:47:34	1662858	5d849ee0a954540019f513dd	3	1	main_z	11	main_z	33	stimuli_target_trianglerectangles.svg	stimuli_distractor_diamondtriangles.svg	21	yes	44	1	632	0	0			0	0			1				0	
6.6.1	win	2023-06-02	02:19:48	02:47:34	1662858	5d849ee0a954540019f513dd	3	1	main_z	11	advance_on_keypress_ZEE	34	stimuli_target_trianglerectangles.svg	stimuli_distractor_diamondtriangles.svg	21	yes	57	0	318	0	0			0	0			1				0	
6.6.1	win	2023-06-02	02:19:48	02:47:36	1664522	5d849ee0a954540019f513dd	3	1	main_z	11	main_z	35	stimuli_distractor_trianglediamonds.svg	stimuli_target_rectanglediamonds.svg	10	yes	44	1	696	0	0			0	0			1				0	
6.6.1	win	2023-06-02	02:19:48	02:47:36	1664522	5d849ee0a954540019f513dd	3	1	main_z	11	advance_on_keypress_ZEE	36	stimuli_distractor_trianglediamonds.svg	stimuli_target_rectanglediamonds.svg	10	yes	57	0	316	0	0			0	0			1				0	
6.6.1	win	2023-06-02	02:19:48	02:47:37	1666090	5d849ee0a954540019f513dd	3	1	main_z	11	main_z	37	stimuli_target_rectanglediamonds.svg	stimuli_distractor_trianglediamonds.svg	2	yes	44	1	614	0	0			0	0			1				0	
6.6.1	win	2023-06-02	02:19:48	02:47:37	1666090	5d849ee0a954540019f513dd	3	1	main_z	11	advance_on_keypress_ZEE	38	stimuli_target_rectanglediamonds.svg	stimuli_distractor_trianglediamonds.svg	2	yes	57	0	309	0	0			0	0			1				0	
6.6.1	win	2023-06-02	02:19:48	02:47:40	1669043	5d849ee0a954540019f513dd	3	1	main_z	11	main_z	39	stimuli_distractor_trianglediamonds.svg	stimuli_distractor_trianglediamonds.svg	34	no	0	1	2000	0	0			0	0			1				0	
6.6.1	win	2023-06-02	02:19:48	02:47:40	1669043	5d849ee0a954540019f513dd	3	1	main_z	11	advance_on_keypress_ZEE	40	stimuli_distractor_trianglediamonds.svg	stimuli_distractor_trianglediamonds.svg	34	no	57	0	311	0	0			0	0			1				0	
6.6.1	win	2023-06-02	02:19:48	02:47:42	1670688	5d849ee0a954540019f513dd	3	1	main_z	11	main_z	41	stimuli_distractor_trianglediamonds.svg	stimuli_target_trianglerectangles.svg	25	yes	44	1	673	0	0			0	0			1				0	
6.6.1	win	2023-06-02	02:19:48	02:47:42	1670688	5d849ee0a954540019f513dd	3	1	main_z	11	advance_on_keypress_ZEE	42	stimuli_distractor_trianglediamonds.svg	stimuli_target_trianglerectangles.svg	25	yes	57	0	349	0	0			0	0			1				0	
6.6.1	win	2023-06-02	02:19:48	02:47:45	1673681	5d849ee0a954540019f513dd	3	1	main_z	11	main_z	43	stimuli_distractor_trianglediamonds.svg	stimuli_distractor_diamondtriangles.svg	36	no	0	1	2000	0	0			0	0			1				0	
6.6.1	win	2023-06-02	02:19:48	02:47:45	1673681	5d849ee0a954540019f513dd	3	1	main_z	11	advance_on_keypress_ZEE	44	stimuli_distractor_trianglediamonds.svg	stimuli_distractor_diamondtriangles.svg	36	no	57	0	341	0	0			0	0			1				0	
6.6.1	win	2023-06-02	02:19:48	02:47:46	1675432	5d849ee0a954540019f513dd	3	1	main_z	11	main_z	45	stimuli_distractor_diamondtriangles.svg	stimuli_target_squarediamonds.svg	16	yes	44	1	742	0	0			0	0			1				0	
6.6.1	win	2023-06-02	02:19:48	02:47:46	1675432	5d849ee0a954540019f513dd	3	1	main_z	11	advance_on_keypress_ZEE	46	stimuli_distractor_diamondtriangles.svg	stimuli_target_squarediamonds.svg	16	yes	57	0	359	0	0			0	0			1				0	
6.6.1	win	2023-06-02	02:19:48	02:47:48	1677242	5d849ee0a954540019f513dd	3	1	main_z	11	main_z	47	stimuli_target_rectanglediamonds.svg	stimuli_distractor_diamondtriangles.svg	6	yes	44	1	799	0	0			0	0			1				0	
6.6.1	win	2023-06-02	02:19:48	02:47:48	1677242	5d849ee0a954540019f513dd	3	1	main_z	11	advance_on_keypress_ZEE	48	stimuli_target_rectanglediamonds.svg	stimuli_distractor_diamondtriangles.svg	6	yes	57	0	455	0	0			0	0			1				0	
6.6.1	win	2023-06-02	02:19:48	02:47:50	1679235	5d849ee0a954540019f513dd	3	1	main_z	11	main_z	49	stimuli_distractor_diamondtriangles.svg	stimuli_target_rectanglediamonds.svg	14	yes	44	1	883	0	0			0	0			1				0	
6.6.1	win	2023-06-02	02:19:48	02:47:50	1679235	5d849ee0a954540019f513dd	3	1	main_z	11	advance_on_keypress_ZEE	50	stimuli_distractor_diamondtriangles.svg	stimuli_target_rectanglediamonds.svg	14	yes	57	0	367	0	0			0	0			1				0	
6.6.1	win	2023-06-02	02:19:48	02:47:53	1682263	5d849ee0a954540019f513dd	3	1	main_z	11	main_z	51	stimuli_distractor_diamondtriangles.svg	stimuli_distractor_diamondtriangles.svg	39	no	0	1	2000	0	0			0	0			1				0	
6.6.1	win	2023-06-02	02:19:48	02:47:53	1682263	5d849ee0a954540019f513dd	3	1	main_z	11	advance_on_keypress_ZEE	52	stimuli_distractor_diamondtriangles.svg	stimuli_distractor_diamondtriangles.svg	39	no	57	0	510	0	0			0	0			1				0	
6.6.1	win	2023-06-02	02:19:48	02:47:55	1684140	5d849ee0a954540019f513dd	3	1	main_z	11	main_z	53	stimuli_distractor_trianglediamonds.svg	stimuli_target_diamondsquares.svg	28	yes	44	1	712	0	0			0	0			1				0	
6.6.1	win	2023-06-02	02:19:48	02:47:55	1684140	5d849ee0a954540019f513dd	3	1	main_z	11	advance_on_keypress_ZEE	54	stimuli_distractor_trianglediamonds.svg	stimuli_target_diamondsquares.svg	28	yes	57	0	363	0	0			0	0			1				0	
6.6.1	win	2023-06-02	02:19:48	02:47:57	1686050	5d849ee0a954540019f513dd	3	1	main_z	11	main_z	55	stimuli_target_rectangletriangles.svg	stimuli_distractor_diamondtriangles.svg	5	yes	44	1	907	0	0			0	0			1				0	
6.6.1	win	2023-06-02	02:19:48	02:47:57	1686050	5d849ee0a954540019f513dd	3	1	main_z	11	advance_on_keypress_ZEE	56	stimuli_target_rectangletriangles.svg	stimuli_distractor_diamondtriangles.svg	5	yes	57	0	423	0	0			0	0			1				0	
6.6.1	win	2023-06-02	02:19:48	02:47:59	1687856	5d849ee0a954540019f513dd	3	1	main_z	11	main_z	57	stimuli_distractor_trianglediamonds.svg	stimuli_target_rectangletriangles.svg	9	yes	44	1	741	0	0			0	0			1				0	
6.6.1	win	2023-06-02	02:19:48	02:47:59	1687856	5d849ee0a954540019f513dd	3	1	main_z	11	advance_on_keypress_ZEE	58	stimuli_distractor_trianglediamonds.svg	stimuli_target_rectangletriangles.svg	9	yes	57	0	367	0	0			0	0			1				0	
6.6.1	win	2023-06-02	02:19:48	02:48:02	1690861	5d849ee0a954540019f513dd	3	1	main_z	11	main_z	59	stimuli_target_diamondrectangles.svg	stimuli_distractor_trianglediamonds.svg	19	yes	0	0	2000	0	0			0	0			1				0	
6.6.1	win	2023-06-02	02:19:48	02:48:02	1690861	5d849ee0a954540019f513dd	3	1	main_z	11	advance_on_keypress_ZEE	60	stimuli_target_diamondrectangles.svg	stimuli_distractor_trianglediamonds.svg	19	yes	57	0	710	0	0			0	0			1				0	
6.6.1	win	2023-06-02	02:19:48	02:48:04	1693066	5d849ee0a954540019f513dd	3	1	main_z	11	main_z	61	stimuli_target_trianglerectangles.svg	stimuli_distractor_trianglediamonds.svg	17	yes	44	1	840	0	0			0	0			1				0	
6.6.1	win	2023-06-02	02:19:48	02:48:04	1693066	5d849ee0a954540019f513dd	3	1	main_z	11	advance_on_keypress_ZEE	62	stimuli_target_trianglerectangles.svg	stimuli_distractor_trianglediamonds.svg	17	yes	57	0	342	0	0			0	0			1				0	
6.6.1	win	2023-06-02	02:19:48	02:48:06	1694800	5d849ee0a954540019f513dd	3	1	main_z	11	main_z	63	stimuli_distractor_trianglediamonds.svg	stimuli_target_trianglesquares.svg	26	yes	44	1	743	0	0			0	0			1				0	
6.6.1	win	2023-06-02	02:19:48	02:48:06	1694800	5d849ee0a954540019f513dd	3	1	main_z	11	advance_on_keypress_ZEE	64	stimuli_distractor_trianglediamonds.svg	stimuli_target_trianglesquares.svg	26	yes	57	0	321	0	0			0	0			1				0	
6.6.1	win	2023-06-02	02:19:48	02:48:08	1696760	5d849ee0a954540019f513dd	3	1	main_z	11	main_z	65	stimuli_distractor_trianglediamonds.svg	stimuli_distractor_diamondtriangles.svg	35	no	44	0	970	0	0			0	0			1				0	
6.6.1	win	2023-06-02	02:19:48	02:48:08	1696760	5d849ee0a954540019f513dd	3	1	main_z	11	advance_on_keypress_ZEE	66	stimuli_distractor_trianglediamonds.svg	stimuli_distractor_diamondtriangles.svg	35	no	57	0	362	0	0			0	0			1				0	
6.6.1	win	2023-06-02	02:19:48	02:48:09	1698442	5d849ee0a954540019f513dd	3	1	main_z	11	main_z	67	stimuli_target_trianglesquares.svg	stimuli_distractor_trianglediamonds.svg	18	yes	44	1	683	0	0			0	0			1				0	
6.6.1	win	2023-06-02	02:19:48	02:48:09	1698442	5d849ee0a954540019f513dd	3	1	main_z	11	advance_on_keypress_ZEE	68	stimuli_target_trianglesquares.svg	stimuli_distractor_trianglediamonds.svg	18	yes	57	0	311	0	0			0	0			1				0	
6.6.1	win	2023-06-02	02:19:48	02:48:11	1700066	5d849ee0a954540019f513dd	3	1	main_z	11	main_z	69	stimuli_distractor_diamondtriangles.svg	stimuli_target_rectangletriangles.svg	13	yes	44	1	649	0	0			0	0			1				0	
6.6.1	win	2023-06-02	02:19:48	02:48:11	1700066	5d849ee0a954540019f513dd	3	1	main_z	11	advance_on_keypress_ZEE	70	stimuli_distractor_diamondtriangles.svg	stimuli_target_rectangletriangles.svg	13	yes	57	0	358	0	0			0	0			1				0	
6.6.1	win	2023-06-02	02:19:48	02:48:13	1701812	5d849ee0a954540019f513dd	3	1	main_z	11	main_z	71	stimuli_distractor_diamondtriangles.svg	stimuli_target_diamondsquares.svg	32	yes	44	1	726	0	0			0	0			1				0	
6.6.1	win	2023-06-02	02:19:48	02:48:13	1701812	5d849ee0a954540019f513dd	3	1	main_z	11	advance_on_keypress_ZEE	72	stimuli_distractor_diamondtriangles.svg	stimuli_target_diamondsquares.svg	32	yes	57	0	336	0	0			0	0			1				0	
6.6.1	win	2023-06-02	02:19:48	02:48:14	1703432	5d849ee0a954540019f513dd	3	1	main_z	11	main_z	73	stimuli_target_squarediamonds.svg	stimuli_distractor_trianglediamonds.svg	4	yes	44	1	609	0	0			0	0			1				0	
6.6.1	win	2023-06-02	02:19:48	02:48:14	1703432	5d849ee0a954540019f513dd	3	1	main_z	11	advance_on_keypress_ZEE	74	stimuli_target_squarediamonds.svg	stimuli_distractor_trianglediamonds.svg	4	yes	57	0	359	0	0			0	0			1				0	
6.6.1	win	2023-06-02	02:19:48	02:48:17	1706454	5d849ee0a954540019f513dd	3	1	main_z	11	main_z	75	stimuli_distractor_diamondtriangles.svg	stimuli_distractor_trianglediamonds.svg	37	no	0	1	2000	0	0			0	0			1				0	
6.6.1	win	2023-06-02	02:19:48	02:48:17	1706454	5d849ee0a954540019f513dd	3	1	main_z	11	advance_on_keypress_ZEE	76	stimuli_distractor_diamondtriangles.svg	stimuli_distractor_trianglediamonds.svg	37	no	57	0	295	0	0			0	0			1				0	
6.6.1	win	2023-06-02	02:19:48	02:48:19	1708021	5d849ee0a954540019f513dd	3	1	main_z	11	main_z	77	stimuli_distractor_trianglediamonds.svg	stimuli_target_squaretriangles.svg	11	yes	44	1	625	0	0			0	0			1				0	
6.6.1	win	2023-06-02	02:19:48	02:48:19	1708021	5d849ee0a954540019f513dd	3	1	main_z	11	advance_on_keypress_ZEE	78	stimuli_distractor_trianglediamonds.svg	stimuli_target_squaretriangles.svg	11	yes	57	0	600	0	0			0	0			1				0	
6.6.1	win	2023-06-02	02:19:48	02:48:22	1711260	5d849ee0a954540019f513dd	3	1	main_z	11	main_z	79	stimuli_distractor_trianglediamonds.svg	stimuli_distractor_trianglediamonds.svg	33	no	0	1	2000	0	0			0	0			1				0	
6.6.1	win	2023-06-02	02:19:48	02:48:22	1711260	5d849ee0a954540019f513dd	3	1	main_z	11	advance_on_keypress_ZEE	80	stimuli_distractor_trianglediamonds.svg	stimuli_distractor_trianglediamonds.svg	33	no	57	0	510	0	0			0	0			1				0	
6.6.1	win	2023-06-02	02:19:48	02:48:25	1714437	5d849ee0a954540019f513dd	3	1	main_z	11	main_z	81	stimuli_distractor_diamondtriangles.svg	stimuli_distractor_diamondtriangles.svg	39	no	0	1	2000	0	0			0	0			1				0	
6.6.1	win	2023-06-02	02:19:48	02:48:25	1714437	5d849ee0a954540019f513dd	3	1	main_z	11	advance_on_keypress_ZEE	82	stimuli_distractor_diamondtriangles.svg	stimuli_distractor_diamondtriangles.svg	39	no	57	0	456	0	0			0	0			1				0	
6.6.1	win	2023-06-02	02:19:48	02:48:27	1716146	5d849ee0a954540019f513dd	3	1	main_z	11	main_z	83	stimuli_target_squaretriangles.svg	stimuli_distractor_trianglediamonds.svg	3	yes	44	1	619	0	0			0	0			1				0	
6.6.1	win	2023-06-02	02:19:48	02:48:27	1716146	5d849ee0a954540019f513dd	3	1	main_z	11	advance_on_keypress_ZEE	84	stimuli_target_squaretriangles.svg	stimuli_distractor_trianglediamonds.svg	3	yes	57	0	315	0	0			0	0			1				0	
6.6.1	win	2023-06-02	02:19:48	02:48:30	1718517	5d849ee0a954540019f513dd	3	1	main_z	11	main_z	85	stimuli_distractor_diamondtriangles.svg	stimuli_target_rectanglediamonds.svg	14	yes	44	1	1405	0	0			0	0			1				0	
6.6.1	win	2023-06-02	02:19:48	02:48:30	1718517	5d849ee0a954540019f513dd	3	1	main_z	11	advance_on_keypress_ZEE	86	stimuli_distractor_diamondtriangles.svg	stimuli_target_rectanglediamonds.svg	14	yes	57	0	276	0	0			0	0			1				0	
6.6.1	win	2023-06-02	02:19:48	02:48:32	1721447	5d849ee0a954540019f513dd	3	1	main_z	11	main_z	87	stimuli_distractor_diamondtriangles.svg	stimuli_distractor_trianglediamonds.svg	37	no	0	1	2000	0	0			0	0			1				0	
6.6.1	win	2023-06-02	02:19:48	02:48:32	1721447	5d849ee0a954540019f513dd	3	1	main_z	11	advance_on_keypress_ZEE	88	stimuli_distractor_diamondtriangles.svg	stimuli_distractor_trianglediamonds.svg	37	no	57	0	775	0	0			0	0			1				0	
6.6.1	win	2023-06-02	02:19:48	02:48:35	1723586	5d849ee0a954540019f513dd	3	1	main_z	11	main_z	89	stimuli_distractor_diamondtriangles.svg	stimuli_target_rectangletriangles.svg	13	yes	44	1	709	0	0			0	0			1				0	
6.6.1	win	2023-06-02	02:19:48	02:48:35	1723586	5d849ee0a954540019f513dd	3	1	main_z	11	advance_on_keypress_ZEE	90	stimuli_distractor_diamondtriangles.svg	stimuli_target_rectangletriangles.svg	13	yes	57	0	322	0	0			0	0			1				0	
6.6.1	win	2023-06-02	02:19:48	02:48:36	1725298	5d849ee0a954540019f513dd	3	1	main_z	11	main_z	91	stimuli_target_rectanglediamonds.svg	stimuli_distractor_diamondtriangles.svg	6	yes	44	1	739	0	0			0	0			1				0	
6.6.1	win	2023-06-02	02:19:48	02:48:36	1725298	5d849ee0a954540019f513dd	3	1	main_z	11	advance_on_keypress_ZEE	92	stimuli_target_rectanglediamonds.svg	stimuli_distractor_diamondtriangles.svg	6	yes	57	0	317	0	0			0	0			1				0	
6.6.1	win	2023-06-02	02:19:48	02:48:39	1728273	5d849ee0a954540019f513dd	3	1	main_z	11	main_z	93	stimuli_distractor_trianglediamonds.svg	stimuli_target_trianglerectangles.svg	25	yes	0	0	2000	0	0			0	0			1				0	
6.6.1	win	2023-06-02	02:19:48	02:48:39	1728273	5d849ee0a954540019f513dd	3	1	main_z	11	advance_on_keypress_ZEE	94	stimuli_distractor_trianglediamonds.svg	stimuli_target_trianglerectangles.svg	25	yes	57	0	590	0	0			0	0			1				0	
6.6.1	win	2023-06-02	02:19:48	02:48:42	1731493	5d849ee0a954540019f513dd	3	1	main_z	11	main_z	95	stimuli_distractor_diamondtriangles.svg	stimuli_distractor_diamondtriangles.svg	40	no	0	1	2000	0	0			0	0			1				0	
6.6.1	win	2023-06-02	02:19:48	02:48:42	1731493	5d849ee0a954540019f513dd	3	1	main_z	11	advance_on_keypress_ZEE	96	stimuli_distractor_diamondtriangles.svg	stimuli_distractor_diamondtriangles.svg	40	no	57	0	429	0	0			0	0			1				0	
6.6.1	win	2023-06-02	02:19:48	02:48:44	1733450	5d849ee0a954540019f513dd	3	1	main_z	11	main_z	97	stimuli_distractor_diamondtriangles.svg	stimuli_target_diamondrectangles.svg	31	yes	44	1	874	0	0			0	0			1				0	
6.6.1	win	2023-06-02	02:19:48	02:48:44	1733450	5d849ee0a954540019f513dd	3	1	main_z	11	advance_on_keypress_ZEE	98	stimuli_distractor_diamondtriangles.svg	stimuli_target_diamondrectangles.svg	31	yes	57	0	295	0	0			0	0			1				0	
6.6.1	win	2023-06-02	02:19:48	02:48:47	1735593	5d849ee0a954540019f513dd	3	1	main_z	11	main_z	99	stimuli_target_squarediamonds.svg	stimuli_distractor_diamondtriangles.svg	8	yes	44	1	1184	0	0			0	0			1				0	
6.6.1	win	2023-06-02	02:19:48	02:48:47	1735593	5d849ee0a954540019f513dd	3	1	main_z	11	advance_on_keypress_ZEE	100	stimuli_target_squarediamonds.svg	stimuli_distractor_diamondtriangles.svg	8	yes	57	0	657	0	0			0	0			1				0	
6.6.1	win	2023-06-02	02:19:48	02:48:49	1737833	5d849ee0a954540019f513dd	3	1	main_z	11	main_z	101	stimuli_distractor_trianglediamonds.svg	stimuli_target_diamondsquares.svg	28	yes	44	1	925	0	0			0	0			1				0	
6.6.1	win	2023-06-02	02:19:48	02:48:49	1737833	5d849ee0a954540019f513dd	3	1	main_z	11	advance_on_keypress_ZEE	102	stimuli_distractor_trianglediamonds.svg	stimuli_target_diamondsquares.svg	28	yes	57	0	400	0	0			0	0			1				0	
6.6.1	win	2023-06-02	02:19:48	02:48:51	1739771	5d849ee0a954540019f513dd	3	1	main_z	11	main_z	103	stimuli_distractor_diamondtriangles.svg	stimuli_target_squarediamonds.svg	16	yes	44	1	894	0	0			0	0			1				0	
6.6.1	win	2023-06-02	02:19:48	02:48:51	1739771	5d849ee0a954540019f513dd	3	1	main_z	11	advance_on_keypress_ZEE	104	stimuli_distractor_diamondtriangles.svg	stimuli_target_squarediamonds.svg	16	yes	57	0	322	0	0			0	0			1				0	
6.6.1	win	2023-06-02	02:19:48	02:48:54	1742734	5d849ee0a954540019f513dd	3	1	main_z	11	main_z	105	stimuli_distractor_diamondtriangles.svg	stimuli_distractor_trianglediamonds.svg	38	no	0	1	2000	0	0			0	0			1				0	
6.6.1	win	2023-06-02	02:19:48	02:48:54	1742734	5d849ee0a954540019f513dd	3	1	main_z	11	advance_on_keypress_ZEE	106	stimuli_distractor_diamondtriangles.svg	stimuli_distractor_trianglediamonds.svg	38	no	57	0	500	0	0			0	0			1				0	
6.6.1	win	2023-06-02	02:19:48	02:48:56	1744714	5d849ee0a954540019f513dd	3	1	main_z	11	main_z	107	stimuli_target_trianglesquares.svg	stimuli_distractor_trianglediamonds.svg	18	yes	44	1	838	0	0			0	0			1				0	
6.6.1	win	2023-06-02	02:19:48	02:48:56	1744714	5d849ee0a954540019f513dd	3	1	main_z	11	advance_on_keypress_ZEE	108	stimuli_target_trianglesquares.svg	stimuli_distractor_trianglediamonds.svg	18	yes	57	0	372	0	0			0	0			1				0	
6.6.1	win	2023-06-02	02:19:48	02:48:58	1746849	5d849ee0a954540019f513dd	3	1	main_z	11	main_z	109	stimuli_target_trianglesquares.svg	stimuli_distractor_diamondtriangles.svg	22	yes	44	1	1100	0	0			0	0			1				0	
6.6.1	win	2023-06-02	02:19:48	02:48:58	1746849	5d849ee0a954540019f513dd	3	1	main_z	11	advance_on_keypress_ZEE	110	stimuli_target_trianglesquares.svg	stimuli_distractor_diamondtriangles.svg	22	yes	57	0	391	0	0			0	0			1				0	
6.6.1	win	2023-06-02	02:19:48	02:49:00	1748810	5d849ee0a954540019f513dd	3	1	main_z	11	main_z	111	stimuli_target_diamondrectangles.svg	stimuli_distractor_trianglediamonds.svg	19	yes	44	1	934	0	0			0	0			1				0	
6.6.1	win	2023-06-02	02:19:48	02:49:00	1748810	5d849ee0a954540019f513dd	3	1	main_z	11	advance_on_keypress_ZEE	112	stimuli_target_diamondrectangles.svg	stimuli_distractor_trianglediamonds.svg	19	yes	57	0	304	0	0			0	0			1				0	
6.6.1	win	2023-06-02	02:19:48	02:49:02	1750570	5d849ee0a954540019f513dd	3	1	main_z	11	main_z	113	stimuli_distractor_trianglediamonds.svg	stimuli_target_rectangletriangles.svg	9	yes	44	1	794	0	0			0	0			1				0	
6.6.1	win	2023-06-02	02:19:48	02:49:02	1750570	5d849ee0a954540019f513dd	3	1	main_z	11	advance_on_keypress_ZEE	114	stimuli_distractor_trianglediamonds.svg	stimuli_target_rectangletriangles.svg	9	yes	57	0	322	0	0			0	0			1				0	
6.6.1	win	2023-06-02	02:19:48	02:49:03	1752361	5d849ee0a954540019f513dd	3	1	main_z	11	main_z	115	stimuli_target_rectanglediamonds.svg	stimuli_distractor_trianglediamonds.svg	2	yes	44	1	828	0	0			0	0			1				0	
6.6.1	win	2023-06-02	02:19:48	02:49:03	1752361	5d849ee0a954540019f513dd	3	1	main_z	11	advance_on_keypress_ZEE	116	stimuli_target_rectanglediamonds.svg	stimuli_distractor_trianglediamonds.svg	2	yes	57	0	273	0	0			0	0			1				0	
6.6.1	win	2023-06-02	02:19:48	02:49:05	1753969	5d849ee0a954540019f513dd	3	1	main_z	11	main_z	117	stimuli_target_diamondsquares.svg	stimuli_distractor_diamondtriangles.svg	24	yes	44	1	669	0	0			0	0			1				0	
6.6.1	win	2023-06-02	02:19:48	02:49:05	1753969	5d849ee0a954540019f513dd	3	1	main_z	11	advance_on_keypress_ZEE	118	stimuli_target_diamondsquares.svg	stimuli_distractor_diamondtriangles.svg	24	yes	57	0	306	0	0			0	0			1				0	
6.6.1	win	2023-06-02	02:19:48	02:49:07	1755650	5d849ee0a954540019f513dd	3	1	main_z	11	main_z	119	stimuli_distractor_trianglediamonds.svg	stimuli_target_diamondrectangles.svg	27	yes	44	1	724	0	0			0	0			1				0	
6.6.1	win	2023-06-02	02:19:48	02:49:07	1755650	5d849ee0a954540019f513dd	3	1	main_z	11	advance_on_keypress_ZEE	120	stimuli_distractor_trianglediamonds.svg	stimuli_target_diamondrectangles.svg	27	yes	57	0	326	0	0			0	0			1				0	
6.6.1	win	2023-06-02	02:19:48	02:49:08	1757367	5d849ee0a954540019f513dd	3	1	main_z	11	main_z	121	stimuli_distractor_trianglediamonds.svg	stimuli_target_rectanglediamonds.svg	10	yes	44	1	728	0	0			0	0			1				0	
6.6.1	win	2023-06-02	02:19:48	02:49:08	1757367	5d849ee0a954540019f513dd	3	1	main_z	11	advance_on_keypress_ZEE	122	stimuli_distractor_trianglediamonds.svg	stimuli_target_rectanglediamonds.svg	10	yes	57	0	313	0	0			0	0			1				0	
6.6.1	win	2023-06-02	02:19:48	02:49:10	1759060	5d849ee0a954540019f513dd	3	1	main_z	11	main_z	123	stimuli_target_rectangletriangles.svg	stimuli_distractor_diamondtriangles.svg	5	yes	44	1	723	0	0			0	0			1				0	
6.6.1	win	2023-06-02	02:19:48	02:49:10	1759060	5d849ee0a954540019f513dd	3	1	main_z	11	advance_on_keypress_ZEE	124	stimuli_target_rectangletriangles.svg	stimuli_distractor_diamondtriangles.svg	5	yes	57	0	382	0	0			0	0			1				0	
6.6.1	win	2023-06-02	02:19:48	02:49:12	1760845	5d849ee0a954540019f513dd	3	1	main_z	11	main_z	125	stimuli_target_squarediamonds.svg	stimuli_distractor_trianglediamonds.svg	4	yes	44	1	741	0	0			0	0			1				0	
6.6.1	win	2023-06-02	02:19:48	02:49:12	1760845	5d849ee0a954540019f513dd	3	1	main_z	11	advance_on_keypress_ZEE	126	stimuli_target_squarediamonds.svg	stimuli_distractor_trianglediamonds.svg	4	yes	57	0	366	0	0			0	0			1				0	
6.6.1	win	2023-06-02	02:19:48	02:49:15	1763859	5d849ee0a954540019f513dd	3	1	main_z	11	main_z	127	stimuli_distractor_trianglediamonds.svg	stimuli_distractor_diamondtriangles.svg	36	no	0	1	2000	0	0			0	0			1				0	
6.6.1	win	2023-06-02	02:19:48	02:49:15	1763859	5d849ee0a954540019f513dd	3	1	main_z	11	advance_on_keypress_ZEE	128	stimuli_distractor_trianglediamonds.svg	stimuli_distractor_diamondtriangles.svg	36	no	57	0	606	0	0			0	0			1				0	
6.6.1	win	2023-06-02	02:19:48	02:49:17	1765866	5d849ee0a954540019f513dd	3	1	main_z	11	main_z	129	stimuli_target_diamondsquares.svg	stimuli_distractor_trianglediamonds.svg	20	yes	44	1	740	0	0			0	0			1				0	
6.6.1	win	2023-06-02	02:19:48	02:49:17	1765866	5d849ee0a954540019f513dd	3	1	main_z	11	advance_on_keypress_ZEE	130	stimuli_target_diamondsquares.svg	stimuli_distractor_trianglediamonds.svg	20	yes	57	0	317	0	0			0	0			1				0	
6.6.1	win	2023-06-02	02:19:48	02:49:19	1767555	5d849ee0a954540019f513dd	3	1	main_z	11	main_z	131	stimuli_distractor_trianglediamonds.svg	stimuli_target_trianglesquares.svg	26	yes	44	1	720	0	0			0	0			1				0	
6.6.1	win	2023-06-02	02:19:48	02:49:19	1767555	5d849ee0a954540019f513dd	3	1	main_z	11	advance_on_keypress_ZEE	132	stimuli_distractor_trianglediamonds.svg	stimuli_target_trianglesquares.svg	26	yes	57	0	346	0	0			0	0			1				0	
6.6.1	win	2023-06-02	02:19:48	02:49:20	1769490	5d849ee0a954540019f513dd	3	1	main_z	11	main_z	133	stimuli_distractor_diamondtriangles.svg	stimuli_target_trianglerectangles.svg	29	yes	44	1	946	0	0			0	0			1				0	
6.6.1	win	2023-06-02	02:19:48	02:49:20	1769490	5d849ee0a954540019f513dd	3	1	main_z	11	advance_on_keypress_ZEE	134	stimuli_distractor_diamondtriangles.svg	stimuli_target_trianglerectangles.svg	29	yes	57	0	365	0	0			0	0			1				0	
6.6.1	win	2023-06-02	02:19:48	02:49:22	1771180	5d849ee0a954540019f513dd	3	1	main_z	11	main_z	135	stimuli_target_trianglerectangles.svg	stimuli_distractor_trianglediamonds.svg	17	yes	44	1	686	0	0			0	0			1				0	
6.6.1	win	2023-06-02	02:19:48	02:49:22	1771180	5d849ee0a954540019f513dd	3	1	main_z	11	advance_on_keypress_ZEE	136	stimuli_target_trianglerectangles.svg	stimuli_distractor_trianglediamonds.svg	17	yes	57	0	329	0	0			0	0			1				0	
6.6.1	win	2023-06-02	02:19:48	02:49:24	1773312	5d849ee0a954540019f513dd	3	1	main_z	11	main_z	137	stimuli_target_rectangletriangles.svg	stimuli_distractor_trianglediamonds.svg	1	yes	44	1	1146	0	0			0	0			1				0	
6.6.1	win	2023-06-02	02:19:48	02:49:24	1773312	5d849ee0a954540019f513dd	3	1	main_z	11	advance_on_keypress_ZEE	138	stimuli_target_rectangletriangles.svg	stimuli_distractor_trianglediamonds.svg	1	yes	57	0	291	0	0			0	0			1				0	
6.6.1	win	2023-06-02	02:19:48	02:49:27	1776260	5d849ee0a954540019f513dd	3	1	main_z	11	main_z	139	stimuli_distractor_trianglediamonds.svg	stimuli_distractor_trianglediamonds.svg	34	no	0	1	2000	0	0			0	0			1				0	
6.6.1	win	2023-06-02	02:19:48	02:49:27	1776260	5d849ee0a954540019f513dd	3	1	main_z	11	advance_on_keypress_ZEE	140	stimuli_distractor_trianglediamonds.svg	stimuli_distractor_trianglediamonds.svg	34	no	57	0	301	0	0			0	0			1				0	
6.6.1	win	2023-06-02	02:19:48	02:49:30	1779210	5d849ee0a954540019f513dd	3	1	main_z	11	main_z	141	stimuli_distractor_diamondtriangles.svg	stimuli_target_squaretriangles.svg	15	yes	0	0	2000	0	0			0	0			1				0	
6.6.1	win	2023-06-02	02:19:48	02:49:30	1779210	5d849ee0a954540019f513dd	3	1	main_z	11	advance_on_keypress_ZEE	142	stimuli_distractor_diamondtriangles.svg	stimuli_target_squaretriangles.svg	15	yes	57	0	320	0	0			0	0			1				0	
6.6.1	win	2023-06-02	02:19:48	02:49:32	1781100	5d849ee0a954540019f513dd	3	1	main_z	11	main_z	143	stimuli_distractor_trianglediamonds.svg	stimuli_distractor_diamondtriangles.svg	35	no	44	0	914	0	0			0	0			1				0	
6.6.1	win	2023-06-02	02:19:48	02:49:32	1781100	5d849ee0a954540019f513dd	3	1	main_z	11	advance_on_keypress_ZEE	144	stimuli_distractor_trianglediamonds.svg	stimuli_distractor_diamondtriangles.svg	35	no	57	0	276	0	0			0	0			1				0	
6.6.1	win	2023-06-02	02:19:48	02:49:34	1782794	5d849ee0a954540019f513dd	3	1	main_z	11	main_z	145	stimuli_distractor_diamondtriangles.svg	stimuli_target_trianglesquares.svg	30	yes	44	1	768	0	0			0	0			1				0	
6.6.1	win	2023-06-02	02:19:48	02:49:34	1782794	5d849ee0a954540019f513dd	3	1	main_z	11	advance_on_keypress_ZEE	146	stimuli_distractor_diamondtriangles.svg	stimuli_target_trianglesquares.svg	30	yes	57	0	273	0	0			0	0			1				0	
6.6.1	win	2023-06-02	02:19:48	02:49:35	1784436	5d849ee0a954540019f513dd	3	1	main_z	11	main_z	147	stimuli_target_diamondrectangles.svg	stimuli_distractor_diamondtriangles.svg	23	yes	44	1	700	0	0			0	0			1				0	
6.6.1	win	2023-06-02	02:19:48	02:49:35	1784436	5d849ee0a954540019f513dd	3	1	main_z	11	advance_on_keypress_ZEE	148	stimuli_target_diamondrectangles.svg	stimuli_distractor_diamondtriangles.svg	23	yes	57	0	280	0	0			0	0			1				0	
6.6.1	win	2023-06-02	02:19:48	02:49:37	1786077	5d849ee0a954540019f513dd	3	1	main_z	11	main_z	149	stimuli_distractor_diamondtriangles.svg	stimuli_target_diamondsquares.svg	32	yes	44	1	715	0	0			0	0			1				0	
6.6.1	win	2023-06-02	02:19:48	02:49:37	1786077	5d849ee0a954540019f513dd	3	1	main_z	11	advance_on_keypress_ZEE	150	stimuli_distractor_diamondtriangles.svg	stimuli_target_diamondsquares.svg	32	yes	57	0	310	0	0			0	0			1				0	
6.6.1	win	2023-06-02	02:19:48	02:49:40	1788518	5d849ee0a954540019f513dd	3	1	main_z	11	main_z	151	stimuli_distractor_trianglediamonds.svg	stimuli_target_squarediamonds.svg	12	yes	44	1	1464	0	0			0	0			1				0	
6.6.1	win	2023-06-02	02:19:48	02:49:40	1788518	5d849ee0a954540019f513dd	3	1	main_z	11	advance_on_keypress_ZEE	152	stimuli_distractor_trianglediamonds.svg	stimuli_target_squarediamonds.svg	12	yes	57	0	212	0	0			0	0			1				0	
6.6.1	win	2023-06-02	02:19:48	02:49:42	1790663	5d849ee0a954540019f513dd	3	1	main_z	11	main_z	153	stimuli_distractor_trianglediamonds.svg	stimuli_target_squaretriangles.svg	11	yes	44	1	1274	0	0			0	0			1				0	
6.6.1	win	2023-06-02	02:19:48	02:49:42	1790663	5d849ee0a954540019f513dd	3	1	main_z	11	advance_on_keypress_ZEE	154	stimuli_distractor_trianglediamonds.svg	stimuli_target_squaretriangles.svg	11	yes	57	0	294	0	0			0	0			1				0	
6.6.1	win	2023-06-02	02:19:48	02:49:44	1793274	5d849ee0a954540019f513dd	3	1	main_z	11	main_z	155	stimuli_target_trianglerectangles.svg	stimuli_distractor_diamondtriangles.svg	21	yes	44	1	1664	0	0			0	0			1				0	
6.6.1	win	2023-06-02	02:19:48	02:49:44	1793274	5d849ee0a954540019f513dd	3	1	main_z	11	advance_on_keypress_ZEE	156	stimuli_target_trianglerectangles.svg	stimuli_distractor_diamondtriangles.svg	21	yes	57	0	197	0	0			0	0			1				0	
6.6.1	win	2023-06-02	02:19:48	02:49:47	1796132	5d849ee0a954540019f513dd	3	1	main_z	11	main_z	157	stimuli_target_squaretriangles.svg	stimuli_distractor_diamondtriangles.svg	7	yes	0	0	2000	0	0			0	0			1				0	
6.6.1	win	2023-06-02	02:19:48	02:49:47	1796132	5d849ee0a954540019f513dd	3	1	main_z	11	advance_on_keypress_ZEE	158	stimuli_target_squaretriangles.svg	stimuli_distractor_diamondtriangles.svg	7	yes	57	0	460	0	0			0	0			1				0	
6.6.1	win	2023-06-02	02:19:48	02:49:50	1799245	5d849ee0a954540019f513dd	3	1	main_z	11	main_z	159	stimuli_distractor_trianglediamonds.svg	stimuli_distractor_trianglediamonds.svg	33	no	0	1	2000	0	0			0	0			1				0	
6.6.1	win	2023-06-02	02:19:48	02:49:50	1799245	5d849ee0a954540019f513dd	3	1	main_z	11	advance_on_keypress_ZEE	160	stimuli_distractor_trianglediamonds.svg	stimuli_distractor_trianglediamonds.svg	33	no	57	0	431	0	0			0	0			1				0	
6.6.1	win	2023-06-02	02:19:48	02:49:50	1799245	5d849ee0a954540019f513dd	3	1	headphonecheck_calibration	14	headphonecheck_calibrationIntro	1	stimuli_distractor_trianglediamonds.svg	stimuli_distractor_trianglediamonds.svg	33	no	calibrationButton	0	1212	0	0			0	0			1				0	
6.6.1	win	2023-06-02	02:19:48	02:49:50	1799245	5d849ee0a954540019f513dd	3	1	headphonecheck_testphase	15	test_collectResponse	3	stimuli_distractor_trianglediamonds.svg	stimuli_distractor_trianglediamonds.svg	33	no	first	1	278	1	3	antiphase_hc_soi.wav	1	0	0			1				0	
6.6.1	win	2023-06-02	02:19:48	02:49:50	1799245	5d849ee0a954540019f513dd	3	1	headphonecheck_testphase	15	test_collectResponse	6	stimuli_distractor_trianglediamonds.svg	stimuli_distractor_trianglediamonds.svg	33	no	second	1	229	2	1	antiphase_hc_iso.wav	2	0	0			1				0	
6.6.1	win	2023-06-02	02:19:48	02:49:50	1799245	5d849ee0a954540019f513dd	3	1	headphonecheck_testphase	15	test_collectResponse	9	stimuli_distractor_trianglediamonds.svg	stimuli_distractor_trianglediamonds.svg	33	no	first	1	281	3	4	antiphase_hc_sio.wav	1	0	0			1				0	
6.6.1	win	2023-06-02	02:19:48	02:49:50	1799245	5d849ee0a954540019f513dd	3	1	headphonecheck_testphase	15	test_collectResponse	12	stimuli_distractor_trianglediamonds.svg	stimuli_distractor_trianglediamonds.svg	33	no	third	1	320	4	2	antiphase_hc_ios.wav	3	0	0			1				0	
6.6.1	win	2023-06-02	02:19:48	02:49:50	1799245	5d849ee0a954540019f513dd	3	1	headphonecheck_testphase	15	test_collectResponse	15	stimuli_distractor_trianglediamonds.svg	stimuli_distractor_trianglediamonds.svg	33	no	third	1	229	5	6	antiphase_hc_ois.wav	3	0	0			1				0	
6.6.1	win	2023-06-02	02:19:48	02:49:50	1799245	5d849ee0a954540019f513dd	3	1	headphonecheck_testphase	15	test_collectResponse	18	stimuli_distractor_trianglediamonds.svg	stimuli_distractor_trianglediamonds.svg	33	no	second	1	260	6	5	antiphase_hc_osi.wav	2	0	0			1				0	
6.6.1	win	2023-06-02	02:19:48	02:49:50	1799245	5d849ee0a954540019f513dd	3	1	stereocheck_calibration	17	stereocheck_calibrationIntro	1	stimuli_distractor_trianglediamonds.svg	stimuli_distractor_trianglediamonds.svg	33	no	stereocheck_calibrationButton	0	881	6	5	antiphase_hc_osi.wav	2	0	0			1				0	
6.6.1	win	2023-06-02	02:19:48	02:49:50	1799245	5d849ee0a954540019f513dd	3	1	stereocheck_testphase	18	stereocheck_test_collectResponse	3	stimuli_distractor_trianglediamonds.svg	stimuli_distractor_trianglediamonds.svg	33	no	stereocheck_right	1	2962	6	5	antiphase_hc_osi.wav	2	1	4	noise_calib_stim_RIGHT.wav	2	1				0	
6.6.1	win	2023-06-02	02:19:48	02:49:50	1799245	5d849ee0a954540019f513dd	3	1	stereocheck_testphase	18	stereocheck_test_collectResponse	6	stimuli_distractor_trianglediamonds.svg	stimuli_distractor_trianglediamonds.svg	33	no	stereocheck_left	1	213	6	5	antiphase_hc_osi.wav	2	2	1	noise_calib_stim_LEFT.wav	1	1				0	
6.6.1	win	2023-06-02	02:19:48	02:49:50	1799245	5d849ee0a954540019f513dd	3	1	stereocheck_testphase	18	stereocheck_test_collectResponse	9	stimuli_distractor_trianglediamonds.svg	stimuli_distractor_trianglediamonds.svg	33	no	stereocheck_right	1	215	6	5	antiphase_hc_osi.wav	2	3	6	noise_calib_stim_RIGHT.wav	2	1				0	
6.6.1	win	2023-06-02	02:19:48	02:49:50	1799245	5d849ee0a954540019f513dd	3	1	stereocheck_testphase	18	stereocheck_test_collectResponse	12	stimuli_distractor_trianglediamonds.svg	stimuli_distractor_trianglediamonds.svg	33	no	stereocheck_left	1	194	6	5	antiphase_hc_osi.wav	2	4	3	noise_calib_stim_LEFT.wav	1	1				0	
6.6.1	win	2023-06-02	02:19:48	02:49:50	1799245	5d849ee0a954540019f513dd	3	1	stereocheck_testphase	18	stereocheck_test_collectResponse	15	stimuli_distractor_trianglediamonds.svg	stimuli_distractor_trianglediamonds.svg	33	no	stereocheck_left	1	192	6	5	antiphase_hc_osi.wav	2	5	2	noise_calib_stim_LEFT.wav	1	1				0	
6.6.1	win	2023-06-02	02:19:48	02:49:50	1799245	5d849ee0a954540019f513dd	3	1	stereocheck_testphase	18	stereocheck_test_collectResponse	18	stimuli_distractor_trianglediamonds.svg	stimuli_distractor_trianglediamonds.svg	33	no	stereocheck_right	1	561	6	5	antiphase_hc_osi.wav	2	6	5	noise_calib_stim_RIGHT.wav	2	1				0	
6.6.1	win	2023-06-02	02:19:48	02:49:50	1799245	5d849ee0a954540019f513dd	3	1	DL_practice	21	DL_practice	2	stimuli_distractor_trianglediamonds.svg	stimuli_distractor_trianglediamonds.svg	33	no	da	1	889	6	5	antiphase_hc_osi.wav	2	6	5	noise_calib_stim_RIGHT.wav	2	8	blb_dichoticlistening_da-da.mp3	da	da	0	left
6.6.1	win	2023-06-02	02:19:48	02:49:50	1799245	5d849ee0a954540019f513dd	3	1	DL_practice	21	DL_practice	3	stimuli_distractor_trianglediamonds.svg	stimuli_distractor_trianglediamonds.svg	33	no	pa	1	1667	6	5	antiphase_hc_osi.wav	2	6	5	noise_calib_stim_RIGHT.wav	2	23	blb_dichoticlistening_ka-pa.mp3	ka	pa	1	right
6.6.1	win	2023-06-02	02:19:48	02:49:50	1799245	5d849ee0a954540019f513dd	3	1	DL_practice	21	DL_practice	4	stimuli_distractor_trianglediamonds.svg	stimuli_distractor_trianglediamonds.svg	33	no	da	1	734	6	5	antiphase_hc_osi.wav	2	6	5	noise_calib_stim_RIGHT.wav	2	7	blb_dichoticlistening_da-ba.mp3	da	ba	1	left
6.6.1	win	2023-06-02	02:19:48	02:49:50	1799245	5d849ee0a954540019f513dd	3	1	DL_practice	21	DL_practice	5	stimuli_distractor_trianglediamonds.svg	stimuli_distractor_trianglediamonds.svg	33	no	pa	1	828	6	5	antiphase_hc_osi.wav	2	6	5	noise_calib_stim_RIGHT.wav	2	29	blb_dichoticlistening_pa-pa.mp3	pa	pa	0	left
6.6.1	win	2023-06-02	02:19:48	02:49:50	1799245	5d849ee0a954540019f513dd	3	1	DL_practice	21	DL_practice	6	stimuli_distractor_trianglediamonds.svg	stimuli_distractor_trianglediamonds.svg	33	no	ga	1	912	6	5	antiphase_hc_osi.wav	2	6	5	noise_calib_stim_RIGHT.wav	2	15	blb_dichoticlistening_ga-ga.mp3	ga	ga	0	left
6.6.1	win	2023-06-02	02:19:48	02:49:50	1799245	5d849ee0a954540019f513dd	3	1	DL_practice	21	DL_practice	7	stimuli_distractor_trianglediamonds.svg	stimuli_distractor_trianglediamonds.svg	33	no	ba	1	1307	6	5	antiphase_hc_osi.wav	2	6	5	noise_calib_stim_RIGHT.wav	2	1	blb_dichoticlistening_ba-ba.mp3	ba	ba	0	left
6.6.1	win	2023-06-02	02:19:48	02:49:50	1799245	5d849ee0a954540019f513dd	3	1	DL_practice	21	DL_practice	8	stimuli_distractor_trianglediamonds.svg	stimuli_distractor_trianglediamonds.svg	33	no	ka	0	1691	6	5	antiphase_hc_osi.wav	2	6	5	noise_calib_stim_RIGHT.wav	2	18	blb_dichoticlistening_ga-ta.mp3	ga	ta	1	other
6.6.1	win	2023-06-02	02:19:48	02:49:50	1799245	5d849ee0a954540019f513dd	3	1	DL_practice	21	DL_practice	9	stimuli_distractor_trianglediamonds.svg	stimuli_distractor_trianglediamonds.svg	33	no	ta	1	1180	6	5	antiphase_hc_osi.wav	2	6	5	noise_calib_stim_RIGHT.wav	2	36	blb_dichoticlistening_ta-ta.mp3	ta	ta	0	left
6.6.1	win	2023-06-02	02:19:48	02:49:50	1799245	5d849ee0a954540019f513dd	3	1	DL_practice	21	DL_practice	10	stimuli_distractor_trianglediamonds.svg	stimuli_distractor_trianglediamonds.svg	33	no	ka	1	1242	6	5	antiphase_hc_osi.wav	2	6	5	noise_calib_stim_RIGHT.wav	2	22	blb_dichoticlistening_ka-ka.mp3	ka	ka	0	left
6.6.1	win	2023-06-02	02:19:48	02:49:50	1799245	5d849ee0a954540019f513dd	3	1	DL_test	23	DL_test	1	stimuli_distractor_trianglediamonds.svg	stimuli_distractor_trianglediamonds.svg	33	no	ka	1	1278	6	5	antiphase_hc_osi.wav	2	6	5	noise_calib_stim_RIGHT.wav	2	28	blb_dichoticlistening_pa-ka.mp3	pa	ka	1	right
6.6.1	win	2023-06-02	02:19:48	02:49:50	1799245	5d849ee0a954540019f513dd	3	1	DL_test	23	DL_test	2	stimuli_distractor_trianglediamonds.svg	stimuli_distractor_trianglediamonds.svg	33	no	da	1	1105	6	5	antiphase_hc_osi.wav	2	6	5	noise_calib_stim_RIGHT.wav	2	7	blb_dichoticlistening_da-ba.mp3	da	ba	1	left
6.6.1	win	2023-06-02	02:19:48	02:49:50	1799245	5d849ee0a954540019f513dd	3	1	DL_test	23	DL_test	3	stimuli_distractor_trianglediamonds.svg	stimuli_distractor_trianglediamonds.svg	33	no	ta	1	1130	6	5	antiphase_hc_osi.wav	2	6	5	noise_calib_stim_RIGHT.wav	2	36	blb_dichoticlistening_ta-ta.mp3	ta	ta	0	left
6.6.1	win	2023-06-02	02:19:48	02:49:50	1799245	5d849ee0a954540019f513dd	3	1	DL_test	23	DL_test	4	stimuli_distractor_trianglediamonds.svg	stimuli_distractor_trianglediamonds.svg	33	no	ta	1	930	6	5	antiphase_hc_osi.wav	2	6	5	noise_calib_stim_RIGHT.wav	2	12	blb_dichoticlistening_da-ta.mp3	da	ta	1	right
6.6.1	win	2023-06-02	02:19:48	02:49:50	1799245	5d849ee0a954540019f513dd	3	1	DL_test	23	DL_test	5	stimuli_distractor_trianglediamonds.svg	stimuli_distractor_trianglediamonds.svg	33	no	da	1	794	6	5	antiphase_hc_osi.wav	2	6	5	noise_calib_stim_RIGHT.wav	2	2	blb_dichoticlistening_ba-da.mp3	ba	da	1	right
6.6.1	win	2023-06-02	02:19:48	02:49:50	1799245	5d849ee0a954540019f513dd	3	1	DL_test	23	DL_test	6	stimuli_distractor_trianglediamonds.svg	stimuli_distractor_trianglediamonds.svg	33	no	ka	1	1127	6	5	antiphase_hc_osi.wav	2	6	5	noise_calib_stim_RIGHT.wav	2	19	blb_dichoticlistening_ka-ba.mp3	ka	ba	1	left
6.6.1	win	2023-06-02	02:19:48	02:49:50	1799245	5d849ee0a954540019f513dd	3	1	DL_test	23	DL_test	7	stimuli_distractor_trianglediamonds.svg	stimuli_distractor_trianglediamonds.svg	33	no	pa	1	937	6	5	antiphase_hc_osi.wav	2	6	5	noise_calib_stim_RIGHT.wav	2	23	blb_dichoticlistening_ka-pa.mp3	ka	pa	1	right
6.6.1	win	2023-06-02	02:19:48	02:49:50	1799245	5d849ee0a954540019f513dd	3	1	DL_test	23	DL_test	8	stimuli_distractor_trianglediamonds.svg	stimuli_distractor_trianglediamonds.svg	33	no	pa	1	832	6	5	antiphase_hc_osi.wav	2	6	5	noise_calib_stim_RIGHT.wav	2	11	blb_dichoticlistening_da-pa.mp3	da	pa	1	right
6.6.1	win	2023-06-02	02:19:48	02:49:50	1799245	5d849ee0a954540019f513dd	3	1	DL_test	23	DL_test	9	stimuli_distractor_trianglediamonds.svg	stimuli_distractor_trianglediamonds.svg	33	no	ka	1	796	6	5	antiphase_hc_osi.wav	2	6	5	noise_calib_stim_RIGHT.wav	2	21	blb_dichoticlistening_ka-ga.mp3	ka	ga	1	left
6.6.1	win	2023-06-02	02:19:48	02:49:50	1799245	5d849ee0a954540019f513dd	3	1	DL_test	23	DL_test	10	stimuli_distractor_trianglediamonds.svg	stimuli_distractor_trianglediamonds.svg	33	no	pa	0	1049	6	5	antiphase_hc_osi.wav	2	6	5	noise_calib_stim_RIGHT.wav	2	10	blb_dichoticlistening_da-ka.mp3	da	ka	1	other
6.6.1	win	2023-06-02	02:19:48	02:49:50	1799245	5d849ee0a954540019f513dd	3	1	DL_test	23	DL_test	11	stimuli_distractor_trianglediamonds.svg	stimuli_distractor_trianglediamonds.svg	33	no	da	1	908	6	5	antiphase_hc_osi.wav	2	6	5	noise_calib_stim_RIGHT.wav	2	9	blb_dichoticlistening_da-ga.mp3	da	ga	1	left
6.6.1	win	2023-06-02	02:19:48	02:49:50	1799245	5d849ee0a954540019f513dd	3	1	DL_test	23	DL_test	12	stimuli_distractor_trianglediamonds.svg	stimuli_distractor_trianglediamonds.svg	33	no	ka	1	861	6	5	antiphase_hc_osi.wav	2	6	5	noise_calib_stim_RIGHT.wav	2	22	blb_dichoticlistening_ka-ka.mp3	ka	ka	0	left
6.6.1	win	2023-06-02	02:19:48	02:49:50	1799245	5d849ee0a954540019f513dd	3	1	DL_test	23	DL_test	13	stimuli_distractor_trianglediamonds.svg	stimuli_distractor_trianglediamonds.svg	33	no	da	1	1136	6	5	antiphase_hc_osi.wav	2	6	5	noise_calib_stim_RIGHT.wav	2	32	blb_dichoticlistening_ta-da.mp3	ta	da	1	right
6.6.1	win	2023-06-02	02:19:48	02:49:50	1799245	5d849ee0a954540019f513dd	3	1	DL_test	23	DL_test	14	stimuli_distractor_trianglediamonds.svg	stimuli_distractor_trianglediamonds.svg	33	no	pa	1	934	6	5	antiphase_hc_osi.wav	2	6	5	noise_calib_stim_RIGHT.wav	2	5	blb_dichoticlistening_ba-pa.mp3	ba	pa	1	right
6.6.1	win	2023-06-02	02:19:48	02:49:50	1799245	5d849ee0a954540019f513dd	3	1	DL_test	23	DL_test	15	stimuli_distractor_trianglediamonds.svg	stimuli_distractor_trianglediamonds.svg	33	no	ka	0	758	6	5	antiphase_hc_osi.wav	2	6	5	noise_calib_stim_RIGHT.wav	2	18	blb_dichoticlistening_ga-ta.mp3	ga	ta	1	other
6.6.1	win	2023-06-02	02:19:48	02:49:50	1799245	5d849ee0a954540019f513dd	3	1	DL_test	23	DL_test	16	stimuli_distractor_trianglediamonds.svg	stimuli_distractor_trianglediamonds.svg	33	no	ga	1	788	6	5	antiphase_hc_osi.wav	2	6	5	noise_calib_stim_RIGHT.wav	2	15	blb_dichoticlistening_ga-ga.mp3	ga	ga	0	left
6.6.1	win	2023-06-02	02:19:48	02:49:50	1799245	5d849ee0a954540019f513dd	3	1	DL_test	23	DL_test	17	stimuli_distractor_trianglediamonds.svg	stimuli_distractor_trianglediamonds.svg	33	no	ba	1	1249	6	5	antiphase_hc_osi.wav	2	6	5	noise_calib_stim_RIGHT.wav	2	1	blb_dichoticlistening_ba-ba.mp3	ba	ba	0	left
6.6.1	win	2023-06-02	02:19:48	02:49:50	1799245	5d849ee0a954540019f513dd	3	1	DL_test	23	DL_test	18	stimuli_distractor_trianglediamonds.svg	stimuli_distractor_trianglediamonds.svg	33	no	pa	1	988	6	5	antiphase_hc_osi.wav	2	6	5	noise_calib_stim_RIGHT.wav	2	29	blb_dichoticlistening_pa-pa.mp3	pa	pa	0	left
6.6.1	win	2023-06-02	02:19:48	02:49:50	1799245	5d849ee0a954540019f513dd	3	1	DL_test	23	DL_test	19	stimuli_distractor_trianglediamonds.svg	stimuli_distractor_trianglediamonds.svg	33	no	ta	1	949	6	5	antiphase_hc_osi.wav	2	6	5	noise_calib_stim_RIGHT.wav	2	35	blb_dichoticlistening_ta-pa.mp3	ta	pa	1	left
6.6.1	win	2023-06-02	02:19:48	02:49:50	1799245	5d849ee0a954540019f513dd	3	1	DL_test	23	DL_test	20	stimuli_distractor_trianglediamonds.svg	stimuli_distractor_trianglediamonds.svg	33	no	ga	1	790	6	5	antiphase_hc_osi.wav	2	6	5	noise_calib_stim_RIGHT.wav	2	33	blb_dichoticlistening_ta-ga.mp3	ta	ga	1	right
6.6.1	win	2023-06-02	02:19:48	02:49:50	1799245	5d849ee0a954540019f513dd	3	1	DL_test	23	DL_test	21	stimuli_distractor_trianglediamonds.svg	stimuli_distractor_trianglediamonds.svg	33	no	ta	1	911	6	5	antiphase_hc_osi.wav	2	6	5	noise_calib_stim_RIGHT.wav	2	30	blb_dichoticlistening_pa-ta.mp3	pa	ta	1	right
6.6.1	win	2023-06-02	02:19:48	02:49:50	1799245	5d849ee0a954540019f513dd	3	1	DL_test	23	DL_test	22	stimuli_distractor_trianglediamonds.svg	stimuli_distractor_trianglediamonds.svg	33	no	pa	1	1528	6	5	antiphase_hc_osi.wav	2	6	5	noise_calib_stim_RIGHT.wav	2	25	blb_dichoticlistening_pa-ba.mp3	pa	ba	1	left
6.6.1	win	2023-06-02	02:19:48	02:49:50	1799245	5d849ee0a954540019f513dd	3	1	DL_test	23	DL_test	23	stimuli_distractor_trianglediamonds.svg	stimuli_distractor_trianglediamonds.svg	33	no	ba	1	1104	6	5	antiphase_hc_osi.wav	2	6	5	noise_calib_stim_RIGHT.wav	2	13	blb_dichoticlistening_ga-ba.mp3	ga	ba	1	right
6.6.1	win	2023-06-02	02:19:48	02:49:50	1799245	5d849ee0a954540019f513dd	3	1	DL_test	23	DL_test	24	stimuli_distractor_trianglediamonds.svg	stimuli_distractor_trianglediamonds.svg	33	no	ta	1	1779	6	5	antiphase_hc_osi.wav	2	6	5	noise_calib_stim_RIGHT.wav	2	31	blb_dichoticlistening_ta-ba.mp3	ta	ba	1	left
