build	computer.platform	date	time	timestamp	time_elapsed_ms	subject	group	session	blockcode	blocknum	trialcode	trialnum	stimulus_left	stimulus_right	stim_index	target_present	response	correct	latency	headphonecheck_countTestTrials	headphonecheck_index	headphonecheck_testSound	headphonecheck_correctResponse	stereocheck_countTestTrials	stereocheck_index	stereocheck_testSound	stereocheck_correctResponse	DL_index	DL_soundfile	DL_leftSound	DL_rightSound	DL_dualSound	DL_choice
6.6.1	win	2023-06-02	02:39:57	02:46:06	366016	5b9aa47491b20a0001176287	4	1	practice_z	5	practice_z	1	stimuli_distractor_trianglediamonds.svg	stimuli_distractor_diamondtriangles.svg	16	no	44	0	579	0	0			0	0			1				0	
6.6.1	win	2023-06-02	02:39:57	02:46:06	366016	5b9aa47491b20a0001176287	4	1	practice_z	5	advance_on_keypress_ZEE	2	stimuli_distractor_trianglediamonds.svg	stimuli_distractor_diamondtriangles.svg	16	no	57	0	3089	0	0			0	0			1				0	
6.6.1	win	2023-06-02	02:39:57	02:46:12	371233	5b9aa47491b20a0001176287	4	1	practice_z	5	practice_z	3	stimuli_target_rectanglediamonds.svg	stimuli_distractor_diamondtriangles.svg	1	yes	44	1	498	0	0			0	0			1				0	
6.6.1	win	2023-06-02	02:39:57	02:46:12	371233	5b9aa47491b20a0001176287	4	1	practice_z	5	advance_on_keypress_ZEE	4	stimuli_target_rectanglediamonds.svg	stimuli_distractor_diamondtriangles.svg	1	yes	57	0	3455	0	0			0	0			1				0	
6.6.1	win	2023-06-02	02:39:57	02:46:19	378321	5b9aa47491b20a0001176287	4	1	practice_z	5	practice_z	5	stimuli_distractor_diamondtriangles.svg	stimuli_distractor_diamondtriangles.svg	13	no	0	1	2003	0	0			0	0			1				0	
6.6.1	win	2023-06-02	02:39:57	02:46:19	378321	5b9aa47491b20a0001176287	4	1	practice_z	5	advance_on_keypress_ZEE	6	stimuli_distractor_diamondtriangles.svg	stimuli_distractor_diamondtriangles.svg	13	no	57	0	4931	0	0			0	0			1				0	
6.6.1	win	2023-06-02	02:39:57	02:46:26	385755	5b9aa47491b20a0001176287	4	1	practice_z	5	practice_z	7	stimuli_distractor_diamondtriangles.svg	stimuli_distractor_trianglediamonds.svg	14	no	44	0	880	0	0			0	0			1				0	
6.6.1	win	2023-06-02	02:39:57	02:46:26	385755	5b9aa47491b20a0001176287	4	1	practice_z	5	advance_on_keypress_ZEE	8	stimuli_distractor_diamondtriangles.svg	stimuli_distractor_trianglediamonds.svg	14	no	57	0	899	0	0			0	0			1				0	
6.6.1	win	2023-06-02	02:39:57	02:46:31	390287	5b9aa47491b20a0001176287	4	1	practice_z	5	practice_z	9	stimuli_distractor_diamondtriangles.svg	stimuli_target_trianglerectangles.svg	9	yes	0	0	2003	0	0			0	0			1				0	
6.6.1	win	2023-06-02	02:39:57	02:46:31	390287	5b9aa47491b20a0001176287	4	1	practice_z	5	advance_on_keypress_ZEE	10	stimuli_distractor_diamondtriangles.svg	stimuli_target_trianglerectangles.svg	9	yes	57	0	659	0	0			0	0			1				0	
6.6.1	win	2023-06-02	02:39:57	02:46:34	393527	5b9aa47491b20a0001176287	4	1	practice_z	5	practice_z	11	stimuli_distractor_diamondtriangles.svg	stimuli_target_diamondrectangles.svg	8	yes	44	1	951	0	0			0	0			1				0	
6.6.1	win	2023-06-02	02:39:57	02:46:34	393527	5b9aa47491b20a0001176287	4	1	practice_z	5	advance_on_keypress_ZEE	12	stimuli_distractor_diamondtriangles.svg	stimuli_target_diamondrectangles.svg	8	yes	57	0	850	0	0			0	0			1				0	
6.6.1	win	2023-06-02	02:39:57	02:46:37	396665	5b9aa47491b20a0001176287	4	1	practice_z	5	practice_z	13	stimuli_distractor_trianglediamonds.svg	stimuli_target_diamondrectangles.svg	12	yes	44	1	659	0	0			0	0			1				0	
6.6.1	win	2023-06-02	02:39:57	02:46:37	396665	5b9aa47491b20a0001176287	4	1	practice_z	5	advance_on_keypress_ZEE	14	stimuli_distractor_trianglediamonds.svg	stimuli_target_diamondrectangles.svg	12	yes	57	0	527	0	0			0	0			1				0	
6.6.1	win	2023-06-02	02:39:57	02:46:40	399461	5b9aa47491b20a0001176287	4	1	practice_z	5	practice_z	15	stimuli_target_squarediamonds.svg	stimuli_distractor_trianglediamonds.svg	5	yes	44	1	642	0	0			0	0			1				0	
6.6.1	win	2023-06-02	02:39:57	02:46:40	399461	5b9aa47491b20a0001176287	4	1	practice_z	5	advance_on_keypress_ZEE	16	stimuli_target_squarediamonds.svg	stimuli_distractor_trianglediamonds.svg	5	yes	57	0	841	0	0			0	0			1				0	
6.6.1	win	2023-06-02	02:39:57	02:46:43	402812	5b9aa47491b20a0001176287	4	1	practice_z	5	practice_z	17	stimuli_distractor_trianglediamonds.svg	stimuli_target_squarediamonds.svg	11	yes	44	1	875	0	0			0	0			1				0	
6.6.1	win	2023-06-02	02:39:57	02:46:43	402812	5b9aa47491b20a0001176287	4	1	practice_z	5	advance_on_keypress_ZEE	18	stimuli_distractor_trianglediamonds.svg	stimuli_target_squarediamonds.svg	11	yes	57	0	823	0	0			0	0			1				0	
6.6.1	win	2023-06-02	02:39:57	02:46:47	406286	5b9aa47491b20a0001176287	4	1	practice_z	5	practice_z	19	stimuli_target_squarediamonds.svg	stimuli_distractor_diamondtriangles.svg	2	yes	44	1	1024	0	0			0	0			1				0	
6.6.1	win	2023-06-02	02:39:57	02:46:47	406286	5b9aa47491b20a0001176287	4	1	practice_z	5	advance_on_keypress_ZEE	20	stimuli_target_squarediamonds.svg	stimuli_distractor_diamondtriangles.svg	2	yes	57	0	410	0	0			0	0			1				0	
6.6.1	win	2023-06-02	02:39:57	02:46:51	410321	5b9aa47491b20a0001176287	4	1	practice_z	5	practice_z	21	stimuli_distractor_trianglediamonds.svg	stimuli_distractor_trianglediamonds.svg	15	no	0	1	2003	0	0			0	0			1				0	
6.6.1	win	2023-06-02	02:39:57	02:46:51	410321	5b9aa47491b20a0001176287	4	1	practice_z	5	advance_on_keypress_ZEE	22	stimuli_distractor_trianglediamonds.svg	stimuli_distractor_trianglediamonds.svg	15	no	57	0	653	0	0			0	0			1				0	
6.6.1	win	2023-06-02	02:39:57	02:46:54	413382	5b9aa47491b20a0001176287	4	1	practice_z	5	practice_z	23	stimuli_target_diamondsquares.svg	stimuli_distractor_diamondtriangles.svg	3	yes	44	1	778	0	0			0	0			1				0	
6.6.1	win	2023-06-02	02:39:57	02:46:54	413382	5b9aa47491b20a0001176287	4	1	practice_z	5	advance_on_keypress_ZEE	24	stimuli_target_diamondsquares.svg	stimuli_distractor_diamondtriangles.svg	3	yes	57	0	710	0	0			0	0			1				0	
6.6.1	win	2023-06-02	02:39:57	02:46:57	416452	5b9aa47491b20a0001176287	4	1	practice_z	5	practice_z	25	stimuli_distractor_diamondtriangles.svg	stimuli_target_rectangletriangles.svg	7	yes	44	1	730	0	0			0	0			1				0	
6.6.1	win	2023-06-02	02:39:57	02:46:57	416452	5b9aa47491b20a0001176287	4	1	practice_z	5	advance_on_keypress_ZEE	26	stimuli_distractor_diamondtriangles.svg	stimuli_target_rectangletriangles.svg	7	yes	57	0	1933	0	0			0	0			1				0	
6.6.1	win	2023-06-02	02:39:57	02:47:01	420645	5b9aa47491b20a0001176287	4	1	practice_z	5	practice_z	27	stimuli_distractor_trianglediamonds.svg	stimuli_target_rectanglediamonds.svg	10	yes	44	1	633	0	0			0	0			1				0	
6.6.1	win	2023-06-02	02:39:57	02:47:01	420645	5b9aa47491b20a0001176287	4	1	practice_z	5	advance_on_keypress_ZEE	28	stimuli_distractor_trianglediamonds.svg	stimuli_target_rectanglediamonds.svg	10	yes	57	0	580	0	0			0	0			1				0	
6.6.1	win	2023-06-02	02:39:57	02:47:04	423645	5b9aa47491b20a0001176287	4	1	practice_z	5	practice_z	29	stimuli_target_diamondsquares.svg	stimuli_distractor_trianglediamonds.svg	6	yes	44	1	792	0	0			0	0			1				0	
6.6.1	win	2023-06-02	02:39:57	02:47:04	423645	5b9aa47491b20a0001176287	4	1	practice_z	5	advance_on_keypress_ZEE	30	stimuli_target_diamondsquares.svg	stimuli_distractor_trianglediamonds.svg	6	yes	57	0	1226	0	0			0	0			1				0	
6.6.1	win	2023-06-02	02:39:57	02:47:08	427188	5b9aa47491b20a0001176287	4	1	practice_z	5	practice_z	31	stimuli_target_rectanglediamonds.svg	stimuli_distractor_trianglediamonds.svg	4	yes	44	1	690	0	0			0	0			1				0	
6.6.1	win	2023-06-02	02:39:57	02:47:08	427188	5b9aa47491b20a0001176287	4	1	practice_z	5	advance_on_keypress_ZEE	32	stimuli_target_rectanglediamonds.svg	stimuli_distractor_trianglediamonds.svg	4	yes	57	0	646	0	0			0	0			1				0	
6.6.1	win	2023-06-02	02:39:57	02:47:27	446556	5b9aa47491b20a0001176287	4	1	main_z	7	main_z	1	stimuli_target_diamondrectangles.svg	stimuli_distractor_trianglediamonds.svg	19	yes	0	0	2003	0	0			0	0			1				0	
6.6.1	win	2023-06-02	02:39:57	02:47:27	446556	5b9aa47491b20a0001176287	4	1	main_z	7	advance_on_keypress_ZEE	2	stimuli_target_diamondrectangles.svg	stimuli_distractor_trianglediamonds.svg	19	yes	57	0	905	0	0			0	0			1				0	
6.6.1	win	2023-06-02	02:39:57	02:47:31	450084	5b9aa47491b20a0001176287	4	1	main_z	7	main_z	3	stimuli_distractor_trianglediamonds.svg	stimuli_distractor_trianglediamonds.svg	33	no	0	1	2003	0	0			0	0			1				0	
6.6.1	win	2023-06-02	02:39:57	02:47:31	450084	5b9aa47491b20a0001176287	4	1	main_z	7	advance_on_keypress_ZEE	4	stimuli_distractor_trianglediamonds.svg	stimuli_distractor_trianglediamonds.svg	33	no	57	0	654	0	0			0	0			1				0	
6.6.1	win	2023-06-02	02:39:57	02:47:33	452211	5b9aa47491b20a0001176287	4	1	main_z	7	main_z	5	stimuli_target_squarediamonds.svg	stimuli_distractor_diamondtriangles.svg	8	yes	44	1	853	0	0			0	0			1				0	
6.6.1	win	2023-06-02	02:39:57	02:47:33	452211	5b9aa47491b20a0001176287	4	1	main_z	7	advance_on_keypress_ZEE	6	stimuli_target_squarediamonds.svg	stimuli_distractor_diamondtriangles.svg	8	yes	57	0	1000	0	0			0	0			1				0	
6.6.1	win	2023-06-02	02:39:57	02:47:35	454508	5b9aa47491b20a0001176287	4	1	main_z	7	main_z	7	stimuli_target_squarediamonds.svg	stimuli_distractor_trianglediamonds.svg	4	yes	44	1	671	0	0			0	0			1				0	
6.6.1	win	2023-06-02	02:39:57	02:47:35	454508	5b9aa47491b20a0001176287	4	1	main_z	7	advance_on_keypress_ZEE	8	stimuli_target_squarediamonds.svg	stimuli_distractor_trianglediamonds.svg	4	yes	57	0	737	0	0			0	0			1				0	
6.6.1	win	2023-06-02	02:39:57	02:47:37	456696	5b9aa47491b20a0001176287	4	1	main_z	7	main_z	9	stimuli_distractor_trianglediamonds.svg	stimuli_target_squaretriangles.svg	11	yes	44	1	831	0	0			0	0			1				0	
6.6.1	win	2023-06-02	02:39:57	02:47:37	456696	5b9aa47491b20a0001176287	4	1	main_z	7	advance_on_keypress_ZEE	10	stimuli_distractor_trianglediamonds.svg	stimuli_target_squaretriangles.svg	11	yes	57	0	596	0	0			0	0			1				0	
6.6.1	win	2023-06-02	02:39:57	02:47:40	459917	5b9aa47491b20a0001176287	4	1	main_z	7	main_z	11	stimuli_distractor_trianglediamonds.svg	stimuli_distractor_diamondtriangles.svg	36	no	0	1	2003	0	0			0	0			1				0	
6.6.1	win	2023-06-02	02:39:57	02:47:40	459917	5b9aa47491b20a0001176287	4	1	main_z	7	advance_on_keypress_ZEE	12	stimuli_distractor_trianglediamonds.svg	stimuli_distractor_diamondtriangles.svg	36	no	57	0	490	0	0			0	0			1				0	
6.6.1	win	2023-06-02	02:39:57	02:47:43	463035	5b9aa47491b20a0001176287	4	1	main_z	7	main_z	13	stimuli_distractor_diamondtriangles.svg	stimuli_distractor_trianglediamonds.svg	37	no	0	1	2003	0	0			0	0			1				0	
6.6.1	win	2023-06-02	02:39:57	02:47:43	463035	5b9aa47491b20a0001176287	4	1	main_z	7	advance_on_keypress_ZEE	14	stimuli_distractor_diamondtriangles.svg	stimuli_distractor_trianglediamonds.svg	37	no	57	0	427	0	0			0	0			1				0	
6.6.1	win	2023-06-02	02:39:57	02:47:45	464838	5b9aa47491b20a0001176287	4	1	main_z	7	main_z	15	stimuli_target_trianglesquares.svg	stimuli_distractor_diamondtriangles.svg	22	yes	44	1	751	0	0			0	0			1				0	
6.6.1	win	2023-06-02	02:39:57	02:47:45	464838	5b9aa47491b20a0001176287	4	1	main_z	7	advance_on_keypress_ZEE	16	stimuli_target_trianglesquares.svg	stimuli_distractor_diamondtriangles.svg	22	yes	57	0	1145	0	0			0	0			1				0	
6.6.1	win	2023-06-02	02:39:57	02:47:48	467224	5b9aa47491b20a0001176287	4	1	main_z	7	main_z	17	stimuli_target_rectanglediamonds.svg	stimuli_distractor_trianglediamonds.svg	2	yes	44	1	616	0	0			0	0			1				0	
6.6.1	win	2023-06-02	02:39:57	02:47:48	467224	5b9aa47491b20a0001176287	4	1	main_z	7	advance_on_keypress_ZEE	18	stimuli_target_rectanglediamonds.svg	stimuli_distractor_trianglediamonds.svg	2	yes	57	0	738	0	0			0	0			1				0	
6.6.1	win	2023-06-02	02:39:57	02:47:50	469307	5b9aa47491b20a0001176287	4	1	main_z	7	main_z	19	stimuli_target_rectangletriangles.svg	stimuli_distractor_trianglediamonds.svg	1	yes	44	1	727	0	0			0	0			1				0	
6.6.1	win	2023-06-02	02:39:57	02:47:50	469307	5b9aa47491b20a0001176287	4	1	main_z	7	advance_on_keypress_ZEE	20	stimuli_target_rectangletriangles.svg	stimuli_distractor_trianglediamonds.svg	1	yes	57	0	672	0	0			0	0			1				0	
6.6.1	win	2023-06-02	02:39:57	02:47:53	472604	5b9aa47491b20a0001176287	4	1	main_z	7	main_z	21	stimuli_distractor_diamondtriangles.svg	stimuli_distractor_trianglediamonds.svg	38	no	0	1	2003	0	0			0	0			1				0	
6.6.1	win	2023-06-02	02:39:57	02:47:53	472604	5b9aa47491b20a0001176287	4	1	main_z	7	advance_on_keypress_ZEE	22	stimuli_distractor_diamondtriangles.svg	stimuli_distractor_trianglediamonds.svg	38	no	57	0	880	0	0			0	0			1				0	
6.6.1	win	2023-06-02	02:39:57	02:47:56	475130	5b9aa47491b20a0001176287	4	1	main_z	7	main_z	23	stimuli_distractor_diamondtriangles.svg	stimuli_target_squaretriangles.svg	15	yes	44	1	1022	0	0			0	0			1				0	
6.6.1	win	2023-06-02	02:39:57	02:47:56	475130	5b9aa47491b20a0001176287	4	1	main_z	7	advance_on_keypress_ZEE	24	stimuli_distractor_diamondtriangles.svg	stimuli_target_squaretriangles.svg	15	yes	57	0	905	0	0			0	0			1				0	
6.6.1	win	2023-06-02	02:39:57	02:47:58	477848	5b9aa47491b20a0001176287	4	1	main_z	7	main_z	25	stimuli_target_diamondrectangles.svg	stimuli_distractor_diamondtriangles.svg	23	yes	44	1	1191	0	0			0	0			1				0	
6.6.1	win	2023-06-02	02:39:57	02:47:58	477848	5b9aa47491b20a0001176287	4	1	main_z	7	advance_on_keypress_ZEE	26	stimuli_target_diamondrectangles.svg	stimuli_distractor_diamondtriangles.svg	23	yes	57	0	1542	0	0			0	0			1				0	
6.6.1	win	2023-06-02	02:39:57	02:48:02	481065	5b9aa47491b20a0001176287	4	1	main_z	7	main_z	27	stimuli_target_diamondsquares.svg	stimuli_distractor_diamondtriangles.svg	24	yes	44	1	1054	0	0			0	0			1				0	
6.6.1	win	2023-06-02	02:39:57	02:48:02	481065	5b9aa47491b20a0001176287	4	1	main_z	7	advance_on_keypress_ZEE	28	stimuli_target_diamondsquares.svg	stimuli_distractor_diamondtriangles.svg	24	yes	57	0	626	0	0			0	0			1				0	
6.6.1	win	2023-06-02	02:39:57	02:48:04	483257	5b9aa47491b20a0001176287	4	1	main_z	7	main_z	29	stimuli_distractor_trianglediamonds.svg	stimuli_target_trianglerectangles.svg	25	yes	44	1	941	0	0			0	0			1				0	
6.6.1	win	2023-06-02	02:39:57	02:48:04	483257	5b9aa47491b20a0001176287	4	1	main_z	7	advance_on_keypress_ZEE	30	stimuli_distractor_trianglediamonds.svg	stimuli_target_trianglerectangles.svg	25	yes	57	0	593	0	0			0	0			1				0	
6.6.1	win	2023-06-02	02:39:57	02:48:07	486472	5b9aa47491b20a0001176287	4	1	main_z	7	main_z	31	stimuli_distractor_diamondtriangles.svg	stimuli_distractor_diamondtriangles.svg	40	no	0	1	2003	0	0			0	0			1				0	
6.6.1	win	2023-06-02	02:39:57	02:48:07	486472	5b9aa47491b20a0001176287	4	1	main_z	7	advance_on_keypress_ZEE	32	stimuli_distractor_diamondtriangles.svg	stimuli_distractor_diamondtriangles.svg	40	no	57	0	366	0	0			0	0			1				0	
6.6.1	win	2023-06-02	02:39:57	02:48:09	488069	5b9aa47491b20a0001176287	4	1	main_z	7	main_z	33	stimuli_distractor_trianglediamonds.svg	stimuli_target_rectangletriangles.svg	9	yes	44	1	607	0	0			0	0			1				0	
6.6.1	win	2023-06-02	02:39:57	02:48:09	488069	5b9aa47491b20a0001176287	4	1	main_z	7	advance_on_keypress_ZEE	34	stimuli_distractor_trianglediamonds.svg	stimuli_target_rectangletriangles.svg	9	yes	57	0	2569	0	0			0	0			1				0	
6.6.1	win	2023-06-02	02:39:57	02:48:12	491867	5b9aa47491b20a0001176287	4	1	main_z	7	main_z	35	stimuli_distractor_trianglediamonds.svg	stimuli_target_squarediamonds.svg	12	yes	44	1	606	0	0			0	0			1				0	
6.6.1	win	2023-06-02	02:39:57	02:48:12	491867	5b9aa47491b20a0001176287	4	1	main_z	7	advance_on_keypress_ZEE	36	stimuli_distractor_trianglediamonds.svg	stimuli_target_squarediamonds.svg	12	yes	57	0	818	0	0			0	0			1				0	
6.6.1	win	2023-06-02	02:39:57	02:48:16	495312	5b9aa47491b20a0001176287	4	1	main_z	7	main_z	37	stimuli_distractor_trianglediamonds.svg	stimuli_distractor_trianglediamonds.svg	34	no	0	1	2003	0	0			0	0			1				0	
6.6.1	win	2023-06-02	02:39:57	02:48:16	495312	5b9aa47491b20a0001176287	4	1	main_z	7	advance_on_keypress_ZEE	38	stimuli_distractor_trianglediamonds.svg	stimuli_distractor_trianglediamonds.svg	34	no	57	0	589	0	0			0	0			1				0	
6.6.1	win	2023-06-02	02:39:57	02:48:18	497167	5b9aa47491b20a0001176287	4	1	main_z	7	main_z	39	stimuli_distractor_trianglediamonds.svg	stimuli_target_rectanglediamonds.svg	10	yes	44	1	643	0	0			0	0			1				0	
6.6.1	win	2023-06-02	02:39:57	02:48:18	497167	5b9aa47491b20a0001176287	4	1	main_z	7	advance_on_keypress_ZEE	40	stimuli_distractor_trianglediamonds.svg	stimuli_target_rectanglediamonds.svg	10	yes	57	0	67142	0	0			0	0			1				0	
6.6.1	win	2023-06-02	02:39:57	02:49:26	565403	5b9aa47491b20a0001176287	4	1	main_z	7	main_z	41	stimuli_target_rectangletriangles.svg	stimuli_distractor_diamondtriangles.svg	5	yes	44	1	469	0	0			0	0			1				0	
6.6.1	win	2023-06-02	02:39:57	02:49:26	565403	5b9aa47491b20a0001176287	4	1	main_z	7	advance_on_keypress_ZEE	42	stimuli_target_rectangletriangles.svg	stimuli_distractor_diamondtriangles.svg	5	yes	57	0	1041	0	0			0	0			1				0	
6.6.1	win	2023-06-02	02:39:57	02:49:28	567644	5b9aa47491b20a0001176287	4	1	main_z	7	main_z	43	stimuli_distractor_trianglediamonds.svg	stimuli_target_diamondrectangles.svg	27	yes	44	1	578	0	0			0	0			1				0	
6.6.1	win	2023-06-02	02:39:57	02:49:28	567644	5b9aa47491b20a0001176287	4	1	main_z	7	advance_on_keypress_ZEE	44	stimuli_distractor_trianglediamonds.svg	stimuli_target_diamondrectangles.svg	27	yes	57	0	1296	0	0			0	0			1				0	
6.6.1	win	2023-06-02	02:39:57	02:49:30	570045	5b9aa47491b20a0001176287	4	1	main_z	7	main_z	45	stimuli_distractor_diamondtriangles.svg	stimuli_target_squarediamonds.svg	16	yes	44	1	479	0	0			0	0			1				0	
6.6.1	win	2023-06-02	02:39:57	02:49:30	570045	5b9aa47491b20a0001176287	4	1	main_z	7	advance_on_keypress_ZEE	46	stimuli_distractor_diamondtriangles.svg	stimuli_target_squarediamonds.svg	16	yes	57	0	724	0	0			0	0			1				0	
6.6.1	win	2023-06-02	02:39:57	02:49:32	572037	5b9aa47491b20a0001176287	4	1	main_z	7	main_z	47	stimuli_target_trianglerectangles.svg	stimuli_distractor_trianglediamonds.svg	17	yes	44	1	645	0	0			0	0			1				0	
6.6.1	win	2023-06-02	02:39:57	02:49:32	572037	5b9aa47491b20a0001176287	4	1	main_z	7	advance_on_keypress_ZEE	48	stimuli_target_trianglerectangles.svg	stimuli_distractor_trianglediamonds.svg	17	yes	57	0	506	0	0			0	0			1				0	
6.6.1	win	2023-06-02	02:39:57	02:49:34	573770	5b9aa47491b20a0001176287	4	1	main_z	7	main_z	49	stimuli_distractor_trianglediamonds.svg	stimuli_target_trianglesquares.svg	26	yes	44	1	600	0	0			0	0			1				0	
6.6.1	win	2023-06-02	02:39:57	02:49:34	573770	5b9aa47491b20a0001176287	4	1	main_z	7	advance_on_keypress_ZEE	50	stimuli_distractor_trianglediamonds.svg	stimuli_target_trianglesquares.svg	26	yes	57	0	478	0	0			0	0			1				0	
6.6.1	win	2023-06-02	02:39:57	02:49:36	575348	5b9aa47491b20a0001176287	4	1	main_z	7	main_z	51	stimuli_target_rectanglediamonds.svg	stimuli_distractor_diamondtriangles.svg	6	yes	44	1	477	0	0			0	0			1				0	
6.6.1	win	2023-06-02	02:39:57	02:49:36	575348	5b9aa47491b20a0001176287	4	1	main_z	7	advance_on_keypress_ZEE	52	stimuli_target_rectanglediamonds.svg	stimuli_distractor_diamondtriangles.svg	6	yes	57	0	455	0	0			0	0			1				0	
6.6.1	win	2023-06-02	02:39:57	02:49:37	576964	5b9aa47491b20a0001176287	4	1	main_z	7	main_z	53	stimuli_distractor_diamondtriangles.svg	stimuli_target_trianglerectangles.svg	29	yes	44	1	537	0	0			0	0			1				0	
6.6.1	win	2023-06-02	02:39:57	02:49:37	576964	5b9aa47491b20a0001176287	4	1	main_z	7	advance_on_keypress_ZEE	54	stimuli_distractor_diamondtriangles.svg	stimuli_target_trianglerectangles.svg	29	yes	57	0	436	0	0			0	0			1				0	
6.6.1	win	2023-06-02	02:39:57	02:49:39	578659	5b9aa47491b20a0001176287	4	1	main_z	7	main_z	55	stimuli_distractor_diamondtriangles.svg	stimuli_target_rectangletriangles.svg	13	yes	44	1	635	0	0			0	0			1				0	
6.6.1	win	2023-06-02	02:39:57	02:49:39	578659	5b9aa47491b20a0001176287	4	1	main_z	7	advance_on_keypress_ZEE	56	stimuli_distractor_diamondtriangles.svg	stimuli_target_rectangletriangles.svg	13	yes	57	0	446	0	0			0	0			1				0	
6.6.1	win	2023-06-02	02:39:57	02:49:41	580346	5b9aa47491b20a0001176287	4	1	main_z	7	main_z	57	stimuli_distractor_trianglediamonds.svg	stimuli_target_diamondsquares.svg	28	yes	44	1	621	0	0			0	0			1				0	
6.6.1	win	2023-06-02	02:39:57	02:49:41	580346	5b9aa47491b20a0001176287	4	1	main_z	7	advance_on_keypress_ZEE	58	stimuli_distractor_trianglediamonds.svg	stimuli_target_diamondsquares.svg	28	yes	57	0	423	0	0			0	0			1				0	
6.6.1	win	2023-06-02	02:39:57	02:49:42	581863	5b9aa47491b20a0001176287	4	1	main_z	7	main_z	59	stimuli_target_diamondsquares.svg	stimuli_distractor_trianglediamonds.svg	20	yes	44	1	471	0	0			0	0			1				0	
6.6.1	win	2023-06-02	02:39:57	02:49:42	581863	5b9aa47491b20a0001176287	4	1	main_z	7	advance_on_keypress_ZEE	60	stimuli_target_diamondsquares.svg	stimuli_distractor_trianglediamonds.svg	20	yes	57	0	490	0	0			0	0			1				0	
6.6.1	win	2023-06-02	02:39:57	02:49:44	583538	5b9aa47491b20a0001176287	4	1	main_z	7	main_z	61	stimuli_distractor_diamondtriangles.svg	stimuli_target_diamondrectangles.svg	31	yes	44	1	556	0	0			0	0			1				0	
6.6.1	win	2023-06-02	02:39:57	02:49:44	583538	5b9aa47491b20a0001176287	4	1	main_z	7	advance_on_keypress_ZEE	62	stimuli_distractor_diamondtriangles.svg	stimuli_target_diamondrectangles.svg	31	yes	57	0	443	0	0			0	0			1				0	
6.6.1	win	2023-06-02	02:39:57	02:49:46	585096	5b9aa47491b20a0001176287	4	1	main_z	7	main_z	63	stimuli_distractor_diamondtriangles.svg	stimuli_target_trianglesquares.svg	30	yes	44	1	489	0	0			0	0			1				0	
6.6.1	win	2023-06-02	02:39:57	02:49:46	585096	5b9aa47491b20a0001176287	4	1	main_z	7	advance_on_keypress_ZEE	64	stimuli_distractor_diamondtriangles.svg	stimuli_target_trianglesquares.svg	30	yes	57	0	450	0	0			0	0			1				0	
6.6.1	win	2023-06-02	02:39:57	02:49:47	586635	5b9aa47491b20a0001176287	4	1	main_z	7	main_z	65	stimuli_distractor_diamondtriangles.svg	stimuli_target_diamondsquares.svg	32	yes	44	1	465	0	0			0	0			1				0	
6.6.1	win	2023-06-02	02:39:57	02:49:47	586635	5b9aa47491b20a0001176287	4	1	main_z	7	advance_on_keypress_ZEE	66	stimuli_distractor_diamondtriangles.svg	stimuli_target_diamondsquares.svg	32	yes	57	0	490	0	0			0	0			1				0	
6.6.1	win	2023-06-02	02:39:57	02:49:50	589756	5b9aa47491b20a0001176287	4	1	main_z	7	main_z	67	stimuli_distractor_trianglediamonds.svg	stimuli_distractor_diamondtriangles.svg	35	no	0	1	2003	0	0			0	0			1				0	
6.6.1	win	2023-06-02	02:39:57	02:49:50	589756	5b9aa47491b20a0001176287	4	1	main_z	7	advance_on_keypress_ZEE	68	stimuli_distractor_trianglediamonds.svg	stimuli_distractor_diamondtriangles.svg	35	no	57	0	275	0	0			0	0			1				0	
6.6.1	win	2023-06-02	02:39:57	02:49:52	591645	5b9aa47491b20a0001176287	4	1	main_z	7	main_z	69	stimuli_target_trianglerectangles.svg	stimuli_distractor_diamondtriangles.svg	21	yes	44	1	989	0	0			0	0			1				0	
6.6.1	win	2023-06-02	02:39:57	02:49:52	591645	5b9aa47491b20a0001176287	4	1	main_z	7	advance_on_keypress_ZEE	70	stimuli_target_trianglerectangles.svg	stimuli_distractor_diamondtriangles.svg	21	yes	57	0	631	0	0			0	0			1				0	
6.6.1	win	2023-06-02	02:39:57	02:49:54	593818	5b9aa47491b20a0001176287	4	1	main_z	7	main_z	71	stimuli_distractor_diamondtriangles.svg	stimuli_target_rectanglediamonds.svg	14	yes	44	1	919	0	0			0	0			1				0	
6.6.1	win	2023-06-02	02:39:57	02:49:54	593818	5b9aa47491b20a0001176287	4	1	main_z	7	advance_on_keypress_ZEE	72	stimuli_distractor_diamondtriangles.svg	stimuli_target_rectanglediamonds.svg	14	yes	57	0	40807	0	0			0	0			1				0	
6.6.1	win	2023-06-02	02:39:57	02:50:36	635784	5b9aa47491b20a0001176287	4	1	main_z	7	main_z	73	stimuli_target_squaretriangles.svg	stimuli_distractor_trianglediamonds.svg	3	yes	44	1	538	0	0			0	0			1				0	
6.6.1	win	2023-06-02	02:39:57	02:50:36	635784	5b9aa47491b20a0001176287	4	1	main_z	7	advance_on_keypress_ZEE	74	stimuli_target_squaretriangles.svg	stimuli_distractor_trianglediamonds.svg	3	yes	57	0	720	0	0			0	0			1				0	
6.6.1	win	2023-06-02	02:39:57	02:50:38	637801	5b9aa47491b20a0001176287	4	1	main_z	7	main_z	75	stimuli_target_trianglesquares.svg	stimuli_distractor_trianglediamonds.svg	18	yes	44	1	673	0	0			0	0			1				0	
6.6.1	win	2023-06-02	02:39:57	02:50:38	637801	5b9aa47491b20a0001176287	4	1	main_z	7	advance_on_keypress_ZEE	76	stimuli_target_trianglesquares.svg	stimuli_distractor_trianglediamonds.svg	18	yes	57	0	471	0	0			0	0			1				0	
6.6.1	win	2023-06-02	02:39:57	02:50:40	639302	5b9aa47491b20a0001176287	4	1	main_z	7	main_z	77	stimuli_target_squaretriangles.svg	stimuli_distractor_diamondtriangles.svg	7	yes	44	1	403	0	0			0	0			1				0	
6.6.1	win	2023-06-02	02:39:57	02:50:40	639302	5b9aa47491b20a0001176287	4	1	main_z	7	advance_on_keypress_ZEE	78	stimuli_target_squaretriangles.svg	stimuli_distractor_diamondtriangles.svg	7	yes	57	0	445	0	0			0	0			1				0	
6.6.1	win	2023-06-02	02:39:57	02:50:43	642374	5b9aa47491b20a0001176287	4	1	main_z	7	main_z	79	stimuli_distractor_diamondtriangles.svg	stimuli_distractor_diamondtriangles.svg	39	no	0	1	2003	0	0			0	0			1				0	
6.6.1	win	2023-06-02	02:39:57	02:50:43	642374	5b9aa47491b20a0001176287	4	1	main_z	7	advance_on_keypress_ZEE	80	stimuli_distractor_diamondtriangles.svg	stimuli_distractor_diamondtriangles.svg	39	no	57	0	513	0	0			0	0			1				0	
6.6.1	win	2023-06-02	02:39:57	02:50:44	643954	5b9aa47491b20a0001176287	4	1	main_z	7	main_z	81	stimuli_distractor_trianglediamonds.svg	stimuli_target_diamondsquares.svg	28	yes	44	1	444	0	0			0	0			1				0	
6.6.1	win	2023-06-02	02:39:57	02:50:44	643954	5b9aa47491b20a0001176287	4	1	main_z	7	advance_on_keypress_ZEE	82	stimuli_distractor_trianglediamonds.svg	stimuli_target_diamondsquares.svg	28	yes	57	0	583	0	0			0	0			1				0	
6.6.1	win	2023-06-02	02:39:57	02:50:46	645570	5b9aa47491b20a0001176287	4	1	main_z	7	main_z	83	stimuli_target_rectangletriangles.svg	stimuli_distractor_trianglediamonds.svg	1	yes	44	1	407	0	0			0	0			1				0	
6.6.1	win	2023-06-02	02:39:57	02:50:46	645570	5b9aa47491b20a0001176287	4	1	main_z	7	advance_on_keypress_ZEE	84	stimuli_target_rectangletriangles.svg	stimuli_distractor_trianglediamonds.svg	1	yes	57	0	594	0	0			0	0			1				0	
6.6.1	win	2023-06-02	02:39:57	02:50:48	647348	5b9aa47491b20a0001176287	4	1	main_z	7	main_z	85	stimuli_distractor_diamondtriangles.svg	stimuli_target_rectanglediamonds.svg	14	yes	44	1	554	0	0			0	0			1				0	
6.6.1	win	2023-06-02	02:39:57	02:50:48	647348	5b9aa47491b20a0001176287	4	1	main_z	7	advance_on_keypress_ZEE	86	stimuli_distractor_diamondtriangles.svg	stimuli_target_rectanglediamonds.svg	14	yes	57	0	463	0	0			0	0			1				0	
6.6.1	win	2023-06-02	02:39:57	02:50:49	648965	5b9aa47491b20a0001176287	4	1	main_z	7	main_z	87	stimuli_target_squarediamonds.svg	stimuli_distractor_diamondtriangles.svg	8	yes	44	1	530	0	0			0	0			1				0	
6.6.1	win	2023-06-02	02:39:57	02:50:49	648965	5b9aa47491b20a0001176287	4	1	main_z	7	advance_on_keypress_ZEE	88	stimuli_target_squarediamonds.svg	stimuli_distractor_diamondtriangles.svg	8	yes	57	0	502	0	0			0	0			1				0	
6.6.1	win	2023-06-02	02:39:57	02:50:51	650510	5b9aa47491b20a0001176287	4	1	main_z	7	main_z	89	stimuli_distractor_diamondtriangles.svg	stimuli_target_rectangletriangles.svg	13	yes	44	1	424	0	0			0	0			1				0	
6.6.1	win	2023-06-02	02:39:57	02:50:51	650510	5b9aa47491b20a0001176287	4	1	main_z	7	advance_on_keypress_ZEE	90	stimuli_distractor_diamondtriangles.svg	stimuli_target_rectangletriangles.svg	13	yes	57	0	483	0	0			0	0			1				0	
6.6.1	win	2023-06-02	02:39:57	02:50:53	652136	5b9aa47491b20a0001176287	4	1	main_z	7	main_z	91	stimuli_target_trianglerectangles.svg	stimuli_distractor_trianglediamonds.svg	17	yes	44	1	515	0	0			0	0			1				0	
6.6.1	win	2023-06-02	02:39:57	02:50:53	652136	5b9aa47491b20a0001176287	4	1	main_z	7	advance_on_keypress_ZEE	92	stimuli_target_trianglerectangles.svg	stimuli_distractor_trianglediamonds.svg	17	yes	57	0	453	0	0			0	0			1				0	
6.6.1	win	2023-06-02	02:39:57	02:50:54	653676	5b9aa47491b20a0001176287	4	1	main_z	7	main_z	93	stimuli_distractor_trianglediamonds.svg	stimuli_target_diamondrectangles.svg	27	yes	44	1	465	0	0			0	0			1				0	
6.6.1	win	2023-06-02	02:39:57	02:50:54	653676	5b9aa47491b20a0001176287	4	1	main_z	7	advance_on_keypress_ZEE	94	stimuli_distractor_trianglediamonds.svg	stimuli_target_diamondrectangles.svg	27	yes	57	0	456	0	0			0	0			1				0	
6.6.1	win	2023-06-02	02:39:57	02:50:56	655365	5b9aa47491b20a0001176287	4	1	main_z	7	main_z	95	stimuli_target_trianglesquares.svg	stimuli_distractor_trianglediamonds.svg	18	yes	44	1	605	0	0			0	0			1				0	
6.6.1	win	2023-06-02	02:39:57	02:50:56	655365	5b9aa47491b20a0001176287	4	1	main_z	7	advance_on_keypress_ZEE	96	stimuli_target_trianglesquares.svg	stimuli_distractor_trianglediamonds.svg	18	yes	57	0	449	0	0			0	0			1				0	
6.6.1	win	2023-06-02	02:39:57	02:50:57	656900	5b9aa47491b20a0001176287	4	1	main_z	7	main_z	97	stimuli_distractor_trianglediamonds.svg	stimuli_target_squaretriangles.svg	11	yes	44	1	460	0	0			0	0			1				0	
6.6.1	win	2023-06-02	02:39:57	02:50:57	656900	5b9aa47491b20a0001176287	4	1	main_z	7	advance_on_keypress_ZEE	98	stimuli_distractor_trianglediamonds.svg	stimuli_target_squaretriangles.svg	11	yes	57	0	517	0	0			0	0			1				0	
6.6.1	win	2023-06-02	02:39:57	02:50:59	658674	5b9aa47491b20a0001176287	4	1	main_z	7	main_z	99	stimuli_distractor_diamondtriangles.svg	stimuli_target_trianglerectangles.svg	29	yes	44	1	637	0	0			0	0			1				0	
6.6.1	win	2023-06-02	02:39:57	02:50:59	658674	5b9aa47491b20a0001176287	4	1	main_z	7	advance_on_keypress_ZEE	100	stimuli_distractor_diamondtriangles.svg	stimuli_target_trianglerectangles.svg	29	yes	57	0	420	0	0			0	0			1				0	
6.6.1	win	2023-06-02	02:39:57	02:51:01	660339	5b9aa47491b20a0001176287	4	1	main_z	7	main_z	101	stimuli_distractor_trianglediamonds.svg	stimuli_target_rectangletriangles.svg	9	yes	44	1	614	0	0			0	0			1				0	
6.6.1	win	2023-06-02	02:39:57	02:51:01	660339	5b9aa47491b20a0001176287	4	1	main_z	7	advance_on_keypress_ZEE	102	stimuli_distractor_trianglediamonds.svg	stimuli_target_rectangletriangles.svg	9	yes	57	0	474	0	0			0	0			1				0	
6.6.1	win	2023-06-02	02:39:57	02:51:02	661941	5b9aa47491b20a0001176287	4	1	main_z	7	main_z	103	stimuli_distractor_trianglediamonds.svg	stimuli_target_trianglesquares.svg	26	yes	44	1	508	0	0			0	0			1				0	
6.6.1	win	2023-06-02	02:39:57	02:51:02	661941	5b9aa47491b20a0001176287	4	1	main_z	7	advance_on_keypress_ZEE	104	stimuli_distractor_trianglediamonds.svg	stimuli_target_trianglesquares.svg	26	yes	57	0	600	0	0			0	0			1				0	
6.6.1	win	2023-06-02	02:39:57	02:51:06	665165	5b9aa47491b20a0001176287	4	1	main_z	7	main_z	105	stimuli_distractor_trianglediamonds.svg	stimuli_distractor_trianglediamonds.svg	33	no	0	1	2003	0	0			0	0			1				0	
6.6.1	win	2023-06-02	02:39:57	02:51:06	665165	5b9aa47491b20a0001176287	4	1	main_z	7	advance_on_keypress_ZEE	106	stimuli_distractor_trianglediamonds.svg	stimuli_distractor_trianglediamonds.svg	33	no	57	0	516	0	0			0	0			1				0	
6.6.1	win	2023-06-02	02:39:57	02:51:07	666892	5b9aa47491b20a0001176287	4	1	main_z	7	main_z	107	stimuli_target_squaretriangles.svg	stimuli_distractor_trianglediamonds.svg	3	yes	44	1	591	0	0			0	0			1				0	
6.6.1	win	2023-06-02	02:39:57	02:51:07	666892	5b9aa47491b20a0001176287	4	1	main_z	7	advance_on_keypress_ZEE	108	stimuli_target_squaretriangles.svg	stimuli_distractor_trianglediamonds.svg	3	yes	57	0	537	0	0			0	0			1				0	
6.6.1	win	2023-06-02	02:39:57	02:51:09	668711	5b9aa47491b20a0001176287	4	1	main_z	7	main_z	109	stimuli_target_diamondsquares.svg	stimuli_distractor_trianglediamonds.svg	20	yes	44	1	660	0	0			0	0			1				0	
6.6.1	win	2023-06-02	02:39:57	02:51:09	668711	5b9aa47491b20a0001176287	4	1	main_z	7	advance_on_keypress_ZEE	110	stimuli_target_diamondsquares.svg	stimuli_distractor_trianglediamonds.svg	20	yes	57	0	471	0	0			0	0			1				0	
6.6.1	win	2023-06-02	02:39:57	02:51:11	670400	5b9aa47491b20a0001176287	4	1	main_z	7	main_z	111	stimuli_distractor_diamondtriangles.svg	stimuli_target_diamondrectangles.svg	31	yes	44	1	592	0	0			0	0			1				0	
6.6.1	win	2023-06-02	02:39:57	02:51:11	670400	5b9aa47491b20a0001176287	4	1	main_z	7	advance_on_keypress_ZEE	112	stimuli_distractor_diamondtriangles.svg	stimuli_target_diamondrectangles.svg	31	yes	57	0	476	0	0			0	0			1				0	
6.6.1	win	2023-06-02	02:39:57	02:51:13	672121	5b9aa47491b20a0001176287	4	1	main_z	7	main_z	113	stimuli_distractor_diamondtriangles.svg	stimuli_distractor_trianglediamonds.svg	38	no	44	0	618	0	0			0	0			1				0	
6.6.1	win	2023-06-02	02:39:57	02:51:13	672121	5b9aa47491b20a0001176287	4	1	main_z	7	advance_on_keypress_ZEE	114	stimuli_distractor_diamondtriangles.svg	stimuli_distractor_trianglediamonds.svg	38	no	57	0	1235	0	0			0	0			1				0	
6.6.1	win	2023-06-02	02:39:57	02:51:15	674695	5b9aa47491b20a0001176287	4	1	main_z	7	main_z	115	stimuli_distractor_diamondtriangles.svg	stimuli_target_squaretriangles.svg	15	yes	44	1	713	0	0			0	0			1				0	
6.6.1	win	2023-06-02	02:39:57	02:51:15	674695	5b9aa47491b20a0001176287	4	1	main_z	7	advance_on_keypress_ZEE	116	stimuli_distractor_diamondtriangles.svg	stimuli_target_squaretriangles.svg	15	yes	57	0	569	0	0			0	0			1				0	
6.6.1	win	2023-06-02	02:39:57	02:51:17	676625	5b9aa47491b20a0001176287	4	1	main_z	7	main_z	117	stimuli_target_rectanglediamonds.svg	stimuli_distractor_trianglediamonds.svg	2	yes	44	1	740	0	0			0	0			1				0	
6.6.1	win	2023-06-02	02:39:57	02:51:17	676625	5b9aa47491b20a0001176287	4	1	main_z	7	advance_on_keypress_ZEE	118	stimuli_target_rectanglediamonds.svg	stimuli_distractor_trianglediamonds.svg	2	yes	57	0	473	0	0			0	0			1				0	
6.6.1	win	2023-06-02	02:39:57	02:51:19	678427	5b9aa47491b20a0001176287	4	1	main_z	7	main_z	119	stimuli_target_squaretriangles.svg	stimuli_distractor_diamondtriangles.svg	7	yes	44	1	709	0	0			0	0			1				0	
6.6.1	win	2023-06-02	02:39:57	02:51:19	678427	5b9aa47491b20a0001176287	4	1	main_z	7	advance_on_keypress_ZEE	120	stimuli_target_squaretriangles.svg	stimuli_distractor_diamondtriangles.svg	7	yes	57	0	498	0	0			0	0			1				0	
6.6.1	win	2023-06-02	02:39:57	02:51:22	681554	5b9aa47491b20a0001176287	4	1	main_z	7	main_z	121	stimuli_distractor_trianglediamonds.svg	stimuli_distractor_trianglediamonds.svg	34	no	0	1	2003	0	0			0	0			1				0	
6.6.1	win	2023-06-02	02:39:57	02:51:22	681554	5b9aa47491b20a0001176287	4	1	main_z	7	advance_on_keypress_ZEE	122	stimuli_distractor_trianglediamonds.svg	stimuli_distractor_trianglediamonds.svg	34	no	57	0	571	0	0			0	0			1				0	
6.6.1	win	2023-06-02	02:39:57	02:51:24	683364	5b9aa47491b20a0001176287	4	1	main_z	7	main_z	123	stimuli_target_trianglesquares.svg	stimuli_distractor_diamondtriangles.svg	22	yes	44	1	618	0	0			0	0			1				0	
6.6.1	win	2023-06-02	02:39:57	02:51:24	683364	5b9aa47491b20a0001176287	4	1	main_z	7	advance_on_keypress_ZEE	124	stimuli_target_trianglesquares.svg	stimuli_distractor_diamondtriangles.svg	22	yes	57	0	484	0	0			0	0			1				0	
6.6.1	win	2023-06-02	02:39:57	02:51:26	685154	5b9aa47491b20a0001176287	4	1	main_z	7	main_z	125	stimuli_distractor_trianglediamonds.svg	stimuli_target_trianglerectangles.svg	25	yes	44	1	679	0	0			0	0			1				0	
6.6.1	win	2023-06-02	02:39:57	02:51:26	685154	5b9aa47491b20a0001176287	4	1	main_z	7	advance_on_keypress_ZEE	126	stimuli_distractor_trianglediamonds.svg	stimuli_target_trianglerectangles.svg	25	yes	57	0	455	0	0			0	0			1				0	
6.6.1	win	2023-06-02	02:39:57	02:51:27	686885	5b9aa47491b20a0001176287	4	1	main_z	7	main_z	127	stimuli_target_rectangletriangles.svg	stimuli_distractor_diamondtriangles.svg	5	yes	44	1	646	0	0			0	0			1				0	
6.6.1	win	2023-06-02	02:39:57	02:51:27	686885	5b9aa47491b20a0001176287	4	1	main_z	7	advance_on_keypress_ZEE	128	stimuli_target_rectangletriangles.svg	stimuli_distractor_diamondtriangles.svg	5	yes	57	0	512	0	0			0	0			1				0	
6.6.1	win	2023-06-02	02:39:57	02:51:29	688685	5b9aa47491b20a0001176287	4	1	main_z	7	main_z	129	stimuli_target_rectanglediamonds.svg	stimuli_distractor_diamondtriangles.svg	6	yes	44	1	662	0	0			0	0			1				0	
6.6.1	win	2023-06-02	02:39:57	02:51:29	688685	5b9aa47491b20a0001176287	4	1	main_z	7	advance_on_keypress_ZEE	130	stimuli_target_rectanglediamonds.svg	stimuli_distractor_diamondtriangles.svg	6	yes	57	0	566	0	0			0	0			1				0	
6.6.1	win	2023-06-02	02:39:57	02:51:31	690618	5b9aa47491b20a0001176287	4	1	main_z	7	main_z	131	stimuli_target_diamondrectangles.svg	stimuli_distractor_trianglediamonds.svg	19	yes	44	1	740	0	0			0	0			1				0	
6.6.1	win	2023-06-02	02:39:57	02:51:31	690618	5b9aa47491b20a0001176287	4	1	main_z	7	advance_on_keypress_ZEE	132	stimuli_target_diamondrectangles.svg	stimuli_distractor_trianglediamonds.svg	19	yes	57	0	477	0	0			0	0			1				0	
6.6.1	win	2023-06-02	02:39:57	02:51:34	693720	5b9aa47491b20a0001176287	4	1	main_z	7	main_z	133	stimuli_distractor_diamondtriangles.svg	stimuli_distractor_diamondtriangles.svg	40	no	0	1	2003	0	0			0	0			1				0	
6.6.1	win	2023-06-02	02:39:57	02:51:34	693720	5b9aa47491b20a0001176287	4	1	main_z	7	advance_on_keypress_ZEE	134	stimuli_distractor_diamondtriangles.svg	stimuli_distractor_diamondtriangles.svg	40	no	57	0	344	0	0			0	0			1				0	
6.6.1	win	2023-06-02	02:39:57	02:51:36	695696	5b9aa47491b20a0001176287	4	1	main_z	7	main_z	135	stimuli_distractor_diamondtriangles.svg	stimuli_target_squarediamonds.svg	16	yes	44	1	1006	0	0			0	0			1				0	
6.6.1	win	2023-06-02	02:39:57	02:51:36	695696	5b9aa47491b20a0001176287	4	1	main_z	7	advance_on_keypress_ZEE	136	stimuli_distractor_diamondtriangles.svg	stimuli_target_squarediamonds.svg	16	yes	57	0	469	0	0			0	0			1				0	
6.6.1	win	2023-06-02	02:39:57	02:51:39	698797	5b9aa47491b20a0001176287	4	1	main_z	7	main_z	137	stimuli_distractor_trianglediamonds.svg	stimuli_distractor_diamondtriangles.svg	36	no	0	1	2003	0	0			0	0			1				0	
6.6.1	win	2023-06-02	02:39:57	02:51:39	698797	5b9aa47491b20a0001176287	4	1	main_z	7	advance_on_keypress_ZEE	138	stimuli_distractor_trianglediamonds.svg	stimuli_distractor_diamondtriangles.svg	36	no	57	0	433	0	0			0	0			1				0	
6.6.1	win	2023-06-02	02:39:57	02:51:41	700499	5b9aa47491b20a0001176287	4	1	main_z	7	main_z	139	stimuli_target_trianglerectangles.svg	stimuli_distractor_diamondtriangles.svg	21	yes	44	1	649	0	0			0	0			1				0	
6.6.1	win	2023-06-02	02:39:57	02:51:41	700499	5b9aa47491b20a0001176287	4	1	main_z	7	advance_on_keypress_ZEE	140	stimuli_target_trianglerectangles.svg	stimuli_distractor_diamondtriangles.svg	21	yes	57	0	441	0	0			0	0			1				0	
6.6.1	win	2023-06-02	02:39:57	02:51:42	702004	5b9aa47491b20a0001176287	4	1	main_z	7	main_z	141	stimuli_target_diamondsquares.svg	stimuli_distractor_diamondtriangles.svg	24	yes	44	1	439	0	0			0	0			1				0	
6.6.1	win	2023-06-02	02:39:57	02:51:42	702004	5b9aa47491b20a0001176287	4	1	main_z	7	advance_on_keypress_ZEE	142	stimuli_target_diamondsquares.svg	stimuli_distractor_diamondtriangles.svg	24	yes	57	0	430	0	0			0	0			1				0	
6.6.1	win	2023-06-02	02:39:57	02:51:45	705061	5b9aa47491b20a0001176287	4	1	main_z	7	main_z	143	stimuli_distractor_diamondtriangles.svg	stimuli_distractor_trianglediamonds.svg	37	no	0	1	2003	0	0			0	0			1				0	
6.6.1	win	2023-06-02	02:39:57	02:51:45	705061	5b9aa47491b20a0001176287	4	1	main_z	7	advance_on_keypress_ZEE	144	stimuli_distractor_diamondtriangles.svg	stimuli_distractor_trianglediamonds.svg	37	no	57	0	269	0	0			0	0			1				0	
6.6.1	win	2023-06-02	02:39:57	02:51:48	707956	5b9aa47491b20a0001176287	4	1	main_z	7	main_z	145	stimuli_distractor_trianglediamonds.svg	stimuli_distractor_diamondtriangles.svg	35	no	0	1	2003	0	0			0	0			1				0	
6.6.1	win	2023-06-02	02:39:57	02:51:48	707956	5b9aa47491b20a0001176287	4	1	main_z	7	advance_on_keypress_ZEE	146	stimuli_distractor_trianglediamonds.svg	stimuli_distractor_diamondtriangles.svg	35	no	57	0	379	0	0			0	0			1				0	
6.6.1	win	2023-06-02	02:39:57	02:51:50	709980	5b9aa47491b20a0001176287	4	1	main_z	7	main_z	147	stimuli_distractor_trianglediamonds.svg	stimuli_target_rectanglediamonds.svg	10	yes	44	1	1026	0	0			0	0			1				0	
6.6.1	win	2023-06-02	02:39:57	02:51:50	709980	5b9aa47491b20a0001176287	4	1	main_z	7	advance_on_keypress_ZEE	148	stimuli_distractor_trianglediamonds.svg	stimuli_target_rectanglediamonds.svg	10	yes	57	0	489	0	0			0	0			1				0	
6.6.1	win	2023-06-02	02:39:57	02:51:52	711634	5b9aa47491b20a0001176287	4	1	main_z	7	main_z	149	stimuli_target_squarediamonds.svg	stimuli_distractor_trianglediamonds.svg	4	yes	44	1	541	0	0			0	0			1				0	
6.6.1	win	2023-06-02	02:39:57	02:51:52	711634	5b9aa47491b20a0001176287	4	1	main_z	7	advance_on_keypress_ZEE	150	stimuli_target_squarediamonds.svg	stimuli_distractor_trianglediamonds.svg	4	yes	57	0	518	0	0			0	0			1				0	
6.6.1	win	2023-06-02	02:39:57	02:51:54	713416	5b9aa47491b20a0001176287	4	1	main_z	7	main_z	151	stimuli_distractor_diamondtriangles.svg	stimuli_target_trianglesquares.svg	30	yes	44	1	636	0	0			0	0			1				0	
6.6.1	win	2023-06-02	02:39:57	02:51:54	713416	5b9aa47491b20a0001176287	4	1	main_z	7	advance_on_keypress_ZEE	152	stimuli_distractor_diamondtriangles.svg	stimuli_target_trianglesquares.svg	30	yes	57	0	400	0	0			0	0			1				0	
6.6.1	win	2023-06-02	02:39:57	02:51:57	716443	5b9aa47491b20a0001176287	4	1	main_z	7	main_z	153	stimuli_distractor_diamondtriangles.svg	stimuli_distractor_diamondtriangles.svg	39	no	0	1	2003	0	0			0	0			1				0	
6.6.1	win	2023-06-02	02:39:57	02:51:57	716443	5b9aa47491b20a0001176287	4	1	main_z	7	advance_on_keypress_ZEE	154	stimuli_distractor_diamondtriangles.svg	stimuli_distractor_diamondtriangles.svg	39	no	57	0	308	0	0			0	0			1				0	
6.6.1	win	2023-06-02	02:39:57	02:51:59	718324	5b9aa47491b20a0001176287	4	1	main_z	7	main_z	155	stimuli_distractor_trianglediamonds.svg	stimuli_target_squarediamonds.svg	12	yes	44	1	954	0	0			0	0			1				0	
6.6.1	win	2023-06-02	02:39:57	02:51:59	718324	5b9aa47491b20a0001176287	4	1	main_z	7	advance_on_keypress_ZEE	156	stimuli_distractor_trianglediamonds.svg	stimuli_target_squarediamonds.svg	12	yes	57	0	436	0	0			0	0			1				0	
6.6.1	win	2023-06-02	02:39:57	02:52:01	720390	5b9aa47491b20a0001176287	4	1	main_z	7	main_z	157	stimuli_target_diamondrectangles.svg	stimuli_distractor_diamondtriangles.svg	23	yes	44	1	1006	0	0			0	0			1				0	
6.6.1	win	2023-06-02	02:39:57	02:52:01	720390	5b9aa47491b20a0001176287	4	1	main_z	7	advance_on_keypress_ZEE	158	stimuli_target_diamondrectangles.svg	stimuli_distractor_diamondtriangles.svg	23	yes	57	0	365	0	0			0	0			1				0	
6.6.1	win	2023-06-02	02:39:57	02:52:02	722062	5b9aa47491b20a0001176287	4	1	main_z	7	main_z	159	stimuli_distractor_diamondtriangles.svg	stimuli_target_diamondsquares.svg	32	yes	44	1	678	0	0			0	0			1				0	
6.6.1	win	2023-06-02	02:39:57	02:52:02	722062	5b9aa47491b20a0001176287	4	1	main_z	7	advance_on_keypress_ZEE	160	stimuli_distractor_diamondtriangles.svg	stimuli_target_diamondsquares.svg	32	yes	57	0	390	0	0			0	0			1				0	
6.6.1	win	2023-06-02	02:39:57	02:52:40	759812	5b9aa47491b20a0001176287	4	1	practice_slash	9	practice_slash	1	stimuli_distractor_diamondtriangles.svg	stimuli_distractor_trianglediamonds.svg	14	no	0	1	2003	0	0			0	0			1				0	
6.6.1	win	2023-06-02	02:39:57	02:52:40	759812	5b9aa47491b20a0001176287	4	1	practice_slash	9	advance_on_keypress_SLASH	2	stimuli_distractor_diamondtriangles.svg	stimuli_distractor_trianglediamonds.svg	14	no	57	0	524	0	0			0	0			1				0	
6.6.1	win	2023-06-02	02:39:57	02:52:43	762660	5b9aa47491b20a0001176287	4	1	practice_slash	9	practice_slash	3	stimuli_target_diamondsquares.svg	stimuli_distractor_diamondtriangles.svg	3	yes	53	1	692	0	0			0	0			1				0	
6.6.1	win	2023-06-02	02:39:57	02:52:43	762660	5b9aa47491b20a0001176287	4	1	practice_slash	9	advance_on_keypress_SLASH	4	stimuli_target_diamondsquares.svg	stimuli_distractor_diamondtriangles.svg	3	yes	57	0	454	0	0			0	0			1				0	
6.6.1	win	2023-06-02	02:39:57	02:52:46	765371	5b9aa47491b20a0001176287	4	1	practice_slash	9	practice_slash	5	stimuli_distractor_diamondtriangles.svg	stimuli_target_trianglerectangles.svg	9	yes	53	1	625	0	0			0	0			1				0	
6.6.1	win	2023-06-02	02:39:57	02:52:46	765371	5b9aa47491b20a0001176287	4	1	practice_slash	9	advance_on_keypress_SLASH	6	stimuli_distractor_diamondtriangles.svg	stimuli_target_trianglerectangles.svg	9	yes	57	0	572	0	0			0	0			1				0	
6.6.1	win	2023-06-02	02:39:57	02:52:48	768041	5b9aa47491b20a0001176287	4	1	practice_slash	9	practice_slash	7	stimuli_distractor_diamondtriangles.svg	stimuli_target_diamondrectangles.svg	8	yes	53	1	468	0	0			0	0			1				0	
6.6.1	win	2023-06-02	02:39:57	02:52:48	768041	5b9aa47491b20a0001176287	4	1	practice_slash	9	advance_on_keypress_SLASH	8	stimuli_distractor_diamondtriangles.svg	stimuli_target_diamondrectangles.svg	8	yes	57	0	386	0	0			0	0			1				0	
6.6.1	win	2023-06-02	02:39:57	02:52:51	770747	5b9aa47491b20a0001176287	4	1	practice_slash	9	practice_slash	9	stimuli_target_squarediamonds.svg	stimuli_distractor_diamondtriangles.svg	2	yes	53	1	688	0	0			0	0			1				0	
6.6.1	win	2023-06-02	02:39:57	02:52:51	770747	5b9aa47491b20a0001176287	4	1	practice_slash	9	advance_on_keypress_SLASH	10	stimuli_target_squarediamonds.svg	stimuli_distractor_diamondtriangles.svg	2	yes	57	0	482	0	0			0	0			1				0	
6.6.1	win	2023-06-02	02:39:57	02:52:54	773389	5b9aa47491b20a0001176287	4	1	practice_slash	9	practice_slash	11	stimuli_target_squarediamonds.svg	stimuli_distractor_trianglediamonds.svg	5	yes	53	1	531	0	0			0	0			1				0	
6.6.1	win	2023-06-02	02:39:57	02:52:54	773389	5b9aa47491b20a0001176287	4	1	practice_slash	9	advance_on_keypress_SLASH	12	stimuli_target_squarediamonds.svg	stimuli_distractor_trianglediamonds.svg	5	yes	57	0	1869	0	0			0	0			1				0	
6.6.1	win	2023-06-02	02:39:57	02:52:58	777420	5b9aa47491b20a0001176287	4	1	practice_slash	9	practice_slash	13	stimuli_target_diamondsquares.svg	stimuli_distractor_trianglediamonds.svg	6	yes	53	1	523	0	0			0	0			1				0	
6.6.1	win	2023-06-02	02:39:57	02:52:58	777420	5b9aa47491b20a0001176287	4	1	practice_slash	9	advance_on_keypress_SLASH	14	stimuli_target_diamondsquares.svg	stimuli_distractor_trianglediamonds.svg	6	yes	57	0	497	0	0			0	0			1				0	
6.6.1	win	2023-06-02	02:39:57	02:53:00	779986	5b9aa47491b20a0001176287	4	1	practice_slash	9	practice_slash	15	stimuli_distractor_trianglediamonds.svg	stimuli_target_diamondrectangles.svg	12	yes	53	1	440	0	0			0	0			1				0	
6.6.1	win	2023-06-02	02:39:57	02:53:00	779986	5b9aa47491b20a0001176287	4	1	practice_slash	9	advance_on_keypress_SLASH	16	stimuli_distractor_trianglediamonds.svg	stimuli_target_diamondrectangles.svg	12	yes	57	0	554	0	0			0	0			1				0	
6.6.1	win	2023-06-02	02:39:57	02:53:05	784490	5b9aa47491b20a0001176287	4	1	practice_slash	9	practice_slash	17	stimuli_distractor_trianglediamonds.svg	stimuli_distractor_trianglediamonds.svg	15	no	0	1	2003	0	0			0	0			1				0	
6.6.1	win	2023-06-02	02:39:57	02:53:05	784490	5b9aa47491b20a0001176287	4	1	practice_slash	9	advance_on_keypress_SLASH	18	stimuli_distractor_trianglediamonds.svg	stimuli_distractor_trianglediamonds.svg	15	no	57	0	208	0	0			0	0			1				0	
6.6.1	win	2023-06-02	02:39:57	02:53:07	786897	5b9aa47491b20a0001176287	4	1	practice_slash	9	practice_slash	19	stimuli_distractor_trianglediamonds.svg	stimuli_target_rectanglediamonds.svg	10	yes	53	1	568	0	0			0	0			1				0	
6.6.1	win	2023-06-02	02:39:57	02:53:07	786897	5b9aa47491b20a0001176287	4	1	practice_slash	9	advance_on_keypress_SLASH	20	stimuli_distractor_trianglediamonds.svg	stimuli_target_rectanglediamonds.svg	10	yes	57	0	428	0	0			0	0			1				0	
6.6.1	win	2023-06-02	02:39:57	02:53:11	790958	5b9aa47491b20a0001176287	4	1	practice_slash	9	practice_slash	21	stimuli_distractor_trianglediamonds.svg	stimuli_distractor_diamondtriangles.svg	16	no	0	1	2003	0	0			0	0			1				0	
6.6.1	win	2023-06-02	02:39:57	02:53:11	790958	5b9aa47491b20a0001176287	4	1	practice_slash	9	advance_on_keypress_SLASH	22	stimuli_distractor_trianglediamonds.svg	stimuli_distractor_diamondtriangles.svg	16	no	57	0	361	0	0			0	0			1				0	
6.6.1	win	2023-06-02	02:39:57	02:53:14	793492	5b9aa47491b20a0001176287	4	1	practice_slash	9	practice_slash	23	stimuli_target_rectanglediamonds.svg	stimuli_distractor_diamondtriangles.svg	1	yes	53	1	544	0	0			0	0			1				0	
6.6.1	win	2023-06-02	02:39:57	02:53:14	793492	5b9aa47491b20a0001176287	4	1	practice_slash	9	advance_on_keypress_SLASH	24	stimuli_target_rectanglediamonds.svg	stimuli_distractor_diamondtriangles.svg	1	yes	57	0	501	0	0			0	0			1				0	
6.6.1	win	2023-06-02	02:39:57	02:53:17	796156	5b9aa47491b20a0001176287	4	1	practice_slash	9	practice_slash	25	stimuli_target_rectanglediamonds.svg	stimuli_distractor_trianglediamonds.svg	4	yes	53	1	525	0	0			0	0			1				0	
6.6.1	win	2023-06-02	02:39:57	02:53:17	796156	5b9aa47491b20a0001176287	4	1	practice_slash	9	advance_on_keypress_SLASH	26	stimuli_target_rectanglediamonds.svg	stimuli_distractor_trianglediamonds.svg	4	yes	57	0	627	0	0			0	0			1				0	
6.6.1	win	2023-06-02	02:39:57	02:53:19	798921	5b9aa47491b20a0001176287	4	1	practice_slash	9	practice_slash	27	stimuli_distractor_diamondtriangles.svg	stimuli_target_rectangletriangles.svg	7	yes	53	1	507	0	0			0	0			1				0	
6.6.1	win	2023-06-02	02:39:57	02:53:19	798921	5b9aa47491b20a0001176287	4	1	practice_slash	9	advance_on_keypress_SLASH	28	stimuli_distractor_diamondtriangles.svg	stimuli_target_rectangletriangles.svg	7	yes	57	0	452	0	0			0	0			1				0	
6.6.1	win	2023-06-02	02:39:57	02:53:22	801481	5b9aa47491b20a0001176287	4	1	practice_slash	9	practice_slash	29	stimuli_distractor_trianglediamonds.svg	stimuli_target_squarediamonds.svg	11	yes	53	1	484	0	0			0	0			1				0	
6.6.1	win	2023-06-02	02:39:57	02:53:22	801481	5b9aa47491b20a0001176287	4	1	practice_slash	9	advance_on_keypress_SLASH	30	stimuli_distractor_trianglediamonds.svg	stimuli_target_squarediamonds.svg	11	yes	57	0	561	0	0			0	0			1				0	
6.6.1	win	2023-06-02	02:39:57	02:53:26	805673	5b9aa47491b20a0001176287	4	1	practice_slash	9	practice_slash	31	stimuli_distractor_diamondtriangles.svg	stimuli_distractor_diamondtriangles.svg	13	no	0	1	2003	0	0			0	0			1				0	
6.6.1	win	2023-06-02	02:39:57	02:53:26	805673	5b9aa47491b20a0001176287	4	1	practice_slash	9	advance_on_keypress_SLASH	32	stimuli_distractor_diamondtriangles.svg	stimuli_distractor_diamondtriangles.svg	13	no	57	0	362	0	0			0	0			1				0	
6.6.1	win	2023-06-02	02:39:57	02:53:37	816935	5b9aa47491b20a0001176287	4	1	main_slash	11	main_slash	1	stimuli_distractor_diamondtriangles.svg	stimuli_distractor_diamondtriangles.svg	39	no	0	1	2003	0	0			0	0			1				0	
6.6.1	win	2023-06-02	02:39:57	02:53:37	816935	5b9aa47491b20a0001176287	4	1	main_slash	11	advance_on_keypress_SLASH	2	stimuli_distractor_diamondtriangles.svg	stimuli_distractor_diamondtriangles.svg	39	no	57	0	301	0	0			0	0			1				0	
6.6.1	win	2023-06-02	02:39:57	02:53:39	818333	5b9aa47491b20a0001176287	4	1	main_slash	11	main_slash	3	stimuli_target_squaretriangles.svg	stimuli_distractor_diamondtriangles.svg	7	yes	53	1	477	0	0			0	0			1				0	
6.6.1	win	2023-06-02	02:39:57	02:53:39	818333	5b9aa47491b20a0001176287	4	1	main_slash	11	advance_on_keypress_SLASH	4	stimuli_target_squaretriangles.svg	stimuli_distractor_diamondtriangles.svg	7	yes	57	0	795	0	0			0	0			1				0	
6.6.1	win	2023-06-02	02:39:57	02:53:42	821761	5b9aa47491b20a0001176287	4	1	main_slash	11	main_slash	5	stimuli_distractor_trianglediamonds.svg	stimuli_distractor_diamondtriangles.svg	35	no	0	1	2003	0	0			0	0			1				0	
6.6.1	win	2023-06-02	02:39:57	02:53:42	821761	5b9aa47491b20a0001176287	4	1	main_slash	11	advance_on_keypress_SLASH	6	stimuli_distractor_trianglediamonds.svg	stimuli_distractor_diamondtriangles.svg	35	no	57	0	248	0	0			0	0			1				0	
6.6.1	win	2023-06-02	02:39:57	02:53:44	823165	5b9aa47491b20a0001176287	4	1	main_slash	11	main_slash	7	stimuli_distractor_trianglediamonds.svg	stimuli_target_squarediamonds.svg	12	yes	53	1	532	0	0			0	0			1				0	
6.6.1	win	2023-06-02	02:39:57	02:53:44	823165	5b9aa47491b20a0001176287	4	1	main_slash	11	advance_on_keypress_SLASH	8	stimuli_distractor_trianglediamonds.svg	stimuli_target_squarediamonds.svg	12	yes	57	0	603	0	0			0	0			1				0	
6.6.1	win	2023-06-02	02:39:57	02:53:45	824861	5b9aa47491b20a0001176287	4	1	main_slash	11	main_slash	9	stimuli_target_diamondrectangles.svg	stimuli_distractor_diamondtriangles.svg	23	yes	53	1	463	0	0			0	0			1				0	
6.6.1	win	2023-06-02	02:39:57	02:53:45	824861	5b9aa47491b20a0001176287	4	1	main_slash	11	advance_on_keypress_SLASH	10	stimuli_target_diamondrectangles.svg	stimuli_distractor_diamondtriangles.svg	23	yes	57	0	549	0	0			0	0			1				0	
6.6.1	win	2023-06-02	02:39:57	02:53:47	826536	5b9aa47491b20a0001176287	4	1	main_slash	11	main_slash	11	stimuli_distractor_diamondtriangles.svg	stimuli_target_trianglerectangles.svg	29	yes	53	1	500	0	0			0	0			1				0	
6.6.1	win	2023-06-02	02:39:57	02:53:47	826536	5b9aa47491b20a0001176287	4	1	main_slash	11	advance_on_keypress_SLASH	12	stimuli_distractor_diamondtriangles.svg	stimuli_target_trianglerectangles.svg	29	yes	57	0	488	0	0			0	0			1				0	
6.6.1	win	2023-06-02	02:39:57	02:53:49	828143	5b9aa47491b20a0001176287	4	1	main_slash	11	main_slash	13	stimuli_distractor_diamondtriangles.svg	stimuli_target_rectangletriangles.svg	13	yes	53	1	496	0	0			0	0			1				0	
6.6.1	win	2023-06-02	02:39:57	02:53:49	828143	5b9aa47491b20a0001176287	4	1	main_slash	11	advance_on_keypress_SLASH	14	stimuli_distractor_diamondtriangles.svg	stimuli_target_rectangletriangles.svg	13	yes	57	0	553	0	0			0	0			1				0	
6.6.1	win	2023-06-02	02:39:57	02:53:50	829949	5b9aa47491b20a0001176287	4	1	main_slash	11	main_slash	15	stimuli_target_trianglerectangles.svg	stimuli_distractor_trianglediamonds.svg	17	yes	53	1	629	0	0			0	0			1				0	
6.6.1	win	2023-06-02	02:39:57	02:53:50	829949	5b9aa47491b20a0001176287	4	1	main_slash	11	advance_on_keypress_SLASH	16	stimuli_target_trianglerectangles.svg	stimuli_distractor_trianglediamonds.svg	17	yes	57	0	465	0	0			0	0			1				0	
6.6.1	win	2023-06-02	02:39:57	02:53:52	831526	5b9aa47491b20a0001176287	4	1	main_slash	11	main_slash	17	stimuli_distractor_trianglediamonds.svg	stimuli_target_diamondrectangles.svg	27	yes	53	1	483	0	0			0	0			1				0	
6.6.1	win	2023-06-02	02:39:57	02:53:52	831526	5b9aa47491b20a0001176287	4	1	main_slash	11	advance_on_keypress_SLASH	18	stimuli_distractor_trianglediamonds.svg	stimuli_target_diamondrectangles.svg	27	yes	57	0	536	0	0			0	0			1				0	
6.6.1	win	2023-06-02	02:39:57	02:53:55	834692	5b9aa47491b20a0001176287	4	1	main_slash	11	main_slash	19	stimuli_distractor_diamondtriangles.svg	stimuli_distractor_trianglediamonds.svg	38	no	0	1	2003	0	0			0	0			1				0	
6.6.1	win	2023-06-02	02:39:57	02:53:55	834692	5b9aa47491b20a0001176287	4	1	main_slash	11	advance_on_keypress_SLASH	20	stimuli_distractor_diamondtriangles.svg	stimuli_distractor_trianglediamonds.svg	38	no	57	0	794	0	0			0	0			1				0	
6.6.1	win	2023-06-02	02:39:57	02:53:57	836684	5b9aa47491b20a0001176287	4	1	main_slash	11	main_slash	21	stimuli_target_trianglesquares.svg	stimuli_distractor_trianglediamonds.svg	18	yes	53	1	571	0	0			0	0			1				0	
6.6.1	win	2023-06-02	02:39:57	02:53:57	836684	5b9aa47491b20a0001176287	4	1	main_slash	11	advance_on_keypress_SLASH	22	stimuli_target_trianglesquares.svg	stimuli_distractor_trianglediamonds.svg	18	yes	57	0	782	0	0			0	0			1				0	
6.6.1	win	2023-06-02	02:39:57	02:53:59	838638	5b9aa47491b20a0001176287	4	1	main_slash	11	main_slash	23	stimuli_distractor_diamondtriangles.svg	stimuli_target_diamondrectangles.svg	31	yes	53	1	546	0	0			0	0			1				0	
6.6.1	win	2023-06-02	02:39:57	02:53:59	838638	5b9aa47491b20a0001176287	4	1	main_slash	11	advance_on_keypress_SLASH	24	stimuli_distractor_diamondtriangles.svg	stimuli_target_diamondrectangles.svg	31	yes	57	0	571	0	0			0	0			1				0	
6.6.1	win	2023-06-02	02:39:57	02:54:01	840399	5b9aa47491b20a0001176287	4	1	main_slash	11	main_slash	25	stimuli_distractor_diamondtriangles.svg	stimuli_target_trianglesquares.svg	30	yes	53	1	564	0	0			0	0			1				0	
6.6.1	win	2023-06-02	02:39:57	02:54:01	840399	5b9aa47491b20a0001176287	4	1	main_slash	11	advance_on_keypress_SLASH	26	stimuli_distractor_diamondtriangles.svg	stimuli_target_trianglesquares.svg	30	yes	57	0	566	0	0			0	0			1				0	
6.6.1	win	2023-06-02	02:39:57	02:54:03	842285	5b9aa47491b20a0001176287	4	1	main_slash	11	main_slash	27	stimuli_distractor_diamondtriangles.svg	stimuli_target_rectanglediamonds.svg	14	yes	53	1	693	0	0			0	0			1				0	
6.6.1	win	2023-06-02	02:39:57	02:54:03	842285	5b9aa47491b20a0001176287	4	1	main_slash	11	advance_on_keypress_SLASH	28	stimuli_distractor_diamondtriangles.svg	stimuli_target_rectanglediamonds.svg	14	yes	57	0	531	0	0			0	0			1				0	
6.6.1	win	2023-06-02	02:39:57	02:54:04	843996	5b9aa47491b20a0001176287	4	1	main_slash	11	main_slash	29	stimuli_distractor_trianglediamonds.svg	stimuli_target_squaretriangles.svg	11	yes	53	1	550	0	0			0	0			1				0	
6.6.1	win	2023-06-02	02:39:57	02:54:04	843996	5b9aa47491b20a0001176287	4	1	main_slash	11	advance_on_keypress_SLASH	30	stimuli_distractor_trianglediamonds.svg	stimuli_target_squaretriangles.svg	11	yes	57	0	613	0	0			0	0			1				0	
6.6.1	win	2023-06-02	02:39:57	02:54:06	845713	5b9aa47491b20a0001176287	4	1	main_slash	11	main_slash	31	stimuli_target_rectangletriangles.svg	stimuli_distractor_trianglediamonds.svg	1	yes	53	1	482	0	0			0	0			1				0	
6.6.1	win	2023-06-02	02:39:57	02:54:06	845713	5b9aa47491b20a0001176287	4	1	main_slash	11	advance_on_keypress_SLASH	32	stimuli_target_rectangletriangles.svg	stimuli_distractor_trianglediamonds.svg	1	yes	57	0	544	0	0			0	0			1				0	
6.6.1	win	2023-06-02	02:39:57	02:54:08	847430	5b9aa47491b20a0001176287	4	1	main_slash	11	main_slash	33	stimuli_distractor_diamondtriangles.svg	stimuli_target_squarediamonds.svg	16	yes	53	1	554	0	0			0	0			1				0	
6.6.1	win	2023-06-02	02:39:57	02:54:08	847430	5b9aa47491b20a0001176287	4	1	main_slash	11	advance_on_keypress_SLASH	34	stimuli_distractor_diamondtriangles.svg	stimuli_target_squarediamonds.svg	16	yes	57	0	597	0	0			0	0			1				0	
6.6.1	win	2023-06-02	02:39:57	02:54:11	850657	5b9aa47491b20a0001176287	4	1	main_slash	11	main_slash	35	stimuli_distractor_trianglediamonds.svg	stimuli_distractor_trianglediamonds.svg	34	no	0	1	2003	0	0			0	0			1				0	
6.6.1	win	2023-06-02	02:39:57	02:54:11	850657	5b9aa47491b20a0001176287	4	1	main_slash	11	advance_on_keypress_SLASH	36	stimuli_distractor_trianglediamonds.svg	stimuli_distractor_trianglediamonds.svg	34	no	57	0	483	0	0			0	0			1				0	
6.6.1	win	2023-06-02	02:39:57	02:54:13	852262	5b9aa47491b20a0001176287	4	1	main_slash	11	main_slash	37	stimuli_target_diamondsquares.svg	stimuli_distractor_trianglediamonds.svg	20	yes	53	1	497	0	0			0	0			1				0	
6.6.1	win	2023-06-02	02:39:57	02:54:13	852262	5b9aa47491b20a0001176287	4	1	main_slash	11	advance_on_keypress_SLASH	38	stimuli_target_diamondsquares.svg	stimuli_distractor_trianglediamonds.svg	20	yes	57	0	544	0	0			0	0			1				0	
6.6.1	win	2023-06-02	02:39:57	02:54:15	854068	5b9aa47491b20a0001176287	4	1	main_slash	11	main_slash	39	stimuli_distractor_trianglediamonds.svg	stimuli_target_trianglesquares.svg	26	yes	53	1	636	0	0			0	0			1				0	
6.6.1	win	2023-06-02	02:39:57	02:54:15	854068	5b9aa47491b20a0001176287	4	1	main_slash	11	advance_on_keypress_SLASH	40	stimuli_distractor_trianglediamonds.svg	stimuli_target_trianglesquares.svg	26	yes	57	0	524	0	0			0	0			1				0	
6.6.1	win	2023-06-02	02:39:57	02:54:18	857226	5b9aa47491b20a0001176287	4	1	main_slash	11	main_slash	41	stimuli_distractor_diamondtriangles.svg	stimuli_distractor_trianglediamonds.svg	37	no	0	1	2003	0	0			0	0			1				0	
6.6.1	win	2023-06-02	02:39:57	02:54:18	857226	5b9aa47491b20a0001176287	4	1	main_slash	11	advance_on_keypress_SLASH	42	stimuli_distractor_diamondtriangles.svg	stimuli_distractor_trianglediamonds.svg	37	no	57	0	515	0	0			0	0			1				0	
6.6.1	win	2023-06-02	02:39:57	02:54:19	859047	5b9aa47491b20a0001176287	4	1	main_slash	11	main_slash	43	stimuli_target_squarediamonds.svg	stimuli_distractor_trianglediamonds.svg	4	yes	53	1	684	0	0			0	0			1				0	
6.6.1	win	2023-06-02	02:39:57	02:54:19	859047	5b9aa47491b20a0001176287	4	1	main_slash	11	advance_on_keypress_SLASH	44	stimuli_target_squarediamonds.svg	stimuli_distractor_trianglediamonds.svg	4	yes	57	0	600	0	0			0	0			1				0	
6.6.1	win	2023-06-02	02:39:57	02:54:21	860938	5b9aa47491b20a0001176287	4	1	main_slash	11	main_slash	45	stimuli_distractor_trianglediamonds.svg	stimuli_target_trianglerectangles.svg	25	yes	53	1	659	0	0			0	0			1				0	
6.6.1	win	2023-06-02	02:39:57	02:54:21	860938	5b9aa47491b20a0001176287	4	1	main_slash	11	advance_on_keypress_SLASH	46	stimuli_distractor_trianglediamonds.svg	stimuli_target_trianglerectangles.svg	25	yes	57	0	718	0	0			0	0			1				0	
6.6.1	win	2023-06-02	02:39:57	02:54:24	863074	5b9aa47491b20a0001176287	4	1	main_slash	11	main_slash	47	stimuli_target_rectanglediamonds.svg	stimuli_distractor_diamondtriangles.svg	6	yes	53	1	788	0	0			0	0			1				0	
6.6.1	win	2023-06-02	02:39:57	02:54:24	863074	5b9aa47491b20a0001176287	4	1	main_slash	11	advance_on_keypress_SLASH	48	stimuli_target_rectanglediamonds.svg	stimuli_distractor_diamondtriangles.svg	6	yes	57	0	544	0	0			0	0			1				0	
6.6.1	win	2023-06-02	02:39:57	02:54:27	866247	5b9aa47491b20a0001176287	4	1	main_slash	11	main_slash	49	stimuli_distractor_trianglediamonds.svg	stimuli_distractor_trianglediamonds.svg	33	no	0	1	2003	0	0			0	0			1				0	
6.6.1	win	2023-06-02	02:39:57	02:54:27	866247	5b9aa47491b20a0001176287	4	1	main_slash	11	advance_on_keypress_SLASH	50	stimuli_distractor_trianglediamonds.svg	stimuli_distractor_trianglediamonds.svg	33	no	57	0	389	0	0			0	0			1				0	
6.6.1	win	2023-06-02	02:39:57	02:54:29	869017	5b9aa47491b20a0001176287	4	1	main_slash	11	main_slash	51	stimuli_distractor_diamondtriangles.svg	stimuli_distractor_diamondtriangles.svg	40	no	53	0	1753	0	0			0	0			1				0	
6.6.1	win	2023-06-02	02:39:57	02:54:29	869017	5b9aa47491b20a0001176287	4	1	main_slash	11	advance_on_keypress_SLASH	52	stimuli_distractor_diamondtriangles.svg	stimuli_distractor_diamondtriangles.svg	40	no	57	0	481	0	0			0	0			1				0	
6.6.1	win	2023-06-02	02:39:57	02:54:33	872122	5b9aa47491b20a0001176287	4	1	main_slash	11	main_slash	53	stimuli_distractor_trianglediamonds.svg	stimuli_distractor_diamondtriangles.svg	36	no	0	1	2003	0	0			0	0			1				0	
6.6.1	win	2023-06-02	02:39:57	02:54:33	872122	5b9aa47491b20a0001176287	4	1	main_slash	11	advance_on_keypress_SLASH	54	stimuli_distractor_trianglediamonds.svg	stimuli_distractor_diamondtriangles.svg	36	no	57	0	379	0	0			0	0			1				0	
6.6.1	win	2023-06-02	02:39:57	02:54:34	873759	5b9aa47491b20a0001176287	4	1	main_slash	11	main_slash	55	stimuli_distractor_trianglediamonds.svg	stimuli_target_rectanglediamonds.svg	10	yes	53	1	633	0	0			0	0			1				0	
6.6.1	win	2023-06-02	02:39:57	02:54:34	873759	5b9aa47491b20a0001176287	4	1	main_slash	11	advance_on_keypress_SLASH	56	stimuli_distractor_trianglediamonds.svg	stimuli_target_rectanglediamonds.svg	10	yes	57	0	464	0	0			0	0			1				0	
6.6.1	win	2023-06-02	02:39:57	02:54:36	875459	5b9aa47491b20a0001176287	4	1	main_slash	11	main_slash	57	stimuli_target_trianglerectangles.svg	stimuli_distractor_diamondtriangles.svg	21	yes	53	1	612	0	0			0	0			1				0	
6.6.1	win	2023-06-02	02:39:57	02:54:36	875459	5b9aa47491b20a0001176287	4	1	main_slash	11	advance_on_keypress_SLASH	58	stimuli_target_trianglerectangles.svg	stimuli_distractor_diamondtriangles.svg	21	yes	57	0	418	0	0			0	0			1				0	
6.6.1	win	2023-06-02	02:39:57	02:54:38	877092	5b9aa47491b20a0001176287	4	1	main_slash	11	main_slash	59	stimuli_distractor_trianglediamonds.svg	stimuli_target_diamondsquares.svg	28	yes	53	1	591	0	0			0	0			1				0	
6.6.1	win	2023-06-02	02:39:57	02:54:38	877092	5b9aa47491b20a0001176287	4	1	main_slash	11	advance_on_keypress_SLASH	60	stimuli_distractor_trianglediamonds.svg	stimuli_target_diamondsquares.svg	28	yes	57	0	443	0	0			0	0			1				0	
6.6.1	win	2023-06-02	02:39:57	02:54:39	878637	5b9aa47491b20a0001176287	4	1	main_slash	11	main_slash	61	stimuli_target_rectanglediamonds.svg	stimuli_distractor_trianglediamonds.svg	2	yes	53	1	477	0	0			0	0			1				0	
6.6.1	win	2023-06-02	02:39:57	02:54:39	878637	5b9aa47491b20a0001176287	4	1	main_slash	11	advance_on_keypress_SLASH	62	stimuli_target_rectanglediamonds.svg	stimuli_distractor_trianglediamonds.svg	2	yes	57	0	450	0	0			0	0			1				0	
6.6.1	win	2023-06-02	02:39:57	02:54:41	880222	5b9aa47491b20a0001176287	4	1	main_slash	11	main_slash	63	stimuli_target_diamondrectangles.svg	stimuli_distractor_trianglediamonds.svg	19	yes	53	1	506	0	0			0	0			1				0	
6.6.1	win	2023-06-02	02:39:57	02:54:41	880222	5b9aa47491b20a0001176287	4	1	main_slash	11	advance_on_keypress_SLASH	64	stimuli_target_diamondrectangles.svg	stimuli_distractor_trianglediamonds.svg	19	yes	57	0	410	0	0			0	0			1				0	
6.6.1	win	2023-06-02	02:39:57	02:54:42	881827	5b9aa47491b20a0001176287	4	1	main_slash	11	main_slash	65	stimuli_target_diamondsquares.svg	stimuli_distractor_diamondtriangles.svg	24	yes	53	1	569	0	0			0	0			1				0	
6.6.1	win	2023-06-02	02:39:57	02:54:42	881827	5b9aa47491b20a0001176287	4	1	main_slash	11	advance_on_keypress_SLASH	66	stimuli_target_diamondsquares.svg	stimuli_distractor_diamondtriangles.svg	24	yes	57	0	415	0	0			0	0			1				0	
6.6.1	win	2023-06-02	02:39:57	02:54:44	883602	5b9aa47491b20a0001176287	4	1	main_slash	11	main_slash	67	stimuli_distractor_trianglediamonds.svg	stimuli_target_rectangletriangles.svg	9	yes	53	1	733	0	0			0	0			1				0	
6.6.1	win	2023-06-02	02:39:57	02:54:44	883602	5b9aa47491b20a0001176287	4	1	main_slash	11	advance_on_keypress_SLASH	68	stimuli_distractor_trianglediamonds.svg	stimuli_target_rectangletriangles.svg	9	yes	57	0	494	0	0			0	0			1				0	
6.6.1	win	2023-06-02	02:39:57	02:54:46	885407	5b9aa47491b20a0001176287	4	1	main_slash	11	main_slash	69	stimuli_target_squarediamonds.svg	stimuli_distractor_diamondtriangles.svg	8	yes	53	1	691	0	0			0	0			1				0	
6.6.1	win	2023-06-02	02:39:57	02:54:46	885407	5b9aa47491b20a0001176287	4	1	main_slash	11	advance_on_keypress_SLASH	70	stimuli_target_squarediamonds.svg	stimuli_distractor_diamondtriangles.svg	8	yes	57	0	629	0	0			0	0			1				0	
6.6.1	win	2023-06-02	02:39:57	02:54:48	887318	5b9aa47491b20a0001176287	4	1	main_slash	11	main_slash	71	stimuli_target_squaretriangles.svg	stimuli_distractor_trianglediamonds.svg	3	yes	53	1	657	0	0			0	0			1				0	
6.6.1	win	2023-06-02	02:39:57	02:54:48	887318	5b9aa47491b20a0001176287	4	1	main_slash	11	advance_on_keypress_SLASH	72	stimuli_target_squaretriangles.svg	stimuli_distractor_trianglediamonds.svg	3	yes	57	0	481	0	0			0	0			1				0	
6.6.1	win	2023-06-02	02:39:57	02:54:50	889110	5b9aa47491b20a0001176287	4	1	main_slash	11	main_slash	73	stimuli_target_trianglesquares.svg	stimuli_distractor_diamondtriangles.svg	22	yes	53	1	685	0	0			0	0			1				0	
6.6.1	win	2023-06-02	02:39:57	02:54:50	889110	5b9aa47491b20a0001176287	4	1	main_slash	11	advance_on_keypress_SLASH	74	stimuli_target_trianglesquares.svg	stimuli_distractor_diamondtriangles.svg	22	yes	57	0	533	0	0			0	0			1				0	
6.6.1	win	2023-06-02	02:39:57	02:54:51	890949	5b9aa47491b20a0001176287	4	1	main_slash	11	main_slash	75	stimuli_target_rectangletriangles.svg	stimuli_distractor_diamondtriangles.svg	5	yes	53	1	677	0	0			0	0			1				0	
6.6.1	win	2023-06-02	02:39:57	02:54:51	890949	5b9aa47491b20a0001176287	4	1	main_slash	11	advance_on_keypress_SLASH	76	stimuli_target_rectangletriangles.svg	stimuli_distractor_diamondtriangles.svg	5	yes	57	0	592	0	0			0	0			1				0	
6.6.1	win	2023-06-02	02:39:57	02:54:53	892887	5b9aa47491b20a0001176287	4	1	main_slash	11	main_slash	77	stimuli_distractor_diamondtriangles.svg	stimuli_target_squaretriangles.svg	15	yes	53	1	726	0	0			0	0			1				0	
6.6.1	win	2023-06-02	02:39:57	02:54:53	892887	5b9aa47491b20a0001176287	4	1	main_slash	11	advance_on_keypress_SLASH	78	stimuli_distractor_diamondtriangles.svg	stimuli_target_squaretriangles.svg	15	yes	57	0	505	0	0			0	0			1				0	
6.6.1	win	2023-06-02	02:39:57	02:54:55	894692	5b9aa47491b20a0001176287	4	1	main_slash	11	main_slash	79	stimuli_distractor_diamondtriangles.svg	stimuli_target_diamondsquares.svg	32	yes	53	1	670	0	0			0	0			1				0	
6.6.1	win	2023-06-02	02:39:57	02:54:55	894692	5b9aa47491b20a0001176287	4	1	main_slash	11	advance_on_keypress_SLASH	80	stimuli_distractor_diamondtriangles.svg	stimuli_target_diamondsquares.svg	32	yes	57	0	501	0	0			0	0			1				0	
6.6.1	win	2023-06-02	02:39:57	02:54:57	896598	5b9aa47491b20a0001176287	4	1	main_slash	11	main_slash	81	stimuli_target_rectanglediamonds.svg	stimuli_distractor_diamondtriangles.svg	6	yes	53	1	784	0	0			0	0			1				0	
6.6.1	win	2023-06-02	02:39:57	02:54:57	896598	5b9aa47491b20a0001176287	4	1	main_slash	11	advance_on_keypress_SLASH	82	stimuli_target_rectanglediamonds.svg	stimuli_distractor_diamondtriangles.svg	6	yes	57	0	459	0	0			0	0			1				0	
6.6.1	win	2023-06-02	02:39:57	02:54:59	898322	5b9aa47491b20a0001176287	4	1	main_slash	11	main_slash	83	stimuli_target_rectangletriangles.svg	stimuli_distractor_diamondtriangles.svg	5	yes	53	1	640	0	0			0	0			1				0	
6.6.1	win	2023-06-02	02:39:57	02:54:59	898322	5b9aa47491b20a0001176287	4	1	main_slash	11	advance_on_keypress_SLASH	84	stimuli_target_rectangletriangles.svg	stimuli_distractor_diamondtriangles.svg	5	yes	57	0	559	0	0			0	0			1				0	
6.6.1	win	2023-06-02	02:39:57	02:55:01	900256	5b9aa47491b20a0001176287	4	1	main_slash	11	main_slash	85	stimuli_target_diamondrectangles.svg	stimuli_distractor_trianglediamonds.svg	19	yes	53	1	748	0	0			0	0			1				0	
6.6.1	win	2023-06-02	02:39:57	02:55:01	900256	5b9aa47491b20a0001176287	4	1	main_slash	11	advance_on_keypress_SLASH	86	stimuli_target_diamondrectangles.svg	stimuli_distractor_trianglediamonds.svg	19	yes	57	0	448	0	0			0	0			1				0	
6.6.1	win	2023-06-02	02:39:57	02:55:03	902095	5b9aa47491b20a0001176287	4	1	main_slash	11	main_slash	87	stimuli_distractor_diamondtriangles.svg	stimuli_target_diamondrectangles.svg	31	yes	53	1	761	0	0			0	0			1				0	
6.6.1	win	2023-06-02	02:39:57	02:55:03	902095	5b9aa47491b20a0001176287	4	1	main_slash	11	advance_on_keypress_SLASH	88	stimuli_distractor_diamondtriangles.svg	stimuli_target_diamondrectangles.svg	31	yes	57	0	478	0	0			0	0			1				0	
6.6.1	win	2023-06-02	02:39:57	02:55:04	903977	5b9aa47491b20a0001176287	4	1	main_slash	11	main_slash	89	stimuli_distractor_trianglediamonds.svg	stimuli_target_diamondsquares.svg	28	yes	53	1	782	0	0			0	0			1				0	
6.6.1	win	2023-06-02	02:39:57	02:55:04	903977	5b9aa47491b20a0001176287	4	1	main_slash	11	advance_on_keypress_SLASH	90	stimuli_distractor_trianglediamonds.svg	stimuli_target_diamondsquares.svg	28	yes	57	0	578	0	0			0	0			1				0	
6.6.1	win	2023-06-02	02:39:57	02:55:06	905925	5b9aa47491b20a0001176287	4	1	main_slash	11	main_slash	91	stimuli_target_squarediamonds.svg	stimuli_distractor_trianglediamonds.svg	4	yes	53	1	743	0	0			0	0			1				0	
6.6.1	win	2023-06-02	02:39:57	02:55:06	905925	5b9aa47491b20a0001176287	4	1	main_slash	11	advance_on_keypress_SLASH	92	stimuli_target_squarediamonds.svg	stimuli_distractor_trianglediamonds.svg	4	yes	57	0	439	0	0			0	0			1				0	
6.6.1	win	2023-06-02	02:39:57	02:55:08	907682	5b9aa47491b20a0001176287	4	1	main_slash	11	main_slash	93	stimuli_target_trianglesquares.svg	stimuli_distractor_trianglediamonds.svg	18	yes	53	1	688	0	0			0	0			1				0	
6.6.1	win	2023-06-02	02:39:57	02:55:08	907682	5b9aa47491b20a0001176287	4	1	main_slash	11	advance_on_keypress_SLASH	94	stimuli_target_trianglesquares.svg	stimuli_distractor_trianglediamonds.svg	18	yes	57	0	417	0	0			0	0			1				0	
6.6.1	win	2023-06-02	02:39:57	02:55:11	910726	5b9aa47491b20a0001176287	4	1	main_slash	11	main_slash	95	stimuli_distractor_diamondtriangles.svg	stimuli_distractor_trianglediamonds.svg	37	no	0	1	2003	0	0			0	0			1				0	
6.6.1	win	2023-06-02	02:39:57	02:55:11	910726	5b9aa47491b20a0001176287	4	1	main_slash	11	advance_on_keypress_SLASH	96	stimuli_distractor_diamondtriangles.svg	stimuli_distractor_trianglediamonds.svg	37	no	57	0	854	0	0			0	0			1				0	
6.6.1	win	2023-06-02	02:39:57	02:55:13	912895	5b9aa47491b20a0001176287	4	1	main_slash	11	main_slash	97	stimuli_distractor_diamondtriangles.svg	stimuli_target_squarediamonds.svg	16	yes	53	1	693	0	0			0	0			1				0	
6.6.1	win	2023-06-02	02:39:57	02:55:13	912895	5b9aa47491b20a0001176287	4	1	main_slash	11	advance_on_keypress_SLASH	98	stimuli_distractor_diamondtriangles.svg	stimuli_target_squarediamonds.svg	16	yes	57	0	457	0	0			0	0			1				0	
6.6.1	win	2023-06-02	02:39:57	02:55:15	914833	5b9aa47491b20a0001176287	4	1	main_slash	11	main_slash	99	stimuli_distractor_diamondtriangles.svg	stimuli_distractor_trianglediamonds.svg	38	no	53	0	853	0	0			0	0			1				0	
6.6.1	win	2023-06-02	02:39:57	02:55:15	914833	5b9aa47491b20a0001176287	4	1	main_slash	11	advance_on_keypress_SLASH	100	stimuli_distractor_diamondtriangles.svg	stimuli_distractor_trianglediamonds.svg	38	no	57	0	461	0	0			0	0			1				0	
6.6.1	win	2023-06-02	02:39:57	02:55:17	916618	5b9aa47491b20a0001176287	4	1	main_slash	11	main_slash	101	stimuli_target_diamondrectangles.svg	stimuli_distractor_diamondtriangles.svg	23	yes	53	1	700	0	0			0	0			1				0	
6.6.1	win	2023-06-02	02:39:57	02:55:17	916618	5b9aa47491b20a0001176287	4	1	main_slash	11	advance_on_keypress_SLASH	102	stimuli_target_diamondrectangles.svg	stimuli_distractor_diamondtriangles.svg	23	yes	57	0	413	0	0			0	0			1				0	
6.6.1	win	2023-06-02	02:39:57	02:55:19	918375	5b9aa47491b20a0001176287	4	1	main_slash	11	main_slash	103	stimuli_distractor_trianglediamonds.svg	stimuli_target_trianglesquares.svg	26	yes	53	1	714	0	0			0	0			1				0	
6.6.1	win	2023-06-02	02:39:57	02:55:19	918375	5b9aa47491b20a0001176287	4	1	main_slash	11	advance_on_keypress_SLASH	104	stimuli_distractor_trianglediamonds.svg	stimuli_target_trianglesquares.svg	26	yes	57	0	496	0	0			0	0			1				0	
6.6.1	win	2023-06-02	02:39:57	02:55:21	920196	5b9aa47491b20a0001176287	4	1	main_slash	11	main_slash	105	stimuli_target_squaretriangles.svg	stimuli_distractor_diamondtriangles.svg	7	yes	53	1	702	0	0			0	0			1				0	
6.6.1	win	2023-06-02	02:39:57	02:55:21	920196	5b9aa47491b20a0001176287	4	1	main_slash	11	advance_on_keypress_SLASH	106	stimuli_target_squaretriangles.svg	stimuli_distractor_diamondtriangles.svg	7	yes	57	0	385	0	0			0	0			1				0	
6.6.1	win	2023-06-02	02:39:57	02:55:22	921983	5b9aa47491b20a0001176287	4	1	main_slash	11	main_slash	107	stimuli_distractor_trianglediamonds.svg	stimuli_target_rectanglediamonds.svg	10	yes	53	1	781	0	0			0	0			1				0	
6.6.1	win	2023-06-02	02:39:57	02:55:22	921983	5b9aa47491b20a0001176287	4	1	main_slash	11	advance_on_keypress_SLASH	108	stimuli_distractor_trianglediamonds.svg	stimuli_target_rectanglediamonds.svg	10	yes	57	0	465	0	0			0	0			1				0	
6.6.1	win	2023-06-02	02:39:57	02:55:24	923911	5b9aa47491b20a0001176287	4	1	main_slash	11	main_slash	109	stimuli_target_squarediamonds.svg	stimuli_distractor_diamondtriangles.svg	8	yes	53	1	840	0	0			0	0			1				0	
6.6.1	win	2023-06-02	02:39:57	02:55:24	923911	5b9aa47491b20a0001176287	4	1	main_slash	11	advance_on_keypress_SLASH	110	stimuli_target_squarediamonds.svg	stimuli_distractor_diamondtriangles.svg	8	yes	57	0	402	0	0			0	0			1				0	
6.6.1	win	2023-06-02	02:39:57	02:55:26	925728	5b9aa47491b20a0001176287	4	1	main_slash	11	main_slash	111	stimuli_distractor_trianglediamonds.svg	stimuli_target_rectangletriangles.svg	9	yes	53	1	790	0	0			0	0			1				0	
6.6.1	win	2023-06-02	02:39:57	02:55:26	925728	5b9aa47491b20a0001176287	4	1	main_slash	11	advance_on_keypress_SLASH	112	stimuli_distractor_trianglediamonds.svg	stimuli_target_rectangletriangles.svg	9	yes	57	0	422	0	0			0	0			1				0	
6.6.1	win	2023-06-02	02:39:57	02:55:28	927616	5b9aa47491b20a0001176287	4	1	main_slash	11	main_slash	113	stimuli_target_diamondsquares.svg	stimuli_distractor_diamondtriangles.svg	24	yes	53	1	837	0	0			0	0			1				0	
6.6.1	win	2023-06-02	02:39:57	02:55:28	927616	5b9aa47491b20a0001176287	4	1	main_slash	11	advance_on_keypress_SLASH	114	stimuli_target_diamondsquares.svg	stimuli_distractor_diamondtriangles.svg	24	yes	57	0	387	0	0			0	0			1				0	
6.6.1	win	2023-06-02	02:39:57	02:55:30	929530	5b9aa47491b20a0001176287	4	1	main_slash	11	main_slash	115	stimuli_distractor_trianglediamonds.svg	stimuli_target_trianglerectangles.svg	25	yes	53	1	904	0	0			0	0			1				0	
6.6.1	win	2023-06-02	02:39:57	02:55:30	929530	5b9aa47491b20a0001176287	4	1	main_slash	11	advance_on_keypress_SLASH	116	stimuli_distractor_trianglediamonds.svg	stimuli_target_trianglerectangles.svg	25	yes	57	0	433	0	0			0	0			1				0	
6.6.1	win	2023-06-02	02:39:57	02:55:32	931272	5b9aa47491b20a0001176287	4	1	main_slash	11	main_slash	117	stimuli_target_trianglesquares.svg	stimuli_distractor_diamondtriangles.svg	22	yes	53	1	688	0	0			0	0			1				0	
6.6.1	win	2023-06-02	02:39:57	02:55:32	931272	5b9aa47491b20a0001176287	4	1	main_slash	11	advance_on_keypress_SLASH	118	stimuli_target_trianglesquares.svg	stimuli_distractor_diamondtriangles.svg	22	yes	57	0	376	0	0			0	0			1				0	
6.6.1	win	2023-06-02	02:39:57	02:55:33	933023	5b9aa47491b20a0001176287	4	1	main_slash	11	main_slash	119	stimuli_target_diamondsquares.svg	stimuli_distractor_trianglediamonds.svg	20	yes	53	1	751	0	0			0	0			1				0	
6.6.1	win	2023-06-02	02:39:57	02:55:33	933023	5b9aa47491b20a0001176287	4	1	main_slash	11	advance_on_keypress_SLASH	120	stimuli_target_diamondsquares.svg	stimuli_distractor_trianglediamonds.svg	20	yes	57	0	417	0	0			0	0			1				0	
6.6.1	win	2023-06-02	02:39:57	02:55:37	936066	5b9aa47491b20a0001176287	4	1	main_slash	11	main_slash	121	stimuli_distractor_diamondtriangles.svg	stimuli_distractor_diamondtriangles.svg	39	no	0	1	2003	0	0			0	0			1				0	
6.6.1	win	2023-06-02	02:39:57	02:55:37	936066	5b9aa47491b20a0001176287	4	1	main_slash	11	advance_on_keypress_SLASH	122	stimuli_distractor_diamondtriangles.svg	stimuli_distractor_diamondtriangles.svg	39	no	57	0	536	0	0			0	0			1				0	
6.6.1	win	2023-06-02	02:39:57	02:55:39	938455	5b9aa47491b20a0001176287	4	1	main_slash	11	main_slash	123	stimuli_distractor_diamondtriangles.svg	stimuli_target_trianglerectangles.svg	29	yes	53	1	1232	0	0			0	0			1				0	
6.6.1	win	2023-06-02	02:39:57	02:55:39	938455	5b9aa47491b20a0001176287	4	1	main_slash	11	advance_on_keypress_SLASH	124	stimuli_distractor_diamondtriangles.svg	stimuli_target_trianglerectangles.svg	29	yes	57	0	368	0	0			0	0			1				0	
6.6.1	win	2023-06-02	02:39:57	02:55:42	941448	5b9aa47491b20a0001176287	4	1	main_slash	11	main_slash	125	stimuli_distractor_diamondtriangles.svg	stimuli_distractor_diamondtriangles.svg	40	no	0	1	2003	0	0			0	0			1				0	
6.6.1	win	2023-06-02	02:39:57	02:55:42	941448	5b9aa47491b20a0001176287	4	1	main_slash	11	advance_on_keypress_SLASH	126	stimuli_distractor_diamondtriangles.svg	stimuli_distractor_diamondtriangles.svg	40	no	57	0	436	0	0			0	0			1				0	
6.6.1	win	2023-06-02	02:39:57	02:55:44	943314	5b9aa47491b20a0001176287	4	1	main_slash	11	main_slash	127	stimuli_distractor_trianglediamonds.svg	stimuli_target_squaretriangles.svg	11	yes	53	1	806	0	0			0	0			1				0	
6.6.1	win	2023-06-02	02:39:57	02:55:44	943314	5b9aa47491b20a0001176287	4	1	main_slash	11	advance_on_keypress_SLASH	128	stimuli_distractor_trianglediamonds.svg	stimuli_target_squaretriangles.svg	11	yes	57	0	335	0	0			0	0			1				0	
6.6.1	win	2023-06-02	02:39:57	02:55:47	946274	5b9aa47491b20a0001176287	4	1	main_slash	11	main_slash	129	stimuli_distractor_trianglediamonds.svg	stimuli_distractor_trianglediamonds.svg	33	no	0	1	2003	0	0			0	0			1				0	
6.6.1	win	2023-06-02	02:39:57	02:55:47	946274	5b9aa47491b20a0001176287	4	1	main_slash	11	advance_on_keypress_SLASH	130	stimuli_distractor_trianglediamonds.svg	stimuli_distractor_trianglediamonds.svg	33	no	57	0	353	0	0			0	0			1				0	
6.6.1	win	2023-06-02	02:39:57	02:55:49	948269	5b9aa47491b20a0001176287	4	1	main_slash	11	main_slash	131	stimuli_distractor_diamondtriangles.svg	stimuli_target_squaretriangles.svg	15	yes	53	1	1018	0	0			0	0			1				0	
6.6.1	win	2023-06-02	02:39:57	02:55:49	948269	5b9aa47491b20a0001176287	4	1	main_slash	11	advance_on_keypress_SLASH	132	stimuli_distractor_diamondtriangles.svg	stimuli_target_squaretriangles.svg	15	yes	57	0	274	0	0			0	0			1				0	
6.6.1	win	2023-06-02	02:39:57	02:55:52	951177	5b9aa47491b20a0001176287	4	1	main_slash	11	main_slash	133	stimuli_distractor_trianglediamonds.svg	stimuli_distractor_diamondtriangles.svg	36	no	0	1	2003	0	0			0	0			1				0	
6.6.1	win	2023-06-02	02:39:57	02:55:52	951177	5b9aa47491b20a0001176287	4	1	main_slash	11	advance_on_keypress_SLASH	134	stimuli_distractor_trianglediamonds.svg	stimuli_distractor_diamondtriangles.svg	36	no	57	0	244	0	0			0	0			1				0	
6.6.1	win	2023-06-02	02:39:57	02:55:54	954045	5b9aa47491b20a0001176287	4	1	main_slash	11	main_slash	135	stimuli_distractor_trianglediamonds.svg	stimuli_distractor_diamondtriangles.svg	35	no	0	1	2003	0	0			0	0			1				0	
6.6.1	win	2023-06-02	02:39:57	02:55:54	954045	5b9aa47491b20a0001176287	4	1	main_slash	11	advance_on_keypress_SLASH	136	stimuli_distractor_trianglediamonds.svg	stimuli_distractor_diamondtriangles.svg	35	no	57	0	565	0	0			0	0			1				0	
6.6.1	win	2023-06-02	02:39:57	02:55:56	955905	5b9aa47491b20a0001176287	4	1	main_slash	11	main_slash	137	stimuli_distractor_diamondtriangles.svg	stimuli_target_diamondsquares.svg	32	yes	53	1	675	0	0			0	0			1				0	
6.6.1	win	2023-06-02	02:39:57	02:55:56	955905	5b9aa47491b20a0001176287	4	1	main_slash	11	advance_on_keypress_SLASH	138	stimuli_distractor_diamondtriangles.svg	stimuli_target_diamondsquares.svg	32	yes	57	0	375	0	0			0	0			1				0	
6.6.1	win	2023-06-02	02:39:57	02:55:58	957624	5b9aa47491b20a0001176287	4	1	main_slash	11	main_slash	139	stimuli_target_squaretriangles.svg	stimuli_distractor_trianglediamonds.svg	3	yes	53	1	721	0	0			0	0			1				0	
6.6.1	win	2023-06-02	02:39:57	02:55:58	957624	5b9aa47491b20a0001176287	4	1	main_slash	11	advance_on_keypress_SLASH	140	stimuli_target_squaretriangles.svg	stimuli_distractor_trianglediamonds.svg	3	yes	57	0	404	0	0			0	0			1				0	
6.6.1	win	2023-06-02	02:39:57	02:56:00	959410	5b9aa47491b20a0001176287	4	1	main_slash	11	main_slash	141	stimuli_distractor_diamondtriangles.svg	stimuli_target_rectanglediamonds.svg	14	yes	53	1	756	0	0			0	0			1				0	
6.6.1	win	2023-06-02	02:39:57	02:56:00	959410	5b9aa47491b20a0001176287	4	1	main_slash	11	advance_on_keypress_SLASH	142	stimuli_distractor_diamondtriangles.svg	stimuli_target_rectanglediamonds.svg	14	yes	57	0	290	0	0			0	0			1				0	
6.6.1	win	2023-06-02	02:39:57	02:56:01	961009	5b9aa47491b20a0001176287	4	1	main_slash	11	main_slash	143	stimuli_target_rectangletriangles.svg	stimuli_distractor_trianglediamonds.svg	1	yes	53	1	682	0	0			0	0			1				0	
6.6.1	win	2023-06-02	02:39:57	02:56:01	961009	5b9aa47491b20a0001176287	4	1	main_slash	11	advance_on_keypress_SLASH	144	stimuli_target_rectangletriangles.svg	stimuli_distractor_trianglediamonds.svg	1	yes	57	0	352	0	0			0	0			1				0	
6.6.1	win	2023-06-02	02:39:57	02:56:04	963990	5b9aa47491b20a0001176287	4	1	main_slash	11	main_slash	145	stimuli_distractor_trianglediamonds.svg	stimuli_distractor_trianglediamonds.svg	34	no	0	1	2003	0	0			0	0			1				0	
6.6.1	win	2023-06-02	02:39:57	02:56:04	963990	5b9aa47491b20a0001176287	4	1	main_slash	11	advance_on_keypress_SLASH	146	stimuli_distractor_trianglediamonds.svg	stimuli_distractor_trianglediamonds.svg	34	no	57	0	500	0	0			0	0			1				0	
6.6.1	win	2023-06-02	02:39:57	02:56:06	966004	5b9aa47491b20a0001176287	4	1	main_slash	11	main_slash	147	stimuli_target_trianglerectangles.svg	stimuli_distractor_trianglediamonds.svg	17	yes	53	1	892	0	0			0	0			1				0	
6.6.1	win	2023-06-02	02:39:57	02:56:06	966004	5b9aa47491b20a0001176287	4	1	main_slash	11	advance_on_keypress_SLASH	148	stimuli_target_trianglerectangles.svg	stimuli_distractor_trianglediamonds.svg	17	yes	57	0	297	0	0			0	0			1				0	
6.6.1	win	2023-06-02	02:39:57	02:56:08	967735	5b9aa47491b20a0001176287	4	1	main_slash	11	main_slash	149	stimuli_distractor_diamondtriangles.svg	stimuli_target_rectangletriangles.svg	13	yes	53	1	811	0	0			0	0			1				0	
6.6.1	win	2023-06-02	02:39:57	02:56:08	967735	5b9aa47491b20a0001176287	4	1	main_slash	11	advance_on_keypress_SLASH	150	stimuli_distractor_diamondtriangles.svg	stimuli_target_rectangletriangles.svg	13	yes	57	0	289	0	0			0	0			1				0	
6.6.1	win	2023-06-02	02:39:57	02:56:10	969613	5b9aa47491b20a0001176287	4	1	main_slash	11	main_slash	151	stimuli_distractor_diamondtriangles.svg	stimuli_target_trianglesquares.svg	30	yes	53	1	960	0	0			0	0			1				0	
6.6.1	win	2023-06-02	02:39:57	02:56:10	969613	5b9aa47491b20a0001176287	4	1	main_slash	11	advance_on_keypress_SLASH	152	stimuli_distractor_diamondtriangles.svg	stimuli_target_trianglesquares.svg	30	yes	57	0	296	0	0			0	0			1				0	
6.6.1	win	2023-06-02	02:39:57	02:56:12	971340	5b9aa47491b20a0001176287	4	1	main_slash	11	main_slash	153	stimuli_distractor_trianglediamonds.svg	stimuli_target_diamondrectangles.svg	27	yes	53	1	805	0	0			0	0			1				0	
6.6.1	win	2023-06-02	02:39:57	02:56:12	971340	5b9aa47491b20a0001176287	4	1	main_slash	11	advance_on_keypress_SLASH	154	stimuli_distractor_trianglediamonds.svg	stimuli_target_diamondrectangles.svg	27	yes	57	0	317	0	0			0	0			1				0	
6.6.1	win	2023-06-02	02:39:57	02:56:14	973143	5b9aa47491b20a0001176287	4	1	main_slash	11	main_slash	155	stimuli_target_trianglerectangles.svg	stimuli_distractor_diamondtriangles.svg	21	yes	53	1	858	0	0			0	0			1				0	
6.6.1	win	2023-06-02	02:39:57	02:56:14	973143	5b9aa47491b20a0001176287	4	1	main_slash	11	advance_on_keypress_SLASH	156	stimuli_target_trianglerectangles.svg	stimuli_distractor_diamondtriangles.svg	21	yes	57	0	321	0	0			0	0			1				0	
6.6.1	win	2023-06-02	02:39:57	02:56:15	974922	5b9aa47491b20a0001176287	4	1	main_slash	11	main_slash	157	stimuli_distractor_trianglediamonds.svg	stimuli_target_squarediamonds.svg	12	yes	53	1	838	0	0			0	0			1				0	
6.6.1	win	2023-06-02	02:39:57	02:56:15	974922	5b9aa47491b20a0001176287	4	1	main_slash	11	advance_on_keypress_SLASH	158	stimuli_distractor_trianglediamonds.svg	stimuli_target_squarediamonds.svg	12	yes	57	0	301	0	0			0	0			1				0	
6.6.1	win	2023-06-02	02:39:57	02:56:17	976740	5b9aa47491b20a0001176287	4	1	main_slash	11	main_slash	159	stimuli_target_rectanglediamonds.svg	stimuli_distractor_trianglediamonds.svg	2	yes	53	1	892	0	0			0	0			1				0	
6.6.1	win	2023-06-02	02:39:57	02:56:17	976740	5b9aa47491b20a0001176287	4	1	main_slash	11	advance_on_keypress_SLASH	160	stimuli_target_rectanglediamonds.svg	stimuli_distractor_trianglediamonds.svg	2	yes	57	0	362	0	0			0	0			1				0	
6.6.1	win	2023-06-02	02:39:57	02:56:17	976740	5b9aa47491b20a0001176287	4	1	headphonecheck_calibration	14	headphonecheck_calibrationIntro	1	stimuli_target_rectanglediamonds.svg	stimuli_distractor_trianglediamonds.svg	2	yes	calibrationButton	0	4663	0	0			0	0			1				0	
6.6.1	win	2023-06-02	02:39:57	02:56:17	976740	5b9aa47491b20a0001176287	4	1	headphonecheck_testphase	15	test_collectResponse	3	stimuli_target_rectanglediamonds.svg	stimuli_distractor_trianglediamonds.svg	2	yes	first	0	652	1	5	antiphase_hc_osi.wav	2	0	0			1				0	
6.6.1	win	2023-06-02	02:39:57	02:56:17	976740	5b9aa47491b20a0001176287	4	1	headphonecheck_testphase	15	test_collectResponse	6	stimuli_target_rectanglediamonds.svg	stimuli_distractor_trianglediamonds.svg	2	yes	third	1	491	2	6	antiphase_hc_ois.wav	3	0	0			1				0	
6.6.1	win	2023-06-02	02:39:57	02:56:17	976740	5b9aa47491b20a0001176287	4	1	headphonecheck_testphase	15	test_collectResponse	9	stimuli_target_rectanglediamonds.svg	stimuli_distractor_trianglediamonds.svg	2	yes	third	0	796	3	1	antiphase_hc_iso.wav	2	0	0			1				0	
6.6.1	win	2023-06-02	02:39:57	02:56:17	976740	5b9aa47491b20a0001176287	4	1	headphonecheck_testphase	15	test_collectResponse	12	stimuli_target_rectanglediamonds.svg	stimuli_distractor_trianglediamonds.svg	2	yes	second	0	4292	4	2	antiphase_hc_ios.wav	3	0	0			1				0	
6.6.1	win	2023-06-02	02:39:57	02:56:17	976740	5b9aa47491b20a0001176287	4	1	headphonecheck_testphase	15	test_collectResponse	15	stimuli_target_rectanglediamonds.svg	stimuli_distractor_trianglediamonds.svg	2	yes	third	0	355	5	4	antiphase_hc_sio.wav	1	0	0			1				0	
6.6.1	win	2023-06-02	02:39:57	02:56:17	976740	5b9aa47491b20a0001176287	4	1	headphonecheck_testphase	15	test_collectResponse	18	stimuli_target_rectanglediamonds.svg	stimuli_distractor_trianglediamonds.svg	2	yes	second	0	4126	6	3	antiphase_hc_soi.wav	1	0	0			1				0	
6.6.1	win	2023-06-02	02:39:57	02:56:17	976740	5b9aa47491b20a0001176287	4	1	stereocheck_calibration	17	stereocheck_calibrationIntro	1	stimuli_target_rectanglediamonds.svg	stimuli_distractor_trianglediamonds.svg	2	yes	stereocheck_calibrationButton	0	6817	6	3	antiphase_hc_soi.wav	1	0	0			1				0	
6.6.1	win	2023-06-02	02:39:57	02:56:17	976740	5b9aa47491b20a0001176287	4	1	stereocheck_testphase	18	stereocheck_test_collectResponse	3	stimuli_target_rectanglediamonds.svg	stimuli_distractor_trianglediamonds.svg	2	yes	stereocheck_left	1	1356	6	3	antiphase_hc_soi.wav	1	1	1	noise_calib_stim_LEFT.wav	1	1				0	
6.6.1	win	2023-06-02	02:39:57	02:56:17	976740	5b9aa47491b20a0001176287	4	1	stereocheck_testphase	18	stereocheck_test_collectResponse	6	stimuli_target_rectanglediamonds.svg	stimuli_distractor_trianglediamonds.svg	2	yes	stereocheck_right	1	1112	6	3	antiphase_hc_soi.wav	1	2	6	noise_calib_stim_RIGHT.wav	2	1				0	
6.6.1	win	2023-06-02	02:39:57	02:56:17	976740	5b9aa47491b20a0001176287	4	1	stereocheck_testphase	18	stereocheck_test_collectResponse	9	stimuli_target_rectanglediamonds.svg	stimuli_distractor_trianglediamonds.svg	2	yes	stereocheck_left	1	502	6	3	antiphase_hc_soi.wav	1	3	3	noise_calib_stim_LEFT.wav	1	1				0	
6.6.1	win	2023-06-02	02:39:57	02:56:17	976740	5b9aa47491b20a0001176287	4	1	stereocheck_testphase	18	stereocheck_test_collectResponse	12	stimuli_target_rectanglediamonds.svg	stimuli_distractor_trianglediamonds.svg	2	yes	stereocheck_right	1	535	6	3	antiphase_hc_soi.wav	1	4	4	noise_calib_stim_RIGHT.wav	2	1				0	
6.6.1	win	2023-06-02	02:39:57	02:56:17	976740	5b9aa47491b20a0001176287	4	1	stereocheck_testphase	18	stereocheck_test_collectResponse	15	stimuli_target_rectanglediamonds.svg	stimuli_distractor_trianglediamonds.svg	2	yes	stereocheck_right	1	552	6	3	antiphase_hc_soi.wav	1	5	5	noise_calib_stim_RIGHT.wav	2	1				0	
6.6.1	win	2023-06-02	02:39:57	02:56:17	976740	5b9aa47491b20a0001176287	4	1	stereocheck_testphase	18	stereocheck_test_collectResponse	18	stimuli_target_rectanglediamonds.svg	stimuli_distractor_trianglediamonds.svg	2	yes	stereocheck_left	1	455	6	3	antiphase_hc_soi.wav	1	6	2	noise_calib_stim_LEFT.wav	1	1				0	
6.6.1	win	2023-06-02	02:39:57	02:56:17	976740	5b9aa47491b20a0001176287	4	1	DL_practice	21	DL_practice	2	stimuli_target_rectanglediamonds.svg	stimuli_distractor_trianglediamonds.svg	2	yes	pa	1	1223	6	3	antiphase_hc_soi.wav	1	6	2	noise_calib_stim_LEFT.wav	1	29	blb_dichoticlistening_pa-pa.mp3	pa	pa	0	left
6.6.1	win	2023-06-02	02:39:57	02:56:17	976740	5b9aa47491b20a0001176287	4	1	DL_practice	21	DL_practice	3	stimuli_target_rectanglediamonds.svg	stimuli_distractor_trianglediamonds.svg	2	yes	ka	1	1217	6	3	antiphase_hc_soi.wav	1	6	2	noise_calib_stim_LEFT.wav	1	23	blb_dichoticlistening_ka-pa.mp3	ka	pa	1	left
6.6.1	win	2023-06-02	02:39:57	02:56:17	976740	5b9aa47491b20a0001176287	4	1	DL_practice	21	DL_practice	4	stimuli_target_rectanglediamonds.svg	stimuli_distractor_trianglediamonds.svg	2	yes	ba	1	1141	6	3	antiphase_hc_soi.wav	1	6	2	noise_calib_stim_LEFT.wav	1	1	blb_dichoticlistening_ba-ba.mp3	ba	ba	0	left
6.6.1	win	2023-06-02	02:39:57	02:56:17	976740	5b9aa47491b20a0001176287	4	1	DL_practice	21	DL_practice	5	stimuli_target_rectanglediamonds.svg	stimuli_distractor_trianglediamonds.svg	2	yes	ta	1	1302	6	3	antiphase_hc_soi.wav	1	6	2	noise_calib_stim_LEFT.wav	1	36	blb_dichoticlistening_ta-ta.mp3	ta	ta	0	left
6.6.1	win	2023-06-02	02:39:57	02:56:17	976740	5b9aa47491b20a0001176287	4	1	DL_practice	21	DL_practice	6	stimuli_target_rectanglediamonds.svg	stimuli_distractor_trianglediamonds.svg	2	yes	da	1	1046	6	3	antiphase_hc_soi.wav	1	6	2	noise_calib_stim_LEFT.wav	1	8	blb_dichoticlistening_da-da.mp3	da	da	0	left
6.6.1	win	2023-06-02	02:39:57	02:56:17	976740	5b9aa47491b20a0001176287	4	1	DL_practice	21	DL_practice	7	stimuli_target_rectanglediamonds.svg	stimuli_distractor_trianglediamonds.svg	2	yes	ba	1	1678	6	3	antiphase_hc_soi.wav	1	6	2	noise_calib_stim_LEFT.wav	1	7	blb_dichoticlistening_da-ba.mp3	da	ba	1	right
6.6.1	win	2023-06-02	02:39:57	02:56:17	976740	5b9aa47491b20a0001176287	4	1	DL_practice	21	DL_practice	8	stimuli_target_rectanglediamonds.svg	stimuli_distractor_trianglediamonds.svg	2	yes	ga	1	1018	6	3	antiphase_hc_soi.wav	1	6	2	noise_calib_stim_LEFT.wav	1	18	blb_dichoticlistening_ga-ta.mp3	ga	ta	1	left
6.6.1	win	2023-06-02	02:39:57	02:56:17	976740	5b9aa47491b20a0001176287	4	1	DL_practice	21	DL_practice	9	stimuli_target_rectanglediamonds.svg	stimuli_distractor_trianglediamonds.svg	2	yes	ga	1	784	6	3	antiphase_hc_soi.wav	1	6	2	noise_calib_stim_LEFT.wav	1	15	blb_dichoticlistening_ga-ga.mp3	ga	ga	0	left
6.6.1	win	2023-06-02	02:39:57	02:56:17	976740	5b9aa47491b20a0001176287	4	1	DL_practice	21	DL_practice	10	stimuli_target_rectanglediamonds.svg	stimuli_distractor_trianglediamonds.svg	2	yes	ka	1	826	6	3	antiphase_hc_soi.wav	1	6	2	noise_calib_stim_LEFT.wav	1	22	blb_dichoticlistening_ka-ka.mp3	ka	ka	0	left
6.6.1	win	2023-06-02	02:39:57	02:56:17	976740	5b9aa47491b20a0001176287	4	1	DL_test	23	DL_test	1	stimuli_target_rectanglediamonds.svg	stimuli_distractor_trianglediamonds.svg	2	yes	ga	0	1662	6	3	antiphase_hc_soi.wav	1	6	2	noise_calib_stim_LEFT.wav	1	32	blb_dichoticlistening_ta-da.mp3	ta	da	1	other
6.6.1	win	2023-06-02	02:39:57	02:56:17	976740	5b9aa47491b20a0001176287	4	1	DL_test	23	DL_test	2	stimuli_target_rectanglediamonds.svg	stimuli_distractor_trianglediamonds.svg	2	yes	pa	1	2046	6	3	antiphase_hc_soi.wav	1	6	2	noise_calib_stim_LEFT.wav	1	30	blb_dichoticlistening_pa-ta.mp3	pa	ta	1	left
6.6.1	win	2023-06-02	02:39:57	02:56:17	976740	5b9aa47491b20a0001176287	4	1	DL_test	23	DL_test	3	stimuli_target_rectanglediamonds.svg	stimuli_distractor_trianglediamonds.svg	2	yes	da	1	1094	6	3	antiphase_hc_soi.wav	1	6	2	noise_calib_stim_LEFT.wav	1	26	blb_dichoticlistening_pa-da.mp3	pa	da	1	right
6.6.1	win	2023-06-02	02:39:57	02:56:17	976740	5b9aa47491b20a0001176287	4	1	DL_test	23	DL_test	4	stimuli_target_rectanglediamonds.svg	stimuli_distractor_trianglediamonds.svg	2	yes	da	1	768	6	3	antiphase_hc_soi.wav	1	6	2	noise_calib_stim_LEFT.wav	1	8	blb_dichoticlistening_da-da.mp3	da	da	0	left
6.6.1	win	2023-06-02	02:39:57	02:56:17	976740	5b9aa47491b20a0001176287	4	1	DL_test	23	DL_test	5	stimuli_target_rectanglediamonds.svg	stimuli_distractor_trianglediamonds.svg	2	yes	ga	1	988	6	3	antiphase_hc_soi.wav	1	6	2	noise_calib_stim_LEFT.wav	1	33	blb_dichoticlistening_ta-ga.mp3	ta	ga	1	right
6.6.1	win	2023-06-02	02:39:57	02:56:17	976740	5b9aa47491b20a0001176287	4	1	DL_test	23	DL_test	6	stimuli_target_rectanglediamonds.svg	stimuli_distractor_trianglediamonds.svg	2	yes	pa	0	1084	6	3	antiphase_hc_soi.wav	1	6	2	noise_calib_stim_LEFT.wav	1	13	blb_dichoticlistening_ga-ba.mp3	ga	ba	1	other
6.6.1	win	2023-06-02	02:39:57	02:56:17	976740	5b9aa47491b20a0001176287	4	1	DL_test	23	DL_test	7	stimuli_target_rectanglediamonds.svg	stimuli_distractor_trianglediamonds.svg	2	yes	ga	0	1645	6	3	antiphase_hc_soi.wav	1	6	2	noise_calib_stim_LEFT.wav	1	20	blb_dichoticlistening_ka-da.mp3	ka	da	1	other
6.6.1	win	2023-06-02	02:39:57	02:56:17	976740	5b9aa47491b20a0001176287	4	1	DL_test	23	DL_test	8	stimuli_target_rectanglediamonds.svg	stimuli_distractor_trianglediamonds.svg	2	yes	ka	1	874	6	3	antiphase_hc_soi.wav	1	6	2	noise_calib_stim_LEFT.wav	1	28	blb_dichoticlistening_pa-ka.mp3	pa	ka	1	right
6.6.1	win	2023-06-02	02:39:57	02:56:17	976740	5b9aa47491b20a0001176287	4	1	DL_test	23	DL_test	9	stimuli_target_rectanglediamonds.svg	stimuli_distractor_trianglediamonds.svg	2	yes	pa	0	1721	6	3	antiphase_hc_soi.wav	1	6	2	noise_calib_stim_LEFT.wav	1	6	blb_dichoticlistening_ba-ta.mp3	ba	ta	1	other
6.6.1	win	2023-06-02	02:39:57	02:56:17	976740	5b9aa47491b20a0001176287	4	1	DL_test	23	DL_test	10	stimuli_target_rectanglediamonds.svg	stimuli_distractor_trianglediamonds.svg	2	yes	pa	1	1025	6	3	antiphase_hc_soi.wav	1	6	2	noise_calib_stim_LEFT.wav	1	35	blb_dichoticlistening_ta-pa.mp3	ta	pa	1	right
6.6.1	win	2023-06-02	02:39:57	02:56:17	976740	5b9aa47491b20a0001176287	4	1	DL_test	23	DL_test	11	stimuli_target_rectanglediamonds.svg	stimuli_distractor_trianglediamonds.svg	2	yes	ga	1	993	6	3	antiphase_hc_soi.wav	1	6	2	noise_calib_stim_LEFT.wav	1	17	blb_dichoticlistening_ga-pa.mp3	ga	pa	1	left
6.6.1	win	2023-06-02	02:39:57	02:56:17	976740	5b9aa47491b20a0001176287	4	1	DL_test	23	DL_test	12	stimuli_target_rectanglediamonds.svg	stimuli_distractor_trianglediamonds.svg	2	yes	ba	1	1179	6	3	antiphase_hc_soi.wav	1	6	2	noise_calib_stim_LEFT.wav	1	1	blb_dichoticlistening_ba-ba.mp3	ba	ba	0	left
6.6.1	win	2023-06-02	02:39:57	02:56:17	976740	5b9aa47491b20a0001176287	4	1	DL_test	23	DL_test	13	stimuli_target_rectanglediamonds.svg	stimuli_distractor_trianglediamonds.svg	2	yes	ga	1	880	6	3	antiphase_hc_soi.wav	1	6	2	noise_calib_stim_LEFT.wav	1	15	blb_dichoticlistening_ga-ga.mp3	ga	ga	0	left
6.6.1	win	2023-06-02	02:39:57	02:56:17	976740	5b9aa47491b20a0001176287	4	1	DL_test	23	DL_test	14	stimuli_target_rectanglediamonds.svg	stimuli_distractor_trianglediamonds.svg	2	yes	da	1	927	6	3	antiphase_hc_soi.wav	1	6	2	noise_calib_stim_LEFT.wav	1	10	blb_dichoticlistening_da-ka.mp3	da	ka	1	left
6.6.1	win	2023-06-02	02:39:57	02:56:17	976740	5b9aa47491b20a0001176287	4	1	DL_test	23	DL_test	15	stimuli_target_rectanglediamonds.svg	stimuli_distractor_trianglediamonds.svg	2	yes	ga	1	790	6	3	antiphase_hc_soi.wav	1	6	2	noise_calib_stim_LEFT.wav	1	16	blb_dichoticlistening_ga-ka.mp3	ga	ka	1	left
6.6.1	win	2023-06-02	02:39:57	02:56:17	976740	5b9aa47491b20a0001176287	4	1	DL_test	23	DL_test	16	stimuli_target_rectanglediamonds.svg	stimuli_distractor_trianglediamonds.svg	2	yes	ba	1	986	6	3	antiphase_hc_soi.wav	1	6	2	noise_calib_stim_LEFT.wav	1	5	blb_dichoticlistening_ba-pa.mp3	ba	pa	1	left
6.6.1	win	2023-06-02	02:39:57	02:56:17	976740	5b9aa47491b20a0001176287	4	1	DL_test	23	DL_test	17	stimuli_target_rectanglediamonds.svg	stimuli_distractor_trianglediamonds.svg	2	yes	ka	1	1026	6	3	antiphase_hc_soi.wav	1	6	2	noise_calib_stim_LEFT.wav	1	19	blb_dichoticlistening_ka-ba.mp3	ka	ba	1	left
6.6.1	win	2023-06-02	02:39:57	02:56:17	976740	5b9aa47491b20a0001176287	4	1	DL_test	23	DL_test	18	stimuli_target_rectanglediamonds.svg	stimuli_distractor_trianglediamonds.svg	2	yes	ka	1	938	6	3	antiphase_hc_soi.wav	1	6	2	noise_calib_stim_LEFT.wav	1	22	blb_dichoticlistening_ka-ka.mp3	ka	ka	0	left
6.6.1	win	2023-06-02	02:39:57	02:56:17	976740	5b9aa47491b20a0001176287	4	1	DL_test	23	DL_test	19	stimuli_target_rectanglediamonds.svg	stimuli_distractor_trianglediamonds.svg	2	yes	ka	1	865	6	3	antiphase_hc_soi.wav	1	6	2	noise_calib_stim_LEFT.wav	1	34	blb_dichoticlistening_ta-ka.mp3	ta	ka	1	right
6.6.1	win	2023-06-02	02:39:57	02:56:17	976740	5b9aa47491b20a0001176287	4	1	DL_test	23	DL_test	20	stimuli_target_rectanglediamonds.svg	stimuli_distractor_trianglediamonds.svg	2	yes	ta	1	1047	6	3	antiphase_hc_soi.wav	1	6	2	noise_calib_stim_LEFT.wav	1	36	blb_dichoticlistening_ta-ta.mp3	ta	ta	0	left
6.6.1	win	2023-06-02	02:39:57	02:56:17	976740	5b9aa47491b20a0001176287	4	1	DL_test	23	DL_test	21	stimuli_target_rectanglediamonds.svg	stimuli_distractor_trianglediamonds.svg	2	yes	ga	1	960	6	3	antiphase_hc_soi.wav	1	6	2	noise_calib_stim_LEFT.wav	1	14	blb_dichoticlistening_ga-da.mp3	ga	da	1	left
6.6.1	win	2023-06-02	02:39:57	02:56:17	976740	5b9aa47491b20a0001176287	4	1	DL_test	23	DL_test	22	stimuli_target_rectanglediamonds.svg	stimuli_distractor_trianglediamonds.svg	2	yes	ga	1	771	6	3	antiphase_hc_soi.wav	1	6	2	noise_calib_stim_LEFT.wav	1	18	blb_dichoticlistening_ga-ta.mp3	ga	ta	1	left
6.6.1	win	2023-06-02	02:39:57	02:56:17	976740	5b9aa47491b20a0001176287	4	1	DL_test	23	DL_test	23	stimuli_target_rectanglediamonds.svg	stimuli_distractor_trianglediamonds.svg	2	yes	ba	1	1114	6	3	antiphase_hc_soi.wav	1	6	2	noise_calib_stim_LEFT.wav	1	3	blb_dichoticlistening_ba-ga.mp3	ba	ga	1	left
6.6.1	win	2023-06-02	02:39:57	02:56:17	976740	5b9aa47491b20a0001176287	4	1	DL_test	23	DL_test	24	stimuli_target_rectanglediamonds.svg	stimuli_distractor_trianglediamonds.svg	2	yes	ka	1	965	6	3	antiphase_hc_soi.wav	1	6	2	noise_calib_stim_LEFT.wav	1	23	blb_dichoticlistening_ka-pa.mp3	ka	pa	1	left
6.6.1	win	2023-06-02	02:39:57	02:56:17	976740	5b9aa47491b20a0001176287	4	1	DL_test	23	DL_test	25	stimuli_target_rectanglediamonds.svg	stimuli_distractor_trianglediamonds.svg	2	yes	pa	0	1146	6	3	antiphase_hc_soi.wav	1	6	2	noise_calib_stim_LEFT.wav	1	2	blb_dichoticlistening_ba-da.mp3	ba	da	1	other
6.6.1	win	2023-06-02	02:39:57	02:56:17	976740	5b9aa47491b20a0001176287	4	1	DL_test	23	DL_test	26	stimuli_target_rectanglediamonds.svg	stimuli_distractor_trianglediamonds.svg	2	yes	pa	0	1064	6	3	antiphase_hc_soi.wav	1	6	2	noise_calib_stim_LEFT.wav	1	4	blb_dichoticlistening_ba-ka.mp3	ba	ka	1	other
