build	computer.platform	date	time	timestamp	time_elapsed_ms	subject	group	session	blockcode	blocknum	trialcode	trialnum	stimulus_left	stimulus_right	stim_index	target_present	response	correct	latency	headphonecheck_countTestTrials	headphonecheck_index	headphonecheck_testSound	headphonecheck_correctResponse	stereocheck_countTestTrials	stereocheck_index	stereocheck_testSound	stereocheck_correctResponse	DL_index	DL_soundfile	DL_leftSound	DL_rightSound	DL_dualSound	DL_choice
6.6.1	mac	2023-06-02	08:32:19	08:37:01	279479	5c663cd56fdc87000162e255	3	1	practice_slash	5	practice_slash	1	stimuli_distractor_diamondtriangles.svg	stimuli_target_rectangletriangles.svg	7	yes	53	1	1647	0	0			0	0			1				0	
6.6.1	mac	2023-06-02	08:32:19	08:37:01	279479	5c663cd56fdc87000162e255	3	1	practice_slash	5	advance_on_keypress_SLASH	2	stimuli_distractor_diamondtriangles.svg	stimuli_target_rectangletriangles.svg	7	yes	57	0	2974	0	0			0	0			1				0	
6.6.1	mac	2023-06-02	08:32:19	08:37:07	285179	5c663cd56fdc87000162e255	3	1	practice_slash	5	practice_slash	3	stimuli_target_rectanglediamonds.svg	stimuli_distractor_trianglediamonds.svg	4	yes	53	1	1082	0	0			0	0			1				0	
6.6.1	mac	2023-06-02	08:32:19	08:37:07	285179	5c663cd56fdc87000162e255	3	1	practice_slash	5	advance_on_keypress_SLASH	4	stimuli_target_rectanglediamonds.svg	stimuli_distractor_trianglediamonds.svg	4	yes	57	0	1743	0	0			0	0			1				0	
6.6.1	mac	2023-06-02	08:32:19	08:37:11	289454	5c663cd56fdc87000162e255	3	1	practice_slash	5	practice_slash	5	stimuli_distractor_diamondtriangles.svg	stimuli_distractor_trianglediamonds.svg	14	no	53	0	890	0	0			0	0			1				0	
6.6.1	mac	2023-06-02	08:32:19	08:37:11	289454	5c663cd56fdc87000162e255	3	1	practice_slash	5	advance_on_keypress_SLASH	6	stimuli_distractor_diamondtriangles.svg	stimuli_distractor_trianglediamonds.svg	14	no	57	0	1146	0	0			0	0			1				0	
6.6.1	mac	2023-06-02	08:32:19	08:37:15	293187	5c663cd56fdc87000162e255	3	1	practice_slash	5	practice_slash	7	stimuli_distractor_trianglediamonds.svg	stimuli_target_diamondrectangles.svg	12	yes	53	1	956	0	0			0	0			1				0	
6.6.1	mac	2023-06-02	08:32:19	08:37:15	293187	5c663cd56fdc87000162e255	3	1	practice_slash	5	advance_on_keypress_SLASH	8	stimuli_distractor_trianglediamonds.svg	stimuli_target_diamondrectangles.svg	12	yes	57	0	875	0	0			0	0			1				0	
6.6.1	mac	2023-06-02	08:32:19	08:37:19	297696	5c663cd56fdc87000162e255	3	1	practice_slash	5	practice_slash	9	stimuli_distractor_trianglediamonds.svg	stimuli_target_squarediamonds.svg	11	yes	0	0	2000	0	0			0	0			1				0	
6.6.1	mac	2023-06-02	08:32:19	08:37:19	297696	5c663cd56fdc87000162e255	3	1	practice_slash	5	advance_on_keypress_SLASH	10	stimuli_distractor_trianglediamonds.svg	stimuli_target_squarediamonds.svg	11	yes	57	0	919	0	0			0	0			1				0	
6.6.1	mac	2023-06-02	08:32:19	08:37:24	302246	5c663cd56fdc87000162e255	3	1	practice_slash	5	practice_slash	11	stimuli_distractor_trianglediamonds.svg	stimuli_distractor_trianglediamonds.svg	15	no	0	1	2000	0	0			0	0			1				0	
6.6.1	mac	2023-06-02	08:32:19	08:37:24	302246	5c663cd56fdc87000162e255	3	1	practice_slash	5	advance_on_keypress_SLASH	12	stimuli_distractor_trianglediamonds.svg	stimuli_distractor_trianglediamonds.svg	15	no	57	0	1054	0	0			0	0			1				0	
6.6.1	mac	2023-06-02	08:32:19	08:37:27	305830	5c663cd56fdc87000162e255	3	1	practice_slash	5	practice_slash	13	stimuli_distractor_diamondtriangles.svg	stimuli_distractor_diamondtriangles.svg	13	no	53	0	900	0	0			0	0			1				0	
6.6.1	mac	2023-06-02	08:32:19	08:37:27	305830	5c663cd56fdc87000162e255	3	1	practice_slash	5	advance_on_keypress_SLASH	14	stimuli_distractor_diamondtriangles.svg	stimuli_distractor_diamondtriangles.svg	13	no	57	0	1059	0	0			0	0			1				0	
6.6.1	mac	2023-06-02	08:32:19	08:37:32	310530	5c663cd56fdc87000162e255	3	1	practice_slash	5	practice_slash	15	stimuli_target_diamondsquares.svg	stimuli_distractor_trianglediamonds.svg	6	yes	0	0	2000	0	0			0	0			1				0	
6.6.1	mac	2023-06-02	08:32:19	08:37:32	310530	5c663cd56fdc87000162e255	3	1	practice_slash	5	advance_on_keypress_SLASH	16	stimuli_target_diamondsquares.svg	stimuli_distractor_trianglediamonds.svg	6	yes	57	0	930	0	0			0	0			1				0	
6.6.1	mac	2023-06-02	08:32:19	08:37:36	315096	5c663cd56fdc87000162e255	3	1	practice_slash	5	practice_slash	17	stimuli_distractor_diamondtriangles.svg	stimuli_target_diamondrectangles.svg	8	yes	0	0	2000	0	0			0	0			1				0	
6.6.1	mac	2023-06-02	08:32:19	08:37:36	315096	5c663cd56fdc87000162e255	3	1	practice_slash	5	advance_on_keypress_SLASH	18	stimuli_distractor_diamondtriangles.svg	stimuli_target_diamondrectangles.svg	8	yes	57	0	954	0	0			0	0			1				0	
6.6.1	mac	2023-06-02	08:32:19	08:37:40	318683	5c663cd56fdc87000162e255	3	1	practice_slash	5	practice_slash	19	stimuli_distractor_diamondtriangles.svg	stimuli_target_trianglerectangles.svg	9	yes	53	1	1003	0	0			0	0			1				0	
6.6.1	mac	2023-06-02	08:32:19	08:37:40	318683	5c663cd56fdc87000162e255	3	1	practice_slash	5	advance_on_keypress_SLASH	20	stimuli_distractor_diamondtriangles.svg	stimuli_target_trianglerectangles.svg	9	yes	57	0	1055	0	0			0	0			1				0	
6.6.1	mac	2023-06-02	08:32:19	08:37:44	322286	5c663cd56fdc87000162e255	3	1	practice_slash	5	practice_slash	21	stimuli_target_rectanglediamonds.svg	stimuli_distractor_diamondtriangles.svg	1	yes	53	1	922	0	0			0	0			1				0	
6.6.1	mac	2023-06-02	08:32:19	08:37:44	322286	5c663cd56fdc87000162e255	3	1	practice_slash	5	advance_on_keypress_SLASH	22	stimuli_target_rectanglediamonds.svg	stimuli_distractor_diamondtriangles.svg	1	yes	57	0	586	0	0			0	0			1				0	
6.6.1	mac	2023-06-02	08:32:19	08:37:47	325615	5c663cd56fdc87000162e255	3	1	practice_slash	5	practice_slash	23	stimuli_distractor_trianglediamonds.svg	stimuli_distractor_diamondtriangles.svg	16	no	53	0	1118	0	0			0	0			1				0	
6.6.1	mac	2023-06-02	08:32:19	08:37:47	325615	5c663cd56fdc87000162e255	3	1	practice_slash	5	advance_on_keypress_SLASH	24	stimuli_distractor_trianglediamonds.svg	stimuli_distractor_diamondtriangles.svg	16	no	57	0	1995	0	0			0	0			1				0	
6.6.1	mac	2023-06-02	08:32:19	08:37:53	331247	5c663cd56fdc87000162e255	3	1	practice_slash	5	practice_slash	25	stimuli_target_squarediamonds.svg	stimuli_distractor_diamondtriangles.svg	2	yes	0	0	2000	0	0			0	0			1				0	
6.6.1	mac	2023-06-02	08:32:19	08:37:53	331247	5c663cd56fdc87000162e255	3	1	practice_slash	5	advance_on_keypress_SLASH	26	stimuli_target_squarediamonds.svg	stimuli_distractor_diamondtriangles.svg	2	yes	57	0	681	0	0			0	0			1				0	
6.6.1	mac	2023-06-02	08:32:19	08:37:56	334492	5c663cd56fdc87000162e255	3	1	practice_slash	5	practice_slash	27	stimuli_target_diamondsquares.svg	stimuli_distractor_diamondtriangles.svg	3	yes	53	1	928	0	0			0	0			1				0	
6.6.1	mac	2023-06-02	08:32:19	08:37:56	334492	5c663cd56fdc87000162e255	3	1	practice_slash	5	advance_on_keypress_SLASH	28	stimuli_target_diamondsquares.svg	stimuli_distractor_diamondtriangles.svg	3	yes	57	0	978	0	0			0	0			1				0	
6.6.1	mac	2023-06-02	08:32:19	08:38:00	339113	5c663cd56fdc87000162e255	3	1	practice_slash	5	practice_slash	29	stimuli_target_squarediamonds.svg	stimuli_distractor_trianglediamonds.svg	5	yes	0	0	2000	0	0			0	0			1				0	
6.6.1	mac	2023-06-02	08:32:19	08:38:00	339113	5c663cd56fdc87000162e255	3	1	practice_slash	5	advance_on_keypress_SLASH	30	stimuli_target_squarediamonds.svg	stimuli_distractor_trianglediamonds.svg	5	yes	57	0	752	0	0			0	0			1				0	
6.6.1	mac	2023-06-02	08:32:19	08:38:04	342706	5c663cd56fdc87000162e255	3	1	practice_slash	5	practice_slash	31	stimuli_distractor_trianglediamonds.svg	stimuli_target_rectanglediamonds.svg	10	yes	53	1	1208	0	0			0	0			1				0	
6.6.1	mac	2023-06-02	08:32:19	08:38:04	342706	5c663cd56fdc87000162e255	3	1	practice_slash	5	advance_on_keypress_SLASH	32	stimuli_distractor_trianglediamonds.svg	stimuli_target_rectanglediamonds.svg	10	yes	57	0	994	0	0			0	0			1				0	
6.6.1	mac	2023-06-02	08:32:19	08:38:15	353466	5c663cd56fdc87000162e255	3	1	main_slash	7	main_slash	1	stimuli_distractor_diamondtriangles.svg	stimuli_target_rectanglediamonds.svg	14	yes	53	1	686	0	0			0	0			1				0	
6.6.1	mac	2023-06-02	08:32:19	08:38:15	353466	5c663cd56fdc87000162e255	3	1	main_slash	7	advance_on_keypress_SLASH	2	stimuli_distractor_diamondtriangles.svg	stimuli_target_rectanglediamonds.svg	14	yes	57	0	1535	0	0			0	0			1				0	
6.6.1	mac	2023-06-02	08:32:19	08:38:18	356596	5c663cd56fdc87000162e255	3	1	main_slash	7	main_slash	3	stimuli_target_trianglerectangles.svg	stimuli_distractor_diamondtriangles.svg	21	yes	53	1	967	0	0			0	0			1				0	
6.6.1	mac	2023-06-02	08:32:19	08:38:18	356596	5c663cd56fdc87000162e255	3	1	main_slash	7	advance_on_keypress_SLASH	4	stimuli_target_trianglerectangles.svg	stimuli_distractor_diamondtriangles.svg	21	yes	57	0	933	0	0			0	0			1				0	
6.6.1	mac	2023-06-02	08:32:19	08:38:21	360160	5c663cd56fdc87000162e255	3	1	main_slash	7	main_slash	5	stimuli_target_trianglesquares.svg	stimuli_distractor_trianglediamonds.svg	18	yes	0	0	2000	0	0			0	0			1				0	
6.6.1	mac	2023-06-02	08:32:19	08:38:21	360160	5c663cd56fdc87000162e255	3	1	main_slash	7	advance_on_keypress_SLASH	6	stimuli_target_trianglesquares.svg	stimuli_distractor_trianglediamonds.svg	18	yes	57	0	1031	0	0			0	0			1				0	
6.6.1	mac	2023-06-02	08:32:19	08:38:24	362644	5c663cd56fdc87000162e255	3	1	main_slash	7	main_slash	7	stimuli_target_rectanglediamonds.svg	stimuli_distractor_trianglediamonds.svg	2	yes	53	1	815	0	0			0	0			1				0	
6.6.1	mac	2023-06-02	08:32:19	08:38:24	362644	5c663cd56fdc87000162e255	3	1	main_slash	7	advance_on_keypress_SLASH	8	stimuli_target_rectanglediamonds.svg	stimuli_distractor_trianglediamonds.svg	2	yes	57	0	1016	0	0			0	0			1				0	
6.6.1	mac	2023-06-02	08:32:19	08:38:28	366293	5c663cd56fdc87000162e255	3	1	main_slash	7	main_slash	9	stimuli_distractor_trianglediamonds.svg	stimuli_target_squarediamonds.svg	12	yes	0	0	2000	0	0			0	0			1				0	
6.6.1	mac	2023-06-02	08:32:19	08:38:28	366293	5c663cd56fdc87000162e255	3	1	main_slash	7	advance_on_keypress_SLASH	10	stimuli_distractor_trianglediamonds.svg	stimuli_target_squarediamonds.svg	12	yes	57	0	786	0	0			0	0			1				0	
6.6.1	mac	2023-06-02	08:32:19	08:38:30	368499	5c663cd56fdc87000162e255	3	1	main_slash	7	main_slash	11	stimuli_distractor_diamondtriangles.svg	stimuli_target_squaretriangles.svg	15	yes	53	1	786	0	0			0	0			1				0	
6.6.1	mac	2023-06-02	08:32:19	08:38:30	368499	5c663cd56fdc87000162e255	3	1	main_slash	7	advance_on_keypress_SLASH	12	stimuli_distractor_diamondtriangles.svg	stimuli_target_squaretriangles.svg	15	yes	57	0	1060	0	0			0	0			1				0	
6.6.1	mac	2023-06-02	08:32:19	08:38:34	372178	5c663cd56fdc87000162e255	3	1	main_slash	7	main_slash	13	stimuli_target_squaretriangles.svg	stimuli_distractor_trianglediamonds.svg	3	yes	0	0	2000	0	0			0	0			1				0	
6.6.1	mac	2023-06-02	08:32:19	08:38:34	372178	5c663cd56fdc87000162e255	3	1	main_slash	7	advance_on_keypress_SLASH	14	stimuli_target_squaretriangles.svg	stimuli_distractor_trianglediamonds.svg	3	yes	57	0	502	0	0			0	0			1				0	
6.6.1	mac	2023-06-02	08:32:19	08:38:36	374267	5c663cd56fdc87000162e255	3	1	main_slash	7	main_slash	15	stimuli_distractor_diamondtriangles.svg	stimuli_distractor_diamondtriangles.svg	40	no	53	0	954	0	0			0	0			1				0	
6.6.1	mac	2023-06-02	08:32:19	08:38:36	374267	5c663cd56fdc87000162e255	3	1	main_slash	7	advance_on_keypress_SLASH	16	stimuli_distractor_diamondtriangles.svg	stimuli_distractor_diamondtriangles.svg	40	no	57	0	1171	0	0			0	0			1				0	
6.6.1	mac	2023-06-02	08:32:19	08:38:39	377324	5c663cd56fdc87000162e255	3	1	main_slash	7	main_slash	17	stimuli_target_diamondrectangles.svg	stimuli_distractor_trianglediamonds.svg	19	yes	53	1	1261	0	0			0	0			1				0	
6.6.1	mac	2023-06-02	08:32:19	08:38:39	377324	5c663cd56fdc87000162e255	3	1	main_slash	7	advance_on_keypress_SLASH	18	stimuli_target_diamondrectangles.svg	stimuli_distractor_trianglediamonds.svg	19	yes	57	0	741	0	0			0	0			1				0	
6.6.1	mac	2023-06-02	08:32:19	08:38:41	379711	5c663cd56fdc87000162e255	3	1	main_slash	7	main_slash	19	stimuli_distractor_diamondtriangles.svg	stimuli_target_rectangletriangles.svg	13	yes	53	1	1015	0	0			0	0			1				0	
6.6.1	mac	2023-06-02	08:32:19	08:38:41	379711	5c663cd56fdc87000162e255	3	1	main_slash	7	advance_on_keypress_SLASH	20	stimuli_distractor_diamondtriangles.svg	stimuli_target_rectangletriangles.svg	13	yes	57	0	950	0	0			0	0			1				0	
6.6.1	mac	2023-06-02	08:32:19	08:38:45	383294	5c663cd56fdc87000162e255	3	1	main_slash	7	main_slash	21	stimuli_distractor_trianglediamonds.svg	stimuli_target_squaretriangles.svg	11	yes	0	0	2000	0	0			0	0			1				0	
6.6.1	mac	2023-06-02	08:32:19	08:38:45	383294	5c663cd56fdc87000162e255	3	1	main_slash	7	advance_on_keypress_SLASH	22	stimuli_distractor_trianglediamonds.svg	stimuli_target_squaretriangles.svg	11	yes	57	0	379	0	0			0	0			1				0	
6.6.1	mac	2023-06-02	08:32:19	08:38:48	386311	5c663cd56fdc87000162e255	3	1	main_slash	7	main_slash	23	stimuli_distractor_trianglediamonds.svg	stimuli_target_trianglerectangles.svg	25	yes	0	0	2000	0	0			0	0			1				0	
6.6.1	mac	2023-06-02	08:32:19	08:38:48	386311	5c663cd56fdc87000162e255	3	1	main_slash	7	advance_on_keypress_SLASH	24	stimuli_distractor_trianglediamonds.svg	stimuli_target_trianglerectangles.svg	25	yes	57	0	429	0	0			0	0			1				0	
6.6.1	mac	2023-06-02	08:32:19	08:38:50	388289	5c663cd56fdc87000162e255	3	1	main_slash	7	main_slash	25	stimuli_target_diamondsquares.svg	stimuli_distractor_trianglediamonds.svg	20	yes	53	1	910	0	0			0	0			1				0	
6.6.1	mac	2023-06-02	08:32:19	08:38:50	388289	5c663cd56fdc87000162e255	3	1	main_slash	7	advance_on_keypress_SLASH	26	stimuli_target_diamondsquares.svg	stimuli_distractor_trianglediamonds.svg	20	yes	57	0	802	0	0			0	0			1				0	
6.6.1	mac	2023-06-02	08:32:19	08:38:52	390445	5c663cd56fdc87000162e255	3	1	main_slash	7	main_slash	27	stimuli_distractor_diamondtriangles.svg	stimuli_target_squarediamonds.svg	16	yes	53	1	732	0	0			0	0			1				0	
6.6.1	mac	2023-06-02	08:32:19	08:38:52	390445	5c663cd56fdc87000162e255	3	1	main_slash	7	advance_on_keypress_SLASH	28	stimuli_distractor_diamondtriangles.svg	stimuli_target_squarediamonds.svg	16	yes	57	0	900	0	0			0	0			1				0	
6.6.1	mac	2023-06-02	08:32:19	08:38:54	392761	5c663cd56fdc87000162e255	3	1	main_slash	7	main_slash	29	stimuli_target_rectangletriangles.svg	stimuli_distractor_diamondtriangles.svg	5	yes	53	1	782	0	0			0	0			1				0	
6.6.1	mac	2023-06-02	08:32:19	08:38:54	392761	5c663cd56fdc87000162e255	3	1	main_slash	7	advance_on_keypress_SLASH	30	stimuli_target_rectangletriangles.svg	stimuli_distractor_diamondtriangles.svg	5	yes	57	0	1136	0	0			0	0			1				0	
6.6.1	mac	2023-06-02	08:32:19	08:38:57	395239	5c663cd56fdc87000162e255	3	1	main_slash	7	main_slash	31	stimuli_distractor_diamondtriangles.svg	stimuli_target_diamondsquares.svg	32	yes	53	1	710	0	0			0	0			1				0	
6.6.1	mac	2023-06-02	08:32:19	08:38:57	395239	5c663cd56fdc87000162e255	3	1	main_slash	7	advance_on_keypress_SLASH	32	stimuli_distractor_diamondtriangles.svg	stimuli_target_diamondsquares.svg	32	yes	57	0	1084	0	0			0	0			1				0	
6.6.1	mac	2023-06-02	08:32:19	08:39:00	398961	5c663cd56fdc87000162e255	3	1	main_slash	7	main_slash	33	stimuli_distractor_trianglediamonds.svg	stimuli_distractor_trianglediamonds.svg	34	no	0	1	2000	0	0			0	0			1				0	
6.6.1	mac	2023-06-02	08:32:19	08:39:00	398961	5c663cd56fdc87000162e255	3	1	main_slash	7	advance_on_keypress_SLASH	34	stimuli_distractor_trianglediamonds.svg	stimuli_distractor_trianglediamonds.svg	34	no	57	0	891	0	0			0	0			1				0	
6.6.1	mac	2023-06-02	08:32:19	08:39:03	401218	5c663cd56fdc87000162e255	3	1	main_slash	7	main_slash	35	stimuli_target_rectangletriangles.svg	stimuli_distractor_trianglediamonds.svg	1	yes	53	1	722	0	0			0	0			1				0	
6.6.1	mac	2023-06-02	08:32:19	08:39:03	401218	5c663cd56fdc87000162e255	3	1	main_slash	7	advance_on_keypress_SLASH	36	stimuli_target_rectangletriangles.svg	stimuli_distractor_trianglediamonds.svg	1	yes	57	0	971	0	0			0	0			1				0	
6.6.1	mac	2023-06-02	08:32:19	08:39:06	404811	5c663cd56fdc87000162e255	3	1	main_slash	7	main_slash	37	stimuli_distractor_trianglediamonds.svg	stimuli_distractor_diamondtriangles.svg	35	no	0	1	2000	0	0			0	0			1				0	
6.6.1	mac	2023-06-02	08:32:19	08:39:06	404811	5c663cd56fdc87000162e255	3	1	main_slash	7	advance_on_keypress_SLASH	38	stimuli_distractor_trianglediamonds.svg	stimuli_distractor_diamondtriangles.svg	35	no	57	0	748	0	0			0	0			1				0	
6.6.1	mac	2023-06-02	08:32:19	08:39:08	406854	5c663cd56fdc87000162e255	3	1	main_slash	7	main_slash	39	stimuli_distractor_trianglediamonds.svg	stimuli_target_rectangletriangles.svg	9	yes	53	1	658	0	0			0	0			1				0	
6.6.1	mac	2023-06-02	08:32:19	08:39:08	406854	5c663cd56fdc87000162e255	3	1	main_slash	7	advance_on_keypress_SLASH	40	stimuli_distractor_trianglediamonds.svg	stimuli_target_rectangletriangles.svg	9	yes	57	0	1047	0	0			0	0			1				0	
6.6.1	mac	2023-06-02	08:32:19	08:39:11	409604	5c663cd56fdc87000162e255	3	1	main_slash	7	main_slash	41	stimuli_distractor_trianglediamonds.svg	stimuli_target_diamondsquares.svg	28	yes	53	1	1075	0	0			0	0			1				0	
6.6.1	mac	2023-06-02	08:32:19	08:39:11	409604	5c663cd56fdc87000162e255	3	1	main_slash	7	advance_on_keypress_SLASH	42	stimuli_distractor_trianglediamonds.svg	stimuli_target_diamondsquares.svg	28	yes	57	0	993	0	0			0	0			1				0	
6.6.1	mac	2023-06-02	08:32:19	08:39:13	412107	5c663cd56fdc87000162e255	3	1	main_slash	7	main_slash	43	stimuli_distractor_trianglediamonds.svg	stimuli_distractor_diamondtriangles.svg	36	no	53	0	894	0	0			0	0			1				0	
6.6.1	mac	2023-06-02	08:32:19	08:39:13	412107	5c663cd56fdc87000162e255	3	1	main_slash	7	advance_on_keypress_SLASH	44	stimuli_distractor_trianglediamonds.svg	stimuli_distractor_diamondtriangles.svg	36	no	57	0	1102	0	0			0	0			1				0	
6.6.1	mac	2023-06-02	08:32:19	08:39:17	415844	5c663cd56fdc87000162e255	3	1	main_slash	7	main_slash	45	stimuli_target_diamondrectangles.svg	stimuli_distractor_diamondtriangles.svg	23	yes	0	0	2000	0	0			0	0			1				0	
6.6.1	mac	2023-06-02	08:32:19	08:39:17	415844	5c663cd56fdc87000162e255	3	1	main_slash	7	advance_on_keypress_SLASH	46	stimuli_target_diamondrectangles.svg	stimuli_distractor_diamondtriangles.svg	23	yes	57	0	944	0	0			0	0			1				0	
6.6.1	mac	2023-06-02	08:32:19	08:39:21	419427	5c663cd56fdc87000162e255	3	1	main_slash	7	main_slash	47	stimuli_distractor_diamondtriangles.svg	stimuli_target_trianglesquares.svg	30	yes	0	0	2000	0	0			0	0			1				0	
6.6.1	mac	2023-06-02	08:32:19	08:39:21	419427	5c663cd56fdc87000162e255	3	1	main_slash	7	advance_on_keypress_SLASH	48	stimuli_distractor_diamondtriangles.svg	stimuli_target_trianglesquares.svg	30	yes	57	0	1663	0	0			0	0			1				0	
6.6.1	mac	2023-06-02	08:32:19	08:39:24	422496	5c663cd56fdc87000162e255	3	1	main_slash	7	main_slash	49	stimuli_target_diamondsquares.svg	stimuli_distractor_diamondtriangles.svg	24	yes	53	1	767	0	0			0	0			1				0	
6.6.1	mac	2023-06-02	08:32:19	08:39:24	422496	5c663cd56fdc87000162e255	3	1	main_slash	7	advance_on_keypress_SLASH	50	stimuli_target_diamondsquares.svg	stimuli_distractor_diamondtriangles.svg	24	yes	57	0	1144	0	0			0	0			1				0	
6.6.1	mac	2023-06-02	08:32:19	08:39:27	425233	5c663cd56fdc87000162e255	3	1	main_slash	7	main_slash	51	stimuli_target_squarediamonds.svg	stimuli_distractor_diamondtriangles.svg	8	yes	53	1	954	0	0			0	0			1				0	
6.6.1	mac	2023-06-02	08:32:19	08:39:27	425233	5c663cd56fdc87000162e255	3	1	main_slash	7	advance_on_keypress_SLASH	52	stimuli_target_squarediamonds.svg	stimuli_distractor_diamondtriangles.svg	8	yes	57	0	1232	0	0			0	0			1				0	
6.6.1	mac	2023-06-02	08:32:19	08:39:29	428000	5c663cd56fdc87000162e255	3	1	main_slash	7	main_slash	53	stimuli_distractor_diamondtriangles.svg	stimuli_distractor_trianglediamonds.svg	38	no	53	0	904	0	0			0	0			1				0	
6.6.1	mac	2023-06-02	08:32:19	08:39:29	428000	5c663cd56fdc87000162e255	3	1	main_slash	7	advance_on_keypress_SLASH	54	stimuli_distractor_diamondtriangles.svg	stimuli_distractor_trianglediamonds.svg	38	no	57	0	1701	0	0			0	0			1				0	
6.6.1	mac	2023-06-02	08:32:19	08:39:34	432327	5c663cd56fdc87000162e255	3	1	main_slash	7	main_slash	55	stimuli_target_squaretriangles.svg	stimuli_distractor_diamondtriangles.svg	7	yes	0	0	2000	0	0			0	0			1				0	
6.6.1	mac	2023-06-02	08:32:19	08:39:34	432327	5c663cd56fdc87000162e255	3	1	main_slash	7	advance_on_keypress_SLASH	56	stimuli_target_squaretriangles.svg	stimuli_distractor_diamondtriangles.svg	7	yes	57	0	971	0	0			0	0			1				0	
6.6.1	mac	2023-06-02	08:32:19	08:39:36	434631	5c663cd56fdc87000162e255	3	1	main_slash	7	main_slash	57	stimuli_distractor_diamondtriangles.svg	stimuli_distractor_diamondtriangles.svg	39	no	53	0	684	0	0			0	0			1				0	
6.6.1	mac	2023-06-02	08:32:19	08:39:36	434631	5c663cd56fdc87000162e255	3	1	main_slash	7	advance_on_keypress_SLASH	58	stimuli_distractor_diamondtriangles.svg	stimuli_distractor_diamondtriangles.svg	39	no	57	0	934	0	0			0	0			1				0	
6.6.1	mac	2023-06-02	08:32:19	08:39:40	438194	5c663cd56fdc87000162e255	3	1	main_slash	7	main_slash	59	stimuli_distractor_trianglediamonds.svg	stimuli_target_diamondrectangles.svg	27	yes	0	0	2000	0	0			0	0			1				0	
6.6.1	mac	2023-06-02	08:32:19	08:39:40	438194	5c663cd56fdc87000162e255	3	1	main_slash	7	advance_on_keypress_SLASH	60	stimuli_distractor_trianglediamonds.svg	stimuli_target_diamondrectangles.svg	27	yes	57	0	614	0	0			0	0			1				0	
6.6.1	mac	2023-06-02	08:32:19	08:39:41	440153	5c663cd56fdc87000162e255	3	1	main_slash	7	main_slash	61	stimuli_target_trianglesquares.svg	stimuli_distractor_diamondtriangles.svg	22	yes	53	1	707	0	0			0	0			1				0	
6.6.1	mac	2023-06-02	08:32:19	08:39:41	440153	5c663cd56fdc87000162e255	3	1	main_slash	7	advance_on_keypress_SLASH	62	stimuli_target_trianglesquares.svg	stimuli_distractor_diamondtriangles.svg	22	yes	57	0	860	0	0			0	0			1				0	
6.6.1	mac	2023-06-02	08:32:19	08:39:45	443644	5c663cd56fdc87000162e255	3	1	main_slash	7	main_slash	63	stimuli_distractor_trianglediamonds.svg	stimuli_target_trianglesquares.svg	26	yes	0	0	2000	0	0			0	0			1				0	
6.6.1	mac	2023-06-02	08:32:19	08:39:45	443644	5c663cd56fdc87000162e255	3	1	main_slash	7	advance_on_keypress_SLASH	64	stimuli_distractor_trianglediamonds.svg	stimuli_target_trianglesquares.svg	26	yes	57	0	814	0	0			0	0			1				0	
6.6.1	mac	2023-06-02	08:32:19	08:39:47	445751	5c663cd56fdc87000162e255	3	1	main_slash	7	main_slash	65	stimuli_distractor_trianglediamonds.svg	stimuli_target_rectanglediamonds.svg	10	yes	53	1	655	0	0			0	0			1				0	
6.6.1	mac	2023-06-02	08:32:19	08:39:47	445751	5c663cd56fdc87000162e255	3	1	main_slash	7	advance_on_keypress_SLASH	66	stimuli_distractor_trianglediamonds.svg	stimuli_target_rectanglediamonds.svg	10	yes	57	0	915	0	0			0	0			1				0	
6.6.1	mac	2023-06-02	08:32:19	08:39:50	448200	5c663cd56fdc87000162e255	3	1	main_slash	7	main_slash	67	stimuli_distractor_diamondtriangles.svg	stimuli_distractor_trianglediamonds.svg	37	no	53	0	904	0	0			0	0			1				0	
6.6.1	mac	2023-06-02	08:32:19	08:39:50	448200	5c663cd56fdc87000162e255	3	1	main_slash	7	advance_on_keypress_SLASH	68	stimuli_distractor_diamondtriangles.svg	stimuli_distractor_trianglediamonds.svg	37	no	57	0	835	0	0			0	0			1				0	
6.6.1	mac	2023-06-02	08:32:19	08:39:53	451662	5c663cd56fdc87000162e255	3	1	main_slash	7	main_slash	69	stimuli_target_squarediamonds.svg	stimuli_distractor_trianglediamonds.svg	4	yes	0	0	2000	0	0			0	0			1				0	
6.6.1	mac	2023-06-02	08:32:19	08:39:53	451662	5c663cd56fdc87000162e255	3	1	main_slash	7	advance_on_keypress_SLASH	70	stimuli_target_squarediamonds.svg	stimuli_distractor_trianglediamonds.svg	4	yes	57	0	879	0	0			0	0			1				0	
6.6.1	mac	2023-06-02	08:32:19	08:39:57	455179	5c663cd56fdc87000162e255	3	1	main_slash	7	main_slash	71	stimuli_target_trianglerectangles.svg	stimuli_distractor_trianglediamonds.svg	17	yes	0	0	2000	0	0			0	0			1				0	
6.6.1	mac	2023-06-02	08:32:19	08:39:57	455179	5c663cd56fdc87000162e255	3	1	main_slash	7	advance_on_keypress_SLASH	72	stimuli_target_trianglerectangles.svg	stimuli_distractor_trianglediamonds.svg	17	yes	57	0	1037	0	0			0	0			1				0	
6.6.1	mac	2023-06-02	08:32:19	08:39:59	457740	5c663cd56fdc87000162e255	3	1	main_slash	7	main_slash	73	stimuli_distractor_diamondtriangles.svg	stimuli_target_trianglerectangles.svg	29	yes	53	1	894	0	0			0	0			1				0	
6.6.1	mac	2023-06-02	08:32:19	08:39:59	457740	5c663cd56fdc87000162e255	3	1	main_slash	7	advance_on_keypress_SLASH	74	stimuli_distractor_diamondtriangles.svg	stimuli_target_trianglerectangles.svg	29	yes	57	0	1157	0	0			0	0			1				0	
6.6.1	mac	2023-06-02	08:32:19	08:40:03	461529	5c663cd56fdc87000162e255	3	1	main_slash	7	main_slash	75	stimuli_distractor_trianglediamonds.svg	stimuli_distractor_trianglediamonds.svg	33	no	0	1	2000	0	0			0	0			1				0	
6.6.1	mac	2023-06-02	08:32:19	08:40:03	461529	5c663cd56fdc87000162e255	3	1	main_slash	7	advance_on_keypress_SLASH	76	stimuli_distractor_trianglediamonds.svg	stimuli_distractor_trianglediamonds.svg	33	no	57	0	1157	0	0			0	0			1				0	
6.6.1	mac	2023-06-02	08:32:19	08:40:05	464054	5c663cd56fdc87000162e255	3	1	main_slash	7	main_slash	77	stimuli_distractor_diamondtriangles.svg	stimuli_target_diamondrectangles.svg	31	yes	53	1	725	0	0			0	0			1				0	
6.6.1	mac	2023-06-02	08:32:19	08:40:05	464054	5c663cd56fdc87000162e255	3	1	main_slash	7	advance_on_keypress_SLASH	78	stimuli_distractor_diamondtriangles.svg	stimuli_target_diamondrectangles.svg	31	yes	57	0	1589	0	0			0	0			1				0	
6.6.1	mac	2023-06-02	08:32:19	08:40:09	467315	5c663cd56fdc87000162e255	3	1	main_slash	7	main_slash	79	stimuli_target_rectanglediamonds.svg	stimuli_distractor_diamondtriangles.svg	6	yes	53	1	1052	0	0			0	0			1				0	
6.6.1	mac	2023-06-02	08:32:19	08:40:09	467315	5c663cd56fdc87000162e255	3	1	main_slash	7	advance_on_keypress_SLASH	80	stimuli_target_rectanglediamonds.svg	stimuli_distractor_diamondtriangles.svg	6	yes	57	0	866	0	0			0	0			1				0	
6.6.1	mac	2023-06-02	08:32:19	08:40:12	470812	5c663cd56fdc87000162e255	3	1	main_slash	7	main_slash	81	stimuli_target_trianglesquares.svg	stimuli_distractor_trianglediamonds.svg	18	yes	0	0	2000	0	0			0	0			1				0	
6.6.1	mac	2023-06-02	08:32:19	08:40:12	470812	5c663cd56fdc87000162e255	3	1	main_slash	7	advance_on_keypress_SLASH	82	stimuli_target_trianglesquares.svg	stimuli_distractor_trianglediamonds.svg	18	yes	57	0	867	0	0			0	0			1				0	
6.6.1	mac	2023-06-02	08:32:19	08:40:14	473085	5c663cd56fdc87000162e255	3	1	main_slash	7	main_slash	83	stimuli_target_diamondrectangles.svg	stimuli_distractor_diamondtriangles.svg	23	yes	53	1	771	0	0			0	0			1				0	
6.6.1	mac	2023-06-02	08:32:19	08:40:14	473085	5c663cd56fdc87000162e255	3	1	main_slash	7	advance_on_keypress_SLASH	84	stimuli_target_diamondrectangles.svg	stimuli_distractor_diamondtriangles.svg	23	yes	57	0	1021	0	0			0	0			1				0	
6.6.1	mac	2023-06-02	08:32:19	08:40:18	476728	5c663cd56fdc87000162e255	3	1	main_slash	7	main_slash	85	stimuli_distractor_trianglediamonds.svg	stimuli_target_trianglesquares.svg	26	yes	0	0	2000	0	0			0	0			1				0	
6.6.1	mac	2023-06-02	08:32:19	08:40:18	476728	5c663cd56fdc87000162e255	3	1	main_slash	7	advance_on_keypress_SLASH	86	stimuli_distractor_trianglediamonds.svg	stimuli_target_trianglesquares.svg	26	yes	57	0	1018	0	0			0	0			1				0	
6.6.1	mac	2023-06-02	08:32:19	08:40:21	479641	5c663cd56fdc87000162e255	3	1	main_slash	7	main_slash	87	stimuli_distractor_trianglediamonds.svg	stimuli_distractor_diamondtriangles.svg	35	no	53	0	1261	0	0			0	0			1				0	
6.6.1	mac	2023-06-02	08:32:19	08:40:21	479641	5c663cd56fdc87000162e255	3	1	main_slash	7	advance_on_keypress_SLASH	88	stimuli_distractor_trianglediamonds.svg	stimuli_distractor_diamondtriangles.svg	35	no	57	0	1275	0	0			0	0			1				0	
6.6.1	mac	2023-06-02	08:32:19	08:40:24	482299	5c663cd56fdc87000162e255	3	1	main_slash	7	main_slash	89	stimuli_distractor_trianglediamonds.svg	stimuli_target_diamondrectangles.svg	27	yes	53	1	752	0	0			0	0			1				0	
6.6.1	mac	2023-06-02	08:32:19	08:40:24	482299	5c663cd56fdc87000162e255	3	1	main_slash	7	advance_on_keypress_SLASH	90	stimuli_distractor_trianglediamonds.svg	stimuli_target_diamondrectangles.svg	27	yes	57	0	1341	0	0			0	0			1				0	
6.6.1	mac	2023-06-02	08:32:19	08:40:26	485094	5c663cd56fdc87000162e255	3	1	main_slash	7	main_slash	91	stimuli_target_rectangletriangles.svg	stimuli_distractor_diamondtriangles.svg	5	yes	53	1	831	0	0			0	0			1				0	
6.6.1	mac	2023-06-02	08:32:19	08:40:26	485094	5c663cd56fdc87000162e255	3	1	main_slash	7	advance_on_keypress_SLASH	92	stimuli_target_rectangletriangles.svg	stimuli_distractor_diamondtriangles.svg	5	yes	57	0	1302	0	0			0	0			1				0	
6.6.1	mac	2023-06-02	08:32:19	08:40:29	487852	5c663cd56fdc87000162e255	3	1	main_slash	7	main_slash	93	stimuli_distractor_diamondtriangles.svg	stimuli_target_trianglesquares.svg	30	yes	53	1	822	0	0			0	0			1				0	
6.6.1	mac	2023-06-02	08:32:19	08:40:29	487852	5c663cd56fdc87000162e255	3	1	main_slash	7	advance_on_keypress_SLASH	94	stimuli_distractor_diamondtriangles.svg	stimuli_target_trianglesquares.svg	30	yes	57	0	1187	0	0			0	0			1				0	
6.6.1	mac	2023-06-02	08:32:19	08:40:32	490482	5c663cd56fdc87000162e255	3	1	main_slash	7	main_slash	95	stimuli_target_rectangletriangles.svg	stimuli_distractor_trianglediamonds.svg	1	yes	53	1	819	0	0			0	0			1				0	
6.6.1	mac	2023-06-02	08:32:19	08:40:32	490482	5c663cd56fdc87000162e255	3	1	main_slash	7	advance_on_keypress_SLASH	96	stimuli_target_rectangletriangles.svg	stimuli_distractor_trianglediamonds.svg	1	yes	57	0	892	0	0			0	0			1				0	
6.6.1	mac	2023-06-02	08:32:19	08:40:34	492784	5c663cd56fdc87000162e255	3	1	main_slash	7	main_slash	97	stimuli_distractor_diamondtriangles.svg	stimuli_target_rectangletriangles.svg	13	yes	53	1	788	0	0			0	0			1				0	
6.6.1	mac	2023-06-02	08:32:19	08:40:34	492784	5c663cd56fdc87000162e255	3	1	main_slash	7	advance_on_keypress_SLASH	98	stimuli_distractor_diamondtriangles.svg	stimuli_target_rectangletriangles.svg	13	yes	57	0	1012	0	0			0	0			1				0	
6.6.1	mac	2023-06-02	08:32:19	08:40:38	496427	5c663cd56fdc87000162e255	3	1	main_slash	7	main_slash	99	stimuli_distractor_trianglediamonds.svg	stimuli_target_trianglerectangles.svg	25	yes	0	0	2000	0	0			0	0			1				0	
6.6.1	mac	2023-06-02	08:32:19	08:40:38	496427	5c663cd56fdc87000162e255	3	1	main_slash	7	advance_on_keypress_SLASH	100	stimuli_distractor_trianglediamonds.svg	stimuli_target_trianglerectangles.svg	25	yes	57	0	661	0	0			0	0			1				0	
6.6.1	mac	2023-06-02	08:32:19	08:40:40	498407	5c663cd56fdc87000162e255	3	1	main_slash	7	main_slash	101	stimuli_target_diamondsquares.svg	stimuli_distractor_diamondtriangles.svg	24	yes	53	1	677	0	0			0	0			1				0	
6.6.1	mac	2023-06-02	08:32:19	08:40:40	498407	5c663cd56fdc87000162e255	3	1	main_slash	7	advance_on_keypress_SLASH	102	stimuli_target_diamondsquares.svg	stimuli_distractor_diamondtriangles.svg	24	yes	57	0	1234	0	0			0	0			1				0	
6.6.1	mac	2023-06-02	08:32:19	08:40:43	501591	5c663cd56fdc87000162e255	3	1	main_slash	7	main_slash	103	stimuli_distractor_diamondtriangles.svg	stimuli_target_trianglerectangles.svg	29	yes	53	1	1311	0	0			0	0			1				0	
6.6.1	mac	2023-06-02	08:32:19	08:40:43	501591	5c663cd56fdc87000162e255	3	1	main_slash	7	advance_on_keypress_SLASH	104	stimuli_distractor_diamondtriangles.svg	stimuli_target_trianglerectangles.svg	29	yes	57	0	925	0	0			0	0			1				0	
6.6.1	mac	2023-06-02	08:32:19	08:40:45	504037	5c663cd56fdc87000162e255	3	1	main_slash	7	main_slash	105	stimuli_distractor_diamondtriangles.svg	stimuli_distractor_diamondtriangles.svg	39	no	53	0	891	0	0			0	0			1				0	
6.6.1	mac	2023-06-02	08:32:19	08:40:45	504037	5c663cd56fdc87000162e255	3	1	main_slash	7	advance_on_keypress_SLASH	106	stimuli_distractor_diamondtriangles.svg	stimuli_distractor_diamondtriangles.svg	39	no	57	0	1127	0	0			0	0			1				0	
6.6.1	mac	2023-06-02	08:32:19	08:40:49	507778	5c663cd56fdc87000162e255	3	1	main_slash	7	main_slash	107	stimuli_distractor_trianglediamonds.svg	stimuli_distractor_trianglediamonds.svg	33	no	0	1	2000	0	0			0	0			1				0	
6.6.1	mac	2023-06-02	08:32:19	08:40:49	507778	5c663cd56fdc87000162e255	3	1	main_slash	7	advance_on_keypress_SLASH	108	stimuli_distractor_trianglediamonds.svg	stimuli_distractor_trianglediamonds.svg	33	no	57	0	387	0	0			0	0			1				0	
6.6.1	mac	2023-06-02	08:32:19	08:40:52	510795	5c663cd56fdc87000162e255	3	1	main_slash	7	main_slash	109	stimuli_target_trianglerectangles.svg	stimuli_distractor_diamondtriangles.svg	21	yes	0	0	2000	0	0			0	0			1				0	
6.6.1	mac	2023-06-02	08:32:19	08:40:52	510795	5c663cd56fdc87000162e255	3	1	main_slash	7	advance_on_keypress_SLASH	110	stimuli_target_trianglerectangles.svg	stimuli_distractor_diamondtriangles.svg	21	yes	57	0	474	0	0			0	0			1				0	
6.6.1	mac	2023-06-02	08:32:19	08:40:55	513895	5c663cd56fdc87000162e255	3	1	main_slash	7	main_slash	111	stimuli_distractor_trianglediamonds.svg	stimuli_target_squaretriangles.svg	11	yes	0	0	2000	0	0			0	0			1				0	
6.6.1	mac	2023-06-02	08:32:19	08:40:55	513895	5c663cd56fdc87000162e255	3	1	main_slash	7	advance_on_keypress_SLASH	112	stimuli_distractor_trianglediamonds.svg	stimuli_target_squaretriangles.svg	11	yes	57	0	412	0	0			0	0			1				0	
6.6.1	mac	2023-06-02	08:32:19	08:40:57	515661	5c663cd56fdc87000162e255	3	1	main_slash	7	main_slash	113	stimuli_distractor_diamondtriangles.svg	stimuli_distractor_diamondtriangles.svg	40	no	53	0	715	0	0			0	0			1				0	
6.6.1	mac	2023-06-02	08:32:19	08:40:57	515661	5c663cd56fdc87000162e255	3	1	main_slash	7	advance_on_keypress_SLASH	114	stimuli_distractor_diamondtriangles.svg	stimuli_distractor_diamondtriangles.svg	40	no	57	0	841	0	0			0	0			1				0	
6.6.1	mac	2023-06-02	08:32:19	08:40:59	518035	5c663cd56fdc87000162e255	3	1	main_slash	7	main_slash	115	stimuli_target_rectanglediamonds.svg	stimuli_distractor_trianglediamonds.svg	2	yes	53	1	906	0	0			0	0			1				0	
6.6.1	mac	2023-06-02	08:32:19	08:40:59	518035	5c663cd56fdc87000162e255	3	1	main_slash	7	advance_on_keypress_SLASH	116	stimuli_target_rectanglediamonds.svg	stimuli_distractor_trianglediamonds.svg	2	yes	57	0	686	0	0			0	0			1				0	
6.6.1	mac	2023-06-02	08:32:19	08:41:01	519887	5c663cd56fdc87000162e255	3	1	main_slash	7	main_slash	117	stimuli_distractor_trianglediamonds.svg	stimuli_target_rectangletriangles.svg	9	yes	53	1	541	0	0			0	0			1				0	
6.6.1	mac	2023-06-02	08:32:19	08:41:01	519887	5c663cd56fdc87000162e255	3	1	main_slash	7	advance_on_keypress_SLASH	118	stimuli_distractor_trianglediamonds.svg	stimuli_target_rectangletriangles.svg	9	yes	57	0	648	0	0			0	0			1				0	
6.6.1	mac	2023-06-02	08:32:19	08:41:04	523162	5c663cd56fdc87000162e255	3	1	main_slash	7	main_slash	119	stimuli_distractor_trianglediamonds.svg	stimuli_distractor_trianglediamonds.svg	34	no	0	1	2000	0	0			0	0			1				0	
6.6.1	mac	2023-06-02	08:32:19	08:41:04	523162	5c663cd56fdc87000162e255	3	1	main_slash	7	advance_on_keypress_SLASH	120	stimuli_distractor_trianglediamonds.svg	stimuli_distractor_trianglediamonds.svg	34	no	57	0	380	0	0			0	0			1				0	
6.6.1	mac	2023-06-02	08:32:19	08:41:06	525015	5c663cd56fdc87000162e255	3	1	main_slash	7	main_slash	121	stimuli_distractor_diamondtriangles.svg	stimuli_target_rectanglediamonds.svg	14	yes	53	1	836	0	0			0	0			1				0	
6.6.1	mac	2023-06-02	08:32:19	08:41:06	525015	5c663cd56fdc87000162e255	3	1	main_slash	7	advance_on_keypress_SLASH	122	stimuli_distractor_diamondtriangles.svg	stimuli_target_rectanglediamonds.svg	14	yes	57	0	833	0	0			0	0			1				0	
6.6.1	mac	2023-06-02	08:32:19	08:41:09	527224	5c663cd56fdc87000162e255	3	1	main_slash	7	main_slash	123	stimuli_distractor_diamondtriangles.svg	stimuli_distractor_trianglediamonds.svg	38	no	53	0	745	0	0			0	0			1				0	
6.6.1	mac	2023-06-02	08:32:19	08:41:09	527224	5c663cd56fdc87000162e255	3	1	main_slash	7	advance_on_keypress_SLASH	124	stimuli_distractor_diamondtriangles.svg	stimuli_distractor_trianglediamonds.svg	38	no	57	0	679	0	0			0	0			1				0	
6.6.1	mac	2023-06-02	08:32:19	08:41:11	529254	5c663cd56fdc87000162e255	3	1	main_slash	7	main_slash	125	stimuli_distractor_diamondtriangles.svg	stimuli_target_squaretriangles.svg	15	yes	53	1	708	0	0			0	0			1				0	
6.6.1	mac	2023-06-02	08:32:19	08:41:11	529254	5c663cd56fdc87000162e255	3	1	main_slash	7	advance_on_keypress_SLASH	126	stimuli_distractor_diamondtriangles.svg	stimuli_target_squaretriangles.svg	15	yes	57	0	636	0	0			0	0			1				0	
6.6.1	mac	2023-06-02	08:32:19	08:41:13	531189	5c663cd56fdc87000162e255	3	1	main_slash	7	main_slash	127	stimuli_target_squaretriangles.svg	stimuli_distractor_diamondtriangles.svg	7	yes	53	1	676	0	0			0	0			1				0	
6.6.1	mac	2023-06-02	08:32:19	08:41:13	531189	5c663cd56fdc87000162e255	3	1	main_slash	7	advance_on_keypress_SLASH	128	stimuli_target_squaretriangles.svg	stimuli_distractor_diamondtriangles.svg	7	yes	57	0	703	0	0			0	0			1				0	
6.6.1	mac	2023-06-02	08:32:19	08:41:14	532635	5c663cd56fdc87000162e255	3	1	main_slash	7	main_slash	129	stimuli_target_rectanglediamonds.svg	stimuli_distractor_diamondtriangles.svg	6	yes	53	1	122	0	0			0	0			1				0	
6.6.1	mac	2023-06-02	08:32:19	08:41:14	532635	5c663cd56fdc87000162e255	3	1	main_slash	7	advance_on_keypress_SLASH	130	stimuli_target_rectanglediamonds.svg	stimuli_distractor_diamondtriangles.svg	6	yes	57	0	846	0	0			0	0			1				0	
6.6.1	mac	2023-06-02	08:32:19	08:41:15	534154	5c663cd56fdc87000162e255	3	1	main_slash	7	main_slash	131	stimuli_target_squarediamonds.svg	stimuli_distractor_trianglediamonds.svg	4	yes	53	1	41	0	0			0	0			1				0	
6.6.1	mac	2023-06-02	08:32:19	08:41:15	534154	5c663cd56fdc87000162e255	3	1	main_slash	7	advance_on_keypress_SLASH	132	stimuli_target_squarediamonds.svg	stimuli_distractor_trianglediamonds.svg	4	yes	57	0	770	0	0			0	0			1				0	
6.6.1	mac	2023-06-02	08:32:19	08:41:19	537545	5c663cd56fdc87000162e255	3	1	main_slash	7	main_slash	133	stimuli_target_squarediamonds.svg	stimuli_distractor_diamondtriangles.svg	8	yes	0	0	2000	0	0			0	0			1				0	
6.6.1	mac	2023-06-02	08:32:19	08:41:19	537545	5c663cd56fdc87000162e255	3	1	main_slash	7	advance_on_keypress_SLASH	134	stimuli_target_squarediamonds.svg	stimuli_distractor_diamondtriangles.svg	8	yes	57	0	372	0	0			0	0			1				0	
6.6.1	mac	2023-06-02	08:32:19	08:41:22	540545	5c663cd56fdc87000162e255	3	1	main_slash	7	main_slash	135	stimuli_target_squaretriangles.svg	stimuli_distractor_trianglediamonds.svg	3	yes	0	0	2000	0	0			0	0			1				0	
6.6.1	mac	2023-06-02	08:32:19	08:41:22	540545	5c663cd56fdc87000162e255	3	1	main_slash	7	advance_on_keypress_SLASH	136	stimuli_target_squaretriangles.svg	stimuli_distractor_trianglediamonds.svg	3	yes	57	0	2405	0	0			0	0			1				0	
6.6.1	mac	2023-06-02	08:32:19	08:41:26	544424	5c663cd56fdc87000162e255	3	1	main_slash	7	main_slash	137	stimuli_target_diamondrectangles.svg	stimuli_distractor_trianglediamonds.svg	19	yes	53	1	845	0	0			0	0			1				0	
6.6.1	mac	2023-06-02	08:32:19	08:41:26	544424	5c663cd56fdc87000162e255	3	1	main_slash	7	advance_on_keypress_SLASH	138	stimuli_target_diamondrectangles.svg	stimuli_distractor_trianglediamonds.svg	19	yes	57	0	961	0	0			0	0			1				0	
6.6.1	mac	2023-06-02	08:32:19	08:41:28	546851	5c663cd56fdc87000162e255	3	1	main_slash	7	main_slash	139	stimuli_target_trianglesquares.svg	stimuli_distractor_diamondtriangles.svg	22	yes	53	1	822	0	0			0	0			1				0	
6.6.1	mac	2023-06-02	08:32:19	08:41:28	546851	5c663cd56fdc87000162e255	3	1	main_slash	7	advance_on_keypress_SLASH	140	stimuli_target_trianglesquares.svg	stimuli_distractor_diamondtriangles.svg	22	yes	57	0	874	0	0			0	0			1				0	
6.6.1	mac	2023-06-02	08:32:19	08:41:30	548999	5c663cd56fdc87000162e255	3	1	main_slash	7	main_slash	141	stimuli_distractor_trianglediamonds.svg	stimuli_distractor_diamondtriangles.svg	36	no	53	0	653	0	0			0	0			1				0	
6.6.1	mac	2023-06-02	08:32:19	08:41:30	548999	5c663cd56fdc87000162e255	3	1	main_slash	7	advance_on_keypress_SLASH	142	stimuli_distractor_trianglediamonds.svg	stimuli_distractor_diamondtriangles.svg	36	no	57	0	541	0	0			0	0			1				0	
6.6.1	mac	2023-06-02	08:32:19	08:41:33	551460	5c663cd56fdc87000162e255	3	1	main_slash	7	main_slash	143	stimuli_distractor_trianglediamonds.svg	stimuli_target_diamondsquares.svg	28	yes	53	1	1296	0	0			0	0			1				0	
6.6.1	mac	2023-06-02	08:32:19	08:41:33	551460	5c663cd56fdc87000162e255	3	1	main_slash	7	advance_on_keypress_SLASH	144	stimuli_distractor_trianglediamonds.svg	stimuli_target_diamondsquares.svg	28	yes	57	0	500	0	0			0	0			1				0	
6.6.1	mac	2023-06-02	08:32:19	08:41:35	553338	5c663cd56fdc87000162e255	3	1	main_slash	7	main_slash	145	stimuli_distractor_diamondtriangles.svg	stimuli_target_diamondsquares.svg	32	yes	53	1	742	0	0			0	0			1				0	
6.6.1	mac	2023-06-02	08:32:19	08:41:35	553338	5c663cd56fdc87000162e255	3	1	main_slash	7	advance_on_keypress_SLASH	146	stimuli_distractor_diamondtriangles.svg	stimuli_target_diamondsquares.svg	32	yes	57	0	726	0	0			0	0			1				0	
6.6.1	mac	2023-06-02	08:32:19	08:41:38	556695	5c663cd56fdc87000162e255	3	1	main_slash	7	main_slash	147	stimuli_distractor_trianglediamonds.svg	stimuli_target_squarediamonds.svg	12	yes	0	0	2000	0	0			0	0			1				0	
6.6.1	mac	2023-06-02	08:32:19	08:41:38	556695	5c663cd56fdc87000162e255	3	1	main_slash	7	advance_on_keypress_SLASH	148	stimuli_distractor_trianglediamonds.svg	stimuli_target_squarediamonds.svg	12	yes	57	0	498	0	0			0	0			1				0	
6.6.1	mac	2023-06-02	08:32:19	08:41:40	558538	5c663cd56fdc87000162e255	3	1	main_slash	7	main_slash	149	stimuli_distractor_diamondtriangles.svg	stimuli_target_diamondrectangles.svg	31	yes	53	1	708	0	0			0	0			1				0	
6.6.1	mac	2023-06-02	08:32:19	08:41:40	558538	5c663cd56fdc87000162e255	3	1	main_slash	7	advance_on_keypress_SLASH	150	stimuli_distractor_diamondtriangles.svg	stimuli_target_diamondrectangles.svg	31	yes	57	0	696	0	0			0	0			1				0	
6.6.1	mac	2023-06-02	08:32:19	08:41:43	561861	5c663cd56fdc87000162e255	3	1	main_slash	7	main_slash	151	stimuli_target_trianglerectangles.svg	stimuli_distractor_trianglediamonds.svg	17	yes	0	0	2000	0	0			0	0			1				0	
6.6.1	mac	2023-06-02	08:32:19	08:41:43	561861	5c663cd56fdc87000162e255	3	1	main_slash	7	advance_on_keypress_SLASH	152	stimuli_target_trianglerectangles.svg	stimuli_distractor_trianglediamonds.svg	17	yes	57	0	611	0	0			0	0			1				0	
6.6.1	mac	2023-06-02	08:32:19	08:41:46	564179	5c663cd56fdc87000162e255	3	1	main_slash	7	main_slash	153	stimuli_target_diamondsquares.svg	stimuli_distractor_trianglediamonds.svg	20	yes	53	1	1065	0	0			0	0			1				0	
6.6.1	mac	2023-06-02	08:32:19	08:41:46	564179	5c663cd56fdc87000162e255	3	1	main_slash	7	advance_on_keypress_SLASH	154	stimuli_target_diamondsquares.svg	stimuli_distractor_trianglediamonds.svg	20	yes	57	0	633	0	0			0	0			1				0	
6.6.1	mac	2023-06-02	08:32:19	08:41:48	566327	5c663cd56fdc87000162e255	3	1	main_slash	7	main_slash	155	stimuli_distractor_trianglediamonds.svg	stimuli_target_rectanglediamonds.svg	10	yes	53	1	881	0	0			0	0			1				0	
6.6.1	mac	2023-06-02	08:32:19	08:41:48	566327	5c663cd56fdc87000162e255	3	1	main_slash	7	advance_on_keypress_SLASH	156	stimuli_distractor_trianglediamonds.svg	stimuli_target_rectanglediamonds.svg	10	yes	57	0	849	0	0			0	0			1				0	
6.6.1	mac	2023-06-02	08:32:19	08:41:51	569812	5c663cd56fdc87000162e255	3	1	main_slash	7	main_slash	157	stimuli_distractor_diamondtriangles.svg	stimuli_distractor_trianglediamonds.svg	37	no	0	1	2000	0	0			0	0			1				0	
6.6.1	mac	2023-06-02	08:32:19	08:41:51	569812	5c663cd56fdc87000162e255	3	1	main_slash	7	advance_on_keypress_SLASH	158	stimuli_distractor_diamondtriangles.svg	stimuli_distractor_trianglediamonds.svg	37	no	57	0	424	0	0			0	0			1				0	
6.6.1	mac	2023-06-02	08:32:19	08:41:53	571612	5c663cd56fdc87000162e255	3	1	main_slash	7	main_slash	159	stimuli_distractor_diamondtriangles.svg	stimuli_target_squarediamonds.svg	16	yes	53	1	748	0	0			0	0			1				0	
6.6.1	mac	2023-06-02	08:32:19	08:41:53	571612	5c663cd56fdc87000162e255	3	1	main_slash	7	advance_on_keypress_SLASH	160	stimuli_distractor_diamondtriangles.svg	stimuli_target_squarediamonds.svg	16	yes	57	0	704	0	0			0	0			1				0	
6.6.1	mac	2023-06-02	08:32:19	08:42:24	603046	5c663cd56fdc87000162e255	3	1	practice_z	9	practice_z	1	stimuli_target_squarediamonds.svg	stimuli_distractor_trianglediamonds.svg	5	yes	0	0	2000	0	0			0	0			1				0	
6.6.1	mac	2023-06-02	08:32:19	08:42:24	603046	5c663cd56fdc87000162e255	3	1	practice_z	9	advance_on_keypress_ZEE	2	stimuli_target_squarediamonds.svg	stimuli_distractor_trianglediamonds.svg	5	yes	57	0	827	0	0			0	0			1				0	
6.6.1	mac	2023-06-02	08:32:19	08:42:28	606235	5c663cd56fdc87000162e255	3	1	practice_z	9	practice_z	3	stimuli_distractor_diamondtriangles.svg	stimuli_target_trianglerectangles.svg	9	yes	44	1	719	0	0			0	0			1				0	
6.6.1	mac	2023-06-02	08:32:19	08:42:28	606235	5c663cd56fdc87000162e255	3	1	practice_z	9	advance_on_keypress_ZEE	4	stimuli_distractor_diamondtriangles.svg	stimuli_target_trianglerectangles.svg	9	yes	57	0	563	0	0			0	0			1				0	
6.6.1	mac	2023-06-02	08:32:19	08:42:30	609161	5c663cd56fdc87000162e255	3	1	practice_z	9	practice_z	5	stimuli_distractor_diamondtriangles.svg	stimuli_target_rectangletriangles.svg	7	yes	44	1	731	0	0			0	0			1				0	
6.6.1	mac	2023-06-02	08:32:19	08:42:30	609161	5c663cd56fdc87000162e255	3	1	practice_z	9	advance_on_keypress_ZEE	6	stimuli_distractor_diamondtriangles.svg	stimuli_target_rectangletriangles.svg	7	yes	57	0	420	0	0			0	0			1				0	
6.6.1	mac	2023-06-02	08:32:19	08:42:33	611789	5c663cd56fdc87000162e255	3	1	practice_z	9	practice_z	7	stimuli_target_rectanglediamonds.svg	stimuli_distractor_diamondtriangles.svg	1	yes	44	1	575	0	0			0	0			1				0	
6.6.1	mac	2023-06-02	08:32:19	08:42:33	611789	5c663cd56fdc87000162e255	3	1	practice_z	9	advance_on_keypress_ZEE	8	stimuli_target_rectanglediamonds.svg	stimuli_distractor_diamondtriangles.svg	1	yes	57	0	512	0	0			0	0			1				0	
6.6.1	mac	2023-06-02	08:32:19	08:42:36	614637	5c663cd56fdc87000162e255	3	1	practice_z	9	practice_z	9	stimuli_distractor_trianglediamonds.svg	stimuli_distractor_trianglediamonds.svg	15	no	44	0	706	0	0			0	0			1				0	
6.6.1	mac	2023-06-02	08:32:19	08:42:36	614637	5c663cd56fdc87000162e255	3	1	practice_z	9	advance_on_keypress_ZEE	10	stimuli_distractor_trianglediamonds.svg	stimuli_distractor_trianglediamonds.svg	15	no	57	0	553	0	0			0	0			1				0	
6.6.1	mac	2023-06-02	08:32:19	08:42:39	617560	5c663cd56fdc87000162e255	3	1	practice_z	9	practice_z	11	stimuli_target_rectanglediamonds.svg	stimuli_distractor_trianglediamonds.svg	4	yes	44	1	746	0	0			0	0			1				0	
6.6.1	mac	2023-06-02	08:32:19	08:42:39	617560	5c663cd56fdc87000162e255	3	1	practice_z	9	advance_on_keypress_ZEE	12	stimuli_target_rectanglediamonds.svg	stimuli_distractor_trianglediamonds.svg	4	yes	57	0	1111	0	0			0	0			1				0	
6.6.1	mac	2023-06-02	08:32:19	08:42:44	622311	5c663cd56fdc87000162e255	3	1	practice_z	9	practice_z	13	stimuli_distractor_trianglediamonds.svg	stimuli_target_diamondrectangles.svg	12	yes	0	0	2000	0	0			0	0			1				0	
6.6.1	mac	2023-06-02	08:32:19	08:42:44	622311	5c663cd56fdc87000162e255	3	1	practice_z	9	advance_on_keypress_ZEE	14	stimuli_distractor_trianglediamonds.svg	stimuli_target_diamondrectangles.svg	12	yes	57	0	469	0	0			0	0			1				0	
6.6.1	mac	2023-06-02	08:32:19	08:42:46	625126	5c663cd56fdc87000162e255	3	1	practice_z	9	practice_z	15	stimuli_target_diamondsquares.svg	stimuli_distractor_diamondtriangles.svg	3	yes	44	1	712	0	0			0	0			1				0	
6.6.1	mac	2023-06-02	08:32:19	08:42:46	625126	5c663cd56fdc87000162e255	3	1	practice_z	9	advance_on_keypress_ZEE	16	stimuli_target_diamondsquares.svg	stimuli_distractor_diamondtriangles.svg	3	yes	57	0	604	0	0			0	0			1				0	
6.6.1	mac	2023-06-02	08:32:19	08:42:50	628756	5c663cd56fdc87000162e255	3	1	practice_z	9	practice_z	17	stimuli_distractor_trianglediamonds.svg	stimuli_distractor_diamondtriangles.svg	16	no	44	0	1393	0	0			0	0			1				0	
6.6.1	mac	2023-06-02	08:32:19	08:42:50	628756	5c663cd56fdc87000162e255	3	1	practice_z	9	advance_on_keypress_ZEE	18	stimuli_distractor_trianglediamonds.svg	stimuli_distractor_diamondtriangles.svg	16	no	57	0	939	0	0			0	0			1				0	
6.6.1	mac	2023-06-02	08:32:19	08:42:55	633311	5c663cd56fdc87000162e255	3	1	practice_z	9	practice_z	19	stimuli_distractor_trianglediamonds.svg	stimuli_target_squarediamonds.svg	11	yes	0	0	2000	0	0			0	0			1				0	
6.6.1	mac	2023-06-02	08:32:19	08:42:55	633311	5c663cd56fdc87000162e255	3	1	practice_z	9	advance_on_keypress_ZEE	20	stimuli_distractor_trianglediamonds.svg	stimuli_target_squarediamonds.svg	11	yes	57	0	733	0	0			0	0			1				0	
6.6.1	mac	2023-06-02	08:32:19	08:42:58	636292	5c663cd56fdc87000162e255	3	1	practice_z	9	practice_z	21	stimuli_distractor_diamondtriangles.svg	stimuli_target_diamondrectangles.svg	8	yes	44	1	614	0	0			0	0			1				0	
6.6.1	mac	2023-06-02	08:32:19	08:42:58	636292	5c663cd56fdc87000162e255	3	1	practice_z	9	advance_on_keypress_ZEE	22	stimuli_distractor_diamondtriangles.svg	stimuli_target_diamondrectangles.svg	8	yes	57	0	452	0	0			0	0			1				0	
6.6.1	mac	2023-06-02	08:32:19	08:43:01	639350	5c663cd56fdc87000162e255	3	1	practice_z	9	practice_z	23	stimuli_distractor_trianglediamonds.svg	stimuli_target_rectanglediamonds.svg	10	yes	44	1	969	0	0			0	0			1				0	
6.6.1	mac	2023-06-02	08:32:19	08:43:01	639350	5c663cd56fdc87000162e255	3	1	practice_z	9	advance_on_keypress_ZEE	24	stimuli_distractor_trianglediamonds.svg	stimuli_target_rectanglediamonds.svg	10	yes	57	0	583	0	0			0	0			1				0	
6.6.1	mac	2023-06-02	08:32:19	08:43:03	642153	5c663cd56fdc87000162e255	3	1	practice_z	9	practice_z	25	stimuli_distractor_diamondtriangles.svg	stimuli_distractor_diamondtriangles.svg	13	no	44	0	590	0	0			0	0			1				0	
6.6.1	mac	2023-06-02	08:32:19	08:43:03	642153	5c663cd56fdc87000162e255	3	1	practice_z	9	advance_on_keypress_ZEE	26	stimuli_distractor_diamondtriangles.svg	stimuli_distractor_diamondtriangles.svg	13	no	57	0	654	0	0			0	0			1				0	
6.6.1	mac	2023-06-02	08:32:19	08:43:06	645064	5c663cd56fdc87000162e255	3	1	practice_z	9	practice_z	27	stimuli_distractor_diamondtriangles.svg	stimuli_distractor_trianglediamonds.svg	14	no	44	0	635	0	0			0	0			1				0	
6.6.1	mac	2023-06-02	08:32:19	08:43:06	645064	5c663cd56fdc87000162e255	3	1	practice_z	9	advance_on_keypress_ZEE	28	stimuli_distractor_diamondtriangles.svg	stimuli_distractor_trianglediamonds.svg	14	no	57	0	526	0	0			0	0			1				0	
6.6.1	mac	2023-06-02	08:32:19	08:43:11	649228	5c663cd56fdc87000162e255	3	1	practice_z	9	practice_z	29	stimuli_target_squarediamonds.svg	stimuli_distractor_diamondtriangles.svg	2	yes	0	0	2000	0	0			0	0			1				0	
6.6.1	mac	2023-06-02	08:32:19	08:43:11	649228	5c663cd56fdc87000162e255	3	1	practice_z	9	advance_on_keypress_ZEE	30	stimuli_target_squarediamonds.svg	stimuli_distractor_diamondtriangles.svg	2	yes	57	0	552	0	0			0	0			1				0	
6.6.1	mac	2023-06-02	08:32:19	08:43:13	652080	5c663cd56fdc87000162e255	3	1	practice_z	9	practice_z	31	stimuli_target_diamondsquares.svg	stimuli_distractor_trianglediamonds.svg	6	yes	44	1	667	0	0			0	0			1				0	
6.6.1	mac	2023-06-02	08:32:19	08:43:13	652080	5c663cd56fdc87000162e255	3	1	practice_z	9	advance_on_keypress_ZEE	32	stimuli_target_diamondsquares.svg	stimuli_distractor_trianglediamonds.svg	6	yes	57	0	619	0	0			0	0			1				0	
6.6.1	mac	2023-06-02	08:32:19	08:43:17	655953	5c663cd56fdc87000162e255	3	1	main_z	11	main_z	1	stimuli_distractor_trianglediamonds.svg	stimuli_target_rectangletriangles.svg	9	yes	44	1	422	0	0			0	0			1				0	
6.6.1	mac	2023-06-02	08:32:19	08:43:17	655953	5c663cd56fdc87000162e255	3	1	main_z	11	advance_on_keypress_ZEE	2	stimuli_distractor_trianglediamonds.svg	stimuli_target_rectangletriangles.svg	9	yes	57	0	743	0	0			0	0			1				0	
6.6.1	mac	2023-06-02	08:32:19	08:43:21	659327	5c663cd56fdc87000162e255	3	1	main_z	11	main_z	3	stimuli_target_trianglerectangles.svg	stimuli_distractor_trianglediamonds.svg	17	yes	0	0	2000	0	0			0	0			1				0	
6.6.1	mac	2023-06-02	08:32:19	08:43:21	659327	5c663cd56fdc87000162e255	3	1	main_z	11	advance_on_keypress_ZEE	4	stimuli_target_trianglerectangles.svg	stimuli_distractor_trianglediamonds.svg	17	yes	57	0	298	0	0			0	0			1				0	
6.6.1	mac	2023-06-02	08:32:19	08:43:22	660759	5c663cd56fdc87000162e255	3	1	main_z	11	main_z	5	stimuli_distractor_diamondtriangles.svg	stimuli_target_trianglesquares.svg	30	yes	44	1	495	0	0			0	0			1				0	
6.6.1	mac	2023-06-02	08:32:19	08:43:22	660759	5c663cd56fdc87000162e255	3	1	main_z	11	advance_on_keypress_ZEE	6	stimuli_distractor_diamondtriangles.svg	stimuli_target_trianglesquares.svg	30	yes	57	0	600	0	0			0	0			1				0	
6.6.1	mac	2023-06-02	08:32:19	08:43:24	662689	5c663cd56fdc87000162e255	3	1	main_z	11	main_z	7	stimuli_distractor_trianglediamonds.svg	stimuli_target_diamondsquares.svg	28	yes	44	1	693	0	0			0	0			1				0	
6.6.1	mac	2023-06-02	08:32:19	08:43:24	662689	5c663cd56fdc87000162e255	3	1	main_z	11	advance_on_keypress_ZEE	8	stimuli_distractor_trianglediamonds.svg	stimuli_target_diamondsquares.svg	28	yes	57	0	1002	0	0			0	0			1				0	
6.6.1	mac	2023-06-02	08:32:19	08:43:26	665006	5c663cd56fdc87000162e255	3	1	main_z	11	main_z	9	stimuli_distractor_diamondtriangles.svg	stimuli_target_diamondsquares.svg	32	yes	44	1	693	0	0			0	0			1				0	
6.6.1	mac	2023-06-02	08:32:19	08:43:26	665006	5c663cd56fdc87000162e255	3	1	main_z	11	advance_on_keypress_ZEE	10	stimuli_distractor_diamondtriangles.svg	stimuli_target_diamondsquares.svg	32	yes	57	0	699	0	0			0	0			1				0	
6.6.1	mac	2023-06-02	08:32:19	08:43:28	666891	5c663cd56fdc87000162e255	3	1	main_z	11	main_z	11	stimuli_distractor_diamondtriangles.svg	stimuli_distractor_diamondtriangles.svg	39	no	44	0	562	0	0			0	0			1				0	
6.6.1	mac	2023-06-02	08:32:19	08:43:28	666891	5c663cd56fdc87000162e255	3	1	main_z	11	advance_on_keypress_ZEE	12	stimuli_distractor_diamondtriangles.svg	stimuli_distractor_diamondtriangles.svg	39	no	57	0	816	0	0			0	0			1				0	
6.6.1	mac	2023-06-02	08:32:19	08:43:30	669030	5c663cd56fdc87000162e255	3	1	main_z	11	main_z	13	stimuli_distractor_trianglediamonds.svg	stimuli_target_rectanglediamonds.svg	10	yes	44	1	684	0	0			0	0			1				0	
6.6.1	mac	2023-06-02	08:32:19	08:43:30	669030	5c663cd56fdc87000162e255	3	1	main_z	11	advance_on_keypress_ZEE	14	stimuli_distractor_trianglediamonds.svg	stimuli_target_rectanglediamonds.svg	10	yes	57	0	1122	0	0			0	0			1				0	
6.6.1	mac	2023-06-02	08:32:19	08:43:33	671410	5c663cd56fdc87000162e255	3	1	main_z	11	main_z	15	stimuli_target_rectanglediamonds.svg	stimuli_distractor_diamondtriangles.svg	6	yes	44	1	631	0	0			0	0			1				0	
6.6.1	mac	2023-06-02	08:32:19	08:43:33	671410	5c663cd56fdc87000162e255	3	1	main_z	11	advance_on_keypress_ZEE	16	stimuli_target_rectanglediamonds.svg	stimuli_distractor_diamondtriangles.svg	6	yes	57	0	707	0	0			0	0			1				0	
6.6.1	mac	2023-06-02	08:32:19	08:43:35	673238	5c663cd56fdc87000162e255	3	1	main_z	11	main_z	17	stimuli_distractor_diamondtriangles.svg	stimuli_target_squarediamonds.svg	16	yes	44	1	492	0	0			0	0			1				0	
6.6.1	mac	2023-06-02	08:32:19	08:43:35	673238	5c663cd56fdc87000162e255	3	1	main_z	11	advance_on_keypress_ZEE	18	stimuli_distractor_diamondtriangles.svg	stimuli_target_squarediamonds.svg	16	yes	57	0	532	0	0			0	0			1				0	
6.6.1	mac	2023-06-02	08:32:19	08:43:36	674990	5c663cd56fdc87000162e255	3	1	main_z	11	main_z	19	stimuli_target_squaretriangles.svg	stimuli_distractor_trianglediamonds.svg	3	yes	44	1	594	0	0			0	0			1				0	
6.6.1	mac	2023-06-02	08:32:19	08:43:36	674990	5c663cd56fdc87000162e255	3	1	main_z	11	advance_on_keypress_ZEE	20	stimuli_target_squaretriangles.svg	stimuli_distractor_trianglediamonds.svg	3	yes	57	0	518	0	0			0	0			1				0	
6.6.1	mac	2023-06-02	08:32:19	08:43:38	676795	5c663cd56fdc87000162e255	3	1	main_z	11	main_z	21	stimuli_distractor_trianglediamonds.svg	stimuli_target_squaretriangles.svg	11	yes	44	1	649	0	0			0	0			1				0	
6.6.1	mac	2023-06-02	08:32:19	08:43:38	676795	5c663cd56fdc87000162e255	3	1	main_z	11	advance_on_keypress_ZEE	22	stimuli_distractor_trianglediamonds.svg	stimuli_target_squaretriangles.svg	11	yes	57	0	718	0	0			0	0			1				0	
6.6.1	mac	2023-06-02	08:32:19	08:43:40	678787	5c663cd56fdc87000162e255	3	1	main_z	11	main_z	23	stimuli_target_diamondrectangles.svg	stimuli_distractor_diamondtriangles.svg	23	yes	44	1	641	0	0			0	0			1				0	
6.6.1	mac	2023-06-02	08:32:19	08:43:40	678787	5c663cd56fdc87000162e255	3	1	main_z	11	advance_on_keypress_ZEE	24	stimuli_target_diamondrectangles.svg	stimuli_distractor_diamondtriangles.svg	23	yes	57	0	693	0	0			0	0			1				0	
6.6.1	mac	2023-06-02	08:32:19	08:43:42	680717	5c663cd56fdc87000162e255	3	1	main_z	11	main_z	25	stimuli_distractor_diamondtriangles.svg	stimuli_target_rectanglediamonds.svg	14	yes	44	1	621	0	0			0	0			1				0	
6.6.1	mac	2023-06-02	08:32:19	08:43:42	680717	5c663cd56fdc87000162e255	3	1	main_z	11	advance_on_keypress_ZEE	26	stimuli_distractor_diamondtriangles.svg	stimuli_target_rectanglediamonds.svg	14	yes	57	0	587	0	0			0	0			1				0	
6.6.1	mac	2023-06-02	08:32:19	08:43:45	683927	5c663cd56fdc87000162e255	3	1	main_z	11	main_z	27	stimuli_target_trianglesquares.svg	stimuli_distractor_trianglediamonds.svg	18	yes	0	0	2000	0	0			0	0			1				0	
6.6.1	mac	2023-06-02	08:32:19	08:43:45	683927	5c663cd56fdc87000162e255	3	1	main_z	11	advance_on_keypress_ZEE	28	stimuli_target_trianglesquares.svg	stimuli_distractor_trianglediamonds.svg	18	yes	57	0	589	0	0			0	0			1				0	
6.6.1	mac	2023-06-02	08:32:19	08:43:48	687144	5c663cd56fdc87000162e255	3	1	main_z	11	main_z	29	stimuli_distractor_trianglediamonds.svg	stimuli_distractor_trianglediamonds.svg	33	no	0	1	2000	0	0			0	0			1				0	
6.6.1	mac	2023-06-02	08:32:19	08:43:48	687144	5c663cd56fdc87000162e255	3	1	main_z	11	advance_on_keypress_ZEE	30	stimuli_distractor_trianglediamonds.svg	stimuli_distractor_trianglediamonds.svg	33	no	57	0	349	0	0			0	0			1				0	
6.6.1	mac	2023-06-02	08:32:19	08:43:50	688913	5c663cd56fdc87000162e255	3	1	main_z	11	main_z	31	stimuli_distractor_diamondtriangles.svg	stimuli_distractor_trianglediamonds.svg	37	no	44	0	784	0	0			0	0			1				0	
6.6.1	mac	2023-06-02	08:32:19	08:43:50	688913	5c663cd56fdc87000162e255	3	1	main_z	11	advance_on_keypress_ZEE	32	stimuli_distractor_diamondtriangles.svg	stimuli_distractor_trianglediamonds.svg	37	no	57	0	640	0	0			0	0			1				0	
6.6.1	mac	2023-06-02	08:32:19	08:43:52	690875	5c663cd56fdc87000162e255	3	1	main_z	11	main_z	33	stimuli_distractor_diamondtriangles.svg	stimuli_distractor_diamondtriangles.svg	40	no	44	0	696	0	0			0	0			1				0	
6.6.1	mac	2023-06-02	08:32:19	08:43:52	690875	5c663cd56fdc87000162e255	3	1	main_z	11	advance_on_keypress_ZEE	34	stimuli_distractor_diamondtriangles.svg	stimuli_distractor_diamondtriangles.svg	40	no	57	0	688	0	0			0	0			1				0	
6.6.1	mac	2023-06-02	08:32:19	08:43:54	692764	5c663cd56fdc87000162e255	3	1	main_z	11	main_z	35	stimuli_distractor_diamondtriangles.svg	stimuli_distractor_trianglediamonds.svg	38	no	44	0	568	0	0			0	0			1				0	
6.6.1	mac	2023-06-02	08:32:19	08:43:54	692764	5c663cd56fdc87000162e255	3	1	main_z	11	advance_on_keypress_ZEE	36	stimuli_distractor_diamondtriangles.svg	stimuli_distractor_trianglediamonds.svg	38	no	57	0	567	0	0			0	0			1				0	
6.6.1	mac	2023-06-02	08:32:19	08:43:56	694476	5c663cd56fdc87000162e255	3	1	main_z	11	main_z	37	stimuli_distractor_trianglediamonds.svg	stimuli_target_diamondrectangles.svg	27	yes	44	1	513	0	0			0	0			1				0	
6.6.1	mac	2023-06-02	08:32:19	08:43:56	694476	5c663cd56fdc87000162e255	3	1	main_z	11	advance_on_keypress_ZEE	38	stimuli_distractor_trianglediamonds.svg	stimuli_target_diamondrectangles.svg	27	yes	57	0	455	0	0			0	0			1				0	
6.6.1	mac	2023-06-02	08:32:19	08:43:57	695972	5c663cd56fdc87000162e255	3	1	main_z	11	main_z	39	stimuli_target_diamondsquares.svg	stimuli_distractor_diamondtriangles.svg	24	yes	44	1	409	0	0			0	0			1				0	
6.6.1	mac	2023-06-02	08:32:19	08:43:57	695972	5c663cd56fdc87000162e255	3	1	main_z	11	advance_on_keypress_ZEE	40	stimuli_target_diamondsquares.svg	stimuli_distractor_diamondtriangles.svg	24	yes	57	0	554	0	0			0	0			1				0	
6.6.1	mac	2023-06-02	08:32:19	08:43:59	697730	5c663cd56fdc87000162e255	3	1	main_z	11	main_z	41	stimuli_distractor_diamondtriangles.svg	stimuli_target_rectangletriangles.svg	13	yes	44	1	584	0	0			0	0			1				0	
6.6.1	mac	2023-06-02	08:32:19	08:43:59	697730	5c663cd56fdc87000162e255	3	1	main_z	11	advance_on_keypress_ZEE	42	stimuli_distractor_diamondtriangles.svg	stimuli_target_rectangletriangles.svg	13	yes	57	0	586	0	0			0	0			1				0	
6.6.1	mac	2023-06-02	08:32:19	08:44:00	699062	5c663cd56fdc87000162e255	3	1	main_z	11	main_z	43	stimuli_distractor_diamondtriangles.svg	stimuli_target_diamondrectangles.svg	31	yes	44	1	116	0	0			0	0			1				0	
6.6.1	mac	2023-06-02	08:32:19	08:44:00	699062	5c663cd56fdc87000162e255	3	1	main_z	11	advance_on_keypress_ZEE	44	stimuli_distractor_diamondtriangles.svg	stimuli_target_diamondrectangles.svg	31	yes	57	0	644	0	0			0	0			1				0	
6.6.1	mac	2023-06-02	08:32:19	08:44:02	700344	5c663cd56fdc87000162e255	3	1	main_z	11	main_z	45	stimuli_distractor_diamondtriangles.svg	stimuli_target_trianglerectangles.svg	29	yes	44	1	14	0	0			0	0			1				0	
6.6.1	mac	2023-06-02	08:32:19	08:44:02	700344	5c663cd56fdc87000162e255	3	1	main_z	11	advance_on_keypress_ZEE	46	stimuli_distractor_diamondtriangles.svg	stimuli_target_trianglerectangles.svg	29	yes	57	0	1407	0	0			0	0			1				0	
6.6.1	mac	2023-06-02	08:32:19	08:44:04	702716	5c663cd56fdc87000162e255	3	1	main_z	11	main_z	47	stimuli_target_squaretriangles.svg	stimuli_distractor_diamondtriangles.svg	7	yes	44	1	336	0	0			0	0			1				0	
6.6.1	mac	2023-06-02	08:32:19	08:44:04	702716	5c663cd56fdc87000162e255	3	1	main_z	11	advance_on_keypress_ZEE	48	stimuli_target_squaretriangles.svg	stimuli_distractor_diamondtriangles.svg	7	yes	57	0	527	0	0			0	0			1				0	
6.6.1	mac	2023-06-02	08:32:19	08:44:05	704179	5c663cd56fdc87000162e255	3	1	main_z	11	main_z	49	stimuli_target_rectangletriangles.svg	stimuli_distractor_diamondtriangles.svg	5	yes	44	1	316	0	0			0	0			1				0	
6.6.1	mac	2023-06-02	08:32:19	08:44:05	704179	5c663cd56fdc87000162e255	3	1	main_z	11	advance_on_keypress_ZEE	50	stimuli_target_rectangletriangles.svg	stimuli_distractor_diamondtriangles.svg	5	yes	57	0	473	0	0			0	0			1				0	
6.6.1	mac	2023-06-02	08:32:19	08:44:07	705547	5c663cd56fdc87000162e255	3	1	main_z	11	main_z	51	stimuli_target_squarediamonds.svg	stimuli_distractor_trianglediamonds.svg	4	yes	44	1	268	0	0			0	0			1				0	
6.6.1	mac	2023-06-02	08:32:19	08:44:07	705547	5c663cd56fdc87000162e255	3	1	main_z	11	advance_on_keypress_ZEE	52	stimuli_target_squarediamonds.svg	stimuli_distractor_trianglediamonds.svg	4	yes	57	0	687	0	0			0	0			1				0	
6.6.1	mac	2023-06-02	08:32:19	08:44:08	707167	5c663cd56fdc87000162e255	3	1	main_z	11	main_z	53	stimuli_target_trianglerectangles.svg	stimuli_distractor_diamondtriangles.svg	21	yes	44	1	304	0	0			0	0			1				0	
6.6.1	mac	2023-06-02	08:32:19	08:44:08	707167	5c663cd56fdc87000162e255	3	1	main_z	11	advance_on_keypress_ZEE	54	stimuli_target_trianglerectangles.svg	stimuli_distractor_diamondtriangles.svg	21	yes	57	0	574	0	0			0	0			1				0	
6.6.1	mac	2023-06-02	08:32:19	08:44:10	708478	5c663cd56fdc87000162e255	3	1	main_z	11	main_z	55	stimuli_distractor_trianglediamonds.svg	stimuli_distractor_trianglediamonds.svg	34	no	44	0	116	0	0			0	0			1				0	
6.6.1	mac	2023-06-02	08:32:19	08:44:10	708478	5c663cd56fdc87000162e255	3	1	main_z	11	advance_on_keypress_ZEE	56	stimuli_distractor_trianglediamonds.svg	stimuli_distractor_trianglediamonds.svg	34	no	57	0	747	0	0			0	0			1				0	
6.6.1	mac	2023-06-02	08:32:19	08:44:12	710436	5c663cd56fdc87000162e255	3	1	main_z	11	main_z	57	stimuli_target_squarediamonds.svg	stimuli_distractor_diamondtriangles.svg	8	yes	44	1	574	0	0			0	0			1				0	
6.6.1	mac	2023-06-02	08:32:19	08:44:12	710436	5c663cd56fdc87000162e255	3	1	main_z	11	advance_on_keypress_ZEE	58	stimuli_target_squarediamonds.svg	stimuli_distractor_diamondtriangles.svg	8	yes	57	0	929	0	0			0	0			1				0	
6.6.1	mac	2023-06-02	08:32:19	08:44:14	712492	5c663cd56fdc87000162e255	3	1	main_z	11	main_z	59	stimuli_distractor_trianglediamonds.svg	stimuli_target_squarediamonds.svg	12	yes	44	1	496	0	0			0	0			1				0	
6.6.1	mac	2023-06-02	08:32:19	08:44:14	712492	5c663cd56fdc87000162e255	3	1	main_z	11	advance_on_keypress_ZEE	60	stimuli_distractor_trianglediamonds.svg	stimuli_target_squarediamonds.svg	12	yes	57	0	602	0	0			0	0			1				0	
6.6.1	mac	2023-06-02	08:32:19	08:44:16	714216	5c663cd56fdc87000162e255	3	1	main_z	11	main_z	61	stimuli_target_trianglesquares.svg	stimuli_distractor_diamondtriangles.svg	22	yes	44	1	486	0	0			0	0			1				0	
6.6.1	mac	2023-06-02	08:32:19	08:44:16	714216	5c663cd56fdc87000162e255	3	1	main_z	11	advance_on_keypress_ZEE	62	stimuli_target_trianglesquares.svg	stimuli_distractor_diamondtriangles.svg	22	yes	57	0	649	0	0			0	0			1				0	
6.6.1	mac	2023-06-02	08:32:19	08:44:17	715506	5c663cd56fdc87000162e255	3	1	main_z	11	main_z	63	stimuli_distractor_diamondtriangles.svg	stimuli_target_squaretriangles.svg	15	yes	44	1	11	0	0			0	0			1				0	
6.6.1	mac	2023-06-02	08:32:19	08:44:17	715506	5c663cd56fdc87000162e255	3	1	main_z	11	advance_on_keypress_ZEE	64	stimuli_distractor_diamondtriangles.svg	stimuli_target_squaretriangles.svg	15	yes	57	0	691	0	0			0	0			1				0	
6.6.1	mac	2023-06-02	08:32:19	08:44:20	718829	5c663cd56fdc87000162e255	3	1	main_z	11	main_z	65	stimuli_target_diamondrectangles.svg	stimuli_distractor_trianglediamonds.svg	19	yes	0	0	2000	0	0			0	0			1				0	
6.6.1	mac	2023-06-02	08:32:19	08:44:20	718829	5c663cd56fdc87000162e255	3	1	main_z	11	advance_on_keypress_ZEE	66	stimuli_target_diamondrectangles.svg	stimuli_distractor_trianglediamonds.svg	19	yes	57	0	875	0	0			0	0			1				0	
6.6.1	mac	2023-06-02	08:32:19	08:44:22	720798	5c663cd56fdc87000162e255	3	1	main_z	11	main_z	67	stimuli_target_rectanglediamonds.svg	stimuli_distractor_trianglediamonds.svg	2	yes	44	1	469	0	0			0	0			1				0	
6.6.1	mac	2023-06-02	08:32:19	08:44:22	720798	5c663cd56fdc87000162e255	3	1	main_z	11	advance_on_keypress_ZEE	68	stimuli_target_rectanglediamonds.svg	stimuli_distractor_trianglediamonds.svg	2	yes	57	0	626	0	0			0	0			1				0	
6.6.1	mac	2023-06-02	08:32:19	08:44:24	722232	5c663cd56fdc87000162e255	3	1	main_z	11	main_z	69	stimuli_distractor_trianglediamonds.svg	stimuli_target_trianglesquares.svg	26	yes	44	1	186	0	0			0	0			1				0	
6.6.1	mac	2023-06-02	08:32:19	08:44:24	722232	5c663cd56fdc87000162e255	3	1	main_z	11	advance_on_keypress_ZEE	70	stimuli_distractor_trianglediamonds.svg	stimuli_target_trianglesquares.svg	26	yes	57	0	547	0	0			0	0			1				0	
6.6.1	mac	2023-06-02	08:32:19	08:44:25	723928	5c663cd56fdc87000162e255	3	1	main_z	11	main_z	71	stimuli_target_diamondsquares.svg	stimuli_distractor_trianglediamonds.svg	20	yes	44	1	517	0	0			0	0			1				0	
6.6.1	mac	2023-06-02	08:32:19	08:44:25	723928	5c663cd56fdc87000162e255	3	1	main_z	11	advance_on_keypress_ZEE	72	stimuli_target_diamondsquares.svg	stimuli_distractor_trianglediamonds.svg	20	yes	57	0	485	0	0			0	0			1				0	
6.6.1	mac	2023-06-02	08:32:19	08:44:27	726169	5c663cd56fdc87000162e255	3	1	main_z	11	main_z	73	stimuli_distractor_trianglediamonds.svg	stimuli_distractor_diamondtriangles.svg	35	no	44	0	1123	0	0			0	0			1				0	
6.6.1	mac	2023-06-02	08:32:19	08:44:27	726169	5c663cd56fdc87000162e255	3	1	main_z	11	advance_on_keypress_ZEE	74	stimuli_distractor_trianglediamonds.svg	stimuli_distractor_diamondtriangles.svg	35	no	57	0	529	0	0			0	0			1				0	
6.6.1	mac	2023-06-02	08:32:19	08:44:29	727674	5c663cd56fdc87000162e255	3	1	main_z	11	main_z	75	stimuli_target_rectangletriangles.svg	stimuli_distractor_trianglediamonds.svg	1	yes	44	1	345	0	0			0	0			1				0	
6.6.1	mac	2023-06-02	08:32:19	08:44:29	727674	5c663cd56fdc87000162e255	3	1	main_z	11	advance_on_keypress_ZEE	76	stimuli_target_rectangletriangles.svg	stimuli_distractor_trianglediamonds.svg	1	yes	57	0	676	0	0			0	0			1				0	
6.6.1	mac	2023-06-02	08:32:19	08:44:31	729228	5c663cd56fdc87000162e255	3	1	main_z	11	main_z	77	stimuli_distractor_trianglediamonds.svg	stimuli_target_trianglerectangles.svg	25	yes	44	1	249	0	0			0	0			1				0	
6.6.1	mac	2023-06-02	08:32:19	08:44:31	729228	5c663cd56fdc87000162e255	3	1	main_z	11	advance_on_keypress_ZEE	78	stimuli_distractor_trianglediamonds.svg	stimuli_target_trianglerectangles.svg	25	yes	57	0	544	0	0			0	0			1				0	
6.6.1	mac	2023-06-02	08:32:19	08:44:32	730899	5c663cd56fdc87000162e255	3	1	main_z	11	main_z	79	stimuli_distractor_trianglediamonds.svg	stimuli_distractor_diamondtriangles.svg	36	no	44	0	503	0	0			0	0			1				0	
6.6.1	mac	2023-06-02	08:32:19	08:44:32	730899	5c663cd56fdc87000162e255	3	1	main_z	11	advance_on_keypress_ZEE	80	stimuli_distractor_trianglediamonds.svg	stimuli_distractor_diamondtriangles.svg	36	no	57	0	508	0	0			0	0			1				0	
6.6.1	mac	2023-06-02	08:32:19	08:44:33	732129	5c663cd56fdc87000162e255	3	1	main_z	11	main_z	81	stimuli_distractor_diamondtriangles.svg	stimuli_target_trianglesquares.svg	30	yes	44	1	83	0	0			0	0			1				0	
6.6.1	mac	2023-06-02	08:32:19	08:44:33	732129	5c663cd56fdc87000162e255	3	1	main_z	11	advance_on_keypress_ZEE	82	stimuli_distractor_diamondtriangles.svg	stimuli_target_trianglesquares.svg	30	yes	57	0	595	0	0			0	0			1				0	
6.6.1	mac	2023-06-02	08:32:19	08:44:35	733514	5c663cd56fdc87000162e255	3	1	main_z	11	main_z	83	stimuli_distractor_diamondtriangles.svg	stimuli_target_rectanglediamonds.svg	14	yes	44	1	151	0	0			0	0			1				0	
6.6.1	mac	2023-06-02	08:32:19	08:44:35	733514	5c663cd56fdc87000162e255	3	1	main_z	11	advance_on_keypress_ZEE	84	stimuli_distractor_diamondtriangles.svg	stimuli_target_rectanglediamonds.svg	14	yes	57	0	554	0	0			0	0			1				0	
6.6.1	mac	2023-06-02	08:32:19	08:44:36	734907	5c663cd56fdc87000162e255	3	1	main_z	11	main_z	85	stimuli_distractor_trianglediamonds.svg	stimuli_distractor_trianglediamonds.svg	34	no	44	0	212	0	0			0	0			1				0	
6.6.1	mac	2023-06-02	08:32:19	08:44:36	734907	5c663cd56fdc87000162e255	3	1	main_z	11	advance_on_keypress_ZEE	86	stimuli_distractor_trianglediamonds.svg	stimuli_distractor_trianglediamonds.svg	34	no	57	0	585	0	0			0	0			1				0	
6.6.1	mac	2023-06-02	08:32:19	08:44:39	738128	5c663cd56fdc87000162e255	3	1	main_z	11	main_z	87	stimuli_target_squarediamonds.svg	stimuli_distractor_diamondtriangles.svg	8	yes	0	0	2000	0	0			0	0			1				0	
6.6.1	mac	2023-06-02	08:32:19	08:44:39	738128	5c663cd56fdc87000162e255	3	1	main_z	11	advance_on_keypress_ZEE	88	stimuli_target_squarediamonds.svg	stimuli_distractor_diamondtriangles.svg	8	yes	57	0	285	0	0			0	0			1				0	
6.6.1	mac	2023-06-02	08:32:19	08:44:40	739086	5c663cd56fdc87000162e255	3	1	main_z	11	main_z	89	stimuli_distractor_diamondtriangles.svg	stimuli_target_diamondrectangles.svg	31	yes	44	1	40	0	0			0	0			1				0	
6.6.1	mac	2023-06-02	08:32:19	08:44:40	739086	5c663cd56fdc87000162e255	3	1	main_z	11	advance_on_keypress_ZEE	90	stimuli_distractor_diamondtriangles.svg	stimuli_target_diamondrectangles.svg	31	yes	57	0	725	0	0			0	0			1				0	
6.6.1	mac	2023-06-02	08:32:19	08:44:44	742446	5c663cd56fdc87000162e255	3	1	main_z	11	main_z	91	stimuli_target_trianglesquares.svg	stimuli_distractor_trianglediamonds.svg	18	yes	0	0	2000	0	0			0	0			1				0	
6.6.1	mac	2023-06-02	08:32:19	08:44:44	742446	5c663cd56fdc87000162e255	3	1	main_z	11	advance_on_keypress_ZEE	92	stimuli_target_trianglesquares.svg	stimuli_distractor_trianglediamonds.svg	18	yes	57	0	303	0	0			0	0			1				0	
6.6.1	mac	2023-06-02	08:32:19	08:44:47	745379	5c663cd56fdc87000162e255	3	1	main_z	11	main_z	93	stimuli_target_squaretriangles.svg	stimuli_distractor_diamondtriangles.svg	7	yes	0	0	2000	0	0			0	0			1				0	
6.6.1	mac	2023-06-02	08:32:19	08:44:47	745379	5c663cd56fdc87000162e255	3	1	main_z	11	advance_on_keypress_ZEE	94	stimuli_target_squaretriangles.svg	stimuli_distractor_diamondtriangles.svg	7	yes	57	0	578	0	0			0	0			1				0	
6.6.1	mac	2023-06-02	08:32:19	08:44:49	747254	5c663cd56fdc87000162e255	3	1	main_z	11	main_z	95	stimuli_distractor_diamondtriangles.svg	stimuli_target_squaretriangles.svg	15	yes	44	1	658	0	0			0	0			1				0	
6.6.1	mac	2023-06-02	08:32:19	08:44:49	747254	5c663cd56fdc87000162e255	3	1	main_z	11	advance_on_keypress_ZEE	96	stimuli_distractor_diamondtriangles.svg	stimuli_target_squaretriangles.svg	15	yes	57	0	572	0	0			0	0			1				0	
6.6.1	mac	2023-06-02	08:32:19	08:44:50	748897	5c663cd56fdc87000162e255	3	1	main_z	11	main_z	97	stimuli_target_diamondsquares.svg	stimuli_distractor_trianglediamonds.svg	20	yes	44	1	451	0	0			0	0			1				0	
6.6.1	mac	2023-06-02	08:32:19	08:44:50	748897	5c663cd56fdc87000162e255	3	1	main_z	11	advance_on_keypress_ZEE	98	stimuli_target_diamondsquares.svg	stimuli_distractor_trianglediamonds.svg	20	yes	57	0	481	0	0			0	0			1				0	
6.6.1	mac	2023-06-02	08:32:19	08:44:52	750475	5c663cd56fdc87000162e255	3	1	main_z	11	main_z	99	stimuli_target_trianglesquares.svg	stimuli_distractor_diamondtriangles.svg	22	yes	44	1	462	0	0			0	0			1				0	
6.6.1	mac	2023-06-02	08:32:19	08:44:52	750475	5c663cd56fdc87000162e255	3	1	main_z	11	advance_on_keypress_ZEE	100	stimuli_target_trianglesquares.svg	stimuli_distractor_diamondtriangles.svg	22	yes	57	0	463	0	0			0	0			1				0	
6.6.1	mac	2023-06-02	08:32:19	08:44:53	751851	5c663cd56fdc87000162e255	3	1	main_z	11	main_z	101	stimuli_target_rectanglediamonds.svg	stimuli_distractor_diamondtriangles.svg	6	yes	44	1	272	0	0			0	0			1				0	
6.6.1	mac	2023-06-02	08:32:19	08:44:53	751851	5c663cd56fdc87000162e255	3	1	main_z	11	advance_on_keypress_ZEE	102	stimuli_target_rectanglediamonds.svg	stimuli_distractor_diamondtriangles.svg	6	yes	57	0	532	0	0			0	0			1				0	
6.6.1	mac	2023-06-02	08:32:19	08:44:55	753263	5c663cd56fdc87000162e255	3	1	main_z	11	main_z	103	stimuli_distractor_diamondtriangles.svg	stimuli_distractor_trianglediamonds.svg	38	no	44	0	250	0	0			0	0			1				0	
6.6.1	mac	2023-06-02	08:32:19	08:44:55	753263	5c663cd56fdc87000162e255	3	1	main_z	11	advance_on_keypress_ZEE	104	stimuli_distractor_diamondtriangles.svg	stimuli_distractor_trianglediamonds.svg	38	no	57	0	537	0	0			0	0			1				0	
6.6.1	mac	2023-06-02	08:32:19	08:44:56	754770	5c663cd56fdc87000162e255	3	1	main_z	11	main_z	105	stimuli_distractor_trianglediamonds.svg	stimuli_target_rectangletriangles.svg	9	yes	44	1	341	0	0			0	0			1				0	
6.6.1	mac	2023-06-02	08:32:19	08:44:56	754770	5c663cd56fdc87000162e255	3	1	main_z	11	advance_on_keypress_ZEE	106	stimuli_distractor_trianglediamonds.svg	stimuli_target_rectangletriangles.svg	9	yes	57	0	423	0	0			0	0			1				0	
6.6.1	mac	2023-06-02	08:32:19	08:44:57	755909	5c663cd56fdc87000162e255	3	1	main_z	11	main_z	107	stimuli_distractor_trianglediamonds.svg	stimuli_target_trianglesquares.svg	26	yes	44	1	97	0	0			0	0			1				0	
6.6.1	mac	2023-06-02	08:32:19	08:44:57	755909	5c663cd56fdc87000162e255	3	1	main_z	11	advance_on_keypress_ZEE	108	stimuli_distractor_trianglediamonds.svg	stimuli_target_trianglesquares.svg	26	yes	57	0	607	0	0			0	0			1				0	
6.6.1	mac	2023-06-02	08:32:19	08:44:59	757535	5c663cd56fdc87000162e255	3	1	main_z	11	main_z	109	stimuli_distractor_diamondtriangles.svg	stimuli_target_trianglerectangles.svg	29	yes	44	1	389	0	0			0	0			1				0	
6.6.1	mac	2023-06-02	08:32:19	08:44:59	757535	5c663cd56fdc87000162e255	3	1	main_z	11	advance_on_keypress_ZEE	110	stimuli_distractor_diamondtriangles.svg	stimuli_target_trianglerectangles.svg	29	yes	57	0	523	0	0			0	0			1				0	
6.6.1	mac	2023-06-02	08:32:19	08:45:00	758746	5c663cd56fdc87000162e255	3	1	main_z	11	main_z	111	stimuli_distractor_diamondtriangles.svg	stimuli_distractor_trianglediamonds.svg	37	no	44	0	50	0	0			0	0			1				0	
6.6.1	mac	2023-06-02	08:32:19	08:45:00	758746	5c663cd56fdc87000162e255	3	1	main_z	11	advance_on_keypress_ZEE	112	stimuli_distractor_diamondtriangles.svg	stimuli_distractor_trianglediamonds.svg	37	no	57	0	1300	0	0			0	0			1				0	
6.6.1	mac	2023-06-02	08:32:19	08:45:02	761047	5c663cd56fdc87000162e255	3	1	main_z	11	main_z	113	stimuli_distractor_trianglediamonds.svg	stimuli_distractor_diamondtriangles.svg	36	no	44	0	368	0	0			0	0			1				0	
6.6.1	mac	2023-06-02	08:32:19	08:45:02	761047	5c663cd56fdc87000162e255	3	1	main_z	11	advance_on_keypress_ZEE	114	stimuli_distractor_trianglediamonds.svg	stimuli_distractor_diamondtriangles.svg	36	no	57	0	521	0	0			0	0			1				0	
6.6.1	mac	2023-06-02	08:32:19	08:45:04	762403	5c663cd56fdc87000162e255	3	1	main_z	11	main_z	115	stimuli_distractor_trianglediamonds.svg	stimuli_target_diamondsquares.svg	28	yes	44	1	207	0	0			0	0			1				0	
6.6.1	mac	2023-06-02	08:32:19	08:45:04	762403	5c663cd56fdc87000162e255	3	1	main_z	11	advance_on_keypress_ZEE	116	stimuli_distractor_trianglediamonds.svg	stimuli_target_diamondsquares.svg	28	yes	57	0	617	0	0			0	0			1				0	
6.6.1	mac	2023-06-02	08:32:19	08:45:05	763677	5c663cd56fdc87000162e255	3	1	main_z	11	main_z	117	stimuli_target_diamondrectangles.svg	stimuli_distractor_diamondtriangles.svg	23	yes	44	1	31	0	0			0	0			1				0	
6.6.1	mac	2023-06-02	08:32:19	08:45:05	763677	5c663cd56fdc87000162e255	3	1	main_z	11	advance_on_keypress_ZEE	118	stimuli_target_diamondrectangles.svg	stimuli_distractor_diamondtriangles.svg	23	yes	57	0	1034	0	0			0	0			1				0	
6.6.1	mac	2023-06-02	08:32:19	08:45:07	765647	5c663cd56fdc87000162e255	3	1	main_z	11	main_z	119	stimuli_target_trianglerectangles.svg	stimuli_distractor_trianglediamonds.svg	17	yes	44	1	301	0	0			0	0			1				0	
6.6.1	mac	2023-06-02	08:32:19	08:45:07	765647	5c663cd56fdc87000162e255	3	1	main_z	11	advance_on_keypress_ZEE	120	stimuli_target_trianglerectangles.svg	stimuli_distractor_trianglediamonds.svg	17	yes	57	0	454	0	0			0	0			1				0	
6.6.1	mac	2023-06-02	08:32:19	08:45:08	767105	5c663cd56fdc87000162e255	3	1	main_z	11	main_z	121	stimuli_target_rectangletriangles.svg	stimuli_distractor_trianglediamonds.svg	1	yes	44	1	376	0	0			0	0			1				0	
6.6.1	mac	2023-06-02	08:32:19	08:45:08	767105	5c663cd56fdc87000162e255	3	1	main_z	11	advance_on_keypress_ZEE	122	stimuli_target_rectangletriangles.svg	stimuli_distractor_trianglediamonds.svg	1	yes	57	0	512	0	0			0	0			1				0	
6.6.1	mac	2023-06-02	08:32:19	08:45:10	768275	5c663cd56fdc87000162e255	3	1	main_z	11	main_z	123	stimuli_distractor_diamondtriangles.svg	stimuli_target_diamondsquares.svg	32	yes	44	1	13	0	0			0	0			1				0	
6.6.1	mac	2023-06-02	08:32:19	08:45:10	768275	5c663cd56fdc87000162e255	3	1	main_z	11	advance_on_keypress_ZEE	124	stimuli_distractor_diamondtriangles.svg	stimuli_target_diamondsquares.svg	32	yes	57	0	720	0	0			0	0			1				0	
6.6.1	mac	2023-06-02	08:32:19	08:45:11	769893	5c663cd56fdc87000162e255	3	1	main_z	11	main_z	125	stimuli_target_squarediamonds.svg	stimuli_distractor_trianglediamonds.svg	4	yes	44	1	264	0	0			0	0			1				0	
6.6.1	mac	2023-06-02	08:32:19	08:45:11	769893	5c663cd56fdc87000162e255	3	1	main_z	11	advance_on_keypress_ZEE	126	stimuli_target_squarediamonds.svg	stimuli_distractor_trianglediamonds.svg	4	yes	57	0	662	0	0			0	0			1				0	
6.6.1	mac	2023-06-02	08:32:19	08:45:13	771409	5c663cd56fdc87000162e255	3	1	main_z	11	main_z	127	stimuli_distractor_trianglediamonds.svg	stimuli_target_diamondrectangles.svg	27	yes	44	1	213	0	0			0	0			1				0	
6.6.1	mac	2023-06-02	08:32:19	08:45:13	771409	5c663cd56fdc87000162e255	3	1	main_z	11	advance_on_keypress_ZEE	128	stimuli_distractor_trianglediamonds.svg	stimuli_target_diamondrectangles.svg	27	yes	57	0	634	0	0			0	0			1				0	
6.6.1	mac	2023-06-02	08:32:19	08:45:14	772935	5c663cd56fdc87000162e255	3	1	main_z	11	main_z	129	stimuli_distractor_diamondtriangles.svg	stimuli_distractor_diamondtriangles.svg	40	no	44	0	256	0	0			0	0			1				0	
6.6.1	mac	2023-06-02	08:32:19	08:45:14	772935	5c663cd56fdc87000162e255	3	1	main_z	11	advance_on_keypress_ZEE	130	stimuli_distractor_diamondtriangles.svg	stimuli_distractor_diamondtriangles.svg	40	no	57	0	632	0	0			0	0			1				0	
6.6.1	mac	2023-06-02	08:32:19	08:45:16	774402	5c663cd56fdc87000162e255	3	1	main_z	11	main_z	131	stimuli_distractor_trianglediamonds.svg	stimuli_target_squaretriangles.svg	11	yes	44	1	206	0	0			0	0			1				0	
6.6.1	mac	2023-06-02	08:32:19	08:45:16	774402	5c663cd56fdc87000162e255	3	1	main_z	11	advance_on_keypress_ZEE	132	stimuli_distractor_trianglediamonds.svg	stimuli_target_squaretriangles.svg	11	yes	57	0	568	0	0			0	0			1				0	
6.6.1	mac	2023-06-02	08:32:19	08:45:17	775629	5c663cd56fdc87000162e255	3	1	main_z	11	main_z	133	stimuli_target_rectanglediamonds.svg	stimuli_distractor_trianglediamonds.svg	2	yes	44	1	33	0	0			0	0			1				0	
6.6.1	mac	2023-06-02	08:32:19	08:45:17	775629	5c663cd56fdc87000162e255	3	1	main_z	11	advance_on_keypress_ZEE	134	stimuli_target_rectanglediamonds.svg	stimuli_distractor_trianglediamonds.svg	2	yes	57	0	686	0	0			0	0			1				0	
6.6.1	mac	2023-06-02	08:32:19	08:45:18	777172	5c663cd56fdc87000162e255	3	1	main_z	11	main_z	135	stimuli_distractor_diamondtriangles.svg	stimuli_target_squarediamonds.svg	16	yes	44	1	226	0	0			0	0			1				0	
6.6.1	mac	2023-06-02	08:32:19	08:45:18	777172	5c663cd56fdc87000162e255	3	1	main_z	11	advance_on_keypress_ZEE	136	stimuli_distractor_diamondtriangles.svg	stimuli_target_squarediamonds.svg	16	yes	57	0	541	0	0			0	0			1				0	
6.6.1	mac	2023-06-02	08:32:19	08:45:20	778533	5c663cd56fdc87000162e255	3	1	main_z	11	main_z	137	stimuli_distractor_trianglediamonds.svg	stimuli_distractor_trianglediamonds.svg	33	no	44	0	204	0	0			0	0			1				0	
6.6.1	mac	2023-06-02	08:32:19	08:45:20	778533	5c663cd56fdc87000162e255	3	1	main_z	11	advance_on_keypress_ZEE	138	stimuli_distractor_trianglediamonds.svg	stimuli_distractor_trianglediamonds.svg	33	no	57	0	585	0	0			0	0			1				0	
6.6.1	mac	2023-06-02	08:32:19	08:45:21	780154	5c663cd56fdc87000162e255	3	1	main_z	11	main_z	139	stimuli_distractor_diamondtriangles.svg	stimuli_distractor_diamondtriangles.svg	39	no	44	0	408	0	0			0	0			1				0	
6.6.1	mac	2023-06-02	08:32:19	08:45:21	780154	5c663cd56fdc87000162e255	3	1	main_z	11	advance_on_keypress_ZEE	140	stimuli_distractor_diamondtriangles.svg	stimuli_distractor_diamondtriangles.svg	39	no	57	0	588	0	0			0	0			1				0	
6.6.1	mac	2023-06-02	08:32:19	08:45:23	781458	5c663cd56fdc87000162e255	3	1	main_z	11	main_z	141	stimuli_target_diamondrectangles.svg	stimuli_distractor_trianglediamonds.svg	19	yes	44	1	79	0	0			0	0			1				0	
6.6.1	mac	2023-06-02	08:32:19	08:45:23	781458	5c663cd56fdc87000162e255	3	1	main_z	11	advance_on_keypress_ZEE	142	stimuli_target_diamondrectangles.svg	stimuli_distractor_trianglediamonds.svg	19	yes	57	0	943	0	0			0	0			1				0	
6.6.1	mac	2023-06-02	08:32:19	08:45:26	785029	5c663cd56fdc87000162e255	3	1	main_z	11	main_z	143	stimuli_distractor_trianglediamonds.svg	stimuli_target_trianglerectangles.svg	25	yes	0	0	2000	0	0			0	0			1				0	
6.6.1	mac	2023-06-02	08:32:19	08:45:26	785029	5c663cd56fdc87000162e255	3	1	main_z	11	advance_on_keypress_ZEE	144	stimuli_distractor_trianglediamonds.svg	stimuli_target_trianglerectangles.svg	25	yes	57	0	458	0	0			0	0			1				0	
6.6.1	mac	2023-06-02	08:32:19	08:45:28	786686	5c663cd56fdc87000162e255	3	1	main_z	11	main_z	145	stimuli_target_trianglerectangles.svg	stimuli_distractor_diamondtriangles.svg	21	yes	44	1	573	0	0			0	0			1				0	
6.6.1	mac	2023-06-02	08:32:19	08:45:28	786686	5c663cd56fdc87000162e255	3	1	main_z	11	advance_on_keypress_ZEE	146	stimuli_target_trianglerectangles.svg	stimuli_distractor_diamondtriangles.svg	21	yes	57	0	634	0	0			0	0			1				0	
6.6.1	mac	2023-06-02	08:32:19	08:45:30	788189	5c663cd56fdc87000162e255	3	1	main_z	11	main_z	147	stimuli_distractor_trianglediamonds.svg	stimuli_target_rectanglediamonds.svg	10	yes	44	1	226	0	0			0	0			1				0	
6.6.1	mac	2023-06-02	08:32:19	08:45:30	788189	5c663cd56fdc87000162e255	3	1	main_z	11	advance_on_keypress_ZEE	148	stimuli_distractor_trianglediamonds.svg	stimuli_target_rectanglediamonds.svg	10	yes	57	0	638	0	0			0	0			1				0	
6.6.1	mac	2023-06-02	08:32:19	08:45:31	789728	5c663cd56fdc87000162e255	3	1	main_z	11	main_z	149	stimuli_distractor_trianglediamonds.svg	stimuli_target_squarediamonds.svg	12	yes	44	1	283	0	0			0	0			1				0	
6.6.1	mac	2023-06-02	08:32:19	08:45:31	789728	5c663cd56fdc87000162e255	3	1	main_z	11	advance_on_keypress_ZEE	150	stimuli_distractor_trianglediamonds.svg	stimuli_target_squarediamonds.svg	12	yes	57	0	568	0	0			0	0			1				0	
6.6.1	mac	2023-06-02	08:32:19	08:45:33	792113	5c663cd56fdc87000162e255	3	1	main_z	11	main_z	151	stimuli_target_diamondsquares.svg	stimuli_distractor_diamondtriangles.svg	24	yes	44	1	1184	0	0			0	0			1				0	
6.6.1	mac	2023-06-02	08:32:19	08:45:33	792113	5c663cd56fdc87000162e255	3	1	main_z	11	advance_on_keypress_ZEE	152	stimuli_target_diamondsquares.svg	stimuli_distractor_diamondtriangles.svg	24	yes	57	0	575	0	0			0	0			1				0	
6.6.1	mac	2023-06-02	08:32:19	08:45:35	793487	5c663cd56fdc87000162e255	3	1	main_z	11	main_z	153	stimuli_distractor_diamondtriangles.svg	stimuli_target_rectangletriangles.svg	13	yes	44	1	174	0	0			0	0			1				0	
6.6.1	mac	2023-06-02	08:32:19	08:45:35	793487	5c663cd56fdc87000162e255	3	1	main_z	11	advance_on_keypress_ZEE	154	stimuli_distractor_diamondtriangles.svg	stimuli_target_rectangletriangles.svg	13	yes	57	0	579	0	0			0	0			1				0	
6.6.1	mac	2023-06-02	08:32:19	08:45:36	795175	5c663cd56fdc87000162e255	3	1	main_z	11	main_z	155	stimuli_target_rectangletriangles.svg	stimuli_distractor_diamondtriangles.svg	5	yes	44	1	479	0	0			0	0			1				0	
6.6.1	mac	2023-06-02	08:32:19	08:45:36	795175	5c663cd56fdc87000162e255	3	1	main_z	11	advance_on_keypress_ZEE	156	stimuli_target_rectangletriangles.svg	stimuli_distractor_diamondtriangles.svg	5	yes	57	0	523	0	0			0	0			1				0	
6.6.1	mac	2023-06-02	08:32:19	08:45:38	796580	5c663cd56fdc87000162e255	3	1	main_z	11	main_z	157	stimuli_distractor_trianglediamonds.svg	stimuli_distractor_diamondtriangles.svg	35	no	44	0	251	0	0			0	0			1				0	
6.6.1	mac	2023-06-02	08:32:19	08:45:38	796580	5c663cd56fdc87000162e255	3	1	main_z	11	advance_on_keypress_ZEE	158	stimuli_distractor_trianglediamonds.svg	stimuli_distractor_diamondtriangles.svg	35	no	57	0	552	0	0			0	0			1				0	
6.6.1	mac	2023-06-02	08:32:19	08:45:39	798092	5c663cd56fdc87000162e255	3	1	main_z	11	main_z	159	stimuli_target_squaretriangles.svg	stimuli_distractor_trianglediamonds.svg	3	yes	44	1	329	0	0			0	0			1				0	
6.6.1	mac	2023-06-02	08:32:19	08:45:39	798092	5c663cd56fdc87000162e255	3	1	main_z	11	advance_on_keypress_ZEE	160	stimuli_target_squaretriangles.svg	stimuli_distractor_trianglediamonds.svg	3	yes	57	0	537	0	0			0	0			1				0	
6.6.1	mac	2023-06-02	08:32:19	08:45:39	798092	5c663cd56fdc87000162e255	3	1	headphonecheck_calibration	14	headphonecheck_calibrationIntro	1	stimuli_target_squaretriangles.svg	stimuli_distractor_trianglediamonds.svg	3	yes	calibrationButton	0	1850	0	0			0	0			1				0	
6.6.1	mac	2023-06-02	08:32:19	08:45:39	798092	5c663cd56fdc87000162e255	3	1	headphonecheck_testphase	15	test_collectResponse	3	stimuli_target_squaretriangles.svg	stimuli_distractor_trianglediamonds.svg	3	yes	second	1	1181	1	1	antiphase_hc_iso.wav	2	0	0			1				0	
6.6.1	mac	2023-06-02	08:32:19	08:45:39	798092	5c663cd56fdc87000162e255	3	1	headphonecheck_testphase	15	test_collectResponse	6	stimuli_target_squaretriangles.svg	stimuli_distractor_trianglediamonds.svg	3	yes	second	1	449	2	5	antiphase_hc_osi.wav	2	0	0			1				0	
6.6.1	mac	2023-06-02	08:32:19	08:45:39	798092	5c663cd56fdc87000162e255	3	1	headphonecheck_testphase	15	test_collectResponse	9	stimuli_target_squaretriangles.svg	stimuli_distractor_trianglediamonds.svg	3	yes	first	1	299	3	4	antiphase_hc_sio.wav	1	0	0			1				0	
6.6.1	mac	2023-06-02	08:32:19	08:45:39	798092	5c663cd56fdc87000162e255	3	1	headphonecheck_testphase	15	test_collectResponse	12	stimuli_target_squaretriangles.svg	stimuli_distractor_trianglediamonds.svg	3	yes	first	1	429	4	3	antiphase_hc_soi.wav	1	0	0			1				0	
6.6.1	mac	2023-06-02	08:32:19	08:45:39	798092	5c663cd56fdc87000162e255	3	1	headphonecheck_testphase	15	test_collectResponse	15	stimuli_target_squaretriangles.svg	stimuli_distractor_trianglediamonds.svg	3	yes	third	1	335	5	6	antiphase_hc_ois.wav	3	0	0			1				0	
6.6.1	mac	2023-06-02	08:32:19	08:45:39	798092	5c663cd56fdc87000162e255	3	1	headphonecheck_testphase	15	test_collectResponse	18	stimuli_target_squaretriangles.svg	stimuli_distractor_trianglediamonds.svg	3	yes	third	1	379	6	2	antiphase_hc_ios.wav	3	0	0			1				0	
6.6.1	mac	2023-06-02	08:32:19	08:45:39	798092	5c663cd56fdc87000162e255	3	1	stereocheck_calibration	17	stereocheck_calibrationIntro	1	stimuli_target_squaretriangles.svg	stimuli_distractor_trianglediamonds.svg	3	yes	stereocheck_calibrationButton	0	2885	6	2	antiphase_hc_ios.wav	3	0	0			1				0	
6.6.1	mac	2023-06-02	08:32:19	08:45:39	798092	5c663cd56fdc87000162e255	3	1	stereocheck_testphase	18	stereocheck_test_collectResponse	3	stimuli_target_squaretriangles.svg	stimuli_distractor_trianglediamonds.svg	3	yes	stereocheck_left	1	883	6	2	antiphase_hc_ios.wav	3	1	2	noise_calib_stim_LEFT.wav	1	1				0	
6.6.1	mac	2023-06-02	08:32:19	08:45:39	798092	5c663cd56fdc87000162e255	3	1	stereocheck_testphase	18	stereocheck_test_collectResponse	6	stimuli_target_squaretriangles.svg	stimuli_distractor_trianglediamonds.svg	3	yes	stereocheck_left	1	400	6	2	antiphase_hc_ios.wav	3	2	1	noise_calib_stim_LEFT.wav	1	1				0	
6.6.1	mac	2023-06-02	08:32:19	08:45:39	798092	5c663cd56fdc87000162e255	3	1	stereocheck_testphase	18	stereocheck_test_collectResponse	9	stimuli_target_squaretriangles.svg	stimuli_distractor_trianglediamonds.svg	3	yes	stereocheck_left	1	281	6	2	antiphase_hc_ios.wav	3	3	3	noise_calib_stim_LEFT.wav	1	1				0	
6.6.1	mac	2023-06-02	08:32:19	08:45:39	798092	5c663cd56fdc87000162e255	3	1	stereocheck_testphase	18	stereocheck_test_collectResponse	12	stimuli_target_squaretriangles.svg	stimuli_distractor_trianglediamonds.svg	3	yes	stereocheck_right	1	297	6	2	antiphase_hc_ios.wav	3	4	5	noise_calib_stim_RIGHT.wav	2	1				0	
6.6.1	mac	2023-06-02	08:32:19	08:45:39	798092	5c663cd56fdc87000162e255	3	1	stereocheck_testphase	18	stereocheck_test_collectResponse	15	stimuli_target_squaretriangles.svg	stimuli_distractor_trianglediamonds.svg	3	yes	stereocheck_right	1	681	6	2	antiphase_hc_ios.wav	3	5	6	noise_calib_stim_RIGHT.wav	2	1				0	
6.6.1	mac	2023-06-02	08:32:19	08:45:39	798092	5c663cd56fdc87000162e255	3	1	stereocheck_testphase	18	stereocheck_test_collectResponse	18	stimuli_target_squaretriangles.svg	stimuli_distractor_trianglediamonds.svg	3	yes	stereocheck_right	1	415	6	2	antiphase_hc_ios.wav	3	6	4	noise_calib_stim_RIGHT.wav	2	1				0	
6.6.1	mac	2023-06-02	08:32:19	08:45:39	798092	5c663cd56fdc87000162e255	3	1	DL_practice	21	DL_practice	2	stimuli_target_squaretriangles.svg	stimuli_distractor_trianglediamonds.svg	3	yes	ka	0	1988	6	2	antiphase_hc_ios.wav	3	6	4	noise_calib_stim_RIGHT.wav	2	18	blb_dichoticlistening_ga-ta.mp3	ga	ta	1	other
6.6.1	mac	2023-06-02	08:32:19	08:45:39	798092	5c663cd56fdc87000162e255	3	1	DL_practice	21	DL_practice	3	stimuli_target_squaretriangles.svg	stimuli_distractor_trianglediamonds.svg	3	yes	ga	1	1172	6	2	antiphase_hc_ios.wav	3	6	4	noise_calib_stim_RIGHT.wav	2	15	blb_dichoticlistening_ga-ga.mp3	ga	ga	0	left
6.6.1	mac	2023-06-02	08:32:19	08:45:39	798092	5c663cd56fdc87000162e255	3	1	DL_practice	21	DL_practice	4	stimuli_target_squaretriangles.svg	stimuli_distractor_trianglediamonds.svg	3	yes	pa	1	1071	6	2	antiphase_hc_ios.wav	3	6	4	noise_calib_stim_RIGHT.wav	2	29	blb_dichoticlistening_pa-pa.mp3	pa	pa	0	left
6.6.1	mac	2023-06-02	08:32:19	08:45:39	798092	5c663cd56fdc87000162e255	3	1	DL_practice	21	DL_practice	5	stimuli_target_squaretriangles.svg	stimuli_distractor_trianglediamonds.svg	3	yes	da	1	1055	6	2	antiphase_hc_ios.wav	3	6	4	noise_calib_stim_RIGHT.wav	2	8	blb_dichoticlistening_da-da.mp3	da	da	0	left
6.6.1	mac	2023-06-02	08:32:19	08:45:39	798092	5c663cd56fdc87000162e255	3	1	DL_practice	21	DL_practice	6	stimuli_target_squaretriangles.svg	stimuli_distractor_trianglediamonds.svg	3	yes	ta	1	1188	6	2	antiphase_hc_ios.wav	3	6	4	noise_calib_stim_RIGHT.wav	2	36	blb_dichoticlistening_ta-ta.mp3	ta	ta	0	left
6.6.1	mac	2023-06-02	08:32:19	08:45:39	798092	5c663cd56fdc87000162e255	3	1	DL_practice	21	DL_practice	7	stimuli_target_squaretriangles.svg	stimuli_distractor_trianglediamonds.svg	3	yes	ka	1	1105	6	2	antiphase_hc_ios.wav	3	6	4	noise_calib_stim_RIGHT.wav	2	22	blb_dichoticlistening_ka-ka.mp3	ka	ka	0	left
6.6.1	mac	2023-06-02	08:32:19	08:45:39	798092	5c663cd56fdc87000162e255	3	1	DL_practice	21	DL_practice	8	stimuli_target_squaretriangles.svg	stimuli_distractor_trianglediamonds.svg	3	yes	ka	1	1139	6	2	antiphase_hc_ios.wav	3	6	4	noise_calib_stim_RIGHT.wav	2	23	blb_dichoticlistening_ka-pa.mp3	ka	pa	1	left
6.6.1	mac	2023-06-02	08:32:19	08:45:39	798092	5c663cd56fdc87000162e255	3	1	DL_practice	21	DL_practice	9	stimuli_target_squaretriangles.svg	stimuli_distractor_trianglediamonds.svg	3	yes	ba	1	1255	6	2	antiphase_hc_ios.wav	3	6	4	noise_calib_stim_RIGHT.wav	2	1	blb_dichoticlistening_ba-ba.mp3	ba	ba	0	left
6.6.1	mac	2023-06-02	08:32:19	08:45:39	798092	5c663cd56fdc87000162e255	3	1	DL_practice	21	DL_practice	10	stimuli_target_squaretriangles.svg	stimuli_distractor_trianglediamonds.svg	3	yes	da	1	922	6	2	antiphase_hc_ios.wav	3	6	4	noise_calib_stim_RIGHT.wav	2	7	blb_dichoticlistening_da-ba.mp3	da	ba	1	left
6.6.1	mac	2023-06-02	08:32:19	08:45:39	798092	5c663cd56fdc87000162e255	3	1	DL_test	23	DL_test	1	stimuli_target_squaretriangles.svg	stimuli_distractor_trianglediamonds.svg	3	yes	pa	1	1322	6	2	antiphase_hc_ios.wav	3	6	4	noise_calib_stim_RIGHT.wav	2	35	blb_dichoticlistening_ta-pa.mp3	ta	pa	1	right
6.6.1	mac	2023-06-02	08:32:19	08:45:39	798092	5c663cd56fdc87000162e255	3	1	DL_test	23	DL_test	2	stimuli_target_squaretriangles.svg	stimuli_distractor_trianglediamonds.svg	3	yes	ba	1	1722	6	2	antiphase_hc_ios.wav	3	6	4	noise_calib_stim_RIGHT.wav	2	1	blb_dichoticlistening_ba-ba.mp3	ba	ba	0	left
6.6.1	mac	2023-06-02	08:32:19	08:45:39	798092	5c663cd56fdc87000162e255	3	1	DL_test	23	DL_test	3	stimuli_target_squaretriangles.svg	stimuli_distractor_trianglediamonds.svg	3	yes	ka	1	1239	6	2	antiphase_hc_ios.wav	3	6	4	noise_calib_stim_RIGHT.wav	2	28	blb_dichoticlistening_pa-ka.mp3	pa	ka	1	right
6.6.1	mac	2023-06-02	08:32:19	08:45:39	798092	5c663cd56fdc87000162e255	3	1	DL_test	23	DL_test	4	stimuli_target_squaretriangles.svg	stimuli_distractor_trianglediamonds.svg	3	yes	pa	1	1139	6	2	antiphase_hc_ios.wav	3	6	4	noise_calib_stim_RIGHT.wav	2	11	blb_dichoticlistening_da-pa.mp3	da	pa	1	right
6.6.1	mac	2023-06-02	08:32:19	08:45:39	798092	5c663cd56fdc87000162e255	3	1	DL_test	23	DL_test	5	stimuli_target_squaretriangles.svg	stimuli_distractor_trianglediamonds.svg	3	yes	da	1	1356	6	2	antiphase_hc_ios.wav	3	6	4	noise_calib_stim_RIGHT.wav	2	2	blb_dichoticlistening_ba-da.mp3	ba	da	1	right
6.6.1	mac	2023-06-02	08:32:19	08:45:39	798092	5c663cd56fdc87000162e255	3	1	DL_test	23	DL_test	6	stimuli_target_squaretriangles.svg	stimuli_distractor_trianglediamonds.svg	3	yes	ka	0	1239	6	2	antiphase_hc_ios.wav	3	6	4	noise_calib_stim_RIGHT.wav	2	33	blb_dichoticlistening_ta-ga.mp3	ta	ga	1	other
6.6.1	mac	2023-06-02	08:32:19	08:45:39	798092	5c663cd56fdc87000162e255	3	1	DL_test	23	DL_test	7	stimuli_target_squaretriangles.svg	stimuli_distractor_trianglediamonds.svg	3	yes	ka	1	1089	6	2	antiphase_hc_ios.wav	3	6	4	noise_calib_stim_RIGHT.wav	2	19	blb_dichoticlistening_ka-ba.mp3	ka	ba	1	left
6.6.1	mac	2023-06-02	08:32:19	08:45:39	798092	5c663cd56fdc87000162e255	3	1	DL_test	23	DL_test	8	stimuli_target_squaretriangles.svg	stimuli_distractor_trianglediamonds.svg	3	yes	da	1	1323	6	2	antiphase_hc_ios.wav	3	6	4	noise_calib_stim_RIGHT.wav	2	7	blb_dichoticlistening_da-ba.mp3	da	ba	1	left
6.6.1	mac	2023-06-02	08:32:19	08:45:39	798092	5c663cd56fdc87000162e255	3	1	DL_test	23	DL_test	9	stimuli_target_squaretriangles.svg	stimuli_distractor_trianglediamonds.svg	3	yes	ga	1	855	6	2	antiphase_hc_ios.wav	3	6	4	noise_calib_stim_RIGHT.wav	2	15	blb_dichoticlistening_ga-ga.mp3	ga	ga	0	left
6.6.1	mac	2023-06-02	08:32:19	08:45:39	798092	5c663cd56fdc87000162e255	3	1	DL_test	23	DL_test	10	stimuli_target_squaretriangles.svg	stimuli_distractor_trianglediamonds.svg	3	yes	pa	1	1256	6	2	antiphase_hc_ios.wav	3	6	4	noise_calib_stim_RIGHT.wav	2	25	blb_dichoticlistening_pa-ba.mp3	pa	ba	1	left
6.6.1	mac	2023-06-02	08:32:19	08:45:39	798092	5c663cd56fdc87000162e255	3	1	DL_test	23	DL_test	11	stimuli_target_squaretriangles.svg	stimuli_distractor_trianglediamonds.svg	3	yes	ka	1	1006	6	2	antiphase_hc_ios.wav	3	6	4	noise_calib_stim_RIGHT.wav	2	24	blb_dichoticlistening_ka-ta.mp3	ka	ta	1	left
6.6.1	mac	2023-06-02	08:32:19	08:45:39	798092	5c663cd56fdc87000162e255	3	1	DL_test	23	DL_test	12	stimuli_target_squaretriangles.svg	stimuli_distractor_trianglediamonds.svg	3	yes	ka	0	1840	6	2	antiphase_hc_ios.wav	3	6	4	noise_calib_stim_RIGHT.wav	2	31	blb_dichoticlistening_ta-ba.mp3	ta	ba	1	other
6.6.1	mac	2023-06-02	08:32:19	08:45:39	798092	5c663cd56fdc87000162e255	3	1	DL_test	23	DL_test	13	stimuli_target_squaretriangles.svg	stimuli_distractor_trianglediamonds.svg	3	yes	ka	0	1123	6	2	antiphase_hc_ios.wav	3	6	4	noise_calib_stim_RIGHT.wav	2	6	blb_dichoticlistening_ba-ta.mp3	ba	ta	1	other
6.6.1	mac	2023-06-02	08:32:19	08:45:39	798092	5c663cd56fdc87000162e255	3	1	DL_test	23	DL_test	14	stimuli_target_squaretriangles.svg	stimuli_distractor_trianglediamonds.svg	3	yes	pa	1	1039	6	2	antiphase_hc_ios.wav	3	6	4	noise_calib_stim_RIGHT.wav	2	23	blb_dichoticlistening_ka-pa.mp3	ka	pa	1	right
6.6.1	mac	2023-06-02	08:32:19	08:45:39	798092	5c663cd56fdc87000162e255	3	1	DL_test	23	DL_test	15	stimuli_target_squaretriangles.svg	stimuli_distractor_trianglediamonds.svg	3	yes	pa	1	889	6	2	antiphase_hc_ios.wav	3	6	4	noise_calib_stim_RIGHT.wav	2	29	blb_dichoticlistening_pa-pa.mp3	pa	pa	0	left
6.6.1	mac	2023-06-02	08:32:19	08:45:39	798092	5c663cd56fdc87000162e255	3	1	DL_test	23	DL_test	16	stimuli_target_squaretriangles.svg	stimuli_distractor_trianglediamonds.svg	3	yes	ga	1	1306	6	2	antiphase_hc_ios.wav	3	6	4	noise_calib_stim_RIGHT.wav	2	13	blb_dichoticlistening_ga-ba.mp3	ga	ba	1	left
6.6.1	mac	2023-06-02	08:32:19	08:45:39	798092	5c663cd56fdc87000162e255	3	1	DL_test	23	DL_test	17	stimuli_target_squaretriangles.svg	stimuli_distractor_trianglediamonds.svg	3	yes	ta	1	1340	6	2	antiphase_hc_ios.wav	3	6	4	noise_calib_stim_RIGHT.wav	2	36	blb_dichoticlistening_ta-ta.mp3	ta	ta	0	left
6.6.1	mac	2023-06-02	08:32:19	08:45:39	798092	5c663cd56fdc87000162e255	3	1	DL_test	23	DL_test	18	stimuli_target_squaretriangles.svg	stimuli_distractor_trianglediamonds.svg	3	yes	ga	1	1990	6	2	antiphase_hc_ios.wav	3	6	4	noise_calib_stim_RIGHT.wav	2	17	blb_dichoticlistening_ga-pa.mp3	ga	pa	1	left
6.6.1	mac	2023-06-02	08:32:19	08:45:39	798092	5c663cd56fdc87000162e255	3	1	DL_test	23	DL_test	19	stimuli_target_squaretriangles.svg	stimuli_distractor_trianglediamonds.svg	3	yes	ka	1	1173	6	2	antiphase_hc_ios.wav	3	6	4	noise_calib_stim_RIGHT.wav	2	16	blb_dichoticlistening_ga-ka.mp3	ga	ka	1	right
6.6.1	mac	2023-06-02	08:32:19	08:45:39	798092	5c663cd56fdc87000162e255	3	1	DL_test	23	DL_test	20	stimuli_target_squaretriangles.svg	stimuli_distractor_trianglediamonds.svg	3	yes	ka	0	1240	6	2	antiphase_hc_ios.wav	3	6	4	noise_calib_stim_RIGHT.wav	2	26	blb_dichoticlistening_pa-da.mp3	pa	da	1	other
6.6.1	mac	2023-06-02	08:32:19	08:45:39	798092	5c663cd56fdc87000162e255	3	1	DL_test	23	DL_test	21	stimuli_target_squaretriangles.svg	stimuli_distractor_trianglediamonds.svg	3	yes	da	1	956	6	2	antiphase_hc_ios.wav	3	6	4	noise_calib_stim_RIGHT.wav	2	8	blb_dichoticlistening_da-da.mp3	da	da	0	left
6.6.1	mac	2023-06-02	08:32:19	08:45:39	798092	5c663cd56fdc87000162e255	3	1	DL_test	23	DL_test	22	stimuli_target_squaretriangles.svg	stimuli_distractor_trianglediamonds.svg	3	yes	pa	0	1557	6	2	antiphase_hc_ios.wav	3	6	4	noise_calib_stim_RIGHT.wav	2	10	blb_dichoticlistening_da-ka.mp3	da	ka	1	other
6.6.1	mac	2023-06-02	08:32:19	08:45:39	798092	5c663cd56fdc87000162e255	3	1	DL_test	23	DL_test	23	stimuli_target_squaretriangles.svg	stimuli_distractor_trianglediamonds.svg	3	yes	ka	1	1157	6	2	antiphase_hc_ios.wav	3	6	4	noise_calib_stim_RIGHT.wav	2	4	blb_dichoticlistening_ba-ka.mp3	ba	ka	1	right
6.6.1	mac	2023-06-02	08:32:19	08:45:39	798092	5c663cd56fdc87000162e255	3	1	DL_test	23	DL_test	24	stimuli_target_squaretriangles.svg	stimuli_distractor_trianglediamonds.svg	3	yes	da	1	1223	6	2	antiphase_hc_ios.wav	3	6	4	noise_calib_stim_RIGHT.wav	2	14	blb_dichoticlistening_ga-da.mp3	ga	da	1	right
6.6.1	mac	2023-06-02	08:32:19	08:45:39	798092	5c663cd56fdc87000162e255	3	1	DL_test	23	DL_test	25	stimuli_target_squaretriangles.svg	stimuli_distractor_trianglediamonds.svg	3	yes	ka	1	1207	6	2	antiphase_hc_ios.wav	3	6	4	noise_calib_stim_RIGHT.wav	2	20	blb_dichoticlistening_ka-da.mp3	ka	da	1	left
6.6.1	mac	2023-06-02	08:32:19	08:45:39	798092	5c663cd56fdc87000162e255	3	1	DL_test	23	DL_test	26	stimuli_target_squaretriangles.svg	stimuli_distractor_trianglediamonds.svg	3	yes	ka	1	1324	6	2	antiphase_hc_ios.wav	3	6	4	noise_calib_stim_RIGHT.wav	2	22	blb_dichoticlistening_ka-ka.mp3	ka	ka	0	left
