build	computer.platform	date	time	timestamp	time_elapsed_ms	subject	group	session	blockcode	blocknum	trialcode	trialnum	stimulus_left	stimulus_right	stim_index	target_present	response	correct	latency	headphonecheck_countTestTrials	headphonecheck_index	headphonecheck_testSound	headphonecheck_correctResponse	stereocheck_countTestTrials	stereocheck_index	stereocheck_testSound	stereocheck_correctResponse	DL_index	DL_soundfile	DL_leftSound	DL_rightSound	DL_dualSound	DL_choice
6.6.1	win	2023-07-17	11:54:43	11:56:58	131501	5d728c6f1c91d40001a4b6ad	4	1	practice_z	5	practice_z	1	stimuli_distractor_diamondtriangles.svg	stimuli_distractor_trianglediamonds.svg	14	no	0	1	2000	0	0			0	0			1				0	
6.6.1	win	2023-07-17	11:54:43	11:56:58	131501	5d728c6f1c91d40001a4b6ad	4	1	practice_z	5	advance_on_keypress_ZEE	2	stimuli_distractor_diamondtriangles.svg	stimuli_distractor_trianglediamonds.svg	14	no	57	0	613	0	0			0	0			1				0	
6.6.1	win	2023-07-17	11:54:43	11:57:00	134201	5d728c6f1c91d40001a4b6ad	4	1	practice_z	5	practice_z	3	stimuli_target_squarediamonds.svg	stimuli_distractor_trianglediamonds.svg	5	yes	44	1	426	0	0			0	0			1				0	
6.6.1	win	2023-07-17	11:54:43	11:57:00	134201	5d728c6f1c91d40001a4b6ad	4	1	practice_z	5	advance_on_keypress_ZEE	4	stimuli_target_squarediamonds.svg	stimuli_distractor_trianglediamonds.svg	5	yes	57	0	801	0	0			0	0			1				0	
6.6.1	win	2023-07-17	11:54:43	11:57:03	136892	5d728c6f1c91d40001a4b6ad	4	1	practice_z	5	practice_z	5	stimuli_distractor_diamondtriangles.svg	stimuli_target_trianglerectangles.svg	9	yes	44	1	240	0	0			0	0			1				0	
6.6.1	win	2023-07-17	11:54:43	11:57:03	136892	5d728c6f1c91d40001a4b6ad	4	1	practice_z	5	advance_on_keypress_ZEE	6	stimuli_distractor_diamondtriangles.svg	stimuli_target_trianglerectangles.svg	9	yes	57	0	783	0	0			0	0			1				0	
6.6.1	win	2023-07-17	11:54:43	11:57:08	141313	5d728c6f1c91d40001a4b6ad	4	1	practice_z	5	practice_z	7	stimuli_distractor_trianglediamonds.svg	stimuli_distractor_trianglediamonds.svg	15	no	0	1	2000	0	0			0	0			1				0	
6.6.1	win	2023-07-17	11:54:43	11:57:08	141313	5d728c6f1c91d40001a4b6ad	4	1	practice_z	5	advance_on_keypress_ZEE	8	stimuli_distractor_trianglediamonds.svg	stimuli_distractor_trianglediamonds.svg	15	no	57	0	773	0	0			0	0			1				0	
6.6.1	win	2023-07-17	11:54:43	11:57:11	144303	5d728c6f1c91d40001a4b6ad	4	1	practice_z	5	practice_z	9	stimuli_target_rectanglediamonds.svg	stimuli_distractor_diamondtriangles.svg	1	yes	44	1	583	0	0			0	0			1				0	
6.6.1	win	2023-07-17	11:54:43	11:57:11	144303	5d728c6f1c91d40001a4b6ad	4	1	practice_z	5	advance_on_keypress_ZEE	10	stimuli_target_rectanglediamonds.svg	stimuli_distractor_diamondtriangles.svg	1	yes	57	0	559	0	0			0	0			1				0	
6.6.1	win	2023-07-17	11:54:43	11:57:13	146949	5d728c6f1c91d40001a4b6ad	4	1	practice_z	5	practice_z	11	stimuli_distractor_trianglediamonds.svg	stimuli_target_rectanglediamonds.svg	10	yes	44	1	451	0	0			0	0			1				0	
6.6.1	win	2023-07-17	11:54:43	11:57:13	146949	5d728c6f1c91d40001a4b6ad	4	1	practice_z	5	advance_on_keypress_ZEE	12	stimuli_distractor_trianglediamonds.svg	stimuli_target_rectanglediamonds.svg	10	yes	57	0	507	0	0			0	0			1				0	
6.6.1	win	2023-07-17	11:54:43	11:57:16	149494	5d728c6f1c91d40001a4b6ad	4	1	practice_z	5	practice_z	13	stimuli_target_diamondsquares.svg	stimuli_distractor_trianglediamonds.svg	6	yes	44	1	402	0	0			0	0			1				0	
6.6.1	win	2023-07-17	11:54:43	11:57:16	149494	5d728c6f1c91d40001a4b6ad	4	1	practice_z	5	advance_on_keypress_ZEE	14	stimuli_target_diamondsquares.svg	stimuli_distractor_trianglediamonds.svg	6	yes	57	0	547	0	0			0	0			1				0	
6.6.1	win	2023-07-17	11:54:43	11:57:18	152220	5d728c6f1c91d40001a4b6ad	4	1	practice_z	5	practice_z	15	stimuli_target_diamondsquares.svg	stimuli_distractor_diamondtriangles.svg	3	yes	44	1	533	0	0			0	0			1				0	
6.6.1	win	2023-07-17	11:54:43	11:57:18	152220	5d728c6f1c91d40001a4b6ad	4	1	practice_z	5	advance_on_keypress_ZEE	16	stimuli_target_diamondsquares.svg	stimuli_distractor_diamondtriangles.svg	3	yes	57	0	496	0	0			0	0			1				0	
6.6.1	win	2023-07-17	11:54:43	11:57:21	154786	5d728c6f1c91d40001a4b6ad	4	1	practice_z	5	practice_z	17	stimuli_distractor_trianglediamonds.svg	stimuli_target_squarediamonds.svg	11	yes	44	1	422	0	0			0	0			1				0	
6.6.1	win	2023-07-17	11:54:43	11:57:21	154786	5d728c6f1c91d40001a4b6ad	4	1	practice_z	5	advance_on_keypress_ZEE	18	stimuli_distractor_trianglediamonds.svg	stimuli_target_squarediamonds.svg	11	yes	57	0	648	0	0			0	0			1				0	
6.6.1	win	2023-07-17	11:54:43	11:57:24	157446	5d728c6f1c91d40001a4b6ad	4	1	practice_z	5	practice_z	19	stimuli_distractor_diamondtriangles.svg	stimuli_target_rectangletriangles.svg	7	yes	44	1	372	0	0			0	0			1				0	
6.6.1	win	2023-07-17	11:54:43	11:57:24	157446	5d728c6f1c91d40001a4b6ad	4	1	practice_z	5	advance_on_keypress_ZEE	20	stimuli_distractor_diamondtriangles.svg	stimuli_target_rectangletriangles.svg	7	yes	57	0	515	0	0			0	0			1				0	
6.6.1	win	2023-07-17	11:54:43	11:57:28	161603	5d728c6f1c91d40001a4b6ad	4	1	practice_z	5	practice_z	21	stimuli_distractor_diamondtriangles.svg	stimuli_distractor_diamondtriangles.svg	13	no	0	1	2000	0	0			0	0			1				0	
6.6.1	win	2023-07-17	11:54:43	11:57:28	161603	5d728c6f1c91d40001a4b6ad	4	1	practice_z	5	advance_on_keypress_ZEE	22	stimuli_distractor_diamondtriangles.svg	stimuli_distractor_diamondtriangles.svg	13	no	57	0	528	0	0			0	0			1				0	
6.6.1	win	2023-07-17	11:54:43	11:57:30	164174	5d728c6f1c91d40001a4b6ad	4	1	practice_z	5	practice_z	23	stimuli_target_rectanglediamonds.svg	stimuli_distractor_trianglediamonds.svg	4	yes	44	1	396	0	0			0	0			1				0	
6.6.1	win	2023-07-17	11:54:43	11:57:30	164174	5d728c6f1c91d40001a4b6ad	4	1	practice_z	5	advance_on_keypress_ZEE	24	stimuli_target_rectanglediamonds.svg	stimuli_distractor_trianglediamonds.svg	4	yes	57	0	711	0	0			0	0			1				0	
6.6.1	win	2023-07-17	11:54:43	11:57:33	166802	5d728c6f1c91d40001a4b6ad	4	1	practice_z	5	practice_z	25	stimuli_distractor_trianglediamonds.svg	stimuli_target_diamondrectangles.svg	12	yes	44	1	264	0	0			0	0			1				0	
6.6.1	win	2023-07-17	11:54:43	11:57:33	166802	5d728c6f1c91d40001a4b6ad	4	1	practice_z	5	advance_on_keypress_ZEE	26	stimuli_distractor_trianglediamonds.svg	stimuli_target_diamondrectangles.svg	12	yes	57	0	501	0	0			0	0			1				0	
6.6.1	win	2023-07-17	11:54:43	11:57:36	169280	5d728c6f1c91d40001a4b6ad	4	1	practice_z	5	practice_z	27	stimuli_distractor_diamondtriangles.svg	stimuli_target_diamondrectangles.svg	8	yes	44	1	330	0	0			0	0			1				0	
6.6.1	win	2023-07-17	11:54:43	11:57:36	169280	5d728c6f1c91d40001a4b6ad	4	1	practice_z	5	advance_on_keypress_ZEE	28	stimuli_distractor_diamondtriangles.svg	stimuli_target_diamondrectangles.svg	8	yes	57	0	390	0	0			0	0			1				0	
6.6.1	win	2023-07-17	11:54:43	11:57:40	173312	5d728c6f1c91d40001a4b6ad	4	1	practice_z	5	practice_z	29	stimuli_distractor_trianglediamonds.svg	stimuli_distractor_diamondtriangles.svg	16	no	0	1	2000	0	0			0	0			1				0	
6.6.1	win	2023-07-17	11:54:43	11:57:40	173312	5d728c6f1c91d40001a4b6ad	4	1	practice_z	5	advance_on_keypress_ZEE	30	stimuli_distractor_trianglediamonds.svg	stimuli_distractor_diamondtriangles.svg	16	no	57	0	469	0	0			0	0			1				0	
6.6.1	win	2023-07-17	11:54:43	11:57:42	175834	5d728c6f1c91d40001a4b6ad	4	1	practice_z	5	practice_z	31	stimuli_target_squarediamonds.svg	stimuli_distractor_diamondtriangles.svg	2	yes	44	1	415	0	0			0	0			1				0	
6.6.1	win	2023-07-17	11:54:43	11:57:42	175834	5d728c6f1c91d40001a4b6ad	4	1	practice_z	5	advance_on_keypress_ZEE	32	stimuli_target_squarediamonds.svg	stimuli_distractor_diamondtriangles.svg	2	yes	57	0	473	0	0			0	0			1				0	
6.6.1	win	2023-07-17	11:54:43	11:57:50	184001	5d728c6f1c91d40001a4b6ad	4	1	main_z	7	main_z	1	stimuli_distractor_diamondtriangles.svg	stimuli_target_squarediamonds.svg	16	yes	44	1	319	0	0			0	0			1				0	
6.6.1	win	2023-07-17	11:54:43	11:57:50	184001	5d728c6f1c91d40001a4b6ad	4	1	main_z	7	advance_on_keypress_ZEE	2	stimuli_distractor_diamondtriangles.svg	stimuli_target_squarediamonds.svg	16	yes	57	0	836	0	0			0	0			1				0	
6.6.1	win	2023-07-17	11:54:43	11:57:52	186062	5d728c6f1c91d40001a4b6ad	4	1	main_z	7	main_z	3	stimuli_target_diamondsquares.svg	stimuli_distractor_diamondtriangles.svg	24	yes	44	1	584	0	0			0	0			1				0	
6.6.1	win	2023-07-17	11:54:43	11:57:52	186062	5d728c6f1c91d40001a4b6ad	4	1	main_z	7	advance_on_keypress_ZEE	4	stimuli_target_diamondsquares.svg	stimuli_distractor_diamondtriangles.svg	24	yes	57	0	500	0	0			0	0			1				0	
6.6.1	win	2023-07-17	11:54:43	11:57:54	187740	5d728c6f1c91d40001a4b6ad	4	1	main_z	7	main_z	5	stimuli_distractor_diamondtriangles.svg	stimuli_target_trianglesquares.svg	30	yes	44	1	532	0	0			0	0			1				0	
6.6.1	win	2023-07-17	11:54:43	11:57:54	187740	5d728c6f1c91d40001a4b6ad	4	1	main_z	7	advance_on_keypress_ZEE	6	stimuli_distractor_diamondtriangles.svg	stimuli_target_trianglesquares.svg	30	yes	57	0	554	0	0			0	0			1				0	
6.6.1	win	2023-07-17	11:54:43	11:57:56	189371	5d728c6f1c91d40001a4b6ad	4	1	main_z	7	main_z	7	stimuli_distractor_diamondtriangles.svg	stimuli_target_diamondsquares.svg	32	yes	44	1	434	0	0			0	0			1				0	
6.6.1	win	2023-07-17	11:54:43	11:57:56	189371	5d728c6f1c91d40001a4b6ad	4	1	main_z	7	advance_on_keypress_ZEE	8	stimuli_distractor_diamondtriangles.svg	stimuli_target_diamondsquares.svg	32	yes	57	0	530	0	0			0	0			1				0	
6.6.1	win	2023-07-17	11:54:43	11:57:58	191368	5d728c6f1c91d40001a4b6ad	4	1	main_z	7	main_z	9	stimuli_distractor_diamondtriangles.svg	stimuli_target_rectangletriangles.svg	13	yes	44	1	817	0	0			0	0			1				0	
6.6.1	win	2023-07-17	11:54:43	11:57:58	191368	5d728c6f1c91d40001a4b6ad	4	1	main_z	7	advance_on_keypress_ZEE	10	stimuli_distractor_diamondtriangles.svg	stimuli_target_rectangletriangles.svg	13	yes	57	0	491	0	0			0	0			1				0	
6.6.1	win	2023-07-17	11:54:43	11:57:59	192883	5d728c6f1c91d40001a4b6ad	4	1	main_z	7	main_z	11	stimuli_target_rectanglediamonds.svg	stimuli_distractor_trianglediamonds.svg	2	yes	44	1	387	0	0			0	0			1				0	
6.6.1	win	2023-07-17	11:54:43	11:57:59	192883	5d728c6f1c91d40001a4b6ad	4	1	main_z	7	advance_on_keypress_ZEE	12	stimuli_target_rectanglediamonds.svg	stimuli_distractor_trianglediamonds.svg	2	yes	57	0	456	0	0			0	0			1				0	
6.6.1	win	2023-07-17	11:54:43	11:58:01	194380	5d728c6f1c91d40001a4b6ad	4	1	main_z	7	main_z	13	stimuli_distractor_trianglediamonds.svg	stimuli_target_diamondsquares.svg	28	yes	44	1	403	0	0			0	0			1				0	
6.6.1	win	2023-07-17	11:54:43	11:58:01	194380	5d728c6f1c91d40001a4b6ad	4	1	main_z	7	advance_on_keypress_ZEE	14	stimuli_distractor_trianglediamonds.svg	stimuli_target_diamondsquares.svg	28	yes	57	0	515	0	0			0	0			1				0	
6.6.1	win	2023-07-17	11:54:43	11:58:02	195944	5d728c6f1c91d40001a4b6ad	4	1	main_z	7	main_z	15	stimuli_target_trianglesquares.svg	stimuli_distractor_diamondtriangles.svg	22	yes	44	1	404	0	0			0	0			1				0	
6.6.1	win	2023-07-17	11:54:43	11:58:02	195944	5d728c6f1c91d40001a4b6ad	4	1	main_z	7	advance_on_keypress_ZEE	16	stimuli_target_trianglesquares.svg	stimuli_distractor_diamondtriangles.svg	22	yes	57	0	1086	0	0			0	0			1				0	
6.6.1	win	2023-07-17	11:54:43	11:58:06	199669	5d728c6f1c91d40001a4b6ad	4	1	main_z	7	main_z	17	stimuli_target_squarediamonds.svg	stimuli_distractor_diamondtriangles.svg	8	yes	0	0	2000	0	0			0	0			1				0	
6.6.1	win	2023-07-17	11:54:43	11:58:06	199669	5d728c6f1c91d40001a4b6ad	4	1	main_z	7	advance_on_keypress_ZEE	18	stimuli_target_squarediamonds.svg	stimuli_distractor_diamondtriangles.svg	8	yes	57	0	500	0	0			0	0			1				0	
6.6.1	win	2023-07-17	11:54:43	11:58:07	201213	5d728c6f1c91d40001a4b6ad	4	1	main_z	7	main_z	19	stimuli_distractor_trianglediamonds.svg	stimuli_target_diamondrectangles.svg	27	yes	44	1	401	0	0			0	0			1				0	
6.6.1	win	2023-07-17	11:54:43	11:58:07	201213	5d728c6f1c91d40001a4b6ad	4	1	main_z	7	advance_on_keypress_ZEE	20	stimuli_distractor_trianglediamonds.svg	stimuli_target_diamondrectangles.svg	27	yes	57	0	480	0	0			0	0			1				0	
6.6.1	win	2023-07-17	11:54:43	11:58:09	203028	5d728c6f1c91d40001a4b6ad	4	1	main_z	7	main_z	21	stimuli_distractor_trianglediamonds.svg	stimuli_distractor_trianglediamonds.svg	34	no	44	0	686	0	0			0	0			1				0	
6.6.1	win	2023-07-17	11:54:43	11:58:09	203028	5d728c6f1c91d40001a4b6ad	4	1	main_z	7	advance_on_keypress_ZEE	22	stimuli_distractor_trianglediamonds.svg	stimuli_distractor_trianglediamonds.svg	34	no	57	0	482	0	0			0	0			1				0	
6.6.1	win	2023-07-17	11:54:43	11:58:11	204758	5d728c6f1c91d40001a4b6ad	4	1	main_z	7	main_z	23	stimuli_target_diamondrectangles.svg	stimuli_distractor_trianglediamonds.svg	19	yes	44	1	603	0	0			0	0			1				0	
6.6.1	win	2023-07-17	11:54:43	11:58:11	204758	5d728c6f1c91d40001a4b6ad	4	1	main_z	7	advance_on_keypress_ZEE	24	stimuli_target_diamondrectangles.svg	stimuli_distractor_trianglediamonds.svg	19	yes	57	0	597	0	0			0	0			1				0	
6.6.1	win	2023-07-17	11:54:43	11:58:13	206605	5d728c6f1c91d40001a4b6ad	4	1	main_z	7	main_z	25	stimuli_target_rectangletriangles.svg	stimuli_distractor_trianglediamonds.svg	1	yes	44	1	603	0	0			0	0			1				0	
6.6.1	win	2023-07-17	11:54:43	11:58:13	206605	5d728c6f1c91d40001a4b6ad	4	1	main_z	7	advance_on_keypress_ZEE	26	stimuli_target_rectangletriangles.svg	stimuli_distractor_trianglediamonds.svg	1	yes	57	0	524	0	0			0	0			1				0	
6.6.1	win	2023-07-17	11:54:43	11:58:15	208682	5d728c6f1c91d40001a4b6ad	4	1	main_z	7	main_z	27	stimuli_target_trianglesquares.svg	stimuli_distractor_trianglediamonds.svg	18	yes	44	1	918	0	0			0	0			1				0	
6.6.1	win	2023-07-17	11:54:43	11:58:15	208682	5d728c6f1c91d40001a4b6ad	4	1	main_z	7	advance_on_keypress_ZEE	28	stimuli_target_trianglesquares.svg	stimuli_distractor_trianglediamonds.svg	18	yes	57	0	627	0	0			0	0			1				0	
6.6.1	win	2023-07-17	11:54:43	11:58:17	210627	5d728c6f1c91d40001a4b6ad	4	1	main_z	7	main_z	29	stimuli_distractor_trianglediamonds.svg	stimuli_target_trianglerectangles.svg	25	yes	44	1	684	0	0			0	0			1				0	
6.6.1	win	2023-07-17	11:54:43	11:58:17	210627	5d728c6f1c91d40001a4b6ad	4	1	main_z	7	advance_on_keypress_ZEE	30	stimuli_distractor_trianglediamonds.svg	stimuli_target_trianglerectangles.svg	25	yes	57	0	504	0	0			0	0			1				0	
6.6.1	win	2023-07-17	11:54:43	11:58:19	212440	5d728c6f1c91d40001a4b6ad	4	1	main_z	7	main_z	31	stimuli_distractor_trianglediamonds.svg	stimuli_target_rectangletriangles.svg	9	yes	44	1	668	0	0			0	0			1				0	
6.6.1	win	2023-07-17	11:54:43	11:58:19	212440	5d728c6f1c91d40001a4b6ad	4	1	main_z	7	advance_on_keypress_ZEE	32	stimuli_distractor_trianglediamonds.svg	stimuli_target_rectangletriangles.svg	9	yes	57	0	516	0	0			0	0			1				0	
6.6.1	win	2023-07-17	11:54:43	11:58:22	215602	5d728c6f1c91d40001a4b6ad	4	1	main_z	7	main_z	33	stimuli_distractor_diamondtriangles.svg	stimuli_distractor_diamondtriangles.svg	40	no	0	1	2000	0	0			0	0			1				0	
6.6.1	win	2023-07-17	11:54:43	11:58:22	215602	5d728c6f1c91d40001a4b6ad	4	1	main_z	7	advance_on_keypress_ZEE	34	stimuli_distractor_diamondtriangles.svg	stimuli_distractor_diamondtriangles.svg	40	no	57	0	452	0	0			0	0			1				0	
6.6.1	win	2023-07-17	11:54:43	11:58:24	217499	5d728c6f1c91d40001a4b6ad	4	1	main_z	7	main_z	35	stimuli_target_trianglerectangles.svg	stimuli_distractor_diamondtriangles.svg	21	yes	44	1	804	0	0			0	0			1				0	
6.6.1	win	2023-07-17	11:54:43	11:58:24	217499	5d728c6f1c91d40001a4b6ad	4	1	main_z	7	advance_on_keypress_ZEE	36	stimuli_target_trianglerectangles.svg	stimuli_distractor_diamondtriangles.svg	21	yes	57	0	520	0	0			0	0			1				0	
6.6.1	win	2023-07-17	11:54:43	11:58:26	219575	5d728c6f1c91d40001a4b6ad	4	1	main_z	7	main_z	37	stimuli_target_rectangletriangles.svg	stimuli_distractor_diamondtriangles.svg	5	yes	44	1	917	0	0			0	0			1				0	
6.6.1	win	2023-07-17	11:54:43	11:58:26	219575	5d728c6f1c91d40001a4b6ad	4	1	main_z	7	advance_on_keypress_ZEE	38	stimuli_target_rectangletriangles.svg	stimuli_distractor_diamondtriangles.svg	5	yes	57	0	578	0	0			0	0			1				0	
6.6.1	win	2023-07-17	11:54:43	11:58:28	221562	5d728c6f1c91d40001a4b6ad	4	1	main_z	7	main_z	39	stimuli_distractor_trianglediamonds.svg	stimuli_distractor_diamondtriangles.svg	35	no	44	0	775	0	0			0	0			1				0	
6.6.1	win	2023-07-17	11:54:43	11:58:28	221562	5d728c6f1c91d40001a4b6ad	4	1	main_z	7	advance_on_keypress_ZEE	40	stimuli_distractor_trianglediamonds.svg	stimuli_distractor_diamondtriangles.svg	35	no	57	0	535	0	0			0	0			1				0	
6.6.1	win	2023-07-17	11:54:43	11:58:30	223443	5d728c6f1c91d40001a4b6ad	4	1	main_z	7	main_z	41	stimuli_target_squaretriangles.svg	stimuli_distractor_trianglediamonds.svg	3	yes	44	1	711	0	0			0	0			1				0	
6.6.1	win	2023-07-17	11:54:43	11:58:30	223443	5d728c6f1c91d40001a4b6ad	4	1	main_z	7	advance_on_keypress_ZEE	42	stimuli_target_squaretriangles.svg	stimuli_distractor_trianglediamonds.svg	3	yes	57	0	576	0	0			0	0			1				0	
6.6.1	win	2023-07-17	11:54:43	11:58:33	226645	5d728c6f1c91d40001a4b6ad	4	1	main_z	7	main_z	43	stimuli_distractor_diamondtriangles.svg	stimuli_distractor_trianglediamonds.svg	37	no	0	1	2000	0	0			0	0			1				0	
6.6.1	win	2023-07-17	11:54:43	11:58:33	226645	5d728c6f1c91d40001a4b6ad	4	1	main_z	7	advance_on_keypress_ZEE	44	stimuli_distractor_diamondtriangles.svg	stimuli_distractor_trianglediamonds.svg	37	no	57	0	425	0	0			0	0			1				0	
6.6.1	win	2023-07-17	11:54:43	11:58:35	228374	5d728c6f1c91d40001a4b6ad	4	1	main_z	7	main_z	45	stimuli_distractor_trianglediamonds.svg	stimuli_target_rectanglediamonds.svg	10	yes	44	1	669	0	0			0	0			1				0	
6.6.1	win	2023-07-17	11:54:43	11:58:35	228374	5d728c6f1c91d40001a4b6ad	4	1	main_z	7	advance_on_keypress_ZEE	46	stimuli_distractor_trianglediamonds.svg	stimuli_target_rectanglediamonds.svg	10	yes	57	0	662	0	0			0	0			1				0	
6.6.1	win	2023-07-17	11:54:43	11:58:36	230210	5d728c6f1c91d40001a4b6ad	4	1	main_z	7	main_z	47	stimuli_distractor_trianglediamonds.svg	stimuli_target_squaretriangles.svg	11	yes	44	1	543	0	0			0	0			1				0	
6.6.1	win	2023-07-17	11:54:43	11:58:36	230210	5d728c6f1c91d40001a4b6ad	4	1	main_z	7	advance_on_keypress_ZEE	48	stimuli_distractor_trianglediamonds.svg	stimuli_target_squaretriangles.svg	11	yes	57	0	599	0	0			0	0			1				0	
6.6.1	win	2023-07-17	11:54:43	11:58:39	232511	5d728c6f1c91d40001a4b6ad	4	1	main_z	7	main_z	49	stimuli_target_trianglerectangles.svg	stimuli_distractor_trianglediamonds.svg	17	yes	44	1	1064	0	0			0	0			1				0	
6.6.1	win	2023-07-17	11:54:43	11:58:39	232511	5d728c6f1c91d40001a4b6ad	4	1	main_z	7	advance_on_keypress_ZEE	50	stimuli_target_trianglerectangles.svg	stimuli_distractor_trianglediamonds.svg	17	yes	57	0	560	0	0			0	0			1				0	
6.6.1	win	2023-07-17	11:54:43	11:58:40	234183	5d728c6f1c91d40001a4b6ad	4	1	main_z	7	main_z	51	stimuli_target_diamondsquares.svg	stimuli_distractor_trianglediamonds.svg	20	yes	44	1	474	0	0			0	0			1				0	
6.6.1	win	2023-07-17	11:54:43	11:58:40	234183	5d728c6f1c91d40001a4b6ad	4	1	main_z	7	advance_on_keypress_ZEE	52	stimuli_target_diamondsquares.svg	stimuli_distractor_trianglediamonds.svg	20	yes	57	0	607	0	0			0	0			1				0	
6.6.1	win	2023-07-17	11:54:43	11:58:42	236087	5d728c6f1c91d40001a4b6ad	4	1	main_z	7	main_z	53	stimuli_distractor_diamondtriangles.svg	stimuli_distractor_trianglediamonds.svg	38	no	44	0	664	0	0			0	0			1				0	
6.6.1	win	2023-07-17	11:54:43	11:58:42	236087	5d728c6f1c91d40001a4b6ad	4	1	main_z	7	advance_on_keypress_ZEE	54	stimuli_distractor_diamondtriangles.svg	stimuli_distractor_trianglediamonds.svg	38	no	57	0	787	0	0			0	0			1				0	
6.6.1	win	2023-07-17	11:54:43	11:58:44	238093	5d728c6f1c91d40001a4b6ad	4	1	main_z	7	main_z	55	stimuli_distractor_diamondtriangles.svg	stimuli_target_rectanglediamonds.svg	14	yes	44	1	575	0	0			0	0			1				0	
6.6.1	win	2023-07-17	11:54:43	11:58:44	238093	5d728c6f1c91d40001a4b6ad	4	1	main_z	7	advance_on_keypress_ZEE	56	stimuli_distractor_diamondtriangles.svg	stimuli_target_rectanglediamonds.svg	14	yes	57	0	506	0	0			0	0			1				0	
6.6.1	win	2023-07-17	11:54:43	11:58:47	241230	5d728c6f1c91d40001a4b6ad	4	1	main_z	7	main_z	57	stimuli_distractor_trianglediamonds.svg	stimuli_distractor_trianglediamonds.svg	33	no	0	1	2000	0	0			0	0			1				0	
6.6.1	win	2023-07-17	11:54:43	11:58:47	241230	5d728c6f1c91d40001a4b6ad	4	1	main_z	7	advance_on_keypress_ZEE	58	stimuli_distractor_trianglediamonds.svg	stimuli_distractor_trianglediamonds.svg	33	no	57	0	522	0	0			0	0			1				0	
6.6.1	win	2023-07-17	11:54:43	11:58:49	242754	5d728c6f1c91d40001a4b6ad	4	1	main_z	7	main_z	59	stimuli_distractor_diamondtriangles.svg	stimuli_target_squaretriangles.svg	15	yes	44	1	364	0	0			0	0			1				0	
6.6.1	win	2023-07-17	11:54:43	11:58:49	242754	5d728c6f1c91d40001a4b6ad	4	1	main_z	7	advance_on_keypress_ZEE	60	stimuli_distractor_diamondtriangles.svg	stimuli_target_squaretriangles.svg	15	yes	57	0	609	0	0			0	0			1				0	
6.6.1	win	2023-07-17	11:54:43	11:58:51	244458	5d728c6f1c91d40001a4b6ad	4	1	main_z	7	main_z	61	stimuli_target_squarediamonds.svg	stimuli_distractor_trianglediamonds.svg	4	yes	44	1	455	0	0			0	0			1				0	
6.6.1	win	2023-07-17	11:54:43	11:58:51	244458	5d728c6f1c91d40001a4b6ad	4	1	main_z	7	advance_on_keypress_ZEE	62	stimuli_target_squarediamonds.svg	stimuli_distractor_trianglediamonds.svg	4	yes	57	0	535	0	0			0	0			1				0	
6.6.1	win	2023-07-17	11:54:43	11:58:54	247634	5d728c6f1c91d40001a4b6ad	4	1	main_z	7	main_z	63	stimuli_distractor_trianglediamonds.svg	stimuli_distractor_diamondtriangles.svg	36	no	0	1	2000	0	0			0	0			1				0	
6.6.1	win	2023-07-17	11:54:43	11:58:54	247634	5d728c6f1c91d40001a4b6ad	4	1	main_z	7	advance_on_keypress_ZEE	64	stimuli_distractor_trianglediamonds.svg	stimuli_distractor_diamondtriangles.svg	36	no	57	0	388	0	0			0	0			1				0	
6.6.1	win	2023-07-17	11:54:43	11:58:55	249236	5d728c6f1c91d40001a4b6ad	4	1	main_z	7	main_z	65	stimuli_target_diamondrectangles.svg	stimuli_distractor_diamondtriangles.svg	23	yes	44	1	576	0	0			0	0			1				0	
6.6.1	win	2023-07-17	11:54:43	11:58:55	249236	5d728c6f1c91d40001a4b6ad	4	1	main_z	7	advance_on_keypress_ZEE	66	stimuli_target_diamondrectangles.svg	stimuli_distractor_diamondtriangles.svg	23	yes	57	0	452	0	0			0	0			1				0	
6.6.1	win	2023-07-17	11:54:43	11:58:57	250907	5d728c6f1c91d40001a4b6ad	4	1	main_z	7	main_z	67	stimuli_distractor_diamondtriangles.svg	stimuli_target_trianglerectangles.svg	29	yes	44	1	584	0	0			0	0			1				0	
6.6.1	win	2023-07-17	11:54:43	11:58:57	250907	5d728c6f1c91d40001a4b6ad	4	1	main_z	7	advance_on_keypress_ZEE	68	stimuli_distractor_diamondtriangles.svg	stimuli_target_trianglerectangles.svg	29	yes	57	0	456	0	0			0	0			1				0	
6.6.1	win	2023-07-17	11:54:43	11:58:59	252432	5d728c6f1c91d40001a4b6ad	4	1	main_z	7	main_z	69	stimuli_target_rectanglediamonds.svg	stimuli_distractor_diamondtriangles.svg	6	yes	44	1	429	0	0			0	0			1				0	
6.6.1	win	2023-07-17	11:54:43	11:58:59	252432	5d728c6f1c91d40001a4b6ad	4	1	main_z	7	advance_on_keypress_ZEE	70	stimuli_target_rectanglediamonds.svg	stimuli_distractor_diamondtriangles.svg	6	yes	57	0	550	0	0			0	0			1				0	
6.6.1	win	2023-07-17	11:54:43	11:59:00	254016	5d728c6f1c91d40001a4b6ad	4	1	main_z	7	main_z	71	stimuli_distractor_trianglediamonds.svg	stimuli_target_squarediamonds.svg	12	yes	44	1	383	0	0			0	0			1				0	
6.6.1	win	2023-07-17	11:54:43	11:59:00	254016	5d728c6f1c91d40001a4b6ad	4	1	main_z	7	advance_on_keypress_ZEE	72	stimuli_distractor_trianglediamonds.svg	stimuli_target_squarediamonds.svg	12	yes	57	0	532	0	0			0	0			1				0	
6.6.1	win	2023-07-17	11:54:43	11:59:02	255622	5d728c6f1c91d40001a4b6ad	4	1	main_z	7	main_z	73	stimuli_distractor_trianglediamonds.svg	stimuli_target_trianglesquares.svg	26	yes	44	1	425	0	0			0	0			1				0	
6.6.1	win	2023-07-17	11:54:43	11:59:02	255622	5d728c6f1c91d40001a4b6ad	4	1	main_z	7	advance_on_keypress_ZEE	74	stimuli_distractor_trianglediamonds.svg	stimuli_target_trianglesquares.svg	26	yes	57	0	728	0	0			0	0			1				0	
6.6.1	win	2023-07-17	11:54:43	11:59:04	257351	5d728c6f1c91d40001a4b6ad	4	1	main_z	7	main_z	75	stimuli_distractor_diamondtriangles.svg	stimuli_target_diamondrectangles.svg	31	yes	44	1	375	0	0			0	0			1				0	
6.6.1	win	2023-07-17	11:54:43	11:59:04	257351	5d728c6f1c91d40001a4b6ad	4	1	main_z	7	advance_on_keypress_ZEE	76	stimuli_distractor_diamondtriangles.svg	stimuli_target_diamondrectangles.svg	31	yes	57	0	490	0	0			0	0			1				0	
6.6.1	win	2023-07-17	11:54:43	11:59:05	258921	5d728c6f1c91d40001a4b6ad	4	1	main_z	7	main_z	77	stimuli_distractor_diamondtriangles.svg	stimuli_distractor_diamondtriangles.svg	39	no	44	0	448	0	0			0	0			1				0	
6.6.1	win	2023-07-17	11:54:43	11:59:05	258921	5d728c6f1c91d40001a4b6ad	4	1	main_z	7	advance_on_keypress_ZEE	78	stimuli_distractor_diamondtriangles.svg	stimuli_distractor_diamondtriangles.svg	39	no	57	0	825	0	0			0	0			1				0	
6.6.1	win	2023-07-17	11:54:43	11:59:09	262385	5d728c6f1c91d40001a4b6ad	4	1	main_z	7	main_z	79	stimuli_target_squaretriangles.svg	stimuli_distractor_diamondtriangles.svg	7	yes	0	0	2000	0	0			0	0			1				0	
6.6.1	win	2023-07-17	11:54:43	11:59:09	262385	5d728c6f1c91d40001a4b6ad	4	1	main_z	7	advance_on_keypress_ZEE	80	stimuli_target_squaretriangles.svg	stimuli_distractor_diamondtriangles.svg	7	yes	57	0	478	0	0			0	0			1				0	
6.6.1	win	2023-07-17	11:54:43	11:59:10	263978	5d728c6f1c91d40001a4b6ad	4	1	main_z	7	main_z	81	stimuli_target_trianglesquares.svg	stimuli_distractor_diamondtriangles.svg	22	yes	44	1	483	0	0			0	0			1				0	
6.6.1	win	2023-07-17	11:54:43	11:59:10	263978	5d728c6f1c91d40001a4b6ad	4	1	main_z	7	advance_on_keypress_ZEE	82	stimuli_target_trianglesquares.svg	stimuli_distractor_diamondtriangles.svg	22	yes	57	0	562	0	0			0	0			1				0	
6.6.1	win	2023-07-17	11:54:43	11:59:12	265641	5d728c6f1c91d40001a4b6ad	4	1	main_z	7	main_z	83	stimuli_distractor_trianglediamonds.svg	stimuli_target_trianglerectangles.svg	25	yes	44	1	466	0	0			0	0			1				0	
6.6.1	win	2023-07-17	11:54:43	11:59:12	265641	5d728c6f1c91d40001a4b6ad	4	1	main_z	7	advance_on_keypress_ZEE	84	stimuli_distractor_trianglediamonds.svg	stimuli_target_trianglerectangles.svg	25	yes	57	0	514	0	0			0	0			1				0	
6.6.1	win	2023-07-17	11:54:43	11:59:13	267222	5d728c6f1c91d40001a4b6ad	4	1	main_z	7	main_z	85	stimuli_distractor_diamondtriangles.svg	stimuli_target_trianglesquares.svg	30	yes	44	1	417	0	0			0	0			1				0	
6.6.1	win	2023-07-17	11:54:43	11:59:13	267222	5d728c6f1c91d40001a4b6ad	4	1	main_z	7	advance_on_keypress_ZEE	86	stimuli_distractor_diamondtriangles.svg	stimuli_target_trianglesquares.svg	30	yes	57	0	1518	0	0			0	0			1				0	
6.6.1	win	2023-07-17	11:54:43	11:59:16	269783	5d728c6f1c91d40001a4b6ad	4	1	main_z	7	main_z	87	stimuli_target_rectangletriangles.svg	stimuli_distractor_trianglediamonds.svg	1	yes	44	1	399	0	0			0	0			1				0	
6.6.1	win	2023-07-17	11:54:43	11:59:16	269783	5d728c6f1c91d40001a4b6ad	4	1	main_z	7	advance_on_keypress_ZEE	88	stimuli_target_rectangletriangles.svg	stimuli_distractor_trianglediamonds.svg	1	yes	57	0	739	0	0			0	0			1				0	
6.6.1	win	2023-07-17	11:54:43	11:59:18	271533	5d728c6f1c91d40001a4b6ad	4	1	main_z	7	main_z	89	stimuli_target_squarediamonds.svg	stimuli_distractor_trianglediamonds.svg	4	yes	44	1	369	0	0			0	0			1				0	
6.6.1	win	2023-07-17	11:54:43	11:59:18	271533	5d728c6f1c91d40001a4b6ad	4	1	main_z	7	advance_on_keypress_ZEE	90	stimuli_target_squarediamonds.svg	stimuli_distractor_trianglediamonds.svg	4	yes	57	0	532	0	0			0	0			1				0	
6.6.1	win	2023-07-17	11:54:43	11:59:19	273208	5d728c6f1c91d40001a4b6ad	4	1	main_z	7	main_z	91	stimuli_distractor_diamondtriangles.svg	stimuli_target_diamondrectangles.svg	31	yes	44	1	498	0	0			0	0			1				0	
6.6.1	win	2023-07-17	11:54:43	11:59:19	273208	5d728c6f1c91d40001a4b6ad	4	1	main_z	7	advance_on_keypress_ZEE	92	stimuli_distractor_diamondtriangles.svg	stimuli_target_diamondrectangles.svg	31	yes	57	0	429	0	0			0	0			1				0	
6.6.1	win	2023-07-17	11:54:43	11:59:21	275190	5d728c6f1c91d40001a4b6ad	4	1	main_z	7	main_z	93	stimuli_target_rectangletriangles.svg	stimuli_distractor_diamondtriangles.svg	5	yes	44	1	918	0	0			0	0			1				0	
6.6.1	win	2023-07-17	11:54:43	11:59:21	275190	5d728c6f1c91d40001a4b6ad	4	1	main_z	7	advance_on_keypress_ZEE	94	stimuli_target_rectangletriangles.svg	stimuli_distractor_diamondtriangles.svg	5	yes	57	0	477	0	0			0	0			1				0	
6.6.1	win	2023-07-17	11:54:43	11:59:23	276581	5d728c6f1c91d40001a4b6ad	4	1	main_z	7	main_z	95	stimuli_distractor_diamondtriangles.svg	stimuli_distractor_diamondtriangles.svg	39	no	44	0	279	0	0			0	0			1				0	
6.6.1	win	2023-07-17	11:54:43	11:59:23	276581	5d728c6f1c91d40001a4b6ad	4	1	main_z	7	advance_on_keypress_ZEE	96	stimuli_distractor_diamondtriangles.svg	stimuli_distractor_diamondtriangles.svg	39	no	57	0	678	0	0			0	0			1				0	
6.6.1	win	2023-07-17	11:54:43	11:59:26	279881	5d728c6f1c91d40001a4b6ad	4	1	main_z	7	main_z	97	stimuli_distractor_trianglediamonds.svg	stimuli_distractor_diamondtriangles.svg	36	no	0	1	2000	0	0			0	0			1				0	
6.6.1	win	2023-07-17	11:54:43	11:59:26	279881	5d728c6f1c91d40001a4b6ad	4	1	main_z	7	advance_on_keypress_ZEE	98	stimuli_distractor_trianglediamonds.svg	stimuli_distractor_diamondtriangles.svg	36	no	57	0	671	0	0			0	0			1				0	
6.6.1	win	2023-07-17	11:54:43	11:59:28	281578	5d728c6f1c91d40001a4b6ad	4	1	main_z	7	main_z	99	stimuli_distractor_diamondtriangles.svg	stimuli_target_diamondsquares.svg	32	yes	44	1	387	0	0			0	0			1				0	
6.6.1	win	2023-07-17	11:54:43	11:59:28	281578	5d728c6f1c91d40001a4b6ad	4	1	main_z	7	advance_on_keypress_ZEE	100	stimuli_distractor_diamondtriangles.svg	stimuli_target_diamondsquares.svg	32	yes	57	0	532	0	0			0	0			1				0	
6.6.1	win	2023-07-17	11:54:43	11:59:30	283529	5d728c6f1c91d40001a4b6ad	4	1	main_z	7	main_z	101	stimuli_distractor_diamondtriangles.svg	stimuli_target_rectangletriangles.svg	13	yes	44	1	775	0	0			0	0			1				0	
6.6.1	win	2023-07-17	11:54:43	11:59:30	283529	5d728c6f1c91d40001a4b6ad	4	1	main_z	7	advance_on_keypress_ZEE	102	stimuli_distractor_diamondtriangles.svg	stimuli_target_rectangletriangles.svg	13	yes	57	0	487	0	0			0	0			1				0	
6.6.1	win	2023-07-17	11:54:43	11:59:31	285111	5d728c6f1c91d40001a4b6ad	4	1	main_z	7	main_z	103	stimuli_target_diamondsquares.svg	stimuli_distractor_diamondtriangles.svg	24	yes	44	1	461	0	0			0	0			1				0	
6.6.1	win	2023-07-17	11:54:43	11:59:31	285111	5d728c6f1c91d40001a4b6ad	4	1	main_z	7	advance_on_keypress_ZEE	104	stimuli_target_diamondsquares.svg	stimuli_distractor_diamondtriangles.svg	24	yes	57	0	578	0	0			0	0			1				0	
6.6.1	win	2023-07-17	11:54:43	11:59:34	287394	5d728c6f1c91d40001a4b6ad	4	1	main_z	7	main_z	105	stimuli_target_trianglerectangles.svg	stimuli_distractor_diamondtriangles.svg	21	yes	44	1	1081	0	0			0	0			1				0	
6.6.1	win	2023-07-17	11:54:43	11:59:34	287394	5d728c6f1c91d40001a4b6ad	4	1	main_z	7	advance_on_keypress_ZEE	106	stimuli_target_trianglerectangles.svg	stimuli_distractor_diamondtriangles.svg	21	yes	57	0	526	0	0			0	0			1				0	
6.6.1	win	2023-07-17	11:54:43	11:59:36	289304	5d728c6f1c91d40001a4b6ad	4	1	main_z	7	main_z	107	stimuli_target_squaretriangles.svg	stimuli_distractor_trianglediamonds.svg	3	yes	44	1	746	0	0			0	0			1				0	
6.6.1	win	2023-07-17	11:54:43	11:59:36	289304	5d728c6f1c91d40001a4b6ad	4	1	main_z	7	advance_on_keypress_ZEE	108	stimuli_target_squaretriangles.svg	stimuli_distractor_trianglediamonds.svg	3	yes	57	0	667	0	0			0	0			1				0	
6.6.1	win	2023-07-17	11:54:43	11:59:37	291053	5d728c6f1c91d40001a4b6ad	4	1	main_z	7	main_z	109	stimuli_distractor_trianglediamonds.svg	stimuli_target_diamondrectangles.svg	27	yes	44	1	432	0	0			0	0			1				0	
6.6.1	win	2023-07-17	11:54:43	11:59:37	291053	5d728c6f1c91d40001a4b6ad	4	1	main_z	7	advance_on_keypress_ZEE	110	stimuli_distractor_trianglediamonds.svg	stimuli_target_diamondrectangles.svg	27	yes	57	0	1024	0	0			0	0			1				0	
6.6.1	win	2023-07-17	11:54:43	11:59:41	294717	5d728c6f1c91d40001a4b6ad	4	1	main_z	7	main_z	111	stimuli_distractor_trianglediamonds.svg	stimuli_distractor_trianglediamonds.svg	33	no	0	1	2000	0	0			0	0			1				0	
6.6.1	win	2023-07-17	11:54:43	11:59:41	294717	5d728c6f1c91d40001a4b6ad	4	1	main_z	7	advance_on_keypress_ZEE	112	stimuli_distractor_trianglediamonds.svg	stimuli_distractor_trianglediamonds.svg	33	no	57	0	1284	0	0			0	0			1				0	
6.6.1	win	2023-07-17	11:54:43	11:59:45	298642	5d728c6f1c91d40001a4b6ad	4	1	main_z	7	main_z	113	stimuli_distractor_trianglediamonds.svg	stimuli_distractor_diamondtriangles.svg	35	no	0	1	2000	0	0			0	0			1				0	
6.6.1	win	2023-07-17	11:54:43	11:59:45	298642	5d728c6f1c91d40001a4b6ad	4	1	main_z	7	advance_on_keypress_ZEE	114	stimuli_distractor_trianglediamonds.svg	stimuli_distractor_diamondtriangles.svg	35	no	57	0	351	0	0			0	0			1				0	
6.6.1	win	2023-07-17	11:54:43	11:59:48	301637	5d728c6f1c91d40001a4b6ad	4	1	main_z	7	main_z	115	stimuli_distractor_diamondtriangles.svg	stimuli_distractor_trianglediamonds.svg	38	no	0	1	2000	0	0			0	0			1				0	
6.6.1	win	2023-07-17	11:54:43	11:59:48	301637	5d728c6f1c91d40001a4b6ad	4	1	main_z	7	advance_on_keypress_ZEE	116	stimuli_distractor_diamondtriangles.svg	stimuli_distractor_trianglediamonds.svg	38	no	57	0	377	0	0			0	0			1				0	
6.6.1	win	2023-07-17	11:54:43	11:59:51	304645	5d728c6f1c91d40001a4b6ad	4	1	main_z	7	main_z	117	stimuli_distractor_trianglediamonds.svg	stimuli_target_squaretriangles.svg	11	yes	0	0	2000	0	0			0	0			1				0	
6.6.1	win	2023-07-17	11:54:43	11:59:51	304645	5d728c6f1c91d40001a4b6ad	4	1	main_z	7	advance_on_keypress_ZEE	118	stimuli_distractor_trianglediamonds.svg	stimuli_target_squaretriangles.svg	11	yes	57	0	430	0	0			0	0			1				0	
6.6.1	win	2023-07-17	11:54:43	11:59:53	306322	5d728c6f1c91d40001a4b6ad	4	1	main_z	7	main_z	119	stimuli_target_diamondrectangles.svg	stimuli_distractor_trianglediamonds.svg	19	yes	44	1	617	0	0			0	0			1				0	
6.6.1	win	2023-07-17	11:54:43	11:59:53	306322	5d728c6f1c91d40001a4b6ad	4	1	main_z	7	advance_on_keypress_ZEE	120	stimuli_target_diamondrectangles.svg	stimuli_distractor_trianglediamonds.svg	19	yes	57	0	740	0	0			0	0			1				0	
6.6.1	win	2023-07-17	11:54:43	11:59:55	308387	5d728c6f1c91d40001a4b6ad	4	1	main_z	7	main_z	121	stimuli_distractor_trianglediamonds.svg	stimuli_target_diamondsquares.svg	28	yes	44	1	686	0	0			0	0			1				0	
6.6.1	win	2023-07-17	11:54:43	11:59:55	308387	5d728c6f1c91d40001a4b6ad	4	1	main_z	7	advance_on_keypress_ZEE	122	stimuli_distractor_trianglediamonds.svg	stimuli_target_diamondsquares.svg	28	yes	57	0	2954	0	0			0	0			1				0	
6.6.1	win	2023-07-17	11:54:43	12:00:00	313975	5d728c6f1c91d40001a4b6ad	4	1	main_z	7	main_z	123	stimuli_distractor_trianglediamonds.svg	stimuli_target_rectangletriangles.svg	9	yes	0	0	2000	0	0			0	0			1				0	
6.6.1	win	2023-07-17	11:54:43	12:00:00	313975	5d728c6f1c91d40001a4b6ad	4	1	main_z	7	advance_on_keypress_ZEE	124	stimuli_distractor_trianglediamonds.svg	stimuli_target_rectangletriangles.svg	9	yes	57	0	376	0	0			0	0			1				0	
6.6.1	win	2023-07-17	11:54:43	12:00:02	315495	5d728c6f1c91d40001a4b6ad	4	1	main_z	7	main_z	125	stimuli_distractor_diamondtriangles.svg	stimuli_target_squaretriangles.svg	15	yes	44	1	510	0	0			0	0			1				0	
6.6.1	win	2023-07-17	11:54:43	12:00:02	315495	5d728c6f1c91d40001a4b6ad	4	1	main_z	7	advance_on_keypress_ZEE	126	stimuli_distractor_diamondtriangles.svg	stimuli_target_squaretriangles.svg	15	yes	57	0	3119	0	0			0	0			1				0	
6.6.1	win	2023-07-17	11:54:43	12:00:06	319940	5d728c6f1c91d40001a4b6ad	4	1	main_z	7	main_z	127	stimuli_target_squarediamonds.svg	stimuli_distractor_diamondtriangles.svg	8	yes	44	1	697	0	0			0	0			1				0	
6.6.1	win	2023-07-17	11:54:43	12:00:06	319940	5d728c6f1c91d40001a4b6ad	4	1	main_z	7	advance_on_keypress_ZEE	128	stimuli_target_squarediamonds.svg	stimuli_distractor_diamondtriangles.svg	8	yes	57	0	1473	0	0			0	0			1				0	
6.6.1	win	2023-07-17	11:54:43	12:00:09	322604	5d728c6f1c91d40001a4b6ad	4	1	main_z	7	main_z	129	stimuli_distractor_diamondtriangles.svg	stimuli_target_squarediamonds.svg	16	yes	44	1	550	0	0			0	0			1				0	
6.6.1	win	2023-07-17	11:54:43	12:00:09	322604	5d728c6f1c91d40001a4b6ad	4	1	main_z	7	advance_on_keypress_ZEE	130	stimuli_distractor_diamondtriangles.svg	stimuli_target_squarediamonds.svg	16	yes	57	0	697	0	0			0	0			1				0	
6.6.1	win	2023-07-17	11:54:43	12:00:11	324733	5d728c6f1c91d40001a4b6ad	4	1	main_z	7	main_z	131	stimuli_target_trianglesquares.svg	stimuli_distractor_trianglediamonds.svg	18	yes	44	1	783	0	0			0	0			1				0	
6.6.1	win	2023-07-17	11:54:43	12:00:11	324733	5d728c6f1c91d40001a4b6ad	4	1	main_z	7	advance_on_keypress_ZEE	132	stimuli_target_trianglesquares.svg	stimuli_distractor_trianglediamonds.svg	18	yes	57	0	522	0	0			0	0			1				0	
6.6.1	win	2023-07-17	11:54:43	12:00:13	326383	5d728c6f1c91d40001a4b6ad	4	1	main_z	7	main_z	133	stimuli_target_rectanglediamonds.svg	stimuli_distractor_diamondtriangles.svg	6	yes	44	1	488	0	0			0	0			1				0	
6.6.1	win	2023-07-17	11:54:43	12:00:13	326383	5d728c6f1c91d40001a4b6ad	4	1	main_z	7	advance_on_keypress_ZEE	134	stimuli_target_rectanglediamonds.svg	stimuli_distractor_diamondtriangles.svg	6	yes	57	0	563	0	0			0	0			1				0	
6.6.1	win	2023-07-17	11:54:43	12:00:16	329575	5d728c6f1c91d40001a4b6ad	4	1	main_z	7	main_z	135	stimuli_distractor_trianglediamonds.svg	stimuli_distractor_trianglediamonds.svg	34	no	0	1	2000	0	0			0	0			1				0	
6.6.1	win	2023-07-17	11:54:43	12:00:16	329575	5d728c6f1c91d40001a4b6ad	4	1	main_z	7	advance_on_keypress_ZEE	136	stimuli_distractor_trianglediamonds.svg	stimuli_distractor_trianglediamonds.svg	34	no	57	0	4102	0	0			0	0			1				0	
6.6.1	win	2023-07-17	11:54:43	12:00:23	336311	5d728c6f1c91d40001a4b6ad	4	1	main_z	7	main_z	137	stimuli_distractor_diamondtriangles.svg	stimuli_distractor_diamondtriangles.svg	40	no	0	1	2000	0	0			0	0			1				0	
6.6.1	win	2023-07-17	11:54:43	12:00:23	336311	5d728c6f1c91d40001a4b6ad	4	1	main_z	7	advance_on_keypress_ZEE	138	stimuli_distractor_diamondtriangles.svg	stimuli_distractor_diamondtriangles.svg	40	no	57	0	365	0	0			0	0			1				0	
6.6.1	win	2023-07-17	11:54:43	12:00:24	337809	5d728c6f1c91d40001a4b6ad	4	1	main_z	7	main_z	139	stimuli_distractor_trianglediamonds.svg	stimuli_target_squarediamonds.svg	12	yes	44	1	487	0	0			0	0			1				0	
6.6.1	win	2023-07-17	11:54:43	12:00:24	337809	5d728c6f1c91d40001a4b6ad	4	1	main_z	7	advance_on_keypress_ZEE	140	stimuli_distractor_trianglediamonds.svg	stimuli_target_squarediamonds.svg	12	yes	57	0	606	0	0			0	0			1				0	
6.6.1	win	2023-07-17	11:54:43	12:00:26	339509	5d728c6f1c91d40001a4b6ad	4	1	main_z	7	main_z	141	stimuli_target_squaretriangles.svg	stimuli_distractor_diamondtriangles.svg	7	yes	44	1	458	0	0			0	0			1				0	
6.6.1	win	2023-07-17	11:54:43	12:00:26	339509	5d728c6f1c91d40001a4b6ad	4	1	main_z	7	advance_on_keypress_ZEE	142	stimuli_target_squaretriangles.svg	stimuli_distractor_diamondtriangles.svg	7	yes	57	0	571	0	0			0	0			1				0	
6.6.1	win	2023-07-17	11:54:43	12:00:29	342714	5d728c6f1c91d40001a4b6ad	4	1	main_z	7	main_z	143	stimuli_distractor_diamondtriangles.svg	stimuli_distractor_trianglediamonds.svg	37	no	0	1	2000	0	0			0	0			1				0	
6.6.1	win	2023-07-17	11:54:43	12:00:29	342714	5d728c6f1c91d40001a4b6ad	4	1	main_z	7	advance_on_keypress_ZEE	144	stimuli_distractor_diamondtriangles.svg	stimuli_distractor_trianglediamonds.svg	37	no	57	0	407	0	0			0	0			1				0	
6.6.1	win	2023-07-17	11:54:43	12:00:31	344249	5d728c6f1c91d40001a4b6ad	4	1	main_z	7	main_z	145	stimuli_target_trianglerectangles.svg	stimuli_distractor_trianglediamonds.svg	17	yes	44	1	492	0	0			0	0			1				0	
6.6.1	win	2023-07-17	11:54:43	12:00:31	344249	5d728c6f1c91d40001a4b6ad	4	1	main_z	7	advance_on_keypress_ZEE	146	stimuli_target_trianglerectangles.svg	stimuli_distractor_trianglediamonds.svg	17	yes	57	0	452	0	0			0	0			1				0	
6.6.1	win	2023-07-17	11:54:43	12:00:32	345828	5d728c6f1c91d40001a4b6ad	4	1	main_z	7	main_z	147	stimuli_target_diamondrectangles.svg	stimuli_distractor_diamondtriangles.svg	23	yes	44	1	491	0	0			0	0			1				0	
6.6.1	win	2023-07-17	11:54:43	12:00:32	345828	5d728c6f1c91d40001a4b6ad	4	1	main_z	7	advance_on_keypress_ZEE	148	stimuli_target_diamondrectangles.svg	stimuli_distractor_diamondtriangles.svg	23	yes	57	0	482	0	0			0	0			1				0	
6.6.1	win	2023-07-17	11:54:43	12:00:34	347431	5d728c6f1c91d40001a4b6ad	4	1	main_z	7	main_z	149	stimuli_target_rectanglediamonds.svg	stimuli_distractor_trianglediamonds.svg	2	yes	44	1	480	0	0			0	0			1				0	
6.6.1	win	2023-07-17	11:54:43	12:00:34	347431	5d728c6f1c91d40001a4b6ad	4	1	main_z	7	advance_on_keypress_ZEE	150	stimuli_target_rectanglediamonds.svg	stimuli_distractor_trianglediamonds.svg	2	yes	57	0	520	0	0			0	0			1				0	
6.6.1	win	2023-07-17	11:54:43	12:00:35	348992	5d728c6f1c91d40001a4b6ad	4	1	main_z	7	main_z	151	stimuli_distractor_diamondtriangles.svg	stimuli_target_rectanglediamonds.svg	14	yes	44	1	395	0	0			0	0			1				0	
6.6.1	win	2023-07-17	11:54:43	12:00:35	348992	5d728c6f1c91d40001a4b6ad	4	1	main_z	7	advance_on_keypress_ZEE	152	stimuli_distractor_diamondtriangles.svg	stimuli_target_rectanglediamonds.svg	14	yes	57	0	539	0	0			0	0			1				0	
6.6.1	win	2023-07-17	11:54:43	12:00:37	350872	5d728c6f1c91d40001a4b6ad	4	1	main_z	7	main_z	153	stimuli_distractor_trianglediamonds.svg	stimuli_target_trianglesquares.svg	26	yes	44	1	712	0	0			0	0			1				0	
6.6.1	win	2023-07-17	11:54:43	12:00:37	350872	5d728c6f1c91d40001a4b6ad	4	1	main_z	7	advance_on_keypress_ZEE	154	stimuli_distractor_trianglediamonds.svg	stimuli_target_trianglesquares.svg	26	yes	57	0	490	0	0			0	0			1				0	
6.6.1	win	2023-07-17	11:54:43	12:00:39	352434	5d728c6f1c91d40001a4b6ad	4	1	main_z	7	main_z	155	stimuli_distractor_trianglediamonds.svg	stimuli_target_rectanglediamonds.svg	10	yes	44	1	428	0	0			0	0			1				0	
6.6.1	win	2023-07-17	11:54:43	12:00:39	352434	5d728c6f1c91d40001a4b6ad	4	1	main_z	7	advance_on_keypress_ZEE	156	stimuli_distractor_trianglediamonds.svg	stimuli_target_rectanglediamonds.svg	10	yes	57	0	595	0	0			0	0			1				0	
6.6.1	win	2023-07-17	11:54:43	12:00:41	354530	5d728c6f1c91d40001a4b6ad	4	1	main_z	7	main_z	157	stimuli_target_diamondsquares.svg	stimuli_distractor_trianglediamonds.svg	20	yes	44	1	876	0	0			0	0			1				0	
6.6.1	win	2023-07-17	11:54:43	12:00:41	354530	5d728c6f1c91d40001a4b6ad	4	1	main_z	7	advance_on_keypress_ZEE	158	stimuli_target_diamondsquares.svg	stimuli_distractor_trianglediamonds.svg	20	yes	57	0	10791	0	0			0	0			1				0	
6.6.1	win	2023-07-17	11:54:43	12:00:53	366351	5d728c6f1c91d40001a4b6ad	4	1	main_z	7	main_z	159	stimuli_distractor_diamondtriangles.svg	stimuli_target_trianglerectangles.svg	29	yes	44	1	408	0	0			0	0			1				0	
6.6.1	win	2023-07-17	11:54:43	12:00:53	366351	5d728c6f1c91d40001a4b6ad	4	1	main_z	7	advance_on_keypress_ZEE	160	stimuli_distractor_diamondtriangles.svg	stimuli_target_trianglerectangles.svg	29	yes	57	0	876	0	0			0	0			1				0	
6.6.1	win	2023-07-17	11:54:43	12:01:58	432188	5d728c6f1c91d40001a4b6ad	4	1	practice_slash	9	practice_slash	1	stimuli_distractor_diamondtriangles.svg	stimuli_target_rectangletriangles.svg	7	yes	53	1	349	0	0			0	0			1				0	
6.6.1	win	2023-07-17	11:54:43	12:01:58	432188	5d728c6f1c91d40001a4b6ad	4	1	practice_slash	9	advance_on_keypress_SLASH	2	stimuli_distractor_diamondtriangles.svg	stimuli_target_rectangletriangles.svg	7	yes	57	0	634	0	0			0	0			1				0	
6.6.1	win	2023-07-17	11:54:43	12:02:01	435049	5d728c6f1c91d40001a4b6ad	4	1	practice_slash	9	practice_slash	3	stimuli_distractor_diamondtriangles.svg	stimuli_distractor_trianglediamonds.svg	14	no	53	0	583	0	0			0	0			1				0	
6.6.1	win	2023-07-17	11:54:43	12:02:01	435049	5d728c6f1c91d40001a4b6ad	4	1	practice_slash	9	advance_on_keypress_SLASH	4	stimuli_distractor_diamondtriangles.svg	stimuli_distractor_trianglediamonds.svg	14	no	57	0	470	0	0			0	0			1				0	
6.6.1	win	2023-07-17	11:54:43	12:02:04	437566	5d728c6f1c91d40001a4b6ad	4	1	practice_slash	9	practice_slash	5	stimuli_distractor_trianglediamonds.svg	stimuli_target_squarediamonds.svg	11	yes	53	1	405	0	0			0	0			1				0	
6.6.1	win	2023-07-17	11:54:43	12:02:04	437566	5d728c6f1c91d40001a4b6ad	4	1	practice_slash	9	advance_on_keypress_SLASH	6	stimuli_distractor_trianglediamonds.svg	stimuli_target_squarediamonds.svg	11	yes	57	0	1229	0	0			0	0			1				0	
6.6.1	win	2023-07-17	11:54:43	12:02:07	440900	5d728c6f1c91d40001a4b6ad	4	1	practice_slash	9	practice_slash	7	stimuli_target_squarediamonds.svg	stimuli_distractor_diamondtriangles.svg	2	yes	53	1	463	0	0			0	0			1				0	
6.6.1	win	2023-07-17	11:54:43	12:02:07	440900	5d728c6f1c91d40001a4b6ad	4	1	practice_slash	9	advance_on_keypress_SLASH	8	stimuli_target_squarediamonds.svg	stimuli_distractor_diamondtriangles.svg	2	yes	57	0	452	0	0			0	0			1				0	
6.6.1	win	2023-07-17	11:54:43	12:02:11	444998	5d728c6f1c91d40001a4b6ad	4	1	practice_slash	9	practice_slash	9	stimuli_target_diamondsquares.svg	stimuli_distractor_diamondtriangles.svg	3	yes	0	0	2000	0	0			0	0			1				0	
6.6.1	win	2023-07-17	11:54:43	12:02:11	444998	5d728c6f1c91d40001a4b6ad	4	1	practice_slash	9	advance_on_keypress_SLASH	10	stimuli_target_diamondsquares.svg	stimuli_distractor_diamondtriangles.svg	3	yes	57	0	472	0	0			0	0			1				0	
6.6.1	win	2023-07-17	11:54:43	12:02:14	447507	5d728c6f1c91d40001a4b6ad	4	1	practice_slash	9	practice_slash	11	stimuli_distractor_trianglediamonds.svg	stimuli_target_diamondrectangles.svg	12	yes	53	1	400	0	0			0	0			1				0	
6.6.1	win	2023-07-17	11:54:43	12:02:14	447507	5d728c6f1c91d40001a4b6ad	4	1	practice_slash	9	advance_on_keypress_SLASH	12	stimuli_distractor_trianglediamonds.svg	stimuli_target_diamondrectangles.svg	12	yes	57	0	411	0	0			0	0			1				0	
6.6.1	win	2023-07-17	11:54:43	12:02:16	449908	5d728c6f1c91d40001a4b6ad	4	1	practice_slash	9	practice_slash	13	stimuli_distractor_diamondtriangles.svg	stimuli_target_trianglerectangles.svg	9	yes	53	1	357	0	0			0	0			1				0	
6.6.1	win	2023-07-17	11:54:43	12:02:16	449908	5d728c6f1c91d40001a4b6ad	4	1	practice_slash	9	advance_on_keypress_SLASH	14	stimuli_distractor_diamondtriangles.svg	stimuli_target_trianglerectangles.svg	9	yes	57	0	379	0	0			0	0			1				0	
6.6.1	win	2023-07-17	11:54:43	12:02:19	452460	5d728c6f1c91d40001a4b6ad	4	1	practice_slash	9	practice_slash	15	stimuli_distractor_trianglediamonds.svg	stimuli_distractor_diamondtriangles.svg	16	no	53	0	548	0	0			0	0			1				0	
6.6.1	win	2023-07-17	11:54:43	12:02:19	452460	5d728c6f1c91d40001a4b6ad	4	1	practice_slash	9	advance_on_keypress_SLASH	16	stimuli_distractor_trianglediamonds.svg	stimuli_distractor_diamondtriangles.svg	16	no	57	0	459	0	0			0	0			1				0	
6.6.1	win	2023-07-17	11:54:43	12:02:21	455087	5d728c6f1c91d40001a4b6ad	4	1	practice_slash	9	practice_slash	17	stimuli_target_rectanglediamonds.svg	stimuli_distractor_trianglediamonds.svg	4	yes	53	1	530	0	0			0	0			1				0	
6.6.1	win	2023-07-17	11:54:43	12:02:21	455087	5d728c6f1c91d40001a4b6ad	4	1	practice_slash	9	advance_on_keypress_SLASH	18	stimuli_target_rectanglediamonds.svg	stimuli_distractor_trianglediamonds.svg	4	yes	57	0	379	0	0			0	0			1				0	
6.6.1	win	2023-07-17	11:54:43	12:02:24	457781	5d728c6f1c91d40001a4b6ad	4	1	practice_slash	9	practice_slash	19	stimuli_distractor_trianglediamonds.svg	stimuli_target_rectanglediamonds.svg	10	yes	53	1	679	0	0			0	0			1				0	
6.6.1	win	2023-07-17	11:54:43	12:02:24	457781	5d728c6f1c91d40001a4b6ad	4	1	practice_slash	9	advance_on_keypress_SLASH	20	stimuli_distractor_trianglediamonds.svg	stimuli_target_rectanglediamonds.svg	10	yes	57	0	581	0	0			0	0			1				0	
6.6.1	win	2023-07-17	11:54:43	12:02:27	460448	5d728c6f1c91d40001a4b6ad	4	1	practice_slash	9	practice_slash	21	stimuli_target_diamondsquares.svg	stimuli_distractor_trianglediamonds.svg	6	yes	53	1	436	0	0			0	0			1				0	
6.6.1	win	2023-07-17	11:54:43	12:02:27	460448	5d728c6f1c91d40001a4b6ad	4	1	practice_slash	9	advance_on_keypress_SLASH	22	stimuli_target_diamondsquares.svg	stimuli_distractor_trianglediamonds.svg	6	yes	57	0	402	0	0			0	0			1				0	
6.6.1	win	2023-07-17	11:54:43	12:02:31	464491	5d728c6f1c91d40001a4b6ad	4	1	practice_slash	9	practice_slash	23	stimuli_distractor_diamondtriangles.svg	stimuli_distractor_diamondtriangles.svg	13	no	0	1	2000	0	0			0	0			1				0	
6.6.1	win	2023-07-17	11:54:43	12:02:31	464491	5d728c6f1c91d40001a4b6ad	4	1	practice_slash	9	advance_on_keypress_SLASH	24	stimuli_distractor_diamondtriangles.svg	stimuli_distractor_diamondtriangles.svg	13	no	57	0	365	0	0			0	0			1				0	
6.6.1	win	2023-07-17	11:54:43	12:02:35	468498	5d728c6f1c91d40001a4b6ad	4	1	practice_slash	9	practice_slash	25	stimuli_distractor_trianglediamonds.svg	stimuli_distractor_trianglediamonds.svg	15	no	0	1	2000	0	0			0	0			1				0	
6.6.1	win	2023-07-17	11:54:43	12:02:35	468498	5d728c6f1c91d40001a4b6ad	4	1	practice_slash	9	advance_on_keypress_SLASH	26	stimuli_distractor_trianglediamonds.svg	stimuli_distractor_trianglediamonds.svg	15	no	57	0	364	0	0			0	0			1				0	
6.6.1	win	2023-07-17	11:54:43	12:02:37	471088	5d728c6f1c91d40001a4b6ad	4	1	practice_slash	9	practice_slash	27	stimuli_target_squarediamonds.svg	stimuli_distractor_trianglediamonds.svg	5	yes	53	1	582	0	0			0	0			1				0	
6.6.1	win	2023-07-17	11:54:43	12:02:37	471088	5d728c6f1c91d40001a4b6ad	4	1	practice_slash	9	advance_on_keypress_SLASH	28	stimuli_target_squarediamonds.svg	stimuli_distractor_trianglediamonds.svg	5	yes	57	0	404	0	0			0	0			1				0	
6.6.1	win	2023-07-17	11:54:43	12:02:40	473574	5d728c6f1c91d40001a4b6ad	4	1	practice_slash	9	practice_slash	29	stimuli_distractor_diamondtriangles.svg	stimuli_target_diamondrectangles.svg	8	yes	53	1	440	0	0			0	0			1				0	
6.6.1	win	2023-07-17	11:54:43	12:02:40	473574	5d728c6f1c91d40001a4b6ad	4	1	practice_slash	9	advance_on_keypress_SLASH	30	stimuli_distractor_diamondtriangles.svg	stimuli_target_diamondrectangles.svg	8	yes	57	0	469	0	0			0	0			1				0	
6.6.1	win	2023-07-17	11:54:43	12:02:43	476264	5d728c6f1c91d40001a4b6ad	4	1	practice_slash	9	practice_slash	31	stimuli_target_rectanglediamonds.svg	stimuli_distractor_diamondtriangles.svg	1	yes	53	1	585	0	0			0	0			1				0	
6.6.1	win	2023-07-17	11:54:43	12:02:43	476264	5d728c6f1c91d40001a4b6ad	4	1	practice_slash	9	advance_on_keypress_SLASH	32	stimuli_target_rectanglediamonds.svg	stimuli_distractor_diamondtriangles.svg	1	yes	57	0	375	0	0			0	0			1				0	
6.6.1	win	2023-07-17	11:54:43	12:02:50	483286	5d728c6f1c91d40001a4b6ad	4	1	main_slash	11	main_slash	1	stimuli_distractor_trianglediamonds.svg	stimuli_target_squaretriangles.svg	11	yes	53	1	525	0	0			0	0			1				0	
6.6.1	win	2023-07-17	11:54:43	12:02:50	483286	5d728c6f1c91d40001a4b6ad	4	1	main_slash	11	advance_on_keypress_SLASH	2	stimuli_distractor_trianglediamonds.svg	stimuli_target_squaretriangles.svg	11	yes	57	0	802	0	0			0	0			1				0	
6.6.1	win	2023-07-17	11:54:43	12:02:52	485247	5d728c6f1c91d40001a4b6ad	4	1	main_slash	11	main_slash	3	stimuli_distractor_diamondtriangles.svg	stimuli_target_rectanglediamonds.svg	14	yes	53	1	523	0	0			0	0			1				0	
6.6.1	win	2023-07-17	11:54:43	12:02:52	485247	5d728c6f1c91d40001a4b6ad	4	1	main_slash	11	advance_on_keypress_SLASH	4	stimuli_distractor_diamondtriangles.svg	stimuli_target_rectanglediamonds.svg	14	yes	57	0	436	0	0			0	0			1				0	
6.6.1	win	2023-07-17	11:54:43	12:02:55	488320	5d728c6f1c91d40001a4b6ad	4	1	main_slash	11	main_slash	5	stimuli_target_diamondrectangles.svg	stimuli_distractor_trianglediamonds.svg	19	yes	0	0	2000	0	0			0	0			1				0	
6.6.1	win	2023-07-17	11:54:43	12:02:55	488320	5d728c6f1c91d40001a4b6ad	4	1	main_slash	11	advance_on_keypress_SLASH	6	stimuli_target_diamondrectangles.svg	stimuli_distractor_trianglediamonds.svg	19	yes	57	0	406	0	0			0	0			1				0	
6.6.1	win	2023-07-17	11:54:43	12:02:56	489879	5d728c6f1c91d40001a4b6ad	4	1	main_slash	11	main_slash	7	stimuli_distractor_diamondtriangles.svg	stimuli_target_squaretriangles.svg	15	yes	53	1	512	0	0			0	0			1				0	
6.6.1	win	2023-07-17	11:54:43	12:02:56	489879	5d728c6f1c91d40001a4b6ad	4	1	main_slash	11	advance_on_keypress_SLASH	8	stimuli_distractor_diamondtriangles.svg	stimuli_target_squaretriangles.svg	15	yes	57	0	507	0	0			0	0			1				0	
6.6.1	win	2023-07-17	11:54:43	12:02:59	493027	5d728c6f1c91d40001a4b6ad	4	1	main_slash	11	main_slash	9	stimuli_distractor_diamondtriangles.svg	stimuli_distractor_diamondtriangles.svg	40	no	0	1	2000	0	0			0	0			1				0	
6.6.1	win	2023-07-17	11:54:43	12:02:59	493027	5d728c6f1c91d40001a4b6ad	4	1	main_slash	11	advance_on_keypress_SLASH	10	stimuli_distractor_diamondtriangles.svg	stimuli_distractor_diamondtriangles.svg	40	no	57	0	333	0	0			0	0			1				0	
6.6.1	win	2023-07-17	11:54:43	12:03:01	494365	5d728c6f1c91d40001a4b6ad	4	1	main_slash	11	main_slash	11	stimuli_distractor_trianglediamonds.svg	stimuli_target_diamondsquares.svg	28	yes	53	1	361	0	0			0	0			1				0	
6.6.1	win	2023-07-17	11:54:43	12:03:01	494365	5d728c6f1c91d40001a4b6ad	4	1	main_slash	11	advance_on_keypress_SLASH	12	stimuli_distractor_trianglediamonds.svg	stimuli_target_diamondsquares.svg	28	yes	57	0	550	0	0			0	0			1				0	
6.6.1	win	2023-07-17	11:54:43	12:03:02	495932	5d728c6f1c91d40001a4b6ad	4	1	main_slash	11	main_slash	13	stimuli_distractor_diamondtriangles.svg	stimuli_target_diamondrectangles.svg	31	yes	53	1	377	0	0			0	0			1				0	
6.6.1	win	2023-07-17	11:54:43	12:03:02	495932	5d728c6f1c91d40001a4b6ad	4	1	main_slash	11	advance_on_keypress_SLASH	14	stimuli_distractor_diamondtriangles.svg	stimuli_target_diamondrectangles.svg	31	yes	57	0	425	0	0			0	0			1				0	
6.6.1	win	2023-07-17	11:54:43	12:03:04	497379	5d728c6f1c91d40001a4b6ad	4	1	main_slash	11	main_slash	15	stimuli_distractor_diamondtriangles.svg	stimuli_target_squarediamonds.svg	16	yes	53	1	369	0	0			0	0			1				0	
6.6.1	win	2023-07-17	11:54:43	12:03:04	497379	5d728c6f1c91d40001a4b6ad	4	1	main_slash	11	advance_on_keypress_SLASH	16	stimuli_distractor_diamondtriangles.svg	stimuli_target_squarediamonds.svg	16	yes	57	0	531	0	0			0	0			1				0	
6.6.1	win	2023-07-17	11:54:43	12:03:05	498948	5d728c6f1c91d40001a4b6ad	4	1	main_slash	11	main_slash	17	stimuli_target_rectanglediamonds.svg	stimuli_distractor_diamondtriangles.svg	6	yes	53	1	387	0	0			0	0			1				0	
6.6.1	win	2023-07-17	11:54:43	12:03:05	498948	5d728c6f1c91d40001a4b6ad	4	1	main_slash	11	advance_on_keypress_SLASH	18	stimuli_target_rectanglediamonds.svg	stimuli_distractor_diamondtriangles.svg	6	yes	57	0	446	0	0			0	0			1				0	
6.6.1	win	2023-07-17	11:54:43	12:03:07	500406	5d728c6f1c91d40001a4b6ad	4	1	main_slash	11	main_slash	19	stimuli_distractor_trianglediamonds.svg	stimuli_target_trianglerectangles.svg	25	yes	53	1	382	0	0			0	0			1				0	
6.6.1	win	2023-07-17	11:54:43	12:03:07	500406	5d728c6f1c91d40001a4b6ad	4	1	main_slash	11	advance_on_keypress_SLASH	20	stimuli_distractor_trianglediamonds.svg	stimuli_target_trianglerectangles.svg	25	yes	57	0	401	0	0			0	0			1				0	
6.6.1	win	2023-07-17	11:54:43	12:03:10	503455	5d728c6f1c91d40001a4b6ad	4	1	main_slash	11	main_slash	21	stimuli_distractor_trianglediamonds.svg	stimuli_distractor_trianglediamonds.svg	34	no	0	1	2000	0	0			0	0			1				0	
6.6.1	win	2023-07-17	11:54:43	12:03:10	503455	5d728c6f1c91d40001a4b6ad	4	1	main_slash	11	advance_on_keypress_SLASH	22	stimuli_distractor_trianglediamonds.svg	stimuli_distractor_trianglediamonds.svg	34	no	57	0	392	0	0			0	0			1				0	
6.6.1	win	2023-07-17	11:54:43	12:03:11	504845	5d728c6f1c91d40001a4b6ad	4	1	main_slash	11	main_slash	23	stimuli_target_rectangletriangles.svg	stimuli_distractor_diamondtriangles.svg	5	yes	53	1	364	0	0			0	0			1				0	
6.6.1	win	2023-07-17	11:54:43	12:03:11	504845	5d728c6f1c91d40001a4b6ad	4	1	main_slash	11	advance_on_keypress_SLASH	24	stimuli_target_rectangletriangles.svg	stimuli_distractor_diamondtriangles.svg	5	yes	57	0	471	0	0			0	0			1				0	
6.6.1	win	2023-07-17	11:54:43	12:03:14	507962	5d728c6f1c91d40001a4b6ad	4	1	main_slash	11	main_slash	25	stimuli_distractor_diamondtriangles.svg	stimuli_distractor_trianglediamonds.svg	38	no	0	1	2000	0	0			0	0			1				0	
6.6.1	win	2023-07-17	11:54:43	12:03:14	507962	5d728c6f1c91d40001a4b6ad	4	1	main_slash	11	advance_on_keypress_SLASH	26	stimuli_distractor_diamondtriangles.svg	stimuli_distractor_trianglediamonds.svg	38	no	57	0	319	0	0			0	0			1				0	
6.6.1	win	2023-07-17	11:54:43	12:03:16	509269	5d728c6f1c91d40001a4b6ad	4	1	main_slash	11	main_slash	27	stimuli_distractor_trianglediamonds.svg	stimuli_target_trianglesquares.svg	26	yes	53	1	347	0	0			0	0			1				0	
6.6.1	win	2023-07-17	11:54:43	12:03:16	509269	5d728c6f1c91d40001a4b6ad	4	1	main_slash	11	advance_on_keypress_SLASH	28	stimuli_distractor_trianglediamonds.svg	stimuli_target_trianglesquares.svg	26	yes	57	0	585	0	0			0	0			1				0	
6.6.1	win	2023-07-17	11:54:43	12:03:19	512502	5d728c6f1c91d40001a4b6ad	4	1	main_slash	11	main_slash	29	stimuli_distractor_trianglediamonds.svg	stimuli_distractor_diamondtriangles.svg	35	no	0	1	2000	0	0			0	0			1				0	
6.6.1	win	2023-07-17	11:54:43	12:03:19	512502	5d728c6f1c91d40001a4b6ad	4	1	main_slash	11	advance_on_keypress_SLASH	30	stimuli_distractor_trianglediamonds.svg	stimuli_distractor_diamondtriangles.svg	35	no	57	0	319	0	0			0	0			1				0	
6.6.1	win	2023-07-17	11:54:43	12:03:20	513822	5d728c6f1c91d40001a4b6ad	4	1	main_slash	11	main_slash	31	stimuli_target_rectangletriangles.svg	stimuli_distractor_trianglediamonds.svg	1	yes	53	1	360	0	0			0	0			1				0	
6.6.1	win	2023-07-17	11:54:43	12:03:20	513822	5d728c6f1c91d40001a4b6ad	4	1	main_slash	11	advance_on_keypress_SLASH	32	stimuli_target_rectangletriangles.svg	stimuli_distractor_trianglediamonds.svg	1	yes	57	0	525	0	0			0	0			1				0	
6.6.1	win	2023-07-17	11:54:43	12:03:22	515526	5d728c6f1c91d40001a4b6ad	4	1	main_slash	11	main_slash	33	stimuli_target_trianglesquares.svg	stimuli_distractor_diamondtriangles.svg	22	yes	53	1	550	0	0			0	0			1				0	
6.6.1	win	2023-07-17	11:54:43	12:03:22	515526	5d728c6f1c91d40001a4b6ad	4	1	main_slash	11	advance_on_keypress_SLASH	34	stimuli_target_trianglesquares.svg	stimuli_distractor_diamondtriangles.svg	22	yes	57	0	426	0	0			0	0			1				0	
6.6.1	win	2023-07-17	11:54:43	12:03:23	517104	5d728c6f1c91d40001a4b6ad	4	1	main_slash	11	main_slash	35	stimuli_distractor_trianglediamonds.svg	stimuli_target_rectanglediamonds.svg	10	yes	53	1	506	0	0			0	0			1				0	
6.6.1	win	2023-07-17	11:54:43	12:03:23	517104	5d728c6f1c91d40001a4b6ad	4	1	main_slash	11	advance_on_keypress_SLASH	36	stimuli_distractor_trianglediamonds.svg	stimuli_target_rectanglediamonds.svg	10	yes	57	0	486	0	0			0	0			1				0	
6.6.1	win	2023-07-17	11:54:43	12:03:25	518617	5d728c6f1c91d40001a4b6ad	4	1	main_slash	11	main_slash	37	stimuli_distractor_diamondtriangles.svg	stimuli_target_diamondsquares.svg	32	yes	53	1	378	0	0			0	0			1				0	
6.6.1	win	2023-07-17	11:54:43	12:03:25	518617	5d728c6f1c91d40001a4b6ad	4	1	main_slash	11	advance_on_keypress_SLASH	38	stimuli_distractor_diamondtriangles.svg	stimuli_target_diamondsquares.svg	32	yes	57	0	425	0	0			0	0			1				0	
6.6.1	win	2023-07-17	11:54:43	12:03:26	520095	5d728c6f1c91d40001a4b6ad	4	1	main_slash	11	main_slash	39	stimuli_target_diamondsquares.svg	stimuli_distractor_diamondtriangles.svg	24	yes	53	1	413	0	0			0	0			1				0	
6.6.1	win	2023-07-17	11:54:43	12:03:26	520095	5d728c6f1c91d40001a4b6ad	4	1	main_slash	11	advance_on_keypress_SLASH	40	stimuli_target_diamondsquares.svg	stimuli_distractor_diamondtriangles.svg	24	yes	57	0	428	0	0			0	0			1				0	
6.6.1	win	2023-07-17	11:54:43	12:03:28	521728	5d728c6f1c91d40001a4b6ad	4	1	main_slash	11	main_slash	41	stimuli_target_squarediamonds.svg	stimuli_distractor_diamondtriangles.svg	8	yes	53	1	566	0	0			0	0			1				0	
6.6.1	win	2023-07-17	11:54:43	12:03:28	521728	5d728c6f1c91d40001a4b6ad	4	1	main_slash	11	advance_on_keypress_SLASH	42	stimuli_target_squarediamonds.svg	stimuli_distractor_diamondtriangles.svg	8	yes	57	0	391	0	0			0	0			1				0	
6.6.1	win	2023-07-17	11:54:43	12:03:29	523100	5d728c6f1c91d40001a4b6ad	4	1	main_slash	11	main_slash	43	stimuli_distractor_diamondtriangles.svg	stimuli_target_trianglerectangles.svg	29	yes	53	1	341	0	0			0	0			1				0	
6.6.1	win	2023-07-17	11:54:43	12:03:29	523100	5d728c6f1c91d40001a4b6ad	4	1	main_slash	11	advance_on_keypress_SLASH	44	stimuli_distractor_diamondtriangles.svg	stimuli_target_trianglerectangles.svg	29	yes	57	0	378	0	0			0	0			1				0	
6.6.1	win	2023-07-17	11:54:43	12:03:32	526106	5d728c6f1c91d40001a4b6ad	4	1	main_slash	11	main_slash	45	stimuli_distractor_diamondtriangles.svg	stimuli_distractor_trianglediamonds.svg	37	no	0	1	2000	0	0			0	0			1				0	
6.6.1	win	2023-07-17	11:54:43	12:03:32	526106	5d728c6f1c91d40001a4b6ad	4	1	main_slash	11	advance_on_keypress_SLASH	46	stimuli_distractor_diamondtriangles.svg	stimuli_distractor_trianglediamonds.svg	37	no	57	0	328	0	0			0	0			1				0	
6.6.1	win	2023-07-17	11:54:43	12:03:35	529067	5d728c6f1c91d40001a4b6ad	4	1	main_slash	11	main_slash	47	stimuli_distractor_trianglediamonds.svg	stimuli_target_rectangletriangles.svg	9	yes	0	0	2000	0	0			0	0			1				0	
6.6.1	win	2023-07-17	11:54:43	12:03:35	529067	5d728c6f1c91d40001a4b6ad	4	1	main_slash	11	advance_on_keypress_SLASH	48	stimuli_distractor_trianglediamonds.svg	stimuli_target_rectangletriangles.svg	9	yes	57	0	350	0	0			0	0			1				0	
6.6.1	win	2023-07-17	11:54:43	12:03:37	530391	5d728c6f1c91d40001a4b6ad	4	1	main_slash	11	main_slash	49	stimuli_distractor_trianglediamonds.svg	stimuli_target_diamondrectangles.svg	27	yes	53	1	330	0	0			0	0			1				0	
6.6.1	win	2023-07-17	11:54:43	12:03:37	530391	5d728c6f1c91d40001a4b6ad	4	1	main_slash	11	advance_on_keypress_SLASH	50	stimuli_distractor_trianglediamonds.svg	stimuli_target_diamondrectangles.svg	27	yes	57	0	374	0	0			0	0			1				0	
6.6.1	win	2023-07-17	11:54:43	12:03:40	533407	5d728c6f1c91d40001a4b6ad	4	1	main_slash	11	main_slash	51	stimuli_distractor_trianglediamonds.svg	stimuli_distractor_trianglediamonds.svg	33	no	0	1	2000	0	0			0	0			1				0	
6.6.1	win	2023-07-17	11:54:43	12:03:40	533407	5d728c6f1c91d40001a4b6ad	4	1	main_slash	11	advance_on_keypress_SLASH	52	stimuli_distractor_trianglediamonds.svg	stimuli_distractor_trianglediamonds.svg	33	no	57	0	332	0	0			0	0			1				0	
6.6.1	win	2023-07-17	11:54:43	12:03:41	534863	5d728c6f1c91d40001a4b6ad	4	1	main_slash	11	main_slash	53	stimuli_target_squaretriangles.svg	stimuli_distractor_diamondtriangles.svg	7	yes	53	1	478	0	0			0	0			1				0	
6.6.1	win	2023-07-17	11:54:43	12:03:41	534863	5d728c6f1c91d40001a4b6ad	4	1	main_slash	11	advance_on_keypress_SLASH	54	stimuli_target_squaretriangles.svg	stimuli_distractor_diamondtriangles.svg	7	yes	57	0	623	0	0			0	0			1				0	
6.6.1	win	2023-07-17	11:54:43	12:03:43	536496	5d728c6f1c91d40001a4b6ad	4	1	main_slash	11	main_slash	55	stimuli_target_rectanglediamonds.svg	stimuli_distractor_trianglediamonds.svg	2	yes	53	1	380	0	0			0	0			1				0	
6.6.1	win	2023-07-17	11:54:43	12:03:43	536496	5d728c6f1c91d40001a4b6ad	4	1	main_slash	11	advance_on_keypress_SLASH	56	stimuli_target_rectanglediamonds.svg	stimuli_distractor_trianglediamonds.svg	2	yes	57	0	373	0	0			0	0			1				0	
6.6.1	win	2023-07-17	11:54:43	12:03:44	537947	5d728c6f1c91d40001a4b6ad	4	1	main_slash	11	main_slash	57	stimuli_target_squaretriangles.svg	stimuli_distractor_trianglediamonds.svg	3	yes	53	1	436	0	0			0	0			1				0	
6.6.1	win	2023-07-17	11:54:43	12:03:44	537947	5d728c6f1c91d40001a4b6ad	4	1	main_slash	11	advance_on_keypress_SLASH	58	stimuli_target_squaretriangles.svg	stimuli_distractor_trianglediamonds.svg	3	yes	57	0	399	0	0			0	0			1				0	
6.6.1	win	2023-07-17	11:54:43	12:03:46	539346	5d728c6f1c91d40001a4b6ad	4	1	main_slash	11	main_slash	59	stimuli_distractor_trianglediamonds.svg	stimuli_target_squarediamonds.svg	12	yes	53	1	354	0	0			0	0			1				0	
6.6.1	win	2023-07-17	11:54:43	12:03:46	539346	5d728c6f1c91d40001a4b6ad	4	1	main_slash	11	advance_on_keypress_SLASH	60	stimuli_distractor_trianglediamonds.svg	stimuli_target_squarediamonds.svg	12	yes	57	0	362	0	0			0	0			1				0	
6.6.1	win	2023-07-17	11:54:43	12:03:47	540879	5d728c6f1c91d40001a4b6ad	4	1	main_slash	11	main_slash	61	stimuli_target_trianglerectangles.svg	stimuli_distractor_trianglediamonds.svg	17	yes	53	1	541	0	0			0	0			1				0	
6.6.1	win	2023-07-17	11:54:43	12:03:47	540879	5d728c6f1c91d40001a4b6ad	4	1	main_slash	11	advance_on_keypress_SLASH	62	stimuli_target_trianglerectangles.svg	stimuli_distractor_trianglediamonds.svg	17	yes	57	0	420	0	0			0	0			1				0	
6.6.1	win	2023-07-17	11:54:43	12:03:50	543935	5d728c6f1c91d40001a4b6ad	4	1	main_slash	11	main_slash	63	stimuli_distractor_trianglediamonds.svg	stimuli_distractor_diamondtriangles.svg	36	no	0	1	2000	0	0			0	0			1				0	
6.6.1	win	2023-07-17	11:54:43	12:03:50	543935	5d728c6f1c91d40001a4b6ad	4	1	main_slash	11	advance_on_keypress_SLASH	64	stimuli_distractor_trianglediamonds.svg	stimuli_distractor_diamondtriangles.svg	36	no	57	0	343	0	0			0	0			1				0	
6.6.1	win	2023-07-17	11:54:43	12:03:52	545326	5d728c6f1c91d40001a4b6ad	4	1	main_slash	11	main_slash	65	stimuli_target_trianglesquares.svg	stimuli_distractor_trianglediamonds.svg	18	yes	53	1	414	0	0			0	0			1				0	
6.6.1	win	2023-07-17	11:54:43	12:03:52	545326	5d728c6f1c91d40001a4b6ad	4	1	main_slash	11	advance_on_keypress_SLASH	66	stimuli_target_trianglesquares.svg	stimuli_distractor_trianglediamonds.svg	18	yes	57	0	359	0	0			0	0			1				0	
6.6.1	win	2023-07-17	11:54:43	12:03:53	546653	5d728c6f1c91d40001a4b6ad	4	1	main_slash	11	main_slash	67	stimuli_distractor_diamondtriangles.svg	stimuli_target_trianglesquares.svg	30	yes	53	1	328	0	0			0	0			1				0	
6.6.1	win	2023-07-17	11:54:43	12:03:53	546653	5d728c6f1c91d40001a4b6ad	4	1	main_slash	11	advance_on_keypress_SLASH	68	stimuli_distractor_diamondtriangles.svg	stimuli_target_trianglesquares.svg	30	yes	57	0	355	0	0			0	0			1				0	
6.6.1	win	2023-07-17	11:54:43	12:03:54	548022	5d728c6f1c91d40001a4b6ad	4	1	main_slash	11	main_slash	69	stimuli_distractor_diamondtriangles.svg	stimuli_target_rectangletriangles.svg	13	yes	53	1	383	0	0			0	0			1				0	
6.6.1	win	2023-07-17	11:54:43	12:03:54	548022	5d728c6f1c91d40001a4b6ad	4	1	main_slash	11	advance_on_keypress_SLASH	70	stimuli_distractor_diamondtriangles.svg	stimuli_target_rectangletriangles.svg	13	yes	57	0	386	0	0			0	0			1				0	
6.6.1	win	2023-07-17	11:54:43	12:03:57	551053	5d728c6f1c91d40001a4b6ad	4	1	main_slash	11	main_slash	71	stimuli_distractor_diamondtriangles.svg	stimuli_distractor_diamondtriangles.svg	39	no	0	1	2000	0	0			0	0			1				0	
6.6.1	win	2023-07-17	11:54:43	12:03:57	551053	5d728c6f1c91d40001a4b6ad	4	1	main_slash	11	advance_on_keypress_SLASH	72	stimuli_distractor_diamondtriangles.svg	stimuli_distractor_diamondtriangles.svg	39	no	57	0	319	0	0			0	0			1				0	
6.6.1	win	2023-07-17	11:54:43	12:03:59	552421	5d728c6f1c91d40001a4b6ad	4	1	main_slash	11	main_slash	73	stimuli_target_trianglerectangles.svg	stimuli_distractor_diamondtriangles.svg	21	yes	53	1	408	0	0			0	0			1				0	
6.6.1	win	2023-07-17	11:54:43	12:03:59	552421	5d728c6f1c91d40001a4b6ad	4	1	main_slash	11	advance_on_keypress_SLASH	74	stimuli_target_trianglerectangles.svg	stimuli_distractor_diamondtriangles.svg	21	yes	57	0	374	0	0			0	0			1				0	
6.6.1	win	2023-07-17	11:54:43	12:04:00	553842	5d728c6f1c91d40001a4b6ad	4	1	main_slash	11	main_slash	75	stimuli_target_squarediamonds.svg	stimuli_distractor_trianglediamonds.svg	4	yes	53	1	415	0	0			0	0			1				0	
6.6.1	win	2023-07-17	11:54:43	12:04:00	553842	5d728c6f1c91d40001a4b6ad	4	1	main_slash	11	advance_on_keypress_SLASH	76	stimuli_target_squarediamonds.svg	stimuli_distractor_trianglediamonds.svg	4	yes	57	0	365	0	0			0	0			1				0	
6.6.1	win	2023-07-17	11:54:43	12:04:02	555372	5d728c6f1c91d40001a4b6ad	4	1	main_slash	11	main_slash	77	stimuli_target_diamondrectangles.svg	stimuli_distractor_diamondtriangles.svg	23	yes	53	1	508	0	0			0	0			1				0	
6.6.1	win	2023-07-17	11:54:43	12:04:02	555372	5d728c6f1c91d40001a4b6ad	4	1	main_slash	11	advance_on_keypress_SLASH	78	stimuli_target_diamondrectangles.svg	stimuli_distractor_diamondtriangles.svg	23	yes	57	0	389	0	0			0	0			1				0	
6.6.1	win	2023-07-17	11:54:43	12:04:03	556803	5d728c6f1c91d40001a4b6ad	4	1	main_slash	11	main_slash	79	stimuli_target_diamondsquares.svg	stimuli_distractor_trianglediamonds.svg	20	yes	53	1	399	0	0			0	0			1				0	
6.6.1	win	2023-07-17	11:54:43	12:04:03	556803	5d728c6f1c91d40001a4b6ad	4	1	main_slash	11	advance_on_keypress_SLASH	80	stimuli_target_diamondsquares.svg	stimuli_distractor_trianglediamonds.svg	20	yes	57	0	357	0	0			0	0			1				0	
6.6.1	win	2023-07-17	11:54:43	12:04:05	558268	5d728c6f1c91d40001a4b6ad	4	1	main_slash	11	main_slash	81	stimuli_distractor_trianglediamonds.svg	stimuli_target_rectanglediamonds.svg	10	yes	53	1	467	0	0			0	0			1				0	
6.6.1	win	2023-07-17	11:54:43	12:04:05	558268	5d728c6f1c91d40001a4b6ad	4	1	main_slash	11	advance_on_keypress_SLASH	82	stimuli_distractor_trianglediamonds.svg	stimuli_target_rectanglediamonds.svg	10	yes	57	0	414	0	0			0	0			1				0	
6.6.1	win	2023-07-17	11:54:43	12:04:06	560039	5d728c6f1c91d40001a4b6ad	4	1	main_slash	11	main_slash	83	stimuli_distractor_trianglediamonds.svg	stimuli_target_squaretriangles.svg	11	yes	53	1	707	0	0			0	0			1				0	
6.6.1	win	2023-07-17	11:54:43	12:04:06	560039	5d728c6f1c91d40001a4b6ad	4	1	main_slash	11	advance_on_keypress_SLASH	84	stimuli_distractor_trianglediamonds.svg	stimuli_target_squaretriangles.svg	11	yes	57	0	331	0	0			0	0			1				0	
6.6.1	win	2023-07-17	11:54:43	12:04:08	561339	5d728c6f1c91d40001a4b6ad	4	1	main_slash	11	main_slash	85	stimuli_distractor_trianglediamonds.svg	stimuli_target_squarediamonds.svg	12	yes	53	1	328	0	0			0	0			1				0	
6.6.1	win	2023-07-17	11:54:43	12:04:08	561339	5d728c6f1c91d40001a4b6ad	4	1	main_slash	11	advance_on_keypress_SLASH	86	stimuli_distractor_trianglediamonds.svg	stimuli_target_squarediamonds.svg	12	yes	57	0	346	0	0			0	0			1				0	
6.6.1	win	2023-07-17	11:54:43	12:04:09	562690	5d728c6f1c91d40001a4b6ad	4	1	main_slash	11	main_slash	87	stimuli_target_trianglerectangles.svg	stimuli_distractor_diamondtriangles.svg	21	yes	53	1	379	0	0			0	0			1				0	
6.6.1	win	2023-07-17	11:54:43	12:04:09	562690	5d728c6f1c91d40001a4b6ad	4	1	main_slash	11	advance_on_keypress_SLASH	88	stimuli_target_trianglerectangles.svg	stimuli_distractor_diamondtriangles.svg	21	yes	57	0	393	0	0			0	0			1				0	
6.6.1	win	2023-07-17	11:54:43	12:04:12	565722	5d728c6f1c91d40001a4b6ad	4	1	main_slash	11	main_slash	89	stimuli_distractor_trianglediamonds.svg	stimuli_distractor_trianglediamonds.svg	33	no	0	1	2000	0	0			0	0			1				0	
6.6.1	win	2023-07-17	11:54:43	12:04:12	565722	5d728c6f1c91d40001a4b6ad	4	1	main_slash	11	advance_on_keypress_SLASH	90	stimuli_distractor_trianglediamonds.svg	stimuli_distractor_trianglediamonds.svg	33	no	57	0	276	0	0			0	0			1				0	
6.6.1	win	2023-07-17	11:54:43	12:04:13	566965	5d728c6f1c91d40001a4b6ad	4	1	main_slash	11	main_slash	91	stimuli_distractor_diamondtriangles.svg	stimuli_target_trianglesquares.svg	30	yes	53	1	333	0	0			0	0			1				0	
6.6.1	win	2023-07-17	11:54:43	12:04:13	566965	5d728c6f1c91d40001a4b6ad	4	1	main_slash	11	advance_on_keypress_SLASH	92	stimuli_distractor_diamondtriangles.svg	stimuli_target_trianglesquares.svg	30	yes	57	0	409	0	0			0	0			1				0	
6.6.1	win	2023-07-17	11:54:43	12:04:15	568376	5d728c6f1c91d40001a4b6ad	4	1	main_slash	11	main_slash	93	stimuli_distractor_trianglediamonds.svg	stimuli_target_trianglesquares.svg	26	yes	53	1	363	0	0			0	0			1				0	
6.6.1	win	2023-07-17	11:54:43	12:04:15	568376	5d728c6f1c91d40001a4b6ad	4	1	main_slash	11	advance_on_keypress_SLASH	94	stimuli_distractor_trianglediamonds.svg	stimuli_target_trianglesquares.svg	26	yes	57	0	334	0	0			0	0			1				0	
6.6.1	win	2023-07-17	11:54:43	12:04:16	569688	5d728c6f1c91d40001a4b6ad	4	1	main_slash	11	main_slash	95	stimuli_distractor_diamondtriangles.svg	stimuli_target_squarediamonds.svg	16	yes	53	1	327	0	0			0	0			1				0	
6.6.1	win	2023-07-17	11:54:43	12:04:16	569688	5d728c6f1c91d40001a4b6ad	4	1	main_slash	11	advance_on_keypress_SLASH	96	stimuli_distractor_diamondtriangles.svg	stimuli_target_squarediamonds.svg	16	yes	57	0	329	0	0			0	0			1				0	
6.6.1	win	2023-07-17	11:54:43	12:04:17	571026	5d728c6f1c91d40001a4b6ad	4	1	main_slash	11	main_slash	97	stimuli_target_diamondrectangles.svg	stimuli_distractor_trianglediamonds.svg	19	yes	53	1	386	0	0			0	0			1				0	
6.6.1	win	2023-07-17	11:54:43	12:04:17	571026	5d728c6f1c91d40001a4b6ad	4	1	main_slash	11	advance_on_keypress_SLASH	98	stimuli_target_diamondrectangles.svg	stimuli_distractor_trianglediamonds.svg	19	yes	57	0	346	0	0			0	0			1				0	
6.6.1	win	2023-07-17	11:54:43	12:04:19	572297	5d728c6f1c91d40001a4b6ad	4	1	main_slash	11	main_slash	99	stimuli_distractor_diamondtriangles.svg	stimuli_target_rectanglediamonds.svg	14	yes	53	1	293	0	0			0	0			1				0	
6.6.1	win	2023-07-17	11:54:43	12:04:19	572297	5d728c6f1c91d40001a4b6ad	4	1	main_slash	11	advance_on_keypress_SLASH	100	stimuli_distractor_diamondtriangles.svg	stimuli_target_rectanglediamonds.svg	14	yes	57	0	391	0	0			0	0			1				0	
6.6.1	win	2023-07-17	11:54:43	12:04:20	573590	5d728c6f1c91d40001a4b6ad	4	1	main_slash	11	main_slash	101	stimuli_distractor_diamondtriangles.svg	stimuli_target_trianglerectangles.svg	29	yes	53	1	272	0	0			0	0			1				0	
6.6.1	win	2023-07-17	11:54:43	12:04:20	573590	5d728c6f1c91d40001a4b6ad	4	1	main_slash	11	advance_on_keypress_SLASH	102	stimuli_distractor_diamondtriangles.svg	stimuli_target_trianglerectangles.svg	29	yes	57	0	387	0	0			0	0			1				0	
6.6.1	win	2023-07-17	11:54:43	12:04:21	574893	5d728c6f1c91d40001a4b6ad	4	1	main_slash	11	main_slash	103	stimuli_target_squaretriangles.svg	stimuli_distractor_trianglediamonds.svg	3	yes	53	1	278	0	0			0	0			1				0	
6.6.1	win	2023-07-17	11:54:43	12:04:21	574893	5d728c6f1c91d40001a4b6ad	4	1	main_slash	11	advance_on_keypress_SLASH	104	stimuli_target_squaretriangles.svg	stimuli_distractor_trianglediamonds.svg	3	yes	57	0	426	0	0			0	0			1				0	
6.6.1	win	2023-07-17	11:54:43	12:04:23	576235	5d728c6f1c91d40001a4b6ad	4	1	main_slash	11	main_slash	105	stimuli_target_trianglerectangles.svg	stimuli_distractor_trianglediamonds.svg	17	yes	53	1	288	0	0			0	0			1				0	
6.6.1	win	2023-07-17	11:54:43	12:04:23	576235	5d728c6f1c91d40001a4b6ad	4	1	main_slash	11	advance_on_keypress_SLASH	106	stimuli_target_trianglerectangles.svg	stimuli_distractor_trianglediamonds.svg	17	yes	57	0	400	0	0			0	0			1				0	
6.6.1	win	2023-07-17	11:54:43	12:04:24	577663	5d728c6f1c91d40001a4b6ad	4	1	main_slash	11	main_slash	107	stimuli_target_trianglesquares.svg	stimuli_distractor_diamondtriangles.svg	22	yes	53	1	387	0	0			0	0			1				0	
6.6.1	win	2023-07-17	11:54:43	12:04:24	577663	5d728c6f1c91d40001a4b6ad	4	1	main_slash	11	advance_on_keypress_SLASH	108	stimuli_target_trianglesquares.svg	stimuli_distractor_diamondtriangles.svg	22	yes	57	0	393	0	0			0	0			1				0	
6.6.1	win	2023-07-17	11:54:43	12:04:25	579138	5d728c6f1c91d40001a4b6ad	4	1	main_slash	11	main_slash	109	stimuli_target_rectanglediamonds.svg	stimuli_distractor_diamondtriangles.svg	6	yes	53	1	448	0	0			0	0			1				0	
6.6.1	win	2023-07-17	11:54:43	12:04:25	579138	5d728c6f1c91d40001a4b6ad	4	1	main_slash	11	advance_on_keypress_SLASH	110	stimuli_target_rectanglediamonds.svg	stimuli_distractor_diamondtriangles.svg	6	yes	57	0	347	0	0			0	0			1				0	
6.6.1	win	2023-07-17	11:54:43	12:04:27	580343	5d728c6f1c91d40001a4b6ad	4	1	main_slash	11	main_slash	111	stimuli_target_trianglesquares.svg	stimuli_distractor_trianglediamonds.svg	18	yes	53	1	206	0	0			0	0			1				0	
6.6.1	win	2023-07-17	11:54:43	12:04:27	580343	5d728c6f1c91d40001a4b6ad	4	1	main_slash	11	advance_on_keypress_SLASH	112	stimuli_target_trianglesquares.svg	stimuli_distractor_trianglediamonds.svg	18	yes	57	0	499	0	0			0	0			1				0	
6.6.1	win	2023-07-17	11:54:43	12:04:28	581794	5d728c6f1c91d40001a4b6ad	4	1	main_slash	11	main_slash	113	stimuli_distractor_trianglediamonds.svg	stimuli_target_trianglerectangles.svg	25	yes	53	1	310	0	0			0	0			1				0	
6.6.1	win	2023-07-17	11:54:43	12:04:28	581794	5d728c6f1c91d40001a4b6ad	4	1	main_slash	11	advance_on_keypress_SLASH	114	stimuli_distractor_trianglediamonds.svg	stimuli_target_trianglerectangles.svg	25	yes	57	0	337	0	0			0	0			1				0	
6.6.1	win	2023-07-17	11:54:43	12:04:29	583054	5d728c6f1c91d40001a4b6ad	4	1	main_slash	11	main_slash	115	stimuli_target_diamondrectangles.svg	stimuli_distractor_diamondtriangles.svg	23	yes	53	1	289	0	0			0	0			1				0	
6.6.1	win	2023-07-17	11:54:43	12:04:29	583054	5d728c6f1c91d40001a4b6ad	4	1	main_slash	11	advance_on_keypress_SLASH	116	stimuli_target_diamondrectangles.svg	stimuli_distractor_diamondtriangles.svg	23	yes	57	0	338	0	0			0	0			1				0	
6.6.1	win	2023-07-17	11:54:43	12:04:31	584263	5d728c6f1c91d40001a4b6ad	4	1	main_slash	11	main_slash	117	stimuli_distractor_diamondtriangles.svg	stimuli_target_squaretriangles.svg	15	yes	53	1	235	0	0			0	0			1				0	
6.6.1	win	2023-07-17	11:54:43	12:04:31	584263	5d728c6f1c91d40001a4b6ad	4	1	main_slash	11	advance_on_keypress_SLASH	118	stimuli_distractor_diamondtriangles.svg	stimuli_target_squaretriangles.svg	15	yes	57	0	494	0	0			0	0			1				0	
6.6.1	win	2023-07-17	11:54:43	12:04:32	585604	5d728c6f1c91d40001a4b6ad	4	1	main_slash	11	main_slash	119	stimuli_distractor_trianglediamonds.svg	stimuli_distractor_diamondtriangles.svg	35	no	53	0	212	0	0			0	0			1				0	
6.6.1	win	2023-07-17	11:54:43	12:04:32	585604	5d728c6f1c91d40001a4b6ad	4	1	main_slash	11	advance_on_keypress_SLASH	120	stimuli_distractor_trianglediamonds.svg	stimuli_distractor_diamondtriangles.svg	35	no	57	0	1338	0	0			0	0			1				0	
6.6.1	win	2023-07-17	11:54:43	12:04:34	587984	5d728c6f1c91d40001a4b6ad	4	1	main_slash	11	main_slash	121	stimuli_target_rectangletriangles.svg	stimuli_distractor_trianglediamonds.svg	1	yes	53	1	413	0	0			0	0			1				0	
6.6.1	win	2023-07-17	11:54:43	12:04:34	587984	5d728c6f1c91d40001a4b6ad	4	1	main_slash	11	advance_on_keypress_SLASH	122	stimuli_target_rectangletriangles.svg	stimuli_distractor_trianglediamonds.svg	1	yes	57	0	432	0	0			0	0			1				0	
6.6.1	win	2023-07-17	11:54:43	12:04:36	589354	5d728c6f1c91d40001a4b6ad	4	1	main_slash	11	main_slash	123	stimuli_distractor_trianglediamonds.svg	stimuli_target_diamondrectangles.svg	27	yes	53	1	286	0	0			0	0			1				0	
6.6.1	win	2023-07-17	11:54:43	12:04:36	589354	5d728c6f1c91d40001a4b6ad	4	1	main_slash	11	advance_on_keypress_SLASH	124	stimuli_distractor_trianglediamonds.svg	stimuli_target_diamondrectangles.svg	27	yes	57	0	438	0	0			0	0			1				0	
6.6.1	win	2023-07-17	11:54:43	12:04:37	590888	5d728c6f1c91d40001a4b6ad	4	1	main_slash	11	main_slash	125	stimuli_target_squarediamonds.svg	stimuli_distractor_diamondtriangles.svg	8	yes	53	1	456	0	0			0	0			1				0	
6.6.1	win	2023-07-17	11:54:43	12:04:37	590888	5d728c6f1c91d40001a4b6ad	4	1	main_slash	11	advance_on_keypress_SLASH	126	stimuli_target_squarediamonds.svg	stimuli_distractor_diamondtriangles.svg	8	yes	57	0	380	0	0			0	0			1				0	
6.6.1	win	2023-07-17	11:54:43	12:04:40	593895	5d728c6f1c91d40001a4b6ad	4	1	main_slash	11	main_slash	127	stimuli_distractor_diamondtriangles.svg	stimuli_distractor_trianglediamonds.svg	38	no	0	1	2000	0	0			0	0			1				0	
6.6.1	win	2023-07-17	11:54:43	12:04:40	593895	5d728c6f1c91d40001a4b6ad	4	1	main_slash	11	advance_on_keypress_SLASH	128	stimuli_distractor_diamondtriangles.svg	stimuli_distractor_trianglediamonds.svg	38	no	57	0	331	0	0			0	0			1				0	
6.6.1	win	2023-07-17	11:54:43	12:04:43	596872	5d728c6f1c91d40001a4b6ad	4	1	main_slash	11	main_slash	129	stimuli_distractor_trianglediamonds.svg	stimuli_distractor_diamondtriangles.svg	36	no	0	1	2000	0	0			0	0			1				0	
6.6.1	win	2023-07-17	11:54:43	12:04:43	596872	5d728c6f1c91d40001a4b6ad	4	1	main_slash	11	advance_on_keypress_SLASH	130	stimuli_distractor_trianglediamonds.svg	stimuli_distractor_diamondtriangles.svg	36	no	57	0	357	0	0			0	0			1				0	
6.6.1	win	2023-07-17	11:54:43	12:04:45	598309	5d728c6f1c91d40001a4b6ad	4	1	main_slash	11	main_slash	131	stimuli_distractor_diamondtriangles.svg	stimuli_distractor_diamondtriangles.svg	40	no	53	0	443	0	0			0	0			1				0	
6.6.1	win	2023-07-17	11:54:43	12:04:45	598309	5d728c6f1c91d40001a4b6ad	4	1	main_slash	11	advance_on_keypress_SLASH	132	stimuli_distractor_diamondtriangles.svg	stimuli_distractor_diamondtriangles.svg	40	no	57	0	518	0	0			0	0			1				0	
6.6.1	win	2023-07-17	11:54:43	12:04:46	600222	5d728c6f1c91d40001a4b6ad	4	1	main_slash	11	main_slash	133	stimuli_distractor_trianglediamonds.svg	stimuli_target_rectangletriangles.svg	9	yes	53	1	759	0	0			0	0			1				0	
6.6.1	win	2023-07-17	11:54:43	12:04:46	600222	5d728c6f1c91d40001a4b6ad	4	1	main_slash	11	advance_on_keypress_SLASH	134	stimuli_distractor_trianglediamonds.svg	stimuli_target_rectangletriangles.svg	9	yes	57	0	381	0	0			0	0			1				0	
6.6.1	win	2023-07-17	11:54:43	12:04:48	601677	5d728c6f1c91d40001a4b6ad	4	1	main_slash	11	main_slash	135	stimuli_target_squarediamonds.svg	stimuli_distractor_trianglediamonds.svg	4	yes	53	1	435	0	0			0	0			1				0	
6.6.1	win	2023-07-17	11:54:43	12:04:48	601677	5d728c6f1c91d40001a4b6ad	4	1	main_slash	11	advance_on_keypress_SLASH	136	stimuli_target_squarediamonds.svg	stimuli_distractor_trianglediamonds.svg	4	yes	57	0	350	0	0			0	0			1				0	
6.6.1	win	2023-07-17	11:54:43	12:04:51	604672	5d728c6f1c91d40001a4b6ad	4	1	main_slash	11	main_slash	137	stimuli_distractor_trianglediamonds.svg	stimuli_distractor_trianglediamonds.svg	34	no	0	1	2000	0	0			0	0			1				0	
6.6.1	win	2023-07-17	11:54:43	12:04:51	604672	5d728c6f1c91d40001a4b6ad	4	1	main_slash	11	advance_on_keypress_SLASH	138	stimuli_distractor_trianglediamonds.svg	stimuli_distractor_trianglediamonds.svg	34	no	57	0	289	0	0			0	0			1				0	
6.6.1	win	2023-07-17	11:54:43	12:04:53	606336	5d728c6f1c91d40001a4b6ad	4	1	main_slash	11	main_slash	139	stimuli_distractor_diamondtriangles.svg	stimuli_target_diamondrectangles.svg	31	yes	53	1	737	0	0			0	0			1				0	
6.6.1	win	2023-07-17	11:54:43	12:04:53	606336	5d728c6f1c91d40001a4b6ad	4	1	main_slash	11	advance_on_keypress_SLASH	140	stimuli_distractor_diamondtriangles.svg	stimuli_target_diamondrectangles.svg	31	yes	57	0	442	0	0			0	0			1				0	
6.6.1	win	2023-07-17	11:54:43	12:04:54	607899	5d728c6f1c91d40001a4b6ad	4	1	main_slash	11	main_slash	141	stimuli_distractor_trianglediamonds.svg	stimuli_target_diamondsquares.svg	28	yes	53	1	487	0	0			0	0			1				0	
6.6.1	win	2023-07-17	11:54:43	12:04:54	607899	5d728c6f1c91d40001a4b6ad	4	1	main_slash	11	advance_on_keypress_SLASH	142	stimuli_distractor_trianglediamonds.svg	stimuli_target_diamondsquares.svg	28	yes	57	0	505	0	0			0	0			1				0	
6.6.1	win	2023-07-17	11:54:43	12:04:57	611042	5d728c6f1c91d40001a4b6ad	4	1	main_slash	11	main_slash	143	stimuli_target_diamondsquares.svg	stimuli_distractor_trianglediamonds.svg	20	yes	0	0	2000	0	0			0	0			1				0	
6.6.1	win	2023-07-17	11:54:43	12:04:57	611042	5d728c6f1c91d40001a4b6ad	4	1	main_slash	11	advance_on_keypress_SLASH	144	stimuli_target_diamondsquares.svg	stimuli_distractor_trianglediamonds.svg	20	yes	57	0	257	0	0			0	0			1				0	
6.6.1	win	2023-07-17	11:54:43	12:04:59	612456	5d728c6f1c91d40001a4b6ad	4	1	main_slash	11	main_slash	145	stimuli_distractor_diamondtriangles.svg	stimuli_target_rectangletriangles.svg	13	yes	53	1	520	0	0			0	0			1				0	
6.6.1	win	2023-07-17	11:54:43	12:04:59	612456	5d728c6f1c91d40001a4b6ad	4	1	main_slash	11	advance_on_keypress_SLASH	146	stimuli_distractor_diamondtriangles.svg	stimuli_target_rectangletriangles.svg	13	yes	57	0	407	0	0			0	0			1				0	
6.6.1	win	2023-07-17	11:54:43	12:05:00	614063	5d728c6f1c91d40001a4b6ad	4	1	main_slash	11	main_slash	147	stimuli_target_diamondsquares.svg	stimuli_distractor_diamondtriangles.svg	24	yes	53	1	564	0	0			0	0			1				0	
6.6.1	win	2023-07-17	11:54:43	12:05:00	614063	5d728c6f1c91d40001a4b6ad	4	1	main_slash	11	advance_on_keypress_SLASH	148	stimuli_target_diamondsquares.svg	stimuli_distractor_diamondtriangles.svg	24	yes	57	0	360	0	0			0	0			1				0	
6.6.1	win	2023-07-17	11:54:43	12:05:02	615533	5d728c6f1c91d40001a4b6ad	4	1	main_slash	11	main_slash	149	stimuli_target_rectanglediamonds.svg	stimuli_distractor_trianglediamonds.svg	2	yes	53	1	471	0	0			0	0			1				0	
6.6.1	win	2023-07-17	11:54:43	12:05:02	615533	5d728c6f1c91d40001a4b6ad	4	1	main_slash	11	advance_on_keypress_SLASH	150	stimuli_target_rectanglediamonds.svg	stimuli_distractor_trianglediamonds.svg	2	yes	57	0	412	0	0			0	0			1				0	
6.6.1	win	2023-07-17	11:54:43	12:05:05	618576	5d728c6f1c91d40001a4b6ad	4	1	main_slash	11	main_slash	151	stimuli_distractor_diamondtriangles.svg	stimuli_distractor_trianglediamonds.svg	37	no	0	1	2000	0	0			0	0			1				0	
6.6.1	win	2023-07-17	11:54:43	12:05:05	618576	5d728c6f1c91d40001a4b6ad	4	1	main_slash	11	advance_on_keypress_SLASH	152	stimuli_distractor_diamondtriangles.svg	stimuli_distractor_trianglediamonds.svg	37	no	57	0	291	0	0			0	0			1				0	
6.6.1	win	2023-07-17	11:54:43	12:05:06	620167	5d728c6f1c91d40001a4b6ad	4	1	main_slash	11	main_slash	153	stimuli_target_rectangletriangles.svg	stimuli_distractor_diamondtriangles.svg	5	yes	53	1	663	0	0			0	0			1				0	
6.6.1	win	2023-07-17	11:54:43	12:05:06	620167	5d728c6f1c91d40001a4b6ad	4	1	main_slash	11	advance_on_keypress_SLASH	154	stimuli_target_rectangletriangles.svg	stimuli_distractor_diamondtriangles.svg	5	yes	57	0	362	0	0			0	0			1				0	
6.6.1	win	2023-07-17	11:54:43	12:05:08	621681	5d728c6f1c91d40001a4b6ad	4	1	main_slash	11	main_slash	155	stimuli_distractor_diamondtriangles.svg	stimuli_target_diamondsquares.svg	32	yes	53	1	506	0	0			0	0			1				0	
6.6.1	win	2023-07-17	11:54:43	12:05:08	621681	5d728c6f1c91d40001a4b6ad	4	1	main_slash	11	advance_on_keypress_SLASH	156	stimuli_distractor_diamondtriangles.svg	stimuli_target_diamondsquares.svg	32	yes	57	0	663	0	0			0	0			1				0	
6.6.1	win	2023-07-17	11:54:43	12:05:10	623648	5d728c6f1c91d40001a4b6ad	4	1	main_slash	11	main_slash	157	stimuli_target_squaretriangles.svg	stimuli_distractor_diamondtriangles.svg	7	yes	53	1	652	0	0			0	0			1				0	
6.6.1	win	2023-07-17	11:54:43	12:05:10	623648	5d728c6f1c91d40001a4b6ad	4	1	main_slash	11	advance_on_keypress_SLASH	158	stimuli_target_squaretriangles.svg	stimuli_distractor_diamondtriangles.svg	7	yes	57	0	425	0	0			0	0			1				0	
6.6.1	win	2023-07-17	11:54:43	12:05:13	626709	5d728c6f1c91d40001a4b6ad	4	1	main_slash	11	main_slash	159	stimuli_distractor_diamondtriangles.svg	stimuli_distractor_diamondtriangles.svg	39	no	0	1	2000	0	0			0	0			1				0	
6.6.1	win	2023-07-17	11:54:43	12:05:13	626709	5d728c6f1c91d40001a4b6ad	4	1	main_slash	11	advance_on_keypress_SLASH	160	stimuli_distractor_diamondtriangles.svg	stimuli_distractor_diamondtriangles.svg	39	no	57	0	240	0	0			0	0			1				0	
6.6.1	win	2023-07-17	11:54:43	12:05:13	626709	5d728c6f1c91d40001a4b6ad	4	1	headphonecheck_calibration	14	headphonecheck_calibrationIntro	1	stimuli_distractor_diamondtriangles.svg	stimuli_distractor_diamondtriangles.svg	39	no	calibrationButton	0	2094	0	0			0	0			1				0	
6.6.1	win	2023-07-17	11:54:43	12:05:13	626709	5d728c6f1c91d40001a4b6ad	4	1	headphonecheck_testphase	15	test_collectResponse	3	stimuli_distractor_diamondtriangles.svg	stimuli_distractor_diamondtriangles.svg	39	no	third	1	543	1	2	antiphase_hc_ios.wav	3	0	0			1				0	
6.6.1	win	2023-07-17	11:54:43	12:05:13	626709	5d728c6f1c91d40001a4b6ad	4	1	headphonecheck_testphase	15	test_collectResponse	6	stimuli_distractor_diamondtriangles.svg	stimuli_distractor_diamondtriangles.svg	39	no	second	1	439	2	1	antiphase_hc_iso.wav	2	0	0			1				0	
6.6.1	win	2023-07-17	11:54:43	12:05:13	626709	5d728c6f1c91d40001a4b6ad	4	1	headphonecheck_testphase	15	test_collectResponse	9	stimuli_distractor_diamondtriangles.svg	stimuli_distractor_diamondtriangles.svg	39	no	third	1	717	3	6	antiphase_hc_ois.wav	3	0	0			1				0	
6.6.1	win	2023-07-17	11:54:43	12:05:13	626709	5d728c6f1c91d40001a4b6ad	4	1	headphonecheck_testphase	15	test_collectResponse	12	stimuli_distractor_diamondtriangles.svg	stimuli_distractor_diamondtriangles.svg	39	no	second	1	323	4	5	antiphase_hc_osi.wav	2	0	0			1				0	
6.6.1	win	2023-07-17	11:54:43	12:05:13	626709	5d728c6f1c91d40001a4b6ad	4	1	headphonecheck_testphase	15	test_collectResponse	15	stimuli_distractor_diamondtriangles.svg	stimuli_distractor_diamondtriangles.svg	39	no	first	1	317	5	3	antiphase_hc_soi.wav	1	0	0			1				0	
6.6.1	win	2023-07-17	11:54:43	12:05:13	626709	5d728c6f1c91d40001a4b6ad	4	1	headphonecheck_testphase	15	test_collectResponse	18	stimuli_distractor_diamondtriangles.svg	stimuli_distractor_diamondtriangles.svg	39	no	first	1	339	6	4	antiphase_hc_sio.wav	1	0	0			1				0	
6.6.1	win	2023-07-17	11:54:43	12:05:13	626709	5d728c6f1c91d40001a4b6ad	4	1	stereocheck_calibration	17	stereocheck_calibrationIntro	1	stimuli_distractor_diamondtriangles.svg	stimuli_distractor_diamondtriangles.svg	39	no	stereocheck_calibrationButton	0	2011	6	4	antiphase_hc_sio.wav	1	0	0			1				0	
6.6.1	win	2023-07-17	11:54:43	12:05:13	626709	5d728c6f1c91d40001a4b6ad	4	1	stereocheck_testphase	18	stereocheck_test_collectResponse	3	stimuli_distractor_diamondtriangles.svg	stimuli_distractor_diamondtriangles.svg	39	no	stereocheck_right	1	440	6	4	antiphase_hc_sio.wav	1	1	4	noise_calib_stim_RIGHT.wav	2	1				0	
6.6.1	win	2023-07-17	11:54:43	12:05:13	626709	5d728c6f1c91d40001a4b6ad	4	1	stereocheck_testphase	18	stereocheck_test_collectResponse	6	stimuli_distractor_diamondtriangles.svg	stimuli_distractor_diamondtriangles.svg	39	no	stereocheck_left	1	296	6	4	antiphase_hc_sio.wav	1	2	2	noise_calib_stim_LEFT.wav	1	1				0	
6.6.1	win	2023-07-17	11:54:43	12:05:13	626709	5d728c6f1c91d40001a4b6ad	4	1	stereocheck_testphase	18	stereocheck_test_collectResponse	9	stimuli_distractor_diamondtriangles.svg	stimuli_distractor_diamondtriangles.svg	39	no	stereocheck_right	1	276	6	4	antiphase_hc_sio.wav	1	3	6	noise_calib_stim_RIGHT.wav	2	1				0	
6.6.1	win	2023-07-17	11:54:43	12:05:13	626709	5d728c6f1c91d40001a4b6ad	4	1	stereocheck_testphase	18	stereocheck_test_collectResponse	12	stimuli_distractor_diamondtriangles.svg	stimuli_distractor_diamondtriangles.svg	39	no	stereocheck_right	1	316	6	4	antiphase_hc_sio.wav	1	4	5	noise_calib_stim_RIGHT.wav	2	1				0	
6.6.1	win	2023-07-17	11:54:43	12:05:13	626709	5d728c6f1c91d40001a4b6ad	4	1	stereocheck_testphase	18	stereocheck_test_collectResponse	15	stimuli_distractor_diamondtriangles.svg	stimuli_distractor_diamondtriangles.svg	39	no	stereocheck_left	1	339	6	4	antiphase_hc_sio.wav	1	5	3	noise_calib_stim_LEFT.wav	1	1				0	
6.6.1	win	2023-07-17	11:54:43	12:05:13	626709	5d728c6f1c91d40001a4b6ad	4	1	stereocheck_testphase	18	stereocheck_test_collectResponse	18	stimuli_distractor_diamondtriangles.svg	stimuli_distractor_diamondtriangles.svg	39	no	stereocheck_left	1	314	6	4	antiphase_hc_sio.wav	1	6	1	noise_calib_stim_LEFT.wav	1	1				0	
6.6.1	win	2023-07-17	11:54:43	12:05:13	626709	5d728c6f1c91d40001a4b6ad	4	1	DL_practice	21	DL_practice	2	stimuli_distractor_diamondtriangles.svg	stimuli_distractor_diamondtriangles.svg	39	no	ta	0	1993	6	4	antiphase_hc_sio.wav	1	6	1	noise_calib_stim_LEFT.wav	1	23	blb_dichoticlistening_ka-pa.mp3	ka	pa	1	other
6.6.1	win	2023-07-17	11:54:43	12:05:13	626709	5d728c6f1c91d40001a4b6ad	4	1	DL_practice	21	DL_practice	3	stimuli_distractor_diamondtriangles.svg	stimuli_distractor_diamondtriangles.svg	39	no	ba	1	1824	6	4	antiphase_hc_sio.wav	1	6	1	noise_calib_stim_LEFT.wav	1	1	blb_dichoticlistening_ba-ba.mp3	ba	ba	0	left
6.6.1	win	2023-07-17	11:54:43	12:05:13	626709	5d728c6f1c91d40001a4b6ad	4	1	DL_practice	21	DL_practice	4	stimuli_distractor_diamondtriangles.svg	stimuli_distractor_diamondtriangles.svg	39	no	ta	1	2030	6	4	antiphase_hc_sio.wav	1	6	1	noise_calib_stim_LEFT.wav	1	36	blb_dichoticlistening_ta-ta.mp3	ta	ta	0	left
6.6.1	win	2023-07-17	11:54:43	12:05:13	626709	5d728c6f1c91d40001a4b6ad	4	1	DL_practice	21	DL_practice	5	stimuli_distractor_diamondtriangles.svg	stimuli_distractor_diamondtriangles.svg	39	no	da	1	1057	6	4	antiphase_hc_sio.wav	1	6	1	noise_calib_stim_LEFT.wav	1	7	blb_dichoticlistening_da-ba.mp3	da	ba	1	left
6.6.1	win	2023-07-17	11:54:43	12:05:13	626709	5d728c6f1c91d40001a4b6ad	4	1	DL_practice	21	DL_practice	6	stimuli_distractor_diamondtriangles.svg	stimuli_distractor_diamondtriangles.svg	39	no	ta	1	2241	6	4	antiphase_hc_sio.wav	1	6	1	noise_calib_stim_LEFT.wav	1	18	blb_dichoticlistening_ga-ta.mp3	ga	ta	1	right
6.6.1	win	2023-07-17	11:54:43	12:05:13	626709	5d728c6f1c91d40001a4b6ad	4	1	DL_practice	21	DL_practice	7	stimuli_distractor_diamondtriangles.svg	stimuli_distractor_diamondtriangles.svg	39	no	pa	1	1608	6	4	antiphase_hc_sio.wav	1	6	1	noise_calib_stim_LEFT.wav	1	29	blb_dichoticlistening_pa-pa.mp3	pa	pa	0	left
6.6.1	win	2023-07-17	11:54:43	12:05:13	626709	5d728c6f1c91d40001a4b6ad	4	1	DL_practice	21	DL_practice	8	stimuli_distractor_diamondtriangles.svg	stimuli_distractor_diamondtriangles.svg	39	no	ga	1	1346	6	4	antiphase_hc_sio.wav	1	6	1	noise_calib_stim_LEFT.wav	1	15	blb_dichoticlistening_ga-ga.mp3	ga	ga	0	left
6.6.1	win	2023-07-17	11:54:43	12:05:13	626709	5d728c6f1c91d40001a4b6ad	4	1	DL_practice	21	DL_practice	9	stimuli_distractor_diamondtriangles.svg	stimuli_distractor_diamondtriangles.svg	39	no	da	1	1425	6	4	antiphase_hc_sio.wav	1	6	1	noise_calib_stim_LEFT.wav	1	8	blb_dichoticlistening_da-da.mp3	da	da	0	left
6.6.1	win	2023-07-17	11:54:43	12:05:13	626709	5d728c6f1c91d40001a4b6ad	4	1	DL_practice	21	DL_practice	10	stimuli_distractor_diamondtriangles.svg	stimuli_distractor_diamondtriangles.svg	39	no	ka	1	1968	6	4	antiphase_hc_sio.wav	1	6	1	noise_calib_stim_LEFT.wav	1	22	blb_dichoticlistening_ka-ka.mp3	ka	ka	0	left
6.6.1	win	2023-07-17	11:54:43	12:05:13	626709	5d728c6f1c91d40001a4b6ad	4	1	DL_test	23	DL_test	1	stimuli_distractor_diamondtriangles.svg	stimuli_distractor_diamondtriangles.svg	39	no	ka	1	1652	6	4	antiphase_hc_sio.wav	1	6	1	noise_calib_stim_LEFT.wav	1	16	blb_dichoticlistening_ga-ka.mp3	ga	ka	1	right
6.6.1	win	2023-07-17	11:54:43	12:05:13	626709	5d728c6f1c91d40001a4b6ad	4	1	DL_test	23	DL_test	2	stimuli_distractor_diamondtriangles.svg	stimuli_distractor_diamondtriangles.svg	39	no	ka	1	1346	6	4	antiphase_hc_sio.wav	1	6	1	noise_calib_stim_LEFT.wav	1	22	blb_dichoticlistening_ka-ka.mp3	ka	ka	0	left
6.6.1	win	2023-07-17	11:54:43	12:05:13	626709	5d728c6f1c91d40001a4b6ad	4	1	DL_test	23	DL_test	3	stimuli_distractor_diamondtriangles.svg	stimuli_distractor_diamondtriangles.svg	39	no	ga	1	1064	6	4	antiphase_hc_sio.wav	1	6	1	noise_calib_stim_LEFT.wav	1	15	blb_dichoticlistening_ga-ga.mp3	ga	ga	0	left
6.6.1	win	2023-07-17	11:54:43	12:05:13	626709	5d728c6f1c91d40001a4b6ad	4	1	DL_test	23	DL_test	4	stimuli_distractor_diamondtriangles.svg	stimuli_distractor_diamondtriangles.svg	39	no	da	1	1143	6	4	antiphase_hc_sio.wav	1	6	1	noise_calib_stim_LEFT.wav	1	8	blb_dichoticlistening_da-da.mp3	da	da	0	left
6.6.1	win	2023-07-17	11:54:43	12:05:13	626709	5d728c6f1c91d40001a4b6ad	4	1	DL_test	23	DL_test	5	stimuli_distractor_diamondtriangles.svg	stimuli_distractor_diamondtriangles.svg	39	no	ba	1	1542	6	4	antiphase_hc_sio.wav	1	6	1	noise_calib_stim_LEFT.wav	1	1	blb_dichoticlistening_ba-ba.mp3	ba	ba	0	left
6.6.1	win	2023-07-17	11:54:43	12:05:13	626709	5d728c6f1c91d40001a4b6ad	4	1	DL_test	23	DL_test	6	stimuli_distractor_diamondtriangles.svg	stimuli_distractor_diamondtriangles.svg	39	no	ta	0	1681	6	4	antiphase_hc_sio.wav	1	6	1	noise_calib_stim_LEFT.wav	1	26	blb_dichoticlistening_pa-da.mp3	pa	da	1	other
6.6.1	win	2023-07-17	11:54:43	12:05:13	626709	5d728c6f1c91d40001a4b6ad	4	1	DL_test	23	DL_test	7	stimuli_distractor_diamondtriangles.svg	stimuli_distractor_diamondtriangles.svg	39	no	pa	1	1414	6	4	antiphase_hc_sio.wav	1	6	1	noise_calib_stim_LEFT.wav	1	29	blb_dichoticlistening_pa-pa.mp3	pa	pa	0	left
6.6.1	win	2023-07-17	11:54:43	12:05:13	626709	5d728c6f1c91d40001a4b6ad	4	1	DL_test	23	DL_test	8	stimuli_distractor_diamondtriangles.svg	stimuli_distractor_diamondtriangles.svg	39	no	ga	1	1020	6	4	antiphase_hc_sio.wav	1	6	1	noise_calib_stim_LEFT.wav	1	9	blb_dichoticlistening_da-ga.mp3	da	ga	1	right
6.6.1	win	2023-07-17	11:54:43	12:05:13	626709	5d728c6f1c91d40001a4b6ad	4	1	DL_test	23	DL_test	9	stimuli_distractor_diamondtriangles.svg	stimuli_distractor_diamondtriangles.svg	39	no	ta	1	1847	6	4	antiphase_hc_sio.wav	1	6	1	noise_calib_stim_LEFT.wav	1	30	blb_dichoticlistening_pa-ta.mp3	pa	ta	1	right
6.6.1	win	2023-07-17	11:54:43	12:05:13	626709	5d728c6f1c91d40001a4b6ad	4	1	DL_test	23	DL_test	10	stimuli_distractor_diamondtriangles.svg	stimuli_distractor_diamondtriangles.svg	39	no	pa	1	1440	6	4	antiphase_hc_sio.wav	1	6	1	noise_calib_stim_LEFT.wav	1	25	blb_dichoticlistening_pa-ba.mp3	pa	ba	1	left
6.6.1	win	2023-07-17	11:54:43	12:05:13	626709	5d728c6f1c91d40001a4b6ad	4	1	DL_test	23	DL_test	11	stimuli_distractor_diamondtriangles.svg	stimuli_distractor_diamondtriangles.svg	39	no	ta	1	1747	6	4	antiphase_hc_sio.wav	1	6	1	noise_calib_stim_LEFT.wav	1	18	blb_dichoticlistening_ga-ta.mp3	ga	ta	1	right
6.6.1	win	2023-07-17	11:54:43	12:05:13	626709	5d728c6f1c91d40001a4b6ad	4	1	DL_test	23	DL_test	12	stimuli_distractor_diamondtriangles.svg	stimuli_distractor_diamondtriangles.svg	39	no	ta	1	1290	6	4	antiphase_hc_sio.wav	1	6	1	noise_calib_stim_LEFT.wav	1	35	blb_dichoticlistening_ta-pa.mp3	ta	pa	1	left
6.6.1	win	2023-07-17	11:54:43	12:05:13	626709	5d728c6f1c91d40001a4b6ad	4	1	DL_test	23	DL_test	13	stimuli_distractor_diamondtriangles.svg	stimuli_distractor_diamondtriangles.svg	39	no	ta	1	1227	6	4	antiphase_hc_sio.wav	1	6	1	noise_calib_stim_LEFT.wav	1	6	blb_dichoticlistening_ba-ta.mp3	ba	ta	1	right
6.6.1	win	2023-07-17	11:54:43	12:05:13	626709	5d728c6f1c91d40001a4b6ad	4	1	DL_test	23	DL_test	14	stimuli_distractor_diamondtriangles.svg	stimuli_distractor_diamondtriangles.svg	39	no	ka	1	1390	6	4	antiphase_hc_sio.wav	1	6	1	noise_calib_stim_LEFT.wav	1	21	blb_dichoticlistening_ka-ga.mp3	ka	ga	1	left
6.6.1	win	2023-07-17	11:54:43	12:05:13	626709	5d728c6f1c91d40001a4b6ad	4	1	DL_test	23	DL_test	15	stimuli_distractor_diamondtriangles.svg	stimuli_distractor_diamondtriangles.svg	39	no	ga	1	1118	6	4	antiphase_hc_sio.wav	1	6	1	noise_calib_stim_LEFT.wav	1	14	blb_dichoticlistening_ga-da.mp3	ga	da	1	left
6.6.1	win	2023-07-17	11:54:43	12:05:13	626709	5d728c6f1c91d40001a4b6ad	4	1	DL_test	23	DL_test	16	stimuli_distractor_diamondtriangles.svg	stimuli_distractor_diamondtriangles.svg	39	no	ta	1	1616	6	4	antiphase_hc_sio.wav	1	6	1	noise_calib_stim_LEFT.wav	1	32	blb_dichoticlistening_ta-da.mp3	ta	da	1	left
6.6.1	win	2023-07-17	11:54:43	12:05:13	626709	5d728c6f1c91d40001a4b6ad	4	1	DL_test	23	DL_test	17	stimuli_distractor_diamondtriangles.svg	stimuli_distractor_diamondtriangles.svg	39	no	ta	0	1476	6	4	antiphase_hc_sio.wav	1	6	1	noise_calib_stim_LEFT.wav	1	11	blb_dichoticlistening_da-pa.mp3	da	pa	1	other
6.6.1	win	2023-07-17	11:54:43	12:05:13	626709	5d728c6f1c91d40001a4b6ad	4	1	DL_test	23	DL_test	18	stimuli_distractor_diamondtriangles.svg	stimuli_distractor_diamondtriangles.svg	39	no	da	1	1439	6	4	antiphase_hc_sio.wav	1	6	1	noise_calib_stim_LEFT.wav	1	7	blb_dichoticlistening_da-ba.mp3	da	ba	1	left
6.6.1	win	2023-07-17	11:54:43	12:05:13	626709	5d728c6f1c91d40001a4b6ad	4	1	DL_test	23	DL_test	19	stimuli_distractor_diamondtriangles.svg	stimuli_distractor_diamondtriangles.svg	39	no	ta	1	1590	6	4	antiphase_hc_sio.wav	1	6	1	noise_calib_stim_LEFT.wav	1	31	blb_dichoticlistening_ta-ba.mp3	ta	ba	1	left
6.6.1	win	2023-07-17	11:54:43	12:05:13	626709	5d728c6f1c91d40001a4b6ad	4	1	DL_test	23	DL_test	20	stimuli_distractor_diamondtriangles.svg	stimuli_distractor_diamondtriangles.svg	39	no	ka	1	1595	6	4	antiphase_hc_sio.wav	1	6	1	noise_calib_stim_LEFT.wav	1	23	blb_dichoticlistening_ka-pa.mp3	ka	pa	1	left
6.6.1	win	2023-07-17	11:54:43	12:05:13	626709	5d728c6f1c91d40001a4b6ad	4	1	DL_test	23	DL_test	21	stimuli_distractor_diamondtriangles.svg	stimuli_distractor_diamondtriangles.svg	39	no	ka	0	1074	6	4	antiphase_hc_sio.wav	1	6	1	noise_calib_stim_LEFT.wav	1	33	blb_dichoticlistening_ta-ga.mp3	ta	ga	1	other
6.6.1	win	2023-07-17	11:54:43	12:05:13	626709	5d728c6f1c91d40001a4b6ad	4	1	DL_test	23	DL_test	22	stimuli_distractor_diamondtriangles.svg	stimuli_distractor_diamondtriangles.svg	39	no	ka	1	1084	6	4	antiphase_hc_sio.wav	1	6	1	noise_calib_stim_LEFT.wav	1	24	blb_dichoticlistening_ka-ta.mp3	ka	ta	1	left
6.6.1	win	2023-07-17	11:54:43	12:05:13	626709	5d728c6f1c91d40001a4b6ad	4	1	DL_test	23	DL_test	23	stimuli_distractor_diamondtriangles.svg	stimuli_distractor_diamondtriangles.svg	39	no	ka	1	1395	6	4	antiphase_hc_sio.wav	1	6	1	noise_calib_stim_LEFT.wav	1	20	blb_dichoticlistening_ka-da.mp3	ka	da	1	left
6.6.1	win	2023-07-17	11:54:43	12:05:13	626709	5d728c6f1c91d40001a4b6ad	4	1	DL_test	23	DL_test	24	stimuli_distractor_diamondtriangles.svg	stimuli_distractor_diamondtriangles.svg	39	no	pa	1	1944	6	4	antiphase_hc_sio.wav	1	6	1	noise_calib_stim_LEFT.wav	1	17	blb_dichoticlistening_ga-pa.mp3	ga	pa	1	right
6.6.1	win	2023-07-17	11:54:43	12:05:13	626709	5d728c6f1c91d40001a4b6ad	4	1	DL_test	23	DL_test	25	stimuli_distractor_diamondtriangles.svg	stimuli_distractor_diamondtriangles.svg	39	no	ka	1	1096	6	4	antiphase_hc_sio.wav	1	6	1	noise_calib_stim_LEFT.wav	1	19	blb_dichoticlistening_ka-ba.mp3	ka	ba	1	left
6.6.1	win	2023-07-17	11:54:43	12:05:13	626709	5d728c6f1c91d40001a4b6ad	4	1	DL_test	23	DL_test	26	stimuli_distractor_diamondtriangles.svg	stimuli_distractor_diamondtriangles.svg	39	no	ta	0	1490	6	4	antiphase_hc_sio.wav	1	6	1	noise_calib_stim_LEFT.wav	1	10	blb_dichoticlistening_da-ka.mp3	da	ka	1	other
