build	computer.platform	date	time	timestamp	time_elapsed_ms	subject	group	session	blockcode	blocknum	trialcode	trialnum	stimulus_left	stimulus_right	stim_index	target_present	response	correct	latency	headphonecheck_countTestTrials	headphonecheck_index	headphonecheck_testSound	headphonecheck_correctResponse	stereocheck_countTestTrials	stereocheck_index	stereocheck_testSound	stereocheck_correctResponse	DL_index	DL_soundfile	DL_leftSound	DL_rightSound	DL_dualSound	DL_choice
6.6.1	win	2023-06-02	02:30:05	0	0	5a8d8079190420000156435d	1	1	headphonecheck_calibration	4	headphonecheck_calibrationIntro	1			0		calibrationButton	0	3481	0	0			0	0			1				0	
6.6.1	win	2023-06-02	02:30:05	0	0	5a8d8079190420000156435d	1	1	headphonecheck_testphase	5	test_collectResponse	3			0		third	1	573	1	2	antiphase_hc_ios.wav	3	0	0			1				0	
6.6.1	win	2023-06-02	02:30:05	0	0	5a8d8079190420000156435d	1	1	headphonecheck_testphase	5	test_collectResponse	6			0		third	1	569	2	6	antiphase_hc_ois.wav	3	0	0			1				0	
6.6.1	win	2023-06-02	02:30:05	0	0	5a8d8079190420000156435d	1	1	headphonecheck_testphase	5	test_collectResponse	9			0		second	1	419	3	5	antiphase_hc_osi.wav	2	0	0			1				0	
6.6.1	win	2023-06-02	02:30:05	0	0	5a8d8079190420000156435d	1	1	headphonecheck_testphase	5	test_collectResponse	12			0		first	1	350	4	4	antiphase_hc_sio.wav	1	0	0			1				0	
6.6.1	win	2023-06-02	02:30:05	0	0	5a8d8079190420000156435d	1	1	headphonecheck_testphase	5	test_collectResponse	15			0		first	1	435	5	3	antiphase_hc_soi.wav	1	0	0			1				0	
6.6.1	win	2023-06-02	02:30:05	0	0	5a8d8079190420000156435d	1	1	headphonecheck_testphase	5	test_collectResponse	18			0		second	1	562	6	1	antiphase_hc_iso.wav	2	0	0			1				0	
6.6.1	win	2023-06-02	02:30:05	0	0	5a8d8079190420000156435d	1	1	stereocheck_calibration	7	stereocheck_calibrationIntro	1			0		stereocheck_calibrationButton	0	6197	6	1	antiphase_hc_iso.wav	2	0	0			1				0	
6.6.1	win	2023-06-02	02:30:05	0	0	5a8d8079190420000156435d	1	1	stereocheck_testphase	8	stereocheck_test_collectResponse	3			0		stereocheck_left	1	476	6	1	antiphase_hc_iso.wav	2	1	2	noise_calib_stim_LEFT.wav	1	1				0	
6.6.1	win	2023-06-02	02:30:05	0	0	5a8d8079190420000156435d	1	1	stereocheck_testphase	8	stereocheck_test_collectResponse	6			0		stereocheck_left	1	579	6	1	antiphase_hc_iso.wav	2	2	3	noise_calib_stim_LEFT.wav	1	1				0	
6.6.1	win	2023-06-02	02:30:05	0	0	5a8d8079190420000156435d	1	1	stereocheck_testphase	8	stereocheck_test_collectResponse	9			0		stereocheck_right	1	517	6	1	antiphase_hc_iso.wav	2	3	5	noise_calib_stim_RIGHT.wav	2	1				0	
6.6.1	win	2023-06-02	02:30:05	0	0	5a8d8079190420000156435d	1	1	stereocheck_testphase	8	stereocheck_test_collectResponse	12			0		stereocheck_right	1	1345	6	1	antiphase_hc_iso.wav	2	4	4	noise_calib_stim_RIGHT.wav	2	1				0	
6.6.1	win	2023-06-02	02:30:05	0	0	5a8d8079190420000156435d	1	1	stereocheck_testphase	8	stereocheck_test_collectResponse	15			0		stereocheck_left	1	677	6	1	antiphase_hc_iso.wav	2	5	1	noise_calib_stim_LEFT.wav	1	1				0	
6.6.1	win	2023-06-02	02:30:05	0	0	5a8d8079190420000156435d	1	1	stereocheck_testphase	8	stereocheck_test_collectResponse	18			0		stereocheck_right	1	804	6	1	antiphase_hc_iso.wav	2	6	6	noise_calib_stim_RIGHT.wav	2	1				0	
6.6.1	win	2023-06-02	02:30:05	0	0	5a8d8079190420000156435d	1	1	DL_practice	11	DL_practice	2			0		ga	1	1631	6	1	antiphase_hc_iso.wav	2	6	6	noise_calib_stim_RIGHT.wav	2	18	blb_dichoticlistening_ga-ta.mp3	ga	ta	1	left
6.6.1	win	2023-06-02	02:30:05	0	0	5a8d8079190420000156435d	1	1	DL_practice	11	DL_practice	3			0		da	1	1238	6	1	antiphase_hc_iso.wav	2	6	6	noise_calib_stim_RIGHT.wav	2	8	blb_dichoticlistening_da-da.mp3	da	da	0	left
6.6.1	win	2023-06-02	02:30:05	0	0	5a8d8079190420000156435d	1	1	DL_practice	11	DL_practice	4			0		ka	1	1067	6	1	antiphase_hc_iso.wav	2	6	6	noise_calib_stim_RIGHT.wav	2	23	blb_dichoticlistening_ka-pa.mp3	ka	pa	1	left
6.6.1	win	2023-06-02	02:30:05	0	0	5a8d8079190420000156435d	1	1	DL_practice	11	DL_practice	5			0		ba	1	1438	6	1	antiphase_hc_iso.wav	2	6	6	noise_calib_stim_RIGHT.wav	2	1	blb_dichoticlistening_ba-ba.mp3	ba	ba	0	left
6.6.1	win	2023-06-02	02:30:05	0	0	5a8d8079190420000156435d	1	1	DL_practice	11	DL_practice	6			0		ga	1	1016	6	1	antiphase_hc_iso.wav	2	6	6	noise_calib_stim_RIGHT.wav	2	15	blb_dichoticlistening_ga-ga.mp3	ga	ga	0	left
6.6.1	win	2023-06-02	02:30:05	0	0	5a8d8079190420000156435d	1	1	DL_practice	11	DL_practice	7			0		pa	1	907	6	1	antiphase_hc_iso.wav	2	6	6	noise_calib_stim_RIGHT.wav	2	29	blb_dichoticlistening_pa-pa.mp3	pa	pa	0	left
6.6.1	win	2023-06-02	02:30:05	0	0	5a8d8079190420000156435d	1	1	DL_practice	11	DL_practice	8			0		ba	1	3281	6	1	antiphase_hc_iso.wav	2	6	6	noise_calib_stim_RIGHT.wav	2	7	blb_dichoticlistening_da-ba.mp3	da	ba	1	right
6.6.1	win	2023-06-02	02:30:05	0	0	5a8d8079190420000156435d	1	1	DL_practice	11	DL_practice	9			0		ta	1	1292	6	1	antiphase_hc_iso.wav	2	6	6	noise_calib_stim_RIGHT.wav	2	36	blb_dichoticlistening_ta-ta.mp3	ta	ta	0	left
6.6.1	win	2023-06-02	02:30:05	0	0	5a8d8079190420000156435d	1	1	DL_practice	11	DL_practice	10			0		ka	1	1139	6	1	antiphase_hc_iso.wav	2	6	6	noise_calib_stim_RIGHT.wav	2	22	blb_dichoticlistening_ka-ka.mp3	ka	ka	0	left
6.6.1	win	2023-06-02	02:30:05	0	0	5a8d8079190420000156435d	1	1	DL_test	13	DL_test	1			0		da	1	1218	6	1	antiphase_hc_iso.wav	2	6	6	noise_calib_stim_RIGHT.wav	2	14	blb_dichoticlistening_ga-da.mp3	ga	da	1	right
6.6.1	win	2023-06-02	02:30:05	0	0	5a8d8079190420000156435d	1	1	DL_test	13	DL_test	2			0		ka	1	2518	6	1	antiphase_hc_iso.wav	2	6	6	noise_calib_stim_RIGHT.wav	2	10	blb_dichoticlistening_da-ka.mp3	da	ka	1	right
6.6.1	win	2023-06-02	02:30:05	0	0	5a8d8079190420000156435d	1	1	DL_test	13	DL_test	3			0		da	1	1137	6	1	antiphase_hc_iso.wav	2	6	6	noise_calib_stim_RIGHT.wav	2	11	blb_dichoticlistening_da-pa.mp3	da	pa	1	left
6.6.1	win	2023-06-02	02:30:05	0	0	5a8d8079190420000156435d	1	1	DL_test	13	DL_test	4			0		da	1	1399	6	1	antiphase_hc_iso.wav	2	6	6	noise_calib_stim_RIGHT.wav	2	20	blb_dichoticlistening_ka-da.mp3	ka	da	1	right
6.6.1	win	2023-06-02	02:30:05	0	0	5a8d8079190420000156435d	1	1	DL_test	13	DL_test	5			0		pa	1	1230	6	1	antiphase_hc_iso.wav	2	6	6	noise_calib_stim_RIGHT.wav	2	29	blb_dichoticlistening_pa-pa.mp3	pa	pa	0	left
6.6.1	win	2023-06-02	02:30:05	0	0	5a8d8079190420000156435d	1	1	DL_test	13	DL_test	6			0		da	1	1097	6	1	antiphase_hc_iso.wav	2	6	6	noise_calib_stim_RIGHT.wav	2	32	blb_dichoticlistening_ta-da.mp3	ta	da	1	right
6.6.1	win	2023-06-02	02:30:05	0	0	5a8d8079190420000156435d	1	1	DL_test	13	DL_test	7			0		ta	1	1419	6	1	antiphase_hc_iso.wav	2	6	6	noise_calib_stim_RIGHT.wav	2	35	blb_dichoticlistening_ta-pa.mp3	ta	pa	1	left
6.6.1	win	2023-06-02	02:30:05	0	0	5a8d8079190420000156435d	1	1	DL_test	13	DL_test	8			0		ga	1	1369	6	1	antiphase_hc_iso.wav	2	6	6	noise_calib_stim_RIGHT.wav	2	27	blb_dichoticlistening_pa-ga.mp3	pa	ga	1	right
6.6.1	win	2023-06-02	02:30:05	0	0	5a8d8079190420000156435d	1	1	DL_test	13	DL_test	9			0		ba	1	1838	6	1	antiphase_hc_iso.wav	2	6	6	noise_calib_stim_RIGHT.wav	2	25	blb_dichoticlistening_pa-ba.mp3	pa	ba	1	right
6.6.1	win	2023-06-02	02:30:05	0	0	5a8d8079190420000156435d	1	1	DL_test	13	DL_test	10			0		ka	1	1305	6	1	antiphase_hc_iso.wav	2	6	6	noise_calib_stim_RIGHT.wav	2	28	blb_dichoticlistening_pa-ka.mp3	pa	ka	1	right
6.6.1	win	2023-06-02	02:30:05	0	0	5a8d8079190420000156435d	1	1	DL_test	13	DL_test	11			0		da	1	2436	6	1	antiphase_hc_iso.wav	2	6	6	noise_calib_stim_RIGHT.wav	2	12	blb_dichoticlistening_da-ta.mp3	da	ta	1	left
6.6.1	win	2023-06-02	02:30:05	0	0	5a8d8079190420000156435d	1	1	DL_test	13	DL_test	12			0		da	1	866	6	1	antiphase_hc_iso.wav	2	6	6	noise_calib_stim_RIGHT.wav	2	9	blb_dichoticlistening_da-ga.mp3	da	ga	1	left
6.6.1	win	2023-06-02	02:30:05	0	0	5a8d8079190420000156435d	1	1	DL_test	13	DL_test	13			0		ta	1	1319	6	1	antiphase_hc_iso.wav	2	6	6	noise_calib_stim_RIGHT.wav	2	6	blb_dichoticlistening_ba-ta.mp3	ba	ta	1	right
6.6.1	win	2023-06-02	02:30:05	0	0	5a8d8079190420000156435d	1	1	DL_test	13	DL_test	14			0		da	1	1643	6	1	antiphase_hc_iso.wav	2	6	6	noise_calib_stim_RIGHT.wav	2	26	blb_dichoticlistening_pa-da.mp3	pa	da	1	right
6.6.1	win	2023-06-02	02:30:05	0	0	5a8d8079190420000156435d	1	1	DL_test	13	DL_test	15			0		ga	1	856	6	1	antiphase_hc_iso.wav	2	6	6	noise_calib_stim_RIGHT.wav	2	15	blb_dichoticlistening_ga-ga.mp3	ga	ga	0	left
6.6.1	win	2023-06-02	02:30:05	0	0	5a8d8079190420000156435d	1	1	DL_test	13	DL_test	16			0		pa	0	4163	6	1	antiphase_hc_iso.wav	2	6	6	noise_calib_stim_RIGHT.wav	2	19	blb_dichoticlistening_ka-ba.mp3	ka	ba	1	other
6.6.1	win	2023-06-02	02:30:05	0	0	5a8d8079190420000156435d	1	1	DL_test	13	DL_test	17			0		ka	0	1044	6	1	antiphase_hc_iso.wav	2	6	6	noise_calib_stim_RIGHT.wav	2	17	blb_dichoticlistening_ga-pa.mp3	ga	pa	1	other
6.6.1	win	2023-06-02	02:30:05	0	0	5a8d8079190420000156435d	1	1	DL_test	13	DL_test	18			0		ka	1	715	6	1	antiphase_hc_iso.wav	2	6	6	noise_calib_stim_RIGHT.wav	2	34	blb_dichoticlistening_ta-ka.mp3	ta	ka	1	right
6.6.1	win	2023-06-02	02:30:05	0	0	5a8d8079190420000156435d	1	1	DL_test	13	DL_test	19			0		ba	1	1307	6	1	antiphase_hc_iso.wav	2	6	6	noise_calib_stim_RIGHT.wav	2	3	blb_dichoticlistening_ba-ga.mp3	ba	ga	1	left
6.6.1	win	2023-06-02	02:30:05	0	0	5a8d8079190420000156435d	1	1	DL_test	13	DL_test	20			0		ba	1	917	6	1	antiphase_hc_iso.wav	2	6	6	noise_calib_stim_RIGHT.wav	2	7	blb_dichoticlistening_da-ba.mp3	da	ba	1	right
6.6.1	win	2023-06-02	02:30:05	0	0	5a8d8079190420000156435d	1	1	DL_test	13	DL_test	21			0		ba	1	1156	6	1	antiphase_hc_iso.wav	2	6	6	noise_calib_stim_RIGHT.wav	2	2	blb_dichoticlistening_ba-da.mp3	ba	da	1	left
6.6.1	win	2023-06-02	02:30:05	0	0	5a8d8079190420000156435d	1	1	DL_test	13	DL_test	22			0		ka	1	1387	6	1	antiphase_hc_iso.wav	2	6	6	noise_calib_stim_RIGHT.wav	2	22	blb_dichoticlistening_ka-ka.mp3	ka	ka	0	left
6.6.1	win	2023-06-02	02:30:05	0	0	5a8d8079190420000156435d	1	1	DL_test	13	DL_test	23			0		ga	1	1362	6	1	antiphase_hc_iso.wav	2	6	6	noise_calib_stim_RIGHT.wav	2	18	blb_dichoticlistening_ga-ta.mp3	ga	ta	1	left
6.6.1	win	2023-06-02	02:30:05	0	0	5a8d8079190420000156435d	1	1	DL_test	13	DL_test	24			0		ka	1	3003	6	1	antiphase_hc_iso.wav	2	6	6	noise_calib_stim_RIGHT.wav	2	4	blb_dichoticlistening_ba-ka.mp3	ba	ka	1	right
6.6.1	win	2023-06-02	02:30:05	0	0	5a8d8079190420000156435d	1	1	DL_test	13	DL_test	25			0		ka	1	739	6	1	antiphase_hc_iso.wav	2	6	6	noise_calib_stim_RIGHT.wav	2	23	blb_dichoticlistening_ka-pa.mp3	ka	pa	1	left
6.6.1	win	2023-06-02	02:30:05	0	0	5a8d8079190420000156435d	1	1	DL_test	13	DL_test	26			0		pa	1	960	6	1	antiphase_hc_iso.wav	2	6	6	noise_calib_stim_RIGHT.wav	2	5	blb_dichoticlistening_ba-pa.mp3	ba	pa	1	right
6.6.1	win	2023-06-02	02:30:05	0	0	5a8d8079190420000156435d	1	1	DL_test	13	DL_test	27			0		ta	1	2678	6	1	antiphase_hc_iso.wav	2	6	6	noise_calib_stim_RIGHT.wav	2	31	blb_dichoticlistening_ta-ba.mp3	ta	ba	1	left
6.6.1	win	2023-06-02	02:30:05	0	0	5a8d8079190420000156435d	1	1	DL_test	13	DL_test	28			0		ka	1	1197	6	1	antiphase_hc_iso.wav	2	6	6	noise_calib_stim_RIGHT.wav	2	24	blb_dichoticlistening_ka-ta.mp3	ka	ta	1	left
6.6.1	win	2023-06-02	02:30:05	0	0	5a8d8079190420000156435d	1	1	DL_test	13	DL_test	29			0		ga	1	1259	6	1	antiphase_hc_iso.wav	2	6	6	noise_calib_stim_RIGHT.wav	2	33	blb_dichoticlistening_ta-ga.mp3	ta	ga	1	right
6.6.1	win	2023-06-02	02:30:05	0	0	5a8d8079190420000156435d	1	1	DL_test	13	DL_test	30			0		ba	1	1194	6	1	antiphase_hc_iso.wav	2	6	6	noise_calib_stim_RIGHT.wav	2	1	blb_dichoticlistening_ba-ba.mp3	ba	ba	0	left
6.6.1	win	2023-06-02	02:30:05	0	0	5a8d8079190420000156435d	1	1	DL_test	13	DL_test	31			0		ta	1	1255	6	1	antiphase_hc_iso.wav	2	6	6	noise_calib_stim_RIGHT.wav	2	36	blb_dichoticlistening_ta-ta.mp3	ta	ta	0	left
6.6.1	win	2023-06-02	02:30:05	0	0	5a8d8079190420000156435d	1	1	DL_test	13	DL_test	32			0		da	1	1026	6	1	antiphase_hc_iso.wav	2	6	6	noise_calib_stim_RIGHT.wav	2	8	blb_dichoticlistening_da-da.mp3	da	da	0	left
6.6.1	win	2023-06-02	02:30:05	0	0	5a8d8079190420000156435d	1	1	DL_test	13	DL_test	33			0		ga	1	3038	6	1	antiphase_hc_iso.wav	2	6	6	noise_calib_stim_RIGHT.wav	2	21	blb_dichoticlistening_ka-ga.mp3	ka	ga	1	right
6.6.1	win	2023-06-02	02:30:05	0	0	5a8d8079190420000156435d	1	1	DL_test	13	DL_test	34			0		ta	1	1171	6	1	antiphase_hc_iso.wav	2	6	6	noise_calib_stim_RIGHT.wav	2	30	blb_dichoticlistening_pa-ta.mp3	pa	ta	1	right
6.6.1	win	2023-06-02	02:30:05	0	0	5a8d8079190420000156435d	1	1	DL_test	13	DL_test	35			0		ka	1	2009	6	1	antiphase_hc_iso.wav	2	6	6	noise_calib_stim_RIGHT.wav	2	16	blb_dichoticlistening_ga-ka.mp3	ga	ka	1	right
6.6.1	win	2023-06-02	02:30:05	0	0	5a8d8079190420000156435d	1	1	DL_test	13	DL_test	36			0		ba	1	1381	6	1	antiphase_hc_iso.wav	2	6	6	noise_calib_stim_RIGHT.wav	2	13	blb_dichoticlistening_ga-ba.mp3	ga	ba	1	right
6.6.1	win	2023-06-02	02:30:05	0	0	5a8d8079190420000156435d	1	1	DL_test	14	DL_test	1			0		ga	1	1715	6	1	antiphase_hc_iso.wav	2	6	6	noise_calib_stim_RIGHT.wav	2	27	blb_dichoticlistening_pa-ga.mp3	pa	ga	1	right
6.6.1	win	2023-06-02	02:30:05	0	0	5a8d8079190420000156435d	1	1	DL_test	14	DL_test	2			0		da	0	832	6	1	antiphase_hc_iso.wav	2	6	6	noise_calib_stim_RIGHT.wav	2	1	blb_dichoticlistening_ba-ba.mp3	ba	ba	0	other
6.6.1	win	2023-06-02	02:30:05	0	0	5a8d8079190420000156435d	1	1	DL_test	14	DL_test	3			0		pa	1	1240	6	1	antiphase_hc_iso.wav	2	6	6	noise_calib_stim_RIGHT.wav	2	25	blb_dichoticlistening_pa-ba.mp3	pa	ba	1	left
6.6.1	win	2023-06-02	02:30:05	0	0	5a8d8079190420000156435d	1	1	DL_test	14	DL_test	4			0		da	1	1387	6	1	antiphase_hc_iso.wav	2	6	6	noise_calib_stim_RIGHT.wav	2	26	blb_dichoticlistening_pa-da.mp3	pa	da	1	right
6.6.1	win	2023-06-02	02:30:05	0	0	5a8d8079190420000156435d	1	1	DL_test	14	DL_test	5			0		da	1	1096	6	1	antiphase_hc_iso.wav	2	6	6	noise_calib_stim_RIGHT.wav	2	14	blb_dichoticlistening_ga-da.mp3	ga	da	1	right
6.6.1	win	2023-06-02	02:30:05	0	0	5a8d8079190420000156435d	1	1	DL_test	14	DL_test	6			0		ta	1	1159	6	1	antiphase_hc_iso.wav	2	6	6	noise_calib_stim_RIGHT.wav	2	35	blb_dichoticlistening_ta-pa.mp3	ta	pa	1	left
6.6.1	win	2023-06-02	02:30:05	0	0	5a8d8079190420000156435d	1	1	DL_test	14	DL_test	7			0		ta	1	1001	6	1	antiphase_hc_iso.wav	2	6	6	noise_calib_stim_RIGHT.wav	2	30	blb_dichoticlistening_pa-ta.mp3	pa	ta	1	right
6.6.1	win	2023-06-02	02:30:05	0	0	5a8d8079190420000156435d	1	1	DL_test	14	DL_test	8			0		pa	1	914	6	1	antiphase_hc_iso.wav	2	6	6	noise_calib_stim_RIGHT.wav	2	29	blb_dichoticlistening_pa-pa.mp3	pa	pa	0	left
6.6.1	win	2023-06-02	02:30:05	0	0	5a8d8079190420000156435d	1	1	DL_test	14	DL_test	9			0		ga	1	953	6	1	antiphase_hc_iso.wav	2	6	6	noise_calib_stim_RIGHT.wav	2	18	blb_dichoticlistening_ga-ta.mp3	ga	ta	1	left
6.6.1	win	2023-06-02	02:30:05	0	0	5a8d8079190420000156435d	1	1	DL_test	14	DL_test	10			0		da	1	886	6	1	antiphase_hc_iso.wav	2	6	6	noise_calib_stim_RIGHT.wav	2	8	blb_dichoticlistening_da-da.mp3	da	da	0	left
6.6.1	win	2023-06-02	02:30:05	0	0	5a8d8079190420000156435d	1	1	DL_test	14	DL_test	11			0		ka	1	1041	6	1	antiphase_hc_iso.wav	2	6	6	noise_calib_stim_RIGHT.wav	2	22	blb_dichoticlistening_ka-ka.mp3	ka	ka	0	left
6.6.1	win	2023-06-02	02:30:05	0	0	5a8d8079190420000156435d	1	1	DL_test	14	DL_test	12			0		da	1	948	6	1	antiphase_hc_iso.wav	2	6	6	noise_calib_stim_RIGHT.wav	2	9	blb_dichoticlistening_da-ga.mp3	da	ga	1	left
6.6.1	win	2023-06-02	02:30:05	0	0	5a8d8079190420000156435d	1	1	DL_test	14	DL_test	13			0		ka	1	1353	6	1	antiphase_hc_iso.wav	2	6	6	noise_calib_stim_RIGHT.wav	2	34	blb_dichoticlistening_ta-ka.mp3	ta	ka	1	right
6.6.1	win	2023-06-02	02:30:05	0	0	5a8d8079190420000156435d	1	1	DL_test	14	DL_test	14			0		ba	1	2515	6	1	antiphase_hc_iso.wav	2	6	6	noise_calib_stim_RIGHT.wav	2	31	blb_dichoticlistening_ta-ba.mp3	ta	ba	1	right
6.6.1	win	2023-06-02	02:30:05	0	0	5a8d8079190420000156435d	1	1	DL_test	14	DL_test	15			0		ba	1	1258	6	1	antiphase_hc_iso.wav	2	6	6	noise_calib_stim_RIGHT.wav	2	7	blb_dichoticlistening_da-ba.mp3	da	ba	1	right
6.6.1	win	2023-06-02	02:30:05	0	0	5a8d8079190420000156435d	1	1	DL_test	14	DL_test	16			0		ka	1	1301	6	1	antiphase_hc_iso.wav	2	6	6	noise_calib_stim_RIGHT.wav	2	23	blb_dichoticlistening_ka-pa.mp3	ka	pa	1	left
6.6.1	win	2023-06-02	02:30:05	0	0	5a8d8079190420000156435d	1	1	DL_test	14	DL_test	17			0		ga	1	1569	6	1	antiphase_hc_iso.wav	2	6	6	noise_calib_stim_RIGHT.wav	2	21	blb_dichoticlistening_ka-ga.mp3	ka	ga	1	right
6.6.1	win	2023-06-02	02:30:05	0	0	5a8d8079190420000156435d	1	1	DL_test	14	DL_test	18			0		ba	1	1185	6	1	antiphase_hc_iso.wav	2	6	6	noise_calib_stim_RIGHT.wav	2	3	blb_dichoticlistening_ba-ga.mp3	ba	ga	1	left
6.6.1	win	2023-06-02	02:30:05	0	0	5a8d8079190420000156435d	1	1	DL_test	14	DL_test	19			0		ba	1	726	6	1	antiphase_hc_iso.wav	2	6	6	noise_calib_stim_RIGHT.wav	2	13	blb_dichoticlistening_ga-ba.mp3	ga	ba	1	right
6.6.1	win	2023-06-02	02:30:05	0	0	5a8d8079190420000156435d	1	1	DL_test	14	DL_test	20			0		ka	1	1252	6	1	antiphase_hc_iso.wav	2	6	6	noise_calib_stim_RIGHT.wav	2	10	blb_dichoticlistening_da-ka.mp3	da	ka	1	right
6.6.1	win	2023-06-02	02:30:05	0	0	5a8d8079190420000156435d	1	1	DL_test	14	DL_test	21			0		ta	1	1450	6	1	antiphase_hc_iso.wav	2	6	6	noise_calib_stim_RIGHT.wav	2	12	blb_dichoticlistening_da-ta.mp3	da	ta	1	right
6.6.1	win	2023-06-02	02:30:05	0	0	5a8d8079190420000156435d	1	1	DL_test	14	DL_test	22			0		ga	1	1090	6	1	antiphase_hc_iso.wav	2	6	6	noise_calib_stim_RIGHT.wav	2	33	blb_dichoticlistening_ta-ga.mp3	ta	ga	1	right
6.6.1	win	2023-06-02	02:30:05	0	0	5a8d8079190420000156435d	1	1	DL_test	14	DL_test	23			0		ta	1	1634	6	1	antiphase_hc_iso.wav	2	6	6	noise_calib_stim_RIGHT.wav	2	6	blb_dichoticlistening_ba-ta.mp3	ba	ta	1	right
6.6.1	win	2023-06-02	02:30:05	0	0	5a8d8079190420000156435d	1	1	DL_test	14	DL_test	24			0		ta	1	1310	6	1	antiphase_hc_iso.wav	2	6	6	noise_calib_stim_RIGHT.wav	2	36	blb_dichoticlistening_ta-ta.mp3	ta	ta	0	left
6.6.1	win	2023-06-02	02:30:05	0	0	5a8d8079190420000156435d	1	1	DL_test	14	DL_test	25			0		ka	1	1137	6	1	antiphase_hc_iso.wav	2	6	6	noise_calib_stim_RIGHT.wav	2	28	blb_dichoticlistening_pa-ka.mp3	pa	ka	1	right
6.6.1	win	2023-06-02	02:30:05	0	0	5a8d8079190420000156435d	1	1	DL_test	14	DL_test	26			0		ga	0	1990	6	1	antiphase_hc_iso.wav	2	6	6	noise_calib_stim_RIGHT.wav	2	11	blb_dichoticlistening_da-pa.mp3	da	pa	1	other
6.6.1	win	2023-06-02	02:30:05	0	0	5a8d8079190420000156435d	1	1	DL_test	14	DL_test	27			0		ba	1	1391	6	1	antiphase_hc_iso.wav	2	6	6	noise_calib_stim_RIGHT.wav	2	19	blb_dichoticlistening_ka-ba.mp3	ka	ba	1	right
6.6.1	win	2023-06-02	02:30:05	0	0	5a8d8079190420000156435d	1	1	DL_test	14	DL_test	28			0		ga	0	1704	6	1	antiphase_hc_iso.wav	2	6	6	noise_calib_stim_RIGHT.wav	2	20	blb_dichoticlistening_ka-da.mp3	ka	da	1	other
6.6.1	win	2023-06-02	02:30:05	0	0	5a8d8079190420000156435d	1	1	DL_test	14	DL_test	29			0		ka	1	1071	6	1	antiphase_hc_iso.wav	2	6	6	noise_calib_stim_RIGHT.wav	2	24	blb_dichoticlistening_ka-ta.mp3	ka	ta	1	left
6.6.1	win	2023-06-02	02:30:05	0	0	5a8d8079190420000156435d	1	1	DL_test	14	DL_test	30			0		da	1	1163	6	1	antiphase_hc_iso.wav	2	6	6	noise_calib_stim_RIGHT.wav	2	32	blb_dichoticlistening_ta-da.mp3	ta	da	1	right
6.6.1	win	2023-06-02	02:30:05	0	0	5a8d8079190420000156435d	1	1	DL_test	14	DL_test	31			0		ka	1	879	6	1	antiphase_hc_iso.wav	2	6	6	noise_calib_stim_RIGHT.wav	2	16	blb_dichoticlistening_ga-ka.mp3	ga	ka	1	right
6.6.1	win	2023-06-02	02:30:05	0	0	5a8d8079190420000156435d	1	1	DL_test	14	DL_test	32			0		ga	1	1015	6	1	antiphase_hc_iso.wav	2	6	6	noise_calib_stim_RIGHT.wav	2	15	blb_dichoticlistening_ga-ga.mp3	ga	ga	0	left
6.6.1	win	2023-06-02	02:30:05	0	0	5a8d8079190420000156435d	1	1	DL_test	14	DL_test	33			0		ka	0	1183	6	1	antiphase_hc_iso.wav	2	6	6	noise_calib_stim_RIGHT.wav	2	17	blb_dichoticlistening_ga-pa.mp3	ga	pa	1	other
6.6.1	win	2023-06-02	02:30:05	0	0	5a8d8079190420000156435d	1	1	DL_test	14	DL_test	34			0		pa	1	796	6	1	antiphase_hc_iso.wav	2	6	6	noise_calib_stim_RIGHT.wav	2	5	blb_dichoticlistening_ba-pa.mp3	ba	pa	1	right
6.6.1	win	2023-06-02	02:30:05	0	0	5a8d8079190420000156435d	1	1	DL_test	14	DL_test	35			0		pa	0	1696	6	1	antiphase_hc_iso.wav	2	6	6	noise_calib_stim_RIGHT.wav	2	4	blb_dichoticlistening_ba-ka.mp3	ba	ka	1	other
6.6.1	win	2023-06-02	02:30:05	0	0	5a8d8079190420000156435d	1	1	DL_test	14	DL_test	36			0		da	1	3262	6	1	antiphase_hc_iso.wav	2	6	6	noise_calib_stim_RIGHT.wav	2	2	blb_dichoticlistening_ba-da.mp3	ba	da	1	right
6.6.1	win	2023-06-02	02:30:05	0	0	5a8d8079190420000156435d	1	1	DL_test	15	DL_test	1			0		ta	1	1243	6	1	antiphase_hc_iso.wav	2	6	6	noise_calib_stim_RIGHT.wav	2	35	blb_dichoticlistening_ta-pa.mp3	ta	pa	1	left
6.6.1	win	2023-06-02	02:30:05	0	0	5a8d8079190420000156435d	1	1	DL_test	15	DL_test	2			0		ka	1	810	6	1	antiphase_hc_iso.wav	2	6	6	noise_calib_stim_RIGHT.wav	2	22	blb_dichoticlistening_ka-ka.mp3	ka	ka	0	left
6.6.1	win	2023-06-02	02:30:05	0	0	5a8d8079190420000156435d	1	1	DL_test	15	DL_test	3			0		da	1	994	6	1	antiphase_hc_iso.wav	2	6	6	noise_calib_stim_RIGHT.wav	2	8	blb_dichoticlistening_da-da.mp3	da	da	0	left
6.6.1	win	2023-06-02	02:30:05	0	0	5a8d8079190420000156435d	1	1	DL_test	15	DL_test	4			0		ka	1	807	6	1	antiphase_hc_iso.wav	2	6	6	noise_calib_stim_RIGHT.wav	2	28	blb_dichoticlistening_pa-ka.mp3	pa	ka	1	right
6.6.1	win	2023-06-02	02:30:05	0	0	5a8d8079190420000156435d	1	1	DL_test	15	DL_test	5			0		ta	1	1086	6	1	antiphase_hc_iso.wav	2	6	6	noise_calib_stim_RIGHT.wav	2	36	blb_dichoticlistening_ta-ta.mp3	ta	ta	0	left
6.6.1	win	2023-06-02	02:30:05	0	0	5a8d8079190420000156435d	1	1	DL_test	15	DL_test	6			0		ka	1	2746	6	1	antiphase_hc_iso.wav	2	6	6	noise_calib_stim_RIGHT.wav	2	4	blb_dichoticlistening_ba-ka.mp3	ba	ka	1	right
6.6.1	win	2023-06-02	02:30:05	0	0	5a8d8079190420000156435d	1	1	DL_test	15	DL_test	7			0		ka	1	660	6	1	antiphase_hc_iso.wav	2	6	6	noise_calib_stim_RIGHT.wav	2	34	blb_dichoticlistening_ta-ka.mp3	ta	ka	1	right
6.6.1	win	2023-06-02	02:30:05	0	0	5a8d8079190420000156435d	1	1	DL_test	15	DL_test	8			0		ba	1	1826	6	1	antiphase_hc_iso.wav	2	6	6	noise_calib_stim_RIGHT.wav	2	13	blb_dichoticlistening_ga-ba.mp3	ga	ba	1	right
6.6.1	win	2023-06-02	02:30:05	0	0	5a8d8079190420000156435d	1	1	DL_test	15	DL_test	9			0		ba	1	3221	6	1	antiphase_hc_iso.wav	2	6	6	noise_calib_stim_RIGHT.wav	2	25	blb_dichoticlistening_pa-ba.mp3	pa	ba	1	right
6.6.1	win	2023-06-02	02:30:05	0	0	5a8d8079190420000156435d	1	1	DL_test	15	DL_test	10			0		pa	1	916	6	1	antiphase_hc_iso.wav	2	6	6	noise_calib_stim_RIGHT.wav	2	29	blb_dichoticlistening_pa-pa.mp3	pa	pa	0	left
6.6.1	win	2023-06-02	02:30:05	0	0	5a8d8079190420000156435d	1	1	DL_test	15	DL_test	11			0		ka	1	1339	6	1	antiphase_hc_iso.wav	2	6	6	noise_calib_stim_RIGHT.wav	2	23	blb_dichoticlistening_ka-pa.mp3	ka	pa	1	left
6.6.1	win	2023-06-02	02:30:05	0	0	5a8d8079190420000156435d	1	1	DL_test	15	DL_test	12			0		ba	1	1388	6	1	antiphase_hc_iso.wav	2	6	6	noise_calib_stim_RIGHT.wav	2	3	blb_dichoticlistening_ba-ga.mp3	ba	ga	1	left
6.6.1	win	2023-06-02	02:30:05	0	0	5a8d8079190420000156435d	1	1	DL_test	15	DL_test	13			0		ta	0	1393	6	1	antiphase_hc_iso.wav	2	6	6	noise_calib_stim_RIGHT.wav	2	11	blb_dichoticlistening_da-pa.mp3	da	pa	1	other
6.6.1	win	2023-06-02	02:30:05	0	0	5a8d8079190420000156435d	1	1	DL_test	15	DL_test	14			0		ka	1	796	6	1	antiphase_hc_iso.wav	2	6	6	noise_calib_stim_RIGHT.wav	2	24	blb_dichoticlistening_ka-ta.mp3	ka	ta	1	left
6.6.1	win	2023-06-02	02:30:05	0	0	5a8d8079190420000156435d	1	1	DL_test	15	DL_test	15			0		ba	1	1443	6	1	antiphase_hc_iso.wav	2	6	6	noise_calib_stim_RIGHT.wav	2	1	blb_dichoticlistening_ba-ba.mp3	ba	ba	0	left
6.6.1	win	2023-06-02	02:30:05	0	0	5a8d8079190420000156435d	1	1	DL_test	15	DL_test	16			0		ga	1	1094	6	1	antiphase_hc_iso.wav	2	6	6	noise_calib_stim_RIGHT.wav	2	27	blb_dichoticlistening_pa-ga.mp3	pa	ga	1	right
6.6.1	win	2023-06-02	02:30:05	0	0	5a8d8079190420000156435d	1	1	DL_test	15	DL_test	17			0		ga	1	726	6	1	antiphase_hc_iso.wav	2	6	6	noise_calib_stim_RIGHT.wav	2	18	blb_dichoticlistening_ga-ta.mp3	ga	ta	1	left
6.6.1	win	2023-06-02	02:30:05	0	0	5a8d8079190420000156435d	1	1	DL_test	15	DL_test	18			0		ka	0	841	6	1	antiphase_hc_iso.wav	2	6	6	noise_calib_stim_RIGHT.wav	2	17	blb_dichoticlistening_ga-pa.mp3	ga	pa	1	other
6.6.1	win	2023-06-02	02:30:05	0	0	5a8d8079190420000156435d	1	1	DL_test	15	DL_test	19			0		ba	1	1484	6	1	antiphase_hc_iso.wav	2	6	6	noise_calib_stim_RIGHT.wav	2	19	blb_dichoticlistening_ka-ba.mp3	ka	ba	1	right
6.6.1	win	2023-06-02	02:30:05	0	0	5a8d8079190420000156435d	1	1	DL_test	15	DL_test	20			0		ka	1	1031	6	1	antiphase_hc_iso.wav	2	6	6	noise_calib_stim_RIGHT.wav	2	16	blb_dichoticlistening_ga-ka.mp3	ga	ka	1	right
6.6.1	win	2023-06-02	02:30:05	0	0	5a8d8079190420000156435d	1	1	DL_test	15	DL_test	21			0		da	1	1292	6	1	antiphase_hc_iso.wav	2	6	6	noise_calib_stim_RIGHT.wav	2	9	blb_dichoticlistening_da-ga.mp3	da	ga	1	left
6.6.1	win	2023-06-02	02:30:05	0	0	5a8d8079190420000156435d	1	1	DL_test	15	DL_test	22			0		ka	1	915	6	1	antiphase_hc_iso.wav	2	6	6	noise_calib_stim_RIGHT.wav	2	21	blb_dichoticlistening_ka-ga.mp3	ka	ga	1	left
6.6.1	win	2023-06-02	02:30:05	0	0	5a8d8079190420000156435d	1	1	DL_test	15	DL_test	23			0		ta	1	916	6	1	antiphase_hc_iso.wav	2	6	6	noise_calib_stim_RIGHT.wav	2	30	blb_dichoticlistening_pa-ta.mp3	pa	ta	1	right
6.6.1	win	2023-06-02	02:30:05	0	0	5a8d8079190420000156435d	1	1	DL_test	15	DL_test	24			0		ba	0	1000	6	1	antiphase_hc_iso.wav	2	6	6	noise_calib_stim_RIGHT.wav	2	14	blb_dichoticlistening_ga-da.mp3	ga	da	1	other
6.6.1	win	2023-06-02	02:30:05	0	0	5a8d8079190420000156435d	1	1	DL_test	15	DL_test	25			0		ba	1	1112	6	1	antiphase_hc_iso.wav	2	6	6	noise_calib_stim_RIGHT.wav	2	2	blb_dichoticlistening_ba-da.mp3	ba	da	1	left
6.6.1	win	2023-06-02	02:30:05	0	0	5a8d8079190420000156435d	1	1	DL_test	15	DL_test	26			0		ba	1	1715	6	1	antiphase_hc_iso.wav	2	6	6	noise_calib_stim_RIGHT.wav	2	31	blb_dichoticlistening_ta-ba.mp3	ta	ba	1	right
6.6.1	win	2023-06-02	02:30:05	0	0	5a8d8079190420000156435d	1	1	DL_test	15	DL_test	27			0		da	0	921	6	1	antiphase_hc_iso.wav	2	6	6	noise_calib_stim_RIGHT.wav	2	15	blb_dichoticlistening_ga-ga.mp3	ga	ga	0	other
6.6.1	win	2023-06-02	02:30:05	0	0	5a8d8079190420000156435d	1	1	DL_test	15	DL_test	28			0		da	1	1573	6	1	antiphase_hc_iso.wav	2	6	6	noise_calib_stim_RIGHT.wav	2	32	blb_dichoticlistening_ta-da.mp3	ta	da	1	right
6.6.1	win	2023-06-02	02:30:05	0	0	5a8d8079190420000156435d	1	1	DL_test	15	DL_test	29			0		ba	1	1032	6	1	antiphase_hc_iso.wav	2	6	6	noise_calib_stim_RIGHT.wav	2	7	blb_dichoticlistening_da-ba.mp3	da	ba	1	right
6.6.1	win	2023-06-02	02:30:05	0	0	5a8d8079190420000156435d	1	1	DL_test	15	DL_test	30			0		da	1	1211	6	1	antiphase_hc_iso.wav	2	6	6	noise_calib_stim_RIGHT.wav	2	20	blb_dichoticlistening_ka-da.mp3	ka	da	1	right
6.6.1	win	2023-06-02	02:30:05	0	0	5a8d8079190420000156435d	1	1	DL_test	15	DL_test	31			0		ta	1	1458	6	1	antiphase_hc_iso.wav	2	6	6	noise_calib_stim_RIGHT.wav	2	12	blb_dichoticlistening_da-ta.mp3	da	ta	1	right
6.6.1	win	2023-06-02	02:30:05	0	0	5a8d8079190420000156435d	1	1	DL_test	15	DL_test	32			0		ka	1	1694	6	1	antiphase_hc_iso.wav	2	6	6	noise_calib_stim_RIGHT.wav	2	10	blb_dichoticlistening_da-ka.mp3	da	ka	1	right
6.6.1	win	2023-06-02	02:30:05	0	0	5a8d8079190420000156435d	1	1	DL_test	15	DL_test	33			0		pa	1	919	6	1	antiphase_hc_iso.wav	2	6	6	noise_calib_stim_RIGHT.wav	2	5	blb_dichoticlistening_ba-pa.mp3	ba	pa	1	right
6.6.1	win	2023-06-02	02:30:05	0	0	5a8d8079190420000156435d	1	1	DL_test	15	DL_test	34			0		da	1	1312	6	1	antiphase_hc_iso.wav	2	6	6	noise_calib_stim_RIGHT.wav	2	26	blb_dichoticlistening_pa-da.mp3	pa	da	1	right
6.6.1	win	2023-06-02	02:30:05	0	0	5a8d8079190420000156435d	1	1	DL_test	15	DL_test	35			0		ta	1	1321	6	1	antiphase_hc_iso.wav	2	6	6	noise_calib_stim_RIGHT.wav	2	6	blb_dichoticlistening_ba-ta.mp3	ba	ta	1	right
6.6.1	win	2023-06-02	02:30:05	0	0	5a8d8079190420000156435d	1	1	DL_test	15	DL_test	36			0		ga	1	1007	6	1	antiphase_hc_iso.wav	2	6	6	noise_calib_stim_RIGHT.wav	2	33	blb_dichoticlistening_ta-ga.mp3	ta	ga	1	right
6.6.1	win	2023-06-02	02:30:05	0	0	5a8d8079190420000156435d	1	1	DL_test	16	DL_test	1			0		ka	1	941	6	1	antiphase_hc_iso.wav	2	6	6	noise_calib_stim_RIGHT.wav	2	4	blb_dichoticlistening_ba-ka.mp3	ba	ka	1	right
6.6.1	win	2023-06-02	02:30:05	0	0	5a8d8079190420000156435d	1	1	DL_test	16	DL_test	2			0		ba	1	1686	6	1	antiphase_hc_iso.wav	2	6	6	noise_calib_stim_RIGHT.wav	2	25	blb_dichoticlistening_pa-ba.mp3	pa	ba	1	right
6.6.1	win	2023-06-02	02:30:05	0	0	5a8d8079190420000156435d	1	1	DL_test	16	DL_test	3			0		ka	1	1098	6	1	antiphase_hc_iso.wav	2	6	6	noise_calib_stim_RIGHT.wav	2	23	blb_dichoticlistening_ka-pa.mp3	ka	pa	1	left
6.6.1	win	2023-06-02	02:30:05	0	0	5a8d8079190420000156435d	1	1	DL_test	16	DL_test	4			0		da	1	1451	6	1	antiphase_hc_iso.wav	2	6	6	noise_calib_stim_RIGHT.wav	2	32	blb_dichoticlistening_ta-da.mp3	ta	da	1	right
6.6.1	win	2023-06-02	02:30:05	0	0	5a8d8079190420000156435d	1	1	DL_test	16	DL_test	5			0		ta	1	1425	6	1	antiphase_hc_iso.wav	2	6	6	noise_calib_stim_RIGHT.wav	2	35	blb_dichoticlistening_ta-pa.mp3	ta	pa	1	left
6.6.1	win	2023-06-02	02:30:05	0	0	5a8d8079190420000156435d	1	1	DL_test	16	DL_test	6			0		da	1	1022	6	1	antiphase_hc_iso.wav	2	6	6	noise_calib_stim_RIGHT.wav	2	14	blb_dichoticlistening_ga-da.mp3	ga	da	1	right
6.6.1	win	2023-06-02	02:30:05	0	0	5a8d8079190420000156435d	1	1	DL_test	16	DL_test	7			0		ka	0	1007	6	1	antiphase_hc_iso.wav	2	6	6	noise_calib_stim_RIGHT.wav	2	17	blb_dichoticlistening_ga-pa.mp3	ga	pa	1	other
6.6.1	win	2023-06-02	02:30:05	0	0	5a8d8079190420000156435d	1	1	DL_test	16	DL_test	8			0		pa	0	1981	6	1	antiphase_hc_iso.wav	2	6	6	noise_calib_stim_RIGHT.wav	2	10	blb_dichoticlistening_da-ka.mp3	da	ka	1	other
6.6.1	win	2023-06-02	02:30:05	0	0	5a8d8079190420000156435d	1	1	DL_test	16	DL_test	9			0		ba	1	1236	6	1	antiphase_hc_iso.wav	2	6	6	noise_calib_stim_RIGHT.wav	2	7	blb_dichoticlistening_da-ba.mp3	da	ba	1	right
6.6.1	win	2023-06-02	02:30:05	0	0	5a8d8079190420000156435d	1	1	DL_test	16	DL_test	10			0		ga	1	833	6	1	antiphase_hc_iso.wav	2	6	6	noise_calib_stim_RIGHT.wav	2	18	blb_dichoticlistening_ga-ta.mp3	ga	ta	1	left
6.6.1	win	2023-06-02	02:30:05	0	0	5a8d8079190420000156435d	1	1	DL_test	16	DL_test	11			0		ba	1	1299	6	1	antiphase_hc_iso.wav	2	6	6	noise_calib_stim_RIGHT.wav	2	3	blb_dichoticlistening_ba-ga.mp3	ba	ga	1	left
6.6.1	win	2023-06-02	02:30:05	0	0	5a8d8079190420000156435d	1	1	DL_test	16	DL_test	12			0		ta	1	1215	6	1	antiphase_hc_iso.wav	2	6	6	noise_calib_stim_RIGHT.wav	2	6	blb_dichoticlistening_ba-ta.mp3	ba	ta	1	right
6.6.1	win	2023-06-02	02:30:05	0	0	5a8d8079190420000156435d	1	1	DL_test	16	DL_test	13			0		ba	1	1535	6	1	antiphase_hc_iso.wav	2	6	6	noise_calib_stim_RIGHT.wav	2	19	blb_dichoticlistening_ka-ba.mp3	ka	ba	1	right
6.6.1	win	2023-06-02	02:30:05	0	0	5a8d8079190420000156435d	1	1	DL_test	16	DL_test	14			0		ga	0	1142	6	1	antiphase_hc_iso.wav	2	6	6	noise_calib_stim_RIGHT.wav	2	20	blb_dichoticlistening_ka-da.mp3	ka	da	1	other
6.6.1	win	2023-06-02	02:30:05	0	0	5a8d8079190420000156435d	1	1	DL_test	16	DL_test	15			0		ga	1	622	6	1	antiphase_hc_iso.wav	2	6	6	noise_calib_stim_RIGHT.wav	2	15	blb_dichoticlistening_ga-ga.mp3	ga	ga	0	left
6.6.1	win	2023-06-02	02:30:05	0	0	5a8d8079190420000156435d	1	1	DL_test	16	DL_test	16			0		pa	1	915	6	1	antiphase_hc_iso.wav	2	6	6	noise_calib_stim_RIGHT.wav	2	29	blb_dichoticlistening_pa-pa.mp3	pa	pa	0	left
6.6.1	win	2023-06-02	02:30:05	0	0	5a8d8079190420000156435d	1	1	DL_test	16	DL_test	17			0		ga	1	1025	6	1	antiphase_hc_iso.wav	2	6	6	noise_calib_stim_RIGHT.wav	2	33	blb_dichoticlistening_ta-ga.mp3	ta	ga	1	right
6.6.1	win	2023-06-02	02:30:05	0	0	5a8d8079190420000156435d	1	1	DL_test	16	DL_test	18			0		ga	1	837	6	1	antiphase_hc_iso.wav	2	6	6	noise_calib_stim_RIGHT.wav	2	27	blb_dichoticlistening_pa-ga.mp3	pa	ga	1	right
6.6.1	win	2023-06-02	02:30:05	0	0	5a8d8079190420000156435d	1	1	DL_test	16	DL_test	19			0		ba	1	1259	6	1	antiphase_hc_iso.wav	2	6	6	noise_calib_stim_RIGHT.wav	2	13	blb_dichoticlistening_ga-ba.mp3	ga	ba	1	right
6.6.1	win	2023-06-02	02:30:05	0	0	5a8d8079190420000156435d	1	1	DL_test	16	DL_test	20			0		ta	1	1269	6	1	antiphase_hc_iso.wav	2	6	6	noise_calib_stim_RIGHT.wav	2	12	blb_dichoticlistening_da-ta.mp3	da	ta	1	right
6.6.1	win	2023-06-02	02:30:05	0	0	5a8d8079190420000156435d	1	1	DL_test	16	DL_test	21			0		ka	1	1242	6	1	antiphase_hc_iso.wav	2	6	6	noise_calib_stim_RIGHT.wav	2	28	blb_dichoticlistening_pa-ka.mp3	pa	ka	1	right
6.6.1	win	2023-06-02	02:30:05	0	0	5a8d8079190420000156435d	1	1	DL_test	16	DL_test	22			0		ka	1	1986	6	1	antiphase_hc_iso.wav	2	6	6	noise_calib_stim_RIGHT.wav	2	16	blb_dichoticlistening_ga-ka.mp3	ga	ka	1	right
6.6.1	win	2023-06-02	02:30:05	0	0	5a8d8079190420000156435d	1	1	DL_test	16	DL_test	23			0		ba	1	1161	6	1	antiphase_hc_iso.wav	2	6	6	noise_calib_stim_RIGHT.wav	2	1	blb_dichoticlistening_ba-ba.mp3	ba	ba	0	left
6.6.1	win	2023-06-02	02:30:05	0	0	5a8d8079190420000156435d	1	1	DL_test	16	DL_test	24			0		ta	1	1392	6	1	antiphase_hc_iso.wav	2	6	6	noise_calib_stim_RIGHT.wav	2	36	blb_dichoticlistening_ta-ta.mp3	ta	ta	0	left
6.6.1	win	2023-06-02	02:30:05	0	0	5a8d8079190420000156435d	1	1	DL_test	16	DL_test	25			0		ga	1	1537	6	1	antiphase_hc_iso.wav	2	6	6	noise_calib_stim_RIGHT.wav	2	21	blb_dichoticlistening_ka-ga.mp3	ka	ga	1	right
6.6.1	win	2023-06-02	02:30:05	0	0	5a8d8079190420000156435d	1	1	DL_test	16	DL_test	26			0		da	1	1213	6	1	antiphase_hc_iso.wav	2	6	6	noise_calib_stim_RIGHT.wav	2	26	blb_dichoticlistening_pa-da.mp3	pa	da	1	right
6.6.1	win	2023-06-02	02:30:05	0	0	5a8d8079190420000156435d	1	1	DL_test	16	DL_test	27			0		ba	1	949	6	1	antiphase_hc_iso.wav	2	6	6	noise_calib_stim_RIGHT.wav	2	31	blb_dichoticlistening_ta-ba.mp3	ta	ba	1	right
6.6.1	win	2023-06-02	02:30:05	0	0	5a8d8079190420000156435d	1	1	DL_test	16	DL_test	28			0		ka	1	1853	6	1	antiphase_hc_iso.wav	2	6	6	noise_calib_stim_RIGHT.wav	2	22	blb_dichoticlistening_ka-ka.mp3	ka	ka	0	left
6.6.1	win	2023-06-02	02:30:05	0	0	5a8d8079190420000156435d	1	1	DL_test	16	DL_test	29			0		ka	1	720	6	1	antiphase_hc_iso.wav	2	6	6	noise_calib_stim_RIGHT.wav	2	24	blb_dichoticlistening_ka-ta.mp3	ka	ta	1	left
6.6.1	win	2023-06-02	02:30:05	0	0	5a8d8079190420000156435d	1	1	DL_test	16	DL_test	30			0		da	1	1134	6	1	antiphase_hc_iso.wav	2	6	6	noise_calib_stim_RIGHT.wav	2	9	blb_dichoticlistening_da-ga.mp3	da	ga	1	left
6.6.1	win	2023-06-02	02:30:05	0	0	5a8d8079190420000156435d	1	1	DL_test	16	DL_test	31			0		pa	1	946	6	1	antiphase_hc_iso.wav	2	6	6	noise_calib_stim_RIGHT.wav	2	5	blb_dichoticlistening_ba-pa.mp3	ba	pa	1	right
6.6.1	win	2023-06-02	02:30:05	0	0	5a8d8079190420000156435d	1	1	DL_test	16	DL_test	32			0		ta	1	1384	6	1	antiphase_hc_iso.wav	2	6	6	noise_calib_stim_RIGHT.wav	2	30	blb_dichoticlistening_pa-ta.mp3	pa	ta	1	right
6.6.1	win	2023-06-02	02:30:05	0	0	5a8d8079190420000156435d	1	1	DL_test	16	DL_test	33			0		ka	1	964	6	1	antiphase_hc_iso.wav	2	6	6	noise_calib_stim_RIGHT.wav	2	34	blb_dichoticlistening_ta-ka.mp3	ta	ka	1	right
6.6.1	win	2023-06-02	02:30:05	0	0	5a8d8079190420000156435d	1	1	DL_test	16	DL_test	34			0		da	1	1579	6	1	antiphase_hc_iso.wav	2	6	6	noise_calib_stim_RIGHT.wav	2	8	blb_dichoticlistening_da-da.mp3	da	da	0	left
6.6.1	win	2023-06-02	02:30:05	0	0	5a8d8079190420000156435d	1	1	DL_test	16	DL_test	35			0		ba	1	1203	6	1	antiphase_hc_iso.wav	2	6	6	noise_calib_stim_RIGHT.wav	2	2	blb_dichoticlistening_ba-da.mp3	ba	da	1	left
6.6.1	win	2023-06-02	02:30:05	0	0	5a8d8079190420000156435d	1	1	DL_test	16	DL_test	36			0		pa	1	1114	6	1	antiphase_hc_iso.wav	2	6	6	noise_calib_stim_RIGHT.wav	2	11	blb_dichoticlistening_da-pa.mp3	da	pa	1	right
6.6.1	win	2023-06-02	02:30:05	02:41:47	698556	5a8d8079190420000156435d	1	1	practice_slash	22	practice_slash	1	stimuli_target_rectanglediamonds.svg	stimuli_distractor_trianglediamonds.svg	4	yes	53	1	996	6	1	antiphase_hc_iso.wav	2	6	6	noise_calib_stim_RIGHT.wav	2	11	blb_dichoticlistening_da-pa.mp3	da	pa	1	right
6.6.1	win	2023-06-02	02:30:05	02:41:47	698556	5a8d8079190420000156435d	1	1	practice_slash	22	advance_on_keypress_SLASH	2	stimuli_target_rectanglediamonds.svg	stimuli_distractor_trianglediamonds.svg	4	yes	57	0	1866	6	1	antiphase_hc_iso.wav	2	6	6	noise_calib_stim_RIGHT.wav	2	11	blb_dichoticlistening_da-pa.mp3	da	pa	1	right
6.6.1	win	2023-06-02	02:30:05	02:41:51	702825	5a8d8079190420000156435d	1	1	practice_slash	22	practice_slash	3	stimuli_target_squarediamonds.svg	stimuli_distractor_trianglediamonds.svg	5	yes	53	1	748	6	1	antiphase_hc_iso.wav	2	6	6	noise_calib_stim_RIGHT.wav	2	11	blb_dichoticlistening_da-pa.mp3	da	pa	1	right
6.6.1	win	2023-06-02	02:30:05	02:41:51	702825	5a8d8079190420000156435d	1	1	practice_slash	22	advance_on_keypress_SLASH	4	stimuli_target_squarediamonds.svg	stimuli_distractor_trianglediamonds.svg	5	yes	57	0	132	6	1	antiphase_hc_iso.wav	2	6	6	noise_calib_stim_RIGHT.wav	2	11	blb_dichoticlistening_da-pa.mp3	da	pa	1	right
6.6.1	win	2023-06-02	02:30:05	02:41:54	705537	5a8d8079190420000156435d	1	1	practice_slash	22	practice_slash	5	stimuli_distractor_trianglediamonds.svg	stimuli_distractor_trianglediamonds.svg	15	no	53	0	926	6	1	antiphase_hc_iso.wav	2	6	6	noise_calib_stim_RIGHT.wav	2	11	blb_dichoticlistening_da-pa.mp3	da	pa	1	right
6.6.1	win	2023-06-02	02:30:05	02:41:54	705537	5a8d8079190420000156435d	1	1	practice_slash	22	advance_on_keypress_SLASH	6	stimuli_distractor_trianglediamonds.svg	stimuli_distractor_trianglediamonds.svg	15	no	57	0	2306	6	1	antiphase_hc_iso.wav	2	6	6	noise_calib_stim_RIGHT.wav	2	11	blb_dichoticlistening_da-pa.mp3	da	pa	1	right
6.6.1	win	2023-06-02	02:30:05	02:42:00	711477	5a8d8079190420000156435d	1	1	practice_slash	22	practice_slash	7	stimuli_distractor_trianglediamonds.svg	stimuli_distractor_diamondtriangles.svg	16	no	0	1	2000	6	1	antiphase_hc_iso.wav	2	6	6	noise_calib_stim_RIGHT.wav	2	11	blb_dichoticlistening_da-pa.mp3	da	pa	1	right
6.6.1	win	2023-06-02	02:30:05	02:42:00	711477	5a8d8079190420000156435d	1	1	practice_slash	22	advance_on_keypress_SLASH	8	stimuli_distractor_trianglediamonds.svg	stimuli_distractor_diamondtriangles.svg	16	no	57	0	908	6	1	antiphase_hc_iso.wav	2	6	6	noise_calib_stim_RIGHT.wav	2	11	blb_dichoticlistening_da-pa.mp3	da	pa	1	right
6.6.1	win	2023-06-02	02:30:05	02:42:03	714813	5a8d8079190420000156435d	1	1	practice_slash	22	practice_slash	9	stimuli_distractor_trianglediamonds.svg	stimuli_target_squarediamonds.svg	11	yes	53	1	786	6	1	antiphase_hc_iso.wav	2	6	6	noise_calib_stim_RIGHT.wav	2	11	blb_dichoticlistening_da-pa.mp3	da	pa	1	right
6.6.1	win	2023-06-02	02:30:05	02:42:03	714813	5a8d8079190420000156435d	1	1	practice_slash	22	advance_on_keypress_SLASH	10	stimuli_distractor_trianglediamonds.svg	stimuli_target_squarediamonds.svg	11	yes	57	0	668	6	1	antiphase_hc_iso.wav	2	6	6	noise_calib_stim_RIGHT.wav	2	11	blb_dichoticlistening_da-pa.mp3	da	pa	1	right
6.6.1	win	2023-06-02	02:30:05	02:42:06	718174	5a8d8079190420000156435d	1	1	practice_slash	22	practice_slash	11	stimuli_distractor_diamondtriangles.svg	stimuli_target_diamondrectangles.svg	8	yes	53	1	1047	6	1	antiphase_hc_iso.wav	2	6	6	noise_calib_stim_RIGHT.wav	2	11	blb_dichoticlistening_da-pa.mp3	da	pa	1	right
6.6.1	win	2023-06-02	02:30:05	02:42:06	718174	5a8d8079190420000156435d	1	1	practice_slash	22	advance_on_keypress_SLASH	12	stimuli_distractor_diamondtriangles.svg	stimuli_target_diamondrectangles.svg	8	yes	57	0	468	6	1	antiphase_hc_iso.wav	2	6	6	noise_calib_stim_RIGHT.wav	2	11	blb_dichoticlistening_da-pa.mp3	da	pa	1	right
6.6.1	win	2023-06-02	02:30:05	02:42:10	722277	5a8d8079190420000156435d	1	1	practice_slash	22	practice_slash	13	stimuli_distractor_diamondtriangles.svg	stimuli_distractor_diamondtriangles.svg	13	no	0	1	2000	6	1	antiphase_hc_iso.wav	2	6	6	noise_calib_stim_RIGHT.wav	2	11	blb_dichoticlistening_da-pa.mp3	da	pa	1	right
6.6.1	win	2023-06-02	02:30:05	02:42:10	722277	5a8d8079190420000156435d	1	1	practice_slash	22	advance_on_keypress_SLASH	14	stimuli_distractor_diamondtriangles.svg	stimuli_distractor_diamondtriangles.svg	13	no	57	0	465	6	1	antiphase_hc_iso.wav	2	6	6	noise_calib_stim_RIGHT.wav	2	11	blb_dichoticlistening_da-pa.mp3	da	pa	1	right
6.6.1	win	2023-06-02	02:30:05	02:42:15	726394	5a8d8079190420000156435d	1	1	practice_slash	22	practice_slash	15	stimuli_target_diamondsquares.svg	stimuli_distractor_trianglediamonds.svg	6	yes	0	0	2000	6	1	antiphase_hc_iso.wav	2	6	6	noise_calib_stim_RIGHT.wav	2	11	blb_dichoticlistening_da-pa.mp3	da	pa	1	right
6.6.1	win	2023-06-02	02:30:05	02:42:15	726394	5a8d8079190420000156435d	1	1	practice_slash	22	advance_on_keypress_SLASH	16	stimuli_target_diamondsquares.svg	stimuli_distractor_trianglediamonds.svg	6	yes	57	0	442	6	1	antiphase_hc_iso.wav	2	6	6	noise_calib_stim_RIGHT.wav	2	11	blb_dichoticlistening_da-pa.mp3	da	pa	1	right
6.6.1	win	2023-06-02	02:30:05	02:42:19	730477	5a8d8079190420000156435d	1	1	practice_slash	22	practice_slash	17	stimuli_target_diamondsquares.svg	stimuli_distractor_diamondtriangles.svg	3	yes	0	0	2000	6	1	antiphase_hc_iso.wav	2	6	6	noise_calib_stim_RIGHT.wav	2	11	blb_dichoticlistening_da-pa.mp3	da	pa	1	right
6.6.1	win	2023-06-02	02:30:05	02:42:19	730477	5a8d8079190420000156435d	1	1	practice_slash	22	advance_on_keypress_SLASH	18	stimuli_target_diamondsquares.svg	stimuli_distractor_diamondtriangles.svg	3	yes	57	0	508	6	1	antiphase_hc_iso.wav	2	6	6	noise_calib_stim_RIGHT.wav	2	11	blb_dichoticlistening_da-pa.mp3	da	pa	1	right
6.6.1	win	2023-06-02	02:30:05	02:42:23	734627	5a8d8079190420000156435d	1	1	practice_slash	22	practice_slash	19	stimuli_distractor_diamondtriangles.svg	stimuli_distractor_trianglediamonds.svg	14	no	0	1	2000	6	1	antiphase_hc_iso.wav	2	6	6	noise_calib_stim_RIGHT.wav	2	11	blb_dichoticlistening_da-pa.mp3	da	pa	1	right
6.6.1	win	2023-06-02	02:30:05	02:42:23	734627	5a8d8079190420000156435d	1	1	practice_slash	22	advance_on_keypress_SLASH	20	stimuli_distractor_diamondtriangles.svg	stimuli_distractor_trianglediamonds.svg	14	no	57	0	428	6	1	antiphase_hc_iso.wav	2	6	6	noise_calib_stim_RIGHT.wav	2	11	blb_dichoticlistening_da-pa.mp3	da	pa	1	right
6.6.1	win	2023-06-02	02:30:05	02:42:26	737628	5a8d8079190420000156435d	1	1	practice_slash	22	practice_slash	21	stimuli_target_squarediamonds.svg	stimuli_distractor_diamondtriangles.svg	2	yes	53	1	934	6	1	antiphase_hc_iso.wav	2	6	6	noise_calib_stim_RIGHT.wav	2	11	blb_dichoticlistening_da-pa.mp3	da	pa	1	right
6.6.1	win	2023-06-02	02:30:05	02:42:26	737628	5a8d8079190420000156435d	1	1	practice_slash	22	advance_on_keypress_SLASH	22	stimuli_target_squarediamonds.svg	stimuli_distractor_diamondtriangles.svg	2	yes	57	0	468	6	1	antiphase_hc_iso.wav	2	6	6	noise_calib_stim_RIGHT.wav	2	11	blb_dichoticlistening_da-pa.mp3	da	pa	1	right
6.6.1	win	2023-06-02	02:30:05	02:42:30	741744	5a8d8079190420000156435d	1	1	practice_slash	22	practice_slash	23	stimuli_distractor_trianglediamonds.svg	stimuli_target_diamondrectangles.svg	12	yes	0	0	2000	6	1	antiphase_hc_iso.wav	2	6	6	noise_calib_stim_RIGHT.wav	2	11	blb_dichoticlistening_da-pa.mp3	da	pa	1	right
6.6.1	win	2023-06-02	02:30:05	02:42:30	741744	5a8d8079190420000156435d	1	1	practice_slash	22	advance_on_keypress_SLASH	24	stimuli_distractor_trianglediamonds.svg	stimuli_target_diamondrectangles.svg	12	yes	57	0	454	6	1	antiphase_hc_iso.wav	2	6	6	noise_calib_stim_RIGHT.wav	2	11	blb_dichoticlistening_da-pa.mp3	da	pa	1	right
6.6.1	win	2023-06-02	02:30:05	02:42:34	745844	5a8d8079190420000156435d	1	1	practice_slash	22	practice_slash	25	stimuli_distractor_diamondtriangles.svg	stimuli_target_trianglerectangles.svg	9	yes	0	0	2000	6	1	antiphase_hc_iso.wav	2	6	6	noise_calib_stim_RIGHT.wav	2	11	blb_dichoticlistening_da-pa.mp3	da	pa	1	right
6.6.1	win	2023-06-02	02:30:05	02:42:34	745844	5a8d8079190420000156435d	1	1	practice_slash	22	advance_on_keypress_SLASH	26	stimuli_distractor_diamondtriangles.svg	stimuli_target_trianglerectangles.svg	9	yes	57	0	495	6	1	antiphase_hc_iso.wav	2	6	6	noise_calib_stim_RIGHT.wav	2	11	blb_dichoticlistening_da-pa.mp3	da	pa	1	right
6.6.1	win	2023-06-02	02:30:05	02:42:37	749197	5a8d8079190420000156435d	1	1	practice_slash	22	practice_slash	27	stimuli_distractor_diamondtriangles.svg	stimuli_target_rectangletriangles.svg	7	yes	53	1	1220	6	1	antiphase_hc_iso.wav	2	6	6	noise_calib_stim_RIGHT.wav	2	11	blb_dichoticlistening_da-pa.mp3	da	pa	1	right
6.6.1	win	2023-06-02	02:30:05	02:42:37	749197	5a8d8079190420000156435d	1	1	practice_slash	22	advance_on_keypress_SLASH	28	stimuli_distractor_diamondtriangles.svg	stimuli_target_rectangletriangles.svg	7	yes	57	0	634	6	1	antiphase_hc_iso.wav	2	6	6	noise_calib_stim_RIGHT.wav	2	11	blb_dichoticlistening_da-pa.mp3	da	pa	1	right
6.6.1	win	2023-06-02	02:30:05	02:42:41	752547	5a8d8079190420000156435d	1	1	practice_slash	22	practice_slash	29	stimuli_distractor_trianglediamonds.svg	stimuli_target_rectanglediamonds.svg	10	yes	53	1	1071	6	1	antiphase_hc_iso.wav	2	6	6	noise_calib_stim_RIGHT.wav	2	11	blb_dichoticlistening_da-pa.mp3	da	pa	1	right
6.6.1	win	2023-06-02	02:30:05	02:42:41	752547	5a8d8079190420000156435d	1	1	practice_slash	22	advance_on_keypress_SLASH	30	stimuli_distractor_trianglediamonds.svg	stimuli_target_rectanglediamonds.svg	10	yes	57	0	526	6	1	antiphase_hc_iso.wav	2	6	6	noise_calib_stim_RIGHT.wav	2	11	blb_dichoticlistening_da-pa.mp3	da	pa	1	right
6.6.1	win	2023-06-02	02:30:05	02:42:44	755700	5a8d8079190420000156435d	1	1	practice_slash	22	practice_slash	31	stimuli_target_rectanglediamonds.svg	stimuli_distractor_diamondtriangles.svg	1	yes	53	1	990	6	1	antiphase_hc_iso.wav	2	6	6	noise_calib_stim_RIGHT.wav	2	11	blb_dichoticlistening_da-pa.mp3	da	pa	1	right
6.6.1	win	2023-06-02	02:30:05	02:42:44	755700	5a8d8079190420000156435d	1	1	practice_slash	22	advance_on_keypress_SLASH	32	stimuli_target_rectanglediamonds.svg	stimuli_distractor_diamondtriangles.svg	1	yes	57	0	498	6	1	antiphase_hc_iso.wav	2	6	6	noise_calib_stim_RIGHT.wav	2	11	blb_dichoticlistening_da-pa.mp3	da	pa	1	right
6.6.1	win	2023-06-02	02:30:05	02:42:52	763813	5a8d8079190420000156435d	1	1	main_slash	24	main_slash	1	stimuli_distractor_diamondtriangles.svg	stimuli_target_diamondsquares.svg	32	yes	53	1	1052	6	1	antiphase_hc_iso.wav	2	6	6	noise_calib_stim_RIGHT.wav	2	11	blb_dichoticlistening_da-pa.mp3	da	pa	1	right
6.6.1	win	2023-06-02	02:30:05	02:42:52	763813	5a8d8079190420000156435d	1	1	main_slash	24	advance_on_keypress_SLASH	2	stimuli_distractor_diamondtriangles.svg	stimuli_target_diamondsquares.svg	32	yes	57	0	2206	6	1	antiphase_hc_iso.wav	2	6	6	noise_calib_stim_RIGHT.wav	2	11	blb_dichoticlistening_da-pa.mp3	da	pa	1	right
6.6.1	win	2023-06-02	02:30:05	02:42:55	767325	5a8d8079190420000156435d	1	1	main_slash	24	main_slash	3	stimuli_target_squarediamonds.svg	stimuli_distractor_diamondtriangles.svg	8	yes	53	1	665	6	1	antiphase_hc_iso.wav	2	6	6	noise_calib_stim_RIGHT.wav	2	11	blb_dichoticlistening_da-pa.mp3	da	pa	1	right
6.6.1	win	2023-06-02	02:30:05	02:42:55	767325	5a8d8079190420000156435d	1	1	main_slash	24	advance_on_keypress_SLASH	4	stimuli_target_squarediamonds.svg	stimuli_distractor_diamondtriangles.svg	8	yes	57	0	855	6	1	antiphase_hc_iso.wav	2	6	6	noise_calib_stim_RIGHT.wav	2	11	blb_dichoticlistening_da-pa.mp3	da	pa	1	right
6.6.1	win	2023-06-02	02:30:05	02:42:59	770810	5a8d8079190420000156435d	1	1	main_slash	24	main_slash	5	stimuli_target_trianglerectangles.svg	stimuli_distractor_diamondtriangles.svg	21	yes	0	0	2000	6	1	antiphase_hc_iso.wav	2	6	6	noise_calib_stim_RIGHT.wav	2	11	blb_dichoticlistening_da-pa.mp3	da	pa	1	right
6.6.1	win	2023-06-02	02:30:05	02:42:59	770810	5a8d8079190420000156435d	1	1	main_slash	24	advance_on_keypress_SLASH	6	stimuli_target_trianglerectangles.svg	stimuli_distractor_diamondtriangles.svg	21	yes	57	0	553	6	1	antiphase_hc_iso.wav	2	6	6	noise_calib_stim_RIGHT.wav	2	11	blb_dichoticlistening_da-pa.mp3	da	pa	1	right
6.6.1	win	2023-06-02	02:30:05	02:43:01	772890	5a8d8079190420000156435d	1	1	main_slash	24	main_slash	7	stimuli_distractor_trianglediamonds.svg	stimuli_target_diamondsquares.svg	28	yes	53	1	879	6	1	antiphase_hc_iso.wav	2	6	6	noise_calib_stim_RIGHT.wav	2	11	blb_dichoticlistening_da-pa.mp3	da	pa	1	right
6.6.1	win	2023-06-02	02:30:05	02:43:01	772890	5a8d8079190420000156435d	1	1	main_slash	24	advance_on_keypress_SLASH	8	stimuli_distractor_trianglediamonds.svg	stimuli_target_diamondsquares.svg	28	yes	57	0	506	6	1	antiphase_hc_iso.wav	2	6	6	noise_calib_stim_RIGHT.wav	2	11	blb_dichoticlistening_da-pa.mp3	da	pa	1	right
6.6.1	win	2023-06-02	02:30:05	02:43:03	775026	5a8d8079190420000156435d	1	1	main_slash	24	main_slash	9	stimuli_target_squaretriangles.svg	stimuli_distractor_trianglediamonds.svg	3	yes	53	1	999	6	1	antiphase_hc_iso.wav	2	6	6	noise_calib_stim_RIGHT.wav	2	11	blb_dichoticlistening_da-pa.mp3	da	pa	1	right
6.6.1	win	2023-06-02	02:30:05	02:43:03	775026	5a8d8079190420000156435d	1	1	main_slash	24	advance_on_keypress_SLASH	10	stimuli_target_squaretriangles.svg	stimuli_distractor_trianglediamonds.svg	3	yes	57	0	442	6	1	antiphase_hc_iso.wav	2	6	6	noise_calib_stim_RIGHT.wav	2	11	blb_dichoticlistening_da-pa.mp3	da	pa	1	right
6.6.1	win	2023-06-02	02:30:05	02:43:05	776750	5a8d8079190420000156435d	1	1	main_slash	24	main_slash	11	stimuli_distractor_trianglediamonds.svg	stimuli_target_rectanglediamonds.svg	10	yes	53	1	640	6	1	antiphase_hc_iso.wav	2	6	6	noise_calib_stim_RIGHT.wav	2	11	blb_dichoticlistening_da-pa.mp3	da	pa	1	right
6.6.1	win	2023-06-02	02:30:05	02:43:05	776750	5a8d8079190420000156435d	1	1	main_slash	24	advance_on_keypress_SLASH	12	stimuli_distractor_trianglediamonds.svg	stimuli_target_rectanglediamonds.svg	10	yes	57	0	393	6	1	antiphase_hc_iso.wav	2	6	6	noise_calib_stim_RIGHT.wav	2	11	blb_dichoticlistening_da-pa.mp3	da	pa	1	right
6.6.1	win	2023-06-02	02:30:05	02:43:08	779777	5a8d8079190420000156435d	1	1	main_slash	24	main_slash	13	stimuli_distractor_trianglediamonds.svg	stimuli_distractor_diamondtriangles.svg	36	no	0	1	2000	6	1	antiphase_hc_iso.wav	2	6	6	noise_calib_stim_RIGHT.wav	2	11	blb_dichoticlistening_da-pa.mp3	da	pa	1	right
6.6.1	win	2023-06-02	02:30:05	02:43:08	779777	5a8d8079190420000156435d	1	1	main_slash	24	advance_on_keypress_SLASH	14	stimuli_distractor_trianglediamonds.svg	stimuli_distractor_diamondtriangles.svg	36	no	57	0	912	6	1	antiphase_hc_iso.wav	2	6	6	noise_calib_stim_RIGHT.wav	2	11	blb_dichoticlistening_da-pa.mp3	da	pa	1	right
6.6.1	win	2023-06-02	02:30:05	02:43:11	783327	5a8d8079190420000156435d	1	1	main_slash	24	main_slash	15	stimuli_distractor_diamondtriangles.svg	stimuli_distractor_diamondtriangles.svg	40	no	0	1	2000	6	1	antiphase_hc_iso.wav	2	6	6	noise_calib_stim_RIGHT.wav	2	11	blb_dichoticlistening_da-pa.mp3	da	pa	1	right
6.6.1	win	2023-06-02	02:30:05	02:43:11	783327	5a8d8079190420000156435d	1	1	main_slash	24	advance_on_keypress_SLASH	16	stimuli_distractor_diamondtriangles.svg	stimuli_distractor_diamondtriangles.svg	40	no	57	0	741	6	1	antiphase_hc_iso.wav	2	6	6	noise_calib_stim_RIGHT.wav	2	11	blb_dichoticlistening_da-pa.mp3	da	pa	1	right
6.6.1	win	2023-06-02	02:30:05	02:43:15	786710	5a8d8079190420000156435d	1	1	main_slash	24	main_slash	17	stimuli_distractor_trianglediamonds.svg	stimuli_distractor_trianglediamonds.svg	34	no	0	1	2000	6	1	antiphase_hc_iso.wav	2	6	6	noise_calib_stim_RIGHT.wav	2	11	blb_dichoticlistening_da-pa.mp3	da	pa	1	right
6.6.1	win	2023-06-02	02:30:05	02:43:15	786710	5a8d8079190420000156435d	1	1	main_slash	24	advance_on_keypress_SLASH	18	stimuli_distractor_trianglediamonds.svg	stimuli_distractor_trianglediamonds.svg	34	no	57	0	787	6	1	antiphase_hc_iso.wav	2	6	6	noise_calib_stim_RIGHT.wav	2	11	blb_dichoticlistening_da-pa.mp3	da	pa	1	right
6.6.1	win	2023-06-02	02:30:05	02:43:17	788813	5a8d8079190420000156435d	1	1	main_slash	24	main_slash	19	stimuli_distractor_trianglediamonds.svg	stimuli_target_trianglesquares.svg	26	yes	53	1	669	6	1	antiphase_hc_iso.wav	2	6	6	noise_calib_stim_RIGHT.wav	2	11	blb_dichoticlistening_da-pa.mp3	da	pa	1	right
6.6.1	win	2023-06-02	02:30:05	02:43:17	788813	5a8d8079190420000156435d	1	1	main_slash	24	advance_on_keypress_SLASH	20	stimuli_distractor_trianglediamonds.svg	stimuli_target_trianglesquares.svg	26	yes	57	0	488	6	1	antiphase_hc_iso.wav	2	6	6	noise_calib_stim_RIGHT.wav	2	11	blb_dichoticlistening_da-pa.mp3	da	pa	1	right
6.6.1	win	2023-06-02	02:30:05	02:43:20	791944	5a8d8079190420000156435d	1	1	main_slash	24	main_slash	21	stimuli_distractor_trianglediamonds.svg	stimuli_distractor_diamondtriangles.svg	35	no	0	1	2000	6	1	antiphase_hc_iso.wav	2	6	6	noise_calib_stim_RIGHT.wav	2	11	blb_dichoticlistening_da-pa.mp3	da	pa	1	right
6.6.1	win	2023-06-02	02:30:05	02:43:20	791944	5a8d8079190420000156435d	1	1	main_slash	24	advance_on_keypress_SLASH	22	stimuli_distractor_trianglediamonds.svg	stimuli_distractor_diamondtriangles.svg	35	no	57	0	628	6	1	antiphase_hc_iso.wav	2	6	6	noise_calib_stim_RIGHT.wav	2	11	blb_dichoticlistening_da-pa.mp3	da	pa	1	right
6.6.1	win	2023-06-02	02:30:05	02:43:22	793919	5a8d8079190420000156435d	1	1	main_slash	24	main_slash	23	stimuli_distractor_diamondtriangles.svg	stimuli_target_rectanglediamonds.svg	14	yes	53	1	709	6	1	antiphase_hc_iso.wav	2	6	6	noise_calib_stim_RIGHT.wav	2	11	blb_dichoticlistening_da-pa.mp3	da	pa	1	right
6.6.1	win	2023-06-02	02:30:05	02:43:22	793919	5a8d8079190420000156435d	1	1	main_slash	24	advance_on_keypress_SLASH	24	stimuli_distractor_diamondtriangles.svg	stimuli_target_rectanglediamonds.svg	14	yes	57	0	482	6	1	antiphase_hc_iso.wav	2	6	6	noise_calib_stim_RIGHT.wav	2	11	blb_dichoticlistening_da-pa.mp3	da	pa	1	right
6.6.1	win	2023-06-02	02:30:05	02:43:24	795801	5a8d8079190420000156435d	1	1	main_slash	24	main_slash	25	stimuli_distractor_diamondtriangles.svg	stimuli_target_squaretriangles.svg	15	yes	53	1	758	6	1	antiphase_hc_iso.wav	2	6	6	noise_calib_stim_RIGHT.wav	2	11	blb_dichoticlistening_da-pa.mp3	da	pa	1	right
6.6.1	win	2023-06-02	02:30:05	02:43:24	795801	5a8d8079190420000156435d	1	1	main_slash	24	advance_on_keypress_SLASH	26	stimuli_distractor_diamondtriangles.svg	stimuli_target_squaretriangles.svg	15	yes	57	0	537	6	1	antiphase_hc_iso.wav	2	6	6	noise_calib_stim_RIGHT.wav	2	11	blb_dichoticlistening_da-pa.mp3	da	pa	1	right
6.6.1	win	2023-06-02	02:30:05	02:43:26	797809	5a8d8079190420000156435d	1	1	main_slash	24	main_slash	27	stimuli_target_trianglesquares.svg	stimuli_distractor_trianglediamonds.svg	18	yes	53	1	831	6	1	antiphase_hc_iso.wav	2	6	6	noise_calib_stim_RIGHT.wav	2	11	blb_dichoticlistening_da-pa.mp3	da	pa	1	right
6.6.1	win	2023-06-02	02:30:05	02:43:26	797809	5a8d8079190420000156435d	1	1	main_slash	24	advance_on_keypress_SLASH	28	stimuli_target_trianglesquares.svg	stimuli_distractor_trianglediamonds.svg	18	yes	57	0	417	6	1	antiphase_hc_iso.wav	2	6	6	noise_calib_stim_RIGHT.wav	2	11	blb_dichoticlistening_da-pa.mp3	da	pa	1	right
6.6.1	win	2023-06-02	02:30:05	02:43:29	800877	5a8d8079190420000156435d	1	1	main_slash	24	main_slash	29	stimuli_distractor_diamondtriangles.svg	stimuli_distractor_trianglediamonds.svg	37	no	0	1	2000	6	1	antiphase_hc_iso.wav	2	6	6	noise_calib_stim_RIGHT.wav	2	11	blb_dichoticlistening_da-pa.mp3	da	pa	1	right
6.6.1	win	2023-06-02	02:30:05	02:43:29	800877	5a8d8079190420000156435d	1	1	main_slash	24	advance_on_keypress_SLASH	30	stimuli_distractor_diamondtriangles.svg	stimuli_distractor_trianglediamonds.svg	37	no	57	0	1590	6	1	antiphase_hc_iso.wav	2	6	6	noise_calib_stim_RIGHT.wav	2	11	blb_dichoticlistening_da-pa.mp3	da	pa	1	right
6.6.1	win	2023-06-02	02:30:05	02:43:33	804516	5a8d8079190420000156435d	1	1	main_slash	24	main_slash	31	stimuli_target_trianglerectangles.svg	stimuli_distractor_trianglediamonds.svg	17	yes	53	1	1405	6	1	antiphase_hc_iso.wav	2	6	6	noise_calib_stim_RIGHT.wav	2	11	blb_dichoticlistening_da-pa.mp3	da	pa	1	right
6.6.1	win	2023-06-02	02:30:05	02:43:33	804516	5a8d8079190420000156435d	1	1	main_slash	24	advance_on_keypress_SLASH	32	stimuli_target_trianglerectangles.svg	stimuli_distractor_trianglediamonds.svg	17	yes	57	0	574	6	1	antiphase_hc_iso.wav	2	6	6	noise_calib_stim_RIGHT.wav	2	11	blb_dichoticlistening_da-pa.mp3	da	pa	1	right
6.6.1	win	2023-06-02	02:30:05	02:43:35	807095	5a8d8079190420000156435d	1	1	main_slash	24	main_slash	33	stimuli_distractor_trianglediamonds.svg	stimuli_target_squarediamonds.svg	12	yes	53	1	1367	6	1	antiphase_hc_iso.wav	2	6	6	noise_calib_stim_RIGHT.wav	2	11	blb_dichoticlistening_da-pa.mp3	da	pa	1	right
6.6.1	win	2023-06-02	02:30:05	02:43:35	807095	5a8d8079190420000156435d	1	1	main_slash	24	advance_on_keypress_SLASH	34	stimuli_distractor_trianglediamonds.svg	stimuli_target_squarediamonds.svg	12	yes	57	0	521	6	1	antiphase_hc_iso.wav	2	6	6	noise_calib_stim_RIGHT.wav	2	11	blb_dichoticlistening_da-pa.mp3	da	pa	1	right
6.6.1	win	2023-06-02	02:30:05	02:43:38	810261	5a8d8079190420000156435d	1	1	main_slash	24	main_slash	35	stimuli_distractor_diamondtriangles.svg	stimuli_target_trianglerectangles.svg	29	yes	0	0	2000	6	1	antiphase_hc_iso.wav	2	6	6	noise_calib_stim_RIGHT.wav	2	11	blb_dichoticlistening_da-pa.mp3	da	pa	1	right
6.6.1	win	2023-06-02	02:30:05	02:43:38	810261	5a8d8079190420000156435d	1	1	main_slash	24	advance_on_keypress_SLASH	36	stimuli_distractor_diamondtriangles.svg	stimuli_target_trianglerectangles.svg	29	yes	57	0	529	6	1	antiphase_hc_iso.wav	2	6	6	noise_calib_stim_RIGHT.wav	2	11	blb_dichoticlistening_da-pa.mp3	da	pa	1	right
6.6.1	win	2023-06-02	02:30:05	02:43:40	812217	5a8d8079190420000156435d	1	1	main_slash	24	main_slash	37	stimuli_distractor_diamondtriangles.svg	stimuli_target_rectangletriangles.svg	13	yes	53	1	790	6	1	antiphase_hc_iso.wav	2	6	6	noise_calib_stim_RIGHT.wav	2	11	blb_dichoticlistening_da-pa.mp3	da	pa	1	right
6.6.1	win	2023-06-02	02:30:05	02:43:40	812217	5a8d8079190420000156435d	1	1	main_slash	24	advance_on_keypress_SLASH	38	stimuli_distractor_diamondtriangles.svg	stimuli_target_rectangletriangles.svg	13	yes	57	0	353	6	1	antiphase_hc_iso.wav	2	6	6	noise_calib_stim_RIGHT.wav	2	11	blb_dichoticlistening_da-pa.mp3	da	pa	1	right
6.6.1	win	2023-06-02	02:30:05	02:43:42	813967	5a8d8079190420000156435d	1	1	main_slash	24	main_slash	39	stimuli_target_rectangletriangles.svg	stimuli_distractor_diamondtriangles.svg	5	yes	53	1	756	6	1	antiphase_hc_iso.wav	2	6	6	noise_calib_stim_RIGHT.wav	2	11	blb_dichoticlistening_da-pa.mp3	da	pa	1	right
6.6.1	win	2023-06-02	02:30:05	02:43:42	813967	5a8d8079190420000156435d	1	1	main_slash	24	advance_on_keypress_SLASH	40	stimuli_target_rectangletriangles.svg	stimuli_distractor_diamondtriangles.svg	5	yes	57	0	363	6	1	antiphase_hc_iso.wav	2	6	6	noise_calib_stim_RIGHT.wav	2	11	blb_dichoticlistening_da-pa.mp3	da	pa	1	right
6.6.1	win	2023-06-02	02:30:05	02:43:44	815657	5a8d8079190420000156435d	1	1	main_slash	24	main_slash	41	stimuli_target_rectanglediamonds.svg	stimuli_distractor_diamondtriangles.svg	6	yes	53	1	696	6	1	antiphase_hc_iso.wav	2	6	6	noise_calib_stim_RIGHT.wav	2	11	blb_dichoticlistening_da-pa.mp3	da	pa	1	right
6.6.1	win	2023-06-02	02:30:05	02:43:44	815657	5a8d8079190420000156435d	1	1	main_slash	24	advance_on_keypress_SLASH	42	stimuli_target_rectanglediamonds.svg	stimuli_distractor_diamondtriangles.svg	6	yes	57	0	349	6	1	antiphase_hc_iso.wav	2	6	6	noise_calib_stim_RIGHT.wav	2	11	blb_dichoticlistening_da-pa.mp3	da	pa	1	right
6.6.1	win	2023-06-02	02:30:05	02:43:46	818171	5a8d8079190420000156435d	1	1	main_slash	24	main_slash	43	stimuli_distractor_trianglediamonds.svg	stimuli_target_diamondrectangles.svg	27	yes	53	1	1528	6	1	antiphase_hc_iso.wav	2	6	6	noise_calib_stim_RIGHT.wav	2	11	blb_dichoticlistening_da-pa.mp3	da	pa	1	right
6.6.1	win	2023-06-02	02:30:05	02:43:46	818171	5a8d8079190420000156435d	1	1	main_slash	24	advance_on_keypress_SLASH	44	stimuli_distractor_trianglediamonds.svg	stimuli_target_diamondrectangles.svg	27	yes	57	0	479	6	1	antiphase_hc_iso.wav	2	6	6	noise_calib_stim_RIGHT.wav	2	11	blb_dichoticlistening_da-pa.mp3	da	pa	1	right
6.6.1	win	2023-06-02	02:30:05	02:43:49	821277	5a8d8079190420000156435d	1	1	main_slash	24	main_slash	45	stimuli_distractor_trianglediamonds.svg	stimuli_distractor_trianglediamonds.svg	33	no	0	1	2000	6	1	antiphase_hc_iso.wav	2	6	6	noise_calib_stim_RIGHT.wav	2	11	blb_dichoticlistening_da-pa.mp3	da	pa	1	right
6.6.1	win	2023-06-02	02:30:05	02:43:49	821277	5a8d8079190420000156435d	1	1	main_slash	24	advance_on_keypress_SLASH	46	stimuli_distractor_trianglediamonds.svg	stimuli_distractor_trianglediamonds.svg	33	no	57	0	476	6	1	antiphase_hc_iso.wav	2	6	6	noise_calib_stim_RIGHT.wav	2	11	blb_dichoticlistening_da-pa.mp3	da	pa	1	right
6.6.1	win	2023-06-02	02:30:05	02:43:52	823655	5a8d8079190420000156435d	1	1	main_slash	24	main_slash	47	stimuli_target_diamondrectangles.svg	stimuli_distractor_trianglediamonds.svg	19	yes	53	1	1260	6	1	antiphase_hc_iso.wav	2	6	6	noise_calib_stim_RIGHT.wav	2	11	blb_dichoticlistening_da-pa.mp3	da	pa	1	right
6.6.1	win	2023-06-02	02:30:05	02:43:52	823655	5a8d8079190420000156435d	1	1	main_slash	24	advance_on_keypress_SLASH	48	stimuli_target_diamondrectangles.svg	stimuli_distractor_trianglediamonds.svg	19	yes	57	0	744	6	1	antiphase_hc_iso.wav	2	6	6	noise_calib_stim_RIGHT.wav	2	11	blb_dichoticlistening_da-pa.mp3	da	pa	1	right
6.6.1	win	2023-06-02	02:30:05	02:43:54	826045	5a8d8079190420000156435d	1	1	main_slash	24	main_slash	49	stimuli_target_trianglesquares.svg	stimuli_distractor_diamondtriangles.svg	22	yes	53	1	1018	6	1	antiphase_hc_iso.wav	2	6	6	noise_calib_stim_RIGHT.wav	2	11	blb_dichoticlistening_da-pa.mp3	da	pa	1	right
6.6.1	win	2023-06-02	02:30:05	02:43:54	826045	5a8d8079190420000156435d	1	1	main_slash	24	advance_on_keypress_SLASH	50	stimuli_target_trianglesquares.svg	stimuli_distractor_diamondtriangles.svg	22	yes	57	0	585	6	1	antiphase_hc_iso.wav	2	6	6	noise_calib_stim_RIGHT.wav	2	11	blb_dichoticlistening_da-pa.mp3	da	pa	1	right
6.6.1	win	2023-06-02	02:30:05	02:43:56	828180	5a8d8079190420000156435d	1	1	main_slash	24	main_slash	51	stimuli_distractor_diamondtriangles.svg	stimuli_target_squarediamonds.svg	16	yes	53	1	903	6	1	antiphase_hc_iso.wav	2	6	6	noise_calib_stim_RIGHT.wav	2	11	blb_dichoticlistening_da-pa.mp3	da	pa	1	right
6.6.1	win	2023-06-02	02:30:05	02:43:56	828180	5a8d8079190420000156435d	1	1	main_slash	24	advance_on_keypress_SLASH	52	stimuli_distractor_diamondtriangles.svg	stimuli_target_squarediamonds.svg	16	yes	57	0	544	6	1	antiphase_hc_iso.wav	2	6	6	noise_calib_stim_RIGHT.wav	2	11	blb_dichoticlistening_da-pa.mp3	da	pa	1	right
6.6.1	win	2023-06-02	02:30:05	02:43:58	830216	5a8d8079190420000156435d	1	1	main_slash	24	main_slash	53	stimuli_target_squaretriangles.svg	stimuli_distractor_diamondtriangles.svg	7	yes	53	1	856	6	1	antiphase_hc_iso.wav	2	6	6	noise_calib_stim_RIGHT.wav	2	11	blb_dichoticlistening_da-pa.mp3	da	pa	1	right
6.6.1	win	2023-06-02	02:30:05	02:43:58	830216	5a8d8079190420000156435d	1	1	main_slash	24	advance_on_keypress_SLASH	54	stimuli_target_squaretriangles.svg	stimuli_distractor_diamondtriangles.svg	7	yes	57	0	630	6	1	antiphase_hc_iso.wav	2	6	6	noise_calib_stim_RIGHT.wav	2	11	blb_dichoticlistening_da-pa.mp3	da	pa	1	right
6.6.1	win	2023-06-02	02:30:05	02:44:00	832351	5a8d8079190420000156435d	1	1	main_slash	24	main_slash	55	stimuli_distractor_diamondtriangles.svg	stimuli_target_trianglesquares.svg	30	yes	53	1	873	6	1	antiphase_hc_iso.wav	2	6	6	noise_calib_stim_RIGHT.wav	2	11	blb_dichoticlistening_da-pa.mp3	da	pa	1	right
6.6.1	win	2023-06-02	02:30:05	02:44:00	832351	5a8d8079190420000156435d	1	1	main_slash	24	advance_on_keypress_SLASH	56	stimuli_distractor_diamondtriangles.svg	stimuli_target_trianglesquares.svg	30	yes	57	0	331	6	1	antiphase_hc_iso.wav	2	6	6	noise_calib_stim_RIGHT.wav	2	11	blb_dichoticlistening_da-pa.mp3	da	pa	1	right
6.6.1	win	2023-06-02	02:30:05	02:44:02	834115	5a8d8079190420000156435d	1	1	main_slash	24	main_slash	57	stimuli_distractor_trianglediamonds.svg	stimuli_target_squaretriangles.svg	11	yes	53	1	804	6	1	antiphase_hc_iso.wav	2	6	6	noise_calib_stim_RIGHT.wav	2	11	blb_dichoticlistening_da-pa.mp3	da	pa	1	right
6.6.1	win	2023-06-02	02:30:05	02:44:02	834115	5a8d8079190420000156435d	1	1	main_slash	24	advance_on_keypress_SLASH	58	stimuli_distractor_trianglediamonds.svg	stimuli_target_squaretriangles.svg	11	yes	57	0	379	6	1	antiphase_hc_iso.wav	2	6	6	noise_calib_stim_RIGHT.wav	2	11	blb_dichoticlistening_da-pa.mp3	da	pa	1	right
6.6.1	win	2023-06-02	02:30:05	02:44:04	836144	5a8d8079190420000156435d	1	1	main_slash	24	main_slash	59	stimuli_distractor_trianglediamonds.svg	stimuli_target_trianglerectangles.svg	25	yes	53	1	1017	6	1	antiphase_hc_iso.wav	2	6	6	noise_calib_stim_RIGHT.wav	2	11	blb_dichoticlistening_da-pa.mp3	da	pa	1	right
6.6.1	win	2023-06-02	02:30:05	02:44:04	836144	5a8d8079190420000156435d	1	1	main_slash	24	advance_on_keypress_SLASH	60	stimuli_distractor_trianglediamonds.svg	stimuli_target_trianglerectangles.svg	25	yes	57	0	373	6	1	antiphase_hc_iso.wav	2	6	6	noise_calib_stim_RIGHT.wav	2	11	blb_dichoticlistening_da-pa.mp3	da	pa	1	right
6.6.1	win	2023-06-02	02:30:05	02:44:06	838077	5a8d8079190420000156435d	1	1	main_slash	24	main_slash	61	stimuli_target_diamondrectangles.svg	stimuli_distractor_diamondtriangles.svg	23	yes	53	1	916	6	1	antiphase_hc_iso.wav	2	6	6	noise_calib_stim_RIGHT.wav	2	11	blb_dichoticlistening_da-pa.mp3	da	pa	1	right
6.6.1	win	2023-06-02	02:30:05	02:44:06	838077	5a8d8079190420000156435d	1	1	main_slash	24	advance_on_keypress_SLASH	62	stimuli_target_diamondrectangles.svg	stimuli_distractor_diamondtriangles.svg	23	yes	57	0	318	6	1	antiphase_hc_iso.wav	2	6	6	noise_calib_stim_RIGHT.wav	2	11	blb_dichoticlistening_da-pa.mp3	da	pa	1	right
6.6.1	win	2023-06-02	02:30:05	02:44:08	840012	5a8d8079190420000156435d	1	1	main_slash	24	main_slash	63	stimuli_target_squarediamonds.svg	stimuli_distractor_trianglediamonds.svg	4	yes	53	1	967	6	1	antiphase_hc_iso.wav	2	6	6	noise_calib_stim_RIGHT.wav	2	11	blb_dichoticlistening_da-pa.mp3	da	pa	1	right
6.6.1	win	2023-06-02	02:30:05	02:44:08	840012	5a8d8079190420000156435d	1	1	main_slash	24	advance_on_keypress_SLASH	64	stimuli_target_squarediamonds.svg	stimuli_distractor_trianglediamonds.svg	4	yes	57	0	358	6	1	antiphase_hc_iso.wav	2	6	6	noise_calib_stim_RIGHT.wav	2	11	blb_dichoticlistening_da-pa.mp3	da	pa	1	right
6.6.1	win	2023-06-02	02:30:05	02:44:10	841837	5a8d8079190420000156435d	1	1	main_slash	24	main_slash	65	stimuli_distractor_diamondtriangles.svg	stimuli_target_diamondrectangles.svg	31	yes	53	1	826	6	1	antiphase_hc_iso.wav	2	6	6	noise_calib_stim_RIGHT.wav	2	11	blb_dichoticlistening_da-pa.mp3	da	pa	1	right
6.6.1	win	2023-06-02	02:30:05	02:44:10	841837	5a8d8079190420000156435d	1	1	main_slash	24	advance_on_keypress_SLASH	66	stimuli_distractor_diamondtriangles.svg	stimuli_target_diamondrectangles.svg	31	yes	57	0	435	6	1	antiphase_hc_iso.wav	2	6	6	noise_calib_stim_RIGHT.wav	2	11	blb_dichoticlistening_da-pa.mp3	da	pa	1	right
6.6.1	win	2023-06-02	02:30:05	02:44:13	844911	5a8d8079190420000156435d	1	1	main_slash	24	main_slash	67	stimuli_distractor_diamondtriangles.svg	stimuli_distractor_trianglediamonds.svg	38	no	0	1	2000	6	1	antiphase_hc_iso.wav	2	6	6	noise_calib_stim_RIGHT.wav	2	11	blb_dichoticlistening_da-pa.mp3	da	pa	1	right
6.6.1	win	2023-06-02	02:30:05	02:44:13	844911	5a8d8079190420000156435d	1	1	main_slash	24	advance_on_keypress_SLASH	68	stimuli_distractor_diamondtriangles.svg	stimuli_distractor_trianglediamonds.svg	38	no	57	0	595	6	1	antiphase_hc_iso.wav	2	6	6	noise_calib_stim_RIGHT.wav	2	11	blb_dichoticlistening_da-pa.mp3	da	pa	1	right
6.6.1	win	2023-06-02	02:30:05	02:44:15	846812	5a8d8079190420000156435d	1	1	main_slash	24	main_slash	69	stimuli_target_diamondsquares.svg	stimuli_distractor_diamondtriangles.svg	24	yes	53	1	667	6	1	antiphase_hc_iso.wav	2	6	6	noise_calib_stim_RIGHT.wav	2	11	blb_dichoticlistening_da-pa.mp3	da	pa	1	right
6.6.1	win	2023-06-02	02:30:05	02:44:15	846812	5a8d8079190420000156435d	1	1	main_slash	24	advance_on_keypress_SLASH	70	stimuli_target_diamondsquares.svg	stimuli_distractor_diamondtriangles.svg	24	yes	57	0	390	6	1	antiphase_hc_iso.wav	2	6	6	noise_calib_stim_RIGHT.wav	2	11	blb_dichoticlistening_da-pa.mp3	da	pa	1	right
6.6.1	win	2023-06-02	02:30:05	02:44:17	848609	5a8d8079190420000156435d	1	1	main_slash	24	main_slash	71	stimuli_distractor_trianglediamonds.svg	stimuli_target_rectangletriangles.svg	9	yes	53	1	764	6	1	antiphase_hc_iso.wav	2	6	6	noise_calib_stim_RIGHT.wav	2	11	blb_dichoticlistening_da-pa.mp3	da	pa	1	right
6.6.1	win	2023-06-02	02:30:05	02:44:17	848609	5a8d8079190420000156435d	1	1	main_slash	24	advance_on_keypress_SLASH	72	stimuli_distractor_trianglediamonds.svg	stimuli_target_rectangletriangles.svg	9	yes	57	0	335	6	1	antiphase_hc_iso.wav	2	6	6	noise_calib_stim_RIGHT.wav	2	11	blb_dichoticlistening_da-pa.mp3	da	pa	1	right
6.6.1	win	2023-06-02	02:30:05	02:44:18	850324	5a8d8079190420000156435d	1	1	main_slash	24	main_slash	73	stimuli_target_rectanglediamonds.svg	stimuli_distractor_trianglediamonds.svg	2	yes	53	1	746	6	1	antiphase_hc_iso.wav	2	6	6	noise_calib_stim_RIGHT.wav	2	11	blb_dichoticlistening_da-pa.mp3	da	pa	1	right
6.6.1	win	2023-06-02	02:30:05	02:44:18	850324	5a8d8079190420000156435d	1	1	main_slash	24	advance_on_keypress_SLASH	74	stimuli_target_rectanglediamonds.svg	stimuli_distractor_trianglediamonds.svg	2	yes	57	0	347	6	1	antiphase_hc_iso.wav	2	6	6	noise_calib_stim_RIGHT.wav	2	11	blb_dichoticlistening_da-pa.mp3	da	pa	1	right
6.6.1	win	2023-06-02	02:30:05	02:44:20	851912	5a8d8079190420000156435d	1	1	main_slash	24	main_slash	75	stimuli_target_rectangletriangles.svg	stimuli_distractor_trianglediamonds.svg	1	yes	53	1	618	6	1	antiphase_hc_iso.wav	2	6	6	noise_calib_stim_RIGHT.wav	2	11	blb_dichoticlistening_da-pa.mp3	da	pa	1	right
6.6.1	win	2023-06-02	02:30:05	02:44:20	851912	5a8d8079190420000156435d	1	1	main_slash	24	advance_on_keypress_SLASH	76	stimuli_target_rectangletriangles.svg	stimuli_distractor_trianglediamonds.svg	1	yes	57	0	324	6	1	antiphase_hc_iso.wav	2	6	6	noise_calib_stim_RIGHT.wav	2	11	blb_dichoticlistening_da-pa.mp3	da	pa	1	right
6.6.1	win	2023-06-02	02:30:05	02:44:23	854878	5a8d8079190420000156435d	1	1	main_slash	24	main_slash	77	stimuli_distractor_diamondtriangles.svg	stimuli_distractor_diamondtriangles.svg	39	no	0	1	2000	6	1	antiphase_hc_iso.wav	2	6	6	noise_calib_stim_RIGHT.wav	2	11	blb_dichoticlistening_da-pa.mp3	da	pa	1	right
6.6.1	win	2023-06-02	02:30:05	02:44:23	854878	5a8d8079190420000156435d	1	1	main_slash	24	advance_on_keypress_SLASH	78	stimuli_distractor_diamondtriangles.svg	stimuli_distractor_diamondtriangles.svg	39	no	57	0	507	6	1	antiphase_hc_iso.wav	2	6	6	noise_calib_stim_RIGHT.wav	2	11	blb_dichoticlistening_da-pa.mp3	da	pa	1	right
6.6.1	win	2023-06-02	02:30:05	02:44:25	856937	5a8d8079190420000156435d	1	1	main_slash	24	main_slash	79	stimuli_target_diamondsquares.svg	stimuli_distractor_trianglediamonds.svg	20	yes	53	1	909	6	1	antiphase_hc_iso.wav	2	6	6	noise_calib_stim_RIGHT.wav	2	11	blb_dichoticlistening_da-pa.mp3	da	pa	1	right
6.6.1	win	2023-06-02	02:30:05	02:44:25	856937	5a8d8079190420000156435d	1	1	main_slash	24	advance_on_keypress_SLASH	80	stimuli_target_diamondsquares.svg	stimuli_distractor_trianglediamonds.svg	20	yes	57	0	366	6	1	antiphase_hc_iso.wav	2	6	6	noise_calib_stim_RIGHT.wav	2	11	blb_dichoticlistening_da-pa.mp3	da	pa	1	right
6.6.1	win	2023-06-02	02:30:05	02:44:27	858657	5a8d8079190420000156435d	1	1	main_slash	24	main_slash	81	stimuli_distractor_trianglediamonds.svg	stimuli_target_squaretriangles.svg	11	yes	53	1	712	6	1	antiphase_hc_iso.wav	2	6	6	noise_calib_stim_RIGHT.wav	2	11	blb_dichoticlistening_da-pa.mp3	da	pa	1	right
6.6.1	win	2023-06-02	02:30:05	02:44:27	858657	5a8d8079190420000156435d	1	1	main_slash	24	advance_on_keypress_SLASH	82	stimuli_distractor_trianglediamonds.svg	stimuli_target_squaretriangles.svg	11	yes	57	0	349	6	1	antiphase_hc_iso.wav	2	6	6	noise_calib_stim_RIGHT.wav	2	11	blb_dichoticlistening_da-pa.mp3	da	pa	1	right
6.6.1	win	2023-06-02	02:30:05	02:44:30	861644	5a8d8079190420000156435d	1	1	main_slash	24	main_slash	83	stimuli_distractor_trianglediamonds.svg	stimuli_distractor_trianglediamonds.svg	34	no	0	1	2000	6	1	antiphase_hc_iso.wav	2	6	6	noise_calib_stim_RIGHT.wav	2	11	blb_dichoticlistening_da-pa.mp3	da	pa	1	right
6.6.1	win	2023-06-02	02:30:05	02:44:30	861644	5a8d8079190420000156435d	1	1	main_slash	24	advance_on_keypress_SLASH	84	stimuli_distractor_trianglediamonds.svg	stimuli_distractor_trianglediamonds.svg	34	no	57	0	387	6	1	antiphase_hc_iso.wav	2	6	6	noise_calib_stim_RIGHT.wav	2	11	blb_dichoticlistening_da-pa.mp3	da	pa	1	right
6.6.1	win	2023-06-02	02:30:05	02:44:31	863194	5a8d8079190420000156435d	1	1	main_slash	24	main_slash	85	stimuli_target_trianglesquares.svg	stimuli_distractor_trianglediamonds.svg	18	yes	53	1	510	6	1	antiphase_hc_iso.wav	2	6	6	noise_calib_stim_RIGHT.wav	2	11	blb_dichoticlistening_da-pa.mp3	da	pa	1	right
6.6.1	win	2023-06-02	02:30:05	02:44:31	863194	5a8d8079190420000156435d	1	1	main_slash	24	advance_on_keypress_SLASH	86	stimuli_target_trianglesquares.svg	stimuli_distractor_trianglediamonds.svg	18	yes	57	0	392	6	1	antiphase_hc_iso.wav	2	6	6	noise_calib_stim_RIGHT.wav	2	11	blb_dichoticlistening_da-pa.mp3	da	pa	1	right
6.6.1	win	2023-06-02	02:30:05	02:44:33	864745	5a8d8079190420000156435d	1	1	main_slash	24	main_slash	87	stimuli_distractor_trianglediamonds.svg	stimuli_target_diamondrectangles.svg	27	yes	53	1	502	6	1	antiphase_hc_iso.wav	2	6	6	noise_calib_stim_RIGHT.wav	2	11	blb_dichoticlistening_da-pa.mp3	da	pa	1	right
6.6.1	win	2023-06-02	02:30:05	02:44:33	864745	5a8d8079190420000156435d	1	1	main_slash	24	advance_on_keypress_SLASH	88	stimuli_distractor_trianglediamonds.svg	stimuli_target_diamondrectangles.svg	27	yes	57	0	260	6	1	antiphase_hc_iso.wav	2	6	6	noise_calib_stim_RIGHT.wav	2	11	blb_dichoticlistening_da-pa.mp3	da	pa	1	right
6.6.1	win	2023-06-02	02:30:05	02:44:34	866129	5a8d8079190420000156435d	1	1	main_slash	24	main_slash	89	stimuli_target_diamondrectangles.svg	stimuli_distractor_trianglediamonds.svg	19	yes	53	1	484	6	1	antiphase_hc_iso.wav	2	6	6	noise_calib_stim_RIGHT.wav	2	11	blb_dichoticlistening_da-pa.mp3	da	pa	1	right
6.6.1	win	2023-06-02	02:30:05	02:44:34	866129	5a8d8079190420000156435d	1	1	main_slash	24	advance_on_keypress_SLASH	90	stimuli_target_diamondrectangles.svg	stimuli_distractor_trianglediamonds.svg	19	yes	57	0	290	6	1	antiphase_hc_iso.wav	2	6	6	noise_calib_stim_RIGHT.wav	2	11	blb_dichoticlistening_da-pa.mp3	da	pa	1	right
6.6.1	win	2023-06-02	02:30:05	02:44:36	867620	5a8d8079190420000156435d	1	1	main_slash	24	main_slash	91	stimuli_target_rectanglediamonds.svg	stimuli_distractor_diamondtriangles.svg	6	yes	53	1	559	6	1	antiphase_hc_iso.wav	2	6	6	noise_calib_stim_RIGHT.wav	2	11	blb_dichoticlistening_da-pa.mp3	da	pa	1	right
6.6.1	win	2023-06-02	02:30:05	02:44:36	867620	5a8d8079190420000156435d	1	1	main_slash	24	advance_on_keypress_SLASH	92	stimuli_target_rectanglediamonds.svg	stimuli_distractor_diamondtriangles.svg	6	yes	57	0	225	6	1	antiphase_hc_iso.wav	2	6	6	noise_calib_stim_RIGHT.wav	2	11	blb_dichoticlistening_da-pa.mp3	da	pa	1	right
6.6.1	win	2023-06-02	02:30:05	02:44:37	868995	5a8d8079190420000156435d	1	1	main_slash	24	main_slash	93	stimuli_target_diamondsquares.svg	stimuli_distractor_diamondtriangles.svg	24	yes	53	1	502	6	1	antiphase_hc_iso.wav	2	6	6	noise_calib_stim_RIGHT.wav	2	11	blb_dichoticlistening_da-pa.mp3	da	pa	1	right
6.6.1	win	2023-06-02	02:30:05	02:44:37	868995	5a8d8079190420000156435d	1	1	main_slash	24	advance_on_keypress_SLASH	94	stimuli_target_diamondsquares.svg	stimuli_distractor_diamondtriangles.svg	24	yes	57	0	203	6	1	antiphase_hc_iso.wav	2	6	6	noise_calib_stim_RIGHT.wav	2	11	blb_dichoticlistening_da-pa.mp3	da	pa	1	right
6.6.1	win	2023-06-02	02:30:05	02:44:40	871844	5a8d8079190420000156435d	1	1	main_slash	24	main_slash	95	stimuli_distractor_diamondtriangles.svg	stimuli_distractor_diamondtriangles.svg	39	no	0	1	2000	6	1	antiphase_hc_iso.wav	2	6	6	noise_calib_stim_RIGHT.wav	2	11	blb_dichoticlistening_da-pa.mp3	da	pa	1	right
6.6.1	win	2023-06-02	02:30:05	02:44:40	871844	5a8d8079190420000156435d	1	1	main_slash	24	advance_on_keypress_SLASH	96	stimuli_distractor_diamondtriangles.svg	stimuli_distractor_diamondtriangles.svg	39	no	57	0	739	6	1	antiphase_hc_iso.wav	2	6	6	noise_calib_stim_RIGHT.wav	2	11	blb_dichoticlistening_da-pa.mp3	da	pa	1	right
6.6.1	win	2023-06-02	02:30:05	02:44:42	873812	5a8d8079190420000156435d	1	1	main_slash	24	main_slash	97	stimuli_distractor_diamondtriangles.svg	stimuli_target_rectangletriangles.svg	13	yes	53	1	584	6	1	antiphase_hc_iso.wav	2	6	6	noise_calib_stim_RIGHT.wav	2	11	blb_dichoticlistening_da-pa.mp3	da	pa	1	right
6.6.1	win	2023-06-02	02:30:05	02:44:42	873812	5a8d8079190420000156435d	1	1	main_slash	24	advance_on_keypress_SLASH	98	stimuli_distractor_diamondtriangles.svg	stimuli_target_rectangletriangles.svg	13	yes	57	0	255	6	1	antiphase_hc_iso.wav	2	6	6	noise_calib_stim_RIGHT.wav	2	11	blb_dichoticlistening_da-pa.mp3	da	pa	1	right
6.6.1	win	2023-06-02	02:30:05	02:44:43	875184	5a8d8079190420000156435d	1	1	main_slash	24	main_slash	99	stimuli_target_squaretriangles.svg	stimuli_distractor_trianglediamonds.svg	3	yes	53	1	473	6	1	antiphase_hc_iso.wav	2	6	6	noise_calib_stim_RIGHT.wav	2	11	blb_dichoticlistening_da-pa.mp3	da	pa	1	right
6.6.1	win	2023-06-02	02:30:05	02:44:43	875184	5a8d8079190420000156435d	1	1	main_slash	24	advance_on_keypress_SLASH	100	stimuli_target_squaretriangles.svg	stimuli_distractor_trianglediamonds.svg	3	yes	57	0	243	6	1	antiphase_hc_iso.wav	2	6	6	noise_calib_stim_RIGHT.wav	2	11	blb_dichoticlistening_da-pa.mp3	da	pa	1	right
6.6.1	win	2023-06-02	02:30:05	02:44:45	876489	5a8d8079190420000156435d	1	1	main_slash	24	main_slash	101	stimuli_target_rectanglediamonds.svg	stimuli_distractor_trianglediamonds.svg	2	yes	53	1	429	6	1	antiphase_hc_iso.wav	2	6	6	noise_calib_stim_RIGHT.wav	2	11	blb_dichoticlistening_da-pa.mp3	da	pa	1	right
6.6.1	win	2023-06-02	02:30:05	02:44:45	876489	5a8d8079190420000156435d	1	1	main_slash	24	advance_on_keypress_SLASH	102	stimuli_target_rectanglediamonds.svg	stimuli_distractor_trianglediamonds.svg	2	yes	57	0	310	6	1	antiphase_hc_iso.wav	2	6	6	noise_calib_stim_RIGHT.wav	2	11	blb_dichoticlistening_da-pa.mp3	da	pa	1	right
6.6.1	win	2023-06-02	02:30:05	02:44:46	877865	5a8d8079190420000156435d	1	1	main_slash	24	main_slash	103	stimuli_target_squarediamonds.svg	stimuli_distractor_trianglediamonds.svg	4	yes	53	1	437	6	1	antiphase_hc_iso.wav	2	6	6	noise_calib_stim_RIGHT.wav	2	11	blb_dichoticlistening_da-pa.mp3	da	pa	1	right
6.6.1	win	2023-06-02	02:30:05	02:44:46	877865	5a8d8079190420000156435d	1	1	main_slash	24	advance_on_keypress_SLASH	104	stimuli_target_squarediamonds.svg	stimuli_distractor_trianglediamonds.svg	4	yes	57	0	274	6	1	antiphase_hc_iso.wav	2	6	6	noise_calib_stim_RIGHT.wav	2	11	blb_dichoticlistening_da-pa.mp3	da	pa	1	right
6.6.1	win	2023-06-02	02:30:05	02:44:49	880778	5a8d8079190420000156435d	1	1	main_slash	24	main_slash	105	stimuli_distractor_diamondtriangles.svg	stimuli_distractor_diamondtriangles.svg	40	no	0	1	2000	6	1	antiphase_hc_iso.wav	2	6	6	noise_calib_stim_RIGHT.wav	2	11	blb_dichoticlistening_da-pa.mp3	da	pa	1	right
6.6.1	win	2023-06-02	02:30:05	02:44:49	880778	5a8d8079190420000156435d	1	1	main_slash	24	advance_on_keypress_SLASH	106	stimuli_distractor_diamondtriangles.svg	stimuli_distractor_diamondtriangles.svg	40	no	57	0	421	6	1	antiphase_hc_iso.wav	2	6	6	noise_calib_stim_RIGHT.wav	2	11	blb_dichoticlistening_da-pa.mp3	da	pa	1	right
6.6.1	win	2023-06-02	02:30:05	02:44:51	882406	5a8d8079190420000156435d	1	1	main_slash	24	main_slash	107	stimuli_distractor_trianglediamonds.svg	stimuli_target_trianglerectangles.svg	25	yes	53	1	561	6	1	antiphase_hc_iso.wav	2	6	6	noise_calib_stim_RIGHT.wav	2	11	blb_dichoticlistening_da-pa.mp3	da	pa	1	right
6.6.1	win	2023-06-02	02:30:05	02:44:51	882406	5a8d8079190420000156435d	1	1	main_slash	24	advance_on_keypress_SLASH	108	stimuli_distractor_trianglediamonds.svg	stimuli_target_trianglerectangles.svg	25	yes	57	0	277	6	1	antiphase_hc_iso.wav	2	6	6	noise_calib_stim_RIGHT.wav	2	11	blb_dichoticlistening_da-pa.mp3	da	pa	1	right
6.6.1	win	2023-06-02	02:30:05	02:44:53	885311	5a8d8079190420000156435d	1	1	main_slash	24	main_slash	109	stimuli_distractor_trianglediamonds.svg	stimuli_distractor_trianglediamonds.svg	33	no	0	1	2000	6	1	antiphase_hc_iso.wav	2	6	6	noise_calib_stim_RIGHT.wav	2	11	blb_dichoticlistening_da-pa.mp3	da	pa	1	right
6.6.1	win	2023-06-02	02:30:05	02:44:53	885311	5a8d8079190420000156435d	1	1	main_slash	24	advance_on_keypress_SLASH	110	stimuli_distractor_trianglediamonds.svg	stimuli_distractor_trianglediamonds.svg	33	no	57	0	321	6	1	antiphase_hc_iso.wav	2	6	6	noise_calib_stim_RIGHT.wav	2	11	blb_dichoticlistening_da-pa.mp3	da	pa	1	right
6.6.1	win	2023-06-02	02:30:05	02:44:55	886734	5a8d8079190420000156435d	1	1	main_slash	24	main_slash	111	stimuli_distractor_trianglediamonds.svg	stimuli_target_rectangletriangles.svg	9	yes	53	1	457	6	1	antiphase_hc_iso.wav	2	6	6	noise_calib_stim_RIGHT.wav	2	11	blb_dichoticlistening_da-pa.mp3	da	pa	1	right
6.6.1	win	2023-06-02	02:30:05	02:44:55	886734	5a8d8079190420000156435d	1	1	main_slash	24	advance_on_keypress_SLASH	112	stimuli_distractor_trianglediamonds.svg	stimuli_target_rectangletriangles.svg	9	yes	57	0	227	6	1	antiphase_hc_iso.wav	2	6	6	noise_calib_stim_RIGHT.wav	2	11	blb_dichoticlistening_da-pa.mp3	da	pa	1	right
6.6.1	win	2023-06-02	02:30:05	02:44:56	888300	5a8d8079190420000156435d	1	1	main_slash	24	main_slash	113	stimuli_target_diamondrectangles.svg	stimuli_distractor_diamondtriangles.svg	23	yes	53	1	706	6	1	antiphase_hc_iso.wav	2	6	6	noise_calib_stim_RIGHT.wav	2	11	blb_dichoticlistening_da-pa.mp3	da	pa	1	right
6.6.1	win	2023-06-02	02:30:05	02:44:56	888300	5a8d8079190420000156435d	1	1	main_slash	24	advance_on_keypress_SLASH	114	stimuli_target_diamondrectangles.svg	stimuli_distractor_diamondtriangles.svg	23	yes	57	0	272	6	1	antiphase_hc_iso.wav	2	6	6	noise_calib_stim_RIGHT.wav	2	11	blb_dichoticlistening_da-pa.mp3	da	pa	1	right
6.6.1	win	2023-06-02	02:30:05	02:44:59	891211	5a8d8079190420000156435d	1	1	main_slash	24	main_slash	115	stimuli_distractor_diamondtriangles.svg	stimuli_distractor_trianglediamonds.svg	38	no	0	1	2000	6	1	antiphase_hc_iso.wav	2	6	6	noise_calib_stim_RIGHT.wav	2	11	blb_dichoticlistening_da-pa.mp3	da	pa	1	right
6.6.1	win	2023-06-02	02:30:05	02:44:59	891211	5a8d8079190420000156435d	1	1	main_slash	24	advance_on_keypress_SLASH	116	stimuli_distractor_diamondtriangles.svg	stimuli_distractor_trianglediamonds.svg	38	no	57	0	443	6	1	antiphase_hc_iso.wav	2	6	6	noise_calib_stim_RIGHT.wav	2	11	blb_dichoticlistening_da-pa.mp3	da	pa	1	right
6.6.1	win	2023-06-02	02:30:05	02:45:01	893136	5a8d8079190420000156435d	1	1	main_slash	24	main_slash	117	stimuli_target_trianglerectangles.svg	stimuli_distractor_trianglediamonds.svg	17	yes	53	1	841	6	1	antiphase_hc_iso.wav	2	6	6	noise_calib_stim_RIGHT.wav	2	11	blb_dichoticlistening_da-pa.mp3	da	pa	1	right
6.6.1	win	2023-06-02	02:30:05	02:45:01	893136	5a8d8079190420000156435d	1	1	main_slash	24	advance_on_keypress_SLASH	118	stimuli_target_trianglerectangles.svg	stimuli_distractor_trianglediamonds.svg	17	yes	57	0	254	6	1	antiphase_hc_iso.wav	2	6	6	noise_calib_stim_RIGHT.wav	2	11	blb_dichoticlistening_da-pa.mp3	da	pa	1	right
6.6.1	win	2023-06-02	02:30:05	02:45:04	896028	5a8d8079190420000156435d	1	1	main_slash	24	main_slash	119	stimuli_distractor_trianglediamonds.svg	stimuli_distractor_diamondtriangles.svg	36	no	0	1	2000	6	1	antiphase_hc_iso.wav	2	6	6	noise_calib_stim_RIGHT.wav	2	11	blb_dichoticlistening_da-pa.mp3	da	pa	1	right
6.6.1	win	2023-06-02	02:30:05	02:45:04	896028	5a8d8079190420000156435d	1	1	main_slash	24	advance_on_keypress_SLASH	120	stimuli_distractor_trianglediamonds.svg	stimuli_distractor_diamondtriangles.svg	36	no	57	0	587	6	1	antiphase_hc_iso.wav	2	6	6	noise_calib_stim_RIGHT.wav	2	11	blb_dichoticlistening_da-pa.mp3	da	pa	1	right
6.6.1	win	2023-06-02	02:30:05	02:45:07	899261	5a8d8079190420000156435d	1	1	main_slash	24	main_slash	121	stimuli_distractor_trianglediamonds.svg	stimuli_distractor_diamondtriangles.svg	35	no	0	1	2000	6	1	antiphase_hc_iso.wav	2	6	6	noise_calib_stim_RIGHT.wav	2	11	blb_dichoticlistening_da-pa.mp3	da	pa	1	right
6.6.1	win	2023-06-02	02:30:05	02:45:07	899261	5a8d8079190420000156435d	1	1	main_slash	24	advance_on_keypress_SLASH	122	stimuli_distractor_trianglediamonds.svg	stimuli_distractor_diamondtriangles.svg	35	no	57	0	582	6	1	antiphase_hc_iso.wav	2	6	6	noise_calib_stim_RIGHT.wav	2	11	blb_dichoticlistening_da-pa.mp3	da	pa	1	right
6.6.1	win	2023-06-02	02:30:05	02:45:09	901289	5a8d8079190420000156435d	1	1	main_slash	24	main_slash	123	stimuli_distractor_diamondtriangles.svg	stimuli_target_trianglesquares.svg	30	yes	53	1	794	6	1	antiphase_hc_iso.wav	2	6	6	noise_calib_stim_RIGHT.wav	2	11	blb_dichoticlistening_da-pa.mp3	da	pa	1	right
6.6.1	win	2023-06-02	02:30:05	02:45:09	901289	5a8d8079190420000156435d	1	1	main_slash	24	advance_on_keypress_SLASH	124	stimuli_distractor_diamondtriangles.svg	stimuli_target_trianglesquares.svg	30	yes	57	0	472	6	1	antiphase_hc_iso.wav	2	6	6	noise_calib_stim_RIGHT.wav	2	11	blb_dichoticlistening_da-pa.mp3	da	pa	1	right
6.6.1	win	2023-06-02	02:30:05	02:45:11	903041	5a8d8079190420000156435d	1	1	main_slash	24	main_slash	125	stimuli_distractor_trianglediamonds.svg	stimuli_target_trianglesquares.svg	26	yes	53	1	647	6	1	antiphase_hc_iso.wav	2	6	6	noise_calib_stim_RIGHT.wav	2	11	blb_dichoticlistening_da-pa.mp3	da	pa	1	right
6.6.1	win	2023-06-02	02:30:05	02:45:11	903041	5a8d8079190420000156435d	1	1	main_slash	24	advance_on_keypress_SLASH	126	stimuli_distractor_trianglediamonds.svg	stimuli_target_trianglesquares.svg	26	yes	57	0	270	6	1	antiphase_hc_iso.wav	2	6	6	noise_calib_stim_RIGHT.wav	2	11	blb_dichoticlistening_da-pa.mp3	da	pa	1	right
6.6.1	win	2023-06-02	02:30:05	02:45:13	904537	5a8d8079190420000156435d	1	1	main_slash	24	main_slash	127	stimuli_distractor_trianglediamonds.svg	stimuli_target_squarediamonds.svg	12	yes	53	1	593	6	1	antiphase_hc_iso.wav	2	6	6	noise_calib_stim_RIGHT.wav	2	11	blb_dichoticlistening_da-pa.mp3	da	pa	1	right
6.6.1	win	2023-06-02	02:30:05	02:45:13	904537	5a8d8079190420000156435d	1	1	main_slash	24	advance_on_keypress_SLASH	128	stimuli_distractor_trianglediamonds.svg	stimuli_target_squarediamonds.svg	12	yes	57	0	271	6	1	antiphase_hc_iso.wav	2	6	6	noise_calib_stim_RIGHT.wav	2	11	blb_dichoticlistening_da-pa.mp3	da	pa	1	right
6.6.1	win	2023-06-02	02:30:05	02:45:16	907445	5a8d8079190420000156435d	1	1	main_slash	24	main_slash	129	stimuli_distractor_diamondtriangles.svg	stimuli_distractor_trianglediamonds.svg	37	no	0	1	2000	6	1	antiphase_hc_iso.wav	2	6	6	noise_calib_stim_RIGHT.wav	2	11	blb_dichoticlistening_da-pa.mp3	da	pa	1	right
6.6.1	win	2023-06-02	02:30:05	02:45:16	907445	5a8d8079190420000156435d	1	1	main_slash	24	advance_on_keypress_SLASH	130	stimuli_distractor_diamondtriangles.svg	stimuli_distractor_trianglediamonds.svg	37	no	57	0	791	6	1	antiphase_hc_iso.wav	2	6	6	noise_calib_stim_RIGHT.wav	2	11	blb_dichoticlistening_da-pa.mp3	da	pa	1	right
6.6.1	win	2023-06-02	02:30:05	02:45:18	909422	5a8d8079190420000156435d	1	1	main_slash	24	main_slash	131	stimuli_distractor_diamondtriangles.svg	stimuli_target_diamondsquares.svg	32	yes	53	1	544	6	1	antiphase_hc_iso.wav	2	6	6	noise_calib_stim_RIGHT.wav	2	11	blb_dichoticlistening_da-pa.mp3	da	pa	1	right
6.6.1	win	2023-06-02	02:30:05	02:45:18	909422	5a8d8079190420000156435d	1	1	main_slash	24	advance_on_keypress_SLASH	132	stimuli_distractor_diamondtriangles.svg	stimuli_target_diamondsquares.svg	32	yes	57	0	297	6	1	antiphase_hc_iso.wav	2	6	6	noise_calib_stim_RIGHT.wav	2	11	blb_dichoticlistening_da-pa.mp3	da	pa	1	right
6.6.1	win	2023-06-02	02:30:05	02:45:19	911009	5a8d8079190420000156435d	1	1	main_slash	24	main_slash	133	stimuli_distractor_diamondtriangles.svg	stimuli_target_squarediamonds.svg	16	yes	53	1	665	6	1	antiphase_hc_iso.wav	2	6	6	noise_calib_stim_RIGHT.wav	2	11	blb_dichoticlistening_da-pa.mp3	da	pa	1	right
6.6.1	win	2023-06-02	02:30:05	02:45:19	911009	5a8d8079190420000156435d	1	1	main_slash	24	advance_on_keypress_SLASH	134	stimuli_distractor_diamondtriangles.svg	stimuli_target_squarediamonds.svg	16	yes	57	0	307	6	1	antiphase_hc_iso.wav	2	6	6	noise_calib_stim_RIGHT.wav	2	11	blb_dichoticlistening_da-pa.mp3	da	pa	1	right
6.6.1	win	2023-06-02	02:30:05	02:45:21	912537	5a8d8079190420000156435d	1	1	main_slash	24	main_slash	135	stimuli_distractor_trianglediamonds.svg	stimuli_target_rectanglediamonds.svg	10	yes	53	1	593	6	1	antiphase_hc_iso.wav	2	6	6	noise_calib_stim_RIGHT.wav	2	11	blb_dichoticlistening_da-pa.mp3	da	pa	1	right
6.6.1	win	2023-06-02	02:30:05	02:45:21	912537	5a8d8079190420000156435d	1	1	main_slash	24	advance_on_keypress_SLASH	136	stimuli_distractor_trianglediamonds.svg	stimuli_target_rectanglediamonds.svg	10	yes	57	0	260	6	1	antiphase_hc_iso.wav	2	6	6	noise_calib_stim_RIGHT.wav	2	11	blb_dichoticlistening_da-pa.mp3	da	pa	1	right
6.6.1	win	2023-06-02	02:30:05	02:45:24	915428	5a8d8079190420000156435d	1	1	main_slash	24	main_slash	137	stimuli_target_trianglerectangles.svg	stimuli_distractor_diamondtriangles.svg	21	yes	0	0	2000	6	1	antiphase_hc_iso.wav	2	6	6	noise_calib_stim_RIGHT.wav	2	11	blb_dichoticlistening_da-pa.mp3	da	pa	1	right
6.6.1	win	2023-06-02	02:30:05	02:45:24	915428	5a8d8079190420000156435d	1	1	main_slash	24	advance_on_keypress_SLASH	138	stimuli_target_trianglerectangles.svg	stimuli_distractor_diamondtriangles.svg	21	yes	57	0	496	6	1	antiphase_hc_iso.wav	2	6	6	noise_calib_stim_RIGHT.wav	2	11	blb_dichoticlistening_da-pa.mp3	da	pa	1	right
6.6.1	win	2023-06-02	02:30:05	02:45:25	917206	5a8d8079190420000156435d	1	1	main_slash	24	main_slash	139	stimuli_target_squaretriangles.svg	stimuli_distractor_diamondtriangles.svg	7	yes	53	1	644	6	1	antiphase_hc_iso.wav	2	6	6	noise_calib_stim_RIGHT.wav	2	11	blb_dichoticlistening_da-pa.mp3	da	pa	1	right
6.6.1	win	2023-06-02	02:30:05	02:45:25	917206	5a8d8079190420000156435d	1	1	main_slash	24	advance_on_keypress_SLASH	140	stimuli_target_squaretriangles.svg	stimuli_distractor_diamondtriangles.svg	7	yes	57	0	272	6	1	antiphase_hc_iso.wav	2	6	6	noise_calib_stim_RIGHT.wav	2	11	blb_dichoticlistening_da-pa.mp3	da	pa	1	right
6.6.1	win	2023-06-02	02:30:05	02:45:27	919011	5a8d8079190420000156435d	1	1	main_slash	24	main_slash	141	stimuli_target_diamondsquares.svg	stimuli_distractor_trianglediamonds.svg	20	yes	53	1	899	6	1	antiphase_hc_iso.wav	2	6	6	noise_calib_stim_RIGHT.wav	2	11	blb_dichoticlistening_da-pa.mp3	da	pa	1	right
6.6.1	win	2023-06-02	02:30:05	02:45:27	919011	5a8d8079190420000156435d	1	1	main_slash	24	advance_on_keypress_SLASH	142	stimuli_target_diamondsquares.svg	stimuli_distractor_trianglediamonds.svg	20	yes	57	0	259	6	1	antiphase_hc_iso.wav	2	6	6	noise_calib_stim_RIGHT.wav	2	11	blb_dichoticlistening_da-pa.mp3	da	pa	1	right
6.6.1	win	2023-06-02	02:30:05	02:45:29	920479	5a8d8079190420000156435d	1	1	main_slash	24	main_slash	143	stimuli_target_trianglesquares.svg	stimuli_distractor_diamondtriangles.svg	22	yes	53	1	568	6	1	antiphase_hc_iso.wav	2	6	6	noise_calib_stim_RIGHT.wav	2	11	blb_dichoticlistening_da-pa.mp3	da	pa	1	right
6.6.1	win	2023-06-02	02:30:05	02:45:29	920479	5a8d8079190420000156435d	1	1	main_slash	24	advance_on_keypress_SLASH	144	stimuli_target_trianglesquares.svg	stimuli_distractor_diamondtriangles.svg	22	yes	57	0	241	6	1	antiphase_hc_iso.wav	2	6	6	noise_calib_stim_RIGHT.wav	2	11	blb_dichoticlistening_da-pa.mp3	da	pa	1	right
6.6.1	win	2023-06-02	02:30:05	02:45:30	922069	5a8d8079190420000156435d	1	1	main_slash	24	main_slash	145	stimuli_distractor_diamondtriangles.svg	stimuli_target_rectanglediamonds.svg	14	yes	53	1	708	6	1	antiphase_hc_iso.wav	2	6	6	noise_calib_stim_RIGHT.wav	2	11	blb_dichoticlistening_da-pa.mp3	da	pa	1	right
6.6.1	win	2023-06-02	02:30:05	02:45:30	922069	5a8d8079190420000156435d	1	1	main_slash	24	advance_on_keypress_SLASH	146	stimuli_distractor_diamondtriangles.svg	stimuli_target_rectanglediamonds.svg	14	yes	57	0	244	6	1	antiphase_hc_iso.wav	2	6	6	noise_calib_stim_RIGHT.wav	2	11	blb_dichoticlistening_da-pa.mp3	da	pa	1	right
6.6.1	win	2023-06-02	02:30:05	02:45:32	923537	5a8d8079190420000156435d	1	1	main_slash	24	main_slash	147	stimuli_distractor_diamondtriangles.svg	stimuli_target_diamondrectangles.svg	31	yes	53	1	593	6	1	antiphase_hc_iso.wav	2	6	6	noise_calib_stim_RIGHT.wav	2	11	blb_dichoticlistening_da-pa.mp3	da	pa	1	right
6.6.1	win	2023-06-02	02:30:05	02:45:32	923537	5a8d8079190420000156435d	1	1	main_slash	24	advance_on_keypress_SLASH	148	stimuli_distractor_diamondtriangles.svg	stimuli_target_diamondrectangles.svg	31	yes	57	0	236	6	1	antiphase_hc_iso.wav	2	6	6	noise_calib_stim_RIGHT.wav	2	11	blb_dichoticlistening_da-pa.mp3	da	pa	1	right
6.6.1	win	2023-06-02	02:30:05	02:45:33	924932	5a8d8079190420000156435d	1	1	main_slash	24	main_slash	149	stimuli_target_squarediamonds.svg	stimuli_distractor_diamondtriangles.svg	8	yes	53	1	521	6	1	antiphase_hc_iso.wav	2	6	6	noise_calib_stim_RIGHT.wav	2	11	blb_dichoticlistening_da-pa.mp3	da	pa	1	right
6.6.1	win	2023-06-02	02:30:05	02:45:33	924932	5a8d8079190420000156435d	1	1	main_slash	24	advance_on_keypress_SLASH	150	stimuli_target_squarediamonds.svg	stimuli_distractor_diamondtriangles.svg	8	yes	57	0	194	6	1	antiphase_hc_iso.wav	2	6	6	noise_calib_stim_RIGHT.wav	2	11	blb_dichoticlistening_da-pa.mp3	da	pa	1	right
6.6.1	win	2023-06-02	02:30:05	02:45:34	926243	5a8d8079190420000156435d	1	1	main_slash	24	main_slash	151	stimuli_target_rectangletriangles.svg	stimuli_distractor_trianglediamonds.svg	1	yes	53	1	481	6	1	antiphase_hc_iso.wav	2	6	6	noise_calib_stim_RIGHT.wav	2	11	blb_dichoticlistening_da-pa.mp3	da	pa	1	right
6.6.1	win	2023-06-02	02:30:05	02:45:34	926243	5a8d8079190420000156435d	1	1	main_slash	24	advance_on_keypress_SLASH	152	stimuli_target_rectangletriangles.svg	stimuli_distractor_trianglediamonds.svg	1	yes	57	0	245	6	1	antiphase_hc_iso.wav	2	6	6	noise_calib_stim_RIGHT.wav	2	11	blb_dichoticlistening_da-pa.mp3	da	pa	1	right
6.6.1	win	2023-06-02	02:30:05	02:45:36	927611	5a8d8079190420000156435d	1	1	main_slash	24	main_slash	153	stimuli_distractor_trianglediamonds.svg	stimuli_target_diamondsquares.svg	28	yes	53	1	499	6	1	antiphase_hc_iso.wav	2	6	6	noise_calib_stim_RIGHT.wav	2	11	blb_dichoticlistening_da-pa.mp3	da	pa	1	right
6.6.1	win	2023-06-02	02:30:05	02:45:36	927611	5a8d8079190420000156435d	1	1	main_slash	24	advance_on_keypress_SLASH	154	stimuli_distractor_trianglediamonds.svg	stimuli_target_diamondsquares.svg	28	yes	57	0	229	6	1	antiphase_hc_iso.wav	2	6	6	noise_calib_stim_RIGHT.wav	2	11	blb_dichoticlistening_da-pa.mp3	da	pa	1	right
6.6.1	win	2023-06-02	02:30:05	02:45:37	928939	5a8d8079190420000156435d	1	1	main_slash	24	main_slash	155	stimuli_target_rectangletriangles.svg	stimuli_distractor_diamondtriangles.svg	5	yes	53	1	462	6	1	antiphase_hc_iso.wav	2	6	6	noise_calib_stim_RIGHT.wav	2	11	blb_dichoticlistening_da-pa.mp3	da	pa	1	right
6.6.1	win	2023-06-02	02:30:05	02:45:37	928939	5a8d8079190420000156435d	1	1	main_slash	24	advance_on_keypress_SLASH	156	stimuli_target_rectangletriangles.svg	stimuli_distractor_diamondtriangles.svg	5	yes	57	0	246	6	1	antiphase_hc_iso.wav	2	6	6	noise_calib_stim_RIGHT.wav	2	11	blb_dichoticlistening_da-pa.mp3	da	pa	1	right
6.6.1	win	2023-06-02	02:30:05	02:45:38	930303	5a8d8079190420000156435d	1	1	main_slash	24	main_slash	157	stimuli_distractor_diamondtriangles.svg	stimuli_target_squaretriangles.svg	15	yes	53	1	491	6	1	antiphase_hc_iso.wav	2	6	6	noise_calib_stim_RIGHT.wav	2	11	blb_dichoticlistening_da-pa.mp3	da	pa	1	right
6.6.1	win	2023-06-02	02:30:05	02:45:38	930303	5a8d8079190420000156435d	1	1	main_slash	24	advance_on_keypress_SLASH	158	stimuli_distractor_diamondtriangles.svg	stimuli_target_squaretriangles.svg	15	yes	57	0	231	6	1	antiphase_hc_iso.wav	2	6	6	noise_calib_stim_RIGHT.wav	2	11	blb_dichoticlistening_da-pa.mp3	da	pa	1	right
6.6.1	win	2023-06-02	02:30:05	02:45:40	931721	5a8d8079190420000156435d	1	1	main_slash	24	main_slash	159	stimuli_distractor_diamondtriangles.svg	stimuli_target_trianglerectangles.svg	29	yes	53	1	560	6	1	antiphase_hc_iso.wav	2	6	6	noise_calib_stim_RIGHT.wav	2	11	blb_dichoticlistening_da-pa.mp3	da	pa	1	right
6.6.1	win	2023-06-02	02:30:05	02:45:40	931721	5a8d8079190420000156435d	1	1	main_slash	24	advance_on_keypress_SLASH	160	stimuli_distractor_diamondtriangles.svg	stimuli_target_trianglerectangles.svg	29	yes	57	0	202	6	1	antiphase_hc_iso.wav	2	6	6	noise_calib_stim_RIGHT.wav	2	11	blb_dichoticlistening_da-pa.mp3	da	pa	1	right
6.6.1	win	2023-06-02	02:30:05	02:45:58	950002	5a8d8079190420000156435d	1	1	practice_z	26	practice_z	1	stimuli_target_squarediamonds.svg	stimuli_distractor_diamondtriangles.svg	2	yes	44	1	857	6	1	antiphase_hc_iso.wav	2	6	6	noise_calib_stim_RIGHT.wav	2	11	blb_dichoticlistening_da-pa.mp3	da	pa	1	right
6.6.1	win	2023-06-02	02:30:05	02:45:58	950002	5a8d8079190420000156435d	1	1	practice_z	26	advance_on_keypress_ZEE	2	stimuli_target_squarediamonds.svg	stimuli_distractor_diamondtriangles.svg	2	yes	57	0	544	6	1	antiphase_hc_iso.wav	2	6	6	noise_calib_stim_RIGHT.wav	2	11	blb_dichoticlistening_da-pa.mp3	da	pa	1	right
6.6.1	win	2023-06-02	02:30:05	02:46:02	954178	5a8d8079190420000156435d	1	1	practice_z	26	practice_z	3	stimuli_distractor_trianglediamonds.svg	stimuli_distractor_trianglediamonds.svg	15	no	0	1	2000	6	1	antiphase_hc_iso.wav	2	6	6	noise_calib_stim_RIGHT.wav	2	11	blb_dichoticlistening_da-pa.mp3	da	pa	1	right
6.6.1	win	2023-06-02	02:30:05	02:46:02	954178	5a8d8079190420000156435d	1	1	practice_z	26	advance_on_keypress_ZEE	4	stimuli_distractor_trianglediamonds.svg	stimuli_distractor_trianglediamonds.svg	15	no	57	0	527	6	1	antiphase_hc_iso.wav	2	6	6	noise_calib_stim_RIGHT.wav	2	11	blb_dichoticlistening_da-pa.mp3	da	pa	1	right
6.6.1	win	2023-06-02	02:30:05	02:46:05	956863	5a8d8079190420000156435d	1	1	practice_z	26	practice_z	5	stimuli_distractor_diamondtriangles.svg	stimuli_target_diamondrectangles.svg	8	yes	44	1	510	6	1	antiphase_hc_iso.wav	2	6	6	noise_calib_stim_RIGHT.wav	2	11	blb_dichoticlistening_da-pa.mp3	da	pa	1	right
6.6.1	win	2023-06-02	02:30:05	02:46:05	956863	5a8d8079190420000156435d	1	1	practice_z	26	advance_on_keypress_ZEE	6	stimuli_distractor_diamondtriangles.svg	stimuli_target_diamondrectangles.svg	8	yes	57	0	428	6	1	antiphase_hc_iso.wav	2	6	6	noise_calib_stim_RIGHT.wav	2	11	blb_dichoticlistening_da-pa.mp3	da	pa	1	right
6.6.1	win	2023-06-02	02:30:05	02:46:08	959520	5a8d8079190420000156435d	1	1	practice_z	26	practice_z	7	stimuli_distractor_trianglediamonds.svg	stimuli_target_rectanglediamonds.svg	10	yes	44	1	591	6	1	antiphase_hc_iso.wav	2	6	6	noise_calib_stim_RIGHT.wav	2	11	blb_dichoticlistening_da-pa.mp3	da	pa	1	right
6.6.1	win	2023-06-02	02:30:05	02:46:08	959520	5a8d8079190420000156435d	1	1	practice_z	26	advance_on_keypress_ZEE	8	stimuli_distractor_trianglediamonds.svg	stimuli_target_rectanglediamonds.svg	10	yes	57	0	351	6	1	antiphase_hc_iso.wav	2	6	6	noise_calib_stim_RIGHT.wav	2	11	blb_dichoticlistening_da-pa.mp3	da	pa	1	right
6.6.1	win	2023-06-02	02:30:05	02:46:12	963512	5a8d8079190420000156435d	1	1	practice_z	26	practice_z	9	stimuli_distractor_diamondtriangles.svg	stimuli_distractor_trianglediamonds.svg	14	no	0	1	2000	6	1	antiphase_hc_iso.wav	2	6	6	noise_calib_stim_RIGHT.wav	2	11	blb_dichoticlistening_da-pa.mp3	da	pa	1	right
6.6.1	win	2023-06-02	02:30:05	02:46:12	963512	5a8d8079190420000156435d	1	1	practice_z	26	advance_on_keypress_ZEE	10	stimuli_distractor_diamondtriangles.svg	stimuli_distractor_trianglediamonds.svg	14	no	57	0	475	6	1	antiphase_hc_iso.wav	2	6	6	noise_calib_stim_RIGHT.wav	2	11	blb_dichoticlistening_da-pa.mp3	da	pa	1	right
6.6.1	win	2023-06-02	02:30:05	02:46:14	966125	5a8d8079190420000156435d	1	1	practice_z	26	practice_z	11	stimuli_distractor_diamondtriangles.svg	stimuli_target_trianglerectangles.svg	9	yes	44	1	497	6	1	antiphase_hc_iso.wav	2	6	6	noise_calib_stim_RIGHT.wav	2	11	blb_dichoticlistening_da-pa.mp3	da	pa	1	right
6.6.1	win	2023-06-02	02:30:05	02:46:14	966125	5a8d8079190420000156435d	1	1	practice_z	26	advance_on_keypress_ZEE	12	stimuli_distractor_diamondtriangles.svg	stimuli_target_trianglerectangles.svg	9	yes	57	0	490	6	1	antiphase_hc_iso.wav	2	6	6	noise_calib_stim_RIGHT.wav	2	11	blb_dichoticlistening_da-pa.mp3	da	pa	1	right
6.6.1	win	2023-06-02	02:30:05	02:46:18	970245	5a8d8079190420000156435d	1	1	practice_z	26	practice_z	13	stimuli_distractor_trianglediamonds.svg	stimuli_distractor_diamondtriangles.svg	16	no	0	1	2000	6	1	antiphase_hc_iso.wav	2	6	6	noise_calib_stim_RIGHT.wav	2	11	blb_dichoticlistening_da-pa.mp3	da	pa	1	right
6.6.1	win	2023-06-02	02:30:05	02:46:18	970245	5a8d8079190420000156435d	1	1	practice_z	26	advance_on_keypress_ZEE	14	stimuli_distractor_trianglediamonds.svg	stimuli_distractor_diamondtriangles.svg	16	no	57	0	462	6	1	antiphase_hc_iso.wav	2	6	6	noise_calib_stim_RIGHT.wav	2	11	blb_dichoticlistening_da-pa.mp3	da	pa	1	right
