build	computer.platform	date	time	timestamp	time_elapsed_ms	subject	group	session	blockcode	blocknum	trialcode	trialnum	stimulus_left	stimulus_right	stim_index	target_present	response	correct	latency	headphonecheck_countTestTrials	headphonecheck_index	headphonecheck_testSound	headphonecheck_correctResponse	stereocheck_countTestTrials	stereocheck_index	stereocheck_testSound	stereocheck_correctResponse	DL_index	DL_soundfile	DL_leftSound	DL_rightSound	DL_dualSound	DL_choice
6.6.1	win	2023-06-25	09:42:28	0	0	5e5c58012272eb4328419f08	2	1	headphonecheck_calibration	4	headphonecheck_calibrationIntro	1			0		calibrationButton	0	9451	0	0			0	0			1				0	
6.6.1	win	2023-06-25	09:42:28	0	0	5e5c58012272eb4328419f08	2	1	headphonecheck_testphase	5	test_collectResponse	3			0		third	1	1453	1	2	antiphase_hc_ios.wav	3	0	0			1				0	
6.6.1	win	2023-06-25	09:42:28	0	0	5e5c58012272eb4328419f08	2	1	headphonecheck_testphase	5	test_collectResponse	6			0		second	1	1048	2	1	antiphase_hc_iso.wav	2	0	0			1				0	
6.6.1	win	2023-06-25	09:42:28	0	0	5e5c58012272eb4328419f08	2	1	headphonecheck_testphase	5	test_collectResponse	9			0		second	0	980	3	3	antiphase_hc_soi.wav	1	0	0			1				0	
6.6.1	win	2023-06-25	09:42:28	0	0	5e5c58012272eb4328419f08	2	1	headphonecheck_testphase	5	test_collectResponse	12			0		first	0	493	4	6	antiphase_hc_ois.wav	3	0	0			1				0	
6.6.1	win	2023-06-25	09:42:28	0	0	5e5c58012272eb4328419f08	2	1	headphonecheck_testphase	5	test_collectResponse	15			0		first	0	1621	5	5	antiphase_hc_osi.wav	2	0	0			1				0	
6.6.1	win	2023-06-25	09:42:28	0	0	5e5c58012272eb4328419f08	2	1	headphonecheck_testphase	5	test_collectResponse	18			0		first	1	767	6	4	antiphase_hc_sio.wav	1	0	0			1				0	
6.6.1	win	2023-06-25	09:42:28	0	0	5e5c58012272eb4328419f08	2	1	stereocheck_calibration	7	stereocheck_calibrationIntro	1			0		stereocheck_calibrationButton	0	7268	6	4	antiphase_hc_sio.wav	1	0	0			1				0	
6.6.1	win	2023-06-25	09:42:28	0	0	5e5c58012272eb4328419f08	2	1	stereocheck_testphase	8	stereocheck_test_collectResponse	3			0		stereocheck_left	1	768	6	4	antiphase_hc_sio.wav	1	1	2	noise_calib_stim_LEFT.wav	1	1				0	
6.6.1	win	2023-06-25	09:42:28	0	0	5e5c58012272eb4328419f08	2	1	stereocheck_testphase	8	stereocheck_test_collectResponse	6			0		stereocheck_right	1	683	6	4	antiphase_hc_sio.wav	1	2	5	noise_calib_stim_RIGHT.wav	2	1				0	
6.6.1	win	2023-06-25	09:42:28	0	0	5e5c58012272eb4328419f08	2	1	stereocheck_testphase	8	stereocheck_test_collectResponse	9			0		stereocheck_right	1	492	6	4	antiphase_hc_sio.wav	1	3	6	noise_calib_stim_RIGHT.wav	2	1				0	
6.6.1	win	2023-06-25	09:42:28	0	0	5e5c58012272eb4328419f08	2	1	stereocheck_testphase	8	stereocheck_test_collectResponse	12			0		stereocheck_left	1	761	6	4	antiphase_hc_sio.wav	1	4	3	noise_calib_stim_LEFT.wav	1	1				0	
6.6.1	win	2023-06-25	09:42:28	0	0	5e5c58012272eb4328419f08	2	1	stereocheck_testphase	8	stereocheck_test_collectResponse	15			0		stereocheck_right	1	689	6	4	antiphase_hc_sio.wav	1	5	4	noise_calib_stim_RIGHT.wav	2	1				0	
6.6.1	win	2023-06-25	09:42:28	0	0	5e5c58012272eb4328419f08	2	1	stereocheck_testphase	8	stereocheck_test_collectResponse	18			0		stereocheck_left	1	459	6	4	antiphase_hc_sio.wav	1	6	1	noise_calib_stim_LEFT.wav	1	1				0	
6.6.1	win	2023-06-25	09:42:28	0	0	5e5c58012272eb4328419f08	2	1	DL_practice	11	DL_practice	2			0		ka	0	1645	6	4	antiphase_hc_sio.wav	1	6	1	noise_calib_stim_LEFT.wav	1	18	blb_dichoticlistening_ga-ta.mp3	ga	ta	1	other
6.6.1	win	2023-06-25	09:42:28	0	0	5e5c58012272eb4328419f08	2	1	DL_practice	11	DL_practice	3			0		da	1	1331	6	4	antiphase_hc_sio.wav	1	6	1	noise_calib_stim_LEFT.wav	1	8	blb_dichoticlistening_da-da.mp3	da	da	0	left
6.6.1	win	2023-06-25	09:42:28	0	0	5e5c58012272eb4328419f08	2	1	DL_practice	11	DL_practice	4			0		da	1	1527	6	4	antiphase_hc_sio.wav	1	6	1	noise_calib_stim_LEFT.wav	1	7	blb_dichoticlistening_da-ba.mp3	da	ba	1	left
6.6.1	win	2023-06-25	09:42:28	0	0	5e5c58012272eb4328419f08	2	1	DL_practice	11	DL_practice	5			0		pa	0	1202	6	4	antiphase_hc_sio.wav	1	6	1	noise_calib_stim_LEFT.wav	1	1	blb_dichoticlistening_ba-ba.mp3	ba	ba	0	other
6.6.1	win	2023-06-25	09:42:28	0	0	5e5c58012272eb4328419f08	2	1	DL_practice	11	DL_practice	6			0		ta	1	2090	6	4	antiphase_hc_sio.wav	1	6	1	noise_calib_stim_LEFT.wav	1	36	blb_dichoticlistening_ta-ta.mp3	ta	ta	0	left
6.6.1	win	2023-06-25	09:42:28	0	0	5e5c58012272eb4328419f08	2	1	DL_practice	11	DL_practice	7			0		ka	1	1287	6	4	antiphase_hc_sio.wav	1	6	1	noise_calib_stim_LEFT.wav	1	22	blb_dichoticlistening_ka-ka.mp3	ka	ka	0	left
6.6.1	win	2023-06-25	09:42:28	0	0	5e5c58012272eb4328419f08	2	1	DL_practice	11	DL_practice	8			0		ga	1	1326	6	4	antiphase_hc_sio.wav	1	6	1	noise_calib_stim_LEFT.wav	1	15	blb_dichoticlistening_ga-ga.mp3	ga	ga	0	left
6.6.1	win	2023-06-25	09:42:28	0	0	5e5c58012272eb4328419f08	2	1	DL_practice	11	DL_practice	9			0		ka	1	2245	6	4	antiphase_hc_sio.wav	1	6	1	noise_calib_stim_LEFT.wav	1	23	blb_dichoticlistening_ka-pa.mp3	ka	pa	1	left
6.6.1	win	2023-06-25	09:42:28	0	0	5e5c58012272eb4328419f08	2	1	DL_practice	11	DL_practice	10			0		pa	1	1167	6	4	antiphase_hc_sio.wav	1	6	1	noise_calib_stim_LEFT.wav	1	29	blb_dichoticlistening_pa-pa.mp3	pa	pa	0	left
6.6.1	win	2023-06-25	09:42:28	0	0	5e5c58012272eb4328419f08	2	1	DL_test	13	DL_test	1			0		ka	1	1521	6	4	antiphase_hc_sio.wav	1	6	1	noise_calib_stim_LEFT.wav	1	22	blb_dichoticlistening_ka-ka.mp3	ka	ka	0	left
6.6.1	win	2023-06-25	09:42:28	0	0	5e5c58012272eb4328419f08	2	1	DL_test	13	DL_test	2			0		da	1	1095	6	4	antiphase_hc_sio.wav	1	6	1	noise_calib_stim_LEFT.wav	1	7	blb_dichoticlistening_da-ba.mp3	da	ba	1	left
6.6.1	win	2023-06-25	09:42:28	0	0	5e5c58012272eb4328419f08	2	1	DL_test	13	DL_test	3			0		da	0	2136	6	4	antiphase_hc_sio.wav	1	6	1	noise_calib_stim_LEFT.wav	1	33	blb_dichoticlistening_ta-ga.mp3	ta	ga	1	other
6.6.1	win	2023-06-25	09:42:28	0	0	5e5c58012272eb4328419f08	2	1	DL_test	13	DL_test	4			0		da	1	1143	6	4	antiphase_hc_sio.wav	1	6	1	noise_calib_stim_LEFT.wav	1	8	blb_dichoticlistening_da-da.mp3	da	da	0	left
6.6.1	win	2023-06-25	09:42:28	0	0	5e5c58012272eb4328419f08	2	1	DL_test	13	DL_test	5			0		ka	1	1344	6	4	antiphase_hc_sio.wav	1	6	1	noise_calib_stim_LEFT.wav	1	28	blb_dichoticlistening_pa-ka.mp3	pa	ka	1	right
6.6.1	win	2023-06-25	09:42:28	0	0	5e5c58012272eb4328419f08	2	1	DL_test	13	DL_test	6			0		pa	1	3137	6	4	antiphase_hc_sio.wav	1	6	1	noise_calib_stim_LEFT.wav	1	29	blb_dichoticlistening_pa-pa.mp3	pa	pa	0	left
6.6.1	win	2023-06-25	09:42:28	0	0	5e5c58012272eb4328419f08	2	1	DL_test	13	DL_test	7			0		ta	1	1377	6	4	antiphase_hc_sio.wav	1	6	1	noise_calib_stim_LEFT.wav	1	31	blb_dichoticlistening_ta-ba.mp3	ta	ba	1	left
6.6.1	win	2023-06-25	09:42:28	0	0	5e5c58012272eb4328419f08	2	1	DL_test	13	DL_test	8			0		ba	1	1472	6	4	antiphase_hc_sio.wav	1	6	1	noise_calib_stim_LEFT.wav	1	6	blb_dichoticlistening_ba-ta.mp3	ba	ta	1	left
6.6.1	win	2023-06-25	09:42:28	0	0	5e5c58012272eb4328419f08	2	1	DL_test	13	DL_test	9			0		ba	1	1117	6	4	antiphase_hc_sio.wav	1	6	1	noise_calib_stim_LEFT.wav	1	3	blb_dichoticlistening_ba-ga.mp3	ba	ga	1	left
6.6.1	win	2023-06-25	09:42:28	0	0	5e5c58012272eb4328419f08	2	1	DL_test	13	DL_test	10			0		ga	1	2439	6	4	antiphase_hc_sio.wav	1	6	1	noise_calib_stim_LEFT.wav	1	27	blb_dichoticlistening_pa-ga.mp3	pa	ga	1	right
6.6.1	win	2023-06-25	09:42:28	0	0	5e5c58012272eb4328419f08	2	1	DL_test	13	DL_test	11			0		ka	1	1319	6	4	antiphase_hc_sio.wav	1	6	1	noise_calib_stim_LEFT.wav	1	19	blb_dichoticlistening_ka-ba.mp3	ka	ba	1	left
6.6.1	win	2023-06-25	09:42:28	0	0	5e5c58012272eb4328419f08	2	1	DL_test	13	DL_test	12			0		ka	1	1248	6	4	antiphase_hc_sio.wav	1	6	1	noise_calib_stim_LEFT.wav	1	34	blb_dichoticlistening_ta-ka.mp3	ta	ka	1	right
6.6.1	win	2023-06-25	09:42:28	0	0	5e5c58012272eb4328419f08	2	1	DL_test	13	DL_test	13			0		ta	1	1493	6	4	antiphase_hc_sio.wav	1	6	1	noise_calib_stim_LEFT.wav	1	35	blb_dichoticlistening_ta-pa.mp3	ta	pa	1	left
6.6.1	win	2023-06-25	09:42:28	0	0	5e5c58012272eb4328419f08	2	1	DL_test	13	DL_test	14			0		da	0	2193	6	4	antiphase_hc_sio.wav	1	6	1	noise_calib_stim_LEFT.wav	1	18	blb_dichoticlistening_ga-ta.mp3	ga	ta	1	other
6.6.1	win	2023-06-25	09:42:28	0	0	5e5c58012272eb4328419f08	2	1	DL_test	13	DL_test	15			0		ka	0	1546	6	4	antiphase_hc_sio.wav	1	6	1	noise_calib_stim_LEFT.wav	1	13	blb_dichoticlistening_ga-ba.mp3	ga	ba	1	other
6.6.1	win	2023-06-25	09:42:28	0	0	5e5c58012272eb4328419f08	2	1	DL_test	13	DL_test	16			0		ta	1	1434	6	4	antiphase_hc_sio.wav	1	6	1	noise_calib_stim_LEFT.wav	1	36	blb_dichoticlistening_ta-ta.mp3	ta	ta	0	left
6.6.1	win	2023-06-25	09:42:28	0	0	5e5c58012272eb4328419f08	2	1	DL_test	13	DL_test	17			0		ga	1	1640	6	4	antiphase_hc_sio.wav	1	6	1	noise_calib_stim_LEFT.wav	1	21	blb_dichoticlistening_ka-ga.mp3	ka	ga	1	right
6.6.1	win	2023-06-25	09:42:28	0	0	5e5c58012272eb4328419f08	2	1	DL_test	13	DL_test	18			0		ka	1	914	6	4	antiphase_hc_sio.wav	1	6	1	noise_calib_stim_LEFT.wav	1	16	blb_dichoticlistening_ga-ka.mp3	ga	ka	1	right
6.6.1	win	2023-06-25	09:42:28	0	0	5e5c58012272eb4328419f08	2	1	DL_test	13	DL_test	19			0		da	1	1451	6	4	antiphase_hc_sio.wav	1	6	1	noise_calib_stim_LEFT.wav	1	12	blb_dichoticlistening_da-ta.mp3	da	ta	1	left
6.6.1	win	2023-06-25	09:42:28	0	0	5e5c58012272eb4328419f08	2	1	DL_test	13	DL_test	20			0		pa	1	1324	6	4	antiphase_hc_sio.wav	1	6	1	noise_calib_stim_LEFT.wav	1	30	blb_dichoticlistening_pa-ta.mp3	pa	ta	1	left
6.6.1	win	2023-06-25	09:42:28	0	0	5e5c58012272eb4328419f08	2	1	DL_test	13	DL_test	21			0		ka	0	2887	6	4	antiphase_hc_sio.wav	1	6	1	noise_calib_stim_LEFT.wav	1	26	blb_dichoticlistening_pa-da.mp3	pa	da	1	other
6.6.1	win	2023-06-25	09:42:28	0	0	5e5c58012272eb4328419f08	2	1	DL_test	13	DL_test	22			0		pa	1	1746	6	4	antiphase_hc_sio.wav	1	6	1	noise_calib_stim_LEFT.wav	1	25	blb_dichoticlistening_pa-ba.mp3	pa	ba	1	left
6.6.1	win	2023-06-25	09:42:28	0	0	5e5c58012272eb4328419f08	2	1	DL_test	13	DL_test	23			0		da	1	1467	6	4	antiphase_hc_sio.wav	1	6	1	noise_calib_stim_LEFT.wav	1	10	blb_dichoticlistening_da-ka.mp3	da	ka	1	left
6.6.1	win	2023-06-25	09:42:28	0	0	5e5c58012272eb4328419f08	2	1	DL_test	13	DL_test	24			0		ka	1	1171	6	4	antiphase_hc_sio.wav	1	6	1	noise_calib_stim_LEFT.wav	1	24	blb_dichoticlistening_ka-ta.mp3	ka	ta	1	left
6.6.1	win	2023-06-25	09:42:28	0	0	5e5c58012272eb4328419f08	2	1	DL_test	13	DL_test	25			0		ga	1	954	6	4	antiphase_hc_sio.wav	1	6	1	noise_calib_stim_LEFT.wav	1	9	blb_dichoticlistening_da-ga.mp3	da	ga	1	right
6.6.1	win	2023-06-25	09:42:28	0	0	5e5c58012272eb4328419f08	2	1	DL_test	13	DL_test	26			0		ga	1	1110	6	4	antiphase_hc_sio.wav	1	6	1	noise_calib_stim_LEFT.wav	1	14	blb_dichoticlistening_ga-da.mp3	ga	da	1	left
6.6.1	win	2023-06-25	09:42:28	0	0	5e5c58012272eb4328419f08	2	1	DL_test	13	DL_test	27			0		pa	0	1165	6	4	antiphase_hc_sio.wav	1	6	1	noise_calib_stim_LEFT.wav	1	1	blb_dichoticlistening_ba-ba.mp3	ba	ba	0	other
6.6.1	win	2023-06-25	09:42:28	0	0	5e5c58012272eb4328419f08	2	1	DL_test	13	DL_test	28			0		da	1	1753	6	4	antiphase_hc_sio.wav	1	6	1	noise_calib_stim_LEFT.wav	1	11	blb_dichoticlistening_da-pa.mp3	da	pa	1	left
6.6.1	win	2023-06-25	09:42:28	0	0	5e5c58012272eb4328419f08	2	1	DL_test	13	DL_test	29			0		ka	0	1382	6	4	antiphase_hc_sio.wav	1	6	1	noise_calib_stim_LEFT.wav	1	17	blb_dichoticlistening_ga-pa.mp3	ga	pa	1	other
6.6.1	win	2023-06-25	09:42:28	0	0	5e5c58012272eb4328419f08	2	1	DL_test	13	DL_test	30			0		ga	0	1859	6	4	antiphase_hc_sio.wav	1	6	1	noise_calib_stim_LEFT.wav	1	2	blb_dichoticlistening_ba-da.mp3	ba	da	1	other
6.6.1	win	2023-06-25	09:42:28	0	0	5e5c58012272eb4328419f08	2	1	DL_test	13	DL_test	31			0		da	1	1234	6	4	antiphase_hc_sio.wav	1	6	1	noise_calib_stim_LEFT.wav	1	32	blb_dichoticlistening_ta-da.mp3	ta	da	1	right
6.6.1	win	2023-06-25	09:42:28	0	0	5e5c58012272eb4328419f08	2	1	DL_test	13	DL_test	32			0		pa	1	1270	6	4	antiphase_hc_sio.wav	1	6	1	noise_calib_stim_LEFT.wav	1	5	blb_dichoticlistening_ba-pa.mp3	ba	pa	1	right
6.6.1	win	2023-06-25	09:42:28	0	0	5e5c58012272eb4328419f08	2	1	DL_test	13	DL_test	33			0		ka	1	1579	6	4	antiphase_hc_sio.wav	1	6	1	noise_calib_stim_LEFT.wav	1	20	blb_dichoticlistening_ka-da.mp3	ka	da	1	left
6.6.1	win	2023-06-25	09:42:28	0	0	5e5c58012272eb4328419f08	2	1	DL_test	13	DL_test	34			0		ga	1	1092	6	4	antiphase_hc_sio.wav	1	6	1	noise_calib_stim_LEFT.wav	1	15	blb_dichoticlistening_ga-ga.mp3	ga	ga	0	left
6.6.1	win	2023-06-25	09:42:28	0	0	5e5c58012272eb4328419f08	2	1	DL_test	13	DL_test	35			0		da	0	2413	6	4	antiphase_hc_sio.wav	1	6	1	noise_calib_stim_LEFT.wav	1	4	blb_dichoticlistening_ba-ka.mp3	ba	ka	1	other
6.6.1	win	2023-06-25	09:42:28	0	0	5e5c58012272eb4328419f08	2	1	DL_test	13	DL_test	36			0		ka	1	1220	6	4	antiphase_hc_sio.wav	1	6	1	noise_calib_stim_LEFT.wav	1	23	blb_dichoticlistening_ka-pa.mp3	ka	pa	1	left
6.6.1	win	2023-06-25	09:42:28	0	0	5e5c58012272eb4328419f08	2	1	DL_test	14	DL_test	1			0		ka	1	885	6	4	antiphase_hc_sio.wav	1	6	1	noise_calib_stim_LEFT.wav	1	24	blb_dichoticlistening_ka-ta.mp3	ka	ta	1	left
6.6.1	win	2023-06-25	09:42:28	0	0	5e5c58012272eb4328419f08	2	1	DL_test	14	DL_test	2			0		pa	1	996	6	4	antiphase_hc_sio.wav	1	6	1	noise_calib_stim_LEFT.wav	1	5	blb_dichoticlistening_ba-pa.mp3	ba	pa	1	right
6.6.1	win	2023-06-25	09:42:28	0	0	5e5c58012272eb4328419f08	2	1	DL_test	14	DL_test	3			0		pa	0	641	6	4	antiphase_hc_sio.wav	1	6	1	noise_calib_stim_LEFT.wav	1	3	blb_dichoticlistening_ba-ga.mp3	ba	ga	1	other
6.6.1	win	2023-06-25	09:42:28	0	0	5e5c58012272eb4328419f08	2	1	DL_test	14	DL_test	4			0		ta	1	2342	6	4	antiphase_hc_sio.wav	1	6	1	noise_calib_stim_LEFT.wav	1	31	blb_dichoticlistening_ta-ba.mp3	ta	ba	1	left
6.6.1	win	2023-06-25	09:42:28	0	0	5e5c58012272eb4328419f08	2	1	DL_test	14	DL_test	5			0		ka	0	946	6	4	antiphase_hc_sio.wav	1	6	1	noise_calib_stim_LEFT.wav	1	17	blb_dichoticlistening_ga-pa.mp3	ga	pa	1	other
6.6.1	win	2023-06-25	09:42:28	0	0	5e5c58012272eb4328419f08	2	1	DL_test	14	DL_test	6			0		ta	1	2382	6	4	antiphase_hc_sio.wav	1	6	1	noise_calib_stim_LEFT.wav	1	36	blb_dichoticlistening_ta-ta.mp3	ta	ta	0	left
6.6.1	win	2023-06-25	09:42:28	0	0	5e5c58012272eb4328419f08	2	1	DL_test	14	DL_test	7			0		pa	0	1187	6	4	antiphase_hc_sio.wav	1	6	1	noise_calib_stim_LEFT.wav	1	1	blb_dichoticlistening_ba-ba.mp3	ba	ba	0	other
6.6.1	win	2023-06-25	09:42:28	0	0	5e5c58012272eb4328419f08	2	1	DL_test	14	DL_test	8			0		da	1	1665	6	4	antiphase_hc_sio.wav	1	6	1	noise_calib_stim_LEFT.wav	1	11	blb_dichoticlistening_da-pa.mp3	da	pa	1	left
6.6.1	win	2023-06-25	09:42:28	0	0	5e5c58012272eb4328419f08	2	1	DL_test	14	DL_test	9			0		da	1	1457	6	4	antiphase_hc_sio.wav	1	6	1	noise_calib_stim_LEFT.wav	1	7	blb_dichoticlistening_da-ba.mp3	da	ba	1	left
6.6.1	win	2023-06-25	09:42:28	0	0	5e5c58012272eb4328419f08	2	1	DL_test	14	DL_test	10			0		ga	1	892	6	4	antiphase_hc_sio.wav	1	6	1	noise_calib_stim_LEFT.wav	1	15	blb_dichoticlistening_ga-ga.mp3	ga	ga	0	left
6.6.1	win	2023-06-25	09:42:28	0	0	5e5c58012272eb4328419f08	2	1	DL_test	14	DL_test	11			0		ka	1	853	6	4	antiphase_hc_sio.wav	1	6	1	noise_calib_stim_LEFT.wav	1	19	blb_dichoticlistening_ka-ba.mp3	ka	ba	1	left
6.6.1	win	2023-06-25	09:42:28	0	0	5e5c58012272eb4328419f08	2	1	DL_test	14	DL_test	12			0		ga	1	1210	6	4	antiphase_hc_sio.wav	1	6	1	noise_calib_stim_LEFT.wav	1	14	blb_dichoticlistening_ga-da.mp3	ga	da	1	left
6.6.1	win	2023-06-25	09:42:28	0	0	5e5c58012272eb4328419f08	2	1	DL_test	14	DL_test	13			0		da	1	1919	6	4	antiphase_hc_sio.wav	1	6	1	noise_calib_stim_LEFT.wav	1	32	blb_dichoticlistening_ta-da.mp3	ta	da	1	right
6.6.1	win	2023-06-25	09:42:28	0	0	5e5c58012272eb4328419f08	2	1	DL_test	14	DL_test	14			0		ga	1	2127	6	4	antiphase_hc_sio.wav	1	6	1	noise_calib_stim_LEFT.wav	1	16	blb_dichoticlistening_ga-ka.mp3	ga	ka	1	left
6.6.1	win	2023-06-25	09:42:28	0	0	5e5c58012272eb4328419f08	2	1	DL_test	14	DL_test	15			0		ka	1	926	6	4	antiphase_hc_sio.wav	1	6	1	noise_calib_stim_LEFT.wav	1	34	blb_dichoticlistening_ta-ka.mp3	ta	ka	1	right
6.6.1	win	2023-06-25	09:42:28	0	0	5e5c58012272eb4328419f08	2	1	DL_test	14	DL_test	16			0		da	1	1507	6	4	antiphase_hc_sio.wav	1	6	1	noise_calib_stim_LEFT.wav	1	26	blb_dichoticlistening_pa-da.mp3	pa	da	1	right
6.6.1	win	2023-06-25	09:42:28	0	0	5e5c58012272eb4328419f08	2	1	DL_test	14	DL_test	17			0		da	0	2470	6	4	antiphase_hc_sio.wav	1	6	1	noise_calib_stim_LEFT.wav	1	30	blb_dichoticlistening_pa-ta.mp3	pa	ta	1	other
6.6.1	win	2023-06-25	09:42:28	0	0	5e5c58012272eb4328419f08	2	1	DL_test	14	DL_test	18			0		ta	0	1592	6	4	antiphase_hc_sio.wav	1	6	1	noise_calib_stim_LEFT.wav	1	10	blb_dichoticlistening_da-ka.mp3	da	ka	1	other
6.6.1	win	2023-06-25	09:42:28	0	0	5e5c58012272eb4328419f08	2	1	DL_test	14	DL_test	19			0		pa	0	992	6	4	antiphase_hc_sio.wav	1	6	1	noise_calib_stim_LEFT.wav	1	4	blb_dichoticlistening_ba-ka.mp3	ba	ka	1	other
6.6.1	win	2023-06-25	09:42:28	0	0	5e5c58012272eb4328419f08	2	1	DL_test	14	DL_test	20			0		ka	1	1075	6	4	antiphase_hc_sio.wav	1	6	1	noise_calib_stim_LEFT.wav	1	20	blb_dichoticlistening_ka-da.mp3	ka	da	1	left
6.6.1	win	2023-06-25	09:42:28	0	0	5e5c58012272eb4328419f08	2	1	DL_test	14	DL_test	21			0		da	1	1095	6	4	antiphase_hc_sio.wav	1	6	1	noise_calib_stim_LEFT.wav	1	2	blb_dichoticlistening_ba-da.mp3	ba	da	1	right
6.6.1	win	2023-06-25	09:42:28	0	0	5e5c58012272eb4328419f08	2	1	DL_test	14	DL_test	22			0		ka	0	365	6	4	antiphase_hc_sio.wav	1	6	1	noise_calib_stim_LEFT.wav	1	9	blb_dichoticlistening_da-ga.mp3	da	ga	1	other
6.6.1	win	2023-06-25	09:42:28	0	0	5e5c58012272eb4328419f08	2	1	DL_test	14	DL_test	23			0		da	1	974	6	4	antiphase_hc_sio.wav	1	6	1	noise_calib_stim_LEFT.wav	1	12	blb_dichoticlistening_da-ta.mp3	da	ta	1	left
6.6.1	win	2023-06-25	09:42:28	0	0	5e5c58012272eb4328419f08	2	1	DL_test	14	DL_test	24			0		pa	1	1047	6	4	antiphase_hc_sio.wav	1	6	1	noise_calib_stim_LEFT.wav	1	29	blb_dichoticlistening_pa-pa.mp3	pa	pa	0	left
6.6.1	win	2023-06-25	09:42:28	0	0	5e5c58012272eb4328419f08	2	1	DL_test	14	DL_test	25			0		ka	1	716	6	4	antiphase_hc_sio.wav	1	6	1	noise_calib_stim_LEFT.wav	1	22	blb_dichoticlistening_ka-ka.mp3	ka	ka	0	left
6.6.1	win	2023-06-25	09:42:28	0	0	5e5c58012272eb4328419f08	2	1	DL_test	14	DL_test	26			0		da	0	741	6	4	antiphase_hc_sio.wav	1	6	1	noise_calib_stim_LEFT.wav	1	35	blb_dichoticlistening_ta-pa.mp3	ta	pa	1	other
6.6.1	win	2023-06-25	09:42:28	0	0	5e5c58012272eb4328419f08	2	1	DL_test	14	DL_test	27			0		pa	0	854	6	4	antiphase_hc_sio.wav	1	6	1	noise_calib_stim_LEFT.wav	1	6	blb_dichoticlistening_ba-ta.mp3	ba	ta	1	other
6.6.1	win	2023-06-25	09:42:28	0	0	5e5c58012272eb4328419f08	2	1	DL_test	14	DL_test	28			0		ka	0	576	6	4	antiphase_hc_sio.wav	1	6	1	noise_calib_stim_LEFT.wav	1	18	blb_dichoticlistening_ga-ta.mp3	ga	ta	1	other
6.6.1	win	2023-06-25	09:42:28	0	0	5e5c58012272eb4328419f08	2	1	DL_test	14	DL_test	29			0		ka	0	707	6	4	antiphase_hc_sio.wav	1	6	1	noise_calib_stim_LEFT.wav	1	13	blb_dichoticlistening_ga-ba.mp3	ga	ba	1	other
6.6.1	win	2023-06-25	09:42:28	0	0	5e5c58012272eb4328419f08	2	1	DL_test	14	DL_test	30			0		ga	1	760	6	4	antiphase_hc_sio.wav	1	6	1	noise_calib_stim_LEFT.wav	1	27	blb_dichoticlistening_pa-ga.mp3	pa	ga	1	right
6.6.1	win	2023-06-25	09:42:28	0	0	5e5c58012272eb4328419f08	2	1	DL_test	14	DL_test	31			0		pa	1	1254	6	4	antiphase_hc_sio.wav	1	6	1	noise_calib_stim_LEFT.wav	1	25	blb_dichoticlistening_pa-ba.mp3	pa	ba	1	left
6.6.1	win	2023-06-25	09:42:28	0	0	5e5c58012272eb4328419f08	2	1	DL_test	14	DL_test	32			0		ka	0	624	6	4	antiphase_hc_sio.wav	1	6	1	noise_calib_stim_LEFT.wav	1	33	blb_dichoticlistening_ta-ga.mp3	ta	ga	1	other
6.6.1	win	2023-06-25	09:42:28	0	0	5e5c58012272eb4328419f08	2	1	DL_test	14	DL_test	33			0		ga	1	1280	6	4	antiphase_hc_sio.wav	1	6	1	noise_calib_stim_LEFT.wav	1	21	blb_dichoticlistening_ka-ga.mp3	ka	ga	1	right
6.6.1	win	2023-06-25	09:42:28	0	0	5e5c58012272eb4328419f08	2	1	DL_test	14	DL_test	34			0		da	1	572	6	4	antiphase_hc_sio.wav	1	6	1	noise_calib_stim_LEFT.wav	1	8	blb_dichoticlistening_da-da.mp3	da	da	0	left
6.6.1	win	2023-06-25	09:42:28	0	0	5e5c58012272eb4328419f08	2	1	DL_test	14	DL_test	35			0		pa	1	828	6	4	antiphase_hc_sio.wav	1	6	1	noise_calib_stim_LEFT.wav	1	28	blb_dichoticlistening_pa-ka.mp3	pa	ka	1	left
6.6.1	win	2023-06-25	09:42:28	0	0	5e5c58012272eb4328419f08	2	1	DL_test	14	DL_test	36			0		ka	1	533	6	4	antiphase_hc_sio.wav	1	6	1	noise_calib_stim_LEFT.wav	1	23	blb_dichoticlistening_ka-pa.mp3	ka	pa	1	left
6.6.1	win	2023-06-25	09:42:28	0	0	5e5c58012272eb4328419f08	2	1	DL_test	15	DL_test	1			0		ka	1	839	6	4	antiphase_hc_sio.wav	1	6	1	noise_calib_stim_LEFT.wav	1	24	blb_dichoticlistening_ka-ta.mp3	ka	ta	1	left
6.6.1	win	2023-06-25	09:42:28	0	0	5e5c58012272eb4328419f08	2	1	DL_test	15	DL_test	2			0		da	1	1102	6	4	antiphase_hc_sio.wav	1	6	1	noise_calib_stim_LEFT.wav	1	2	blb_dichoticlistening_ba-da.mp3	ba	da	1	right
6.6.1	win	2023-06-25	09:42:28	0	0	5e5c58012272eb4328419f08	2	1	DL_test	15	DL_test	3			0		pa	1	828	6	4	antiphase_hc_sio.wav	1	6	1	noise_calib_stim_LEFT.wav	1	29	blb_dichoticlistening_pa-pa.mp3	pa	pa	0	left
6.6.1	win	2023-06-25	09:42:28	0	0	5e5c58012272eb4328419f08	2	1	DL_test	15	DL_test	4			0		pa	0	882	6	4	antiphase_hc_sio.wav	1	6	1	noise_calib_stim_LEFT.wav	1	3	blb_dichoticlistening_ba-ga.mp3	ba	ga	1	other
6.6.1	win	2023-06-25	09:42:28	0	0	5e5c58012272eb4328419f08	2	1	DL_test	15	DL_test	5			0		da	1	1425	6	4	antiphase_hc_sio.wav	1	6	1	noise_calib_stim_LEFT.wav	1	12	blb_dichoticlistening_da-ta.mp3	da	ta	1	left
6.6.1	win	2023-06-25	09:42:28	0	0	5e5c58012272eb4328419f08	2	1	DL_test	15	DL_test	6			0		ka	1	1111	6	4	antiphase_hc_sio.wav	1	6	1	noise_calib_stim_LEFT.wav	1	19	blb_dichoticlistening_ka-ba.mp3	ka	ba	1	left
6.6.1	win	2023-06-25	09:42:28	0	0	5e5c58012272eb4328419f08	2	1	DL_test	15	DL_test	7			0		ka	1	1691	6	4	antiphase_hc_sio.wav	1	6	1	noise_calib_stim_LEFT.wav	1	20	blb_dichoticlistening_ka-da.mp3	ka	da	1	left
6.6.1	win	2023-06-25	09:42:28	0	0	5e5c58012272eb4328419f08	2	1	DL_test	15	DL_test	8			0		ka	1	1176	6	4	antiphase_hc_sio.wav	1	6	1	noise_calib_stim_LEFT.wav	1	21	blb_dichoticlistening_ka-ga.mp3	ka	ga	1	left
6.6.1	win	2023-06-25	09:42:28	0	0	5e5c58012272eb4328419f08	2	1	DL_test	15	DL_test	9			0		da	0	973	6	4	antiphase_hc_sio.wav	1	6	1	noise_calib_stim_LEFT.wav	1	33	blb_dichoticlistening_ta-ga.mp3	ta	ga	1	other
6.6.1	win	2023-06-25	09:42:28	0	0	5e5c58012272eb4328419f08	2	1	DL_test	15	DL_test	10			0		pa	1	1169	6	4	antiphase_hc_sio.wav	1	6	1	noise_calib_stim_LEFT.wav	1	25	blb_dichoticlistening_pa-ba.mp3	pa	ba	1	left
6.6.1	win	2023-06-25	09:42:28	0	0	5e5c58012272eb4328419f08	2	1	DL_test	15	DL_test	11			0		ga	0	1666	6	4	antiphase_hc_sio.wav	1	6	1	noise_calib_stim_LEFT.wav	1	6	blb_dichoticlistening_ba-ta.mp3	ba	ta	1	other
6.6.1	win	2023-06-25	09:42:28	0	0	5e5c58012272eb4328419f08	2	1	DL_test	15	DL_test	12			0		ka	0	810	6	4	antiphase_hc_sio.wav	1	6	1	noise_calib_stim_LEFT.wav	1	31	blb_dichoticlistening_ta-ba.mp3	ta	ba	1	other
6.6.1	win	2023-06-25	09:42:28	0	0	5e5c58012272eb4328419f08	2	1	DL_test	15	DL_test	13			0		da	1	770	6	4	antiphase_hc_sio.wav	1	6	1	noise_calib_stim_LEFT.wav	1	7	blb_dichoticlistening_da-ba.mp3	da	ba	1	left
6.6.1	win	2023-06-25	09:42:28	0	0	5e5c58012272eb4328419f08	2	1	DL_test	15	DL_test	14			0		ba	0	1517	6	4	antiphase_hc_sio.wav	1	6	1	noise_calib_stim_LEFT.wav	1	27	blb_dichoticlistening_pa-ga.mp3	pa	ga	1	other
6.6.1	win	2023-06-25	09:42:28	0	0	5e5c58012272eb4328419f08	2	1	DL_test	15	DL_test	15			0		ga	1	799	6	4	antiphase_hc_sio.wav	1	6	1	noise_calib_stim_LEFT.wav	1	16	blb_dichoticlistening_ga-ka.mp3	ga	ka	1	left
6.6.1	win	2023-06-25	09:42:28	0	0	5e5c58012272eb4328419f08	2	1	DL_test	15	DL_test	16			0		ba	1	1268	6	4	antiphase_hc_sio.wav	1	6	1	noise_calib_stim_LEFT.wav	1	4	blb_dichoticlistening_ba-ka.mp3	ba	ka	1	left
6.6.1	win	2023-06-25	09:42:28	0	0	5e5c58012272eb4328419f08	2	1	DL_test	15	DL_test	17			0		ta	1	1214	6	4	antiphase_hc_sio.wav	1	6	1	noise_calib_stim_LEFT.wav	1	34	blb_dichoticlistening_ta-ka.mp3	ta	ka	1	left
6.6.1	win	2023-06-25	09:42:28	0	0	5e5c58012272eb4328419f08	2	1	DL_test	15	DL_test	18			0		pa	1	883	6	4	antiphase_hc_sio.wav	1	6	1	noise_calib_stim_LEFT.wav	1	5	blb_dichoticlistening_ba-pa.mp3	ba	pa	1	right
6.6.1	win	2023-06-25	09:42:28	0	0	5e5c58012272eb4328419f08	2	1	DL_test	15	DL_test	19			0		da	1	1018	6	4	antiphase_hc_sio.wav	1	6	1	noise_calib_stim_LEFT.wav	1	9	blb_dichoticlistening_da-ga.mp3	da	ga	1	left
6.6.1	win	2023-06-25	09:42:28	0	0	5e5c58012272eb4328419f08	2	1	DL_test	15	DL_test	20			0		ka	1	957	6	4	antiphase_hc_sio.wav	1	6	1	noise_calib_stim_LEFT.wav	1	22	blb_dichoticlistening_ka-ka.mp3	ka	ka	0	left
6.6.1	win	2023-06-25	09:42:28	0	0	5e5c58012272eb4328419f08	2	1	DL_test	15	DL_test	21			0		ga	1	521	6	4	antiphase_hc_sio.wav	1	6	1	noise_calib_stim_LEFT.wav	1	17	blb_dichoticlistening_ga-pa.mp3	ga	pa	1	left
6.6.1	win	2023-06-25	09:42:28	0	0	5e5c58012272eb4328419f08	2	1	DL_test	15	DL_test	22			0		ba	0	744	6	4	antiphase_hc_sio.wav	1	6	1	noise_calib_stim_LEFT.wav	1	26	blb_dichoticlistening_pa-da.mp3	pa	da	1	other
6.6.1	win	2023-06-25	09:42:28	0	0	5e5c58012272eb4328419f08	2	1	DL_test	15	DL_test	23			0		ta	1	1886	6	4	antiphase_hc_sio.wav	1	6	1	noise_calib_stim_LEFT.wav	1	35	blb_dichoticlistening_ta-pa.mp3	ta	pa	1	left
6.6.1	win	2023-06-25	09:42:28	0	0	5e5c58012272eb4328419f08	2	1	DL_test	15	DL_test	24			0		ka	0	1037	6	4	antiphase_hc_sio.wav	1	6	1	noise_calib_stim_LEFT.wav	1	14	blb_dichoticlistening_ga-da.mp3	ga	da	1	other
6.6.1	win	2023-06-25	09:42:28	0	0	5e5c58012272eb4328419f08	2	1	DL_test	15	DL_test	25			0		ga	1	523	6	4	antiphase_hc_sio.wav	1	6	1	noise_calib_stim_LEFT.wav	1	13	blb_dichoticlistening_ga-ba.mp3	ga	ba	1	left
6.6.1	win	2023-06-25	09:42:28	0	0	5e5c58012272eb4328419f08	2	1	DL_test	15	DL_test	26			0		ga	1	844	6	4	antiphase_hc_sio.wav	1	6	1	noise_calib_stim_LEFT.wav	1	15	blb_dichoticlistening_ga-ga.mp3	ga	ga	0	left
6.6.1	win	2023-06-25	09:42:28	0	0	5e5c58012272eb4328419f08	2	1	DL_test	15	DL_test	27			0		da	1	1049	6	4	antiphase_hc_sio.wav	1	6	1	noise_calib_stim_LEFT.wav	1	32	blb_dichoticlistening_ta-da.mp3	ta	da	1	right
6.6.1	win	2023-06-25	09:42:28	0	0	5e5c58012272eb4328419f08	2	1	DL_test	15	DL_test	28			0		pa	0	698	6	4	antiphase_hc_sio.wav	1	6	1	noise_calib_stim_LEFT.wav	1	1	blb_dichoticlistening_ba-ba.mp3	ba	ba	0	other
6.6.1	win	2023-06-25	09:42:28	0	0	5e5c58012272eb4328419f08	2	1	DL_test	15	DL_test	29			0		ka	0	919	6	4	antiphase_hc_sio.wav	1	6	1	noise_calib_stim_LEFT.wav	1	18	blb_dichoticlistening_ga-ta.mp3	ga	ta	1	other
6.6.1	win	2023-06-25	09:42:28	0	0	5e5c58012272eb4328419f08	2	1	DL_test	15	DL_test	30			0		ga	0	423	6	4	antiphase_hc_sio.wav	1	6	1	noise_calib_stim_LEFT.wav	1	11	blb_dichoticlistening_da-pa.mp3	da	pa	1	other
6.6.1	win	2023-06-25	09:42:28	0	0	5e5c58012272eb4328419f08	2	1	DL_test	15	DL_test	31			0		ta	1	1269	6	4	antiphase_hc_sio.wav	1	6	1	noise_calib_stim_LEFT.wav	1	30	blb_dichoticlistening_pa-ta.mp3	pa	ta	1	right
6.6.1	win	2023-06-25	09:42:28	0	0	5e5c58012272eb4328419f08	2	1	DL_test	15	DL_test	32			0		ta	0	2230	6	4	antiphase_hc_sio.wav	1	6	1	noise_calib_stim_LEFT.wav	1	28	blb_dichoticlistening_pa-ka.mp3	pa	ka	1	other
6.6.1	win	2023-06-25	09:42:28	0	0	5e5c58012272eb4328419f08	2	1	DL_test	15	DL_test	33			0		ta	1	955	6	4	antiphase_hc_sio.wav	1	6	1	noise_calib_stim_LEFT.wav	1	36	blb_dichoticlistening_ta-ta.mp3	ta	ta	0	left
6.6.1	win	2023-06-25	09:42:28	0	0	5e5c58012272eb4328419f08	2	1	DL_test	15	DL_test	34			0		da	1	1066	6	4	antiphase_hc_sio.wav	1	6	1	noise_calib_stim_LEFT.wav	1	10	blb_dichoticlistening_da-ka.mp3	da	ka	1	left
6.6.1	win	2023-06-25	09:42:28	0	0	5e5c58012272eb4328419f08	2	1	DL_test	15	DL_test	35			0		ka	1	1286	6	4	antiphase_hc_sio.wav	1	6	1	noise_calib_stim_LEFT.wav	1	23	blb_dichoticlistening_ka-pa.mp3	ka	pa	1	left
6.6.1	win	2023-06-25	09:42:28	0	0	5e5c58012272eb4328419f08	2	1	DL_test	15	DL_test	36			0		da	1	818	6	4	antiphase_hc_sio.wav	1	6	1	noise_calib_stim_LEFT.wav	1	8	blb_dichoticlistening_da-da.mp3	da	da	0	left
6.6.1	win	2023-06-25	09:42:28	0	0	5e5c58012272eb4328419f08	2	1	DL_test	16	DL_test	1			0		pa	1	1132	6	4	antiphase_hc_sio.wav	1	6	1	noise_calib_stim_LEFT.wav	1	25	blb_dichoticlistening_pa-ba.mp3	pa	ba	1	left
6.6.1	win	2023-06-25	09:42:28	0	0	5e5c58012272eb4328419f08	2	1	DL_test	16	DL_test	2			0		da	1	918	6	4	antiphase_hc_sio.wav	1	6	1	noise_calib_stim_LEFT.wav	1	8	blb_dichoticlistening_da-da.mp3	da	da	0	left
6.6.1	win	2023-06-25	09:42:28	0	0	5e5c58012272eb4328419f08	2	1	DL_test	16	DL_test	3			0		ta	1	1462	6	4	antiphase_hc_sio.wav	1	6	1	noise_calib_stim_LEFT.wav	1	35	blb_dichoticlistening_ta-pa.mp3	ta	pa	1	left
6.6.1	win	2023-06-25	09:42:28	0	0	5e5c58012272eb4328419f08	2	1	DL_test	16	DL_test	4			0		ka	1	1178	6	4	antiphase_hc_sio.wav	1	6	1	noise_calib_stim_LEFT.wav	1	28	blb_dichoticlistening_pa-ka.mp3	pa	ka	1	right
6.6.1	win	2023-06-25	09:42:28	0	0	5e5c58012272eb4328419f08	2	1	DL_test	16	DL_test	5			0		pa	1	660	6	4	antiphase_hc_sio.wav	1	6	1	noise_calib_stim_LEFT.wav	1	29	blb_dichoticlistening_pa-pa.mp3	pa	pa	0	left
6.6.1	win	2023-06-25	09:42:28	0	0	5e5c58012272eb4328419f08	2	1	DL_test	16	DL_test	6			0		ka	1	819	6	4	antiphase_hc_sio.wav	1	6	1	noise_calib_stim_LEFT.wav	1	24	blb_dichoticlistening_ka-ta.mp3	ka	ta	1	left
6.6.1	win	2023-06-25	09:42:28	0	0	5e5c58012272eb4328419f08	2	1	DL_test	16	DL_test	7			0		da	1	1240	6	4	antiphase_hc_sio.wav	1	6	1	noise_calib_stim_LEFT.wav	1	12	blb_dichoticlistening_da-ta.mp3	da	ta	1	left
6.6.1	win	2023-06-25	09:42:28	0	0	5e5c58012272eb4328419f08	2	1	DL_test	16	DL_test	8			0		ka	0	1050	6	4	antiphase_hc_sio.wav	1	6	1	noise_calib_stim_LEFT.wav	1	14	blb_dichoticlistening_ga-da.mp3	ga	da	1	other
6.6.1	win	2023-06-25	09:42:28	0	0	5e5c58012272eb4328419f08	2	1	DL_test	16	DL_test	9			0		pa	0	1611	6	4	antiphase_hc_sio.wav	1	6	1	noise_calib_stim_LEFT.wav	1	34	blb_dichoticlistening_ta-ka.mp3	ta	ka	1	other
6.6.1	win	2023-06-25	09:42:28	0	0	5e5c58012272eb4328419f08	2	1	DL_test	16	DL_test	10			0		ga	0	846	6	4	antiphase_hc_sio.wav	1	6	1	noise_calib_stim_LEFT.wav	1	2	blb_dichoticlistening_ba-da.mp3	ba	da	1	other
6.6.1	win	2023-06-25	09:42:28	0	0	5e5c58012272eb4328419f08	2	1	DL_test	16	DL_test	11			0		ka	0	460	6	4	antiphase_hc_sio.wav	1	6	1	noise_calib_stim_LEFT.wav	1	9	blb_dichoticlistening_da-ga.mp3	da	ga	1	other
6.6.1	win	2023-06-25	09:42:28	0	0	5e5c58012272eb4328419f08	2	1	DL_test	16	DL_test	12			0		ga	0	883	6	4	antiphase_hc_sio.wav	1	6	1	noise_calib_stim_LEFT.wav	1	7	blb_dichoticlistening_da-ba.mp3	da	ba	1	other
6.6.1	win	2023-06-25	09:42:28	0	0	5e5c58012272eb4328419f08	2	1	DL_test	16	DL_test	13			0		ka	0	797	6	4	antiphase_hc_sio.wav	1	6	1	noise_calib_stim_LEFT.wav	1	18	blb_dichoticlistening_ga-ta.mp3	ga	ta	1	other
6.6.1	win	2023-06-25	09:42:28	0	0	5e5c58012272eb4328419f08	2	1	DL_test	16	DL_test	14			0		da	1	745	6	4	antiphase_hc_sio.wav	1	6	1	noise_calib_stim_LEFT.wav	1	11	blb_dichoticlistening_da-pa.mp3	da	pa	1	left
6.6.1	win	2023-06-25	09:42:28	0	0	5e5c58012272eb4328419f08	2	1	DL_test	16	DL_test	15			0		pa	1	476	6	4	antiphase_hc_sio.wav	1	6	1	noise_calib_stim_LEFT.wav	1	5	blb_dichoticlistening_ba-pa.mp3	ba	pa	1	right
6.6.1	win	2023-06-25	09:42:28	0	0	5e5c58012272eb4328419f08	2	1	DL_test	16	DL_test	16			0		ga	1	1591	6	4	antiphase_hc_sio.wav	1	6	1	noise_calib_stim_LEFT.wav	1	13	blb_dichoticlistening_ga-ba.mp3	ga	ba	1	left
6.6.1	win	2023-06-25	09:42:28	0	0	5e5c58012272eb4328419f08	2	1	DL_test	16	DL_test	17			0		da	0	1508	6	4	antiphase_hc_sio.wav	1	6	1	noise_calib_stim_LEFT.wav	1	27	blb_dichoticlistening_pa-ga.mp3	pa	ga	1	other
6.6.1	win	2023-06-25	09:42:28	0	0	5e5c58012272eb4328419f08	2	1	DL_test	16	DL_test	18			0		pa	0	1168	6	4	antiphase_hc_sio.wav	1	6	1	noise_calib_stim_LEFT.wav	1	1	blb_dichoticlistening_ba-ba.mp3	ba	ba	0	other
6.6.1	win	2023-06-25	09:42:28	0	0	5e5c58012272eb4328419f08	2	1	DL_test	16	DL_test	19			0		pa	0	827	6	4	antiphase_hc_sio.wav	1	6	1	noise_calib_stim_LEFT.wav	1	3	blb_dichoticlistening_ba-ga.mp3	ba	ga	1	other
6.6.1	win	2023-06-25	09:42:28	0	0	5e5c58012272eb4328419f08	2	1	DL_test	16	DL_test	20			0		ta	1	640	6	4	antiphase_hc_sio.wav	1	6	1	noise_calib_stim_LEFT.wav	1	31	blb_dichoticlistening_ta-ba.mp3	ta	ba	1	left
6.6.1	win	2023-06-25	09:42:28	0	0	5e5c58012272eb4328419f08	2	1	DL_test	16	DL_test	21			0		pa	1	1388	6	4	antiphase_hc_sio.wav	1	6	1	noise_calib_stim_LEFT.wav	1	30	blb_dichoticlistening_pa-ta.mp3	pa	ta	1	left
6.6.1	win	2023-06-25	09:42:28	0	0	5e5c58012272eb4328419f08	2	1	DL_test	16	DL_test	22			0		ka	1	1122	6	4	antiphase_hc_sio.wav	1	6	1	noise_calib_stim_LEFT.wav	1	20	blb_dichoticlistening_ka-da.mp3	ka	da	1	left
6.6.1	win	2023-06-25	09:42:28	0	0	5e5c58012272eb4328419f08	2	1	DL_test	16	DL_test	23			0		ga	1	715	6	4	antiphase_hc_sio.wav	1	6	1	noise_calib_stim_LEFT.wav	1	16	blb_dichoticlistening_ga-ka.mp3	ga	ka	1	left
6.6.1	win	2023-06-25	09:42:28	0	0	5e5c58012272eb4328419f08	2	1	DL_test	16	DL_test	24			0		ba	1	1562	6	4	antiphase_hc_sio.wav	1	6	1	noise_calib_stim_LEFT.wav	1	4	blb_dichoticlistening_ba-ka.mp3	ba	ka	1	left
6.6.1	win	2023-06-25	09:42:28	0	0	5e5c58012272eb4328419f08	2	1	DL_test	16	DL_test	25			0		ba	1	1113	6	4	antiphase_hc_sio.wav	1	6	1	noise_calib_stim_LEFT.wav	1	6	blb_dichoticlistening_ba-ta.mp3	ba	ta	1	left
6.6.1	win	2023-06-25	09:42:28	0	0	5e5c58012272eb4328419f08	2	1	DL_test	16	DL_test	26			0		ka	1	825	6	4	antiphase_hc_sio.wav	1	6	1	noise_calib_stim_LEFT.wav	1	22	blb_dichoticlistening_ka-ka.mp3	ka	ka	0	left
6.6.1	win	2023-06-25	09:42:28	0	0	5e5c58012272eb4328419f08	2	1	DL_test	16	DL_test	27			0		da	0	1547	6	4	antiphase_hc_sio.wav	1	6	1	noise_calib_stim_LEFT.wav	1	36	blb_dichoticlistening_ta-ta.mp3	ta	ta	0	other
6.6.1	win	2023-06-25	09:42:28	0	0	5e5c58012272eb4328419f08	2	1	DL_test	16	DL_test	28			0		ba	0	1663	6	4	antiphase_hc_sio.wav	1	6	1	noise_calib_stim_LEFT.wav	1	26	blb_dichoticlistening_pa-da.mp3	pa	da	1	other
6.6.1	win	2023-06-25	09:42:28	0	0	5e5c58012272eb4328419f08	2	1	DL_test	16	DL_test	29			0		ga	0	653	6	4	antiphase_hc_sio.wav	1	6	1	noise_calib_stim_LEFT.wav	1	10	blb_dichoticlistening_da-ka.mp3	da	ka	1	other
6.6.1	win	2023-06-25	09:42:28	0	0	5e5c58012272eb4328419f08	2	1	DL_test	16	DL_test	30			0		ta	0	836	6	4	antiphase_hc_sio.wav	1	6	1	noise_calib_stim_LEFT.wav	1	17	blb_dichoticlistening_ga-pa.mp3	ga	pa	1	other
6.6.1	win	2023-06-25	09:42:28	0	0	5e5c58012272eb4328419f08	2	1	DL_test	16	DL_test	31			0		pa	0	221	6	4	antiphase_hc_sio.wav	1	6	1	noise_calib_stim_LEFT.wav	1	32	blb_dichoticlistening_ta-da.mp3	ta	da	1	other
6.6.1	win	2023-06-25	09:42:28	0	0	5e5c58012272eb4328419f08	2	1	DL_test	16	DL_test	32			0		ga	1	637	6	4	antiphase_hc_sio.wav	1	6	1	noise_calib_stim_LEFT.wav	1	21	blb_dichoticlistening_ka-ga.mp3	ka	ga	1	right
6.6.1	win	2023-06-25	09:42:28	0	0	5e5c58012272eb4328419f08	2	1	DL_test	16	DL_test	33			0		pa	1	844	6	4	antiphase_hc_sio.wav	1	6	1	noise_calib_stim_LEFT.wav	1	23	blb_dichoticlistening_ka-pa.mp3	ka	pa	1	right
6.6.1	win	2023-06-25	09:42:28	0	0	5e5c58012272eb4328419f08	2	1	DL_test	16	DL_test	34			0		ka	0	33	6	4	antiphase_hc_sio.wav	1	6	1	noise_calib_stim_LEFT.wav	1	33	blb_dichoticlistening_ta-ga.mp3	ta	ga	1	other
6.6.1	win	2023-06-25	09:42:28	0	0	5e5c58012272eb4328419f08	2	1	DL_test	16	DL_test	35			0		da	0	655	6	4	antiphase_hc_sio.wav	1	6	1	noise_calib_stim_LEFT.wav	1	19	blb_dichoticlistening_ka-ba.mp3	ka	ba	1	other
6.6.1	win	2023-06-25	09:42:28	0	0	5e5c58012272eb4328419f08	2	1	DL_test	16	DL_test	36			0		ba	0	24	6	4	antiphase_hc_sio.wav	1	6	1	noise_calib_stim_LEFT.wav	1	15	blb_dichoticlistening_ga-ga.mp3	ga	ga	0	other
6.6.1	win	2023-06-25	09:42:28	09:54:25	714836	5e5c58012272eb4328419f08	2	1	practice_z	22	practice_z	1	stimuli_distractor_diamondtriangles.svg	stimuli_target_rectangletriangles.svg	7	yes	44	1	1419	6	4	antiphase_hc_sio.wav	1	6	1	noise_calib_stim_LEFT.wav	1	15	blb_dichoticlistening_ga-ga.mp3	ga	ga	0	other
6.6.1	win	2023-06-25	09:42:28	09:54:25	714836	5e5c58012272eb4328419f08	2	1	practice_z	22	advance_on_keypress_ZEE	2	stimuli_distractor_diamondtriangles.svg	stimuli_target_rectangletriangles.svg	7	yes	57	0	1290	6	4	antiphase_hc_sio.wav	1	6	1	noise_calib_stim_LEFT.wav	1	15	blb_dichoticlistening_ga-ga.mp3	ga	ga	0	other
6.6.1	win	2023-06-25	09:42:28	09:54:30	719777	5e5c58012272eb4328419f08	2	1	practice_z	22	practice_z	3	stimuli_target_squarediamonds.svg	stimuli_distractor_trianglediamonds.svg	5	yes	0	0	2000	6	4	antiphase_hc_sio.wav	1	6	1	noise_calib_stim_LEFT.wav	1	15	blb_dichoticlistening_ga-ga.mp3	ga	ga	0	other
6.6.1	win	2023-06-25	09:42:28	09:54:30	719777	5e5c58012272eb4328419f08	2	1	practice_z	22	advance_on_keypress_ZEE	4	stimuli_target_squarediamonds.svg	stimuli_distractor_trianglediamonds.svg	5	yes	57	0	1780	6	4	antiphase_hc_sio.wav	1	6	1	noise_calib_stim_LEFT.wav	1	15	blb_dichoticlistening_ga-ga.mp3	ga	ga	0	other
6.6.1	win	2023-06-25	09:42:28	09:54:34	723794	5e5c58012272eb4328419f08	2	1	practice_z	22	practice_z	5	stimuli_target_diamondsquares.svg	stimuli_distractor_diamondtriangles.svg	3	yes	44	1	603	6	4	antiphase_hc_sio.wav	1	6	1	noise_calib_stim_LEFT.wav	1	15	blb_dichoticlistening_ga-ga.mp3	ga	ga	0	other
6.6.1	win	2023-06-25	09:42:28	09:54:34	723794	5e5c58012272eb4328419f08	2	1	practice_z	22	advance_on_keypress_ZEE	6	stimuli_target_diamondsquares.svg	stimuli_distractor_diamondtriangles.svg	3	yes	57	0	1184	6	4	antiphase_hc_sio.wav	1	6	1	noise_calib_stim_LEFT.wav	1	15	blb_dichoticlistening_ga-ga.mp3	ga	ga	0	other
6.6.1	win	2023-06-25	09:42:28	09:54:38	727456	5e5c58012272eb4328419f08	2	1	practice_z	22	practice_z	7	stimuli_distractor_trianglediamonds.svg	stimuli_target_rectanglediamonds.svg	10	yes	44	1	844	6	4	antiphase_hc_sio.wav	1	6	1	noise_calib_stim_LEFT.wav	1	15	blb_dichoticlistening_ga-ga.mp3	ga	ga	0	other
6.6.1	win	2023-06-25	09:42:28	09:54:38	727456	5e5c58012272eb4328419f08	2	1	practice_z	22	advance_on_keypress_ZEE	8	stimuli_distractor_trianglediamonds.svg	stimuli_target_rectanglediamonds.svg	10	yes	57	0	1060	6	4	antiphase_hc_sio.wav	1	6	1	noise_calib_stim_LEFT.wav	1	15	blb_dichoticlistening_ga-ga.mp3	ga	ga	0	other
6.6.1	win	2023-06-25	09:42:28	09:54:41	730829	5e5c58012272eb4328419f08	2	1	practice_z	22	practice_z	9	stimuli_distractor_diamondtriangles.svg	stimuli_target_trianglerectangles.svg	9	yes	44	1	680	6	4	antiphase_hc_sio.wav	1	6	1	noise_calib_stim_LEFT.wav	1	15	blb_dichoticlistening_ga-ga.mp3	ga	ga	0	other
6.6.1	win	2023-06-25	09:42:28	09:54:41	730829	5e5c58012272eb4328419f08	2	1	practice_z	22	advance_on_keypress_ZEE	10	stimuli_distractor_diamondtriangles.svg	stimuli_target_trianglerectangles.svg	9	yes	57	0	810	6	4	antiphase_hc_sio.wav	1	6	1	noise_calib_stim_LEFT.wav	1	15	blb_dichoticlistening_ga-ga.mp3	ga	ga	0	other
6.6.1	win	2023-06-25	09:42:28	09:54:44	734038	5e5c58012272eb4328419f08	2	1	practice_z	22	practice_z	11	stimuli_distractor_diamondtriangles.svg	stimuli_target_diamondrectangles.svg	8	yes	44	1	763	6	4	antiphase_hc_sio.wav	1	6	1	noise_calib_stim_LEFT.wav	1	15	blb_dichoticlistening_ga-ga.mp3	ga	ga	0	other
6.6.1	win	2023-06-25	09:42:28	09:54:44	734038	5e5c58012272eb4328419f08	2	1	practice_z	22	advance_on_keypress_ZEE	12	stimuli_distractor_diamondtriangles.svg	stimuli_target_diamondrectangles.svg	8	yes	57	0	439	6	4	antiphase_hc_sio.wav	1	6	1	noise_calib_stim_LEFT.wav	1	15	blb_dichoticlistening_ga-ga.mp3	ga	ga	0	other
6.6.1	win	2023-06-25	09:42:28	09:54:47	736961	5e5c58012272eb4328419f08	2	1	practice_z	22	practice_z	13	stimuli_target_diamondsquares.svg	stimuli_distractor_trianglediamonds.svg	6	yes	44	1	851	6	4	antiphase_hc_sio.wav	1	6	1	noise_calib_stim_LEFT.wav	1	15	blb_dichoticlistening_ga-ga.mp3	ga	ga	0	other
6.6.1	win	2023-06-25	09:42:28	09:54:47	736961	5e5c58012272eb4328419f08	2	1	practice_z	22	advance_on_keypress_ZEE	14	stimuli_target_diamondsquares.svg	stimuli_distractor_trianglediamonds.svg	6	yes	57	0	412	6	4	antiphase_hc_sio.wav	1	6	1	noise_calib_stim_LEFT.wav	1	15	blb_dichoticlistening_ga-ga.mp3	ga	ga	0	other
6.6.1	win	2023-06-25	09:42:28	09:54:50	739874	5e5c58012272eb4328419f08	2	1	practice_z	22	practice_z	15	stimuli_distractor_diamondtriangles.svg	stimuli_distractor_trianglediamonds.svg	14	no	44	0	864	6	4	antiphase_hc_sio.wav	1	6	1	noise_calib_stim_LEFT.wav	1	15	blb_dichoticlistening_ga-ga.mp3	ga	ga	0	other
6.6.1	win	2023-06-25	09:42:28	09:54:50	739874	5e5c58012272eb4328419f08	2	1	practice_z	22	advance_on_keypress_ZEE	16	stimuli_distractor_diamondtriangles.svg	stimuli_distractor_trianglediamonds.svg	14	no	57	0	567	6	4	antiphase_hc_sio.wav	1	6	1	noise_calib_stim_LEFT.wav	1	15	blb_dichoticlistening_ga-ga.mp3	ga	ga	0	other
6.6.1	win	2023-06-25	09:42:28	09:54:54	743386	5e5c58012272eb4328419f08	2	1	practice_z	22	practice_z	17	stimuli_distractor_diamondtriangles.svg	stimuli_distractor_diamondtriangles.svg	13	no	44	0	1311	6	4	antiphase_hc_sio.wav	1	6	1	noise_calib_stim_LEFT.wav	1	15	blb_dichoticlistening_ga-ga.mp3	ga	ga	0	other
6.6.1	win	2023-06-25	09:42:28	09:54:54	743386	5e5c58012272eb4328419f08	2	1	practice_z	22	advance_on_keypress_ZEE	18	stimuli_distractor_diamondtriangles.svg	stimuli_distractor_diamondtriangles.svg	13	no	57	0	667	6	4	antiphase_hc_sio.wav	1	6	1	noise_calib_stim_LEFT.wav	1	15	blb_dichoticlistening_ga-ga.mp3	ga	ga	0	other
6.6.1	win	2023-06-25	09:42:28	09:54:56	745994	5e5c58012272eb4328419f08	2	1	practice_z	22	practice_z	19	stimuli_distractor_trianglediamonds.svg	stimuli_distractor_trianglediamonds.svg	15	no	44	0	307	6	4	antiphase_hc_sio.wav	1	6	1	noise_calib_stim_LEFT.wav	1	15	blb_dichoticlistening_ga-ga.mp3	ga	ga	0	other
6.6.1	win	2023-06-25	09:42:28	09:54:56	745994	5e5c58012272eb4328419f08	2	1	practice_z	22	advance_on_keypress_ZEE	20	stimuli_distractor_trianglediamonds.svg	stimuli_distractor_trianglediamonds.svg	15	no	57	0	626	6	4	antiphase_hc_sio.wav	1	6	1	noise_calib_stim_LEFT.wav	1	15	blb_dichoticlistening_ga-ga.mp3	ga	ga	0	other
6.6.1	win	2023-06-25	09:42:28	09:54:59	749060	5e5c58012272eb4328419f08	2	1	practice_z	22	practice_z	21	stimuli_distractor_trianglediamonds.svg	stimuli_distractor_diamondtriangles.svg	16	no	44	0	806	6	4	antiphase_hc_sio.wav	1	6	1	noise_calib_stim_LEFT.wav	1	15	blb_dichoticlistening_ga-ga.mp3	ga	ga	0	other
6.6.1	win	2023-06-25	09:42:28	09:54:59	749060	5e5c58012272eb4328419f08	2	1	practice_z	22	advance_on_keypress_ZEE	22	stimuli_distractor_trianglediamonds.svg	stimuli_distractor_diamondtriangles.svg	16	no	57	0	429	6	4	antiphase_hc_sio.wav	1	6	1	noise_calib_stim_LEFT.wav	1	15	blb_dichoticlistening_ga-ga.mp3	ga	ga	0	other
6.6.1	win	2023-06-25	09:42:28	09:55:02	751651	5e5c58012272eb4328419f08	2	1	practice_z	22	practice_z	23	stimuli_target_rectanglediamonds.svg	stimuli_distractor_diamondtriangles.svg	1	yes	44	1	528	6	4	antiphase_hc_sio.wav	1	6	1	noise_calib_stim_LEFT.wav	1	15	blb_dichoticlistening_ga-ga.mp3	ga	ga	0	other
6.6.1	win	2023-06-25	09:42:28	09:55:02	751651	5e5c58012272eb4328419f08	2	1	practice_z	22	advance_on_keypress_ZEE	24	stimuli_target_rectanglediamonds.svg	stimuli_distractor_diamondtriangles.svg	1	yes	57	0	555	6	4	antiphase_hc_sio.wav	1	6	1	noise_calib_stim_LEFT.wav	1	15	blb_dichoticlistening_ga-ga.mp3	ga	ga	0	other
6.6.1	win	2023-06-25	09:42:28	09:55:05	754315	5e5c58012272eb4328419f08	2	1	practice_z	22	practice_z	25	stimuli_target_squarediamonds.svg	stimuli_distractor_diamondtriangles.svg	2	yes	44	1	477	6	4	antiphase_hc_sio.wav	1	6	1	noise_calib_stim_LEFT.wav	1	15	blb_dichoticlistening_ga-ga.mp3	ga	ga	0	other
6.6.1	win	2023-06-25	09:42:28	09:55:05	754315	5e5c58012272eb4328419f08	2	1	practice_z	22	advance_on_keypress_ZEE	26	stimuli_target_squarediamonds.svg	stimuli_distractor_diamondtriangles.svg	2	yes	57	0	476	6	4	antiphase_hc_sio.wav	1	6	1	noise_calib_stim_LEFT.wav	1	15	blb_dichoticlistening_ga-ga.mp3	ga	ga	0	other
6.6.1	win	2023-06-25	09:42:28	09:55:07	756948	5e5c58012272eb4328419f08	2	1	practice_z	22	practice_z	27	stimuli_distractor_trianglediamonds.svg	stimuli_target_diamondrectangles.svg	12	yes	44	1	522	6	4	antiphase_hc_sio.wav	1	6	1	noise_calib_stim_LEFT.wav	1	15	blb_dichoticlistening_ga-ga.mp3	ga	ga	0	other
6.6.1	win	2023-06-25	09:42:28	09:55:07	756948	5e5c58012272eb4328419f08	2	1	practice_z	22	advance_on_keypress_ZEE	28	stimuli_distractor_trianglediamonds.svg	stimuli_target_diamondrectangles.svg	12	yes	57	0	396	6	4	antiphase_hc_sio.wav	1	6	1	noise_calib_stim_LEFT.wav	1	15	blb_dichoticlistening_ga-ga.mp3	ga	ga	0	other
6.6.1	win	2023-06-25	09:42:28	09:55:10	759436	5e5c58012272eb4328419f08	2	1	practice_z	22	practice_z	29	stimuli_distractor_trianglediamonds.svg	stimuli_target_squarediamonds.svg	11	yes	44	1	457	6	4	antiphase_hc_sio.wav	1	6	1	noise_calib_stim_LEFT.wav	1	15	blb_dichoticlistening_ga-ga.mp3	ga	ga	0	other
6.6.1	win	2023-06-25	09:42:28	09:55:10	759436	5e5c58012272eb4328419f08	2	1	practice_z	22	advance_on_keypress_ZEE	30	stimuli_distractor_trianglediamonds.svg	stimuli_target_squarediamonds.svg	11	yes	57	0	521	6	4	antiphase_hc_sio.wav	1	6	1	noise_calib_stim_LEFT.wav	1	15	blb_dichoticlistening_ga-ga.mp3	ga	ga	0	other
6.6.1	win	2023-06-25	09:42:28	09:55:12	762014	5e5c58012272eb4328419f08	2	1	practice_z	22	practice_z	31	stimuli_target_rectanglediamonds.svg	stimuli_distractor_trianglediamonds.svg	4	yes	44	1	423	6	4	antiphase_hc_sio.wav	1	6	1	noise_calib_stim_LEFT.wav	1	15	blb_dichoticlistening_ga-ga.mp3	ga	ga	0	other
6.6.1	win	2023-06-25	09:42:28	09:55:12	762014	5e5c58012272eb4328419f08	2	1	practice_z	22	advance_on_keypress_ZEE	32	stimuli_target_rectanglediamonds.svg	stimuli_distractor_trianglediamonds.svg	4	yes	57	0	403	6	4	antiphase_hc_sio.wav	1	6	1	noise_calib_stim_LEFT.wav	1	15	blb_dichoticlistening_ga-ga.mp3	ga	ga	0	other
6.6.1	win	2023-06-25	09:42:28	09:55:20	770035	5e5c58012272eb4328419f08	2	1	main_z	24	main_z	1	stimuli_distractor_diamondtriangles.svg	stimuli_target_squarediamonds.svg	16	yes	44	1	459	6	4	antiphase_hc_sio.wav	1	6	1	noise_calib_stim_LEFT.wav	1	15	blb_dichoticlistening_ga-ga.mp3	ga	ga	0	other
6.6.1	win	2023-06-25	09:42:28	09:55:20	770035	5e5c58012272eb4328419f08	2	1	main_z	24	advance_on_keypress_ZEE	2	stimuli_distractor_diamondtriangles.svg	stimuli_target_squarediamonds.svg	16	yes	57	0	1340	6	4	antiphase_hc_sio.wav	1	6	1	noise_calib_stim_LEFT.wav	1	15	blb_dichoticlistening_ga-ga.mp3	ga	ga	0	other
6.6.1	win	2023-06-25	09:42:28	09:55:23	772474	5e5c58012272eb4328419f08	2	1	main_z	24	main_z	3	stimuli_target_trianglerectangles.svg	stimuli_distractor_diamondtriangles.svg	21	yes	44	1	460	6	4	antiphase_hc_sio.wav	1	6	1	noise_calib_stim_LEFT.wav	1	15	blb_dichoticlistening_ga-ga.mp3	ga	ga	0	other
6.6.1	win	2023-06-25	09:42:28	09:55:23	772474	5e5c58012272eb4328419f08	2	1	main_z	24	advance_on_keypress_ZEE	4	stimuli_target_trianglerectangles.svg	stimuli_distractor_diamondtriangles.svg	21	yes	57	0	779	6	4	antiphase_hc_sio.wav	1	6	1	noise_calib_stim_LEFT.wav	1	15	blb_dichoticlistening_ga-ga.mp3	ga	ga	0	other
6.6.1	win	2023-06-25	09:42:28	09:55:25	774386	5e5c58012272eb4328419f08	2	1	main_z	24	main_z	5	stimuli_distractor_diamondtriangles.svg	stimuli_target_diamondsquares.svg	32	yes	44	1	492	6	4	antiphase_hc_sio.wav	1	6	1	noise_calib_stim_LEFT.wav	1	15	blb_dichoticlistening_ga-ga.mp3	ga	ga	0	other
6.6.1	win	2023-06-25	09:42:28	09:55:25	774386	5e5c58012272eb4328419f08	2	1	main_z	24	advance_on_keypress_ZEE	6	stimuli_distractor_diamondtriangles.svg	stimuli_target_diamondsquares.svg	32	yes	57	0	736	6	4	antiphase_hc_sio.wav	1	6	1	noise_calib_stim_LEFT.wav	1	15	blb_dichoticlistening_ga-ga.mp3	ga	ga	0	other
6.6.1	win	2023-06-25	09:42:28	09:55:26	776189	5e5c58012272eb4328419f08	2	1	main_z	24	main_z	7	stimuli_distractor_trianglediamonds.svg	stimuli_distractor_diamondtriangles.svg	35	no	44	0	427	6	4	antiphase_hc_sio.wav	1	6	1	noise_calib_stim_LEFT.wav	1	15	blb_dichoticlistening_ga-ga.mp3	ga	ga	0	other
6.6.1	win	2023-06-25	09:42:28	09:55:26	776189	5e5c58012272eb4328419f08	2	1	main_z	24	advance_on_keypress_ZEE	8	stimuli_distractor_trianglediamonds.svg	stimuli_distractor_diamondtriangles.svg	35	no	57	0	827	6	4	antiphase_hc_sio.wav	1	6	1	noise_calib_stim_LEFT.wav	1	15	blb_dichoticlistening_ga-ga.mp3	ga	ga	0	other
6.6.1	win	2023-06-25	09:42:28	09:55:30	779657	5e5c58012272eb4328419f08	2	1	main_z	24	main_z	9	stimuli_distractor_diamondtriangles.svg	stimuli_distractor_diamondtriangles.svg	39	no	0	1	2000	6	4	antiphase_hc_sio.wav	1	6	1	noise_calib_stim_LEFT.wav	1	15	blb_dichoticlistening_ga-ga.mp3	ga	ga	0	other
6.6.1	win	2023-06-25	09:42:28	09:55:30	779657	5e5c58012272eb4328419f08	2	1	main_z	24	advance_on_keypress_ZEE	10	stimuli_distractor_diamondtriangles.svg	stimuli_distractor_diamondtriangles.svg	39	no	57	0	638	6	4	antiphase_hc_sio.wav	1	6	1	noise_calib_stim_LEFT.wav	1	15	blb_dichoticlistening_ga-ga.mp3	ga	ga	0	other
6.6.1	win	2023-06-25	09:42:28	09:55:32	781474	5e5c58012272eb4328419f08	2	1	main_z	24	main_z	11	stimuli_target_rectangletriangles.svg	stimuli_distractor_diamondtriangles.svg	5	yes	44	1	547	6	4	antiphase_hc_sio.wav	1	6	1	noise_calib_stim_LEFT.wav	1	15	blb_dichoticlistening_ga-ga.mp3	ga	ga	0	other
6.6.1	win	2023-06-25	09:42:28	09:55:32	781474	5e5c58012272eb4328419f08	2	1	main_z	24	advance_on_keypress_ZEE	12	stimuli_target_rectangletriangles.svg	stimuli_distractor_diamondtriangles.svg	5	yes	57	0	871	6	4	antiphase_hc_sio.wav	1	6	1	noise_calib_stim_LEFT.wav	1	15	blb_dichoticlistening_ga-ga.mp3	ga	ga	0	other
6.6.1	win	2023-06-25	09:42:28	09:55:34	783703	5e5c58012272eb4328419f08	2	1	main_z	24	main_z	13	stimuli_distractor_diamondtriangles.svg	stimuli_target_trianglerectangles.svg	29	yes	44	1	721	6	4	antiphase_hc_sio.wav	1	6	1	noise_calib_stim_LEFT.wav	1	15	blb_dichoticlistening_ga-ga.mp3	ga	ga	0	other
6.6.1	win	2023-06-25	09:42:28	09:55:34	783703	5e5c58012272eb4328419f08	2	1	main_z	24	advance_on_keypress_ZEE	14	stimuli_distractor_diamondtriangles.svg	stimuli_target_trianglerectangles.svg	29	yes	57	0	734	6	4	antiphase_hc_sio.wav	1	6	1	noise_calib_stim_LEFT.wav	1	15	blb_dichoticlistening_ga-ga.mp3	ga	ga	0	other
6.6.1	win	2023-06-25	09:42:28	09:55:36	785805	5e5c58012272eb4328419f08	2	1	main_z	24	main_z	15	stimuli_distractor_trianglediamonds.svg	stimuli_distractor_diamondtriangles.svg	36	no	44	0	735	6	4	antiphase_hc_sio.wav	1	6	1	noise_calib_stim_LEFT.wav	1	15	blb_dichoticlistening_ga-ga.mp3	ga	ga	0	other
6.6.1	win	2023-06-25	09:42:28	09:55:36	785805	5e5c58012272eb4328419f08	2	1	main_z	24	advance_on_keypress_ZEE	16	stimuli_distractor_trianglediamonds.svg	stimuli_distractor_diamondtriangles.svg	36	no	57	0	718	6	4	antiphase_hc_sio.wav	1	6	1	noise_calib_stim_LEFT.wav	1	15	blb_dichoticlistening_ga-ga.mp3	ga	ga	0	other
6.6.1	win	2023-06-25	09:42:28	09:55:38	787675	5e5c58012272eb4328419f08	2	1	main_z	24	main_z	17	stimuli_target_diamondsquares.svg	stimuli_distractor_trianglediamonds.svg	20	yes	44	1	518	6	4	antiphase_hc_sio.wav	1	6	1	noise_calib_stim_LEFT.wav	1	15	blb_dichoticlistening_ga-ga.mp3	ga	ga	0	other
6.6.1	win	2023-06-25	09:42:28	09:55:38	787675	5e5c58012272eb4328419f08	2	1	main_z	24	advance_on_keypress_ZEE	18	stimuli_target_diamondsquares.svg	stimuli_distractor_trianglediamonds.svg	20	yes	57	0	553	6	4	antiphase_hc_sio.wav	1	6	1	noise_calib_stim_LEFT.wav	1	15	blb_dichoticlistening_ga-ga.mp3	ga	ga	0	other
6.6.1	win	2023-06-25	09:42:28	09:55:41	790860	5e5c58012272eb4328419f08	2	1	main_z	24	main_z	19	stimuli_distractor_diamondtriangles.svg	stimuli_target_trianglesquares.svg	30	yes	0	0	2000	6	4	antiphase_hc_sio.wav	1	6	1	noise_calib_stim_LEFT.wav	1	15	blb_dichoticlistening_ga-ga.mp3	ga	ga	0	other
6.6.1	win	2023-06-25	09:42:28	09:55:41	790860	5e5c58012272eb4328419f08	2	1	main_z	24	advance_on_keypress_ZEE	20	stimuli_distractor_diamondtriangles.svg	stimuli_target_trianglesquares.svg	30	yes	57	0	470	6	4	antiphase_hc_sio.wav	1	6	1	noise_calib_stim_LEFT.wav	1	15	blb_dichoticlistening_ga-ga.mp3	ga	ga	0	other
6.6.1	win	2023-06-25	09:42:28	09:55:43	792311	5e5c58012272eb4328419f08	2	1	main_z	24	main_z	21	stimuli_distractor_trianglediamonds.svg	stimuli_target_rectanglediamonds.svg	10	yes	44	1	349	6	4	antiphase_hc_sio.wav	1	6	1	noise_calib_stim_LEFT.wav	1	15	blb_dichoticlistening_ga-ga.mp3	ga	ga	0	other
6.6.1	win	2023-06-25	09:42:28	09:55:43	792311	5e5c58012272eb4328419f08	2	1	main_z	24	advance_on_keypress_ZEE	22	stimuli_distractor_trianglediamonds.svg	stimuli_target_rectanglediamonds.svg	10	yes	57	0	804	6	4	antiphase_hc_sio.wav	1	6	1	noise_calib_stim_LEFT.wav	1	15	blb_dichoticlistening_ga-ga.mp3	ga	ga	0	other
6.6.1	win	2023-06-25	09:42:28	09:55:44	794125	5e5c58012272eb4328419f08	2	1	main_z	24	main_z	23	stimuli_distractor_trianglediamonds.svg	stimuli_target_rectangletriangles.svg	9	yes	44	1	377	6	4	antiphase_hc_sio.wav	1	6	1	noise_calib_stim_LEFT.wav	1	15	blb_dichoticlistening_ga-ga.mp3	ga	ga	0	other
6.6.1	win	2023-06-25	09:42:28	09:55:44	794125	5e5c58012272eb4328419f08	2	1	main_z	24	advance_on_keypress_ZEE	24	stimuli_distractor_trianglediamonds.svg	stimuli_target_rectangletriangles.svg	9	yes	57	0	646	6	4	antiphase_hc_sio.wav	1	6	1	noise_calib_stim_LEFT.wav	1	15	blb_dichoticlistening_ga-ga.mp3	ga	ga	0	other
6.6.1	win	2023-06-25	09:42:28	09:55:46	795830	5e5c58012272eb4328419f08	2	1	main_z	24	main_z	25	stimuli_distractor_trianglediamonds.svg	stimuli_target_diamondrectangles.svg	27	yes	44	1	418	6	4	antiphase_hc_sio.wav	1	6	1	noise_calib_stim_LEFT.wav	1	15	blb_dichoticlistening_ga-ga.mp3	ga	ga	0	other
6.6.1	win	2023-06-25	09:42:28	09:55:46	795830	5e5c58012272eb4328419f08	2	1	main_z	24	advance_on_keypress_ZEE	26	stimuli_distractor_trianglediamonds.svg	stimuli_target_diamondrectangles.svg	27	yes	57	0	523	6	4	antiphase_hc_sio.wav	1	6	1	noise_calib_stim_LEFT.wav	1	15	blb_dichoticlistening_ga-ga.mp3	ga	ga	0	other
6.6.1	win	2023-06-25	09:42:28	09:55:48	797310	5e5c58012272eb4328419f08	2	1	main_z	24	main_z	27	stimuli_distractor_diamondtriangles.svg	stimuli_target_squaretriangles.svg	15	yes	44	1	326	6	4	antiphase_hc_sio.wav	1	6	1	noise_calib_stim_LEFT.wav	1	15	blb_dichoticlistening_ga-ga.mp3	ga	ga	0	other
6.6.1	win	2023-06-25	09:42:28	09:55:48	797310	5e5c58012272eb4328419f08	2	1	main_z	24	advance_on_keypress_ZEE	28	stimuli_distractor_diamondtriangles.svg	stimuli_target_squaretriangles.svg	15	yes	57	0	321	6	4	antiphase_hc_sio.wav	1	6	1	noise_calib_stim_LEFT.wav	1	15	blb_dichoticlistening_ga-ga.mp3	ga	ga	0	other
6.6.1	win	2023-06-25	09:42:28	09:55:49	798559	5e5c58012272eb4328419f08	2	1	main_z	24	main_z	29	stimuli_target_trianglesquares.svg	stimuli_distractor_trianglediamonds.svg	18	yes	44	1	295	6	4	antiphase_hc_sio.wav	1	6	1	noise_calib_stim_LEFT.wav	1	15	blb_dichoticlistening_ga-ga.mp3	ga	ga	0	other
6.6.1	win	2023-06-25	09:42:28	09:55:49	798559	5e5c58012272eb4328419f08	2	1	main_z	24	advance_on_keypress_ZEE	30	stimuli_target_trianglesquares.svg	stimuli_distractor_trianglediamonds.svg	18	yes	57	0	995	6	4	antiphase_hc_sio.wav	1	6	1	noise_calib_stim_LEFT.wav	1	15	blb_dichoticlistening_ga-ga.mp3	ga	ga	0	other
6.6.1	win	2023-06-25	09:42:28	09:55:52	802186	5e5c58012272eb4328419f08	2	1	main_z	24	main_z	31	stimuli_target_trianglerectangles.svg	stimuli_distractor_trianglediamonds.svg	17	yes	0	0	2000	6	4	antiphase_hc_sio.wav	1	6	1	noise_calib_stim_LEFT.wav	1	15	blb_dichoticlistening_ga-ga.mp3	ga	ga	0	other
6.6.1	win	2023-06-25	09:42:28	09:55:52	802186	5e5c58012272eb4328419f08	2	1	main_z	24	advance_on_keypress_ZEE	32	stimuli_target_trianglerectangles.svg	stimuli_distractor_trianglediamonds.svg	17	yes	57	0	537	6	4	antiphase_hc_sio.wav	1	6	1	noise_calib_stim_LEFT.wav	1	15	blb_dichoticlistening_ga-ga.mp3	ga	ga	0	other
6.6.1	win	2023-06-25	09:42:28	09:55:54	803864	5e5c58012272eb4328419f08	2	1	main_z	24	main_z	33	stimuli_distractor_diamondtriangles.svg	stimuli_target_diamondrectangles.svg	31	yes	44	1	504	6	4	antiphase_hc_sio.wav	1	6	1	noise_calib_stim_LEFT.wav	1	15	blb_dichoticlistening_ga-ga.mp3	ga	ga	0	other
6.6.1	win	2023-06-25	09:42:28	09:55:54	803864	5e5c58012272eb4328419f08	2	1	main_z	24	advance_on_keypress_ZEE	34	stimuli_distractor_diamondtriangles.svg	stimuli_target_diamondrectangles.svg	31	yes	57	0	547	6	4	antiphase_hc_sio.wav	1	6	1	noise_calib_stim_LEFT.wav	1	15	blb_dichoticlistening_ga-ga.mp3	ga	ga	0	other
6.6.1	win	2023-06-25	09:42:28	09:55:56	805620	5e5c58012272eb4328419f08	2	1	main_z	24	main_z	35	stimuli_target_trianglesquares.svg	stimuli_distractor_diamondtriangles.svg	22	yes	44	1	566	6	4	antiphase_hc_sio.wav	1	6	1	noise_calib_stim_LEFT.wav	1	15	blb_dichoticlistening_ga-ga.mp3	ga	ga	0	other
6.6.1	win	2023-06-25	09:42:28	09:55:56	805620	5e5c58012272eb4328419f08	2	1	main_z	24	advance_on_keypress_ZEE	36	stimuli_target_trianglesquares.svg	stimuli_distractor_diamondtriangles.svg	22	yes	57	0	947	6	4	antiphase_hc_sio.wav	1	6	1	noise_calib_stim_LEFT.wav	1	15	blb_dichoticlistening_ga-ga.mp3	ga	ga	0	other
6.6.1	win	2023-06-25	09:42:28	09:55:59	809201	5e5c58012272eb4328419f08	2	1	main_z	24	main_z	37	stimuli_distractor_trianglediamonds.svg	stimuli_distractor_trianglediamonds.svg	34	no	0	1	2000	6	4	antiphase_hc_sio.wav	1	6	1	noise_calib_stim_LEFT.wav	1	15	blb_dichoticlistening_ga-ga.mp3	ga	ga	0	other
6.6.1	win	2023-06-25	09:42:28	09:55:59	809201	5e5c58012272eb4328419f08	2	1	main_z	24	advance_on_keypress_ZEE	38	stimuli_distractor_trianglediamonds.svg	stimuli_distractor_trianglediamonds.svg	34	no	57	0	590	6	4	antiphase_hc_sio.wav	1	6	1	noise_calib_stim_LEFT.wav	1	15	blb_dichoticlistening_ga-ga.mp3	ga	ga	0	other
6.6.1	win	2023-06-25	09:42:28	09:56:01	810958	5e5c58012272eb4328419f08	2	1	main_z	24	main_z	39	stimuli_distractor_diamondtriangles.svg	stimuli_target_rectangletriangles.svg	13	yes	44	1	534	6	4	antiphase_hc_sio.wav	1	6	1	noise_calib_stim_LEFT.wav	1	15	blb_dichoticlistening_ga-ga.mp3	ga	ga	0	other
6.6.1	win	2023-06-25	09:42:28	09:56:01	810958	5e5c58012272eb4328419f08	2	1	main_z	24	advance_on_keypress_ZEE	40	stimuli_distractor_diamondtriangles.svg	stimuli_target_rectangletriangles.svg	13	yes	57	0	734	6	4	antiphase_hc_sio.wav	1	6	1	noise_calib_stim_LEFT.wav	1	15	blb_dichoticlistening_ga-ga.mp3	ga	ga	0	other
6.6.1	win	2023-06-25	09:42:28	09:56:03	812902	5e5c58012272eb4328419f08	2	1	main_z	24	main_z	41	stimuli_target_diamondrectangles.svg	stimuli_distractor_trianglediamonds.svg	19	yes	44	1	575	6	4	antiphase_hc_sio.wav	1	6	1	noise_calib_stim_LEFT.wav	1	15	blb_dichoticlistening_ga-ga.mp3	ga	ga	0	other
6.6.1	win	2023-06-25	09:42:28	09:56:03	812902	5e5c58012272eb4328419f08	2	1	main_z	24	advance_on_keypress_ZEE	42	stimuli_target_diamondrectangles.svg	stimuli_distractor_trianglediamonds.svg	19	yes	57	0	630	6	4	antiphase_hc_sio.wav	1	6	1	noise_calib_stim_LEFT.wav	1	15	blb_dichoticlistening_ga-ga.mp3	ga	ga	0	other
6.6.1	win	2023-06-25	09:42:28	09:56:05	814499	5e5c58012272eb4328419f08	2	1	main_z	24	main_z	43	stimuli_target_squaretriangles.svg	stimuli_distractor_trianglediamonds.svg	3	yes	44	1	326	6	4	antiphase_hc_sio.wav	1	6	1	noise_calib_stim_LEFT.wav	1	15	blb_dichoticlistening_ga-ga.mp3	ga	ga	0	other
6.6.1	win	2023-06-25	09:42:28	09:56:05	814499	5e5c58012272eb4328419f08	2	1	main_z	24	advance_on_keypress_ZEE	44	stimuli_target_squaretriangles.svg	stimuli_distractor_trianglediamonds.svg	3	yes	57	0	603	6	4	antiphase_hc_sio.wav	1	6	1	noise_calib_stim_LEFT.wav	1	15	blb_dichoticlistening_ga-ga.mp3	ga	ga	0	other
6.6.1	win	2023-06-25	09:42:28	09:56:06	816031	5e5c58012272eb4328419f08	2	1	main_z	24	main_z	45	stimuli_target_rectanglediamonds.svg	stimuli_distractor_diamondtriangles.svg	6	yes	44	1	297	6	4	antiphase_hc_sio.wav	1	6	1	noise_calib_stim_LEFT.wav	1	15	blb_dichoticlistening_ga-ga.mp3	ga	ga	0	other
6.6.1	win	2023-06-25	09:42:28	09:56:06	816031	5e5c58012272eb4328419f08	2	1	main_z	24	advance_on_keypress_ZEE	46	stimuli_target_rectanglediamonds.svg	stimuli_distractor_diamondtriangles.svg	6	yes	57	0	378	6	4	antiphase_hc_sio.wav	1	6	1	noise_calib_stim_LEFT.wav	1	15	blb_dichoticlistening_ga-ga.mp3	ga	ga	0	other
6.6.1	win	2023-06-25	09:42:28	09:56:08	817436	5e5c58012272eb4328419f08	2	1	main_z	24	main_z	47	stimuli_distractor_trianglediamonds.svg	stimuli_target_trianglerectangles.svg	25	yes	44	1	393	6	4	antiphase_hc_sio.wav	1	6	1	noise_calib_stim_LEFT.wav	1	15	blb_dichoticlistening_ga-ga.mp3	ga	ga	0	other
6.6.1	win	2023-06-25	09:42:28	09:56:08	817436	5e5c58012272eb4328419f08	2	1	main_z	24	advance_on_keypress_ZEE	48	stimuli_distractor_trianglediamonds.svg	stimuli_target_trianglerectangles.svg	25	yes	57	0	728	6	4	antiphase_hc_sio.wav	1	6	1	noise_calib_stim_LEFT.wav	1	15	blb_dichoticlistening_ga-ga.mp3	ga	ga	0	other
6.6.1	win	2023-06-25	09:42:28	09:56:09	819233	5e5c58012272eb4328419f08	2	1	main_z	24	main_z	49	stimuli_distractor_trianglediamonds.svg	stimuli_target_squarediamonds.svg	12	yes	44	1	430	6	4	antiphase_hc_sio.wav	1	6	1	noise_calib_stim_LEFT.wav	1	15	blb_dichoticlistening_ga-ga.mp3	ga	ga	0	other
6.6.1	win	2023-06-25	09:42:28	09:56:09	819233	5e5c58012272eb4328419f08	2	1	main_z	24	advance_on_keypress_ZEE	50	stimuli_distractor_trianglediamonds.svg	stimuli_target_squarediamonds.svg	12	yes	57	0	367	6	4	antiphase_hc_sio.wav	1	6	1	noise_calib_stim_LEFT.wav	1	15	blb_dichoticlistening_ga-ga.mp3	ga	ga	0	other
6.6.1	win	2023-06-25	09:42:28	09:56:11	820541	5e5c58012272eb4328419f08	2	1	main_z	24	main_z	51	stimuli_target_squarediamonds.svg	stimuli_distractor_diamondtriangles.svg	8	yes	44	1	304	6	4	antiphase_hc_sio.wav	1	6	1	noise_calib_stim_LEFT.wav	1	15	blb_dichoticlistening_ga-ga.mp3	ga	ga	0	other
6.6.1	win	2023-06-25	09:42:28	09:56:11	820541	5e5c58012272eb4328419f08	2	1	main_z	24	advance_on_keypress_ZEE	52	stimuli_target_squarediamonds.svg	stimuli_distractor_diamondtriangles.svg	8	yes	57	0	262	6	4	antiphase_hc_sio.wav	1	6	1	noise_calib_stim_LEFT.wav	1	15	blb_dichoticlistening_ga-ga.mp3	ga	ga	0	other
6.6.1	win	2023-06-25	09:42:28	09:56:12	821749	5e5c58012272eb4328419f08	2	1	main_z	24	main_z	53	stimuli_target_diamondrectangles.svg	stimuli_distractor_diamondtriangles.svg	23	yes	44	1	312	6	4	antiphase_hc_sio.wav	1	6	1	noise_calib_stim_LEFT.wav	1	15	blb_dichoticlistening_ga-ga.mp3	ga	ga	0	other
6.6.1	win	2023-06-25	09:42:28	09:56:12	821749	5e5c58012272eb4328419f08	2	1	main_z	24	advance_on_keypress_ZEE	54	stimuli_target_diamondrectangles.svg	stimuli_distractor_diamondtriangles.svg	23	yes	57	0	553	6	4	antiphase_hc_sio.wav	1	6	1	noise_calib_stim_LEFT.wav	1	15	blb_dichoticlistening_ga-ga.mp3	ga	ga	0	other
6.6.1	win	2023-06-25	09:42:28	09:56:14	823443	5e5c58012272eb4328419f08	2	1	main_z	24	main_z	55	stimuli_distractor_trianglediamonds.svg	stimuli_target_squaretriangles.svg	11	yes	44	1	511	6	4	antiphase_hc_sio.wav	1	6	1	noise_calib_stim_LEFT.wav	1	15	blb_dichoticlistening_ga-ga.mp3	ga	ga	0	other
6.6.1	win	2023-06-25	09:42:28	09:56:14	823443	5e5c58012272eb4328419f08	2	1	main_z	24	advance_on_keypress_ZEE	56	stimuli_distractor_trianglediamonds.svg	stimuli_target_squaretriangles.svg	11	yes	57	0	350	6	4	antiphase_hc_sio.wav	1	6	1	noise_calib_stim_LEFT.wav	1	15	blb_dichoticlistening_ga-ga.mp3	ga	ga	0	other
6.6.1	win	2023-06-25	09:42:28	09:56:15	824562	5e5c58012272eb4328419f08	2	1	main_z	24	main_z	57	stimuli_distractor_trianglediamonds.svg	stimuli_target_diamondsquares.svg	28	yes	44	1	131	6	4	antiphase_hc_sio.wav	1	6	1	noise_calib_stim_LEFT.wav	1	15	blb_dichoticlistening_ga-ga.mp3	ga	ga	0	other
6.6.1	win	2023-06-25	09:42:28	09:56:15	824562	5e5c58012272eb4328419f08	2	1	main_z	24	advance_on_keypress_ZEE	58	stimuli_distractor_trianglediamonds.svg	stimuli_target_diamondsquares.svg	28	yes	57	0	812	6	4	antiphase_hc_sio.wav	1	6	1	noise_calib_stim_LEFT.wav	1	15	blb_dichoticlistening_ga-ga.mp3	ga	ga	0	other
6.6.1	win	2023-06-25	09:42:28	09:56:17	826376	5e5c58012272eb4328419f08	2	1	main_z	24	main_z	59	stimuli_target_squaretriangles.svg	stimuli_distractor_diamondtriangles.svg	7	yes	44	1	365	6	4	antiphase_hc_sio.wav	1	6	1	noise_calib_stim_LEFT.wav	1	15	blb_dichoticlistening_ga-ga.mp3	ga	ga	0	other
6.6.1	win	2023-06-25	09:42:28	09:56:17	826376	5e5c58012272eb4328419f08	2	1	main_z	24	advance_on_keypress_ZEE	60	stimuli_target_squaretriangles.svg	stimuli_distractor_diamondtriangles.svg	7	yes	57	0	307	6	4	antiphase_hc_sio.wav	1	6	1	noise_calib_stim_LEFT.wav	1	15	blb_dichoticlistening_ga-ga.mp3	ga	ga	0	other
6.6.1	win	2023-06-25	09:42:28	09:56:20	829315	5e5c58012272eb4328419f08	2	1	main_z	24	main_z	61	stimuli_distractor_diamondtriangles.svg	stimuli_distractor_trianglediamonds.svg	37	no	0	1	2000	6	4	antiphase_hc_sio.wav	1	6	1	noise_calib_stim_LEFT.wav	1	15	blb_dichoticlistening_ga-ga.mp3	ga	ga	0	other
6.6.1	win	2023-06-25	09:42:28	09:56:20	829315	5e5c58012272eb4328419f08	2	1	main_z	24	advance_on_keypress_ZEE	62	stimuli_distractor_diamondtriangles.svg	stimuli_distractor_trianglediamonds.svg	37	no	57	0	541	6	4	antiphase_hc_sio.wav	1	6	1	noise_calib_stim_LEFT.wav	1	15	blb_dichoticlistening_ga-ga.mp3	ga	ga	0	other
6.6.1	win	2023-06-25	09:42:28	09:56:23	832490	5e5c58012272eb4328419f08	2	1	main_z	24	main_z	63	stimuli_distractor_diamondtriangles.svg	stimuli_distractor_trianglediamonds.svg	38	no	0	1	2000	6	4	antiphase_hc_sio.wav	1	6	1	noise_calib_stim_LEFT.wav	1	15	blb_dichoticlistening_ga-ga.mp3	ga	ga	0	other
6.6.1	win	2023-06-25	09:42:28	09:56:23	832490	5e5c58012272eb4328419f08	2	1	main_z	24	advance_on_keypress_ZEE	64	stimuli_distractor_diamondtriangles.svg	stimuli_distractor_trianglediamonds.svg	38	no	57	0	556	6	4	antiphase_hc_sio.wav	1	6	1	noise_calib_stim_LEFT.wav	1	15	blb_dichoticlistening_ga-ga.mp3	ga	ga	0	other
6.6.1	win	2023-06-25	09:42:28	09:56:24	834015	5e5c58012272eb4328419f08	2	1	main_z	24	main_z	65	stimuli_target_squarediamonds.svg	stimuli_distractor_trianglediamonds.svg	4	yes	44	1	337	6	4	antiphase_hc_sio.wav	1	6	1	noise_calib_stim_LEFT.wav	1	15	blb_dichoticlistening_ga-ga.mp3	ga	ga	0	other
6.6.1	win	2023-06-25	09:42:28	09:56:24	834015	5e5c58012272eb4328419f08	2	1	main_z	24	advance_on_keypress_ZEE	66	stimuli_target_squarediamonds.svg	stimuli_distractor_trianglediamonds.svg	4	yes	57	0	484	6	4	antiphase_hc_sio.wav	1	6	1	noise_calib_stim_LEFT.wav	1	15	blb_dichoticlistening_ga-ga.mp3	ga	ga	0	other
6.6.1	win	2023-06-25	09:42:28	09:56:26	835769	5e5c58012272eb4328419f08	2	1	main_z	24	main_z	67	stimuli_target_rectangletriangles.svg	stimuli_distractor_trianglediamonds.svg	1	yes	44	1	636	6	4	antiphase_hc_sio.wav	1	6	1	noise_calib_stim_LEFT.wav	1	15	blb_dichoticlistening_ga-ga.mp3	ga	ga	0	other
6.6.1	win	2023-06-25	09:42:28	09:56:26	835769	5e5c58012272eb4328419f08	2	1	main_z	24	advance_on_keypress_ZEE	68	stimuli_target_rectangletriangles.svg	stimuli_distractor_trianglediamonds.svg	1	yes	57	0	721	6	4	antiphase_hc_sio.wav	1	6	1	noise_calib_stim_LEFT.wav	1	15	blb_dichoticlistening_ga-ga.mp3	ga	ga	0	other
6.6.1	win	2023-06-25	09:42:28	09:56:28	837530	5e5c58012272eb4328419f08	2	1	main_z	24	main_z	69	stimuli_distractor_trianglediamonds.svg	stimuli_distractor_trianglediamonds.svg	33	no	44	0	411	6	4	antiphase_hc_sio.wav	1	6	1	noise_calib_stim_LEFT.wav	1	15	blb_dichoticlistening_ga-ga.mp3	ga	ga	0	other
6.6.1	win	2023-06-25	09:42:28	09:56:28	837530	5e5c58012272eb4328419f08	2	1	main_z	24	advance_on_keypress_ZEE	70	stimuli_distractor_trianglediamonds.svg	stimuli_distractor_trianglediamonds.svg	33	no	57	0	604	6	4	antiphase_hc_sio.wav	1	6	1	noise_calib_stim_LEFT.wav	1	15	blb_dichoticlistening_ga-ga.mp3	ga	ga	0	other
6.6.1	win	2023-06-25	09:42:28	09:56:31	840774	5e5c58012272eb4328419f08	2	1	main_z	24	main_z	71	stimuli_distractor_diamondtriangles.svg	stimuli_distractor_diamondtriangles.svg	40	no	0	1	2000	6	4	antiphase_hc_sio.wav	1	6	1	noise_calib_stim_LEFT.wav	1	15	blb_dichoticlistening_ga-ga.mp3	ga	ga	0	other
6.6.1	win	2023-06-25	09:42:28	09:56:31	840774	5e5c58012272eb4328419f08	2	1	main_z	24	advance_on_keypress_ZEE	72	stimuli_distractor_diamondtriangles.svg	stimuli_distractor_diamondtriangles.svg	40	no	57	0	725	6	4	antiphase_hc_sio.wav	1	6	1	noise_calib_stim_LEFT.wav	1	15	blb_dichoticlistening_ga-ga.mp3	ga	ga	0	other
6.6.1	win	2023-06-25	09:42:28	09:56:33	842535	5e5c58012272eb4328419f08	2	1	main_z	24	main_z	73	stimuli_distractor_trianglediamonds.svg	stimuli_target_trianglesquares.svg	26	yes	44	1	404	6	4	antiphase_hc_sio.wav	1	6	1	noise_calib_stim_LEFT.wav	1	15	blb_dichoticlistening_ga-ga.mp3	ga	ga	0	other
6.6.1	win	2023-06-25	09:42:28	09:56:33	842535	5e5c58012272eb4328419f08	2	1	main_z	24	advance_on_keypress_ZEE	74	stimuli_distractor_trianglediamonds.svg	stimuli_target_trianglesquares.svg	26	yes	57	0	782	6	4	antiphase_hc_sio.wav	1	6	1	noise_calib_stim_LEFT.wav	1	15	blb_dichoticlistening_ga-ga.mp3	ga	ga	0	other
6.6.1	win	2023-06-25	09:42:28	09:56:35	844456	5e5c58012272eb4328419f08	2	1	main_z	24	main_z	75	stimuli_distractor_diamondtriangles.svg	stimuli_target_rectanglediamonds.svg	14	yes	44	1	509	6	4	antiphase_hc_sio.wav	1	6	1	noise_calib_stim_LEFT.wav	1	15	blb_dichoticlistening_ga-ga.mp3	ga	ga	0	other
6.6.1	win	2023-06-25	09:42:28	09:56:35	844456	5e5c58012272eb4328419f08	2	1	main_z	24	advance_on_keypress_ZEE	76	stimuli_distractor_diamondtriangles.svg	stimuli_target_rectanglediamonds.svg	14	yes	57	0	696	6	4	antiphase_hc_sio.wav	1	6	1	noise_calib_stim_LEFT.wav	1	15	blb_dichoticlistening_ga-ga.mp3	ga	ga	0	other
6.6.1	win	2023-06-25	09:42:28	09:56:38	847793	5e5c58012272eb4328419f08	2	1	main_z	24	main_z	77	stimuli_target_rectanglediamonds.svg	stimuli_distractor_trianglediamonds.svg	2	yes	0	0	2000	6	4	antiphase_hc_sio.wav	1	6	1	noise_calib_stim_LEFT.wav	1	15	blb_dichoticlistening_ga-ga.mp3	ga	ga	0	other
6.6.1	win	2023-06-25	09:42:28	09:56:38	847793	5e5c58012272eb4328419f08	2	1	main_z	24	advance_on_keypress_ZEE	78	stimuli_target_rectanglediamonds.svg	stimuli_distractor_trianglediamonds.svg	2	yes	57	0	622	6	4	antiphase_hc_sio.wav	1	6	1	noise_calib_stim_LEFT.wav	1	15	blb_dichoticlistening_ga-ga.mp3	ga	ga	0	other
6.6.1	win	2023-06-25	09:42:28	09:56:40	849348	5e5c58012272eb4328419f08	2	1	main_z	24	main_z	79	stimuli_target_diamondsquares.svg	stimuli_distractor_diamondtriangles.svg	24	yes	44	1	300	6	4	antiphase_hc_sio.wav	1	6	1	noise_calib_stim_LEFT.wav	1	15	blb_dichoticlistening_ga-ga.mp3	ga	ga	0	other
6.6.1	win	2023-06-25	09:42:28	09:56:40	849348	5e5c58012272eb4328419f08	2	1	main_z	24	advance_on_keypress_ZEE	80	stimuli_target_diamondsquares.svg	stimuli_distractor_diamondtriangles.svg	24	yes	57	0	493	6	4	antiphase_hc_sio.wav	1	6	1	noise_calib_stim_LEFT.wav	1	15	blb_dichoticlistening_ga-ga.mp3	ga	ga	0	other
6.6.1	win	2023-06-25	09:42:28	09:56:43	852474	5e5c58012272eb4328419f08	2	1	main_z	24	main_z	81	stimuli_distractor_diamondtriangles.svg	stimuli_target_trianglesquares.svg	30	yes	0	0	2000	6	4	antiphase_hc_sio.wav	1	6	1	noise_calib_stim_LEFT.wav	1	15	blb_dichoticlistening_ga-ga.mp3	ga	ga	0	other
6.6.1	win	2023-06-25	09:42:28	09:56:43	852474	5e5c58012272eb4328419f08	2	1	main_z	24	advance_on_keypress_ZEE	82	stimuli_distractor_diamondtriangles.svg	stimuli_target_trianglesquares.svg	30	yes	57	0	394	6	4	antiphase_hc_sio.wav	1	6	1	noise_calib_stim_LEFT.wav	1	15	blb_dichoticlistening_ga-ga.mp3	ga	ga	0	other
6.6.1	win	2023-06-25	09:42:28	09:56:46	855501	5e5c58012272eb4328419f08	2	1	main_z	24	main_z	83	stimuli_distractor_diamondtriangles.svg	stimuli_target_squaretriangles.svg	15	yes	0	0	2000	6	4	antiphase_hc_sio.wav	1	6	1	noise_calib_stim_LEFT.wav	1	15	blb_dichoticlistening_ga-ga.mp3	ga	ga	0	other
6.6.1	win	2023-06-25	09:42:28	09:56:46	855501	5e5c58012272eb4328419f08	2	1	main_z	24	advance_on_keypress_ZEE	84	stimuli_distractor_diamondtriangles.svg	stimuli_target_squaretriangles.svg	15	yes	57	0	492	6	4	antiphase_hc_sio.wav	1	6	1	noise_calib_stim_LEFT.wav	1	15	blb_dichoticlistening_ga-ga.mp3	ga	ga	0	other
6.6.1	win	2023-06-25	09:42:28	09:56:49	858271	5e5c58012272eb4328419f08	2	1	main_z	24	main_z	85	stimuli_target_squarediamonds.svg	stimuli_distractor_trianglediamonds.svg	4	yes	44	1	1644	6	4	antiphase_hc_sio.wav	1	6	1	noise_calib_stim_LEFT.wav	1	15	blb_dichoticlistening_ga-ga.mp3	ga	ga	0	other
6.6.1	win	2023-06-25	09:42:28	09:56:49	858271	5e5c58012272eb4328419f08	2	1	main_z	24	advance_on_keypress_ZEE	86	stimuli_target_squarediamonds.svg	stimuli_distractor_trianglediamonds.svg	4	yes	57	0	673	6	4	antiphase_hc_sio.wav	1	6	1	noise_calib_stim_LEFT.wav	1	15	blb_dichoticlistening_ga-ga.mp3	ga	ga	0	other
6.6.1	win	2023-06-25	09:42:28	09:56:52	861578	5e5c58012272eb4328419f08	2	1	main_z	24	main_z	87	stimuli_distractor_trianglediamonds.svg	stimuli_distractor_diamondtriangles.svg	35	no	0	1	2000	6	4	antiphase_hc_sio.wav	1	6	1	noise_calib_stim_LEFT.wav	1	15	blb_dichoticlistening_ga-ga.mp3	ga	ga	0	other
6.6.1	win	2023-06-25	09:42:28	09:56:52	861578	5e5c58012272eb4328419f08	2	1	main_z	24	advance_on_keypress_ZEE	88	stimuli_distractor_trianglediamonds.svg	stimuli_distractor_diamondtriangles.svg	35	no	57	0	448	6	4	antiphase_hc_sio.wav	1	6	1	noise_calib_stim_LEFT.wav	1	15	blb_dichoticlistening_ga-ga.mp3	ga	ga	0	other
6.6.1	win	2023-06-25	09:42:28	09:56:53	863123	5e5c58012272eb4328419f08	2	1	main_z	24	main_z	89	stimuli_distractor_diamondtriangles.svg	stimuli_distractor_diamondtriangles.svg	40	no	44	0	464	6	4	antiphase_hc_sio.wav	1	6	1	noise_calib_stim_LEFT.wav	1	15	blb_dichoticlistening_ga-ga.mp3	ga	ga	0	other
6.6.1	win	2023-06-25	09:42:28	09:56:53	863123	5e5c58012272eb4328419f08	2	1	main_z	24	advance_on_keypress_ZEE	90	stimuli_distractor_diamondtriangles.svg	stimuli_distractor_diamondtriangles.svg	40	no	57	0	529	6	4	antiphase_hc_sio.wav	1	6	1	noise_calib_stim_LEFT.wav	1	15	blb_dichoticlistening_ga-ga.mp3	ga	ga	0	other
6.6.1	win	2023-06-25	09:42:28	09:56:55	864733	5e5c58012272eb4328419f08	2	1	main_z	24	main_z	91	stimuli_distractor_trianglediamonds.svg	stimuli_distractor_trianglediamonds.svg	34	no	44	0	446	6	4	antiphase_hc_sio.wav	1	6	1	noise_calib_stim_LEFT.wav	1	15	blb_dichoticlistening_ga-ga.mp3	ga	ga	0	other
6.6.1	win	2023-06-25	09:42:28	09:56:55	864733	5e5c58012272eb4328419f08	2	1	main_z	24	advance_on_keypress_ZEE	92	stimuli_distractor_trianglediamonds.svg	stimuli_distractor_trianglediamonds.svg	34	no	57	0	591	6	4	antiphase_hc_sio.wav	1	6	1	noise_calib_stim_LEFT.wav	1	15	blb_dichoticlistening_ga-ga.mp3	ga	ga	0	other
6.6.1	win	2023-06-25	09:42:28	09:56:58	867962	5e5c58012272eb4328419f08	2	1	main_z	24	main_z	93	stimuli_target_trianglerectangles.svg	stimuli_distractor_diamondtriangles.svg	21	yes	0	0	2000	6	4	antiphase_hc_sio.wav	1	6	1	noise_calib_stim_LEFT.wav	1	15	blb_dichoticlistening_ga-ga.mp3	ga	ga	0	other
6.6.1	win	2023-06-25	09:42:28	09:56:58	867962	5e5c58012272eb4328419f08	2	1	main_z	24	advance_on_keypress_ZEE	94	stimuli_target_trianglerectangles.svg	stimuli_distractor_diamondtriangles.svg	21	yes	57	0	287	6	4	antiphase_hc_sio.wav	1	6	1	noise_calib_stim_LEFT.wav	1	15	blb_dichoticlistening_ga-ga.mp3	ga	ga	0	other
6.6.1	win	2023-06-25	09:42:28	09:57:00	869378	5e5c58012272eb4328419f08	2	1	main_z	24	main_z	95	stimuli_distractor_trianglediamonds.svg	stimuli_target_squaretriangles.svg	11	yes	44	1	495	6	4	antiphase_hc_sio.wav	1	6	1	noise_calib_stim_LEFT.wav	1	15	blb_dichoticlistening_ga-ga.mp3	ga	ga	0	other
6.6.1	win	2023-06-25	09:42:28	09:57:00	869378	5e5c58012272eb4328419f08	2	1	main_z	24	advance_on_keypress_ZEE	96	stimuli_distractor_trianglediamonds.svg	stimuli_target_squaretriangles.svg	11	yes	57	0	382	6	4	antiphase_hc_sio.wav	1	6	1	noise_calib_stim_LEFT.wav	1	15	blb_dichoticlistening_ga-ga.mp3	ga	ga	0	other
6.6.1	win	2023-06-25	09:42:28	09:57:02	871481	5e5c58012272eb4328419f08	2	1	main_z	24	main_z	97	stimuli_target_rectanglediamonds.svg	stimuli_distractor_diamondtriangles.svg	6	yes	44	1	1083	6	4	antiphase_hc_sio.wav	1	6	1	noise_calib_stim_LEFT.wav	1	15	blb_dichoticlistening_ga-ga.mp3	ga	ga	0	other
6.6.1	win	2023-06-25	09:42:28	09:57:02	871481	5e5c58012272eb4328419f08	2	1	main_z	24	advance_on_keypress_ZEE	98	stimuli_target_rectanglediamonds.svg	stimuli_distractor_diamondtriangles.svg	6	yes	57	0	714	6	4	antiphase_hc_sio.wav	1	6	1	noise_calib_stim_LEFT.wav	1	15	blb_dichoticlistening_ga-ga.mp3	ga	ga	0	other
6.6.1	win	2023-06-25	09:42:28	09:57:03	872841	5e5c58012272eb4328419f08	2	1	main_z	24	main_z	99	stimuli_distractor_trianglediamonds.svg	stimuli_target_diamondrectangles.svg	27	yes	44	1	13	6	4	antiphase_hc_sio.wav	1	6	1	noise_calib_stim_LEFT.wav	1	15	blb_dichoticlistening_ga-ga.mp3	ga	ga	0	other
6.6.1	win	2023-06-25	09:42:28	09:57:03	872841	5e5c58012272eb4328419f08	2	1	main_z	24	advance_on_keypress_ZEE	100	stimuli_distractor_trianglediamonds.svg	stimuli_target_diamondrectangles.svg	27	yes	57	0	135	6	4	antiphase_hc_sio.wav	1	6	1	noise_calib_stim_LEFT.wav	1	15	blb_dichoticlistening_ga-ga.mp3	ga	ga	0	other
6.6.1	win	2023-06-25	09:42:28	09:57:04	874129	5e5c58012272eb4328419f08	2	1	main_z	24	main_z	101	stimuli_distractor_trianglediamonds.svg	stimuli_distractor_diamondtriangles.svg	36	no	44	0	510	6	4	antiphase_hc_sio.wav	1	6	1	noise_calib_stim_LEFT.wav	1	15	blb_dichoticlistening_ga-ga.mp3	ga	ga	0	other
6.6.1	win	2023-06-25	09:42:28	09:57:04	874129	5e5c58012272eb4328419f08	2	1	main_z	24	advance_on_keypress_ZEE	102	stimuli_distractor_trianglediamonds.svg	stimuli_distractor_diamondtriangles.svg	36	no	57	0	471	6	4	antiphase_hc_sio.wav	1	6	1	noise_calib_stim_LEFT.wav	1	15	blb_dichoticlistening_ga-ga.mp3	ga	ga	0	other
6.6.1	win	2023-06-25	09:42:28	09:57:07	876329	5e5c58012272eb4328419f08	2	1	main_z	24	main_z	103	stimuli_target_diamondrectangles.svg	stimuli_distractor_diamondtriangles.svg	23	yes	44	1	1090	6	4	antiphase_hc_sio.wav	1	6	1	noise_calib_stim_LEFT.wav	1	15	blb_dichoticlistening_ga-ga.mp3	ga	ga	0	other
6.6.1	win	2023-06-25	09:42:28	09:57:07	876329	5e5c58012272eb4328419f08	2	1	main_z	24	advance_on_keypress_ZEE	104	stimuli_target_diamondrectangles.svg	stimuli_distractor_diamondtriangles.svg	23	yes	57	0	591	6	4	antiphase_hc_sio.wav	1	6	1	noise_calib_stim_LEFT.wav	1	15	blb_dichoticlistening_ga-ga.mp3	ga	ga	0	other
6.6.1	win	2023-06-25	09:42:28	09:57:08	877667	5e5c58012272eb4328419f08	2	1	main_z	24	main_z	105	stimuli_distractor_diamondtriangles.svg	stimuli_distractor_trianglediamonds.svg	37	no	44	0	114	6	4	antiphase_hc_sio.wav	1	6	1	noise_calib_stim_LEFT.wav	1	15	blb_dichoticlistening_ga-ga.mp3	ga	ga	0	other
6.6.1	win	2023-06-25	09:42:28	09:57:08	877667	5e5c58012272eb4328419f08	2	1	main_z	24	advance_on_keypress_ZEE	106	stimuli_distractor_diamondtriangles.svg	stimuli_distractor_trianglediamonds.svg	37	no	57	0	242	6	4	antiphase_hc_sio.wav	1	6	1	noise_calib_stim_LEFT.wav	1	15	blb_dichoticlistening_ga-ga.mp3	ga	ga	0	other
6.6.1	win	2023-06-25	09:42:28	09:57:09	878943	5e5c58012272eb4328419f08	2	1	main_z	24	main_z	107	stimuli_target_rectangletriangles.svg	stimuli_distractor_trianglediamonds.svg	1	yes	44	1	400	6	4	antiphase_hc_sio.wav	1	6	1	noise_calib_stim_LEFT.wav	1	15	blb_dichoticlistening_ga-ga.mp3	ga	ga	0	other
6.6.1	win	2023-06-25	09:42:28	09:57:09	878943	5e5c58012272eb4328419f08	2	1	main_z	24	advance_on_keypress_ZEE	108	stimuli_target_rectangletriangles.svg	stimuli_distractor_trianglediamonds.svg	1	yes	57	0	177	6	4	antiphase_hc_sio.wav	1	6	1	noise_calib_stim_LEFT.wav	1	15	blb_dichoticlistening_ga-ga.mp3	ga	ga	0	other
6.6.1	win	2023-06-25	09:42:28	09:57:10	879811	5e5c58012272eb4328419f08	2	1	main_z	24	main_z	109	stimuli_distractor_trianglediamonds.svg	stimuli_target_diamondsquares.svg	28	yes	44	1	56	6	4	antiphase_hc_sio.wav	1	6	1	noise_calib_stim_LEFT.wav	1	15	blb_dichoticlistening_ga-ga.mp3	ga	ga	0	other
6.6.1	win	2023-06-25	09:42:28	09:57:10	879811	5e5c58012272eb4328419f08	2	1	main_z	24	advance_on_keypress_ZEE	110	stimuli_distractor_trianglediamonds.svg	stimuli_target_diamondsquares.svg	28	yes	57	0	224	6	4	antiphase_hc_sio.wav	1	6	1	noise_calib_stim_LEFT.wav	1	15	blb_dichoticlistening_ga-ga.mp3	ga	ga	0	other
6.6.1	win	2023-06-25	09:42:28	09:57:11	880862	5e5c58012272eb4328419f08	2	1	main_z	24	main_z	111	stimuli_target_diamondsquares.svg	stimuli_distractor_trianglediamonds.svg	20	yes	44	1	184	6	4	antiphase_hc_sio.wav	1	6	1	noise_calib_stim_LEFT.wav	1	15	blb_dichoticlistening_ga-ga.mp3	ga	ga	0	other
6.6.1	win	2023-06-25	09:42:28	09:57:11	880862	5e5c58012272eb4328419f08	2	1	main_z	24	advance_on_keypress_ZEE	112	stimuli_target_diamondsquares.svg	stimuli_distractor_trianglediamonds.svg	20	yes	57	0	226	6	4	antiphase_hc_sio.wav	1	6	1	noise_calib_stim_LEFT.wav	1	15	blb_dichoticlistening_ga-ga.mp3	ga	ga	0	other
6.6.1	win	2023-06-25	09:42:28	09:57:12	882024	5e5c58012272eb4328419f08	2	1	main_z	24	main_z	113	stimuli_target_squarediamonds.svg	stimuli_distractor_diamondtriangles.svg	8	yes	44	1	303	6	4	antiphase_hc_sio.wav	1	6	1	noise_calib_stim_LEFT.wav	1	15	blb_dichoticlistening_ga-ga.mp3	ga	ga	0	other
6.6.1	win	2023-06-25	09:42:28	09:57:12	882024	5e5c58012272eb4328419f08	2	1	main_z	24	advance_on_keypress_ZEE	114	stimuli_target_squarediamonds.svg	stimuli_distractor_diamondtriangles.svg	8	yes	57	0	147	6	4	antiphase_hc_sio.wav	1	6	1	noise_calib_stim_LEFT.wav	1	15	blb_dichoticlistening_ga-ga.mp3	ga	ga	0	other
6.6.1	win	2023-06-25	09:42:28	09:57:13	883059	5e5c58012272eb4328419f08	2	1	main_z	24	main_z	115	stimuli_target_rectangletriangles.svg	stimuli_distractor_diamondtriangles.svg	5	yes	44	1	244	6	4	antiphase_hc_sio.wav	1	6	1	noise_calib_stim_LEFT.wav	1	15	blb_dichoticlistening_ga-ga.mp3	ga	ga	0	other
6.6.1	win	2023-06-25	09:42:28	09:57:13	883059	5e5c58012272eb4328419f08	2	1	main_z	24	advance_on_keypress_ZEE	116	stimuli_target_rectangletriangles.svg	stimuli_distractor_diamondtriangles.svg	5	yes	57	0	1042	6	4	antiphase_hc_sio.wav	1	6	1	noise_calib_stim_LEFT.wav	1	15	blb_dichoticlistening_ga-ga.mp3	ga	ga	0	other
6.6.1	win	2023-06-25	09:42:28	09:57:15	885172	5e5c58012272eb4328419f08	2	1	main_z	24	main_z	117	stimuli_target_trianglesquares.svg	stimuli_distractor_trianglediamonds.svg	18	yes	44	1	432	6	4	antiphase_hc_sio.wav	1	6	1	noise_calib_stim_LEFT.wav	1	15	blb_dichoticlistening_ga-ga.mp3	ga	ga	0	other
6.6.1	win	2023-06-25	09:42:28	09:57:15	885172	5e5c58012272eb4328419f08	2	1	main_z	24	advance_on_keypress_ZEE	118	stimuli_target_trianglesquares.svg	stimuli_distractor_trianglediamonds.svg	18	yes	57	0	429	6	4	antiphase_hc_sio.wav	1	6	1	noise_calib_stim_LEFT.wav	1	15	blb_dichoticlistening_ga-ga.mp3	ga	ga	0	other
6.6.1	win	2023-06-25	09:42:28	09:57:17	886488	5e5c58012272eb4328419f08	2	1	main_z	24	main_z	119	stimuli_distractor_diamondtriangles.svg	stimuli_distractor_diamondtriangles.svg	39	no	44	0	253	6	4	antiphase_hc_sio.wav	1	6	1	noise_calib_stim_LEFT.wav	1	15	blb_dichoticlistening_ga-ga.mp3	ga	ga	0	other
6.6.1	win	2023-06-25	09:42:28	09:57:17	886488	5e5c58012272eb4328419f08	2	1	main_z	24	advance_on_keypress_ZEE	120	stimuli_distractor_diamondtriangles.svg	stimuli_distractor_diamondtriangles.svg	39	no	57	0	395	6	4	antiphase_hc_sio.wav	1	6	1	noise_calib_stim_LEFT.wav	1	15	blb_dichoticlistening_ga-ga.mp3	ga	ga	0	other
6.6.1	win	2023-06-25	09:42:28	09:57:18	887898	5e5c58012272eb4328419f08	2	1	main_z	24	main_z	121	stimuli_distractor_diamondtriangles.svg	stimuli_target_diamondsquares.svg	32	yes	44	1	385	6	4	antiphase_hc_sio.wav	1	6	1	noise_calib_stim_LEFT.wav	1	15	blb_dichoticlistening_ga-ga.mp3	ga	ga	0	other
6.6.1	win	2023-06-25	09:42:28	09:57:18	887898	5e5c58012272eb4328419f08	2	1	main_z	24	advance_on_keypress_ZEE	122	stimuli_distractor_diamondtriangles.svg	stimuli_target_diamondsquares.svg	32	yes	57	0	408	6	4	antiphase_hc_sio.wav	1	6	1	noise_calib_stim_LEFT.wav	1	15	blb_dichoticlistening_ga-ga.mp3	ga	ga	0	other
6.6.1	win	2023-06-25	09:42:28	09:57:21	890938	5e5c58012272eb4328419f08	2	1	main_z	24	main_z	123	stimuli_distractor_diamondtriangles.svg	stimuli_target_squarediamonds.svg	16	yes	0	0	2000	6	4	antiphase_hc_sio.wav	1	6	1	noise_calib_stim_LEFT.wav	1	15	blb_dichoticlistening_ga-ga.mp3	ga	ga	0	other
6.6.1	win	2023-06-25	09:42:28	09:57:21	890938	5e5c58012272eb4328419f08	2	1	main_z	24	advance_on_keypress_ZEE	124	stimuli_distractor_diamondtriangles.svg	stimuli_target_squarediamonds.svg	16	yes	57	0	481	6	4	antiphase_hc_sio.wav	1	6	1	noise_calib_stim_LEFT.wav	1	15	blb_dichoticlistening_ga-ga.mp3	ga	ga	0	other
6.6.1	win	2023-06-25	09:42:28	09:57:23	892669	5e5c58012272eb4328419f08	2	1	main_z	24	main_z	125	stimuli_distractor_diamondtriangles.svg	stimuli_target_trianglerectangles.svg	29	yes	44	1	618	6	4	antiphase_hc_sio.wav	1	6	1	noise_calib_stim_LEFT.wav	1	15	blb_dichoticlistening_ga-ga.mp3	ga	ga	0	other
6.6.1	win	2023-06-25	09:42:28	09:57:23	892669	5e5c58012272eb4328419f08	2	1	main_z	24	advance_on_keypress_ZEE	126	stimuli_distractor_diamondtriangles.svg	stimuli_target_trianglerectangles.svg	29	yes	57	0	882	6	4	antiphase_hc_sio.wav	1	6	1	noise_calib_stim_LEFT.wav	1	15	blb_dichoticlistening_ga-ga.mp3	ga	ga	0	other
6.6.1	win	2023-06-25	09:42:28	09:57:25	894644	5e5c58012272eb4328419f08	2	1	main_z	24	main_z	127	stimuli_distractor_trianglediamonds.svg	stimuli_target_rectangletriangles.svg	9	yes	44	1	460	6	4	antiphase_hc_sio.wav	1	6	1	noise_calib_stim_LEFT.wav	1	15	blb_dichoticlistening_ga-ga.mp3	ga	ga	0	other
6.6.1	win	2023-06-25	09:42:28	09:57:25	894644	5e5c58012272eb4328419f08	2	1	main_z	24	advance_on_keypress_ZEE	128	stimuli_distractor_trianglediamonds.svg	stimuli_target_rectangletriangles.svg	9	yes	57	0	646	6	4	antiphase_hc_sio.wav	1	6	1	noise_calib_stim_LEFT.wav	1	15	blb_dichoticlistening_ga-ga.mp3	ga	ga	0	other
6.6.1	win	2023-06-25	09:42:28	09:57:27	896403	5e5c58012272eb4328419f08	2	1	main_z	24	main_z	129	stimuli_distractor_diamondtriangles.svg	stimuli_distractor_trianglediamonds.svg	38	no	44	0	474	6	4	antiphase_hc_sio.wav	1	6	1	noise_calib_stim_LEFT.wav	1	15	blb_dichoticlistening_ga-ga.mp3	ga	ga	0	other
6.6.1	win	2023-06-25	09:42:28	09:57:27	896403	5e5c58012272eb4328419f08	2	1	main_z	24	advance_on_keypress_ZEE	130	stimuli_distractor_diamondtriangles.svg	stimuli_distractor_trianglediamonds.svg	38	no	57	0	514	6	4	antiphase_hc_sio.wav	1	6	1	noise_calib_stim_LEFT.wav	1	15	blb_dichoticlistening_ga-ga.mp3	ga	ga	0	other
6.6.1	win	2023-06-25	09:42:28	09:57:28	897898	5e5c58012272eb4328419f08	2	1	main_z	24	main_z	131	stimuli_distractor_trianglediamonds.svg	stimuli_target_squarediamonds.svg	12	yes	44	1	338	6	4	antiphase_hc_sio.wav	1	6	1	noise_calib_stim_LEFT.wav	1	15	blb_dichoticlistening_ga-ga.mp3	ga	ga	0	other
6.6.1	win	2023-06-25	09:42:28	09:57:28	897898	5e5c58012272eb4328419f08	2	1	main_z	24	advance_on_keypress_ZEE	132	stimuli_distractor_trianglediamonds.svg	stimuli_target_squarediamonds.svg	12	yes	57	0	806	6	4	antiphase_hc_sio.wav	1	6	1	noise_calib_stim_LEFT.wav	1	15	blb_dichoticlistening_ga-ga.mp3	ga	ga	0	other
6.6.1	win	2023-06-25	09:42:28	09:57:30	899596	5e5c58012272eb4328419f08	2	1	main_z	24	main_z	133	stimuli_target_diamondsquares.svg	stimuli_distractor_diamondtriangles.svg	24	yes	44	1	260	6	4	antiphase_hc_sio.wav	1	6	1	noise_calib_stim_LEFT.wav	1	15	blb_dichoticlistening_ga-ga.mp3	ga	ga	0	other
6.6.1	win	2023-06-25	09:42:28	09:57:30	899596	5e5c58012272eb4328419f08	2	1	main_z	24	advance_on_keypress_ZEE	134	stimuli_target_diamondsquares.svg	stimuli_distractor_diamondtriangles.svg	24	yes	57	0	302	6	4	antiphase_hc_sio.wav	1	6	1	noise_calib_stim_LEFT.wav	1	15	blb_dichoticlistening_ga-ga.mp3	ga	ga	0	other
6.6.1	win	2023-06-25	09:42:28	09:57:31	900625	5e5c58012272eb4328419f08	2	1	main_z	24	main_z	135	stimuli_distractor_trianglediamonds.svg	stimuli_distractor_trianglediamonds.svg	33	no	44	0	86	6	4	antiphase_hc_sio.wav	1	6	1	noise_calib_stim_LEFT.wav	1	15	blb_dichoticlistening_ga-ga.mp3	ga	ga	0	other
6.6.1	win	2023-06-25	09:42:28	09:57:31	900625	5e5c58012272eb4328419f08	2	1	main_z	24	advance_on_keypress_ZEE	136	stimuli_distractor_trianglediamonds.svg	stimuli_distractor_trianglediamonds.svg	33	no	57	0	978	6	4	antiphase_hc_sio.wav	1	6	1	noise_calib_stim_LEFT.wav	1	15	blb_dichoticlistening_ga-ga.mp3	ga	ga	0	other
6.6.1	win	2023-06-25	09:42:28	09:57:34	904233	5e5c58012272eb4328419f08	2	1	main_z	24	main_z	137	stimuli_distractor_diamondtriangles.svg	stimuli_target_diamondrectangles.svg	31	yes	0	0	2000	6	4	antiphase_hc_sio.wav	1	6	1	noise_calib_stim_LEFT.wav	1	15	blb_dichoticlistening_ga-ga.mp3	ga	ga	0	other
6.6.1	win	2023-06-25	09:42:28	09:57:34	904233	5e5c58012272eb4328419f08	2	1	main_z	24	advance_on_keypress_ZEE	138	stimuli_distractor_diamondtriangles.svg	stimuli_target_diamondrectangles.svg	31	yes	57	0	522	6	4	antiphase_hc_sio.wav	1	6	1	noise_calib_stim_LEFT.wav	1	15	blb_dichoticlistening_ga-ga.mp3	ga	ga	0	other
6.6.1	win	2023-06-25	09:42:28	09:57:36	905932	5e5c58012272eb4328419f08	2	1	main_z	24	main_z	139	stimuli_distractor_trianglediamonds.svg	stimuli_target_trianglesquares.svg	26	yes	44	1	543	6	4	antiphase_hc_sio.wav	1	6	1	noise_calib_stim_LEFT.wav	1	15	blb_dichoticlistening_ga-ga.mp3	ga	ga	0	other
6.6.1	win	2023-06-25	09:42:28	09:57:36	905932	5e5c58012272eb4328419f08	2	1	main_z	24	advance_on_keypress_ZEE	140	stimuli_distractor_trianglediamonds.svg	stimuli_target_trianglesquares.svg	26	yes	57	0	431	6	4	antiphase_hc_sio.wav	1	6	1	noise_calib_stim_LEFT.wav	1	15	blb_dichoticlistening_ga-ga.mp3	ga	ga	0	other
6.6.1	win	2023-06-25	09:42:28	09:57:38	907386	5e5c58012272eb4328419f08	2	1	main_z	24	main_z	141	stimuli_target_trianglesquares.svg	stimuli_distractor_diamondtriangles.svg	22	yes	44	1	384	6	4	antiphase_hc_sio.wav	1	6	1	noise_calib_stim_LEFT.wav	1	15	blb_dichoticlistening_ga-ga.mp3	ga	ga	0	other
6.6.1	win	2023-06-25	09:42:28	09:57:38	907386	5e5c58012272eb4328419f08	2	1	main_z	24	advance_on_keypress_ZEE	142	stimuli_target_trianglesquares.svg	stimuli_distractor_diamondtriangles.svg	22	yes	57	0	226	6	4	antiphase_hc_sio.wav	1	6	1	noise_calib_stim_LEFT.wav	1	15	blb_dichoticlistening_ga-ga.mp3	ga	ga	0	other
6.6.1	win	2023-06-25	09:42:28	09:57:39	908472	5e5c58012272eb4328419f08	2	1	main_z	24	main_z	143	stimuli_target_diamondrectangles.svg	stimuli_distractor_trianglediamonds.svg	19	yes	44	1	227	6	4	antiphase_hc_sio.wav	1	6	1	noise_calib_stim_LEFT.wav	1	15	blb_dichoticlistening_ga-ga.mp3	ga	ga	0	other
6.6.1	win	2023-06-25	09:42:28	09:57:39	908472	5e5c58012272eb4328419f08	2	1	main_z	24	advance_on_keypress_ZEE	144	stimuli_target_diamondrectangles.svg	stimuli_distractor_trianglediamonds.svg	19	yes	57	0	89	6	4	antiphase_hc_sio.wav	1	6	1	noise_calib_stim_LEFT.wav	1	15	blb_dichoticlistening_ga-ga.mp3	ga	ga	0	other
6.6.1	win	2023-06-25	09:42:28	09:57:39	909229	5e5c58012272eb4328419f08	2	1	main_z	24	main_z	145	stimuli_target_rectanglediamonds.svg	stimuli_distractor_trianglediamonds.svg	2	yes	44	1	27	6	4	antiphase_hc_sio.wav	1	6	1	noise_calib_stim_LEFT.wav	1	15	blb_dichoticlistening_ga-ga.mp3	ga	ga	0	other
6.6.1	win	2023-06-25	09:42:28	09:57:39	909229	5e5c58012272eb4328419f08	2	1	main_z	24	advance_on_keypress_ZEE	146	stimuli_target_rectanglediamonds.svg	stimuli_distractor_trianglediamonds.svg	2	yes	57	0	158	6	4	antiphase_hc_sio.wav	1	6	1	noise_calib_stim_LEFT.wav	1	15	blb_dichoticlistening_ga-ga.mp3	ga	ga	0	other
6.6.1	win	2023-06-25	09:42:28	09:57:40	910152	5e5c58012272eb4328419f08	2	1	main_z	24	main_z	147	stimuli_distractor_diamondtriangles.svg	stimuli_target_rectangletriangles.svg	13	yes	44	1	120	6	4	antiphase_hc_sio.wav	1	6	1	noise_calib_stim_LEFT.wav	1	15	blb_dichoticlistening_ga-ga.mp3	ga	ga	0	other
6.6.1	win	2023-06-25	09:42:28	09:57:40	910152	5e5c58012272eb4328419f08	2	1	main_z	24	advance_on_keypress_ZEE	148	stimuli_distractor_diamondtriangles.svg	stimuli_target_rectangletriangles.svg	13	yes	57	0	133	6	4	antiphase_hc_sio.wav	1	6	1	noise_calib_stim_LEFT.wav	1	15	blb_dichoticlistening_ga-ga.mp3	ga	ga	0	other
6.6.1	win	2023-06-25	09:42:28	09:57:41	910990	5e5c58012272eb4328419f08	2	1	main_z	24	main_z	149	stimuli_target_squaretriangles.svg	stimuli_distractor_diamondtriangles.svg	7	yes	44	1	55	6	4	antiphase_hc_sio.wav	1	6	1	noise_calib_stim_LEFT.wav	1	15	blb_dichoticlistening_ga-ga.mp3	ga	ga	0	other
6.6.1	win	2023-06-25	09:42:28	09:57:41	910990	5e5c58012272eb4328419f08	2	1	main_z	24	advance_on_keypress_ZEE	150	stimuli_target_squaretriangles.svg	stimuli_distractor_diamondtriangles.svg	7	yes	57	0	187	6	4	antiphase_hc_sio.wav	1	6	1	noise_calib_stim_LEFT.wav	1	15	blb_dichoticlistening_ga-ga.mp3	ga	ga	0	other
6.6.1	win	2023-06-25	09:42:28	09:57:42	911850	5e5c58012272eb4328419f08	2	1	main_z	24	main_z	151	stimuli_distractor_trianglediamonds.svg	stimuli_target_rectanglediamonds.svg	10	yes	44	1	44	6	4	antiphase_hc_sio.wav	1	6	1	noise_calib_stim_LEFT.wav	1	15	blb_dichoticlistening_ga-ga.mp3	ga	ga	0	other
6.6.1	win	2023-06-25	09:42:28	09:57:42	911850	5e5c58012272eb4328419f08	2	1	main_z	24	advance_on_keypress_ZEE	152	stimuli_distractor_trianglediamonds.svg	stimuli_target_rectanglediamonds.svg	10	yes	57	0	156	6	4	antiphase_hc_sio.wav	1	6	1	noise_calib_stim_LEFT.wav	1	15	blb_dichoticlistening_ga-ga.mp3	ga	ga	0	other
6.6.1	win	2023-06-25	09:42:28	09:57:43	912685	5e5c58012272eb4328419f08	2	1	main_z	24	main_z	153	stimuli_distractor_trianglediamonds.svg	stimuli_target_trianglerectangles.svg	25	yes	44	1	37	6	4	antiphase_hc_sio.wav	1	6	1	noise_calib_stim_LEFT.wav	1	15	blb_dichoticlistening_ga-ga.mp3	ga	ga	0	other
6.6.1	win	2023-06-25	09:42:28	09:57:43	912685	5e5c58012272eb4328419f08	2	1	main_z	24	advance_on_keypress_ZEE	154	stimuli_distractor_trianglediamonds.svg	stimuli_target_trianglerectangles.svg	25	yes	57	0	116	6	4	antiphase_hc_sio.wav	1	6	1	noise_calib_stim_LEFT.wav	1	15	blb_dichoticlistening_ga-ga.mp3	ga	ga	0	other
6.6.1	win	2023-06-25	09:42:28	09:57:44	913477	5e5c58012272eb4328419f08	2	1	main_z	24	main_z	155	stimuli_target_squaretriangles.svg	stimuli_distractor_trianglediamonds.svg	3	yes	44	1	38	6	4	antiphase_hc_sio.wav	1	6	1	noise_calib_stim_LEFT.wav	1	15	blb_dichoticlistening_ga-ga.mp3	ga	ga	0	other
6.6.1	win	2023-06-25	09:42:28	09:57:44	913477	5e5c58012272eb4328419f08	2	1	main_z	24	advance_on_keypress_ZEE	156	stimuli_target_squaretriangles.svg	stimuli_distractor_trianglediamonds.svg	3	yes	57	0	50	6	4	antiphase_hc_sio.wav	1	6	1	noise_calib_stim_LEFT.wav	1	15	blb_dichoticlistening_ga-ga.mp3	ga	ga	0	other
6.6.1	win	2023-06-25	09:42:28	09:57:46	916165	5e5c58012272eb4328419f08	2	1	main_z	24	main_z	157	stimuli_target_trianglerectangles.svg	stimuli_distractor_trianglediamonds.svg	17	yes	0	0	2000	6	4	antiphase_hc_sio.wav	1	6	1	noise_calib_stim_LEFT.wav	1	15	blb_dichoticlistening_ga-ga.mp3	ga	ga	0	other
6.6.1	win	2023-06-25	09:42:28	09:57:46	916165	5e5c58012272eb4328419f08	2	1	main_z	24	advance_on_keypress_ZEE	158	stimuli_target_trianglerectangles.svg	stimuli_distractor_trianglediamonds.svg	17	yes	57	0	627	6	4	antiphase_hc_sio.wav	1	6	1	noise_calib_stim_LEFT.wav	1	15	blb_dichoticlistening_ga-ga.mp3	ga	ga	0	other
6.6.1	win	2023-06-25	09:42:28	09:57:48	917961	5e5c58012272eb4328419f08	2	1	main_z	24	main_z	159	stimuli_distractor_diamondtriangles.svg	stimuli_target_rectanglediamonds.svg	14	yes	44	1	537	6	4	antiphase_hc_sio.wav	1	6	1	noise_calib_stim_LEFT.wav	1	15	blb_dichoticlistening_ga-ga.mp3	ga	ga	0	other
6.6.1	win	2023-06-25	09:42:28	09:57:48	917961	5e5c58012272eb4328419f08	2	1	main_z	24	advance_on_keypress_ZEE	160	stimuli_distractor_diamondtriangles.svg	stimuli_target_rectanglediamonds.svg	14	yes	57	0	321	6	4	antiphase_hc_sio.wav	1	6	1	noise_calib_stim_LEFT.wav	1	15	blb_dichoticlistening_ga-ga.mp3	ga	ga	0	other
6.6.1	win	2023-06-25	09:42:28	09:58:08	937474	5e5c58012272eb4328419f08	2	1	practice_slash	26	practice_slash	1	stimuli_distractor_trianglediamonds.svg	stimuli_distractor_diamondtriangles.svg	16	no	53	0	693	6	4	antiphase_hc_sio.wav	1	6	1	noise_calib_stim_LEFT.wav	1	15	blb_dichoticlistening_ga-ga.mp3	ga	ga	0	other
6.6.1	win	2023-06-25	09:42:28	09:58:08	937474	5e5c58012272eb4328419f08	2	1	practice_slash	26	advance_on_keypress_SLASH	2	stimuli_distractor_trianglediamonds.svg	stimuli_distractor_diamondtriangles.svg	16	no	57	0	1105	6	4	antiphase_hc_sio.wav	1	6	1	noise_calib_stim_LEFT.wav	1	15	blb_dichoticlistening_ga-ga.mp3	ga	ga	0	other
6.6.1	win	2023-06-25	09:42:28	09:58:11	940739	5e5c58012272eb4328419f08	2	1	practice_slash	26	practice_slash	3	stimuli_distractor_diamondtriangles.svg	stimuli_distractor_diamondtriangles.svg	13	no	53	0	526	6	4	antiphase_hc_sio.wav	1	6	1	noise_calib_stim_LEFT.wav	1	15	blb_dichoticlistening_ga-ga.mp3	ga	ga	0	other
6.6.1	win	2023-06-25	09:42:28	09:58:11	940739	5e5c58012272eb4328419f08	2	1	practice_slash	26	advance_on_keypress_SLASH	4	stimuli_distractor_diamondtriangles.svg	stimuli_distractor_diamondtriangles.svg	13	no	57	0	582	6	4	antiphase_hc_sio.wav	1	6	1	noise_calib_stim_LEFT.wav	1	15	blb_dichoticlistening_ga-ga.mp3	ga	ga	0	other
6.6.1	win	2023-06-25	09:42:28	09:58:14	943289	5e5c58012272eb4328419f08	2	1	practice_slash	26	practice_slash	5	stimuli_target_squarediamonds.svg	stimuli_distractor_trianglediamonds.svg	5	yes	53	1	334	6	4	antiphase_hc_sio.wav	1	6	1	noise_calib_stim_LEFT.wav	1	15	blb_dichoticlistening_ga-ga.mp3	ga	ga	0	other
6.6.1	win	2023-06-25	09:42:28	09:58:14	943289	5e5c58012272eb4328419f08	2	1	practice_slash	26	advance_on_keypress_SLASH	6	stimuli_target_squarediamonds.svg	stimuli_distractor_trianglediamonds.svg	5	yes	57	0	554	6	4	antiphase_hc_sio.wav	1	6	1	noise_calib_stim_LEFT.wav	1	15	blb_dichoticlistening_ga-ga.mp3	ga	ga	0	other
6.6.1	win	2023-06-25	09:42:28	09:58:16	945892	5e5c58012272eb4328419f08	2	1	practice_slash	26	practice_slash	7	stimuli_target_rectanglediamonds.svg	stimuli_distractor_diamondtriangles.svg	1	yes	53	1	415	6	4	antiphase_hc_sio.wav	1	6	1	noise_calib_stim_LEFT.wav	1	15	blb_dichoticlistening_ga-ga.mp3	ga	ga	0	other
6.6.1	win	2023-06-25	09:42:28	09:58:16	945892	5e5c58012272eb4328419f08	2	1	practice_slash	26	advance_on_keypress_SLASH	8	stimuli_target_rectanglediamonds.svg	stimuli_distractor_diamondtriangles.svg	1	yes	57	0	477	6	4	antiphase_hc_sio.wav	1	6	1	noise_calib_stim_LEFT.wav	1	15	blb_dichoticlistening_ga-ga.mp3	ga	ga	0	other
6.6.1	win	2023-06-25	09:42:28	09:58:19	948448	5e5c58012272eb4328419f08	2	1	practice_slash	26	practice_slash	9	stimuli_target_squarediamonds.svg	stimuli_distractor_diamondtriangles.svg	2	yes	53	1	445	6	4	antiphase_hc_sio.wav	1	6	1	noise_calib_stim_LEFT.wav	1	15	blb_dichoticlistening_ga-ga.mp3	ga	ga	0	other
6.6.1	win	2023-06-25	09:42:28	09:58:19	948448	5e5c58012272eb4328419f08	2	1	practice_slash	26	advance_on_keypress_SLASH	10	stimuli_target_squarediamonds.svg	stimuli_distractor_diamondtriangles.svg	2	yes	57	0	476	6	4	antiphase_hc_sio.wav	1	6	1	noise_calib_stim_LEFT.wav	1	15	blb_dichoticlistening_ga-ga.mp3	ga	ga	0	other
6.6.1	win	2023-06-25	09:42:28	09:58:23	952559	5e5c58012272eb4328419f08	2	1	practice_slash	26	practice_slash	11	stimuli_target_diamondsquares.svg	stimuli_distractor_diamondtriangles.svg	3	yes	0	0	2000	6	4	antiphase_hc_sio.wav	1	6	1	noise_calib_stim_LEFT.wav	1	15	blb_dichoticlistening_ga-ga.mp3	ga	ga	0	other
6.6.1	win	2023-06-25	09:42:28	09:58:23	952559	5e5c58012272eb4328419f08	2	1	practice_slash	26	advance_on_keypress_SLASH	12	stimuli_target_diamondsquares.svg	stimuli_distractor_diamondtriangles.svg	3	yes	57	0	703	6	4	antiphase_hc_sio.wav	1	6	1	noise_calib_stim_LEFT.wav	1	15	blb_dichoticlistening_ga-ga.mp3	ga	ga	0	other
6.6.1	win	2023-06-25	09:42:28	09:58:26	955302	5e5c58012272eb4328419f08	2	1	practice_slash	26	practice_slash	13	stimuli_distractor_diamondtriangles.svg	stimuli_target_diamondrectangles.svg	8	yes	53	1	406	6	4	antiphase_hc_sio.wav	1	6	1	noise_calib_stim_LEFT.wav	1	15	blb_dichoticlistening_ga-ga.mp3	ga	ga	0	other
6.6.1	win	2023-06-25	09:42:28	09:58:26	955302	5e5c58012272eb4328419f08	2	1	practice_slash	26	advance_on_keypress_SLASH	14	stimuli_distractor_diamondtriangles.svg	stimuli_target_diamondrectangles.svg	8	yes	57	0	646	6	4	antiphase_hc_sio.wav	1	6	1	noise_calib_stim_LEFT.wav	1	15	blb_dichoticlistening_ga-ga.mp3	ga	ga	0	other
6.6.1	win	2023-06-25	09:42:28	09:58:28	958002	5e5c58012272eb4328419f08	2	1	practice_slash	26	practice_slash	15	stimuli_distractor_trianglediamonds.svg	stimuli_target_rectanglediamonds.svg	10	yes	53	1	421	6	4	antiphase_hc_sio.wav	1	6	1	noise_calib_stim_LEFT.wav	1	15	blb_dichoticlistening_ga-ga.mp3	ga	ga	0	other
6.6.1	win	2023-06-25	09:42:28	09:58:28	958002	5e5c58012272eb4328419f08	2	1	practice_slash	26	advance_on_keypress_SLASH	16	stimuli_distractor_trianglediamonds.svg	stimuli_target_rectanglediamonds.svg	10	yes	57	0	474	6	4	antiphase_hc_sio.wav	1	6	1	noise_calib_stim_LEFT.wav	1	15	blb_dichoticlistening_ga-ga.mp3	ga	ga	0	other
6.6.1	win	2023-06-25	09:42:28	09:58:31	960555	5e5c58012272eb4328419f08	2	1	practice_slash	26	practice_slash	17	stimuli_distractor_diamondtriangles.svg	stimuli_target_rectangletriangles.svg	7	yes	53	1	445	6	4	antiphase_hc_sio.wav	1	6	1	noise_calib_stim_LEFT.wav	1	15	blb_dichoticlistening_ga-ga.mp3	ga	ga	0	other
6.6.1	win	2023-06-25	09:42:28	09:58:31	960555	5e5c58012272eb4328419f08	2	1	practice_slash	26	advance_on_keypress_SLASH	18	stimuli_distractor_diamondtriangles.svg	stimuli_target_rectangletriangles.svg	7	yes	57	0	472	6	4	antiphase_hc_sio.wav	1	6	1	noise_calib_stim_LEFT.wav	1	15	blb_dichoticlistening_ga-ga.mp3	ga	ga	0	other
6.6.1	win	2023-06-25	09:42:28	09:58:33	963131	5e5c58012272eb4328419f08	2	1	practice_slash	26	practice_slash	19	stimuli_distractor_diamondtriangles.svg	stimuli_distractor_trianglediamonds.svg	14	no	53	0	469	6	4	antiphase_hc_sio.wav	1	6	1	noise_calib_stim_LEFT.wav	1	15	blb_dichoticlistening_ga-ga.mp3	ga	ga	0	other
