build	computer.platform	date	time	timestamp	time_elapsed_ms	subject	group	session	blockcode	blocknum	trialcode	trialnum	stimulus_left	stimulus_right	stim_index	target_present	response	correct	latency	headphonecheck_countTestTrials	headphonecheck_index	headphonecheck_testSound	headphonecheck_correctResponse	stereocheck_countTestTrials	stereocheck_index	stereocheck_testSound	stereocheck_correctResponse	DL_index	DL_soundfile	DL_leftSound	DL_rightSound	DL_dualSound	DL_choice
6.6.0	win	2023-06-02	00:11:11	0	0	63ffcb367b500c516d0648a2	1	1	headphonecheck_calibration	4	headphonecheck_calibrationIntro	1			0		calibrationButton	0	1649	0	0			0	0			1				0	
6.6.0	win	2023-06-02	00:11:11	0	0	63ffcb367b500c516d0648a2	1	1	headphonecheck_testphase	5	test_collectResponse	3			0		third	0	531	1	4	antiphase_hc_sio.wav	1	0	0			1				0	
6.6.0	win	2023-06-02	00:11:11	0	0	63ffcb367b500c516d0648a2	1	1	headphonecheck_testphase	5	test_collectResponse	6			0		first	0	243	2	5	antiphase_hc_osi.wav	2	0	0			1				0	
6.6.0	win	2023-06-02	00:11:11	0	0	63ffcb367b500c516d0648a2	1	1	headphonecheck_testphase	5	test_collectResponse	9			0		second	0	138	3	2	antiphase_hc_ios.wav	3	0	0			1				0	
6.6.0	win	2023-06-02	00:11:11	0	0	63ffcb367b500c516d0648a2	1	1	headphonecheck_testphase	5	test_collectResponse	12			0		second	0	150	4	3	antiphase_hc_soi.wav	1	0	0			1				0	
6.6.0	win	2023-06-02	00:11:11	0	0	63ffcb367b500c516d0648a2	1	1	headphonecheck_testphase	5	test_collectResponse	15			0		third	1	1326	5	6	antiphase_hc_ois.wav	3	0	0			1				0	
6.6.0	win	2023-06-02	00:11:11	0	0	63ffcb367b500c516d0648a2	1	1	headphonecheck_testphase	5	test_collectResponse	18			0		third	0	117	6	1	antiphase_hc_iso.wav	2	0	0			1				0	
6.6.0	win	2023-06-02	00:11:11	0	0	63ffcb367b500c516d0648a2	1	1	stereocheck_calibration	7	stereocheck_calibrationIntro	1			0		stereocheck_calibrationButton	0	5101	6	1	antiphase_hc_iso.wav	2	0	0			1				0	
6.6.0	win	2023-06-02	00:11:11	0	0	63ffcb367b500c516d0648a2	1	1	stereocheck_testphase	8	stereocheck_test_collectResponse	3			0		stereocheck_left	1	937	6	1	antiphase_hc_iso.wav	2	1	2	noise_calib_stim_LEFT.wav	1	1				0	
6.6.0	win	2023-06-02	00:11:11	0	0	63ffcb367b500c516d0648a2	1	1	stereocheck_testphase	8	stereocheck_test_collectResponse	6			0		stereocheck_right	1	244	6	1	antiphase_hc_iso.wav	2	2	6	noise_calib_stim_RIGHT.wav	2	1				0	
6.6.0	win	2023-06-02	00:11:11	0	0	63ffcb367b500c516d0648a2	1	1	stereocheck_testphase	8	stereocheck_test_collectResponse	9			0		stereocheck_right	1	218	6	1	antiphase_hc_iso.wav	2	3	4	noise_calib_stim_RIGHT.wav	2	1				0	
6.6.0	win	2023-06-02	00:11:11	0	0	63ffcb367b500c516d0648a2	1	1	stereocheck_testphase	8	stereocheck_test_collectResponse	12			0		stereocheck_right	1	445	6	1	antiphase_hc_iso.wav	2	4	5	noise_calib_stim_RIGHT.wav	2	1				0	
6.6.0	win	2023-06-02	00:11:11	0	0	63ffcb367b500c516d0648a2	1	1	stereocheck_testphase	8	stereocheck_test_collectResponse	15			0		stereocheck_left	1	440	6	1	antiphase_hc_iso.wav	2	5	1	noise_calib_stim_LEFT.wav	1	1				0	
6.6.0	win	2023-06-02	00:11:11	0	0	63ffcb367b500c516d0648a2	1	1	stereocheck_testphase	8	stereocheck_test_collectResponse	18			0		stereocheck_left	1	251	6	1	antiphase_hc_iso.wav	2	6	3	noise_calib_stim_LEFT.wav	1	1				0	
6.6.0	win	2023-06-02	00:11:11	0	0	63ffcb367b500c516d0648a2	1	1	DL_practice	11	DL_practice	2			0		pa	1	1536	6	1	antiphase_hc_iso.wav	2	6	3	noise_calib_stim_LEFT.wav	1	29	blb_dichoticlistening_pa-pa.mp3	pa	pa	0	left
6.6.0	win	2023-06-02	00:11:11	0	0	63ffcb367b500c516d0648a2	1	1	DL_practice	11	DL_practice	3			0		ga	1	2284	6	1	antiphase_hc_iso.wav	2	6	3	noise_calib_stim_LEFT.wav	1	18	blb_dichoticlistening_ga-ta.mp3	ga	ta	1	left
6.6.0	win	2023-06-02	00:11:11	0	0	63ffcb367b500c516d0648a2	1	1	DL_practice	11	DL_practice	4			0		ba	1	1641	6	1	antiphase_hc_iso.wav	2	6	3	noise_calib_stim_LEFT.wav	1	1	blb_dichoticlistening_ba-ba.mp3	ba	ba	0	left
6.6.0	win	2023-06-02	00:11:11	0	0	63ffcb367b500c516d0648a2	1	1	DL_practice	11	DL_practice	5			0		pa	0	1336	6	1	antiphase_hc_iso.wav	2	6	3	noise_calib_stim_LEFT.wav	1	7	blb_dichoticlistening_da-ba.mp3	da	ba	1	other
6.6.0	win	2023-06-02	00:11:11	0	0	63ffcb367b500c516d0648a2	1	1	DL_practice	11	DL_practice	6			0		ga	1	1098	6	1	antiphase_hc_iso.wav	2	6	3	noise_calib_stim_LEFT.wav	1	15	blb_dichoticlistening_ga-ga.mp3	ga	ga	0	left
6.6.0	win	2023-06-02	00:11:11	0	0	63ffcb367b500c516d0648a2	1	1	DL_practice	11	DL_practice	7			0		ka	1	923	6	1	antiphase_hc_iso.wav	2	6	3	noise_calib_stim_LEFT.wav	1	22	blb_dichoticlistening_ka-ka.mp3	ka	ka	0	left
6.6.0	win	2023-06-02	00:11:11	0	0	63ffcb367b500c516d0648a2	1	1	DL_practice	11	DL_practice	8			0		da	1	979	6	1	antiphase_hc_iso.wav	2	6	3	noise_calib_stim_LEFT.wav	1	8	blb_dichoticlistening_da-da.mp3	da	da	0	left
6.6.0	win	2023-06-02	00:11:11	0	0	63ffcb367b500c516d0648a2	1	1	DL_practice	11	DL_practice	9			0		ta	1	1379	6	1	antiphase_hc_iso.wav	2	6	3	noise_calib_stim_LEFT.wav	1	36	blb_dichoticlistening_ta-ta.mp3	ta	ta	0	left
6.6.0	win	2023-06-02	00:11:11	0	0	63ffcb367b500c516d0648a2	1	1	DL_practice	11	DL_practice	10			0		ka	1	992	6	1	antiphase_hc_iso.wav	2	6	3	noise_calib_stim_LEFT.wav	1	23	blb_dichoticlistening_ka-pa.mp3	ka	pa	1	left
6.6.0	win	2023-06-02	00:11:11	0	0	63ffcb367b500c516d0648a2	1	1	DL_test	13	DL_test	1			0		da	1	1299	6	1	antiphase_hc_iso.wav	2	6	3	noise_calib_stim_LEFT.wav	1	32	blb_dichoticlistening_ta-da.mp3	ta	da	1	right
6.6.0	win	2023-06-02	00:11:11	0	0	63ffcb367b500c516d0648a2	1	1	DL_test	13	DL_test	2			0		ga	1	769	6	1	antiphase_hc_iso.wav	2	6	3	noise_calib_stim_LEFT.wav	1	17	blb_dichoticlistening_ga-pa.mp3	ga	pa	1	left
6.6.0	win	2023-06-02	00:11:11	0	0	63ffcb367b500c516d0648a2	1	1	DL_test	13	DL_test	3			0		pa	0	1063	6	1	antiphase_hc_iso.wav	2	6	3	noise_calib_stim_LEFT.wav	1	19	blb_dichoticlistening_ka-ba.mp3	ka	ba	1	other
6.6.0	win	2023-06-02	00:11:11	0	0	63ffcb367b500c516d0648a2	1	1	DL_test	13	DL_test	4			0		da	0	1882	6	1	antiphase_hc_iso.wav	2	6	3	noise_calib_stim_LEFT.wav	1	31	blb_dichoticlistening_ta-ba.mp3	ta	ba	1	other
6.6.0	win	2023-06-02	00:11:11	0	0	63ffcb367b500c516d0648a2	1	1	DL_test	13	DL_test	5			0		ba	1	1719	6	1	antiphase_hc_iso.wav	2	6	3	noise_calib_stim_LEFT.wav	1	3	blb_dichoticlistening_ba-ga.mp3	ba	ga	1	left
6.6.0	win	2023-06-02	00:11:11	0	0	63ffcb367b500c516d0648a2	1	1	DL_test	13	DL_test	6			0		ta	1	1333	6	1	antiphase_hc_iso.wav	2	6	3	noise_calib_stim_LEFT.wav	1	36	blb_dichoticlistening_ta-ta.mp3	ta	ta	0	left
6.6.0	win	2023-06-02	00:11:11	0	0	63ffcb367b500c516d0648a2	1	1	DL_test	13	DL_test	7			0		ga	1	606	6	1	antiphase_hc_iso.wav	2	6	3	noise_calib_stim_LEFT.wav	1	9	blb_dichoticlistening_da-ga.mp3	da	ga	1	right
6.6.0	win	2023-06-02	00:11:11	0	0	63ffcb367b500c516d0648a2	1	1	DL_test	13	DL_test	8			0		ga	1	1804	6	1	antiphase_hc_iso.wav	2	6	3	noise_calib_stim_LEFT.wav	1	18	blb_dichoticlistening_ga-ta.mp3	ga	ta	1	left
6.6.0	win	2023-06-02	00:11:11	0	0	63ffcb367b500c516d0648a2	1	1	DL_test	13	DL_test	9			0		da	1	1000	6	1	antiphase_hc_iso.wav	2	6	3	noise_calib_stim_LEFT.wav	1	8	blb_dichoticlistening_da-da.mp3	da	da	0	left
6.6.0	win	2023-06-02	00:11:11	0	0	63ffcb367b500c516d0648a2	1	1	DL_test	13	DL_test	10			0		ga	1	789	6	1	antiphase_hc_iso.wav	2	6	3	noise_calib_stim_LEFT.wav	1	15	blb_dichoticlistening_ga-ga.mp3	ga	ga	0	left
6.6.0	win	2023-06-02	00:11:11	0	0	63ffcb367b500c516d0648a2	1	1	DL_test	13	DL_test	11			0		ka	1	896	6	1	antiphase_hc_iso.wav	2	6	3	noise_calib_stim_LEFT.wav	1	23	blb_dichoticlistening_ka-pa.mp3	ka	pa	1	left
6.6.0	win	2023-06-02	00:11:11	0	0	63ffcb367b500c516d0648a2	1	1	DL_test	13	DL_test	12			0		ta	1	1397	6	1	antiphase_hc_iso.wav	2	6	3	noise_calib_stim_LEFT.wav	1	30	blb_dichoticlistening_pa-ta.mp3	pa	ta	1	right
6.6.0	win	2023-06-02	00:11:11	0	0	63ffcb367b500c516d0648a2	1	1	DL_test	13	DL_test	13			0		ba	1	1204	6	1	antiphase_hc_iso.wav	2	6	3	noise_calib_stim_LEFT.wav	1	2	blb_dichoticlistening_ba-da.mp3	ba	da	1	left
6.6.0	win	2023-06-02	00:11:11	0	0	63ffcb367b500c516d0648a2	1	1	DL_test	13	DL_test	14			0		da	1	898	6	1	antiphase_hc_iso.wav	2	6	3	noise_calib_stim_LEFT.wav	1	26	blb_dichoticlistening_pa-da.mp3	pa	da	1	right
6.6.0	win	2023-06-02	00:11:11	0	0	63ffcb367b500c516d0648a2	1	1	DL_test	13	DL_test	15			0		ba	1	2171	6	1	antiphase_hc_iso.wav	2	6	3	noise_calib_stim_LEFT.wav	1	1	blb_dichoticlistening_ba-ba.mp3	ba	ba	0	left
6.6.0	win	2023-06-02	00:11:11	0	0	63ffcb367b500c516d0648a2	1	1	DL_test	13	DL_test	16			0		ka	1	4241	6	1	antiphase_hc_iso.wav	2	6	3	noise_calib_stim_LEFT.wav	1	28	blb_dichoticlistening_pa-ka.mp3	pa	ka	1	right
6.6.0	win	2023-06-02	00:11:11	0	0	63ffcb367b500c516d0648a2	1	1	DL_test	13	DL_test	17			0		da	1	2538	6	1	antiphase_hc_iso.wav	2	6	3	noise_calib_stim_LEFT.wav	1	11	blb_dichoticlistening_da-pa.mp3	da	pa	1	left
6.6.0	win	2023-06-02	00:11:11	0	0	63ffcb367b500c516d0648a2	1	1	DL_test	13	DL_test	18			0		da	1	1385	6	1	antiphase_hc_iso.wav	2	6	3	noise_calib_stim_LEFT.wav	1	7	blb_dichoticlistening_da-ba.mp3	da	ba	1	left
6.6.0	win	2023-06-02	00:11:11	0	0	63ffcb367b500c516d0648a2	1	1	DL_test	13	DL_test	19			0		da	1	848	6	1	antiphase_hc_iso.wav	2	6	3	noise_calib_stim_LEFT.wav	1	10	blb_dichoticlistening_da-ka.mp3	da	ka	1	left
6.6.0	win	2023-06-02	00:11:11	0	0	63ffcb367b500c516d0648a2	1	1	DL_test	13	DL_test	20			0		ba	1	997	6	1	antiphase_hc_iso.wav	2	6	3	noise_calib_stim_LEFT.wav	1	13	blb_dichoticlistening_ga-ba.mp3	ga	ba	1	right
6.6.0	win	2023-06-02	00:11:11	0	0	63ffcb367b500c516d0648a2	1	1	DL_test	13	DL_test	21			0		ga	0	939	6	1	antiphase_hc_iso.wav	2	6	3	noise_calib_stim_LEFT.wav	1	20	blb_dichoticlistening_ka-da.mp3	ka	da	1	other
6.6.0	win	2023-06-02	00:11:11	0	0	63ffcb367b500c516d0648a2	1	1	DL_test	13	DL_test	22			0		ta	1	859	6	1	antiphase_hc_iso.wav	2	6	3	noise_calib_stim_LEFT.wav	1	35	blb_dichoticlistening_ta-pa.mp3	ta	pa	1	left
6.6.0	win	2023-06-02	00:11:11	0	0	63ffcb367b500c516d0648a2	1	1	DL_test	13	DL_test	23			0		ba	1	1240	6	1	antiphase_hc_iso.wav	2	6	3	noise_calib_stim_LEFT.wav	1	4	blb_dichoticlistening_ba-ka.mp3	ba	ka	1	left
6.6.0	win	2023-06-02	00:11:11	0	0	63ffcb367b500c516d0648a2	1	1	DL_test	13	DL_test	24			0		ba	1	752	6	1	antiphase_hc_iso.wav	2	6	3	noise_calib_stim_LEFT.wav	1	25	blb_dichoticlistening_pa-ba.mp3	pa	ba	1	right
6.6.0	win	2023-06-02	00:11:11	0	0	63ffcb367b500c516d0648a2	1	1	DL_test	13	DL_test	25			0		pa	1	1146	6	1	antiphase_hc_iso.wav	2	6	3	noise_calib_stim_LEFT.wav	1	29	blb_dichoticlistening_pa-pa.mp3	pa	pa	0	left
6.6.0	win	2023-06-02	00:11:11	0	0	63ffcb367b500c516d0648a2	1	1	DL_test	13	DL_test	26			0		ga	1	1216	6	1	antiphase_hc_iso.wav	2	6	3	noise_calib_stim_LEFT.wav	1	27	blb_dichoticlistening_pa-ga.mp3	pa	ga	1	right
6.6.0	win	2023-06-02	00:11:11	0	0	63ffcb367b500c516d0648a2	1	1	DL_test	13	DL_test	27			0		ga	1	585	6	1	antiphase_hc_iso.wav	2	6	3	noise_calib_stim_LEFT.wav	1	16	blb_dichoticlistening_ga-ka.mp3	ga	ka	1	left
6.6.0	win	2023-06-02	00:11:11	0	0	63ffcb367b500c516d0648a2	1	1	DL_test	13	DL_test	28			0		ba	1	1182	6	1	antiphase_hc_iso.wav	2	6	3	noise_calib_stim_LEFT.wav	1	5	blb_dichoticlistening_ba-pa.mp3	ba	pa	1	left
6.6.0	win	2023-06-02	00:11:11	0	0	63ffcb367b500c516d0648a2	1	1	DL_test	13	DL_test	29			0		ka	1	961	6	1	antiphase_hc_iso.wav	2	6	3	noise_calib_stim_LEFT.wav	1	22	blb_dichoticlistening_ka-ka.mp3	ka	ka	0	left
6.6.0	win	2023-06-02	00:11:11	0	0	63ffcb367b500c516d0648a2	1	1	DL_test	13	DL_test	30			0		da	0	1296	6	1	antiphase_hc_iso.wav	2	6	3	noise_calib_stim_LEFT.wav	1	6	blb_dichoticlistening_ba-ta.mp3	ba	ta	1	other
6.6.0	win	2023-06-02	00:11:11	0	0	63ffcb367b500c516d0648a2	1	1	DL_test	13	DL_test	31			0		da	1	1151	6	1	antiphase_hc_iso.wav	2	6	3	noise_calib_stim_LEFT.wav	1	14	blb_dichoticlistening_ga-da.mp3	ga	da	1	right
6.6.0	win	2023-06-02	00:11:11	0	0	63ffcb367b500c516d0648a2	1	1	DL_test	13	DL_test	32			0		ka	1	894	6	1	antiphase_hc_iso.wav	2	6	3	noise_calib_stim_LEFT.wav	1	34	blb_dichoticlistening_ta-ka.mp3	ta	ka	1	right
6.6.0	win	2023-06-02	00:11:11	0	0	63ffcb367b500c516d0648a2	1	1	DL_test	13	DL_test	33			0		ga	1	669	6	1	antiphase_hc_iso.wav	2	6	3	noise_calib_stim_LEFT.wav	1	21	blb_dichoticlistening_ka-ga.mp3	ka	ga	1	right
6.6.0	win	2023-06-02	00:11:11	0	0	63ffcb367b500c516d0648a2	1	1	DL_test	13	DL_test	34			0		da	1	1083	6	1	antiphase_hc_iso.wav	2	6	3	noise_calib_stim_LEFT.wav	1	12	blb_dichoticlistening_da-ta.mp3	da	ta	1	left
6.6.0	win	2023-06-02	00:11:11	0	0	63ffcb367b500c516d0648a2	1	1	DL_test	13	DL_test	35			0		ka	1	978	6	1	antiphase_hc_iso.wav	2	6	3	noise_calib_stim_LEFT.wav	1	24	blb_dichoticlistening_ka-ta.mp3	ka	ta	1	left
6.6.0	win	2023-06-02	00:11:11	0	0	63ffcb367b500c516d0648a2	1	1	DL_test	13	DL_test	36			0		ga	1	642	6	1	antiphase_hc_iso.wav	2	6	3	noise_calib_stim_LEFT.wav	1	33	blb_dichoticlistening_ta-ga.mp3	ta	ga	1	right
6.6.0	win	2023-06-02	00:11:11	0	0	63ffcb367b500c516d0648a2	1	1	DL_test	14	DL_test	1			0		da	1	612	6	1	antiphase_hc_iso.wav	2	6	3	noise_calib_stim_LEFT.wav	1	26	blb_dichoticlistening_pa-da.mp3	pa	da	1	right
6.6.0	win	2023-06-02	00:11:11	0	0	63ffcb367b500c516d0648a2	1	1	DL_test	14	DL_test	2			0		ka	1	633	6	1	antiphase_hc_iso.wav	2	6	3	noise_calib_stim_LEFT.wav	1	34	blb_dichoticlistening_ta-ka.mp3	ta	ka	1	right
6.6.0	win	2023-06-02	00:11:11	0	0	63ffcb367b500c516d0648a2	1	1	DL_test	14	DL_test	3			0		ta	1	1612	6	1	antiphase_hc_iso.wav	2	6	3	noise_calib_stim_LEFT.wav	1	30	blb_dichoticlistening_pa-ta.mp3	pa	ta	1	right
6.6.0	win	2023-06-02	00:11:11	0	0	63ffcb367b500c516d0648a2	1	1	DL_test	14	DL_test	4			0		da	0	968	6	1	antiphase_hc_iso.wav	2	6	3	noise_calib_stim_LEFT.wav	1	6	blb_dichoticlistening_ba-ta.mp3	ba	ta	1	other
6.6.0	win	2023-06-02	00:11:11	0	0	63ffcb367b500c516d0648a2	1	1	DL_test	14	DL_test	5			0		da	1	930	6	1	antiphase_hc_iso.wav	2	6	3	noise_calib_stim_LEFT.wav	1	2	blb_dichoticlistening_ba-da.mp3	ba	da	1	right
6.6.0	win	2023-06-02	00:11:11	0	0	63ffcb367b500c516d0648a2	1	1	DL_test	14	DL_test	6			0		ga	1	951	6	1	antiphase_hc_iso.wav	2	6	3	noise_calib_stim_LEFT.wav	1	9	blb_dichoticlistening_da-ga.mp3	da	ga	1	right
6.6.0	win	2023-06-02	00:11:11	0	0	63ffcb367b500c516d0648a2	1	1	DL_test	14	DL_test	7			0		ka	1	1926	6	1	antiphase_hc_iso.wav	2	6	3	noise_calib_stim_LEFT.wav	1	4	blb_dichoticlistening_ba-ka.mp3	ba	ka	1	right
6.6.0	win	2023-06-02	00:11:11	0	0	63ffcb367b500c516d0648a2	1	1	DL_test	14	DL_test	8			0		ga	1	645	6	1	antiphase_hc_iso.wav	2	6	3	noise_calib_stim_LEFT.wav	1	18	blb_dichoticlistening_ga-ta.mp3	ga	ta	1	left
6.6.0	win	2023-06-02	00:11:11	0	0	63ffcb367b500c516d0648a2	1	1	DL_test	14	DL_test	9			0		da	1	658	6	1	antiphase_hc_iso.wav	2	6	3	noise_calib_stim_LEFT.wav	1	8	blb_dichoticlistening_da-da.mp3	da	da	0	left
6.6.0	win	2023-06-02	00:11:11	0	0	63ffcb367b500c516d0648a2	1	1	DL_test	14	DL_test	10			0		ba	1	1011	6	1	antiphase_hc_iso.wav	2	6	3	noise_calib_stim_LEFT.wav	1	5	blb_dichoticlistening_ba-pa.mp3	ba	pa	1	left
6.6.0	win	2023-06-02	00:11:11	0	0	63ffcb367b500c516d0648a2	1	1	DL_test	14	DL_test	11			0		ba	1	1866	6	1	antiphase_hc_iso.wav	2	6	3	noise_calib_stim_LEFT.wav	1	3	blb_dichoticlistening_ba-ga.mp3	ba	ga	1	left
6.6.0	win	2023-06-02	00:11:11	0	0	63ffcb367b500c516d0648a2	1	1	DL_test	14	DL_test	12			0		ta	1	1107	6	1	antiphase_hc_iso.wav	2	6	3	noise_calib_stim_LEFT.wav	1	35	blb_dichoticlistening_ta-pa.mp3	ta	pa	1	left
6.6.0	win	2023-06-02	00:11:11	0	0	63ffcb367b500c516d0648a2	1	1	DL_test	14	DL_test	13			0		ba	1	855	6	1	antiphase_hc_iso.wav	2	6	3	noise_calib_stim_LEFT.wav	1	1	blb_dichoticlistening_ba-ba.mp3	ba	ba	0	left
6.6.0	win	2023-06-02	00:11:11	0	0	63ffcb367b500c516d0648a2	1	1	DL_test	14	DL_test	14			0		ka	1	1275	6	1	antiphase_hc_iso.wav	2	6	3	noise_calib_stim_LEFT.wav	1	28	blb_dichoticlistening_pa-ka.mp3	pa	ka	1	right
6.6.0	win	2023-06-02	00:11:11	0	0	63ffcb367b500c516d0648a2	1	1	DL_test	14	DL_test	15			0		ba	1	888	6	1	antiphase_hc_iso.wav	2	6	3	noise_calib_stim_LEFT.wav	1	25	blb_dichoticlistening_pa-ba.mp3	pa	ba	1	right
6.6.0	win	2023-06-02	00:11:11	0	0	63ffcb367b500c516d0648a2	1	1	DL_test	14	DL_test	16			0		pa	1	1980	6	1	antiphase_hc_iso.wav	2	6	3	noise_calib_stim_LEFT.wav	1	29	blb_dichoticlistening_pa-pa.mp3	pa	pa	0	left
6.6.0	win	2023-06-02	00:11:11	0	0	63ffcb367b500c516d0648a2	1	1	DL_test	14	DL_test	17			0		ga	1	954	6	1	antiphase_hc_iso.wav	2	6	3	noise_calib_stim_LEFT.wav	1	15	blb_dichoticlistening_ga-ga.mp3	ga	ga	0	left
6.6.0	win	2023-06-02	00:11:11	0	0	63ffcb367b500c516d0648a2	1	1	DL_test	14	DL_test	18			0		ga	1	951	6	1	antiphase_hc_iso.wav	2	6	3	noise_calib_stim_LEFT.wav	1	17	blb_dichoticlistening_ga-pa.mp3	ga	pa	1	left
6.6.0	win	2023-06-02	00:11:11	0	0	63ffcb367b500c516d0648a2	1	1	DL_test	14	DL_test	19			0		ba	1	1219	6	1	antiphase_hc_iso.wav	2	6	3	noise_calib_stim_LEFT.wav	1	13	blb_dichoticlistening_ga-ba.mp3	ga	ba	1	right
6.6.0	win	2023-06-02	00:11:11	0	0	63ffcb367b500c516d0648a2	1	1	DL_test	14	DL_test	20			0		da	1	901	6	1	antiphase_hc_iso.wav	2	6	3	noise_calib_stim_LEFT.wav	1	12	blb_dichoticlistening_da-ta.mp3	da	ta	1	left
6.6.0	win	2023-06-02	00:11:11	0	0	63ffcb367b500c516d0648a2	1	1	DL_test	14	DL_test	21			0		ta	1	1201	6	1	antiphase_hc_iso.wav	2	6	3	noise_calib_stim_LEFT.wav	1	36	blb_dichoticlistening_ta-ta.mp3	ta	ta	0	left
6.6.0	win	2023-06-02	00:11:11	0	0	63ffcb367b500c516d0648a2	1	1	DL_test	14	DL_test	22			0		ba	1	1060	6	1	antiphase_hc_iso.wav	2	6	3	noise_calib_stim_LEFT.wav	1	7	blb_dichoticlistening_da-ba.mp3	da	ba	1	right
6.6.0	win	2023-06-02	00:11:11	0	0	63ffcb367b500c516d0648a2	1	1	DL_test	14	DL_test	23			0		da	1	564	6	1	antiphase_hc_iso.wav	2	6	3	noise_calib_stim_LEFT.wav	1	32	blb_dichoticlistening_ta-da.mp3	ta	da	1	right
6.6.0	win	2023-06-02	00:11:11	0	0	63ffcb367b500c516d0648a2	1	1	DL_test	14	DL_test	24			0		ta	0	1664	6	1	antiphase_hc_iso.wav	2	6	3	noise_calib_stim_LEFT.wav	1	19	blb_dichoticlistening_ka-ba.mp3	ka	ba	1	other
6.6.0	win	2023-06-02	00:11:11	0	0	63ffcb367b500c516d0648a2	1	1	DL_test	14	DL_test	25			0		ga	1	871	6	1	antiphase_hc_iso.wav	2	6	3	noise_calib_stim_LEFT.wav	1	14	blb_dichoticlistening_ga-da.mp3	ga	da	1	left
6.6.0	win	2023-06-02	00:11:11	0	0	63ffcb367b500c516d0648a2	1	1	DL_test	14	DL_test	26			0		ka	1	605	6	1	antiphase_hc_iso.wav	2	6	3	noise_calib_stim_LEFT.wav	1	22	blb_dichoticlistening_ka-ka.mp3	ka	ka	0	left
6.6.0	win	2023-06-02	00:11:11	0	0	63ffcb367b500c516d0648a2	1	1	DL_test	14	DL_test	27			0		ba	1	1254	6	1	antiphase_hc_iso.wav	2	6	3	noise_calib_stim_LEFT.wav	1	31	blb_dichoticlistening_ta-ba.mp3	ta	ba	1	right
6.6.0	win	2023-06-02	00:11:11	0	0	63ffcb367b500c516d0648a2	1	1	DL_test	14	DL_test	28			0		ga	1	1172	6	1	antiphase_hc_iso.wav	2	6	3	noise_calib_stim_LEFT.wav	1	33	blb_dichoticlistening_ta-ga.mp3	ta	ga	1	right
6.6.0	win	2023-06-02	00:11:11	0	0	63ffcb367b500c516d0648a2	1	1	DL_test	14	DL_test	29			0		ga	0	1056	6	1	antiphase_hc_iso.wav	2	6	3	noise_calib_stim_LEFT.wav	1	20	blb_dichoticlistening_ka-da.mp3	ka	da	1	other
6.6.0	win	2023-06-02	00:11:11	0	0	63ffcb367b500c516d0648a2	1	1	DL_test	14	DL_test	30			0		ga	1	800	6	1	antiphase_hc_iso.wav	2	6	3	noise_calib_stim_LEFT.wav	1	21	blb_dichoticlistening_ka-ga.mp3	ka	ga	1	right
6.6.0	win	2023-06-02	00:11:11	0	0	63ffcb367b500c516d0648a2	1	1	DL_test	14	DL_test	31			0		da	1	904	6	1	antiphase_hc_iso.wav	2	6	3	noise_calib_stim_LEFT.wav	1	10	blb_dichoticlistening_da-ka.mp3	da	ka	1	left
6.6.0	win	2023-06-02	00:11:11	0	0	63ffcb367b500c516d0648a2	1	1	DL_test	14	DL_test	32			0		ka	1	1030	6	1	antiphase_hc_iso.wav	2	6	3	noise_calib_stim_LEFT.wav	1	23	blb_dichoticlistening_ka-pa.mp3	ka	pa	1	left
6.6.0	win	2023-06-02	00:11:11	0	0	63ffcb367b500c516d0648a2	1	1	DL_test	14	DL_test	33			0		da	1	864	6	1	antiphase_hc_iso.wav	2	6	3	noise_calib_stim_LEFT.wav	1	11	blb_dichoticlistening_da-pa.mp3	da	pa	1	left
6.6.0	win	2023-06-02	00:11:11	0	0	63ffcb367b500c516d0648a2	1	1	DL_test	14	DL_test	34			0		ga	1	1010	6	1	antiphase_hc_iso.wav	2	6	3	noise_calib_stim_LEFT.wav	1	27	blb_dichoticlistening_pa-ga.mp3	pa	ga	1	right
6.6.0	win	2023-06-02	00:11:11	0	0	63ffcb367b500c516d0648a2	1	1	DL_test	14	DL_test	35			0		ka	1	715	6	1	antiphase_hc_iso.wav	2	6	3	noise_calib_stim_LEFT.wav	1	24	blb_dichoticlistening_ka-ta.mp3	ka	ta	1	left
6.6.0	win	2023-06-02	00:11:11	0	0	63ffcb367b500c516d0648a2	1	1	DL_test	14	DL_test	36			0		ga	1	586	6	1	antiphase_hc_iso.wav	2	6	3	noise_calib_stim_LEFT.wav	1	16	blb_dichoticlistening_ga-ka.mp3	ga	ka	1	left
6.6.0	win	2023-06-02	00:11:11	0	0	63ffcb367b500c516d0648a2	1	1	DL_test	15	DL_test	1			0		ga	1	630	6	1	antiphase_hc_iso.wav	2	6	3	noise_calib_stim_LEFT.wav	1	27	blb_dichoticlistening_pa-ga.mp3	pa	ga	1	right
6.6.0	win	2023-06-02	00:11:11	0	0	63ffcb367b500c516d0648a2	1	1	DL_test	15	DL_test	2			0		ga	1	498	6	1	antiphase_hc_iso.wav	2	6	3	noise_calib_stim_LEFT.wav	1	14	blb_dichoticlistening_ga-da.mp3	ga	da	1	left
6.6.0	win	2023-06-02	00:11:11	0	0	63ffcb367b500c516d0648a2	1	1	DL_test	15	DL_test	3			0		ta	1	1388	6	1	antiphase_hc_iso.wav	2	6	3	noise_calib_stim_LEFT.wav	1	30	blb_dichoticlistening_pa-ta.mp3	pa	ta	1	right
6.6.0	win	2023-06-02	00:11:11	0	0	63ffcb367b500c516d0648a2	1	1	DL_test	15	DL_test	4			0		ga	1	516	6	1	antiphase_hc_iso.wav	2	6	3	noise_calib_stim_LEFT.wav	1	33	blb_dichoticlistening_ta-ga.mp3	ta	ga	1	right
6.6.0	win	2023-06-02	00:11:11	0	0	63ffcb367b500c516d0648a2	1	1	DL_test	15	DL_test	5			0		ga	1	646	6	1	antiphase_hc_iso.wav	2	6	3	noise_calib_stim_LEFT.wav	1	15	blb_dichoticlistening_ga-ga.mp3	ga	ga	0	left
6.6.0	win	2023-06-02	00:11:11	0	0	63ffcb367b500c516d0648a2	1	1	DL_test	15	DL_test	6			0		ka	1	858	6	1	antiphase_hc_iso.wav	2	6	3	noise_calib_stim_LEFT.wav	1	4	blb_dichoticlistening_ba-ka.mp3	ba	ka	1	right
6.6.0	win	2023-06-02	00:11:11	0	0	63ffcb367b500c516d0648a2	1	1	DL_test	15	DL_test	7			0		ga	1	1103	6	1	antiphase_hc_iso.wav	2	6	3	noise_calib_stim_LEFT.wav	1	9	blb_dichoticlistening_da-ga.mp3	da	ga	1	right
6.6.0	win	2023-06-02	00:11:11	0	0	63ffcb367b500c516d0648a2	1	1	DL_test	15	DL_test	8			0		da	1	1085	6	1	antiphase_hc_iso.wav	2	6	3	noise_calib_stim_LEFT.wav	1	32	blb_dichoticlistening_ta-da.mp3	ta	da	1	right
6.6.0	win	2023-06-02	00:11:11	0	0	63ffcb367b500c516d0648a2	1	1	DL_test	15	DL_test	9			0		pa	0	1121	6	1	antiphase_hc_iso.wav	2	6	3	noise_calib_stim_LEFT.wav	1	6	blb_dichoticlistening_ba-ta.mp3	ba	ta	1	other
6.6.0	win	2023-06-02	00:11:11	0	0	63ffcb367b500c516d0648a2	1	1	DL_test	15	DL_test	10			0		da	1	1262	6	1	antiphase_hc_iso.wav	2	6	3	noise_calib_stim_LEFT.wav	1	7	blb_dichoticlistening_da-ba.mp3	da	ba	1	left
6.6.0	win	2023-06-02	00:11:11	0	0	63ffcb367b500c516d0648a2	1	1	DL_test	15	DL_test	11			0		da	1	598	6	1	antiphase_hc_iso.wav	2	6	3	noise_calib_stim_LEFT.wav	1	10	blb_dichoticlistening_da-ka.mp3	da	ka	1	left
6.6.0	win	2023-06-02	00:11:11	0	0	63ffcb367b500c516d0648a2	1	1	DL_test	15	DL_test	12			0		pa	1	1138	6	1	antiphase_hc_iso.wav	2	6	3	noise_calib_stim_LEFT.wav	1	25	blb_dichoticlistening_pa-ba.mp3	pa	ba	1	left
6.6.0	win	2023-06-02	00:11:11	0	0	63ffcb367b500c516d0648a2	1	1	DL_test	15	DL_test	13			0		da	1	947	6	1	antiphase_hc_iso.wav	2	6	3	noise_calib_stim_LEFT.wav	1	8	blb_dichoticlistening_da-da.mp3	da	da	0	left
6.6.0	win	2023-06-02	00:11:11	0	0	63ffcb367b500c516d0648a2	1	1	DL_test	15	DL_test	14			0		ga	1	769	6	1	antiphase_hc_iso.wav	2	6	3	noise_calib_stim_LEFT.wav	1	21	blb_dichoticlistening_ka-ga.mp3	ka	ga	1	right
6.6.0	win	2023-06-02	00:11:11	0	0	63ffcb367b500c516d0648a2	1	1	DL_test	15	DL_test	15			0		ka	1	801	6	1	antiphase_hc_iso.wav	2	6	3	noise_calib_stim_LEFT.wav	1	23	blb_dichoticlistening_ka-pa.mp3	ka	pa	1	left
6.6.0	win	2023-06-02	00:11:11	0	0	63ffcb367b500c516d0648a2	1	1	DL_test	15	DL_test	16			0		ba	1	1457	6	1	antiphase_hc_iso.wav	2	6	3	noise_calib_stim_LEFT.wav	1	13	blb_dichoticlistening_ga-ba.mp3	ga	ba	1	right
6.6.0	win	2023-06-02	00:11:11	0	0	63ffcb367b500c516d0648a2	1	1	DL_test	15	DL_test	17			0		pa	1	1397	6	1	antiphase_hc_iso.wav	2	6	3	noise_calib_stim_LEFT.wav	1	29	blb_dichoticlistening_pa-pa.mp3	pa	pa	0	left
6.6.0	win	2023-06-02	00:11:11	0	0	63ffcb367b500c516d0648a2	1	1	DL_test	15	DL_test	18			0		ga	1	753	6	1	antiphase_hc_iso.wav	2	6	3	noise_calib_stim_LEFT.wav	1	18	blb_dichoticlistening_ga-ta.mp3	ga	ta	1	left
6.6.0	win	2023-06-02	00:11:11	0	0	63ffcb367b500c516d0648a2	1	1	DL_test	15	DL_test	19			0		ka	1	1146	6	1	antiphase_hc_iso.wav	2	6	3	noise_calib_stim_LEFT.wav	1	34	blb_dichoticlistening_ta-ka.mp3	ta	ka	1	right
6.6.0	win	2023-06-02	00:11:11	0	0	63ffcb367b500c516d0648a2	1	1	DL_test	15	DL_test	20			0		ka	1	869	6	1	antiphase_hc_iso.wav	2	6	3	noise_calib_stim_LEFT.wav	1	24	blb_dichoticlistening_ka-ta.mp3	ka	ta	1	left
6.6.0	win	2023-06-02	00:11:11	0	0	63ffcb367b500c516d0648a2	1	1	DL_test	15	DL_test	21			0		ka	1	623	6	1	antiphase_hc_iso.wav	2	6	3	noise_calib_stim_LEFT.wav	1	22	blb_dichoticlistening_ka-ka.mp3	ka	ka	0	left
6.6.0	win	2023-06-02	00:11:11	0	0	63ffcb367b500c516d0648a2	1	1	DL_test	15	DL_test	22			0		ga	1	1151	6	1	antiphase_hc_iso.wav	2	6	3	noise_calib_stim_LEFT.wav	1	16	blb_dichoticlistening_ga-ka.mp3	ga	ka	1	left
6.6.0	win	2023-06-02	00:11:11	0	0	63ffcb367b500c516d0648a2	1	1	DL_test	15	DL_test	23			0		ba	1	1486	6	1	antiphase_hc_iso.wav	2	6	3	noise_calib_stim_LEFT.wav	1	1	blb_dichoticlistening_ba-ba.mp3	ba	ba	0	left
6.6.0	win	2023-06-02	00:11:11	0	0	63ffcb367b500c516d0648a2	1	1	DL_test	15	DL_test	24			0		pa	0	1351	6	1	antiphase_hc_iso.wav	2	6	3	noise_calib_stim_LEFT.wav	1	19	blb_dichoticlistening_ka-ba.mp3	ka	ba	1	other
6.6.0	win	2023-06-02	00:11:11	0	0	63ffcb367b500c516d0648a2	1	1	DL_test	15	DL_test	25			0		ta	1	1247	6	1	antiphase_hc_iso.wav	2	6	3	noise_calib_stim_LEFT.wav	1	31	blb_dichoticlistening_ta-ba.mp3	ta	ba	1	left
6.6.0	win	2023-06-02	00:11:11	0	0	63ffcb367b500c516d0648a2	1	1	DL_test	15	DL_test	26			0		ba	1	1142	6	1	antiphase_hc_iso.wav	2	6	3	noise_calib_stim_LEFT.wav	1	2	blb_dichoticlistening_ba-da.mp3	ba	da	1	left
6.6.0	win	2023-06-02	00:11:11	0	0	63ffcb367b500c516d0648a2	1	1	DL_test	15	DL_test	27			0		ka	1	831	6	1	antiphase_hc_iso.wav	2	6	3	noise_calib_stim_LEFT.wav	1	28	blb_dichoticlistening_pa-ka.mp3	pa	ka	1	right
6.6.0	win	2023-06-02	00:11:11	0	0	63ffcb367b500c516d0648a2	1	1	DL_test	15	DL_test	28			0		da	1	929	6	1	antiphase_hc_iso.wav	2	6	3	noise_calib_stim_LEFT.wav	1	11	blb_dichoticlistening_da-pa.mp3	da	pa	1	left
6.6.0	win	2023-06-02	00:11:11	0	0	63ffcb367b500c516d0648a2	1	1	DL_test	15	DL_test	29			0		da	1	1055	6	1	antiphase_hc_iso.wav	2	6	3	noise_calib_stim_LEFT.wav	1	12	blb_dichoticlistening_da-ta.mp3	da	ta	1	left
6.6.0	win	2023-06-02	00:11:11	0	0	63ffcb367b500c516d0648a2	1	1	DL_test	15	DL_test	30			0		ba	1	1046	6	1	antiphase_hc_iso.wav	2	6	3	noise_calib_stim_LEFT.wav	1	3	blb_dichoticlistening_ba-ga.mp3	ba	ga	1	left
6.6.0	win	2023-06-02	00:11:11	0	0	63ffcb367b500c516d0648a2	1	1	DL_test	15	DL_test	31			0		ta	1	1618	6	1	antiphase_hc_iso.wav	2	6	3	noise_calib_stim_LEFT.wav	1	36	blb_dichoticlistening_ta-ta.mp3	ta	ta	0	left
6.6.0	win	2023-06-02	00:11:11	0	0	63ffcb367b500c516d0648a2	1	1	DL_test	15	DL_test	32			0		da	1	1069	6	1	antiphase_hc_iso.wav	2	6	3	noise_calib_stim_LEFT.wav	1	26	blb_dichoticlistening_pa-da.mp3	pa	da	1	right
6.6.0	win	2023-06-02	00:11:11	0	0	63ffcb367b500c516d0648a2	1	1	DL_test	15	DL_test	33			0		ta	1	1444	6	1	antiphase_hc_iso.wav	2	6	3	noise_calib_stim_LEFT.wav	1	35	blb_dichoticlistening_ta-pa.mp3	ta	pa	1	left
6.6.0	win	2023-06-02	00:11:11	0	0	63ffcb367b500c516d0648a2	1	1	DL_test	15	DL_test	34			0		ga	1	901	6	1	antiphase_hc_iso.wav	2	6	3	noise_calib_stim_LEFT.wav	1	17	blb_dichoticlistening_ga-pa.mp3	ga	pa	1	left
6.6.0	win	2023-06-02	00:11:11	0	0	63ffcb367b500c516d0648a2	1	1	DL_test	15	DL_test	35			0		ba	1	965	6	1	antiphase_hc_iso.wav	2	6	3	noise_calib_stim_LEFT.wav	1	5	blb_dichoticlistening_ba-pa.mp3	ba	pa	1	left
6.6.0	win	2023-06-02	00:11:11	0	0	63ffcb367b500c516d0648a2	1	1	DL_test	15	DL_test	36			0		ga	0	1188	6	1	antiphase_hc_iso.wav	2	6	3	noise_calib_stim_LEFT.wav	1	20	blb_dichoticlistening_ka-da.mp3	ka	da	1	other
6.6.0	win	2023-06-02	00:11:11	0	0	63ffcb367b500c516d0648a2	1	1	DL_test	16	DL_test	1			0		ba	1	1909	6	1	antiphase_hc_iso.wav	2	6	3	noise_calib_stim_LEFT.wav	1	31	blb_dichoticlistening_ta-ba.mp3	ta	ba	1	right
6.6.0	win	2023-06-02	00:11:11	0	0	63ffcb367b500c516d0648a2	1	1	DL_test	16	DL_test	2			0		ka	1	926	6	1	antiphase_hc_iso.wav	2	6	3	noise_calib_stim_LEFT.wav	1	24	blb_dichoticlistening_ka-ta.mp3	ka	ta	1	left
6.6.0	win	2023-06-02	00:11:11	0	0	63ffcb367b500c516d0648a2	1	1	DL_test	16	DL_test	3			0		ba	1	1033	6	1	antiphase_hc_iso.wav	2	6	3	noise_calib_stim_LEFT.wav	1	13	blb_dichoticlistening_ga-ba.mp3	ga	ba	1	right
6.6.0	win	2023-06-02	00:11:11	0	0	63ffcb367b500c516d0648a2	1	1	DL_test	16	DL_test	4			0		ga	1	746	6	1	antiphase_hc_iso.wav	2	6	3	noise_calib_stim_LEFT.wav	1	17	blb_dichoticlistening_ga-pa.mp3	ga	pa	1	left
6.6.0	win	2023-06-02	00:11:11	0	0	63ffcb367b500c516d0648a2	1	1	DL_test	16	DL_test	5			0		ga	0	663	6	1	antiphase_hc_iso.wav	2	6	3	noise_calib_stim_LEFT.wav	1	20	blb_dichoticlistening_ka-da.mp3	ka	da	1	other
6.6.0	win	2023-06-02	00:11:11	0	0	63ffcb367b500c516d0648a2	1	1	DL_test	16	DL_test	6			0		pa	1	826	6	1	antiphase_hc_iso.wav	2	6	3	noise_calib_stim_LEFT.wav	1	29	blb_dichoticlistening_pa-pa.mp3	pa	pa	0	left
6.6.0	win	2023-06-02	00:11:11	0	0	63ffcb367b500c516d0648a2	1	1	DL_test	16	DL_test	7			0		ga	1	552	6	1	antiphase_hc_iso.wav	2	6	3	noise_calib_stim_LEFT.wav	1	33	blb_dichoticlistening_ta-ga.mp3	ta	ga	1	right
6.6.0	win	2023-06-02	00:11:11	0	0	63ffcb367b500c516d0648a2	1	1	DL_test	16	DL_test	8			0		ta	1	1474	6	1	antiphase_hc_iso.wav	2	6	3	noise_calib_stim_LEFT.wav	1	36	blb_dichoticlistening_ta-ta.mp3	ta	ta	0	left
6.6.0	win	2023-06-02	00:11:11	0	0	63ffcb367b500c516d0648a2	1	1	DL_test	16	DL_test	9			0		pa	0	1659	6	1	antiphase_hc_iso.wav	2	6	3	noise_calib_stim_LEFT.wav	1	6	blb_dichoticlistening_ba-ta.mp3	ba	ta	1	other
6.6.0	win	2023-06-02	00:11:11	0	0	63ffcb367b500c516d0648a2	1	1	DL_test	16	DL_test	10			0		ga	1	519	6	1	antiphase_hc_iso.wav	2	6	3	noise_calib_stim_LEFT.wav	1	27	blb_dichoticlistening_pa-ga.mp3	pa	ga	1	right
6.6.0	win	2023-06-02	00:11:11	0	0	63ffcb367b500c516d0648a2	1	1	DL_test	16	DL_test	11			0		da	1	973	6	1	antiphase_hc_iso.wav	2	6	3	noise_calib_stim_LEFT.wav	1	10	blb_dichoticlistening_da-ka.mp3	da	ka	1	left
6.6.0	win	2023-06-02	00:11:11	0	0	63ffcb367b500c516d0648a2	1	1	DL_test	16	DL_test	12			0		ka	1	723	6	1	antiphase_hc_iso.wav	2	6	3	noise_calib_stim_LEFT.wav	1	23	blb_dichoticlistening_ka-pa.mp3	ka	pa	1	left
6.6.0	win	2023-06-02	00:11:11	0	0	63ffcb367b500c516d0648a2	1	1	DL_test	16	DL_test	13			0		ka	1	775	6	1	antiphase_hc_iso.wav	2	6	3	noise_calib_stim_LEFT.wav	1	34	blb_dichoticlistening_ta-ka.mp3	ta	ka	1	right
6.6.0	win	2023-06-02	00:11:11	0	0	63ffcb367b500c516d0648a2	1	1	DL_test	16	DL_test	14			0		ta	1	1514	6	1	antiphase_hc_iso.wav	2	6	3	noise_calib_stim_LEFT.wav	1	35	blb_dichoticlistening_ta-pa.mp3	ta	pa	1	left
6.6.0	win	2023-06-02	00:11:11	0	0	63ffcb367b500c516d0648a2	1	1	DL_test	16	DL_test	15			0		ga	1	788	6	1	antiphase_hc_iso.wav	2	6	3	noise_calib_stim_LEFT.wav	1	9	blb_dichoticlistening_da-ga.mp3	da	ga	1	right
6.6.0	win	2023-06-02	00:11:11	0	0	63ffcb367b500c516d0648a2	1	1	DL_test	16	DL_test	16			0		pa	0	1195	6	1	antiphase_hc_iso.wav	2	6	3	noise_calib_stim_LEFT.wav	1	19	blb_dichoticlistening_ka-ba.mp3	ka	ba	1	other
6.6.0	win	2023-06-02	00:11:11	0	0	63ffcb367b500c516d0648a2	1	1	DL_test	16	DL_test	17			0		da	1	1451	6	1	antiphase_hc_iso.wav	2	6	3	noise_calib_stim_LEFT.wav	1	7	blb_dichoticlistening_da-ba.mp3	da	ba	1	left
6.6.0	win	2023-06-02	00:11:11	0	0	63ffcb367b500c516d0648a2	1	1	DL_test	16	DL_test	18			0		da	1	1052	6	1	antiphase_hc_iso.wav	2	6	3	noise_calib_stim_LEFT.wav	1	26	blb_dichoticlistening_pa-da.mp3	pa	da	1	right
6.6.0	win	2023-06-02	00:11:11	0	0	63ffcb367b500c516d0648a2	1	1	DL_test	16	DL_test	19			0		ga	1	834	6	1	antiphase_hc_iso.wav	2	6	3	noise_calib_stim_LEFT.wav	1	14	blb_dichoticlistening_ga-da.mp3	ga	da	1	left
6.6.0	win	2023-06-02	00:11:11	0	0	63ffcb367b500c516d0648a2	1	1	DL_test	16	DL_test	20			0		ba	1	895	6	1	antiphase_hc_iso.wav	2	6	3	noise_calib_stim_LEFT.wav	1	1	blb_dichoticlistening_ba-ba.mp3	ba	ba	0	left
6.6.0	win	2023-06-02	00:11:11	0	0	63ffcb367b500c516d0648a2	1	1	DL_test	16	DL_test	21			0		ka	1	1332	6	1	antiphase_hc_iso.wav	2	6	3	noise_calib_stim_LEFT.wav	1	22	blb_dichoticlistening_ka-ka.mp3	ka	ka	0	left
6.6.0	win	2023-06-02	00:11:11	0	0	63ffcb367b500c516d0648a2	1	1	DL_test	16	DL_test	22			0		da	1	759	6	1	antiphase_hc_iso.wav	2	6	3	noise_calib_stim_LEFT.wav	1	8	blb_dichoticlistening_da-da.mp3	da	da	0	left
6.6.0	win	2023-06-02	00:11:11	0	0	63ffcb367b500c516d0648a2	1	1	DL_test	16	DL_test	23			0		ba	1	1989	6	1	antiphase_hc_iso.wav	2	6	3	noise_calib_stim_LEFT.wav	1	5	blb_dichoticlistening_ba-pa.mp3	ba	pa	1	left
6.6.0	win	2023-06-02	00:11:11	0	0	63ffcb367b500c516d0648a2	1	1	DL_test	16	DL_test	24			0		ba	1	598	6	1	antiphase_hc_iso.wav	2	6	3	noise_calib_stim_LEFT.wav	1	3	blb_dichoticlistening_ba-ga.mp3	ba	ga	1	left
6.6.0	win	2023-06-02	00:11:11	0	0	63ffcb367b500c516d0648a2	1	1	DL_test	16	DL_test	25			0		ga	1	866	6	1	antiphase_hc_iso.wav	2	6	3	noise_calib_stim_LEFT.wav	1	18	blb_dichoticlistening_ga-ta.mp3	ga	ta	1	left
6.6.0	win	2023-06-02	00:11:11	0	0	63ffcb367b500c516d0648a2	1	1	DL_test	16	DL_test	26			0		da	1	740	6	1	antiphase_hc_iso.wav	2	6	3	noise_calib_stim_LEFT.wav	1	11	blb_dichoticlistening_da-pa.mp3	da	pa	1	left
6.6.0	win	2023-06-02	00:11:11	0	0	63ffcb367b500c516d0648a2	1	1	DL_test	16	DL_test	27			0		da	1	741	6	1	antiphase_hc_iso.wav	2	6	3	noise_calib_stim_LEFT.wav	1	32	blb_dichoticlistening_ta-da.mp3	ta	da	1	right
6.6.0	win	2023-06-02	00:11:11	0	0	63ffcb367b500c516d0648a2	1	1	DL_test	16	DL_test	28			0		ba	1	944	6	1	antiphase_hc_iso.wav	2	6	3	noise_calib_stim_LEFT.wav	1	25	blb_dichoticlistening_pa-ba.mp3	pa	ba	1	right
6.6.0	win	2023-06-02	00:11:11	0	0	63ffcb367b500c516d0648a2	1	1	DL_test	16	DL_test	29			0		ga	1	754	6	1	antiphase_hc_iso.wav	2	6	3	noise_calib_stim_LEFT.wav	1	21	blb_dichoticlistening_ka-ga.mp3	ka	ga	1	right
6.6.0	win	2023-06-02	00:11:11	0	0	63ffcb367b500c516d0648a2	1	1	DL_test	16	DL_test	30			0		ka	1	911	6	1	antiphase_hc_iso.wav	2	6	3	noise_calib_stim_LEFT.wav	1	28	blb_dichoticlistening_pa-ka.mp3	pa	ka	1	right
6.6.0	win	2023-06-02	00:11:11	0	0	63ffcb367b500c516d0648a2	1	1	DL_test	16	DL_test	31			0		ga	1	819	6	1	antiphase_hc_iso.wav	2	6	3	noise_calib_stim_LEFT.wav	1	15	blb_dichoticlistening_ga-ga.mp3	ga	ga	0	left
6.6.0	win	2023-06-02	00:11:11	0	0	63ffcb367b500c516d0648a2	1	1	DL_test	16	DL_test	32			0		da	1	615	6	1	antiphase_hc_iso.wav	2	6	3	noise_calib_stim_LEFT.wav	1	12	blb_dichoticlistening_da-ta.mp3	da	ta	1	left
6.6.0	win	2023-06-02	00:11:11	0	0	63ffcb367b500c516d0648a2	1	1	DL_test	16	DL_test	33			0		ga	1	698	6	1	antiphase_hc_iso.wav	2	6	3	noise_calib_stim_LEFT.wav	1	16	blb_dichoticlistening_ga-ka.mp3	ga	ka	1	left
6.6.0	win	2023-06-02	00:11:11	0	0	63ffcb367b500c516d0648a2	1	1	DL_test	16	DL_test	34			0		pa	0	1729	6	1	antiphase_hc_iso.wav	2	6	3	noise_calib_stim_LEFT.wav	1	4	blb_dichoticlistening_ba-ka.mp3	ba	ka	1	other
6.6.0	win	2023-06-02	00:11:11	0	0	63ffcb367b500c516d0648a2	1	1	DL_test	16	DL_test	35			0		ba	1	1639	6	1	antiphase_hc_iso.wav	2	6	3	noise_calib_stim_LEFT.wav	1	2	blb_dichoticlistening_ba-da.mp3	ba	da	1	left
6.6.0	win	2023-06-02	00:11:11	0	0	63ffcb367b500c516d0648a2	1	1	DL_test	16	DL_test	36			0		ta	1	1233	6	1	antiphase_hc_iso.wav	2	6	3	noise_calib_stim_LEFT.wav	1	30	blb_dichoticlistening_pa-ta.mp3	pa	ta	1	right
6.6.0	win	2023-06-02	00:11:11	00:23:03	709869	63ffcb367b500c516d0648a2	1	1	practice_slash	22	practice_slash	1	stimuli_target_diamondsquares.svg	stimuli_distractor_trianglediamonds.svg	6	yes	0	0	2000	6	1	antiphase_hc_iso.wav	2	6	3	noise_calib_stim_LEFT.wav	1	30	blb_dichoticlistening_pa-ta.mp3	pa	ta	1	right
6.6.0	win	2023-06-02	00:11:11	00:23:03	709869	63ffcb367b500c516d0648a2	1	1	practice_slash	22	advance_on_keypress_SLASH	2	stimuli_target_diamondsquares.svg	stimuli_distractor_trianglediamonds.svg	6	yes	57	0	1215	6	1	antiphase_hc_iso.wav	2	6	3	noise_calib_stim_LEFT.wav	1	30	blb_dichoticlistening_pa-ta.mp3	pa	ta	1	right
6.6.0	win	2023-06-02	00:11:11	00:23:08	714740	63ffcb367b500c516d0648a2	1	1	practice_slash	22	practice_slash	3	stimuli_distractor_trianglediamonds.svg	stimuli_target_diamondrectangles.svg	12	yes	0	0	2000	6	1	antiphase_hc_iso.wav	2	6	3	noise_calib_stim_LEFT.wav	1	30	blb_dichoticlistening_pa-ta.mp3	pa	ta	1	right
6.6.0	win	2023-06-02	00:11:11	00:23:08	714740	63ffcb367b500c516d0648a2	1	1	practice_slash	22	advance_on_keypress_SLASH	4	stimuli_distractor_trianglediamonds.svg	stimuli_target_diamondrectangles.svg	12	yes	57	0	866	6	1	antiphase_hc_iso.wav	2	6	3	noise_calib_stim_LEFT.wav	1	30	blb_dichoticlistening_pa-ta.mp3	pa	ta	1	right
6.6.0	win	2023-06-02	00:11:11	00:23:11	718049	63ffcb367b500c516d0648a2	1	1	practice_slash	22	practice_slash	5	stimuli_distractor_trianglediamonds.svg	stimuli_target_rectanglediamonds.svg	10	yes	53	1	790	6	1	antiphase_hc_iso.wav	2	6	3	noise_calib_stim_LEFT.wav	1	30	blb_dichoticlistening_pa-ta.mp3	pa	ta	1	right
6.6.0	win	2023-06-02	00:11:11	00:23:11	718049	63ffcb367b500c516d0648a2	1	1	practice_slash	22	advance_on_keypress_SLASH	6	stimuli_distractor_trianglediamonds.svg	stimuli_target_rectanglediamonds.svg	10	yes	57	0	516	6	1	antiphase_hc_iso.wav	2	6	3	noise_calib_stim_LEFT.wav	1	30	blb_dichoticlistening_pa-ta.mp3	pa	ta	1	right
6.6.0	win	2023-06-02	00:11:11	00:23:15	722212	63ffcb367b500c516d0648a2	1	1	practice_slash	22	practice_slash	7	stimuli_distractor_diamondtriangles.svg	stimuli_distractor_trianglediamonds.svg	14	no	0	1	2000	6	1	antiphase_hc_iso.wav	2	6	3	noise_calib_stim_LEFT.wav	1	30	blb_dichoticlistening_pa-ta.mp3	pa	ta	1	right
6.6.0	win	2023-06-02	00:11:11	00:23:15	722212	63ffcb367b500c516d0648a2	1	1	practice_slash	22	advance_on_keypress_SLASH	8	stimuli_distractor_diamondtriangles.svg	stimuli_distractor_trianglediamonds.svg	14	no	57	0	714	6	1	antiphase_hc_iso.wav	2	6	3	noise_calib_stim_LEFT.wav	1	30	blb_dichoticlistening_pa-ta.mp3	pa	ta	1	right
6.6.0	win	2023-06-02	00:11:11	00:23:19	725744	63ffcb367b500c516d0648a2	1	1	practice_slash	22	practice_slash	9	stimuli_target_rectanglediamonds.svg	stimuli_distractor_diamondtriangles.svg	1	yes	53	1	1163	6	1	antiphase_hc_iso.wav	2	6	3	noise_calib_stim_LEFT.wav	1	30	blb_dichoticlistening_pa-ta.mp3	pa	ta	1	right
6.6.0	win	2023-06-02	00:11:11	00:23:19	725744	63ffcb367b500c516d0648a2	1	1	practice_slash	22	advance_on_keypress_SLASH	10	stimuli_target_rectanglediamonds.svg	stimuli_distractor_diamondtriangles.svg	1	yes	57	0	602	6	1	antiphase_hc_iso.wav	2	6	3	noise_calib_stim_LEFT.wav	1	30	blb_dichoticlistening_pa-ta.mp3	pa	ta	1	right
6.6.0	win	2023-06-02	00:11:11	00:23:22	729368	63ffcb367b500c516d0648a2	1	1	practice_slash	22	practice_slash	11	stimuli_distractor_diamondtriangles.svg	stimuli_target_trianglerectangles.svg	9	yes	53	1	1384	6	1	antiphase_hc_iso.wav	2	6	3	noise_calib_stim_LEFT.wav	1	30	blb_dichoticlistening_pa-ta.mp3	pa	ta	1	right
6.6.0	win	2023-06-02	00:11:11	00:23:22	729368	63ffcb367b500c516d0648a2	1	1	practice_slash	22	advance_on_keypress_SLASH	12	stimuli_distractor_diamondtriangles.svg	stimuli_target_trianglerectangles.svg	9	yes	57	0	0	6	1	antiphase_hc_iso.wav	2	6	3	noise_calib_stim_LEFT.wav	1	30	blb_dichoticlistening_pa-ta.mp3	pa	ta	1	right
6.6.0	win	2023-06-02	00:11:11	00:23:26	732719	63ffcb367b500c516d0648a2	1	1	practice_slash	22	practice_slash	13	stimuli_distractor_trianglediamonds.svg	stimuli_target_squarediamonds.svg	11	yes	53	1	1683	6	1	antiphase_hc_iso.wav	2	6	3	noise_calib_stim_LEFT.wav	1	30	blb_dichoticlistening_pa-ta.mp3	pa	ta	1	right
6.6.0	win	2023-06-02	00:11:11	00:23:26	732719	63ffcb367b500c516d0648a2	1	1	practice_slash	22	advance_on_keypress_SLASH	14	stimuli_distractor_trianglediamonds.svg	stimuli_target_squarediamonds.svg	11	yes	57	0	612	6	1	antiphase_hc_iso.wav	2	6	3	noise_calib_stim_LEFT.wav	1	30	blb_dichoticlistening_pa-ta.mp3	pa	ta	1	right
6.6.0	win	2023-06-02	00:11:11	00:23:30	736991	63ffcb367b500c516d0648a2	1	1	practice_slash	22	practice_slash	15	stimuli_distractor_diamondtriangles.svg	stimuli_distractor_diamondtriangles.svg	13	no	0	1	2000	6	1	antiphase_hc_iso.wav	2	6	3	noise_calib_stim_LEFT.wav	1	30	blb_dichoticlistening_pa-ta.mp3	pa	ta	1	right
6.6.0	win	2023-06-02	00:11:11	00:23:30	736991	63ffcb367b500c516d0648a2	1	1	practice_slash	22	advance_on_keypress_SLASH	16	stimuli_distractor_diamondtriangles.svg	stimuli_distractor_diamondtriangles.svg	13	no	57	0	5223	6	1	antiphase_hc_iso.wav	2	6	3	noise_calib_stim_LEFT.wav	1	30	blb_dichoticlistening_pa-ta.mp3	pa	ta	1	right
6.6.0	win	2023-06-02	00:11:11	00:23:38	744688	63ffcb367b500c516d0648a2	1	1	practice_slash	22	practice_slash	17	stimuli_target_squarediamonds.svg	stimuli_distractor_diamondtriangles.svg	2	yes	53	1	824	6	1	antiphase_hc_iso.wav	2	6	3	noise_calib_stim_LEFT.wav	1	30	blb_dichoticlistening_pa-ta.mp3	pa	ta	1	right
6.6.0	win	2023-06-02	00:11:11	00:23:38	744688	63ffcb367b500c516d0648a2	1	1	practice_slash	22	advance_on_keypress_SLASH	18	stimuli_target_squarediamonds.svg	stimuli_distractor_diamondtriangles.svg	2	yes	57	0	62	6	1	antiphase_hc_iso.wav	2	6	3	noise_calib_stim_LEFT.wav	1	30	blb_dichoticlistening_pa-ta.mp3	pa	ta	1	right
6.6.0	win	2023-06-02	00:11:11	00:23:41	748424	63ffcb367b500c516d0648a2	1	1	practice_slash	22	practice_slash	19	stimuli_distractor_trianglediamonds.svg	stimuli_distractor_trianglediamonds.svg	15	no	0	1	2000	6	1	antiphase_hc_iso.wav	2	6	3	noise_calib_stim_LEFT.wav	1	30	blb_dichoticlistening_pa-ta.mp3	pa	ta	1	right
6.6.0	win	2023-06-02	00:11:11	00:23:41	748424	63ffcb367b500c516d0648a2	1	1	practice_slash	22	advance_on_keypress_SLASH	20	stimuli_distractor_trianglediamonds.svg	stimuli_distractor_trianglediamonds.svg	15	no	57	0	597	6	1	antiphase_hc_iso.wav	2	6	3	noise_calib_stim_LEFT.wav	1	30	blb_dichoticlistening_pa-ta.mp3	pa	ta	1	right
6.6.0	win	2023-06-02	00:11:11	00:23:44	751364	63ffcb367b500c516d0648a2	1	1	practice_slash	22	practice_slash	21	stimuli_target_rectanglediamonds.svg	stimuli_distractor_trianglediamonds.svg	4	yes	53	1	691	6	1	antiphase_hc_iso.wav	2	6	3	noise_calib_stim_LEFT.wav	1	30	blb_dichoticlistening_pa-ta.mp3	pa	ta	1	right
6.6.0	win	2023-06-02	00:11:11	00:23:44	751364	63ffcb367b500c516d0648a2	1	1	practice_slash	22	advance_on_keypress_SLASH	22	stimuli_target_rectanglediamonds.svg	stimuli_distractor_trianglediamonds.svg	4	yes	57	0	20	6	1	antiphase_hc_iso.wav	2	6	3	noise_calib_stim_LEFT.wav	1	30	blb_dichoticlistening_pa-ta.mp3	pa	ta	1	right
6.6.0	win	2023-06-02	00:11:11	00:23:47	753816	63ffcb367b500c516d0648a2	1	1	practice_slash	22	practice_slash	23	stimuli_distractor_diamondtriangles.svg	stimuli_target_rectangletriangles.svg	7	yes	53	1	779	6	1	antiphase_hc_iso.wav	2	6	3	noise_calib_stim_LEFT.wav	1	30	blb_dichoticlistening_pa-ta.mp3	pa	ta	1	right
6.6.0	win	2023-06-02	00:11:11	00:23:47	753816	63ffcb367b500c516d0648a2	1	1	practice_slash	22	advance_on_keypress_SLASH	24	stimuli_distractor_diamondtriangles.svg	stimuli_target_rectangletriangles.svg	7	yes	57	0	592	6	1	antiphase_hc_iso.wav	2	6	3	noise_calib_stim_LEFT.wav	1	30	blb_dichoticlistening_pa-ta.mp3	pa	ta	1	right
6.6.0	win	2023-06-02	00:11:11	00:23:50	756982	63ffcb367b500c516d0648a2	1	1	practice_slash	22	practice_slash	25	stimuli_target_squarediamonds.svg	stimuli_distractor_trianglediamonds.svg	5	yes	53	1	942	6	1	antiphase_hc_iso.wav	2	6	3	noise_calib_stim_LEFT.wav	1	30	blb_dichoticlistening_pa-ta.mp3	pa	ta	1	right
6.6.0	win	2023-06-02	00:11:11	00:23:50	756982	63ffcb367b500c516d0648a2	1	1	practice_slash	22	advance_on_keypress_SLASH	26	stimuli_target_squarediamonds.svg	stimuli_distractor_trianglediamonds.svg	5	yes	57	0	0	6	1	antiphase_hc_iso.wav	2	6	3	noise_calib_stim_LEFT.wav	1	30	blb_dichoticlistening_pa-ta.mp3	pa	ta	1	right
6.6.0	win	2023-06-02	00:11:11	00:23:54	760643	63ffcb367b500c516d0648a2	1	1	practice_slash	22	practice_slash	27	stimuli_distractor_diamondtriangles.svg	stimuli_target_diamondrectangles.svg	8	yes	0	0	2000	6	1	antiphase_hc_iso.wav	2	6	3	noise_calib_stim_LEFT.wav	1	30	blb_dichoticlistening_pa-ta.mp3	pa	ta	1	right
6.6.0	win	2023-06-02	00:11:11	00:23:54	760643	63ffcb367b500c516d0648a2	1	1	practice_slash	22	advance_on_keypress_SLASH	28	stimuli_distractor_diamondtriangles.svg	stimuli_target_diamondrectangles.svg	8	yes	57	0	538	6	1	antiphase_hc_iso.wav	2	6	3	noise_calib_stim_LEFT.wav	1	30	blb_dichoticlistening_pa-ta.mp3	pa	ta	1	right
6.6.0	win	2023-06-02	00:11:11	00:23:58	764830	63ffcb367b500c516d0648a2	1	1	practice_slash	22	practice_slash	29	stimuli_distractor_trianglediamonds.svg	stimuli_distractor_diamondtriangles.svg	16	no	0	1	2000	6	1	antiphase_hc_iso.wav	2	6	3	noise_calib_stim_LEFT.wav	1	30	blb_dichoticlistening_pa-ta.mp3	pa	ta	1	right
6.6.0	win	2023-06-02	00:11:11	00:23:58	764830	63ffcb367b500c516d0648a2	1	1	practice_slash	22	advance_on_keypress_SLASH	30	stimuli_distractor_trianglediamonds.svg	stimuli_distractor_diamondtriangles.svg	16	no	57	0	360	6	1	antiphase_hc_iso.wav	2	6	3	noise_calib_stim_LEFT.wav	1	30	blb_dichoticlistening_pa-ta.mp3	pa	ta	1	right
6.6.0	win	2023-06-02	00:11:11	00:24:02	768833	63ffcb367b500c516d0648a2	1	1	practice_slash	22	practice_slash	31	stimuli_target_diamondsquares.svg	stimuli_distractor_diamondtriangles.svg	3	yes	0	0	2000	6	1	antiphase_hc_iso.wav	2	6	3	noise_calib_stim_LEFT.wav	1	30	blb_dichoticlistening_pa-ta.mp3	pa	ta	1	right
6.6.0	win	2023-06-02	00:11:11	00:24:02	768833	63ffcb367b500c516d0648a2	1	1	practice_slash	22	advance_on_keypress_SLASH	32	stimuli_target_diamondsquares.svg	stimuli_distractor_diamondtriangles.svg	3	yes	57	0	548	6	1	antiphase_hc_iso.wav	2	6	3	noise_calib_stim_LEFT.wav	1	30	blb_dichoticlistening_pa-ta.mp3	pa	ta	1	right
6.6.0	win	2023-06-02	00:11:11	00:24:08	774870	63ffcb367b500c516d0648a2	1	1	main_slash	24	main_slash	1	stimuli_target_diamondsquares.svg	stimuli_distractor_diamondtriangles.svg	24	yes	0	0	2000	6	1	antiphase_hc_iso.wav	2	6	3	noise_calib_stim_LEFT.wav	1	30	blb_dichoticlistening_pa-ta.mp3	pa	ta	1	right
6.6.0	win	2023-06-02	00:11:11	00:24:08	774870	63ffcb367b500c516d0648a2	1	1	main_slash	24	advance_on_keypress_SLASH	2	stimuli_target_diamondsquares.svg	stimuli_distractor_diamondtriangles.svg	24	yes	57	0	614	6	1	antiphase_hc_iso.wav	2	6	3	noise_calib_stim_LEFT.wav	1	30	blb_dichoticlistening_pa-ta.mp3	pa	ta	1	right
6.6.0	win	2023-06-02	00:11:11	00:24:10	777236	63ffcb367b500c516d0648a2	1	1	main_slash	24	main_slash	3	stimuli_target_squaretriangles.svg	stimuli_distractor_trianglediamonds.svg	3	yes	53	1	1091	6	1	antiphase_hc_iso.wav	2	6	3	noise_calib_stim_LEFT.wav	1	30	blb_dichoticlistening_pa-ta.mp3	pa	ta	1	right
6.6.0	win	2023-06-02	00:11:11	00:24:10	777236	63ffcb367b500c516d0648a2	1	1	main_slash	24	advance_on_keypress_SLASH	4	stimuli_target_squaretriangles.svg	stimuli_distractor_trianglediamonds.svg	3	yes	57	0	886	6	1	antiphase_hc_iso.wav	2	6	3	noise_calib_stim_LEFT.wav	1	30	blb_dichoticlistening_pa-ta.mp3	pa	ta	1	right
6.6.0	win	2023-06-02	00:11:11	00:24:14	780774	63ffcb367b500c516d0648a2	1	1	main_slash	24	main_slash	5	stimuli_distractor_diamondtriangles.svg	stimuli_distractor_diamondtriangles.svg	39	no	0	1	2000	6	1	antiphase_hc_iso.wav	2	6	3	noise_calib_stim_LEFT.wav	1	30	blb_dichoticlistening_pa-ta.mp3	pa	ta	1	right
6.6.0	win	2023-06-02	00:11:11	00:24:14	780774	63ffcb367b500c516d0648a2	1	1	main_slash	24	advance_on_keypress_SLASH	6	stimuli_distractor_diamondtriangles.svg	stimuli_distractor_diamondtriangles.svg	39	no	57	0	274	6	1	antiphase_hc_iso.wav	2	6	3	noise_calib_stim_LEFT.wav	1	30	blb_dichoticlistening_pa-ta.mp3	pa	ta	1	right
6.6.0	win	2023-06-02	00:11:11	00:24:16	782671	63ffcb367b500c516d0648a2	1	1	main_slash	24	main_slash	7	stimuli_distractor_trianglediamonds.svg	stimuli_target_trianglerectangles.svg	25	yes	53	1	947	6	1	antiphase_hc_iso.wav	2	6	3	noise_calib_stim_LEFT.wav	1	30	blb_dichoticlistening_pa-ta.mp3	pa	ta	1	right
6.6.0	win	2023-06-02	00:11:11	00:24:16	782671	63ffcb367b500c516d0648a2	1	1	main_slash	24	advance_on_keypress_SLASH	8	stimuli_distractor_trianglediamonds.svg	stimuli_target_trianglerectangles.svg	25	yes	57	0	621	6	1	antiphase_hc_iso.wav	2	6	3	noise_calib_stim_LEFT.wav	1	30	blb_dichoticlistening_pa-ta.mp3	pa	ta	1	right
6.6.0	win	2023-06-02	00:11:11	00:24:18	785178	63ffcb367b500c516d0648a2	1	1	main_slash	24	main_slash	9	stimuli_distractor_diamondtriangles.svg	stimuli_target_diamondsquares.svg	32	yes	53	1	1232	6	1	antiphase_hc_iso.wav	2	6	3	noise_calib_stim_LEFT.wav	1	30	blb_dichoticlistening_pa-ta.mp3	pa	ta	1	right
6.6.0	win	2023-06-02	00:11:11	00:24:18	785178	63ffcb367b500c516d0648a2	1	1	main_slash	24	advance_on_keypress_SLASH	10	stimuli_distractor_diamondtriangles.svg	stimuli_target_diamondsquares.svg	32	yes	57	0	469	6	1	antiphase_hc_iso.wav	2	6	3	noise_calib_stim_LEFT.wav	1	30	blb_dichoticlistening_pa-ta.mp3	pa	ta	1	right
6.6.0	win	2023-06-02	00:11:11	00:24:21	788299	63ffcb367b500c516d0648a2	1	1	main_slash	24	main_slash	11	stimuli_distractor_diamondtriangles.svg	stimuli_target_trianglerectangles.svg	29	yes	53	1	1998	6	1	antiphase_hc_iso.wav	2	6	3	noise_calib_stim_LEFT.wav	1	30	blb_dichoticlistening_pa-ta.mp3	pa	ta	1	right
6.6.0	win	2023-06-02	00:11:11	00:24:21	788299	63ffcb367b500c516d0648a2	1	1	main_slash	24	advance_on_keypress_SLASH	12	stimuli_distractor_diamondtriangles.svg	stimuli_target_trianglerectangles.svg	29	yes	57	0	439	6	1	antiphase_hc_iso.wav	2	6	3	noise_calib_stim_LEFT.wav	1	30	blb_dichoticlistening_pa-ta.mp3	pa	ta	1	right
6.6.0	win	2023-06-02	00:11:11	00:24:24	791390	63ffcb367b500c516d0648a2	1	1	main_slash	24	main_slash	13	stimuli_distractor_trianglediamonds.svg	stimuli_distractor_diamondtriangles.svg	36	no	0	1	2000	6	1	antiphase_hc_iso.wav	2	6	3	noise_calib_stim_LEFT.wav	1	30	blb_dichoticlistening_pa-ta.mp3	pa	ta	1	right
6.6.0	win	2023-06-02	00:11:11	00:24:24	791390	63ffcb367b500c516d0648a2	1	1	main_slash	24	advance_on_keypress_SLASH	14	stimuli_distractor_trianglediamonds.svg	stimuli_distractor_diamondtriangles.svg	36	no	57	0	392	6	1	antiphase_hc_iso.wav	2	6	3	noise_calib_stim_LEFT.wav	1	30	blb_dichoticlistening_pa-ta.mp3	pa	ta	1	right
6.6.0	win	2023-06-02	00:11:11	00:24:27	794424	63ffcb367b500c516d0648a2	1	1	main_slash	24	main_slash	15	stimuli_distractor_diamondtriangles.svg	stimuli_distractor_trianglediamonds.svg	38	no	0	1	2000	6	1	antiphase_hc_iso.wav	2	6	3	noise_calib_stim_LEFT.wav	1	30	blb_dichoticlistening_pa-ta.mp3	pa	ta	1	right
6.6.0	win	2023-06-02	00:11:11	00:24:27	794424	63ffcb367b500c516d0648a2	1	1	main_slash	24	advance_on_keypress_SLASH	16	stimuli_distractor_diamondtriangles.svg	stimuli_distractor_trianglediamonds.svg	38	no	57	0	261	6	1	antiphase_hc_iso.wav	2	6	3	noise_calib_stim_LEFT.wav	1	30	blb_dichoticlistening_pa-ta.mp3	pa	ta	1	right
6.6.0	win	2023-06-02	00:11:11	00:24:29	796034	63ffcb367b500c516d0648a2	1	1	main_slash	24	main_slash	17	stimuli_target_squaretriangles.svg	stimuli_distractor_diamondtriangles.svg	7	yes	53	1	697	6	1	antiphase_hc_iso.wav	2	6	3	noise_calib_stim_LEFT.wav	1	30	blb_dichoticlistening_pa-ta.mp3	pa	ta	1	right
6.6.0	win	2023-06-02	00:11:11	00:24:29	796034	63ffcb367b500c516d0648a2	1	1	main_slash	24	advance_on_keypress_SLASH	18	stimuli_target_squaretriangles.svg	stimuli_distractor_diamondtriangles.svg	7	yes	57	0	1267	6	1	antiphase_hc_iso.wav	2	6	3	noise_calib_stim_LEFT.wav	1	30	blb_dichoticlistening_pa-ta.mp3	pa	ta	1	right
6.6.0	win	2023-06-02	00:11:11	00:24:33	799940	63ffcb367b500c516d0648a2	1	1	main_slash	24	main_slash	19	stimuli_target_trianglerectangles.svg	stimuli_distractor_diamondtriangles.svg	21	yes	0	0	2000	6	1	antiphase_hc_iso.wav	2	6	3	noise_calib_stim_LEFT.wav	1	30	blb_dichoticlistening_pa-ta.mp3	pa	ta	1	right
6.6.0	win	2023-06-02	00:11:11	00:24:33	799940	63ffcb367b500c516d0648a2	1	1	main_slash	24	advance_on_keypress_SLASH	20	stimuli_target_trianglerectangles.svg	stimuli_distractor_diamondtriangles.svg	21	yes	57	0	331	6	1	antiphase_hc_iso.wav	2	6	3	noise_calib_stim_LEFT.wav	1	30	blb_dichoticlistening_pa-ta.mp3	pa	ta	1	right
6.6.0	win	2023-06-02	00:11:11	00:24:36	802926	63ffcb367b500c516d0648a2	1	1	main_slash	24	main_slash	21	stimuli_distractor_trianglediamonds.svg	stimuli_target_squaretriangles.svg	11	yes	0	0	2000	6	1	antiphase_hc_iso.wav	2	6	3	noise_calib_stim_LEFT.wav	1	30	blb_dichoticlistening_pa-ta.mp3	pa	ta	1	right
6.6.0	win	2023-06-02	00:11:11	00:24:36	802926	63ffcb367b500c516d0648a2	1	1	main_slash	24	advance_on_keypress_SLASH	22	stimuli_distractor_trianglediamonds.svg	stimuli_target_squaretriangles.svg	11	yes	57	0	954	6	1	antiphase_hc_iso.wav	2	6	3	noise_calib_stim_LEFT.wav	1	30	blb_dichoticlistening_pa-ta.mp3	pa	ta	1	right
6.6.0	win	2023-06-02	00:11:11	00:24:39	806149	63ffcb367b500c516d0648a2	1	1	main_slash	24	main_slash	23	stimuli_target_squarediamonds.svg	stimuli_distractor_trianglediamonds.svg	4	yes	53	1	1605	6	1	antiphase_hc_iso.wav	2	6	3	noise_calib_stim_LEFT.wav	1	30	blb_dichoticlistening_pa-ta.mp3	pa	ta	1	right
6.6.0	win	2023-06-02	00:11:11	00:24:39	806149	63ffcb367b500c516d0648a2	1	1	main_slash	24	advance_on_keypress_SLASH	24	stimuli_target_squarediamonds.svg	stimuli_distractor_trianglediamonds.svg	4	yes	57	0	590	6	1	antiphase_hc_iso.wav	2	6	3	noise_calib_stim_LEFT.wav	1	30	blb_dichoticlistening_pa-ta.mp3	pa	ta	1	right
6.6.0	win	2023-06-02	00:11:11	00:24:42	809392	63ffcb367b500c516d0648a2	1	1	main_slash	24	main_slash	25	stimuli_target_diamondrectangles.svg	stimuli_distractor_diamondtriangles.svg	23	yes	0	0	2000	6	1	antiphase_hc_iso.wav	2	6	3	noise_calib_stim_LEFT.wav	1	30	blb_dichoticlistening_pa-ta.mp3	pa	ta	1	right
6.6.0	win	2023-06-02	00:11:11	00:24:42	809392	63ffcb367b500c516d0648a2	1	1	main_slash	24	advance_on_keypress_SLASH	26	stimuli_target_diamondrectangles.svg	stimuli_distractor_diamondtriangles.svg	23	yes	57	0	290	6	1	antiphase_hc_iso.wav	2	6	3	noise_calib_stim_LEFT.wav	1	30	blb_dichoticlistening_pa-ta.mp3	pa	ta	1	right
6.6.0	win	2023-06-02	00:11:11	00:24:44	811402	63ffcb367b500c516d0648a2	1	1	main_slash	24	main_slash	27	stimuli_target_squarediamonds.svg	stimuli_distractor_diamondtriangles.svg	8	yes	53	1	1069	6	1	antiphase_hc_iso.wav	2	6	3	noise_calib_stim_LEFT.wav	1	30	blb_dichoticlistening_pa-ta.mp3	pa	ta	1	right
6.6.0	win	2023-06-02	00:11:11	00:24:44	811402	63ffcb367b500c516d0648a2	1	1	main_slash	24	advance_on_keypress_SLASH	28	stimuli_target_squarediamonds.svg	stimuli_distractor_diamondtriangles.svg	8	yes	57	0	849	6	1	antiphase_hc_iso.wav	2	6	3	noise_calib_stim_LEFT.wav	1	30	blb_dichoticlistening_pa-ta.mp3	pa	ta	1	right
6.6.0	win	2023-06-02	00:11:11	00:24:48	814907	63ffcb367b500c516d0648a2	1	1	main_slash	24	main_slash	29	stimuli_distractor_diamondtriangles.svg	stimuli_distractor_trianglediamonds.svg	37	no	0	1	2000	6	1	antiphase_hc_iso.wav	2	6	3	noise_calib_stim_LEFT.wav	1	30	blb_dichoticlistening_pa-ta.mp3	pa	ta	1	right
6.6.0	win	2023-06-02	00:11:11	00:24:48	814907	63ffcb367b500c516d0648a2	1	1	main_slash	24	advance_on_keypress_SLASH	30	stimuli_distractor_diamondtriangles.svg	stimuli_distractor_trianglediamonds.svg	37	no	57	0	414	6	1	antiphase_hc_iso.wav	2	6	3	noise_calib_stim_LEFT.wav	1	30	blb_dichoticlistening_pa-ta.mp3	pa	ta	1	right
6.6.0	win	2023-06-02	00:11:11	00:24:51	817971	63ffcb367b500c516d0648a2	1	1	main_slash	24	main_slash	31	stimuli_distractor_trianglediamonds.svg	stimuli_distractor_trianglediamonds.svg	34	no	0	1	2000	6	1	antiphase_hc_iso.wav	2	6	3	noise_calib_stim_LEFT.wav	1	30	blb_dichoticlistening_pa-ta.mp3	pa	ta	1	right
6.6.0	win	2023-06-02	00:11:11	00:24:51	817971	63ffcb367b500c516d0648a2	1	1	main_slash	24	advance_on_keypress_SLASH	32	stimuli_distractor_trianglediamonds.svg	stimuli_distractor_trianglediamonds.svg	34	no	57	0	313	6	1	antiphase_hc_iso.wav	2	6	3	noise_calib_stim_LEFT.wav	1	30	blb_dichoticlistening_pa-ta.mp3	pa	ta	1	right
6.6.0	win	2023-06-02	00:11:11	00:24:53	819550	63ffcb367b500c516d0648a2	1	1	main_slash	24	main_slash	33	stimuli_distractor_trianglediamonds.svg	stimuli_target_trianglesquares.svg	26	yes	53	1	627	6	1	antiphase_hc_iso.wav	2	6	3	noise_calib_stim_LEFT.wav	1	30	blb_dichoticlistening_pa-ta.mp3	pa	ta	1	right
6.6.0	win	2023-06-02	00:11:11	00:24:53	819550	63ffcb367b500c516d0648a2	1	1	main_slash	24	advance_on_keypress_SLASH	34	stimuli_distractor_trianglediamonds.svg	stimuli_target_trianglesquares.svg	26	yes	57	0	1064	6	1	antiphase_hc_iso.wav	2	6	3	noise_calib_stim_LEFT.wav	1	30	blb_dichoticlistening_pa-ta.mp3	pa	ta	1	right
6.6.0	win	2023-06-02	00:11:11	00:24:56	822782	63ffcb367b500c516d0648a2	1	1	main_slash	24	main_slash	35	stimuli_target_diamondsquares.svg	stimuli_distractor_trianglediamonds.svg	20	yes	53	1	1524	6	1	antiphase_hc_iso.wav	2	6	3	noise_calib_stim_LEFT.wav	1	30	blb_dichoticlistening_pa-ta.mp3	pa	ta	1	right
6.6.0	win	2023-06-02	00:11:11	00:24:56	822782	63ffcb367b500c516d0648a2	1	1	main_slash	24	advance_on_keypress_SLASH	36	stimuli_target_diamondsquares.svg	stimuli_distractor_trianglediamonds.svg	20	yes	57	0	404	6	1	antiphase_hc_iso.wav	2	6	3	noise_calib_stim_LEFT.wav	1	30	blb_dichoticlistening_pa-ta.mp3	pa	ta	1	right
6.6.0	win	2023-06-02	00:11:11	00:24:58	825111	63ffcb367b500c516d0648a2	1	1	main_slash	24	main_slash	37	stimuli_target_rectanglediamonds.svg	stimuli_distractor_trianglediamonds.svg	2	yes	53	1	1265	6	1	antiphase_hc_iso.wav	2	6	3	noise_calib_stim_LEFT.wav	1	30	blb_dichoticlistening_pa-ta.mp3	pa	ta	1	right
6.6.0	win	2023-06-02	00:11:11	00:24:58	825111	63ffcb367b500c516d0648a2	1	1	main_slash	24	advance_on_keypress_SLASH	38	stimuli_target_rectanglediamonds.svg	stimuli_distractor_trianglediamonds.svg	2	yes	57	0	790	6	1	antiphase_hc_iso.wav	2	6	3	noise_calib_stim_LEFT.wav	1	30	blb_dichoticlistening_pa-ta.mp3	pa	ta	1	right
6.6.0	win	2023-06-02	00:11:11	00:25:00	827286	63ffcb367b500c516d0648a2	1	1	main_slash	24	main_slash	39	stimuli_target_diamondrectangles.svg	stimuli_distractor_trianglediamonds.svg	19	yes	53	1	739	6	1	antiphase_hc_iso.wav	2	6	3	noise_calib_stim_LEFT.wav	1	30	blb_dichoticlistening_pa-ta.mp3	pa	ta	1	right
6.6.0	win	2023-06-02	00:11:11	00:25:00	827286	63ffcb367b500c516d0648a2	1	1	main_slash	24	advance_on_keypress_SLASH	40	stimuli_target_diamondrectangles.svg	stimuli_distractor_trianglediamonds.svg	19	yes	57	0	740	6	1	antiphase_hc_iso.wav	2	6	3	noise_calib_stim_LEFT.wav	1	30	blb_dichoticlistening_pa-ta.mp3	pa	ta	1	right
6.6.0	win	2023-06-02	00:11:11	00:25:02	829302	63ffcb367b500c516d0648a2	1	1	main_slash	24	main_slash	41	stimuli_target_trianglesquares.svg	stimuli_distractor_trianglediamonds.svg	18	yes	53	1	620	6	1	antiphase_hc_iso.wav	2	6	3	noise_calib_stim_LEFT.wav	1	30	blb_dichoticlistening_pa-ta.mp3	pa	ta	1	right
6.6.0	win	2023-06-02	00:11:11	00:25:02	829302	63ffcb367b500c516d0648a2	1	1	main_slash	24	advance_on_keypress_SLASH	42	stimuli_target_trianglesquares.svg	stimuli_distractor_trianglediamonds.svg	18	yes	57	0	610	6	1	antiphase_hc_iso.wav	2	6	3	noise_calib_stim_LEFT.wav	1	30	blb_dichoticlistening_pa-ta.mp3	pa	ta	1	right
6.6.0	win	2023-06-02	00:11:11	00:25:04	831310	63ffcb367b500c516d0648a2	1	1	main_slash	24	main_slash	43	stimuli_distractor_trianglediamonds.svg	stimuli_target_diamondrectangles.svg	27	yes	53	1	752	6	1	antiphase_hc_iso.wav	2	6	3	noise_calib_stim_LEFT.wav	1	30	blb_dichoticlistening_pa-ta.mp3	pa	ta	1	right
6.6.0	win	2023-06-02	00:11:11	00:25:04	831310	63ffcb367b500c516d0648a2	1	1	main_slash	24	advance_on_keypress_SLASH	44	stimuli_distractor_trianglediamonds.svg	stimuli_target_diamondrectangles.svg	27	yes	57	0	440	6	1	antiphase_hc_iso.wav	2	6	3	noise_calib_stim_LEFT.wav	1	30	blb_dichoticlistening_pa-ta.mp3	pa	ta	1	right
6.6.0	win	2023-06-02	00:11:11	00:25:07	834401	63ffcb367b500c516d0648a2	1	1	main_slash	24	main_slash	45	stimuli_distractor_diamondtriangles.svg	stimuli_distractor_diamondtriangles.svg	40	no	0	1	2000	6	1	antiphase_hc_iso.wav	2	6	3	noise_calib_stim_LEFT.wav	1	30	blb_dichoticlistening_pa-ta.mp3	pa	ta	1	right
6.6.0	win	2023-06-02	00:11:11	00:25:07	834401	63ffcb367b500c516d0648a2	1	1	main_slash	24	advance_on_keypress_SLASH	46	stimuli_distractor_diamondtriangles.svg	stimuli_distractor_diamondtriangles.svg	40	no	57	0	411	6	1	antiphase_hc_iso.wav	2	6	3	noise_calib_stim_LEFT.wav	1	30	blb_dichoticlistening_pa-ta.mp3	pa	ta	1	right
6.6.0	win	2023-06-02	00:11:11	00:25:09	836154	63ffcb367b500c516d0648a2	1	1	main_slash	24	main_slash	47	stimuli_distractor_trianglediamonds.svg	stimuli_target_diamondsquares.svg	28	yes	53	1	679	6	1	antiphase_hc_iso.wav	2	6	3	noise_calib_stim_LEFT.wav	1	30	blb_dichoticlistening_pa-ta.mp3	pa	ta	1	right
6.6.0	win	2023-06-02	00:11:11	00:25:09	836154	63ffcb367b500c516d0648a2	1	1	main_slash	24	advance_on_keypress_SLASH	48	stimuli_distractor_trianglediamonds.svg	stimuli_target_diamondsquares.svg	28	yes	57	0	907	6	1	antiphase_hc_iso.wav	2	6	3	noise_calib_stim_LEFT.wav	1	30	blb_dichoticlistening_pa-ta.mp3	pa	ta	1	right
6.6.0	win	2023-06-02	00:11:11	00:25:12	838670	63ffcb367b500c516d0648a2	1	1	main_slash	24	main_slash	49	stimuli_distractor_diamondtriangles.svg	stimuli_target_diamondrectangles.svg	31	yes	53	1	965	6	1	antiphase_hc_iso.wav	2	6	3	noise_calib_stim_LEFT.wav	1	30	blb_dichoticlistening_pa-ta.mp3	pa	ta	1	right
6.6.0	win	2023-06-02	00:11:11	00:25:12	838670	63ffcb367b500c516d0648a2	1	1	main_slash	24	advance_on_keypress_SLASH	50	stimuli_distractor_diamondtriangles.svg	stimuli_target_diamondrectangles.svg	31	yes	57	0	517	6	1	antiphase_hc_iso.wav	2	6	3	noise_calib_stim_LEFT.wav	1	30	blb_dichoticlistening_pa-ta.mp3	pa	ta	1	right
6.6.0	win	2023-06-02	00:11:11	00:25:14	840470	63ffcb367b500c516d0648a2	1	1	main_slash	24	main_slash	51	stimuli_distractor_diamondtriangles.svg	stimuli_target_trianglesquares.svg	30	yes	53	1	621	6	1	antiphase_hc_iso.wav	2	6	3	noise_calib_stim_LEFT.wav	1	30	blb_dichoticlistening_pa-ta.mp3	pa	ta	1	right
6.6.0	win	2023-06-02	00:11:11	00:25:14	840470	63ffcb367b500c516d0648a2	1	1	main_slash	24	advance_on_keypress_SLASH	52	stimuli_distractor_diamondtriangles.svg	stimuli_target_trianglesquares.svg	30	yes	57	0	484	6	1	antiphase_hc_iso.wav	2	6	3	noise_calib_stim_LEFT.wav	1	30	blb_dichoticlistening_pa-ta.mp3	pa	ta	1	right
6.6.0	win	2023-06-02	00:11:11	00:25:15	842334	63ffcb367b500c516d0648a2	1	1	main_slash	24	main_slash	53	stimuli_target_rectangletriangles.svg	stimuli_distractor_trianglediamonds.svg	1	yes	53	1	742	6	1	antiphase_hc_iso.wav	2	6	3	noise_calib_stim_LEFT.wav	1	30	blb_dichoticlistening_pa-ta.mp3	pa	ta	1	right
6.6.0	win	2023-06-02	00:11:11	00:25:15	842334	63ffcb367b500c516d0648a2	1	1	main_slash	24	advance_on_keypress_SLASH	54	stimuli_target_rectangletriangles.svg	stimuli_distractor_trianglediamonds.svg	1	yes	57	0	447	6	1	antiphase_hc_iso.wav	2	6	3	noise_calib_stim_LEFT.wav	1	30	blb_dichoticlistening_pa-ta.mp3	pa	ta	1	right
6.6.0	win	2023-06-02	00:11:11	00:25:17	844072	63ffcb367b500c516d0648a2	1	1	main_slash	24	main_slash	55	stimuli_target_rectanglediamonds.svg	stimuli_distractor_diamondtriangles.svg	6	yes	53	1	640	6	1	antiphase_hc_iso.wav	2	6	3	noise_calib_stim_LEFT.wav	1	30	blb_dichoticlistening_pa-ta.mp3	pa	ta	1	right
6.6.0	win	2023-06-02	00:11:11	00:25:17	844072	63ffcb367b500c516d0648a2	1	1	main_slash	24	advance_on_keypress_SLASH	56	stimuli_target_rectanglediamonds.svg	stimuli_distractor_diamondtriangles.svg	6	yes	57	0	389	6	1	antiphase_hc_iso.wav	2	6	3	noise_calib_stim_LEFT.wav	1	30	blb_dichoticlistening_pa-ta.mp3	pa	ta	1	right
6.6.0	win	2023-06-02	00:11:11	00:25:19	845962	63ffcb367b500c516d0648a2	1	1	main_slash	24	main_slash	57	stimuli_target_trianglesquares.svg	stimuli_distractor_diamondtriangles.svg	22	yes	53	1	850	6	1	antiphase_hc_iso.wav	2	6	3	noise_calib_stim_LEFT.wav	1	30	blb_dichoticlistening_pa-ta.mp3	pa	ta	1	right
6.6.0	win	2023-06-02	00:11:11	00:25:19	845962	63ffcb367b500c516d0648a2	1	1	main_slash	24	advance_on_keypress_SLASH	58	stimuli_target_trianglesquares.svg	stimuli_distractor_diamondtriangles.svg	22	yes	57	0	446	6	1	antiphase_hc_iso.wav	2	6	3	noise_calib_stim_LEFT.wav	1	30	blb_dichoticlistening_pa-ta.mp3	pa	ta	1	right
6.6.0	win	2023-06-02	00:11:11	00:25:21	847714	63ffcb367b500c516d0648a2	1	1	main_slash	24	main_slash	59	stimuli_distractor_diamondtriangles.svg	stimuli_target_rectanglediamonds.svg	14	yes	53	1	651	6	1	antiphase_hc_iso.wav	2	6	3	noise_calib_stim_LEFT.wav	1	30	blb_dichoticlistening_pa-ta.mp3	pa	ta	1	right
6.6.0	win	2023-06-02	00:11:11	00:25:21	847714	63ffcb367b500c516d0648a2	1	1	main_slash	24	advance_on_keypress_SLASH	60	stimuli_distractor_diamondtriangles.svg	stimuli_target_rectanglediamonds.svg	14	yes	57	0	343	6	1	antiphase_hc_iso.wav	2	6	3	noise_calib_stim_LEFT.wav	1	30	blb_dichoticlistening_pa-ta.mp3	pa	ta	1	right
6.6.0	win	2023-06-02	00:11:11	00:25:23	849946	63ffcb367b500c516d0648a2	1	1	main_slash	24	main_slash	61	stimuli_distractor_diamondtriangles.svg	stimuli_target_squaretriangles.svg	15	yes	53	1	1231	6	1	antiphase_hc_iso.wav	2	6	3	noise_calib_stim_LEFT.wav	1	30	blb_dichoticlistening_pa-ta.mp3	pa	ta	1	right
6.6.0	win	2023-06-02	00:11:11	00:25:23	849946	63ffcb367b500c516d0648a2	1	1	main_slash	24	advance_on_keypress_SLASH	62	stimuli_distractor_diamondtriangles.svg	stimuli_target_squaretriangles.svg	15	yes	57	0	389	6	1	antiphase_hc_iso.wav	2	6	3	noise_calib_stim_LEFT.wav	1	30	blb_dichoticlistening_pa-ta.mp3	pa	ta	1	right
6.6.0	win	2023-06-02	00:11:11	00:25:26	852983	63ffcb367b500c516d0648a2	1	1	main_slash	24	main_slash	63	stimuli_distractor_trianglediamonds.svg	stimuli_distractor_diamondtriangles.svg	35	no	0	1	2000	6	1	antiphase_hc_iso.wav	2	6	3	noise_calib_stim_LEFT.wav	1	30	blb_dichoticlistening_pa-ta.mp3	pa	ta	1	right
6.6.0	win	2023-06-02	00:11:11	00:25:26	852983	63ffcb367b500c516d0648a2	1	1	main_slash	24	advance_on_keypress_SLASH	64	stimuli_distractor_trianglediamonds.svg	stimuli_distractor_diamondtriangles.svg	35	no	57	0	408	6	1	antiphase_hc_iso.wav	2	6	3	noise_calib_stim_LEFT.wav	1	30	blb_dichoticlistening_pa-ta.mp3	pa	ta	1	right
6.6.0	win	2023-06-02	00:11:11	00:25:28	854778	63ffcb367b500c516d0648a2	1	1	main_slash	24	main_slash	65	stimuli_distractor_trianglediamonds.svg	stimuli_target_rectangletriangles.svg	9	yes	53	1	727	6	1	antiphase_hc_iso.wav	2	6	3	noise_calib_stim_LEFT.wav	1	30	blb_dichoticlistening_pa-ta.mp3	pa	ta	1	right
6.6.0	win	2023-06-02	00:11:11	00:25:28	854778	63ffcb367b500c516d0648a2	1	1	main_slash	24	advance_on_keypress_SLASH	66	stimuli_distractor_trianglediamonds.svg	stimuli_target_rectangletriangles.svg	9	yes	57	0	407	6	1	antiphase_hc_iso.wav	2	6	3	noise_calib_stim_LEFT.wav	1	30	blb_dichoticlistening_pa-ta.mp3	pa	ta	1	right
6.6.0	win	2023-06-02	00:11:11	00:25:31	857820	63ffcb367b500c516d0648a2	1	1	main_slash	24	main_slash	67	stimuli_distractor_trianglediamonds.svg	stimuli_distractor_trianglediamonds.svg	33	no	0	1	2000	6	1	antiphase_hc_iso.wav	2	6	3	noise_calib_stim_LEFT.wav	1	30	blb_dichoticlistening_pa-ta.mp3	pa	ta	1	right
6.6.0	win	2023-06-02	00:11:11	00:25:31	857820	63ffcb367b500c516d0648a2	1	1	main_slash	24	advance_on_keypress_SLASH	68	stimuli_distractor_trianglediamonds.svg	stimuli_distractor_trianglediamonds.svg	33	no	57	0	491	6	1	antiphase_hc_iso.wav	2	6	3	noise_calib_stim_LEFT.wav	1	30	blb_dichoticlistening_pa-ta.mp3	pa	ta	1	right
6.6.0	win	2023-06-02	00:11:11	00:25:33	859618	63ffcb367b500c516d0648a2	1	1	main_slash	24	main_slash	69	stimuli_distractor_diamondtriangles.svg	stimuli_target_squarediamonds.svg	16	yes	53	1	662	6	1	antiphase_hc_iso.wav	2	6	3	noise_calib_stim_LEFT.wav	1	30	blb_dichoticlistening_pa-ta.mp3	pa	ta	1	right
6.6.0	win	2023-06-02	00:11:11	00:25:33	859618	63ffcb367b500c516d0648a2	1	1	main_slash	24	advance_on_keypress_SLASH	70	stimuli_distractor_diamondtriangles.svg	stimuli_target_squarediamonds.svg	16	yes	57	0	450	6	1	antiphase_hc_iso.wav	2	6	3	noise_calib_stim_LEFT.wav	1	30	blb_dichoticlistening_pa-ta.mp3	pa	ta	1	right
6.6.0	win	2023-06-02	00:11:11	00:25:34	861267	63ffcb367b500c516d0648a2	1	1	main_slash	24	main_slash	71	stimuli_distractor_trianglediamonds.svg	stimuli_target_rectanglediamonds.svg	10	yes	53	1	559	6	1	antiphase_hc_iso.wav	2	6	3	noise_calib_stim_LEFT.wav	1	30	blb_dichoticlistening_pa-ta.mp3	pa	ta	1	right
6.6.0	win	2023-06-02	00:11:11	00:25:34	861267	63ffcb367b500c516d0648a2	1	1	main_slash	24	advance_on_keypress_SLASH	72	stimuli_distractor_trianglediamonds.svg	stimuli_target_rectanglediamonds.svg	10	yes	57	0	383	6	1	antiphase_hc_iso.wav	2	6	3	noise_calib_stim_LEFT.wav	1	30	blb_dichoticlistening_pa-ta.mp3	pa	ta	1	right
6.6.0	win	2023-06-02	00:11:11	00:25:36	862923	63ffcb367b500c516d0648a2	1	1	main_slash	24	main_slash	73	stimuli_target_rectangletriangles.svg	stimuli_distractor_diamondtriangles.svg	5	yes	53	1	606	6	1	antiphase_hc_iso.wav	2	6	3	noise_calib_stim_LEFT.wav	1	30	blb_dichoticlistening_pa-ta.mp3	pa	ta	1	right
6.6.0	win	2023-06-02	00:11:11	00:25:36	862923	63ffcb367b500c516d0648a2	1	1	main_slash	24	advance_on_keypress_SLASH	74	stimuli_target_rectangletriangles.svg	stimuli_distractor_diamondtriangles.svg	5	yes	57	0	339	6	1	antiphase_hc_iso.wav	2	6	3	noise_calib_stim_LEFT.wav	1	30	blb_dichoticlistening_pa-ta.mp3	pa	ta	1	right
6.6.0	win	2023-06-02	00:11:11	00:25:38	865034	63ffcb367b500c516d0648a2	1	1	main_slash	24	main_slash	75	stimuli_target_trianglerectangles.svg	stimuli_distractor_trianglediamonds.svg	17	yes	53	1	1124	6	1	antiphase_hc_iso.wav	2	6	3	noise_calib_stim_LEFT.wav	1	30	blb_dichoticlistening_pa-ta.mp3	pa	ta	1	right
6.6.0	win	2023-06-02	00:11:11	00:25:38	865034	63ffcb367b500c516d0648a2	1	1	main_slash	24	advance_on_keypress_SLASH	76	stimuli_target_trianglerectangles.svg	stimuli_distractor_trianglediamonds.svg	17	yes	57	0	534	6	1	antiphase_hc_iso.wav	2	6	3	noise_calib_stim_LEFT.wav	1	30	blb_dichoticlistening_pa-ta.mp3	pa	ta	1	right
6.6.0	win	2023-06-02	00:11:11	00:25:40	866779	63ffcb367b500c516d0648a2	1	1	main_slash	24	main_slash	77	stimuli_distractor_diamondtriangles.svg	stimuli_target_rectangletriangles.svg	13	yes	53	1	559	6	1	antiphase_hc_iso.wav	2	6	3	noise_calib_stim_LEFT.wav	1	30	blb_dichoticlistening_pa-ta.mp3	pa	ta	1	right
6.6.0	win	2023-06-02	00:11:11	00:25:40	866779	63ffcb367b500c516d0648a2	1	1	main_slash	24	advance_on_keypress_SLASH	78	stimuli_distractor_diamondtriangles.svg	stimuli_target_rectangletriangles.svg	13	yes	57	0	399	6	1	antiphase_hc_iso.wav	2	6	3	noise_calib_stim_LEFT.wav	1	30	blb_dichoticlistening_pa-ta.mp3	pa	ta	1	right
6.6.0	win	2023-06-02	00:11:11	00:25:41	868258	63ffcb367b500c516d0648a2	1	1	main_slash	24	main_slash	79	stimuli_distractor_trianglediamonds.svg	stimuli_target_squarediamonds.svg	12	yes	53	1	428	6	1	antiphase_hc_iso.wav	2	6	3	noise_calib_stim_LEFT.wav	1	30	blb_dichoticlistening_pa-ta.mp3	pa	ta	1	right
6.6.0	win	2023-06-02	00:11:11	00:25:41	868258	63ffcb367b500c516d0648a2	1	1	main_slash	24	advance_on_keypress_SLASH	80	stimuli_distractor_trianglediamonds.svg	stimuli_target_squarediamonds.svg	12	yes	57	0	311	6	1	antiphase_hc_iso.wav	2	6	3	noise_calib_stim_LEFT.wav	1	30	blb_dichoticlistening_pa-ta.mp3	pa	ta	1	right
6.6.0	win	2023-06-02	00:11:11	00:25:44	871198	63ffcb367b500c516d0648a2	1	1	main_slash	24	main_slash	81	stimuli_target_trianglerectangles.svg	stimuli_distractor_diamondtriangles.svg	21	yes	0	0	2000	6	1	antiphase_hc_iso.wav	2	6	3	noise_calib_stim_LEFT.wav	1	30	blb_dichoticlistening_pa-ta.mp3	pa	ta	1	right
6.6.0	win	2023-06-02	00:11:11	00:25:44	871198	63ffcb367b500c516d0648a2	1	1	main_slash	24	advance_on_keypress_SLASH	82	stimuli_target_trianglerectangles.svg	stimuli_distractor_diamondtriangles.svg	21	yes	57	0	370	6	1	antiphase_hc_iso.wav	2	6	3	noise_calib_stim_LEFT.wav	1	30	blb_dichoticlistening_pa-ta.mp3	pa	ta	1	right
6.6.0	win	2023-06-02	00:11:11	00:25:46	872794	63ffcb367b500c516d0648a2	1	1	main_slash	24	main_slash	83	stimuli_target_rectanglediamonds.svg	stimuli_distractor_diamondtriangles.svg	6	yes	53	1	562	6	1	antiphase_hc_iso.wav	2	6	3	noise_calib_stim_LEFT.wav	1	30	blb_dichoticlistening_pa-ta.mp3	pa	ta	1	right
6.6.0	win	2023-06-02	00:11:11	00:25:46	872794	63ffcb367b500c516d0648a2	1	1	main_slash	24	advance_on_keypress_SLASH	84	stimuli_target_rectanglediamonds.svg	stimuli_distractor_diamondtriangles.svg	6	yes	57	0	385	6	1	antiphase_hc_iso.wav	2	6	3	noise_calib_stim_LEFT.wav	1	30	blb_dichoticlistening_pa-ta.mp3	pa	ta	1	right
6.6.0	win	2023-06-02	00:11:11	00:25:48	874526	63ffcb367b500c516d0648a2	1	1	main_slash	24	main_slash	85	stimuli_distractor_trianglediamonds.svg	stimuli_target_trianglesquares.svg	26	yes	53	1	708	6	1	antiphase_hc_iso.wav	2	6	3	noise_calib_stim_LEFT.wav	1	30	blb_dichoticlistening_pa-ta.mp3	pa	ta	1	right
6.6.0	win	2023-06-02	00:11:11	00:25:48	874526	63ffcb367b500c516d0648a2	1	1	main_slash	24	advance_on_keypress_SLASH	86	stimuli_distractor_trianglediamonds.svg	stimuli_target_trianglesquares.svg	26	yes	57	0	326	6	1	antiphase_hc_iso.wav	2	6	3	noise_calib_stim_LEFT.wav	1	30	blb_dichoticlistening_pa-ta.mp3	pa	ta	1	right
6.6.0	win	2023-06-02	00:11:11	00:25:49	876274	63ffcb367b500c516d0648a2	1	1	main_slash	24	main_slash	87	stimuli_target_trianglesquares.svg	stimuli_distractor_diamondtriangles.svg	22	yes	53	1	786	6	1	antiphase_hc_iso.wav	2	6	3	noise_calib_stim_LEFT.wav	1	30	blb_dichoticlistening_pa-ta.mp3	pa	ta	1	right
6.6.0	win	2023-06-02	00:11:11	00:25:49	876274	63ffcb367b500c516d0648a2	1	1	main_slash	24	advance_on_keypress_SLASH	88	stimuli_target_trianglesquares.svg	stimuli_distractor_diamondtriangles.svg	22	yes	57	0	251	6	1	antiphase_hc_iso.wav	2	6	3	noise_calib_stim_LEFT.wav	1	30	blb_dichoticlistening_pa-ta.mp3	pa	ta	1	right
6.6.0	win	2023-06-02	00:11:11	00:25:51	877734	63ffcb367b500c516d0648a2	1	1	main_slash	24	main_slash	89	stimuli_target_rectangletriangles.svg	stimuli_distractor_trianglediamonds.svg	1	yes	53	1	553	6	1	antiphase_hc_iso.wav	2	6	3	noise_calib_stim_LEFT.wav	1	30	blb_dichoticlistening_pa-ta.mp3	pa	ta	1	right
6.6.0	win	2023-06-02	00:11:11	00:25:51	877734	63ffcb367b500c516d0648a2	1	1	main_slash	24	advance_on_keypress_SLASH	90	stimuli_target_rectangletriangles.svg	stimuli_distractor_trianglediamonds.svg	1	yes	57	0	331	6	1	antiphase_hc_iso.wav	2	6	3	noise_calib_stim_LEFT.wav	1	30	blb_dichoticlistening_pa-ta.mp3	pa	ta	1	right
6.6.0	win	2023-06-02	00:11:11	00:25:54	880705	63ffcb367b500c516d0648a2	1	1	main_slash	24	main_slash	91	stimuli_distractor_diamondtriangles.svg	stimuli_distractor_trianglediamonds.svg	38	no	0	1	2000	6	1	antiphase_hc_iso.wav	2	6	3	noise_calib_stim_LEFT.wav	1	30	blb_dichoticlistening_pa-ta.mp3	pa	ta	1	right
6.6.0	win	2023-06-02	00:11:11	00:25:54	880705	63ffcb367b500c516d0648a2	1	1	main_slash	24	advance_on_keypress_SLASH	92	stimuli_distractor_diamondtriangles.svg	stimuli_distractor_trianglediamonds.svg	38	no	57	0	170	6	1	antiphase_hc_iso.wav	2	6	3	noise_calib_stim_LEFT.wav	1	30	blb_dichoticlistening_pa-ta.mp3	pa	ta	1	right
6.6.0	win	2023-06-02	00:11:11	00:25:55	882216	63ffcb367b500c516d0648a2	1	1	main_slash	24	main_slash	93	stimuli_target_trianglesquares.svg	stimuli_distractor_trianglediamonds.svg	18	yes	53	1	689	6	1	antiphase_hc_iso.wav	2	6	3	noise_calib_stim_LEFT.wav	1	30	blb_dichoticlistening_pa-ta.mp3	pa	ta	1	right
6.6.0	win	2023-06-02	00:11:11	00:25:55	882216	63ffcb367b500c516d0648a2	1	1	main_slash	24	advance_on_keypress_SLASH	94	stimuli_target_trianglesquares.svg	stimuli_distractor_trianglediamonds.svg	18	yes	57	0	341	6	1	antiphase_hc_iso.wav	2	6	3	noise_calib_stim_LEFT.wav	1	30	blb_dichoticlistening_pa-ta.mp3	pa	ta	1	right
6.6.0	win	2023-06-02	00:11:11	00:25:57	883844	63ffcb367b500c516d0648a2	1	1	main_slash	24	main_slash	95	stimuli_distractor_diamondtriangles.svg	stimuli_target_squarediamonds.svg	16	yes	53	1	637	6	1	antiphase_hc_iso.wav	2	6	3	noise_calib_stim_LEFT.wav	1	30	blb_dichoticlistening_pa-ta.mp3	pa	ta	1	right
6.6.0	win	2023-06-02	00:11:11	00:25:57	883844	63ffcb367b500c516d0648a2	1	1	main_slash	24	advance_on_keypress_SLASH	96	stimuli_distractor_diamondtriangles.svg	stimuli_target_squarediamonds.svg	16	yes	57	0	338	6	1	antiphase_hc_iso.wav	2	6	3	noise_calib_stim_LEFT.wav	1	30	blb_dichoticlistening_pa-ta.mp3	pa	ta	1	right
6.6.0	win	2023-06-02	00:11:11	00:25:59	885796	63ffcb367b500c516d0648a2	1	1	main_slash	24	main_slash	97	stimuli_distractor_trianglediamonds.svg	stimuli_target_trianglerectangles.svg	25	yes	53	1	963	6	1	antiphase_hc_iso.wav	2	6	3	noise_calib_stim_LEFT.wav	1	30	blb_dichoticlistening_pa-ta.mp3	pa	ta	1	right
6.6.0	win	2023-06-02	00:11:11	00:25:59	885796	63ffcb367b500c516d0648a2	1	1	main_slash	24	advance_on_keypress_SLASH	98	stimuli_distractor_trianglediamonds.svg	stimuli_target_trianglerectangles.svg	25	yes	57	0	395	6	1	antiphase_hc_iso.wav	2	6	3	noise_calib_stim_LEFT.wav	1	30	blb_dichoticlistening_pa-ta.mp3	pa	ta	1	right
6.6.0	win	2023-06-02	00:11:11	00:26:02	888845	63ffcb367b500c516d0648a2	1	1	main_slash	24	main_slash	99	stimuli_target_trianglerectangles.svg	stimuli_distractor_trianglediamonds.svg	17	yes	0	0	2000	6	1	antiphase_hc_iso.wav	2	6	3	noise_calib_stim_LEFT.wav	1	30	blb_dichoticlistening_pa-ta.mp3	pa	ta	1	right
6.6.0	win	2023-06-02	00:11:11	00:26:02	888845	63ffcb367b500c516d0648a2	1	1	main_slash	24	advance_on_keypress_SLASH	100	stimuli_target_trianglerectangles.svg	stimuli_distractor_trianglediamonds.svg	17	yes	57	0	374	6	1	antiphase_hc_iso.wav	2	6	3	noise_calib_stim_LEFT.wav	1	30	blb_dichoticlistening_pa-ta.mp3	pa	ta	1	right
6.6.0	win	2023-06-02	00:11:11	00:26:03	890358	63ffcb367b500c516d0648a2	1	1	main_slash	24	main_slash	101	stimuli_distractor_diamondtriangles.svg	stimuli_target_rectanglediamonds.svg	14	yes	53	1	493	6	1	antiphase_hc_iso.wav	2	6	3	noise_calib_stim_LEFT.wav	1	30	blb_dichoticlistening_pa-ta.mp3	pa	ta	1	right
6.6.0	win	2023-06-02	00:11:11	00:26:03	890358	63ffcb367b500c516d0648a2	1	1	main_slash	24	advance_on_keypress_SLASH	102	stimuli_distractor_diamondtriangles.svg	stimuli_target_rectanglediamonds.svg	14	yes	57	0	456	6	1	antiphase_hc_iso.wav	2	6	3	noise_calib_stim_LEFT.wav	1	30	blb_dichoticlistening_pa-ta.mp3	pa	ta	1	right
6.6.0	win	2023-06-02	00:11:11	00:26:05	891926	63ffcb367b500c516d0648a2	1	1	main_slash	24	main_slash	103	stimuli_target_squarediamonds.svg	stimuli_distractor_trianglediamonds.svg	4	yes	53	1	477	6	1	antiphase_hc_iso.wav	2	6	3	noise_calib_stim_LEFT.wav	1	30	blb_dichoticlistening_pa-ta.mp3	pa	ta	1	right
6.6.0	win	2023-06-02	00:11:11	00:26:05	891926	63ffcb367b500c516d0648a2	1	1	main_slash	24	advance_on_keypress_SLASH	104	stimuli_target_squarediamonds.svg	stimuli_distractor_trianglediamonds.svg	4	yes	57	0	376	6	1	antiphase_hc_iso.wav	2	6	3	noise_calib_stim_LEFT.wav	1	30	blb_dichoticlistening_pa-ta.mp3	pa	ta	1	right
6.6.0	win	2023-06-02	00:11:11	00:26:08	894934	63ffcb367b500c516d0648a2	1	1	main_slash	24	main_slash	105	stimuli_distractor_diamondtriangles.svg	stimuli_distractor_diamondtriangles.svg	39	no	0	1	2000	6	1	antiphase_hc_iso.wav	2	6	3	noise_calib_stim_LEFT.wav	1	30	blb_dichoticlistening_pa-ta.mp3	pa	ta	1	right
6.6.0	win	2023-06-02	00:11:11	00:26:08	894934	63ffcb367b500c516d0648a2	1	1	main_slash	24	advance_on_keypress_SLASH	106	stimuli_distractor_diamondtriangles.svg	stimuli_distractor_diamondtriangles.svg	39	no	57	0	341	6	1	antiphase_hc_iso.wav	2	6	3	noise_calib_stim_LEFT.wav	1	30	blb_dichoticlistening_pa-ta.mp3	pa	ta	1	right
6.6.0	win	2023-06-02	00:11:11	00:26:10	896935	63ffcb367b500c516d0648a2	1	1	main_slash	24	main_slash	107	stimuli_distractor_diamondtriangles.svg	stimuli_distractor_trianglediamonds.svg	37	no	53	0	1006	6	1	antiphase_hc_iso.wav	2	6	3	noise_calib_stim_LEFT.wav	1	30	blb_dichoticlistening_pa-ta.mp3	pa	ta	1	right
6.6.0	win	2023-06-02	00:11:11	00:26:10	896935	63ffcb367b500c516d0648a2	1	1	main_slash	24	advance_on_keypress_SLASH	108	stimuli_distractor_diamondtriangles.svg	stimuli_distractor_trianglediamonds.svg	37	no	57	0	405	6	1	antiphase_hc_iso.wav	2	6	3	noise_calib_stim_LEFT.wav	1	30	blb_dichoticlistening_pa-ta.mp3	pa	ta	1	right
6.6.0	win	2023-06-02	00:11:11	00:26:12	898630	63ffcb367b500c516d0648a2	1	1	main_slash	24	main_slash	109	stimuli_target_squarediamonds.svg	stimuli_distractor_diamondtriangles.svg	8	yes	53	1	625	6	1	antiphase_hc_iso.wav	2	6	3	noise_calib_stim_LEFT.wav	1	30	blb_dichoticlistening_pa-ta.mp3	pa	ta	1	right
6.6.0	win	2023-06-02	00:11:11	00:26:12	898630	63ffcb367b500c516d0648a2	1	1	main_slash	24	advance_on_keypress_SLASH	110	stimuli_target_squarediamonds.svg	stimuli_distractor_diamondtriangles.svg	8	yes	57	0	407	6	1	antiphase_hc_iso.wav	2	6	3	noise_calib_stim_LEFT.wav	1	30	blb_dichoticlistening_pa-ta.mp3	pa	ta	1	right
6.6.0	win	2023-06-02	00:11:11	00:26:14	900494	63ffcb367b500c516d0648a2	1	1	main_slash	24	main_slash	111	stimuli_target_diamondrectangles.svg	stimuli_distractor_trianglediamonds.svg	19	yes	53	1	805	6	1	antiphase_hc_iso.wav	2	6	3	noise_calib_stim_LEFT.wav	1	30	blb_dichoticlistening_pa-ta.mp3	pa	ta	1	right
6.6.0	win	2023-06-02	00:11:11	00:26:14	900494	63ffcb367b500c516d0648a2	1	1	main_slash	24	advance_on_keypress_SLASH	112	stimuli_target_diamondrectangles.svg	stimuli_distractor_trianglediamonds.svg	19	yes	57	0	403	6	1	antiphase_hc_iso.wav	2	6	3	noise_calib_stim_LEFT.wav	1	30	blb_dichoticlistening_pa-ta.mp3	pa	ta	1	right
6.6.0	win	2023-06-02	00:11:11	00:26:15	902118	63ffcb367b500c516d0648a2	1	1	main_slash	24	main_slash	113	stimuli_distractor_diamondtriangles.svg	stimuli_target_rectangletriangles.svg	13	yes	53	1	562	6	1	antiphase_hc_iso.wav	2	6	3	noise_calib_stim_LEFT.wav	1	30	blb_dichoticlistening_pa-ta.mp3	pa	ta	1	right
6.6.0	win	2023-06-02	00:11:11	00:26:15	902118	63ffcb367b500c516d0648a2	1	1	main_slash	24	advance_on_keypress_SLASH	114	stimuli_distractor_diamondtriangles.svg	stimuli_target_rectangletriangles.svg	13	yes	57	0	349	6	1	antiphase_hc_iso.wav	2	6	3	noise_calib_stim_LEFT.wav	1	30	blb_dichoticlistening_pa-ta.mp3	pa	ta	1	right
6.6.0	win	2023-06-02	00:11:11	00:26:17	903630	63ffcb367b500c516d0648a2	1	1	main_slash	24	main_slash	115	stimuli_distractor_trianglediamonds.svg	stimuli_target_squaretriangles.svg	11	yes	53	1	518	6	1	antiphase_hc_iso.wav	2	6	3	noise_calib_stim_LEFT.wav	1	30	blb_dichoticlistening_pa-ta.mp3	pa	ta	1	right
6.6.0	win	2023-06-02	00:11:11	00:26:17	903630	63ffcb367b500c516d0648a2	1	1	main_slash	24	advance_on_keypress_SLASH	116	stimuli_distractor_trianglediamonds.svg	stimuli_target_squaretriangles.svg	11	yes	57	0	396	6	1	antiphase_hc_iso.wav	2	6	3	noise_calib_stim_LEFT.wav	1	30	blb_dichoticlistening_pa-ta.mp3	pa	ta	1	right
6.6.0	win	2023-06-02	00:11:11	00:26:18	905210	63ffcb367b500c516d0648a2	1	1	main_slash	24	main_slash	117	stimuli_target_rectanglediamonds.svg	stimuli_distractor_trianglediamonds.svg	2	yes	53	1	549	6	1	antiphase_hc_iso.wav	2	6	3	noise_calib_stim_LEFT.wav	1	30	blb_dichoticlistening_pa-ta.mp3	pa	ta	1	right
6.6.0	win	2023-06-02	00:11:11	00:26:18	905210	63ffcb367b500c516d0648a2	1	1	main_slash	24	advance_on_keypress_SLASH	118	stimuli_target_rectanglediamonds.svg	stimuli_distractor_trianglediamonds.svg	2	yes	57	0	314	6	1	antiphase_hc_iso.wav	2	6	3	noise_calib_stim_LEFT.wav	1	30	blb_dichoticlistening_pa-ta.mp3	pa	ta	1	right
6.6.0	win	2023-06-02	00:11:11	00:26:21	907542	63ffcb367b500c516d0648a2	1	1	main_slash	24	main_slash	119	stimuli_distractor_trianglediamonds.svg	stimuli_distractor_diamondtriangles.svg	35	no	53	0	1363	6	1	antiphase_hc_iso.wav	2	6	3	noise_calib_stim_LEFT.wav	1	30	blb_dichoticlistening_pa-ta.mp3	pa	ta	1	right
6.6.0	win	2023-06-02	00:11:11	00:26:21	907542	63ffcb367b500c516d0648a2	1	1	main_slash	24	advance_on_keypress_SLASH	120	stimuli_distractor_trianglediamonds.svg	stimuli_distractor_diamondtriangles.svg	35	no	57	0	635	6	1	antiphase_hc_iso.wav	2	6	3	noise_calib_stim_LEFT.wav	1	30	blb_dichoticlistening_pa-ta.mp3	pa	ta	1	right
6.6.0	win	2023-06-02	00:11:11	00:26:24	910830	63ffcb367b500c516d0648a2	1	1	main_slash	24	main_slash	121	stimuli_distractor_trianglediamonds.svg	stimuli_distractor_trianglediamonds.svg	33	no	0	1	2000	6	1	antiphase_hc_iso.wav	2	6	3	noise_calib_stim_LEFT.wav	1	30	blb_dichoticlistening_pa-ta.mp3	pa	ta	1	right
6.6.0	win	2023-06-02	00:11:11	00:26:24	910830	63ffcb367b500c516d0648a2	1	1	main_slash	24	advance_on_keypress_SLASH	122	stimuli_distractor_trianglediamonds.svg	stimuli_distractor_trianglediamonds.svg	33	no	57	0	442	6	1	antiphase_hc_iso.wav	2	6	3	noise_calib_stim_LEFT.wav	1	30	blb_dichoticlistening_pa-ta.mp3	pa	ta	1	right
6.6.0	win	2023-06-02	00:11:11	00:26:26	912499	63ffcb367b500c516d0648a2	1	1	main_slash	24	main_slash	123	stimuli_distractor_trianglediamonds.svg	stimuli_target_rectangletriangles.svg	9	yes	53	1	566	6	1	antiphase_hc_iso.wav	2	6	3	noise_calib_stim_LEFT.wav	1	30	blb_dichoticlistening_pa-ta.mp3	pa	ta	1	right
6.6.0	win	2023-06-02	00:11:11	00:26:26	912499	63ffcb367b500c516d0648a2	1	1	main_slash	24	advance_on_keypress_SLASH	124	stimuli_distractor_trianglediamonds.svg	stimuli_target_rectangletriangles.svg	9	yes	57	0	294	6	1	antiphase_hc_iso.wav	2	6	3	noise_calib_stim_LEFT.wav	1	30	blb_dichoticlistening_pa-ta.mp3	pa	ta	1	right
6.6.0	win	2023-06-02	00:11:11	00:26:28	915457	63ffcb367b500c516d0648a2	1	1	main_slash	24	main_slash	125	stimuli_target_diamondrectangles.svg	stimuli_distractor_diamondtriangles.svg	23	yes	0	0	2000	6	1	antiphase_hc_iso.wav	2	6	3	noise_calib_stim_LEFT.wav	1	30	blb_dichoticlistening_pa-ta.mp3	pa	ta	1	right
6.6.0	win	2023-06-02	00:11:11	00:26:28	915457	63ffcb367b500c516d0648a2	1	1	main_slash	24	advance_on_keypress_SLASH	126	stimuli_target_diamondrectangles.svg	stimuli_distractor_diamondtriangles.svg	23	yes	57	0	166	6	1	antiphase_hc_iso.wav	2	6	3	noise_calib_stim_LEFT.wav	1	30	blb_dichoticlistening_pa-ta.mp3	pa	ta	1	right
6.6.0	win	2023-06-02	00:11:11	00:26:30	916810	63ffcb367b500c516d0648a2	1	1	main_slash	24	main_slash	127	stimuli_distractor_trianglediamonds.svg	stimuli_target_squarediamonds.svg	12	yes	53	1	541	6	1	antiphase_hc_iso.wav	2	6	3	noise_calib_stim_LEFT.wav	1	30	blb_dichoticlistening_pa-ta.mp3	pa	ta	1	right
6.6.0	win	2023-06-02	00:11:11	00:26:30	916810	63ffcb367b500c516d0648a2	1	1	main_slash	24	advance_on_keypress_SLASH	128	stimuli_distractor_trianglediamonds.svg	stimuli_target_squarediamonds.svg	12	yes	57	0	366	6	1	antiphase_hc_iso.wav	2	6	3	noise_calib_stim_LEFT.wav	1	30	blb_dichoticlistening_pa-ta.mp3	pa	ta	1	right
6.6.0	win	2023-06-02	00:11:11	00:26:32	918578	63ffcb367b500c516d0648a2	1	1	main_slash	24	main_slash	129	stimuli_target_diamondsquares.svg	stimuli_distractor_trianglediamonds.svg	20	yes	53	1	757	6	1	antiphase_hc_iso.wav	2	6	3	noise_calib_stim_LEFT.wav	1	30	blb_dichoticlistening_pa-ta.mp3	pa	ta	1	right
6.6.0	win	2023-06-02	00:11:11	00:26:32	918578	63ffcb367b500c516d0648a2	1	1	main_slash	24	advance_on_keypress_SLASH	130	stimuli_target_diamondsquares.svg	stimuli_distractor_trianglediamonds.svg	20	yes	57	0	302	6	1	antiphase_hc_iso.wav	2	6	3	noise_calib_stim_LEFT.wav	1	30	blb_dichoticlistening_pa-ta.mp3	pa	ta	1	right
6.6.0	win	2023-06-02	00:11:11	00:26:35	921522	63ffcb367b500c516d0648a2	1	1	main_slash	24	main_slash	131	stimuli_target_diamondsquares.svg	stimuli_distractor_diamondtriangles.svg	24	yes	0	0	2000	6	1	antiphase_hc_iso.wav	2	6	3	noise_calib_stim_LEFT.wav	1	30	blb_dichoticlistening_pa-ta.mp3	pa	ta	1	right
6.6.0	win	2023-06-02	00:11:11	00:26:35	921522	63ffcb367b500c516d0648a2	1	1	main_slash	24	advance_on_keypress_SLASH	132	stimuli_target_diamondsquares.svg	stimuli_distractor_diamondtriangles.svg	24	yes	57	0	206	6	1	antiphase_hc_iso.wav	2	6	3	noise_calib_stim_LEFT.wav	1	30	blb_dichoticlistening_pa-ta.mp3	pa	ta	1	right
6.6.0	win	2023-06-02	00:11:11	00:26:36	922825	63ffcb367b500c516d0648a2	1	1	main_slash	24	main_slash	133	stimuli_target_squaretriangles.svg	stimuli_distractor_trianglediamonds.svg	3	yes	53	1	452	6	1	antiphase_hc_iso.wav	2	6	3	noise_calib_stim_LEFT.wav	1	30	blb_dichoticlistening_pa-ta.mp3	pa	ta	1	right
6.6.0	win	2023-06-02	00:11:11	00:26:36	922825	63ffcb367b500c516d0648a2	1	1	main_slash	24	advance_on_keypress_SLASH	134	stimuli_target_squaretriangles.svg	stimuli_distractor_trianglediamonds.svg	3	yes	57	0	288	6	1	antiphase_hc_iso.wav	2	6	3	noise_calib_stim_LEFT.wav	1	30	blb_dichoticlistening_pa-ta.mp3	pa	ta	1	right
6.6.0	win	2023-06-02	00:11:11	00:26:37	924130	63ffcb367b500c516d0648a2	1	1	main_slash	24	main_slash	135	stimuli_distractor_trianglediamonds.svg	stimuli_target_rectanglediamonds.svg	10	yes	53	1	354	6	1	antiphase_hc_iso.wav	2	6	3	noise_calib_stim_LEFT.wav	1	30	blb_dichoticlistening_pa-ta.mp3	pa	ta	1	right
6.6.0	win	2023-06-02	00:11:11	00:26:37	924130	63ffcb367b500c516d0648a2	1	1	main_slash	24	advance_on_keypress_SLASH	136	stimuli_distractor_trianglediamonds.svg	stimuli_target_rectanglediamonds.svg	10	yes	57	0	323	6	1	antiphase_hc_iso.wav	2	6	3	noise_calib_stim_LEFT.wav	1	30	blb_dichoticlistening_pa-ta.mp3	pa	ta	1	right
6.6.0	win	2023-06-02	00:11:11	00:26:38	925392	63ffcb367b500c516d0648a2	1	1	main_slash	24	main_slash	137	stimuli_target_squaretriangles.svg	stimuli_distractor_diamondtriangles.svg	7	yes	53	1	285	6	1	antiphase_hc_iso.wav	2	6	3	noise_calib_stim_LEFT.wav	1	30	blb_dichoticlistening_pa-ta.mp3	pa	ta	1	right
6.6.0	win	2023-06-02	00:11:11	00:26:38	925392	63ffcb367b500c516d0648a2	1	1	main_slash	24	advance_on_keypress_SLASH	138	stimuli_target_squaretriangles.svg	stimuli_distractor_diamondtriangles.svg	7	yes	57	0	343	6	1	antiphase_hc_iso.wav	2	6	3	noise_calib_stim_LEFT.wav	1	30	blb_dichoticlistening_pa-ta.mp3	pa	ta	1	right
6.6.0	win	2023-06-02	00:11:11	00:26:40	926674	63ffcb367b500c516d0648a2	1	1	main_slash	24	main_slash	139	stimuli_distractor_trianglediamonds.svg	stimuli_distractor_diamondtriangles.svg	36	no	53	0	296	6	1	antiphase_hc_iso.wav	2	6	3	noise_calib_stim_LEFT.wav	1	30	blb_dichoticlistening_pa-ta.mp3	pa	ta	1	right
6.6.0	win	2023-06-02	00:11:11	00:26:40	926674	63ffcb367b500c516d0648a2	1	1	main_slash	24	advance_on_keypress_SLASH	140	stimuli_distractor_trianglediamonds.svg	stimuli_distractor_diamondtriangles.svg	36	no	57	0	388	6	1	antiphase_hc_iso.wav	2	6	3	noise_calib_stim_LEFT.wav	1	30	blb_dichoticlistening_pa-ta.mp3	pa	ta	1	right
6.6.0	win	2023-06-02	00:11:11	00:26:41	928017	63ffcb367b500c516d0648a2	1	1	main_slash	24	main_slash	141	stimuli_distractor_diamondtriangles.svg	stimuli_target_squaretriangles.svg	15	yes	53	1	323	6	1	antiphase_hc_iso.wav	2	6	3	noise_calib_stim_LEFT.wav	1	30	blb_dichoticlistening_pa-ta.mp3	pa	ta	1	right
6.6.0	win	2023-06-02	00:11:11	00:26:41	928017	63ffcb367b500c516d0648a2	1	1	main_slash	24	advance_on_keypress_SLASH	142	stimuli_distractor_diamondtriangles.svg	stimuli_target_squaretriangles.svg	15	yes	57	0	341	6	1	antiphase_hc_iso.wav	2	6	3	noise_calib_stim_LEFT.wav	1	30	blb_dichoticlistening_pa-ta.mp3	pa	ta	1	right
6.6.0	win	2023-06-02	00:11:11	00:26:42	929379	63ffcb367b500c516d0648a2	1	1	main_slash	24	main_slash	143	stimuli_distractor_diamondtriangles.svg	stimuli_distractor_diamondtriangles.svg	40	no	53	0	383	6	1	antiphase_hc_iso.wav	2	6	3	noise_calib_stim_LEFT.wav	1	30	blb_dichoticlistening_pa-ta.mp3	pa	ta	1	right
6.6.0	win	2023-06-02	00:11:11	00:26:42	929379	63ffcb367b500c516d0648a2	1	1	main_slash	24	advance_on_keypress_SLASH	144	stimuli_distractor_diamondtriangles.svg	stimuli_distractor_diamondtriangles.svg	40	no	57	0	373	6	1	antiphase_hc_iso.wav	2	6	3	noise_calib_stim_LEFT.wav	1	30	blb_dichoticlistening_pa-ta.mp3	pa	ta	1	right
6.6.0	win	2023-06-02	00:11:11	00:26:44	930800	63ffcb367b500c516d0648a2	1	1	main_slash	24	main_slash	145	stimuli_distractor_diamondtriangles.svg	stimuli_target_diamondsquares.svg	32	yes	53	1	375	6	1	antiphase_hc_iso.wav	2	6	3	noise_calib_stim_LEFT.wav	1	30	blb_dichoticlistening_pa-ta.mp3	pa	ta	1	right
6.6.0	win	2023-06-02	00:11:11	00:26:44	930800	63ffcb367b500c516d0648a2	1	1	main_slash	24	advance_on_keypress_SLASH	146	stimuli_distractor_diamondtriangles.svg	stimuli_target_diamondsquares.svg	32	yes	57	0	363	6	1	antiphase_hc_iso.wav	2	6	3	noise_calib_stim_LEFT.wav	1	30	blb_dichoticlistening_pa-ta.mp3	pa	ta	1	right
6.6.0	win	2023-06-02	00:11:11	00:26:47	933826	63ffcb367b500c516d0648a2	1	1	main_slash	24	main_slash	147	stimuli_distractor_trianglediamonds.svg	stimuli_distractor_trianglediamonds.svg	34	no	0	1	2000	6	1	antiphase_hc_iso.wav	2	6	3	noise_calib_stim_LEFT.wav	1	30	blb_dichoticlistening_pa-ta.mp3	pa	ta	1	right
6.6.0	win	2023-06-02	00:11:11	00:26:47	933826	63ffcb367b500c516d0648a2	1	1	main_slash	24	advance_on_keypress_SLASH	148	stimuli_distractor_trianglediamonds.svg	stimuli_distractor_trianglediamonds.svg	34	no	57	0	345	6	1	antiphase_hc_iso.wav	2	6	3	noise_calib_stim_LEFT.wav	1	30	blb_dichoticlistening_pa-ta.mp3	pa	ta	1	right
6.6.0	win	2023-06-02	00:11:11	00:26:48	935226	63ffcb367b500c516d0648a2	1	1	main_slash	24	main_slash	149	stimuli_target_rectangletriangles.svg	stimuli_distractor_diamondtriangles.svg	5	yes	53	1	425	6	1	antiphase_hc_iso.wav	2	6	3	noise_calib_stim_LEFT.wav	1	30	blb_dichoticlistening_pa-ta.mp3	pa	ta	1	right
6.6.0	win	2023-06-02	00:11:11	00:26:48	935226	63ffcb367b500c516d0648a2	1	1	main_slash	24	advance_on_keypress_SLASH	150	stimuli_target_rectangletriangles.svg	stimuli_distractor_diamondtriangles.svg	5	yes	57	0	344	6	1	antiphase_hc_iso.wav	2	6	3	noise_calib_stim_LEFT.wav	1	30	blb_dichoticlistening_pa-ta.mp3	pa	ta	1	right
6.6.0	win	2023-06-02	00:11:11	00:26:51	938202	63ffcb367b500c516d0648a2	1	1	main_slash	24	main_slash	151	stimuli_distractor_diamondtriangles.svg	stimuli_target_diamondrectangles.svg	31	yes	0	0	2000	6	1	antiphase_hc_iso.wav	2	6	3	noise_calib_stim_LEFT.wav	1	30	blb_dichoticlistening_pa-ta.mp3	pa	ta	1	right
6.6.0	win	2023-06-02	00:11:11	00:26:51	938202	63ffcb367b500c516d0648a2	1	1	main_slash	24	advance_on_keypress_SLASH	152	stimuli_distractor_diamondtriangles.svg	stimuli_target_diamondrectangles.svg	31	yes	57	0	390	6	1	antiphase_hc_iso.wav	2	6	3	noise_calib_stim_LEFT.wav	1	30	blb_dichoticlistening_pa-ta.mp3	pa	ta	1	right
6.6.0	win	2023-06-02	00:11:11	00:26:53	939595	63ffcb367b500c516d0648a2	1	1	main_slash	24	main_slash	153	stimuli_distractor_trianglediamonds.svg	stimuli_target_diamondsquares.svg	28	yes	53	1	331	6	1	antiphase_hc_iso.wav	2	6	3	noise_calib_stim_LEFT.wav	1	30	blb_dichoticlistening_pa-ta.mp3	pa	ta	1	right
6.6.0	win	2023-06-02	00:11:11	00:26:53	939595	63ffcb367b500c516d0648a2	1	1	main_slash	24	advance_on_keypress_SLASH	154	stimuli_distractor_trianglediamonds.svg	stimuli_target_diamondsquares.svg	28	yes	57	0	353	6	1	antiphase_hc_iso.wav	2	6	3	noise_calib_stim_LEFT.wav	1	30	blb_dichoticlistening_pa-ta.mp3	pa	ta	1	right
6.6.0	win	2023-06-02	00:11:11	00:26:54	941038	63ffcb367b500c516d0648a2	1	1	main_slash	24	main_slash	155	stimuli_distractor_trianglediamonds.svg	stimuli_target_diamondrectangles.svg	27	yes	53	1	449	6	1	antiphase_hc_iso.wav	2	6	3	noise_calib_stim_LEFT.wav	1	30	blb_dichoticlistening_pa-ta.mp3	pa	ta	1	right
6.6.0	win	2023-06-02	00:11:11	00:26:54	941038	63ffcb367b500c516d0648a2	1	1	main_slash	24	advance_on_keypress_SLASH	156	stimuli_distractor_trianglediamonds.svg	stimuli_target_diamondrectangles.svg	27	yes	57	0	357	6	1	antiphase_hc_iso.wav	2	6	3	noise_calib_stim_LEFT.wav	1	30	blb_dichoticlistening_pa-ta.mp3	pa	ta	1	right
6.6.0	win	2023-06-02	00:11:11	00:26:56	942525	63ffcb367b500c516d0648a2	1	1	main_slash	24	main_slash	157	stimuli_distractor_diamondtriangles.svg	stimuli_target_trianglerectangles.svg	29	yes	53	1	469	6	1	antiphase_hc_iso.wav	2	6	3	noise_calib_stim_LEFT.wav	1	30	blb_dichoticlistening_pa-ta.mp3	pa	ta	1	right
6.6.0	win	2023-06-02	00:11:11	00:26:56	942525	63ffcb367b500c516d0648a2	1	1	main_slash	24	advance_on_keypress_SLASH	158	stimuli_distractor_diamondtriangles.svg	stimuli_target_trianglerectangles.svg	29	yes	57	0	282	6	1	antiphase_hc_iso.wav	2	6	3	noise_calib_stim_LEFT.wav	1	30	blb_dichoticlistening_pa-ta.mp3	pa	ta	1	right
6.6.0	win	2023-06-02	00:11:11	00:26:57	944038	63ffcb367b500c516d0648a2	1	1	main_slash	24	main_slash	159	stimuli_distractor_diamondtriangles.svg	stimuli_target_trianglesquares.svg	30	yes	53	1	580	6	1	antiphase_hc_iso.wav	2	6	3	noise_calib_stim_LEFT.wav	1	30	blb_dichoticlistening_pa-ta.mp3	pa	ta	1	right
6.6.0	win	2023-06-02	00:11:11	00:26:57	944038	63ffcb367b500c516d0648a2	1	1	main_slash	24	advance_on_keypress_SLASH	160	stimuli_distractor_diamondtriangles.svg	stimuli_target_trianglesquares.svg	30	yes	57	0	340	6	1	antiphase_hc_iso.wav	2	6	3	noise_calib_stim_LEFT.wav	1	30	blb_dichoticlistening_pa-ta.mp3	pa	ta	1	right
6.6.0	win	2023-06-02	00:11:11	00:27:11	958256	63ffcb367b500c516d0648a2	1	1	practice_z	26	practice_z	1	stimuli_target_diamondsquares.svg	stimuli_distractor_diamondtriangles.svg	3	yes	44	1	985	6	1	antiphase_hc_iso.wav	2	6	3	noise_calib_stim_LEFT.wav	1	30	blb_dichoticlistening_pa-ta.mp3	pa	ta	1	right
6.6.0	win	2023-06-02	00:11:11	00:27:11	958256	63ffcb367b500c516d0648a2	1	1	practice_z	26	advance_on_keypress_ZEE	2	stimuli_target_diamondsquares.svg	stimuli_distractor_diamondtriangles.svg	3	yes	57	0	39	6	1	antiphase_hc_iso.wav	2	6	3	noise_calib_stim_LEFT.wav	1	30	blb_dichoticlistening_pa-ta.mp3	pa	ta	1	right
6.6.0	win	2023-06-02	00:11:11	00:27:13	960384	63ffcb367b500c516d0648a2	1	1	practice_z	26	practice_z	3	stimuli_target_rectanglediamonds.svg	stimuli_distractor_trianglediamonds.svg	4	yes	44	1	428	6	1	antiphase_hc_iso.wav	2	6	3	noise_calib_stim_LEFT.wav	1	30	blb_dichoticlistening_pa-ta.mp3	pa	ta	1	right
6.6.0	win	2023-06-02	00:11:11	00:27:13	960384	63ffcb367b500c516d0648a2	1	1	practice_z	26	advance_on_keypress_ZEE	4	stimuli_target_rectanglediamonds.svg	stimuli_distractor_trianglediamonds.svg	4	yes	57	0	609	6	1	antiphase_hc_iso.wav	2	6	3	noise_calib_stim_LEFT.wav	1	30	blb_dichoticlistening_pa-ta.mp3	pa	ta	1	right
6.6.0	win	2023-06-02	00:11:11	00:27:16	963056	63ffcb367b500c516d0648a2	1	1	practice_z	26	practice_z	5	stimuli_distractor_trianglediamonds.svg	stimuli_target_diamondrectangles.svg	12	yes	44	1	431	6	1	antiphase_hc_iso.wav	2	6	3	noise_calib_stim_LEFT.wav	1	30	blb_dichoticlistening_pa-ta.mp3	pa	ta	1	right
6.6.0	win	2023-06-02	00:11:11	00:27:16	963056	63ffcb367b500c516d0648a2	1	1	practice_z	26	advance_on_keypress_ZEE	6	stimuli_distractor_trianglediamonds.svg	stimuli_target_diamondrectangles.svg	12	yes	57	0	779	6	1	antiphase_hc_iso.wav	2	6	3	noise_calib_stim_LEFT.wav	1	30	blb_dichoticlistening_pa-ta.mp3	pa	ta	1	right
6.6.0	win	2023-06-02	00:11:11	00:27:21	967494	63ffcb367b500c516d0648a2	1	1	practice_z	26	practice_z	7	stimuli_distractor_diamondtriangles.svg	stimuli_distractor_diamondtriangles.svg	13	no	0	1	2000	6	1	antiphase_hc_iso.wav	2	6	3	noise_calib_stim_LEFT.wav	1	30	blb_dichoticlistening_pa-ta.mp3	pa	ta	1	right
6.6.0	win	2023-06-02	00:11:11	00:27:21	967494	63ffcb367b500c516d0648a2	1	1	practice_z	26	advance_on_keypress_ZEE	8	stimuli_distractor_diamondtriangles.svg	stimuli_distractor_diamondtriangles.svg	13	no	57	0	6	6	1	antiphase_hc_iso.wav	2	6	3	noise_calib_stim_LEFT.wav	1	30	blb_dichoticlistening_pa-ta.mp3	pa	ta	1	right
6.6.0	win	2023-06-02	00:11:11	00:27:23	969599	63ffcb367b500c516d0648a2	1	1	practice_z	26	practice_z	9	stimuli_target_squarediamonds.svg	stimuli_distractor_diamondtriangles.svg	2	yes	44	1	437	6	1	antiphase_hc_iso.wav	2	6	3	noise_calib_stim_LEFT.wav	1	30	blb_dichoticlistening_pa-ta.mp3	pa	ta	1	right
6.6.0	win	2023-06-02	00:11:11	00:27:23	969599	63ffcb367b500c516d0648a2	1	1	practice_z	26	advance_on_keypress_ZEE	10	stimuli_target_squarediamonds.svg	stimuli_distractor_diamondtriangles.svg	2	yes	57	0	634	6	1	antiphase_hc_iso.wav	2	6	3	noise_calib_stim_LEFT.wav	1	30	blb_dichoticlistening_pa-ta.mp3	pa	ta	1	right
6.6.0	win	2023-06-02	00:11:11	00:27:26	972695	63ffcb367b500c516d0648a2	1	1	practice_z	26	practice_z	11	stimuli_distractor_trianglediamonds.svg	stimuli_target_rectanglediamonds.svg	10	yes	44	1	814	6	1	antiphase_hc_iso.wav	2	6	3	noise_calib_stim_LEFT.wav	1	30	blb_dichoticlistening_pa-ta.mp3	pa	ta	1	right
6.6.0	win	2023-06-02	00:11:11	00:27:26	972695	63ffcb367b500c516d0648a2	1	1	practice_z	26	advance_on_keypress_ZEE	12	stimuli_distractor_trianglediamonds.svg	stimuli_target_rectanglediamonds.svg	10	yes	57	0	686	6	1	antiphase_hc_iso.wav	2	6	3	noise_calib_stim_LEFT.wav	1	30	blb_dichoticlistening_pa-ta.mp3	pa	ta	1	right
6.6.0	win	2023-06-02	00:11:11	00:27:28	975336	63ffcb367b500c516d0648a2	1	1	practice_z	26	practice_z	13	stimuli_distractor_diamondtriangles.svg	stimuli_distractor_trianglediamonds.svg	14	no	44	0	301	6	1	antiphase_hc_iso.wav	2	6	3	noise_calib_stim_LEFT.wav	1	30	blb_dichoticlistening_pa-ta.mp3	pa	ta	1	right
6.6.0	win	2023-06-02	00:11:11	00:27:28	975336	63ffcb367b500c516d0648a2	1	1	practice_z	26	advance_on_keypress_ZEE	14	stimuli_distractor_diamondtriangles.svg	stimuli_distractor_trianglediamonds.svg	14	no	57	0	651	6	1	antiphase_hc_iso.wav	2	6	3	noise_calib_stim_LEFT.wav	1	30	blb_dichoticlistening_pa-ta.mp3	pa	ta	1	right
6.6.0	win	2023-06-02	00:11:11	00:27:31	978153	63ffcb367b500c516d0648a2	1	1	practice_z	26	practice_z	15	stimuli_target_rectanglediamonds.svg	stimuli_distractor_diamondtriangles.svg	1	yes	44	1	511	6	1	antiphase_hc_iso.wav	2	6	3	noise_calib_stim_LEFT.wav	1	30	blb_dichoticlistening_pa-ta.mp3	pa	ta	1	right
