build	computer.platform	date	time	timestamp	time_elapsed_ms	subject	group	session	blockcode	blocknum	trialcode	trialnum	stimulus_left	stimulus_right	stim_index	target_present	response	correct	latency	headphonecheck_countTestTrials	headphonecheck_index	headphonecheck_testSound	headphonecheck_correctResponse	stereocheck_countTestTrials	stereocheck_index	stereocheck_testSound	stereocheck_correctResponse	DL_index	DL_soundfile	DL_leftSound	DL_rightSound	DL_dualSound	DL_choice
6.6.1	win	2023-06-27	03:52:11	03:55:04	167962	5edbf6a29a8d508920c14f6c	3	1	practice_slash	5	practice_slash	1	stimuli_target_squarediamonds.svg	stimuli_distractor_trianglediamonds.svg	5	yes	53	1	509	0	0			0	0			1				0	
6.6.1	win	2023-06-27	03:52:11	03:55:04	167962	5edbf6a29a8d508920c14f6c	3	1	practice_slash	5	advance_on_keypress_SLASH	2	stimuli_target_squarediamonds.svg	stimuli_distractor_trianglediamonds.svg	5	yes	57	0	906	0	0			0	0			1				0	
6.6.1	win	2023-06-27	03:52:11	03:55:08	171370	5edbf6a29a8d508920c14f6c	3	1	practice_slash	5	practice_slash	3	stimuli_target_diamondsquares.svg	stimuli_distractor_diamondtriangles.svg	3	yes	53	1	872	0	0			0	0			1				0	
6.6.1	win	2023-06-27	03:52:11	03:55:08	171370	5edbf6a29a8d508920c14f6c	3	1	practice_slash	5	advance_on_keypress_SLASH	4	stimuli_target_diamondsquares.svg	stimuli_distractor_diamondtriangles.svg	3	yes	57	0	750	0	0			0	0			1				0	
6.6.1	win	2023-06-27	03:52:11	03:55:11	175047	5edbf6a29a8d508920c14f6c	3	1	practice_slash	5	practice_slash	5	stimuli_distractor_diamondtriangles.svg	stimuli_target_trianglerectangles.svg	9	yes	53	1	1311	0	0			0	0			1				0	
6.6.1	win	2023-06-27	03:52:11	03:55:11	175047	5edbf6a29a8d508920c14f6c	3	1	practice_slash	5	advance_on_keypress_SLASH	6	stimuli_distractor_diamondtriangles.svg	stimuli_target_trianglerectangles.svg	9	yes	57	0	515	0	0			0	0			1				0	
6.6.1	win	2023-06-27	03:52:11	03:55:15	178159	5edbf6a29a8d508920c14f6c	3	1	practice_slash	5	practice_slash	7	stimuli_target_rectanglediamonds.svg	stimuli_distractor_trianglediamonds.svg	4	yes	53	1	984	0	0			0	0			1				0	
6.6.1	win	2023-06-27	03:52:11	03:55:15	178159	5edbf6a29a8d508920c14f6c	3	1	practice_slash	5	advance_on_keypress_SLASH	8	stimuli_target_rectanglediamonds.svg	stimuli_distractor_trianglediamonds.svg	4	yes	57	0	564	0	0			0	0			1				0	
6.6.1	win	2023-06-27	03:52:11	03:55:17	181037	5edbf6a29a8d508920c14f6c	3	1	practice_slash	5	practice_slash	9	stimuli_target_rectanglediamonds.svg	stimuli_distractor_diamondtriangles.svg	1	yes	53	1	701	0	0			0	0			1				0	
6.6.1	win	2023-06-27	03:52:11	03:55:17	181037	5edbf6a29a8d508920c14f6c	3	1	practice_slash	5	advance_on_keypress_SLASH	10	stimuli_target_rectanglediamonds.svg	stimuli_distractor_diamondtriangles.svg	1	yes	57	0	623	0	0			0	0			1				0	
6.6.1	win	2023-06-27	03:52:11	03:55:20	184031	5edbf6a29a8d508920c14f6c	3	1	practice_slash	5	practice_slash	11	stimuli_target_squarediamonds.svg	stimuli_distractor_diamondtriangles.svg	2	yes	53	1	747	0	0			0	0			1				0	
6.6.1	win	2023-06-27	03:52:11	03:55:20	184031	5edbf6a29a8d508920c14f6c	3	1	practice_slash	5	advance_on_keypress_SLASH	12	stimuli_target_squarediamonds.svg	stimuli_distractor_diamondtriangles.svg	2	yes	57	0	576	0	0			0	0			1				0	
6.6.1	win	2023-06-27	03:52:11	03:55:25	188226	5edbf6a29a8d508920c14f6c	3	1	practice_slash	5	practice_slash	13	stimuli_distractor_diamondtriangles.svg	stimuli_distractor_diamondtriangles.svg	13	no	0	1	2003	0	0			0	0			1				0	
6.6.1	win	2023-06-27	03:52:11	03:55:25	188226	5edbf6a29a8d508920c14f6c	3	1	practice_slash	5	advance_on_keypress_SLASH	14	stimuli_distractor_diamondtriangles.svg	stimuli_distractor_diamondtriangles.svg	13	no	57	0	649	0	0			0	0			1				0	
6.6.1	win	2023-06-27	03:52:11	03:55:29	192492	5edbf6a29a8d508920c14f6c	3	1	practice_slash	5	practice_slash	15	stimuli_distractor_trianglediamonds.svg	stimuli_distractor_diamondtriangles.svg	16	no	0	1	2003	0	0			0	0			1				0	
6.6.1	win	2023-06-27	03:52:11	03:55:29	192492	5edbf6a29a8d508920c14f6c	3	1	practice_slash	5	advance_on_keypress_SLASH	16	stimuli_distractor_trianglediamonds.svg	stimuli_distractor_diamondtriangles.svg	16	no	57	0	617	0	0			0	0			1				0	
6.6.1	win	2023-06-27	03:52:11	03:55:32	195787	5edbf6a29a8d508920c14f6c	3	1	practice_slash	5	practice_slash	17	stimuli_distractor_diamondtriangles.svg	stimuli_target_diamondrectangles.svg	8	yes	53	1	1060	0	0			0	0			1				0	
6.6.1	win	2023-06-27	03:52:11	03:55:32	195787	5edbf6a29a8d508920c14f6c	3	1	practice_slash	5	advance_on_keypress_SLASH	18	stimuli_distractor_diamondtriangles.svg	stimuli_target_diamondrectangles.svg	8	yes	57	0	674	0	0			0	0			1				0	
6.6.1	win	2023-06-27	03:52:11	03:55:36	199129	5edbf6a29a8d508920c14f6c	3	1	practice_slash	5	practice_slash	19	stimuli_distractor_diamondtriangles.svg	stimuli_target_rectangletriangles.svg	7	yes	53	1	1053	0	0			0	0			1				0	
6.6.1	win	2023-06-27	03:52:11	03:55:36	199129	5edbf6a29a8d508920c14f6c	3	1	practice_slash	5	advance_on_keypress_SLASH	20	stimuli_distractor_diamondtriangles.svg	stimuli_target_rectangletriangles.svg	7	yes	57	0	641	0	0			0	0			1				0	
6.6.1	win	2023-06-27	03:52:11	03:55:39	202693	5edbf6a29a8d508920c14f6c	3	1	practice_slash	5	practice_slash	21	stimuli_distractor_trianglediamonds.svg	stimuli_target_diamondrectangles.svg	12	yes	53	1	1308	0	0			0	0			1				0	
6.6.1	win	2023-06-27	03:52:11	03:55:39	202693	5edbf6a29a8d508920c14f6c	3	1	practice_slash	5	advance_on_keypress_SLASH	22	stimuli_distractor_trianglediamonds.svg	stimuli_target_diamondrectangles.svg	12	yes	57	0	1582	0	0			0	0			1				0	
6.6.1	win	2023-06-27	03:52:11	03:55:44	207897	5edbf6a29a8d508920c14f6c	3	1	practice_slash	5	practice_slash	23	stimuli_distractor_trianglediamonds.svg	stimuli_distractor_trianglediamonds.svg	15	no	0	1	2003	0	0			0	0			1				0	
6.6.1	win	2023-06-27	03:52:11	03:55:44	207897	5edbf6a29a8d508920c14f6c	3	1	practice_slash	5	advance_on_keypress_SLASH	24	stimuli_distractor_trianglediamonds.svg	stimuli_distractor_trianglediamonds.svg	15	no	57	0	738	0	0			0	0			1				0	
6.6.1	win	2023-06-27	03:52:11	03:55:49	212254	5edbf6a29a8d508920c14f6c	3	1	practice_slash	5	practice_slash	25	stimuli_distractor_diamondtriangles.svg	stimuli_distractor_trianglediamonds.svg	14	no	0	1	2003	0	0			0	0			1				0	
6.6.1	win	2023-06-27	03:52:11	03:55:49	212254	5edbf6a29a8d508920c14f6c	3	1	practice_slash	5	advance_on_keypress_SLASH	26	stimuli_distractor_diamondtriangles.svg	stimuli_distractor_trianglediamonds.svg	14	no	57	0	1508	0	0			0	0			1				0	
6.6.1	win	2023-06-27	03:52:11	03:55:53	216098	5edbf6a29a8d508920c14f6c	3	1	practice_slash	5	practice_slash	27	stimuli_distractor_trianglediamonds.svg	stimuli_target_squarediamonds.svg	11	yes	53	1	719	0	0			0	0			1				0	
6.6.1	win	2023-06-27	03:52:11	03:55:53	216098	5edbf6a29a8d508920c14f6c	3	1	practice_slash	5	advance_on_keypress_SLASH	28	stimuli_distractor_trianglediamonds.svg	stimuli_target_squarediamonds.svg	11	yes	57	0	1411	0	0			0	0			1				0	
6.6.1	win	2023-06-27	03:52:11	03:55:57	220308	5edbf6a29a8d508920c14f6c	3	1	practice_slash	5	practice_slash	29	stimuli_target_diamondsquares.svg	stimuli_distractor_trianglediamonds.svg	6	yes	53	1	1183	0	0			0	0			1				0	
6.6.1	win	2023-06-27	03:52:11	03:55:57	220308	5edbf6a29a8d508920c14f6c	3	1	practice_slash	5	advance_on_keypress_SLASH	30	stimuli_target_diamondsquares.svg	stimuli_distractor_trianglediamonds.svg	6	yes	57	0	623	0	0			0	0			1				0	
6.6.1	win	2023-06-27	03:52:11	03:56:00	223343	5edbf6a29a8d508920c14f6c	3	1	practice_slash	5	practice_slash	31	stimuli_distractor_trianglediamonds.svg	stimuli_target_rectanglediamonds.svg	10	yes	53	1	792	0	0			0	0			1				0	
6.6.1	win	2023-06-27	03:52:11	03:56:00	223343	5edbf6a29a8d508920c14f6c	3	1	practice_slash	5	advance_on_keypress_SLASH	32	stimuli_distractor_trianglediamonds.svg	stimuli_target_rectanglediamonds.svg	10	yes	57	0	477	0	0			0	0			1				0	
6.6.1	win	2023-06-27	03:52:11	03:56:05	228669	5edbf6a29a8d508920c14f6c	3	1	main_slash	7	main_slash	1	stimuli_distractor_trianglediamonds.svg	stimuli_target_diamondsquares.svg	28	yes	53	1	810	0	0			0	0			1				0	
6.6.1	win	2023-06-27	03:52:11	03:56:05	228669	5edbf6a29a8d508920c14f6c	3	1	main_slash	7	advance_on_keypress_SLASH	2	stimuli_distractor_trianglediamonds.svg	stimuli_target_diamondsquares.svg	28	yes	57	0	1862	0	0			0	0			1				0	
6.6.1	win	2023-06-27	03:52:11	03:56:09	232094	5edbf6a29a8d508920c14f6c	3	1	main_slash	7	main_slash	3	stimuli_target_trianglerectangles.svg	stimuli_distractor_diamondtriangles.svg	21	yes	53	1	949	0	0			0	0			1				0	
6.6.1	win	2023-06-27	03:52:11	03:56:09	232094	5edbf6a29a8d508920c14f6c	3	1	main_slash	7	advance_on_keypress_SLASH	4	stimuli_target_trianglerectangles.svg	stimuli_distractor_diamondtriangles.svg	21	yes	57	0	789	0	0			0	0			1				0	
6.6.1	win	2023-06-27	03:52:11	03:56:12	235498	5edbf6a29a8d508920c14f6c	3	1	main_slash	7	main_slash	5	stimuli_distractor_diamondtriangles.svg	stimuli_target_diamondrectangles.svg	31	yes	0	0	2003	0	0			0	0			1				0	
6.6.1	win	2023-06-27	03:52:11	03:56:12	235498	5edbf6a29a8d508920c14f6c	3	1	main_slash	7	advance_on_keypress_SLASH	6	stimuli_distractor_diamondtriangles.svg	stimuli_target_diamondrectangles.svg	31	yes	57	0	553	0	0			0	0			1				0	
6.6.1	win	2023-06-27	03:52:11	03:56:14	237285	5edbf6a29a8d508920c14f6c	3	1	main_slash	7	main_slash	7	stimuli_distractor_diamondtriangles.svg	stimuli_target_rectangletriangles.svg	13	yes	53	1	623	0	0			0	0			1				0	
6.6.1	win	2023-06-27	03:52:11	03:56:14	237285	5edbf6a29a8d508920c14f6c	3	1	main_slash	7	advance_on_keypress_SLASH	8	stimuli_distractor_diamondtriangles.svg	stimuli_target_rectangletriangles.svg	13	yes	57	0	1033	0	0			0	0			1				0	
6.6.1	win	2023-06-27	03:52:11	03:56:16	239624	5edbf6a29a8d508920c14f6c	3	1	main_slash	7	main_slash	9	stimuli_target_squarediamonds.svg	stimuli_distractor_trianglediamonds.svg	4	yes	53	1	689	0	0			0	0			1				0	
6.6.1	win	2023-06-27	03:52:11	03:56:16	239624	5edbf6a29a8d508920c14f6c	3	1	main_slash	7	advance_on_keypress_SLASH	10	stimuli_target_squarediamonds.svg	stimuli_distractor_trianglediamonds.svg	4	yes	57	0	939	0	0			0	0			1				0	
6.6.1	win	2023-06-27	03:52:11	03:56:18	241796	5edbf6a29a8d508920c14f6c	3	1	main_slash	7	main_slash	11	stimuli_target_diamondrectangles.svg	stimuli_distractor_diamondtriangles.svg	23	yes	53	1	617	0	0			0	0			1				0	
6.6.1	win	2023-06-27	03:52:11	03:56:18	241796	5edbf6a29a8d508920c14f6c	3	1	main_slash	7	advance_on_keypress_SLASH	12	stimuli_target_diamondrectangles.svg	stimuli_distractor_diamondtriangles.svg	23	yes	57	0	702	0	0			0	0			1				0	
6.6.1	win	2023-06-27	03:52:11	03:56:20	243975	5edbf6a29a8d508920c14f6c	3	1	main_slash	7	main_slash	13	stimuli_target_trianglerectangles.svg	stimuli_distractor_trianglediamonds.svg	17	yes	53	1	856	0	0			0	0			1				0	
6.6.1	win	2023-06-27	03:52:11	03:56:20	243975	5edbf6a29a8d508920c14f6c	3	1	main_slash	7	advance_on_keypress_SLASH	14	stimuli_target_trianglerectangles.svg	stimuli_distractor_trianglediamonds.svg	17	yes	57	0	714	0	0			0	0			1				0	
6.6.1	win	2023-06-27	03:52:11	03:56:23	246393	5edbf6a29a8d508920c14f6c	3	1	main_slash	7	main_slash	15	stimuli_distractor_trianglediamonds.svg	stimuli_target_trianglesquares.svg	26	yes	53	1	1085	0	0			0	0			1				0	
6.6.1	win	2023-06-27	03:52:11	03:56:23	246393	5edbf6a29a8d508920c14f6c	3	1	main_slash	7	advance_on_keypress_SLASH	16	stimuli_distractor_trianglediamonds.svg	stimuli_target_trianglesquares.svg	26	yes	57	0	641	0	0			0	0			1				0	
6.6.1	win	2023-06-27	03:52:11	03:56:25	248548	5edbf6a29a8d508920c14f6c	3	1	main_slash	7	main_slash	17	stimuli_target_squaretriangles.svg	stimuli_distractor_trianglediamonds.svg	3	yes	53	1	899	0	0			0	0			1				0	
6.6.1	win	2023-06-27	03:52:11	03:56:25	248548	5edbf6a29a8d508920c14f6c	3	1	main_slash	7	advance_on_keypress_SLASH	18	stimuli_target_squaretriangles.svg	stimuli_distractor_trianglediamonds.svg	3	yes	57	0	615	0	0			0	0			1				0	
6.6.1	win	2023-06-27	03:52:11	03:56:27	250693	5edbf6a29a8d508920c14f6c	3	1	main_slash	7	main_slash	19	stimuli_target_diamondrectangles.svg	stimuli_distractor_trianglediamonds.svg	19	yes	53	1	918	0	0			0	0			1				0	
6.6.1	win	2023-06-27	03:52:11	03:56:27	250693	5edbf6a29a8d508920c14f6c	3	1	main_slash	7	advance_on_keypress_SLASH	20	stimuli_target_diamondrectangles.svg	stimuli_distractor_trianglediamonds.svg	19	yes	57	0	572	0	0			0	0			1				0	
6.6.1	win	2023-06-27	03:52:11	03:56:29	252726	5edbf6a29a8d508920c14f6c	3	1	main_slash	7	main_slash	21	stimuli_distractor_diamondtriangles.svg	stimuli_target_squaretriangles.svg	15	yes	53	1	845	0	0			0	0			1				0	
6.6.1	win	2023-06-27	03:52:11	03:56:29	252726	5edbf6a29a8d508920c14f6c	3	1	main_slash	7	advance_on_keypress_SLASH	22	stimuli_distractor_diamondtriangles.svg	stimuli_target_squaretriangles.svg	15	yes	57	0	507	0	0			0	0			1				0	
6.6.1	win	2023-06-27	03:52:11	03:56:31	254573	5edbf6a29a8d508920c14f6c	3	1	main_slash	7	main_slash	23	stimuli_distractor_trianglediamonds.svg	stimuli_target_rectanglediamonds.svg	10	yes	53	1	725	0	0			0	0			1				0	
6.6.1	win	2023-06-27	03:52:11	03:56:31	254573	5edbf6a29a8d508920c14f6c	3	1	main_slash	7	advance_on_keypress_SLASH	24	stimuli_distractor_trianglediamonds.svg	stimuli_target_rectanglediamonds.svg	10	yes	57	0	564	0	0			0	0			1				0	
6.6.1	win	2023-06-27	03:52:11	03:56:33	256614	5edbf6a29a8d508920c14f6c	3	1	main_slash	7	main_slash	25	stimuli_target_squarediamonds.svg	stimuli_distractor_diamondtriangles.svg	8	yes	53	1	864	0	0			0	0			1				0	
6.6.1	win	2023-06-27	03:52:11	03:56:33	256614	5edbf6a29a8d508920c14f6c	3	1	main_slash	7	advance_on_keypress_SLASH	26	stimuli_target_squarediamonds.svg	stimuli_distractor_diamondtriangles.svg	8	yes	57	0	564	0	0			0	0			1				0	
6.6.1	win	2023-06-27	03:52:11	03:56:36	259797	5edbf6a29a8d508920c14f6c	3	1	main_slash	7	main_slash	27	stimuli_distractor_diamondtriangles.svg	stimuli_distractor_diamondtriangles.svg	40	no	0	1	2003	0	0			0	0			1				0	
6.6.1	win	2023-06-27	03:52:11	03:56:36	259797	5edbf6a29a8d508920c14f6c	3	1	main_slash	7	advance_on_keypress_SLASH	28	stimuli_distractor_diamondtriangles.svg	stimuli_distractor_diamondtriangles.svg	40	no	57	0	556	0	0			0	0			1				0	
6.6.1	win	2023-06-27	03:52:11	03:56:38	261800	5edbf6a29a8d508920c14f6c	3	1	main_slash	7	main_slash	29	stimuli_distractor_trianglediamonds.svg	stimuli_target_squarediamonds.svg	12	yes	53	1	830	0	0			0	0			1				0	
6.6.1	win	2023-06-27	03:52:11	03:56:38	261800	5edbf6a29a8d508920c14f6c	3	1	main_slash	7	advance_on_keypress_SLASH	30	stimuli_distractor_trianglediamonds.svg	stimuli_target_squarediamonds.svg	12	yes	57	0	592	0	0			0	0			1				0	
6.6.1	win	2023-06-27	03:52:11	03:56:41	264591	5edbf6a29a8d508920c14f6c	3	1	main_slash	7	main_slash	31	stimuli_distractor_trianglediamonds.svg	stimuli_distractor_diamondtriangles.svg	36	no	53	0	1585	0	0			0	0			1				0	
6.6.1	win	2023-06-27	03:52:11	03:56:41	264591	5edbf6a29a8d508920c14f6c	3	1	main_slash	7	advance_on_keypress_SLASH	32	stimuli_distractor_trianglediamonds.svg	stimuli_distractor_diamondtriangles.svg	36	no	57	0	488	0	0			0	0			1				0	
6.6.1	win	2023-06-27	03:52:11	03:56:43	266489	5edbf6a29a8d508920c14f6c	3	1	main_slash	7	main_slash	33	stimuli_target_trianglesquares.svg	stimuli_distractor_trianglediamonds.svg	18	yes	53	1	794	0	0			0	0			1				0	
6.6.1	win	2023-06-27	03:52:11	03:56:43	266489	5edbf6a29a8d508920c14f6c	3	1	main_slash	7	advance_on_keypress_SLASH	34	stimuli_target_trianglesquares.svg	stimuli_distractor_trianglediamonds.svg	18	yes	57	0	564	0	0			0	0			1				0	
6.6.1	win	2023-06-27	03:52:11	03:56:46	269671	5edbf6a29a8d508920c14f6c	3	1	main_slash	7	main_slash	35	stimuli_distractor_diamondtriangles.svg	stimuli_distractor_diamondtriangles.svg	39	no	0	1	2003	0	0			0	0			1				0	
6.6.1	win	2023-06-27	03:52:11	03:56:46	269671	5edbf6a29a8d508920c14f6c	3	1	main_slash	7	advance_on_keypress_SLASH	36	stimuli_distractor_diamondtriangles.svg	stimuli_distractor_diamondtriangles.svg	39	no	57	0	488	0	0			0	0			1				0	
6.6.1	win	2023-06-27	03:52:11	03:56:48	271371	5edbf6a29a8d508920c14f6c	3	1	main_slash	7	main_slash	37	stimuli_distractor_trianglediamonds.svg	stimuli_target_squaretriangles.svg	11	yes	53	1	596	0	0			0	0			1				0	
6.6.1	win	2023-06-27	03:52:11	03:56:48	271371	5edbf6a29a8d508920c14f6c	3	1	main_slash	7	advance_on_keypress_SLASH	38	stimuli_distractor_trianglediamonds.svg	stimuli_target_squaretriangles.svg	11	yes	57	0	446	0	0			0	0			1				0	
6.6.1	win	2023-06-27	03:52:11	03:56:51	274438	5edbf6a29a8d508920c14f6c	3	1	main_slash	7	main_slash	39	stimuli_distractor_trianglediamonds.svg	stimuli_distractor_trianglediamonds.svg	33	no	0	1	2003	0	0			0	0			1				0	
6.6.1	win	2023-06-27	03:52:11	03:56:51	274438	5edbf6a29a8d508920c14f6c	3	1	main_slash	7	advance_on_keypress_SLASH	40	stimuli_distractor_trianglediamonds.svg	stimuli_distractor_trianglediamonds.svg	33	no	57	0	544	0	0			0	0			1				0	
6.6.1	win	2023-06-27	03:52:11	03:56:54	277600	5edbf6a29a8d508920c14f6c	3	1	main_slash	7	main_slash	41	stimuli_distractor_diamondtriangles.svg	stimuli_distractor_trianglediamonds.svg	38	no	0	1	2003	0	0			0	0			1				0	
6.6.1	win	2023-06-27	03:52:11	03:56:54	277600	5edbf6a29a8d508920c14f6c	3	1	main_slash	7	advance_on_keypress_SLASH	42	stimuli_distractor_diamondtriangles.svg	stimuli_distractor_trianglediamonds.svg	38	no	57	0	483	0	0			0	0			1				0	
6.6.1	win	2023-06-27	03:52:11	03:56:57	280699	5edbf6a29a8d508920c14f6c	3	1	main_slash	7	main_slash	43	stimuli_distractor_trianglediamonds.svg	stimuli_distractor_trianglediamonds.svg	34	no	0	1	2003	0	0			0	0			1				0	
6.6.1	win	2023-06-27	03:52:11	03:56:57	280699	5edbf6a29a8d508920c14f6c	3	1	main_slash	7	advance_on_keypress_SLASH	44	stimuli_distractor_trianglediamonds.svg	stimuli_distractor_trianglediamonds.svg	34	no	57	0	485	0	0			0	0			1				0	
6.6.1	win	2023-06-27	03:52:11	03:57:00	283805	5edbf6a29a8d508920c14f6c	3	1	main_slash	7	main_slash	45	stimuli_distractor_trianglediamonds.svg	stimuli_distractor_diamondtriangles.svg	35	no	0	1	2003	0	0			0	0			1				0	
6.6.1	win	2023-06-27	03:52:11	03:57:00	283805	5edbf6a29a8d508920c14f6c	3	1	main_slash	7	advance_on_keypress_SLASH	46	stimuli_distractor_trianglediamonds.svg	stimuli_distractor_diamondtriangles.svg	35	no	57	0	279	0	0			0	0			1				0	
6.6.1	win	2023-06-27	03:52:11	03:57:03	286703	5edbf6a29a8d508920c14f6c	3	1	main_slash	7	main_slash	47	stimuli_distractor_diamondtriangles.svg	stimuli_distractor_trianglediamonds.svg	37	no	0	1	2003	0	0			0	0			1				0	
6.6.1	win	2023-06-27	03:52:11	03:57:03	286703	5edbf6a29a8d508920c14f6c	3	1	main_slash	7	advance_on_keypress_SLASH	48	stimuli_distractor_diamondtriangles.svg	stimuli_distractor_trianglediamonds.svg	37	no	57	0	483	0	0			0	0			1				0	
6.6.1	win	2023-06-27	03:52:11	03:57:05	288372	5edbf6a29a8d508920c14f6c	3	1	main_slash	7	main_slash	49	stimuli_distractor_trianglediamonds.svg	stimuli_target_rectangletriangles.svg	9	yes	53	1	574	0	0			0	0			1				0	
6.6.1	win	2023-06-27	03:52:11	03:57:05	288372	5edbf6a29a8d508920c14f6c	3	1	main_slash	7	advance_on_keypress_SLASH	50	stimuli_distractor_trianglediamonds.svg	stimuli_target_rectangletriangles.svg	9	yes	57	0	519	0	0			0	0			1				0	
6.6.1	win	2023-06-27	03:52:11	03:57:07	290154	5edbf6a29a8d508920c14f6c	3	1	main_slash	7	main_slash	51	stimuli_distractor_diamondtriangles.svg	stimuli_target_trianglerectangles.svg	29	yes	53	1	654	0	0			0	0			1				0	
6.6.1	win	2023-06-27	03:52:11	03:57:07	290154	5edbf6a29a8d508920c14f6c	3	1	main_slash	7	advance_on_keypress_SLASH	52	stimuli_distractor_diamondtriangles.svg	stimuli_target_trianglerectangles.svg	29	yes	57	0	537	0	0			0	0			1				0	
6.6.1	win	2023-06-27	03:52:11	03:57:09	292045	5edbf6a29a8d508920c14f6c	3	1	main_slash	7	main_slash	53	stimuli_distractor_trianglediamonds.svg	stimuli_target_trianglerectangles.svg	25	yes	53	1	738	0	0			0	0			1				0	
6.6.1	win	2023-06-27	03:52:11	03:57:09	292045	5edbf6a29a8d508920c14f6c	3	1	main_slash	7	advance_on_keypress_SLASH	54	stimuli_distractor_trianglediamonds.svg	stimuli_target_trianglerectangles.svg	25	yes	57	0	515	0	0			0	0			1				0	
6.6.1	win	2023-06-27	03:52:11	03:57:11	294869	5edbf6a29a8d508920c14f6c	3	1	main_slash	7	main_slash	55	stimuli_target_squaretriangles.svg	stimuli_distractor_diamondtriangles.svg	7	yes	53	1	1692	0	0			0	0			1				0	
6.6.1	win	2023-06-27	03:52:11	03:57:11	294869	5edbf6a29a8d508920c14f6c	3	1	main_slash	7	advance_on_keypress_SLASH	56	stimuli_target_squaretriangles.svg	stimuli_distractor_diamondtriangles.svg	7	yes	57	0	643	0	0			0	0			1				0	
6.6.1	win	2023-06-27	03:52:11	03:57:13	296788	5edbf6a29a8d508920c14f6c	3	1	main_slash	7	main_slash	57	stimuli_distractor_diamondtriangles.svg	stimuli_target_squarediamonds.svg	16	yes	53	1	665	0	0			0	0			1				0	
6.6.1	win	2023-06-27	03:52:11	03:57:13	296788	5edbf6a29a8d508920c14f6c	3	1	main_slash	7	advance_on_keypress_SLASH	58	stimuli_distractor_diamondtriangles.svg	stimuli_target_squarediamonds.svg	16	yes	57	0	660	0	0			0	0			1				0	
6.6.1	win	2023-06-27	03:52:11	03:57:15	298721	5edbf6a29a8d508920c14f6c	3	1	main_slash	7	main_slash	59	stimuli_target_diamondsquares.svg	stimuli_distractor_trianglediamonds.svg	20	yes	53	1	659	0	0			0	0			1				0	
6.6.1	win	2023-06-27	03:52:11	03:57:15	298721	5edbf6a29a8d508920c14f6c	3	1	main_slash	7	advance_on_keypress_SLASH	60	stimuli_target_diamondsquares.svg	stimuli_distractor_trianglediamonds.svg	20	yes	57	0	433	0	0			0	0			1				0	
6.6.1	win	2023-06-27	03:52:11	03:57:17	300696	5edbf6a29a8d508920c14f6c	3	1	main_slash	7	main_slash	61	stimuli_target_diamondsquares.svg	stimuli_distractor_diamondtriangles.svg	24	yes	53	1	924	0	0			0	0			1				0	
6.6.1	win	2023-06-27	03:52:11	03:57:17	300696	5edbf6a29a8d508920c14f6c	3	1	main_slash	7	advance_on_keypress_SLASH	62	stimuli_target_diamondsquares.svg	stimuli_distractor_diamondtriangles.svg	24	yes	57	0	526	0	0			0	0			1				0	
6.6.1	win	2023-06-27	03:52:11	03:57:19	302536	5edbf6a29a8d508920c14f6c	3	1	main_slash	7	main_slash	63	stimuli_distractor_diamondtriangles.svg	stimuli_target_trianglesquares.svg	30	yes	53	1	694	0	0			0	0			1				0	
6.6.1	win	2023-06-27	03:52:11	03:57:19	302536	5edbf6a29a8d508920c14f6c	3	1	main_slash	7	advance_on_keypress_SLASH	64	stimuli_distractor_diamondtriangles.svg	stimuli_target_trianglesquares.svg	30	yes	57	0	472	0	0			0	0			1				0	
6.6.1	win	2023-06-27	03:52:11	03:57:21	304276	5edbf6a29a8d508920c14f6c	3	1	main_slash	7	main_slash	65	stimuli_distractor_diamondtriangles.svg	stimuli_target_diamondsquares.svg	32	yes	53	1	648	0	0			0	0			1				0	
6.6.1	win	2023-06-27	03:52:11	03:57:21	304276	5edbf6a29a8d508920c14f6c	3	1	main_slash	7	advance_on_keypress_SLASH	66	stimuli_distractor_diamondtriangles.svg	stimuli_target_diamondsquares.svg	32	yes	57	0	390	0	0			0	0			1				0	
6.6.1	win	2023-06-27	03:52:11	03:57:22	305994	5edbf6a29a8d508920c14f6c	3	1	main_slash	7	main_slash	67	stimuli_target_rectanglediamonds.svg	stimuli_distractor_trianglediamonds.svg	2	yes	53	1	713	0	0			0	0			1				0	
6.6.1	win	2023-06-27	03:52:11	03:57:22	305994	5edbf6a29a8d508920c14f6c	3	1	main_slash	7	advance_on_keypress_SLASH	68	stimuli_target_rectanglediamonds.svg	stimuli_distractor_trianglediamonds.svg	2	yes	57	0	462	0	0			0	0			1				0	
6.6.1	win	2023-06-27	03:52:11	03:57:24	307900	5edbf6a29a8d508920c14f6c	3	1	main_slash	7	main_slash	69	stimuli_distractor_trianglediamonds.svg	stimuli_target_diamondrectangles.svg	27	yes	53	1	832	0	0			0	0			1				0	
6.6.1	win	2023-06-27	03:52:11	03:57:24	307900	5edbf6a29a8d508920c14f6c	3	1	main_slash	7	advance_on_keypress_SLASH	70	stimuli_distractor_trianglediamonds.svg	stimuli_target_diamondrectangles.svg	27	yes	57	0	409	0	0			0	0			1				0	
6.6.1	win	2023-06-27	03:52:11	03:57:26	309601	5edbf6a29a8d508920c14f6c	3	1	main_slash	7	main_slash	71	stimuli_distractor_diamondtriangles.svg	stimuli_target_rectanglediamonds.svg	14	yes	53	1	671	0	0			0	0			1				0	
6.6.1	win	2023-06-27	03:52:11	03:57:26	309601	5edbf6a29a8d508920c14f6c	3	1	main_slash	7	advance_on_keypress_SLASH	72	stimuli_distractor_diamondtriangles.svg	stimuli_target_rectanglediamonds.svg	14	yes	57	0	456	0	0			0	0			1				0	
6.6.1	win	2023-06-27	03:52:11	03:57:28	311340	5edbf6a29a8d508920c14f6c	3	1	main_slash	7	main_slash	73	stimuli_target_trianglesquares.svg	stimuli_distractor_diamondtriangles.svg	22	yes	53	1	674	0	0			0	0			1				0	
6.6.1	win	2023-06-27	03:52:11	03:57:28	311340	5edbf6a29a8d508920c14f6c	3	1	main_slash	7	advance_on_keypress_SLASH	74	stimuli_target_trianglesquares.svg	stimuli_distractor_diamondtriangles.svg	22	yes	57	0	426	0	0			0	0			1				0	
6.6.1	win	2023-06-27	03:52:11	03:57:30	313289	5edbf6a29a8d508920c14f6c	3	1	main_slash	7	main_slash	75	stimuli_target_rectanglediamonds.svg	stimuli_distractor_diamondtriangles.svg	6	yes	53	1	905	0	0			0	0			1				0	
6.6.1	win	2023-06-27	03:52:11	03:57:30	313289	5edbf6a29a8d508920c14f6c	3	1	main_slash	7	advance_on_keypress_SLASH	76	stimuli_target_rectanglediamonds.svg	stimuli_distractor_diamondtriangles.svg	6	yes	57	0	409	0	0			0	0			1				0	
6.6.1	win	2023-06-27	03:52:11	03:57:32	315180	5edbf6a29a8d508920c14f6c	3	1	main_slash	7	main_slash	77	stimuli_target_rectangletriangles.svg	stimuli_distractor_diamondtriangles.svg	5	yes	53	1	865	0	0			0	0			1				0	
6.6.1	win	2023-06-27	03:52:11	03:57:32	315180	5edbf6a29a8d508920c14f6c	3	1	main_slash	7	advance_on_keypress_SLASH	78	stimuli_target_rectangletriangles.svg	stimuli_distractor_diamondtriangles.svg	5	yes	57	0	470	0	0			0	0			1				0	
6.6.1	win	2023-06-27	03:52:11	03:57:34	317527	5edbf6a29a8d508920c14f6c	3	1	main_slash	7	main_slash	79	stimuli_target_rectangletriangles.svg	stimuli_distractor_trianglediamonds.svg	1	yes	53	1	1267	0	0			0	0			1				0	
6.6.1	win	2023-06-27	03:52:11	03:57:34	317527	5edbf6a29a8d508920c14f6c	3	1	main_slash	7	advance_on_keypress_SLASH	80	stimuli_target_rectangletriangles.svg	stimuli_distractor_trianglediamonds.svg	1	yes	57	0	322	0	0			0	0			1				0	
6.6.1	win	2023-06-27	03:52:11	03:57:36	319158	5edbf6a29a8d508920c14f6c	3	1	main_slash	7	main_slash	81	stimuli_distractor_trianglediamonds.svg	stimuli_target_rectangletriangles.svg	9	yes	53	1	695	0	0			0	0			1				0	
6.6.1	win	2023-06-27	03:52:11	03:57:36	319158	5edbf6a29a8d508920c14f6c	3	1	main_slash	7	advance_on_keypress_SLASH	82	stimuli_distractor_trianglediamonds.svg	stimuli_target_rectangletriangles.svg	9	yes	57	0	399	0	0			0	0			1				0	
6.6.1	win	2023-06-27	03:52:11	03:57:39	322176	5edbf6a29a8d508920c14f6c	3	1	main_slash	7	main_slash	83	stimuli_distractor_trianglediamonds.svg	stimuli_distractor_trianglediamonds.svg	33	no	0	1	2003	0	0			0	0			1				0	
6.6.1	win	2023-06-27	03:52:11	03:57:39	322176	5edbf6a29a8d508920c14f6c	3	1	main_slash	7	advance_on_keypress_SLASH	84	stimuli_distractor_trianglediamonds.svg	stimuli_distractor_trianglediamonds.svg	33	no	57	0	482	0	0			0	0			1				0	
6.6.1	win	2023-06-27	03:52:11	03:57:40	323953	5edbf6a29a8d508920c14f6c	3	1	main_slash	7	main_slash	85	stimuli_target_trianglesquares.svg	stimuli_distractor_trianglediamonds.svg	18	yes	53	1	681	0	0			0	0			1				0	
6.6.1	win	2023-06-27	03:52:11	03:57:40	323953	5edbf6a29a8d508920c14f6c	3	1	main_slash	7	advance_on_keypress_SLASH	86	stimuli_target_trianglesquares.svg	stimuli_distractor_trianglediamonds.svg	18	yes	57	0	373	0	0			0	0			1				0	
6.6.1	win	2023-06-27	03:52:11	03:57:42	325705	5edbf6a29a8d508920c14f6c	3	1	main_slash	7	main_slash	87	stimuli_distractor_trianglediamonds.svg	stimuli_target_squarediamonds.svg	12	yes	53	1	765	0	0			0	0			1				0	
6.6.1	win	2023-06-27	03:52:11	03:57:42	325705	5edbf6a29a8d508920c14f6c	3	1	main_slash	7	advance_on_keypress_SLASH	88	stimuli_distractor_trianglediamonds.svg	stimuli_target_squarediamonds.svg	12	yes	57	0	360	0	0			0	0			1				0	
6.6.1	win	2023-06-27	03:52:11	03:57:44	327492	5edbf6a29a8d508920c14f6c	3	1	main_slash	7	main_slash	89	stimuli_distractor_trianglediamonds.svg	stimuli_target_trianglesquares.svg	26	yes	53	1	808	0	0			0	0			1				0	
6.6.1	win	2023-06-27	03:52:11	03:57:44	327492	5edbf6a29a8d508920c14f6c	3	1	main_slash	7	advance_on_keypress_SLASH	90	stimuli_distractor_trianglediamonds.svg	stimuli_target_trianglesquares.svg	26	yes	57	0	333	0	0			0	0			1				0	
6.6.1	win	2023-06-27	03:52:11	03:57:46	329166	5edbf6a29a8d508920c14f6c	3	1	main_slash	7	main_slash	91	stimuli_distractor_diamondtriangles.svg	stimuli_target_squaretriangles.svg	15	yes	53	1	724	0	0			0	0			1				0	
6.6.1	win	2023-06-27	03:52:11	03:57:46	329166	5edbf6a29a8d508920c14f6c	3	1	main_slash	7	advance_on_keypress_SLASH	92	stimuli_distractor_diamondtriangles.svg	stimuli_target_squaretriangles.svg	15	yes	57	0	289	0	0			0	0			1				0	
6.6.1	win	2023-06-27	03:52:11	03:57:49	332071	5edbf6a29a8d508920c14f6c	3	1	main_slash	7	main_slash	93	stimuli_distractor_diamondtriangles.svg	stimuli_distractor_diamondtriangles.svg	40	no	0	1	2003	0	0			0	0			1				0	
6.6.1	win	2023-06-27	03:52:11	03:57:49	332071	5edbf6a29a8d508920c14f6c	3	1	main_slash	7	advance_on_keypress_SLASH	94	stimuli_distractor_diamondtriangles.svg	stimuli_distractor_diamondtriangles.svg	40	no	57	0	482	0	0			0	0			1				0	
6.6.1	win	2023-06-27	03:52:11	03:57:52	335170	5edbf6a29a8d508920c14f6c	3	1	main_slash	7	main_slash	95	stimuli_distractor_trianglediamonds.svg	stimuli_distractor_trianglediamonds.svg	34	no	0	1	2003	0	0			0	0			1				0	
6.6.1	win	2023-06-27	03:52:11	03:57:52	335170	5edbf6a29a8d508920c14f6c	3	1	main_slash	7	advance_on_keypress_SLASH	96	stimuli_distractor_trianglediamonds.svg	stimuli_distractor_trianglediamonds.svg	34	no	57	0	481	0	0			0	0			1				0	
6.6.1	win	2023-06-27	03:52:11	03:57:53	336890	5edbf6a29a8d508920c14f6c	3	1	main_slash	7	main_slash	97	stimuli_distractor_diamondtriangles.svg	stimuli_target_squarediamonds.svg	16	yes	53	1	625	0	0			0	0			1				0	
6.6.1	win	2023-06-27	03:52:11	03:57:53	336890	5edbf6a29a8d508920c14f6c	3	1	main_slash	7	advance_on_keypress_SLASH	98	stimuli_distractor_diamondtriangles.svg	stimuli_target_squarediamonds.svg	16	yes	57	0	344	0	0			0	0			1				0	
6.6.1	win	2023-06-27	03:52:11	03:57:55	338668	5edbf6a29a8d508920c14f6c	3	1	main_slash	7	main_slash	99	stimuli_target_trianglesquares.svg	stimuli_distractor_diamondtriangles.svg	22	yes	53	1	818	0	0			0	0			1				0	
6.6.1	win	2023-06-27	03:52:11	03:57:55	338668	5edbf6a29a8d508920c14f6c	3	1	main_slash	7	advance_on_keypress_SLASH	100	stimuli_target_trianglesquares.svg	stimuli_distractor_diamondtriangles.svg	22	yes	57	0	298	0	0			0	0			1				0	
6.6.1	win	2023-06-27	03:52:11	03:57:57	340390	5edbf6a29a8d508920c14f6c	3	1	main_slash	7	main_slash	101	stimuli_distractor_trianglediamonds.svg	stimuli_target_diamondrectangles.svg	27	yes	53	1	809	0	0			0	0			1				0	
6.6.1	win	2023-06-27	03:52:11	03:57:57	340390	5edbf6a29a8d508920c14f6c	3	1	main_slash	7	advance_on_keypress_SLASH	102	stimuli_distractor_trianglediamonds.svg	stimuli_target_diamondrectangles.svg	27	yes	57	0	274	0	0			0	0			1				0	
6.6.1	win	2023-06-27	03:52:11	03:57:59	342118	5edbf6a29a8d508920c14f6c	3	1	main_slash	7	main_slash	103	stimuli_distractor_trianglediamonds.svg	stimuli_target_diamondsquares.svg	28	yes	53	1	842	0	0			0	0			1				0	
6.6.1	win	2023-06-27	03:52:11	03:57:59	342118	5edbf6a29a8d508920c14f6c	3	1	main_slash	7	advance_on_keypress_SLASH	104	stimuli_distractor_trianglediamonds.svg	stimuli_target_diamondsquares.svg	28	yes	57	0	264	0	0			0	0			1				0	
6.6.1	win	2023-06-27	03:52:11	03:58:00	343644	5edbf6a29a8d508920c14f6c	3	1	main_slash	7	main_slash	105	stimuli_distractor_diamondtriangles.svg	stimuli_target_trianglesquares.svg	30	yes	53	1	645	0	0			0	0			1				0	
6.6.1	win	2023-06-27	03:52:11	03:58:00	343644	5edbf6a29a8d508920c14f6c	3	1	main_slash	7	advance_on_keypress_SLASH	106	stimuli_distractor_diamondtriangles.svg	stimuli_target_trianglesquares.svg	30	yes	57	0	349	0	0			0	0			1				0	
6.6.1	win	2023-06-27	03:52:11	03:58:02	345322	5edbf6a29a8d508920c14f6c	3	1	main_slash	7	main_slash	107	stimuli_target_rectanglediamonds.svg	stimuli_distractor_trianglediamonds.svg	2	yes	53	1	710	0	0			0	0			1				0	
6.6.1	win	2023-06-27	03:52:11	03:58:02	345322	5edbf6a29a8d508920c14f6c	3	1	main_slash	7	advance_on_keypress_SLASH	108	stimuli_target_rectanglediamonds.svg	stimuli_distractor_trianglediamonds.svg	2	yes	57	0	257	0	0			0	0			1				0	
6.6.1	win	2023-06-27	03:52:11	03:58:03	347021	5edbf6a29a8d508920c14f6c	3	1	main_slash	7	main_slash	109	stimuli_distractor_trianglediamonds.svg	stimuli_target_trianglerectangles.svg	25	yes	53	1	826	0	0			0	0			1				0	
6.6.1	win	2023-06-27	03:52:11	03:58:03	347021	5edbf6a29a8d508920c14f6c	3	1	main_slash	7	advance_on_keypress_SLASH	110	stimuli_distractor_trianglediamonds.svg	stimuli_target_trianglerectangles.svg	25	yes	57	0	307	0	0			0	0			1				0	
6.6.1	win	2023-06-27	03:52:11	03:58:06	349906	5edbf6a29a8d508920c14f6c	3	1	main_slash	7	main_slash	111	stimuli_target_trianglerectangles.svg	stimuli_distractor_trianglediamonds.svg	17	yes	53	1	1959	0	0			0	0			1				0	
6.6.1	win	2023-06-27	03:52:11	03:58:06	349906	5edbf6a29a8d508920c14f6c	3	1	main_slash	7	advance_on_keypress_SLASH	112	stimuli_target_trianglerectangles.svg	stimuli_distractor_trianglediamonds.svg	17	yes	57	0	400	0	0			0	0			1				0	
6.6.1	win	2023-06-27	03:52:11	03:58:09	352924	5edbf6a29a8d508920c14f6c	3	1	main_slash	7	main_slash	113	stimuli_distractor_trianglediamonds.svg	stimuli_distractor_diamondtriangles.svg	35	no	0	1	2003	0	0			0	0			1				0	
6.6.1	win	2023-06-27	03:52:11	03:58:09	352924	5edbf6a29a8d508920c14f6c	3	1	main_slash	7	advance_on_keypress_SLASH	114	stimuli_distractor_trianglediamonds.svg	stimuli_distractor_diamondtriangles.svg	35	no	57	0	447	0	0			0	0			1				0	
6.6.1	win	2023-06-27	03:52:11	03:58:11	354757	5edbf6a29a8d508920c14f6c	3	1	main_slash	7	main_slash	115	stimuli_target_squarediamonds.svg	stimuli_distractor_trianglediamonds.svg	4	yes	53	1	772	0	0			0	0			1				0	
6.6.1	win	2023-06-27	03:52:11	03:58:11	354757	5edbf6a29a8d508920c14f6c	3	1	main_slash	7	advance_on_keypress_SLASH	116	stimuli_target_squarediamonds.svg	stimuli_distractor_trianglediamonds.svg	4	yes	57	0	262	0	0			0	0			1				0	
6.6.1	win	2023-06-27	03:52:11	03:58:13	356435	5edbf6a29a8d508920c14f6c	3	1	main_slash	7	main_slash	117	stimuli_target_trianglerectangles.svg	stimuli_distractor_diamondtriangles.svg	21	yes	53	1	797	0	0			0	0			1				0	
6.6.1	win	2023-06-27	03:52:11	03:58:13	356435	5edbf6a29a8d508920c14f6c	3	1	main_slash	7	advance_on_keypress_SLASH	118	stimuli_target_trianglerectangles.svg	stimuli_distractor_diamondtriangles.svg	21	yes	57	0	289	0	0			0	0			1				0	
6.6.1	win	2023-06-27	03:52:11	03:58:15	358173	5edbf6a29a8d508920c14f6c	3	1	main_slash	7	main_slash	119	stimuli_target_diamondsquares.svg	stimuli_distractor_diamondtriangles.svg	24	yes	53	1	838	0	0			0	0			1				0	
6.6.1	win	2023-06-27	03:52:11	03:58:15	358173	5edbf6a29a8d508920c14f6c	3	1	main_slash	7	advance_on_keypress_SLASH	120	stimuli_target_diamondsquares.svg	stimuli_distractor_diamondtriangles.svg	24	yes	57	0	261	0	0			0	0			1				0	
6.6.1	win	2023-06-27	03:52:11	03:58:17	360042	5edbf6a29a8d508920c14f6c	3	1	main_slash	7	main_slash	121	stimuli_distractor_diamondtriangles.svg	stimuli_target_rectangletriangles.svg	13	yes	53	1	998	0	0			0	0			1				0	
6.6.1	win	2023-06-27	03:52:11	03:58:17	360042	5edbf6a29a8d508920c14f6c	3	1	main_slash	7	advance_on_keypress_SLASH	122	stimuli_distractor_diamondtriangles.svg	stimuli_target_rectangletriangles.svg	13	yes	57	0	253	0	0			0	0			1				0	
6.6.1	win	2023-06-27	03:52:11	03:58:18	361717	5edbf6a29a8d508920c14f6c	3	1	main_slash	7	main_slash	123	stimuli_distractor_diamondtriangles.svg	stimuli_target_diamondsquares.svg	32	yes	53	1	811	0	0			0	0			1				0	
6.6.1	win	2023-06-27	03:52:11	03:58:18	361717	5edbf6a29a8d508920c14f6c	3	1	main_slash	7	advance_on_keypress_SLASH	124	stimuli_distractor_diamondtriangles.svg	stimuli_target_diamondsquares.svg	32	yes	57	0	252	0	0			0	0			1				0	
6.6.1	win	2023-06-27	03:52:11	03:58:21	364164	5edbf6a29a8d508920c14f6c	3	1	main_slash	7	main_slash	125	stimuli_target_squaretriangles.svg	stimuli_distractor_diamondtriangles.svg	7	yes	53	1	1576	0	0			0	0			1				0	
6.6.1	win	2023-06-27	03:52:11	03:58:21	364164	5edbf6a29a8d508920c14f6c	3	1	main_slash	7	advance_on_keypress_SLASH	126	stimuli_target_squaretriangles.svg	stimuli_distractor_diamondtriangles.svg	7	yes	57	0	469	0	0			0	0			1				0	
6.6.1	win	2023-06-27	03:52:11	03:58:23	366084	5edbf6a29a8d508920c14f6c	3	1	main_slash	7	main_slash	127	stimuli_target_diamondrectangles.svg	stimuli_distractor_trianglediamonds.svg	19	yes	53	1	836	0	0			0	0			1				0	
6.6.1	win	2023-06-27	03:52:11	03:58:23	366084	5edbf6a29a8d508920c14f6c	3	1	main_slash	7	advance_on_keypress_SLASH	128	stimuli_target_diamondrectangles.svg	stimuli_distractor_trianglediamonds.svg	19	yes	57	0	268	0	0			0	0			1				0	
6.6.1	win	2023-06-27	03:52:11	03:58:24	367726	5edbf6a29a8d508920c14f6c	3	1	main_slash	7	main_slash	129	stimuli_target_diamondrectangles.svg	stimuli_distractor_diamondtriangles.svg	23	yes	53	1	761	0	0			0	0			1				0	
6.6.1	win	2023-06-27	03:52:11	03:58:24	367726	5edbf6a29a8d508920c14f6c	3	1	main_slash	7	advance_on_keypress_SLASH	130	stimuli_target_diamondrectangles.svg	stimuli_distractor_diamondtriangles.svg	23	yes	57	0	292	0	0			0	0			1				0	
6.6.1	win	2023-06-27	03:52:11	03:58:27	370636	5edbf6a29a8d508920c14f6c	3	1	main_slash	7	main_slash	131	stimuli_distractor_trianglediamonds.svg	stimuli_distractor_diamondtriangles.svg	36	no	0	1	2003	0	0			0	0			1				0	
6.6.1	win	2023-06-27	03:52:11	03:58:27	370636	5edbf6a29a8d508920c14f6c	3	1	main_slash	7	advance_on_keypress_SLASH	132	stimuli_distractor_trianglediamonds.svg	stimuli_distractor_diamondtriangles.svg	36	no	57	0	660	0	0			0	0			1				0	
6.6.1	win	2023-06-27	03:52:11	03:58:29	372531	5edbf6a29a8d508920c14f6c	3	1	main_slash	7	main_slash	133	stimuli_distractor_diamondtriangles.svg	stimuli_target_diamondrectangles.svg	31	yes	53	1	618	0	0			0	0			1				0	
6.6.1	win	2023-06-27	03:52:11	03:58:29	372531	5edbf6a29a8d508920c14f6c	3	1	main_slash	7	advance_on_keypress_SLASH	134	stimuli_distractor_diamondtriangles.svg	stimuli_target_diamondrectangles.svg	31	yes	57	0	263	0	0			0	0			1				0	
6.6.1	win	2023-06-27	03:52:11	03:58:32	375417	5edbf6a29a8d508920c14f6c	3	1	main_slash	7	main_slash	135	stimuli_target_rectangletriangles.svg	stimuli_distractor_diamondtriangles.svg	5	yes	0	0	2003	0	0			0	0			1				0	
6.6.1	win	2023-06-27	03:52:11	03:58:32	375417	5edbf6a29a8d508920c14f6c	3	1	main_slash	7	advance_on_keypress_SLASH	136	stimuli_target_rectangletriangles.svg	stimuli_distractor_diamondtriangles.svg	5	yes	57	0	453	0	0			0	0			1				0	
6.6.1	win	2023-06-27	03:52:11	03:58:35	378488	5edbf6a29a8d508920c14f6c	3	1	main_slash	7	main_slash	137	stimuli_distractor_diamondtriangles.svg	stimuli_distractor_diamondtriangles.svg	39	no	0	1	2003	0	0			0	0			1				0	
6.6.1	win	2023-06-27	03:52:11	03:58:35	378488	5edbf6a29a8d508920c14f6c	3	1	main_slash	7	advance_on_keypress_SLASH	138	stimuli_distractor_diamondtriangles.svg	stimuli_distractor_diamondtriangles.svg	39	no	57	0	420	0	0			0	0			1				0	
6.6.1	win	2023-06-27	03:52:11	03:58:37	380185	5edbf6a29a8d508920c14f6c	3	1	main_slash	7	main_slash	139	stimuli_distractor_trianglediamonds.svg	stimuli_target_rectanglediamonds.svg	10	yes	53	1	663	0	0			0	0			1				0	
6.6.1	win	2023-06-27	03:52:11	03:58:37	380185	5edbf6a29a8d508920c14f6c	3	1	main_slash	7	advance_on_keypress_SLASH	140	stimuli_distractor_trianglediamonds.svg	stimuli_target_rectanglediamonds.svg	10	yes	57	0	264	0	0			0	0			1				0	
6.6.1	win	2023-06-27	03:52:11	03:58:38	381800	5edbf6a29a8d508920c14f6c	3	1	main_slash	7	main_slash	141	stimuli_target_squaretriangles.svg	stimuli_distractor_trianglediamonds.svg	3	yes	53	1	736	0	0			0	0			1				0	
6.6.1	win	2023-06-27	03:52:11	03:58:38	381800	5edbf6a29a8d508920c14f6c	3	1	main_slash	7	advance_on_keypress_SLASH	142	stimuli_target_squaretriangles.svg	stimuli_distractor_trianglediamonds.svg	3	yes	57	0	231	0	0			0	0			1				0	
6.6.1	win	2023-06-27	03:52:11	03:58:40	383531	5edbf6a29a8d508920c14f6c	3	1	main_slash	7	main_slash	143	stimuli_target_rectanglediamonds.svg	stimuli_distractor_diamondtriangles.svg	6	yes	53	1	882	0	0			0	0			1				0	
6.6.1	win	2023-06-27	03:52:11	03:58:40	383531	5edbf6a29a8d508920c14f6c	3	1	main_slash	7	advance_on_keypress_SLASH	144	stimuli_target_rectanglediamonds.svg	stimuli_distractor_diamondtriangles.svg	6	yes	57	0	198	0	0			0	0			1				0	
6.6.1	win	2023-06-27	03:52:11	03:58:43	386354	5edbf6a29a8d508920c14f6c	3	1	main_slash	7	main_slash	145	stimuli_distractor_diamondtriangles.svg	stimuli_distractor_trianglediamonds.svg	38	no	0	1	2003	0	0			0	0			1				0	
6.6.1	win	2023-06-27	03:52:11	03:58:43	386354	5edbf6a29a8d508920c14f6c	3	1	main_slash	7	advance_on_keypress_SLASH	146	stimuli_distractor_diamondtriangles.svg	stimuli_distractor_trianglediamonds.svg	38	no	57	0	408	0	0			0	0			1				0	
6.6.1	win	2023-06-27	03:52:11	03:58:45	388093	5edbf6a29a8d508920c14f6c	3	1	main_slash	7	main_slash	147	stimuli_distractor_diamondtriangles.svg	stimuli_target_rectanglediamonds.svg	14	yes	53	1	712	0	0			0	0			1				0	
6.6.1	win	2023-06-27	03:52:11	03:58:45	388093	5edbf6a29a8d508920c14f6c	3	1	main_slash	7	advance_on_keypress_SLASH	148	stimuli_distractor_diamondtriangles.svg	stimuli_target_rectanglediamonds.svg	14	yes	57	0	240	0	0			0	0			1				0	
6.6.1	win	2023-06-27	03:52:11	03:58:46	389768	5edbf6a29a8d508920c14f6c	3	1	main_slash	7	main_slash	149	stimuli_distractor_trianglediamonds.svg	stimuli_target_squaretriangles.svg	11	yes	53	1	824	0	0			0	0			1				0	
6.6.1	win	2023-06-27	03:52:11	03:58:46	389768	5edbf6a29a8d508920c14f6c	3	1	main_slash	7	advance_on_keypress_SLASH	150	stimuli_distractor_trianglediamonds.svg	stimuli_target_squaretriangles.svg	11	yes	57	0	270	0	0			0	0			1				0	
6.6.1	win	2023-06-27	03:52:11	03:58:49	392657	5edbf6a29a8d508920c14f6c	3	1	main_slash	7	main_slash	151	stimuli_target_rectangletriangles.svg	stimuli_distractor_trianglediamonds.svg	1	yes	0	0	2003	0	0			0	0			1				0	
6.6.1	win	2023-06-27	03:52:11	03:58:49	392657	5edbf6a29a8d508920c14f6c	3	1	main_slash	7	advance_on_keypress_SLASH	152	stimuli_target_rectangletriangles.svg	stimuli_distractor_trianglediamonds.svg	1	yes	57	0	478	0	0			0	0			1				0	
6.6.1	win	2023-06-27	03:52:11	03:58:52	395756	5edbf6a29a8d508920c14f6c	3	1	main_slash	7	main_slash	153	stimuli_distractor_diamondtriangles.svg	stimuli_distractor_trianglediamonds.svg	37	no	0	1	2003	0	0			0	0			1				0	
6.6.1	win	2023-06-27	03:52:11	03:58:52	395756	5edbf6a29a8d508920c14f6c	3	1	main_slash	7	advance_on_keypress_SLASH	154	stimuli_distractor_diamondtriangles.svg	stimuli_distractor_trianglediamonds.svg	37	no	57	0	422	0	0			0	0			1				0	
6.6.1	win	2023-06-27	03:52:11	03:58:54	397483	5edbf6a29a8d508920c14f6c	3	1	main_slash	7	main_slash	155	stimuli_target_diamondsquares.svg	stimuli_distractor_trianglediamonds.svg	20	yes	53	1	695	0	0			0	0			1				0	
6.6.1	win	2023-06-27	03:52:11	03:58:54	397483	5edbf6a29a8d508920c14f6c	3	1	main_slash	7	advance_on_keypress_SLASH	156	stimuli_target_diamondsquares.svg	stimuli_distractor_trianglediamonds.svg	20	yes	57	0	249	0	0			0	0			1				0	
6.6.1	win	2023-06-27	03:52:11	03:58:55	399010	5edbf6a29a8d508920c14f6c	3	1	main_slash	7	main_slash	157	stimuli_distractor_diamondtriangles.svg	stimuli_target_trianglerectangles.svg	29	yes	53	1	657	0	0			0	0			1				0	
6.6.1	win	2023-06-27	03:52:11	03:58:55	399010	5edbf6a29a8d508920c14f6c	3	1	main_slash	7	advance_on_keypress_SLASH	158	stimuli_distractor_diamondtriangles.svg	stimuli_target_trianglerectangles.svg	29	yes	57	0	209	0	0			0	0			1				0	
6.6.1	win	2023-06-27	03:52:11	03:58:57	400642	5edbf6a29a8d508920c14f6c	3	1	main_slash	7	main_slash	159	stimuli_target_squarediamonds.svg	stimuli_distractor_diamondtriangles.svg	8	yes	53	1	809	0	0			0	0			1				0	
6.6.1	win	2023-06-27	03:52:11	03:58:57	400642	5edbf6a29a8d508920c14f6c	3	1	main_slash	7	advance_on_keypress_SLASH	160	stimuli_target_squarediamonds.svg	stimuli_distractor_diamondtriangles.svg	8	yes	57	0	205	0	0			0	0			1				0	
6.6.1	win	2023-06-27	03:52:11	03:59:17	420615	5edbf6a29a8d508920c14f6c	3	1	practice_z	9	practice_z	1	stimuli_distractor_trianglediamonds.svg	stimuli_target_squarediamonds.svg	11	yes	44	1	477	0	0			0	0			1				0	
6.6.1	win	2023-06-27	03:52:11	03:59:17	420615	5edbf6a29a8d508920c14f6c	3	1	practice_z	9	advance_on_keypress_ZEE	2	stimuli_distractor_trianglediamonds.svg	stimuli_target_squarediamonds.svg	11	yes	57	0	578	0	0			0	0			1				0	
6.6.1	win	2023-06-27	03:52:11	03:59:21	424815	5edbf6a29a8d508920c14f6c	3	1	practice_z	9	practice_z	3	stimuli_distractor_trianglediamonds.svg	stimuli_distractor_trianglediamonds.svg	15	no	0	1	2003	0	0			0	0			1				0	
6.6.1	win	2023-06-27	03:52:11	03:59:21	424815	5edbf6a29a8d508920c14f6c	3	1	practice_z	9	advance_on_keypress_ZEE	4	stimuli_distractor_trianglediamonds.svg	stimuli_distractor_trianglediamonds.svg	15	no	57	0	587	0	0			0	0			1				0	
6.6.1	win	2023-06-27	03:52:11	03:59:24	427404	5edbf6a29a8d508920c14f6c	3	1	practice_z	9	practice_z	5	stimuli_target_squarediamonds.svg	stimuli_distractor_trianglediamonds.svg	5	yes	44	1	388	0	0			0	0			1				0	
6.6.1	win	2023-06-27	03:52:11	03:59:24	427404	5edbf6a29a8d508920c14f6c	3	1	practice_z	9	advance_on_keypress_ZEE	6	stimuli_target_squarediamonds.svg	stimuli_distractor_trianglediamonds.svg	5	yes	57	0	552	0	0			0	0			1				0	
6.6.1	win	2023-06-27	03:52:11	03:59:27	430292	5edbf6a29a8d508920c14f6c	3	1	practice_z	9	practice_z	7	stimuli_distractor_trianglediamonds.svg	stimuli_target_diamondrectangles.svg	12	yes	44	1	711	0	0			0	0			1				0	
6.6.1	win	2023-06-27	03:52:11	03:59:27	430292	5edbf6a29a8d508920c14f6c	3	1	practice_z	9	advance_on_keypress_ZEE	8	stimuli_distractor_trianglediamonds.svg	stimuli_target_diamondrectangles.svg	12	yes	57	0	495	0	0			0	0			1				0	
6.6.1	win	2023-06-27	03:52:11	03:59:30	433064	5edbf6a29a8d508920c14f6c	3	1	practice_z	9	practice_z	9	stimuli_target_rectanglediamonds.svg	stimuli_distractor_diamondtriangles.svg	1	yes	44	1	662	0	0			0	0			1				0	
6.6.1	win	2023-06-27	03:52:11	03:59:30	433064	5edbf6a29a8d508920c14f6c	3	1	practice_z	9	advance_on_keypress_ZEE	10	stimuli_target_rectanglediamonds.svg	stimuli_distractor_diamondtriangles.svg	1	yes	57	0	480	0	0			0	0			1				0	
6.6.1	win	2023-06-27	03:52:11	03:59:32	435571	5edbf6a29a8d508920c14f6c	3	1	practice_z	9	practice_z	11	stimuli_target_diamondsquares.svg	stimuli_distractor_trianglediamonds.svg	6	yes	44	1	410	0	0			0	0			1				0	
6.6.1	win	2023-06-27	03:52:11	03:59:32	435571	5edbf6a29a8d508920c14f6c	3	1	practice_z	9	advance_on_keypress_ZEE	12	stimuli_target_diamondsquares.svg	stimuli_distractor_trianglediamonds.svg	6	yes	57	0	442	0	0			0	0			1				0	
6.6.1	win	2023-06-27	03:52:11	03:59:35	438473	5edbf6a29a8d508920c14f6c	3	1	practice_z	9	practice_z	13	stimuli_distractor_diamondtriangles.svg	stimuli_target_trianglerectangles.svg	9	yes	44	1	839	0	0			0	0			1				0	
6.6.1	win	2023-06-27	03:52:11	03:59:35	438473	5edbf6a29a8d508920c14f6c	3	1	practice_z	9	advance_on_keypress_ZEE	14	stimuli_distractor_diamondtriangles.svg	stimuli_target_trianglerectangles.svg	9	yes	57	0	346	0	0			0	0			1				0	
6.6.1	win	2023-06-27	03:52:11	03:59:39	442444	5edbf6a29a8d508920c14f6c	3	1	practice_z	9	practice_z	15	stimuli_distractor_diamondtriangles.svg	stimuli_distractor_diamondtriangles.svg	13	no	0	1	2003	0	0			0	0			1				0	
6.6.1	win	2023-06-27	03:52:11	03:59:39	442444	5edbf6a29a8d508920c14f6c	3	1	practice_z	9	advance_on_keypress_ZEE	16	stimuli_distractor_diamondtriangles.svg	stimuli_distractor_diamondtriangles.svg	13	no	57	0	482	0	0			0	0			1				0	
6.6.1	win	2023-06-27	03:52:11	03:59:42	445117	5edbf6a29a8d508920c14f6c	3	1	practice_z	9	practice_z	17	stimuli_target_rectanglediamonds.svg	stimuli_distractor_trianglediamonds.svg	4	yes	44	1	570	0	0			0	0			1				0	
6.6.1	win	2023-06-27	03:52:11	03:59:42	445117	5edbf6a29a8d508920c14f6c	3	1	practice_z	9	advance_on_keypress_ZEE	18	stimuli_target_rectanglediamonds.svg	stimuli_distractor_trianglediamonds.svg	4	yes	57	0	404	0	0			0	0			1				0	
6.6.1	win	2023-06-27	03:52:11	03:59:44	447688	5edbf6a29a8d508920c14f6c	3	1	practice_z	9	practice_z	19	stimuli_target_squarediamonds.svg	stimuli_distractor_diamondtriangles.svg	2	yes	44	1	548	0	0			0	0			1				0	
6.6.1	win	2023-06-27	03:52:11	03:59:44	447688	5edbf6a29a8d508920c14f6c	3	1	practice_z	9	advance_on_keypress_ZEE	20	stimuli_target_squarediamonds.svg	stimuli_distractor_diamondtriangles.svg	2	yes	57	0	807	0	0			0	0			1				0	
6.6.1	win	2023-06-27	03:52:11	03:59:49	452117	5edbf6a29a8d508920c14f6c	3	1	practice_z	9	practice_z	21	stimuli_distractor_trianglediamonds.svg	stimuli_distractor_diamondtriangles.svg	16	no	0	1	2003	0	0			0	0			1				0	
6.6.1	win	2023-06-27	03:52:11	03:59:49	452117	5edbf6a29a8d508920c14f6c	3	1	practice_z	9	advance_on_keypress_ZEE	22	stimuli_distractor_trianglediamonds.svg	stimuli_distractor_diamondtriangles.svg	16	no	57	0	416	0	0			0	0			1				0	
6.6.1	win	2023-06-27	03:52:11	03:59:51	454754	5edbf6a29a8d508920c14f6c	3	1	practice_z	9	practice_z	23	stimuli_distractor_diamondtriangles.svg	stimuli_target_rectangletriangles.svg	7	yes	44	1	604	0	0			0	0			1				0	
6.6.1	win	2023-06-27	03:52:11	03:59:51	454754	5edbf6a29a8d508920c14f6c	3	1	practice_z	9	advance_on_keypress_ZEE	24	stimuli_distractor_diamondtriangles.svg	stimuli_target_rectangletriangles.svg	7	yes	57	0	401	0	0			0	0			1				0	
6.6.1	win	2023-06-27	03:52:11	03:59:54	457364	5edbf6a29a8d508920c14f6c	3	1	practice_z	9	practice_z	25	stimuli_target_diamondsquares.svg	stimuli_distractor_diamondtriangles.svg	3	yes	44	1	586	0	0			0	0			1				0	
6.6.1	win	2023-06-27	03:52:11	03:59:54	457364	5edbf6a29a8d508920c14f6c	3	1	practice_z	9	advance_on_keypress_ZEE	26	stimuli_target_diamondsquares.svg	stimuli_distractor_diamondtriangles.svg	3	yes	57	0	528	0	0			0	0			1				0	
6.6.1	win	2023-06-27	03:52:11	03:59:57	460077	5edbf6a29a8d508920c14f6c	3	1	practice_z	9	practice_z	27	stimuli_distractor_trianglediamonds.svg	stimuli_target_rectanglediamonds.svg	10	yes	44	1	569	0	0			0	0			1				0	
6.6.1	win	2023-06-27	03:52:11	03:59:57	460077	5edbf6a29a8d508920c14f6c	3	1	practice_z	9	advance_on_keypress_ZEE	28	stimuli_distractor_trianglediamonds.svg	stimuli_target_rectanglediamonds.svg	10	yes	57	0	393	0	0			0	0			1				0	
6.6.1	win	2023-06-27	03:52:11	04:00:01	464096	5edbf6a29a8d508920c14f6c	3	1	practice_z	9	practice_z	29	stimuli_distractor_diamondtriangles.svg	stimuli_distractor_trianglediamonds.svg	14	no	0	1	2003	0	0			0	0			1				0	
6.6.1	win	2023-06-27	03:52:11	04:00:01	464096	5edbf6a29a8d508920c14f6c	3	1	practice_z	9	advance_on_keypress_ZEE	30	stimuli_distractor_diamondtriangles.svg	stimuli_distractor_trianglediamonds.svg	14	no	57	0	448	0	0			0	0			1				0	
6.6.1	win	2023-06-27	03:52:11	04:00:03	466880	5edbf6a29a8d508920c14f6c	3	1	practice_z	9	practice_z	31	stimuli_distractor_diamondtriangles.svg	stimuli_target_diamondrectangles.svg	8	yes	44	1	721	0	0			0	0			1				0	
6.6.1	win	2023-06-27	03:52:11	04:00:03	466880	5edbf6a29a8d508920c14f6c	3	1	practice_z	9	advance_on_keypress_ZEE	32	stimuli_distractor_diamondtriangles.svg	stimuli_target_diamondrectangles.svg	8	yes	57	0	511	0	0			0	0			1				0	
6.6.1	win	2023-06-27	03:52:11	04:00:07	470710	5edbf6a29a8d508920c14f6c	3	1	main_z	11	main_z	1	stimuli_distractor_trianglediamonds.svg	stimuli_target_diamondsquares.svg	28	yes	44	1	652	0	0			0	0			1				0	
6.6.1	win	2023-06-27	03:52:11	04:00:07	470710	5edbf6a29a8d508920c14f6c	3	1	main_z	11	advance_on_keypress_ZEE	2	stimuli_distractor_trianglediamonds.svg	stimuli_target_diamondsquares.svg	28	yes	57	0	595	0	0			0	0			1				0	
6.6.1	win	2023-06-27	03:52:11	04:00:10	473929	5edbf6a29a8d508920c14f6c	3	1	main_z	11	main_z	3	stimuli_distractor_diamondtriangles.svg	stimuli_distractor_trianglediamonds.svg	37	no	0	1	2003	0	0			0	0			1				0	
6.6.1	win	2023-06-27	03:52:11	04:00:10	473929	5edbf6a29a8d508920c14f6c	3	1	main_z	11	advance_on_keypress_ZEE	4	stimuli_distractor_diamondtriangles.svg	stimuli_distractor_trianglediamonds.svg	37	no	57	0	252	0	0			0	0			1				0	
6.6.1	win	2023-06-27	03:52:11	04:00:12	475209	5edbf6a29a8d508920c14f6c	3	1	main_z	11	main_z	5	stimuli_distractor_trianglediamonds.svg	stimuli_target_rectanglediamonds.svg	10	yes	44	1	413	0	0			0	0			1				0	
6.6.1	win	2023-06-27	03:52:11	04:00:12	475209	5edbf6a29a8d508920c14f6c	3	1	main_z	11	advance_on_keypress_ZEE	6	stimuli_distractor_trianglediamonds.svg	stimuli_target_rectanglediamonds.svg	10	yes	57	0	584	0	0			0	0			1				0	
6.6.1	win	2023-06-27	03:52:11	04:00:13	476954	5edbf6a29a8d508920c14f6c	3	1	main_z	11	main_z	7	stimuli_target_rectangletriangles.svg	stimuli_distractor_trianglediamonds.svg	1	yes	44	1	544	0	0			0	0			1				0	
6.6.1	win	2023-06-27	03:52:11	04:00:13	476954	5edbf6a29a8d508920c14f6c	3	1	main_z	11	advance_on_keypress_ZEE	8	stimuli_target_rectangletriangles.svg	stimuli_distractor_trianglediamonds.svg	1	yes	57	0	348	0	0			0	0			1				0	
6.6.1	win	2023-06-27	03:52:11	04:00:15	478337	5edbf6a29a8d508920c14f6c	3	1	main_z	11	main_z	9	stimuli_distractor_diamondtriangles.svg	stimuli_target_trianglesquares.svg	30	yes	44	1	422	0	0			0	0			1				0	
6.6.1	win	2023-06-27	03:52:11	04:00:15	478337	5edbf6a29a8d508920c14f6c	3	1	main_z	11	advance_on_keypress_ZEE	10	stimuli_distractor_diamondtriangles.svg	stimuli_target_trianglesquares.svg	30	yes	57	0	369	0	0			0	0			1				0	
6.6.1	win	2023-06-27	03:52:11	04:00:16	479696	5edbf6a29a8d508920c14f6c	3	1	main_z	11	main_z	11	stimuli_distractor_trianglediamonds.svg	stimuli_target_trianglesquares.svg	26	yes	44	1	376	0	0			0	0			1				0	
6.6.1	win	2023-06-27	03:52:11	04:00:16	479696	5edbf6a29a8d508920c14f6c	3	1	main_z	11	advance_on_keypress_ZEE	12	stimuli_distractor_trianglediamonds.svg	stimuli_target_trianglesquares.svg	26	yes	57	0	300	0	0			0	0			1				0	
6.6.1	win	2023-06-27	03:52:11	04:00:18	481359	5edbf6a29a8d508920c14f6c	3	1	main_z	11	main_z	13	stimuli_distractor_diamondtriangles.svg	stimuli_target_squarediamonds.svg	16	yes	44	1	747	0	0			0	0			1				0	
6.6.1	win	2023-06-27	03:52:11	04:00:18	481359	5edbf6a29a8d508920c14f6c	3	1	main_z	11	advance_on_keypress_ZEE	14	stimuli_distractor_diamondtriangles.svg	stimuli_target_squarediamonds.svg	16	yes	57	0	278	0	0			0	0			1				0	
6.6.1	win	2023-06-27	03:52:11	04:00:21	484255	5edbf6a29a8d508920c14f6c	3	1	main_z	11	main_z	15	stimuli_distractor_trianglediamonds.svg	stimuli_distractor_diamondtriangles.svg	36	no	0	1	2003	0	0			0	0			1				0	
6.6.1	win	2023-06-27	03:52:11	04:00:21	484255	5edbf6a29a8d508920c14f6c	3	1	main_z	11	advance_on_keypress_ZEE	16	stimuli_distractor_trianglediamonds.svg	stimuli_distractor_diamondtriangles.svg	36	no	57	0	220	0	0			0	0			1				0	
6.6.1	win	2023-06-27	03:52:11	04:00:22	485467	5edbf6a29a8d508920c14f6c	3	1	main_z	11	main_z	17	stimuli_target_rectanglediamonds.svg	stimuli_distractor_diamondtriangles.svg	6	yes	44	1	374	0	0			0	0			1				0	
6.6.1	win	2023-06-27	03:52:11	04:00:22	485467	5edbf6a29a8d508920c14f6c	3	1	main_z	11	advance_on_keypress_ZEE	18	stimuli_target_rectanglediamonds.svg	stimuli_distractor_diamondtriangles.svg	6	yes	57	0	295	0	0			0	0			1				0	
6.6.1	win	2023-06-27	03:52:11	04:00:23	486885	5edbf6a29a8d508920c14f6c	3	1	main_z	11	main_z	19	stimuli_distractor_diamondtriangles.svg	stimuli_target_rectanglediamonds.svg	14	yes	44	1	506	0	0			0	0			1				0	
6.6.1	win	2023-06-27	03:52:11	04:00:23	486885	5edbf6a29a8d508920c14f6c	3	1	main_z	11	advance_on_keypress_ZEE	20	stimuli_distractor_diamondtriangles.svg	stimuli_target_rectanglediamonds.svg	14	yes	57	0	261	0	0			0	0			1				0	
6.6.1	win	2023-06-27	03:52:11	04:00:25	488262	5edbf6a29a8d508920c14f6c	3	1	main_z	11	main_z	21	stimuli_target_diamondrectangles.svg	stimuli_distractor_trianglediamonds.svg	19	yes	44	1	493	0	0			0	0			1				0	
6.6.1	win	2023-06-27	03:52:11	04:00:25	488262	5edbf6a29a8d508920c14f6c	3	1	main_z	11	advance_on_keypress_ZEE	22	stimuli_target_diamondrectangles.svg	stimuli_distractor_trianglediamonds.svg	19	yes	57	0	282	0	0			0	0			1				0	
6.6.1	win	2023-06-27	03:52:11	04:00:28	491162	5edbf6a29a8d508920c14f6c	3	1	main_z	11	main_z	23	stimuli_distractor_trianglediamonds.svg	stimuli_target_squarediamonds.svg	12	yes	0	0	2003	0	0			0	0			1				0	
6.6.1	win	2023-06-27	03:52:11	04:00:28	491162	5edbf6a29a8d508920c14f6c	3	1	main_z	11	advance_on_keypress_ZEE	24	stimuli_distractor_trianglediamonds.svg	stimuli_target_squarediamonds.svg	12	yes	57	0	482	0	0			0	0			1				0	
6.6.1	win	2023-06-27	03:52:11	04:00:29	492857	5edbf6a29a8d508920c14f6c	3	1	main_z	11	main_z	25	stimuli_target_squaretriangles.svg	stimuli_distractor_trianglediamonds.svg	3	yes	44	1	600	0	0			0	0			1				0	
6.6.1	win	2023-06-27	03:52:11	04:00:29	492857	5edbf6a29a8d508920c14f6c	3	1	main_z	11	advance_on_keypress_ZEE	26	stimuli_target_squaretriangles.svg	stimuli_distractor_trianglediamonds.svg	3	yes	57	0	209	0	0			0	0			1				0	
6.6.1	win	2023-06-27	03:52:11	04:00:32	495685	5edbf6a29a8d508920c14f6c	3	1	main_z	11	main_z	27	stimuli_distractor_diamondtriangles.svg	stimuli_distractor_diamondtriangles.svg	39	no	0	1	2003	0	0			0	0			1				0	
6.6.1	win	2023-06-27	03:52:11	04:00:32	495685	5edbf6a29a8d508920c14f6c	3	1	main_z	11	advance_on_keypress_ZEE	28	stimuli_distractor_diamondtriangles.svg	stimuli_distractor_diamondtriangles.svg	39	no	57	0	182	0	0			0	0			1				0	
6.6.1	win	2023-06-27	03:52:11	04:00:33	496815	5edbf6a29a8d508920c14f6c	3	1	main_z	11	main_z	29	stimuli_distractor_diamondtriangles.svg	stimuli_target_squaretriangles.svg	15	yes	44	1	332	0	0			0	0			1				0	
6.6.1	win	2023-06-27	03:52:11	04:00:33	496815	5edbf6a29a8d508920c14f6c	3	1	main_z	11	advance_on_keypress_ZEE	30	stimuli_distractor_diamondtriangles.svg	stimuli_target_squaretriangles.svg	15	yes	57	0	248	0	0			0	0			1				0	
6.6.1	win	2023-06-27	03:52:11	04:00:35	498148	5edbf6a29a8d508920c14f6c	3	1	main_z	11	main_z	31	stimuli_target_trianglesquares.svg	stimuli_distractor_trianglediamonds.svg	18	yes	44	1	463	0	0			0	0			1				0	
6.6.1	win	2023-06-27	03:52:11	04:00:35	498148	5edbf6a29a8d508920c14f6c	3	1	main_z	11	advance_on_keypress_ZEE	32	stimuli_target_trianglesquares.svg	stimuli_distractor_trianglediamonds.svg	18	yes	57	0	290	0	0			0	0			1				0	
6.6.1	win	2023-06-27	03:52:11	04:00:38	501057	5edbf6a29a8d508920c14f6c	3	1	main_z	11	main_z	33	stimuli_distractor_trianglediamonds.svg	stimuli_distractor_trianglediamonds.svg	33	no	0	1	2003	0	0			0	0			1				0	
6.6.1	win	2023-06-27	03:52:11	04:00:38	501057	5edbf6a29a8d508920c14f6c	3	1	main_z	11	advance_on_keypress_ZEE	34	stimuli_distractor_trianglediamonds.svg	stimuli_distractor_trianglediamonds.svg	33	no	57	0	532	0	0			0	0			1				0	
6.6.1	win	2023-06-27	03:52:11	04:00:39	502677	5edbf6a29a8d508920c14f6c	3	1	main_z	11	main_z	35	stimuli_target_trianglerectangles.svg	stimuli_distractor_trianglediamonds.svg	17	yes	44	1	476	0	0			0	0			1				0	
6.6.1	win	2023-06-27	03:52:11	04:00:39	502677	5edbf6a29a8d508920c14f6c	3	1	main_z	11	advance_on_keypress_ZEE	36	stimuli_target_trianglerectangles.svg	stimuli_distractor_trianglediamonds.svg	17	yes	57	0	579	0	0			0	0			1				0	
6.6.1	win	2023-06-27	03:52:11	04:00:41	504403	5edbf6a29a8d508920c14f6c	3	1	main_z	11	main_z	37	stimuli_distractor_trianglediamonds.svg	stimuli_target_diamondrectangles.svg	27	yes	44	1	534	0	0			0	0			1				0	
6.6.1	win	2023-06-27	03:52:11	04:00:41	504403	5edbf6a29a8d508920c14f6c	3	1	main_z	11	advance_on_keypress_ZEE	38	stimuli_distractor_trianglediamonds.svg	stimuli_target_diamondrectangles.svg	27	yes	57	0	261	0	0			0	0			1				0	
6.6.1	win	2023-06-27	03:52:11	04:00:42	505888	5edbf6a29a8d508920c14f6c	3	1	main_z	11	main_z	39	stimuli_distractor_diamondtriangles.svg	stimuli_target_trianglerectangles.svg	29	yes	44	1	601	0	0			0	0			1				0	
6.6.1	win	2023-06-27	03:52:11	04:00:42	505888	5edbf6a29a8d508920c14f6c	3	1	main_z	11	advance_on_keypress_ZEE	40	stimuli_distractor_diamondtriangles.svg	stimuli_target_trianglerectangles.svg	29	yes	57	0	208	0	0			0	0			1				0	
6.6.1	win	2023-06-27	03:52:11	04:00:44	507314	5edbf6a29a8d508920c14f6c	3	1	main_z	11	main_z	41	stimuli_target_trianglesquares.svg	stimuli_distractor_diamondtriangles.svg	22	yes	44	1	603	0	0			0	0			1				0	
6.6.1	win	2023-06-27	03:52:11	04:00:44	507314	5edbf6a29a8d508920c14f6c	3	1	main_z	11	advance_on_keypress_ZEE	42	stimuli_target_trianglesquares.svg	stimuli_distractor_diamondtriangles.svg	22	yes	57	0	184	0	0			0	0			1				0	
6.6.1	win	2023-06-27	03:52:11	04:00:45	508626	5edbf6a29a8d508920c14f6c	3	1	main_z	11	main_z	43	stimuli_target_rectangletriangles.svg	stimuli_distractor_diamondtriangles.svg	5	yes	44	1	511	0	0			0	0			1				0	
6.6.1	win	2023-06-27	03:52:11	04:00:45	508626	5edbf6a29a8d508920c14f6c	3	1	main_z	11	advance_on_keypress_ZEE	44	stimuli_target_rectangletriangles.svg	stimuli_distractor_diamondtriangles.svg	5	yes	57	0	254	0	0			0	0			1				0	
6.6.1	win	2023-06-27	03:52:11	04:00:46	509901	5edbf6a29a8d508920c14f6c	3	1	main_z	11	main_z	45	stimuli_target_squarediamonds.svg	stimuli_distractor_diamondtriangles.svg	8	yes	44	1	411	0	0			0	0			1				0	
6.6.1	win	2023-06-27	03:52:11	04:00:46	509901	5edbf6a29a8d508920c14f6c	3	1	main_z	11	advance_on_keypress_ZEE	46	stimuli_target_squarediamonds.svg	stimuli_distractor_diamondtriangles.svg	8	yes	57	0	249	0	0			0	0			1				0	
6.6.1	win	2023-06-27	03:52:11	04:00:49	512772	5edbf6a29a8d508920c14f6c	3	1	main_z	11	main_z	47	stimuli_distractor_trianglediamonds.svg	stimuli_target_rectangletriangles.svg	9	yes	0	0	2003	0	0			0	0			1				0	
6.6.1	win	2023-06-27	03:52:11	04:00:49	512772	5edbf6a29a8d508920c14f6c	3	1	main_z	11	advance_on_keypress_ZEE	48	stimuli_distractor_trianglediamonds.svg	stimuli_target_rectangletriangles.svg	9	yes	57	0	389	0	0			0	0			1				0	
6.6.1	win	2023-06-27	03:52:11	04:00:51	514534	5edbf6a29a8d508920c14f6c	3	1	main_z	11	main_z	49	stimuli_distractor_diamondtriangles.svg	stimuli_target_diamondsquares.svg	32	yes	44	1	756	0	0			0	0			1				0	
6.6.1	win	2023-06-27	03:52:11	04:00:51	514534	5edbf6a29a8d508920c14f6c	3	1	main_z	11	advance_on_keypress_ZEE	50	stimuli_distractor_diamondtriangles.svg	stimuli_target_diamondsquares.svg	32	yes	57	0	195	0	0			0	0			1				0	
6.6.1	win	2023-06-27	03:52:11	04:00:52	515762	5edbf6a29a8d508920c14f6c	3	1	main_z	11	main_z	51	stimuli_target_diamondsquares.svg	stimuli_distractor_trianglediamonds.svg	20	yes	44	1	414	0	0			0	0			1				0	
6.6.1	win	2023-06-27	03:52:11	04:00:52	515762	5edbf6a29a8d508920c14f6c	3	1	main_z	11	advance_on_keypress_ZEE	52	stimuli_target_diamondsquares.svg	stimuli_distractor_trianglediamonds.svg	20	yes	57	0	229	0	0			0	0			1				0	
6.6.1	win	2023-06-27	03:52:11	04:00:55	518609	5edbf6a29a8d508920c14f6c	3	1	main_z	11	main_z	53	stimuli_distractor_trianglediamonds.svg	stimuli_distractor_trianglediamonds.svg	34	no	0	1	2003	0	0			0	0			1				0	
6.6.1	win	2023-06-27	03:52:11	04:00:55	518609	5edbf6a29a8d508920c14f6c	3	1	main_z	11	advance_on_keypress_ZEE	54	stimuli_distractor_trianglediamonds.svg	stimuli_distractor_trianglediamonds.svg	34	no	57	0	341	0	0			0	0			1				0	
6.6.1	win	2023-06-27	03:52:11	04:00:56	519962	5edbf6a29a8d508920c14f6c	3	1	main_z	11	main_z	55	stimuli_target_squaretriangles.svg	stimuli_distractor_diamondtriangles.svg	7	yes	44	1	396	0	0			0	0			1				0	
6.6.1	win	2023-06-27	03:52:11	04:00:56	519962	5edbf6a29a8d508920c14f6c	3	1	main_z	11	advance_on_keypress_ZEE	56	stimuli_target_squaretriangles.svg	stimuli_distractor_diamondtriangles.svg	7	yes	57	0	207	0	0			0	0			1				0	
6.6.1	win	2023-06-27	03:52:11	04:00:58	521317	5edbf6a29a8d508920c14f6c	3	1	main_z	11	main_z	57	stimuli_target_diamondrectangles.svg	stimuli_distractor_diamondtriangles.svg	23	yes	44	1	522	0	0			0	0			1				0	
6.6.1	win	2023-06-27	03:52:11	04:00:58	521317	5edbf6a29a8d508920c14f6c	3	1	main_z	11	advance_on_keypress_ZEE	58	stimuli_target_diamondrectangles.svg	stimuli_distractor_diamondtriangles.svg	23	yes	57	0	201	0	0			0	0			1				0	
6.6.1	win	2023-06-27	03:52:11	04:00:59	522645	5edbf6a29a8d508920c14f6c	3	1	main_z	11	main_z	59	stimuli_distractor_trianglediamonds.svg	stimuli_target_trianglerectangles.svg	25	yes	44	1	508	0	0			0	0			1				0	
6.6.1	win	2023-06-27	03:52:11	04:00:59	522645	5edbf6a29a8d508920c14f6c	3	1	main_z	11	advance_on_keypress_ZEE	60	stimuli_distractor_trianglediamonds.svg	stimuli_target_trianglerectangles.svg	25	yes	57	0	198	0	0			0	0			1				0	
6.6.1	win	2023-06-27	03:52:11	04:01:00	523980	5edbf6a29a8d508920c14f6c	3	1	main_z	11	main_z	61	stimuli_target_diamondsquares.svg	stimuli_distractor_diamondtriangles.svg	24	yes	44	1	516	0	0			0	0			1				0	
6.6.1	win	2023-06-27	03:52:11	04:01:00	523980	5edbf6a29a8d508920c14f6c	3	1	main_z	11	advance_on_keypress_ZEE	62	stimuli_target_diamondsquares.svg	stimuli_distractor_diamondtriangles.svg	24	yes	57	0	178	0	0			0	0			1				0	
6.6.1	win	2023-06-27	03:52:11	04:01:02	525129	5edbf6a29a8d508920c14f6c	3	1	main_z	11	main_z	63	stimuli_target_rectanglediamonds.svg	stimuli_distractor_trianglediamonds.svg	2	yes	44	1	352	0	0			0	0			1				0	
6.6.1	win	2023-06-27	03:52:11	04:01:02	525129	5edbf6a29a8d508920c14f6c	3	1	main_z	11	advance_on_keypress_ZEE	64	stimuli_target_rectanglediamonds.svg	stimuli_distractor_trianglediamonds.svg	2	yes	57	0	224	0	0			0	0			1				0	
6.6.1	win	2023-06-27	03:52:11	04:01:03	526601	5edbf6a29a8d508920c14f6c	3	1	main_z	11	main_z	65	stimuli_target_trianglerectangles.svg	stimuli_distractor_diamondtriangles.svg	21	yes	44	1	635	0	0			0	0			1				0	
6.6.1	win	2023-06-27	03:52:11	04:01:03	526601	5edbf6a29a8d508920c14f6c	3	1	main_z	11	advance_on_keypress_ZEE	66	stimuli_target_trianglerectangles.svg	stimuli_distractor_diamondtriangles.svg	21	yes	57	0	169	0	0			0	0			1				0	
6.6.1	win	2023-06-27	03:52:11	04:01:04	527793	5edbf6a29a8d508920c14f6c	3	1	main_z	11	main_z	67	stimuli_distractor_trianglediamonds.svg	stimuli_target_squaretriangles.svg	11	yes	44	1	410	0	0			0	0			1				0	
6.6.1	win	2023-06-27	03:52:11	04:01:04	527793	5edbf6a29a8d508920c14f6c	3	1	main_z	11	advance_on_keypress_ZEE	68	stimuli_distractor_trianglediamonds.svg	stimuli_target_squaretriangles.svg	11	yes	57	0	162	0	0			0	0			1				0	
6.6.1	win	2023-06-27	03:52:11	04:01:07	530575	5edbf6a29a8d508920c14f6c	3	1	main_z	11	main_z	69	stimuli_distractor_diamondtriangles.svg	stimuli_distractor_diamondtriangles.svg	40	no	0	1	2003	0	0			0	0			1				0	
6.6.1	win	2023-06-27	03:52:11	04:01:07	530575	5edbf6a29a8d508920c14f6c	3	1	main_z	11	advance_on_keypress_ZEE	70	stimuli_distractor_diamondtriangles.svg	stimuli_distractor_diamondtriangles.svg	40	no	57	0	319	0	0			0	0			1				0	
6.6.1	win	2023-06-27	03:52:11	04:01:09	532077	5edbf6a29a8d508920c14f6c	3	1	main_z	11	main_z	71	stimuli_distractor_diamondtriangles.svg	stimuli_target_rectangletriangles.svg	13	yes	44	1	566	0	0			0	0			1				0	
6.6.1	win	2023-06-27	03:52:11	04:01:09	532077	5edbf6a29a8d508920c14f6c	3	1	main_z	11	advance_on_keypress_ZEE	72	stimuli_distractor_diamondtriangles.svg	stimuli_target_rectangletriangles.svg	13	yes	57	0	199	0	0			0	0			1				0	
6.6.1	win	2023-06-27	03:52:11	04:01:11	534897	5edbf6a29a8d508920c14f6c	3	1	main_z	11	main_z	73	stimuli_distractor_diamondtriangles.svg	stimuli_target_diamondrectangles.svg	31	yes	0	0	2003	0	0			0	0			1				0	
6.6.1	win	2023-06-27	03:52:11	04:01:11	534897	5edbf6a29a8d508920c14f6c	3	1	main_z	11	advance_on_keypress_ZEE	74	stimuli_distractor_diamondtriangles.svg	stimuli_target_diamondrectangles.svg	31	yes	57	0	429	0	0			0	0			1				0	
6.6.1	win	2023-06-27	03:52:11	04:01:14	537947	5edbf6a29a8d508920c14f6c	3	1	main_z	11	main_z	75	stimuli_distractor_diamondtriangles.svg	stimuli_distractor_trianglediamonds.svg	38	no	0	1	2003	0	0			0	0			1				0	
6.6.1	win	2023-06-27	03:52:11	04:01:14	537947	5edbf6a29a8d508920c14f6c	3	1	main_z	11	advance_on_keypress_ZEE	76	stimuli_distractor_diamondtriangles.svg	stimuli_distractor_trianglediamonds.svg	38	no	57	0	218	0	0			0	0			1				0	
6.6.1	win	2023-06-27	03:52:11	04:01:17	540782	5edbf6a29a8d508920c14f6c	3	1	main_z	11	main_z	77	stimuli_distractor_trianglediamonds.svg	stimuli_distractor_diamondtriangles.svg	35	no	0	1	2003	0	0			0	0			1				0	
6.6.1	win	2023-06-27	03:52:11	04:01:17	540782	5edbf6a29a8d508920c14f6c	3	1	main_z	11	advance_on_keypress_ZEE	78	stimuli_distractor_trianglediamonds.svg	stimuli_distractor_diamondtriangles.svg	35	no	57	0	313	0	0			0	0			1				0	
6.6.1	win	2023-06-27	03:52:11	04:01:19	542151	5edbf6a29a8d508920c14f6c	3	1	main_z	11	main_z	79	stimuli_target_squarediamonds.svg	stimuli_distractor_trianglediamonds.svg	4	yes	44	1	439	0	0			0	0			1				0	
6.6.1	win	2023-06-27	03:52:11	04:01:19	542151	5edbf6a29a8d508920c14f6c	3	1	main_z	11	advance_on_keypress_ZEE	80	stimuli_target_squarediamonds.svg	stimuli_distractor_trianglediamonds.svg	4	yes	57	0	160	0	0			0	0			1				0	
6.6.1	win	2023-06-27	03:52:11	04:01:20	543383	5edbf6a29a8d508920c14f6c	3	1	main_z	11	main_z	81	stimuli_distractor_trianglediamonds.svg	stimuli_target_trianglerectangles.svg	25	yes	44	1	456	0	0			0	0			1				0	
6.6.1	win	2023-06-27	03:52:11	04:01:20	543383	5edbf6a29a8d508920c14f6c	3	1	main_z	11	advance_on_keypress_ZEE	82	stimuli_distractor_trianglediamonds.svg	stimuli_target_trianglerectangles.svg	25	yes	57	0	66	0	0			0	0			1				0	
6.6.1	win	2023-06-27	03:52:11	04:01:21	544521	5edbf6a29a8d508920c14f6c	3	1	main_z	11	main_z	83	stimuli_target_rectangletriangles.svg	stimuli_distractor_diamondtriangles.svg	5	yes	44	1	454	0	0			0	0			1				0	
6.6.1	win	2023-06-27	03:52:11	04:01:21	544521	5edbf6a29a8d508920c14f6c	3	1	main_z	11	advance_on_keypress_ZEE	84	stimuli_target_rectangletriangles.svg	stimuli_distractor_diamondtriangles.svg	5	yes	57	0	84	0	0			0	0			1				0	
6.6.1	win	2023-06-27	03:52:11	04:01:24	547224	5edbf6a29a8d508920c14f6c	3	1	main_z	11	main_z	85	stimuli_distractor_diamondtriangles.svg	stimuli_distractor_trianglediamonds.svg	37	no	0	1	2003	0	0			0	0			1				0	
6.6.1	win	2023-06-27	03:52:11	04:01:24	547224	5edbf6a29a8d508920c14f6c	3	1	main_z	11	advance_on_keypress_ZEE	86	stimuli_distractor_diamondtriangles.svg	stimuli_distractor_trianglediamonds.svg	37	no	57	0	266	0	0			0	0			1				0	
6.6.1	win	2023-06-27	03:52:11	04:01:25	548559	5edbf6a29a8d508920c14f6c	3	1	main_z	11	main_z	87	stimuli_target_trianglerectangles.svg	stimuli_distractor_diamondtriangles.svg	21	yes	44	1	455	0	0			0	0			1				0	
6.6.1	win	2023-06-27	03:52:11	04:01:25	548559	5edbf6a29a8d508920c14f6c	3	1	main_z	11	advance_on_keypress_ZEE	88	stimuli_target_trianglerectangles.svg	stimuli_distractor_diamondtriangles.svg	21	yes	57	0	236	0	0			0	0			1				0	
6.6.1	win	2023-06-27	03:52:11	04:01:26	549839	5edbf6a29a8d508920c14f6c	3	1	main_z	11	main_z	89	stimuli_target_rectangletriangles.svg	stimuli_distractor_trianglediamonds.svg	1	yes	44	1	428	0	0			0	0			1				0	
6.6.1	win	2023-06-27	03:52:11	04:01:26	549839	5edbf6a29a8d508920c14f6c	3	1	main_z	11	advance_on_keypress_ZEE	90	stimuli_target_rectangletriangles.svg	stimuli_distractor_trianglediamonds.svg	1	yes	57	0	207	0	0			0	0			1				0	
6.6.1	win	2023-06-27	03:52:11	04:01:29	552665	5edbf6a29a8d508920c14f6c	3	1	main_z	11	main_z	91	stimuli_distractor_diamondtriangles.svg	stimuli_distractor_diamondtriangles.svg	40	no	0	1	2003	0	0			0	0			1				0	
6.6.1	win	2023-06-27	03:52:11	04:01:29	552665	5edbf6a29a8d508920c14f6c	3	1	main_z	11	advance_on_keypress_ZEE	92	stimuli_distractor_diamondtriangles.svg	stimuli_distractor_diamondtriangles.svg	40	no	57	0	210	0	0			0	0			1				0	
6.6.1	win	2023-06-27	03:52:11	04:01:30	553942	5edbf6a29a8d508920c14f6c	3	1	main_z	11	main_z	93	stimuli_target_diamondsquares.svg	stimuli_distractor_diamondtriangles.svg	24	yes	44	1	452	0	0			0	0			1				0	
6.6.1	win	2023-06-27	03:52:11	04:01:30	553942	5edbf6a29a8d508920c14f6c	3	1	main_z	11	advance_on_keypress_ZEE	94	stimuli_target_diamondsquares.svg	stimuli_distractor_diamondtriangles.svg	24	yes	57	0	165	0	0			0	0			1				0	
6.6.1	win	2023-06-27	03:52:11	04:01:32	555172	5edbf6a29a8d508920c14f6c	3	1	main_z	11	main_z	95	stimuli_target_squarediamonds.svg	stimuli_distractor_trianglediamonds.svg	4	yes	44	1	444	0	0			0	0			1				0	
6.6.1	win	2023-06-27	03:52:11	04:01:32	555172	5edbf6a29a8d508920c14f6c	3	1	main_z	11	advance_on_keypress_ZEE	96	stimuli_target_squarediamonds.svg	stimuli_distractor_trianglediamonds.svg	4	yes	57	0	166	0	0			0	0			1				0	
6.6.1	win	2023-06-27	03:52:11	04:01:33	556325	5edbf6a29a8d508920c14f6c	3	1	main_z	11	main_z	97	stimuli_target_trianglerectangles.svg	stimuli_distractor_trianglediamonds.svg	17	yes	44	1	368	0	0			0	0			1				0	
6.6.1	win	2023-06-27	03:52:11	04:01:33	556325	5edbf6a29a8d508920c14f6c	3	1	main_z	11	advance_on_keypress_ZEE	98	stimuli_target_trianglerectangles.svg	stimuli_distractor_trianglediamonds.svg	17	yes	57	0	222	0	0			0	0			1				0	
6.6.1	win	2023-06-27	03:52:11	04:01:34	557674	5edbf6a29a8d508920c14f6c	3	1	main_z	11	main_z	99	stimuli_distractor_diamondtriangles.svg	stimuli_target_trianglerectangles.svg	29	yes	44	1	508	0	0			0	0			1				0	
6.6.1	win	2023-06-27	03:52:11	04:01:34	557674	5edbf6a29a8d508920c14f6c	3	1	main_z	11	advance_on_keypress_ZEE	100	stimuli_distractor_diamondtriangles.svg	stimuli_target_trianglerectangles.svg	29	yes	57	0	136	0	0			0	0			1				0	
6.6.1	win	2023-06-27	03:52:11	04:01:35	558898	5edbf6a29a8d508920c14f6c	3	1	main_z	11	main_z	101	stimuli_distractor_diamondtriangles.svg	stimuli_target_rectanglediamonds.svg	14	yes	44	1	468	0	0			0	0			1				0	
6.6.1	win	2023-06-27	03:52:11	04:01:35	558898	5edbf6a29a8d508920c14f6c	3	1	main_z	11	advance_on_keypress_ZEE	102	stimuli_distractor_diamondtriangles.svg	stimuli_target_rectanglediamonds.svg	14	yes	57	0	155	0	0			0	0			1				0	
6.6.1	win	2023-06-27	03:52:11	04:01:38	561670	5edbf6a29a8d508920c14f6c	3	1	main_z	11	main_z	103	stimuli_distractor_diamondtriangles.svg	stimuli_distractor_diamondtriangles.svg	39	no	0	1	2003	0	0			0	0			1				0	
6.6.1	win	2023-06-27	03:52:11	04:01:38	561670	5edbf6a29a8d508920c14f6c	3	1	main_z	11	advance_on_keypress_ZEE	104	stimuli_distractor_diamondtriangles.svg	stimuli_distractor_diamondtriangles.svg	39	no	57	0	540	0	0			0	0			1				0	
6.6.1	win	2023-06-27	03:52:11	04:01:40	563308	5edbf6a29a8d508920c14f6c	3	1	main_z	11	main_z	105	stimuli_distractor_trianglediamonds.svg	stimuli_target_squarediamonds.svg	12	yes	44	1	479	0	0			0	0			1				0	
6.6.1	win	2023-06-27	03:52:11	04:01:40	563308	5edbf6a29a8d508920c14f6c	3	1	main_z	11	advance_on_keypress_ZEE	106	stimuli_distractor_trianglediamonds.svg	stimuli_target_squarediamonds.svg	12	yes	57	0	94	0	0			0	0			1				0	
6.6.1	win	2023-06-27	03:52:11	04:01:41	564527	5edbf6a29a8d508920c14f6c	3	1	main_z	11	main_z	107	stimuli_distractor_diamondtriangles.svg	stimuli_target_trianglesquares.svg	30	yes	44	1	504	0	0			0	0			1				0	
6.6.1	win	2023-06-27	03:52:11	04:01:41	564527	5edbf6a29a8d508920c14f6c	3	1	main_z	11	advance_on_keypress_ZEE	108	stimuli_distractor_diamondtriangles.svg	stimuli_target_trianglesquares.svg	30	yes	57	0	112	0	0			0	0			1				0	
6.6.1	win	2023-06-27	03:52:11	04:01:44	567257	5edbf6a29a8d508920c14f6c	3	1	main_z	11	main_z	109	stimuli_distractor_trianglediamonds.svg	stimuli_distractor_trianglediamonds.svg	33	no	0	1	2003	0	0			0	0			1				0	
6.6.1	win	2023-06-27	03:52:11	04:01:44	567257	5edbf6a29a8d508920c14f6c	3	1	main_z	11	advance_on_keypress_ZEE	110	stimuli_distractor_trianglediamonds.svg	stimuli_distractor_trianglediamonds.svg	33	no	57	0	186	0	0			0	0			1				0	
6.6.1	win	2023-06-27	03:52:11	04:01:45	568474	5edbf6a29a8d508920c14f6c	3	1	main_z	11	main_z	111	stimuli_target_rectanglediamonds.svg	stimuli_distractor_trianglediamonds.svg	2	yes	44	1	413	0	0			0	0			1				0	
6.6.1	win	2023-06-27	03:52:11	04:01:45	568474	5edbf6a29a8d508920c14f6c	3	1	main_z	11	advance_on_keypress_ZEE	112	stimuli_target_rectanglediamonds.svg	stimuli_distractor_trianglediamonds.svg	2	yes	57	0	147	0	0			0	0			1				0	
6.6.1	win	2023-06-27	03:52:11	04:01:47	570162	5edbf6a29a8d508920c14f6c	3	1	main_z	11	main_z	113	stimuli_distractor_trianglediamonds.svg	stimuli_target_rectangletriangles.svg	9	yes	44	1	927	0	0			0	0			1				0	
6.6.1	win	2023-06-27	03:52:11	04:01:47	570162	5edbf6a29a8d508920c14f6c	3	1	main_z	11	advance_on_keypress_ZEE	114	stimuli_distractor_trianglediamonds.svg	stimuli_target_rectangletriangles.svg	9	yes	57	0	113	0	0			0	0			1				0	
6.6.1	win	2023-06-27	03:52:11	04:01:48	571375	5edbf6a29a8d508920c14f6c	3	1	main_z	11	main_z	115	stimuli_distractor_trianglediamonds.svg	stimuli_target_trianglesquares.svg	26	yes	44	1	486	0	0			0	0			1				0	
6.6.1	win	2023-06-27	03:52:11	04:01:48	571375	5edbf6a29a8d508920c14f6c	3	1	main_z	11	advance_on_keypress_ZEE	116	stimuli_distractor_trianglediamonds.svg	stimuli_target_trianglesquares.svg	26	yes	57	0	61	0	0			0	0			1				0	
6.6.1	win	2023-06-27	03:52:11	04:01:51	574060	5edbf6a29a8d508920c14f6c	3	1	main_z	11	main_z	117	stimuli_distractor_diamondtriangles.svg	stimuli_distractor_trianglediamonds.svg	38	no	0	1	2003	0	0			0	0			1				0	
6.6.1	win	2023-06-27	03:52:11	04:01:51	574060	5edbf6a29a8d508920c14f6c	3	1	main_z	11	advance_on_keypress_ZEE	118	stimuli_distractor_diamondtriangles.svg	stimuli_distractor_trianglediamonds.svg	38	no	57	0	357	0	0			0	0			1				0	
6.6.1	win	2023-06-27	03:52:11	04:01:52	575457	5edbf6a29a8d508920c14f6c	3	1	main_z	11	main_z	119	stimuli_target_squarediamonds.svg	stimuli_distractor_diamondtriangles.svg	8	yes	44	1	426	0	0			0	0			1				0	
6.6.1	win	2023-06-27	03:52:11	04:01:52	575457	5edbf6a29a8d508920c14f6c	3	1	main_z	11	advance_on_keypress_ZEE	120	stimuli_target_squarediamonds.svg	stimuli_distractor_diamondtriangles.svg	8	yes	57	0	184	0	0			0	0			1				0	
6.6.1	win	2023-06-27	03:52:11	04:01:53	576911	5edbf6a29a8d508920c14f6c	3	1	main_z	11	main_z	121	stimuli_distractor_diamondtriangles.svg	stimuli_target_diamondrectangles.svg	31	yes	44	1	657	0	0			0	0			1				0	
6.6.1	win	2023-06-27	03:52:11	04:01:53	576911	5edbf6a29a8d508920c14f6c	3	1	main_z	11	advance_on_keypress_ZEE	122	stimuli_distractor_diamondtriangles.svg	stimuli_target_diamondrectangles.svg	31	yes	57	0	181	0	0			0	0			1				0	
6.6.1	win	2023-06-27	03:52:11	04:01:55	578618	5edbf6a29a8d508920c14f6c	3	1	main_z	11	main_z	123	stimuli_target_squaretriangles.svg	stimuli_distractor_diamondtriangles.svg	7	yes	44	1	912	0	0			0	0			1				0	
6.6.1	win	2023-06-27	03:52:11	04:01:55	578618	5edbf6a29a8d508920c14f6c	3	1	main_z	11	advance_on_keypress_ZEE	124	stimuli_target_squaretriangles.svg	stimuli_distractor_diamondtriangles.svg	7	yes	57	0	158	0	0			0	0			1				0	
6.6.1	win	2023-06-27	03:52:11	04:01:57	580442	5edbf6a29a8d508920c14f6c	3	1	main_z	11	main_z	125	stimuli_distractor_diamondtriangles.svg	stimuli_target_diamondsquares.svg	32	yes	44	1	1048	0	0			0	0			1				0	
6.6.1	win	2023-06-27	03:52:11	04:01:57	580442	5edbf6a29a8d508920c14f6c	3	1	main_z	11	advance_on_keypress_ZEE	126	stimuli_distractor_diamondtriangles.svg	stimuli_target_diamondsquares.svg	32	yes	57	0	46	0	0			0	0			1				0	
6.6.1	win	2023-06-27	03:52:11	04:01:58	581671	5edbf6a29a8d508920c14f6c	3	1	main_z	11	main_z	127	stimuli_distractor_trianglediamonds.svg	stimuli_target_diamondsquares.svg	28	yes	44	1	561	0	0			0	0			1				0	
6.6.1	win	2023-06-27	03:52:11	04:01:58	581671	5edbf6a29a8d508920c14f6c	3	1	main_z	11	advance_on_keypress_ZEE	128	stimuli_distractor_trianglediamonds.svg	stimuli_target_diamondsquares.svg	28	yes	57	0	48	0	0			0	0			1				0	
6.6.1	win	2023-06-27	03:52:11	04:01:59	582956	5edbf6a29a8d508920c14f6c	3	1	main_z	11	main_z	129	stimuli_distractor_trianglediamonds.svg	stimuli_target_squaretriangles.svg	11	yes	44	1	615	0	0			0	0			1				0	
6.6.1	win	2023-06-27	03:52:11	04:01:59	582956	5edbf6a29a8d508920c14f6c	3	1	main_z	11	advance_on_keypress_ZEE	130	stimuli_distractor_trianglediamonds.svg	stimuli_target_squaretriangles.svg	11	yes	57	0	39	0	0			0	0			1				0	
6.6.1	win	2023-06-27	03:52:11	04:02:01	584089	5edbf6a29a8d508920c14f6c	3	1	main_z	11	main_z	131	stimuli_target_diamondrectangles.svg	stimuli_distractor_diamondtriangles.svg	23	yes	44	1	483	0	0			0	0			1				0	
6.6.1	win	2023-06-27	03:52:11	04:02:01	584089	5edbf6a29a8d508920c14f6c	3	1	main_z	11	advance_on_keypress_ZEE	132	stimuli_target_diamondrectangles.svg	stimuli_distractor_diamondtriangles.svg	23	yes	57	0	74	0	0			0	0			1				0	
6.6.1	win	2023-06-27	03:52:11	04:02:02	585339	5edbf6a29a8d508920c14f6c	3	1	main_z	11	main_z	133	stimuli_distractor_trianglediamonds.svg	stimuli_target_diamondrectangles.svg	27	yes	44	1	559	0	0			0	0			1				0	
6.6.1	win	2023-06-27	03:52:11	04:02:02	585339	5edbf6a29a8d508920c14f6c	3	1	main_z	11	advance_on_keypress_ZEE	134	stimuli_distractor_trianglediamonds.svg	stimuli_target_diamondrectangles.svg	27	yes	57	0	60	0	0			0	0			1				0	
6.6.1	win	2023-06-27	03:52:11	04:02:03	586545	5edbf6a29a8d508920c14f6c	3	1	main_z	11	main_z	135	stimuli_distractor_diamondtriangles.svg	stimuli_target_rectangletriangles.svg	13	yes	44	1	522	0	0			0	0			1				0	
6.6.1	win	2023-06-27	03:52:11	04:02:03	586545	5edbf6a29a8d508920c14f6c	3	1	main_z	11	advance_on_keypress_ZEE	136	stimuli_distractor_diamondtriangles.svg	stimuli_target_rectangletriangles.svg	13	yes	57	0	30	0	0			0	0			1				0	
6.6.1	win	2023-06-27	03:52:11	04:02:04	587676	5edbf6a29a8d508920c14f6c	3	1	main_z	11	main_z	137	stimuli_distractor_diamondtriangles.svg	stimuli_target_squaretriangles.svg	15	yes	44	1	485	0	0			0	0			1				0	
6.6.1	win	2023-06-27	03:52:11	04:02:04	587676	5edbf6a29a8d508920c14f6c	3	1	main_z	11	advance_on_keypress_ZEE	138	stimuli_distractor_diamondtriangles.svg	stimuli_target_squaretriangles.svg	15	yes	57	0	16	0	0			0	0			1				0	
6.6.1	win	2023-06-27	03:52:11	04:02:05	588897	5edbf6a29a8d508920c14f6c	3	1	main_z	11	main_z	139	stimuli_target_trianglesquares.svg	stimuli_distractor_trianglediamonds.svg	18	yes	44	1	587	0	0			0	0			1				0	
6.6.1	win	2023-06-27	03:52:11	04:02:05	588897	5edbf6a29a8d508920c14f6c	3	1	main_z	11	advance_on_keypress_ZEE	140	stimuli_target_trianglesquares.svg	stimuli_distractor_trianglediamonds.svg	18	yes	57	0	39	0	0			0	0			1				0	
6.6.1	win	2023-06-27	03:52:11	04:02:07	590178	5edbf6a29a8d508920c14f6c	3	1	main_z	11	main_z	141	stimuli_target_diamondsquares.svg	stimuli_distractor_trianglediamonds.svg	20	yes	44	1	624	0	0			0	0			1				0	
6.6.1	win	2023-06-27	03:52:11	04:02:07	590178	5edbf6a29a8d508920c14f6c	3	1	main_z	11	advance_on_keypress_ZEE	142	stimuli_target_diamondsquares.svg	stimuli_distractor_trianglediamonds.svg	20	yes	57	0	46	0	0			0	0			1				0	
6.6.1	win	2023-06-27	03:52:11	04:02:08	591314	5edbf6a29a8d508920c14f6c	3	1	main_z	11	main_z	143	stimuli_distractor_trianglediamonds.svg	stimuli_target_rectanglediamonds.svg	10	yes	44	1	468	0	0			0	0			1				0	
6.6.1	win	2023-06-27	03:52:11	04:02:08	591314	5edbf6a29a8d508920c14f6c	3	1	main_z	11	advance_on_keypress_ZEE	144	stimuli_distractor_trianglediamonds.svg	stimuli_target_rectanglediamonds.svg	10	yes	57	0	81	0	0			0	0			1				0	
6.6.1	win	2023-06-27	03:52:11	04:02:09	592562	5edbf6a29a8d508920c14f6c	3	1	main_z	11	main_z	145	stimuli_distractor_diamondtriangles.svg	stimuli_target_squarediamonds.svg	16	yes	44	1	549	0	0			0	0			1				0	
6.6.1	win	2023-06-27	03:52:11	04:02:09	592562	5edbf6a29a8d508920c14f6c	3	1	main_z	11	advance_on_keypress_ZEE	146	stimuli_distractor_diamondtriangles.svg	stimuli_target_squarediamonds.svg	16	yes	57	0	73	0	0			0	0			1				0	
6.6.1	win	2023-06-27	03:52:11	04:02:12	595260	5edbf6a29a8d508920c14f6c	3	1	main_z	11	main_z	147	stimuli_distractor_trianglediamonds.svg	stimuli_distractor_diamondtriangles.svg	36	no	0	1	2003	0	0			0	0			1				0	
6.6.1	win	2023-06-27	03:52:11	04:02:12	595260	5edbf6a29a8d508920c14f6c	3	1	main_z	11	advance_on_keypress_ZEE	148	stimuli_distractor_trianglediamonds.svg	stimuli_distractor_diamondtriangles.svg	36	no	57	0	442	0	0			0	0			1				0	
6.6.1	win	2023-06-27	03:52:11	04:02:14	597418	5edbf6a29a8d508920c14f6c	3	1	main_z	11	main_z	149	stimuli_target_squaretriangles.svg	stimuli_distractor_trianglediamonds.svg	3	yes	44	1	1095	0	0			0	0			1				0	
6.6.1	win	2023-06-27	03:52:11	04:02:14	597418	5edbf6a29a8d508920c14f6c	3	1	main_z	11	advance_on_keypress_ZEE	150	stimuli_target_squaretriangles.svg	stimuli_distractor_trianglediamonds.svg	3	yes	57	0	1	0	0			0	0			1				0	
6.6.1	win	2023-06-27	03:52:11	04:02:15	598555	5edbf6a29a8d508920c14f6c	3	1	main_z	11	main_z	151	stimuli_target_diamondrectangles.svg	stimuli_distractor_trianglediamonds.svg	19	yes	44	1	510	0	0			0	0			1				0	
6.6.1	win	2023-06-27	03:52:11	04:02:15	598555	5edbf6a29a8d508920c14f6c	3	1	main_z	11	advance_on_keypress_ZEE	152	stimuli_target_diamondrectangles.svg	stimuli_distractor_trianglediamonds.svg	19	yes	57	0	62	0	0			0	0			1				0	
6.6.1	win	2023-06-27	03:52:11	04:02:16	599907	5edbf6a29a8d508920c14f6c	3	1	main_z	11	main_z	153	stimuli_target_trianglesquares.svg	stimuli_distractor_diamondtriangles.svg	22	yes	44	1	674	0	0			0	0			1				0	
6.6.1	win	2023-06-27	03:52:11	04:02:16	599907	5edbf6a29a8d508920c14f6c	3	1	main_z	11	advance_on_keypress_ZEE	154	stimuli_target_trianglesquares.svg	stimuli_distractor_diamondtriangles.svg	22	yes	57	0	2	0	0			0	0			1				0	
6.6.1	win	2023-06-27	03:52:11	04:02:19	602535	5edbf6a29a8d508920c14f6c	3	1	main_z	11	main_z	155	stimuli_distractor_trianglediamonds.svg	stimuli_distractor_diamondtriangles.svg	35	no	0	1	2003	0	0			0	0			1				0	
6.6.1	win	2023-06-27	03:52:11	04:02:19	602535	5edbf6a29a8d508920c14f6c	3	1	main_z	11	advance_on_keypress_ZEE	156	stimuli_distractor_trianglediamonds.svg	stimuli_distractor_diamondtriangles.svg	35	no	57	0	172	0	0			0	0			1				0	
6.6.1	win	2023-06-27	03:52:11	04:02:20	603861	5edbf6a29a8d508920c14f6c	3	1	main_z	11	main_z	157	stimuli_target_rectanglediamonds.svg	stimuli_distractor_diamondtriangles.svg	6	yes	44	1	535	0	0			0	0			1				0	
6.6.1	win	2023-06-27	03:52:11	04:02:20	603861	5edbf6a29a8d508920c14f6c	3	1	main_z	11	advance_on_keypress_ZEE	158	stimuli_target_rectanglediamonds.svg	stimuli_distractor_diamondtriangles.svg	6	yes	57	0	30	0	0			0	0			1				0	
6.6.1	win	2023-06-27	03:52:11	04:02:23	606510	5edbf6a29a8d508920c14f6c	3	1	main_z	11	main_z	159	stimuli_distractor_trianglediamonds.svg	stimuli_distractor_trianglediamonds.svg	34	no	0	1	2003	0	0			0	0			1				0	
6.6.1	win	2023-06-27	03:52:11	04:02:23	606510	5edbf6a29a8d508920c14f6c	3	1	main_z	11	advance_on_keypress_ZEE	160	stimuli_distractor_trianglediamonds.svg	stimuli_distractor_trianglediamonds.svg	34	no	57	0	206	0	0			0	0			1				0	
6.6.1	win	2023-06-27	03:52:11	04:02:23	606510	5edbf6a29a8d508920c14f6c	3	1	headphonecheck_calibration	14	headphonecheck_calibrationIntro	1	stimuli_distractor_trianglediamonds.svg	stimuli_distractor_trianglediamonds.svg	34	no	calibrationButton	0	2865	0	0			0	0			1				0	
6.6.1	win	2023-06-27	03:52:11	04:02:23	606510	5edbf6a29a8d508920c14f6c	3	1	headphonecheck_testphase	15	test_collectResponse	3	stimuli_distractor_trianglediamonds.svg	stimuli_distractor_trianglediamonds.svg	34	no	first	0	4478	1	1	antiphase_hc_iso.wav	2	0	0			1				0	
6.6.1	win	2023-06-27	03:52:11	04:02:23	606510	5edbf6a29a8d508920c14f6c	3	1	headphonecheck_testphase	15	test_collectResponse	6	stimuli_distractor_trianglediamonds.svg	stimuli_distractor_trianglediamonds.svg	34	no	second	0	15194	2	6	antiphase_hc_ois.wav	3	0	0			1				0	
6.6.1	win	2023-06-27	03:52:11	04:02:23	606510	5edbf6a29a8d508920c14f6c	3	1	headphonecheck_testphase	15	test_collectResponse	9	stimuli_distractor_trianglediamonds.svg	stimuli_distractor_trianglediamonds.svg	34	no	third	1	136	3	2	antiphase_hc_ios.wav	3	0	0			1				0	
6.6.1	win	2023-06-27	03:52:11	04:02:23	606510	5edbf6a29a8d508920c14f6c	3	1	headphonecheck_testphase	15	test_collectResponse	12	stimuli_distractor_trianglediamonds.svg	stimuli_distractor_trianglediamonds.svg	34	no	first	1	102	4	4	antiphase_hc_sio.wav	1	0	0			1				0	
6.6.1	win	2023-06-27	03:52:11	04:02:23	606510	5edbf6a29a8d508920c14f6c	3	1	headphonecheck_testphase	15	test_collectResponse	15	stimuli_distractor_trianglediamonds.svg	stimuli_distractor_trianglediamonds.svg	34	no	first	1	2345	5	3	antiphase_hc_soi.wav	1	0	0			1				0	
6.6.1	win	2023-06-27	03:52:11	04:02:23	606510	5edbf6a29a8d508920c14f6c	3	1	headphonecheck_testphase	15	test_collectResponse	18	stimuli_distractor_trianglediamonds.svg	stimuli_distractor_trianglediamonds.svg	34	no	second	1	632	6	5	antiphase_hc_osi.wav	2	0	0			1				0	
6.6.1	win	2023-06-27	03:52:11	04:02:23	606510	5edbf6a29a8d508920c14f6c	3	1	stereocheck_calibration	17	stereocheck_calibrationIntro	1	stimuli_distractor_trianglediamonds.svg	stimuli_distractor_trianglediamonds.svg	34	no	stereocheck_calibrationButton	0	5097	6	5	antiphase_hc_osi.wav	2	0	0			1				0	
6.6.1	win	2023-06-27	03:52:11	04:02:23	606510	5edbf6a29a8d508920c14f6c	3	1	stereocheck_testphase	18	stereocheck_test_collectResponse	3	stimuli_distractor_trianglediamonds.svg	stimuli_distractor_trianglediamonds.svg	34	no	stereocheck_left	1	679	6	5	antiphase_hc_osi.wav	2	1	3	noise_calib_stim_LEFT.wav	1	1				0	
6.6.1	win	2023-06-27	03:52:11	04:02:23	606510	5edbf6a29a8d508920c14f6c	3	1	stereocheck_testphase	18	stereocheck_test_collectResponse	6	stimuli_distractor_trianglediamonds.svg	stimuli_distractor_trianglediamonds.svg	34	no	stereocheck_right	1	286	6	5	antiphase_hc_osi.wav	2	2	6	noise_calib_stim_RIGHT.wav	2	1				0	
6.6.1	win	2023-06-27	03:52:11	04:02:23	606510	5edbf6a29a8d508920c14f6c	3	1	stereocheck_testphase	18	stereocheck_test_collectResponse	9	stimuli_distractor_trianglediamonds.svg	stimuli_distractor_trianglediamonds.svg	34	no	stereocheck_right	1	244	6	5	antiphase_hc_osi.wav	2	3	4	noise_calib_stim_RIGHT.wav	2	1				0	
6.6.1	win	2023-06-27	03:52:11	04:02:23	606510	5edbf6a29a8d508920c14f6c	3	1	stereocheck_testphase	18	stereocheck_test_collectResponse	12	stimuli_distractor_trianglediamonds.svg	stimuli_distractor_trianglediamonds.svg	34	no	stereocheck_left	1	226	6	5	antiphase_hc_osi.wav	2	4	2	noise_calib_stim_LEFT.wav	1	1				0	
6.6.1	win	2023-06-27	03:52:11	04:02:23	606510	5edbf6a29a8d508920c14f6c	3	1	stereocheck_testphase	18	stereocheck_test_collectResponse	15	stimuli_distractor_trianglediamonds.svg	stimuli_distractor_trianglediamonds.svg	34	no	stereocheck_left	1	89	6	5	antiphase_hc_osi.wav	2	5	1	noise_calib_stim_LEFT.wav	1	1				0	
6.6.1	win	2023-06-27	03:52:11	04:02:23	606510	5edbf6a29a8d508920c14f6c	3	1	stereocheck_testphase	18	stereocheck_test_collectResponse	18	stimuli_distractor_trianglediamonds.svg	stimuli_distractor_trianglediamonds.svg	34	no	stereocheck_right	1	196	6	5	antiphase_hc_osi.wav	2	6	5	noise_calib_stim_RIGHT.wav	2	1				0	
6.6.1	win	2023-06-27	03:52:11	04:02:23	606510	5edbf6a29a8d508920c14f6c	3	1	DL_practice	21	DL_practice	2	stimuli_distractor_trianglediamonds.svg	stimuli_distractor_trianglediamonds.svg	34	no	ka	1	1445	6	5	antiphase_hc_osi.wav	2	6	5	noise_calib_stim_RIGHT.wav	2	22	blb_dichoticlistening_ka-ka.mp3	ka	ka	0	left
6.6.1	win	2023-06-27	03:52:11	04:02:23	606510	5edbf6a29a8d508920c14f6c	3	1	DL_practice	21	DL_practice	3	stimuli_distractor_trianglediamonds.svg	stimuli_distractor_trianglediamonds.svg	34	no	ta	1	1496	6	5	antiphase_hc_osi.wav	2	6	5	noise_calib_stim_RIGHT.wav	2	36	blb_dichoticlistening_ta-ta.mp3	ta	ta	0	left
6.6.1	win	2023-06-27	03:52:11	04:02:23	606510	5edbf6a29a8d508920c14f6c	3	1	DL_practice	21	DL_practice	4	stimuli_distractor_trianglediamonds.svg	stimuli_distractor_trianglediamonds.svg	34	no	da	0	1671	6	5	antiphase_hc_osi.wav	2	6	5	noise_calib_stim_RIGHT.wav	2	15	blb_dichoticlistening_ga-ga.mp3	ga	ga	0	other
6.6.1	win	2023-06-27	03:52:11	04:02:23	606510	5edbf6a29a8d508920c14f6c	3	1	DL_practice	21	DL_practice	5	stimuli_distractor_trianglediamonds.svg	stimuli_distractor_trianglediamonds.svg	34	no	da	0	1083	6	5	antiphase_hc_osi.wav	2	6	5	noise_calib_stim_RIGHT.wav	2	18	blb_dichoticlistening_ga-ta.mp3	ga	ta	1	other
6.6.1	win	2023-06-27	03:52:11	04:02:23	606510	5edbf6a29a8d508920c14f6c	3	1	DL_practice	21	DL_practice	6	stimuli_distractor_trianglediamonds.svg	stimuli_distractor_trianglediamonds.svg	34	no	da	1	888	6	5	antiphase_hc_osi.wav	2	6	5	noise_calib_stim_RIGHT.wav	2	8	blb_dichoticlistening_da-da.mp3	da	da	0	left
6.6.1	win	2023-06-27	03:52:11	04:02:23	606510	5edbf6a29a8d508920c14f6c	3	1	DL_practice	21	DL_practice	7	stimuli_distractor_trianglediamonds.svg	stimuli_distractor_trianglediamonds.svg	34	no	ba	1	845	6	5	antiphase_hc_osi.wav	2	6	5	noise_calib_stim_RIGHT.wav	2	1	blb_dichoticlistening_ba-ba.mp3	ba	ba	0	left
6.6.1	win	2023-06-27	03:52:11	04:02:23	606510	5edbf6a29a8d508920c14f6c	3	1	DL_practice	21	DL_practice	8	stimuli_distractor_trianglediamonds.svg	stimuli_distractor_trianglediamonds.svg	34	no	pa	1	999	6	5	antiphase_hc_osi.wav	2	6	5	noise_calib_stim_RIGHT.wav	2	23	blb_dichoticlistening_ka-pa.mp3	ka	pa	1	right
6.6.1	win	2023-06-27	03:52:11	04:02:23	606510	5edbf6a29a8d508920c14f6c	3	1	DL_practice	21	DL_practice	9	stimuli_distractor_trianglediamonds.svg	stimuli_distractor_trianglediamonds.svg	34	no	da	1	1820	6	5	antiphase_hc_osi.wav	2	6	5	noise_calib_stim_RIGHT.wav	2	7	blb_dichoticlistening_da-ba.mp3	da	ba	1	left
6.6.1	win	2023-06-27	03:52:11	04:02:23	606510	5edbf6a29a8d508920c14f6c	3	1	DL_practice	21	DL_practice	10	stimuli_distractor_trianglediamonds.svg	stimuli_distractor_trianglediamonds.svg	34	no	pa	1	1177	6	5	antiphase_hc_osi.wav	2	6	5	noise_calib_stim_RIGHT.wav	2	29	blb_dichoticlistening_pa-pa.mp3	pa	pa	0	left
6.6.1	win	2023-06-27	03:52:11	04:02:23	606510	5edbf6a29a8d508920c14f6c	3	1	DL_test	23	DL_test	1	stimuli_distractor_trianglediamonds.svg	stimuli_distractor_trianglediamonds.svg	34	no	ba	1	1167	6	5	antiphase_hc_osi.wav	2	6	5	noise_calib_stim_RIGHT.wav	2	7	blb_dichoticlistening_da-ba.mp3	da	ba	1	right
6.6.1	win	2023-06-27	03:52:11	04:02:23	606510	5edbf6a29a8d508920c14f6c	3	1	DL_test	23	DL_test	2	stimuli_distractor_trianglediamonds.svg	stimuli_distractor_trianglediamonds.svg	34	no	ta	1	1427	6	5	antiphase_hc_osi.wav	2	6	5	noise_calib_stim_RIGHT.wav	2	36	blb_dichoticlistening_ta-ta.mp3	ta	ta	0	left
6.6.1	win	2023-06-27	03:52:11	04:02:23	606510	5edbf6a29a8d508920c14f6c	3	1	DL_test	23	DL_test	3	stimuli_distractor_trianglediamonds.svg	stimuli_distractor_trianglediamonds.svg	34	no	pa	1	1119	6	5	antiphase_hc_osi.wav	2	6	5	noise_calib_stim_RIGHT.wav	2	29	blb_dichoticlistening_pa-pa.mp3	pa	pa	0	left
6.6.1	win	2023-06-27	03:52:11	04:02:23	606510	5edbf6a29a8d508920c14f6c	3	1	DL_test	23	DL_test	4	stimuli_distractor_trianglediamonds.svg	stimuli_distractor_trianglediamonds.svg	34	no	da	1	875	6	5	antiphase_hc_osi.wav	2	6	5	noise_calib_stim_RIGHT.wav	2	14	blb_dichoticlistening_ga-da.mp3	ga	da	1	right
6.6.1	win	2023-06-27	03:52:11	04:02:23	606510	5edbf6a29a8d508920c14f6c	3	1	DL_test	23	DL_test	5	stimuli_distractor_trianglediamonds.svg	stimuli_distractor_trianglediamonds.svg	34	no	ta	1	1903	6	5	antiphase_hc_osi.wav	2	6	5	noise_calib_stim_RIGHT.wav	2	32	blb_dichoticlistening_ta-da.mp3	ta	da	1	left
6.6.1	win	2023-06-27	03:52:11	04:02:23	606510	5edbf6a29a8d508920c14f6c	3	1	DL_test	23	DL_test	6	stimuli_distractor_trianglediamonds.svg	stimuli_distractor_trianglediamonds.svg	34	no	da	1	1478	6	5	antiphase_hc_osi.wav	2	6	5	noise_calib_stim_RIGHT.wav	2	12	blb_dichoticlistening_da-ta.mp3	da	ta	1	left
6.6.1	win	2023-06-27	03:52:11	04:02:23	606510	5edbf6a29a8d508920c14f6c	3	1	DL_test	23	DL_test	7	stimuli_distractor_trianglediamonds.svg	stimuli_distractor_trianglediamonds.svg	34	no	pa	1	1368	6	5	antiphase_hc_osi.wav	2	6	5	noise_calib_stim_RIGHT.wav	2	26	blb_dichoticlistening_pa-da.mp3	pa	da	1	left
6.6.1	win	2023-06-27	03:52:11	04:02:23	606510	5edbf6a29a8d508920c14f6c	3	1	DL_test	23	DL_test	8	stimuli_distractor_trianglediamonds.svg	stimuli_distractor_trianglediamonds.svg	34	no	ka	1	1293	6	5	antiphase_hc_osi.wav	2	6	5	noise_calib_stim_RIGHT.wav	2	16	blb_dichoticlistening_ga-ka.mp3	ga	ka	1	right
6.6.1	win	2023-06-27	03:52:11	04:02:23	606510	5edbf6a29a8d508920c14f6c	3	1	DL_test	23	DL_test	9	stimuli_distractor_trianglediamonds.svg	stimuli_distractor_trianglediamonds.svg	34	no	pa	0	2166	6	5	antiphase_hc_osi.wav	2	6	5	noise_calib_stim_RIGHT.wav	2	19	blb_dichoticlistening_ka-ba.mp3	ka	ba	1	other
6.6.1	win	2023-06-27	03:52:11	04:02:23	606510	5edbf6a29a8d508920c14f6c	3	1	DL_test	23	DL_test	10	stimuli_distractor_trianglediamonds.svg	stimuli_distractor_trianglediamonds.svg	34	no	ka	1	1311	6	5	antiphase_hc_osi.wav	2	6	5	noise_calib_stim_RIGHT.wav	2	24	blb_dichoticlistening_ka-ta.mp3	ka	ta	1	left
6.6.1	win	2023-06-27	03:52:11	04:02:23	606510	5edbf6a29a8d508920c14f6c	3	1	DL_test	23	DL_test	11	stimuli_distractor_trianglediamonds.svg	stimuli_distractor_trianglediamonds.svg	34	no	pa	0	2764	6	5	antiphase_hc_osi.wav	2	6	5	noise_calib_stim_RIGHT.wav	2	6	blb_dichoticlistening_ba-ta.mp3	ba	ta	1	other
6.6.1	win	2023-06-27	03:52:11	04:02:23	606510	5edbf6a29a8d508920c14f6c	3	1	DL_test	23	DL_test	12	stimuli_distractor_trianglediamonds.svg	stimuli_distractor_trianglediamonds.svg	34	no	pa	0	1207	6	5	antiphase_hc_osi.wav	2	6	5	noise_calib_stim_RIGHT.wav	2	10	blb_dichoticlistening_da-ka.mp3	da	ka	1	other
6.6.1	win	2023-06-27	03:52:11	04:02:23	606510	5edbf6a29a8d508920c14f6c	3	1	DL_test	23	DL_test	13	stimuli_distractor_trianglediamonds.svg	stimuli_distractor_trianglediamonds.svg	34	no	da	0	918	6	5	antiphase_hc_osi.wav	2	6	5	noise_calib_stim_RIGHT.wav	2	15	blb_dichoticlistening_ga-ga.mp3	ga	ga	0	other
6.6.1	win	2023-06-27	03:52:11	04:02:23	606510	5edbf6a29a8d508920c14f6c	3	1	DL_test	23	DL_test	14	stimuli_distractor_trianglediamonds.svg	stimuli_distractor_trianglediamonds.svg	34	no	ta	0	1194	6	5	antiphase_hc_osi.wav	2	6	5	noise_calib_stim_RIGHT.wav	2	20	blb_dichoticlistening_ka-da.mp3	ka	da	1	other
6.6.1	win	2023-06-27	03:52:11	04:02:23	606510	5edbf6a29a8d508920c14f6c	3	1	DL_test	23	DL_test	15	stimuli_distractor_trianglediamonds.svg	stimuli_distractor_trianglediamonds.svg	34	no	pa	1	1153	6	5	antiphase_hc_osi.wav	2	6	5	noise_calib_stim_RIGHT.wav	2	27	blb_dichoticlistening_pa-ga.mp3	pa	ga	1	left
6.6.1	win	2023-06-27	03:52:11	04:02:23	606510	5edbf6a29a8d508920c14f6c	3	1	DL_test	23	DL_test	16	stimuli_distractor_trianglediamonds.svg	stimuli_distractor_trianglediamonds.svg	34	no	pa	1	998	6	5	antiphase_hc_osi.wav	2	6	5	noise_calib_stim_RIGHT.wav	2	25	blb_dichoticlistening_pa-ba.mp3	pa	ba	1	left
6.6.1	win	2023-06-27	03:52:11	04:02:23	606510	5edbf6a29a8d508920c14f6c	3	1	DL_test	23	DL_test	17	stimuli_distractor_trianglediamonds.svg	stimuli_distractor_trianglediamonds.svg	34	no	da	0	1047	6	5	antiphase_hc_osi.wav	2	6	5	noise_calib_stim_RIGHT.wav	2	18	blb_dichoticlistening_ga-ta.mp3	ga	ta	1	other
6.6.1	win	2023-06-27	03:52:11	04:02:23	606510	5edbf6a29a8d508920c14f6c	3	1	DL_test	23	DL_test	18	stimuli_distractor_trianglediamonds.svg	stimuli_distractor_trianglediamonds.svg	34	no	ba	1	1010	6	5	antiphase_hc_osi.wav	2	6	5	noise_calib_stim_RIGHT.wav	2	3	blb_dichoticlistening_ba-ga.mp3	ba	ga	1	left
6.6.1	win	2023-06-27	03:52:11	04:02:23	606510	5edbf6a29a8d508920c14f6c	3	1	DL_test	23	DL_test	19	stimuli_distractor_trianglediamonds.svg	stimuli_distractor_trianglediamonds.svg	34	no	pa	1	1149	6	5	antiphase_hc_osi.wav	2	6	5	noise_calib_stim_RIGHT.wav	2	17	blb_dichoticlistening_ga-pa.mp3	ga	pa	1	right
6.6.1	win	2023-06-27	03:52:11	04:02:23	606510	5edbf6a29a8d508920c14f6c	3	1	DL_test	23	DL_test	20	stimuli_distractor_trianglediamonds.svg	stimuli_distractor_trianglediamonds.svg	34	no	ba	1	1127	6	5	antiphase_hc_osi.wav	2	6	5	noise_calib_stim_RIGHT.wav	2	5	blb_dichoticlistening_ba-pa.mp3	ba	pa	1	left
6.6.1	win	2023-06-27	03:52:11	04:02:23	606510	5edbf6a29a8d508920c14f6c	3	1	DL_test	23	DL_test	21	stimuli_distractor_trianglediamonds.svg	stimuli_distractor_trianglediamonds.svg	34	no	da	1	1287	6	5	antiphase_hc_osi.wav	2	6	5	noise_calib_stim_RIGHT.wav	2	2	blb_dichoticlistening_ba-da.mp3	ba	da	1	right
6.6.1	win	2023-06-27	03:52:11	04:02:23	606510	5edbf6a29a8d508920c14f6c	3	1	DL_test	23	DL_test	22	stimuli_distractor_trianglediamonds.svg	stimuli_distractor_trianglediamonds.svg	34	no	pa	1	929	6	5	antiphase_hc_osi.wav	2	6	5	noise_calib_stim_RIGHT.wav	2	28	blb_dichoticlistening_pa-ka.mp3	pa	ka	1	left
6.6.1	win	2023-06-27	03:52:11	04:02:23	606510	5edbf6a29a8d508920c14f6c	3	1	DL_test	23	DL_test	23	stimuli_distractor_trianglediamonds.svg	stimuli_distractor_trianglediamonds.svg	34	no	ka	1	1074	6	5	antiphase_hc_osi.wav	2	6	5	noise_calib_stim_RIGHT.wav	2	21	blb_dichoticlistening_ka-ga.mp3	ka	ga	1	left
6.6.1	win	2023-06-27	03:52:11	04:02:23	606510	5edbf6a29a8d508920c14f6c	3	1	DL_test	23	DL_test	24	stimuli_distractor_trianglediamonds.svg	stimuli_distractor_trianglediamonds.svg	34	no	da	1	837	6	5	antiphase_hc_osi.wav	2	6	5	noise_calib_stim_RIGHT.wav	2	8	blb_dichoticlistening_da-da.mp3	da	da	0	left
6.6.1	win	2023-06-27	03:52:11	04:02:23	606510	5edbf6a29a8d508920c14f6c	3	1	DL_test	23	DL_test	25	stimuli_distractor_trianglediamonds.svg	stimuli_distractor_trianglediamonds.svg	34	no	ba	1	933	6	5	antiphase_hc_osi.wav	2	6	5	noise_calib_stim_RIGHT.wav	2	1	blb_dichoticlistening_ba-ba.mp3	ba	ba	0	left
