build	computer.platform	date	time	timestamp	time_elapsed_ms	subject	group	session	blockcode	blocknum	trialcode	trialnum	stimulus_left	stimulus_right	stim_index	target_present	response	correct	latency	headphonecheck_countTestTrials	headphonecheck_index	headphonecheck_testSound	headphonecheck_correctResponse	stereocheck_countTestTrials	stereocheck_index	stereocheck_testSound	stereocheck_correctResponse	DL_index	DL_soundfile	DL_leftSound	DL_rightSound	DL_dualSound	DL_choice
6.6.1	win	2023-06-26	19:31:13	0	0	5c92aa671ce0cd00128c6c86	2	1	headphonecheck_calibration	4	headphonecheck_calibrationIntro	1			0		calibrationButton	0	1872	0	0			0	0			1				0	
6.6.1	win	2023-06-26	19:31:13	0	0	5c92aa671ce0cd00128c6c86	2	1	headphonecheck_testphase	5	test_collectResponse	3			0		first	1	183	1	4	antiphase_hc_sio.wav	1	0	0			1				0	
6.6.1	win	2023-06-26	19:31:13	0	0	5c92aa671ce0cd00128c6c86	2	1	headphonecheck_testphase	5	test_collectResponse	6			0		third	1	161	2	6	antiphase_hc_ois.wav	3	0	0			1				0	
6.6.1	win	2023-06-26	19:31:13	0	0	5c92aa671ce0cd00128c6c86	2	1	headphonecheck_testphase	5	test_collectResponse	9			0		second	1	416	3	5	antiphase_hc_osi.wav	2	0	0			1				0	
6.6.1	win	2023-06-26	19:31:13	0	0	5c92aa671ce0cd00128c6c86	2	1	headphonecheck_testphase	5	test_collectResponse	12			0		second	1	570	4	1	antiphase_hc_iso.wav	2	0	0			1				0	
6.6.1	win	2023-06-26	19:31:13	0	0	5c92aa671ce0cd00128c6c86	2	1	headphonecheck_testphase	5	test_collectResponse	15			0		third	1	360	5	2	antiphase_hc_ios.wav	3	0	0			1				0	
6.6.1	win	2023-06-26	19:31:13	0	0	5c92aa671ce0cd00128c6c86	2	1	headphonecheck_testphase	5	test_collectResponse	18			0		first	1	340	6	3	antiphase_hc_soi.wav	1	0	0			1				0	
6.6.1	win	2023-06-26	19:31:13	0	0	5c92aa671ce0cd00128c6c86	2	1	stereocheck_calibration	7	stereocheck_calibrationIntro	1			0		stereocheck_calibrationButton	0	2875	6	3	antiphase_hc_soi.wav	1	0	0			1				0	
6.6.1	win	2023-06-26	19:31:13	0	0	5c92aa671ce0cd00128c6c86	2	1	stereocheck_testphase	8	stereocheck_test_collectResponse	3			0		stereocheck_right	1	391	6	3	antiphase_hc_soi.wav	1	1	6	noise_calib_stim_RIGHT.wav	2	1				0	
6.6.1	win	2023-06-26	19:31:13	0	0	5c92aa671ce0cd00128c6c86	2	1	stereocheck_testphase	8	stereocheck_test_collectResponse	6			0		stereocheck_right	1	229	6	3	antiphase_hc_soi.wav	1	2	5	noise_calib_stim_RIGHT.wav	2	1				0	
6.6.1	win	2023-06-26	19:31:13	0	0	5c92aa671ce0cd00128c6c86	2	1	stereocheck_testphase	8	stereocheck_test_collectResponse	9			0		stereocheck_left	1	162	6	3	antiphase_hc_soi.wav	1	3	3	noise_calib_stim_LEFT.wav	1	1				0	
6.6.1	win	2023-06-26	19:31:13	0	0	5c92aa671ce0cd00128c6c86	2	1	stereocheck_testphase	8	stereocheck_test_collectResponse	12			0		stereocheck_left	1	168	6	3	antiphase_hc_soi.wav	1	4	1	noise_calib_stim_LEFT.wav	1	1				0	
6.6.1	win	2023-06-26	19:31:13	0	0	5c92aa671ce0cd00128c6c86	2	1	stereocheck_testphase	8	stereocheck_test_collectResponse	15			0		stereocheck_right	1	84	6	3	antiphase_hc_soi.wav	1	5	4	noise_calib_stim_RIGHT.wav	2	1				0	
6.6.1	win	2023-06-26	19:31:13	0	0	5c92aa671ce0cd00128c6c86	2	1	stereocheck_testphase	8	stereocheck_test_collectResponse	18			0		stereocheck_left	1	62	6	3	antiphase_hc_soi.wav	1	6	2	noise_calib_stim_LEFT.wav	1	1				0	
6.6.1	win	2023-06-26	19:31:13	0	0	5c92aa671ce0cd00128c6c86	2	1	DL_practice	11	DL_practice	2			0		ga	1	792	6	3	antiphase_hc_soi.wav	1	6	2	noise_calib_stim_LEFT.wav	1	15	blb_dichoticlistening_ga-ga.mp3	ga	ga	0	left
6.6.1	win	2023-06-26	19:31:13	0	0	5c92aa671ce0cd00128c6c86	2	1	DL_practice	11	DL_practice	3			0		pa	1	1188	6	3	antiphase_hc_soi.wav	1	6	2	noise_calib_stim_LEFT.wav	1	29	blb_dichoticlistening_pa-pa.mp3	pa	pa	0	left
6.6.1	win	2023-06-26	19:31:13	0	0	5c92aa671ce0cd00128c6c86	2	1	DL_practice	11	DL_practice	4			0		ta	1	1180	6	3	antiphase_hc_soi.wav	1	6	2	noise_calib_stim_LEFT.wav	1	36	blb_dichoticlistening_ta-ta.mp3	ta	ta	0	left
6.6.1	win	2023-06-26	19:31:13	0	0	5c92aa671ce0cd00128c6c86	2	1	DL_practice	11	DL_practice	5			0		da	1	1166	6	3	antiphase_hc_soi.wav	1	6	2	noise_calib_stim_LEFT.wav	1	7	blb_dichoticlistening_da-ba.mp3	da	ba	1	left
6.6.1	win	2023-06-26	19:31:13	0	0	5c92aa671ce0cd00128c6c86	2	1	DL_practice	11	DL_practice	6			0		ba	1	1323	6	3	antiphase_hc_soi.wav	1	6	2	noise_calib_stim_LEFT.wav	1	1	blb_dichoticlistening_ba-ba.mp3	ba	ba	0	left
6.6.1	win	2023-06-26	19:31:13	0	0	5c92aa671ce0cd00128c6c86	2	1	DL_practice	11	DL_practice	7			0		ka	1	818	6	3	antiphase_hc_soi.wav	1	6	2	noise_calib_stim_LEFT.wav	1	22	blb_dichoticlistening_ka-ka.mp3	ka	ka	0	left
6.6.1	win	2023-06-26	19:31:13	0	0	5c92aa671ce0cd00128c6c86	2	1	DL_practice	11	DL_practice	8			0		ga	1	1419	6	3	antiphase_hc_soi.wav	1	6	2	noise_calib_stim_LEFT.wav	1	18	blb_dichoticlistening_ga-ta.mp3	ga	ta	1	left
6.6.1	win	2023-06-26	19:31:13	0	0	5c92aa671ce0cd00128c6c86	2	1	DL_practice	11	DL_practice	9			0		ka	1	2277	6	3	antiphase_hc_soi.wav	1	6	2	noise_calib_stim_LEFT.wav	1	23	blb_dichoticlistening_ka-pa.mp3	ka	pa	1	left
6.6.1	win	2023-06-26	19:31:13	0	0	5c92aa671ce0cd00128c6c86	2	1	DL_practice	11	DL_practice	10			0		da	1	1172	6	3	antiphase_hc_soi.wav	1	6	2	noise_calib_stim_LEFT.wav	1	8	blb_dichoticlistening_da-da.mp3	da	da	0	left
6.6.1	win	2023-06-26	19:31:13	0	0	5c92aa671ce0cd00128c6c86	2	1	DL_test	13	DL_test	1			0		da	1	1308	6	3	antiphase_hc_soi.wav	1	6	2	noise_calib_stim_LEFT.wav	1	7	blb_dichoticlistening_da-ba.mp3	da	ba	1	left
6.6.1	win	2023-06-26	19:31:13	0	0	5c92aa671ce0cd00128c6c86	2	1	DL_test	13	DL_test	2			0		ka	0	1308	6	3	antiphase_hc_soi.wav	1	6	2	noise_calib_stim_LEFT.wav	1	33	blb_dichoticlistening_ta-ga.mp3	ta	ga	1	other
6.6.1	win	2023-06-26	19:31:13	0	0	5c92aa671ce0cd00128c6c86	2	1	DL_test	13	DL_test	3			0		ga	1	815	6	3	antiphase_hc_soi.wav	1	6	2	noise_calib_stim_LEFT.wav	1	15	blb_dichoticlistening_ga-ga.mp3	ga	ga	0	left
6.6.1	win	2023-06-26	19:31:13	0	0	5c92aa671ce0cd00128c6c86	2	1	DL_test	13	DL_test	4			0		ka	1	1226	6	3	antiphase_hc_soi.wav	1	6	2	noise_calib_stim_LEFT.wav	1	20	blb_dichoticlistening_ka-da.mp3	ka	da	1	left
6.6.1	win	2023-06-26	19:31:13	0	0	5c92aa671ce0cd00128c6c86	2	1	DL_test	13	DL_test	5			0		ka	1	1043	6	3	antiphase_hc_soi.wav	1	6	2	noise_calib_stim_LEFT.wav	1	16	blb_dichoticlistening_ga-ka.mp3	ga	ka	1	right
6.6.1	win	2023-06-26	19:31:13	0	0	5c92aa671ce0cd00128c6c86	2	1	DL_test	13	DL_test	6			0		da	1	1135	6	3	antiphase_hc_soi.wav	1	6	2	noise_calib_stim_LEFT.wav	1	26	blb_dichoticlistening_pa-da.mp3	pa	da	1	right
6.6.1	win	2023-06-26	19:31:13	0	0	5c92aa671ce0cd00128c6c86	2	1	DL_test	13	DL_test	7			0		ta	1	1073	6	3	antiphase_hc_soi.wav	1	6	2	noise_calib_stim_LEFT.wav	1	36	blb_dichoticlistening_ta-ta.mp3	ta	ta	0	left
6.6.1	win	2023-06-26	19:31:13	0	0	5c92aa671ce0cd00128c6c86	2	1	DL_test	13	DL_test	8			0		ka	1	863	6	3	antiphase_hc_soi.wav	1	6	2	noise_calib_stim_LEFT.wav	1	24	blb_dichoticlistening_ka-ta.mp3	ka	ta	1	left
6.6.1	win	2023-06-26	19:31:13	0	0	5c92aa671ce0cd00128c6c86	2	1	DL_test	13	DL_test	9			0		da	1	1751	6	3	antiphase_hc_soi.wav	1	6	2	noise_calib_stim_LEFT.wav	1	32	blb_dichoticlistening_ta-da.mp3	ta	da	1	right
6.6.1	win	2023-06-26	19:31:13	0	0	5c92aa671ce0cd00128c6c86	2	1	DL_test	13	DL_test	10			0		ka	1	1133	6	3	antiphase_hc_soi.wav	1	6	2	noise_calib_stim_LEFT.wav	1	28	blb_dichoticlistening_pa-ka.mp3	pa	ka	1	right
6.6.1	win	2023-06-26	19:31:13	0	0	5c92aa671ce0cd00128c6c86	2	1	DL_test	13	DL_test	11			0		ga	1	1077	6	3	antiphase_hc_soi.wav	1	6	2	noise_calib_stim_LEFT.wav	1	3	blb_dichoticlistening_ba-ga.mp3	ba	ga	1	right
6.6.1	win	2023-06-26	19:31:13	0	0	5c92aa671ce0cd00128c6c86	2	1	DL_test	13	DL_test	12			0		ta	1	1284	6	3	antiphase_hc_soi.wav	1	6	2	noise_calib_stim_LEFT.wav	1	6	blb_dichoticlistening_ba-ta.mp3	ba	ta	1	right
6.6.1	win	2023-06-26	19:31:13	0	0	5c92aa671ce0cd00128c6c86	2	1	DL_test	13	DL_test	13			0		ta	1	1386	6	3	antiphase_hc_soi.wav	1	6	2	noise_calib_stim_LEFT.wav	1	12	blb_dichoticlistening_da-ta.mp3	da	ta	1	right
6.6.1	win	2023-06-26	19:31:13	0	0	5c92aa671ce0cd00128c6c86	2	1	DL_test	13	DL_test	14			0		da	1	1146	6	3	antiphase_hc_soi.wav	1	6	2	noise_calib_stim_LEFT.wav	1	8	blb_dichoticlistening_da-da.mp3	da	da	0	left
6.6.1	win	2023-06-26	19:31:13	0	0	5c92aa671ce0cd00128c6c86	2	1	DL_test	13	DL_test	15			0		pa	1	1513	6	3	antiphase_hc_soi.wav	1	6	2	noise_calib_stim_LEFT.wav	1	23	blb_dichoticlistening_ka-pa.mp3	ka	pa	1	right
6.6.1	win	2023-06-26	19:31:13	0	0	5c92aa671ce0cd00128c6c86	2	1	DL_test	13	DL_test	16			0		ba	1	1095	6	3	antiphase_hc_soi.wav	1	6	2	noise_calib_stim_LEFT.wav	1	25	blb_dichoticlistening_pa-ba.mp3	pa	ba	1	right
6.6.1	win	2023-06-26	19:31:13	0	0	5c92aa671ce0cd00128c6c86	2	1	DL_test	13	DL_test	17			0		ga	1	1069	6	3	antiphase_hc_soi.wav	1	6	2	noise_calib_stim_LEFT.wav	1	9	blb_dichoticlistening_da-ga.mp3	da	ga	1	right
6.6.1	win	2023-06-26	19:31:13	0	0	5c92aa671ce0cd00128c6c86	2	1	DL_test	13	DL_test	18			0		da	1	3390	6	3	antiphase_hc_soi.wav	1	6	2	noise_calib_stim_LEFT.wav	1	2	blb_dichoticlistening_ba-da.mp3	ba	da	1	right
6.6.1	win	2023-06-26	19:31:13	0	0	5c92aa671ce0cd00128c6c86	2	1	DL_test	13	DL_test	19			0		ba	1	1453	6	3	antiphase_hc_soi.wav	1	6	2	noise_calib_stim_LEFT.wav	1	13	blb_dichoticlistening_ga-ba.mp3	ga	ba	1	right
6.6.1	win	2023-06-26	19:31:13	0	0	5c92aa671ce0cd00128c6c86	2	1	DL_test	13	DL_test	20			0		pa	1	1990	6	3	antiphase_hc_soi.wav	1	6	2	noise_calib_stim_LEFT.wav	1	17	blb_dichoticlistening_ga-pa.mp3	ga	pa	1	right
6.6.1	win	2023-06-26	19:31:13	0	0	5c92aa671ce0cd00128c6c86	2	1	DL_test	13	DL_test	21			0		ta	1	2494	6	3	antiphase_hc_soi.wav	1	6	2	noise_calib_stim_LEFT.wav	1	35	blb_dichoticlistening_ta-pa.mp3	ta	pa	1	left
6.6.1	win	2023-06-26	19:31:13	0	0	5c92aa671ce0cd00128c6c86	2	1	DL_test	13	DL_test	22			0		pa	0	2300	6	3	antiphase_hc_soi.wav	1	6	2	noise_calib_stim_LEFT.wav	1	10	blb_dichoticlistening_da-ka.mp3	da	ka	1	other
6.6.1	win	2023-06-26	19:31:13	0	0	5c92aa671ce0cd00128c6c86	2	1	DL_test	13	DL_test	23			0		pa	1	1530	6	3	antiphase_hc_soi.wav	1	6	2	noise_calib_stim_LEFT.wav	1	5	blb_dichoticlistening_ba-pa.mp3	ba	pa	1	right
6.6.1	win	2023-06-26	19:31:13	0	0	5c92aa671ce0cd00128c6c86	2	1	DL_test	13	DL_test	24			0		ka	1	1137	6	3	antiphase_hc_soi.wav	1	6	2	noise_calib_stim_LEFT.wav	1	4	blb_dichoticlistening_ba-ka.mp3	ba	ka	1	right
6.6.1	win	2023-06-26	19:31:13	0	0	5c92aa671ce0cd00128c6c86	2	1	DL_test	13	DL_test	25			0		ta	1	1255	6	3	antiphase_hc_soi.wav	1	6	2	noise_calib_stim_LEFT.wav	1	30	blb_dichoticlistening_pa-ta.mp3	pa	ta	1	right
6.6.1	win	2023-06-26	19:31:13	0	0	5c92aa671ce0cd00128c6c86	2	1	DL_test	13	DL_test	26			0		da	1	1037	6	3	antiphase_hc_soi.wav	1	6	2	noise_calib_stim_LEFT.wav	1	11	blb_dichoticlistening_da-pa.mp3	da	pa	1	left
6.6.1	win	2023-06-26	19:31:13	0	0	5c92aa671ce0cd00128c6c86	2	1	DL_test	13	DL_test	27			0		ta	1	1506	6	3	antiphase_hc_soi.wav	1	6	2	noise_calib_stim_LEFT.wav	1	31	blb_dichoticlistening_ta-ba.mp3	ta	ba	1	left
6.6.1	win	2023-06-26	19:31:13	0	0	5c92aa671ce0cd00128c6c86	2	1	DL_test	13	DL_test	28			0		pa	0	958	6	3	antiphase_hc_soi.wav	1	6	2	noise_calib_stim_LEFT.wav	1	34	blb_dichoticlistening_ta-ka.mp3	ta	ka	1	other
6.6.1	win	2023-06-26	19:31:13	0	0	5c92aa671ce0cd00128c6c86	2	1	DL_test	13	DL_test	29			0		ba	1	1649	6	3	antiphase_hc_soi.wav	1	6	2	noise_calib_stim_LEFT.wav	1	1	blb_dichoticlistening_ba-ba.mp3	ba	ba	0	left
6.6.1	win	2023-06-26	19:31:13	0	0	5c92aa671ce0cd00128c6c86	2	1	DL_test	13	DL_test	30			0		ka	1	1239	6	3	antiphase_hc_soi.wav	1	6	2	noise_calib_stim_LEFT.wav	1	19	blb_dichoticlistening_ka-ba.mp3	ka	ba	1	left
6.6.1	win	2023-06-26	19:31:13	0	0	5c92aa671ce0cd00128c6c86	2	1	DL_test	13	DL_test	31			0		ka	1	873	6	3	antiphase_hc_soi.wav	1	6	2	noise_calib_stim_LEFT.wav	1	22	blb_dichoticlistening_ka-ka.mp3	ka	ka	0	left
6.6.1	win	2023-06-26	19:31:13	0	0	5c92aa671ce0cd00128c6c86	2	1	DL_test	13	DL_test	32			0		da	1	962	6	3	antiphase_hc_soi.wav	1	6	2	noise_calib_stim_LEFT.wav	1	14	blb_dichoticlistening_ga-da.mp3	ga	da	1	right
6.6.1	win	2023-06-26	19:31:13	0	0	5c92aa671ce0cd00128c6c86	2	1	DL_test	13	DL_test	33			0		pa	1	1255	6	3	antiphase_hc_soi.wav	1	6	2	noise_calib_stim_LEFT.wav	1	29	blb_dichoticlistening_pa-pa.mp3	pa	pa	0	left
6.6.1	win	2023-06-26	19:31:13	0	0	5c92aa671ce0cd00128c6c86	2	1	DL_test	13	DL_test	34			0		ga	1	1324	6	3	antiphase_hc_soi.wav	1	6	2	noise_calib_stim_LEFT.wav	1	21	blb_dichoticlistening_ka-ga.mp3	ka	ga	1	right
6.6.1	win	2023-06-26	19:31:13	0	0	5c92aa671ce0cd00128c6c86	2	1	DL_test	13	DL_test	35			0		ga	1	985	6	3	antiphase_hc_soi.wav	1	6	2	noise_calib_stim_LEFT.wav	1	18	blb_dichoticlistening_ga-ta.mp3	ga	ta	1	left
6.6.1	win	2023-06-26	19:31:13	0	0	5c92aa671ce0cd00128c6c86	2	1	DL_test	13	DL_test	36			0		pa	1	2039	6	3	antiphase_hc_soi.wav	1	6	2	noise_calib_stim_LEFT.wav	1	27	blb_dichoticlistening_pa-ga.mp3	pa	ga	1	left
6.6.1	win	2023-06-26	19:31:13	0	0	5c92aa671ce0cd00128c6c86	2	1	DL_test	14	DL_test	1			0		pa	0	1414	6	3	antiphase_hc_soi.wav	1	6	2	noise_calib_stim_LEFT.wav	1	10	blb_dichoticlistening_da-ka.mp3	da	ka	1	other
6.6.1	win	2023-06-26	19:31:13	0	0	5c92aa671ce0cd00128c6c86	2	1	DL_test	14	DL_test	2			0		ta	1	1104	6	3	antiphase_hc_soi.wav	1	6	2	noise_calib_stim_LEFT.wav	1	35	blb_dichoticlistening_ta-pa.mp3	ta	pa	1	left
6.6.1	win	2023-06-26	19:31:13	0	0	5c92aa671ce0cd00128c6c86	2	1	DL_test	14	DL_test	3			0		ka	1	1027	6	3	antiphase_hc_soi.wav	1	6	2	noise_calib_stim_LEFT.wav	1	28	blb_dichoticlistening_pa-ka.mp3	pa	ka	1	right
6.6.1	win	2023-06-26	19:31:13	0	0	5c92aa671ce0cd00128c6c86	2	1	DL_test	14	DL_test	4			0		ta	1	1486	6	3	antiphase_hc_soi.wav	1	6	2	noise_calib_stim_LEFT.wav	1	32	blb_dichoticlistening_ta-da.mp3	ta	da	1	left
6.6.1	win	2023-06-26	19:31:13	0	0	5c92aa671ce0cd00128c6c86	2	1	DL_test	14	DL_test	5			0		ga	1	1132	6	3	antiphase_hc_soi.wav	1	6	2	noise_calib_stim_LEFT.wav	1	13	blb_dichoticlistening_ga-ba.mp3	ga	ba	1	left
6.6.1	win	2023-06-26	19:31:13	0	0	5c92aa671ce0cd00128c6c86	2	1	DL_test	14	DL_test	6			0		pa	1	1280	6	3	antiphase_hc_soi.wav	1	6	2	noise_calib_stim_LEFT.wav	1	29	blb_dichoticlistening_pa-pa.mp3	pa	pa	0	left
6.6.1	win	2023-06-26	19:31:13	0	0	5c92aa671ce0cd00128c6c86	2	1	DL_test	14	DL_test	7			0		ka	1	1109	6	3	antiphase_hc_soi.wav	1	6	2	noise_calib_stim_LEFT.wav	1	24	blb_dichoticlistening_ka-ta.mp3	ka	ta	1	left
6.6.1	win	2023-06-26	19:31:13	0	0	5c92aa671ce0cd00128c6c86	2	1	DL_test	14	DL_test	8			0		ta	1	1250	6	3	antiphase_hc_soi.wav	1	6	2	noise_calib_stim_LEFT.wav	1	31	blb_dichoticlistening_ta-ba.mp3	ta	ba	1	left
6.6.1	win	2023-06-26	19:31:13	0	0	5c92aa671ce0cd00128c6c86	2	1	DL_test	14	DL_test	9			0		ga	1	1111	6	3	antiphase_hc_soi.wav	1	6	2	noise_calib_stim_LEFT.wav	1	33	blb_dichoticlistening_ta-ga.mp3	ta	ga	1	right
6.6.1	win	2023-06-26	19:31:13	0	0	5c92aa671ce0cd00128c6c86	2	1	DL_test	14	DL_test	10			0		da	1	1715	6	3	antiphase_hc_soi.wav	1	6	2	noise_calib_stim_LEFT.wav	1	12	blb_dichoticlistening_da-ta.mp3	da	ta	1	left
6.6.1	win	2023-06-26	19:31:13	0	0	5c92aa671ce0cd00128c6c86	2	1	DL_test	14	DL_test	11			0		pa	0	1043	6	3	antiphase_hc_soi.wav	1	6	2	noise_calib_stim_LEFT.wav	1	20	blb_dichoticlistening_ka-da.mp3	ka	da	1	other
6.6.1	win	2023-06-26	19:31:13	0	0	5c92aa671ce0cd00128c6c86	2	1	DL_test	14	DL_test	12			0		ka	1	908	6	3	antiphase_hc_soi.wav	1	6	2	noise_calib_stim_LEFT.wav	1	34	blb_dichoticlistening_ta-ka.mp3	ta	ka	1	right
6.6.1	win	2023-06-26	19:31:13	0	0	5c92aa671ce0cd00128c6c86	2	1	DL_test	14	DL_test	13			0		da	1	1260	6	3	antiphase_hc_soi.wav	1	6	2	noise_calib_stim_LEFT.wav	1	26	blb_dichoticlistening_pa-da.mp3	pa	da	1	right
6.6.1	win	2023-06-26	19:31:13	0	0	5c92aa671ce0cd00128c6c86	2	1	DL_test	14	DL_test	14			0		ga	1	1938	6	3	antiphase_hc_soi.wav	1	6	2	noise_calib_stim_LEFT.wav	1	18	blb_dichoticlistening_ga-ta.mp3	ga	ta	1	left
6.6.1	win	2023-06-26	19:31:13	0	0	5c92aa671ce0cd00128c6c86	2	1	DL_test	14	DL_test	15			0		ga	1	997	6	3	antiphase_hc_soi.wav	1	6	2	noise_calib_stim_LEFT.wav	1	16	blb_dichoticlistening_ga-ka.mp3	ga	ka	1	left
6.6.1	win	2023-06-26	19:31:13	0	0	5c92aa671ce0cd00128c6c86	2	1	DL_test	14	DL_test	16			0		ka	1	862	6	3	antiphase_hc_soi.wav	1	6	2	noise_calib_stim_LEFT.wav	1	23	blb_dichoticlistening_ka-pa.mp3	ka	pa	1	left
6.6.1	win	2023-06-26	19:31:13	0	0	5c92aa671ce0cd00128c6c86	2	1	DL_test	14	DL_test	17			0		ka	1	832	6	3	antiphase_hc_soi.wav	1	6	2	noise_calib_stim_LEFT.wav	1	4	blb_dichoticlistening_ba-ka.mp3	ba	ka	1	right
6.6.1	win	2023-06-26	19:31:13	0	0	5c92aa671ce0cd00128c6c86	2	1	DL_test	14	DL_test	18			0		pa	1	1243	6	3	antiphase_hc_soi.wav	1	6	2	noise_calib_stim_LEFT.wav	1	5	blb_dichoticlistening_ba-pa.mp3	ba	pa	1	right
6.6.1	win	2023-06-26	19:31:13	0	0	5c92aa671ce0cd00128c6c86	2	1	DL_test	14	DL_test	19			0		ga	1	903	6	3	antiphase_hc_soi.wav	1	6	2	noise_calib_stim_LEFT.wav	1	17	blb_dichoticlistening_ga-pa.mp3	ga	pa	1	left
6.6.1	win	2023-06-26	19:31:13	0	0	5c92aa671ce0cd00128c6c86	2	1	DL_test	14	DL_test	20			0		da	1	1527	6	3	antiphase_hc_soi.wav	1	6	2	noise_calib_stim_LEFT.wav	1	11	blb_dichoticlistening_da-pa.mp3	da	pa	1	left
6.6.1	win	2023-06-26	19:31:13	0	0	5c92aa671ce0cd00128c6c86	2	1	DL_test	14	DL_test	21			0		da	1	1007	6	3	antiphase_hc_soi.wav	1	6	2	noise_calib_stim_LEFT.wav	1	2	blb_dichoticlistening_ba-da.mp3	ba	da	1	right
6.6.1	win	2023-06-26	19:31:13	0	0	5c92aa671ce0cd00128c6c86	2	1	DL_test	14	DL_test	22			0		ga	1	1054	6	3	antiphase_hc_soi.wav	1	6	2	noise_calib_stim_LEFT.wav	1	14	blb_dichoticlistening_ga-da.mp3	ga	da	1	left
6.6.1	win	2023-06-26	19:31:13	0	0	5c92aa671ce0cd00128c6c86	2	1	DL_test	14	DL_test	23			0		ka	1	781	6	3	antiphase_hc_soi.wav	1	6	2	noise_calib_stim_LEFT.wav	1	22	blb_dichoticlistening_ka-ka.mp3	ka	ka	0	left
6.6.1	win	2023-06-26	19:31:13	0	0	5c92aa671ce0cd00128c6c86	2	1	DL_test	14	DL_test	24			0		da	1	1030	6	3	antiphase_hc_soi.wav	1	6	2	noise_calib_stim_LEFT.wav	1	8	blb_dichoticlistening_da-da.mp3	da	da	0	left
6.6.1	win	2023-06-26	19:31:13	0	0	5c92aa671ce0cd00128c6c86	2	1	DL_test	14	DL_test	25			0		ta	1	1100	6	3	antiphase_hc_soi.wav	1	6	2	noise_calib_stim_LEFT.wav	1	36	blb_dichoticlistening_ta-ta.mp3	ta	ta	0	left
6.6.1	win	2023-06-26	19:31:13	0	0	5c92aa671ce0cd00128c6c86	2	1	DL_test	14	DL_test	26			0		ba	1	1963	6	3	antiphase_hc_soi.wav	1	6	2	noise_calib_stim_LEFT.wav	1	25	blb_dichoticlistening_pa-ba.mp3	pa	ba	1	right
6.6.1	win	2023-06-26	19:31:13	0	0	5c92aa671ce0cd00128c6c86	2	1	DL_test	14	DL_test	27			0		da	0	900	6	3	antiphase_hc_soi.wav	1	6	2	noise_calib_stim_LEFT.wav	1	3	blb_dichoticlistening_ba-ga.mp3	ba	ga	1	other
6.6.1	win	2023-06-26	19:31:13	0	0	5c92aa671ce0cd00128c6c86	2	1	DL_test	14	DL_test	28			0		ka	1	982	6	3	antiphase_hc_soi.wav	1	6	2	noise_calib_stim_LEFT.wav	1	19	blb_dichoticlistening_ka-ba.mp3	ka	ba	1	left
6.6.1	win	2023-06-26	19:31:13	0	0	5c92aa671ce0cd00128c6c86	2	1	DL_test	14	DL_test	29			0		ta	1	793	6	3	antiphase_hc_soi.wav	1	6	2	noise_calib_stim_LEFT.wav	1	6	blb_dichoticlistening_ba-ta.mp3	ba	ta	1	right
6.6.1	win	2023-06-26	19:31:13	0	0	5c92aa671ce0cd00128c6c86	2	1	DL_test	14	DL_test	30			0		ta	1	1041	6	3	antiphase_hc_soi.wav	1	6	2	noise_calib_stim_LEFT.wav	1	30	blb_dichoticlistening_pa-ta.mp3	pa	ta	1	right
6.6.1	win	2023-06-26	19:31:13	0	0	5c92aa671ce0cd00128c6c86	2	1	DL_test	14	DL_test	31			0		ba	1	1290	6	3	antiphase_hc_soi.wav	1	6	2	noise_calib_stim_LEFT.wav	1	1	blb_dichoticlistening_ba-ba.mp3	ba	ba	0	left
6.6.1	win	2023-06-26	19:31:13	0	0	5c92aa671ce0cd00128c6c86	2	1	DL_test	14	DL_test	32			0		ka	1	1245	6	3	antiphase_hc_soi.wav	1	6	2	noise_calib_stim_LEFT.wav	1	21	blb_dichoticlistening_ka-ga.mp3	ka	ga	1	left
6.6.1	win	2023-06-26	19:31:13	0	0	5c92aa671ce0cd00128c6c86	2	1	DL_test	14	DL_test	33			0		ga	1	1171	6	3	antiphase_hc_soi.wav	1	6	2	noise_calib_stim_LEFT.wav	1	15	blb_dichoticlistening_ga-ga.mp3	ga	ga	0	left
6.6.1	win	2023-06-26	19:31:13	0	0	5c92aa671ce0cd00128c6c86	2	1	DL_test	14	DL_test	34			0		pa	1	1631	6	3	antiphase_hc_soi.wav	1	6	2	noise_calib_stim_LEFT.wav	1	27	blb_dichoticlistening_pa-ga.mp3	pa	ga	1	left
6.6.1	win	2023-06-26	19:31:13	0	0	5c92aa671ce0cd00128c6c86	2	1	DL_test	14	DL_test	35			0		da	1	1486	6	3	antiphase_hc_soi.wav	1	6	2	noise_calib_stim_LEFT.wav	1	7	blb_dichoticlistening_da-ba.mp3	da	ba	1	left
6.6.1	win	2023-06-26	19:31:13	0	0	5c92aa671ce0cd00128c6c86	2	1	DL_test	14	DL_test	36			0		ga	1	1009	6	3	antiphase_hc_soi.wav	1	6	2	noise_calib_stim_LEFT.wav	1	9	blb_dichoticlistening_da-ga.mp3	da	ga	1	right
6.6.1	win	2023-06-26	19:31:13	0	0	5c92aa671ce0cd00128c6c86	2	1	DL_test	15	DL_test	1			0		ka	1	825	6	3	antiphase_hc_soi.wav	1	6	2	noise_calib_stim_LEFT.wav	1	20	blb_dichoticlistening_ka-da.mp3	ka	da	1	left
6.6.1	win	2023-06-26	19:31:13	0	0	5c92aa671ce0cd00128c6c86	2	1	DL_test	15	DL_test	2			0		ga	1	852	6	3	antiphase_hc_soi.wav	1	6	2	noise_calib_stim_LEFT.wav	1	3	blb_dichoticlistening_ba-ga.mp3	ba	ga	1	right
6.6.1	win	2023-06-26	19:31:13	0	0	5c92aa671ce0cd00128c6c86	2	1	DL_test	15	DL_test	3			0		ta	1	1182	6	3	antiphase_hc_soi.wav	1	6	2	noise_calib_stim_LEFT.wav	1	32	blb_dichoticlistening_ta-da.mp3	ta	da	1	left
6.6.1	win	2023-06-26	19:31:13	0	0	5c92aa671ce0cd00128c6c86	2	1	DL_test	15	DL_test	4			0		ga	1	2106	6	3	antiphase_hc_soi.wav	1	6	2	noise_calib_stim_LEFT.wav	1	17	blb_dichoticlistening_ga-pa.mp3	ga	pa	1	left
6.6.1	win	2023-06-26	19:31:13	0	0	5c92aa671ce0cd00128c6c86	2	1	DL_test	15	DL_test	5			0		pa	0	1673	6	3	antiphase_hc_soi.wav	1	6	2	noise_calib_stim_LEFT.wav	1	10	blb_dichoticlistening_da-ka.mp3	da	ka	1	other
6.6.1	win	2023-06-26	19:31:13	0	0	5c92aa671ce0cd00128c6c86	2	1	DL_test	15	DL_test	6			0		ba	1	1774	6	3	antiphase_hc_soi.wav	1	6	2	noise_calib_stim_LEFT.wav	1	19	blb_dichoticlistening_ka-ba.mp3	ka	ba	1	right
6.6.1	win	2023-06-26	19:31:13	0	0	5c92aa671ce0cd00128c6c86	2	1	DL_test	15	DL_test	7			0		ta	1	1499	6	3	antiphase_hc_soi.wav	1	6	2	noise_calib_stim_LEFT.wav	1	30	blb_dichoticlistening_pa-ta.mp3	pa	ta	1	right
6.6.1	win	2023-06-26	19:31:13	0	0	5c92aa671ce0cd00128c6c86	2	1	DL_test	15	DL_test	8			0		ka	1	1902	6	3	antiphase_hc_soi.wav	1	6	2	noise_calib_stim_LEFT.wav	1	28	blb_dichoticlistening_pa-ka.mp3	pa	ka	1	right
6.6.1	win	2023-06-26	19:31:13	0	0	5c92aa671ce0cd00128c6c86	2	1	DL_test	15	DL_test	9			0		ta	1	1977	6	3	antiphase_hc_soi.wav	1	6	2	noise_calib_stim_LEFT.wav	1	33	blb_dichoticlistening_ta-ga.mp3	ta	ga	1	left
6.6.1	win	2023-06-26	19:31:13	0	0	5c92aa671ce0cd00128c6c86	2	1	DL_test	15	DL_test	10			0		da	1	1177	6	3	antiphase_hc_soi.wav	1	6	2	noise_calib_stim_LEFT.wav	1	7	blb_dichoticlistening_da-ba.mp3	da	ba	1	left
6.6.1	win	2023-06-26	19:31:13	0	0	5c92aa671ce0cd00128c6c86	2	1	DL_test	15	DL_test	11			0		ga	0	1099	6	3	antiphase_hc_soi.wav	1	6	2	noise_calib_stim_LEFT.wav	1	2	blb_dichoticlistening_ba-da.mp3	ba	da	1	other
6.6.1	win	2023-06-26	19:31:13	0	0	5c92aa671ce0cd00128c6c86	2	1	DL_test	15	DL_test	12			0		pa	1	1041	6	3	antiphase_hc_soi.wav	1	6	2	noise_calib_stim_LEFT.wav	1	29	blb_dichoticlistening_pa-pa.mp3	pa	pa	0	left
6.6.1	win	2023-06-26	19:31:13	0	0	5c92aa671ce0cd00128c6c86	2	1	DL_test	15	DL_test	13			0		ba	1	1065	6	3	antiphase_hc_soi.wav	1	6	2	noise_calib_stim_LEFT.wav	1	1	blb_dichoticlistening_ba-ba.mp3	ba	ba	0	left
6.6.1	win	2023-06-26	19:31:13	0	0	5c92aa671ce0cd00128c6c86	2	1	DL_test	15	DL_test	14			0		ga	1	806	6	3	antiphase_hc_soi.wav	1	6	2	noise_calib_stim_LEFT.wav	1	15	blb_dichoticlistening_ga-ga.mp3	ga	ga	0	left
6.6.1	win	2023-06-26	19:31:13	0	0	5c92aa671ce0cd00128c6c86	2	1	DL_test	15	DL_test	15			0		ta	1	1118	6	3	antiphase_hc_soi.wav	1	6	2	noise_calib_stim_LEFT.wav	1	12	blb_dichoticlistening_da-ta.mp3	da	ta	1	right
6.6.1	win	2023-06-26	19:31:13	0	0	5c92aa671ce0cd00128c6c86	2	1	DL_test	15	DL_test	16			0		ta	1	1139	6	3	antiphase_hc_soi.wav	1	6	2	noise_calib_stim_LEFT.wav	1	31	blb_dichoticlistening_ta-ba.mp3	ta	ba	1	left
6.6.1	win	2023-06-26	19:31:13	0	0	5c92aa671ce0cd00128c6c86	2	1	DL_test	15	DL_test	17			0		ka	1	1345	6	3	antiphase_hc_soi.wav	1	6	2	noise_calib_stim_LEFT.wav	1	4	blb_dichoticlistening_ba-ka.mp3	ba	ka	1	right
6.6.1	win	2023-06-26	19:31:13	0	0	5c92aa671ce0cd00128c6c86	2	1	DL_test	15	DL_test	18			0		ga	1	1004	6	3	antiphase_hc_soi.wav	1	6	2	noise_calib_stim_LEFT.wav	1	18	blb_dichoticlistening_ga-ta.mp3	ga	ta	1	left
6.6.1	win	2023-06-26	19:31:13	0	0	5c92aa671ce0cd00128c6c86	2	1	DL_test	15	DL_test	19			0		da	1	723	6	3	antiphase_hc_soi.wav	1	6	2	noise_calib_stim_LEFT.wav	1	8	blb_dichoticlistening_da-da.mp3	da	da	0	left
6.6.1	win	2023-06-26	19:31:13	0	0	5c92aa671ce0cd00128c6c86	2	1	DL_test	15	DL_test	20			0		ta	1	1167	6	3	antiphase_hc_soi.wav	1	6	2	noise_calib_stim_LEFT.wav	1	35	blb_dichoticlistening_ta-pa.mp3	ta	pa	1	left
6.6.1	win	2023-06-26	19:31:13	0	0	5c92aa671ce0cd00128c6c86	2	1	DL_test	15	DL_test	21			0		ka	1	1048	6	3	antiphase_hc_soi.wav	1	6	2	noise_calib_stim_LEFT.wav	1	34	blb_dichoticlistening_ta-ka.mp3	ta	ka	1	right
6.6.1	win	2023-06-26	19:31:13	0	0	5c92aa671ce0cd00128c6c86	2	1	DL_test	15	DL_test	22			0		pa	1	1946	6	3	antiphase_hc_soi.wav	1	6	2	noise_calib_stim_LEFT.wav	1	27	blb_dichoticlistening_pa-ga.mp3	pa	ga	1	left
6.6.1	win	2023-06-26	19:31:13	0	0	5c92aa671ce0cd00128c6c86	2	1	DL_test	15	DL_test	23			0		ga	1	1104	6	3	antiphase_hc_soi.wav	1	6	2	noise_calib_stim_LEFT.wav	1	14	blb_dichoticlistening_ga-da.mp3	ga	da	1	left
6.6.1	win	2023-06-26	19:31:13	0	0	5c92aa671ce0cd00128c6c86	2	1	DL_test	15	DL_test	24			0		ga	1	677	6	3	antiphase_hc_soi.wav	1	6	2	noise_calib_stim_LEFT.wav	1	9	blb_dichoticlistening_da-ga.mp3	da	ga	1	right
6.6.1	win	2023-06-26	19:31:13	0	0	5c92aa671ce0cd00128c6c86	2	1	DL_test	15	DL_test	25			0		pa	1	1189	6	3	antiphase_hc_soi.wav	1	6	2	noise_calib_stim_LEFT.wav	1	5	blb_dichoticlistening_ba-pa.mp3	ba	pa	1	right
6.6.1	win	2023-06-26	19:31:13	0	0	5c92aa671ce0cd00128c6c86	2	1	DL_test	15	DL_test	26			0		ka	1	1652	6	3	antiphase_hc_soi.wav	1	6	2	noise_calib_stim_LEFT.wav	1	23	blb_dichoticlistening_ka-pa.mp3	ka	pa	1	left
6.6.1	win	2023-06-26	19:31:13	0	0	5c92aa671ce0cd00128c6c86	2	1	DL_test	15	DL_test	27			0		ka	1	607	6	3	antiphase_hc_soi.wav	1	6	2	noise_calib_stim_LEFT.wav	1	22	blb_dichoticlistening_ka-ka.mp3	ka	ka	0	left
6.6.1	win	2023-06-26	19:31:13	0	0	5c92aa671ce0cd00128c6c86	2	1	DL_test	15	DL_test	28			0		ta	1	1211	6	3	antiphase_hc_soi.wav	1	6	2	noise_calib_stim_LEFT.wav	1	6	blb_dichoticlistening_ba-ta.mp3	ba	ta	1	right
6.6.1	win	2023-06-26	19:31:13	0	0	5c92aa671ce0cd00128c6c86	2	1	DL_test	15	DL_test	29			0		da	1	1630	6	3	antiphase_hc_soi.wav	1	6	2	noise_calib_stim_LEFT.wav	1	11	blb_dichoticlistening_da-pa.mp3	da	pa	1	left
6.6.1	win	2023-06-26	19:31:13	0	0	5c92aa671ce0cd00128c6c86	2	1	DL_test	15	DL_test	30			0		ka	1	1151	6	3	antiphase_hc_soi.wav	1	6	2	noise_calib_stim_LEFT.wav	1	21	blb_dichoticlistening_ka-ga.mp3	ka	ga	1	left
6.6.1	win	2023-06-26	19:31:13	0	0	5c92aa671ce0cd00128c6c86	2	1	DL_test	15	DL_test	31			0		ga	1	1648	6	3	antiphase_hc_soi.wav	1	6	2	noise_calib_stim_LEFT.wav	1	16	blb_dichoticlistening_ga-ka.mp3	ga	ka	1	left
6.6.1	win	2023-06-26	19:31:13	0	0	5c92aa671ce0cd00128c6c86	2	1	DL_test	15	DL_test	32			0		ka	1	1142	6	3	antiphase_hc_soi.wav	1	6	2	noise_calib_stim_LEFT.wav	1	24	blb_dichoticlistening_ka-ta.mp3	ka	ta	1	left
6.6.1	win	2023-06-26	19:31:13	0	0	5c92aa671ce0cd00128c6c86	2	1	DL_test	15	DL_test	33			0		ta	1	1065	6	3	antiphase_hc_soi.wav	1	6	2	noise_calib_stim_LEFT.wav	1	36	blb_dichoticlistening_ta-ta.mp3	ta	ta	0	left
6.6.1	win	2023-06-26	19:31:13	0	0	5c92aa671ce0cd00128c6c86	2	1	DL_test	15	DL_test	34			0		da	1	1600	6	3	antiphase_hc_soi.wav	1	6	2	noise_calib_stim_LEFT.wav	1	26	blb_dichoticlistening_pa-da.mp3	pa	da	1	right
6.6.1	win	2023-06-26	19:31:13	0	0	5c92aa671ce0cd00128c6c86	2	1	DL_test	15	DL_test	35			0		ba	1	1333	6	3	antiphase_hc_soi.wav	1	6	2	noise_calib_stim_LEFT.wav	1	25	blb_dichoticlistening_pa-ba.mp3	pa	ba	1	right
6.6.1	win	2023-06-26	19:31:13	0	0	5c92aa671ce0cd00128c6c86	2	1	DL_test	15	DL_test	36			0		ba	1	1584	6	3	antiphase_hc_soi.wav	1	6	2	noise_calib_stim_LEFT.wav	1	13	blb_dichoticlistening_ga-ba.mp3	ga	ba	1	right
6.6.1	win	2023-06-26	19:31:13	0	0	5c92aa671ce0cd00128c6c86	2	1	DL_test	16	DL_test	1			0		ka	1	792	6	3	antiphase_hc_soi.wav	1	6	2	noise_calib_stim_LEFT.wav	1	16	blb_dichoticlistening_ga-ka.mp3	ga	ka	1	right
6.6.1	win	2023-06-26	19:31:13	0	0	5c92aa671ce0cd00128c6c86	2	1	DL_test	16	DL_test	2			0		ta	1	1555	6	3	antiphase_hc_soi.wav	1	6	2	noise_calib_stim_LEFT.wav	1	35	blb_dichoticlistening_ta-pa.mp3	ta	pa	1	left
6.6.1	win	2023-06-26	19:31:13	0	0	5c92aa671ce0cd00128c6c86	2	1	DL_test	16	DL_test	3			0		da	1	1121	6	3	antiphase_hc_soi.wav	1	6	2	noise_calib_stim_LEFT.wav	1	8	blb_dichoticlistening_da-da.mp3	da	da	0	left
6.6.1	win	2023-06-26	19:31:13	0	0	5c92aa671ce0cd00128c6c86	2	1	DL_test	16	DL_test	4			0		da	1	825	6	3	antiphase_hc_soi.wav	1	6	2	noise_calib_stim_LEFT.wav	1	7	blb_dichoticlistening_da-ba.mp3	da	ba	1	left
6.6.1	win	2023-06-26	19:31:13	0	0	5c92aa671ce0cd00128c6c86	2	1	DL_test	16	DL_test	5			0		ta	0	1464	6	3	antiphase_hc_soi.wav	1	6	2	noise_calib_stim_LEFT.wav	1	26	blb_dichoticlistening_pa-da.mp3	pa	da	1	other
6.6.1	win	2023-06-26	19:31:13	0	0	5c92aa671ce0cd00128c6c86	2	1	DL_test	16	DL_test	6			0		ka	1	867	6	3	antiphase_hc_soi.wav	1	6	2	noise_calib_stim_LEFT.wav	1	28	blb_dichoticlistening_pa-ka.mp3	pa	ka	1	right
6.6.1	win	2023-06-26	19:31:13	0	0	5c92aa671ce0cd00128c6c86	2	1	DL_test	16	DL_test	7			0		ka	1	2019	6	3	antiphase_hc_soi.wav	1	6	2	noise_calib_stim_LEFT.wav	1	23	blb_dichoticlistening_ka-pa.mp3	ka	pa	1	left
6.6.1	win	2023-06-26	19:31:13	0	0	5c92aa671ce0cd00128c6c86	2	1	DL_test	16	DL_test	8			0		ka	1	763	6	3	antiphase_hc_soi.wav	1	6	2	noise_calib_stim_LEFT.wav	1	24	blb_dichoticlistening_ka-ta.mp3	ka	ta	1	left
6.6.1	win	2023-06-26	19:31:13	0	0	5c92aa671ce0cd00128c6c86	2	1	DL_test	16	DL_test	9			0		ba	1	1083	6	3	antiphase_hc_soi.wav	1	6	2	noise_calib_stim_LEFT.wav	1	25	blb_dichoticlistening_pa-ba.mp3	pa	ba	1	right
6.6.1	win	2023-06-26	19:31:13	0	0	5c92aa671ce0cd00128c6c86	2	1	DL_test	16	DL_test	10			0		ga	1	951	6	3	antiphase_hc_soi.wav	1	6	2	noise_calib_stim_LEFT.wav	1	9	blb_dichoticlistening_da-ga.mp3	da	ga	1	right
6.6.1	win	2023-06-26	19:31:13	0	0	5c92aa671ce0cd00128c6c86	2	1	DL_test	16	DL_test	11			0		ka	1	973	6	3	antiphase_hc_soi.wav	1	6	2	noise_calib_stim_LEFT.wav	1	21	blb_dichoticlistening_ka-ga.mp3	ka	ga	1	left
6.6.1	win	2023-06-26	19:31:13	0	0	5c92aa671ce0cd00128c6c86	2	1	DL_test	16	DL_test	12			0		ba	1	1079	6	3	antiphase_hc_soi.wav	1	6	2	noise_calib_stim_LEFT.wav	1	1	blb_dichoticlistening_ba-ba.mp3	ba	ba	0	left
6.6.1	win	2023-06-26	19:31:13	0	0	5c92aa671ce0cd00128c6c86	2	1	DL_test	16	DL_test	13			0		ba	1	819	6	3	antiphase_hc_soi.wav	1	6	2	noise_calib_stim_LEFT.wav	1	13	blb_dichoticlistening_ga-ba.mp3	ga	ba	1	right
6.6.1	win	2023-06-26	19:31:13	0	0	5c92aa671ce0cd00128c6c86	2	1	DL_test	16	DL_test	14			0		ba	0	2765	6	3	antiphase_hc_soi.wav	1	6	2	noise_calib_stim_LEFT.wav	1	10	blb_dichoticlistening_da-ka.mp3	da	ka	1	other
6.6.1	win	2023-06-26	19:31:13	0	0	5c92aa671ce0cd00128c6c86	2	1	DL_test	16	DL_test	15			0		ka	1	868	6	3	antiphase_hc_soi.wav	1	6	2	noise_calib_stim_LEFT.wav	1	20	blb_dichoticlistening_ka-da.mp3	ka	da	1	left
6.6.1	win	2023-06-26	19:31:13	0	0	5c92aa671ce0cd00128c6c86	2	1	DL_test	16	DL_test	16			0		da	0	1673	6	3	antiphase_hc_soi.wav	1	6	2	noise_calib_stim_LEFT.wav	1	18	blb_dichoticlistening_ga-ta.mp3	ga	ta	1	other
6.6.1	win	2023-06-26	19:31:13	0	0	5c92aa671ce0cd00128c6c86	2	1	DL_test	16	DL_test	17			0		da	0	796	6	3	antiphase_hc_soi.wav	1	6	2	noise_calib_stim_LEFT.wav	1	15	blb_dichoticlistening_ga-ga.mp3	ga	ga	0	other
6.6.1	win	2023-06-26	19:31:13	0	0	5c92aa671ce0cd00128c6c86	2	1	DL_test	16	DL_test	18			0		ga	1	1063	6	3	antiphase_hc_soi.wav	1	6	2	noise_calib_stim_LEFT.wav	1	3	blb_dichoticlistening_ba-ga.mp3	ba	ga	1	right
6.6.1	win	2023-06-26	19:31:13	0	0	5c92aa671ce0cd00128c6c86	2	1	DL_test	16	DL_test	19			0		ga	1	709	6	3	antiphase_hc_soi.wav	1	6	2	noise_calib_stim_LEFT.wav	1	14	blb_dichoticlistening_ga-da.mp3	ga	da	1	left
6.6.1	win	2023-06-26	19:31:13	0	0	5c92aa671ce0cd00128c6c86	2	1	DL_test	16	DL_test	20			0		ta	1	1194	6	3	antiphase_hc_soi.wav	1	6	2	noise_calib_stim_LEFT.wav	1	33	blb_dichoticlistening_ta-ga.mp3	ta	ga	1	left
6.6.1	win	2023-06-26	19:31:13	0	0	5c92aa671ce0cd00128c6c86	2	1	DL_test	16	DL_test	21			0		ta	1	1194	6	3	antiphase_hc_soi.wav	1	6	2	noise_calib_stim_LEFT.wav	1	31	blb_dichoticlistening_ta-ba.mp3	ta	ba	1	left
6.6.1	win	2023-06-26	19:31:13	0	0	5c92aa671ce0cd00128c6c86	2	1	DL_test	16	DL_test	22			0		ta	1	761	6	3	antiphase_hc_soi.wav	1	6	2	noise_calib_stim_LEFT.wav	1	6	blb_dichoticlistening_ba-ta.mp3	ba	ta	1	right
6.6.1	win	2023-06-26	19:31:13	0	0	5c92aa671ce0cd00128c6c86	2	1	DL_test	16	DL_test	23			0		da	1	1078	6	3	antiphase_hc_soi.wav	1	6	2	noise_calib_stim_LEFT.wav	1	12	blb_dichoticlistening_da-ta.mp3	da	ta	1	left
6.6.1	win	2023-06-26	19:31:13	0	0	5c92aa671ce0cd00128c6c86	2	1	DL_test	16	DL_test	24			0		ka	1	781	6	3	antiphase_hc_soi.wav	1	6	2	noise_calib_stim_LEFT.wav	1	34	blb_dichoticlistening_ta-ka.mp3	ta	ka	1	right
6.6.1	win	2023-06-26	19:31:13	0	0	5c92aa671ce0cd00128c6c86	2	1	DL_test	16	DL_test	25			0		ta	1	932	6	3	antiphase_hc_soi.wav	1	6	2	noise_calib_stim_LEFT.wav	1	36	blb_dichoticlistening_ta-ta.mp3	ta	ta	0	left
6.6.1	win	2023-06-26	19:31:13	0	0	5c92aa671ce0cd00128c6c86	2	1	DL_test	16	DL_test	26			0		da	1	1484	6	3	antiphase_hc_soi.wav	1	6	2	noise_calib_stim_LEFT.wav	1	11	blb_dichoticlistening_da-pa.mp3	da	pa	1	left
6.6.1	win	2023-06-26	19:31:13	0	0	5c92aa671ce0cd00128c6c86	2	1	DL_test	16	DL_test	27			0		ta	1	1809	6	3	antiphase_hc_soi.wav	1	6	2	noise_calib_stim_LEFT.wav	1	30	blb_dichoticlistening_pa-ta.mp3	pa	ta	1	right
6.6.1	win	2023-06-26	19:31:13	0	0	5c92aa671ce0cd00128c6c86	2	1	DL_test	16	DL_test	28			0		ka	1	887	6	3	antiphase_hc_soi.wav	1	6	2	noise_calib_stim_LEFT.wav	1	22	blb_dichoticlistening_ka-ka.mp3	ka	ka	0	left
6.6.1	win	2023-06-26	19:31:13	0	0	5c92aa671ce0cd00128c6c86	2	1	DL_test	16	DL_test	29			0		ga	1	985	6	3	antiphase_hc_soi.wav	1	6	2	noise_calib_stim_LEFT.wav	1	27	blb_dichoticlistening_pa-ga.mp3	pa	ga	1	right
6.6.1	win	2023-06-26	19:31:13	0	0	5c92aa671ce0cd00128c6c86	2	1	DL_test	16	DL_test	30			0		ba	1	1130	6	3	antiphase_hc_soi.wav	1	6	2	noise_calib_stim_LEFT.wav	1	5	blb_dichoticlistening_ba-pa.mp3	ba	pa	1	left
6.6.1	win	2023-06-26	19:31:13	0	0	5c92aa671ce0cd00128c6c86	2	1	DL_test	16	DL_test	31			0		ka	1	1251	6	3	antiphase_hc_soi.wav	1	6	2	noise_calib_stim_LEFT.wav	1	19	blb_dichoticlistening_ka-ba.mp3	ka	ba	1	left
6.6.1	win	2023-06-26	19:31:13	0	0	5c92aa671ce0cd00128c6c86	2	1	DL_test	16	DL_test	32			0		ba	1	1438	6	3	antiphase_hc_soi.wav	1	6	2	noise_calib_stim_LEFT.wav	1	4	blb_dichoticlistening_ba-ka.mp3	ba	ka	1	left
6.6.1	win	2023-06-26	19:31:13	0	0	5c92aa671ce0cd00128c6c86	2	1	DL_test	16	DL_test	33			0		da	1	1241	6	3	antiphase_hc_soi.wav	1	6	2	noise_calib_stim_LEFT.wav	1	2	blb_dichoticlistening_ba-da.mp3	ba	da	1	right
6.6.1	win	2023-06-26	19:31:13	0	0	5c92aa671ce0cd00128c6c86	2	1	DL_test	16	DL_test	34			0		ga	1	2323	6	3	antiphase_hc_soi.wav	1	6	2	noise_calib_stim_LEFT.wav	1	17	blb_dichoticlistening_ga-pa.mp3	ga	pa	1	left
6.6.1	win	2023-06-26	19:31:13	0	0	5c92aa671ce0cd00128c6c86	2	1	DL_test	16	DL_test	35			0		da	1	846	6	3	antiphase_hc_soi.wav	1	6	2	noise_calib_stim_LEFT.wav	1	32	blb_dichoticlistening_ta-da.mp3	ta	da	1	right
6.6.1	win	2023-06-26	19:31:13	0	0	5c92aa671ce0cd00128c6c86	2	1	DL_test	16	DL_test	36			0		pa	1	1578	6	3	antiphase_hc_soi.wav	1	6	2	noise_calib_stim_LEFT.wav	1	29	blb_dichoticlistening_pa-pa.mp3	pa	pa	0	left
6.6.1	win	2023-06-26	19:31:13	19:40:07	530982	5c92aa671ce0cd00128c6c86	2	1	practice_z	22	practice_z	1	stimuli_target_diamondsquares.svg	stimuli_distractor_diamondtriangles.svg	3	yes	0	0	2000	6	3	antiphase_hc_soi.wav	1	6	2	noise_calib_stim_LEFT.wav	1	29	blb_dichoticlistening_pa-pa.mp3	pa	pa	0	left
6.6.1	win	2023-06-26	19:31:13	19:40:07	530982	5c92aa671ce0cd00128c6c86	2	1	practice_z	22	advance_on_keypress_ZEE	2	stimuli_target_diamondsquares.svg	stimuli_distractor_diamondtriangles.svg	3	yes	57	0	790	6	3	antiphase_hc_soi.wav	1	6	2	noise_calib_stim_LEFT.wav	1	29	blb_dichoticlistening_pa-pa.mp3	pa	pa	0	left
6.6.1	win	2023-06-26	19:31:13	19:40:12	535433	5c92aa671ce0cd00128c6c86	2	1	practice_z	22	practice_z	3	stimuli_distractor_diamondtriangles.svg	stimuli_distractor_diamondtriangles.svg	13	no	0	1	2000	6	3	antiphase_hc_soi.wav	1	6	2	noise_calib_stim_LEFT.wav	1	29	blb_dichoticlistening_pa-pa.mp3	pa	pa	0	left
6.6.1	win	2023-06-26	19:31:13	19:40:12	535433	5c92aa671ce0cd00128c6c86	2	1	practice_z	22	advance_on_keypress_ZEE	4	stimuli_distractor_diamondtriangles.svg	stimuli_distractor_diamondtriangles.svg	13	no	57	0	533	6	3	antiphase_hc_soi.wav	1	6	2	noise_calib_stim_LEFT.wav	1	29	blb_dichoticlistening_pa-pa.mp3	pa	pa	0	left
6.6.1	win	2023-06-26	19:31:13	19:40:16	539640	5c92aa671ce0cd00128c6c86	2	1	practice_z	22	practice_z	5	stimuli_distractor_diamondtriangles.svg	stimuli_distractor_trianglediamonds.svg	14	no	0	1	2000	6	3	antiphase_hc_soi.wav	1	6	2	noise_calib_stim_LEFT.wav	1	29	blb_dichoticlistening_pa-pa.mp3	pa	pa	0	left
6.6.1	win	2023-06-26	19:31:13	19:40:16	539640	5c92aa671ce0cd00128c6c86	2	1	practice_z	22	advance_on_keypress_ZEE	6	stimuli_distractor_diamondtriangles.svg	stimuli_distractor_trianglediamonds.svg	14	no	57	0	301	6	3	antiphase_hc_soi.wav	1	6	2	noise_calib_stim_LEFT.wav	1	29	blb_dichoticlistening_pa-pa.mp3	pa	pa	0	left
6.6.1	win	2023-06-26	19:31:13	19:40:19	542450	5c92aa671ce0cd00128c6c86	2	1	practice_z	22	practice_z	7	stimuli_distractor_trianglediamonds.svg	stimuli_target_rectanglediamonds.svg	10	yes	44	1	862	6	3	antiphase_hc_soi.wav	1	6	2	noise_calib_stim_LEFT.wav	1	29	blb_dichoticlistening_pa-pa.mp3	pa	pa	0	left
6.6.1	win	2023-06-26	19:31:13	19:40:19	542450	5c92aa671ce0cd00128c6c86	2	1	practice_z	22	advance_on_keypress_ZEE	8	stimuli_distractor_trianglediamonds.svg	stimuli_target_rectanglediamonds.svg	10	yes	57	0	443	6	3	antiphase_hc_soi.wav	1	6	2	noise_calib_stim_LEFT.wav	1	29	blb_dichoticlistening_pa-pa.mp3	pa	pa	0	left
6.6.1	win	2023-06-26	19:31:13	19:40:22	545309	5c92aa671ce0cd00128c6c86	2	1	practice_z	22	practice_z	9	stimuli_target_rectanglediamonds.svg	stimuli_distractor_diamondtriangles.svg	1	yes	44	1	727	6	3	antiphase_hc_soi.wav	1	6	2	noise_calib_stim_LEFT.wav	1	29	blb_dichoticlistening_pa-pa.mp3	pa	pa	0	left
6.6.1	win	2023-06-26	19:31:13	19:40:22	545309	5c92aa671ce0cd00128c6c86	2	1	practice_z	22	advance_on_keypress_ZEE	10	stimuli_target_rectanglediamonds.svg	stimuli_distractor_diamondtriangles.svg	1	yes	57	0	490	6	3	antiphase_hc_soi.wav	1	6	2	noise_calib_stim_LEFT.wav	1	29	blb_dichoticlistening_pa-pa.mp3	pa	pa	0	left
6.6.1	win	2023-06-26	19:31:13	19:40:25	548235	5c92aa671ce0cd00128c6c86	2	1	practice_z	22	practice_z	11	stimuli_distractor_trianglediamonds.svg	stimuli_target_squarediamonds.svg	11	yes	44	1	763	6	3	antiphase_hc_soi.wav	1	6	2	noise_calib_stim_LEFT.wav	1	29	blb_dichoticlistening_pa-pa.mp3	pa	pa	0	left
6.6.1	win	2023-06-26	19:31:13	19:40:25	548235	5c92aa671ce0cd00128c6c86	2	1	practice_z	22	advance_on_keypress_ZEE	12	stimuli_distractor_trianglediamonds.svg	stimuli_target_squarediamonds.svg	11	yes	57	0	443	6	3	antiphase_hc_soi.wav	1	6	2	noise_calib_stim_LEFT.wav	1	29	blb_dichoticlistening_pa-pa.mp3	pa	pa	0	left
6.6.1	win	2023-06-26	19:31:13	19:40:27	551057	5c92aa671ce0cd00128c6c86	2	1	practice_z	22	practice_z	13	stimuli_target_rectanglediamonds.svg	stimuli_distractor_trianglediamonds.svg	4	yes	44	1	711	6	3	antiphase_hc_soi.wav	1	6	2	noise_calib_stim_LEFT.wav	1	29	blb_dichoticlistening_pa-pa.mp3	pa	pa	0	left
6.6.1	win	2023-06-26	19:31:13	19:40:27	551057	5c92aa671ce0cd00128c6c86	2	1	practice_z	22	advance_on_keypress_ZEE	14	stimuli_target_rectanglediamonds.svg	stimuli_distractor_trianglediamonds.svg	4	yes	57	0	378	6	3	antiphase_hc_soi.wav	1	6	2	noise_calib_stim_LEFT.wav	1	29	blb_dichoticlistening_pa-pa.mp3	pa	pa	0	left
6.6.1	win	2023-06-26	19:31:13	19:40:31	554276	5c92aa671ce0cd00128c6c86	2	1	practice_z	22	practice_z	15	stimuli_distractor_trianglediamonds.svg	stimuli_target_diamondrectangles.svg	12	yes	44	1	1186	6	3	antiphase_hc_soi.wav	1	6	2	noise_calib_stim_LEFT.wav	1	29	blb_dichoticlistening_pa-pa.mp3	pa	pa	0	left
6.6.1	win	2023-06-26	19:31:13	19:40:31	554276	5c92aa671ce0cd00128c6c86	2	1	practice_z	22	advance_on_keypress_ZEE	16	stimuli_distractor_trianglediamonds.svg	stimuli_target_diamondrectangles.svg	12	yes	57	0	419	6	3	antiphase_hc_soi.wav	1	6	2	noise_calib_stim_LEFT.wav	1	29	blb_dichoticlistening_pa-pa.mp3	pa	pa	0	left
6.6.1	win	2023-06-26	19:31:13	19:40:33	557028	5c92aa671ce0cd00128c6c86	2	1	practice_z	22	practice_z	17	stimuli_distractor_diamondtriangles.svg	stimuli_target_diamondrectangles.svg	8	yes	44	1	680	6	3	antiphase_hc_soi.wav	1	6	2	noise_calib_stim_LEFT.wav	1	29	blb_dichoticlistening_pa-pa.mp3	pa	pa	0	left
6.6.1	win	2023-06-26	19:31:13	19:40:33	557028	5c92aa671ce0cd00128c6c86	2	1	practice_z	22	advance_on_keypress_ZEE	18	stimuli_distractor_diamondtriangles.svg	stimuli_target_diamondrectangles.svg	8	yes	57	0	389	6	3	antiphase_hc_soi.wav	1	6	2	noise_calib_stim_LEFT.wav	1	29	blb_dichoticlistening_pa-pa.mp3	pa	pa	0	left
6.6.1	win	2023-06-26	19:31:13	19:40:36	559750	5c92aa671ce0cd00128c6c86	2	1	practice_z	22	practice_z	19	stimuli_distractor_diamondtriangles.svg	stimuli_target_trianglerectangles.svg	9	yes	44	1	667	6	3	antiphase_hc_soi.wav	1	6	2	noise_calib_stim_LEFT.wav	1	29	blb_dichoticlistening_pa-pa.mp3	pa	pa	0	left
6.6.1	win	2023-06-26	19:31:13	19:40:36	559750	5c92aa671ce0cd00128c6c86	2	1	practice_z	22	advance_on_keypress_ZEE	20	stimuli_distractor_diamondtriangles.svg	stimuli_target_trianglerectangles.svg	9	yes	57	0	382	6	3	antiphase_hc_soi.wav	1	6	2	noise_calib_stim_LEFT.wav	1	29	blb_dichoticlistening_pa-pa.mp3	pa	pa	0	left
6.6.1	win	2023-06-26	19:31:13	19:40:39	562499	5c92aa671ce0cd00128c6c86	2	1	practice_z	22	practice_z	21	stimuli_distractor_diamondtriangles.svg	stimuli_target_rectangletriangles.svg	7	yes	44	1	676	6	3	antiphase_hc_soi.wav	1	6	2	noise_calib_stim_LEFT.wav	1	29	blb_dichoticlistening_pa-pa.mp3	pa	pa	0	left
6.6.1	win	2023-06-26	19:31:13	19:40:39	562499	5c92aa671ce0cd00128c6c86	2	1	practice_z	22	advance_on_keypress_ZEE	22	stimuli_distractor_diamondtriangles.svg	stimuli_target_rectangletriangles.svg	7	yes	57	0	336	6	3	antiphase_hc_soi.wav	1	6	2	noise_calib_stim_LEFT.wav	1	29	blb_dichoticlistening_pa-pa.mp3	pa	pa	0	left
6.6.1	win	2023-06-26	19:31:13	19:40:43	566526	5c92aa671ce0cd00128c6c86	2	1	practice_z	22	practice_z	23	stimuli_distractor_trianglediamonds.svg	stimuli_distractor_diamondtriangles.svg	16	no	0	1	2000	6	3	antiphase_hc_soi.wav	1	6	2	noise_calib_stim_LEFT.wav	1	29	blb_dichoticlistening_pa-pa.mp3	pa	pa	0	left
6.6.1	win	2023-06-26	19:31:13	19:40:43	566526	5c92aa671ce0cd00128c6c86	2	1	practice_z	22	advance_on_keypress_ZEE	24	stimuli_distractor_trianglediamonds.svg	stimuli_distractor_diamondtriangles.svg	16	no	57	0	376	6	3	antiphase_hc_soi.wav	1	6	2	noise_calib_stim_LEFT.wav	1	29	blb_dichoticlistening_pa-pa.mp3	pa	pa	0	left
6.6.1	win	2023-06-26	19:31:13	19:40:46	569207	5c92aa671ce0cd00128c6c86	2	1	practice_z	22	practice_z	25	stimuli_target_squarediamonds.svg	stimuli_distractor_trianglediamonds.svg	5	yes	44	1	639	6	3	antiphase_hc_soi.wav	1	6	2	noise_calib_stim_LEFT.wav	1	29	blb_dichoticlistening_pa-pa.mp3	pa	pa	0	left
6.6.1	win	2023-06-26	19:31:13	19:40:46	569207	5c92aa671ce0cd00128c6c86	2	1	practice_z	22	advance_on_keypress_ZEE	26	stimuli_target_squarediamonds.svg	stimuli_distractor_trianglediamonds.svg	5	yes	57	0	404	6	3	antiphase_hc_soi.wav	1	6	2	noise_calib_stim_LEFT.wav	1	29	blb_dichoticlistening_pa-pa.mp3	pa	pa	0	left
6.6.1	win	2023-06-26	19:31:13	19:40:48	571986	5c92aa671ce0cd00128c6c86	2	1	practice_z	22	practice_z	27	stimuli_target_squarediamonds.svg	stimuli_distractor_diamondtriangles.svg	2	yes	44	1	698	6	3	antiphase_hc_soi.wav	1	6	2	noise_calib_stim_LEFT.wav	1	29	blb_dichoticlistening_pa-pa.mp3	pa	pa	0	left
6.6.1	win	2023-06-26	19:31:13	19:40:48	571986	5c92aa671ce0cd00128c6c86	2	1	practice_z	22	advance_on_keypress_ZEE	28	stimuli_target_squarediamonds.svg	stimuli_distractor_diamondtriangles.svg	2	yes	57	0	325	6	3	antiphase_hc_soi.wav	1	6	2	noise_calib_stim_LEFT.wav	1	29	blb_dichoticlistening_pa-pa.mp3	pa	pa	0	left
6.6.1	win	2023-06-26	19:31:13	19:40:51	574712	5c92aa671ce0cd00128c6c86	2	1	practice_z	22	practice_z	29	stimuli_target_diamondsquares.svg	stimuli_distractor_trianglediamonds.svg	6	yes	44	1	735	6	3	antiphase_hc_soi.wav	1	6	2	noise_calib_stim_LEFT.wav	1	29	blb_dichoticlistening_pa-pa.mp3	pa	pa	0	left
6.6.1	win	2023-06-26	19:31:13	19:40:51	574712	5c92aa671ce0cd00128c6c86	2	1	practice_z	22	advance_on_keypress_ZEE	30	stimuli_target_diamondsquares.svg	stimuli_distractor_trianglediamonds.svg	6	yes	57	0	360	6	3	antiphase_hc_soi.wav	1	6	2	noise_calib_stim_LEFT.wav	1	29	blb_dichoticlistening_pa-pa.mp3	pa	pa	0	left
6.6.1	win	2023-06-26	19:31:13	19:40:55	578752	5c92aa671ce0cd00128c6c86	2	1	practice_z	22	practice_z	31	stimuli_distractor_trianglediamonds.svg	stimuli_distractor_trianglediamonds.svg	15	no	0	1	2000	6	3	antiphase_hc_soi.wav	1	6	2	noise_calib_stim_LEFT.wav	1	29	blb_dichoticlistening_pa-pa.mp3	pa	pa	0	left
6.6.1	win	2023-06-26	19:31:13	19:40:55	578752	5c92aa671ce0cd00128c6c86	2	1	practice_z	22	advance_on_keypress_ZEE	32	stimuli_distractor_trianglediamonds.svg	stimuli_distractor_trianglediamonds.svg	15	no	57	0	493	6	3	antiphase_hc_soi.wav	1	6	2	noise_calib_stim_LEFT.wav	1	29	blb_dichoticlistening_pa-pa.mp3	pa	pa	0	left
6.6.1	win	2023-06-26	19:31:13	19:41:04	587230	5c92aa671ce0cd00128c6c86	2	1	main_z	24	main_z	1	stimuli_target_rectangletriangles.svg	stimuli_distractor_diamondtriangles.svg	5	yes	44	1	695	6	3	antiphase_hc_soi.wav	1	6	2	noise_calib_stim_LEFT.wav	1	29	blb_dichoticlistening_pa-pa.mp3	pa	pa	0	left
6.6.1	win	2023-06-26	19:31:13	19:41:04	587230	5c92aa671ce0cd00128c6c86	2	1	main_z	24	advance_on_keypress_ZEE	2	stimuli_target_rectangletriangles.svg	stimuli_distractor_diamondtriangles.svg	5	yes	57	0	851	6	3	antiphase_hc_soi.wav	1	6	2	noise_calib_stim_LEFT.wav	1	29	blb_dichoticlistening_pa-pa.mp3	pa	pa	0	left
6.6.1	win	2023-06-26	19:31:13	19:41:06	589737	5c92aa671ce0cd00128c6c86	2	1	main_z	24	main_z	3	stimuli_distractor_diamondtriangles.svg	stimuli_target_rectangletriangles.svg	13	yes	44	1	990	6	3	antiphase_hc_soi.wav	1	6	2	noise_calib_stim_LEFT.wav	1	29	blb_dichoticlistening_pa-pa.mp3	pa	pa	0	left
6.6.1	win	2023-06-26	19:31:13	19:41:06	589737	5c92aa671ce0cd00128c6c86	2	1	main_z	24	advance_on_keypress_ZEE	4	stimuli_distractor_diamondtriangles.svg	stimuli_target_rectangletriangles.svg	13	yes	57	0	622	6	3	antiphase_hc_soi.wav	1	6	2	noise_calib_stim_LEFT.wav	1	29	blb_dichoticlistening_pa-pa.mp3	pa	pa	0	left
6.6.1	win	2023-06-26	19:31:13	19:41:08	591807	5c92aa671ce0cd00128c6c86	2	1	main_z	24	main_z	5	stimuli_target_diamondsquares.svg	stimuli_distractor_diamondtriangles.svg	24	yes	44	1	787	6	3	antiphase_hc_soi.wav	1	6	2	noise_calib_stim_LEFT.wav	1	29	blb_dichoticlistening_pa-pa.mp3	pa	pa	0	left
6.6.1	win	2023-06-26	19:31:13	19:41:08	591807	5c92aa671ce0cd00128c6c86	2	1	main_z	24	advance_on_keypress_ZEE	6	stimuli_target_diamondsquares.svg	stimuli_distractor_diamondtriangles.svg	24	yes	57	0	499	6	3	antiphase_hc_soi.wav	1	6	2	noise_calib_stim_LEFT.wav	1	29	blb_dichoticlistening_pa-pa.mp3	pa	pa	0	left
6.6.1	win	2023-06-26	19:31:13	19:41:10	593831	5c92aa671ce0cd00128c6c86	2	1	main_z	24	main_z	7	stimuli_target_squarediamonds.svg	stimuli_distractor_trianglediamonds.svg	4	yes	44	1	878	6	3	antiphase_hc_soi.wav	1	6	2	noise_calib_stim_LEFT.wav	1	29	blb_dichoticlistening_pa-pa.mp3	pa	pa	0	left
6.6.1	win	2023-06-26	19:31:13	19:41:10	593831	5c92aa671ce0cd00128c6c86	2	1	main_z	24	advance_on_keypress_ZEE	8	stimuli_target_squarediamonds.svg	stimuli_distractor_trianglediamonds.svg	4	yes	57	0	490	6	3	antiphase_hc_soi.wav	1	6	2	noise_calib_stim_LEFT.wav	1	29	blb_dichoticlistening_pa-pa.mp3	pa	pa	0	left
6.6.1	win	2023-06-26	19:31:13	19:41:13	596954	5c92aa671ce0cd00128c6c86	2	1	main_z	24	main_z	9	stimuli_target_rectangletriangles.svg	stimuli_distractor_trianglediamonds.svg	1	yes	0	0	2000	6	3	antiphase_hc_soi.wav	1	6	2	noise_calib_stim_LEFT.wav	1	29	blb_dichoticlistening_pa-pa.mp3	pa	pa	0	left
6.6.1	win	2023-06-26	19:31:13	19:41:13	596954	5c92aa671ce0cd00128c6c86	2	1	main_z	24	advance_on_keypress_ZEE	10	stimuli_target_rectangletriangles.svg	stimuli_distractor_trianglediamonds.svg	1	yes	57	0	629	6	3	antiphase_hc_soi.wav	1	6	2	noise_calib_stim_LEFT.wav	1	29	blb_dichoticlistening_pa-pa.mp3	pa	pa	0	left
6.6.1	win	2023-06-26	19:31:13	19:41:15	598980	5c92aa671ce0cd00128c6c86	2	1	main_z	24	main_z	11	stimuli_distractor_trianglediamonds.svg	stimuli_target_diamondrectangles.svg	27	yes	44	1	731	6	3	antiphase_hc_soi.wav	1	6	2	noise_calib_stim_LEFT.wav	1	29	blb_dichoticlistening_pa-pa.mp3	pa	pa	0	left
6.6.1	win	2023-06-26	19:31:13	19:41:15	598980	5c92aa671ce0cd00128c6c86	2	1	main_z	24	advance_on_keypress_ZEE	12	stimuli_distractor_trianglediamonds.svg	stimuli_target_diamondrectangles.svg	27	yes	57	0	564	6	3	antiphase_hc_soi.wav	1	6	2	noise_calib_stim_LEFT.wav	1	29	blb_dichoticlistening_pa-pa.mp3	pa	pa	0	left
6.6.1	win	2023-06-26	19:31:13	19:41:17	600901	5c92aa671ce0cd00128c6c86	2	1	main_z	24	main_z	13	stimuli_target_rectanglediamonds.svg	stimuli_distractor_diamondtriangles.svg	6	yes	44	1	706	6	3	antiphase_hc_soi.wav	1	6	2	noise_calib_stim_LEFT.wav	1	29	blb_dichoticlistening_pa-pa.mp3	pa	pa	0	left
6.6.1	win	2023-06-26	19:31:13	19:41:17	600901	5c92aa671ce0cd00128c6c86	2	1	main_z	24	advance_on_keypress_ZEE	14	stimuli_target_rectanglediamonds.svg	stimuli_distractor_diamondtriangles.svg	6	yes	57	0	567	6	3	antiphase_hc_soi.wav	1	6	2	noise_calib_stim_LEFT.wav	1	29	blb_dichoticlistening_pa-pa.mp3	pa	pa	0	left
6.6.1	win	2023-06-26	19:31:13	19:41:19	602911	5c92aa671ce0cd00128c6c86	2	1	main_z	24	main_z	15	stimuli_distractor_diamondtriangles.svg	stimuli_distractor_diamondtriangles.svg	39	no	44	0	792	6	3	antiphase_hc_soi.wav	1	6	2	noise_calib_stim_LEFT.wav	1	29	blb_dichoticlistening_pa-pa.mp3	pa	pa	0	left
6.6.1	win	2023-06-26	19:31:13	19:41:19	602911	5c92aa671ce0cd00128c6c86	2	1	main_z	24	advance_on_keypress_ZEE	16	stimuli_distractor_diamondtriangles.svg	stimuli_distractor_diamondtriangles.svg	39	no	57	0	544	6	3	antiphase_hc_soi.wav	1	6	2	noise_calib_stim_LEFT.wav	1	29	blb_dichoticlistening_pa-pa.mp3	pa	pa	0	left
6.6.1	win	2023-06-26	19:31:13	19:41:22	605520	5c92aa671ce0cd00128c6c86	2	1	main_z	24	main_z	17	stimuli_target_rectanglediamonds.svg	stimuli_distractor_trianglediamonds.svg	2	yes	44	1	1415	6	3	antiphase_hc_soi.wav	1	6	2	noise_calib_stim_LEFT.wav	1	29	blb_dichoticlistening_pa-pa.mp3	pa	pa	0	left
6.6.1	win	2023-06-26	19:31:13	19:41:22	605520	5c92aa671ce0cd00128c6c86	2	1	main_z	24	advance_on_keypress_ZEE	18	stimuli_target_rectanglediamonds.svg	stimuli_distractor_trianglediamonds.svg	2	yes	57	0	750	6	3	antiphase_hc_soi.wav	1	6	2	noise_calib_stim_LEFT.wav	1	29	blb_dichoticlistening_pa-pa.mp3	pa	pa	0	left
6.6.1	win	2023-06-26	19:31:13	19:41:24	607783	5c92aa671ce0cd00128c6c86	2	1	main_z	24	main_z	19	stimuli_distractor_diamondtriangles.svg	stimuli_target_squarediamonds.svg	16	yes	44	1	861	6	3	antiphase_hc_soi.wav	1	6	2	noise_calib_stim_LEFT.wav	1	29	blb_dichoticlistening_pa-pa.mp3	pa	pa	0	left
6.6.1	win	2023-06-26	19:31:13	19:41:24	607783	5c92aa671ce0cd00128c6c86	2	1	main_z	24	advance_on_keypress_ZEE	20	stimuli_distractor_diamondtriangles.svg	stimuli_target_squarediamonds.svg	16	yes	57	0	611	6	3	antiphase_hc_soi.wav	1	6	2	noise_calib_stim_LEFT.wav	1	29	blb_dichoticlistening_pa-pa.mp3	pa	pa	0	left
6.6.1	win	2023-06-26	19:31:13	19:41:26	609979	5c92aa671ce0cd00128c6c86	2	1	main_z	24	main_z	21	stimuli_target_trianglesquares.svg	stimuli_distractor_trianglediamonds.svg	18	yes	44	1	930	6	3	antiphase_hc_soi.wav	1	6	2	noise_calib_stim_LEFT.wav	1	29	blb_dichoticlistening_pa-pa.mp3	pa	pa	0	left
6.6.1	win	2023-06-26	19:31:13	19:41:26	609979	5c92aa671ce0cd00128c6c86	2	1	main_z	24	advance_on_keypress_ZEE	22	stimuli_target_trianglesquares.svg	stimuli_distractor_trianglediamonds.svg	18	yes	57	0	492	6	3	antiphase_hc_soi.wav	1	6	2	noise_calib_stim_LEFT.wav	1	29	blb_dichoticlistening_pa-pa.mp3	pa	pa	0	left
6.6.1	win	2023-06-26	19:31:13	19:41:28	611983	5c92aa671ce0cd00128c6c86	2	1	main_z	24	main_z	23	stimuli_target_trianglerectangles.svg	stimuli_distractor_trianglediamonds.svg	17	yes	44	1	863	6	3	antiphase_hc_soi.wav	1	6	2	noise_calib_stim_LEFT.wav	1	29	blb_dichoticlistening_pa-pa.mp3	pa	pa	0	left
6.6.1	win	2023-06-26	19:31:13	19:41:28	611983	5c92aa671ce0cd00128c6c86	2	1	main_z	24	advance_on_keypress_ZEE	24	stimuli_target_trianglerectangles.svg	stimuli_distractor_trianglediamonds.svg	17	yes	57	0	491	6	3	antiphase_hc_soi.wav	1	6	2	noise_calib_stim_LEFT.wav	1	29	blb_dichoticlistening_pa-pa.mp3	pa	pa	0	left
6.6.1	win	2023-06-26	19:31:13	19:41:30	613938	5c92aa671ce0cd00128c6c86	2	1	main_z	24	main_z	25	stimuli_target_diamondrectangles.svg	stimuli_distractor_diamondtriangles.svg	23	yes	44	1	798	6	3	antiphase_hc_soi.wav	1	6	2	noise_calib_stim_LEFT.wav	1	29	blb_dichoticlistening_pa-pa.mp3	pa	pa	0	left
6.6.1	win	2023-06-26	19:31:13	19:41:30	613938	5c92aa671ce0cd00128c6c86	2	1	main_z	24	advance_on_keypress_ZEE	26	stimuli_target_diamondrectangles.svg	stimuli_distractor_diamondtriangles.svg	23	yes	57	0	437	6	3	antiphase_hc_soi.wav	1	6	2	noise_calib_stim_LEFT.wav	1	29	blb_dichoticlistening_pa-pa.mp3	pa	pa	0	left
6.6.1	win	2023-06-26	19:31:13	19:41:32	615963	5c92aa671ce0cd00128c6c86	2	1	main_z	24	main_z	27	stimuli_distractor_diamondtriangles.svg	stimuli_target_trianglesquares.svg	30	yes	44	1	930	6	3	antiphase_hc_soi.wav	1	6	2	noise_calib_stim_LEFT.wav	1	29	blb_dichoticlistening_pa-pa.mp3	pa	pa	0	left
6.6.1	win	2023-06-26	19:31:13	19:41:32	615963	5c92aa671ce0cd00128c6c86	2	1	main_z	24	advance_on_keypress_ZEE	28	stimuli_distractor_diamondtriangles.svg	stimuli_target_trianglesquares.svg	30	yes	57	0	485	6	3	antiphase_hc_soi.wav	1	6	2	noise_calib_stim_LEFT.wav	1	29	blb_dichoticlistening_pa-pa.mp3	pa	pa	0	left
6.6.1	win	2023-06-26	19:31:13	19:41:34	617866	5c92aa671ce0cd00128c6c86	2	1	main_z	24	main_z	29	stimuli_target_squaretriangles.svg	stimuli_distractor_trianglediamonds.svg	3	yes	44	1	768	6	3	antiphase_hc_soi.wav	1	6	2	noise_calib_stim_LEFT.wav	1	29	blb_dichoticlistening_pa-pa.mp3	pa	pa	0	left
6.6.1	win	2023-06-26	19:31:13	19:41:34	617866	5c92aa671ce0cd00128c6c86	2	1	main_z	24	advance_on_keypress_ZEE	30	stimuli_target_squaretriangles.svg	stimuli_distractor_trianglediamonds.svg	3	yes	57	0	464	6	3	antiphase_hc_soi.wav	1	6	2	noise_calib_stim_LEFT.wav	1	29	blb_dichoticlistening_pa-pa.mp3	pa	pa	0	left
6.6.1	win	2023-06-26	19:31:13	19:41:36	619911	5c92aa671ce0cd00128c6c86	2	1	main_z	24	main_z	31	stimuli_distractor_trianglediamonds.svg	stimuli_target_squarediamonds.svg	12	yes	44	1	941	6	3	antiphase_hc_soi.wav	1	6	2	noise_calib_stim_LEFT.wav	1	29	blb_dichoticlistening_pa-pa.mp3	pa	pa	0	left
6.6.1	win	2023-06-26	19:31:13	19:41:36	619911	5c92aa671ce0cd00128c6c86	2	1	main_z	24	advance_on_keypress_ZEE	32	stimuli_distractor_trianglediamonds.svg	stimuli_target_squarediamonds.svg	12	yes	57	0	511	6	3	antiphase_hc_soi.wav	1	6	2	noise_calib_stim_LEFT.wav	1	29	blb_dichoticlistening_pa-pa.mp3	pa	pa	0	left
6.6.1	win	2023-06-26	19:31:13	19:41:39	622418	5c92aa671ce0cd00128c6c86	2	1	main_z	24	main_z	33	stimuli_distractor_trianglediamonds.svg	stimuli_target_squaretriangles.svg	11	yes	44	1	1344	6	3	antiphase_hc_soi.wav	1	6	2	noise_calib_stim_LEFT.wav	1	29	blb_dichoticlistening_pa-pa.mp3	pa	pa	0	left
6.6.1	win	2023-06-26	19:31:13	19:41:39	622418	5c92aa671ce0cd00128c6c86	2	1	main_z	24	advance_on_keypress_ZEE	34	stimuli_distractor_trianglediamonds.svg	stimuli_target_squaretriangles.svg	11	yes	57	0	650	6	3	antiphase_hc_soi.wav	1	6	2	noise_calib_stim_LEFT.wav	1	29	blb_dichoticlistening_pa-pa.mp3	pa	pa	0	left
6.6.1	win	2023-06-26	19:31:13	19:41:41	624543	5c92aa671ce0cd00128c6c86	2	1	main_z	24	main_z	35	stimuli_target_diamondrectangles.svg	stimuli_distractor_trianglediamonds.svg	19	yes	44	1	806	6	3	antiphase_hc_soi.wav	1	6	2	noise_calib_stim_LEFT.wav	1	29	blb_dichoticlistening_pa-pa.mp3	pa	pa	0	left
6.6.1	win	2023-06-26	19:31:13	19:41:41	624543	5c92aa671ce0cd00128c6c86	2	1	main_z	24	advance_on_keypress_ZEE	36	stimuli_target_diamondrectangles.svg	stimuli_distractor_trianglediamonds.svg	19	yes	57	0	485	6	3	antiphase_hc_soi.wav	1	6	2	noise_calib_stim_LEFT.wav	1	29	blb_dichoticlistening_pa-pa.mp3	pa	pa	0	left
6.6.1	win	2023-06-26	19:31:13	19:41:43	626572	5c92aa671ce0cd00128c6c86	2	1	main_z	24	main_z	37	stimuli_distractor_diamondtriangles.svg	stimuli_target_squaretriangles.svg	15	yes	44	1	870	6	3	antiphase_hc_soi.wav	1	6	2	noise_calib_stim_LEFT.wav	1	29	blb_dichoticlistening_pa-pa.mp3	pa	pa	0	left
6.6.1	win	2023-06-26	19:31:13	19:41:43	626572	5c92aa671ce0cd00128c6c86	2	1	main_z	24	advance_on_keypress_ZEE	38	stimuli_distractor_diamondtriangles.svg	stimuli_target_squaretriangles.svg	15	yes	57	0	403	6	3	antiphase_hc_soi.wav	1	6	2	noise_calib_stim_LEFT.wav	1	29	blb_dichoticlistening_pa-pa.mp3	pa	pa	0	left
6.6.1	win	2023-06-26	19:31:13	19:41:45	628398	5c92aa671ce0cd00128c6c86	2	1	main_z	24	main_z	39	stimuli_target_squaretriangles.svg	stimuli_distractor_diamondtriangles.svg	7	yes	44	1	746	6	3	antiphase_hc_soi.wav	1	6	2	noise_calib_stim_LEFT.wav	1	29	blb_dichoticlistening_pa-pa.mp3	pa	pa	0	left
6.6.1	win	2023-06-26	19:31:13	19:41:45	628398	5c92aa671ce0cd00128c6c86	2	1	main_z	24	advance_on_keypress_ZEE	40	stimuli_target_squaretriangles.svg	stimuli_distractor_diamondtriangles.svg	7	yes	57	0	394	6	3	antiphase_hc_soi.wav	1	6	2	noise_calib_stim_LEFT.wav	1	29	blb_dichoticlistening_pa-pa.mp3	pa	pa	0	left
6.6.1	win	2023-06-26	19:31:13	19:41:48	631450	5c92aa671ce0cd00128c6c86	2	1	main_z	24	main_z	41	stimuli_distractor_diamondtriangles.svg	stimuli_distractor_diamondtriangles.svg	40	no	0	1	2000	6	3	antiphase_hc_soi.wav	1	6	2	noise_calib_stim_LEFT.wav	1	29	blb_dichoticlistening_pa-pa.mp3	pa	pa	0	left
6.6.1	win	2023-06-26	19:31:13	19:41:48	631450	5c92aa671ce0cd00128c6c86	2	1	main_z	24	advance_on_keypress_ZEE	42	stimuli_distractor_diamondtriangles.svg	stimuli_distractor_diamondtriangles.svg	40	no	57	0	559	6	3	antiphase_hc_soi.wav	1	6	2	noise_calib_stim_LEFT.wav	1	29	blb_dichoticlistening_pa-pa.mp3	pa	pa	0	left
6.6.1	win	2023-06-26	19:31:13	19:41:50	633458	5c92aa671ce0cd00128c6c86	2	1	main_z	24	main_z	43	stimuli_target_trianglesquares.svg	stimuli_distractor_diamondtriangles.svg	22	yes	44	1	784	6	3	antiphase_hc_soi.wav	1	6	2	noise_calib_stim_LEFT.wav	1	29	blb_dichoticlistening_pa-pa.mp3	pa	pa	0	left
6.6.1	win	2023-06-26	19:31:13	19:41:50	633458	5c92aa671ce0cd00128c6c86	2	1	main_z	24	advance_on_keypress_ZEE	44	stimuli_target_trianglesquares.svg	stimuli_distractor_diamondtriangles.svg	22	yes	57	0	479	6	3	antiphase_hc_soi.wav	1	6	2	noise_calib_stim_LEFT.wav	1	29	blb_dichoticlistening_pa-pa.mp3	pa	pa	0	left
6.6.1	win	2023-06-26	19:31:13	19:41:52	635375	5c92aa671ce0cd00128c6c86	2	1	main_z	24	main_z	45	stimuli_target_diamondsquares.svg	stimuli_distractor_trianglediamonds.svg	20	yes	44	1	787	6	3	antiphase_hc_soi.wav	1	6	2	noise_calib_stim_LEFT.wav	1	29	blb_dichoticlistening_pa-pa.mp3	pa	pa	0	left
6.6.1	win	2023-06-26	19:31:13	19:41:52	635375	5c92aa671ce0cd00128c6c86	2	1	main_z	24	advance_on_keypress_ZEE	46	stimuli_target_diamondsquares.svg	stimuli_distractor_trianglediamonds.svg	20	yes	57	0	540	6	3	antiphase_hc_soi.wav	1	6	2	noise_calib_stim_LEFT.wav	1	29	blb_dichoticlistening_pa-pa.mp3	pa	pa	0	left
6.6.1	win	2023-06-26	19:31:13	19:41:54	637326	5c92aa671ce0cd00128c6c86	2	1	main_z	24	main_z	47	stimuli_distractor_diamondtriangles.svg	stimuli_target_rectanglediamonds.svg	14	yes	44	1	757	6	3	antiphase_hc_soi.wav	1	6	2	noise_calib_stim_LEFT.wav	1	29	blb_dichoticlistening_pa-pa.mp3	pa	pa	0	left
6.6.1	win	2023-06-26	19:31:13	19:41:54	637326	5c92aa671ce0cd00128c6c86	2	1	main_z	24	advance_on_keypress_ZEE	48	stimuli_distractor_diamondtriangles.svg	stimuli_target_rectanglediamonds.svg	14	yes	57	0	438	6	3	antiphase_hc_soi.wav	1	6	2	noise_calib_stim_LEFT.wav	1	29	blb_dichoticlistening_pa-pa.mp3	pa	pa	0	left
6.6.1	win	2023-06-26	19:31:13	19:41:56	639173	5c92aa671ce0cd00128c6c86	2	1	main_z	24	main_z	49	stimuli_distractor_trianglediamonds.svg	stimuli_target_diamondsquares.svg	28	yes	44	1	745	6	3	antiphase_hc_soi.wav	1	6	2	noise_calib_stim_LEFT.wav	1	29	blb_dichoticlistening_pa-pa.mp3	pa	pa	0	left
6.6.1	win	2023-06-26	19:31:13	19:41:56	639173	5c92aa671ce0cd00128c6c86	2	1	main_z	24	advance_on_keypress_ZEE	50	stimuli_distractor_trianglediamonds.svg	stimuli_target_diamondsquares.svg	28	yes	57	0	380	6	3	antiphase_hc_soi.wav	1	6	2	noise_calib_stim_LEFT.wav	1	29	blb_dichoticlistening_pa-pa.mp3	pa	pa	0	left
6.6.1	win	2023-06-26	19:31:13	19:41:58	641178	5c92aa671ce0cd00128c6c86	2	1	main_z	24	main_z	51	stimuli_distractor_trianglediamonds.svg	stimuli_target_rectangletriangles.svg	9	yes	44	1	971	6	3	antiphase_hc_soi.wav	1	6	2	noise_calib_stim_LEFT.wav	1	29	blb_dichoticlistening_pa-pa.mp3	pa	pa	0	left
6.6.1	win	2023-06-26	19:31:13	19:41:58	641178	5c92aa671ce0cd00128c6c86	2	1	main_z	24	advance_on_keypress_ZEE	52	stimuli_distractor_trianglediamonds.svg	stimuli_target_rectangletriangles.svg	9	yes	57	0	387	6	3	antiphase_hc_soi.wav	1	6	2	noise_calib_stim_LEFT.wav	1	29	blb_dichoticlistening_pa-pa.mp3	pa	pa	0	left
6.6.1	win	2023-06-26	19:31:13	19:41:59	642996	5c92aa671ce0cd00128c6c86	2	1	main_z	24	main_z	53	stimuli_target_squarediamonds.svg	stimuli_distractor_diamondtriangles.svg	8	yes	44	1	786	6	3	antiphase_hc_soi.wav	1	6	2	noise_calib_stim_LEFT.wav	1	29	blb_dichoticlistening_pa-pa.mp3	pa	pa	0	left
6.6.1	win	2023-06-26	19:31:13	19:41:59	642996	5c92aa671ce0cd00128c6c86	2	1	main_z	24	advance_on_keypress_ZEE	54	stimuli_target_squarediamonds.svg	stimuli_distractor_diamondtriangles.svg	8	yes	57	0	346	6	3	antiphase_hc_soi.wav	1	6	2	noise_calib_stim_LEFT.wav	1	29	blb_dichoticlistening_pa-pa.mp3	pa	pa	0	left
6.6.1	win	2023-06-26	19:31:13	19:42:02	645113	5c92aa671ce0cd00128c6c86	2	1	main_z	24	main_z	55	stimuli_distractor_diamondtriangles.svg	stimuli_target_diamondrectangles.svg	31	yes	44	1	1115	6	3	antiphase_hc_soi.wav	1	6	2	noise_calib_stim_LEFT.wav	1	29	blb_dichoticlistening_pa-pa.mp3	pa	pa	0	left
6.6.1	win	2023-06-26	19:31:13	19:42:02	645113	5c92aa671ce0cd00128c6c86	2	1	main_z	24	advance_on_keypress_ZEE	56	stimuli_distractor_diamondtriangles.svg	stimuli_target_diamondrectangles.svg	31	yes	57	0	413	6	3	antiphase_hc_soi.wav	1	6	2	noise_calib_stim_LEFT.wav	1	29	blb_dichoticlistening_pa-pa.mp3	pa	pa	0	left
6.6.1	win	2023-06-26	19:31:13	19:42:03	646983	5c92aa671ce0cd00128c6c86	2	1	main_z	24	main_z	57	stimuli_distractor_trianglediamonds.svg	stimuli_target_trianglerectangles.svg	25	yes	44	1	804	6	3	antiphase_hc_soi.wav	1	6	2	noise_calib_stim_LEFT.wav	1	29	blb_dichoticlistening_pa-pa.mp3	pa	pa	0	left
6.6.1	win	2023-06-26	19:31:13	19:42:03	646983	5c92aa671ce0cd00128c6c86	2	1	main_z	24	advance_on_keypress_ZEE	58	stimuli_distractor_trianglediamonds.svg	stimuli_target_trianglerectangles.svg	25	yes	57	0	507	6	3	antiphase_hc_soi.wav	1	6	2	noise_calib_stim_LEFT.wav	1	29	blb_dichoticlistening_pa-pa.mp3	pa	pa	0	left
6.6.1	win	2023-06-26	19:31:13	19:42:07	650148	5c92aa671ce0cd00128c6c86	2	1	main_z	24	main_z	59	stimuli_distractor_trianglediamonds.svg	stimuli_distractor_trianglediamonds.svg	34	no	0	1	2000	6	3	antiphase_hc_soi.wav	1	6	2	noise_calib_stim_LEFT.wav	1	29	blb_dichoticlistening_pa-pa.mp3	pa	pa	0	left
6.6.1	win	2023-06-26	19:31:13	19:42:07	650148	5c92aa671ce0cd00128c6c86	2	1	main_z	24	advance_on_keypress_ZEE	60	stimuli_distractor_trianglediamonds.svg	stimuli_distractor_trianglediamonds.svg	34	no	57	0	427	6	3	antiphase_hc_soi.wav	1	6	2	noise_calib_stim_LEFT.wav	1	29	blb_dichoticlistening_pa-pa.mp3	pa	pa	0	left
6.6.1	win	2023-06-26	19:31:13	19:42:08	651977	5c92aa671ce0cd00128c6c86	2	1	main_z	24	main_z	61	stimuli_distractor_trianglediamonds.svg	stimuli_target_trianglesquares.svg	26	yes	44	1	754	6	3	antiphase_hc_soi.wav	1	6	2	noise_calib_stim_LEFT.wav	1	29	blb_dichoticlistening_pa-pa.mp3	pa	pa	0	left
6.6.1	win	2023-06-26	19:31:13	19:42:08	651977	5c92aa671ce0cd00128c6c86	2	1	main_z	24	advance_on_keypress_ZEE	62	stimuli_distractor_trianglediamonds.svg	stimuli_target_trianglesquares.svg	26	yes	57	0	338	6	3	antiphase_hc_soi.wav	1	6	2	noise_calib_stim_LEFT.wav	1	29	blb_dichoticlistening_pa-pa.mp3	pa	pa	0	left
6.6.1	win	2023-06-26	19:31:13	19:42:10	653737	5c92aa671ce0cd00128c6c86	2	1	main_z	24	main_z	63	stimuli_target_trianglerectangles.svg	stimuli_distractor_diamondtriangles.svg	21	yes	44	1	763	6	3	antiphase_hc_soi.wav	1	6	2	noise_calib_stim_LEFT.wav	1	29	blb_dichoticlistening_pa-pa.mp3	pa	pa	0	left
6.6.1	win	2023-06-26	19:31:13	19:42:10	653737	5c92aa671ce0cd00128c6c86	2	1	main_z	24	advance_on_keypress_ZEE	64	stimuli_target_trianglerectangles.svg	stimuli_distractor_diamondtriangles.svg	21	yes	57	0	348	6	3	antiphase_hc_soi.wav	1	6	2	noise_calib_stim_LEFT.wav	1	29	blb_dichoticlistening_pa-pa.mp3	pa	pa	0	left
6.6.1	win	2023-06-26	19:31:13	19:42:12	655579	5c92aa671ce0cd00128c6c86	2	1	main_z	24	main_z	65	stimuli_distractor_trianglediamonds.svg	stimuli_target_rectanglediamonds.svg	10	yes	44	1	819	6	3	antiphase_hc_soi.wav	1	6	2	noise_calib_stim_LEFT.wav	1	29	blb_dichoticlistening_pa-pa.mp3	pa	pa	0	left
6.6.1	win	2023-06-26	19:31:13	19:42:12	655579	5c92aa671ce0cd00128c6c86	2	1	main_z	24	advance_on_keypress_ZEE	66	stimuli_distractor_trianglediamonds.svg	stimuli_target_rectanglediamonds.svg	10	yes	57	0	323	6	3	antiphase_hc_soi.wav	1	6	2	noise_calib_stim_LEFT.wav	1	29	blb_dichoticlistening_pa-pa.mp3	pa	pa	0	left
6.6.1	win	2023-06-26	19:31:13	19:42:14	657387	5c92aa671ce0cd00128c6c86	2	1	main_z	24	main_z	67	stimuli_distractor_diamondtriangles.svg	stimuli_target_diamondsquares.svg	32	yes	44	1	828	6	3	antiphase_hc_soi.wav	1	6	2	noise_calib_stim_LEFT.wav	1	29	blb_dichoticlistening_pa-pa.mp3	pa	pa	0	left
6.6.1	win	2023-06-26	19:31:13	19:42:14	657387	5c92aa671ce0cd00128c6c86	2	1	main_z	24	advance_on_keypress_ZEE	68	stimuli_distractor_diamondtriangles.svg	stimuli_target_diamondsquares.svg	32	yes	57	0	257	6	3	antiphase_hc_soi.wav	1	6	2	noise_calib_stim_LEFT.wav	1	29	blb_dichoticlistening_pa-pa.mp3	pa	pa	0	left
6.6.1	win	2023-06-26	19:31:13	19:42:17	660318	5c92aa671ce0cd00128c6c86	2	1	main_z	24	main_z	69	stimuli_distractor_diamondtriangles.svg	stimuli_distractor_trianglediamonds.svg	37	no	0	1	2000	6	3	antiphase_hc_soi.wav	1	6	2	noise_calib_stim_LEFT.wav	1	29	blb_dichoticlistening_pa-pa.mp3	pa	pa	0	left
6.6.1	win	2023-06-26	19:31:13	19:42:17	660318	5c92aa671ce0cd00128c6c86	2	1	main_z	24	advance_on_keypress_ZEE	70	stimuli_distractor_diamondtriangles.svg	stimuli_distractor_trianglediamonds.svg	37	no	57	0	540	6	3	antiphase_hc_soi.wav	1	6	2	noise_calib_stim_LEFT.wav	1	29	blb_dichoticlistening_pa-pa.mp3	pa	pa	0	left
6.6.1	win	2023-06-26	19:31:13	19:42:19	662921	5c92aa671ce0cd00128c6c86	2	1	main_z	24	main_z	71	stimuli_distractor_diamondtriangles.svg	stimuli_distractor_trianglediamonds.svg	38	no	44	0	1397	6	3	antiphase_hc_soi.wav	1	6	2	noise_calib_stim_LEFT.wav	1	29	blb_dichoticlistening_pa-pa.mp3	pa	pa	0	left
6.6.1	win	2023-06-26	19:31:13	19:42:19	662921	5c92aa671ce0cd00128c6c86	2	1	main_z	24	advance_on_keypress_ZEE	72	stimuli_distractor_diamondtriangles.svg	stimuli_distractor_trianglediamonds.svg	38	no	57	0	469	6	3	antiphase_hc_soi.wav	1	6	2	noise_calib_stim_LEFT.wav	1	29	blb_dichoticlistening_pa-pa.mp3	pa	pa	0	left
6.6.1	win	2023-06-26	19:31:13	19:42:22	666042	5c92aa671ce0cd00128c6c86	2	1	main_z	24	main_z	73	stimuli_distractor_trianglediamonds.svg	stimuli_distractor_trianglediamonds.svg	33	no	0	1	2000	6	3	antiphase_hc_soi.wav	1	6	2	noise_calib_stim_LEFT.wav	1	29	blb_dichoticlistening_pa-pa.mp3	pa	pa	0	left
6.6.1	win	2023-06-26	19:31:13	19:42:22	666042	5c92aa671ce0cd00128c6c86	2	1	main_z	24	advance_on_keypress_ZEE	74	stimuli_distractor_trianglediamonds.svg	stimuli_distractor_trianglediamonds.svg	33	no	57	0	648	6	3	antiphase_hc_soi.wav	1	6	2	noise_calib_stim_LEFT.wav	1	29	blb_dichoticlistening_pa-pa.mp3	pa	pa	0	left
6.6.1	win	2023-06-26	19:31:13	19:42:26	669340	5c92aa671ce0cd00128c6c86	2	1	main_z	24	main_z	75	stimuli_distractor_trianglediamonds.svg	stimuli_distractor_diamondtriangles.svg	36	no	0	1	2000	6	3	antiphase_hc_soi.wav	1	6	2	noise_calib_stim_LEFT.wav	1	29	blb_dichoticlistening_pa-pa.mp3	pa	pa	0	left
6.6.1	win	2023-06-26	19:31:13	19:42:26	669340	5c92aa671ce0cd00128c6c86	2	1	main_z	24	advance_on_keypress_ZEE	76	stimuli_distractor_trianglediamonds.svg	stimuli_distractor_diamondtriangles.svg	36	no	57	0	443	6	3	antiphase_hc_soi.wav	1	6	2	noise_calib_stim_LEFT.wav	1	29	blb_dichoticlistening_pa-pa.mp3	pa	pa	0	left
6.6.1	win	2023-06-26	19:31:13	19:42:28	671237	5c92aa671ce0cd00128c6c86	2	1	main_z	24	main_z	77	stimuli_distractor_diamondtriangles.svg	stimuli_target_trianglerectangles.svg	29	yes	44	1	808	6	3	antiphase_hc_soi.wav	1	6	2	noise_calib_stim_LEFT.wav	1	29	blb_dichoticlistening_pa-pa.mp3	pa	pa	0	left
6.6.1	win	2023-06-26	19:31:13	19:42:28	671237	5c92aa671ce0cd00128c6c86	2	1	main_z	24	advance_on_keypress_ZEE	78	stimuli_distractor_diamondtriangles.svg	stimuli_target_trianglerectangles.svg	29	yes	57	0	368	6	3	antiphase_hc_soi.wav	1	6	2	noise_calib_stim_LEFT.wav	1	29	blb_dichoticlistening_pa-pa.mp3	pa	pa	0	left
6.6.1	win	2023-06-26	19:31:13	19:42:31	674263	5c92aa671ce0cd00128c6c86	2	1	main_z	24	main_z	79	stimuli_distractor_trianglediamonds.svg	stimuli_distractor_diamondtriangles.svg	35	no	0	1	2000	6	3	antiphase_hc_soi.wav	1	6	2	noise_calib_stim_LEFT.wav	1	29	blb_dichoticlistening_pa-pa.mp3	pa	pa	0	left
6.6.1	win	2023-06-26	19:31:13	19:42:31	674263	5c92aa671ce0cd00128c6c86	2	1	main_z	24	advance_on_keypress_ZEE	80	stimuli_distractor_trianglediamonds.svg	stimuli_distractor_diamondtriangles.svg	35	no	57	0	391	6	3	antiphase_hc_soi.wav	1	6	2	noise_calib_stim_LEFT.wav	1	29	blb_dichoticlistening_pa-pa.mp3	pa	pa	0	left
6.6.1	win	2023-06-26	19:31:13	19:42:32	676067	5c92aa671ce0cd00128c6c86	2	1	main_z	24	main_z	81	stimuli_distractor_diamondtriangles.svg	stimuli_target_rectangletriangles.svg	13	yes	44	1	774	6	3	antiphase_hc_soi.wav	1	6	2	noise_calib_stim_LEFT.wav	1	29	blb_dichoticlistening_pa-pa.mp3	pa	pa	0	left
6.6.1	win	2023-06-26	19:31:13	19:42:32	676067	5c92aa671ce0cd00128c6c86	2	1	main_z	24	advance_on_keypress_ZEE	82	stimuli_distractor_diamondtriangles.svg	stimuli_target_rectangletriangles.svg	13	yes	57	0	470	6	3	antiphase_hc_soi.wav	1	6	2	noise_calib_stim_LEFT.wav	1	29	blb_dichoticlistening_pa-pa.mp3	pa	pa	0	left
6.6.1	win	2023-06-26	19:31:13	19:42:34	678058	5c92aa671ce0cd00128c6c86	2	1	main_z	24	main_z	83	stimuli_distractor_diamondtriangles.svg	stimuli_target_rectanglediamonds.svg	14	yes	44	1	858	6	3	antiphase_hc_soi.wav	1	6	2	noise_calib_stim_LEFT.wav	1	29	blb_dichoticlistening_pa-pa.mp3	pa	pa	0	left
6.6.1	win	2023-06-26	19:31:13	19:42:34	678058	5c92aa671ce0cd00128c6c86	2	1	main_z	24	advance_on_keypress_ZEE	84	stimuli_distractor_diamondtriangles.svg	stimuli_target_rectanglediamonds.svg	14	yes	57	0	295	6	3	antiphase_hc_soi.wav	1	6	2	noise_calib_stim_LEFT.wav	1	29	blb_dichoticlistening_pa-pa.mp3	pa	pa	0	left
6.6.1	win	2023-06-26	19:31:13	19:42:36	679890	5c92aa671ce0cd00128c6c86	2	1	main_z	24	main_z	85	stimuli_distractor_trianglediamonds.svg	stimuli_distractor_trianglediamonds.svg	33	no	44	0	880	6	3	antiphase_hc_soi.wav	1	6	2	noise_calib_stim_LEFT.wav	1	29	blb_dichoticlistening_pa-pa.mp3	pa	pa	0	left
6.6.1	win	2023-06-26	19:31:13	19:42:36	679890	5c92aa671ce0cd00128c6c86	2	1	main_z	24	advance_on_keypress_ZEE	86	stimuli_distractor_trianglediamonds.svg	stimuli_distractor_trianglediamonds.svg	33	no	57	0	316	6	3	antiphase_hc_soi.wav	1	6	2	noise_calib_stim_LEFT.wav	1	29	blb_dichoticlistening_pa-pa.mp3	pa	pa	0	left
6.6.1	win	2023-06-26	19:31:13	19:42:39	682198	5c92aa671ce0cd00128c6c86	2	1	main_z	24	main_z	87	stimuli_target_squaretriangles.svg	stimuli_distractor_trianglediamonds.svg	3	yes	44	1	1335	6	3	antiphase_hc_soi.wav	1	6	2	noise_calib_stim_LEFT.wav	1	29	blb_dichoticlistening_pa-pa.mp3	pa	pa	0	left
6.6.1	win	2023-06-26	19:31:13	19:42:39	682198	5c92aa671ce0cd00128c6c86	2	1	main_z	24	advance_on_keypress_ZEE	88	stimuli_target_squaretriangles.svg	stimuli_distractor_trianglediamonds.svg	3	yes	57	0	433	6	3	antiphase_hc_soi.wav	1	6	2	noise_calib_stim_LEFT.wav	1	29	blb_dichoticlistening_pa-pa.mp3	pa	pa	0	left
6.6.1	win	2023-06-26	19:31:13	19:42:40	684044	5c92aa671ce0cd00128c6c86	2	1	main_z	24	main_z	89	stimuli_distractor_trianglediamonds.svg	stimuli_target_rectanglediamonds.svg	10	yes	44	1	749	6	3	antiphase_hc_soi.wav	1	6	2	noise_calib_stim_LEFT.wav	1	29	blb_dichoticlistening_pa-pa.mp3	pa	pa	0	left
6.6.1	win	2023-06-26	19:31:13	19:42:40	684044	5c92aa671ce0cd00128c6c86	2	1	main_z	24	advance_on_keypress_ZEE	90	stimuli_distractor_trianglediamonds.svg	stimuli_target_rectanglediamonds.svg	10	yes	57	0	335	6	3	antiphase_hc_soi.wav	1	6	2	noise_calib_stim_LEFT.wav	1	29	blb_dichoticlistening_pa-pa.mp3	pa	pa	0	left
6.6.1	win	2023-06-26	19:31:13	19:42:42	685783	5c92aa671ce0cd00128c6c86	2	1	main_z	24	main_z	91	stimuli_distractor_diamondtriangles.svg	stimuli_target_squaretriangles.svg	15	yes	44	1	752	6	3	antiphase_hc_soi.wav	1	6	2	noise_calib_stim_LEFT.wav	1	29	blb_dichoticlistening_pa-pa.mp3	pa	pa	0	left
6.6.1	win	2023-06-26	19:31:13	19:42:42	685783	5c92aa671ce0cd00128c6c86	2	1	main_z	24	advance_on_keypress_ZEE	92	stimuli_distractor_diamondtriangles.svg	stimuli_target_squaretriangles.svg	15	yes	57	0	290	6	3	antiphase_hc_soi.wav	1	6	2	noise_calib_stim_LEFT.wav	1	29	blb_dichoticlistening_pa-pa.mp3	pa	pa	0	left
6.6.1	win	2023-06-26	19:31:13	19:42:45	688716	5c92aa671ce0cd00128c6c86	2	1	main_z	24	main_z	93	stimuli_distractor_diamondtriangles.svg	stimuli_distractor_diamondtriangles.svg	39	no	0	1	2000	6	3	antiphase_hc_soi.wav	1	6	2	noise_calib_stim_LEFT.wav	1	29	blb_dichoticlistening_pa-pa.mp3	pa	pa	0	left
6.6.1	win	2023-06-26	19:31:13	19:42:45	688716	5c92aa671ce0cd00128c6c86	2	1	main_z	24	advance_on_keypress_ZEE	94	stimuli_distractor_diamondtriangles.svg	stimuli_distractor_diamondtriangles.svg	39	no	57	0	476	6	3	antiphase_hc_soi.wav	1	6	2	noise_calib_stim_LEFT.wav	1	29	blb_dichoticlistening_pa-pa.mp3	pa	pa	0	left
6.6.1	win	2023-06-26	19:31:13	19:42:48	691280	5c92aa671ce0cd00128c6c86	2	1	main_z	24	main_z	95	stimuli_distractor_diamondtriangles.svg	stimuli_target_squarediamonds.svg	16	yes	44	1	1431	6	3	antiphase_hc_soi.wav	1	6	2	noise_calib_stim_LEFT.wav	1	29	blb_dichoticlistening_pa-pa.mp3	pa	pa	0	left
6.6.1	win	2023-06-26	19:31:13	19:42:48	691280	5c92aa671ce0cd00128c6c86	2	1	main_z	24	advance_on_keypress_ZEE	96	stimuli_distractor_diamondtriangles.svg	stimuli_target_squarediamonds.svg	16	yes	57	0	774	6	3	antiphase_hc_soi.wav	1	6	2	noise_calib_stim_LEFT.wav	1	29	blb_dichoticlistening_pa-pa.mp3	pa	pa	0	left
6.6.1	win	2023-06-26	19:31:13	19:42:50	693576	5c92aa671ce0cd00128c6c86	2	1	main_z	24	main_z	97	stimuli_distractor_diamondtriangles.svg	stimuli_target_trianglesquares.svg	30	yes	44	1	869	6	3	antiphase_hc_soi.wav	1	6	2	noise_calib_stim_LEFT.wav	1	29	blb_dichoticlistening_pa-pa.mp3	pa	pa	0	left
6.6.1	win	2023-06-26	19:31:13	19:42:50	693576	5c92aa671ce0cd00128c6c86	2	1	main_z	24	advance_on_keypress_ZEE	98	stimuli_distractor_diamondtriangles.svg	stimuli_target_trianglesquares.svg	30	yes	57	0	306	6	3	antiphase_hc_soi.wav	1	6	2	noise_calib_stim_LEFT.wav	1	29	blb_dichoticlistening_pa-pa.mp3	pa	pa	0	left
6.6.1	win	2023-06-26	19:31:13	19:42:52	695396	5c92aa671ce0cd00128c6c86	2	1	main_z	24	main_z	99	stimuli_distractor_diamondtriangles.svg	stimuli_target_diamondrectangles.svg	31	yes	44	1	851	6	3	antiphase_hc_soi.wav	1	6	2	noise_calib_stim_LEFT.wav	1	29	blb_dichoticlistening_pa-pa.mp3	pa	pa	0	left
6.6.1	win	2023-06-26	19:31:13	19:42:52	695396	5c92aa671ce0cd00128c6c86	2	1	main_z	24	advance_on_keypress_ZEE	100	stimuli_distractor_diamondtriangles.svg	stimuli_target_diamondrectangles.svg	31	yes	57	0	320	6	3	antiphase_hc_soi.wav	1	6	2	noise_calib_stim_LEFT.wav	1	29	blb_dichoticlistening_pa-pa.mp3	pa	pa	0	left
6.6.1	win	2023-06-26	19:31:13	19:42:54	697151	5c92aa671ce0cd00128c6c86	2	1	main_z	24	main_z	101	stimuli_target_squaretriangles.svg	stimuli_distractor_diamondtriangles.svg	7	yes	44	1	787	6	3	antiphase_hc_soi.wav	1	6	2	noise_calib_stim_LEFT.wav	1	29	blb_dichoticlistening_pa-pa.mp3	pa	pa	0	left
6.6.1	win	2023-06-26	19:31:13	19:42:54	697151	5c92aa671ce0cd00128c6c86	2	1	main_z	24	advance_on_keypress_ZEE	102	stimuli_target_squaretriangles.svg	stimuli_distractor_diamondtriangles.svg	7	yes	57	0	258	6	3	antiphase_hc_soi.wav	1	6	2	noise_calib_stim_LEFT.wav	1	29	blb_dichoticlistening_pa-pa.mp3	pa	pa	0	left
6.6.1	win	2023-06-26	19:31:13	19:42:55	698856	5c92aa671ce0cd00128c6c86	2	1	main_z	24	main_z	103	stimuli_distractor_trianglediamonds.svg	stimuli_target_squarediamonds.svg	12	yes	44	1	790	6	3	antiphase_hc_soi.wav	1	6	2	noise_calib_stim_LEFT.wav	1	29	blb_dichoticlistening_pa-pa.mp3	pa	pa	0	left
6.6.1	win	2023-06-26	19:31:13	19:42:55	698856	5c92aa671ce0cd00128c6c86	2	1	main_z	24	advance_on_keypress_ZEE	104	stimuli_distractor_trianglediamonds.svg	stimuli_target_squarediamonds.svg	12	yes	57	0	230	6	3	antiphase_hc_soi.wav	1	6	2	noise_calib_stim_LEFT.wav	1	29	blb_dichoticlistening_pa-pa.mp3	pa	pa	0	left
6.6.1	win	2023-06-26	19:31:13	19:42:57	700492	5c92aa671ce0cd00128c6c86	2	1	main_z	24	main_z	105	stimuli_target_rectanglediamonds.svg	stimuli_distractor_trianglediamonds.svg	2	yes	44	1	739	6	3	antiphase_hc_soi.wav	1	6	2	noise_calib_stim_LEFT.wav	1	29	blb_dichoticlistening_pa-pa.mp3	pa	pa	0	left
6.6.1	win	2023-06-26	19:31:13	19:42:57	700492	5c92aa671ce0cd00128c6c86	2	1	main_z	24	advance_on_keypress_ZEE	106	stimuli_target_rectanglediamonds.svg	stimuli_distractor_trianglediamonds.svg	2	yes	57	0	229	6	3	antiphase_hc_soi.wav	1	6	2	noise_calib_stim_LEFT.wav	1	29	blb_dichoticlistening_pa-pa.mp3	pa	pa	0	left
6.6.1	win	2023-06-26	19:31:13	19:42:59	702323	5c92aa671ce0cd00128c6c86	2	1	main_z	24	main_z	107	stimuli_distractor_trianglediamonds.svg	stimuli_target_squaretriangles.svg	11	yes	44	1	938	6	3	antiphase_hc_soi.wav	1	6	2	noise_calib_stim_LEFT.wav	1	29	blb_dichoticlistening_pa-pa.mp3	pa	pa	0	left
6.6.1	win	2023-06-26	19:31:13	19:42:59	702323	5c92aa671ce0cd00128c6c86	2	1	main_z	24	advance_on_keypress_ZEE	108	stimuli_distractor_trianglediamonds.svg	stimuli_target_squaretriangles.svg	11	yes	57	0	219	6	3	antiphase_hc_soi.wav	1	6	2	noise_calib_stim_LEFT.wav	1	29	blb_dichoticlistening_pa-pa.mp3	pa	pa	0	left
6.6.1	win	2023-06-26	19:31:13	19:43:02	705192	5c92aa671ce0cd00128c6c86	2	1	main_z	24	main_z	109	stimuli_distractor_diamondtriangles.svg	stimuli_distractor_diamondtriangles.svg	40	no	0	1	2000	6	3	antiphase_hc_soi.wav	1	6	2	noise_calib_stim_LEFT.wav	1	29	blb_dichoticlistening_pa-pa.mp3	pa	pa	0	left
6.6.1	win	2023-06-26	19:31:13	19:43:02	705192	5c92aa671ce0cd00128c6c86	2	1	main_z	24	advance_on_keypress_ZEE	110	stimuli_distractor_diamondtriangles.svg	stimuli_distractor_diamondtriangles.svg	40	no	57	0	271	6	3	antiphase_hc_soi.wav	1	6	2	noise_calib_stim_LEFT.wav	1	29	blb_dichoticlistening_pa-pa.mp3	pa	pa	0	left
6.6.1	win	2023-06-26	19:31:13	19:43:03	706847	5c92aa671ce0cd00128c6c86	2	1	main_z	24	main_z	111	stimuli_target_trianglesquares.svg	stimuli_distractor_diamondtriangles.svg	22	yes	44	1	724	6	3	antiphase_hc_soi.wav	1	6	2	noise_calib_stim_LEFT.wav	1	29	blb_dichoticlistening_pa-pa.mp3	pa	pa	0	left
6.6.1	win	2023-06-26	19:31:13	19:43:03	706847	5c92aa671ce0cd00128c6c86	2	1	main_z	24	advance_on_keypress_ZEE	112	stimuli_target_trianglesquares.svg	stimuli_distractor_diamondtriangles.svg	22	yes	57	0	238	6	3	antiphase_hc_soi.wav	1	6	2	noise_calib_stim_LEFT.wav	1	29	blb_dichoticlistening_pa-pa.mp3	pa	pa	0	left
6.6.1	win	2023-06-26	19:31:13	19:43:05	708391	5c92aa671ce0cd00128c6c86	2	1	main_z	24	main_z	113	stimuli_target_squarediamonds.svg	stimuli_distractor_trianglediamonds.svg	4	yes	44	1	659	6	3	antiphase_hc_soi.wav	1	6	2	noise_calib_stim_LEFT.wav	1	29	blb_dichoticlistening_pa-pa.mp3	pa	pa	0	left
6.6.1	win	2023-06-26	19:31:13	19:43:05	708391	5c92aa671ce0cd00128c6c86	2	1	main_z	24	advance_on_keypress_ZEE	114	stimuli_target_squarediamonds.svg	stimuli_distractor_trianglediamonds.svg	4	yes	57	0	207	6	3	antiphase_hc_soi.wav	1	6	2	noise_calib_stim_LEFT.wav	1	29	blb_dichoticlistening_pa-pa.mp3	pa	pa	0	left
6.6.1	win	2023-06-26	19:31:13	19:43:06	709958	5c92aa671ce0cd00128c6c86	2	1	main_z	24	main_z	115	stimuli_distractor_trianglediamonds.svg	stimuli_target_diamondrectangles.svg	27	yes	44	1	702	6	3	antiphase_hc_soi.wav	1	6	2	noise_calib_stim_LEFT.wav	1	29	blb_dichoticlistening_pa-pa.mp3	pa	pa	0	left
6.6.1	win	2023-06-26	19:31:13	19:43:06	709958	5c92aa671ce0cd00128c6c86	2	1	main_z	24	advance_on_keypress_ZEE	116	stimuli_distractor_trianglediamonds.svg	stimuli_target_diamondrectangles.svg	27	yes	57	0	210	6	3	antiphase_hc_soi.wav	1	6	2	noise_calib_stim_LEFT.wav	1	29	blb_dichoticlistening_pa-pa.mp3	pa	pa	0	left
6.6.1	win	2023-06-26	19:31:13	19:43:08	711543	5c92aa671ce0cd00128c6c86	2	1	main_z	24	main_z	117	stimuli_target_diamondrectangles.svg	stimuli_distractor_diamondtriangles.svg	23	yes	44	1	711	6	3	antiphase_hc_soi.wav	1	6	2	noise_calib_stim_LEFT.wav	1	29	blb_dichoticlistening_pa-pa.mp3	pa	pa	0	left
6.6.1	win	2023-06-26	19:31:13	19:43:08	711543	5c92aa671ce0cd00128c6c86	2	1	main_z	24	advance_on_keypress_ZEE	118	stimuli_target_diamondrectangles.svg	stimuli_distractor_diamondtriangles.svg	23	yes	57	0	194	6	3	antiphase_hc_soi.wav	1	6	2	noise_calib_stim_LEFT.wav	1	29	blb_dichoticlistening_pa-pa.mp3	pa	pa	0	left
6.6.1	win	2023-06-26	19:31:13	19:43:09	713087	5c92aa671ce0cd00128c6c86	2	1	main_z	24	main_z	119	stimuli_distractor_trianglediamonds.svg	stimuli_target_rectangletriangles.svg	9	yes	44	1	705	6	3	antiphase_hc_soi.wav	1	6	2	noise_calib_stim_LEFT.wav	1	29	blb_dichoticlistening_pa-pa.mp3	pa	pa	0	left
6.6.1	win	2023-06-26	19:31:13	19:43:09	713087	5c92aa671ce0cd00128c6c86	2	1	main_z	24	advance_on_keypress_ZEE	120	stimuli_distractor_trianglediamonds.svg	stimuli_target_rectangletriangles.svg	9	yes	57	0	204	6	3	antiphase_hc_soi.wav	1	6	2	noise_calib_stim_LEFT.wav	1	29	blb_dichoticlistening_pa-pa.mp3	pa	pa	0	left
6.6.1	win	2023-06-26	19:31:13	19:43:12	715958	5c92aa671ce0cd00128c6c86	2	1	main_z	24	main_z	121	stimuli_distractor_trianglediamonds.svg	stimuli_distractor_trianglediamonds.svg	34	no	0	1	2000	6	3	antiphase_hc_soi.wav	1	6	2	noise_calib_stim_LEFT.wav	1	29	blb_dichoticlistening_pa-pa.mp3	pa	pa	0	left
6.6.1	win	2023-06-26	19:31:13	19:43:12	715958	5c92aa671ce0cd00128c6c86	2	1	main_z	24	advance_on_keypress_ZEE	122	stimuli_distractor_trianglediamonds.svg	stimuli_distractor_trianglediamonds.svg	34	no	57	0	297	6	3	antiphase_hc_soi.wav	1	6	2	noise_calib_stim_LEFT.wav	1	29	blb_dichoticlistening_pa-pa.mp3	pa	pa	0	left
6.6.1	win	2023-06-26	19:31:13	19:43:14	717590	5c92aa671ce0cd00128c6c86	2	1	main_z	24	main_z	123	stimuli_distractor_diamondtriangles.svg	stimuli_target_trianglerectangles.svg	29	yes	44	1	668	6	3	antiphase_hc_soi.wav	1	6	2	noise_calib_stim_LEFT.wav	1	29	blb_dichoticlistening_pa-pa.mp3	pa	pa	0	left
6.6.1	win	2023-06-26	19:31:13	19:43:14	717590	5c92aa671ce0cd00128c6c86	2	1	main_z	24	advance_on_keypress_ZEE	124	stimuli_distractor_diamondtriangles.svg	stimuli_target_trianglerectangles.svg	29	yes	57	0	224	6	3	antiphase_hc_soi.wav	1	6	2	noise_calib_stim_LEFT.wav	1	29	blb_dichoticlistening_pa-pa.mp3	pa	pa	0	left
6.6.1	win	2023-06-26	19:31:13	19:43:16	719152	5c92aa671ce0cd00128c6c86	2	1	main_z	24	main_z	125	stimuli_target_rectangletriangles.svg	stimuli_distractor_trianglediamonds.svg	1	yes	44	1	677	6	3	antiphase_hc_soi.wav	1	6	2	noise_calib_stim_LEFT.wav	1	29	blb_dichoticlistening_pa-pa.mp3	pa	pa	0	left
6.6.1	win	2023-06-26	19:31:13	19:43:16	719152	5c92aa671ce0cd00128c6c86	2	1	main_z	24	advance_on_keypress_ZEE	126	stimuli_target_rectangletriangles.svg	stimuli_distractor_trianglediamonds.svg	1	yes	57	0	274	6	3	antiphase_hc_soi.wav	1	6	2	noise_calib_stim_LEFT.wav	1	29	blb_dichoticlistening_pa-pa.mp3	pa	pa	0	left
6.6.1	win	2023-06-26	19:31:13	19:43:18	722082	5c92aa671ce0cd00128c6c86	2	1	main_z	24	main_z	127	stimuli_distractor_diamondtriangles.svg	stimuli_distractor_trianglediamonds.svg	38	no	0	1	2000	6	3	antiphase_hc_soi.wav	1	6	2	noise_calib_stim_LEFT.wav	1	29	blb_dichoticlistening_pa-pa.mp3	pa	pa	0	left
6.6.1	win	2023-06-26	19:31:13	19:43:18	722082	5c92aa671ce0cd00128c6c86	2	1	main_z	24	advance_on_keypress_ZEE	128	stimuli_distractor_diamondtriangles.svg	stimuli_distractor_trianglediamonds.svg	38	no	57	0	428	6	3	antiphase_hc_soi.wav	1	6	2	noise_calib_stim_LEFT.wav	1	29	blb_dichoticlistening_pa-pa.mp3	pa	pa	0	left
6.6.1	win	2023-06-26	19:31:13	19:43:20	723887	5c92aa671ce0cd00128c6c86	2	1	main_z	24	main_z	129	stimuli_target_diamondsquares.svg	stimuli_distractor_diamondtriangles.svg	24	yes	44	1	730	6	3	antiphase_hc_soi.wav	1	6	2	noise_calib_stim_LEFT.wav	1	29	blb_dichoticlistening_pa-pa.mp3	pa	pa	0	left
6.6.1	win	2023-06-26	19:31:13	19:43:20	723887	5c92aa671ce0cd00128c6c86	2	1	main_z	24	advance_on_keypress_ZEE	130	stimuli_target_diamondsquares.svg	stimuli_distractor_diamondtriangles.svg	24	yes	57	0	244	6	3	antiphase_hc_soi.wav	1	6	2	noise_calib_stim_LEFT.wav	1	29	blb_dichoticlistening_pa-pa.mp3	pa	pa	0	left
6.6.1	win	2023-06-26	19:31:13	19:43:22	725575	5c92aa671ce0cd00128c6c86	2	1	main_z	24	main_z	131	stimuli_distractor_trianglediamonds.svg	stimuli_target_trianglesquares.svg	26	yes	44	1	768	6	3	antiphase_hc_soi.wav	1	6	2	noise_calib_stim_LEFT.wav	1	29	blb_dichoticlistening_pa-pa.mp3	pa	pa	0	left
6.6.1	win	2023-06-26	19:31:13	19:43:22	725575	5c92aa671ce0cd00128c6c86	2	1	main_z	24	advance_on_keypress_ZEE	132	stimuli_distractor_trianglediamonds.svg	stimuli_target_trianglesquares.svg	26	yes	57	0	208	6	3	antiphase_hc_soi.wav	1	6	2	noise_calib_stim_LEFT.wav	1	29	blb_dichoticlistening_pa-pa.mp3	pa	pa	0	left
6.6.1	win	2023-06-26	19:31:13	19:43:25	728445	5c92aa671ce0cd00128c6c86	2	1	main_z	24	main_z	133	stimuli_distractor_diamondtriangles.svg	stimuli_distractor_trianglediamonds.svg	37	no	0	1	2000	6	3	antiphase_hc_soi.wav	1	6	2	noise_calib_stim_LEFT.wav	1	29	blb_dichoticlistening_pa-pa.mp3	pa	pa	0	left
6.6.1	win	2023-06-26	19:31:13	19:43:25	728445	5c92aa671ce0cd00128c6c86	2	1	main_z	24	advance_on_keypress_ZEE	134	stimuli_distractor_diamondtriangles.svg	stimuli_distractor_trianglediamonds.svg	37	no	57	0	308	6	3	antiphase_hc_soi.wav	1	6	2	noise_calib_stim_LEFT.wav	1	29	blb_dichoticlistening_pa-pa.mp3	pa	pa	0	left
6.6.1	win	2023-06-26	19:31:13	19:43:27	730135	5c92aa671ce0cd00128c6c86	2	1	main_z	24	main_z	135	stimuli_distractor_trianglediamonds.svg	stimuli_target_diamondsquares.svg	28	yes	44	1	712	6	3	antiphase_hc_soi.wav	1	6	2	noise_calib_stim_LEFT.wav	1	29	blb_dichoticlistening_pa-pa.mp3	pa	pa	0	left
6.6.1	win	2023-06-26	19:31:13	19:43:27	730135	5c92aa671ce0cd00128c6c86	2	1	main_z	24	advance_on_keypress_ZEE	136	stimuli_distractor_trianglediamonds.svg	stimuli_target_diamondsquares.svg	28	yes	57	0	226	6	3	antiphase_hc_soi.wav	1	6	2	noise_calib_stim_LEFT.wav	1	29	blb_dichoticlistening_pa-pa.mp3	pa	pa	0	left
6.6.1	win	2023-06-26	19:31:13	19:43:28	731714	5c92aa671ce0cd00128c6c86	2	1	main_z	24	main_z	137	stimuli_target_trianglesquares.svg	stimuli_distractor_trianglediamonds.svg	18	yes	44	1	695	6	3	antiphase_hc_soi.wav	1	6	2	noise_calib_stim_LEFT.wav	1	29	blb_dichoticlistening_pa-pa.mp3	pa	pa	0	left
6.6.1	win	2023-06-26	19:31:13	19:43:28	731714	5c92aa671ce0cd00128c6c86	2	1	main_z	24	advance_on_keypress_ZEE	138	stimuli_target_trianglesquares.svg	stimuli_distractor_trianglediamonds.svg	18	yes	57	0	195	6	3	antiphase_hc_soi.wav	1	6	2	noise_calib_stim_LEFT.wav	1	29	blb_dichoticlistening_pa-pa.mp3	pa	pa	0	left
6.6.1	win	2023-06-26	19:31:13	19:43:30	733262	5c92aa671ce0cd00128c6c86	2	1	main_z	24	main_z	139	stimuli_target_trianglerectangles.svg	stimuli_distractor_diamondtriangles.svg	21	yes	44	1	697	6	3	antiphase_hc_soi.wav	1	6	2	noise_calib_stim_LEFT.wav	1	29	blb_dichoticlistening_pa-pa.mp3	pa	pa	0	left
6.6.1	win	2023-06-26	19:31:13	19:43:30	733262	5c92aa671ce0cd00128c6c86	2	1	main_z	24	advance_on_keypress_ZEE	140	stimuli_target_trianglerectangles.svg	stimuli_distractor_diamondtriangles.svg	21	yes	57	0	196	6	3	antiphase_hc_soi.wav	1	6	2	noise_calib_stim_LEFT.wav	1	29	blb_dichoticlistening_pa-pa.mp3	pa	pa	0	left
6.6.1	win	2023-06-26	19:31:13	19:43:31	734770	5c92aa671ce0cd00128c6c86	2	1	main_z	24	main_z	141	stimuli_target_diamondrectangles.svg	stimuli_distractor_trianglediamonds.svg	19	yes	44	1	655	6	3	antiphase_hc_soi.wav	1	6	2	noise_calib_stim_LEFT.wav	1	29	blb_dichoticlistening_pa-pa.mp3	pa	pa	0	left
6.6.1	win	2023-06-26	19:31:13	19:43:31	734770	5c92aa671ce0cd00128c6c86	2	1	main_z	24	advance_on_keypress_ZEE	142	stimuli_target_diamondrectangles.svg	stimuli_distractor_trianglediamonds.svg	19	yes	57	0	192	6	3	antiphase_hc_soi.wav	1	6	2	noise_calib_stim_LEFT.wav	1	29	blb_dichoticlistening_pa-pa.mp3	pa	pa	0	left
6.6.1	win	2023-06-26	19:31:13	19:43:33	736239	5c92aa671ce0cd00128c6c86	2	1	main_z	24	main_z	143	stimuli_target_rectanglediamonds.svg	stimuli_distractor_diamondtriangles.svg	6	yes	44	1	607	6	3	antiphase_hc_soi.wav	1	6	2	noise_calib_stim_LEFT.wav	1	29	blb_dichoticlistening_pa-pa.mp3	pa	pa	0	left
6.6.1	win	2023-06-26	19:31:13	19:43:33	736239	5c92aa671ce0cd00128c6c86	2	1	main_z	24	advance_on_keypress_ZEE	144	stimuli_target_rectanglediamonds.svg	stimuli_distractor_diamondtriangles.svg	6	yes	57	0	237	6	3	antiphase_hc_soi.wav	1	6	2	noise_calib_stim_LEFT.wav	1	29	blb_dichoticlistening_pa-pa.mp3	pa	pa	0	left
6.6.1	win	2023-06-26	19:31:13	19:43:34	737795	5c92aa671ce0cd00128c6c86	2	1	main_z	24	main_z	145	stimuli_target_squarediamonds.svg	stimuli_distractor_diamondtriangles.svg	8	yes	44	1	639	6	3	antiphase_hc_soi.wav	1	6	2	noise_calib_stim_LEFT.wav	1	29	blb_dichoticlistening_pa-pa.mp3	pa	pa	0	left
6.6.1	win	2023-06-26	19:31:13	19:43:34	737795	5c92aa671ce0cd00128c6c86	2	1	main_z	24	advance_on_keypress_ZEE	146	stimuli_target_squarediamonds.svg	stimuli_distractor_diamondtriangles.svg	8	yes	57	0	191	6	3	antiphase_hc_soi.wav	1	6	2	noise_calib_stim_LEFT.wav	1	29	blb_dichoticlistening_pa-pa.mp3	pa	pa	0	left
6.6.1	win	2023-06-26	19:31:13	19:43:36	739353	5c92aa671ce0cd00128c6c86	2	1	main_z	24	main_z	147	stimuli_distractor_trianglediamonds.svg	stimuli_target_trianglerectangles.svg	25	yes	44	1	718	6	3	antiphase_hc_soi.wav	1	6	2	noise_calib_stim_LEFT.wav	1	29	blb_dichoticlistening_pa-pa.mp3	pa	pa	0	left
6.6.1	win	2023-06-26	19:31:13	19:43:36	739353	5c92aa671ce0cd00128c6c86	2	1	main_z	24	advance_on_keypress_ZEE	148	stimuli_distractor_trianglediamonds.svg	stimuli_target_trianglerectangles.svg	25	yes	57	0	193	6	3	antiphase_hc_soi.wav	1	6	2	noise_calib_stim_LEFT.wav	1	29	blb_dichoticlistening_pa-pa.mp3	pa	pa	0	left
6.6.1	win	2023-06-26	19:31:13	19:43:37	741046	5c92aa671ce0cd00128c6c86	2	1	main_z	24	main_z	149	stimuli_target_rectangletriangles.svg	stimuli_distractor_diamondtriangles.svg	5	yes	44	1	848	6	3	antiphase_hc_soi.wav	1	6	2	noise_calib_stim_LEFT.wav	1	29	blb_dichoticlistening_pa-pa.mp3	pa	pa	0	left
6.6.1	win	2023-06-26	19:31:13	19:43:37	741046	5c92aa671ce0cd00128c6c86	2	1	main_z	24	advance_on_keypress_ZEE	150	stimuli_target_rectangletriangles.svg	stimuli_distractor_diamondtriangles.svg	5	yes	57	0	220	6	3	antiphase_hc_soi.wav	1	6	2	noise_calib_stim_LEFT.wav	1	29	blb_dichoticlistening_pa-pa.mp3	pa	pa	0	left
6.6.1	win	2023-06-26	19:31:13	19:43:39	742696	5c92aa671ce0cd00128c6c86	2	1	main_z	24	main_z	151	stimuli_target_diamondsquares.svg	stimuli_distractor_trianglediamonds.svg	20	yes	44	1	787	6	3	antiphase_hc_soi.wav	1	6	2	noise_calib_stim_LEFT.wav	1	29	blb_dichoticlistening_pa-pa.mp3	pa	pa	0	left
6.6.1	win	2023-06-26	19:31:13	19:43:39	742696	5c92aa671ce0cd00128c6c86	2	1	main_z	24	advance_on_keypress_ZEE	152	stimuli_target_diamondsquares.svg	stimuli_distractor_trianglediamonds.svg	20	yes	57	0	195	6	3	antiphase_hc_soi.wav	1	6	2	noise_calib_stim_LEFT.wav	1	29	blb_dichoticlistening_pa-pa.mp3	pa	pa	0	left
6.6.1	win	2023-06-26	19:31:13	19:43:41	744231	5c92aa671ce0cd00128c6c86	2	1	main_z	24	main_z	153	stimuli_distractor_diamondtriangles.svg	stimuli_target_diamondsquares.svg	32	yes	44	1	706	6	3	antiphase_hc_soi.wav	1	6	2	noise_calib_stim_LEFT.wav	1	29	blb_dichoticlistening_pa-pa.mp3	pa	pa	0	left
6.6.1	win	2023-06-26	19:31:13	19:43:41	744231	5c92aa671ce0cd00128c6c86	2	1	main_z	24	advance_on_keypress_ZEE	154	stimuli_distractor_diamondtriangles.svg	stimuli_target_diamondsquares.svg	32	yes	57	0	213	6	3	antiphase_hc_soi.wav	1	6	2	noise_calib_stim_LEFT.wav	1	29	blb_dichoticlistening_pa-pa.mp3	pa	pa	0	left
6.6.1	win	2023-06-26	19:31:13	19:43:44	747106	5c92aa671ce0cd00128c6c86	2	1	main_z	24	main_z	155	stimuli_distractor_trianglediamonds.svg	stimuli_distractor_diamondtriangles.svg	36	no	0	1	2000	6	3	antiphase_hc_soi.wav	1	6	2	noise_calib_stim_LEFT.wav	1	29	blb_dichoticlistening_pa-pa.mp3	pa	pa	0	left
6.6.1	win	2023-06-26	19:31:13	19:43:44	747106	5c92aa671ce0cd00128c6c86	2	1	main_z	24	advance_on_keypress_ZEE	156	stimuli_distractor_trianglediamonds.svg	stimuli_distractor_diamondtriangles.svg	36	no	57	0	538	6	3	antiphase_hc_soi.wav	1	6	2	noise_calib_stim_LEFT.wav	1	29	blb_dichoticlistening_pa-pa.mp3	pa	pa	0	left
6.6.1	win	2023-06-26	19:31:13	19:43:45	749081	5c92aa671ce0cd00128c6c86	2	1	main_z	24	main_z	157	stimuli_target_trianglerectangles.svg	stimuli_distractor_trianglediamonds.svg	17	yes	44	1	787	6	3	antiphase_hc_soi.wav	1	6	2	noise_calib_stim_LEFT.wav	1	29	blb_dichoticlistening_pa-pa.mp3	pa	pa	0	left
6.6.1	win	2023-06-26	19:31:13	19:43:45	749081	5c92aa671ce0cd00128c6c86	2	1	main_z	24	advance_on_keypress_ZEE	158	stimuli_target_trianglerectangles.svg	stimuli_distractor_trianglediamonds.svg	17	yes	57	0	243	6	3	antiphase_hc_soi.wav	1	6	2	noise_calib_stim_LEFT.wav	1	29	blb_dichoticlistening_pa-pa.mp3	pa	pa	0	left
6.6.1	win	2023-06-26	19:31:13	19:43:48	751987	5c92aa671ce0cd00128c6c86	2	1	main_z	24	main_z	159	stimuli_distractor_trianglediamonds.svg	stimuli_distractor_diamondtriangles.svg	35	no	0	1	2000	6	3	antiphase_hc_soi.wav	1	6	2	noise_calib_stim_LEFT.wav	1	29	blb_dichoticlistening_pa-pa.mp3	pa	pa	0	left
6.6.1	win	2023-06-26	19:31:13	19:43:48	751987	5c92aa671ce0cd00128c6c86	2	1	main_z	24	advance_on_keypress_ZEE	160	stimuli_distractor_trianglediamonds.svg	stimuli_distractor_diamondtriangles.svg	35	no	57	0	335	6	3	antiphase_hc_soi.wav	1	6	2	noise_calib_stim_LEFT.wav	1	29	blb_dichoticlistening_pa-pa.mp3	pa	pa	0	left
6.6.1	win	2023-06-26	19:31:13	19:44:10	773694	5c92aa671ce0cd00128c6c86	2	1	practice_slash	26	practice_slash	1	stimuli_distractor_diamondtriangles.svg	stimuli_target_diamondrectangles.svg	8	yes	53	1	603	6	3	antiphase_hc_soi.wav	1	6	2	noise_calib_stim_LEFT.wav	1	29	blb_dichoticlistening_pa-pa.mp3	pa	pa	0	left
6.6.1	win	2023-06-26	19:31:13	19:44:10	773694	5c92aa671ce0cd00128c6c86	2	1	practice_slash	26	advance_on_keypress_SLASH	2	stimuli_distractor_diamondtriangles.svg	stimuli_target_diamondrectangles.svg	8	yes	57	0	3698	6	3	antiphase_hc_soi.wav	1	6	2	noise_calib_stim_LEFT.wav	1	29	blb_dichoticlistening_pa-pa.mp3	pa	pa	0	left
6.6.1	win	2023-06-26	19:31:13	19:44:16	779642	5c92aa671ce0cd00128c6c86	2	1	practice_slash	26	practice_slash	3	stimuli_target_diamondsquares.svg	stimuli_distractor_diamondtriangles.svg	3	yes	53	1	580	6	3	antiphase_hc_soi.wav	1	6	2	noise_calib_stim_LEFT.wav	1	29	blb_dichoticlistening_pa-pa.mp3	pa	pa	0	left
6.6.1	win	2023-06-26	19:31:13	19:44:16	779642	5c92aa671ce0cd00128c6c86	2	1	practice_slash	26	advance_on_keypress_SLASH	4	stimuli_target_diamondsquares.svg	stimuli_distractor_diamondtriangles.svg	3	yes	57	0	364	6	3	antiphase_hc_soi.wav	1	6	2	noise_calib_stim_LEFT.wav	1	29	blb_dichoticlistening_pa-pa.mp3	pa	pa	0	left
6.6.1	win	2023-06-26	19:31:13	19:44:19	782270	5c92aa671ce0cd00128c6c86	2	1	practice_slash	26	practice_slash	5	stimuli_distractor_trianglediamonds.svg	stimuli_distractor_trianglediamonds.svg	15	no	53	0	588	6	3	antiphase_hc_soi.wav	1	6	2	noise_calib_stim_LEFT.wav	1	29	blb_dichoticlistening_pa-pa.mp3	pa	pa	0	left
6.6.1	win	2023-06-26	19:31:13	19:44:19	782270	5c92aa671ce0cd00128c6c86	2	1	practice_slash	26	advance_on_keypress_SLASH	6	stimuli_distractor_trianglediamonds.svg	stimuli_distractor_trianglediamonds.svg	15	no	57	0	267	6	3	antiphase_hc_soi.wav	1	6	2	noise_calib_stim_LEFT.wav	1	29	blb_dichoticlistening_pa-pa.mp3	pa	pa	0	left
6.6.1	win	2023-06-26	19:31:13	19:44:21	784713	5c92aa671ce0cd00128c6c86	2	1	practice_slash	26	practice_slash	7	stimuli_target_squarediamonds.svg	stimuli_distractor_trianglediamonds.svg	5	yes	53	1	535	6	3	antiphase_hc_soi.wav	1	6	2	noise_calib_stim_LEFT.wav	1	29	blb_dichoticlistening_pa-pa.mp3	pa	pa	0	left
6.6.1	win	2023-06-26	19:31:13	19:44:21	784713	5c92aa671ce0cd00128c6c86	2	1	practice_slash	26	advance_on_keypress_SLASH	8	stimuli_target_squarediamonds.svg	stimuli_distractor_trianglediamonds.svg	5	yes	57	0	225	6	3	antiphase_hc_soi.wav	1	6	2	noise_calib_stim_LEFT.wav	1	29	blb_dichoticlistening_pa-pa.mp3	pa	pa	0	left
6.6.1	win	2023-06-26	19:31:13	19:44:25	788614	5c92aa671ce0cd00128c6c86	2	1	practice_slash	26	practice_slash	9	stimuli_distractor_diamondtriangles.svg	stimuli_distractor_diamondtriangles.svg	13	no	0	1	2000	6	3	antiphase_hc_soi.wav	1	6	2	noise_calib_stim_LEFT.wav	1	29	blb_dichoticlistening_pa-pa.mp3	pa	pa	0	left
6.6.1	win	2023-06-26	19:31:13	19:44:25	788614	5c92aa671ce0cd00128c6c86	2	1	practice_slash	26	advance_on_keypress_SLASH	10	stimuli_distractor_diamondtriangles.svg	stimuli_distractor_diamondtriangles.svg	13	no	57	0	317	6	3	antiphase_hc_soi.wav	1	6	2	noise_calib_stim_LEFT.wav	1	29	blb_dichoticlistening_pa-pa.mp3	pa	pa	0	left
6.6.1	win	2023-06-26	19:31:13	19:44:28	791410	5c92aa671ce0cd00128c6c86	2	1	practice_slash	26	practice_slash	11	stimuli_distractor_diamondtriangles.svg	stimuli_distractor_trianglediamonds.svg	14	no	53	0	807	6	3	antiphase_hc_soi.wav	1	6	2	noise_calib_stim_LEFT.wav	1	29	blb_dichoticlistening_pa-pa.mp3	pa	pa	0	left
6.6.1	win	2023-06-26	19:31:13	19:44:28	791410	5c92aa671ce0cd00128c6c86	2	1	practice_slash	26	advance_on_keypress_SLASH	12	stimuli_distractor_diamondtriangles.svg	stimuli_distractor_trianglediamonds.svg	14	no	57	0	460	6	3	antiphase_hc_soi.wav	1	6	2	noise_calib_stim_LEFT.wav	1	29	blb_dichoticlistening_pa-pa.mp3	pa	pa	0	left
6.6.1	win	2023-06-26	19:31:13	19:44:31	794242	5c92aa671ce0cd00128c6c86	2	1	practice_slash	26	practice_slash	13	stimuli_target_rectanglediamonds.svg	stimuli_distractor_diamondtriangles.svg	1	yes	53	1	704	6	3	antiphase_hc_soi.wav	1	6	2	noise_calib_stim_LEFT.wav	1	29	blb_dichoticlistening_pa-pa.mp3	pa	pa	0	left
6.6.1	win	2023-06-26	19:31:13	19:44:31	794242	5c92aa671ce0cd00128c6c86	2	1	practice_slash	26	advance_on_keypress_SLASH	14	stimuli_target_rectanglediamonds.svg	stimuli_distractor_diamondtriangles.svg	1	yes	57	0	219	6	3	antiphase_hc_soi.wav	1	6	2	noise_calib_stim_LEFT.wav	1	29	blb_dichoticlistening_pa-pa.mp3	pa	pa	0	left
6.6.1	win	2023-06-26	19:31:13	19:44:33	796770	5c92aa671ce0cd00128c6c86	2	1	practice_slash	26	practice_slash	15	stimuli_target_rectanglediamonds.svg	stimuli_distractor_trianglediamonds.svg	4	yes	53	1	641	6	3	antiphase_hc_soi.wav	1	6	2	noise_calib_stim_LEFT.wav	1	29	blb_dichoticlistening_pa-pa.mp3	pa	pa	0	left
6.6.1	win	2023-06-26	19:31:13	19:44:33	796770	5c92aa671ce0cd00128c6c86	2	1	practice_slash	26	advance_on_keypress_SLASH	16	stimuli_target_rectanglediamonds.svg	stimuli_distractor_trianglediamonds.svg	4	yes	57	0	246	6	3	antiphase_hc_soi.wav	1	6	2	noise_calib_stim_LEFT.wav	1	29	blb_dichoticlistening_pa-pa.mp3	pa	pa	0	left
6.6.1	win	2023-06-26	19:31:13	19:44:36	799284	5c92aa671ce0cd00128c6c86	2	1	practice_slash	26	practice_slash	17	stimuli_distractor_diamondtriangles.svg	stimuli_target_rectangletriangles.svg	7	yes	53	1	611	6	3	antiphase_hc_soi.wav	1	6	2	noise_calib_stim_LEFT.wav	1	29	blb_dichoticlistening_pa-pa.mp3	pa	pa	0	left
6.6.1	win	2023-06-26	19:31:13	19:44:36	799284	5c92aa671ce0cd00128c6c86	2	1	practice_slash	26	advance_on_keypress_SLASH	18	stimuli_distractor_diamondtriangles.svg	stimuli_target_rectangletriangles.svg	7	yes	57	0	498	6	3	antiphase_hc_soi.wav	1	6	2	noise_calib_stim_LEFT.wav	1	29	blb_dichoticlistening_pa-pa.mp3	pa	pa	0	left
6.6.1	win	2023-06-26	19:31:13	19:44:39	802141	5c92aa671ce0cd00128c6c86	2	1	practice_slash	26	practice_slash	19	stimuli_distractor_diamondtriangles.svg	stimuli_target_trianglerectangles.svg	9	yes	53	1	707	6	3	antiphase_hc_soi.wav	1	6	2	noise_calib_stim_LEFT.wav	1	29	blb_dichoticlistening_pa-pa.mp3	pa	pa	0	left
6.6.1	win	2023-06-26	19:31:13	19:44:39	802141	5c92aa671ce0cd00128c6c86	2	1	practice_slash	26	advance_on_keypress_SLASH	20	stimuli_distractor_diamondtriangles.svg	stimuli_target_trianglerectangles.svg	9	yes	57	0	271	6	3	antiphase_hc_soi.wav	1	6	2	noise_calib_stim_LEFT.wav	1	29	blb_dichoticlistening_pa-pa.mp3	pa	pa	0	left
