build	computer.platform	date	time	timestamp	time_elapsed_ms	subject	group	session	blockcode	blocknum	trialcode	trialnum	stimulus_left	stimulus_right	stim_index	target_present	response	correct	latency	headphonecheck_countTestTrials	headphonecheck_index	headphonecheck_testSound	headphonecheck_correctResponse	stereocheck_countTestTrials	stereocheck_index	stereocheck_testSound	stereocheck_correctResponse	DL_index	DL_soundfile	DL_leftSound	DL_rightSound	DL_dualSound	DL_choice
6.6.1	win	2023-06-19	00:40:07	00:43:28	197638	63d2f3294efc674f84b302d2	3	1	practice_slash	5	practice_slash	1	stimuli_target_rectanglediamonds.svg	stimuli_distractor_trianglediamonds.svg	4	yes	53	1	562	0	0			0	0			1				0	
6.6.1	win	2023-06-19	00:40:07	00:43:28	197638	63d2f3294efc674f84b302d2	3	1	practice_slash	5	advance_on_keypress_SLASH	2	stimuli_target_rectanglediamonds.svg	stimuli_distractor_trianglediamonds.svg	4	yes	57	0	652	0	0			0	0			1				0	
6.6.1	win	2023-06-19	00:40:07	00:43:31	200537	63d2f3294efc674f84b302d2	3	1	practice_slash	5	practice_slash	3	stimuli_distractor_trianglediamonds.svg	stimuli_target_squarediamonds.svg	11	yes	53	1	596	0	0			0	0			1				0	
6.6.1	win	2023-06-19	00:40:07	00:43:31	200537	63d2f3294efc674f84b302d2	3	1	practice_slash	5	advance_on_keypress_SLASH	4	stimuli_distractor_trianglediamonds.svg	stimuli_target_squarediamonds.svg	11	yes	57	0	582	0	0			0	0			1				0	
6.6.1	win	2023-06-19	00:40:07	00:43:36	204774	63d2f3294efc674f84b302d2	3	1	practice_slash	5	practice_slash	5	stimuli_distractor_trianglediamonds.svg	stimuli_distractor_diamondtriangles.svg	16	no	0	1	2000	0	0			0	0			1				0	
6.6.1	win	2023-06-19	00:40:07	00:43:36	204774	63d2f3294efc674f84b302d2	3	1	practice_slash	5	advance_on_keypress_SLASH	6	stimuli_distractor_trianglediamonds.svg	stimuli_distractor_diamondtriangles.svg	16	no	57	0	1118	0	0			0	0			1				0	
6.6.1	win	2023-06-19	00:40:07	00:43:40	209540	63d2f3294efc674f84b302d2	3	1	practice_slash	5	practice_slash	7	stimuli_distractor_diamondtriangles.svg	stimuli_distractor_diamondtriangles.svg	13	no	0	1	2000	0	0			0	0			1				0	
6.6.1	win	2023-06-19	00:40:07	00:43:40	209540	63d2f3294efc674f84b302d2	3	1	practice_slash	5	advance_on_keypress_SLASH	8	stimuli_distractor_diamondtriangles.svg	stimuli_distractor_diamondtriangles.svg	13	no	57	0	349	0	0			0	0			1				0	
6.6.1	win	2023-06-19	00:40:07	00:43:44	213538	63d2f3294efc674f84b302d2	3	1	practice_slash	5	practice_slash	9	stimuli_distractor_diamondtriangles.svg	stimuli_distractor_trianglediamonds.svg	14	no	0	1	2000	0	0			0	0			1				0	
6.6.1	win	2023-06-19	00:40:07	00:43:44	213538	63d2f3294efc674f84b302d2	3	1	practice_slash	5	advance_on_keypress_SLASH	10	stimuli_distractor_diamondtriangles.svg	stimuli_distractor_trianglediamonds.svg	14	no	57	0	257	0	0			0	0			1				0	
6.6.1	win	2023-06-19	00:40:07	00:43:47	216384	63d2f3294efc674f84b302d2	3	1	practice_slash	5	practice_slash	11	stimuli_distractor_trianglediamonds.svg	stimuli_target_diamondrectangles.svg	12	yes	53	1	947	0	0			0	0			1				0	
6.6.1	win	2023-06-19	00:40:07	00:43:47	216384	63d2f3294efc674f84b302d2	3	1	practice_slash	5	advance_on_keypress_SLASH	12	stimuli_distractor_trianglediamonds.svg	stimuli_target_diamondrectangles.svg	12	yes	57	0	879	0	0			0	0			1				0	
6.6.1	win	2023-06-19	00:40:07	00:43:52	220919	63d2f3294efc674f84b302d2	3	1	practice_slash	5	practice_slash	13	stimuli_distractor_trianglediamonds.svg	stimuli_distractor_trianglediamonds.svg	15	no	0	1	2000	0	0			0	0			1				0	
6.6.1	win	2023-06-19	00:40:07	00:43:52	220919	63d2f3294efc674f84b302d2	3	1	practice_slash	5	advance_on_keypress_SLASH	14	stimuli_distractor_trianglediamonds.svg	stimuli_distractor_trianglediamonds.svg	15	no	57	0	247	0	0			0	0			1				0	
6.6.1	win	2023-06-19	00:40:07	00:43:54	223452	63d2f3294efc674f84b302d2	3	1	practice_slash	5	practice_slash	15	stimuli_distractor_trianglediamonds.svg	stimuli_target_rectanglediamonds.svg	10	yes	53	1	632	0	0			0	0			1				0	
6.6.1	win	2023-06-19	00:40:07	00:43:54	223452	63d2f3294efc674f84b302d2	3	1	practice_slash	5	advance_on_keypress_SLASH	16	stimuli_distractor_trianglediamonds.svg	stimuli_target_rectanglediamonds.svg	10	yes	57	0	240	0	0			0	0			1				0	
6.6.1	win	2023-06-19	00:40:07	00:43:57	225974	63d2f3294efc674f84b302d2	3	1	practice_slash	5	practice_slash	17	stimuli_target_diamondsquares.svg	stimuli_distractor_diamondtriangles.svg	3	yes	53	1	640	0	0			0	0			1				0	
6.6.1	win	2023-06-19	00:40:07	00:43:57	225974	63d2f3294efc674f84b302d2	3	1	practice_slash	5	advance_on_keypress_SLASH	18	stimuli_target_diamondsquares.svg	stimuli_distractor_diamondtriangles.svg	3	yes	57	0	298	0	0			0	0			1				0	
6.6.1	win	2023-06-19	00:40:07	00:43:59	228524	63d2f3294efc674f84b302d2	3	1	practice_slash	5	practice_slash	19	stimuli_target_squarediamonds.svg	stimuli_distractor_diamondtriangles.svg	2	yes	53	1	606	0	0			0	0			1				0	
6.6.1	win	2023-06-19	00:40:07	00:43:59	228524	63d2f3294efc674f84b302d2	3	1	practice_slash	5	advance_on_keypress_SLASH	20	stimuli_target_squarediamonds.svg	stimuli_distractor_diamondtriangles.svg	2	yes	57	0	378	0	0			0	0			1				0	
6.6.1	win	2023-06-19	00:40:07	00:44:02	231133	63d2f3294efc674f84b302d2	3	1	practice_slash	5	practice_slash	21	stimuli_distractor_diamondtriangles.svg	stimuli_target_rectangletriangles.svg	7	yes	53	1	584	0	0			0	0			1				0	
6.6.1	win	2023-06-19	00:40:07	00:44:02	231133	63d2f3294efc674f84b302d2	3	1	practice_slash	5	advance_on_keypress_SLASH	22	stimuli_distractor_diamondtriangles.svg	stimuli_target_rectangletriangles.svg	7	yes	57	0	646	0	0			0	0			1				0	
6.6.1	win	2023-06-19	00:40:07	00:44:05	234117	63d2f3294efc674f84b302d2	3	1	practice_slash	5	practice_slash	23	stimuli_target_rectanglediamonds.svg	stimuli_distractor_diamondtriangles.svg	1	yes	53	1	685	0	0			0	0			1				0	
6.6.1	win	2023-06-19	00:40:07	00:44:05	234117	63d2f3294efc674f84b302d2	3	1	practice_slash	5	advance_on_keypress_SLASH	24	stimuli_target_rectanglediamonds.svg	stimuli_distractor_diamondtriangles.svg	1	yes	57	0	454	0	0			0	0			1				0	
6.6.1	win	2023-06-19	00:40:07	00:44:08	236732	63d2f3294efc674f84b302d2	3	1	practice_slash	5	practice_slash	25	stimuli_target_diamondsquares.svg	stimuli_distractor_trianglediamonds.svg	6	yes	53	1	513	0	0			0	0			1				0	
6.6.1	win	2023-06-19	00:40:07	00:44:08	236732	63d2f3294efc674f84b302d2	3	1	practice_slash	5	advance_on_keypress_SLASH	26	stimuli_target_diamondsquares.svg	stimuli_distractor_trianglediamonds.svg	6	yes	57	0	387	0	0			0	0			1				0	
6.6.1	win	2023-06-19	00:40:07	00:44:10	239256	63d2f3294efc674f84b302d2	3	1	practice_slash	5	practice_slash	27	stimuli_distractor_diamondtriangles.svg	stimuli_target_diamondrectangles.svg	8	yes	53	1	492	0	0			0	0			1				0	
6.6.1	win	2023-06-19	00:40:07	00:44:10	239256	63d2f3294efc674f84b302d2	3	1	practice_slash	5	advance_on_keypress_SLASH	28	stimuli_distractor_diamondtriangles.svg	stimuli_target_diamondrectangles.svg	8	yes	57	0	403	0	0			0	0			1				0	
6.6.1	win	2023-06-19	00:40:07	00:44:13	241832	63d2f3294efc674f84b302d2	3	1	practice_slash	5	practice_slash	29	stimuli_distractor_diamondtriangles.svg	stimuli_target_trianglerectangles.svg	9	yes	53	1	519	0	0			0	0			1				0	
6.6.1	win	2023-06-19	00:40:07	00:44:13	241832	63d2f3294efc674f84b302d2	3	1	practice_slash	5	advance_on_keypress_SLASH	30	stimuli_distractor_diamondtriangles.svg	stimuli_target_trianglerectangles.svg	9	yes	57	0	326	0	0			0	0			1				0	
6.6.1	win	2023-06-19	00:40:07	00:44:15	244434	63d2f3294efc674f84b302d2	3	1	practice_slash	5	practice_slash	31	stimuli_target_squarediamonds.svg	stimuli_distractor_trianglediamonds.svg	5	yes	53	1	622	0	0			0	0			1				0	
6.6.1	win	2023-06-19	00:40:07	00:44:15	244434	63d2f3294efc674f84b302d2	3	1	practice_slash	5	advance_on_keypress_SLASH	32	stimuli_target_squarediamonds.svg	stimuli_distractor_trianglediamonds.svg	5	yes	57	0	396	0	0			0	0			1				0	
6.6.1	win	2023-06-19	00:40:07	00:44:20	249203	63d2f3294efc674f84b302d2	3	1	main_slash	7	main_slash	1	stimuli_target_diamondsquares.svg	stimuli_distractor_trianglediamonds.svg	20	yes	53	1	593	0	0			0	0			1				0	
6.6.1	win	2023-06-19	00:40:07	00:44:20	249203	63d2f3294efc674f84b302d2	3	1	main_slash	7	advance_on_keypress_SLASH	2	stimuli_target_diamondsquares.svg	stimuli_distractor_trianglediamonds.svg	20	yes	57	0	1294	0	0			0	0			1				0	
6.6.1	win	2023-06-19	00:40:07	00:44:23	251753	63d2f3294efc674f84b302d2	3	1	main_slash	7	main_slash	3	stimuli_target_trianglesquares.svg	stimuli_distractor_diamondtriangles.svg	22	yes	53	1	594	0	0			0	0			1				0	
6.6.1	win	2023-06-19	00:40:07	00:44:23	251753	63d2f3294efc674f84b302d2	3	1	main_slash	7	advance_on_keypress_SLASH	4	stimuli_target_trianglesquares.svg	stimuli_distractor_diamondtriangles.svg	22	yes	57	0	1213	0	0			0	0			1				0	
6.6.1	win	2023-06-19	00:40:07	00:44:25	254381	63d2f3294efc674f84b302d2	3	1	main_slash	7	main_slash	5	stimuli_target_trianglerectangles.svg	stimuli_distractor_trianglediamonds.svg	17	yes	53	1	757	0	0			0	0			1				0	
6.6.1	win	2023-06-19	00:40:07	00:44:25	254381	63d2f3294efc674f84b302d2	3	1	main_slash	7	advance_on_keypress_SLASH	6	stimuli_target_trianglerectangles.svg	stimuli_distractor_trianglediamonds.svg	17	yes	57	0	741	0	0			0	0			1				0	
6.6.1	win	2023-06-19	00:40:07	00:44:27	256526	63d2f3294efc674f84b302d2	3	1	main_slash	7	main_slash	7	stimuli_distractor_diamondtriangles.svg	stimuli_target_trianglesquares.svg	30	yes	53	1	768	0	0			0	0			1				0	
6.6.1	win	2023-06-19	00:40:07	00:44:27	256526	63d2f3294efc674f84b302d2	3	1	main_slash	7	advance_on_keypress_SLASH	8	stimuli_distractor_diamondtriangles.svg	stimuli_target_trianglesquares.svg	30	yes	57	0	746	0	0			0	0			1				0	
6.6.1	win	2023-06-19	00:40:07	00:44:29	258694	63d2f3294efc674f84b302d2	3	1	main_slash	7	main_slash	9	stimuli_target_squarediamonds.svg	stimuli_distractor_diamondtriangles.svg	8	yes	53	1	770	0	0			0	0			1				0	
6.6.1	win	2023-06-19	00:40:07	00:44:29	258694	63d2f3294efc674f84b302d2	3	1	main_slash	7	advance_on_keypress_SLASH	10	stimuli_target_squarediamonds.svg	stimuli_distractor_diamondtriangles.svg	8	yes	57	0	383	0	0			0	0			1				0	
6.6.1	win	2023-06-19	00:40:07	00:44:33	261724	63d2f3294efc674f84b302d2	3	1	main_slash	7	main_slash	11	stimuli_distractor_trianglediamonds.svg	stimuli_distractor_diamondtriangles.svg	36	no	0	1	2000	0	0			0	0			1				0	
6.6.1	win	2023-06-19	00:40:07	00:44:33	261724	63d2f3294efc674f84b302d2	3	1	main_slash	7	advance_on_keypress_SLASH	12	stimuli_distractor_trianglediamonds.svg	stimuli_distractor_diamondtriangles.svg	36	no	57	0	405	0	0			0	0			1				0	
6.6.1	win	2023-06-19	00:40:07	00:44:34	263396	63d2f3294efc674f84b302d2	3	1	main_slash	7	main_slash	13	stimuli_target_rectanglediamonds.svg	stimuli_distractor_diamondtriangles.svg	6	yes	53	1	624	0	0			0	0			1				0	
6.6.1	win	2023-06-19	00:40:07	00:44:34	263396	63d2f3294efc674f84b302d2	3	1	main_slash	7	advance_on_keypress_SLASH	14	stimuli_target_rectanglediamonds.svg	stimuli_distractor_diamondtriangles.svg	6	yes	57	0	603	0	0			0	0			1				0	
6.6.1	win	2023-06-19	00:40:07	00:44:36	265370	63d2f3294efc674f84b302d2	3	1	main_slash	7	main_slash	15	stimuli_target_squaretriangles.svg	stimuli_distractor_trianglediamonds.svg	3	yes	53	1	731	0	0			0	0			1				0	
6.6.1	win	2023-06-19	00:40:07	00:44:36	265370	63d2f3294efc674f84b302d2	3	1	main_slash	7	advance_on_keypress_SLASH	16	stimuli_target_squaretriangles.svg	stimuli_distractor_trianglediamonds.svg	3	yes	57	0	332	0	0			0	0			1				0	
6.6.1	win	2023-06-19	00:40:07	00:44:38	266889	63d2f3294efc674f84b302d2	3	1	main_slash	7	main_slash	17	stimuli_distractor_trianglediamonds.svg	stimuli_target_squarediamonds.svg	12	yes	53	1	533	0	0			0	0			1				0	
6.6.1	win	2023-06-19	00:40:07	00:44:38	266889	63d2f3294efc674f84b302d2	3	1	main_slash	7	advance_on_keypress_SLASH	18	stimuli_distractor_trianglediamonds.svg	stimuli_target_squarediamonds.svg	12	yes	57	0	359	0	0			0	0			1				0	
6.6.1	win	2023-06-19	00:40:07	00:44:39	268340	63d2f3294efc674f84b302d2	3	1	main_slash	7	main_slash	19	stimuli_distractor_trianglediamonds.svg	stimuli_target_rectangletriangles.svg	9	yes	53	1	453	0	0			0	0			1				0	
6.6.1	win	2023-06-19	00:40:07	00:44:39	268340	63d2f3294efc674f84b302d2	3	1	main_slash	7	advance_on_keypress_SLASH	20	stimuli_distractor_trianglediamonds.svg	stimuli_target_rectangletriangles.svg	9	yes	57	0	346	0	0			0	0			1				0	
6.6.1	win	2023-06-19	00:40:07	00:44:42	271337	63d2f3294efc674f84b302d2	3	1	main_slash	7	main_slash	21	stimuli_distractor_diamondtriangles.svg	stimuli_distractor_trianglediamonds.svg	37	no	0	1	2000	0	0			0	0			1				0	
6.6.1	win	2023-06-19	00:40:07	00:44:42	271337	63d2f3294efc674f84b302d2	3	1	main_slash	7	advance_on_keypress_SLASH	22	stimuli_distractor_diamondtriangles.svg	stimuli_distractor_trianglediamonds.svg	37	no	57	0	287	0	0			0	0			1				0	
6.6.1	win	2023-06-19	00:40:07	00:44:44	272857	63d2f3294efc674f84b302d2	3	1	main_slash	7	main_slash	23	stimuli_distractor_diamondtriangles.svg	stimuli_target_rectangletriangles.svg	13	yes	53	1	588	0	0			0	0			1				0	
6.6.1	win	2023-06-19	00:40:07	00:44:44	272857	63d2f3294efc674f84b302d2	3	1	main_slash	7	advance_on_keypress_SLASH	24	stimuli_distractor_diamondtriangles.svg	stimuli_target_rectangletriangles.svg	13	yes	57	0	775	0	0			0	0			1				0	
6.6.1	win	2023-06-19	00:40:07	00:44:46	274876	63d2f3294efc674f84b302d2	3	1	main_slash	7	main_slash	25	stimuli_distractor_diamondtriangles.svg	stimuli_target_diamondrectangles.svg	31	yes	53	1	607	0	0			0	0			1				0	
6.6.1	win	2023-06-19	00:40:07	00:44:46	274876	63d2f3294efc674f84b302d2	3	1	main_slash	7	advance_on_keypress_SLASH	26	stimuli_distractor_diamondtriangles.svg	stimuli_target_diamondrectangles.svg	31	yes	57	0	411	0	0			0	0			1				0	
6.6.1	win	2023-06-19	00:40:07	00:44:49	277822	63d2f3294efc674f84b302d2	3	1	main_slash	7	main_slash	27	stimuli_target_trianglerectangles.svg	stimuli_distractor_diamondtriangles.svg	21	yes	53	1	1886	0	0			0	0			1				0	
6.6.1	win	2023-06-19	00:40:07	00:44:49	277822	63d2f3294efc674f84b302d2	3	1	main_slash	7	advance_on_keypress_SLASH	28	stimuli_target_trianglerectangles.svg	stimuli_distractor_diamondtriangles.svg	21	yes	57	0	511	0	0			0	0			1				0	
6.6.1	win	2023-06-19	00:40:07	00:44:50	279625	63d2f3294efc674f84b302d2	3	1	main_slash	7	main_slash	29	stimuli_target_diamondsquares.svg	stimuli_distractor_diamondtriangles.svg	24	yes	53	1	640	0	0			0	0			1				0	
6.6.1	win	2023-06-19	00:40:07	00:44:50	279625	63d2f3294efc674f84b302d2	3	1	main_slash	7	advance_on_keypress_SLASH	30	stimuli_target_diamondsquares.svg	stimuli_distractor_diamondtriangles.svg	24	yes	57	0	341	0	0			0	0			1				0	
6.6.1	win	2023-06-19	00:40:07	00:44:52	281217	63d2f3294efc674f84b302d2	3	1	main_slash	7	main_slash	31	stimuli_target_rectangletriangles.svg	stimuli_distractor_diamondtriangles.svg	5	yes	53	1	616	0	0			0	0			1				0	
6.6.1	win	2023-06-19	00:40:07	00:44:52	281217	63d2f3294efc674f84b302d2	3	1	main_slash	7	advance_on_keypress_SLASH	32	stimuli_target_rectangletriangles.svg	stimuli_distractor_diamondtriangles.svg	5	yes	57	0	314	0	0			0	0			1				0	
6.6.1	win	2023-06-19	00:40:07	00:44:55	284184	63d2f3294efc674f84b302d2	3	1	main_slash	7	main_slash	33	stimuli_distractor_diamondtriangles.svg	stimuli_distractor_diamondtriangles.svg	40	no	0	1	2000	0	0			0	0			1				0	
6.6.1	win	2023-06-19	00:40:07	00:44:55	284184	63d2f3294efc674f84b302d2	3	1	main_slash	7	advance_on_keypress_SLASH	34	stimuli_distractor_diamondtriangles.svg	stimuli_distractor_diamondtriangles.svg	40	no	57	0	368	0	0			0	0			1				0	
6.6.1	win	2023-06-19	00:40:07	00:44:57	285729	63d2f3294efc674f84b302d2	3	1	main_slash	7	main_slash	35	stimuli_distractor_trianglediamonds.svg	stimuli_target_rectanglediamonds.svg	10	yes	53	1	530	0	0			0	0			1				0	
6.6.1	win	2023-06-19	00:40:07	00:44:57	285729	63d2f3294efc674f84b302d2	3	1	main_slash	7	advance_on_keypress_SLASH	36	stimuli_distractor_trianglediamonds.svg	stimuli_target_rectanglediamonds.svg	10	yes	57	0	846	0	0			0	0			1				0	
6.6.1	win	2023-06-19	00:40:07	00:45:00	289233	63d2f3294efc674f84b302d2	3	1	main_slash	7	main_slash	37	stimuli_distractor_diamondtriangles.svg	stimuli_distractor_trianglediamonds.svg	38	no	0	1	2000	0	0			0	0			1				0	
6.6.1	win	2023-06-19	00:40:07	00:45:00	289233	63d2f3294efc674f84b302d2	3	1	main_slash	7	advance_on_keypress_SLASH	38	stimuli_distractor_diamondtriangles.svg	stimuli_distractor_trianglediamonds.svg	38	no	57	0	218	0	0			0	0			1				0	
6.6.1	win	2023-06-19	00:40:07	00:45:01	290548	63d2f3294efc674f84b302d2	3	1	main_slash	7	main_slash	39	stimuli_distractor_diamondtriangles.svg	stimuli_target_rectanglediamonds.svg	14	yes	53	1	449	0	0			0	0			1				0	
6.6.1	win	2023-06-19	00:40:07	00:45:01	290548	63d2f3294efc674f84b302d2	3	1	main_slash	7	advance_on_keypress_SLASH	40	stimuli_distractor_diamondtriangles.svg	stimuli_target_rectanglediamonds.svg	14	yes	57	0	655	0	0			0	0			1				0	
6.6.1	win	2023-06-19	00:40:07	00:45:03	292451	63d2f3294efc674f84b302d2	3	1	main_slash	7	main_slash	41	stimuli_distractor_trianglediamonds.svg	stimuli_target_trianglerectangles.svg	25	yes	53	1	603	0	0			0	0			1				0	
6.6.1	win	2023-06-19	00:40:07	00:45:03	292451	63d2f3294efc674f84b302d2	3	1	main_slash	7	advance_on_keypress_SLASH	42	stimuli_distractor_trianglediamonds.svg	stimuli_target_trianglerectangles.svg	25	yes	57	0	403	0	0			0	0			1				0	
6.6.1	win	2023-06-19	00:40:07	00:45:05	294040	63d2f3294efc674f84b302d2	3	1	main_slash	7	main_slash	43	stimuli_distractor_diamondtriangles.svg	stimuli_target_squaretriangles.svg	15	yes	53	1	541	0	0			0	0			1				0	
6.6.1	win	2023-06-19	00:40:07	00:45:05	294040	63d2f3294efc674f84b302d2	3	1	main_slash	7	advance_on_keypress_SLASH	44	stimuli_distractor_diamondtriangles.svg	stimuli_target_squaretriangles.svg	15	yes	57	0	337	0	0			0	0			1				0	
6.6.1	win	2023-06-19	00:40:07	00:45:07	295742	63d2f3294efc674f84b302d2	3	1	main_slash	7	main_slash	45	stimuli_distractor_diamondtriangles.svg	stimuli_target_diamondsquares.svg	32	yes	53	1	726	0	0			0	0			1				0	
6.6.1	win	2023-06-19	00:40:07	00:45:07	295742	63d2f3294efc674f84b302d2	3	1	main_slash	7	advance_on_keypress_SLASH	46	stimuli_distractor_diamondtriangles.svg	stimuli_target_diamondsquares.svg	32	yes	57	0	489	0	0			0	0			1				0	
6.6.1	win	2023-06-19	00:40:07	00:45:08	297480	63d2f3294efc674f84b302d2	3	1	main_slash	7	main_slash	47	stimuli_target_squaretriangles.svg	stimuli_distractor_diamondtriangles.svg	7	yes	53	1	600	0	0			0	0			1				0	
6.6.1	win	2023-06-19	00:40:07	00:45:08	297480	63d2f3294efc674f84b302d2	3	1	main_slash	7	advance_on_keypress_SLASH	48	stimuli_target_squaretriangles.svg	stimuli_distractor_diamondtriangles.svg	7	yes	57	0	349	0	0			0	0			1				0	
6.6.1	win	2023-06-19	00:40:07	00:45:11	300480	63d2f3294efc674f84b302d2	3	1	main_slash	7	main_slash	49	stimuli_distractor_trianglediamonds.svg	stimuli_distractor_trianglediamonds.svg	33	no	0	1	2000	0	0			0	0			1				0	
6.6.1	win	2023-06-19	00:40:07	00:45:11	300480	63d2f3294efc674f84b302d2	3	1	main_slash	7	advance_on_keypress_SLASH	50	stimuli_distractor_trianglediamonds.svg	stimuli_distractor_trianglediamonds.svg	33	no	57	0	255	0	0			0	0			1				0	
6.6.1	win	2023-06-19	00:40:07	00:45:13	301765	63d2f3294efc674f84b302d2	3	1	main_slash	7	main_slash	51	stimuli_distractor_trianglediamonds.svg	stimuli_target_squaretriangles.svg	11	yes	53	1	383	0	0			0	0			1				0	
6.6.1	win	2023-06-19	00:40:07	00:45:13	301765	63d2f3294efc674f84b302d2	3	1	main_slash	7	advance_on_keypress_SLASH	52	stimuli_distractor_trianglediamonds.svg	stimuli_target_squaretriangles.svg	11	yes	57	0	494	0	0			0	0			1				0	
6.6.1	win	2023-06-19	00:40:07	00:45:14	303484	63d2f3294efc674f84b302d2	3	1	main_slash	7	main_slash	53	stimuli_target_trianglesquares.svg	stimuli_distractor_trianglediamonds.svg	18	yes	53	1	573	0	0			0	0			1				0	
6.6.1	win	2023-06-19	00:40:07	00:45:14	303484	63d2f3294efc674f84b302d2	3	1	main_slash	7	advance_on_keypress_SLASH	54	stimuli_target_trianglesquares.svg	stimuli_distractor_trianglediamonds.svg	18	yes	57	0	287	0	0			0	0			1				0	
6.6.1	win	2023-06-19	00:40:07	00:45:17	306412	63d2f3294efc674f84b302d2	3	1	main_slash	7	main_slash	55	stimuli_distractor_trianglediamonds.svg	stimuli_distractor_diamondtriangles.svg	35	no	0	1	2000	0	0			0	0			1				0	
6.6.1	win	2023-06-19	00:40:07	00:45:17	306412	63d2f3294efc674f84b302d2	3	1	main_slash	7	advance_on_keypress_SLASH	56	stimuli_distractor_trianglediamonds.svg	stimuli_distractor_diamondtriangles.svg	35	no	57	0	403	0	0			0	0			1				0	
6.6.1	win	2023-06-19	00:40:07	00:45:19	308043	63d2f3294efc674f84b302d2	3	1	main_slash	7	main_slash	57	stimuli_distractor_trianglediamonds.svg	stimuli_target_trianglesquares.svg	26	yes	53	1	583	0	0			0	0			1				0	
6.6.1	win	2023-06-19	00:40:07	00:45:19	308043	63d2f3294efc674f84b302d2	3	1	main_slash	7	advance_on_keypress_SLASH	58	stimuli_distractor_trianglediamonds.svg	stimuli_target_trianglesquares.svg	26	yes	57	0	372	0	0			0	0			1				0	
6.6.1	win	2023-06-19	00:40:07	00:45:20	309640	63d2f3294efc674f84b302d2	3	1	main_slash	7	main_slash	59	stimuli_target_rectangletriangles.svg	stimuli_distractor_trianglediamonds.svg	1	yes	53	1	580	0	0			0	0			1				0	
6.6.1	win	2023-06-19	00:40:07	00:45:20	309640	63d2f3294efc674f84b302d2	3	1	main_slash	7	advance_on_keypress_SLASH	60	stimuli_target_rectangletriangles.svg	stimuli_distractor_trianglediamonds.svg	1	yes	57	0	436	0	0			0	0			1				0	
6.6.1	win	2023-06-19	00:40:07	00:45:22	311298	63d2f3294efc674f84b302d2	3	1	main_slash	7	main_slash	61	stimuli_distractor_diamondtriangles.svg	stimuli_target_squarediamonds.svg	16	yes	53	1	572	0	0			0	0			1				0	
6.6.1	win	2023-06-19	00:40:07	00:45:22	311298	63d2f3294efc674f84b302d2	3	1	main_slash	7	advance_on_keypress_SLASH	62	stimuli_distractor_diamondtriangles.svg	stimuli_target_squarediamonds.svg	16	yes	57	0	299	0	0			0	0			1				0	
6.6.1	win	2023-06-19	00:40:07	00:45:24	312855	63d2f3294efc674f84b302d2	3	1	main_slash	7	main_slash	63	stimuli_target_diamondrectangles.svg	stimuli_distractor_diamondtriangles.svg	23	yes	53	1	613	0	0			0	0			1				0	
6.6.1	win	2023-06-19	00:40:07	00:45:24	312855	63d2f3294efc674f84b302d2	3	1	main_slash	7	advance_on_keypress_SLASH	64	stimuli_target_diamondrectangles.svg	stimuli_distractor_diamondtriangles.svg	23	yes	57	0	266	0	0			0	0			1				0	
6.6.1	win	2023-06-19	00:40:07	00:45:25	314344	63d2f3294efc674f84b302d2	3	1	main_slash	7	main_slash	65	stimuli_distractor_trianglediamonds.svg	stimuli_target_diamondsquares.svg	28	yes	53	1	568	0	0			0	0			1				0	
6.6.1	win	2023-06-19	00:40:07	00:45:25	314344	63d2f3294efc674f84b302d2	3	1	main_slash	7	advance_on_keypress_SLASH	66	stimuli_distractor_trianglediamonds.svg	stimuli_target_diamondsquares.svg	28	yes	57	0	326	0	0			0	0			1				0	
6.6.1	win	2023-06-19	00:40:07	00:45:27	315912	63d2f3294efc674f84b302d2	3	1	main_slash	7	main_slash	67	stimuli_target_squarediamonds.svg	stimuli_distractor_trianglediamonds.svg	4	yes	53	1	603	0	0			0	0			1				0	
6.6.1	win	2023-06-19	00:40:07	00:45:27	315912	63d2f3294efc674f84b302d2	3	1	main_slash	7	advance_on_keypress_SLASH	68	stimuli_target_squarediamonds.svg	stimuli_distractor_trianglediamonds.svg	4	yes	57	0	257	0	0			0	0			1				0	
6.6.1	win	2023-06-19	00:40:07	00:45:28	317540	63d2f3294efc674f84b302d2	3	1	main_slash	7	main_slash	69	stimuli_distractor_diamondtriangles.svg	stimuli_target_trianglerectangles.svg	29	yes	53	1	731	0	0			0	0			1				0	
6.6.1	win	2023-06-19	00:40:07	00:45:28	317540	63d2f3294efc674f84b302d2	3	1	main_slash	7	advance_on_keypress_SLASH	70	stimuli_distractor_diamondtriangles.svg	stimuli_target_trianglerectangles.svg	29	yes	57	0	272	0	0			0	0			1				0	
6.6.1	win	2023-06-19	00:40:07	00:45:30	319051	63d2f3294efc674f84b302d2	3	1	main_slash	7	main_slash	71	stimuli_target_diamondrectangles.svg	stimuli_distractor_trianglediamonds.svg	19	yes	53	1	594	0	0			0	0			1				0	
6.6.1	win	2023-06-19	00:40:07	00:45:30	319051	63d2f3294efc674f84b302d2	3	1	main_slash	7	advance_on_keypress_SLASH	72	stimuli_target_diamondrectangles.svg	stimuli_distractor_trianglediamonds.svg	19	yes	57	0	265	0	0			0	0			1				0	
6.6.1	win	2023-06-19	00:40:07	00:45:31	320561	63d2f3294efc674f84b302d2	3	1	main_slash	7	main_slash	73	stimuli_distractor_trianglediamonds.svg	stimuli_target_diamondrectangles.svg	27	yes	53	1	603	0	0			0	0			1				0	
6.6.1	win	2023-06-19	00:40:07	00:45:31	320561	63d2f3294efc674f84b302d2	3	1	main_slash	7	advance_on_keypress_SLASH	74	stimuli_distractor_trianglediamonds.svg	stimuli_target_diamondrectangles.svg	27	yes	57	0	287	0	0			0	0			1				0	
6.6.1	win	2023-06-19	00:40:07	00:45:33	322073	63d2f3294efc674f84b302d2	3	1	main_slash	7	main_slash	75	stimuli_target_rectanglediamonds.svg	stimuli_distractor_trianglediamonds.svg	2	yes	53	1	582	0	0			0	0			1				0	
6.6.1	win	2023-06-19	00:40:07	00:45:33	322073	63d2f3294efc674f84b302d2	3	1	main_slash	7	advance_on_keypress_SLASH	76	stimuli_target_rectanglediamonds.svg	stimuli_distractor_trianglediamonds.svg	2	yes	57	0	267	0	0			0	0			1				0	
6.6.1	win	2023-06-19	00:40:07	00:45:36	324990	63d2f3294efc674f84b302d2	3	1	main_slash	7	main_slash	77	stimuli_distractor_diamondtriangles.svg	stimuli_distractor_diamondtriangles.svg	39	no	0	1	2000	0	0			0	0			1				0	
6.6.1	win	2023-06-19	00:40:07	00:45:36	324990	63d2f3294efc674f84b302d2	3	1	main_slash	7	advance_on_keypress_SLASH	78	stimuli_distractor_diamondtriangles.svg	stimuli_distractor_diamondtriangles.svg	39	no	57	0	313	0	0			0	0			1				0	
6.6.1	win	2023-06-19	00:40:07	00:45:39	327956	63d2f3294efc674f84b302d2	3	1	main_slash	7	main_slash	79	stimuli_distractor_trianglediamonds.svg	stimuli_distractor_trianglediamonds.svg	34	no	0	1	2000	0	0			0	0			1				0	
6.6.1	win	2023-06-19	00:40:07	00:45:39	327956	63d2f3294efc674f84b302d2	3	1	main_slash	7	advance_on_keypress_SLASH	80	stimuli_distractor_trianglediamonds.svg	stimuli_distractor_trianglediamonds.svg	34	no	57	0	421	0	0			0	0			1				0	
6.6.1	win	2023-06-19	00:40:07	00:45:40	329606	63d2f3294efc674f84b302d2	3	1	main_slash	7	main_slash	81	stimuli_target_diamondsquares.svg	stimuli_distractor_trianglediamonds.svg	20	yes	53	1	584	0	0			0	0			1				0	
6.6.1	win	2023-06-19	00:40:07	00:45:40	329606	63d2f3294efc674f84b302d2	3	1	main_slash	7	advance_on_keypress_SLASH	82	stimuli_target_diamondsquares.svg	stimuli_distractor_trianglediamonds.svg	20	yes	57	0	265	0	0			0	0			1				0	
6.6.1	win	2023-06-19	00:40:07	00:45:43	332522	63d2f3294efc674f84b302d2	3	1	main_slash	7	main_slash	83	stimuli_distractor_trianglediamonds.svg	stimuli_distractor_diamondtriangles.svg	35	no	0	1	2000	0	0			0	0			1				0	
6.6.1	win	2023-06-19	00:40:07	00:45:43	332522	63d2f3294efc674f84b302d2	3	1	main_slash	7	advance_on_keypress_SLASH	84	stimuli_distractor_trianglediamonds.svg	stimuli_distractor_diamondtriangles.svg	35	no	57	0	384	0	0			0	0			1				0	
6.6.1	win	2023-06-19	00:40:07	00:45:45	334128	63d2f3294efc674f84b302d2	3	1	main_slash	7	main_slash	85	stimuli_distractor_diamondtriangles.svg	stimuli_target_diamondrectangles.svg	31	yes	53	1	572	0	0			0	0			1				0	
6.6.1	win	2023-06-19	00:40:07	00:45:45	334128	63d2f3294efc674f84b302d2	3	1	main_slash	7	advance_on_keypress_SLASH	86	stimuli_distractor_diamondtriangles.svg	stimuli_target_diamondrectangles.svg	31	yes	57	0	409	0	0			0	0			1				0	
6.6.1	win	2023-06-19	00:40:07	00:45:48	337170	63d2f3294efc674f84b302d2	3	1	main_slash	7	main_slash	87	stimuli_distractor_trianglediamonds.svg	stimuli_distractor_diamondtriangles.svg	36	no	0	1	2000	0	0			0	0			1				0	
6.6.1	win	2023-06-19	00:40:07	00:45:48	337170	63d2f3294efc674f84b302d2	3	1	main_slash	7	advance_on_keypress_SLASH	88	stimuli_distractor_trianglediamonds.svg	stimuli_distractor_diamondtriangles.svg	36	no	57	0	394	0	0			0	0			1				0	
6.6.1	win	2023-06-19	00:40:07	00:45:51	340219	63d2f3294efc674f84b302d2	3	1	main_slash	7	main_slash	89	stimuli_distractor_trianglediamonds.svg	stimuli_distractor_trianglediamonds.svg	34	no	0	1	2000	0	0			0	0			1				0	
6.6.1	win	2023-06-19	00:40:07	00:45:51	340219	63d2f3294efc674f84b302d2	3	1	main_slash	7	advance_on_keypress_SLASH	90	stimuli_distractor_trianglediamonds.svg	stimuli_distractor_trianglediamonds.svg	34	no	57	0	412	0	0			0	0			1				0	
6.6.1	win	2023-06-19	00:40:07	00:45:53	341884	63d2f3294efc674f84b302d2	3	1	main_slash	7	main_slash	91	stimuli_distractor_trianglediamonds.svg	stimuli_target_trianglesquares.svg	26	yes	53	1	598	0	0			0	0			1				0	
6.6.1	win	2023-06-19	00:40:07	00:45:53	341884	63d2f3294efc674f84b302d2	3	1	main_slash	7	advance_on_keypress_SLASH	92	stimuli_distractor_trianglediamonds.svg	stimuli_target_trianglesquares.svg	26	yes	57	0	332	0	0			0	0			1				0	
6.6.1	win	2023-06-19	00:40:07	00:45:54	343396	63d2f3294efc674f84b302d2	3	1	main_slash	7	main_slash	93	stimuli_target_squaretriangles.svg	stimuli_distractor_diamondtriangles.svg	7	yes	53	1	527	0	0			0	0			1				0	
6.6.1	win	2023-06-19	00:40:07	00:45:54	343396	63d2f3294efc674f84b302d2	3	1	main_slash	7	advance_on_keypress_SLASH	94	stimuli_target_squaretriangles.svg	stimuli_distractor_diamondtriangles.svg	7	yes	57	0	353	0	0			0	0			1				0	
6.6.1	win	2023-06-19	00:40:07	00:45:56	345099	63d2f3294efc674f84b302d2	3	1	main_slash	7	main_slash	95	stimuli_distractor_trianglediamonds.svg	stimuli_target_squaretriangles.svg	11	yes	53	1	697	0	0			0	0			1				0	
6.6.1	win	2023-06-19	00:40:07	00:45:56	345099	63d2f3294efc674f84b302d2	3	1	main_slash	7	advance_on_keypress_SLASH	96	stimuli_distractor_trianglediamonds.svg	stimuli_target_squaretriangles.svg	11	yes	57	0	277	0	0			0	0			1				0	
6.6.1	win	2023-06-19	00:40:07	00:45:59	348034	63d2f3294efc674f84b302d2	3	1	main_slash	7	main_slash	97	stimuli_distractor_diamondtriangles.svg	stimuli_distractor_trianglediamonds.svg	37	no	0	1	2000	0	0			0	0			1				0	
6.6.1	win	2023-06-19	00:40:07	00:45:59	348034	63d2f3294efc674f84b302d2	3	1	main_slash	7	advance_on_keypress_SLASH	98	stimuli_distractor_diamondtriangles.svg	stimuli_distractor_trianglediamonds.svg	37	no	57	0	346	0	0			0	0			1				0	
6.6.1	win	2023-06-19	00:40:07	00:46:00	349646	63d2f3294efc674f84b302d2	3	1	main_slash	7	main_slash	99	stimuli_target_trianglesquares.svg	stimuli_distractor_trianglediamonds.svg	18	yes	53	1	613	0	0			0	0			1				0	
6.6.1	win	2023-06-19	00:40:07	00:46:00	349646	63d2f3294efc674f84b302d2	3	1	main_slash	7	advance_on_keypress_SLASH	100	stimuli_target_trianglesquares.svg	stimuli_distractor_trianglediamonds.svg	18	yes	57	0	391	0	0			0	0			1				0	
6.6.1	win	2023-06-19	00:40:07	00:46:02	351217	63d2f3294efc674f84b302d2	3	1	main_slash	7	main_slash	101	stimuli_distractor_trianglediamonds.svg	stimuli_target_rectangletriangles.svg	9	yes	53	1	515	0	0			0	0			1				0	
6.6.1	win	2023-06-19	00:40:07	00:46:02	351217	63d2f3294efc674f84b302d2	3	1	main_slash	7	advance_on_keypress_SLASH	102	stimuli_distractor_trianglediamonds.svg	stimuli_target_rectangletriangles.svg	9	yes	57	0	225	0	0			0	0			1				0	
6.6.1	win	2023-06-19	00:40:07	00:46:03	352533	63d2f3294efc674f84b302d2	3	1	main_slash	7	main_slash	103	stimuli_distractor_diamondtriangles.svg	stimuli_target_squarediamonds.svg	16	yes	53	1	433	0	0			0	0			1				0	
6.6.1	win	2023-06-19	00:40:07	00:46:03	352533	63d2f3294efc674f84b302d2	3	1	main_slash	7	advance_on_keypress_SLASH	104	stimuli_distractor_diamondtriangles.svg	stimuli_target_squarediamonds.svg	16	yes	57	0	258	0	0			0	0			1				0	
6.6.1	win	2023-06-19	00:40:07	00:46:05	353986	63d2f3294efc674f84b302d2	3	1	main_slash	7	main_slash	105	stimuli_distractor_diamondtriangles.svg	stimuli_target_rectanglediamonds.svg	14	yes	53	1	553	0	0			0	0			1				0	
6.6.1	win	2023-06-19	00:40:07	00:46:05	353986	63d2f3294efc674f84b302d2	3	1	main_slash	7	advance_on_keypress_SLASH	106	stimuli_distractor_diamondtriangles.svg	stimuli_target_rectanglediamonds.svg	14	yes	57	0	207	0	0			0	0			1				0	
6.6.1	win	2023-06-19	00:40:07	00:46:06	355277	63d2f3294efc674f84b302d2	3	1	main_slash	7	main_slash	107	stimuli_distractor_trianglediamonds.svg	stimuli_target_diamondsquares.svg	28	yes	53	1	446	0	0			0	0			1				0	
6.6.1	win	2023-06-19	00:40:07	00:46:06	355277	63d2f3294efc674f84b302d2	3	1	main_slash	7	advance_on_keypress_SLASH	108	stimuli_distractor_trianglediamonds.svg	stimuli_target_diamondsquares.svg	28	yes	57	0	194	0	0			0	0			1				0	
6.6.1	win	2023-06-19	00:40:07	00:46:07	356580	63d2f3294efc674f84b302d2	3	1	main_slash	7	main_slash	109	stimuli_distractor_trianglediamonds.svg	stimuli_target_trianglerectangles.svg	25	yes	53	1	448	0	0			0	0			1				0	
6.6.1	win	2023-06-19	00:40:07	00:46:07	356580	63d2f3294efc674f84b302d2	3	1	main_slash	7	advance_on_keypress_SLASH	110	stimuli_distractor_trianglediamonds.svg	stimuli_target_trianglerectangles.svg	25	yes	57	0	148	0	0			0	0			1				0	
6.6.1	win	2023-06-19	00:40:07	00:46:09	357852	63d2f3294efc674f84b302d2	3	1	main_slash	7	main_slash	111	stimuli_target_rectangletriangles.svg	stimuli_distractor_trianglediamonds.svg	1	yes	53	1	471	0	0			0	0			1				0	
6.6.1	win	2023-06-19	00:40:07	00:46:09	357852	63d2f3294efc674f84b302d2	3	1	main_slash	7	advance_on_keypress_SLASH	112	stimuli_target_rectangletriangles.svg	stimuli_distractor_trianglediamonds.svg	1	yes	57	0	162	0	0			0	0			1				0	
6.6.1	win	2023-06-19	00:40:07	00:46:10	359691	63d2f3294efc674f84b302d2	3	1	main_slash	7	main_slash	113	stimuli_target_diamondsquares.svg	stimuli_distractor_diamondtriangles.svg	24	yes	53	1	1026	0	0			0	0			1				0	
6.6.1	win	2023-06-19	00:40:07	00:46:10	359691	63d2f3294efc674f84b302d2	3	1	main_slash	7	advance_on_keypress_SLASH	114	stimuli_target_diamondsquares.svg	stimuli_distractor_diamondtriangles.svg	24	yes	57	0	117	0	0			0	0			1				0	
6.6.1	win	2023-06-19	00:40:07	00:46:12	361077	63d2f3294efc674f84b302d2	3	1	main_slash	7	main_slash	115	stimuli_target_trianglesquares.svg	stimuli_distractor_diamondtriangles.svg	22	yes	53	1	613	0	0			0	0			1				0	
6.6.1	win	2023-06-19	00:40:07	00:46:12	361077	63d2f3294efc674f84b302d2	3	1	main_slash	7	advance_on_keypress_SLASH	116	stimuli_target_trianglesquares.svg	stimuli_distractor_diamondtriangles.svg	22	yes	57	0	126	0	0			0	0			1				0	
6.6.1	win	2023-06-19	00:40:07	00:46:15	363847	63d2f3294efc674f84b302d2	3	1	main_slash	7	main_slash	117	stimuli_distractor_diamondtriangles.svg	stimuli_distractor_diamondtriangles.svg	39	no	0	1	2000	0	0			0	0			1				0	
6.6.1	win	2023-06-19	00:40:07	00:46:15	363847	63d2f3294efc674f84b302d2	3	1	main_slash	7	advance_on_keypress_SLASH	118	stimuli_distractor_diamondtriangles.svg	stimuli_distractor_diamondtriangles.svg	39	no	57	0	406	0	0			0	0			1				0	
6.6.1	win	2023-06-19	00:40:07	00:46:16	365501	63d2f3294efc674f84b302d2	3	1	main_slash	7	main_slash	119	stimuli_target_squaretriangles.svg	stimuli_distractor_trianglediamonds.svg	3	yes	53	1	605	0	0			0	0			1				0	
6.6.1	win	2023-06-19	00:40:07	00:46:16	365501	63d2f3294efc674f84b302d2	3	1	main_slash	7	advance_on_keypress_SLASH	120	stimuli_target_squaretriangles.svg	stimuli_distractor_trianglediamonds.svg	3	yes	57	0	153	0	0			0	0			1				0	
6.6.1	win	2023-06-19	00:40:07	00:46:18	366830	63d2f3294efc674f84b302d2	3	1	main_slash	7	main_slash	121	stimuli_target_rectanglediamonds.svg	stimuli_distractor_diamondtriangles.svg	6	yes	53	1	534	0	0			0	0			1				0	
6.6.1	win	2023-06-19	00:40:07	00:46:18	366830	63d2f3294efc674f84b302d2	3	1	main_slash	7	advance_on_keypress_SLASH	122	stimuli_target_rectanglediamonds.svg	stimuli_distractor_diamondtriangles.svg	6	yes	57	0	169	0	0			0	0			1				0	
6.6.1	win	2023-06-19	00:40:07	00:46:19	368370	63d2f3294efc674f84b302d2	3	1	main_slash	7	main_slash	123	stimuli_target_trianglerectangles.svg	stimuli_distractor_trianglediamonds.svg	17	yes	53	1	726	0	0			0	0			1				0	
6.6.1	win	2023-06-19	00:40:07	00:46:19	368370	63d2f3294efc674f84b302d2	3	1	main_slash	7	advance_on_keypress_SLASH	124	stimuli_target_trianglerectangles.svg	stimuli_distractor_trianglediamonds.svg	17	yes	57	0	228	0	0			0	0			1				0	
6.6.1	win	2023-06-19	00:40:07	00:46:21	369868	63d2f3294efc674f84b302d2	3	1	main_slash	7	main_slash	125	stimuli_target_rectangletriangles.svg	stimuli_distractor_diamondtriangles.svg	5	yes	53	1	624	0	0			0	0			1				0	
6.6.1	win	2023-06-19	00:40:07	00:46:21	369868	63d2f3294efc674f84b302d2	3	1	main_slash	7	advance_on_keypress_SLASH	126	stimuli_target_rectangletriangles.svg	stimuli_distractor_diamondtriangles.svg	5	yes	57	0	181	0	0			0	0			1				0	
6.6.1	win	2023-06-19	00:40:07	00:46:22	371587	63d2f3294efc674f84b302d2	3	1	main_slash	7	main_slash	127	stimuli_distractor_diamondtriangles.svg	stimuli_target_trianglerectangles.svg	29	yes	53	1	892	0	0			0	0			1				0	
6.6.1	win	2023-06-19	00:40:07	00:46:22	371587	63d2f3294efc674f84b302d2	3	1	main_slash	7	advance_on_keypress_SLASH	128	stimuli_distractor_diamondtriangles.svg	stimuli_target_trianglerectangles.svg	29	yes	57	0	248	0	0			0	0			1				0	
6.6.1	win	2023-06-19	00:40:07	00:46:24	373023	63d2f3294efc674f84b302d2	3	1	main_slash	7	main_slash	129	stimuli_distractor_diamondtriangles.svg	stimuli_target_rectangletriangles.svg	13	yes	53	1	546	0	0			0	0			1				0	
6.6.1	win	2023-06-19	00:40:07	00:46:24	373023	63d2f3294efc674f84b302d2	3	1	main_slash	7	advance_on_keypress_SLASH	130	stimuli_distractor_diamondtriangles.svg	stimuli_target_rectangletriangles.svg	13	yes	57	0	140	0	0			0	0			1				0	
6.6.1	win	2023-06-19	00:40:07	00:46:27	375811	63d2f3294efc674f84b302d2	3	1	main_slash	7	main_slash	131	stimuli_distractor_diamondtriangles.svg	stimuli_distractor_trianglediamonds.svg	38	no	0	1	2000	0	0			0	0			1				0	
6.6.1	win	2023-06-19	00:40:07	00:46:27	375811	63d2f3294efc674f84b302d2	3	1	main_slash	7	advance_on_keypress_SLASH	132	stimuli_distractor_diamondtriangles.svg	stimuli_distractor_trianglediamonds.svg	38	no	57	0	413	0	0			0	0			1				0	
6.6.1	win	2023-06-19	00:40:07	00:46:30	378876	63d2f3294efc674f84b302d2	3	1	main_slash	7	main_slash	133	stimuli_distractor_trianglediamonds.svg	stimuli_distractor_trianglediamonds.svg	33	no	0	1	2000	0	0			0	0			1				0	
6.6.1	win	2023-06-19	00:40:07	00:46:30	378876	63d2f3294efc674f84b302d2	3	1	main_slash	7	advance_on_keypress_SLASH	134	stimuli_distractor_trianglediamonds.svg	stimuli_distractor_trianglediamonds.svg	33	no	57	0	239	0	0			0	0			1				0	
6.6.1	win	2023-06-19	00:40:07	00:46:31	380312	63d2f3294efc674f84b302d2	3	1	main_slash	7	main_slash	135	stimuli_distractor_trianglediamonds.svg	stimuli_target_rectanglediamonds.svg	10	yes	53	1	553	0	0			0	0			1				0	
6.6.1	win	2023-06-19	00:40:07	00:46:31	380312	63d2f3294efc674f84b302d2	3	1	main_slash	7	advance_on_keypress_SLASH	136	stimuli_distractor_trianglediamonds.svg	stimuli_target_rectanglediamonds.svg	10	yes	57	0	167	0	0			0	0			1				0	
6.6.1	win	2023-06-19	00:40:07	00:46:33	381714	63d2f3294efc674f84b302d2	3	1	main_slash	7	main_slash	137	stimuli_target_squarediamonds.svg	stimuli_distractor_diamondtriangles.svg	8	yes	53	1	589	0	0			0	0			1				0	
6.6.1	win	2023-06-19	00:40:07	00:46:33	381714	63d2f3294efc674f84b302d2	3	1	main_slash	7	advance_on_keypress_SLASH	138	stimuli_target_squarediamonds.svg	stimuli_distractor_diamondtriangles.svg	8	yes	57	0	170	0	0			0	0			1				0	
6.6.1	win	2023-06-19	00:40:07	00:46:35	383778	63d2f3294efc674f84b302d2	3	1	main_slash	7	main_slash	139	stimuli_target_diamondrectangles.svg	stimuli_distractor_trianglediamonds.svg	19	yes	53	1	1254	0	0			0	0			1				0	
6.6.1	win	2023-06-19	00:40:07	00:46:35	383778	63d2f3294efc674f84b302d2	3	1	main_slash	7	advance_on_keypress_SLASH	140	stimuli_target_diamondrectangles.svg	stimuli_distractor_trianglediamonds.svg	19	yes	57	0	198	0	0			0	0			1				0	
6.6.1	win	2023-06-19	00:40:07	00:46:36	385157	63d2f3294efc674f84b302d2	3	1	main_slash	7	main_slash	141	stimuli_distractor_trianglediamonds.svg	stimuli_target_diamondrectangles.svg	27	yes	53	1	531	0	0			0	0			1				0	
6.6.1	win	2023-06-19	00:40:07	00:46:36	385157	63d2f3294efc674f84b302d2	3	1	main_slash	7	advance_on_keypress_SLASH	142	stimuli_distractor_trianglediamonds.svg	stimuli_target_diamondrectangles.svg	27	yes	57	0	187	0	0			0	0			1				0	
6.6.1	win	2023-06-19	00:40:07	00:46:38	386733	63d2f3294efc674f84b302d2	3	1	main_slash	7	main_slash	143	stimuli_distractor_trianglediamonds.svg	stimuli_target_squarediamonds.svg	12	yes	53	1	742	0	0			0	0			1				0	
6.6.1	win	2023-06-19	00:40:07	00:46:38	386733	63d2f3294efc674f84b302d2	3	1	main_slash	7	advance_on_keypress_SLASH	144	stimuli_distractor_trianglediamonds.svg	stimuli_target_squarediamonds.svg	12	yes	57	0	279	0	0			0	0			1				0	
6.6.1	win	2023-06-19	00:40:07	00:46:39	388496	63d2f3294efc674f84b302d2	3	1	main_slash	7	main_slash	145	stimuli_target_trianglerectangles.svg	stimuli_distractor_diamondtriangles.svg	21	yes	53	1	840	0	0			0	0			1				0	
6.6.1	win	2023-06-19	00:40:07	00:46:39	388496	63d2f3294efc674f84b302d2	3	1	main_slash	7	advance_on_keypress_SLASH	146	stimuli_target_trianglerectangles.svg	stimuli_distractor_diamondtriangles.svg	21	yes	57	0	195	0	0			0	0			1				0	
6.6.1	win	2023-06-19	00:40:07	00:46:42	391339	63d2f3294efc674f84b302d2	3	1	main_slash	7	main_slash	147	stimuli_distractor_diamondtriangles.svg	stimuli_distractor_diamondtriangles.svg	40	no	0	1	2000	0	0			0	0			1				0	
6.6.1	win	2023-06-19	00:40:07	00:46:42	391339	63d2f3294efc674f84b302d2	3	1	main_slash	7	advance_on_keypress_SLASH	148	stimuli_distractor_diamondtriangles.svg	stimuli_distractor_diamondtriangles.svg	40	no	57	0	866	0	0			0	0			1				0	
6.6.1	win	2023-06-19	00:40:07	00:46:44	393434	63d2f3294efc674f84b302d2	3	1	main_slash	7	main_slash	149	stimuli_target_rectanglediamonds.svg	stimuli_distractor_trianglediamonds.svg	2	yes	53	1	579	0	0			0	0			1				0	
6.6.1	win	2023-06-19	00:40:07	00:46:44	393434	63d2f3294efc674f84b302d2	3	1	main_slash	7	advance_on_keypress_SLASH	150	stimuli_target_rectanglediamonds.svg	stimuli_distractor_trianglediamonds.svg	2	yes	57	0	225	0	0			0	0			1				0	
6.6.1	win	2023-06-19	00:40:07	00:46:46	394886	63d2f3294efc674f84b302d2	3	1	main_slash	7	main_slash	151	stimuli_target_diamondrectangles.svg	stimuli_distractor_diamondtriangles.svg	23	yes	53	1	582	0	0			0	0			1				0	
6.6.1	win	2023-06-19	00:40:07	00:46:46	394886	63d2f3294efc674f84b302d2	3	1	main_slash	7	advance_on_keypress_SLASH	152	stimuli_target_diamondrectangles.svg	stimuli_distractor_diamondtriangles.svg	23	yes	57	0	182	0	0			0	0			1				0	
6.6.1	win	2023-06-19	00:40:07	00:46:47	396309	63d2f3294efc674f84b302d2	3	1	main_slash	7	main_slash	153	stimuli_distractor_diamondtriangles.svg	stimuli_target_diamondsquares.svg	32	yes	53	1	588	0	0			0	0			1				0	
6.6.1	win	2023-06-19	00:40:07	00:46:47	396309	63d2f3294efc674f84b302d2	3	1	main_slash	7	advance_on_keypress_SLASH	154	stimuli_distractor_diamondtriangles.svg	stimuli_target_diamondsquares.svg	32	yes	57	0	225	0	0			0	0			1				0	
6.6.1	win	2023-06-19	00:40:07	00:46:49	397712	63d2f3294efc674f84b302d2	3	1	main_slash	7	main_slash	155	stimuli_distractor_diamondtriangles.svg	stimuli_target_trianglesquares.svg	30	yes	53	1	541	0	0			0	0			1				0	
6.6.1	win	2023-06-19	00:40:07	00:46:49	397712	63d2f3294efc674f84b302d2	3	1	main_slash	7	advance_on_keypress_SLASH	156	stimuli_distractor_diamondtriangles.svg	stimuli_target_trianglesquares.svg	30	yes	57	0	201	0	0			0	0			1				0	
6.6.1	win	2023-06-19	00:40:07	00:46:50	399198	63d2f3294efc674f84b302d2	3	1	main_slash	7	main_slash	157	stimuli_distractor_diamondtriangles.svg	stimuli_target_squaretriangles.svg	15	yes	53	1	645	0	0			0	0			1				0	
6.6.1	win	2023-06-19	00:40:07	00:46:50	399198	63d2f3294efc674f84b302d2	3	1	main_slash	7	advance_on_keypress_SLASH	158	stimuli_distractor_diamondtriangles.svg	stimuli_target_squaretriangles.svg	15	yes	57	0	195	0	0			0	0			1				0	
6.6.1	win	2023-06-19	00:40:07	00:46:51	400591	63d2f3294efc674f84b302d2	3	1	main_slash	7	main_slash	159	stimuli_target_squarediamonds.svg	stimuli_distractor_trianglediamonds.svg	4	yes	53	1	537	0	0			0	0			1				0	
6.6.1	win	2023-06-19	00:40:07	00:46:51	400591	63d2f3294efc674f84b302d2	3	1	main_slash	7	advance_on_keypress_SLASH	160	stimuli_target_squarediamonds.svg	stimuli_distractor_trianglediamonds.svg	4	yes	57	0	170	0	0			0	0			1				0	
6.6.1	win	2023-06-19	00:40:07	00:47:09	418412	63d2f3294efc674f84b302d2	3	1	practice_z	9	practice_z	1	stimuli_distractor_trianglediamonds.svg	stimuli_target_rectanglediamonds.svg	10	yes	44	1	578	0	0			0	0			1				0	
6.6.1	win	2023-06-19	00:40:07	00:47:09	418412	63d2f3294efc674f84b302d2	3	1	practice_z	9	advance_on_keypress_ZEE	2	stimuli_distractor_trianglediamonds.svg	stimuli_target_rectanglediamonds.svg	10	yes	57	0	371	0	0			0	0			1				0	
6.6.1	win	2023-06-19	00:40:07	00:47:12	420962	63d2f3294efc674f84b302d2	3	1	practice_z	9	practice_z	3	stimuli_target_rectanglediamonds.svg	stimuli_distractor_diamondtriangles.svg	1	yes	44	1	528	0	0			0	0			1				0	
6.6.1	win	2023-06-19	00:40:07	00:47:12	420962	63d2f3294efc674f84b302d2	3	1	practice_z	9	advance_on_keypress_ZEE	4	stimuli_target_rectanglediamonds.svg	stimuli_distractor_diamondtriangles.svg	1	yes	57	0	275	0	0			0	0			1				0	
6.6.1	win	2023-06-19	00:40:07	00:47:14	423492	63d2f3294efc674f84b302d2	3	1	practice_z	9	practice_z	5	stimuli_distractor_trianglediamonds.svg	stimuli_target_squarediamonds.svg	11	yes	44	1	592	0	0			0	0			1				0	
6.6.1	win	2023-06-19	00:40:07	00:47:14	423492	63d2f3294efc674f84b302d2	3	1	practice_z	9	advance_on_keypress_ZEE	6	stimuli_distractor_trianglediamonds.svg	stimuli_target_squarediamonds.svg	11	yes	57	0	359	0	0			0	0			1				0	
6.6.1	win	2023-06-19	00:40:07	00:47:17	425916	63d2f3294efc674f84b302d2	3	1	practice_z	9	practice_z	7	stimuli_distractor_diamondtriangles.svg	stimuli_target_diamondrectangles.svg	8	yes	44	1	417	0	0			0	0			1				0	
6.6.1	win	2023-06-19	00:40:07	00:47:17	425916	63d2f3294efc674f84b302d2	3	1	practice_z	9	advance_on_keypress_ZEE	8	stimuli_distractor_diamondtriangles.svg	stimuli_target_diamondrectangles.svg	8	yes	57	0	356	0	0			0	0			1				0	
6.6.1	win	2023-06-19	00:40:07	00:47:21	429917	63d2f3294efc674f84b302d2	3	1	practice_z	9	practice_z	9	stimuli_distractor_diamondtriangles.svg	stimuli_distractor_trianglediamonds.svg	14	no	0	1	2000	0	0			0	0			1				0	
6.6.1	win	2023-06-19	00:40:07	00:47:21	429917	63d2f3294efc674f84b302d2	3	1	practice_z	9	advance_on_keypress_ZEE	10	stimuli_distractor_diamondtriangles.svg	stimuli_distractor_trianglediamonds.svg	14	no	57	0	239	0	0			0	0			1				0	
6.6.1	win	2023-06-19	00:40:07	00:47:23	432402	63d2f3294efc674f84b302d2	3	1	practice_z	9	practice_z	11	stimuli_target_rectanglediamonds.svg	stimuli_distractor_trianglediamonds.svg	4	yes	44	1	604	0	0			0	0			1				0	
6.6.1	win	2023-06-19	00:40:07	00:47:23	432402	63d2f3294efc674f84b302d2	3	1	practice_z	9	advance_on_keypress_ZEE	12	stimuli_target_rectanglediamonds.svg	stimuli_distractor_trianglediamonds.svg	4	yes	57	0	305	0	0			0	0			1				0	
6.6.1	win	2023-06-19	00:40:07	00:47:26	435157	63d2f3294efc674f84b302d2	3	1	practice_z	9	practice_z	13	stimuli_distractor_diamondtriangles.svg	stimuli_target_rectangletriangles.svg	7	yes	44	1	810	0	0			0	0			1				0	
6.6.1	win	2023-06-19	00:40:07	00:47:26	435157	63d2f3294efc674f84b302d2	3	1	practice_z	9	advance_on_keypress_ZEE	14	stimuli_distractor_diamondtriangles.svg	stimuli_target_rectangletriangles.svg	7	yes	57	0	400	0	0			0	0			1				0	
6.6.1	win	2023-06-19	00:40:07	00:47:29	437817	63d2f3294efc674f84b302d2	3	1	practice_z	9	practice_z	15	stimuli_distractor_diamondtriangles.svg	stimuli_target_trianglerectangles.svg	9	yes	44	1	604	0	0			0	0			1				0	
6.6.1	win	2023-06-19	00:40:07	00:47:29	437817	63d2f3294efc674f84b302d2	3	1	practice_z	9	advance_on_keypress_ZEE	16	stimuli_distractor_diamondtriangles.svg	stimuli_target_trianglerectangles.svg	9	yes	57	0	410	0	0			0	0			1				0	
6.6.1	win	2023-06-19	00:40:07	00:47:33	441879	63d2f3294efc674f84b302d2	3	1	practice_z	9	practice_z	17	stimuli_distractor_diamondtriangles.svg	stimuli_distractor_diamondtriangles.svg	13	no	0	1	2000	0	0			0	0			1				0	
6.6.1	win	2023-06-19	00:40:07	00:47:33	441879	63d2f3294efc674f84b302d2	3	1	practice_z	9	advance_on_keypress_ZEE	18	stimuli_distractor_diamondtriangles.svg	stimuli_distractor_diamondtriangles.svg	13	no	57	0	336	0	0			0	0			1				0	
6.6.1	win	2023-06-19	00:40:07	00:47:35	444379	63d2f3294efc674f84b302d2	3	1	practice_z	9	practice_z	19	stimuli_target_squarediamonds.svg	stimuli_distractor_diamondtriangles.svg	2	yes	44	1	517	0	0			0	0			1				0	
6.6.1	win	2023-06-19	00:40:07	00:47:35	444379	63d2f3294efc674f84b302d2	3	1	practice_z	9	advance_on_keypress_ZEE	20	stimuli_target_squarediamonds.svg	stimuli_distractor_diamondtriangles.svg	2	yes	57	0	307	0	0			0	0			1				0	
6.6.1	win	2023-06-19	00:40:07	00:47:39	448049	63d2f3294efc674f84b302d2	3	1	practice_z	9	practice_z	21	stimuli_distractor_trianglediamonds.svg	stimuli_distractor_diamondtriangles.svg	16	no	44	0	1723	0	0			0	0			1				0	
6.6.1	win	2023-06-19	00:40:07	00:47:39	448049	63d2f3294efc674f84b302d2	3	1	practice_z	9	advance_on_keypress_ZEE	22	stimuli_distractor_trianglediamonds.svg	stimuli_distractor_diamondtriangles.svg	16	no	57	0	372	0	0			0	0			1				0	
6.6.1	win	2023-06-19	00:40:07	00:47:41	450634	63d2f3294efc674f84b302d2	3	1	practice_z	9	practice_z	23	stimuli_target_diamondsquares.svg	stimuli_distractor_diamondtriangles.svg	3	yes	44	1	575	0	0			0	0			1				0	
6.6.1	win	2023-06-19	00:40:07	00:47:41	450634	63d2f3294efc674f84b302d2	3	1	practice_z	9	advance_on_keypress_ZEE	24	stimuli_target_diamondsquares.svg	stimuli_distractor_diamondtriangles.svg	3	yes	57	0	403	0	0			0	0			1				0	
6.6.1	win	2023-06-19	00:40:07	00:47:44	453258	63d2f3294efc674f84b302d2	3	1	practice_z	9	practice_z	25	stimuli_target_squarediamonds.svg	stimuli_distractor_trianglediamonds.svg	5	yes	44	1	567	0	0			0	0			1				0	
6.6.1	win	2023-06-19	00:40:07	00:47:44	453258	63d2f3294efc674f84b302d2	3	1	practice_z	9	advance_on_keypress_ZEE	26	stimuli_target_squarediamonds.svg	stimuli_distractor_trianglediamonds.svg	5	yes	57	0	387	0	0			0	0			1				0	
6.6.1	win	2023-06-19	00:40:07	00:47:47	455944	63d2f3294efc674f84b302d2	3	1	practice_z	9	practice_z	27	stimuli_target_diamondsquares.svg	stimuli_distractor_trianglediamonds.svg	6	yes	44	1	652	0	0			0	0			1				0	
6.6.1	win	2023-06-19	00:40:07	00:47:47	455944	63d2f3294efc674f84b302d2	3	1	practice_z	9	advance_on_keypress_ZEE	28	stimuli_target_diamondsquares.svg	stimuli_distractor_trianglediamonds.svg	6	yes	57	0	278	0	0			0	0			1				0	
6.6.1	win	2023-06-19	00:40:07	00:47:49	458468	63d2f3294efc674f84b302d2	3	1	practice_z	9	practice_z	29	stimuli_distractor_trianglediamonds.svg	stimuli_target_diamondrectangles.svg	12	yes	44	1	595	0	0			0	0			1				0	
6.6.1	win	2023-06-19	00:40:07	00:47:49	458468	63d2f3294efc674f84b302d2	3	1	practice_z	9	advance_on_keypress_ZEE	30	stimuli_distractor_trianglediamonds.svg	stimuli_target_diamondrectangles.svg	12	yes	57	0	411	0	0			0	0			1				0	
6.6.1	win	2023-06-19	00:40:07	00:47:53	462541	63d2f3294efc674f84b302d2	3	1	practice_z	9	practice_z	31	stimuli_distractor_trianglediamonds.svg	stimuli_distractor_trianglediamonds.svg	15	no	0	1	2000	0	0			0	0			1				0	
6.6.1	win	2023-06-19	00:40:07	00:47:53	462541	63d2f3294efc674f84b302d2	3	1	practice_z	9	advance_on_keypress_ZEE	32	stimuli_distractor_trianglediamonds.svg	stimuli_distractor_trianglediamonds.svg	15	no	57	0	342	0	0			0	0			1				0	
6.6.1	win	2023-06-19	00:40:07	00:47:58	466913	63d2f3294efc674f84b302d2	3	1	main_z	11	main_z	1	stimuli_distractor_trianglediamonds.svg	stimuli_target_trianglesquares.svg	26	yes	44	1	591	0	0			0	0			1				0	
6.6.1	win	2023-06-19	00:40:07	00:47:58	466913	63d2f3294efc674f84b302d2	3	1	main_z	11	advance_on_keypress_ZEE	2	stimuli_distractor_trianglediamonds.svg	stimuli_target_trianglesquares.svg	26	yes	57	0	538	0	0			0	0			1				0	
6.6.1	win	2023-06-19	00:40:07	00:47:59	468631	63d2f3294efc674f84b302d2	3	1	main_z	11	main_z	3	stimuli_target_diamondrectangles.svg	stimuli_distractor_diamondtriangles.svg	23	yes	44	1	528	0	0			0	0			1				0	
6.6.1	win	2023-06-19	00:40:07	00:47:59	468631	63d2f3294efc674f84b302d2	3	1	main_z	11	advance_on_keypress_ZEE	4	stimuli_target_diamondrectangles.svg	stimuli_distractor_diamondtriangles.svg	23	yes	57	0	365	0	0			0	0			1				0	
6.6.1	win	2023-06-19	00:40:07	00:48:01	470198	63d2f3294efc674f84b302d2	3	1	main_z	11	main_z	5	stimuli_target_squarediamonds.svg	stimuli_distractor_diamondtriangles.svg	8	yes	44	1	546	0	0			0	0			1				0	
6.6.1	win	2023-06-19	00:40:07	00:48:01	470198	63d2f3294efc674f84b302d2	3	1	main_z	11	advance_on_keypress_ZEE	6	stimuli_target_squarediamonds.svg	stimuli_distractor_diamondtriangles.svg	8	yes	57	0	260	0	0			0	0			1				0	
6.6.1	win	2023-06-19	00:40:07	00:48:04	473102	63d2f3294efc674f84b302d2	3	1	main_z	11	main_z	7	stimuli_distractor_trianglediamonds.svg	stimuli_distractor_trianglediamonds.svg	33	no	0	1	2000	0	0			0	0			1				0	
6.6.1	win	2023-06-19	00:40:07	00:48:04	473102	63d2f3294efc674f84b302d2	3	1	main_z	11	advance_on_keypress_ZEE	8	stimuli_distractor_trianglediamonds.svg	stimuli_distractor_trianglediamonds.svg	33	no	57	0	277	0	0			0	0			1				0	
6.6.1	win	2023-06-19	00:40:07	00:48:05	474533	63d2f3294efc674f84b302d2	3	1	main_z	11	main_z	9	stimuli_target_rectangletriangles.svg	stimuli_distractor_trianglediamonds.svg	1	yes	44	1	513	0	0			0	0			1				0	
6.6.1	win	2023-06-19	00:40:07	00:48:05	474533	63d2f3294efc674f84b302d2	3	1	main_z	11	advance_on_keypress_ZEE	10	stimuli_target_rectangletriangles.svg	stimuli_distractor_trianglediamonds.svg	1	yes	57	0	561	0	0			0	0			1				0	
6.6.1	win	2023-06-19	00:40:07	00:48:07	476359	63d2f3294efc674f84b302d2	3	1	main_z	11	main_z	11	stimuli_distractor_diamondtriangles.svg	stimuli_target_squaretriangles.svg	15	yes	44	1	609	0	0			0	0			1				0	
6.6.1	win	2023-06-19	00:40:07	00:48:07	476359	63d2f3294efc674f84b302d2	3	1	main_z	11	advance_on_keypress_ZEE	12	stimuli_distractor_diamondtriangles.svg	stimuli_target_squaretriangles.svg	15	yes	57	0	221	0	0			0	0			1				0	
6.6.1	win	2023-06-19	00:40:07	00:48:08	477688	63d2f3294efc674f84b302d2	3	1	main_z	11	main_z	13	stimuli_distractor_trianglediamonds.svg	stimuli_target_squaretriangles.svg	11	yes	44	1	454	0	0			0	0			1				0	
6.6.1	win	2023-06-19	00:40:07	00:48:08	477688	63d2f3294efc674f84b302d2	3	1	main_z	11	advance_on_keypress_ZEE	14	stimuli_distractor_trianglediamonds.svg	stimuli_target_squaretriangles.svg	11	yes	57	0	213	0	0			0	0			1				0	
6.6.1	win	2023-06-19	00:40:07	00:48:10	479019	63d2f3294efc674f84b302d2	3	1	main_z	11	main_z	15	stimuli_distractor_diamondtriangles.svg	stimuli_target_squarediamonds.svg	16	yes	44	1	470	0	0			0	0			1				0	
6.6.1	win	2023-06-19	00:40:07	00:48:10	479019	63d2f3294efc674f84b302d2	3	1	main_z	11	advance_on_keypress_ZEE	16	stimuli_distractor_diamondtriangles.svg	stimuli_target_squarediamonds.svg	16	yes	57	0	202	0	0			0	0			1				0	
6.6.1	win	2023-06-19	00:40:07	00:48:11	480432	63d2f3294efc674f84b302d2	3	1	main_z	11	main_z	17	stimuli_target_diamondsquares.svg	stimuli_distractor_trianglediamonds.svg	20	yes	44	1	565	0	0			0	0			1				0	
6.6.1	win	2023-06-19	00:40:07	00:48:11	480432	63d2f3294efc674f84b302d2	3	1	main_z	11	advance_on_keypress_ZEE	18	stimuli_target_diamondsquares.svg	stimuli_distractor_trianglediamonds.svg	20	yes	57	0	168	0	0			0	0			1				0	
6.6.1	win	2023-06-19	00:40:07	00:48:12	481684	63d2f3294efc674f84b302d2	3	1	main_z	11	main_z	19	stimuli_distractor_trianglediamonds.svg	stimuli_target_squarediamonds.svg	12	yes	44	1	436	0	0			0	0			1				0	
6.6.1	win	2023-06-19	00:40:07	00:48:12	481684	63d2f3294efc674f84b302d2	3	1	main_z	11	advance_on_keypress_ZEE	20	stimuli_distractor_trianglediamonds.svg	stimuli_target_squarediamonds.svg	12	yes	57	0	140	0	0			0	0			1				0	
6.6.1	win	2023-06-19	00:40:07	00:48:14	482915	63d2f3294efc674f84b302d2	3	1	main_z	11	main_z	21	stimuli_target_trianglesquares.svg	stimuli_distractor_diamondtriangles.svg	22	yes	44	1	450	0	0			0	0			1				0	
6.6.1	win	2023-06-19	00:40:07	00:48:14	482915	63d2f3294efc674f84b302d2	3	1	main_z	11	advance_on_keypress_ZEE	22	stimuli_target_trianglesquares.svg	stimuli_distractor_diamondtriangles.svg	22	yes	57	0	121	0	0			0	0			1				0	
6.6.1	win	2023-06-19	00:40:07	00:48:16	485682	63d2f3294efc674f84b302d2	3	1	main_z	11	main_z	23	stimuli_distractor_diamondtriangles.svg	stimuli_distractor_trianglediamonds.svg	38	no	0	1	2000	0	0			0	0			1				0	
6.6.1	win	2023-06-19	00:40:07	00:48:16	485682	63d2f3294efc674f84b302d2	3	1	main_z	11	advance_on_keypress_ZEE	24	stimuli_distractor_diamondtriangles.svg	stimuli_distractor_trianglediamonds.svg	38	no	57	0	379	0	0			0	0			1				0	
6.6.1	win	2023-06-19	00:40:07	00:48:20	488715	63d2f3294efc674f84b302d2	3	1	main_z	11	main_z	25	stimuli_distractor_trianglediamonds.svg	stimuli_distractor_diamondtriangles.svg	35	no	0	1	2000	0	0			0	0			1				0	
6.6.1	win	2023-06-19	00:40:07	00:48:20	488715	63d2f3294efc674f84b302d2	3	1	main_z	11	advance_on_keypress_ZEE	26	stimuli_distractor_trianglediamonds.svg	stimuli_distractor_diamondtriangles.svg	35	no	57	0	252	0	0			0	0			1				0	
6.6.1	win	2023-06-19	00:40:07	00:48:22	491614	63d2f3294efc674f84b302d2	3	1	main_z	11	main_z	27	stimuli_distractor_diamondtriangles.svg	stimuli_distractor_diamondtriangles.svg	40	no	0	1	2000	0	0			0	0			1				0	
6.6.1	win	2023-06-19	00:40:07	00:48:22	491614	63d2f3294efc674f84b302d2	3	1	main_z	11	advance_on_keypress_ZEE	28	stimuli_distractor_diamondtriangles.svg	stimuli_distractor_diamondtriangles.svg	40	no	57	0	508	0	0			0	0			1				0	
6.6.1	win	2023-06-19	00:40:07	00:48:24	493304	63d2f3294efc674f84b302d2	3	1	main_z	11	main_z	29	stimuli_target_rectangletriangles.svg	stimuli_distractor_diamondtriangles.svg	5	yes	44	1	542	0	0			0	0			1				0	
6.6.1	win	2023-06-19	00:40:07	00:48:24	493304	63d2f3294efc674f84b302d2	3	1	main_z	11	advance_on_keypress_ZEE	30	stimuli_target_rectangletriangles.svg	stimuli_distractor_diamondtriangles.svg	5	yes	57	0	238	0	0			0	0			1				0	
6.6.1	win	2023-06-19	00:40:07	00:48:27	496179	63d2f3294efc674f84b302d2	3	1	main_z	11	main_z	31	stimuli_distractor_diamondtriangles.svg	stimuli_distractor_diamondtriangles.svg	39	no	0	1	2000	0	0			0	0			1				0	
6.6.1	win	2023-06-19	00:40:07	00:48:27	496179	63d2f3294efc674f84b302d2	3	1	main_z	11	advance_on_keypress_ZEE	32	stimuli_distractor_diamondtriangles.svg	stimuli_distractor_diamondtriangles.svg	39	no	57	0	281	0	0			0	0			1				0	
6.6.1	win	2023-06-19	00:40:07	00:48:30	499111	63d2f3294efc674f84b302d2	3	1	main_z	11	main_z	33	stimuli_distractor_diamondtriangles.svg	stimuli_distractor_trianglediamonds.svg	37	no	0	1	2000	0	0			0	0			1				0	
6.6.1	win	2023-06-19	00:40:07	00:48:30	499111	63d2f3294efc674f84b302d2	3	1	main_z	11	advance_on_keypress_ZEE	34	stimuli_distractor_diamondtriangles.svg	stimuli_distractor_trianglediamonds.svg	37	no	57	0	248	0	0			0	0			1				0	
6.6.1	win	2023-06-19	00:40:07	00:48:31	500623	63d2f3294efc674f84b302d2	3	1	main_z	11	main_z	35	stimuli_target_rectanglediamonds.svg	stimuli_distractor_diamondtriangles.svg	6	yes	44	1	612	0	0			0	0			1				0	
6.6.1	win	2023-06-19	00:40:07	00:48:31	500623	63d2f3294efc674f84b302d2	3	1	main_z	11	advance_on_keypress_ZEE	36	stimuli_target_rectanglediamonds.svg	stimuli_distractor_diamondtriangles.svg	6	yes	57	0	310	0	0			0	0			1				0	
6.6.1	win	2023-06-19	00:40:07	00:48:33	502180	63d2f3294efc674f84b302d2	3	1	main_z	11	main_z	37	stimuli_distractor_diamondtriangles.svg	stimuli_target_trianglerectangles.svg	29	yes	44	1	587	0	0			0	0			1				0	
6.6.1	win	2023-06-19	00:40:07	00:48:33	502180	63d2f3294efc674f84b302d2	3	1	main_z	11	advance_on_keypress_ZEE	38	stimuli_distractor_diamondtriangles.svg	stimuli_target_trianglerectangles.svg	29	yes	57	0	182	0	0			0	0			1				0	
6.6.1	win	2023-06-19	00:40:07	00:48:36	505010	63d2f3294efc674f84b302d2	3	1	main_z	11	main_z	39	stimuli_distractor_trianglediamonds.svg	stimuli_distractor_diamondtriangles.svg	36	no	0	1	2000	0	0			0	0			1				0	
6.6.1	win	2023-06-19	00:40:07	00:48:36	505010	63d2f3294efc674f84b302d2	3	1	main_z	11	advance_on_keypress_ZEE	40	stimuli_distractor_trianglediamonds.svg	stimuli_distractor_diamondtriangles.svg	36	no	57	0	391	0	0			0	0			1				0	
6.6.1	win	2023-06-19	00:40:07	00:48:37	506564	63d2f3294efc674f84b302d2	3	1	main_z	11	main_z	41	stimuli_target_trianglesquares.svg	stimuli_distractor_trianglediamonds.svg	18	yes	44	1	521	0	0			0	0			1				0	
6.6.1	win	2023-06-19	00:40:07	00:48:37	506564	63d2f3294efc674f84b302d2	3	1	main_z	11	advance_on_keypress_ZEE	42	stimuli_target_trianglesquares.svg	stimuli_distractor_trianglediamonds.svg	18	yes	57	0	153	0	0			0	0			1				0	
6.6.1	win	2023-06-19	00:40:07	00:48:39	507956	63d2f3294efc674f84b302d2	3	1	main_z	11	main_z	43	stimuli_distractor_trianglediamonds.svg	stimuli_target_diamondsquares.svg	28	yes	44	1	598	0	0			0	0			1				0	
6.6.1	win	2023-06-19	00:40:07	00:48:39	507956	63d2f3294efc674f84b302d2	3	1	main_z	11	advance_on_keypress_ZEE	44	stimuli_distractor_trianglediamonds.svg	stimuli_target_diamondsquares.svg	28	yes	57	0	116	0	0			0	0			1				0	
6.6.1	win	2023-06-19	00:40:07	00:48:40	509633	63d2f3294efc674f84b302d2	3	1	main_z	11	main_z	45	stimuli_target_diamondsquares.svg	stimuli_distractor_diamondtriangles.svg	24	yes	44	1	909	0	0			0	0			1				0	
6.6.1	win	2023-06-19	00:40:07	00:48:40	509633	63d2f3294efc674f84b302d2	3	1	main_z	11	advance_on_keypress_ZEE	46	stimuli_target_diamondsquares.svg	stimuli_distractor_diamondtriangles.svg	24	yes	57	0	127	0	0			0	0			1				0	
6.6.1	win	2023-06-19	00:40:07	00:48:42	511131	63d2f3294efc674f84b302d2	3	1	main_z	11	main_z	47	stimuli_distractor_diamondtriangles.svg	stimuli_target_rectanglediamonds.svg	14	yes	44	1	724	0	0			0	0			1				0	
6.6.1	win	2023-06-19	00:40:07	00:48:42	511131	63d2f3294efc674f84b302d2	3	1	main_z	11	advance_on_keypress_ZEE	48	stimuli_distractor_diamondtriangles.svg	stimuli_target_rectanglediamonds.svg	14	yes	57	0	637	0	0			0	0			1				0	
6.6.1	win	2023-06-19	00:40:07	00:48:44	512991	63d2f3294efc674f84b302d2	3	1	main_z	11	main_z	49	stimuli_target_squaretriangles.svg	stimuli_distractor_diamondtriangles.svg	7	yes	44	1	582	0	0			0	0			1				0	
6.6.1	win	2023-06-19	00:40:07	00:48:44	512991	63d2f3294efc674f84b302d2	3	1	main_z	11	advance_on_keypress_ZEE	50	stimuli_target_squaretriangles.svg	stimuli_distractor_diamondtriangles.svg	7	yes	57	0	132	0	0			0	0			1				0	
6.6.1	win	2023-06-19	00:40:07	00:48:45	514327	63d2f3294efc674f84b302d2	3	1	main_z	11	main_z	51	stimuli_distractor_trianglediamonds.svg	stimuli_target_rectanglediamonds.svg	10	yes	44	1	553	0	0			0	0			1				0	
6.6.1	win	2023-06-19	00:40:07	00:48:45	514327	63d2f3294efc674f84b302d2	3	1	main_z	11	advance_on_keypress_ZEE	52	stimuli_distractor_trianglediamonds.svg	stimuli_target_rectanglediamonds.svg	10	yes	57	0	162	0	0			0	0			1				0	
6.6.1	win	2023-06-19	00:40:07	00:48:47	515800	63d2f3294efc674f84b302d2	3	1	main_z	11	main_z	53	stimuli_target_trianglerectangles.svg	stimuli_distractor_diamondtriangles.svg	21	yes	44	1	659	0	0			0	0			1				0	
6.6.1	win	2023-06-19	00:40:07	00:48:47	515800	63d2f3294efc674f84b302d2	3	1	main_z	11	advance_on_keypress_ZEE	54	stimuli_target_trianglerectangles.svg	stimuli_distractor_diamondtriangles.svg	21	yes	57	0	133	0	0			0	0			1				0	
6.6.1	win	2023-06-19	00:40:07	00:48:48	517162	63d2f3294efc674f84b302d2	3	1	main_z	11	main_z	55	stimuli_target_squaretriangles.svg	stimuli_distractor_trianglediamonds.svg	3	yes	44	1	573	0	0			0	0			1				0	
6.6.1	win	2023-06-19	00:40:07	00:48:48	517162	63d2f3294efc674f84b302d2	3	1	main_z	11	advance_on_keypress_ZEE	56	stimuli_target_squaretriangles.svg	stimuli_distractor_trianglediamonds.svg	3	yes	57	0	133	0	0			0	0			1				0	
6.6.1	win	2023-06-19	00:40:07	00:48:49	518473	63d2f3294efc674f84b302d2	3	1	main_z	11	main_z	57	stimuli_distractor_diamondtriangles.svg	stimuli_target_diamondrectangles.svg	31	yes	44	1	508	0	0			0	0			1				0	
6.6.1	win	2023-06-19	00:40:07	00:48:49	518473	63d2f3294efc674f84b302d2	3	1	main_z	11	advance_on_keypress_ZEE	58	stimuli_distractor_diamondtriangles.svg	stimuli_target_diamondrectangles.svg	31	yes	57	0	176	0	0			0	0			1				0	
6.6.1	win	2023-06-19	00:40:07	00:48:51	519927	63d2f3294efc674f84b302d2	3	1	main_z	11	main_z	59	stimuli_distractor_diamondtriangles.svg	stimuli_target_trianglesquares.svg	30	yes	44	1	636	0	0			0	0			1				0	
6.6.1	win	2023-06-19	00:40:07	00:48:51	519927	63d2f3294efc674f84b302d2	3	1	main_z	11	advance_on_keypress_ZEE	60	stimuli_distractor_diamondtriangles.svg	stimuli_target_trianglesquares.svg	30	yes	57	0	169	0	0			0	0			1				0	
6.6.1	win	2023-06-19	00:40:07	00:48:52	521445	63d2f3294efc674f84b302d2	3	1	main_z	11	main_z	61	stimuli_distractor_diamondtriangles.svg	stimuli_target_rectangletriangles.svg	13	yes	44	1	707	0	0			0	0			1				0	
6.6.1	win	2023-06-19	00:40:07	00:48:52	521445	63d2f3294efc674f84b302d2	3	1	main_z	11	advance_on_keypress_ZEE	62	stimuli_distractor_diamondtriangles.svg	stimuli_target_rectangletriangles.svg	13	yes	57	0	185	0	0			0	0			1				0	
6.6.1	win	2023-06-19	00:40:07	00:48:55	524273	63d2f3294efc674f84b302d2	3	1	main_z	11	main_z	63	stimuli_distractor_trianglediamonds.svg	stimuli_distractor_trianglediamonds.svg	34	no	0	1	2000	0	0			0	0			1				0	
6.6.1	win	2023-06-19	00:40:07	00:48:55	524273	63d2f3294efc674f84b302d2	3	1	main_z	11	advance_on_keypress_ZEE	64	stimuli_distractor_trianglediamonds.svg	stimuli_distractor_trianglediamonds.svg	34	no	57	0	348	0	0			0	0			1				0	
6.6.1	win	2023-06-19	00:40:07	00:48:57	525793	63d2f3294efc674f84b302d2	3	1	main_z	11	main_z	65	stimuli_distractor_trianglediamonds.svg	stimuli_target_diamondrectangles.svg	27	yes	44	1	522	0	0			0	0			1				0	
6.6.1	win	2023-06-19	00:40:07	00:48:57	525793	63d2f3294efc674f84b302d2	3	1	main_z	11	advance_on_keypress_ZEE	66	stimuli_distractor_trianglediamonds.svg	stimuli_target_diamondrectangles.svg	27	yes	57	0	190	0	0			0	0			1				0	
6.6.1	win	2023-06-19	00:40:07	00:48:58	527111	63d2f3294efc674f84b302d2	3	1	main_z	11	main_z	67	stimuli_target_rectanglediamonds.svg	stimuli_distractor_trianglediamonds.svg	2	yes	44	1	490	0	0			0	0			1				0	
6.6.1	win	2023-06-19	00:40:07	00:48:58	527111	63d2f3294efc674f84b302d2	3	1	main_z	11	advance_on_keypress_ZEE	68	stimuli_target_rectanglediamonds.svg	stimuli_distractor_trianglediamonds.svg	2	yes	57	0	145	0	0			0	0			1				0	
6.6.1	win	2023-06-19	00:40:07	00:48:59	528353	63d2f3294efc674f84b302d2	3	1	main_z	11	main_z	69	stimuli_distractor_diamondtriangles.svg	stimuli_target_diamondsquares.svg	32	yes	44	1	449	0	0			0	0			1				0	
6.6.1	win	2023-06-19	00:40:07	00:48:59	528353	63d2f3294efc674f84b302d2	3	1	main_z	11	advance_on_keypress_ZEE	70	stimuli_distractor_diamondtriangles.svg	stimuli_target_diamondsquares.svg	32	yes	57	0	154	0	0			0	0			1				0	
6.6.1	win	2023-06-19	00:40:07	00:49:01	529940	63d2f3294efc674f84b302d2	3	1	main_z	11	main_z	71	stimuli_target_trianglerectangles.svg	stimuli_distractor_trianglediamonds.svg	17	yes	44	1	786	0	0			0	0			1				0	
6.6.1	win	2023-06-19	00:40:07	00:49:01	529940	63d2f3294efc674f84b302d2	3	1	main_z	11	advance_on_keypress_ZEE	72	stimuli_target_trianglerectangles.svg	stimuli_distractor_trianglediamonds.svg	17	yes	57	0	198	0	0			0	0			1				0	
6.6.1	win	2023-06-19	00:40:07	00:49:02	531428	63d2f3294efc674f84b302d2	3	1	main_z	11	main_z	73	stimuli_distractor_trianglediamonds.svg	stimuli_target_trianglerectangles.svg	25	yes	44	1	643	0	0			0	0			1				0	
6.6.1	win	2023-06-19	00:40:07	00:49:02	531428	63d2f3294efc674f84b302d2	3	1	main_z	11	advance_on_keypress_ZEE	74	stimuli_distractor_trianglediamonds.svg	stimuli_target_trianglerectangles.svg	25	yes	57	0	163	0	0			0	0			1				0	
6.6.1	win	2023-06-19	00:40:07	00:49:04	532845	63d2f3294efc674f84b302d2	3	1	main_z	11	main_z	75	stimuli_distractor_trianglediamonds.svg	stimuli_target_rectangletriangles.svg	9	yes	44	1	610	0	0			0	0			1				0	
6.6.1	win	2023-06-19	00:40:07	00:49:04	532845	63d2f3294efc674f84b302d2	3	1	main_z	11	advance_on_keypress_ZEE	76	stimuli_distractor_trianglediamonds.svg	stimuli_target_rectangletriangles.svg	9	yes	57	0	170	0	0			0	0			1				0	
6.6.1	win	2023-06-19	00:40:07	00:49:05	534218	63d2f3294efc674f84b302d2	3	1	main_z	11	main_z	77	stimuli_target_squarediamonds.svg	stimuli_distractor_trianglediamonds.svg	4	yes	44	1	566	0	0			0	0			1				0	
6.6.1	win	2023-06-19	00:40:07	00:49:05	534218	63d2f3294efc674f84b302d2	3	1	main_z	11	advance_on_keypress_ZEE	78	stimuli_target_squarediamonds.svg	stimuli_distractor_trianglediamonds.svg	4	yes	57	0	173	0	0			0	0			1				0	
6.6.1	win	2023-06-19	00:40:07	00:49:06	535595	63d2f3294efc674f84b302d2	3	1	main_z	11	main_z	79	stimuli_target_diamondrectangles.svg	stimuli_distractor_trianglediamonds.svg	19	yes	44	1	561	0	0			0	0			1				0	
6.6.1	win	2023-06-19	00:40:07	00:49:06	535595	63d2f3294efc674f84b302d2	3	1	main_z	11	advance_on_keypress_ZEE	80	stimuli_target_diamondrectangles.svg	stimuli_distractor_trianglediamonds.svg	19	yes	57	0	132	0	0			0	0			1				0	
6.6.1	win	2023-06-19	00:40:07	00:49:08	536963	63d2f3294efc674f84b302d2	3	1	main_z	11	main_z	81	stimuli_target_trianglesquares.svg	stimuli_distractor_trianglediamonds.svg	18	yes	44	1	579	0	0			0	0			1				0	
6.6.1	win	2023-06-19	00:40:07	00:49:08	536963	63d2f3294efc674f84b302d2	3	1	main_z	11	advance_on_keypress_ZEE	82	stimuli_target_trianglesquares.svg	stimuli_distractor_trianglediamonds.svg	18	yes	57	0	154	0	0			0	0			1				0	
6.6.1	win	2023-06-19	00:40:07	00:49:09	538296	63d2f3294efc674f84b302d2	3	1	main_z	11	main_z	83	stimuli_target_squaretriangles.svg	stimuli_distractor_trianglediamonds.svg	3	yes	44	1	529	0	0			0	0			1				0	
6.6.1	win	2023-06-19	00:40:07	00:49:09	538296	63d2f3294efc674f84b302d2	3	1	main_z	11	advance_on_keypress_ZEE	84	stimuli_target_squaretriangles.svg	stimuli_distractor_trianglediamonds.svg	3	yes	57	0	123	0	0			0	0			1				0	
6.6.1	win	2023-06-19	00:40:07	00:49:11	540609	63d2f3294efc674f84b302d2	3	1	main_z	11	main_z	85	stimuli_target_trianglesquares.svg	stimuli_distractor_diamondtriangles.svg	22	yes	44	1	1542	0	0			0	0			1				0	
6.6.1	win	2023-06-19	00:40:07	00:49:11	540609	63d2f3294efc674f84b302d2	3	1	main_z	11	advance_on_keypress_ZEE	86	stimuli_target_trianglesquares.svg	stimuli_distractor_diamondtriangles.svg	22	yes	57	0	157	0	0			0	0			1				0	
6.6.1	win	2023-06-19	00:40:07	00:49:13	541967	63d2f3294efc674f84b302d2	3	1	main_z	11	main_z	87	stimuli_distractor_diamondtriangles.svg	stimuli_target_diamondrectangles.svg	31	yes	44	1	567	0	0			0	0			1				0	
6.6.1	win	2023-06-19	00:40:07	00:49:13	541967	63d2f3294efc674f84b302d2	3	1	main_z	11	advance_on_keypress_ZEE	88	stimuli_distractor_diamondtriangles.svg	stimuli_target_diamondrectangles.svg	31	yes	57	0	155	0	0			0	0			1				0	
6.6.1	win	2023-06-19	00:40:07	00:49:16	544767	63d2f3294efc674f84b302d2	3	1	main_z	11	main_z	89	stimuli_distractor_trianglediamonds.svg	stimuli_distractor_trianglediamonds.svg	34	no	0	1	2000	0	0			0	0			1				0	
6.6.1	win	2023-06-19	00:40:07	00:49:16	544767	63d2f3294efc674f84b302d2	3	1	main_z	11	advance_on_keypress_ZEE	90	stimuli_distractor_trianglediamonds.svg	stimuli_distractor_trianglediamonds.svg	34	no	57	0	596	0	0			0	0			1				0	
6.6.1	win	2023-06-19	00:40:07	00:49:19	548015	63d2f3294efc674f84b302d2	3	1	main_z	11	main_z	91	stimuli_distractor_trianglediamonds.svg	stimuli_distractor_diamondtriangles.svg	35	no	0	1	2000	0	0			0	0			1				0	
6.6.1	win	2023-06-19	00:40:07	00:49:19	548015	63d2f3294efc674f84b302d2	3	1	main_z	11	advance_on_keypress_ZEE	92	stimuli_distractor_trianglediamonds.svg	stimuli_distractor_diamondtriangles.svg	35	no	57	0	347	0	0			0	0			1				0	
6.6.1	win	2023-06-19	00:40:07	00:49:20	549505	63d2f3294efc674f84b302d2	3	1	main_z	11	main_z	93	stimuli_target_diamondrectangles.svg	stimuli_distractor_diamondtriangles.svg	23	yes	44	1	491	0	0			0	0			1				0	
6.6.1	win	2023-06-19	00:40:07	00:49:20	549505	63d2f3294efc674f84b302d2	3	1	main_z	11	advance_on_keypress_ZEE	94	stimuli_target_diamondrectangles.svg	stimuli_distractor_diamondtriangles.svg	23	yes	57	0	176	0	0			0	0			1				0	
6.6.1	win	2023-06-19	00:40:07	00:49:23	552314	63d2f3294efc674f84b302d2	3	1	main_z	11	main_z	95	stimuli_distractor_diamondtriangles.svg	stimuli_distractor_trianglediamonds.svg	37	no	0	1	2000	0	0			0	0			1				0	
6.6.1	win	2023-06-19	00:40:07	00:49:23	552314	63d2f3294efc674f84b302d2	3	1	main_z	11	advance_on_keypress_ZEE	96	stimuli_distractor_diamondtriangles.svg	stimuli_distractor_trianglediamonds.svg	37	no	57	0	656	0	0			0	0			1				0	
6.6.1	win	2023-06-19	00:40:07	00:49:25	554218	63d2f3294efc674f84b302d2	3	1	main_z	11	main_z	97	stimuli_target_squarediamonds.svg	stimuli_distractor_trianglediamonds.svg	4	yes	44	1	588	0	0			0	0			1				0	
6.6.1	win	2023-06-19	00:40:07	00:49:25	554218	63d2f3294efc674f84b302d2	3	1	main_z	11	advance_on_keypress_ZEE	98	stimuli_target_squarediamonds.svg	stimuli_distractor_trianglediamonds.svg	4	yes	57	0	160	0	0			0	0			1				0	
6.6.1	win	2023-06-19	00:40:07	00:49:28	557030	63d2f3294efc674f84b302d2	3	1	main_z	11	main_z	99	stimuli_distractor_trianglediamonds.svg	stimuli_distractor_diamondtriangles.svg	36	no	0	1	2000	0	0			0	0			1				0	
6.6.1	win	2023-06-19	00:40:07	00:49:28	557030	63d2f3294efc674f84b302d2	3	1	main_z	11	advance_on_keypress_ZEE	100	stimuli_distractor_trianglediamonds.svg	stimuli_distractor_diamondtriangles.svg	36	no	57	0	289	0	0			0	0			1				0	
6.6.1	win	2023-06-19	00:40:07	00:49:29	558548	63d2f3294efc674f84b302d2	3	1	main_z	11	main_z	101	stimuli_distractor_diamondtriangles.svg	stimuli_target_trianglesquares.svg	30	yes	44	1	585	0	0			0	0			1				0	
6.6.1	win	2023-06-19	00:40:07	00:49:29	558548	63d2f3294efc674f84b302d2	3	1	main_z	11	advance_on_keypress_ZEE	102	stimuli_distractor_diamondtriangles.svg	stimuli_target_trianglesquares.svg	30	yes	57	0	236	0	0			0	0			1				0	
6.6.1	win	2023-06-19	00:40:07	00:49:31	559950	63d2f3294efc674f84b302d2	3	1	main_z	11	main_z	103	stimuli_target_squarediamonds.svg	stimuli_distractor_diamondtriangles.svg	8	yes	44	1	520	0	0			0	0			1				0	
6.6.1	win	2023-06-19	00:40:07	00:49:31	559950	63d2f3294efc674f84b302d2	3	1	main_z	11	advance_on_keypress_ZEE	104	stimuli_target_squarediamonds.svg	stimuli_distractor_diamondtriangles.svg	8	yes	57	0	138	0	0			0	0			1				0	
6.6.1	win	2023-06-19	00:40:07	00:49:32	561301	63d2f3294efc674f84b302d2	3	1	main_z	11	main_z	105	stimuli_distractor_trianglediamonds.svg	stimuli_target_diamondrectangles.svg	27	yes	44	1	573	0	0			0	0			1				0	
6.6.1	win	2023-06-19	00:40:07	00:49:32	561301	63d2f3294efc674f84b302d2	3	1	main_z	11	advance_on_keypress_ZEE	106	stimuli_distractor_trianglediamonds.svg	stimuli_target_diamondrectangles.svg	27	yes	57	0	130	0	0			0	0			1				0	
6.6.1	win	2023-06-19	00:40:07	00:49:33	562613	63d2f3294efc674f84b302d2	3	1	main_z	11	main_z	107	stimuli_distractor_trianglediamonds.svg	stimuli_target_rectangletriangles.svg	9	yes	44	1	537	0	0			0	0			1				0	
6.6.1	win	2023-06-19	00:40:07	00:49:33	562613	63d2f3294efc674f84b302d2	3	1	main_z	11	advance_on_keypress_ZEE	108	stimuli_distractor_trianglediamonds.svg	stimuli_target_rectangletriangles.svg	9	yes	57	0	142	0	0			0	0			1				0	
6.6.1	win	2023-06-19	00:40:07	00:49:36	565394	63d2f3294efc674f84b302d2	3	1	main_z	11	main_z	109	stimuli_distractor_diamondtriangles.svg	stimuli_distractor_diamondtriangles.svg	40	no	0	1	2000	0	0			0	0			1				0	
6.6.1	win	2023-06-19	00:40:07	00:49:36	565394	63d2f3294efc674f84b302d2	3	1	main_z	11	advance_on_keypress_ZEE	110	stimuli_distractor_diamondtriangles.svg	stimuli_distractor_diamondtriangles.svg	40	no	57	0	314	0	0			0	0			1				0	
6.6.1	win	2023-06-19	00:40:07	00:49:38	566796	63d2f3294efc674f84b302d2	3	1	main_z	11	main_z	111	stimuli_distractor_diamondtriangles.svg	stimuli_target_trianglerectangles.svg	29	yes	44	1	437	0	0			0	0			1				0	
6.6.1	win	2023-06-19	00:40:07	00:49:38	566796	63d2f3294efc674f84b302d2	3	1	main_z	11	advance_on_keypress_ZEE	112	stimuli_distractor_diamondtriangles.svg	stimuli_target_trianglerectangles.svg	29	yes	57	0	147	0	0			0	0			1				0	
6.6.1	win	2023-06-19	00:40:07	00:49:39	568038	63d2f3294efc674f84b302d2	3	1	main_z	11	main_z	113	stimuli_target_rectangletriangles.svg	stimuli_distractor_diamondtriangles.svg	5	yes	44	1	446	0	0			0	0			1				0	
6.6.1	win	2023-06-19	00:40:07	00:49:39	568038	63d2f3294efc674f84b302d2	3	1	main_z	11	advance_on_keypress_ZEE	114	stimuli_target_rectangletriangles.svg	stimuli_distractor_diamondtriangles.svg	5	yes	57	0	144	0	0			0	0			1				0	
6.6.1	win	2023-06-19	00:40:07	00:49:40	569358	63d2f3294efc674f84b302d2	3	1	main_z	11	main_z	115	stimuli_target_diamondsquares.svg	stimuli_distractor_diamondtriangles.svg	24	yes	44	1	510	0	0			0	0			1				0	
6.6.1	win	2023-06-19	00:40:07	00:49:40	569358	63d2f3294efc674f84b302d2	3	1	main_z	11	advance_on_keypress_ZEE	116	stimuli_target_diamondsquares.svg	stimuli_distractor_diamondtriangles.svg	24	yes	57	0	116	0	0			0	0			1				0	
6.6.1	win	2023-06-19	00:40:07	00:49:42	571370	63d2f3294efc674f84b302d2	3	1	main_z	11	main_z	117	stimuli_target_trianglerectangles.svg	stimuli_distractor_diamondtriangles.svg	21	yes	44	1	1245	0	0			0	0			1				0	
6.6.1	win	2023-06-19	00:40:07	00:49:42	571370	63d2f3294efc674f84b302d2	3	1	main_z	11	advance_on_keypress_ZEE	118	stimuli_target_trianglerectangles.svg	stimuli_distractor_diamondtriangles.svg	21	yes	57	0	113	0	0			0	0			1				0	
6.6.1	win	2023-06-19	00:40:07	00:49:43	572617	63d2f3294efc674f84b302d2	3	1	main_z	11	main_z	119	stimuli_distractor_trianglediamonds.svg	stimuli_target_squarediamonds.svg	12	yes	44	1	476	0	0			0	0			1				0	
6.6.1	win	2023-06-19	00:40:07	00:49:43	572617	63d2f3294efc674f84b302d2	3	1	main_z	11	advance_on_keypress_ZEE	120	stimuli_distractor_trianglediamonds.svg	stimuli_target_squarediamonds.svg	12	yes	57	0	148	0	0			0	0			1				0	
6.6.1	win	2023-06-19	00:40:07	00:49:45	573875	63d2f3294efc674f84b302d2	3	1	main_z	11	main_z	121	stimuli_target_rectanglediamonds.svg	stimuli_distractor_trianglediamonds.svg	2	yes	44	1	466	0	0			0	0			1				0	
6.6.1	win	2023-06-19	00:40:07	00:49:45	573875	63d2f3294efc674f84b302d2	3	1	main_z	11	advance_on_keypress_ZEE	122	stimuli_target_rectanglediamonds.svg	stimuli_distractor_trianglediamonds.svg	2	yes	57	0	178	0	0			0	0			1				0	
6.6.1	win	2023-06-19	00:40:07	00:49:46	575169	63d2f3294efc674f84b302d2	3	1	main_z	11	main_z	123	stimuli_target_diamondrectangles.svg	stimuli_distractor_trianglediamonds.svg	19	yes	44	1	461	0	0			0	0			1				0	
6.6.1	win	2023-06-19	00:40:07	00:49:46	575169	63d2f3294efc674f84b302d2	3	1	main_z	11	advance_on_keypress_ZEE	124	stimuli_target_diamondrectangles.svg	stimuli_distractor_trianglediamonds.svg	19	yes	57	0	131	0	0			0	0			1				0	
6.6.1	win	2023-06-19	00:40:07	00:49:49	577958	63d2f3294efc674f84b302d2	3	1	main_z	11	main_z	125	stimuli_distractor_diamondtriangles.svg	stimuli_distractor_trianglediamonds.svg	38	no	0	1	2000	0	0			0	0			1				0	
6.6.1	win	2023-06-19	00:40:07	00:49:49	577958	63d2f3294efc674f84b302d2	3	1	main_z	11	advance_on_keypress_ZEE	126	stimuli_distractor_diamondtriangles.svg	stimuli_distractor_trianglediamonds.svg	38	no	57	0	744	0	0			0	0			1				0	
6.6.1	win	2023-06-19	00:40:07	00:49:51	579810	63d2f3294efc674f84b302d2	3	1	main_z	11	main_z	127	stimuli_distractor_diamondtriangles.svg	stimuli_target_rectanglediamonds.svg	14	yes	44	1	453	0	0			0	0			1				0	
6.6.1	win	2023-06-19	00:40:07	00:49:51	579810	63d2f3294efc674f84b302d2	3	1	main_z	11	advance_on_keypress_ZEE	128	stimuli_distractor_diamondtriangles.svg	stimuli_target_rectanglediamonds.svg	14	yes	57	0	182	0	0			0	0			1				0	
6.6.1	win	2023-06-19	00:40:07	00:49:52	581097	63d2f3294efc674f84b302d2	3	1	main_z	11	main_z	129	stimuli_target_squaretriangles.svg	stimuli_distractor_diamondtriangles.svg	7	yes	44	1	458	0	0			0	0			1				0	
6.6.1	win	2023-06-19	00:40:07	00:49:52	581097	63d2f3294efc674f84b302d2	3	1	main_z	11	advance_on_keypress_ZEE	130	stimuli_target_squaretriangles.svg	stimuli_distractor_diamondtriangles.svg	7	yes	57	0	157	0	0			0	0			1				0	
6.6.1	win	2023-06-19	00:40:07	00:49:53	582372	63d2f3294efc674f84b302d2	3	1	main_z	11	main_z	131	stimuli_distractor_diamondtriangles.svg	stimuli_target_diamondsquares.svg	32	yes	44	1	480	0	0			0	0			1				0	
6.6.1	win	2023-06-19	00:40:07	00:49:53	582372	63d2f3294efc674f84b302d2	3	1	main_z	11	advance_on_keypress_ZEE	132	stimuli_distractor_diamondtriangles.svg	stimuli_target_diamondsquares.svg	32	yes	57	0	146	0	0			0	0			1				0	
6.6.1	win	2023-06-19	00:40:07	00:49:54	583696	63d2f3294efc674f84b302d2	3	1	main_z	11	main_z	133	stimuli_target_rectanglediamonds.svg	stimuli_distractor_diamondtriangles.svg	6	yes	44	1	524	0	0			0	0			1				0	
6.6.1	win	2023-06-19	00:40:07	00:49:54	583696	63d2f3294efc674f84b302d2	3	1	main_z	11	advance_on_keypress_ZEE	134	stimuli_target_rectanglediamonds.svg	stimuli_distractor_diamondtriangles.svg	6	yes	57	0	147	0	0			0	0			1				0	
6.6.1	win	2023-06-19	00:40:07	00:49:56	585535	63d2f3294efc674f84b302d2	3	1	main_z	11	main_z	135	stimuli_target_diamondsquares.svg	stimuli_distractor_trianglediamonds.svg	20	yes	44	1	1047	0	0			0	0			1				0	
6.6.1	win	2023-06-19	00:40:07	00:49:56	585535	63d2f3294efc674f84b302d2	3	1	main_z	11	advance_on_keypress_ZEE	136	stimuli_target_diamondsquares.svg	stimuli_distractor_trianglediamonds.svg	20	yes	57	0	127	0	0			0	0			1				0	
6.6.1	win	2023-06-19	00:40:07	00:49:58	586839	63d2f3294efc674f84b302d2	3	1	main_z	11	main_z	137	stimuli_distractor_trianglediamonds.svg	stimuli_target_squaretriangles.svg	11	yes	44	1	516	0	0			0	0			1				0	
6.6.1	win	2023-06-19	00:40:07	00:49:58	586839	63d2f3294efc674f84b302d2	3	1	main_z	11	advance_on_keypress_ZEE	138	stimuli_distractor_trianglediamonds.svg	stimuli_target_squaretriangles.svg	11	yes	57	0	98	0	0			0	0			1				0	
6.6.1	win	2023-06-19	00:40:07	00:49:59	588126	63d2f3294efc674f84b302d2	3	1	main_z	11	main_z	139	stimuli_target_trianglerectangles.svg	stimuli_distractor_trianglediamonds.svg	17	yes	44	1	538	0	0			0	0			1				0	
6.6.1	win	2023-06-19	00:40:07	00:49:59	588126	63d2f3294efc674f84b302d2	3	1	main_z	11	advance_on_keypress_ZEE	140	stimuli_target_trianglerectangles.svg	stimuli_distractor_trianglediamonds.svg	17	yes	57	0	123	0	0			0	0			1				0	
6.6.1	win	2023-06-19	00:40:07	00:50:00	589483	63d2f3294efc674f84b302d2	3	1	main_z	11	main_z	141	stimuli_target_rectangletriangles.svg	stimuli_distractor_trianglediamonds.svg	1	yes	44	1	596	0	0			0	0			1				0	
6.6.1	win	2023-06-19	00:40:07	00:50:00	589483	63d2f3294efc674f84b302d2	3	1	main_z	11	advance_on_keypress_ZEE	142	stimuli_target_rectangletriangles.svg	stimuli_distractor_trianglediamonds.svg	1	yes	57	0	114	0	0			0	0			1				0	
6.6.1	win	2023-06-19	00:40:07	00:50:02	590885	63d2f3294efc674f84b302d2	3	1	main_z	11	main_z	143	stimuli_distractor_diamondtriangles.svg	stimuli_target_squaretriangles.svg	15	yes	44	1	631	0	0			0	0			1				0	
6.6.1	win	2023-06-19	00:40:07	00:50:02	590885	63d2f3294efc674f84b302d2	3	1	main_z	11	advance_on_keypress_ZEE	144	stimuli_distractor_diamondtriangles.svg	stimuli_target_squaretriangles.svg	15	yes	57	0	123	0	0			0	0			1				0	
6.6.1	win	2023-06-19	00:40:07	00:50:03	592063	63d2f3294efc674f84b302d2	3	1	main_z	11	main_z	145	stimuli_distractor_trianglediamonds.svg	stimuli_target_trianglerectangles.svg	25	yes	44	1	408	0	0			0	0			1				0	
6.6.1	win	2023-06-19	00:40:07	00:50:03	592063	63d2f3294efc674f84b302d2	3	1	main_z	11	advance_on_keypress_ZEE	146	stimuli_distractor_trianglediamonds.svg	stimuli_target_trianglerectangles.svg	25	yes	57	0	128	0	0			0	0			1				0	
6.6.1	win	2023-06-19	00:40:07	00:50:06	594837	63d2f3294efc674f84b302d2	3	1	main_z	11	main_z	147	stimuli_distractor_trianglediamonds.svg	stimuli_distractor_trianglediamonds.svg	33	no	0	1	2000	0	0			0	0			1				0	
6.6.1	win	2023-06-19	00:40:07	00:50:06	594837	63d2f3294efc674f84b302d2	3	1	main_z	11	advance_on_keypress_ZEE	148	stimuli_distractor_trianglediamonds.svg	stimuli_distractor_trianglediamonds.svg	33	no	57	0	302	0	0			0	0			1				0	
6.6.1	win	2023-06-19	00:40:07	00:50:07	596144	63d2f3294efc674f84b302d2	3	1	main_z	11	main_z	149	stimuli_distractor_diamondtriangles.svg	stimuli_target_squarediamonds.svg	16	yes	44	1	359	0	0			0	0			1				0	
6.6.1	win	2023-06-19	00:40:07	00:50:07	596144	63d2f3294efc674f84b302d2	3	1	main_z	11	advance_on_keypress_ZEE	150	stimuli_distractor_diamondtriangles.svg	stimuli_target_squarediamonds.svg	16	yes	57	0	157	0	0			0	0			1				0	
6.6.1	win	2023-06-19	00:40:07	00:50:08	597331	63d2f3294efc674f84b302d2	3	1	main_z	11	main_z	151	stimuli_distractor_trianglediamonds.svg	stimuli_target_diamondsquares.svg	28	yes	44	1	396	0	0			0	0			1				0	
6.6.1	win	2023-06-19	00:40:07	00:50:08	597331	63d2f3294efc674f84b302d2	3	1	main_z	11	advance_on_keypress_ZEE	152	stimuli_distractor_trianglediamonds.svg	stimuli_target_diamondsquares.svg	28	yes	57	0	101	0	0			0	0			1				0	
6.6.1	win	2023-06-19	00:40:07	00:50:11	600086	63d2f3294efc674f84b302d2	3	1	main_z	11	main_z	153	stimuli_distractor_diamondtriangles.svg	stimuli_distractor_diamondtriangles.svg	39	no	0	1	2000	0	0			0	0			1				0	
6.6.1	win	2023-06-19	00:40:07	00:50:11	600086	63d2f3294efc674f84b302d2	3	1	main_z	11	advance_on_keypress_ZEE	154	stimuli_distractor_diamondtriangles.svg	stimuli_distractor_diamondtriangles.svg	39	no	57	0	371	0	0			0	0			1				0	
6.6.1	win	2023-06-19	00:40:07	00:50:12	601510	63d2f3294efc674f84b302d2	3	1	main_z	11	main_z	155	stimuli_distractor_diamondtriangles.svg	stimuli_target_rectangletriangles.svg	13	yes	44	1	409	0	0			0	0			1				0	
6.6.1	win	2023-06-19	00:40:07	00:50:12	601510	63d2f3294efc674f84b302d2	3	1	main_z	11	advance_on_keypress_ZEE	156	stimuli_distractor_diamondtriangles.svg	stimuli_target_rectangletriangles.svg	13	yes	57	0	132	0	0			0	0			1				0	
6.6.1	win	2023-06-19	00:40:07	00:50:14	602731	63d2f3294efc674f84b302d2	3	1	main_z	11	main_z	157	stimuli_distractor_trianglediamonds.svg	stimuli_target_trianglesquares.svg	26	yes	44	1	448	0	0			0	0			1				0	
6.6.1	win	2023-06-19	00:40:07	00:50:14	602731	63d2f3294efc674f84b302d2	3	1	main_z	11	advance_on_keypress_ZEE	158	stimuli_distractor_trianglediamonds.svg	stimuli_target_trianglesquares.svg	26	yes	57	0	117	0	0			0	0			1				0	
6.6.1	win	2023-06-19	00:40:07	00:50:15	603955	63d2f3294efc674f84b302d2	3	1	main_z	11	main_z	159	stimuli_distractor_trianglediamonds.svg	stimuli_target_rectanglediamonds.svg	10	yes	44	1	454	0	0			0	0			1				0	
6.6.1	win	2023-06-19	00:40:07	00:50:15	603955	63d2f3294efc674f84b302d2	3	1	main_z	11	advance_on_keypress_ZEE	160	stimuli_distractor_trianglediamonds.svg	stimuli_target_rectanglediamonds.svg	10	yes	57	0	123	0	0			0	0			1				0	
6.6.1	win	2023-06-19	00:40:07	00:50:15	603955	63d2f3294efc674f84b302d2	3	1	headphonecheck_calibration	14	headphonecheck_calibrationIntro	1	stimuli_distractor_trianglediamonds.svg	stimuli_target_rectanglediamonds.svg	10	yes	calibrationButton	0	5341	0	0			0	0			1				0	
6.6.1	win	2023-06-19	00:40:07	00:50:15	603955	63d2f3294efc674f84b302d2	3	1	headphonecheck_testphase	15	test_collectResponse	3	stimuli_distractor_trianglediamonds.svg	stimuli_target_rectanglediamonds.svg	10	yes	third	1	408	1	2	antiphase_hc_ios.wav	3	0	0			1				0	
6.6.1	win	2023-06-19	00:40:07	00:50:15	603955	63d2f3294efc674f84b302d2	3	1	headphonecheck_testphase	15	test_collectResponse	6	stimuli_distractor_trianglediamonds.svg	stimuli_target_rectanglediamonds.svg	10	yes	second	1	94	2	5	antiphase_hc_osi.wav	2	0	0			1				0	
6.6.1	win	2023-06-19	00:40:07	00:50:15	603955	63d2f3294efc674f84b302d2	3	1	headphonecheck_testphase	15	test_collectResponse	9	stimuli_distractor_trianglediamonds.svg	stimuli_target_rectanglediamonds.svg	10	yes	first	1	1271	3	4	antiphase_hc_sio.wav	1	0	0			1				0	
6.6.1	win	2023-06-19	00:40:07	00:50:15	603955	63d2f3294efc674f84b302d2	3	1	headphonecheck_testphase	15	test_collectResponse	12	stimuli_distractor_trianglediamonds.svg	stimuli_target_rectanglediamonds.svg	10	yes	first	1	394	4	3	antiphase_hc_soi.wav	1	0	0			1				0	
6.6.1	win	2023-06-19	00:40:07	00:50:15	603955	63d2f3294efc674f84b302d2	3	1	headphonecheck_testphase	15	test_collectResponse	15	stimuli_distractor_trianglediamonds.svg	stimuli_target_rectanglediamonds.svg	10	yes	third	1	324	5	6	antiphase_hc_ois.wav	3	0	0			1				0	
6.6.1	win	2023-06-19	00:40:07	00:50:15	603955	63d2f3294efc674f84b302d2	3	1	headphonecheck_testphase	15	test_collectResponse	18	stimuli_distractor_trianglediamonds.svg	stimuli_target_rectanglediamonds.svg	10	yes	second	1	366	6	1	antiphase_hc_iso.wav	2	0	0			1				0	
6.6.1	win	2023-06-19	00:40:07	00:50:15	603955	63d2f3294efc674f84b302d2	3	1	stereocheck_calibration	17	stereocheck_calibrationIntro	1	stimuli_distractor_trianglediamonds.svg	stimuli_target_rectanglediamonds.svg	10	yes	stereocheck_calibrationButton	0	2430	6	1	antiphase_hc_iso.wav	2	0	0			1				0	
6.6.1	win	2023-06-19	00:40:07	00:50:15	603955	63d2f3294efc674f84b302d2	3	1	stereocheck_testphase	18	stereocheck_test_collectResponse	3	stimuli_distractor_trianglediamonds.svg	stimuli_target_rectanglediamonds.svg	10	yes	stereocheck_right	1	475	6	1	antiphase_hc_iso.wav	2	1	4	noise_calib_stim_RIGHT.wav	2	1				0	
6.6.1	win	2023-06-19	00:40:07	00:50:15	603955	63d2f3294efc674f84b302d2	3	1	stereocheck_testphase	18	stereocheck_test_collectResponse	6	stimuli_distractor_trianglediamonds.svg	stimuli_target_rectanglediamonds.svg	10	yes	stereocheck_left	1	671	6	1	antiphase_hc_iso.wav	2	2	3	noise_calib_stim_LEFT.wav	1	1				0	
6.6.1	win	2023-06-19	00:40:07	00:50:15	603955	63d2f3294efc674f84b302d2	3	1	stereocheck_testphase	18	stereocheck_test_collectResponse	9	stimuli_distractor_trianglediamonds.svg	stimuli_target_rectanglediamonds.svg	10	yes	stereocheck_left	1	279	6	1	antiphase_hc_iso.wav	2	3	2	noise_calib_stim_LEFT.wav	1	1				0	
6.6.1	win	2023-06-19	00:40:07	00:50:15	603955	63d2f3294efc674f84b302d2	3	1	stereocheck_testphase	18	stereocheck_test_collectResponse	12	stimuli_distractor_trianglediamonds.svg	stimuli_target_rectanglediamonds.svg	10	yes	stereocheck_right	1	185	6	1	antiphase_hc_iso.wav	2	4	5	noise_calib_stim_RIGHT.wav	2	1				0	
6.6.1	win	2023-06-19	00:40:07	00:50:15	603955	63d2f3294efc674f84b302d2	3	1	stereocheck_testphase	18	stereocheck_test_collectResponse	15	stimuli_distractor_trianglediamonds.svg	stimuli_target_rectanglediamonds.svg	10	yes	stereocheck_right	1	162	6	1	antiphase_hc_iso.wav	2	5	6	noise_calib_stim_RIGHT.wav	2	1				0	
6.6.1	win	2023-06-19	00:40:07	00:50:15	603955	63d2f3294efc674f84b302d2	3	1	stereocheck_testphase	18	stereocheck_test_collectResponse	18	stimuli_distractor_trianglediamonds.svg	stimuli_target_rectanglediamonds.svg	10	yes	stereocheck_left	1	178	6	1	antiphase_hc_iso.wav	2	6	1	noise_calib_stim_LEFT.wav	1	1				0	
6.6.1	win	2023-06-19	00:40:07	00:50:15	603955	63d2f3294efc674f84b302d2	3	1	DL_practice	21	DL_practice	2	stimuli_distractor_trianglediamonds.svg	stimuli_target_rectanglediamonds.svg	10	yes	ba	1	1437	6	1	antiphase_hc_iso.wav	2	6	1	noise_calib_stim_LEFT.wav	1	1	blb_dichoticlistening_ba-ba.mp3	ba	ba	0	left
6.6.1	win	2023-06-19	00:40:07	00:50:15	603955	63d2f3294efc674f84b302d2	3	1	DL_practice	21	DL_practice	3	stimuli_distractor_trianglediamonds.svg	stimuli_target_rectanglediamonds.svg	10	yes	da	1	1726	6	1	antiphase_hc_iso.wav	2	6	1	noise_calib_stim_LEFT.wav	1	7	blb_dichoticlistening_da-ba.mp3	da	ba	1	left
6.6.1	win	2023-06-19	00:40:07	00:50:15	603955	63d2f3294efc674f84b302d2	3	1	DL_practice	21	DL_practice	4	stimuli_distractor_trianglediamonds.svg	stimuli_target_rectanglediamonds.svg	10	yes	ka	1	1009	6	1	antiphase_hc_iso.wav	2	6	1	noise_calib_stim_LEFT.wav	1	22	blb_dichoticlistening_ka-ka.mp3	ka	ka	0	left
6.6.1	win	2023-06-19	00:40:07	00:50:15	603955	63d2f3294efc674f84b302d2	3	1	DL_practice	21	DL_practice	5	stimuli_distractor_trianglediamonds.svg	stimuli_target_rectanglediamonds.svg	10	yes	ka	1	905	6	1	antiphase_hc_iso.wav	2	6	1	noise_calib_stim_LEFT.wav	1	23	blb_dichoticlistening_ka-pa.mp3	ka	pa	1	left
6.6.1	win	2023-06-19	00:40:07	00:50:15	603955	63d2f3294efc674f84b302d2	3	1	DL_practice	21	DL_practice	6	stimuli_distractor_trianglediamonds.svg	stimuli_target_rectanglediamonds.svg	10	yes	ta	1	1438	6	1	antiphase_hc_iso.wav	2	6	1	noise_calib_stim_LEFT.wav	1	18	blb_dichoticlistening_ga-ta.mp3	ga	ta	1	right
6.6.1	win	2023-06-19	00:40:07	00:50:15	603955	63d2f3294efc674f84b302d2	3	1	DL_practice	21	DL_practice	7	stimuli_distractor_trianglediamonds.svg	stimuli_target_rectanglediamonds.svg	10	yes	ta	1	1087	6	1	antiphase_hc_iso.wav	2	6	1	noise_calib_stim_LEFT.wav	1	36	blb_dichoticlistening_ta-ta.mp3	ta	ta	0	left
6.6.1	win	2023-06-19	00:40:07	00:50:15	603955	63d2f3294efc674f84b302d2	3	1	DL_practice	21	DL_practice	8	stimuli_distractor_trianglediamonds.svg	stimuli_target_rectanglediamonds.svg	10	yes	pa	1	697	6	1	antiphase_hc_iso.wav	2	6	1	noise_calib_stim_LEFT.wav	1	29	blb_dichoticlistening_pa-pa.mp3	pa	pa	0	left
6.6.1	win	2023-06-19	00:40:07	00:50:15	603955	63d2f3294efc674f84b302d2	3	1	DL_practice	21	DL_practice	9	stimuli_distractor_trianglediamonds.svg	stimuli_target_rectanglediamonds.svg	10	yes	da	1	1656	6	1	antiphase_hc_iso.wav	2	6	1	noise_calib_stim_LEFT.wav	1	8	blb_dichoticlistening_da-da.mp3	da	da	0	left
6.6.1	win	2023-06-19	00:40:07	00:50:15	603955	63d2f3294efc674f84b302d2	3	1	DL_practice	21	DL_practice	10	stimuli_distractor_trianglediamonds.svg	stimuli_target_rectanglediamonds.svg	10	yes	ga	1	522	6	1	antiphase_hc_iso.wav	2	6	1	noise_calib_stim_LEFT.wav	1	15	blb_dichoticlistening_ga-ga.mp3	ga	ga	0	left
6.6.1	win	2023-06-19	00:40:07	00:50:15	603955	63d2f3294efc674f84b302d2	3	1	DL_test	23	DL_test	1	stimuli_distractor_trianglediamonds.svg	stimuli_target_rectanglediamonds.svg	10	yes	ga	0	3231	6	1	antiphase_hc_iso.wav	2	6	1	noise_calib_stim_LEFT.wav	1	10	blb_dichoticlistening_da-ka.mp3	da	ka	1	other
6.6.1	win	2023-06-19	00:40:07	00:50:15	603955	63d2f3294efc674f84b302d2	3	1	DL_test	23	DL_test	2	stimuli_distractor_trianglediamonds.svg	stimuli_target_rectanglediamonds.svg	10	yes	ka	1	962	6	1	antiphase_hc_iso.wav	2	6	1	noise_calib_stim_LEFT.wav	1	4	blb_dichoticlistening_ba-ka.mp3	ba	ka	1	right
6.6.1	win	2023-06-19	00:40:07	00:50:15	603955	63d2f3294efc674f84b302d2	3	1	DL_test	23	DL_test	3	stimuli_distractor_trianglediamonds.svg	stimuli_target_rectanglediamonds.svg	10	yes	ta	1	1400	6	1	antiphase_hc_iso.wav	2	6	1	noise_calib_stim_LEFT.wav	1	36	blb_dichoticlistening_ta-ta.mp3	ta	ta	0	left
6.6.1	win	2023-06-19	00:40:07	00:50:15	603955	63d2f3294efc674f84b302d2	3	1	DL_test	23	DL_test	4	stimuli_distractor_trianglediamonds.svg	stimuli_target_rectanglediamonds.svg	10	yes	ga	1	794	6	1	antiphase_hc_iso.wav	2	6	1	noise_calib_stim_LEFT.wav	1	15	blb_dichoticlistening_ga-ga.mp3	ga	ga	0	left
6.6.1	win	2023-06-19	00:40:07	00:50:15	603955	63d2f3294efc674f84b302d2	3	1	DL_test	23	DL_test	5	stimuli_distractor_trianglediamonds.svg	stimuli_target_rectanglediamonds.svg	10	yes	ka	1	781	6	1	antiphase_hc_iso.wav	2	6	1	noise_calib_stim_LEFT.wav	1	28	blb_dichoticlistening_pa-ka.mp3	pa	ka	1	right
6.6.1	win	2023-06-19	00:40:07	00:50:15	603955	63d2f3294efc674f84b302d2	3	1	DL_test	23	DL_test	6	stimuli_distractor_trianglediamonds.svg	stimuli_target_rectanglediamonds.svg	10	yes	ta	1	1004	6	1	antiphase_hc_iso.wav	2	6	1	noise_calib_stim_LEFT.wav	1	30	blb_dichoticlistening_pa-ta.mp3	pa	ta	1	right
6.6.1	win	2023-06-19	00:40:07	00:50:15	603955	63d2f3294efc674f84b302d2	3	1	DL_test	23	DL_test	7	stimuli_distractor_trianglediamonds.svg	stimuli_target_rectanglediamonds.svg	10	yes	ta	1	1731	6	1	antiphase_hc_iso.wav	2	6	1	noise_calib_stim_LEFT.wav	1	31	blb_dichoticlistening_ta-ba.mp3	ta	ba	1	left
6.6.1	win	2023-06-19	00:40:07	00:50:15	603955	63d2f3294efc674f84b302d2	3	1	DL_test	23	DL_test	8	stimuli_distractor_trianglediamonds.svg	stimuli_target_rectanglediamonds.svg	10	yes	ta	1	1201	6	1	antiphase_hc_iso.wav	2	6	1	noise_calib_stim_LEFT.wav	1	24	blb_dichoticlistening_ka-ta.mp3	ka	ta	1	right
6.6.1	win	2023-06-19	00:40:07	00:50:15	603955	63d2f3294efc674f84b302d2	3	1	DL_test	23	DL_test	9	stimuli_distractor_trianglediamonds.svg	stimuli_target_rectanglediamonds.svg	10	yes	ba	1	1729	6	1	antiphase_hc_iso.wav	2	6	1	noise_calib_stim_LEFT.wav	1	6	blb_dichoticlistening_ba-ta.mp3	ba	ta	1	left
6.6.1	win	2023-06-19	00:40:07	00:50:15	603955	63d2f3294efc674f84b302d2	3	1	DL_test	23	DL_test	10	stimuli_distractor_trianglediamonds.svg	stimuli_target_rectanglediamonds.svg	10	yes	ba	1	1043	6	1	antiphase_hc_iso.wav	2	6	1	noise_calib_stim_LEFT.wav	1	7	blb_dichoticlistening_da-ba.mp3	da	ba	1	right
6.6.1	win	2023-06-19	00:40:07	00:50:15	603955	63d2f3294efc674f84b302d2	3	1	DL_test	23	DL_test	11	stimuli_distractor_trianglediamonds.svg	stimuli_target_rectanglediamonds.svg	10	yes	da	1	1066	6	1	antiphase_hc_iso.wav	2	6	1	noise_calib_stim_LEFT.wav	1	26	blb_dichoticlistening_pa-da.mp3	pa	da	1	right
6.6.1	win	2023-06-19	00:40:07	00:50:15	603955	63d2f3294efc674f84b302d2	3	1	DL_test	23	DL_test	12	stimuli_distractor_trianglediamonds.svg	stimuli_target_rectanglediamonds.svg	10	yes	pa	1	2716	6	1	antiphase_hc_iso.wav	2	6	1	noise_calib_stim_LEFT.wav	1	25	blb_dichoticlistening_pa-ba.mp3	pa	ba	1	left
6.6.1	win	2023-06-19	00:40:07	00:50:15	603955	63d2f3294efc674f84b302d2	3	1	DL_test	23	DL_test	13	stimuli_distractor_trianglediamonds.svg	stimuli_target_rectanglediamonds.svg	10	yes	ka	1	1298	6	1	antiphase_hc_iso.wav	2	6	1	noise_calib_stim_LEFT.wav	1	23	blb_dichoticlistening_ka-pa.mp3	ka	pa	1	left
6.6.1	win	2023-06-19	00:40:07	00:50:15	603955	63d2f3294efc674f84b302d2	3	1	DL_test	23	DL_test	14	stimuli_distractor_trianglediamonds.svg	stimuli_target_rectanglediamonds.svg	10	yes	ka	1	1278	6	1	antiphase_hc_iso.wav	2	6	1	noise_calib_stim_LEFT.wav	1	20	blb_dichoticlistening_ka-da.mp3	ka	da	1	left
6.6.1	win	2023-06-19	00:40:07	00:50:15	603955	63d2f3294efc674f84b302d2	3	1	DL_test	23	DL_test	15	stimuli_distractor_trianglediamonds.svg	stimuli_target_rectanglediamonds.svg	10	yes	ga	1	928	6	1	antiphase_hc_iso.wav	2	6	1	noise_calib_stim_LEFT.wav	1	27	blb_dichoticlistening_pa-ga.mp3	pa	ga	1	right
6.6.1	win	2023-06-19	00:40:07	00:50:15	603955	63d2f3294efc674f84b302d2	3	1	DL_test	23	DL_test	16	stimuli_distractor_trianglediamonds.svg	stimuli_target_rectanglediamonds.svg	10	yes	pa	1	1006	6	1	antiphase_hc_iso.wav	2	6	1	noise_calib_stim_LEFT.wav	1	29	blb_dichoticlistening_pa-pa.mp3	pa	pa	0	left
6.6.1	win	2023-06-19	00:40:07	00:50:15	603955	63d2f3294efc674f84b302d2	3	1	DL_test	23	DL_test	17	stimuli_distractor_trianglediamonds.svg	stimuli_target_rectanglediamonds.svg	10	yes	ta	1	1177	6	1	antiphase_hc_iso.wav	2	6	1	noise_calib_stim_LEFT.wav	1	34	blb_dichoticlistening_ta-ka.mp3	ta	ka	1	left
6.6.1	win	2023-06-19	00:40:07	00:50:15	603955	63d2f3294efc674f84b302d2	3	1	DL_test	23	DL_test	18	stimuli_distractor_trianglediamonds.svg	stimuli_target_rectanglediamonds.svg	10	yes	ka	1	1501	6	1	antiphase_hc_iso.wav	2	6	1	noise_calib_stim_LEFT.wav	1	16	blb_dichoticlistening_ga-ka.mp3	ga	ka	1	right
6.6.1	win	2023-06-19	00:40:07	00:50:15	603955	63d2f3294efc674f84b302d2	3	1	DL_test	23	DL_test	19	stimuli_distractor_trianglediamonds.svg	stimuli_target_rectanglediamonds.svg	10	yes	ka	1	655	6	1	antiphase_hc_iso.wav	2	6	1	noise_calib_stim_LEFT.wav	1	22	blb_dichoticlistening_ka-ka.mp3	ka	ka	0	left
6.6.1	win	2023-06-19	00:40:07	00:50:15	603955	63d2f3294efc674f84b302d2	3	1	DL_test	23	DL_test	20	stimuli_distractor_trianglediamonds.svg	stimuli_target_rectanglediamonds.svg	10	yes	da	0	1123	6	1	antiphase_hc_iso.wav	2	6	1	noise_calib_stim_LEFT.wav	1	3	blb_dichoticlistening_ba-ga.mp3	ba	ga	1	other
6.6.1	win	2023-06-19	00:40:07	00:50:15	603955	63d2f3294efc674f84b302d2	3	1	DL_test	23	DL_test	21	stimuli_distractor_trianglediamonds.svg	stimuli_target_rectanglediamonds.svg	10	yes	pa	1	883	6	1	antiphase_hc_iso.wav	2	6	1	noise_calib_stim_LEFT.wav	1	35	blb_dichoticlistening_ta-pa.mp3	ta	pa	1	right
6.6.1	win	2023-06-19	00:40:07	00:50:15	603955	63d2f3294efc674f84b302d2	3	1	DL_test	23	DL_test	22	stimuli_distractor_trianglediamonds.svg	stimuli_target_rectanglediamonds.svg	10	yes	pa	1	855	6	1	antiphase_hc_iso.wav	2	6	1	noise_calib_stim_LEFT.wav	1	5	blb_dichoticlistening_ba-pa.mp3	ba	pa	1	right
6.6.1	win	2023-06-19	00:40:07	00:50:15	603955	63d2f3294efc674f84b302d2	3	1	DL_test	23	DL_test	23	stimuli_distractor_trianglediamonds.svg	stimuli_target_rectanglediamonds.svg	10	yes	pa	1	1237	6	1	antiphase_hc_iso.wav	2	6	1	noise_calib_stim_LEFT.wav	1	11	blb_dichoticlistening_da-pa.mp3	da	pa	1	right
6.6.1	win	2023-06-19	00:40:07	00:50:15	603955	63d2f3294efc674f84b302d2	3	1	DL_test	23	DL_test	24	stimuli_distractor_trianglediamonds.svg	stimuli_target_rectanglediamonds.svg	10	yes	ta	1	1199	6	1	antiphase_hc_iso.wav	2	6	1	noise_calib_stim_LEFT.wav	1	12	blb_dichoticlistening_da-ta.mp3	da	ta	1	right
6.6.1	win	2023-06-19	00:40:07	00:50:15	603955	63d2f3294efc674f84b302d2	3	1	DL_test	23	DL_test	25	stimuli_distractor_trianglediamonds.svg	stimuli_target_rectanglediamonds.svg	10	yes	ga	1	949	6	1	antiphase_hc_iso.wav	2	6	1	noise_calib_stim_LEFT.wav	1	33	blb_dichoticlistening_ta-ga.mp3	ta	ga	1	right
6.6.1	win	2023-06-19	00:40:07	00:50:15	603955	63d2f3294efc674f84b302d2	3	1	DL_test	23	DL_test	26	stimuli_distractor_trianglediamonds.svg	stimuli_target_rectanglediamonds.svg	10	yes	da	0	917	6	1	antiphase_hc_iso.wav	2	6	1	noise_calib_stim_LEFT.wav	1	13	blb_dichoticlistening_ga-ba.mp3	ga	ba	1	other
