build	computer.platform	date	time	timestamp	time_elapsed_ms	subject	group	session	blockcode	blocknum	trialcode	trialnum	stimulus_left	stimulus_right	stim_index	target_present	response	correct	latency	headphonecheck_countTestTrials	headphonecheck_index	headphonecheck_testSound	headphonecheck_correctResponse	stereocheck_countTestTrials	stereocheck_index	stereocheck_testSound	stereocheck_correctResponse	DL_index	DL_soundfile	DL_leftSound	DL_rightSound	DL_dualSound	DL_choice
6.6.1	win	2023-06-27	11:28:06	0	0	5d5d13312a28f400015a5b6f	1	1	headphonecheck_calibration	4	headphonecheck_calibrationIntro	1			0		calibrationButton	0	29396	0	0			0	0			1				0	
6.6.1	win	2023-06-27	11:28:06	0	0	5d5d13312a28f400015a5b6f	1	1	headphonecheck_testphase	5	test_collectResponse	3			0		third	0	3314	1	4	antiphase_hc_sio.wav	1	0	0			1				0	
6.6.1	win	2023-06-27	11:28:06	0	0	5d5d13312a28f400015a5b6f	1	1	headphonecheck_testphase	5	test_collectResponse	6			0		second	0	710	2	2	antiphase_hc_ios.wav	3	0	0			1				0	
6.6.1	win	2023-06-27	11:28:06	0	0	5d5d13312a28f400015a5b6f	1	1	headphonecheck_testphase	5	test_collectResponse	9			0		third	1	583	3	6	antiphase_hc_ois.wav	3	0	0			1				0	
6.6.1	win	2023-06-27	11:28:06	0	0	5d5d13312a28f400015a5b6f	1	1	headphonecheck_testphase	5	test_collectResponse	12			0		first	0	893	4	5	antiphase_hc_osi.wav	2	0	0			1				0	
6.6.1	win	2023-06-27	11:28:06	0	0	5d5d13312a28f400015a5b6f	1	1	headphonecheck_testphase	5	test_collectResponse	15			0		second	1	398	5	1	antiphase_hc_iso.wav	2	0	0			1				0	
6.6.1	win	2023-06-27	11:28:06	0	0	5d5d13312a28f400015a5b6f	1	1	headphonecheck_testphase	5	test_collectResponse	18			0		first	1	1337	6	3	antiphase_hc_soi.wav	1	0	0			1				0	
6.6.1	win	2023-06-27	11:28:06	0	0	5d5d13312a28f400015a5b6f	1	1	stereocheck_calibration	7	stereocheck_calibrationIntro	1			0		stereocheck_calibrationButton	0	16772	6	3	antiphase_hc_soi.wav	1	0	0			1				0	
6.6.1	win	2023-06-27	11:28:06	0	0	5d5d13312a28f400015a5b6f	1	1	stereocheck_testphase	8	stereocheck_test_collectResponse	3			0		stereocheck_right	1	336	6	3	antiphase_hc_soi.wav	1	1	4	noise_calib_stim_RIGHT.wav	2	1				0	
6.6.1	win	2023-06-27	11:28:06	0	0	5d5d13312a28f400015a5b6f	1	1	stereocheck_testphase	8	stereocheck_test_collectResponse	6			0		stereocheck_left	1	339	6	3	antiphase_hc_soi.wav	1	2	3	noise_calib_stim_LEFT.wav	1	1				0	
6.6.1	win	2023-06-27	11:28:06	0	0	5d5d13312a28f400015a5b6f	1	1	stereocheck_testphase	8	stereocheck_test_collectResponse	9			0		stereocheck_right	1	540	6	3	antiphase_hc_soi.wav	1	3	6	noise_calib_stim_RIGHT.wav	2	1				0	
6.6.1	win	2023-06-27	11:28:06	0	0	5d5d13312a28f400015a5b6f	1	1	stereocheck_testphase	8	stereocheck_test_collectResponse	12			0		stereocheck_left	1	357	6	3	antiphase_hc_soi.wav	1	4	2	noise_calib_stim_LEFT.wav	1	1				0	
6.6.1	win	2023-06-27	11:28:06	0	0	5d5d13312a28f400015a5b6f	1	1	stereocheck_testphase	8	stereocheck_test_collectResponse	15			0		stereocheck_left	1	88	6	3	antiphase_hc_soi.wav	1	5	1	noise_calib_stim_LEFT.wav	1	1				0	
6.6.1	win	2023-06-27	11:28:06	0	0	5d5d13312a28f400015a5b6f	1	1	stereocheck_testphase	8	stereocheck_test_collectResponse	18			0		stereocheck_right	1	525	6	3	antiphase_hc_soi.wav	1	6	5	noise_calib_stim_RIGHT.wav	2	1				0	
6.6.1	win	2023-06-27	11:28:06	0	0	5d5d13312a28f400015a5b6f	1	1	DL_practice	11	DL_practice	2			0		ta	0	5640	6	3	antiphase_hc_soi.wav	1	6	5	noise_calib_stim_RIGHT.wav	2	7	blb_dichoticlistening_da-ba.mp3	da	ba	1	other
6.6.1	win	2023-06-27	11:28:06	0	0	5d5d13312a28f400015a5b6f	1	1	DL_practice	11	DL_practice	3			0		ka	0	1209	6	3	antiphase_hc_soi.wav	1	6	5	noise_calib_stim_RIGHT.wav	2	18	blb_dichoticlistening_ga-ta.mp3	ga	ta	1	other
6.6.1	win	2023-06-27	11:28:06	0	0	5d5d13312a28f400015a5b6f	1	1	DL_practice	11	DL_practice	4			0		pa	1	1918	6	3	antiphase_hc_soi.wav	1	6	5	noise_calib_stim_RIGHT.wav	2	29	blb_dichoticlistening_pa-pa.mp3	pa	pa	0	left
6.6.1	win	2023-06-27	11:28:06	0	0	5d5d13312a28f400015a5b6f	1	1	DL_practice	11	DL_practice	5			0		ta	1	2060	6	3	antiphase_hc_soi.wav	1	6	5	noise_calib_stim_RIGHT.wav	2	36	blb_dichoticlistening_ta-ta.mp3	ta	ta	0	left
6.6.1	win	2023-06-27	11:28:06	0	0	5d5d13312a28f400015a5b6f	1	1	DL_practice	11	DL_practice	6			0		ta	0	2228	6	3	antiphase_hc_soi.wav	1	6	5	noise_calib_stim_RIGHT.wav	2	1	blb_dichoticlistening_ba-ba.mp3	ba	ba	0	other
6.6.1	win	2023-06-27	11:28:06	0	0	5d5d13312a28f400015a5b6f	1	1	DL_practice	11	DL_practice	7			0		ga	1	1672	6	3	antiphase_hc_soi.wav	1	6	5	noise_calib_stim_RIGHT.wav	2	15	blb_dichoticlistening_ga-ga.mp3	ga	ga	0	left
6.6.1	win	2023-06-27	11:28:06	0	0	5d5d13312a28f400015a5b6f	1	1	DL_practice	11	DL_practice	8			0		ka	1	999	6	3	antiphase_hc_soi.wav	1	6	5	noise_calib_stim_RIGHT.wav	2	22	blb_dichoticlistening_ka-ka.mp3	ka	ka	0	left
6.6.1	win	2023-06-27	11:28:06	0	0	5d5d13312a28f400015a5b6f	1	1	DL_practice	11	DL_practice	9			0		ta	0	2062	6	3	antiphase_hc_soi.wav	1	6	5	noise_calib_stim_RIGHT.wav	2	23	blb_dichoticlistening_ka-pa.mp3	ka	pa	1	other
6.6.1	win	2023-06-27	11:28:06	0	0	5d5d13312a28f400015a5b6f	1	1	DL_practice	11	DL_practice	10			0		da	1	1989	6	3	antiphase_hc_soi.wav	1	6	5	noise_calib_stim_RIGHT.wav	2	8	blb_dichoticlistening_da-da.mp3	da	da	0	left
6.6.1	win	2023-06-27	11:28:06	0	0	5d5d13312a28f400015a5b6f	1	1	DL_test	13	DL_test	1			0		da	1	1464	6	3	antiphase_hc_soi.wav	1	6	5	noise_calib_stim_RIGHT.wav	2	10	blb_dichoticlistening_da-ka.mp3	da	ka	1	left
6.6.1	win	2023-06-27	11:28:06	0	0	5d5d13312a28f400015a5b6f	1	1	DL_test	13	DL_test	2			0		da	1	1289	6	3	antiphase_hc_soi.wav	1	6	5	noise_calib_stim_RIGHT.wav	2	11	blb_dichoticlistening_da-pa.mp3	da	pa	1	left
6.6.1	win	2023-06-27	11:28:06	0	0	5d5d13312a28f400015a5b6f	1	1	DL_test	13	DL_test	3			0		pa	1	1297	6	3	antiphase_hc_soi.wav	1	6	5	noise_calib_stim_RIGHT.wav	2	5	blb_dichoticlistening_ba-pa.mp3	ba	pa	1	right
6.6.1	win	2023-06-27	11:28:06	0	0	5d5d13312a28f400015a5b6f	1	1	DL_test	13	DL_test	4			0		ka	0	1284	6	3	antiphase_hc_soi.wav	1	6	5	noise_calib_stim_RIGHT.wav	2	14	blb_dichoticlistening_ga-da.mp3	ga	da	1	other
6.6.1	win	2023-06-27	11:28:06	0	0	5d5d13312a28f400015a5b6f	1	1	DL_test	13	DL_test	5			0		ta	0	1924	6	3	antiphase_hc_soi.wav	1	6	5	noise_calib_stim_RIGHT.wav	2	19	blb_dichoticlistening_ka-ba.mp3	ka	ba	1	other
6.6.1	win	2023-06-27	11:28:06	0	0	5d5d13312a28f400015a5b6f	1	1	DL_test	13	DL_test	6			0		ta	1	1437	6	3	antiphase_hc_soi.wav	1	6	5	noise_calib_stim_RIGHT.wav	2	34	blb_dichoticlistening_ta-ka.mp3	ta	ka	1	left
6.6.1	win	2023-06-27	11:28:06	0	0	5d5d13312a28f400015a5b6f	1	1	DL_test	13	DL_test	7			0		ta	0	1923	6	3	antiphase_hc_soi.wav	1	6	5	noise_calib_stim_RIGHT.wav	2	23	blb_dichoticlistening_ka-pa.mp3	ka	pa	1	other
6.6.1	win	2023-06-27	11:28:06	0	0	5d5d13312a28f400015a5b6f	1	1	DL_test	13	DL_test	8			0		ta	1	1320	6	3	antiphase_hc_soi.wav	1	6	5	noise_calib_stim_RIGHT.wav	2	35	blb_dichoticlistening_ta-pa.mp3	ta	pa	1	left
6.6.1	win	2023-06-27	11:28:06	0	0	5d5d13312a28f400015a5b6f	1	1	DL_test	13	DL_test	9			0		ka	1	955	6	3	antiphase_hc_soi.wav	1	6	5	noise_calib_stim_RIGHT.wav	2	16	blb_dichoticlistening_ga-ka.mp3	ga	ka	1	right
6.6.1	win	2023-06-27	11:28:06	0	0	5d5d13312a28f400015a5b6f	1	1	DL_test	13	DL_test	10			0		ka	1	876	6	3	antiphase_hc_soi.wav	1	6	5	noise_calib_stim_RIGHT.wav	2	20	blb_dichoticlistening_ka-da.mp3	ka	da	1	left
6.6.1	win	2023-06-27	11:28:06	0	0	5d5d13312a28f400015a5b6f	1	1	DL_test	13	DL_test	11			0		ka	0	916	6	3	antiphase_hc_soi.wav	1	6	5	noise_calib_stim_RIGHT.wav	2	33	blb_dichoticlistening_ta-ga.mp3	ta	ga	1	other
6.6.1	win	2023-06-27	11:28:06	0	0	5d5d13312a28f400015a5b6f	1	1	DL_test	13	DL_test	12			0		ka	0	695	6	3	antiphase_hc_soi.wav	1	6	5	noise_calib_stim_RIGHT.wav	2	12	blb_dichoticlistening_da-ta.mp3	da	ta	1	other
6.6.1	win	2023-06-27	11:28:06	0	0	5d5d13312a28f400015a5b6f	1	1	DL_test	13	DL_test	13			0		ta	0	1854	6	3	antiphase_hc_soi.wav	1	6	5	noise_calib_stim_RIGHT.wav	2	7	blb_dichoticlistening_da-ba.mp3	da	ba	1	other
6.6.1	win	2023-06-27	11:28:06	0	0	5d5d13312a28f400015a5b6f	1	1	DL_test	13	DL_test	14			0		ga	1	1021	6	3	antiphase_hc_soi.wav	1	6	5	noise_calib_stim_RIGHT.wav	2	15	blb_dichoticlistening_ga-ga.mp3	ga	ga	0	left
6.6.1	win	2023-06-27	11:28:06	0	0	5d5d13312a28f400015a5b6f	1	1	DL_test	13	DL_test	15			0		ba	1	1810	6	3	antiphase_hc_soi.wav	1	6	5	noise_calib_stim_RIGHT.wav	2	31	blb_dichoticlistening_ta-ba.mp3	ta	ba	1	right
6.6.1	win	2023-06-27	11:28:06	0	0	5d5d13312a28f400015a5b6f	1	1	DL_test	13	DL_test	16			0		pa	0	2699	6	3	antiphase_hc_soi.wav	1	6	5	noise_calib_stim_RIGHT.wav	2	13	blb_dichoticlistening_ga-ba.mp3	ga	ba	1	other
6.6.1	win	2023-06-27	11:28:06	0	0	5d5d13312a28f400015a5b6f	1	1	DL_test	13	DL_test	17			0		ta	1	1142	6	3	antiphase_hc_soi.wav	1	6	5	noise_calib_stim_RIGHT.wav	2	36	blb_dichoticlistening_ta-ta.mp3	ta	ta	0	left
6.6.1	win	2023-06-27	11:28:06	0	0	5d5d13312a28f400015a5b6f	1	1	DL_test	13	DL_test	18			0		ta	0	2200	6	3	antiphase_hc_soi.wav	1	6	5	noise_calib_stim_RIGHT.wav	2	3	blb_dichoticlistening_ba-ga.mp3	ba	ga	1	other
6.6.1	win	2023-06-27	11:28:06	0	0	5d5d13312a28f400015a5b6f	1	1	DL_test	13	DL_test	19			0		ga	1	2142	6	3	antiphase_hc_soi.wav	1	6	5	noise_calib_stim_RIGHT.wav	2	21	blb_dichoticlistening_ka-ga.mp3	ka	ga	1	right
6.6.1	win	2023-06-27	11:28:06	0	0	5d5d13312a28f400015a5b6f	1	1	DL_test	13	DL_test	20			0		ka	0	771	6	3	antiphase_hc_soi.wav	1	6	5	noise_calib_stim_RIGHT.wav	2	32	blb_dichoticlistening_ta-da.mp3	ta	da	1	other
6.6.1	win	2023-06-27	11:28:06	0	0	5d5d13312a28f400015a5b6f	1	1	DL_test	13	DL_test	21			0		ta	1	1612	6	3	antiphase_hc_soi.wav	1	6	5	noise_calib_stim_RIGHT.wav	2	6	blb_dichoticlistening_ba-ta.mp3	ba	ta	1	right
6.6.1	win	2023-06-27	11:28:06	0	0	5d5d13312a28f400015a5b6f	1	1	DL_test	13	DL_test	22			0		ta	1	1359	6	3	antiphase_hc_soi.wav	1	6	5	noise_calib_stim_RIGHT.wav	2	24	blb_dichoticlistening_ka-ta.mp3	ka	ta	1	right
6.6.1	win	2023-06-27	11:28:06	0	0	5d5d13312a28f400015a5b6f	1	1	DL_test	13	DL_test	23			0		pa	1	1341	6	3	antiphase_hc_soi.wav	1	6	5	noise_calib_stim_RIGHT.wav	2	29	blb_dichoticlistening_pa-pa.mp3	pa	pa	0	left
6.6.1	win	2023-06-27	11:28:06	0	0	5d5d13312a28f400015a5b6f	1	1	DL_test	13	DL_test	24			0		ta	1	1212	6	3	antiphase_hc_soi.wav	1	6	5	noise_calib_stim_RIGHT.wav	2	30	blb_dichoticlistening_pa-ta.mp3	pa	ta	1	right
6.6.1	win	2023-06-27	11:28:06	0	0	5d5d13312a28f400015a5b6f	1	1	DL_test	13	DL_test	25			0		pa	0	1121	6	3	antiphase_hc_soi.wav	1	6	5	noise_calib_stim_RIGHT.wav	2	1	blb_dichoticlistening_ba-ba.mp3	ba	ba	0	other
6.6.1	win	2023-06-27	11:28:06	0	0	5d5d13312a28f400015a5b6f	1	1	DL_test	13	DL_test	26			0		ga	1	1676	6	3	antiphase_hc_soi.wav	1	6	5	noise_calib_stim_RIGHT.wav	2	9	blb_dichoticlistening_da-ga.mp3	da	ga	1	right
6.6.1	win	2023-06-27	11:28:06	0	0	5d5d13312a28f400015a5b6f	1	1	DL_test	13	DL_test	27			0		pa	1	1614	6	3	antiphase_hc_soi.wav	1	6	5	noise_calib_stim_RIGHT.wav	2	25	blb_dichoticlistening_pa-ba.mp3	pa	ba	1	left
6.6.1	win	2023-06-27	11:28:06	0	0	5d5d13312a28f400015a5b6f	1	1	DL_test	13	DL_test	28			0		ka	1	1631	6	3	antiphase_hc_soi.wav	1	6	5	noise_calib_stim_RIGHT.wav	2	28	blb_dichoticlistening_pa-ka.mp3	pa	ka	1	right
6.6.1	win	2023-06-27	11:28:06	0	0	5d5d13312a28f400015a5b6f	1	1	DL_test	13	DL_test	29			0		da	1	1589	6	3	antiphase_hc_soi.wav	1	6	5	noise_calib_stim_RIGHT.wav	2	8	blb_dichoticlistening_da-da.mp3	da	da	0	left
6.6.1	win	2023-06-27	11:28:06	0	0	5d5d13312a28f400015a5b6f	1	1	DL_test	13	DL_test	30			0		ga	1	1543	6	3	antiphase_hc_soi.wav	1	6	5	noise_calib_stim_RIGHT.wav	2	27	blb_dichoticlistening_pa-ga.mp3	pa	ga	1	right
6.6.1	win	2023-06-27	11:28:06	0	0	5d5d13312a28f400015a5b6f	1	1	DL_test	13	DL_test	31			0		ka	0	980	6	3	antiphase_hc_soi.wav	1	6	5	noise_calib_stim_RIGHT.wav	2	18	blb_dichoticlistening_ga-ta.mp3	ga	ta	1	other
6.6.1	win	2023-06-27	11:28:06	0	0	5d5d13312a28f400015a5b6f	1	1	DL_test	13	DL_test	32			0		ta	0	1297	6	3	antiphase_hc_soi.wav	1	6	5	noise_calib_stim_RIGHT.wav	2	4	blb_dichoticlistening_ba-ka.mp3	ba	ka	1	other
6.6.1	win	2023-06-27	11:28:06	0	0	5d5d13312a28f400015a5b6f	1	1	DL_test	13	DL_test	33			0		ka	0	1324	6	3	antiphase_hc_soi.wav	1	6	5	noise_calib_stim_RIGHT.wav	2	17	blb_dichoticlistening_ga-pa.mp3	ga	pa	1	other
6.6.1	win	2023-06-27	11:28:06	0	0	5d5d13312a28f400015a5b6f	1	1	DL_test	13	DL_test	34			0		ka	0	1778	6	3	antiphase_hc_soi.wav	1	6	5	noise_calib_stim_RIGHT.wav	2	26	blb_dichoticlistening_pa-da.mp3	pa	da	1	other
6.6.1	win	2023-06-27	11:28:06	0	0	5d5d13312a28f400015a5b6f	1	1	DL_test	13	DL_test	35			0		ka	1	1141	6	3	antiphase_hc_soi.wav	1	6	5	noise_calib_stim_RIGHT.wav	2	22	blb_dichoticlistening_ka-ka.mp3	ka	ka	0	left
6.6.1	win	2023-06-27	11:28:06	0	0	5d5d13312a28f400015a5b6f	1	1	DL_test	13	DL_test	36			0		ta	0	2879	6	3	antiphase_hc_soi.wav	1	6	5	noise_calib_stim_RIGHT.wav	2	2	blb_dichoticlistening_ba-da.mp3	ba	da	1	other
6.6.1	win	2023-06-27	11:28:06	0	0	5d5d13312a28f400015a5b6f	1	1	DL_test	14	DL_test	1			0		ka	1	1062	6	3	antiphase_hc_soi.wav	1	6	5	noise_calib_stim_RIGHT.wav	2	20	blb_dichoticlistening_ka-da.mp3	ka	da	1	left
6.6.1	win	2023-06-27	11:28:06	0	0	5d5d13312a28f400015a5b6f	1	1	DL_test	14	DL_test	2			0		pa	1	1252	6	3	antiphase_hc_soi.wav	1	6	5	noise_calib_stim_RIGHT.wav	2	29	blb_dichoticlistening_pa-pa.mp3	pa	pa	0	left
6.6.1	win	2023-06-27	11:28:06	0	0	5d5d13312a28f400015a5b6f	1	1	DL_test	14	DL_test	3			0		ga	1	1449	6	3	antiphase_hc_soi.wav	1	6	5	noise_calib_stim_RIGHT.wav	2	9	blb_dichoticlistening_da-ga.mp3	da	ga	1	right
6.6.1	win	2023-06-27	11:28:06	0	0	5d5d13312a28f400015a5b6f	1	1	DL_test	14	DL_test	4			0		pa	1	987	6	3	antiphase_hc_soi.wav	1	6	5	noise_calib_stim_RIGHT.wav	2	5	blb_dichoticlistening_ba-pa.mp3	ba	pa	1	right
6.6.1	win	2023-06-27	11:28:06	0	0	5d5d13312a28f400015a5b6f	1	1	DL_test	14	DL_test	5			0		ga	1	1353	6	3	antiphase_hc_soi.wav	1	6	5	noise_calib_stim_RIGHT.wav	2	15	blb_dichoticlistening_ga-ga.mp3	ga	ga	0	left
6.6.1	win	2023-06-27	11:28:06	0	0	5d5d13312a28f400015a5b6f	1	1	DL_test	14	DL_test	6			0		ka	0	834	6	3	antiphase_hc_soi.wav	1	6	5	noise_calib_stim_RIGHT.wav	2	18	blb_dichoticlistening_ga-ta.mp3	ga	ta	1	other
6.6.1	win	2023-06-27	11:28:06	0	0	5d5d13312a28f400015a5b6f	1	1	DL_test	14	DL_test	7			0		ta	1	2013	6	3	antiphase_hc_soi.wav	1	6	5	noise_calib_stim_RIGHT.wav	2	31	blb_dichoticlistening_ta-ba.mp3	ta	ba	1	left
6.6.1	win	2023-06-27	11:28:06	0	0	5d5d13312a28f400015a5b6f	1	1	DL_test	14	DL_test	8			0		ta	1	1850	6	3	antiphase_hc_soi.wav	1	6	5	noise_calib_stim_RIGHT.wav	2	6	blb_dichoticlistening_ba-ta.mp3	ba	ta	1	right
6.6.1	win	2023-06-27	11:28:06	0	0	5d5d13312a28f400015a5b6f	1	1	DL_test	14	DL_test	9			0		da	1	986	6	3	antiphase_hc_soi.wav	1	6	5	noise_calib_stim_RIGHT.wav	2	8	blb_dichoticlistening_da-da.mp3	da	da	0	left
6.6.1	win	2023-06-27	11:28:06	0	0	5d5d13312a28f400015a5b6f	1	1	DL_test	14	DL_test	10			0		ta	0	1799	6	3	antiphase_hc_soi.wav	1	6	5	noise_calib_stim_RIGHT.wav	2	2	blb_dichoticlistening_ba-da.mp3	ba	da	1	other
6.6.1	win	2023-06-27	11:28:06	0	0	5d5d13312a28f400015a5b6f	1	1	DL_test	14	DL_test	11			0		ta	1	2067	6	3	antiphase_hc_soi.wav	1	6	5	noise_calib_stim_RIGHT.wav	2	12	blb_dichoticlistening_da-ta.mp3	da	ta	1	right
6.6.1	win	2023-06-27	11:28:06	0	0	5d5d13312a28f400015a5b6f	1	1	DL_test	14	DL_test	12			0		ba	1	1518	6	3	antiphase_hc_soi.wav	1	6	5	noise_calib_stim_RIGHT.wav	2	7	blb_dichoticlistening_da-ba.mp3	da	ba	1	right
6.6.1	win	2023-06-27	11:28:06	0	0	5d5d13312a28f400015a5b6f	1	1	DL_test	14	DL_test	13			0		da	1	1951	6	3	antiphase_hc_soi.wav	1	6	5	noise_calib_stim_RIGHT.wav	2	26	blb_dichoticlistening_pa-da.mp3	pa	da	1	right
6.6.1	win	2023-06-27	11:28:06	0	0	5d5d13312a28f400015a5b6f	1	1	DL_test	14	DL_test	14			0		ka	1	1156	6	3	antiphase_hc_soi.wav	1	6	5	noise_calib_stim_RIGHT.wav	2	28	blb_dichoticlistening_pa-ka.mp3	pa	ka	1	right
6.6.1	win	2023-06-27	11:28:06	0	0	5d5d13312a28f400015a5b6f	1	1	DL_test	14	DL_test	15			0		ta	1	1644	6	3	antiphase_hc_soi.wav	1	6	5	noise_calib_stim_RIGHT.wav	2	32	blb_dichoticlistening_ta-da.mp3	ta	da	1	left
6.6.1	win	2023-06-27	11:28:06	0	0	5d5d13312a28f400015a5b6f	1	1	DL_test	14	DL_test	16			0		ka	1	1148	6	3	antiphase_hc_soi.wav	1	6	5	noise_calib_stim_RIGHT.wav	2	21	blb_dichoticlistening_ka-ga.mp3	ka	ga	1	left
6.6.1	win	2023-06-27	11:28:06	0	0	5d5d13312a28f400015a5b6f	1	1	DL_test	14	DL_test	17			0		ta	1	1782	6	3	antiphase_hc_soi.wav	1	6	5	noise_calib_stim_RIGHT.wav	2	34	blb_dichoticlistening_ta-ka.mp3	ta	ka	1	left
6.6.1	win	2023-06-27	11:28:06	0	0	5d5d13312a28f400015a5b6f	1	1	DL_test	14	DL_test	18			0		ta	0	1618	6	3	antiphase_hc_soi.wav	1	6	5	noise_calib_stim_RIGHT.wav	2	1	blb_dichoticlistening_ba-ba.mp3	ba	ba	0	other
6.6.1	win	2023-06-27	11:28:06	0	0	5d5d13312a28f400015a5b6f	1	1	DL_test	14	DL_test	19			0		ka	0	1089	6	3	antiphase_hc_soi.wav	1	6	5	noise_calib_stim_RIGHT.wav	2	27	blb_dichoticlistening_pa-ga.mp3	pa	ga	1	other
6.6.1	win	2023-06-27	11:28:06	0	0	5d5d13312a28f400015a5b6f	1	1	DL_test	14	DL_test	20			0		ta	0	1318	6	3	antiphase_hc_soi.wav	1	6	5	noise_calib_stim_RIGHT.wav	2	13	blb_dichoticlistening_ga-ba.mp3	ga	ba	1	other
6.6.1	win	2023-06-27	11:28:06	0	0	5d5d13312a28f400015a5b6f	1	1	DL_test	14	DL_test	21			0		ta	0	1368	6	3	antiphase_hc_soi.wav	1	6	5	noise_calib_stim_RIGHT.wav	2	4	blb_dichoticlistening_ba-ka.mp3	ba	ka	1	other
6.6.1	win	2023-06-27	11:28:06	0	0	5d5d13312a28f400015a5b6f	1	1	DL_test	14	DL_test	22			0		ka	1	1234	6	3	antiphase_hc_soi.wav	1	6	5	noise_calib_stim_RIGHT.wav	2	16	blb_dichoticlistening_ga-ka.mp3	ga	ka	1	right
6.6.1	win	2023-06-27	11:28:06	0	0	5d5d13312a28f400015a5b6f	1	1	DL_test	14	DL_test	23			0		ka	0	1094	6	3	antiphase_hc_soi.wav	1	6	5	noise_calib_stim_RIGHT.wav	2	33	blb_dichoticlistening_ta-ga.mp3	ta	ga	1	other
6.6.1	win	2023-06-27	11:28:06	0	0	5d5d13312a28f400015a5b6f	1	1	DL_test	14	DL_test	24			0		ka	1	1358	6	3	antiphase_hc_soi.wav	1	6	5	noise_calib_stim_RIGHT.wav	2	10	blb_dichoticlistening_da-ka.mp3	da	ka	1	right
6.6.1	win	2023-06-27	11:28:06	0	0	5d5d13312a28f400015a5b6f	1	1	DL_test	14	DL_test	25			0		ka	1	907	6	3	antiphase_hc_soi.wav	1	6	5	noise_calib_stim_RIGHT.wav	2	19	blb_dichoticlistening_ka-ba.mp3	ka	ba	1	left
6.6.1	win	2023-06-27	11:28:06	0	0	5d5d13312a28f400015a5b6f	1	1	DL_test	14	DL_test	26			0		ta	1	1691	6	3	antiphase_hc_soi.wav	1	6	5	noise_calib_stim_RIGHT.wav	2	30	blb_dichoticlistening_pa-ta.mp3	pa	ta	1	right
6.6.1	win	2023-06-27	11:28:06	0	0	5d5d13312a28f400015a5b6f	1	1	DL_test	14	DL_test	27			0		da	1	1291	6	3	antiphase_hc_soi.wav	1	6	5	noise_calib_stim_RIGHT.wav	2	11	blb_dichoticlistening_da-pa.mp3	da	pa	1	left
6.6.1	win	2023-06-27	11:28:06	0	0	5d5d13312a28f400015a5b6f	1	1	DL_test	14	DL_test	28			0		ta	0	1603	6	3	antiphase_hc_soi.wav	1	6	5	noise_calib_stim_RIGHT.wav	2	23	blb_dichoticlistening_ka-pa.mp3	ka	pa	1	other
6.6.1	win	2023-06-27	11:28:06	0	0	5d5d13312a28f400015a5b6f	1	1	DL_test	14	DL_test	29			0		ta	1	1287	6	3	antiphase_hc_soi.wav	1	6	5	noise_calib_stim_RIGHT.wav	2	24	blb_dichoticlistening_ka-ta.mp3	ka	ta	1	right
6.6.1	win	2023-06-27	11:28:06	0	0	5d5d13312a28f400015a5b6f	1	1	DL_test	14	DL_test	30			0		ta	0	1966	6	3	antiphase_hc_soi.wav	1	6	5	noise_calib_stim_RIGHT.wav	2	22	blb_dichoticlistening_ka-ka.mp3	ka	ka	0	other
6.6.1	win	2023-06-27	11:28:06	0	0	5d5d13312a28f400015a5b6f	1	1	DL_test	14	DL_test	31			0		ka	0	7014	6	3	antiphase_hc_soi.wav	1	6	5	noise_calib_stim_RIGHT.wav	2	3	blb_dichoticlistening_ba-ga.mp3	ba	ga	1	other
6.6.1	win	2023-06-27	11:28:06	0	0	5d5d13312a28f400015a5b6f	1	1	DL_test	14	DL_test	32			0		ka	0	1804	6	3	antiphase_hc_soi.wav	1	6	5	noise_calib_stim_RIGHT.wav	2	17	blb_dichoticlistening_ga-pa.mp3	ga	pa	1	other
6.6.1	win	2023-06-27	11:28:06	0	0	5d5d13312a28f400015a5b6f	1	1	DL_test	14	DL_test	33			0		ga	0	1085	6	3	antiphase_hc_soi.wav	1	6	5	noise_calib_stim_RIGHT.wav	2	35	blb_dichoticlistening_ta-pa.mp3	ta	pa	1	other
6.6.1	win	2023-06-27	11:28:06	0	0	5d5d13312a28f400015a5b6f	1	1	DL_test	14	DL_test	34			0		ta	1	1394	6	3	antiphase_hc_soi.wav	1	6	5	noise_calib_stim_RIGHT.wav	2	36	blb_dichoticlistening_ta-ta.mp3	ta	ta	0	left
6.6.1	win	2023-06-27	11:28:06	0	0	5d5d13312a28f400015a5b6f	1	1	DL_test	14	DL_test	35			0		ka	0	1291	6	3	antiphase_hc_soi.wav	1	6	5	noise_calib_stim_RIGHT.wav	2	14	blb_dichoticlistening_ga-da.mp3	ga	da	1	other
6.6.1	win	2023-06-27	11:28:06	0	0	5d5d13312a28f400015a5b6f	1	1	DL_test	14	DL_test	36			0		pa	1	1358	6	3	antiphase_hc_soi.wav	1	6	5	noise_calib_stim_RIGHT.wav	2	25	blb_dichoticlistening_pa-ba.mp3	pa	ba	1	left
6.6.1	win	2023-06-27	11:28:06	0	0	5d5d13312a28f400015a5b6f	1	1	DL_test	15	DL_test	1			0		ba	1	1796	6	3	antiphase_hc_soi.wav	1	6	5	noise_calib_stim_RIGHT.wav	2	5	blb_dichoticlistening_ba-pa.mp3	ba	pa	1	left
6.6.1	win	2023-06-27	11:28:06	0	0	5d5d13312a28f400015a5b6f	1	1	DL_test	15	DL_test	2			0		ka	0	1156	6	3	antiphase_hc_soi.wav	1	6	5	noise_calib_stim_RIGHT.wav	2	31	blb_dichoticlistening_ta-ba.mp3	ta	ba	1	other
6.6.1	win	2023-06-27	11:28:06	0	0	5d5d13312a28f400015a5b6f	1	1	DL_test	15	DL_test	3			0		ka	1	1307	6	3	antiphase_hc_soi.wav	1	6	5	noise_calib_stim_RIGHT.wav	2	10	blb_dichoticlistening_da-ka.mp3	da	ka	1	right
6.6.1	win	2023-06-27	11:28:06	0	0	5d5d13312a28f400015a5b6f	1	1	DL_test	15	DL_test	4			0		pa	0	1181	6	3	antiphase_hc_soi.wav	1	6	5	noise_calib_stim_RIGHT.wav	2	19	blb_dichoticlistening_ka-ba.mp3	ka	ba	1	other
6.6.1	win	2023-06-27	11:28:06	0	0	5d5d13312a28f400015a5b6f	1	1	DL_test	15	DL_test	5			0		ka	0	1002	6	3	antiphase_hc_soi.wav	1	6	5	noise_calib_stim_RIGHT.wav	2	27	blb_dichoticlistening_pa-ga.mp3	pa	ga	1	other
6.6.1	win	2023-06-27	11:28:06	0	0	5d5d13312a28f400015a5b6f	1	1	DL_test	15	DL_test	6			0		ta	1	1588	6	3	antiphase_hc_soi.wav	1	6	5	noise_calib_stim_RIGHT.wav	2	35	blb_dichoticlistening_ta-pa.mp3	ta	pa	1	left
6.6.1	win	2023-06-27	11:28:06	0	0	5d5d13312a28f400015a5b6f	1	1	DL_test	15	DL_test	7			0		ta	0	1140	6	3	antiphase_hc_soi.wav	1	6	5	noise_calib_stim_RIGHT.wav	2	28	blb_dichoticlistening_pa-ka.mp3	pa	ka	1	other
6.6.1	win	2023-06-27	11:28:06	0	0	5d5d13312a28f400015a5b6f	1	1	DL_test	15	DL_test	8			0		ka	1	1277	6	3	antiphase_hc_soi.wav	1	6	5	noise_calib_stim_RIGHT.wav	2	22	blb_dichoticlistening_ka-ka.mp3	ka	ka	0	left
6.6.1	win	2023-06-27	11:28:06	0	0	5d5d13312a28f400015a5b6f	1	1	DL_test	15	DL_test	9			0		da	1	1223	6	3	antiphase_hc_soi.wav	1	6	5	noise_calib_stim_RIGHT.wav	2	8	blb_dichoticlistening_da-da.mp3	da	da	0	left
6.6.1	win	2023-06-27	11:28:06	0	0	5d5d13312a28f400015a5b6f	1	1	DL_test	15	DL_test	10			0		ka	0	1416	6	3	antiphase_hc_soi.wav	1	6	5	noise_calib_stim_RIGHT.wav	2	14	blb_dichoticlistening_ga-da.mp3	ga	da	1	other
6.6.1	win	2023-06-27	11:28:06	0	0	5d5d13312a28f400015a5b6f	1	1	DL_test	15	DL_test	11			0		ga	1	1514	6	3	antiphase_hc_soi.wav	1	6	5	noise_calib_stim_RIGHT.wav	2	18	blb_dichoticlistening_ga-ta.mp3	ga	ta	1	left
6.6.1	win	2023-06-27	11:28:06	0	0	5d5d13312a28f400015a5b6f	1	1	DL_test	15	DL_test	12			0		ta	0	1623	6	3	antiphase_hc_soi.wav	1	6	5	noise_calib_stim_RIGHT.wav	2	23	blb_dichoticlistening_ka-pa.mp3	ka	pa	1	other
6.6.1	win	2023-06-27	11:28:06	0	0	5d5d13312a28f400015a5b6f	1	1	DL_test	15	DL_test	13			0		pa	1	1172	6	3	antiphase_hc_soi.wav	1	6	5	noise_calib_stim_RIGHT.wav	2	29	blb_dichoticlistening_pa-pa.mp3	pa	pa	0	left
6.6.1	win	2023-06-27	11:28:06	0	0	5d5d13312a28f400015a5b6f	1	1	DL_test	15	DL_test	14			0		ta	0	1955	6	3	antiphase_hc_soi.wav	1	6	5	noise_calib_stim_RIGHT.wav	2	11	blb_dichoticlistening_da-pa.mp3	da	pa	1	other
6.6.1	win	2023-06-27	11:28:06	0	0	5d5d13312a28f400015a5b6f	1	1	DL_test	15	DL_test	15			0		ta	1	1376	6	3	antiphase_hc_soi.wav	1	6	5	noise_calib_stim_RIGHT.wav	2	12	blb_dichoticlistening_da-ta.mp3	da	ta	1	right
6.6.1	win	2023-06-27	11:28:06	0	0	5d5d13312a28f400015a5b6f	1	1	DL_test	15	DL_test	16			0		pa	0	1226	6	3	antiphase_hc_soi.wav	1	6	5	noise_calib_stim_RIGHT.wav	2	4	blb_dichoticlistening_ba-ka.mp3	ba	ka	1	other
6.6.1	win	2023-06-27	11:28:06	0	0	5d5d13312a28f400015a5b6f	1	1	DL_test	15	DL_test	17			0		ka	0	1158	6	3	antiphase_hc_soi.wav	1	6	5	noise_calib_stim_RIGHT.wav	2	17	blb_dichoticlistening_ga-pa.mp3	ga	pa	1	other
6.6.1	win	2023-06-27	11:28:06	0	0	5d5d13312a28f400015a5b6f	1	1	DL_test	15	DL_test	18			0		ta	0	1664	6	3	antiphase_hc_soi.wav	1	6	5	noise_calib_stim_RIGHT.wav	2	2	blb_dichoticlistening_ba-da.mp3	ba	da	1	other
6.6.1	win	2023-06-27	11:28:06	0	0	5d5d13312a28f400015a5b6f	1	1	DL_test	15	DL_test	19			0		ta	1	1462	6	3	antiphase_hc_soi.wav	1	6	5	noise_calib_stim_RIGHT.wav	2	36	blb_dichoticlistening_ta-ta.mp3	ta	ta	0	left
6.6.1	win	2023-06-27	11:28:06	0	0	5d5d13312a28f400015a5b6f	1	1	DL_test	15	DL_test	20			0		ta	1	1180	6	3	antiphase_hc_soi.wav	1	6	5	noise_calib_stim_RIGHT.wav	2	6	blb_dichoticlistening_ba-ta.mp3	ba	ta	1	right
6.6.1	win	2023-06-27	11:28:06	0	0	5d5d13312a28f400015a5b6f	1	1	DL_test	15	DL_test	21			0		ta	1	1635	6	3	antiphase_hc_soi.wav	1	6	5	noise_calib_stim_RIGHT.wav	2	32	blb_dichoticlistening_ta-da.mp3	ta	da	1	left
6.6.1	win	2023-06-27	11:28:06	0	0	5d5d13312a28f400015a5b6f	1	1	DL_test	15	DL_test	22			0		ka	1	1210	6	3	antiphase_hc_soi.wav	1	6	5	noise_calib_stim_RIGHT.wav	2	21	blb_dichoticlistening_ka-ga.mp3	ka	ga	1	left
6.6.1	win	2023-06-27	11:28:06	0	0	5d5d13312a28f400015a5b6f	1	1	DL_test	15	DL_test	23			0		ga	1	1003	6	3	antiphase_hc_soi.wav	1	6	5	noise_calib_stim_RIGHT.wav	2	15	blb_dichoticlistening_ga-ga.mp3	ga	ga	0	left
6.6.1	win	2023-06-27	11:28:06	0	0	5d5d13312a28f400015a5b6f	1	1	DL_test	15	DL_test	24			0		ka	1	1281	6	3	antiphase_hc_soi.wav	1	6	5	noise_calib_stim_RIGHT.wav	2	24	blb_dichoticlistening_ka-ta.mp3	ka	ta	1	left
6.6.1	win	2023-06-27	11:28:06	0	0	5d5d13312a28f400015a5b6f	1	1	DL_test	15	DL_test	25			0		ta	0	1412	6	3	antiphase_hc_soi.wav	1	6	5	noise_calib_stim_RIGHT.wav	2	7	blb_dichoticlistening_da-ba.mp3	da	ba	1	other
6.6.1	win	2023-06-27	11:28:06	0	0	5d5d13312a28f400015a5b6f	1	1	DL_test	15	DL_test	26			0		ka	0	1148	6	3	antiphase_hc_soi.wav	1	6	5	noise_calib_stim_RIGHT.wav	2	33	blb_dichoticlistening_ta-ga.mp3	ta	ga	1	other
6.6.1	win	2023-06-27	11:28:06	0	0	5d5d13312a28f400015a5b6f	1	1	DL_test	15	DL_test	27			0		pa	0	1463	6	3	antiphase_hc_soi.wav	1	6	5	noise_calib_stim_RIGHT.wav	2	1	blb_dichoticlistening_ba-ba.mp3	ba	ba	0	other
6.6.1	win	2023-06-27	11:28:06	0	0	5d5d13312a28f400015a5b6f	1	1	DL_test	15	DL_test	28			0		ta	1	1984	6	3	antiphase_hc_soi.wav	1	6	5	noise_calib_stim_RIGHT.wav	2	34	blb_dichoticlistening_ta-ka.mp3	ta	ka	1	left
6.6.1	win	2023-06-27	11:28:06	0	0	5d5d13312a28f400015a5b6f	1	1	DL_test	15	DL_test	29			0		da	1	986	6	3	antiphase_hc_soi.wav	1	6	5	noise_calib_stim_RIGHT.wav	2	20	blb_dichoticlistening_ka-da.mp3	ka	da	1	right
6.6.1	win	2023-06-27	11:28:06	0	0	5d5d13312a28f400015a5b6f	1	1	DL_test	15	DL_test	30			0		ka	1	1108	6	3	antiphase_hc_soi.wav	1	6	5	noise_calib_stim_RIGHT.wav	2	16	blb_dichoticlistening_ga-ka.mp3	ga	ka	1	right
6.6.1	win	2023-06-27	11:28:06	0	0	5d5d13312a28f400015a5b6f	1	1	DL_test	15	DL_test	31			0		ga	0	815	6	3	antiphase_hc_soi.wav	1	6	5	noise_calib_stim_RIGHT.wav	2	26	blb_dichoticlistening_pa-da.mp3	pa	da	1	other
6.6.1	win	2023-06-27	11:28:06	0	0	5d5d13312a28f400015a5b6f	1	1	DL_test	15	DL_test	32			0		ta	0	1315	6	3	antiphase_hc_soi.wav	1	6	5	noise_calib_stim_RIGHT.wav	2	13	blb_dichoticlistening_ga-ba.mp3	ga	ba	1	other
6.6.1	win	2023-06-27	11:28:06	0	0	5d5d13312a28f400015a5b6f	1	1	DL_test	15	DL_test	33			0		da	1	2068	6	3	antiphase_hc_soi.wav	1	6	5	noise_calib_stim_RIGHT.wav	2	9	blb_dichoticlistening_da-ga.mp3	da	ga	1	left
6.6.1	win	2023-06-27	11:28:06	0	0	5d5d13312a28f400015a5b6f	1	1	DL_test	15	DL_test	34			0		pa	1	1629	6	3	antiphase_hc_soi.wav	1	6	5	noise_calib_stim_RIGHT.wav	2	25	blb_dichoticlistening_pa-ba.mp3	pa	ba	1	left
6.6.1	win	2023-06-27	11:28:06	0	0	5d5d13312a28f400015a5b6f	1	1	DL_test	15	DL_test	35			0		ta	0	1471	6	3	antiphase_hc_soi.wav	1	6	5	noise_calib_stim_RIGHT.wav	2	3	blb_dichoticlistening_ba-ga.mp3	ba	ga	1	other
6.6.1	win	2023-06-27	11:28:06	0	0	5d5d13312a28f400015a5b6f	1	1	DL_test	15	DL_test	36			0		ta	1	1012	6	3	antiphase_hc_soi.wav	1	6	5	noise_calib_stim_RIGHT.wav	2	30	blb_dichoticlistening_pa-ta.mp3	pa	ta	1	right
6.6.1	win	2023-06-27	11:28:06	0	0	5d5d13312a28f400015a5b6f	1	1	DL_test	16	DL_test	1			0		ba	1	1608	6	3	antiphase_hc_soi.wav	1	6	5	noise_calib_stim_RIGHT.wav	2	1	blb_dichoticlistening_ba-ba.mp3	ba	ba	0	left
6.6.1	win	2023-06-27	11:28:06	0	0	5d5d13312a28f400015a5b6f	1	1	DL_test	16	DL_test	2			0		ka	0	1020	6	3	antiphase_hc_soi.wav	1	6	5	noise_calib_stim_RIGHT.wav	2	17	blb_dichoticlistening_ga-pa.mp3	ga	pa	1	other
6.6.1	win	2023-06-27	11:28:06	0	0	5d5d13312a28f400015a5b6f	1	1	DL_test	16	DL_test	3			0		pa	1	1354	6	3	antiphase_hc_soi.wav	1	6	5	noise_calib_stim_RIGHT.wav	2	25	blb_dichoticlistening_pa-ba.mp3	pa	ba	1	left
6.6.1	win	2023-06-27	11:28:06	0	0	5d5d13312a28f400015a5b6f	1	1	DL_test	16	DL_test	4			0		ka	1	1138	6	3	antiphase_hc_soi.wav	1	6	5	noise_calib_stim_RIGHT.wav	2	24	blb_dichoticlistening_ka-ta.mp3	ka	ta	1	left
6.6.1	win	2023-06-27	11:28:06	0	0	5d5d13312a28f400015a5b6f	1	1	DL_test	16	DL_test	5			0		ga	1	1138	6	3	antiphase_hc_soi.wav	1	6	5	noise_calib_stim_RIGHT.wav	2	33	blb_dichoticlistening_ta-ga.mp3	ta	ga	1	right
6.6.1	win	2023-06-27	11:28:06	0	0	5d5d13312a28f400015a5b6f	1	1	DL_test	16	DL_test	6			0		da	0	1192	6	3	antiphase_hc_soi.wav	1	6	5	noise_calib_stim_RIGHT.wav	2	15	blb_dichoticlistening_ga-ga.mp3	ga	ga	0	other
6.6.1	win	2023-06-27	11:28:06	0	0	5d5d13312a28f400015a5b6f	1	1	DL_test	16	DL_test	7			0		ta	1	1987	6	3	antiphase_hc_soi.wav	1	6	5	noise_calib_stim_RIGHT.wav	2	36	blb_dichoticlistening_ta-ta.mp3	ta	ta	0	left
6.6.1	win	2023-06-27	11:28:06	0	0	5d5d13312a28f400015a5b6f	1	1	DL_test	16	DL_test	8			0		ka	0	1761	6	3	antiphase_hc_soi.wav	1	6	5	noise_calib_stim_RIGHT.wav	2	5	blb_dichoticlistening_ba-pa.mp3	ba	pa	1	other
6.6.1	win	2023-06-27	11:28:06	0	0	5d5d13312a28f400015a5b6f	1	1	DL_test	16	DL_test	9			0		ta	0	1074	6	3	antiphase_hc_soi.wav	1	6	5	noise_calib_stim_RIGHT.wav	2	11	blb_dichoticlistening_da-pa.mp3	da	pa	1	other
6.6.1	win	2023-06-27	11:28:06	0	0	5d5d13312a28f400015a5b6f	1	1	DL_test	16	DL_test	10			0		pa	0	1655	6	3	antiphase_hc_soi.wav	1	6	5	noise_calib_stim_RIGHT.wav	2	31	blb_dichoticlistening_ta-ba.mp3	ta	ba	1	other
6.6.1	win	2023-06-27	11:28:06	0	0	5d5d13312a28f400015a5b6f	1	1	DL_test	16	DL_test	11			0		ga	1	1594	6	3	antiphase_hc_soi.wav	1	6	5	noise_calib_stim_RIGHT.wav	2	27	blb_dichoticlistening_pa-ga.mp3	pa	ga	1	right
6.6.1	win	2023-06-27	11:28:06	0	0	5d5d13312a28f400015a5b6f	1	1	DL_test	16	DL_test	12			0		ta	0	1344	6	3	antiphase_hc_soi.wav	1	6	5	noise_calib_stim_RIGHT.wav	2	19	blb_dichoticlistening_ka-ba.mp3	ka	ba	1	other
6.6.1	win	2023-06-27	11:28:06	0	0	5d5d13312a28f400015a5b6f	1	1	DL_test	16	DL_test	13			0		ga	1	1589	6	3	antiphase_hc_soi.wav	1	6	5	noise_calib_stim_RIGHT.wav	2	21	blb_dichoticlistening_ka-ga.mp3	ka	ga	1	right
6.6.1	win	2023-06-27	11:28:06	0	0	5d5d13312a28f400015a5b6f	1	1	DL_test	16	DL_test	14			0		pa	0	1069	6	3	antiphase_hc_soi.wav	1	6	5	noise_calib_stim_RIGHT.wav	2	13	blb_dichoticlistening_ga-ba.mp3	ga	ba	1	other
6.6.1	win	2023-06-27	11:28:06	0	0	5d5d13312a28f400015a5b6f	1	1	DL_test	16	DL_test	15			0		ka	0	1123	6	3	antiphase_hc_soi.wav	1	6	5	noise_calib_stim_RIGHT.wav	2	32	blb_dichoticlistening_ta-da.mp3	ta	da	1	other
6.6.1	win	2023-06-27	11:28:06	0	0	5d5d13312a28f400015a5b6f	1	1	DL_test	16	DL_test	16			0		ta	0	1926	6	3	antiphase_hc_soi.wav	1	6	5	noise_calib_stim_RIGHT.wav	2	26	blb_dichoticlistening_pa-da.mp3	pa	da	1	other
6.6.1	win	2023-06-27	11:28:06	0	0	5d5d13312a28f400015a5b6f	1	1	DL_test	16	DL_test	17			0		ga	1	1324	6	3	antiphase_hc_soi.wav	1	6	5	noise_calib_stim_RIGHT.wav	2	14	blb_dichoticlistening_ga-da.mp3	ga	da	1	left
6.6.1	win	2023-06-27	11:28:06	0	0	5d5d13312a28f400015a5b6f	1	1	DL_test	16	DL_test	18			0		ba	1	1681	6	3	antiphase_hc_soi.wav	1	6	5	noise_calib_stim_RIGHT.wav	2	3	blb_dichoticlistening_ba-ga.mp3	ba	ga	1	left
6.6.1	win	2023-06-27	11:28:06	0	0	5d5d13312a28f400015a5b6f	1	1	DL_test	16	DL_test	19			0		ka	1	1676	6	3	antiphase_hc_soi.wav	1	6	5	noise_calib_stim_RIGHT.wav	2	20	blb_dichoticlistening_ka-da.mp3	ka	da	1	left
6.6.1	win	2023-06-27	11:28:06	0	0	5d5d13312a28f400015a5b6f	1	1	DL_test	16	DL_test	20			0		da	1	1673	6	3	antiphase_hc_soi.wav	1	6	5	noise_calib_stim_RIGHT.wav	2	8	blb_dichoticlistening_da-da.mp3	da	da	0	left
6.6.1	win	2023-06-27	11:28:06	0	0	5d5d13312a28f400015a5b6f	1	1	DL_test	16	DL_test	21			0		pa	1	996	6	3	antiphase_hc_soi.wav	1	6	5	noise_calib_stim_RIGHT.wav	2	29	blb_dichoticlistening_pa-pa.mp3	pa	pa	0	left
6.6.1	win	2023-06-27	11:28:06	0	0	5d5d13312a28f400015a5b6f	1	1	DL_test	16	DL_test	22			0		ka	1	1229	6	3	antiphase_hc_soi.wav	1	6	5	noise_calib_stim_RIGHT.wav	2	22	blb_dichoticlistening_ka-ka.mp3	ka	ka	0	left
6.6.1	win	2023-06-27	11:28:06	0	0	5d5d13312a28f400015a5b6f	1	1	DL_test	16	DL_test	23			0		ta	1	1664	6	3	antiphase_hc_soi.wav	1	6	5	noise_calib_stim_RIGHT.wav	2	12	blb_dichoticlistening_da-ta.mp3	da	ta	1	right
6.6.1	win	2023-06-27	11:28:06	0	0	5d5d13312a28f400015a5b6f	1	1	DL_test	16	DL_test	24			0		ka	0	1589	6	3	antiphase_hc_soi.wav	1	6	5	noise_calib_stim_RIGHT.wav	2	18	blb_dichoticlistening_ga-ta.mp3	ga	ta	1	other
6.6.1	win	2023-06-27	11:28:06	0	0	5d5d13312a28f400015a5b6f	1	1	DL_test	16	DL_test	25			0		ga	1	968	6	3	antiphase_hc_soi.wav	1	6	5	noise_calib_stim_RIGHT.wav	2	9	blb_dichoticlistening_da-ga.mp3	da	ga	1	right
6.6.1	win	2023-06-27	11:28:06	0	0	5d5d13312a28f400015a5b6f	1	1	DL_test	16	DL_test	26			0		ta	1	1562	6	3	antiphase_hc_soi.wav	1	6	5	noise_calib_stim_RIGHT.wav	2	34	blb_dichoticlistening_ta-ka.mp3	ta	ka	1	left
6.6.1	win	2023-06-27	11:28:06	0	0	5d5d13312a28f400015a5b6f	1	1	DL_test	16	DL_test	27			0		ta	1	1373	6	3	antiphase_hc_soi.wav	1	6	5	noise_calib_stim_RIGHT.wav	2	35	blb_dichoticlistening_ta-pa.mp3	ta	pa	1	left
6.6.1	win	2023-06-27	11:28:06	0	0	5d5d13312a28f400015a5b6f	1	1	DL_test	16	DL_test	28			0		ba	1	1451	6	3	antiphase_hc_soi.wav	1	6	5	noise_calib_stim_RIGHT.wav	2	2	blb_dichoticlistening_ba-da.mp3	ba	da	1	left
6.6.1	win	2023-06-27	11:28:06	0	0	5d5d13312a28f400015a5b6f	1	1	DL_test	16	DL_test	29			0		ta	1	1818	6	3	antiphase_hc_soi.wav	1	6	5	noise_calib_stim_RIGHT.wav	2	30	blb_dichoticlistening_pa-ta.mp3	pa	ta	1	right
6.6.1	win	2023-06-27	11:28:06	0	0	5d5d13312a28f400015a5b6f	1	1	DL_test	16	DL_test	30			0		ta	0	1696	6	3	antiphase_hc_soi.wav	1	6	5	noise_calib_stim_RIGHT.wav	2	23	blb_dichoticlistening_ka-pa.mp3	ka	pa	1	other
6.6.1	win	2023-06-27	11:28:06	0	0	5d5d13312a28f400015a5b6f	1	1	DL_test	16	DL_test	31			0		ta	0	1526	6	3	antiphase_hc_soi.wav	1	6	5	noise_calib_stim_RIGHT.wav	2	7	blb_dichoticlistening_da-ba.mp3	da	ba	1	other
6.6.1	win	2023-06-27	11:28:06	0	0	5d5d13312a28f400015a5b6f	1	1	DL_test	16	DL_test	32			0		ka	1	1394	6	3	antiphase_hc_soi.wav	1	6	5	noise_calib_stim_RIGHT.wav	2	16	blb_dichoticlistening_ga-ka.mp3	ga	ka	1	right
6.6.1	win	2023-06-27	11:28:06	0	0	5d5d13312a28f400015a5b6f	1	1	DL_test	16	DL_test	33			0		ta	0	1479	6	3	antiphase_hc_soi.wav	1	6	5	noise_calib_stim_RIGHT.wav	2	10	blb_dichoticlistening_da-ka.mp3	da	ka	1	other
6.6.1	win	2023-06-27	11:28:06	0	0	5d5d13312a28f400015a5b6f	1	1	DL_test	16	DL_test	34			0		ba	1	1594	6	3	antiphase_hc_soi.wav	1	6	5	noise_calib_stim_RIGHT.wav	2	6	blb_dichoticlistening_ba-ta.mp3	ba	ta	1	left
6.6.1	win	2023-06-27	11:28:06	0	0	5d5d13312a28f400015a5b6f	1	1	DL_test	16	DL_test	35			0		da	0	942	6	3	antiphase_hc_soi.wav	1	6	5	noise_calib_stim_RIGHT.wav	2	28	blb_dichoticlistening_pa-ka.mp3	pa	ka	1	other
6.6.1	win	2023-06-27	11:28:06	0	0	5d5d13312a28f400015a5b6f	1	1	DL_test	16	DL_test	36			0		ba	1	1514	6	3	antiphase_hc_soi.wav	1	6	5	noise_calib_stim_RIGHT.wav	2	4	blb_dichoticlistening_ba-ka.mp3	ba	ka	1	left
6.6.1	win	2023-06-27	11:28:06	11:50:45	1355131	5d5d13312a28f400015a5b6f	1	1	practice_slash	22	practice_slash	1	stimuli_distractor_trianglediamonds.svg	stimuli_distractor_diamondtriangles.svg	16	no	0	1	2000	6	3	antiphase_hc_soi.wav	1	6	5	noise_calib_stim_RIGHT.wav	2	4	blb_dichoticlistening_ba-ka.mp3	ba	ka	1	left
6.6.1	win	2023-06-27	11:28:06	11:50:45	1355131	5d5d13312a28f400015a5b6f	1	1	practice_slash	22	advance_on_keypress_SLASH	2	stimuli_distractor_trianglediamonds.svg	stimuli_distractor_diamondtriangles.svg	16	no	57	0	3129	6	3	antiphase_hc_soi.wav	1	6	5	noise_calib_stim_RIGHT.wav	2	4	blb_dichoticlistening_ba-ka.mp3	ba	ka	1	left
6.6.1	win	2023-06-27	11:28:06	11:50:50	1360647	5d5d13312a28f400015a5b6f	1	1	practice_slash	22	practice_slash	3	stimuli_distractor_diamondtriangles.svg	stimuli_target_rectangletriangles.svg	7	yes	53	1	733	6	3	antiphase_hc_soi.wav	1	6	5	noise_calib_stim_RIGHT.wav	2	4	blb_dichoticlistening_ba-ka.mp3	ba	ka	1	left
6.6.1	win	2023-06-27	11:28:06	11:50:50	1360647	5d5d13312a28f400015a5b6f	1	1	practice_slash	22	advance_on_keypress_SLASH	4	stimuli_distractor_diamondtriangles.svg	stimuli_target_rectangletriangles.svg	7	yes	57	0	1059	6	3	antiphase_hc_soi.wav	1	6	5	noise_calib_stim_RIGHT.wav	2	4	blb_dichoticlistening_ba-ka.mp3	ba	ka	1	left
6.6.1	win	2023-06-27	11:28:06	11:50:55	1365348	5d5d13312a28f400015a5b6f	1	1	practice_slash	22	practice_slash	5	stimuli_distractor_diamondtriangles.svg	stimuli_distractor_trianglediamonds.svg	14	no	0	1	2000	6	3	antiphase_hc_soi.wav	1	6	5	noise_calib_stim_RIGHT.wav	2	4	blb_dichoticlistening_ba-ka.mp3	ba	ka	1	left
6.6.1	win	2023-06-27	11:28:06	11:50:55	1365348	5d5d13312a28f400015a5b6f	1	1	practice_slash	22	advance_on_keypress_SLASH	6	stimuli_distractor_diamondtriangles.svg	stimuli_distractor_trianglediamonds.svg	14	no	57	0	756	6	3	antiphase_hc_soi.wav	1	6	5	noise_calib_stim_RIGHT.wav	2	4	blb_dichoticlistening_ba-ka.mp3	ba	ka	1	left
6.6.1	win	2023-06-27	11:28:06	11:50:59	1369748	5d5d13312a28f400015a5b6f	1	1	practice_slash	22	practice_slash	7	stimuli_distractor_diamondtriangles.svg	stimuli_target_trianglerectangles.svg	9	yes	0	0	2000	6	3	antiphase_hc_soi.wav	1	6	5	noise_calib_stim_RIGHT.wav	2	4	blb_dichoticlistening_ba-ka.mp3	ba	ka	1	left
6.6.1	win	2023-06-27	11:28:06	11:50:59	1369748	5d5d13312a28f400015a5b6f	1	1	practice_slash	22	advance_on_keypress_SLASH	8	stimuli_distractor_diamondtriangles.svg	stimuli_target_trianglerectangles.svg	9	yes	57	0	671	6	3	antiphase_hc_soi.wav	1	6	5	noise_calib_stim_RIGHT.wav	2	4	blb_dichoticlistening_ba-ka.mp3	ba	ka	1	left
6.6.1	win	2023-06-27	11:28:06	11:51:02	1372800	5d5d13312a28f400015a5b6f	1	1	practice_slash	22	practice_slash	9	stimuli_target_rectanglediamonds.svg	stimuli_distractor_trianglediamonds.svg	4	yes	53	1	737	6	3	antiphase_hc_soi.wav	1	6	5	noise_calib_stim_RIGHT.wav	2	4	blb_dichoticlistening_ba-ka.mp3	ba	ka	1	left
6.6.1	win	2023-06-27	11:28:06	11:51:02	1372800	5d5d13312a28f400015a5b6f	1	1	practice_slash	22	advance_on_keypress_SLASH	10	stimuli_target_rectanglediamonds.svg	stimuli_distractor_trianglediamonds.svg	4	yes	57	0	966	6	3	antiphase_hc_soi.wav	1	6	5	noise_calib_stim_RIGHT.wav	2	4	blb_dichoticlistening_ba-ka.mp3	ba	ka	1	left
6.6.1	win	2023-06-27	11:28:06	11:51:05	1375918	5d5d13312a28f400015a5b6f	1	1	practice_slash	22	practice_slash	11	stimuli_target_squarediamonds.svg	stimuli_distractor_diamondtriangles.svg	2	yes	53	1	504	6	3	antiphase_hc_soi.wav	1	6	5	noise_calib_stim_RIGHT.wav	2	4	blb_dichoticlistening_ba-ka.mp3	ba	ka	1	left
6.6.1	win	2023-06-27	11:28:06	11:51:05	1375918	5d5d13312a28f400015a5b6f	1	1	practice_slash	22	advance_on_keypress_SLASH	12	stimuli_target_squarediamonds.svg	stimuli_distractor_diamondtriangles.svg	2	yes	57	0	535	6	3	antiphase_hc_soi.wav	1	6	5	noise_calib_stim_RIGHT.wav	2	4	blb_dichoticlistening_ba-ka.mp3	ba	ka	1	left
6.6.1	win	2023-06-27	11:28:06	11:51:08	1378600	5d5d13312a28f400015a5b6f	1	1	practice_slash	22	practice_slash	13	stimuli_distractor_trianglediamonds.svg	stimuli_target_rectanglediamonds.svg	10	yes	53	1	501	6	3	antiphase_hc_soi.wav	1	6	5	noise_calib_stim_RIGHT.wav	2	4	blb_dichoticlistening_ba-ka.mp3	ba	ka	1	left
6.6.1	win	2023-06-27	11:28:06	11:51:08	1378600	5d5d13312a28f400015a5b6f	1	1	practice_slash	22	advance_on_keypress_SLASH	14	stimuli_distractor_trianglediamonds.svg	stimuli_target_rectanglediamonds.svg	10	yes	57	0	409	6	3	antiphase_hc_soi.wav	1	6	5	noise_calib_stim_RIGHT.wav	2	4	blb_dichoticlistening_ba-ka.mp3	ba	ka	1	left
6.6.1	win	2023-06-27	11:28:06	11:51:12	1382648	5d5d13312a28f400015a5b6f	1	1	practice_slash	22	practice_slash	15	stimuli_distractor_trianglediamonds.svg	stimuli_target_diamondrectangles.svg	12	yes	0	0	2000	6	3	antiphase_hc_soi.wav	1	6	5	noise_calib_stim_RIGHT.wav	2	4	blb_dichoticlistening_ba-ka.mp3	ba	ka	1	left
6.6.1	win	2023-06-27	11:28:06	11:51:12	1382648	5d5d13312a28f400015a5b6f	1	1	practice_slash	22	advance_on_keypress_SLASH	16	stimuli_distractor_trianglediamonds.svg	stimuli_target_diamondrectangles.svg	12	yes	57	0	1158	6	3	antiphase_hc_soi.wav	1	6	5	noise_calib_stim_RIGHT.wav	2	4	blb_dichoticlistening_ba-ka.mp3	ba	ka	1	left
6.6.1	win	2023-06-27	11:28:06	11:51:15	1385953	5d5d13312a28f400015a5b6f	1	1	practice_slash	22	practice_slash	17	stimuli_distractor_trianglediamonds.svg	stimuli_target_squarediamonds.svg	11	yes	53	1	505	6	3	antiphase_hc_soi.wav	1	6	5	noise_calib_stim_RIGHT.wav	2	4	blb_dichoticlistening_ba-ka.mp3	ba	ka	1	left
6.6.1	win	2023-06-27	11:28:06	11:51:15	1385953	5d5d13312a28f400015a5b6f	1	1	practice_slash	22	advance_on_keypress_SLASH	18	stimuli_distractor_trianglediamonds.svg	stimuli_target_squarediamonds.svg	11	yes	57	0	833	6	3	antiphase_hc_soi.wav	1	6	5	noise_calib_stim_RIGHT.wav	2	4	blb_dichoticlistening_ba-ka.mp3	ba	ka	1	left
6.6.1	win	2023-06-27	11:28:06	11:51:19	1389300	5d5d13312a28f400015a5b6f	1	1	practice_slash	22	practice_slash	19	stimuli_distractor_trianglediamonds.svg	stimuli_distractor_trianglediamonds.svg	15	no	53	0	870	6	3	antiphase_hc_soi.wav	1	6	5	noise_calib_stim_RIGHT.wav	2	4	blb_dichoticlistening_ba-ka.mp3	ba	ka	1	left
6.6.1	win	2023-06-27	11:28:06	11:51:19	1389300	5d5d13312a28f400015a5b6f	1	1	practice_slash	22	advance_on_keypress_SLASH	20	stimuli_distractor_trianglediamonds.svg	stimuli_distractor_trianglediamonds.svg	15	no	57	0	613	6	3	antiphase_hc_soi.wav	1	6	5	noise_calib_stim_RIGHT.wav	2	4	blb_dichoticlistening_ba-ka.mp3	ba	ka	1	left
6.6.1	win	2023-06-27	11:28:06	11:51:22	1392599	5d5d13312a28f400015a5b6f	1	1	practice_slash	22	practice_slash	21	stimuli_target_rectanglediamonds.svg	stimuli_distractor_diamondtriangles.svg	1	yes	53	1	1035	6	3	antiphase_hc_soi.wav	1	6	5	noise_calib_stim_RIGHT.wav	2	4	blb_dichoticlistening_ba-ka.mp3	ba	ka	1	left
6.6.1	win	2023-06-27	11:28:06	11:51:22	1392599	5d5d13312a28f400015a5b6f	1	1	practice_slash	22	advance_on_keypress_SLASH	22	stimuli_target_rectanglediamonds.svg	stimuli_distractor_diamondtriangles.svg	1	yes	57	0	410	6	3	antiphase_hc_soi.wav	1	6	5	noise_calib_stim_RIGHT.wav	2	4	blb_dichoticlistening_ba-ka.mp3	ba	ka	1	left
6.6.1	win	2023-06-27	11:28:06	11:51:25	1395525	5d5d13312a28f400015a5b6f	1	1	practice_slash	22	practice_slash	23	stimuli_target_diamondsquares.svg	stimuli_distractor_trianglediamonds.svg	6	yes	53	1	862	6	3	antiphase_hc_soi.wav	1	6	5	noise_calib_stim_RIGHT.wav	2	4	blb_dichoticlistening_ba-ka.mp3	ba	ka	1	left
6.6.1	win	2023-06-27	11:28:06	11:51:25	1395525	5d5d13312a28f400015a5b6f	1	1	practice_slash	22	advance_on_keypress_SLASH	24	stimuli_target_diamondsquares.svg	stimuli_distractor_trianglediamonds.svg	6	yes	57	0	492	6	3	antiphase_hc_soi.wav	1	6	5	noise_calib_stim_RIGHT.wav	2	4	blb_dichoticlistening_ba-ka.mp3	ba	ka	1	left
6.6.1	win	2023-06-27	11:28:06	11:51:28	1398962	5d5d13312a28f400015a5b6f	1	1	practice_slash	22	practice_slash	25	stimuli_target_squarediamonds.svg	stimuli_distractor_trianglediamonds.svg	5	yes	53	1	1314	6	3	antiphase_hc_soi.wav	1	6	5	noise_calib_stim_RIGHT.wav	2	4	blb_dichoticlistening_ba-ka.mp3	ba	ka	1	left
6.6.1	win	2023-06-27	11:28:06	11:51:28	1398962	5d5d13312a28f400015a5b6f	1	1	practice_slash	22	advance_on_keypress_SLASH	26	stimuli_target_squarediamonds.svg	stimuli_distractor_trianglediamonds.svg	5	yes	57	0	339	6	3	antiphase_hc_soi.wav	1	6	5	noise_calib_stim_RIGHT.wav	2	4	blb_dichoticlistening_ba-ka.mp3	ba	ka	1	left
6.6.1	win	2023-06-27	11:28:06	11:51:32	1402948	5d5d13312a28f400015a5b6f	1	1	practice_slash	22	practice_slash	27	stimuli_distractor_diamondtriangles.svg	stimuli_distractor_diamondtriangles.svg	13	no	0	1	2000	6	3	antiphase_hc_soi.wav	1	6	5	noise_calib_stim_RIGHT.wav	2	4	blb_dichoticlistening_ba-ka.mp3	ba	ka	1	left
6.6.1	win	2023-06-27	11:28:06	11:51:32	1402948	5d5d13312a28f400015a5b6f	1	1	practice_slash	22	advance_on_keypress_SLASH	28	stimuli_distractor_diamondtriangles.svg	stimuli_distractor_diamondtriangles.svg	13	no	57	0	472	6	3	antiphase_hc_soi.wav	1	6	5	noise_calib_stim_RIGHT.wav	2	4	blb_dichoticlistening_ba-ka.mp3	ba	ka	1	left
6.6.1	win	2023-06-27	11:28:06	11:51:35	1405932	5d5d13312a28f400015a5b6f	1	1	practice_slash	22	practice_slash	29	stimuli_target_diamondsquares.svg	stimuli_distractor_diamondtriangles.svg	3	yes	53	1	868	6	3	antiphase_hc_soi.wav	1	6	5	noise_calib_stim_RIGHT.wav	2	4	blb_dichoticlistening_ba-ka.mp3	ba	ka	1	left
6.6.1	win	2023-06-27	11:28:06	11:51:35	1405932	5d5d13312a28f400015a5b6f	1	1	practice_slash	22	advance_on_keypress_SLASH	30	stimuli_target_diamondsquares.svg	stimuli_distractor_diamondtriangles.svg	3	yes	57	0	370	6	3	antiphase_hc_soi.wav	1	6	5	noise_calib_stim_RIGHT.wav	2	4	blb_dichoticlistening_ba-ka.mp3	ba	ka	1	left
6.6.1	win	2023-06-27	11:28:06	11:51:38	1408744	5d5d13312a28f400015a5b6f	1	1	practice_slash	22	practice_slash	31	stimuli_distractor_diamondtriangles.svg	stimuli_target_diamondrectangles.svg	8	yes	53	1	796	6	3	antiphase_hc_soi.wav	1	6	5	noise_calib_stim_RIGHT.wav	2	4	blb_dichoticlistening_ba-ka.mp3	ba	ka	1	left
6.6.1	win	2023-06-27	11:28:06	11:51:38	1408744	5d5d13312a28f400015a5b6f	1	1	practice_slash	22	advance_on_keypress_SLASH	32	stimuli_distractor_diamondtriangles.svg	stimuli_target_diamondrectangles.svg	8	yes	57	0	429	6	3	antiphase_hc_soi.wav	1	6	5	noise_calib_stim_RIGHT.wav	2	4	blb_dichoticlistening_ba-ka.mp3	ba	ka	1	left
6.6.1	win	2023-06-27	11:28:06	11:52:23	1453208	5d5d13312a28f400015a5b6f	1	1	main_slash	24	main_slash	1	stimuli_distractor_diamondtriangles.svg	stimuli_target_rectanglediamonds.svg	14	yes	53	1	1744	6	3	antiphase_hc_soi.wav	1	6	5	noise_calib_stim_RIGHT.wav	2	4	blb_dichoticlistening_ba-ka.mp3	ba	ka	1	left
6.6.1	win	2023-06-27	11:28:06	11:52:23	1453208	5d5d13312a28f400015a5b6f	1	1	main_slash	24	advance_on_keypress_SLASH	2	stimuli_distractor_diamondtriangles.svg	stimuli_target_rectanglediamonds.svg	14	yes	57	0	743	6	3	antiphase_hc_soi.wav	1	6	5	noise_calib_stim_RIGHT.wav	2	4	blb_dichoticlistening_ba-ka.mp3	ba	ka	1	left
6.6.1	win	2023-06-27	11:28:06	11:52:26	1456580	5d5d13312a28f400015a5b6f	1	1	main_slash	24	main_slash	3	stimuli_distractor_diamondtriangles.svg	stimuli_distractor_diamondtriangles.svg	40	no	0	1	2000	6	3	antiphase_hc_soi.wav	1	6	5	noise_calib_stim_RIGHT.wav	2	4	blb_dichoticlistening_ba-ka.mp3	ba	ka	1	left
6.6.1	win	2023-06-27	11:28:06	11:52:26	1456580	5d5d13312a28f400015a5b6f	1	1	main_slash	24	advance_on_keypress_SLASH	4	stimuli_distractor_diamondtriangles.svg	stimuli_distractor_diamondtriangles.svg	40	no	57	0	782	6	3	antiphase_hc_soi.wav	1	6	5	noise_calib_stim_RIGHT.wav	2	4	blb_dichoticlistening_ba-ka.mp3	ba	ka	1	left
6.6.1	win	2023-06-27	11:28:06	11:52:29	1459505	5d5d13312a28f400015a5b6f	1	1	main_slash	24	main_slash	5	stimuli_target_diamondrectangles.svg	stimuli_distractor_trianglediamonds.svg	19	yes	53	1	1491	6	3	antiphase_hc_soi.wav	1	6	5	noise_calib_stim_RIGHT.wav	2	4	blb_dichoticlistening_ba-ka.mp3	ba	ka	1	left
6.6.1	win	2023-06-27	11:28:06	11:52:29	1459505	5d5d13312a28f400015a5b6f	1	1	main_slash	24	advance_on_keypress_SLASH	6	stimuli_target_diamondrectangles.svg	stimuli_distractor_trianglediamonds.svg	19	yes	57	0	926	6	3	antiphase_hc_soi.wav	1	6	5	noise_calib_stim_RIGHT.wav	2	4	blb_dichoticlistening_ba-ka.mp3	ba	ka	1	left
6.6.1	win	2023-06-27	11:28:06	11:52:31	1461591	5d5d13312a28f400015a5b6f	1	1	main_slash	24	main_slash	7	stimuli_distractor_trianglediamonds.svg	stimuli_target_trianglesquares.svg	26	yes	53	1	528	6	3	antiphase_hc_soi.wav	1	6	5	noise_calib_stim_RIGHT.wav	2	4	blb_dichoticlistening_ba-ka.mp3	ba	ka	1	left
6.6.1	win	2023-06-27	11:28:06	11:52:31	1461591	5d5d13312a28f400015a5b6f	1	1	main_slash	24	advance_on_keypress_SLASH	8	stimuli_distractor_trianglediamonds.svg	stimuli_target_trianglesquares.svg	26	yes	57	0	512	6	3	antiphase_hc_soi.wav	1	6	5	noise_calib_stim_RIGHT.wav	2	4	blb_dichoticlistening_ba-ka.mp3	ba	ka	1	left
6.6.1	win	2023-06-27	11:28:06	11:52:33	1463212	5d5d13312a28f400015a5b6f	1	1	main_slash	24	main_slash	9	stimuli_distractor_diamondtriangles.svg	stimuli_target_diamondrectangles.svg	31	yes	53	1	482	6	3	antiphase_hc_soi.wav	1	6	5	noise_calib_stim_RIGHT.wav	2	4	blb_dichoticlistening_ba-ka.mp3	ba	ka	1	left
6.6.1	win	2023-06-27	11:28:06	11:52:33	1463212	5d5d13312a28f400015a5b6f	1	1	main_slash	24	advance_on_keypress_SLASH	10	stimuli_distractor_diamondtriangles.svg	stimuli_target_diamondrectangles.svg	31	yes	57	0	447	6	3	antiphase_hc_soi.wav	1	6	5	noise_calib_stim_RIGHT.wav	2	4	blb_dichoticlistening_ba-ka.mp3	ba	ka	1	left
6.6.1	win	2023-06-27	11:28:06	11:52:34	1464879	5d5d13312a28f400015a5b6f	1	1	main_slash	24	main_slash	11	stimuli_target_squarediamonds.svg	stimuli_distractor_trianglediamonds.svg	4	yes	53	1	565	6	3	antiphase_hc_soi.wav	1	6	5	noise_calib_stim_RIGHT.wav	2	4	blb_dichoticlistening_ba-ka.mp3	ba	ka	1	left
6.6.1	win	2023-06-27	11:28:06	11:52:34	1464879	5d5d13312a28f400015a5b6f	1	1	main_slash	24	advance_on_keypress_SLASH	12	stimuli_target_squarediamonds.svg	stimuli_distractor_trianglediamonds.svg	4	yes	57	0	574	6	3	antiphase_hc_soi.wav	1	6	5	noise_calib_stim_RIGHT.wav	2	4	blb_dichoticlistening_ba-ka.mp3	ba	ka	1	left
6.6.1	win	2023-06-27	11:28:06	11:52:36	1466460	5d5d13312a28f400015a5b6f	1	1	main_slash	24	main_slash	13	stimuli_distractor_diamondtriangles.svg	stimuli_target_trianglerectangles.svg	29	yes	53	1	364	6	3	antiphase_hc_soi.wav	1	6	5	noise_calib_stim_RIGHT.wav	2	4	blb_dichoticlistening_ba-ka.mp3	ba	ka	1	left
6.6.1	win	2023-06-27	11:28:06	11:52:36	1466460	5d5d13312a28f400015a5b6f	1	1	main_slash	24	advance_on_keypress_SLASH	14	stimuli_distractor_diamondtriangles.svg	stimuli_target_trianglerectangles.svg	29	yes	57	0	1184	6	3	antiphase_hc_soi.wav	1	6	5	noise_calib_stim_RIGHT.wav	2	4	blb_dichoticlistening_ba-ka.mp3	ba	ka	1	left
6.6.1	win	2023-06-27	11:28:06	11:52:38	1468851	5d5d13312a28f400015a5b6f	1	1	main_slash	24	main_slash	15	stimuli_distractor_trianglediamonds.svg	stimuli_target_diamondsquares.svg	28	yes	53	1	554	6	3	antiphase_hc_soi.wav	1	6	5	noise_calib_stim_RIGHT.wav	2	4	blb_dichoticlistening_ba-ka.mp3	ba	ka	1	left
6.6.1	win	2023-06-27	11:28:06	11:52:38	1468851	5d5d13312a28f400015a5b6f	1	1	main_slash	24	advance_on_keypress_SLASH	16	stimuli_distractor_trianglediamonds.svg	stimuli_target_diamondsquares.svg	28	yes	57	0	415	6	3	antiphase_hc_soi.wav	1	6	5	noise_calib_stim_RIGHT.wav	2	4	blb_dichoticlistening_ba-ka.mp3	ba	ka	1	left
6.6.1	win	2023-06-27	11:28:06	11:52:40	1470462	5d5d13312a28f400015a5b6f	1	1	main_slash	24	main_slash	17	stimuli_distractor_trianglediamonds.svg	stimuli_target_trianglerectangles.svg	25	yes	53	1	548	6	3	antiphase_hc_soi.wav	1	6	5	noise_calib_stim_RIGHT.wav	2	4	blb_dichoticlistening_ba-ka.mp3	ba	ka	1	left
6.6.1	win	2023-06-27	11:28:06	11:52:40	1470462	5d5d13312a28f400015a5b6f	1	1	main_slash	24	advance_on_keypress_SLASH	18	stimuli_distractor_trianglediamonds.svg	stimuli_target_trianglerectangles.svg	25	yes	57	0	362	6	3	antiphase_hc_soi.wav	1	6	5	noise_calib_stim_RIGHT.wav	2	4	blb_dichoticlistening_ba-ka.mp3	ba	ka	1	left
6.6.1	win	2023-06-27	11:28:06	11:52:42	1472146	5d5d13312a28f400015a5b6f	1	1	main_slash	24	main_slash	19	stimuli_target_trianglerectangles.svg	stimuli_distractor_diamondtriangles.svg	21	yes	53	1	684	6	3	antiphase_hc_soi.wav	1	6	5	noise_calib_stim_RIGHT.wav	2	4	blb_dichoticlistening_ba-ka.mp3	ba	ka	1	left
6.6.1	win	2023-06-27	11:28:06	11:52:42	1472146	5d5d13312a28f400015a5b6f	1	1	main_slash	24	advance_on_keypress_SLASH	20	stimuli_target_trianglerectangles.svg	stimuli_distractor_diamondtriangles.svg	21	yes	57	0	338	6	3	antiphase_hc_soi.wav	1	6	5	noise_calib_stim_RIGHT.wav	2	4	blb_dichoticlistening_ba-ka.mp3	ba	ka	1	left
6.6.1	win	2023-06-27	11:28:06	11:52:43	1473748	5d5d13312a28f400015a5b6f	1	1	main_slash	24	main_slash	21	stimuli_distractor_trianglediamonds.svg	stimuli_target_squarediamonds.svg	12	yes	53	1	618	6	3	antiphase_hc_soi.wav	1	6	5	noise_calib_stim_RIGHT.wav	2	4	blb_dichoticlistening_ba-ka.mp3	ba	ka	1	left
6.6.1	win	2023-06-27	11:28:06	11:52:43	1473748	5d5d13312a28f400015a5b6f	1	1	main_slash	24	advance_on_keypress_SLASH	22	stimuli_distractor_trianglediamonds.svg	stimuli_target_squarediamonds.svg	12	yes	57	0	573	6	3	antiphase_hc_soi.wav	1	6	5	noise_calib_stim_RIGHT.wav	2	4	blb_dichoticlistening_ba-ka.mp3	ba	ka	1	left
6.6.1	win	2023-06-27	11:28:06	11:52:45	1475393	5d5d13312a28f400015a5b6f	1	1	main_slash	24	main_slash	23	stimuli_target_squaretriangles.svg	stimuli_distractor_diamondtriangles.svg	7	yes	53	1	430	6	3	antiphase_hc_soi.wav	1	6	5	noise_calib_stim_RIGHT.wav	2	4	blb_dichoticlistening_ba-ka.mp3	ba	ka	1	left
6.6.1	win	2023-06-27	11:28:06	11:52:45	1475393	5d5d13312a28f400015a5b6f	1	1	main_slash	24	advance_on_keypress_SLASH	24	stimuli_target_squaretriangles.svg	stimuli_distractor_diamondtriangles.svg	7	yes	57	0	455	6	3	antiphase_hc_soi.wav	1	6	5	noise_calib_stim_RIGHT.wav	2	4	blb_dichoticlistening_ba-ka.mp3	ba	ka	1	left
6.6.1	win	2023-06-27	11:28:06	11:52:48	1478497	5d5d13312a28f400015a5b6f	1	1	main_slash	24	main_slash	25	stimuli_distractor_trianglediamonds.svg	stimuli_distractor_trianglediamonds.svg	34	no	0	1	2000	6	3	antiphase_hc_soi.wav	1	6	5	noise_calib_stim_RIGHT.wav	2	4	blb_dichoticlistening_ba-ka.mp3	ba	ka	1	left
6.6.1	win	2023-06-27	11:28:06	11:52:48	1478497	5d5d13312a28f400015a5b6f	1	1	main_slash	24	advance_on_keypress_SLASH	26	stimuli_distractor_trianglediamonds.svg	stimuli_distractor_trianglediamonds.svg	34	no	57	0	127	6	3	antiphase_hc_soi.wav	1	6	5	noise_calib_stim_RIGHT.wav	2	4	blb_dichoticlistening_ba-ka.mp3	ba	ka	1	left
6.6.1	win	2023-06-27	11:28:06	11:52:49	1479819	5d5d13312a28f400015a5b6f	1	1	main_slash	24	main_slash	27	stimuli_target_diamondsquares.svg	stimuli_distractor_trianglediamonds.svg	20	yes	53	1	557	6	3	antiphase_hc_soi.wav	1	6	5	noise_calib_stim_RIGHT.wav	2	4	blb_dichoticlistening_ba-ka.mp3	ba	ka	1	left
6.6.1	win	2023-06-27	11:28:06	11:52:49	1479819	5d5d13312a28f400015a5b6f	1	1	main_slash	24	advance_on_keypress_SLASH	28	stimuli_target_diamondsquares.svg	stimuli_distractor_trianglediamonds.svg	20	yes	57	0	588	6	3	antiphase_hc_soi.wav	1	6	5	noise_calib_stim_RIGHT.wav	2	4	blb_dichoticlistening_ba-ka.mp3	ba	ka	1	left
6.6.1	win	2023-06-27	11:28:06	11:52:51	1481588	5d5d13312a28f400015a5b6f	1	1	main_slash	24	main_slash	29	stimuli_distractor_diamondtriangles.svg	stimuli_target_trianglesquares.svg	30	yes	53	1	542	6	3	antiphase_hc_soi.wav	1	6	5	noise_calib_stim_RIGHT.wav	2	4	blb_dichoticlistening_ba-ka.mp3	ba	ka	1	left
6.6.1	win	2023-06-27	11:28:06	11:52:51	1481588	5d5d13312a28f400015a5b6f	1	1	main_slash	24	advance_on_keypress_SLASH	30	stimuli_distractor_diamondtriangles.svg	stimuli_target_trianglesquares.svg	30	yes	57	0	430	6	3	antiphase_hc_soi.wav	1	6	5	noise_calib_stim_RIGHT.wav	2	4	blb_dichoticlistening_ba-ka.mp3	ba	ka	1	left
6.6.1	win	2023-06-27	11:28:06	11:52:53	1483022	5d5d13312a28f400015a5b6f	1	1	main_slash	24	main_slash	31	stimuli_target_trianglerectangles.svg	stimuli_distractor_trianglediamonds.svg	17	yes	53	1	358	6	3	antiphase_hc_soi.wav	1	6	5	noise_calib_stim_RIGHT.wav	2	4	blb_dichoticlistening_ba-ka.mp3	ba	ka	1	left
6.6.1	win	2023-06-27	11:28:06	11:52:53	1483022	5d5d13312a28f400015a5b6f	1	1	main_slash	24	advance_on_keypress_SLASH	32	stimuli_target_trianglerectangles.svg	stimuli_distractor_trianglediamonds.svg	17	yes	57	0	406	6	3	antiphase_hc_soi.wav	1	6	5	noise_calib_stim_RIGHT.wav	2	4	blb_dichoticlistening_ba-ka.mp3	ba	ka	1	left
6.6.1	win	2023-06-27	11:28:06	11:52:54	1484683	5d5d13312a28f400015a5b6f	1	1	main_slash	24	main_slash	33	stimuli_distractor_trianglediamonds.svg	stimuli_target_rectanglediamonds.svg	10	yes	53	1	620	6	3	antiphase_hc_soi.wav	1	6	5	noise_calib_stim_RIGHT.wav	2	4	blb_dichoticlistening_ba-ka.mp3	ba	ka	1	left
6.6.1	win	2023-06-27	11:28:06	11:52:54	1484683	5d5d13312a28f400015a5b6f	1	1	main_slash	24	advance_on_keypress_SLASH	34	stimuli_distractor_trianglediamonds.svg	stimuli_target_rectanglediamonds.svg	10	yes	57	0	487	6	3	antiphase_hc_soi.wav	1	6	5	noise_calib_stim_RIGHT.wav	2	4	blb_dichoticlistening_ba-ka.mp3	ba	ka	1	left
6.6.1	win	2023-06-27	11:28:06	11:52:56	1486194	5d5d13312a28f400015a5b6f	1	1	main_slash	24	main_slash	35	stimuli_target_rectangletriangles.svg	stimuli_distractor_diamondtriangles.svg	5	yes	53	1	380	6	3	antiphase_hc_soi.wav	1	6	5	noise_calib_stim_RIGHT.wav	2	4	blb_dichoticlistening_ba-ka.mp3	ba	ka	1	left
6.6.1	win	2023-06-27	11:28:06	11:52:56	1486194	5d5d13312a28f400015a5b6f	1	1	main_slash	24	advance_on_keypress_SLASH	36	stimuli_target_rectangletriangles.svg	stimuli_distractor_diamondtriangles.svg	5	yes	57	0	424	6	3	antiphase_hc_soi.wav	1	6	5	noise_calib_stim_RIGHT.wav	2	4	blb_dichoticlistening_ba-ka.mp3	ba	ka	1	left
6.6.1	win	2023-06-27	11:28:06	11:52:57	1487594	5d5d13312a28f400015a5b6f	1	1	main_slash	24	main_slash	37	stimuli_distractor_diamondtriangles.svg	stimuli_target_rectangletriangles.svg	13	yes	53	1	330	6	3	antiphase_hc_soi.wav	1	6	5	noise_calib_stim_RIGHT.wav	2	4	blb_dichoticlistening_ba-ka.mp3	ba	ka	1	left
6.6.1	win	2023-06-27	11:28:06	11:52:57	1487594	5d5d13312a28f400015a5b6f	1	1	main_slash	24	advance_on_keypress_SLASH	38	stimuli_distractor_diamondtriangles.svg	stimuli_target_rectangletriangles.svg	13	yes	57	0	360	6	3	antiphase_hc_soi.wav	1	6	5	noise_calib_stim_RIGHT.wav	2	4	blb_dichoticlistening_ba-ka.mp3	ba	ka	1	left
6.6.1	win	2023-06-27	11:28:06	11:52:59	1489088	5d5d13312a28f400015a5b6f	1	1	main_slash	24	main_slash	39	stimuli_target_rectanglediamonds.svg	stimuli_distractor_diamondtriangles.svg	6	yes	53	1	491	6	3	antiphase_hc_soi.wav	1	6	5	noise_calib_stim_RIGHT.wav	2	4	blb_dichoticlistening_ba-ka.mp3	ba	ka	1	left
6.6.1	win	2023-06-27	11:28:06	11:52:59	1489088	5d5d13312a28f400015a5b6f	1	1	main_slash	24	advance_on_keypress_SLASH	40	stimuli_target_rectanglediamonds.svg	stimuli_distractor_diamondtriangles.svg	6	yes	57	0	420	6	3	antiphase_hc_soi.wav	1	6	5	noise_calib_stim_RIGHT.wav	2	4	blb_dichoticlistening_ba-ka.mp3	ba	ka	1	left
6.6.1	win	2023-06-27	11:28:06	11:53:01	1491845	5d5d13312a28f400015a5b6f	1	1	main_slash	24	main_slash	41	stimuli_target_squaretriangles.svg	stimuli_distractor_trianglediamonds.svg	3	yes	53	1	1698	6	3	antiphase_hc_soi.wav	1	6	5	noise_calib_stim_RIGHT.wav	2	4	blb_dichoticlistening_ba-ka.mp3	ba	ka	1	left
6.6.1	win	2023-06-27	11:28:06	11:53:01	1491845	5d5d13312a28f400015a5b6f	1	1	main_slash	24	advance_on_keypress_SLASH	42	stimuli_target_squaretriangles.svg	stimuli_distractor_trianglediamonds.svg	3	yes	57	0	406	6	3	antiphase_hc_soi.wav	1	6	5	noise_calib_stim_RIGHT.wav	2	4	blb_dichoticlistening_ba-ka.mp3	ba	ka	1	left
6.6.1	win	2023-06-27	11:28:06	11:53:03	1493237	5d5d13312a28f400015a5b6f	1	1	main_slash	24	main_slash	43	stimuli_distractor_trianglediamonds.svg	stimuli_distractor_diamondtriangles.svg	36	no	53	0	340	6	3	antiphase_hc_soi.wav	1	6	5	noise_calib_stim_RIGHT.wav	2	4	blb_dichoticlistening_ba-ka.mp3	ba	ka	1	left
6.6.1	win	2023-06-27	11:28:06	11:53:03	1493237	5d5d13312a28f400015a5b6f	1	1	main_slash	24	advance_on_keypress_SLASH	44	stimuli_distractor_trianglediamonds.svg	stimuli_distractor_diamondtriangles.svg	36	no	57	0	585	6	3	antiphase_hc_soi.wav	1	6	5	noise_calib_stim_RIGHT.wav	2	4	blb_dichoticlistening_ba-ka.mp3	ba	ka	1	left
6.6.1	win	2023-06-27	11:28:06	11:53:05	1495244	5d5d13312a28f400015a5b6f	1	1	main_slash	24	main_slash	45	stimuli_distractor_diamondtriangles.svg	stimuli_target_squarediamonds.svg	16	yes	53	1	780	6	3	antiphase_hc_soi.wav	1	6	5	noise_calib_stim_RIGHT.wav	2	4	blb_dichoticlistening_ba-ka.mp3	ba	ka	1	left
6.6.1	win	2023-06-27	11:28:06	11:53:05	1495244	5d5d13312a28f400015a5b6f	1	1	main_slash	24	advance_on_keypress_SLASH	46	stimuli_distractor_diamondtriangles.svg	stimuli_target_squarediamonds.svg	16	yes	57	0	324	6	3	antiphase_hc_soi.wav	1	6	5	noise_calib_stim_RIGHT.wav	2	4	blb_dichoticlistening_ba-ka.mp3	ba	ka	1	left
6.6.1	win	2023-06-27	11:28:06	11:53:06	1497008	5d5d13312a28f400015a5b6f	1	1	main_slash	24	main_slash	47	stimuli_target_rectangletriangles.svg	stimuli_distractor_trianglediamonds.svg	1	yes	53	1	794	6	3	antiphase_hc_soi.wav	1	6	5	noise_calib_stim_RIGHT.wav	2	4	blb_dichoticlistening_ba-ka.mp3	ba	ka	1	left
6.6.1	win	2023-06-27	11:28:06	11:53:06	1497008	5d5d13312a28f400015a5b6f	1	1	main_slash	24	advance_on_keypress_SLASH	48	stimuli_target_rectangletriangles.svg	stimuli_distractor_trianglediamonds.svg	1	yes	57	0	357	6	3	antiphase_hc_soi.wav	1	6	5	noise_calib_stim_RIGHT.wav	2	4	blb_dichoticlistening_ba-ka.mp3	ba	ka	1	left
6.6.1	win	2023-06-27	11:28:06	11:53:08	1498345	5d5d13312a28f400015a5b6f	1	1	main_slash	24	main_slash	49	stimuli_target_rectanglediamonds.svg	stimuli_distractor_trianglediamonds.svg	2	yes	53	1	349	6	3	antiphase_hc_soi.wav	1	6	5	noise_calib_stim_RIGHT.wav	2	4	blb_dichoticlistening_ba-ka.mp3	ba	ka	1	left
6.6.1	win	2023-06-27	11:28:06	11:53:08	1498345	5d5d13312a28f400015a5b6f	1	1	main_slash	24	advance_on_keypress_SLASH	50	stimuli_target_rectanglediamonds.svg	stimuli_distractor_trianglediamonds.svg	2	yes	57	0	439	6	3	antiphase_hc_soi.wav	1	6	5	noise_calib_stim_RIGHT.wav	2	4	blb_dichoticlistening_ba-ka.mp3	ba	ka	1	left
6.6.1	win	2023-06-27	11:28:06	11:53:10	1500034	5d5d13312a28f400015a5b6f	1	1	main_slash	24	main_slash	51	stimuli_target_diamondsquares.svg	stimuli_distractor_diamondtriangles.svg	24	yes	53	1	605	6	3	antiphase_hc_soi.wav	1	6	5	noise_calib_stim_RIGHT.wav	2	4	blb_dichoticlistening_ba-ka.mp3	ba	ka	1	left
6.6.1	win	2023-06-27	11:28:06	11:53:10	1500034	5d5d13312a28f400015a5b6f	1	1	main_slash	24	advance_on_keypress_SLASH	52	stimuli_target_diamondsquares.svg	stimuli_distractor_diamondtriangles.svg	24	yes	57	0	345	6	3	antiphase_hc_soi.wav	1	6	5	noise_calib_stim_RIGHT.wav	2	4	blb_dichoticlistening_ba-ka.mp3	ba	ka	1	left
6.6.1	win	2023-06-27	11:28:06	11:53:11	1501586	5d5d13312a28f400015a5b6f	1	1	main_slash	24	main_slash	53	stimuli_distractor_trianglediamonds.svg	stimuli_target_squaretriangles.svg	11	yes	53	1	573	6	3	antiphase_hc_soi.wav	1	6	5	noise_calib_stim_RIGHT.wav	2	4	blb_dichoticlistening_ba-ka.mp3	ba	ka	1	left
6.6.1	win	2023-06-27	11:28:06	11:53:11	1501586	5d5d13312a28f400015a5b6f	1	1	main_slash	24	advance_on_keypress_SLASH	54	stimuli_distractor_trianglediamonds.svg	stimuli_target_squaretriangles.svg	11	yes	57	0	340	6	3	antiphase_hc_soi.wav	1	6	5	noise_calib_stim_RIGHT.wav	2	4	blb_dichoticlistening_ba-ka.mp3	ba	ka	1	left
6.6.1	win	2023-06-27	11:28:06	11:53:12	1502811	5d5d13312a28f400015a5b6f	1	1	main_slash	24	main_slash	55	stimuli_target_squarediamonds.svg	stimuli_distractor_diamondtriangles.svg	8	yes	53	1	248	6	3	antiphase_hc_soi.wav	1	6	5	noise_calib_stim_RIGHT.wav	2	4	blb_dichoticlistening_ba-ka.mp3	ba	ka	1	left
6.6.1	win	2023-06-27	11:28:06	11:53:12	1502811	5d5d13312a28f400015a5b6f	1	1	main_slash	24	advance_on_keypress_SLASH	56	stimuli_target_squarediamonds.svg	stimuli_distractor_diamondtriangles.svg	8	yes	57	0	289	6	3	antiphase_hc_soi.wav	1	6	5	noise_calib_stim_RIGHT.wav	2	4	blb_dichoticlistening_ba-ka.mp3	ba	ka	1	left
6.6.1	win	2023-06-27	11:28:06	11:53:14	1504076	5d5d13312a28f400015a5b6f	1	1	main_slash	24	main_slash	57	stimuli_distractor_diamondtriangles.svg	stimuli_distractor_trianglediamonds.svg	38	no	53	0	330	6	3	antiphase_hc_soi.wav	1	6	5	noise_calib_stim_RIGHT.wav	2	4	blb_dichoticlistening_ba-ka.mp3	ba	ka	1	left
6.6.1	win	2023-06-27	11:28:06	11:53:14	1504076	5d5d13312a28f400015a5b6f	1	1	main_slash	24	advance_on_keypress_SLASH	58	stimuli_distractor_diamondtriangles.svg	stimuli_distractor_trianglediamonds.svg	38	no	57	0	440	6	3	antiphase_hc_soi.wav	1	6	5	noise_calib_stim_RIGHT.wav	2	4	blb_dichoticlistening_ba-ka.mp3	ba	ka	1	left
6.6.1	win	2023-06-27	11:28:06	11:53:16	1506075	5d5d13312a28f400015a5b6f	1	1	main_slash	24	main_slash	59	stimuli_distractor_diamondtriangles.svg	stimuli_distractor_trianglediamonds.svg	37	no	53	0	913	6	3	antiphase_hc_soi.wav	1	6	5	noise_calib_stim_RIGHT.wav	2	4	blb_dichoticlistening_ba-ka.mp3	ba	ka	1	left
6.6.1	win	2023-06-27	11:28:06	11:53:16	1506075	5d5d13312a28f400015a5b6f	1	1	main_slash	24	advance_on_keypress_SLASH	60	stimuli_distractor_diamondtriangles.svg	stimuli_distractor_trianglediamonds.svg	37	no	57	0	645	6	3	antiphase_hc_soi.wav	1	6	5	noise_calib_stim_RIGHT.wav	2	4	blb_dichoticlistening_ba-ka.mp3	ba	ka	1	left
6.6.1	win	2023-06-27	11:28:06	11:53:18	1508148	5d5d13312a28f400015a5b6f	1	1	main_slash	24	main_slash	61	stimuli_distractor_trianglediamonds.svg	stimuli_distractor_trianglediamonds.svg	33	no	53	0	801	6	3	antiphase_hc_soi.wav	1	6	5	noise_calib_stim_RIGHT.wav	2	4	blb_dichoticlistening_ba-ka.mp3	ba	ka	1	left
6.6.1	win	2023-06-27	11:28:06	11:53:18	1508148	5d5d13312a28f400015a5b6f	1	1	main_slash	24	advance_on_keypress_SLASH	62	stimuli_distractor_trianglediamonds.svg	stimuli_distractor_trianglediamonds.svg	33	no	57	0	501	6	3	antiphase_hc_soi.wav	1	6	5	noise_calib_stim_RIGHT.wav	2	4	blb_dichoticlistening_ba-ka.mp3	ba	ka	1	left
6.6.1	win	2023-06-27	11:28:06	11:53:19	1509970	5d5d13312a28f400015a5b6f	1	1	main_slash	24	main_slash	63	stimuli_target_trianglesquares.svg	stimuli_distractor_trianglediamonds.svg	18	yes	53	1	674	6	3	antiphase_hc_soi.wav	1	6	5	noise_calib_stim_RIGHT.wav	2	4	blb_dichoticlistening_ba-ka.mp3	ba	ka	1	left
6.6.1	win	2023-06-27	11:28:06	11:53:19	1509970	5d5d13312a28f400015a5b6f	1	1	main_slash	24	advance_on_keypress_SLASH	64	stimuli_target_trianglesquares.svg	stimuli_distractor_trianglediamonds.svg	18	yes	57	0	540	6	3	antiphase_hc_soi.wav	1	6	5	noise_calib_stim_RIGHT.wav	2	4	blb_dichoticlistening_ba-ka.mp3	ba	ka	1	left
6.6.1	win	2023-06-27	11:28:06	11:53:21	1511767	5d5d13312a28f400015a5b6f	1	1	main_slash	24	main_slash	65	stimuli_distractor_diamondtriangles.svg	stimuli_target_diamondsquares.svg	32	yes	53	1	621	6	3	antiphase_hc_soi.wav	1	6	5	noise_calib_stim_RIGHT.wav	2	4	blb_dichoticlistening_ba-ka.mp3	ba	ka	1	left
6.6.1	win	2023-06-27	11:28:06	11:53:21	1511767	5d5d13312a28f400015a5b6f	1	1	main_slash	24	advance_on_keypress_SLASH	66	stimuli_distractor_diamondtriangles.svg	stimuli_target_diamondsquares.svg	32	yes	57	0	331	6	3	antiphase_hc_soi.wav	1	6	5	noise_calib_stim_RIGHT.wav	2	4	blb_dichoticlistening_ba-ka.mp3	ba	ka	1	left
6.6.1	win	2023-06-27	11:28:06	11:53:24	1514283	5d5d13312a28f400015a5b6f	1	1	main_slash	24	main_slash	67	stimuli_distractor_diamondtriangles.svg	stimuli_target_squaretriangles.svg	15	yes	53	1	1536	6	3	antiphase_hc_soi.wav	1	6	5	noise_calib_stim_RIGHT.wav	2	4	blb_dichoticlistening_ba-ka.mp3	ba	ka	1	left
6.6.1	win	2023-06-27	11:28:06	11:53:24	1514283	5d5d13312a28f400015a5b6f	1	1	main_slash	24	advance_on_keypress_SLASH	68	stimuli_distractor_diamondtriangles.svg	stimuli_target_squaretriangles.svg	15	yes	57	0	345	6	3	antiphase_hc_soi.wav	1	6	5	noise_calib_stim_RIGHT.wav	2	4	blb_dichoticlistening_ba-ka.mp3	ba	ka	1	left
6.6.1	win	2023-06-27	11:28:06	11:53:25	1516003	5d5d13312a28f400015a5b6f	1	1	main_slash	24	main_slash	69	stimuli_target_diamondrectangles.svg	stimuli_distractor_diamondtriangles.svg	23	yes	53	1	740	6	3	antiphase_hc_soi.wav	1	6	5	noise_calib_stim_RIGHT.wav	2	4	blb_dichoticlistening_ba-ka.mp3	ba	ka	1	left
6.6.1	win	2023-06-27	11:28:06	11:53:25	1516003	5d5d13312a28f400015a5b6f	1	1	main_slash	24	advance_on_keypress_SLASH	70	stimuli_target_diamondrectangles.svg	stimuli_distractor_diamondtriangles.svg	23	yes	57	0	325	6	3	antiphase_hc_soi.wav	1	6	5	noise_calib_stim_RIGHT.wav	2	4	blb_dichoticlistening_ba-ka.mp3	ba	ka	1	left
6.6.1	win	2023-06-27	11:28:06	11:53:27	1517662	5d5d13312a28f400015a5b6f	1	1	main_slash	24	main_slash	71	stimuli_distractor_trianglediamonds.svg	stimuli_target_diamondrectangles.svg	27	yes	53	1	700	6	3	antiphase_hc_soi.wav	1	6	5	noise_calib_stim_RIGHT.wav	2	4	blb_dichoticlistening_ba-ka.mp3	ba	ka	1	left
6.6.1	win	2023-06-27	11:28:06	11:53:27	1517662	5d5d13312a28f400015a5b6f	1	1	main_slash	24	advance_on_keypress_SLASH	72	stimuli_distractor_trianglediamonds.svg	stimuli_target_diamondrectangles.svg	27	yes	57	0	449	6	3	antiphase_hc_soi.wav	1	6	5	noise_calib_stim_RIGHT.wav	2	4	blb_dichoticlistening_ba-ka.mp3	ba	ka	1	left
6.6.1	win	2023-06-27	11:28:06	11:53:30	1520763	5d5d13312a28f400015a5b6f	1	1	main_slash	24	main_slash	73	stimuli_distractor_diamondtriangles.svg	stimuli_distractor_diamondtriangles.svg	39	no	0	1	2000	6	3	antiphase_hc_soi.wav	1	6	5	noise_calib_stim_RIGHT.wav	2	4	blb_dichoticlistening_ba-ka.mp3	ba	ka	1	left
6.6.1	win	2023-06-27	11:28:06	11:53:30	1520763	5d5d13312a28f400015a5b6f	1	1	main_slash	24	advance_on_keypress_SLASH	74	stimuli_distractor_diamondtriangles.svg	stimuli_distractor_diamondtriangles.svg	39	no	57	0	1228	6	3	antiphase_hc_soi.wav	1	6	5	noise_calib_stim_RIGHT.wav	2	4	blb_dichoticlistening_ba-ka.mp3	ba	ka	1	left
6.6.1	win	2023-06-27	11:28:06	11:53:33	1523599	5d5d13312a28f400015a5b6f	1	1	main_slash	24	main_slash	75	stimuli_distractor_trianglediamonds.svg	stimuli_target_rectangletriangles.svg	9	yes	53	1	970	6	3	antiphase_hc_soi.wav	1	6	5	noise_calib_stim_RIGHT.wav	2	4	blb_dichoticlistening_ba-ka.mp3	ba	ka	1	left
6.6.1	win	2023-06-27	11:28:06	11:53:33	1523599	5d5d13312a28f400015a5b6f	1	1	main_slash	24	advance_on_keypress_SLASH	76	stimuli_distractor_trianglediamonds.svg	stimuli_target_rectangletriangles.svg	9	yes	57	0	411	6	3	antiphase_hc_soi.wav	1	6	5	noise_calib_stim_RIGHT.wav	2	4	blb_dichoticlistening_ba-ka.mp3	ba	ka	1	left
6.6.1	win	2023-06-27	11:28:06	11:53:36	1526646	5d5d13312a28f400015a5b6f	1	1	main_slash	24	main_slash	77	stimuli_distractor_trianglediamonds.svg	stimuli_distractor_diamondtriangles.svg	35	no	0	1	2000	6	3	antiphase_hc_soi.wav	1	6	5	noise_calib_stim_RIGHT.wav	2	4	blb_dichoticlistening_ba-ka.mp3	ba	ka	1	left
6.6.1	win	2023-06-27	11:28:06	11:53:36	1526646	5d5d13312a28f400015a5b6f	1	1	main_slash	24	advance_on_keypress_SLASH	78	stimuli_distractor_trianglediamonds.svg	stimuli_distractor_diamondtriangles.svg	35	no	57	0	501	6	3	antiphase_hc_soi.wav	1	6	5	noise_calib_stim_RIGHT.wav	2	4	blb_dichoticlistening_ba-ka.mp3	ba	ka	1	left
6.6.1	win	2023-06-27	11:28:06	11:53:38	1528236	5d5d13312a28f400015a5b6f	1	1	main_slash	24	main_slash	79	stimuli_target_trianglesquares.svg	stimuli_distractor_diamondtriangles.svg	22	yes	53	1	439	6	3	antiphase_hc_soi.wav	1	6	5	noise_calib_stim_RIGHT.wav	2	4	blb_dichoticlistening_ba-ka.mp3	ba	ka	1	left
6.6.1	win	2023-06-27	11:28:06	11:53:38	1528236	5d5d13312a28f400015a5b6f	1	1	main_slash	24	advance_on_keypress_SLASH	80	stimuli_target_trianglesquares.svg	stimuli_distractor_diamondtriangles.svg	22	yes	57	0	376	6	3	antiphase_hc_soi.wav	1	6	5	noise_calib_stim_RIGHT.wav	2	4	blb_dichoticlistening_ba-ka.mp3	ba	ka	1	left
6.6.1	win	2023-06-27	11:28:06	11:53:40	1530073	5d5d13312a28f400015a5b6f	1	1	main_slash	24	main_slash	81	stimuli_distractor_trianglediamonds.svg	stimuli_target_rectanglediamonds.svg	10	yes	53	1	827	6	3	antiphase_hc_soi.wav	1	6	5	noise_calib_stim_RIGHT.wav	2	4	blb_dichoticlistening_ba-ka.mp3	ba	ka	1	left
6.6.1	win	2023-06-27	11:28:06	11:53:40	1530073	5d5d13312a28f400015a5b6f	1	1	main_slash	24	advance_on_keypress_SLASH	82	stimuli_distractor_trianglediamonds.svg	stimuli_target_rectanglediamonds.svg	10	yes	57	0	462	6	3	antiphase_hc_soi.wav	1	6	5	noise_calib_stim_RIGHT.wav	2	4	blb_dichoticlistening_ba-ka.mp3	ba	ka	1	left
6.6.1	win	2023-06-27	11:28:06	11:53:41	1531693	5d5d13312a28f400015a5b6f	1	1	main_slash	24	main_slash	83	stimuli_target_trianglesquares.svg	stimuli_distractor_diamondtriangles.svg	22	yes	53	1	530	6	3	antiphase_hc_soi.wav	1	6	5	noise_calib_stim_RIGHT.wav	2	4	blb_dichoticlistening_ba-ka.mp3	ba	ka	1	left
6.6.1	win	2023-06-27	11:28:06	11:53:41	1531693	5d5d13312a28f400015a5b6f	1	1	main_slash	24	advance_on_keypress_SLASH	84	stimuli_target_trianglesquares.svg	stimuli_distractor_diamondtriangles.svg	22	yes	57	0	364	6	3	antiphase_hc_soi.wav	1	6	5	noise_calib_stim_RIGHT.wav	2	4	blb_dichoticlistening_ba-ka.mp3	ba	ka	1	left
6.6.1	win	2023-06-27	11:28:06	11:53:43	1533352	5d5d13312a28f400015a5b6f	1	1	main_slash	24	main_slash	85	stimuli_distractor_trianglediamonds.svg	stimuli_distractor_trianglediamonds.svg	33	no	53	0	656	6	3	antiphase_hc_soi.wav	1	6	5	noise_calib_stim_RIGHT.wav	2	4	blb_dichoticlistening_ba-ka.mp3	ba	ka	1	left
6.6.1	win	2023-06-27	11:28:06	11:53:43	1533352	5d5d13312a28f400015a5b6f	1	1	main_slash	24	advance_on_keypress_SLASH	86	stimuli_distractor_trianglediamonds.svg	stimuli_distractor_trianglediamonds.svg	33	no	57	0	1080	6	3	antiphase_hc_soi.wav	1	6	5	noise_calib_stim_RIGHT.wav	2	4	blb_dichoticlistening_ba-ka.mp3	ba	ka	1	left
6.6.1	win	2023-06-27	11:28:06	11:53:46	1536303	5d5d13312a28f400015a5b6f	1	1	main_slash	24	main_slash	87	stimuli_distractor_diamondtriangles.svg	stimuli_target_squaretriangles.svg	15	yes	53	1	1224	6	3	antiphase_hc_soi.wav	1	6	5	noise_calib_stim_RIGHT.wav	2	4	blb_dichoticlistening_ba-ka.mp3	ba	ka	1	left
6.6.1	win	2023-06-27	11:28:06	11:53:46	1536303	5d5d13312a28f400015a5b6f	1	1	main_slash	24	advance_on_keypress_SLASH	88	stimuli_distractor_diamondtriangles.svg	stimuli_target_squaretriangles.svg	15	yes	57	0	487	6	3	antiphase_hc_soi.wav	1	6	5	noise_calib_stim_RIGHT.wav	2	4	blb_dichoticlistening_ba-ka.mp3	ba	ka	1	left
6.6.1	win	2023-06-27	11:28:06	11:53:47	1537926	5d5d13312a28f400015a5b6f	1	1	main_slash	24	main_slash	89	stimuli_distractor_diamondtriangles.svg	stimuli_target_trianglerectangles.svg	29	yes	53	1	497	6	3	antiphase_hc_soi.wav	1	6	5	noise_calib_stim_RIGHT.wav	2	4	blb_dichoticlistening_ba-ka.mp3	ba	ka	1	left
6.6.1	win	2023-06-27	11:28:06	11:53:47	1537926	5d5d13312a28f400015a5b6f	1	1	main_slash	24	advance_on_keypress_SLASH	90	stimuli_distractor_diamondtriangles.svg	stimuli_target_trianglerectangles.svg	29	yes	57	0	304	6	3	antiphase_hc_soi.wav	1	6	5	noise_calib_stim_RIGHT.wav	2	4	blb_dichoticlistening_ba-ka.mp3	ba	ka	1	left
6.6.1	win	2023-06-27	11:28:06	11:53:50	1540880	5d5d13312a28f400015a5b6f	1	1	main_slash	24	main_slash	91	stimuli_distractor_diamondtriangles.svg	stimuli_distractor_diamondtriangles.svg	40	no	0	1	2000	6	3	antiphase_hc_soi.wav	1	6	5	noise_calib_stim_RIGHT.wav	2	4	blb_dichoticlistening_ba-ka.mp3	ba	ka	1	left
6.6.1	win	2023-06-27	11:28:06	11:53:50	1540880	5d5d13312a28f400015a5b6f	1	1	main_slash	24	advance_on_keypress_SLASH	92	stimuli_distractor_diamondtriangles.svg	stimuli_distractor_diamondtriangles.svg	40	no	57	0	1002	6	3	antiphase_hc_soi.wav	1	6	5	noise_calib_stim_RIGHT.wav	2	4	blb_dichoticlistening_ba-ka.mp3	ba	ka	1	left
6.6.1	win	2023-06-27	11:28:06	11:53:52	1542988	5d5d13312a28f400015a5b6f	1	1	main_slash	24	main_slash	93	stimuli_target_diamondsquares.svg	stimuli_distractor_trianglediamonds.svg	20	yes	53	1	458	6	3	antiphase_hc_soi.wav	1	6	5	noise_calib_stim_RIGHT.wav	2	4	blb_dichoticlistening_ba-ka.mp3	ba	ka	1	left
6.6.1	win	2023-06-27	11:28:06	11:53:52	1542988	5d5d13312a28f400015a5b6f	1	1	main_slash	24	advance_on_keypress_SLASH	94	stimuli_target_diamondsquares.svg	stimuli_distractor_trianglediamonds.svg	20	yes	57	0	347	6	3	antiphase_hc_soi.wav	1	6	5	noise_calib_stim_RIGHT.wav	2	4	blb_dichoticlistening_ba-ka.mp3	ba	ka	1	left
6.6.1	win	2023-06-27	11:28:06	11:53:54	1544395	5d5d13312a28f400015a5b6f	1	1	main_slash	24	main_slash	95	stimuli_distractor_trianglediamonds.svg	stimuli_target_trianglesquares.svg	26	yes	53	1	416	6	3	antiphase_hc_soi.wav	1	6	5	noise_calib_stim_RIGHT.wav	2	4	blb_dichoticlistening_ba-ka.mp3	ba	ka	1	left
6.6.1	win	2023-06-27	11:28:06	11:53:54	1544395	5d5d13312a28f400015a5b6f	1	1	main_slash	24	advance_on_keypress_SLASH	96	stimuli_distractor_trianglediamonds.svg	stimuli_target_trianglesquares.svg	26	yes	57	0	326	6	3	antiphase_hc_soi.wav	1	6	5	noise_calib_stim_RIGHT.wav	2	4	blb_dichoticlistening_ba-ka.mp3	ba	ka	1	left
6.6.1	win	2023-06-27	11:28:06	11:53:56	1546201	5d5d13312a28f400015a5b6f	1	1	main_slash	24	main_slash	97	stimuli_distractor_trianglediamonds.svg	stimuli_distractor_diamondtriangles.svg	36	no	53	0	838	6	3	antiphase_hc_soi.wav	1	6	5	noise_calib_stim_RIGHT.wav	2	4	blb_dichoticlistening_ba-ka.mp3	ba	ka	1	left
6.6.1	win	2023-06-27	11:28:06	11:53:56	1546201	5d5d13312a28f400015a5b6f	1	1	main_slash	24	advance_on_keypress_SLASH	98	stimuli_distractor_trianglediamonds.svg	stimuli_distractor_diamondtriangles.svg	36	no	57	0	628	6	3	antiphase_hc_soi.wav	1	6	5	noise_calib_stim_RIGHT.wav	2	4	blb_dichoticlistening_ba-ka.mp3	ba	ka	1	left
6.6.1	win	2023-06-27	11:28:06	11:53:58	1548060	5d5d13312a28f400015a5b6f	1	1	main_slash	24	main_slash	99	stimuli_target_rectanglediamonds.svg	stimuli_distractor_diamondtriangles.svg	6	yes	53	1	597	6	3	antiphase_hc_soi.wav	1	6	5	noise_calib_stim_RIGHT.wav	2	4	blb_dichoticlistening_ba-ka.mp3	ba	ka	1	left
6.6.1	win	2023-06-27	11:28:06	11:53:58	1548060	5d5d13312a28f400015a5b6f	1	1	main_slash	24	advance_on_keypress_SLASH	100	stimuli_target_rectanglediamonds.svg	stimuli_distractor_diamondtriangles.svg	6	yes	57	0	504	6	3	antiphase_hc_soi.wav	1	6	5	noise_calib_stim_RIGHT.wav	2	4	blb_dichoticlistening_ba-ka.mp3	ba	ka	1	left
6.6.1	win	2023-06-27	11:28:06	11:53:59	1549813	5d5d13312a28f400015a5b6f	1	1	main_slash	24	main_slash	101	stimuli_distractor_diamondtriangles.svg	stimuli_target_diamondrectangles.svg	31	yes	53	1	600	6	3	antiphase_hc_soi.wav	1	6	5	noise_calib_stim_RIGHT.wav	2	4	blb_dichoticlistening_ba-ka.mp3	ba	ka	1	left
6.6.1	win	2023-06-27	11:28:06	11:53:59	1549813	5d5d13312a28f400015a5b6f	1	1	main_slash	24	advance_on_keypress_SLASH	102	stimuli_distractor_diamondtriangles.svg	stimuli_target_diamondrectangles.svg	31	yes	57	0	304	6	3	antiphase_hc_soi.wav	1	6	5	noise_calib_stim_RIGHT.wav	2	4	blb_dichoticlistening_ba-ka.mp3	ba	ka	1	left
6.6.1	win	2023-06-27	11:28:06	11:54:01	1551260	5d5d13312a28f400015a5b6f	1	1	main_slash	24	main_slash	103	stimuli_target_diamondsquares.svg	stimuli_distractor_diamondtriangles.svg	24	yes	53	1	498	6	3	antiphase_hc_soi.wav	1	6	5	noise_calib_stim_RIGHT.wav	2	4	blb_dichoticlistening_ba-ka.mp3	ba	ka	1	left
6.6.1	win	2023-06-27	11:28:06	11:54:01	1551260	5d5d13312a28f400015a5b6f	1	1	main_slash	24	advance_on_keypress_SLASH	104	stimuli_target_diamondsquares.svg	stimuli_distractor_diamondtriangles.svg	24	yes	57	0	348	6	3	antiphase_hc_soi.wav	1	6	5	noise_calib_stim_RIGHT.wav	2	4	blb_dichoticlistening_ba-ka.mp3	ba	ka	1	left
6.6.1	win	2023-06-27	11:28:06	11:54:02	1552908	5d5d13312a28f400015a5b6f	1	1	main_slash	24	main_slash	105	stimuli_distractor_trianglediamonds.svg	stimuli_target_diamondrectangles.svg	27	yes	53	1	645	6	3	antiphase_hc_soi.wav	1	6	5	noise_calib_stim_RIGHT.wav	2	4	blb_dichoticlistening_ba-ka.mp3	ba	ka	1	left
6.6.1	win	2023-06-27	11:28:06	11:54:02	1552908	5d5d13312a28f400015a5b6f	1	1	main_slash	24	advance_on_keypress_SLASH	106	stimuli_distractor_trianglediamonds.svg	stimuli_target_diamondrectangles.svg	27	yes	57	0	762	6	3	antiphase_hc_soi.wav	1	6	5	noise_calib_stim_RIGHT.wav	2	4	blb_dichoticlistening_ba-ka.mp3	ba	ka	1	left
6.6.1	win	2023-06-27	11:28:06	11:54:06	1556296	5d5d13312a28f400015a5b6f	1	1	main_slash	24	main_slash	107	stimuli_distractor_diamondtriangles.svg	stimuli_distractor_diamondtriangles.svg	39	no	0	1	2000	6	3	antiphase_hc_soi.wav	1	6	5	noise_calib_stim_RIGHT.wav	2	4	blb_dichoticlistening_ba-ka.mp3	ba	ka	1	left
6.6.1	win	2023-06-27	11:28:06	11:54:06	1556296	5d5d13312a28f400015a5b6f	1	1	main_slash	24	advance_on_keypress_SLASH	108	stimuli_distractor_diamondtriangles.svg	stimuli_distractor_diamondtriangles.svg	39	no	57	0	1046	6	3	antiphase_hc_soi.wav	1	6	5	noise_calib_stim_RIGHT.wav	2	4	blb_dichoticlistening_ba-ka.mp3	ba	ka	1	left
6.6.1	win	2023-06-27	11:28:06	11:54:08	1558479	5d5d13312a28f400015a5b6f	1	1	main_slash	24	main_slash	109	stimuli_target_trianglerectangles.svg	stimuli_distractor_diamondtriangles.svg	21	yes	53	1	482	6	3	antiphase_hc_soi.wav	1	6	5	noise_calib_stim_RIGHT.wav	2	4	blb_dichoticlistening_ba-ka.mp3	ba	ka	1	left
6.6.1	win	2023-06-27	11:28:06	11:54:08	1558479	5d5d13312a28f400015a5b6f	1	1	main_slash	24	advance_on_keypress_SLASH	110	stimuli_target_trianglerectangles.svg	stimuli_distractor_diamondtriangles.svg	21	yes	57	0	351	6	3	antiphase_hc_soi.wav	1	6	5	noise_calib_stim_RIGHT.wav	2	4	blb_dichoticlistening_ba-ka.mp3	ba	ka	1	left
6.6.1	win	2023-06-27	11:28:06	11:54:09	1559903	5d5d13312a28f400015a5b6f	1	1	main_slash	24	main_slash	111	stimuli_distractor_diamondtriangles.svg	stimuli_distractor_trianglediamonds.svg	38	no	53	0	424	6	3	antiphase_hc_soi.wav	1	6	5	noise_calib_stim_RIGHT.wav	2	4	blb_dichoticlistening_ba-ka.mp3	ba	ka	1	left
6.6.1	win	2023-06-27	11:28:06	11:54:09	1559903	5d5d13312a28f400015a5b6f	1	1	main_slash	24	advance_on_keypress_SLASH	112	stimuli_distractor_diamondtriangles.svg	stimuli_distractor_trianglediamonds.svg	38	no	57	0	418	6	3	antiphase_hc_soi.wav	1	6	5	noise_calib_stim_RIGHT.wav	2	4	blb_dichoticlistening_ba-ka.mp3	ba	ka	1	left
6.6.1	win	2023-06-27	11:28:06	11:54:12	1562963	5d5d13312a28f400015a5b6f	1	1	main_slash	24	main_slash	113	stimuli_distractor_diamondtriangles.svg	stimuli_target_rectangletriangles.svg	13	yes	0	0	2000	6	3	antiphase_hc_soi.wav	1	6	5	noise_calib_stim_RIGHT.wav	2	4	blb_dichoticlistening_ba-ka.mp3	ba	ka	1	left
6.6.1	win	2023-06-27	11:28:06	11:54:12	1562963	5d5d13312a28f400015a5b6f	1	1	main_slash	24	advance_on_keypress_SLASH	114	stimuli_distractor_diamondtriangles.svg	stimuli_target_rectangletriangles.svg	13	yes	57	0	448	6	3	antiphase_hc_soi.wav	1	6	5	noise_calib_stim_RIGHT.wav	2	4	blb_dichoticlistening_ba-ka.mp3	ba	ka	1	left
6.6.1	win	2023-06-27	11:28:06	11:54:14	1564459	5d5d13312a28f400015a5b6f	1	1	main_slash	24	main_slash	115	stimuli_distractor_trianglediamonds.svg	stimuli_target_squarediamonds.svg	12	yes	53	1	396	6	3	antiphase_hc_soi.wav	1	6	5	noise_calib_stim_RIGHT.wav	2	4	blb_dichoticlistening_ba-ka.mp3	ba	ka	1	left
6.6.1	win	2023-06-27	11:28:06	11:54:14	1564459	5d5d13312a28f400015a5b6f	1	1	main_slash	24	advance_on_keypress_SLASH	116	stimuli_distractor_trianglediamonds.svg	stimuli_target_squarediamonds.svg	12	yes	57	0	291	6	3	antiphase_hc_soi.wav	1	6	5	noise_calib_stim_RIGHT.wav	2	4	blb_dichoticlistening_ba-ka.mp3	ba	ka	1	left
6.6.1	win	2023-06-27	11:28:06	11:54:15	1565888	5d5d13312a28f400015a5b6f	1	1	main_slash	24	main_slash	117	stimuli_target_squarediamonds.svg	stimuli_distractor_trianglediamonds.svg	4	yes	53	1	508	6	3	antiphase_hc_soi.wav	1	6	5	noise_calib_stim_RIGHT.wav	2	4	blb_dichoticlistening_ba-ka.mp3	ba	ka	1	left
6.6.1	win	2023-06-27	11:28:06	11:54:15	1565888	5d5d13312a28f400015a5b6f	1	1	main_slash	24	advance_on_keypress_SLASH	118	stimuli_target_squarediamonds.svg	stimuli_distractor_trianglediamonds.svg	4	yes	57	0	270	6	3	antiphase_hc_soi.wav	1	6	5	noise_calib_stim_RIGHT.wav	2	4	blb_dichoticlistening_ba-ka.mp3	ba	ka	1	left
6.6.1	win	2023-06-27	11:28:06	11:54:17	1567386	5d5d13312a28f400015a5b6f	1	1	main_slash	24	main_slash	119	stimuli_target_rectangletriangles.svg	stimuli_distractor_diamondtriangles.svg	5	yes	53	1	589	6	3	antiphase_hc_soi.wav	1	6	5	noise_calib_stim_RIGHT.wav	2	4	blb_dichoticlistening_ba-ka.mp3	ba	ka	1	left
6.6.1	win	2023-06-27	11:28:06	11:54:17	1567386	5d5d13312a28f400015a5b6f	1	1	main_slash	24	advance_on_keypress_SLASH	120	stimuli_target_rectangletriangles.svg	stimuli_distractor_diamondtriangles.svg	5	yes	57	0	313	6	3	antiphase_hc_soi.wav	1	6	5	noise_calib_stim_RIGHT.wav	2	4	blb_dichoticlistening_ba-ka.mp3	ba	ka	1	left
6.6.1	win	2023-06-27	11:28:06	11:54:19	1569645	5d5d13312a28f400015a5b6f	1	1	main_slash	24	main_slash	121	stimuli_distractor_diamondtriangles.svg	stimuli_target_diamondsquares.svg	32	yes	53	1	1299	6	3	antiphase_hc_soi.wav	1	6	5	noise_calib_stim_RIGHT.wav	2	4	blb_dichoticlistening_ba-ka.mp3	ba	ka	1	left
6.6.1	win	2023-06-27	11:28:06	11:54:19	1569645	5d5d13312a28f400015a5b6f	1	1	main_slash	24	advance_on_keypress_SLASH	122	stimuli_distractor_diamondtriangles.svg	stimuli_target_diamondsquares.svg	32	yes	57	0	323	6	3	antiphase_hc_soi.wav	1	6	5	noise_calib_stim_RIGHT.wav	2	4	blb_dichoticlistening_ba-ka.mp3	ba	ka	1	left
6.6.1	win	2023-06-27	11:28:06	11:54:21	1571335	5d5d13312a28f400015a5b6f	1	1	main_slash	24	main_slash	123	stimuli_distractor_trianglediamonds.svg	stimuli_target_squaretriangles.svg	11	yes	53	1	722	6	3	antiphase_hc_soi.wav	1	6	5	noise_calib_stim_RIGHT.wav	2	4	blb_dichoticlistening_ba-ka.mp3	ba	ka	1	left
6.6.1	win	2023-06-27	11:28:06	11:54:21	1571335	5d5d13312a28f400015a5b6f	1	1	main_slash	24	advance_on_keypress_SLASH	124	stimuli_distractor_trianglediamonds.svg	stimuli_target_squaretriangles.svg	11	yes	57	0	360	6	3	antiphase_hc_soi.wav	1	6	5	noise_calib_stim_RIGHT.wav	2	4	blb_dichoticlistening_ba-ka.mp3	ba	ka	1	left
6.6.1	win	2023-06-27	11:28:06	11:54:22	1572690	5d5d13312a28f400015a5b6f	1	1	main_slash	24	main_slash	125	stimuli_target_squarediamonds.svg	stimuli_distractor_diamondtriangles.svg	8	yes	53	1	360	6	3	antiphase_hc_soi.wav	1	6	5	noise_calib_stim_RIGHT.wav	2	4	blb_dichoticlistening_ba-ka.mp3	ba	ka	1	left
6.6.1	win	2023-06-27	11:28:06	11:54:22	1572690	5d5d13312a28f400015a5b6f	1	1	main_slash	24	advance_on_keypress_SLASH	126	stimuli_target_squarediamonds.svg	stimuli_distractor_diamondtriangles.svg	8	yes	57	0	524	6	3	antiphase_hc_soi.wav	1	6	5	noise_calib_stim_RIGHT.wav	2	4	blb_dichoticlistening_ba-ka.mp3	ba	ka	1	left
6.6.1	win	2023-06-27	11:28:06	11:54:24	1574307	5d5d13312a28f400015a5b6f	1	1	main_slash	24	main_slash	127	stimuli_target_squaretriangles.svg	stimuli_distractor_trianglediamonds.svg	3	yes	53	1	461	6	3	antiphase_hc_soi.wav	1	6	5	noise_calib_stim_RIGHT.wav	2	4	blb_dichoticlistening_ba-ka.mp3	ba	ka	1	left
6.6.1	win	2023-06-27	11:28:06	11:54:24	1574307	5d5d13312a28f400015a5b6f	1	1	main_slash	24	advance_on_keypress_SLASH	128	stimuli_target_squaretriangles.svg	stimuli_distractor_trianglediamonds.svg	3	yes	57	0	429	6	3	antiphase_hc_soi.wav	1	6	5	noise_calib_stim_RIGHT.wav	2	4	blb_dichoticlistening_ba-ka.mp3	ba	ka	1	left
6.6.1	win	2023-06-27	11:28:06	11:54:25	1575826	5d5d13312a28f400015a5b6f	1	1	main_slash	24	main_slash	129	stimuli_target_rectanglediamonds.svg	stimuli_distractor_trianglediamonds.svg	2	yes	53	1	462	6	3	antiphase_hc_soi.wav	1	6	5	noise_calib_stim_RIGHT.wav	2	4	blb_dichoticlistening_ba-ka.mp3	ba	ka	1	left
6.6.1	win	2023-06-27	11:28:06	11:54:25	1575826	5d5d13312a28f400015a5b6f	1	1	main_slash	24	advance_on_keypress_SLASH	130	stimuli_target_rectanglediamonds.svg	stimuli_distractor_trianglediamonds.svg	2	yes	57	0	514	6	3	antiphase_hc_soi.wav	1	6	5	noise_calib_stim_RIGHT.wav	2	4	blb_dichoticlistening_ba-ka.mp3	ba	ka	1	left
6.6.1	win	2023-06-27	11:28:06	11:54:28	1578065	5d5d13312a28f400015a5b6f	1	1	main_slash	24	main_slash	131	stimuli_distractor_trianglediamonds.svg	stimuli_target_diamondsquares.svg	28	yes	53	1	1085	6	3	antiphase_hc_soi.wav	1	6	5	noise_calib_stim_RIGHT.wav	2	4	blb_dichoticlistening_ba-ka.mp3	ba	ka	1	left
6.6.1	win	2023-06-27	11:28:06	11:54:28	1578065	5d5d13312a28f400015a5b6f	1	1	main_slash	24	advance_on_keypress_SLASH	132	stimuli_distractor_trianglediamonds.svg	stimuli_target_diamondsquares.svg	28	yes	57	0	393	6	3	antiphase_hc_soi.wav	1	6	5	noise_calib_stim_RIGHT.wav	2	4	blb_dichoticlistening_ba-ka.mp3	ba	ka	1	left
6.6.1	win	2023-06-27	11:28:06	11:54:29	1579623	5d5d13312a28f400015a5b6f	1	1	main_slash	24	main_slash	133	stimuli_target_squaretriangles.svg	stimuli_distractor_diamondtriangles.svg	7	yes	53	1	526	6	3	antiphase_hc_soi.wav	1	6	5	noise_calib_stim_RIGHT.wav	2	4	blb_dichoticlistening_ba-ka.mp3	ba	ka	1	left
6.6.1	win	2023-06-27	11:28:06	11:54:29	1579623	5d5d13312a28f400015a5b6f	1	1	main_slash	24	advance_on_keypress_SLASH	134	stimuli_target_squaretriangles.svg	stimuli_distractor_diamondtriangles.svg	7	yes	57	0	627	6	3	antiphase_hc_soi.wav	1	6	5	noise_calib_stim_RIGHT.wav	2	4	blb_dichoticlistening_ba-ka.mp3	ba	ka	1	left
6.6.1	win	2023-06-27	11:28:06	11:54:31	1581326	5d5d13312a28f400015a5b6f	1	1	main_slash	24	main_slash	135	stimuli_distractor_diamondtriangles.svg	stimuli_target_squarediamonds.svg	16	yes	53	1	447	6	3	antiphase_hc_soi.wav	1	6	5	noise_calib_stim_RIGHT.wav	2	4	blb_dichoticlistening_ba-ka.mp3	ba	ka	1	left
6.6.1	win	2023-06-27	11:28:06	11:54:31	1581326	5d5d13312a28f400015a5b6f	1	1	main_slash	24	advance_on_keypress_SLASH	136	stimuli_distractor_diamondtriangles.svg	stimuli_target_squarediamonds.svg	16	yes	57	0	538	6	3	antiphase_hc_soi.wav	1	6	5	noise_calib_stim_RIGHT.wav	2	4	blb_dichoticlistening_ba-ka.mp3	ba	ka	1	left
6.6.1	win	2023-06-27	11:28:06	11:54:32	1582852	5d5d13312a28f400015a5b6f	1	1	main_slash	24	main_slash	137	stimuli_distractor_diamondtriangles.svg	stimuli_target_rectanglediamonds.svg	14	yes	53	1	356	6	3	antiphase_hc_soi.wav	1	6	5	noise_calib_stim_RIGHT.wav	2	4	blb_dichoticlistening_ba-ka.mp3	ba	ka	1	left
6.6.1	win	2023-06-27	11:28:06	11:54:32	1582852	5d5d13312a28f400015a5b6f	1	1	main_slash	24	advance_on_keypress_SLASH	138	stimuli_distractor_diamondtriangles.svg	stimuli_target_rectanglediamonds.svg	14	yes	57	0	455	6	3	antiphase_hc_soi.wav	1	6	5	noise_calib_stim_RIGHT.wav	2	4	blb_dichoticlistening_ba-ka.mp3	ba	ka	1	left
6.6.1	win	2023-06-27	11:28:06	11:54:35	1585077	5d5d13312a28f400015a5b6f	1	1	main_slash	24	main_slash	139	stimuli_target_diamondrectangles.svg	stimuli_distractor_trianglediamonds.svg	19	yes	53	1	1130	6	3	antiphase_hc_soi.wav	1	6	5	noise_calib_stim_RIGHT.wav	2	4	blb_dichoticlistening_ba-ka.mp3	ba	ka	1	left
6.6.1	win	2023-06-27	11:28:06	11:54:35	1585077	5d5d13312a28f400015a5b6f	1	1	main_slash	24	advance_on_keypress_SLASH	140	stimuli_target_diamondrectangles.svg	stimuli_distractor_trianglediamonds.svg	19	yes	57	0	287	6	3	antiphase_hc_soi.wav	1	6	5	noise_calib_stim_RIGHT.wav	2	4	blb_dichoticlistening_ba-ka.mp3	ba	ka	1	left
6.6.1	win	2023-06-27	11:28:06	11:54:36	1586496	5d5d13312a28f400015a5b6f	1	1	main_slash	24	main_slash	141	stimuli_distractor_diamondtriangles.svg	stimuli_target_trianglesquares.svg	30	yes	53	1	484	6	3	antiphase_hc_soi.wav	1	6	5	noise_calib_stim_RIGHT.wav	2	4	blb_dichoticlistening_ba-ka.mp3	ba	ka	1	left
6.6.1	win	2023-06-27	11:28:06	11:54:36	1586496	5d5d13312a28f400015a5b6f	1	1	main_slash	24	advance_on_keypress_SLASH	142	stimuli_distractor_diamondtriangles.svg	stimuli_target_trianglesquares.svg	30	yes	57	0	388	6	3	antiphase_hc_soi.wav	1	6	5	noise_calib_stim_RIGHT.wav	2	4	blb_dichoticlistening_ba-ka.mp3	ba	ka	1	left
6.6.1	win	2023-06-27	11:28:06	11:54:38	1588103	5d5d13312a28f400015a5b6f	1	1	main_slash	24	main_slash	143	stimuli_distractor_trianglediamonds.svg	stimuli_target_trianglerectangles.svg	25	yes	53	1	573	6	3	antiphase_hc_soi.wav	1	6	5	noise_calib_stim_RIGHT.wav	2	4	blb_dichoticlistening_ba-ka.mp3	ba	ka	1	left
6.6.1	win	2023-06-27	11:28:06	11:54:38	1588103	5d5d13312a28f400015a5b6f	1	1	main_slash	24	advance_on_keypress_SLASH	144	stimuli_distractor_trianglediamonds.svg	stimuli_target_trianglerectangles.svg	25	yes	57	0	268	6	3	antiphase_hc_soi.wav	1	6	5	noise_calib_stim_RIGHT.wav	2	4	blb_dichoticlistening_ba-ka.mp3	ba	ka	1	left
6.6.1	win	2023-06-27	11:28:06	11:54:39	1589389	5d5d13312a28f400015a5b6f	1	1	main_slash	24	main_slash	145	stimuli_target_trianglerectangles.svg	stimuli_distractor_trianglediamonds.svg	17	yes	53	1	376	6	3	antiphase_hc_soi.wav	1	6	5	noise_calib_stim_RIGHT.wav	2	4	blb_dichoticlistening_ba-ka.mp3	ba	ka	1	left
6.6.1	win	2023-06-27	11:28:06	11:54:39	1589389	5d5d13312a28f400015a5b6f	1	1	main_slash	24	advance_on_keypress_SLASH	146	stimuli_target_trianglerectangles.svg	stimuli_distractor_trianglediamonds.svg	17	yes	57	0	420	6	3	antiphase_hc_soi.wav	1	6	5	noise_calib_stim_RIGHT.wav	2	4	blb_dichoticlistening_ba-ka.mp3	ba	ka	1	left
6.6.1	win	2023-06-27	11:28:06	11:54:41	1591063	5d5d13312a28f400015a5b6f	1	1	main_slash	24	main_slash	147	stimuli_distractor_trianglediamonds.svg	stimuli_target_rectangletriangles.svg	9	yes	53	1	617	6	3	antiphase_hc_soi.wav	1	6	5	noise_calib_stim_RIGHT.wav	2	4	blb_dichoticlistening_ba-ka.mp3	ba	ka	1	left
6.6.1	win	2023-06-27	11:28:06	11:54:41	1591063	5d5d13312a28f400015a5b6f	1	1	main_slash	24	advance_on_keypress_SLASH	148	stimuli_distractor_trianglediamonds.svg	stimuli_target_rectangletriangles.svg	9	yes	57	0	329	6	3	antiphase_hc_soi.wav	1	6	5	noise_calib_stim_RIGHT.wav	2	4	blb_dichoticlistening_ba-ka.mp3	ba	ka	1	left
6.6.1	win	2023-06-27	11:28:06	11:54:43	1593597	5d5d13312a28f400015a5b6f	1	1	main_slash	24	main_slash	149	stimuli_target_diamondrectangles.svg	stimuli_distractor_diamondtriangles.svg	23	yes	53	1	1568	6	3	antiphase_hc_soi.wav	1	6	5	noise_calib_stim_RIGHT.wav	2	4	blb_dichoticlistening_ba-ka.mp3	ba	ka	1	left
6.6.1	win	2023-06-27	11:28:06	11:54:43	1593597	5d5d13312a28f400015a5b6f	1	1	main_slash	24	advance_on_keypress_SLASH	150	stimuli_target_diamondrectangles.svg	stimuli_distractor_diamondtriangles.svg	23	yes	57	0	445	6	3	antiphase_hc_soi.wav	1	6	5	noise_calib_stim_RIGHT.wav	2	4	blb_dichoticlistening_ba-ka.mp3	ba	ka	1	left
6.6.1	win	2023-06-27	11:28:06	11:54:46	1596225	5d5d13312a28f400015a5b6f	1	1	main_slash	24	main_slash	151	stimuli_distractor_trianglediamonds.svg	stimuli_distractor_diamondtriangles.svg	35	no	53	0	1545	6	3	antiphase_hc_soi.wav	1	6	5	noise_calib_stim_RIGHT.wav	2	4	blb_dichoticlistening_ba-ka.mp3	ba	ka	1	left
6.6.1	win	2023-06-27	11:28:06	11:54:46	1596225	5d5d13312a28f400015a5b6f	1	1	main_slash	24	advance_on_keypress_SLASH	152	stimuli_distractor_trianglediamonds.svg	stimuli_distractor_diamondtriangles.svg	35	no	57	0	237	6	3	antiphase_hc_soi.wav	1	6	5	noise_calib_stim_RIGHT.wav	2	4	blb_dichoticlistening_ba-ka.mp3	ba	ka	1	left
6.6.1	win	2023-06-27	11:28:06	11:54:47	1597827	5d5d13312a28f400015a5b6f	1	1	main_slash	24	main_slash	153	stimuli_distractor_diamondtriangles.svg	stimuli_distractor_trianglediamonds.svg	37	no	53	0	731	6	3	antiphase_hc_soi.wav	1	6	5	noise_calib_stim_RIGHT.wav	2	4	blb_dichoticlistening_ba-ka.mp3	ba	ka	1	left
6.6.1	win	2023-06-27	11:28:06	11:54:47	1597827	5d5d13312a28f400015a5b6f	1	1	main_slash	24	advance_on_keypress_SLASH	154	stimuli_distractor_diamondtriangles.svg	stimuli_distractor_trianglediamonds.svg	37	no	57	0	231	6	3	antiphase_hc_soi.wav	1	6	5	noise_calib_stim_RIGHT.wav	2	4	blb_dichoticlistening_ba-ka.mp3	ba	ka	1	left
6.6.1	win	2023-06-27	11:28:06	11:54:49	1599272	5d5d13312a28f400015a5b6f	1	1	main_slash	24	main_slash	155	stimuli_target_rectangletriangles.svg	stimuli_distractor_trianglediamonds.svg	1	yes	53	1	558	6	3	antiphase_hc_soi.wav	1	6	5	noise_calib_stim_RIGHT.wav	2	4	blb_dichoticlistening_ba-ka.mp3	ba	ka	1	left
6.6.1	win	2023-06-27	11:28:06	11:54:49	1599272	5d5d13312a28f400015a5b6f	1	1	main_slash	24	advance_on_keypress_SLASH	156	stimuli_target_rectangletriangles.svg	stimuli_distractor_trianglediamonds.svg	1	yes	57	0	1951	6	3	antiphase_hc_soi.wav	1	6	5	noise_calib_stim_RIGHT.wav	2	4	blb_dichoticlistening_ba-ka.mp3	ba	ka	1	left
6.6.1	win	2023-06-27	11:28:06	11:54:52	1602832	5d5d13312a28f400015a5b6f	1	1	main_slash	24	main_slash	157	stimuli_distractor_trianglediamonds.svg	stimuli_distractor_trianglediamonds.svg	34	no	53	0	969	6	3	antiphase_hc_soi.wav	1	6	5	noise_calib_stim_RIGHT.wav	2	4	blb_dichoticlistening_ba-ka.mp3	ba	ka	1	left
6.6.1	win	2023-06-27	11:28:06	11:54:52	1602832	5d5d13312a28f400015a5b6f	1	1	main_slash	24	advance_on_keypress_SLASH	158	stimuli_distractor_trianglediamonds.svg	stimuli_distractor_trianglediamonds.svg	34	no	57	0	453	6	3	antiphase_hc_soi.wav	1	6	5	noise_calib_stim_RIGHT.wav	2	4	blb_dichoticlistening_ba-ka.mp3	ba	ka	1	left
6.6.1	win	2023-06-27	11:28:06	11:54:54	1604465	5d5d13312a28f400015a5b6f	1	1	main_slash	24	main_slash	159	stimuli_target_trianglesquares.svg	stimuli_distractor_trianglediamonds.svg	18	yes	53	1	535	6	3	antiphase_hc_soi.wav	1	6	5	noise_calib_stim_RIGHT.wav	2	4	blb_dichoticlistening_ba-ka.mp3	ba	ka	1	left
6.6.1	win	2023-06-27	11:28:06	11:54:54	1604465	5d5d13312a28f400015a5b6f	1	1	main_slash	24	advance_on_keypress_SLASH	160	stimuli_target_trianglesquares.svg	stimuli_distractor_trianglediamonds.svg	18	yes	57	0	356	6	3	antiphase_hc_soi.wav	1	6	5	noise_calib_stim_RIGHT.wav	2	4	blb_dichoticlistening_ba-ka.mp3	ba	ka	1	left
6.6.1	win	2023-06-27	11:28:06	11:55:39	1649882	5d5d13312a28f400015a5b6f	1	1	practice_z	26	practice_z	1	stimuli_distractor_diamondtriangles.svg	stimuli_distractor_trianglediamonds.svg	14	no	44	0	802	6	3	antiphase_hc_soi.wav	1	6	5	noise_calib_stim_RIGHT.wav	2	4	blb_dichoticlistening_ba-ka.mp3	ba	ka	1	left
6.6.1	win	2023-06-27	11:28:06	11:55:39	1649882	5d5d13312a28f400015a5b6f	1	1	practice_z	26	advance_on_keypress_ZEE	2	stimuli_distractor_diamondtriangles.svg	stimuli_distractor_trianglediamonds.svg	14	no	57	0	759	6	3	antiphase_hc_soi.wav	1	6	5	noise_calib_stim_RIGHT.wav	2	4	blb_dichoticlistening_ba-ka.mp3	ba	ka	1	left
6.6.1	win	2023-06-27	11:28:06	11:55:43	1653039	5d5d13312a28f400015a5b6f	1	1	practice_z	26	practice_z	3	stimuli_distractor_diamondtriangles.svg	stimuli_target_diamondrectangles.svg	8	yes	44	1	758	6	3	antiphase_hc_soi.wav	1	6	5	noise_calib_stim_RIGHT.wav	2	4	blb_dichoticlistening_ba-ka.mp3	ba	ka	1	left
6.6.1	win	2023-06-27	11:28:06	11:55:43	1653039	5d5d13312a28f400015a5b6f	1	1	practice_z	26	advance_on_keypress_ZEE	4	stimuli_distractor_diamondtriangles.svg	stimuli_target_diamondrectangles.svg	8	yes	57	0	521	6	3	antiphase_hc_soi.wav	1	6	5	noise_calib_stim_RIGHT.wav	2	4	blb_dichoticlistening_ba-ka.mp3	ba	ka	1	left
6.6.1	win	2023-06-27	11:28:06	11:55:46	1656599	5d5d13312a28f400015a5b6f	1	1	practice_z	26	practice_z	5	stimuli_target_diamondsquares.svg	stimuli_distractor_trianglediamonds.svg	6	yes	44	1	1401	6	3	antiphase_hc_soi.wav	1	6	5	noise_calib_stim_RIGHT.wav	2	4	blb_dichoticlistening_ba-ka.mp3	ba	ka	1	left
6.6.1	win	2023-06-27	11:28:06	11:55:46	1656599	5d5d13312a28f400015a5b6f	1	1	practice_z	26	advance_on_keypress_ZEE	6	stimuli_target_diamondsquares.svg	stimuli_distractor_trianglediamonds.svg	6	yes	57	0	402	6	3	antiphase_hc_soi.wav	1	6	5	noise_calib_stim_RIGHT.wav	2	4	blb_dichoticlistening_ba-ka.mp3	ba	ka	1	left
6.6.1	win	2023-06-27	11:28:06	11:55:49	1659115	5d5d13312a28f400015a5b6f	1	1	practice_z	26	practice_z	7	stimuli_distractor_diamondtriangles.svg	stimuli_target_trianglerectangles.svg	9	yes	44	1	467	6	3	antiphase_hc_soi.wav	1	6	5	noise_calib_stim_RIGHT.wav	2	4	blb_dichoticlistening_ba-ka.mp3	ba	ka	1	left
6.6.1	win	2023-06-27	11:28:06	11:55:49	1659115	5d5d13312a28f400015a5b6f	1	1	practice_z	26	advance_on_keypress_ZEE	8	stimuli_distractor_diamondtriangles.svg	stimuli_target_trianglerectangles.svg	9	yes	57	0	779	6	3	antiphase_hc_soi.wav	1	6	5	noise_calib_stim_RIGHT.wav	2	4	blb_dichoticlistening_ba-ka.mp3	ba	ka	1	left
6.6.1	win	2023-06-27	11:28:06	11:55:52	1662205	5d5d13312a28f400015a5b6f	1	1	practice_z	26	practice_z	9	stimuli_target_rectanglediamonds.svg	stimuli_distractor_diamondtriangles.svg	1	yes	44	1	658	6	3	antiphase_hc_soi.wav	1	6	5	noise_calib_stim_RIGHT.wav	2	4	blb_dichoticlistening_ba-ka.mp3	ba	ka	1	left
6.6.1	win	2023-06-27	11:28:06	11:55:52	1662205	5d5d13312a28f400015a5b6f	1	1	practice_z	26	advance_on_keypress_ZEE	10	stimuli_target_rectanglediamonds.svg	stimuli_distractor_diamondtriangles.svg	1	yes	57	0	1206	6	3	antiphase_hc_soi.wav	1	6	5	noise_calib_stim_RIGHT.wav	2	4	blb_dichoticlistening_ba-ka.mp3	ba	ka	1	left
6.6.1	win	2023-06-27	11:28:06	11:55:55	1665553	5d5d13312a28f400015a5b6f	1	1	practice_z	26	practice_z	11	stimuli_target_rectanglediamonds.svg	stimuli_distractor_trianglediamonds.svg	4	yes	44	1	505	6	3	antiphase_hc_soi.wav	1	6	5	noise_calib_stim_RIGHT.wav	2	4	blb_dichoticlistening_ba-ka.mp3	ba	ka	1	left
6.6.1	win	2023-06-27	11:28:06	11:55:55	1665553	5d5d13312a28f400015a5b6f	1	1	practice_z	26	advance_on_keypress_ZEE	12	stimuli_target_rectanglediamonds.svg	stimuli_distractor_trianglediamonds.svg	4	yes	57	0	649	6	3	antiphase_hc_soi.wav	1	6	5	noise_calib_stim_RIGHT.wav	2	4	blb_dichoticlistening_ba-ka.mp3	ba	ka	1	left
6.6.1	win	2023-06-27	11:28:06	11:55:58	1668484	5d5d13312a28f400015a5b6f	1	1	practice_z	26	practice_z	13	stimuli_target_squarediamonds.svg	stimuli_distractor_trianglediamonds.svg	5	yes	44	1	636	6	3	antiphase_hc_soi.wav	1	6	5	noise_calib_stim_RIGHT.wav	2	4	blb_dichoticlistening_ba-ka.mp3	ba	ka	1	left
6.6.1	win	2023-06-27	11:28:06	11:55:58	1668484	5d5d13312a28f400015a5b6f	1	1	practice_z	26	advance_on_keypress_ZEE	14	stimuli_target_squarediamonds.svg	stimuli_distractor_trianglediamonds.svg	5	yes	57	0	351	6	3	antiphase_hc_soi.wav	1	6	5	noise_calib_stim_RIGHT.wav	2	4	blb_dichoticlistening_ba-ka.mp3	ba	ka	1	left
