build	computer.platform	date	time	timestamp	time_elapsed_ms	subject	group	session	blockcode	blocknum	trialcode	trialnum	stimulus_left	stimulus_right	stim_index	target_present	response	correct	latency	headphonecheck_countTestTrials	headphonecheck_index	headphonecheck_testSound	headphonecheck_correctResponse	stereocheck_countTestTrials	stereocheck_index	stereocheck_testSound	stereocheck_correctResponse	DL_index	DL_soundfile	DL_leftSound	DL_rightSound	DL_dualSound	DL_choice
6.6.1	win	2023-06-27	06:14:55	0	0	5c190c311e18d10001eca667	1	1	headphonecheck_calibration	4	headphonecheck_calibrationIntro	1			0		calibrationButton	0	3167	0	0			0	0			1				0	
6.6.1	win	2023-06-27	06:14:55	0	0	5c190c311e18d10001eca667	1	1	headphonecheck_testphase	5	test_collectResponse	3			0		third	1	560	1	2	antiphase_hc_ios.wav	3	0	0			1				0	
6.6.1	win	2023-06-27	06:14:55	0	0	5c190c311e18d10001eca667	1	1	headphonecheck_testphase	5	test_collectResponse	6			0		third	1	308	2	6	antiphase_hc_ois.wav	3	0	0			1				0	
6.6.1	win	2023-06-27	06:14:55	0	0	5c190c311e18d10001eca667	1	1	headphonecheck_testphase	5	test_collectResponse	9			0		second	1	219	3	1	antiphase_hc_iso.wav	2	0	0			1				0	
6.6.1	win	2023-06-27	06:14:55	0	0	5c190c311e18d10001eca667	1	1	headphonecheck_testphase	5	test_collectResponse	12			0		second	1	189	4	5	antiphase_hc_osi.wav	2	0	0			1				0	
6.6.1	win	2023-06-27	06:14:55	0	0	5c190c311e18d10001eca667	1	1	headphonecheck_testphase	5	test_collectResponse	15			0		first	1	49	5	4	antiphase_hc_sio.wav	1	0	0			1				0	
6.6.1	win	2023-06-27	06:14:55	0	0	5c190c311e18d10001eca667	1	1	headphonecheck_testphase	5	test_collectResponse	18			0		first	1	173	6	3	antiphase_hc_soi.wav	1	0	0			1				0	
6.6.1	win	2023-06-27	06:14:55	0	0	5c190c311e18d10001eca667	1	1	stereocheck_calibration	7	stereocheck_calibrationIntro	1			0		stereocheck_calibrationButton	0	5738	6	3	antiphase_hc_soi.wav	1	0	0			1				0	
6.6.1	win	2023-06-27	06:14:55	0	0	5c190c311e18d10001eca667	1	1	stereocheck_testphase	8	stereocheck_test_collectResponse	3			0		stereocheck_right	1	8453	6	3	antiphase_hc_soi.wav	1	1	5	noise_calib_stim_RIGHT.wav	2	1				0	
6.6.1	win	2023-06-27	06:14:55	0	0	5c190c311e18d10001eca667	1	1	stereocheck_testphase	8	stereocheck_test_collectResponse	6			0		stereocheck_left	1	497	6	3	antiphase_hc_soi.wav	1	2	1	noise_calib_stim_LEFT.wav	1	1				0	
6.6.1	win	2023-06-27	06:14:55	0	0	5c190c311e18d10001eca667	1	1	stereocheck_testphase	8	stereocheck_test_collectResponse	9			0		stereocheck_left	1	287	6	3	antiphase_hc_soi.wav	1	3	3	noise_calib_stim_LEFT.wav	1	1				0	
6.6.1	win	2023-06-27	06:14:55	0	0	5c190c311e18d10001eca667	1	1	stereocheck_testphase	8	stereocheck_test_collectResponse	12			0		stereocheck_right	1	259	6	3	antiphase_hc_soi.wav	1	4	6	noise_calib_stim_RIGHT.wav	2	1				0	
6.6.1	win	2023-06-27	06:14:55	0	0	5c190c311e18d10001eca667	1	1	stereocheck_testphase	8	stereocheck_test_collectResponse	15			0		stereocheck_left	1	213	6	3	antiphase_hc_soi.wav	1	5	2	noise_calib_stim_LEFT.wav	1	1				0	
6.6.1	win	2023-06-27	06:14:55	0	0	5c190c311e18d10001eca667	1	1	stereocheck_testphase	8	stereocheck_test_collectResponse	18			0		stereocheck_right	1	264	6	3	antiphase_hc_soi.wav	1	6	4	noise_calib_stim_RIGHT.wav	2	1				0	
6.6.1	win	2023-06-27	06:14:55	0	0	5c190c311e18d10001eca667	1	1	DL_practice	11	DL_practice	2			0		ga	1	1223	6	3	antiphase_hc_soi.wav	1	6	4	noise_calib_stim_RIGHT.wav	2	18	blb_dichoticlistening_ga-ta.mp3	ga	ta	1	left
6.6.1	win	2023-06-27	06:14:55	0	0	5c190c311e18d10001eca667	1	1	DL_practice	11	DL_practice	3			0		pa	1	918	6	3	antiphase_hc_soi.wav	1	6	4	noise_calib_stim_RIGHT.wav	2	29	blb_dichoticlistening_pa-pa.mp3	pa	pa	0	left
6.6.1	win	2023-06-27	06:14:55	0	0	5c190c311e18d10001eca667	1	1	DL_practice	11	DL_practice	4			0		ba	1	1088	6	3	antiphase_hc_soi.wav	1	6	4	noise_calib_stim_RIGHT.wav	2	1	blb_dichoticlistening_ba-ba.mp3	ba	ba	0	left
6.6.1	win	2023-06-27	06:14:55	0	0	5c190c311e18d10001eca667	1	1	DL_practice	11	DL_practice	5			0		da	1	818	6	3	antiphase_hc_soi.wav	1	6	4	noise_calib_stim_RIGHT.wav	2	7	blb_dichoticlistening_da-ba.mp3	da	ba	1	left
6.6.1	win	2023-06-27	06:14:55	0	0	5c190c311e18d10001eca667	1	1	DL_practice	11	DL_practice	6			0		ta	1	1144	6	3	antiphase_hc_soi.wav	1	6	4	noise_calib_stim_RIGHT.wav	2	36	blb_dichoticlistening_ta-ta.mp3	ta	ta	0	left
6.6.1	win	2023-06-27	06:14:55	0	0	5c190c311e18d10001eca667	1	1	DL_practice	11	DL_practice	7			0		ga	1	873	6	3	antiphase_hc_soi.wav	1	6	4	noise_calib_stim_RIGHT.wav	2	15	blb_dichoticlistening_ga-ga.mp3	ga	ga	0	left
6.6.1	win	2023-06-27	06:14:55	0	0	5c190c311e18d10001eca667	1	1	DL_practice	11	DL_practice	8			0		da	1	1088	6	3	antiphase_hc_soi.wav	1	6	4	noise_calib_stim_RIGHT.wav	2	8	blb_dichoticlistening_da-da.mp3	da	da	0	left
6.6.1	win	2023-06-27	06:14:55	0	0	5c190c311e18d10001eca667	1	1	DL_practice	11	DL_practice	9			0		ka	1	709	6	3	antiphase_hc_soi.wav	1	6	4	noise_calib_stim_RIGHT.wav	2	22	blb_dichoticlistening_ka-ka.mp3	ka	ka	0	left
6.6.1	win	2023-06-27	06:14:55	0	0	5c190c311e18d10001eca667	1	1	DL_practice	11	DL_practice	10			0		pa	1	823	6	3	antiphase_hc_soi.wav	1	6	4	noise_calib_stim_RIGHT.wav	2	23	blb_dichoticlistening_ka-pa.mp3	ka	pa	1	right
6.6.1	win	2023-06-27	06:14:55	0	0	5c190c311e18d10001eca667	1	1	DL_test	13	DL_test	1			0		ka	1	728	6	3	antiphase_hc_soi.wav	1	6	4	noise_calib_stim_RIGHT.wav	2	22	blb_dichoticlistening_ka-ka.mp3	ka	ka	0	left
6.6.1	win	2023-06-27	06:14:55	0	0	5c190c311e18d10001eca667	1	1	DL_test	13	DL_test	2			0		pa	0	1070	6	3	antiphase_hc_soi.wav	1	6	4	noise_calib_stim_RIGHT.wav	2	4	blb_dichoticlistening_ba-ka.mp3	ba	ka	1	other
6.6.1	win	2023-06-27	06:14:55	0	0	5c190c311e18d10001eca667	1	1	DL_test	13	DL_test	3			0		ba	1	1218	6	3	antiphase_hc_soi.wav	1	6	4	noise_calib_stim_RIGHT.wav	2	1	blb_dichoticlistening_ba-ba.mp3	ba	ba	0	left
6.6.1	win	2023-06-27	06:14:55	0	0	5c190c311e18d10001eca667	1	1	DL_test	13	DL_test	4			0		da	1	745	6	3	antiphase_hc_soi.wav	1	6	4	noise_calib_stim_RIGHT.wav	2	7	blb_dichoticlistening_da-ba.mp3	da	ba	1	left
6.6.1	win	2023-06-27	06:14:55	0	0	5c190c311e18d10001eca667	1	1	DL_test	13	DL_test	5			0		da	0	918	6	3	antiphase_hc_soi.wav	1	6	4	noise_calib_stim_RIGHT.wav	2	31	blb_dichoticlistening_ta-ba.mp3	ta	ba	1	other
6.6.1	win	2023-06-27	06:14:55	0	0	5c190c311e18d10001eca667	1	1	DL_test	13	DL_test	6			0		ga	1	876	6	3	antiphase_hc_soi.wav	1	6	4	noise_calib_stim_RIGHT.wav	2	13	blb_dichoticlistening_ga-ba.mp3	ga	ba	1	left
6.6.1	win	2023-06-27	06:14:55	0	0	5c190c311e18d10001eca667	1	1	DL_test	13	DL_test	7			0		ga	1	938	6	3	antiphase_hc_soi.wav	1	6	4	noise_calib_stim_RIGHT.wav	2	9	blb_dichoticlistening_da-ga.mp3	da	ga	1	right
6.6.1	win	2023-06-27	06:14:55	0	0	5c190c311e18d10001eca667	1	1	DL_test	13	DL_test	8			0		da	1	759	6	3	antiphase_hc_soi.wav	1	6	4	noise_calib_stim_RIGHT.wav	2	8	blb_dichoticlistening_da-da.mp3	da	da	0	left
6.6.1	win	2023-06-27	06:14:55	0	0	5c190c311e18d10001eca667	1	1	DL_test	13	DL_test	9			0		ka	1	1264	6	3	antiphase_hc_soi.wav	1	6	4	noise_calib_stim_RIGHT.wav	2	23	blb_dichoticlistening_ka-pa.mp3	ka	pa	1	left
6.6.1	win	2023-06-27	06:14:55	0	0	5c190c311e18d10001eca667	1	1	DL_test	13	DL_test	10			0		ka	1	721	6	3	antiphase_hc_soi.wav	1	6	4	noise_calib_stim_RIGHT.wav	2	19	blb_dichoticlistening_ka-ba.mp3	ka	ba	1	left
6.6.1	win	2023-06-27	06:14:55	0	0	5c190c311e18d10001eca667	1	1	DL_test	13	DL_test	11			0		ta	1	1234	6	3	antiphase_hc_soi.wav	1	6	4	noise_calib_stim_RIGHT.wav	2	30	blb_dichoticlistening_pa-ta.mp3	pa	ta	1	right
6.6.1	win	2023-06-27	06:14:55	0	0	5c190c311e18d10001eca667	1	1	DL_test	13	DL_test	12			0		ta	1	1822	6	3	antiphase_hc_soi.wav	1	6	4	noise_calib_stim_RIGHT.wav	2	12	blb_dichoticlistening_da-ta.mp3	da	ta	1	right
6.6.1	win	2023-06-27	06:14:55	0	0	5c190c311e18d10001eca667	1	1	DL_test	13	DL_test	13			0		ta	1	1090	6	3	antiphase_hc_soi.wav	1	6	4	noise_calib_stim_RIGHT.wav	2	36	blb_dichoticlistening_ta-ta.mp3	ta	ta	0	left
6.6.1	win	2023-06-27	06:14:55	0	0	5c190c311e18d10001eca667	1	1	DL_test	13	DL_test	14			0		ba	1	1347	6	3	antiphase_hc_soi.wav	1	6	4	noise_calib_stim_RIGHT.wav	2	25	blb_dichoticlistening_pa-ba.mp3	pa	ba	1	right
6.6.1	win	2023-06-27	06:14:55	0	0	5c190c311e18d10001eca667	1	1	DL_test	13	DL_test	15			0		ga	1	854	6	3	antiphase_hc_soi.wav	1	6	4	noise_calib_stim_RIGHT.wav	2	15	blb_dichoticlistening_ga-ga.mp3	ga	ga	0	left
6.6.1	win	2023-06-27	06:14:55	0	0	5c190c311e18d10001eca667	1	1	DL_test	13	DL_test	16			0		ka	1	787	6	3	antiphase_hc_soi.wav	1	6	4	noise_calib_stim_RIGHT.wav	2	34	blb_dichoticlistening_ta-ka.mp3	ta	ka	1	right
6.6.1	win	2023-06-27	06:14:55	0	0	5c190c311e18d10001eca667	1	1	DL_test	13	DL_test	17			0		pa	1	875	6	3	antiphase_hc_soi.wav	1	6	4	noise_calib_stim_RIGHT.wav	2	5	blb_dichoticlistening_ba-pa.mp3	ba	pa	1	right
6.6.1	win	2023-06-27	06:14:55	0	0	5c190c311e18d10001eca667	1	1	DL_test	13	DL_test	18			0		ga	1	828	6	3	antiphase_hc_soi.wav	1	6	4	noise_calib_stim_RIGHT.wav	2	18	blb_dichoticlistening_ga-ta.mp3	ga	ta	1	left
6.6.1	win	2023-06-27	06:14:55	0	0	5c190c311e18d10001eca667	1	1	DL_test	13	DL_test	19			0		da	1	1263	6	3	antiphase_hc_soi.wav	1	6	4	noise_calib_stim_RIGHT.wav	2	26	blb_dichoticlistening_pa-da.mp3	pa	da	1	right
6.6.1	win	2023-06-27	06:14:55	0	0	5c190c311e18d10001eca667	1	1	DL_test	13	DL_test	20			0		pa	1	847	6	3	antiphase_hc_soi.wav	1	6	4	noise_calib_stim_RIGHT.wav	2	29	blb_dichoticlistening_pa-pa.mp3	pa	pa	0	left
6.6.1	win	2023-06-27	06:14:55	0	0	5c190c311e18d10001eca667	1	1	DL_test	13	DL_test	21			0		ka	1	1052	6	3	antiphase_hc_soi.wav	1	6	4	noise_calib_stim_RIGHT.wav	2	20	blb_dichoticlistening_ka-da.mp3	ka	da	1	left
6.6.1	win	2023-06-27	06:14:55	0	0	5c190c311e18d10001eca667	1	1	DL_test	13	DL_test	22			0		ka	1	1326	6	3	antiphase_hc_soi.wav	1	6	4	noise_calib_stim_RIGHT.wav	2	16	blb_dichoticlistening_ga-ka.mp3	ga	ka	1	right
6.6.1	win	2023-06-27	06:14:55	0	0	5c190c311e18d10001eca667	1	1	DL_test	13	DL_test	23			0		ta	0	1169	6	3	antiphase_hc_soi.wav	1	6	4	noise_calib_stim_RIGHT.wav	2	10	blb_dichoticlistening_da-ka.mp3	da	ka	1	other
6.6.1	win	2023-06-27	06:14:55	0	0	5c190c311e18d10001eca667	1	1	DL_test	13	DL_test	24			0		da	1	861	6	3	antiphase_hc_soi.wav	1	6	4	noise_calib_stim_RIGHT.wav	2	2	blb_dichoticlistening_ba-da.mp3	ba	da	1	right
6.6.1	win	2023-06-27	06:14:55	0	0	5c190c311e18d10001eca667	1	1	DL_test	13	DL_test	25			0		da	1	1119	6	3	antiphase_hc_soi.wav	1	6	4	noise_calib_stim_RIGHT.wav	2	14	blb_dichoticlistening_ga-da.mp3	ga	da	1	right
6.6.1	win	2023-06-27	06:14:55	0	0	5c190c311e18d10001eca667	1	1	DL_test	13	DL_test	26			0		ga	0	533	6	3	antiphase_hc_soi.wav	1	6	4	noise_calib_stim_RIGHT.wav	2	24	blb_dichoticlistening_ka-ta.mp3	ka	ta	1	other
6.6.1	win	2023-06-27	06:14:55	0	0	5c190c311e18d10001eca667	1	1	DL_test	13	DL_test	27			0		ka	0	998	6	3	antiphase_hc_soi.wav	1	6	4	noise_calib_stim_RIGHT.wav	2	6	blb_dichoticlistening_ba-ta.mp3	ba	ta	1	other
6.6.1	win	2023-06-27	06:14:55	0	0	5c190c311e18d10001eca667	1	1	DL_test	13	DL_test	28			0		ka	0	872	6	3	antiphase_hc_soi.wav	1	6	4	noise_calib_stim_RIGHT.wav	2	33	blb_dichoticlistening_ta-ga.mp3	ta	ga	1	other
6.6.1	win	2023-06-27	06:14:55	0	0	5c190c311e18d10001eca667	1	1	DL_test	13	DL_test	29			0		ta	1	1054	6	3	antiphase_hc_soi.wav	1	6	4	noise_calib_stim_RIGHT.wav	2	35	blb_dichoticlistening_ta-pa.mp3	ta	pa	1	left
6.6.1	win	2023-06-27	06:14:55	0	0	5c190c311e18d10001eca667	1	1	DL_test	13	DL_test	30			0		pa	1	1323	6	3	antiphase_hc_soi.wav	1	6	4	noise_calib_stim_RIGHT.wav	2	17	blb_dichoticlistening_ga-pa.mp3	ga	pa	1	right
6.6.1	win	2023-06-27	06:14:55	0	0	5c190c311e18d10001eca667	1	1	DL_test	13	DL_test	31			0		pa	1	1011	6	3	antiphase_hc_soi.wav	1	6	4	noise_calib_stim_RIGHT.wav	2	11	blb_dichoticlistening_da-pa.mp3	da	pa	1	right
6.6.1	win	2023-06-27	06:14:55	0	0	5c190c311e18d10001eca667	1	1	DL_test	13	DL_test	32			0		pa	1	1236	6	3	antiphase_hc_soi.wav	1	6	4	noise_calib_stim_RIGHT.wav	2	27	blb_dichoticlistening_pa-ga.mp3	pa	ga	1	left
6.6.1	win	2023-06-27	06:14:55	0	0	5c190c311e18d10001eca667	1	1	DL_test	13	DL_test	33			0		ta	1	2533	6	3	antiphase_hc_soi.wav	1	6	4	noise_calib_stim_RIGHT.wav	2	32	blb_dichoticlistening_ta-da.mp3	ta	da	1	left
6.6.1	win	2023-06-27	06:14:55	0	0	5c190c311e18d10001eca667	1	1	DL_test	13	DL_test	34			0		pa	0	1265	6	3	antiphase_hc_soi.wav	1	6	4	noise_calib_stim_RIGHT.wav	2	3	blb_dichoticlistening_ba-ga.mp3	ba	ga	1	other
6.6.1	win	2023-06-27	06:14:55	0	0	5c190c311e18d10001eca667	1	1	DL_test	13	DL_test	35			0		pa	1	1006	6	3	antiphase_hc_soi.wav	1	6	4	noise_calib_stim_RIGHT.wav	2	28	blb_dichoticlistening_pa-ka.mp3	pa	ka	1	left
6.6.1	win	2023-06-27	06:14:55	0	0	5c190c311e18d10001eca667	1	1	DL_test	13	DL_test	36			0		ka	1	786	6	3	antiphase_hc_soi.wav	1	6	4	noise_calib_stim_RIGHT.wav	2	21	blb_dichoticlistening_ka-ga.mp3	ka	ga	1	left
6.6.1	win	2023-06-27	06:14:55	0	0	5c190c311e18d10001eca667	1	1	DL_test	14	DL_test	1			0		pa	0	1031	6	3	antiphase_hc_soi.wav	1	6	4	noise_calib_stim_RIGHT.wav	2	2	blb_dichoticlistening_ba-da.mp3	ba	da	1	other
6.6.1	win	2023-06-27	06:14:55	0	0	5c190c311e18d10001eca667	1	1	DL_test	14	DL_test	2			0		ka	0	705	6	3	antiphase_hc_soi.wav	1	6	4	noise_calib_stim_RIGHT.wav	2	18	blb_dichoticlistening_ga-ta.mp3	ga	ta	1	other
6.6.1	win	2023-06-27	06:14:55	0	0	5c190c311e18d10001eca667	1	1	DL_test	14	DL_test	3			0		ta	1	909	6	3	antiphase_hc_soi.wav	1	6	4	noise_calib_stim_RIGHT.wav	2	12	blb_dichoticlistening_da-ta.mp3	da	ta	1	right
6.6.1	win	2023-06-27	06:14:55	0	0	5c190c311e18d10001eca667	1	1	DL_test	14	DL_test	4			0		da	0	1105	6	3	antiphase_hc_soi.wav	1	6	4	noise_calib_stim_RIGHT.wav	2	13	blb_dichoticlistening_ga-ba.mp3	ga	ba	1	other
6.6.1	win	2023-06-27	06:14:55	0	0	5c190c311e18d10001eca667	1	1	DL_test	14	DL_test	5			0		ka	1	714	6	3	antiphase_hc_soi.wav	1	6	4	noise_calib_stim_RIGHT.wav	2	34	blb_dichoticlistening_ta-ka.mp3	ta	ka	1	right
6.6.1	win	2023-06-27	06:14:55	0	0	5c190c311e18d10001eca667	1	1	DL_test	14	DL_test	6			0		pa	1	669	6	3	antiphase_hc_soi.wav	1	6	4	noise_calib_stim_RIGHT.wav	2	25	blb_dichoticlistening_pa-ba.mp3	pa	ba	1	left
6.6.1	win	2023-06-27	06:14:55	0	0	5c190c311e18d10001eca667	1	1	DL_test	14	DL_test	7			0		da	1	990	6	3	antiphase_hc_soi.wav	1	6	4	noise_calib_stim_RIGHT.wav	2	7	blb_dichoticlistening_da-ba.mp3	da	ba	1	left
6.6.1	win	2023-06-27	06:14:55	0	0	5c190c311e18d10001eca667	1	1	DL_test	14	DL_test	8			0		ta	1	1131	6	3	antiphase_hc_soi.wav	1	6	4	noise_calib_stim_RIGHT.wav	2	35	blb_dichoticlistening_ta-pa.mp3	ta	pa	1	left
6.6.1	win	2023-06-27	06:14:55	0	0	5c190c311e18d10001eca667	1	1	DL_test	14	DL_test	9			0		pa	1	815	6	3	antiphase_hc_soi.wav	1	6	4	noise_calib_stim_RIGHT.wav	2	5	blb_dichoticlistening_ba-pa.mp3	ba	pa	1	right
6.6.1	win	2023-06-27	06:14:55	0	0	5c190c311e18d10001eca667	1	1	DL_test	14	DL_test	10			0		da	1	932	6	3	antiphase_hc_soi.wav	1	6	4	noise_calib_stim_RIGHT.wav	2	14	blb_dichoticlistening_ga-da.mp3	ga	da	1	right
6.6.1	win	2023-06-27	06:14:55	0	0	5c190c311e18d10001eca667	1	1	DL_test	14	DL_test	11			0		ka	0	798	6	3	antiphase_hc_soi.wav	1	6	4	noise_calib_stim_RIGHT.wav	2	33	blb_dichoticlistening_ta-ga.mp3	ta	ga	1	other
6.6.1	win	2023-06-27	06:14:55	0	0	5c190c311e18d10001eca667	1	1	DL_test	14	DL_test	12			0		da	1	553	6	3	antiphase_hc_soi.wav	1	6	4	noise_calib_stim_RIGHT.wav	2	8	blb_dichoticlistening_da-da.mp3	da	da	0	left
6.6.1	win	2023-06-27	06:14:55	0	0	5c190c311e18d10001eca667	1	1	DL_test	14	DL_test	13			0		ta	0	1047	6	3	antiphase_hc_soi.wav	1	6	4	noise_calib_stim_RIGHT.wav	2	10	blb_dichoticlistening_da-ka.mp3	da	ka	1	other
6.6.1	win	2023-06-27	06:14:55	0	0	5c190c311e18d10001eca667	1	1	DL_test	14	DL_test	14			0		ta	1	752	6	3	antiphase_hc_soi.wav	1	6	4	noise_calib_stim_RIGHT.wav	2	36	blb_dichoticlistening_ta-ta.mp3	ta	ta	0	left
6.6.1	win	2023-06-27	06:14:55	0	0	5c190c311e18d10001eca667	1	1	DL_test	14	DL_test	15			0		pa	0	1177	6	3	antiphase_hc_soi.wav	1	6	4	noise_calib_stim_RIGHT.wav	2	31	blb_dichoticlistening_ta-ba.mp3	ta	ba	1	other
6.6.1	win	2023-06-27	06:14:55	0	0	5c190c311e18d10001eca667	1	1	DL_test	14	DL_test	16			0		pa	1	783	6	3	antiphase_hc_soi.wav	1	6	4	noise_calib_stim_RIGHT.wav	2	17	blb_dichoticlistening_ga-pa.mp3	ga	pa	1	right
6.6.1	win	2023-06-27	06:14:55	0	0	5c190c311e18d10001eca667	1	1	DL_test	14	DL_test	17			0		ka	1	870	6	3	antiphase_hc_soi.wav	1	6	4	noise_calib_stim_RIGHT.wav	2	16	blb_dichoticlistening_ga-ka.mp3	ga	ka	1	right
6.6.1	win	2023-06-27	06:14:55	0	0	5c190c311e18d10001eca667	1	1	DL_test	14	DL_test	18			0		ta	0	743	6	3	antiphase_hc_soi.wav	1	6	4	noise_calib_stim_RIGHT.wav	2	26	blb_dichoticlistening_pa-da.mp3	pa	da	1	other
6.6.1	win	2023-06-27	06:14:55	0	0	5c190c311e18d10001eca667	1	1	DL_test	14	DL_test	19			0		ba	1	1844	6	3	antiphase_hc_soi.wav	1	6	4	noise_calib_stim_RIGHT.wav	2	3	blb_dichoticlistening_ba-ga.mp3	ba	ga	1	left
6.6.1	win	2023-06-27	06:14:55	0	0	5c190c311e18d10001eca667	1	1	DL_test	14	DL_test	20			0		ka	1	819	6	3	antiphase_hc_soi.wav	1	6	4	noise_calib_stim_RIGHT.wav	2	21	blb_dichoticlistening_ka-ga.mp3	ka	ga	1	left
6.6.1	win	2023-06-27	06:14:55	0	0	5c190c311e18d10001eca667	1	1	DL_test	14	DL_test	21			0		ka	1	699	6	3	antiphase_hc_soi.wav	1	6	4	noise_calib_stim_RIGHT.wav	2	19	blb_dichoticlistening_ka-ba.mp3	ka	ba	1	left
6.6.1	win	2023-06-27	06:14:55	0	0	5c190c311e18d10001eca667	1	1	DL_test	14	DL_test	22			0		pa	1	1239	6	3	antiphase_hc_soi.wav	1	6	4	noise_calib_stim_RIGHT.wav	2	27	blb_dichoticlistening_pa-ga.mp3	pa	ga	1	left
6.6.1	win	2023-06-27	06:14:55	0	0	5c190c311e18d10001eca667	1	1	DL_test	14	DL_test	23			0		ga	1	895	6	3	antiphase_hc_soi.wav	1	6	4	noise_calib_stim_RIGHT.wav	2	15	blb_dichoticlistening_ga-ga.mp3	ga	ga	0	left
6.6.1	win	2023-06-27	06:14:55	0	0	5c190c311e18d10001eca667	1	1	DL_test	14	DL_test	24			0		ta	1	1144	6	3	antiphase_hc_soi.wav	1	6	4	noise_calib_stim_RIGHT.wav	2	30	blb_dichoticlistening_pa-ta.mp3	pa	ta	1	right
6.6.1	win	2023-06-27	06:14:55	0	0	5c190c311e18d10001eca667	1	1	DL_test	14	DL_test	25			0		da	1	1449	6	3	antiphase_hc_soi.wav	1	6	4	noise_calib_stim_RIGHT.wav	2	11	blb_dichoticlistening_da-pa.mp3	da	pa	1	left
6.6.1	win	2023-06-27	06:14:55	0	0	5c190c311e18d10001eca667	1	1	DL_test	14	DL_test	26			0		pa	1	1241	6	3	antiphase_hc_soi.wav	1	6	4	noise_calib_stim_RIGHT.wav	2	23	blb_dichoticlistening_ka-pa.mp3	ka	pa	1	right
6.6.1	win	2023-06-27	06:14:55	0	0	5c190c311e18d10001eca667	1	1	DL_test	14	DL_test	27			0		da	1	743	6	3	antiphase_hc_soi.wav	1	6	4	noise_calib_stim_RIGHT.wav	2	9	blb_dichoticlistening_da-ga.mp3	da	ga	1	left
6.6.1	win	2023-06-27	06:14:55	0	0	5c190c311e18d10001eca667	1	1	DL_test	14	DL_test	28			0		pa	0	1637	6	3	antiphase_hc_soi.wav	1	6	4	noise_calib_stim_RIGHT.wav	2	4	blb_dichoticlistening_ba-ka.mp3	ba	ka	1	other
6.6.1	win	2023-06-27	06:14:55	0	0	5c190c311e18d10001eca667	1	1	DL_test	14	DL_test	29			0		pa	1	1002	6	3	antiphase_hc_soi.wav	1	6	4	noise_calib_stim_RIGHT.wav	2	29	blb_dichoticlistening_pa-pa.mp3	pa	pa	0	left
6.6.1	win	2023-06-27	06:14:55	0	0	5c190c311e18d10001eca667	1	1	DL_test	14	DL_test	30			0		ka	1	723	6	3	antiphase_hc_soi.wav	1	6	4	noise_calib_stim_RIGHT.wav	2	20	blb_dichoticlistening_ka-da.mp3	ka	da	1	left
6.6.1	win	2023-06-27	06:14:55	0	0	5c190c311e18d10001eca667	1	1	DL_test	14	DL_test	31			0		da	1	1322	6	3	antiphase_hc_soi.wav	1	6	4	noise_calib_stim_RIGHT.wav	2	32	blb_dichoticlistening_ta-da.mp3	ta	da	1	right
6.6.1	win	2023-06-27	06:14:55	0	0	5c190c311e18d10001eca667	1	1	DL_test	14	DL_test	32			0		ka	1	1036	6	3	antiphase_hc_soi.wav	1	6	4	noise_calib_stim_RIGHT.wav	2	24	blb_dichoticlistening_ka-ta.mp3	ka	ta	1	left
6.6.1	win	2023-06-27	06:14:55	0	0	5c190c311e18d10001eca667	1	1	DL_test	14	DL_test	33			0		ka	1	958	6	3	antiphase_hc_soi.wav	1	6	4	noise_calib_stim_RIGHT.wav	2	22	blb_dichoticlistening_ka-ka.mp3	ka	ka	0	left
6.6.1	win	2023-06-27	06:14:55	0	0	5c190c311e18d10001eca667	1	1	DL_test	14	DL_test	34			0		da	0	1254	6	3	antiphase_hc_soi.wav	1	6	4	noise_calib_stim_RIGHT.wav	2	28	blb_dichoticlistening_pa-ka.mp3	pa	ka	1	other
6.6.1	win	2023-06-27	06:14:55	0	0	5c190c311e18d10001eca667	1	1	DL_test	14	DL_test	35			0		ba	1	1280	6	3	antiphase_hc_soi.wav	1	6	4	noise_calib_stim_RIGHT.wav	2	1	blb_dichoticlistening_ba-ba.mp3	ba	ba	0	left
6.6.1	win	2023-06-27	06:14:55	0	0	5c190c311e18d10001eca667	1	1	DL_test	14	DL_test	36			0		ba	1	2674	6	3	antiphase_hc_soi.wav	1	6	4	noise_calib_stim_RIGHT.wav	2	6	blb_dichoticlistening_ba-ta.mp3	ba	ta	1	left
6.6.1	win	2023-06-27	06:14:55	0	0	5c190c311e18d10001eca667	1	1	DL_test	15	DL_test	1			0		ka	1	969	6	3	antiphase_hc_soi.wav	1	6	4	noise_calib_stim_RIGHT.wav	2	28	blb_dichoticlistening_pa-ka.mp3	pa	ka	1	right
6.6.1	win	2023-06-27	06:14:55	0	0	5c190c311e18d10001eca667	1	1	DL_test	15	DL_test	2			0		ba	1	1204	6	3	antiphase_hc_soi.wav	1	6	4	noise_calib_stim_RIGHT.wav	2	1	blb_dichoticlistening_ba-ba.mp3	ba	ba	0	left
6.6.1	win	2023-06-27	06:14:55	0	0	5c190c311e18d10001eca667	1	1	DL_test	15	DL_test	3			0		da	1	1061	6	3	antiphase_hc_soi.wav	1	6	4	noise_calib_stim_RIGHT.wav	2	7	blb_dichoticlistening_da-ba.mp3	da	ba	1	left
6.6.1	win	2023-06-27	06:14:55	0	0	5c190c311e18d10001eca667	1	1	DL_test	15	DL_test	4			0		ka	1	1556	6	3	antiphase_hc_soi.wav	1	6	4	noise_calib_stim_RIGHT.wav	2	21	blb_dichoticlistening_ka-ga.mp3	ka	ga	1	left
6.6.1	win	2023-06-27	06:14:55	0	0	5c190c311e18d10001eca667	1	1	DL_test	15	DL_test	5			0		ka	0	824	6	3	antiphase_hc_soi.wav	1	6	4	noise_calib_stim_RIGHT.wav	2	33	blb_dichoticlistening_ta-ga.mp3	ta	ga	1	other
6.6.1	win	2023-06-27	06:14:55	0	0	5c190c311e18d10001eca667	1	1	DL_test	15	DL_test	6			0		ka	0	695	6	3	antiphase_hc_soi.wav	1	6	4	noise_calib_stim_RIGHT.wav	2	18	blb_dichoticlistening_ga-ta.mp3	ga	ta	1	other
6.6.1	win	2023-06-27	06:14:55	0	0	5c190c311e18d10001eca667	1	1	DL_test	15	DL_test	7			0		ta	0	1107	6	3	antiphase_hc_soi.wav	1	6	4	noise_calib_stim_RIGHT.wav	2	10	blb_dichoticlistening_da-ka.mp3	da	ka	1	other
6.6.1	win	2023-06-27	06:14:55	0	0	5c190c311e18d10001eca667	1	1	DL_test	15	DL_test	8			0		ta	1	1100	6	3	antiphase_hc_soi.wav	1	6	4	noise_calib_stim_RIGHT.wav	2	12	blb_dichoticlistening_da-ta.mp3	da	ta	1	right
6.6.1	win	2023-06-27	06:14:55	0	0	5c190c311e18d10001eca667	1	1	DL_test	15	DL_test	9			0		pa	1	748	6	3	antiphase_hc_soi.wav	1	6	4	noise_calib_stim_RIGHT.wav	2	5	blb_dichoticlistening_ba-pa.mp3	ba	pa	1	right
6.6.1	win	2023-06-27	06:14:55	0	0	5c190c311e18d10001eca667	1	1	DL_test	15	DL_test	10			0		ga	1	1054	6	3	antiphase_hc_soi.wav	1	6	4	noise_calib_stim_RIGHT.wav	2	9	blb_dichoticlistening_da-ga.mp3	da	ga	1	right
6.6.1	win	2023-06-27	06:14:55	0	0	5c190c311e18d10001eca667	1	1	DL_test	15	DL_test	11			0		ta	1	841	6	3	antiphase_hc_soi.wav	1	6	4	noise_calib_stim_RIGHT.wav	2	35	blb_dichoticlistening_ta-pa.mp3	ta	pa	1	left
6.6.1	win	2023-06-27	06:14:55	0	0	5c190c311e18d10001eca667	1	1	DL_test	15	DL_test	12			0		ka	0	939	6	3	antiphase_hc_soi.wav	1	6	4	noise_calib_stim_RIGHT.wav	2	17	blb_dichoticlistening_ga-pa.mp3	ga	pa	1	other
6.6.1	win	2023-06-27	06:14:55	0	0	5c190c311e18d10001eca667	1	1	DL_test	15	DL_test	13			0		da	0	1033	6	3	antiphase_hc_soi.wav	1	6	4	noise_calib_stim_RIGHT.wav	2	13	blb_dichoticlistening_ga-ba.mp3	ga	ba	1	other
6.6.1	win	2023-06-27	06:14:55	0	0	5c190c311e18d10001eca667	1	1	DL_test	15	DL_test	14			0		ka	1	883	6	3	antiphase_hc_soi.wav	1	6	4	noise_calib_stim_RIGHT.wav	2	22	blb_dichoticlistening_ka-ka.mp3	ka	ka	0	left
6.6.1	win	2023-06-27	06:14:55	0	0	5c190c311e18d10001eca667	1	1	DL_test	15	DL_test	15			0		da	1	1088	6	3	antiphase_hc_soi.wav	1	6	4	noise_calib_stim_RIGHT.wav	2	2	blb_dichoticlistening_ba-da.mp3	ba	da	1	right
6.6.1	win	2023-06-27	06:14:55	0	0	5c190c311e18d10001eca667	1	1	DL_test	15	DL_test	16			0		da	0	636	6	3	antiphase_hc_soi.wav	1	6	4	noise_calib_stim_RIGHT.wav	2	31	blb_dichoticlistening_ta-ba.mp3	ta	ba	1	other
6.6.1	win	2023-06-27	06:14:55	0	0	5c190c311e18d10001eca667	1	1	DL_test	15	DL_test	17			0		ka	1	599	6	3	antiphase_hc_soi.wav	1	6	4	noise_calib_stim_RIGHT.wav	2	16	blb_dichoticlistening_ga-ka.mp3	ga	ka	1	right
6.6.1	win	2023-06-27	06:14:55	0	0	5c190c311e18d10001eca667	1	1	DL_test	15	DL_test	18			0		ka	0	1049	6	3	antiphase_hc_soi.wav	1	6	4	noise_calib_stim_RIGHT.wav	2	6	blb_dichoticlistening_ba-ta.mp3	ba	ta	1	other
6.6.1	win	2023-06-27	06:14:55	0	0	5c190c311e18d10001eca667	1	1	DL_test	15	DL_test	19			0		ka	1	564	6	3	antiphase_hc_soi.wav	1	6	4	noise_calib_stim_RIGHT.wav	2	24	blb_dichoticlistening_ka-ta.mp3	ka	ta	1	left
6.6.1	win	2023-06-27	06:14:55	0	0	5c190c311e18d10001eca667	1	1	DL_test	15	DL_test	20			0		ta	1	888	6	3	antiphase_hc_soi.wav	1	6	4	noise_calib_stim_RIGHT.wav	2	30	blb_dichoticlistening_pa-ta.mp3	pa	ta	1	right
6.6.1	win	2023-06-27	06:14:55	0	0	5c190c311e18d10001eca667	1	1	DL_test	15	DL_test	21			0		ta	0	918	6	3	antiphase_hc_soi.wav	1	6	4	noise_calib_stim_RIGHT.wav	2	20	blb_dichoticlistening_ka-da.mp3	ka	da	1	other
6.6.1	win	2023-06-27	06:14:55	0	0	5c190c311e18d10001eca667	1	1	DL_test	15	DL_test	22			0		ga	1	1326	6	3	antiphase_hc_soi.wav	1	6	4	noise_calib_stim_RIGHT.wav	2	27	blb_dichoticlistening_pa-ga.mp3	pa	ga	1	right
6.6.1	win	2023-06-27	06:14:55	0	0	5c190c311e18d10001eca667	1	1	DL_test	15	DL_test	23			0		ka	1	893	6	3	antiphase_hc_soi.wav	1	6	4	noise_calib_stim_RIGHT.wav	2	34	blb_dichoticlistening_ta-ka.mp3	ta	ka	1	right
6.6.1	win	2023-06-27	06:14:55	0	0	5c190c311e18d10001eca667	1	1	DL_test	15	DL_test	24			0		ga	0	918	6	3	antiphase_hc_soi.wav	1	6	4	noise_calib_stim_RIGHT.wav	2	23	blb_dichoticlistening_ka-pa.mp3	ka	pa	1	other
6.6.1	win	2023-06-27	06:14:55	0	0	5c190c311e18d10001eca667	1	1	DL_test	15	DL_test	25			0		ka	1	625	6	3	antiphase_hc_soi.wav	1	6	4	noise_calib_stim_RIGHT.wav	2	19	blb_dichoticlistening_ka-ba.mp3	ka	ba	1	left
6.6.1	win	2023-06-27	06:14:55	0	0	5c190c311e18d10001eca667	1	1	DL_test	15	DL_test	26			0		ta	0	843	6	3	antiphase_hc_soi.wav	1	6	4	noise_calib_stim_RIGHT.wav	2	11	blb_dichoticlistening_da-pa.mp3	da	pa	1	other
6.6.1	win	2023-06-27	06:14:55	0	0	5c190c311e18d10001eca667	1	1	DL_test	15	DL_test	27			0		ta	1	994	6	3	antiphase_hc_soi.wav	1	6	4	noise_calib_stim_RIGHT.wav	2	36	blb_dichoticlistening_ta-ta.mp3	ta	ta	0	left
6.6.1	win	2023-06-27	06:14:55	0	0	5c190c311e18d10001eca667	1	1	DL_test	15	DL_test	28			0		ga	1	1387	6	3	antiphase_hc_soi.wav	1	6	4	noise_calib_stim_RIGHT.wav	2	14	blb_dichoticlistening_ga-da.mp3	ga	da	1	left
6.6.1	win	2023-06-27	06:14:55	0	0	5c190c311e18d10001eca667	1	1	DL_test	15	DL_test	29			0		ba	1	1028	6	3	antiphase_hc_soi.wav	1	6	4	noise_calib_stim_RIGHT.wav	2	25	blb_dichoticlistening_pa-ba.mp3	pa	ba	1	right
6.6.1	win	2023-06-27	06:14:55	0	0	5c190c311e18d10001eca667	1	1	DL_test	15	DL_test	30			0		da	1	1334	6	3	antiphase_hc_soi.wav	1	6	4	noise_calib_stim_RIGHT.wav	2	8	blb_dichoticlistening_da-da.mp3	da	da	0	left
6.6.1	win	2023-06-27	06:14:55	0	0	5c190c311e18d10001eca667	1	1	DL_test	15	DL_test	31			0		ga	1	1216	6	3	antiphase_hc_soi.wav	1	6	4	noise_calib_stim_RIGHT.wav	2	3	blb_dichoticlistening_ba-ga.mp3	ba	ga	1	right
6.6.1	win	2023-06-27	06:14:55	0	0	5c190c311e18d10001eca667	1	1	DL_test	15	DL_test	32			0		pa	1	816	6	3	antiphase_hc_soi.wav	1	6	4	noise_calib_stim_RIGHT.wav	2	29	blb_dichoticlistening_pa-pa.mp3	pa	pa	0	left
6.6.1	win	2023-06-27	06:14:55	0	0	5c190c311e18d10001eca667	1	1	DL_test	15	DL_test	33			0		ta	1	1327	6	3	antiphase_hc_soi.wav	1	6	4	noise_calib_stim_RIGHT.wav	2	32	blb_dichoticlistening_ta-da.mp3	ta	da	1	left
6.6.1	win	2023-06-27	06:14:55	0	0	5c190c311e18d10001eca667	1	1	DL_test	15	DL_test	34			0		ka	1	802	6	3	antiphase_hc_soi.wav	1	6	4	noise_calib_stim_RIGHT.wav	2	4	blb_dichoticlistening_ba-ka.mp3	ba	ka	1	right
6.6.1	win	2023-06-27	06:14:55	0	0	5c190c311e18d10001eca667	1	1	DL_test	15	DL_test	35			0		ga	1	772	6	3	antiphase_hc_soi.wav	1	6	4	noise_calib_stim_RIGHT.wav	2	15	blb_dichoticlistening_ga-ga.mp3	ga	ga	0	left
6.6.1	win	2023-06-27	06:14:55	0	0	5c190c311e18d10001eca667	1	1	DL_test	15	DL_test	36			0		da	1	1171	6	3	antiphase_hc_soi.wav	1	6	4	noise_calib_stim_RIGHT.wav	2	26	blb_dichoticlistening_pa-da.mp3	pa	da	1	right
6.6.1	win	2023-06-27	06:14:55	0	0	5c190c311e18d10001eca667	1	1	DL_test	16	DL_test	1			0		ka	1	1075	6	3	antiphase_hc_soi.wav	1	6	4	noise_calib_stim_RIGHT.wav	2	28	blb_dichoticlistening_pa-ka.mp3	pa	ka	1	right
6.6.1	win	2023-06-27	06:14:55	0	0	5c190c311e18d10001eca667	1	1	DL_test	16	DL_test	2			0		da	1	1083	6	3	antiphase_hc_soi.wav	1	6	4	noise_calib_stim_RIGHT.wav	2	8	blb_dichoticlistening_da-da.mp3	da	da	0	left
6.6.1	win	2023-06-27	06:14:55	0	0	5c190c311e18d10001eca667	1	1	DL_test	16	DL_test	3			0		pa	1	638	6	3	antiphase_hc_soi.wav	1	6	4	noise_calib_stim_RIGHT.wav	2	29	blb_dichoticlistening_pa-pa.mp3	pa	pa	0	left
6.6.1	win	2023-06-27	06:14:55	0	0	5c190c311e18d10001eca667	1	1	DL_test	16	DL_test	4			0		ta	0	1190	6	3	antiphase_hc_soi.wav	1	6	4	noise_calib_stim_RIGHT.wav	2	26	blb_dichoticlistening_pa-da.mp3	pa	da	1	other
6.6.1	win	2023-06-27	06:14:55	0	0	5c190c311e18d10001eca667	1	1	DL_test	16	DL_test	5			0		ka	0	1040	6	3	antiphase_hc_soi.wav	1	6	4	noise_calib_stim_RIGHT.wav	2	17	blb_dichoticlistening_ga-pa.mp3	ga	pa	1	other
6.6.1	win	2023-06-27	06:14:55	0	0	5c190c311e18d10001eca667	1	1	DL_test	16	DL_test	6			0		ka	1	1037	6	3	antiphase_hc_soi.wav	1	6	4	noise_calib_stim_RIGHT.wav	2	22	blb_dichoticlistening_ka-ka.mp3	ka	ka	0	left
6.6.1	win	2023-06-27	06:14:55	0	0	5c190c311e18d10001eca667	1	1	DL_test	16	DL_test	7			0		pa	1	1026	6	3	antiphase_hc_soi.wav	1	6	4	noise_calib_stim_RIGHT.wav	2	25	blb_dichoticlistening_pa-ba.mp3	pa	ba	1	left
6.6.1	win	2023-06-27	06:14:55	0	0	5c190c311e18d10001eca667	1	1	DL_test	16	DL_test	8			0		ga	1	1184	6	3	antiphase_hc_soi.wav	1	6	4	noise_calib_stim_RIGHT.wav	2	13	blb_dichoticlistening_ga-ba.mp3	ga	ba	1	left
6.6.1	win	2023-06-27	06:14:55	0	0	5c190c311e18d10001eca667	1	1	DL_test	16	DL_test	9			0		ka	1	1146	6	3	antiphase_hc_soi.wav	1	6	4	noise_calib_stim_RIGHT.wav	2	34	blb_dichoticlistening_ta-ka.mp3	ta	ka	1	right
6.6.1	win	2023-06-27	06:14:55	0	0	5c190c311e18d10001eca667	1	1	DL_test	16	DL_test	10			0		da	1	877	6	3	antiphase_hc_soi.wav	1	6	4	noise_calib_stim_RIGHT.wav	2	14	blb_dichoticlistening_ga-da.mp3	ga	da	1	right
6.6.1	win	2023-06-27	06:14:55	0	0	5c190c311e18d10001eca667	1	1	DL_test	16	DL_test	11			0		ta	1	1304	6	3	antiphase_hc_soi.wav	1	6	4	noise_calib_stim_RIGHT.wav	2	32	blb_dichoticlistening_ta-da.mp3	ta	da	1	left
6.6.1	win	2023-06-27	06:14:55	0	0	5c190c311e18d10001eca667	1	1	DL_test	16	DL_test	12			0		ta	1	1175	6	3	antiphase_hc_soi.wav	1	6	4	noise_calib_stim_RIGHT.wav	2	12	blb_dichoticlistening_da-ta.mp3	da	ta	1	right
6.6.1	win	2023-06-27	06:14:55	0	0	5c190c311e18d10001eca667	1	1	DL_test	16	DL_test	13			0		ka	1	1244	6	3	antiphase_hc_soi.wav	1	6	4	noise_calib_stim_RIGHT.wav	2	16	blb_dichoticlistening_ga-ka.mp3	ga	ka	1	right
6.6.1	win	2023-06-27	06:14:55	0	0	5c190c311e18d10001eca667	1	1	DL_test	16	DL_test	14			0		ka	0	613	6	3	antiphase_hc_soi.wav	1	6	4	noise_calib_stim_RIGHT.wav	2	18	blb_dichoticlistening_ga-ta.mp3	ga	ta	1	other
6.6.1	win	2023-06-27	06:14:55	0	0	5c190c311e18d10001eca667	1	1	DL_test	16	DL_test	15			0		ka	1	650	6	3	antiphase_hc_soi.wav	1	6	4	noise_calib_stim_RIGHT.wav	2	24	blb_dichoticlistening_ka-ta.mp3	ka	ta	1	left
6.6.1	win	2023-06-27	06:14:55	0	0	5c190c311e18d10001eca667	1	1	DL_test	16	DL_test	16			0		ga	0	1477	6	3	antiphase_hc_soi.wav	1	6	4	noise_calib_stim_RIGHT.wav	2	4	blb_dichoticlistening_ba-ka.mp3	ba	ka	1	other
6.6.1	win	2023-06-27	06:14:55	0	0	5c190c311e18d10001eca667	1	1	DL_test	16	DL_test	17			0		ta	1	893	6	3	antiphase_hc_soi.wav	1	6	4	noise_calib_stim_RIGHT.wav	2	36	blb_dichoticlistening_ta-ta.mp3	ta	ta	0	left
6.6.1	win	2023-06-27	06:14:55	0	0	5c190c311e18d10001eca667	1	1	DL_test	16	DL_test	18			0		pa	1	1278	6	3	antiphase_hc_soi.wav	1	6	4	noise_calib_stim_RIGHT.wav	2	27	blb_dichoticlistening_pa-ga.mp3	pa	ga	1	left
6.6.1	win	2023-06-27	06:14:55	0	0	5c190c311e18d10001eca667	1	1	DL_test	16	DL_test	19			0		ba	1	1137	6	3	antiphase_hc_soi.wav	1	6	4	noise_calib_stim_RIGHT.wav	2	3	blb_dichoticlistening_ba-ga.mp3	ba	ga	1	left
6.6.1	win	2023-06-27	06:14:55	0	0	5c190c311e18d10001eca667	1	1	DL_test	16	DL_test	20			0		da	1	1625	6	3	antiphase_hc_soi.wav	1	6	4	noise_calib_stim_RIGHT.wav	2	9	blb_dichoticlistening_da-ga.mp3	da	ga	1	left
6.6.1	win	2023-06-27	06:14:55	0	0	5c190c311e18d10001eca667	1	1	DL_test	16	DL_test	21			0		ta	1	1263	6	3	antiphase_hc_soi.wav	1	6	4	noise_calib_stim_RIGHT.wav	2	35	blb_dichoticlistening_ta-pa.mp3	ta	pa	1	left
6.6.1	win	2023-06-27	06:14:55	0	0	5c190c311e18d10001eca667	1	1	DL_test	16	DL_test	22			0		ka	1	988	6	3	antiphase_hc_soi.wav	1	6	4	noise_calib_stim_RIGHT.wav	2	19	blb_dichoticlistening_ka-ba.mp3	ka	ba	1	left
6.6.1	win	2023-06-27	06:14:55	0	0	5c190c311e18d10001eca667	1	1	DL_test	16	DL_test	23			0		ga	1	910	6	3	antiphase_hc_soi.wav	1	6	4	noise_calib_stim_RIGHT.wav	2	15	blb_dichoticlistening_ga-ga.mp3	ga	ga	0	left
6.6.1	win	2023-06-27	06:14:55	0	0	5c190c311e18d10001eca667	1	1	DL_test	16	DL_test	24			0		pa	0	1467	6	3	antiphase_hc_soi.wav	1	6	4	noise_calib_stim_RIGHT.wav	2	31	blb_dichoticlistening_ta-ba.mp3	ta	ba	1	other
6.6.1	win	2023-06-27	06:14:55	0	0	5c190c311e18d10001eca667	1	1	DL_test	16	DL_test	25			0		ta	1	1070	6	3	antiphase_hc_soi.wav	1	6	4	noise_calib_stim_RIGHT.wav	2	30	blb_dichoticlistening_pa-ta.mp3	pa	ta	1	right
6.6.1	win	2023-06-27	06:14:55	0	0	5c190c311e18d10001eca667	1	1	DL_test	16	DL_test	26			0		da	1	857	6	3	antiphase_hc_soi.wav	1	6	4	noise_calib_stim_RIGHT.wav	2	2	blb_dichoticlistening_ba-da.mp3	ba	da	1	right
6.6.1	win	2023-06-27	06:14:55	0	0	5c190c311e18d10001eca667	1	1	DL_test	16	DL_test	27			0		ba	0	1645	6	3	antiphase_hc_soi.wav	1	6	4	noise_calib_stim_RIGHT.wav	2	10	blb_dichoticlistening_da-ka.mp3	da	ka	1	other
6.6.1	win	2023-06-27	06:14:55	0	0	5c190c311e18d10001eca667	1	1	DL_test	16	DL_test	28			0		ka	0	887	6	3	antiphase_hc_soi.wav	1	6	4	noise_calib_stim_RIGHT.wav	2	33	blb_dichoticlistening_ta-ga.mp3	ta	ga	1	other
6.6.1	win	2023-06-27	06:14:55	0	0	5c190c311e18d10001eca667	1	1	DL_test	16	DL_test	29			0		ka	1	883	6	3	antiphase_hc_soi.wav	1	6	4	noise_calib_stim_RIGHT.wav	2	21	blb_dichoticlistening_ka-ga.mp3	ka	ga	1	left
6.6.1	win	2023-06-27	06:14:55	0	0	5c190c311e18d10001eca667	1	1	DL_test	16	DL_test	30			0		ba	1	1434	6	3	antiphase_hc_soi.wav	1	6	4	noise_calib_stim_RIGHT.wav	2	1	blb_dichoticlistening_ba-ba.mp3	ba	ba	0	left
6.6.1	win	2023-06-27	06:14:55	0	0	5c190c311e18d10001eca667	1	1	DL_test	16	DL_test	31			0		ta	0	949	6	3	antiphase_hc_soi.wav	1	6	4	noise_calib_stim_RIGHT.wav	2	11	blb_dichoticlistening_da-pa.mp3	da	pa	1	other
6.6.1	win	2023-06-27	06:14:55	0	0	5c190c311e18d10001eca667	1	1	DL_test	16	DL_test	32			0		ta	0	964	6	3	antiphase_hc_soi.wav	1	6	4	noise_calib_stim_RIGHT.wav	2	23	blb_dichoticlistening_ka-pa.mp3	ka	pa	1	other
6.6.1	win	2023-06-27	06:14:55	0	0	5c190c311e18d10001eca667	1	1	DL_test	16	DL_test	33			0		ba	1	1613	6	3	antiphase_hc_soi.wav	1	6	4	noise_calib_stim_RIGHT.wav	2	6	blb_dichoticlistening_ba-ta.mp3	ba	ta	1	left
6.6.1	win	2023-06-27	06:14:55	0	0	5c190c311e18d10001eca667	1	1	DL_test	16	DL_test	34			0		ka	1	874	6	3	antiphase_hc_soi.wav	1	6	4	noise_calib_stim_RIGHT.wav	2	20	blb_dichoticlistening_ka-da.mp3	ka	da	1	left
6.6.1	win	2023-06-27	06:14:55	0	0	5c190c311e18d10001eca667	1	1	DL_test	16	DL_test	35			0		pa	1	1279	6	3	antiphase_hc_soi.wav	1	6	4	noise_calib_stim_RIGHT.wav	2	5	blb_dichoticlistening_ba-pa.mp3	ba	pa	1	right
6.6.1	win	2023-06-27	06:14:55	0	0	5c190c311e18d10001eca667	1	1	DL_test	16	DL_test	36			0		da	1	917	6	3	antiphase_hc_soi.wav	1	6	4	noise_calib_stim_RIGHT.wav	2	7	blb_dichoticlistening_da-ba.mp3	da	ba	1	left
6.6.1	win	2023-06-27	06:14:55	06:25:14	613473	5c190c311e18d10001eca667	1	1	practice_slash	22	practice_slash	1	stimuli_target_diamondsquares.svg	stimuli_distractor_diamondtriangles.svg	3	yes	53	1	1714	6	3	antiphase_hc_soi.wav	1	6	4	noise_calib_stim_RIGHT.wav	2	7	blb_dichoticlistening_da-ba.mp3	da	ba	1	left
6.6.1	win	2023-06-27	06:14:55	06:25:14	613473	5c190c311e18d10001eca667	1	1	practice_slash	22	advance_on_keypress_SLASH	2	stimuli_target_diamondsquares.svg	stimuli_distractor_diamondtriangles.svg	3	yes	57	0	1133	6	3	antiphase_hc_soi.wav	1	6	4	noise_calib_stim_RIGHT.wav	2	7	blb_dichoticlistening_da-ba.mp3	da	ba	1	left
6.6.1	win	2023-06-27	06:14:55	06:25:18	617146	5c190c311e18d10001eca667	1	1	practice_slash	22	practice_slash	3	stimuli_distractor_trianglediamonds.svg	stimuli_target_diamondrectangles.svg	12	yes	53	1	886	6	3	antiphase_hc_soi.wav	1	6	4	noise_calib_stim_RIGHT.wav	2	7	blb_dichoticlistening_da-ba.mp3	da	ba	1	left
6.6.1	win	2023-06-27	06:14:55	06:25:18	617146	5c190c311e18d10001eca667	1	1	practice_slash	22	advance_on_keypress_SLASH	4	stimuli_distractor_trianglediamonds.svg	stimuli_target_diamondrectangles.svg	12	yes	57	0	586	6	3	antiphase_hc_soi.wav	1	6	4	noise_calib_stim_RIGHT.wav	2	7	blb_dichoticlistening_da-ba.mp3	da	ba	1	left
6.6.1	win	2023-06-27	06:14:55	06:25:21	620026	5c190c311e18d10001eca667	1	1	practice_slash	22	practice_slash	5	stimuli_distractor_diamondtriangles.svg	stimuli_target_trianglerectangles.svg	9	yes	53	1	649	6	3	antiphase_hc_soi.wav	1	6	4	noise_calib_stim_RIGHT.wav	2	7	blb_dichoticlistening_da-ba.mp3	da	ba	1	left
6.6.1	win	2023-06-27	06:14:55	06:25:21	620026	5c190c311e18d10001eca667	1	1	practice_slash	22	advance_on_keypress_SLASH	6	stimuli_distractor_diamondtriangles.svg	stimuli_target_trianglerectangles.svg	9	yes	57	0	567	6	3	antiphase_hc_soi.wav	1	6	4	noise_calib_stim_RIGHT.wav	2	7	blb_dichoticlistening_da-ba.mp3	da	ba	1	left
6.6.1	win	2023-06-27	06:14:55	06:25:24	623337	5c190c311e18d10001eca667	1	1	practice_slash	22	practice_slash	7	stimuli_distractor_trianglediamonds.svg	stimuli_target_rectanglediamonds.svg	10	yes	53	1	1095	6	3	antiphase_hc_soi.wav	1	6	4	noise_calib_stim_RIGHT.wav	2	7	blb_dichoticlistening_da-ba.mp3	da	ba	1	left
6.6.1	win	2023-06-27	06:14:55	06:25:24	623337	5c190c311e18d10001eca667	1	1	practice_slash	22	advance_on_keypress_SLASH	8	stimuli_distractor_trianglediamonds.svg	stimuli_target_rectanglediamonds.svg	10	yes	57	0	547	6	3	antiphase_hc_soi.wav	1	6	4	noise_calib_stim_RIGHT.wav	2	7	blb_dichoticlistening_da-ba.mp3	da	ba	1	left
6.6.1	win	2023-06-27	06:14:55	06:25:28	626714	5c190c311e18d10001eca667	1	1	practice_slash	22	practice_slash	9	stimuli_distractor_trianglediamonds.svg	stimuli_target_squarediamonds.svg	11	yes	53	1	1187	6	3	antiphase_hc_soi.wav	1	6	4	noise_calib_stim_RIGHT.wav	2	7	blb_dichoticlistening_da-ba.mp3	da	ba	1	left
6.6.1	win	2023-06-27	06:14:55	06:25:28	626714	5c190c311e18d10001eca667	1	1	practice_slash	22	advance_on_keypress_SLASH	10	stimuli_distractor_trianglediamonds.svg	stimuli_target_squarediamonds.svg	11	yes	57	0	2251	6	3	antiphase_hc_soi.wav	1	6	4	noise_calib_stim_RIGHT.wav	2	7	blb_dichoticlistening_da-ba.mp3	da	ba	1	left
6.6.1	win	2023-06-27	06:14:55	06:25:32	631217	5c190c311e18d10001eca667	1	1	practice_slash	22	practice_slash	11	stimuli_target_squarediamonds.svg	stimuli_distractor_trianglediamonds.svg	5	yes	53	1	608	6	3	antiphase_hc_soi.wav	1	6	4	noise_calib_stim_RIGHT.wav	2	7	blb_dichoticlistening_da-ba.mp3	da	ba	1	left
6.6.1	win	2023-06-27	06:14:55	06:25:32	631217	5c190c311e18d10001eca667	1	1	practice_slash	22	advance_on_keypress_SLASH	12	stimuli_target_squarediamonds.svg	stimuli_distractor_trianglediamonds.svg	5	yes	57	0	423	6	3	antiphase_hc_soi.wav	1	6	4	noise_calib_stim_RIGHT.wav	2	7	blb_dichoticlistening_da-ba.mp3	da	ba	1	left
6.6.1	win	2023-06-27	06:14:55	06:25:35	633961	5c190c311e18d10001eca667	1	1	practice_slash	22	practice_slash	13	stimuli_target_rectanglediamonds.svg	stimuli_distractor_trianglediamonds.svg	4	yes	53	1	685	6	3	antiphase_hc_soi.wav	1	6	4	noise_calib_stim_RIGHT.wav	2	7	blb_dichoticlistening_da-ba.mp3	da	ba	1	left
6.6.1	win	2023-06-27	06:14:55	06:25:35	633961	5c190c311e18d10001eca667	1	1	practice_slash	22	advance_on_keypress_SLASH	14	stimuli_target_rectanglediamonds.svg	stimuli_distractor_trianglediamonds.svg	4	yes	57	0	465	6	3	antiphase_hc_soi.wav	1	6	4	noise_calib_stim_RIGHT.wav	2	7	blb_dichoticlistening_da-ba.mp3	da	ba	1	left
6.6.1	win	2023-06-27	06:14:55	06:25:38	636713	5c190c311e18d10001eca667	1	1	practice_slash	22	practice_slash	15	stimuli_target_squarediamonds.svg	stimuli_distractor_diamondtriangles.svg	2	yes	53	1	637	6	3	antiphase_hc_soi.wav	1	6	4	noise_calib_stim_RIGHT.wav	2	7	blb_dichoticlistening_da-ba.mp3	da	ba	1	left
6.6.1	win	2023-06-27	06:14:55	06:25:38	636713	5c190c311e18d10001eca667	1	1	practice_slash	22	advance_on_keypress_SLASH	16	stimuli_target_squarediamonds.svg	stimuli_distractor_diamondtriangles.svg	2	yes	57	0	363	6	3	antiphase_hc_soi.wav	1	6	4	noise_calib_stim_RIGHT.wav	2	7	blb_dichoticlistening_da-ba.mp3	da	ba	1	left
6.6.1	win	2023-06-27	06:14:55	06:25:40	639569	5c190c311e18d10001eca667	1	1	practice_slash	22	practice_slash	17	stimuli_distractor_trianglediamonds.svg	stimuli_distractor_diamondtriangles.svg	16	no	53	0	859	6	3	antiphase_hc_soi.wav	1	6	4	noise_calib_stim_RIGHT.wav	2	7	blb_dichoticlistening_da-ba.mp3	da	ba	1	left
6.6.1	win	2023-06-27	06:14:55	06:25:40	639569	5c190c311e18d10001eca667	1	1	practice_slash	22	advance_on_keypress_SLASH	18	stimuli_distractor_trianglediamonds.svg	stimuli_distractor_diamondtriangles.svg	16	no	57	0	617	6	3	antiphase_hc_soi.wav	1	6	4	noise_calib_stim_RIGHT.wav	2	7	blb_dichoticlistening_da-ba.mp3	da	ba	1	left
6.6.1	win	2023-06-27	06:14:55	06:25:44	642858	5c190c311e18d10001eca667	1	1	practice_slash	22	practice_slash	19	stimuli_distractor_diamondtriangles.svg	stimuli_target_diamondrectangles.svg	8	yes	53	1	1031	6	3	antiphase_hc_soi.wav	1	6	4	noise_calib_stim_RIGHT.wav	2	7	blb_dichoticlistening_da-ba.mp3	da	ba	1	left
6.6.1	win	2023-06-27	06:14:55	06:25:44	642858	5c190c311e18d10001eca667	1	1	practice_slash	22	advance_on_keypress_SLASH	20	stimuli_distractor_diamondtriangles.svg	stimuli_target_diamondrectangles.svg	8	yes	57	0	371	6	3	antiphase_hc_soi.wav	1	6	4	noise_calib_stim_RIGHT.wav	2	7	blb_dichoticlistening_da-ba.mp3	da	ba	1	left
6.6.1	win	2023-06-27	06:14:55	06:25:46	645641	5c190c311e18d10001eca667	1	1	practice_slash	22	practice_slash	21	stimuli_target_rectanglediamonds.svg	stimuli_distractor_diamondtriangles.svg	1	yes	53	1	764	6	3	antiphase_hc_soi.wav	1	6	4	noise_calib_stim_RIGHT.wav	2	7	blb_dichoticlistening_da-ba.mp3	da	ba	1	left
6.6.1	win	2023-06-27	06:14:55	06:25:46	645641	5c190c311e18d10001eca667	1	1	practice_slash	22	advance_on_keypress_SLASH	22	stimuli_target_rectanglediamonds.svg	stimuli_distractor_diamondtriangles.svg	1	yes	57	0	620	6	3	antiphase_hc_soi.wav	1	6	4	noise_calib_stim_RIGHT.wav	2	7	blb_dichoticlistening_da-ba.mp3	da	ba	1	left
6.6.1	win	2023-06-27	06:14:55	06:25:50	649441	5c190c311e18d10001eca667	1	1	practice_slash	22	practice_slash	23	stimuli_distractor_diamondtriangles.svg	stimuli_distractor_diamondtriangles.svg	13	no	53	0	1530	6	3	antiphase_hc_soi.wav	1	6	4	noise_calib_stim_RIGHT.wav	2	7	blb_dichoticlistening_da-ba.mp3	da	ba	1	left
6.6.1	win	2023-06-27	06:14:55	06:25:50	649441	5c190c311e18d10001eca667	1	1	practice_slash	22	advance_on_keypress_SLASH	24	stimuli_distractor_diamondtriangles.svg	stimuli_distractor_diamondtriangles.svg	13	no	57	0	868	6	3	antiphase_hc_soi.wav	1	6	4	noise_calib_stim_RIGHT.wav	2	7	blb_dichoticlistening_da-ba.mp3	da	ba	1	left
6.6.1	win	2023-06-27	06:14:55	06:25:55	653961	5c190c311e18d10001eca667	1	1	practice_slash	22	practice_slash	25	stimuli_distractor_diamondtriangles.svg	stimuli_distractor_trianglediamonds.svg	14	no	0	1	2000	6	3	antiphase_hc_soi.wav	1	6	4	noise_calib_stim_RIGHT.wav	2	7	blb_dichoticlistening_da-ba.mp3	da	ba	1	left
6.6.1	win	2023-06-27	06:14:55	06:25:55	653961	5c190c311e18d10001eca667	1	1	practice_slash	22	advance_on_keypress_SLASH	26	stimuli_distractor_diamondtriangles.svg	stimuli_distractor_trianglediamonds.svg	14	no	57	0	703	6	3	antiphase_hc_soi.wav	1	6	4	noise_calib_stim_RIGHT.wav	2	7	blb_dichoticlistening_da-ba.mp3	da	ba	1	left
6.6.1	win	2023-06-27	06:14:55	06:25:59	658311	5c190c311e18d10001eca667	1	1	practice_slash	22	practice_slash	27	stimuli_distractor_trianglediamonds.svg	stimuli_distractor_trianglediamonds.svg	15	no	0	1	2000	6	3	antiphase_hc_soi.wav	1	6	4	noise_calib_stim_RIGHT.wav	2	7	blb_dichoticlistening_da-ba.mp3	da	ba	1	left
6.6.1	win	2023-06-27	06:14:55	06:25:59	658311	5c190c311e18d10001eca667	1	1	practice_slash	22	advance_on_keypress_SLASH	28	stimuli_distractor_trianglediamonds.svg	stimuli_distractor_trianglediamonds.svg	15	no	57	0	1073	6	3	antiphase_hc_soi.wav	1	6	4	noise_calib_stim_RIGHT.wav	2	7	blb_dichoticlistening_da-ba.mp3	da	ba	1	left
6.6.1	win	2023-06-27	06:14:55	06:26:03	661857	5c190c311e18d10001eca667	1	1	practice_slash	22	practice_slash	29	stimuli_distractor_diamondtriangles.svg	stimuli_target_rectangletriangles.svg	7	yes	53	1	829	6	3	antiphase_hc_soi.wav	1	6	4	noise_calib_stim_RIGHT.wav	2	7	blb_dichoticlistening_da-ba.mp3	da	ba	1	left
6.6.1	win	2023-06-27	06:14:55	06:26:03	661857	5c190c311e18d10001eca667	1	1	practice_slash	22	advance_on_keypress_SLASH	30	stimuli_distractor_diamondtriangles.svg	stimuli_target_rectangletriangles.svg	7	yes	57	0	435	6	3	antiphase_hc_soi.wav	1	6	4	noise_calib_stim_RIGHT.wav	2	7	blb_dichoticlistening_da-ba.mp3	da	ba	1	left
6.6.1	win	2023-06-27	06:14:55	06:26:06	664889	5c190c311e18d10001eca667	1	1	practice_slash	22	practice_slash	31	stimuli_target_diamondsquares.svg	stimuli_distractor_trianglediamonds.svg	6	yes	53	1	944	6	3	antiphase_hc_soi.wav	1	6	4	noise_calib_stim_RIGHT.wav	2	7	blb_dichoticlistening_da-ba.mp3	da	ba	1	left
6.6.1	win	2023-06-27	06:14:55	06:26:06	664889	5c190c311e18d10001eca667	1	1	practice_slash	22	advance_on_keypress_SLASH	32	stimuli_target_diamondsquares.svg	stimuli_distractor_trianglediamonds.svg	6	yes	57	0	394	6	3	antiphase_hc_soi.wav	1	6	4	noise_calib_stim_RIGHT.wav	2	7	blb_dichoticlistening_da-ba.mp3	da	ba	1	left
6.6.1	win	2023-06-27	06:14:55	06:26:21	680344	5c190c311e18d10001eca667	1	1	main_slash	24	main_slash	1	stimuli_target_squarediamonds.svg	stimuli_distractor_trianglediamonds.svg	4	yes	53	1	1033	6	3	antiphase_hc_soi.wav	1	6	4	noise_calib_stim_RIGHT.wav	2	7	blb_dichoticlistening_da-ba.mp3	da	ba	1	left
6.6.1	win	2023-06-27	06:14:55	06:26:21	680344	5c190c311e18d10001eca667	1	1	main_slash	24	advance_on_keypress_SLASH	2	stimuli_target_squarediamonds.svg	stimuli_distractor_trianglediamonds.svg	4	yes	57	0	559	6	3	antiphase_hc_soi.wav	1	6	4	noise_calib_stim_RIGHT.wav	2	7	blb_dichoticlistening_da-ba.mp3	da	ba	1	left
6.6.1	win	2023-06-27	06:14:55	06:26:23	682343	5c190c311e18d10001eca667	1	1	main_slash	24	main_slash	3	stimuli_distractor_diamondtriangles.svg	stimuli_target_squaretriangles.svg	15	yes	53	1	799	6	3	antiphase_hc_soi.wav	1	6	4	noise_calib_stim_RIGHT.wav	2	7	blb_dichoticlistening_da-ba.mp3	da	ba	1	left
6.6.1	win	2023-06-27	06:14:55	06:26:23	682343	5c190c311e18d10001eca667	1	1	main_slash	24	advance_on_keypress_SLASH	4	stimuli_distractor_diamondtriangles.svg	stimuli_target_squaretriangles.svg	15	yes	57	0	431	6	3	antiphase_hc_soi.wav	1	6	4	noise_calib_stim_RIGHT.wav	2	7	blb_dichoticlistening_da-ba.mp3	da	ba	1	left
6.6.1	win	2023-06-27	06:14:55	06:26:25	684255	5c190c311e18d10001eca667	1	1	main_slash	24	main_slash	5	stimuli_target_trianglesquares.svg	stimuli_distractor_diamondtriangles.svg	22	yes	53	1	828	6	3	antiphase_hc_soi.wav	1	6	4	noise_calib_stim_RIGHT.wav	2	7	blb_dichoticlistening_da-ba.mp3	da	ba	1	left
6.6.1	win	2023-06-27	06:14:55	06:26:25	684255	5c190c311e18d10001eca667	1	1	main_slash	24	advance_on_keypress_SLASH	6	stimuli_target_trianglesquares.svg	stimuli_distractor_diamondtriangles.svg	22	yes	57	0	339	6	3	antiphase_hc_soi.wav	1	6	4	noise_calib_stim_RIGHT.wav	2	7	blb_dichoticlistening_da-ba.mp3	da	ba	1	left
6.6.1	win	2023-06-27	06:14:55	06:26:27	686127	5c190c311e18d10001eca667	1	1	main_slash	24	main_slash	7	stimuli_target_trianglerectangles.svg	stimuli_distractor_trianglediamonds.svg	17	yes	53	1	900	6	3	antiphase_hc_soi.wav	1	6	4	noise_calib_stim_RIGHT.wav	2	7	blb_dichoticlistening_da-ba.mp3	da	ba	1	left
6.6.1	win	2023-06-27	06:14:55	06:26:27	686127	5c190c311e18d10001eca667	1	1	main_slash	24	advance_on_keypress_SLASH	8	stimuli_target_trianglerectangles.svg	stimuli_distractor_trianglediamonds.svg	17	yes	57	0	303	6	3	antiphase_hc_soi.wav	1	6	4	noise_calib_stim_RIGHT.wav	2	7	blb_dichoticlistening_da-ba.mp3	da	ba	1	left
6.6.1	win	2023-06-27	06:14:55	06:26:30	689078	5c190c311e18d10001eca667	1	1	main_slash	24	main_slash	9	stimuli_distractor_diamondtriangles.svg	stimuli_distractor_diamondtriangles.svg	39	no	0	1	2000	6	3	antiphase_hc_soi.wav	1	6	4	noise_calib_stim_RIGHT.wav	2	7	blb_dichoticlistening_da-ba.mp3	da	ba	1	left
6.6.1	win	2023-06-27	06:14:55	06:26:30	689078	5c190c311e18d10001eca667	1	1	main_slash	24	advance_on_keypress_SLASH	10	stimuli_distractor_diamondtriangles.svg	stimuli_distractor_diamondtriangles.svg	39	no	57	0	641	6	3	antiphase_hc_soi.wav	1	6	4	noise_calib_stim_RIGHT.wav	2	7	blb_dichoticlistening_da-ba.mp3	da	ba	1	left
6.6.1	win	2023-06-27	06:14:55	06:26:33	692362	5c190c311e18d10001eca667	1	1	main_slash	24	main_slash	11	stimuli_distractor_trianglediamonds.svg	stimuli_distractor_trianglediamonds.svg	33	no	0	1	2000	6	3	antiphase_hc_soi.wav	1	6	4	noise_calib_stim_RIGHT.wav	2	7	blb_dichoticlistening_da-ba.mp3	da	ba	1	left
6.6.1	win	2023-06-27	06:14:55	06:26:33	692362	5c190c311e18d10001eca667	1	1	main_slash	24	advance_on_keypress_SLASH	12	stimuli_distractor_trianglediamonds.svg	stimuli_distractor_trianglediamonds.svg	33	no	57	0	605	6	3	antiphase_hc_soi.wav	1	6	4	noise_calib_stim_RIGHT.wav	2	7	blb_dichoticlistening_da-ba.mp3	da	ba	1	left
6.6.1	win	2023-06-27	06:14:55	06:26:35	694512	5c190c311e18d10001eca667	1	1	main_slash	24	main_slash	13	stimuli_distractor_diamondtriangles.svg	stimuli_distractor_trianglediamonds.svg	38	no	53	0	900	6	3	antiphase_hc_soi.wav	1	6	4	noise_calib_stim_RIGHT.wav	2	7	blb_dichoticlistening_da-ba.mp3	da	ba	1	left
6.6.1	win	2023-06-27	06:14:55	06:26:35	694512	5c190c311e18d10001eca667	1	1	main_slash	24	advance_on_keypress_SLASH	14	stimuli_distractor_diamondtriangles.svg	stimuli_distractor_trianglediamonds.svg	38	no	57	0	551	6	3	antiphase_hc_soi.wav	1	6	4	noise_calib_stim_RIGHT.wav	2	7	blb_dichoticlistening_da-ba.mp3	da	ba	1	left
6.6.1	win	2023-06-27	06:14:55	06:26:37	696631	5c190c311e18d10001eca667	1	1	main_slash	24	main_slash	15	stimuli_target_rectanglediamonds.svg	stimuli_distractor_diamondtriangles.svg	6	yes	53	1	919	6	3	antiphase_hc_soi.wav	1	6	4	noise_calib_stim_RIGHT.wav	2	7	blb_dichoticlistening_da-ba.mp3	da	ba	1	left
6.6.1	win	2023-06-27	06:14:55	06:26:37	696631	5c190c311e18d10001eca667	1	1	main_slash	24	advance_on_keypress_SLASH	16	stimuli_target_rectanglediamonds.svg	stimuli_distractor_diamondtriangles.svg	6	yes	57	0	338	6	3	antiphase_hc_soi.wav	1	6	4	noise_calib_stim_RIGHT.wav	2	7	blb_dichoticlistening_da-ba.mp3	da	ba	1	left
6.6.1	win	2023-06-27	06:14:55	06:26:39	698439	5c190c311e18d10001eca667	1	1	main_slash	24	main_slash	17	stimuli_distractor_diamondtriangles.svg	stimuli_target_diamondsquares.svg	32	yes	53	1	827	6	3	antiphase_hc_soi.wav	1	6	4	noise_calib_stim_RIGHT.wav	2	7	blb_dichoticlistening_da-ba.mp3	da	ba	1	left
6.6.1	win	2023-06-27	06:14:55	06:26:39	698439	5c190c311e18d10001eca667	1	1	main_slash	24	advance_on_keypress_SLASH	18	stimuli_distractor_diamondtriangles.svg	stimuli_target_diamondsquares.svg	32	yes	57	0	242	6	3	antiphase_hc_soi.wav	1	6	4	noise_calib_stim_RIGHT.wav	2	7	blb_dichoticlistening_da-ba.mp3	da	ba	1	left
6.6.1	win	2023-06-27	06:14:55	06:26:41	700207	5c190c311e18d10001eca667	1	1	main_slash	24	main_slash	19	stimuli_target_diamondsquares.svg	stimuli_distractor_diamondtriangles.svg	24	yes	53	1	895	6	3	antiphase_hc_soi.wav	1	6	4	noise_calib_stim_RIGHT.wav	2	7	blb_dichoticlistening_da-ba.mp3	da	ba	1	left
6.6.1	win	2023-06-27	06:14:55	06:26:41	700207	5c190c311e18d10001eca667	1	1	main_slash	24	advance_on_keypress_SLASH	20	stimuli_target_diamondsquares.svg	stimuli_distractor_diamondtriangles.svg	24	yes	57	0	283	6	3	antiphase_hc_soi.wav	1	6	4	noise_calib_stim_RIGHT.wav	2	7	blb_dichoticlistening_da-ba.mp3	da	ba	1	left
6.6.1	win	2023-06-27	06:14:55	06:26:44	703063	5c190c311e18d10001eca667	1	1	main_slash	24	main_slash	21	stimuli_distractor_trianglediamonds.svg	stimuli_target_squaretriangles.svg	11	yes	53	1	1934	6	3	antiphase_hc_soi.wav	1	6	4	noise_calib_stim_RIGHT.wav	2	7	blb_dichoticlistening_da-ba.mp3	da	ba	1	left
6.6.1	win	2023-06-27	06:14:55	06:26:44	703063	5c190c311e18d10001eca667	1	1	main_slash	24	advance_on_keypress_SLASH	22	stimuli_distractor_trianglediamonds.svg	stimuli_target_squaretriangles.svg	11	yes	57	0	672	6	3	antiphase_hc_soi.wav	1	6	4	noise_calib_stim_RIGHT.wav	2	7	blb_dichoticlistening_da-ba.mp3	da	ba	1	left
6.6.1	win	2023-06-27	06:14:55	06:26:46	705287	5c190c311e18d10001eca667	1	1	main_slash	24	main_slash	23	stimuli_distractor_trianglediamonds.svg	stimuli_target_diamondrectangles.svg	27	yes	53	1	908	6	3	antiphase_hc_soi.wav	1	6	4	noise_calib_stim_RIGHT.wav	2	7	blb_dichoticlistening_da-ba.mp3	da	ba	1	left
6.6.1	win	2023-06-27	06:14:55	06:26:46	705287	5c190c311e18d10001eca667	1	1	main_slash	24	advance_on_keypress_SLASH	24	stimuli_distractor_trianglediamonds.svg	stimuli_target_diamondrectangles.svg	27	yes	57	0	367	6	3	antiphase_hc_soi.wav	1	6	4	noise_calib_stim_RIGHT.wav	2	7	blb_dichoticlistening_da-ba.mp3	da	ba	1	left
6.6.1	win	2023-06-27	06:14:55	06:26:48	707271	5c190c311e18d10001eca667	1	1	main_slash	24	main_slash	25	stimuli_distractor_trianglediamonds.svg	stimuli_target_rectanglediamonds.svg	10	yes	53	1	975	6	3	antiphase_hc_soi.wav	1	6	4	noise_calib_stim_RIGHT.wav	2	7	blb_dichoticlistening_da-ba.mp3	da	ba	1	left
6.6.1	win	2023-06-27	06:14:55	06:26:48	707271	5c190c311e18d10001eca667	1	1	main_slash	24	advance_on_keypress_SLASH	26	stimuli_distractor_trianglediamonds.svg	stimuli_target_rectanglediamonds.svg	10	yes	57	0	200	6	3	antiphase_hc_soi.wav	1	6	4	noise_calib_stim_RIGHT.wav	2	7	blb_dichoticlistening_da-ba.mp3	da	ba	1	left
6.6.1	win	2023-06-27	06:14:55	06:26:50	709071	5c190c311e18d10001eca667	1	1	main_slash	24	main_slash	27	stimuli_distractor_diamondtriangles.svg	stimuli_target_diamondrectangles.svg	31	yes	53	1	959	6	3	antiphase_hc_soi.wav	1	6	4	noise_calib_stim_RIGHT.wav	2	7	blb_dichoticlistening_da-ba.mp3	da	ba	1	left
6.6.1	win	2023-06-27	06:14:55	06:26:50	709071	5c190c311e18d10001eca667	1	1	main_slash	24	advance_on_keypress_SLASH	28	stimuli_distractor_diamondtriangles.svg	stimuli_target_diamondrectangles.svg	31	yes	57	0	200	6	3	antiphase_hc_soi.wav	1	6	4	noise_calib_stim_RIGHT.wav	2	7	blb_dichoticlistening_da-ba.mp3	da	ba	1	left
6.6.1	win	2023-06-27	06:14:55	06:26:52	710887	5c190c311e18d10001eca667	1	1	main_slash	24	main_slash	29	stimuli_distractor_trianglediamonds.svg	stimuli_target_trianglesquares.svg	26	yes	53	1	975	6	3	antiphase_hc_soi.wav	1	6	4	noise_calib_stim_RIGHT.wav	2	7	blb_dichoticlistening_da-ba.mp3	da	ba	1	left
6.6.1	win	2023-06-27	06:14:55	06:26:52	710887	5c190c311e18d10001eca667	1	1	main_slash	24	advance_on_keypress_SLASH	30	stimuli_distractor_trianglediamonds.svg	stimuli_target_trianglesquares.svg	26	yes	57	0	207	6	3	antiphase_hc_soi.wav	1	6	4	noise_calib_stim_RIGHT.wav	2	7	blb_dichoticlistening_da-ba.mp3	da	ba	1	left
6.6.1	win	2023-06-27	06:14:55	06:26:55	713729	5c190c311e18d10001eca667	1	1	main_slash	24	main_slash	31	stimuli_target_diamondsquares.svg	stimuli_distractor_trianglediamonds.svg	20	yes	0	0	2000	6	3	antiphase_hc_soi.wav	1	6	4	noise_calib_stim_RIGHT.wav	2	7	blb_dichoticlistening_da-ba.mp3	da	ba	1	left
6.6.1	win	2023-06-27	06:14:55	06:26:55	713729	5c190c311e18d10001eca667	1	1	main_slash	24	advance_on_keypress_SLASH	32	stimuli_target_diamondsquares.svg	stimuli_distractor_trianglediamonds.svg	20	yes	57	0	445	6	3	antiphase_hc_soi.wav	1	6	4	noise_calib_stim_RIGHT.wav	2	7	blb_dichoticlistening_da-ba.mp3	da	ba	1	left
6.6.1	win	2023-06-27	06:14:55	06:26:57	716359	5c190c311e18d10001eca667	1	1	main_slash	24	main_slash	33	stimuli_distractor_trianglediamonds.svg	stimuli_target_squarediamonds.svg	12	yes	53	1	1546	6	3	antiphase_hc_soi.wav	1	6	4	noise_calib_stim_RIGHT.wav	2	7	blb_dichoticlistening_da-ba.mp3	da	ba	1	left
6.6.1	win	2023-06-27	06:14:55	06:26:57	716359	5c190c311e18d10001eca667	1	1	main_slash	24	advance_on_keypress_SLASH	34	stimuli_distractor_trianglediamonds.svg	stimuli_target_squarediamonds.svg	12	yes	57	0	540	6	3	antiphase_hc_soi.wav	1	6	4	noise_calib_stim_RIGHT.wav	2	7	blb_dichoticlistening_da-ba.mp3	da	ba	1	left
6.6.1	win	2023-06-27	06:14:55	06:27:00	718911	5c190c311e18d10001eca667	1	1	main_slash	24	main_slash	35	stimuli_target_trianglerectangles.svg	stimuli_distractor_diamondtriangles.svg	21	yes	53	1	1382	6	3	antiphase_hc_soi.wav	1	6	4	noise_calib_stim_RIGHT.wav	2	7	blb_dichoticlistening_da-ba.mp3	da	ba	1	left
6.6.1	win	2023-06-27	06:14:55	06:27:00	718911	5c190c311e18d10001eca667	1	1	main_slash	24	advance_on_keypress_SLASH	36	stimuli_target_trianglerectangles.svg	stimuli_distractor_diamondtriangles.svg	21	yes	57	0	373	6	3	antiphase_hc_soi.wav	1	6	4	noise_calib_stim_RIGHT.wav	2	7	blb_dichoticlistening_da-ba.mp3	da	ba	1	left
6.6.1	win	2023-06-27	06:14:55	06:27:02	721007	5c190c311e18d10001eca667	1	1	main_slash	24	main_slash	37	stimuli_target_trianglesquares.svg	stimuli_distractor_trianglediamonds.svg	18	yes	53	1	1077	6	3	antiphase_hc_soi.wav	1	6	4	noise_calib_stim_RIGHT.wav	2	7	blb_dichoticlistening_da-ba.mp3	da	ba	1	left
6.6.1	win	2023-06-27	06:14:55	06:27:02	721007	5c190c311e18d10001eca667	1	1	main_slash	24	advance_on_keypress_SLASH	38	stimuli_target_trianglesquares.svg	stimuli_distractor_trianglediamonds.svg	18	yes	57	0	274	6	3	antiphase_hc_soi.wav	1	6	4	noise_calib_stim_RIGHT.wav	2	7	blb_dichoticlistening_da-ba.mp3	da	ba	1	left
6.6.1	win	2023-06-27	06:14:55	06:27:04	722959	5c190c311e18d10001eca667	1	1	main_slash	24	main_slash	39	stimuli_distractor_trianglediamonds.svg	stimuli_target_trianglerectangles.svg	25	yes	53	1	1046	6	3	antiphase_hc_soi.wav	1	6	4	noise_calib_stim_RIGHT.wav	2	7	blb_dichoticlistening_da-ba.mp3	da	ba	1	left
6.6.1	win	2023-06-27	06:14:55	06:27:04	722959	5c190c311e18d10001eca667	1	1	main_slash	24	advance_on_keypress_SLASH	40	stimuli_distractor_trianglediamonds.svg	stimuli_target_trianglerectangles.svg	25	yes	57	0	276	6	3	antiphase_hc_soi.wav	1	6	4	noise_calib_stim_RIGHT.wav	2	7	blb_dichoticlistening_da-ba.mp3	da	ba	1	left
6.6.1	win	2023-06-27	06:14:55	06:27:07	725863	5c190c311e18d10001eca667	1	1	main_slash	24	main_slash	41	stimuli_distractor_diamondtriangles.svg	stimuli_distractor_diamondtriangles.svg	40	no	0	1	2000	6	3	antiphase_hc_soi.wav	1	6	4	noise_calib_stim_RIGHT.wav	2	7	blb_dichoticlistening_da-ba.mp3	da	ba	1	left
6.6.1	win	2023-06-27	06:14:55	06:27:07	725863	5c190c311e18d10001eca667	1	1	main_slash	24	advance_on_keypress_SLASH	42	stimuli_distractor_diamondtriangles.svg	stimuli_distractor_diamondtriangles.svg	40	no	57	0	439	6	3	antiphase_hc_soi.wav	1	6	4	noise_calib_stim_RIGHT.wav	2	7	blb_dichoticlistening_da-ba.mp3	da	ba	1	left
6.6.1	win	2023-06-27	06:14:55	06:27:09	727847	5c190c311e18d10001eca667	1	1	main_slash	24	main_slash	43	stimuli_target_rectangletriangles.svg	stimuli_distractor_trianglediamonds.svg	1	yes	53	1	900	6	3	antiphase_hc_soi.wav	1	6	4	noise_calib_stim_RIGHT.wav	2	7	blb_dichoticlistening_da-ba.mp3	da	ba	1	left
6.6.1	win	2023-06-27	06:14:55	06:27:09	727847	5c190c311e18d10001eca667	1	1	main_slash	24	advance_on_keypress_SLASH	44	stimuli_target_rectangletriangles.svg	stimuli_distractor_trianglediamonds.svg	1	yes	57	0	232	6	3	antiphase_hc_soi.wav	1	6	4	noise_calib_stim_RIGHT.wav	2	7	blb_dichoticlistening_da-ba.mp3	da	ba	1	left
6.6.1	win	2023-06-27	06:14:55	06:27:11	729839	5c190c311e18d10001eca667	1	1	main_slash	24	main_slash	45	stimuli_target_diamondrectangles.svg	stimuli_distractor_diamondtriangles.svg	23	yes	53	1	1109	6	3	antiphase_hc_soi.wav	1	6	4	noise_calib_stim_RIGHT.wav	2	7	blb_dichoticlistening_da-ba.mp3	da	ba	1	left
6.6.1	win	2023-06-27	06:14:55	06:27:11	729839	5c190c311e18d10001eca667	1	1	main_slash	24	advance_on_keypress_SLASH	46	stimuli_target_diamondrectangles.svg	stimuli_distractor_diamondtriangles.svg	23	yes	57	0	160	6	3	antiphase_hc_soi.wav	1	6	4	noise_calib_stim_RIGHT.wav	2	7	blb_dichoticlistening_da-ba.mp3	da	ba	1	left
6.6.1	win	2023-06-27	06:14:55	06:27:13	731735	5c190c311e18d10001eca667	1	1	main_slash	24	main_slash	47	stimuli_target_squarediamonds.svg	stimuli_distractor_diamondtriangles.svg	8	yes	53	1	1105	6	3	antiphase_hc_soi.wav	1	6	4	noise_calib_stim_RIGHT.wav	2	7	blb_dichoticlistening_da-ba.mp3	da	ba	1	left
6.6.1	win	2023-06-27	06:14:55	06:27:13	731735	5c190c311e18d10001eca667	1	1	main_slash	24	advance_on_keypress_SLASH	48	stimuli_target_squarediamonds.svg	stimuli_distractor_diamondtriangles.svg	8	yes	57	0	244	6	3	antiphase_hc_soi.wav	1	6	4	noise_calib_stim_RIGHT.wav	2	7	blb_dichoticlistening_da-ba.mp3	da	ba	1	left
6.6.1	win	2023-06-27	06:14:55	06:27:14	733662	5c190c311e18d10001eca667	1	1	main_slash	24	main_slash	49	stimuli_distractor_diamondtriangles.svg	stimuli_target_rectanglediamonds.svg	14	yes	53	1	1050	6	3	antiphase_hc_soi.wav	1	6	4	noise_calib_stim_RIGHT.wav	2	7	blb_dichoticlistening_da-ba.mp3	da	ba	1	left
6.6.1	win	2023-06-27	06:14:55	06:27:14	733662	5c190c311e18d10001eca667	1	1	main_slash	24	advance_on_keypress_SLASH	50	stimuli_distractor_diamondtriangles.svg	stimuli_target_rectanglediamonds.svg	14	yes	57	0	239	6	3	antiphase_hc_soi.wav	1	6	4	noise_calib_stim_RIGHT.wav	2	7	blb_dichoticlistening_da-ba.mp3	da	ba	1	left
6.6.1	win	2023-06-27	06:14:55	06:27:17	736547	5c190c311e18d10001eca667	1	1	main_slash	24	main_slash	51	stimuli_distractor_diamondtriangles.svg	stimuli_distractor_trianglediamonds.svg	37	no	0	1	2000	6	3	antiphase_hc_soi.wav	1	6	4	noise_calib_stim_RIGHT.wav	2	7	blb_dichoticlistening_da-ba.mp3	da	ba	1	left
6.6.1	win	2023-06-27	06:14:55	06:27:17	736547	5c190c311e18d10001eca667	1	1	main_slash	24	advance_on_keypress_SLASH	52	stimuli_distractor_diamondtriangles.svg	stimuli_distractor_trianglediamonds.svg	37	no	57	0	779	6	3	antiphase_hc_soi.wav	1	6	4	noise_calib_stim_RIGHT.wav	2	7	blb_dichoticlistening_da-ba.mp3	da	ba	1	left
6.6.1	win	2023-06-27	06:14:55	06:27:20	738702	5c190c311e18d10001eca667	1	1	main_slash	24	main_slash	53	stimuli_target_rectanglediamonds.svg	stimuli_distractor_trianglediamonds.svg	2	yes	53	1	739	6	3	antiphase_hc_soi.wav	1	6	4	noise_calib_stim_RIGHT.wav	2	7	blb_dichoticlistening_da-ba.mp3	da	ba	1	left
6.6.1	win	2023-06-27	06:14:55	06:27:20	738702	5c190c311e18d10001eca667	1	1	main_slash	24	advance_on_keypress_SLASH	54	stimuli_target_rectanglediamonds.svg	stimuli_distractor_trianglediamonds.svg	2	yes	57	0	213	6	3	antiphase_hc_soi.wav	1	6	4	noise_calib_stim_RIGHT.wav	2	7	blb_dichoticlistening_da-ba.mp3	da	ba	1	left
6.6.1	win	2023-06-27	06:14:55	06:27:21	740558	5c190c311e18d10001eca667	1	1	main_slash	24	main_slash	55	stimuli_distractor_diamondtriangles.svg	stimuli_target_rectangletriangles.svg	13	yes	53	1	1012	6	3	antiphase_hc_soi.wav	1	6	4	noise_calib_stim_RIGHT.wav	2	7	blb_dichoticlistening_da-ba.mp3	da	ba	1	left
6.6.1	win	2023-06-27	06:14:55	06:27:21	740558	5c190c311e18d10001eca667	1	1	main_slash	24	advance_on_keypress_SLASH	56	stimuli_distractor_diamondtriangles.svg	stimuli_target_rectangletriangles.svg	13	yes	57	0	251	6	3	antiphase_hc_soi.wav	1	6	4	noise_calib_stim_RIGHT.wav	2	7	blb_dichoticlistening_da-ba.mp3	da	ba	1	left
6.6.1	win	2023-06-27	06:14:55	06:27:23	742390	5c190c311e18d10001eca667	1	1	main_slash	24	main_slash	57	stimuli_distractor_trianglediamonds.svg	stimuli_target_rectangletriangles.svg	9	yes	53	1	944	6	3	antiphase_hc_soi.wav	1	6	4	noise_calib_stim_RIGHT.wav	2	7	blb_dichoticlistening_da-ba.mp3	da	ba	1	left
6.6.1	win	2023-06-27	06:14:55	06:27:23	742390	5c190c311e18d10001eca667	1	1	main_slash	24	advance_on_keypress_SLASH	58	stimuli_distractor_trianglediamonds.svg	stimuli_target_rectangletriangles.svg	9	yes	57	0	274	6	3	antiphase_hc_soi.wav	1	6	4	noise_calib_stim_RIGHT.wav	2	7	blb_dichoticlistening_da-ba.mp3	da	ba	1	left
6.6.1	win	2023-06-27	06:14:55	06:27:26	745297	5c190c311e18d10001eca667	1	1	main_slash	24	main_slash	59	stimuli_distractor_diamondtriangles.svg	stimuli_target_trianglerectangles.svg	29	yes	0	0	2000	6	3	antiphase_hc_soi.wav	1	6	4	noise_calib_stim_RIGHT.wav	2	7	blb_dichoticlistening_da-ba.mp3	da	ba	1	left
6.6.1	win	2023-06-27	06:14:55	06:27:26	745297	5c190c311e18d10001eca667	1	1	main_slash	24	advance_on_keypress_SLASH	60	stimuli_distractor_diamondtriangles.svg	stimuli_target_trianglerectangles.svg	29	yes	57	0	620	6	3	antiphase_hc_soi.wav	1	6	4	noise_calib_stim_RIGHT.wav	2	7	blb_dichoticlistening_da-ba.mp3	da	ba	1	left
6.6.1	win	2023-06-27	06:14:55	06:27:28	747526	5c190c311e18d10001eca667	1	1	main_slash	24	main_slash	61	stimuli_distractor_trianglediamonds.svg	stimuli_distractor_diamondtriangles.svg	35	no	53	0	962	6	3	antiphase_hc_soi.wav	1	6	4	noise_calib_stim_RIGHT.wav	2	7	blb_dichoticlistening_da-ba.mp3	da	ba	1	left
6.6.1	win	2023-06-27	06:14:55	06:27:28	747526	5c190c311e18d10001eca667	1	1	main_slash	24	advance_on_keypress_SLASH	62	stimuli_distractor_trianglediamonds.svg	stimuli_distractor_diamondtriangles.svg	35	no	57	0	243	6	3	antiphase_hc_soi.wav	1	6	4	noise_calib_stim_RIGHT.wav	2	7	blb_dichoticlistening_da-ba.mp3	da	ba	1	left
6.6.1	win	2023-06-27	06:14:55	06:27:31	749726	5c190c311e18d10001eca667	1	1	main_slash	24	main_slash	63	stimuli_distractor_trianglediamonds.svg	stimuli_target_diamondsquares.svg	28	yes	53	1	1329	6	3	antiphase_hc_soi.wav	1	6	4	noise_calib_stim_RIGHT.wav	2	7	blb_dichoticlistening_da-ba.mp3	da	ba	1	left
6.6.1	win	2023-06-27	06:14:55	06:27:31	749726	5c190c311e18d10001eca667	1	1	main_slash	24	advance_on_keypress_SLASH	64	stimuli_distractor_trianglediamonds.svg	stimuli_target_diamondsquares.svg	28	yes	57	0	211	6	3	antiphase_hc_soi.wav	1	6	4	noise_calib_stim_RIGHT.wav	2	7	blb_dichoticlistening_da-ba.mp3	da	ba	1	left
6.6.1	win	2023-06-27	06:14:55	06:27:33	751766	5c190c311e18d10001eca667	1	1	main_slash	24	main_slash	65	stimuli_target_diamondrectangles.svg	stimuli_distractor_trianglediamonds.svg	19	yes	53	1	1202	6	3	antiphase_hc_soi.wav	1	6	4	noise_calib_stim_RIGHT.wav	2	7	blb_dichoticlistening_da-ba.mp3	da	ba	1	left
6.6.1	win	2023-06-27	06:14:55	06:27:33	751766	5c190c311e18d10001eca667	1	1	main_slash	24	advance_on_keypress_SLASH	66	stimuli_target_diamondrectangles.svg	stimuli_distractor_trianglediamonds.svg	19	yes	57	0	241	6	3	antiphase_hc_soi.wav	1	6	4	noise_calib_stim_RIGHT.wav	2	7	blb_dichoticlistening_da-ba.mp3	da	ba	1	left
6.6.1	win	2023-06-27	06:14:55	06:27:35	754648	5c190c311e18d10001eca667	1	1	main_slash	24	main_slash	67	stimuli_distractor_diamondtriangles.svg	stimuli_target_trianglesquares.svg	30	yes	0	0	2000	6	3	antiphase_hc_soi.wav	1	6	4	noise_calib_stim_RIGHT.wav	2	7	blb_dichoticlistening_da-ba.mp3	da	ba	1	left
6.6.1	win	2023-06-27	06:14:55	06:27:35	754648	5c190c311e18d10001eca667	1	1	main_slash	24	advance_on_keypress_SLASH	68	stimuli_distractor_diamondtriangles.svg	stimuli_target_trianglesquares.svg	30	yes	57	0	710	6	3	antiphase_hc_soi.wav	1	6	4	noise_calib_stim_RIGHT.wav	2	7	blb_dichoticlistening_da-ba.mp3	da	ba	1	left
6.6.1	win	2023-06-27	06:14:55	06:27:38	756790	5c190c311e18d10001eca667	1	1	main_slash	24	main_slash	69	stimuli_distractor_diamondtriangles.svg	stimuli_target_squarediamonds.svg	16	yes	53	1	792	6	3	antiphase_hc_soi.wav	1	6	4	noise_calib_stim_RIGHT.wav	2	7	blb_dichoticlistening_da-ba.mp3	da	ba	1	left
6.6.1	win	2023-06-27	06:14:55	06:27:38	756790	5c190c311e18d10001eca667	1	1	main_slash	24	advance_on_keypress_SLASH	70	stimuli_distractor_diamondtriangles.svg	stimuli_target_squarediamonds.svg	16	yes	57	0	248	6	3	antiphase_hc_soi.wav	1	6	4	noise_calib_stim_RIGHT.wav	2	7	blb_dichoticlistening_da-ba.mp3	da	ba	1	left
6.6.1	win	2023-06-27	06:14:55	06:27:40	759681	5c190c311e18d10001eca667	1	1	main_slash	24	main_slash	71	stimuli_distractor_trianglediamonds.svg	stimuli_distractor_trianglediamonds.svg	34	no	0	1	2000	6	3	antiphase_hc_soi.wav	1	6	4	noise_calib_stim_RIGHT.wav	2	7	blb_dichoticlistening_da-ba.mp3	da	ba	1	left
6.6.1	win	2023-06-27	06:14:55	06:27:40	759681	5c190c311e18d10001eca667	1	1	main_slash	24	advance_on_keypress_SLASH	72	stimuli_distractor_trianglediamonds.svg	stimuli_distractor_trianglediamonds.svg	34	no	57	0	212	6	3	antiphase_hc_soi.wav	1	6	4	noise_calib_stim_RIGHT.wav	2	7	blb_dichoticlistening_da-ba.mp3	da	ba	1	left
6.6.1	win	2023-06-27	06:14:55	06:27:42	761254	5c190c311e18d10001eca667	1	1	main_slash	24	main_slash	73	stimuli_target_squaretriangles.svg	stimuli_distractor_trianglediamonds.svg	3	yes	53	1	723	6	3	antiphase_hc_soi.wav	1	6	4	noise_calib_stim_RIGHT.wav	2	7	blb_dichoticlistening_da-ba.mp3	da	ba	1	left
6.6.1	win	2023-06-27	06:14:55	06:27:42	761254	5c190c311e18d10001eca667	1	1	main_slash	24	advance_on_keypress_SLASH	74	stimuli_target_squaretriangles.svg	stimuli_distractor_trianglediamonds.svg	3	yes	57	0	254	6	3	antiphase_hc_soi.wav	1	6	4	noise_calib_stim_RIGHT.wav	2	7	blb_dichoticlistening_da-ba.mp3	da	ba	1	left
6.6.1	win	2023-06-27	06:14:55	06:27:44	763054	5c190c311e18d10001eca667	1	1	main_slash	24	main_slash	75	stimuli_target_squaretriangles.svg	stimuli_distractor_diamondtriangles.svg	7	yes	53	1	906	6	3	antiphase_hc_soi.wav	1	6	4	noise_calib_stim_RIGHT.wav	2	7	blb_dichoticlistening_da-ba.mp3	da	ba	1	left
6.6.1	win	2023-06-27	06:14:55	06:27:44	763054	5c190c311e18d10001eca667	1	1	main_slash	24	advance_on_keypress_SLASH	76	stimuli_target_squaretriangles.svg	stimuli_distractor_diamondtriangles.svg	7	yes	57	0	277	6	3	antiphase_hc_soi.wav	1	6	4	noise_calib_stim_RIGHT.wav	2	7	blb_dichoticlistening_da-ba.mp3	da	ba	1	left
6.6.1	win	2023-06-27	06:14:55	06:27:46	764966	5c190c311e18d10001eca667	1	1	main_slash	24	main_slash	77	stimuli_target_rectangletriangles.svg	stimuli_distractor_diamondtriangles.svg	5	yes	53	1	1001	6	3	antiphase_hc_soi.wav	1	6	4	noise_calib_stim_RIGHT.wav	2	7	blb_dichoticlistening_da-ba.mp3	da	ba	1	left
6.6.1	win	2023-06-27	06:14:55	06:27:46	764966	5c190c311e18d10001eca667	1	1	main_slash	24	advance_on_keypress_SLASH	78	stimuli_target_rectangletriangles.svg	stimuli_distractor_diamondtriangles.svg	5	yes	57	0	305	6	3	antiphase_hc_soi.wav	1	6	4	noise_calib_stim_RIGHT.wav	2	7	blb_dichoticlistening_da-ba.mp3	da	ba	1	left
6.6.1	win	2023-06-27	06:14:55	06:27:49	767915	5c190c311e18d10001eca667	1	1	main_slash	24	main_slash	79	stimuli_distractor_trianglediamonds.svg	stimuli_distractor_diamondtriangles.svg	36	no	0	1	2000	6	3	antiphase_hc_soi.wav	1	6	4	noise_calib_stim_RIGHT.wav	2	7	blb_dichoticlistening_da-ba.mp3	da	ba	1	left
6.6.1	win	2023-06-27	06:14:55	06:27:49	767915	5c190c311e18d10001eca667	1	1	main_slash	24	advance_on_keypress_SLASH	80	stimuli_distractor_trianglediamonds.svg	stimuli_distractor_diamondtriangles.svg	36	no	57	0	643	6	3	antiphase_hc_soi.wav	1	6	4	noise_calib_stim_RIGHT.wav	2	7	blb_dichoticlistening_da-ba.mp3	da	ba	1	left
6.6.1	win	2023-06-27	06:14:55	06:27:51	770342	5c190c311e18d10001eca667	1	1	main_slash	24	main_slash	81	stimuli_target_diamondrectangles.svg	stimuli_distractor_trianglediamonds.svg	19	yes	53	1	1144	6	3	antiphase_hc_soi.wav	1	6	4	noise_calib_stim_RIGHT.wav	2	7	blb_dichoticlistening_da-ba.mp3	da	ba	1	left
6.6.1	win	2023-06-27	06:14:55	06:27:51	770342	5c190c311e18d10001eca667	1	1	main_slash	24	advance_on_keypress_SLASH	82	stimuli_target_diamondrectangles.svg	stimuli_distractor_trianglediamonds.svg	19	yes	57	0	234	6	3	antiphase_hc_soi.wav	1	6	4	noise_calib_stim_RIGHT.wav	2	7	blb_dichoticlistening_da-ba.mp3	da	ba	1	left
6.6.1	win	2023-06-27	06:14:55	06:27:53	772254	5c190c311e18d10001eca667	1	1	main_slash	24	main_slash	83	stimuli_target_trianglerectangles.svg	stimuli_distractor_diamondtriangles.svg	21	yes	53	1	1039	6	3	antiphase_hc_soi.wav	1	6	4	noise_calib_stim_RIGHT.wav	2	7	blb_dichoticlistening_da-ba.mp3	da	ba	1	left
6.6.1	win	2023-06-27	06:14:55	06:27:53	772254	5c190c311e18d10001eca667	1	1	main_slash	24	advance_on_keypress_SLASH	84	stimuli_target_trianglerectangles.svg	stimuli_distractor_diamondtriangles.svg	21	yes	57	0	253	6	3	antiphase_hc_soi.wav	1	6	4	noise_calib_stim_RIGHT.wav	2	7	blb_dichoticlistening_da-ba.mp3	da	ba	1	left
6.6.1	win	2023-06-27	06:14:55	06:27:55	774142	5c190c311e18d10001eca667	1	1	main_slash	24	main_slash	85	stimuli_target_diamondrectangles.svg	stimuli_distractor_diamondtriangles.svg	23	yes	53	1	994	6	3	antiphase_hc_soi.wav	1	6	4	noise_calib_stim_RIGHT.wav	2	7	blb_dichoticlistening_da-ba.mp3	da	ba	1	left
6.6.1	win	2023-06-27	06:14:55	06:27:55	774142	5c190c311e18d10001eca667	1	1	main_slash	24	advance_on_keypress_SLASH	86	stimuli_target_diamondrectangles.svg	stimuli_distractor_diamondtriangles.svg	23	yes	57	0	186	6	3	antiphase_hc_soi.wav	1	6	4	noise_calib_stim_RIGHT.wav	2	7	blb_dichoticlistening_da-ba.mp3	da	ba	1	left
6.6.1	win	2023-06-27	06:14:55	06:27:57	775910	5c190c311e18d10001eca667	1	1	main_slash	24	main_slash	87	stimuli_distractor_trianglediamonds.svg	stimuli_target_diamondrectangles.svg	27	yes	53	1	945	6	3	antiphase_hc_soi.wav	1	6	4	noise_calib_stim_RIGHT.wav	2	7	blb_dichoticlistening_da-ba.mp3	da	ba	1	left
6.6.1	win	2023-06-27	06:14:55	06:27:57	775910	5c190c311e18d10001eca667	1	1	main_slash	24	advance_on_keypress_SLASH	88	stimuli_distractor_trianglediamonds.svg	stimuli_target_diamondrectangles.svg	27	yes	57	0	203	6	3	antiphase_hc_soi.wav	1	6	4	noise_calib_stim_RIGHT.wav	2	7	blb_dichoticlistening_da-ba.mp3	da	ba	1	left
6.6.1	win	2023-06-27	06:14:55	06:27:59	777782	5c190c311e18d10001eca667	1	1	main_slash	24	main_slash	89	stimuli_distractor_diamondtriangles.svg	stimuli_target_diamondsquares.svg	32	yes	53	1	1034	6	3	antiphase_hc_soi.wav	1	6	4	noise_calib_stim_RIGHT.wav	2	7	blb_dichoticlistening_da-ba.mp3	da	ba	1	left
6.6.1	win	2023-06-27	06:14:55	06:27:59	777782	5c190c311e18d10001eca667	1	1	main_slash	24	advance_on_keypress_SLASH	90	stimuli_distractor_diamondtriangles.svg	stimuli_target_diamondsquares.svg	32	yes	57	0	184	6	3	antiphase_hc_soi.wav	1	6	4	noise_calib_stim_RIGHT.wav	2	7	blb_dichoticlistening_da-ba.mp3	da	ba	1	left
6.6.1	win	2023-06-27	06:14:55	06:28:00	779606	5c190c311e18d10001eca667	1	1	main_slash	24	main_slash	91	stimuli_target_squaretriangles.svg	stimuli_distractor_trianglediamonds.svg	3	yes	53	1	991	6	3	antiphase_hc_soi.wav	1	6	4	noise_calib_stim_RIGHT.wav	2	7	blb_dichoticlistening_da-ba.mp3	da	ba	1	left
6.6.1	win	2023-06-27	06:14:55	06:28:00	779606	5c190c311e18d10001eca667	1	1	main_slash	24	advance_on_keypress_SLASH	92	stimuli_target_squaretriangles.svg	stimuli_distractor_trianglediamonds.svg	3	yes	57	0	271	6	3	antiphase_hc_soi.wav	1	6	4	noise_calib_stim_RIGHT.wav	2	7	blb_dichoticlistening_da-ba.mp3	da	ba	1	left
6.6.1	win	2023-06-27	06:14:55	06:28:02	781541	5c190c311e18d10001eca667	1	1	main_slash	24	main_slash	93	stimuli_distractor_diamondtriangles.svg	stimuli_target_diamondrectangles.svg	31	yes	53	1	1027	6	3	antiphase_hc_soi.wav	1	6	4	noise_calib_stim_RIGHT.wav	2	7	blb_dichoticlistening_da-ba.mp3	da	ba	1	left
6.6.1	win	2023-06-27	06:14:55	06:28:02	781541	5c190c311e18d10001eca667	1	1	main_slash	24	advance_on_keypress_SLASH	94	stimuli_distractor_diamondtriangles.svg	stimuli_target_diamondrectangles.svg	31	yes	57	0	185	6	3	antiphase_hc_soi.wav	1	6	4	noise_calib_stim_RIGHT.wav	2	7	blb_dichoticlistening_da-ba.mp3	da	ba	1	left
6.6.1	win	2023-06-27	06:14:55	06:28:05	784365	5c190c311e18d10001eca667	1	1	main_slash	24	main_slash	95	stimuli_distractor_trianglediamonds.svg	stimuli_target_squaretriangles.svg	11	yes	0	0	2000	6	3	antiphase_hc_soi.wav	1	6	4	noise_calib_stim_RIGHT.wav	2	7	blb_dichoticlistening_da-ba.mp3	da	ba	1	left
6.6.1	win	2023-06-27	06:14:55	06:28:05	784365	5c190c311e18d10001eca667	1	1	main_slash	24	advance_on_keypress_SLASH	96	stimuli_distractor_trianglediamonds.svg	stimuli_target_squaretriangles.svg	11	yes	57	0	584	6	3	antiphase_hc_soi.wav	1	6	4	noise_calib_stim_RIGHT.wav	2	7	blb_dichoticlistening_da-ba.mp3	da	ba	1	left
6.6.1	win	2023-06-27	06:14:55	06:28:07	786213	5c190c311e18d10001eca667	1	1	main_slash	24	main_slash	97	stimuli_target_squarediamonds.svg	stimuli_distractor_trianglediamonds.svg	4	yes	53	1	615	6	3	antiphase_hc_soi.wav	1	6	4	noise_calib_stim_RIGHT.wav	2	7	blb_dichoticlistening_da-ba.mp3	da	ba	1	left
6.6.1	win	2023-06-27	06:14:55	06:28:07	786213	5c190c311e18d10001eca667	1	1	main_slash	24	advance_on_keypress_SLASH	98	stimuli_target_squarediamonds.svg	stimuli_distractor_trianglediamonds.svg	4	yes	57	0	158	6	3	antiphase_hc_soi.wav	1	6	4	noise_calib_stim_RIGHT.wav	2	7	blb_dichoticlistening_da-ba.mp3	da	ba	1	left
6.6.1	win	2023-06-27	06:14:55	06:28:09	788213	5c190c311e18d10001eca667	1	1	main_slash	24	main_slash	99	stimuli_distractor_diamondtriangles.svg	stimuli_distractor_diamondtriangles.svg	39	no	53	0	1199	6	3	antiphase_hc_soi.wav	1	6	4	noise_calib_stim_RIGHT.wav	2	7	blb_dichoticlistening_da-ba.mp3	da	ba	1	left
6.6.1	win	2023-06-27	06:14:55	06:28:09	788213	5c190c311e18d10001eca667	1	1	main_slash	24	advance_on_keypress_SLASH	100	stimuli_distractor_diamondtriangles.svg	stimuli_distractor_diamondtriangles.svg	39	no	57	0	158	6	3	antiphase_hc_soi.wav	1	6	4	noise_calib_stim_RIGHT.wav	2	7	blb_dichoticlistening_da-ba.mp3	da	ba	1	left
6.6.1	win	2023-06-27	06:14:55	06:28:11	790573	5c190c311e18d10001eca667	1	1	main_slash	24	main_slash	101	stimuli_target_rectangletriangles.svg	stimuli_distractor_trianglediamonds.svg	1	yes	53	1	1558	6	3	antiphase_hc_soi.wav	1	6	4	noise_calib_stim_RIGHT.wav	2	7	blb_dichoticlistening_da-ba.mp3	da	ba	1	left
6.6.1	win	2023-06-27	06:14:55	06:28:11	790573	5c190c311e18d10001eca667	1	1	main_slash	24	advance_on_keypress_SLASH	102	stimuli_target_rectangletriangles.svg	stimuli_distractor_trianglediamonds.svg	1	yes	57	0	24	6	3	antiphase_hc_soi.wav	1	6	4	noise_calib_stim_RIGHT.wav	2	7	blb_dichoticlistening_da-ba.mp3	da	ba	1	left
6.6.1	win	2023-06-27	06:14:55	06:28:14	793232	5c190c311e18d10001eca667	1	1	main_slash	24	main_slash	103	stimuli_distractor_diamondtriangles.svg	stimuli_distractor_trianglediamonds.svg	37	no	0	1	2000	6	3	antiphase_hc_soi.wav	1	6	4	noise_calib_stim_RIGHT.wav	2	7	blb_dichoticlistening_da-ba.mp3	da	ba	1	left
6.6.1	win	2023-06-27	06:14:55	06:28:14	793232	5c190c311e18d10001eca667	1	1	main_slash	24	advance_on_keypress_SLASH	104	stimuli_distractor_diamondtriangles.svg	stimuli_distractor_trianglediamonds.svg	37	no	57	0	677	6	3	antiphase_hc_soi.wav	1	6	4	noise_calib_stim_RIGHT.wav	2	7	blb_dichoticlistening_da-ba.mp3	da	ba	1	left
6.6.1	win	2023-06-27	06:14:55	06:28:16	795413	5c190c311e18d10001eca667	1	1	main_slash	24	main_slash	105	stimuli_target_trianglesquares.svg	stimuli_distractor_diamondtriangles.svg	22	yes	53	1	865	6	3	antiphase_hc_soi.wav	1	6	4	noise_calib_stim_RIGHT.wav	2	7	blb_dichoticlistening_da-ba.mp3	da	ba	1	left
6.6.1	win	2023-06-27	06:14:55	06:28:16	795413	5c190c311e18d10001eca667	1	1	main_slash	24	advance_on_keypress_SLASH	106	stimuli_target_trianglesquares.svg	stimuli_distractor_diamondtriangles.svg	22	yes	57	0	181	6	3	antiphase_hc_soi.wav	1	6	4	noise_calib_stim_RIGHT.wav	2	7	blb_dichoticlistening_da-ba.mp3	da	ba	1	left
6.6.1	win	2023-06-27	06:14:55	06:28:19	798249	5c190c311e18d10001eca667	1	1	main_slash	24	main_slash	107	stimuli_distractor_trianglediamonds.svg	stimuli_distractor_diamondtriangles.svg	36	no	0	1	2000	6	3	antiphase_hc_soi.wav	1	6	4	noise_calib_stim_RIGHT.wav	2	7	blb_dichoticlistening_da-ba.mp3	da	ba	1	left
6.6.1	win	2023-06-27	06:14:55	06:28:19	798249	5c190c311e18d10001eca667	1	1	main_slash	24	advance_on_keypress_SLASH	108	stimuli_distractor_trianglediamonds.svg	stimuli_distractor_diamondtriangles.svg	36	no	57	0	563	6	3	antiphase_hc_soi.wav	1	6	4	noise_calib_stim_RIGHT.wav	2	7	blb_dichoticlistening_da-ba.mp3	da	ba	1	left
6.6.1	win	2023-06-27	06:14:55	06:28:22	801449	5c190c311e18d10001eca667	1	1	main_slash	24	main_slash	109	stimuli_target_trianglesquares.svg	stimuli_distractor_trianglediamonds.svg	18	yes	0	0	2000	6	3	antiphase_hc_soi.wav	1	6	4	noise_calib_stim_RIGHT.wav	2	7	blb_dichoticlistening_da-ba.mp3	da	ba	1	left
6.6.1	win	2023-06-27	06:14:55	06:28:22	801449	5c190c311e18d10001eca667	1	1	main_slash	24	advance_on_keypress_SLASH	110	stimuli_target_trianglesquares.svg	stimuli_distractor_trianglediamonds.svg	18	yes	57	0	427	6	3	antiphase_hc_soi.wav	1	6	4	noise_calib_stim_RIGHT.wav	2	7	blb_dichoticlistening_da-ba.mp3	da	ba	1	left
6.6.1	win	2023-06-27	06:14:55	06:28:24	803517	5c190c311e18d10001eca667	1	1	main_slash	24	main_slash	111	stimuli_target_trianglerectangles.svg	stimuli_distractor_trianglediamonds.svg	17	yes	53	1	1001	6	3	antiphase_hc_soi.wav	1	6	4	noise_calib_stim_RIGHT.wav	2	7	blb_dichoticlistening_da-ba.mp3	da	ba	1	left
6.6.1	win	2023-06-27	06:14:55	06:28:24	803517	5c190c311e18d10001eca667	1	1	main_slash	24	advance_on_keypress_SLASH	112	stimuli_target_trianglerectangles.svg	stimuli_distractor_trianglediamonds.svg	17	yes	57	0	160	6	3	antiphase_hc_soi.wav	1	6	4	noise_calib_stim_RIGHT.wav	2	7	blb_dichoticlistening_da-ba.mp3	da	ba	1	left
6.6.1	win	2023-06-27	06:14:55	06:28:27	806316	5c190c311e18d10001eca667	1	1	main_slash	24	main_slash	113	stimuli_distractor_trianglediamonds.svg	stimuli_target_rectangletriangles.svg	9	yes	0	0	2000	6	3	antiphase_hc_soi.wav	1	6	4	noise_calib_stim_RIGHT.wav	2	7	blb_dichoticlistening_da-ba.mp3	da	ba	1	left
6.6.1	win	2023-06-27	06:14:55	06:28:27	806316	5c190c311e18d10001eca667	1	1	main_slash	24	advance_on_keypress_SLASH	114	stimuli_distractor_trianglediamonds.svg	stimuli_target_rectangletriangles.svg	9	yes	57	0	536	6	3	antiphase_hc_soi.wav	1	6	4	noise_calib_stim_RIGHT.wav	2	7	blb_dichoticlistening_da-ba.mp3	da	ba	1	left
6.6.1	win	2023-06-27	06:14:55	06:28:29	808653	5c190c311e18d10001eca667	1	1	main_slash	24	main_slash	115	stimuli_target_squaretriangles.svg	stimuli_distractor_diamondtriangles.svg	7	yes	53	1	1153	6	3	antiphase_hc_soi.wav	1	6	4	noise_calib_stim_RIGHT.wav	2	7	blb_dichoticlistening_da-ba.mp3	da	ba	1	left
6.6.1	win	2023-06-27	06:14:55	06:28:29	808653	5c190c311e18d10001eca667	1	1	main_slash	24	advance_on_keypress_SLASH	116	stimuli_target_squaretriangles.svg	stimuli_distractor_diamondtriangles.svg	7	yes	57	0	179	6	3	antiphase_hc_soi.wav	1	6	4	noise_calib_stim_RIGHT.wav	2	7	blb_dichoticlistening_da-ba.mp3	da	ba	1	left
6.6.1	win	2023-06-27	06:14:55	06:28:31	810381	5c190c311e18d10001eca667	1	1	main_slash	24	main_slash	117	stimuli_target_squarediamonds.svg	stimuli_distractor_diamondtriangles.svg	8	yes	53	1	915	6	3	antiphase_hc_soi.wav	1	6	4	noise_calib_stim_RIGHT.wav	2	7	blb_dichoticlistening_da-ba.mp3	da	ba	1	left
6.6.1	win	2023-06-27	06:14:55	06:28:31	810381	5c190c311e18d10001eca667	1	1	main_slash	24	advance_on_keypress_SLASH	118	stimuli_target_squarediamonds.svg	stimuli_distractor_diamondtriangles.svg	8	yes	57	0	189	6	3	antiphase_hc_soi.wav	1	6	4	noise_calib_stim_RIGHT.wav	2	7	blb_dichoticlistening_da-ba.mp3	da	ba	1	left
6.6.1	win	2023-06-27	06:14:55	06:28:34	813216	5c190c311e18d10001eca667	1	1	main_slash	24	main_slash	119	stimuli_distractor_diamondtriangles.svg	stimuli_distractor_diamondtriangles.svg	40	no	0	1	2000	6	3	antiphase_hc_soi.wav	1	6	4	noise_calib_stim_RIGHT.wav	2	7	blb_dichoticlistening_da-ba.mp3	da	ba	1	left
6.6.1	win	2023-06-27	06:14:55	06:28:34	813216	5c190c311e18d10001eca667	1	1	main_slash	24	advance_on_keypress_SLASH	120	stimuli_distractor_diamondtriangles.svg	stimuli_distractor_diamondtriangles.svg	40	no	57	0	1076	6	3	antiphase_hc_soi.wav	1	6	4	noise_calib_stim_RIGHT.wav	2	7	blb_dichoticlistening_da-ba.mp3	da	ba	1	left
6.6.1	win	2023-06-27	06:14:55	06:28:37	815805	5c190c311e18d10001eca667	1	1	main_slash	24	main_slash	121	stimuli_distractor_diamondtriangles.svg	stimuli_target_trianglesquares.svg	30	yes	53	1	872	6	3	antiphase_hc_soi.wav	1	6	4	noise_calib_stim_RIGHT.wav	2	7	blb_dichoticlistening_da-ba.mp3	da	ba	1	left
6.6.1	win	2023-06-27	06:14:55	06:28:37	815805	5c190c311e18d10001eca667	1	1	main_slash	24	advance_on_keypress_SLASH	122	stimuli_distractor_diamondtriangles.svg	stimuli_target_trianglesquares.svg	30	yes	57	0	60	6	3	antiphase_hc_soi.wav	1	6	4	noise_calib_stim_RIGHT.wav	2	7	blb_dichoticlistening_da-ba.mp3	da	ba	1	left
6.6.1	win	2023-06-27	06:14:55	06:28:39	818500	5c190c311e18d10001eca667	1	1	main_slash	24	main_slash	123	stimuli_distractor_diamondtriangles.svg	stimuli_target_squarediamonds.svg	16	yes	0	0	2000	6	3	antiphase_hc_soi.wav	1	6	4	noise_calib_stim_RIGHT.wav	2	7	blb_dichoticlistening_da-ba.mp3	da	ba	1	left
6.6.1	win	2023-06-27	06:14:55	06:28:39	818500	5c190c311e18d10001eca667	1	1	main_slash	24	advance_on_keypress_SLASH	124	stimuli_distractor_diamondtriangles.svg	stimuli_target_squarediamonds.svg	16	yes	57	0	728	6	3	antiphase_hc_soi.wav	1	6	4	noise_calib_stim_RIGHT.wav	2	7	blb_dichoticlistening_da-ba.mp3	da	ba	1	left
6.6.1	win	2023-06-27	06:14:55	06:28:42	820925	5c190c311e18d10001eca667	1	1	main_slash	24	main_slash	125	stimuli_distractor_diamondtriangles.svg	stimuli_distractor_trianglediamonds.svg	38	no	53	0	1058	6	3	antiphase_hc_soi.wav	1	6	4	noise_calib_stim_RIGHT.wav	2	7	blb_dichoticlistening_da-ba.mp3	da	ba	1	left
6.6.1	win	2023-06-27	06:14:55	06:28:42	820925	5c190c311e18d10001eca667	1	1	main_slash	24	advance_on_keypress_SLASH	126	stimuli_distractor_diamondtriangles.svg	stimuli_distractor_trianglediamonds.svg	38	no	57	0	184	6	3	antiphase_hc_soi.wav	1	6	4	noise_calib_stim_RIGHT.wav	2	7	blb_dichoticlistening_da-ba.mp3	da	ba	1	left
6.6.1	win	2023-06-27	06:14:55	06:28:45	823750	5c190c311e18d10001eca667	1	1	main_slash	24	main_slash	127	stimuli_target_diamondsquares.svg	stimuli_distractor_trianglediamonds.svg	20	yes	0	0	2000	6	3	antiphase_hc_soi.wav	1	6	4	noise_calib_stim_RIGHT.wav	2	7	blb_dichoticlistening_da-ba.mp3	da	ba	1	left
6.6.1	win	2023-06-27	06:14:55	06:28:45	823750	5c190c311e18d10001eca667	1	1	main_slash	24	advance_on_keypress_SLASH	128	stimuli_target_diamondsquares.svg	stimuli_distractor_trianglediamonds.svg	20	yes	57	0	558	6	3	antiphase_hc_soi.wav	1	6	4	noise_calib_stim_RIGHT.wav	2	7	blb_dichoticlistening_da-ba.mp3	da	ba	1	left
6.6.1	win	2023-06-27	06:14:55	06:28:47	825917	5c190c311e18d10001eca667	1	1	main_slash	24	main_slash	129	stimuli_target_rectangletriangles.svg	stimuli_distractor_diamondtriangles.svg	5	yes	53	1	967	6	3	antiphase_hc_soi.wav	1	6	4	noise_calib_stim_RIGHT.wav	2	7	blb_dichoticlistening_da-ba.mp3	da	ba	1	left
6.6.1	win	2023-06-27	06:14:55	06:28:47	825917	5c190c311e18d10001eca667	1	1	main_slash	24	advance_on_keypress_SLASH	130	stimuli_target_rectangletriangles.svg	stimuli_distractor_diamondtriangles.svg	5	yes	57	0	223	6	3	antiphase_hc_soi.wav	1	6	4	noise_calib_stim_RIGHT.wav	2	7	blb_dichoticlistening_da-ba.mp3	da	ba	1	left
6.6.1	win	2023-06-27	06:14:55	06:28:50	828784	5c190c311e18d10001eca667	1	1	main_slash	24	main_slash	131	stimuli_distractor_trianglediamonds.svg	stimuli_target_squarediamonds.svg	12	yes	0	0	2000	6	3	antiphase_hc_soi.wav	1	6	4	noise_calib_stim_RIGHT.wav	2	7	blb_dichoticlistening_da-ba.mp3	da	ba	1	left
6.6.1	win	2023-06-27	06:14:55	06:28:50	828784	5c190c311e18d10001eca667	1	1	main_slash	24	advance_on_keypress_SLASH	132	stimuli_distractor_trianglediamonds.svg	stimuli_target_squarediamonds.svg	12	yes	57	0	477	6	3	antiphase_hc_soi.wav	1	6	4	noise_calib_stim_RIGHT.wav	2	7	blb_dichoticlistening_da-ba.mp3	da	ba	1	left
6.6.1	win	2023-06-27	06:14:55	06:28:52	830805	5c190c311e18d10001eca667	1	1	main_slash	24	main_slash	133	stimuli_distractor_trianglediamonds.svg	stimuli_target_trianglerectangles.svg	25	yes	53	1	905	6	3	antiphase_hc_soi.wav	1	6	4	noise_calib_stim_RIGHT.wav	2	7	blb_dichoticlistening_da-ba.mp3	da	ba	1	left
6.6.1	win	2023-06-27	06:14:55	06:28:52	830805	5c190c311e18d10001eca667	1	1	main_slash	24	advance_on_keypress_SLASH	134	stimuli_distractor_trianglediamonds.svg	stimuli_target_trianglerectangles.svg	25	yes	57	0	188	6	3	antiphase_hc_soi.wav	1	6	4	noise_calib_stim_RIGHT.wav	2	7	blb_dichoticlistening_da-ba.mp3	da	ba	1	left
6.6.1	win	2023-06-27	06:14:55	06:28:54	833634	5c190c311e18d10001eca667	1	1	main_slash	24	main_slash	135	stimuli_distractor_trianglediamonds.svg	stimuli_distractor_diamondtriangles.svg	35	no	0	1	2000	6	3	antiphase_hc_soi.wav	1	6	4	noise_calib_stim_RIGHT.wav	2	7	blb_dichoticlistening_da-ba.mp3	da	ba	1	left
6.6.1	win	2023-06-27	06:14:55	06:28:54	833634	5c190c311e18d10001eca667	1	1	main_slash	24	advance_on_keypress_SLASH	136	stimuli_distractor_trianglediamonds.svg	stimuli_distractor_diamondtriangles.svg	35	no	57	0	522	6	3	antiphase_hc_soi.wav	1	6	4	noise_calib_stim_RIGHT.wav	2	7	blb_dichoticlistening_da-ba.mp3	da	ba	1	left
6.6.1	win	2023-06-27	06:14:55	06:28:57	835772	5c190c311e18d10001eca667	1	1	main_slash	24	main_slash	137	stimuli_distractor_diamondtriangles.svg	stimuli_target_squaretriangles.svg	15	yes	53	1	972	6	3	antiphase_hc_soi.wav	1	6	4	noise_calib_stim_RIGHT.wav	2	7	blb_dichoticlistening_da-ba.mp3	da	ba	1	left
6.6.1	win	2023-06-27	06:14:55	06:28:57	835772	5c190c311e18d10001eca667	1	1	main_slash	24	advance_on_keypress_SLASH	138	stimuli_distractor_diamondtriangles.svg	stimuli_target_squaretriangles.svg	15	yes	57	0	181	6	3	antiphase_hc_soi.wav	1	6	4	noise_calib_stim_RIGHT.wav	2	7	blb_dichoticlistening_da-ba.mp3	da	ba	1	left
6.6.1	win	2023-06-27	06:14:55	06:28:59	837804	5c190c311e18d10001eca667	1	1	main_slash	24	main_slash	139	stimuli_distractor_trianglediamonds.svg	stimuli_target_diamondsquares.svg	28	yes	53	1	1221	6	3	antiphase_hc_soi.wav	1	6	4	noise_calib_stim_RIGHT.wav	2	7	blb_dichoticlistening_da-ba.mp3	da	ba	1	left
6.6.1	win	2023-06-27	06:14:55	06:28:59	837804	5c190c311e18d10001eca667	1	1	main_slash	24	advance_on_keypress_SLASH	140	stimuli_distractor_trianglediamonds.svg	stimuli_target_diamondsquares.svg	28	yes	57	0	164	6	3	antiphase_hc_soi.wav	1	6	4	noise_calib_stim_RIGHT.wav	2	7	blb_dichoticlistening_da-ba.mp3	da	ba	1	left
6.6.1	win	2023-06-27	06:14:55	06:29:01	840601	5c190c311e18d10001eca667	1	1	main_slash	24	main_slash	141	stimuli_target_rectanglediamonds.svg	stimuli_distractor_trianglediamonds.svg	2	yes	0	0	2000	6	3	antiphase_hc_soi.wav	1	6	4	noise_calib_stim_RIGHT.wav	2	7	blb_dichoticlistening_da-ba.mp3	da	ba	1	left
6.6.1	win	2023-06-27	06:14:55	06:29:01	840601	5c190c311e18d10001eca667	1	1	main_slash	24	advance_on_keypress_SLASH	142	stimuli_target_rectanglediamonds.svg	stimuli_distractor_trianglediamonds.svg	2	yes	57	0	1099	6	3	antiphase_hc_soi.wav	1	6	4	noise_calib_stim_RIGHT.wav	2	7	blb_dichoticlistening_da-ba.mp3	da	ba	1	left
6.6.1	win	2023-06-27	06:14:55	06:29:05	844351	5c190c311e18d10001eca667	1	1	main_slash	24	main_slash	143	stimuli_distractor_trianglediamonds.svg	stimuli_distractor_trianglediamonds.svg	34	no	0	1	2000	6	3	antiphase_hc_soi.wav	1	6	4	noise_calib_stim_RIGHT.wav	2	7	blb_dichoticlistening_da-ba.mp3	da	ba	1	left
6.6.1	win	2023-06-27	06:14:55	06:29:05	844351	5c190c311e18d10001eca667	1	1	main_slash	24	advance_on_keypress_SLASH	144	stimuli_distractor_trianglediamonds.svg	stimuli_distractor_trianglediamonds.svg	34	no	57	0	501	6	3	antiphase_hc_soi.wav	1	6	4	noise_calib_stim_RIGHT.wav	2	7	blb_dichoticlistening_da-ba.mp3	da	ba	1	left
6.6.1	win	2023-06-27	06:14:55	06:29:08	846828	5c190c311e18d10001eca667	1	1	main_slash	24	main_slash	145	stimuli_distractor_diamondtriangles.svg	stimuli_target_rectanglediamonds.svg	14	yes	53	1	1327	6	3	antiphase_hc_soi.wav	1	6	4	noise_calib_stim_RIGHT.wav	2	7	blb_dichoticlistening_da-ba.mp3	da	ba	1	left
6.6.1	win	2023-06-27	06:14:55	06:29:08	846828	5c190c311e18d10001eca667	1	1	main_slash	24	advance_on_keypress_SLASH	146	stimuli_distractor_diamondtriangles.svg	stimuli_target_rectanglediamonds.svg	14	yes	57	0	177	6	3	antiphase_hc_soi.wav	1	6	4	noise_calib_stim_RIGHT.wav	2	7	blb_dichoticlistening_da-ba.mp3	da	ba	1	left
6.6.1	win	2023-06-27	06:14:55	06:29:09	848556	5c190c311e18d10001eca667	1	1	main_slash	24	main_slash	147	stimuli_distractor_trianglediamonds.svg	stimuli_target_trianglesquares.svg	26	yes	53	1	921	6	3	antiphase_hc_soi.wav	1	6	4	noise_calib_stim_RIGHT.wav	2	7	blb_dichoticlistening_da-ba.mp3	da	ba	1	left
6.6.1	win	2023-06-27	06:14:55	06:29:09	848556	5c190c311e18d10001eca667	1	1	main_slash	24	advance_on_keypress_SLASH	148	stimuli_distractor_trianglediamonds.svg	stimuli_target_trianglesquares.svg	26	yes	57	0	204	6	3	antiphase_hc_soi.wav	1	6	4	noise_calib_stim_RIGHT.wav	2	7	blb_dichoticlistening_da-ba.mp3	da	ba	1	left
6.6.1	win	2023-06-27	06:14:55	06:29:11	850196	5c190c311e18d10001eca667	1	1	main_slash	24	main_slash	149	stimuli_distractor_diamondtriangles.svg	stimuli_target_rectangletriangles.svg	13	yes	53	1	795	6	3	antiphase_hc_soi.wav	1	6	4	noise_calib_stim_RIGHT.wav	2	7	blb_dichoticlistening_da-ba.mp3	da	ba	1	left
6.6.1	win	2023-06-27	06:14:55	06:29:11	850196	5c190c311e18d10001eca667	1	1	main_slash	24	advance_on_keypress_SLASH	150	stimuli_distractor_diamondtriangles.svg	stimuli_target_rectangletriangles.svg	13	yes	57	0	211	6	3	antiphase_hc_soi.wav	1	6	4	noise_calib_stim_RIGHT.wav	2	7	blb_dichoticlistening_da-ba.mp3	da	ba	1	left
6.6.1	win	2023-06-27	06:14:55	06:29:13	851876	5c190c311e18d10001eca667	1	1	main_slash	24	main_slash	151	stimuli_distractor_trianglediamonds.svg	stimuli_target_rectanglediamonds.svg	10	yes	53	1	841	6	3	antiphase_hc_soi.wav	1	6	4	noise_calib_stim_RIGHT.wav	2	7	blb_dichoticlistening_da-ba.mp3	da	ba	1	left
6.6.1	win	2023-06-27	06:14:55	06:29:13	851876	5c190c311e18d10001eca667	1	1	main_slash	24	advance_on_keypress_SLASH	152	stimuli_distractor_trianglediamonds.svg	stimuli_target_rectanglediamonds.svg	10	yes	57	0	231	6	3	antiphase_hc_soi.wav	1	6	4	noise_calib_stim_RIGHT.wav	2	7	blb_dichoticlistening_da-ba.mp3	da	ba	1	left
6.6.1	win	2023-06-27	06:14:55	06:29:14	853636	5c190c311e18d10001eca667	1	1	main_slash	24	main_slash	153	stimuli_distractor_diamondtriangles.svg	stimuli_target_trianglerectangles.svg	29	yes	53	1	885	6	3	antiphase_hc_soi.wav	1	6	4	noise_calib_stim_RIGHT.wav	2	7	blb_dichoticlistening_da-ba.mp3	da	ba	1	left
6.6.1	win	2023-06-27	06:14:55	06:29:14	853636	5c190c311e18d10001eca667	1	1	main_slash	24	advance_on_keypress_SLASH	154	stimuli_distractor_diamondtriangles.svg	stimuli_target_trianglerectangles.svg	29	yes	57	0	201	6	3	antiphase_hc_soi.wav	1	6	4	noise_calib_stim_RIGHT.wav	2	7	blb_dichoticlistening_da-ba.mp3	da	ba	1	left
6.6.1	win	2023-06-27	06:14:55	06:29:17	856485	5c190c311e18d10001eca667	1	1	main_slash	24	main_slash	155	stimuli_distractor_trianglediamonds.svg	stimuli_distractor_trianglediamonds.svg	33	no	0	1	2000	6	3	antiphase_hc_soi.wav	1	6	4	noise_calib_stim_RIGHT.wav	2	7	blb_dichoticlistening_da-ba.mp3	da	ba	1	left
6.6.1	win	2023-06-27	06:14:55	06:29:17	856485	5c190c311e18d10001eca667	1	1	main_slash	24	advance_on_keypress_SLASH	156	stimuli_distractor_trianglediamonds.svg	stimuli_distractor_trianglediamonds.svg	33	no	57	0	455	6	3	antiphase_hc_soi.wav	1	6	4	noise_calib_stim_RIGHT.wav	2	7	blb_dichoticlistening_da-ba.mp3	da	ba	1	left
6.6.1	win	2023-06-27	06:14:55	06:29:19	858252	5c190c311e18d10001eca667	1	1	main_slash	24	main_slash	157	stimuli_target_rectanglediamonds.svg	stimuli_distractor_diamondtriangles.svg	6	yes	53	1	667	6	3	antiphase_hc_soi.wav	1	6	4	noise_calib_stim_RIGHT.wav	2	7	blb_dichoticlistening_da-ba.mp3	da	ba	1	left
6.6.1	win	2023-06-27	06:14:55	06:29:19	858252	5c190c311e18d10001eca667	1	1	main_slash	24	advance_on_keypress_SLASH	158	stimuli_target_rectanglediamonds.svg	stimuli_distractor_diamondtriangles.svg	6	yes	57	0	216	6	3	antiphase_hc_soi.wav	1	6	4	noise_calib_stim_RIGHT.wav	2	7	blb_dichoticlistening_da-ba.mp3	da	ba	1	left
6.6.1	win	2023-06-27	06:14:55	06:29:22	861118	5c190c311e18d10001eca667	1	1	main_slash	24	main_slash	159	stimuli_target_diamondsquares.svg	stimuli_distractor_diamondtriangles.svg	24	yes	0	0	2000	6	3	antiphase_hc_soi.wav	1	6	4	noise_calib_stim_RIGHT.wav	2	7	blb_dichoticlistening_da-ba.mp3	da	ba	1	left
6.6.1	win	2023-06-27	06:14:55	06:29:22	861118	5c190c311e18d10001eca667	1	1	main_slash	24	advance_on_keypress_SLASH	160	stimuli_target_diamondsquares.svg	stimuli_distractor_diamondtriangles.svg	24	yes	57	0	733	6	3	antiphase_hc_soi.wav	1	6	4	noise_calib_stim_RIGHT.wav	2	7	blb_dichoticlistening_da-ba.mp3	da	ba	1	left
6.6.1	win	2023-06-27	06:14:55	06:29:48	886787	5c190c311e18d10001eca667	1	1	practice_z	26	practice_z	1	stimuli_distractor_trianglediamonds.svg	stimuli_distractor_trianglediamonds.svg	15	no	0	1	2000	6	3	antiphase_hc_soi.wav	1	6	4	noise_calib_stim_RIGHT.wav	2	7	blb_dichoticlistening_da-ba.mp3	da	ba	1	left
6.6.1	win	2023-06-27	06:14:55	06:29:48	886787	5c190c311e18d10001eca667	1	1	practice_z	26	advance_on_keypress_ZEE	2	stimuli_distractor_trianglediamonds.svg	stimuli_distractor_trianglediamonds.svg	15	no	57	0	585	6	3	antiphase_hc_soi.wav	1	6	4	noise_calib_stim_RIGHT.wav	2	7	blb_dichoticlistening_da-ba.mp3	da	ba	1	left
6.6.1	win	2023-06-27	06:14:55	06:29:51	889764	5c190c311e18d10001eca667	1	1	practice_z	26	practice_z	3	stimuli_target_rectanglediamonds.svg	stimuli_distractor_diamondtriangles.svg	1	yes	44	1	745	6	3	antiphase_hc_soi.wav	1	6	4	noise_calib_stim_RIGHT.wav	2	7	blb_dichoticlistening_da-ba.mp3	da	ba	1	left
6.6.1	win	2023-06-27	06:14:55	06:29:51	889764	5c190c311e18d10001eca667	1	1	practice_z	26	advance_on_keypress_ZEE	4	stimuli_target_rectanglediamonds.svg	stimuli_distractor_diamondtriangles.svg	1	yes	57	0	354	6	3	antiphase_hc_soi.wav	1	6	4	noise_calib_stim_RIGHT.wav	2	7	blb_dichoticlistening_da-ba.mp3	da	ba	1	left
6.6.1	win	2023-06-27	06:14:55	06:29:53	892660	5c190c311e18d10001eca667	1	1	practice_z	26	practice_z	5	stimuli_distractor_diamondtriangles.svg	stimuli_target_trianglerectangles.svg	9	yes	44	1	907	6	3	antiphase_hc_soi.wav	1	6	4	noise_calib_stim_RIGHT.wav	2	7	blb_dichoticlistening_da-ba.mp3	da	ba	1	left
6.6.1	win	2023-06-27	06:14:55	06:29:53	892660	5c190c311e18d10001eca667	1	1	practice_z	26	advance_on_keypress_ZEE	6	stimuli_distractor_diamondtriangles.svg	stimuli_target_trianglerectangles.svg	9	yes	57	0	502	6	3	antiphase_hc_soi.wav	1	6	4	noise_calib_stim_RIGHT.wav	2	7	blb_dichoticlistening_da-ba.mp3	da	ba	1	left
6.6.1	win	2023-06-27	06:14:55	06:29:56	895620	5c190c311e18d10001eca667	1	1	practice_z	26	practice_z	7	stimuli_target_rectanglediamonds.svg	stimuli_distractor_trianglediamonds.svg	4	yes	44	1	817	6	3	antiphase_hc_soi.wav	1	6	4	noise_calib_stim_RIGHT.wav	2	7	blb_dichoticlistening_da-ba.mp3	da	ba	1	left
6.6.1	win	2023-06-27	06:14:55	06:29:56	895620	5c190c311e18d10001eca667	1	1	practice_z	26	advance_on_keypress_ZEE	8	stimuli_target_rectanglediamonds.svg	stimuli_distractor_trianglediamonds.svg	4	yes	57	0	432	6	3	antiphase_hc_soi.wav	1	6	4	noise_calib_stim_RIGHT.wav	2	7	blb_dichoticlistening_da-ba.mp3	da	ba	1	left
6.6.1	win	2023-06-27	06:14:55	06:30:00	898724	5c190c311e18d10001eca667	1	1	practice_z	26	practice_z	9	stimuli_target_diamondsquares.svg	stimuli_distractor_trianglediamonds.svg	6	yes	44	1	1020	6	3	antiphase_hc_soi.wav	1	6	4	noise_calib_stim_RIGHT.wav	2	7	blb_dichoticlistening_da-ba.mp3	da	ba	1	left
6.6.1	win	2023-06-27	06:14:55	06:30:00	898724	5c190c311e18d10001eca667	1	1	practice_z	26	advance_on_keypress_ZEE	10	stimuli_target_diamondsquares.svg	stimuli_distractor_trianglediamonds.svg	6	yes	57	0	442	6	3	antiphase_hc_soi.wav	1	6	4	noise_calib_stim_RIGHT.wav	2	7	blb_dichoticlistening_da-ba.mp3	da	ba	1	left
6.6.1	win	2023-06-27	06:14:55	06:30:02	901684	5c190c311e18d10001eca667	1	1	practice_z	26	practice_z	11	stimuli_distractor_diamondtriangles.svg	stimuli_target_rectangletriangles.svg	7	yes	44	1	880	6	3	antiphase_hc_soi.wav	1	6	4	noise_calib_stim_RIGHT.wav	2	7	blb_dichoticlistening_da-ba.mp3	da	ba	1	left
6.6.1	win	2023-06-27	06:14:55	06:30:02	901684	5c190c311e18d10001eca667	1	1	practice_z	26	advance_on_keypress_ZEE	12	stimuli_distractor_diamondtriangles.svg	stimuli_target_rectangletriangles.svg	7	yes	57	0	252	6	3	antiphase_hc_soi.wav	1	6	4	noise_calib_stim_RIGHT.wav	2	7	blb_dichoticlistening_da-ba.mp3	da	ba	1	left
6.6.1	win	2023-06-27	06:14:55	06:30:06	905588	5c190c311e18d10001eca667	1	1	practice_z	26	practice_z	13	stimuli_distractor_trianglediamonds.svg	stimuli_distractor_diamondtriangles.svg	16	no	0	1	2000	6	3	antiphase_hc_soi.wav	1	6	4	noise_calib_stim_RIGHT.wav	2	7	blb_dichoticlistening_da-ba.mp3	da	ba	1	left
6.6.1	win	2023-06-27	06:14:55	06:30:06	905588	5c190c311e18d10001eca667	1	1	practice_z	26	advance_on_keypress_ZEE	14	stimuli_distractor_trianglediamonds.svg	stimuli_distractor_diamondtriangles.svg	16	no	57	0	511	6	3	antiphase_hc_soi.wav	1	6	4	noise_calib_stim_RIGHT.wav	2	7	blb_dichoticlistening_da-ba.mp3	da	ba	1	left
6.6.1	win	2023-06-27	06:14:55	06:30:10	908724	5c190c311e18d10001eca667	1	1	practice_z	26	practice_z	15	stimuli_target_diamondsquares.svg	stimuli_distractor_diamondtriangles.svg	3	yes	44	1	986	6	3	antiphase_hc_soi.wav	1	6	4	noise_calib_stim_RIGHT.wav	2	7	blb_dichoticlistening_da-ba.mp3	da	ba	1	left
