build	computer.platform	date	time	timestamp	time_elapsed_ms	subject	group	session	blockcode	blocknum	trialcode	trialnum	stimulus_left	stimulus_right	stim_index	target_present	response	correct	latency	headphonecheck_countTestTrials	headphonecheck_index	headphonecheck_testSound	headphonecheck_correctResponse	stereocheck_countTestTrials	stereocheck_index	stereocheck_testSound	stereocheck_correctResponse	DL_index	DL_soundfile	DL_leftSound	DL_rightSound	DL_dualSound	DL_choice
6.6.1	and	2023-06-27	08:41:10	0	0	59c4f0a2916c4d000109428a	2	1	headphonecheck_calibration	4	headphonecheck_calibrationIntro	1			0		calibrationButton	0	942	0	0			0	0			1				0	
6.6.1	and	2023-06-27	08:41:10	0	0	59c4f0a2916c4d000109428a	2	1	headphonecheck_testphase	5	test_collectResponse	3			0		second	0	1319	1	2	antiphase_hc_ios.wav	3	0	0			1				0	
6.6.1	and	2023-06-27	08:41:10	0	0	59c4f0a2916c4d000109428a	2	1	headphonecheck_testphase	5	test_collectResponse	6			0		first	0	2415	2	6	antiphase_hc_ois.wav	3	0	0			1				0	
6.6.1	and	2023-06-27	08:41:10	0	0	59c4f0a2916c4d000109428a	2	1	headphonecheck_testphase	5	test_collectResponse	9			0		first	0	2408	3	5	antiphase_hc_osi.wav	2	0	0			1				0	
6.6.1	and	2023-06-27	08:41:10	0	0	59c4f0a2916c4d000109428a	2	1	headphonecheck_testphase	5	test_collectResponse	12			0		third	0	2525	4	1	antiphase_hc_iso.wav	2	0	0			1				0	
6.6.1	and	2023-06-27	08:41:10	0	0	59c4f0a2916c4d000109428a	2	1	headphonecheck_testphase	5	test_collectResponse	15			0		second	0	1288	5	3	antiphase_hc_soi.wav	1	0	0			1				0	
6.6.1	and	2023-06-27	08:41:10	0	0	59c4f0a2916c4d000109428a	2	1	headphonecheck_testphase	5	test_collectResponse	18			0		third	0	1605	6	4	antiphase_hc_sio.wav	1	0	0			1				0	
6.6.1	and	2023-06-27	08:41:10	0	0	59c4f0a2916c4d000109428a	2	1	stereocheck_calibration	7	stereocheck_calibrationIntro	1			0		stereocheck_calibrationButton	0	1394	6	4	antiphase_hc_sio.wav	1	0	0			1				0	
6.6.1	and	2023-06-27	08:41:10	0	0	59c4f0a2916c4d000109428a	2	1	stereocheck_testphase	8	stereocheck_test_collectResponse	3			0		stereocheck_right	1	697	6	4	antiphase_hc_sio.wav	1	1	6	noise_calib_stim_RIGHT.wav	2	1				0	
6.6.1	and	2023-06-27	08:41:10	0	0	59c4f0a2916c4d000109428a	2	1	stereocheck_testphase	8	stereocheck_test_collectResponse	6			0		stereocheck_left	1	593	6	4	antiphase_hc_sio.wav	1	2	1	noise_calib_stim_LEFT.wav	1	1				0	
6.6.1	and	2023-06-27	08:41:10	0	0	59c4f0a2916c4d000109428a	2	1	stereocheck_testphase	8	stereocheck_test_collectResponse	9			0		stereocheck_left	1	621	6	4	antiphase_hc_sio.wav	1	3	2	noise_calib_stim_LEFT.wav	1	1				0	
6.6.1	and	2023-06-27	08:41:10	0	0	59c4f0a2916c4d000109428a	2	1	stereocheck_testphase	8	stereocheck_test_collectResponse	12			0		stereocheck_right	1	1061	6	4	antiphase_hc_sio.wav	1	4	4	noise_calib_stim_RIGHT.wav	2	1				0	
6.6.1	and	2023-06-27	08:41:10	0	0	59c4f0a2916c4d000109428a	2	1	stereocheck_testphase	8	stereocheck_test_collectResponse	15			0		stereocheck_right	1	568	6	4	antiphase_hc_sio.wav	1	5	5	noise_calib_stim_RIGHT.wav	2	1				0	
6.6.1	and	2023-06-27	08:41:10	0	0	59c4f0a2916c4d000109428a	2	1	stereocheck_testphase	8	stereocheck_test_collectResponse	18			0		stereocheck_left	1	637	6	4	antiphase_hc_sio.wav	1	6	3	noise_calib_stim_LEFT.wav	1	1				0	
6.6.1	and	2023-06-27	08:41:10	0	0	59c4f0a2916c4d000109428a	2	1	DL_practice	11	DL_practice	2			0		ta	1	4417	6	4	antiphase_hc_sio.wav	1	6	3	noise_calib_stim_LEFT.wav	1	18	blb_dichoticlistening_ga-ta.mp3	ga	ta	1	right
6.6.1	and	2023-06-27	08:41:10	0	0	59c4f0a2916c4d000109428a	2	1	DL_practice	11	DL_practice	3			0		pa	1	2016	6	4	antiphase_hc_sio.wav	1	6	3	noise_calib_stim_LEFT.wav	1	23	blb_dichoticlistening_ka-pa.mp3	ka	pa	1	right
6.6.1	and	2023-06-27	08:41:10	0	0	59c4f0a2916c4d000109428a	2	1	DL_practice	11	DL_practice	4			0		da	1	1838	6	4	antiphase_hc_sio.wav	1	6	3	noise_calib_stim_LEFT.wav	1	7	blb_dichoticlistening_da-ba.mp3	da	ba	1	left
6.6.1	and	2023-06-27	08:41:10	0	0	59c4f0a2916c4d000109428a	2	1	DL_practice	11	DL_practice	5			0		da	1	1208	6	4	antiphase_hc_sio.wav	1	6	3	noise_calib_stim_LEFT.wav	1	8	blb_dichoticlistening_da-da.mp3	da	da	0	left
6.6.1	and	2023-06-27	08:41:10	0	0	59c4f0a2916c4d000109428a	2	1	DL_practice	11	DL_practice	6			0		ka	1	1953	6	4	antiphase_hc_sio.wav	1	6	3	noise_calib_stim_LEFT.wav	1	22	blb_dichoticlistening_ka-ka.mp3	ka	ka	0	left
6.6.1	and	2023-06-27	08:41:10	0	0	59c4f0a2916c4d000109428a	2	1	DL_practice	11	DL_practice	7			0		pa	1	1304	6	4	antiphase_hc_sio.wav	1	6	3	noise_calib_stim_LEFT.wav	1	29	blb_dichoticlistening_pa-pa.mp3	pa	pa	0	left
6.6.1	and	2023-06-27	08:41:10	0	0	59c4f0a2916c4d000109428a	2	1	DL_practice	11	DL_practice	8			0		ta	1	3219	6	4	antiphase_hc_sio.wav	1	6	3	noise_calib_stim_LEFT.wav	1	36	blb_dichoticlistening_ta-ta.mp3	ta	ta	0	left
6.6.1	and	2023-06-27	08:41:10	0	0	59c4f0a2916c4d000109428a	2	1	DL_practice	11	DL_practice	9			0		ba	1	3427	6	4	antiphase_hc_sio.wav	1	6	3	noise_calib_stim_LEFT.wav	1	1	blb_dichoticlistening_ba-ba.mp3	ba	ba	0	left
6.6.1	and	2023-06-27	08:41:10	0	0	59c4f0a2916c4d000109428a	2	1	DL_practice	11	DL_practice	10			0		ka	0	2876	6	4	antiphase_hc_sio.wav	1	6	3	noise_calib_stim_LEFT.wav	1	15	blb_dichoticlistening_ga-ga.mp3	ga	ga	0	other
6.6.1	and	2023-06-27	08:41:10	0	0	59c4f0a2916c4d000109428a	2	1	DL_test	13	DL_test	1			0		pa	1	1637	6	4	antiphase_hc_sio.wav	1	6	3	noise_calib_stim_LEFT.wav	1	28	blb_dichoticlistening_pa-ka.mp3	pa	ka	1	left
6.6.1	and	2023-06-27	08:41:10	0	0	59c4f0a2916c4d000109428a	2	1	DL_test	13	DL_test	2			0		ka	1	1925	6	4	antiphase_hc_sio.wav	1	6	3	noise_calib_stim_LEFT.wav	1	19	blb_dichoticlistening_ka-ba.mp3	ka	ba	1	left
6.6.1	and	2023-06-27	08:41:10	0	0	59c4f0a2916c4d000109428a	2	1	DL_test	13	DL_test	3			0		pa	0	1147	6	4	antiphase_hc_sio.wav	1	6	3	noise_calib_stim_LEFT.wav	1	10	blb_dichoticlistening_da-ka.mp3	da	ka	1	other
6.6.1	and	2023-06-27	08:41:10	0	0	59c4f0a2916c4d000109428a	2	1	DL_test	13	DL_test	4			0		pa	1	1868	6	4	antiphase_hc_sio.wav	1	6	3	noise_calib_stim_LEFT.wav	1	30	blb_dichoticlistening_pa-ta.mp3	pa	ta	1	left
6.6.1	and	2023-06-27	08:41:10	0	0	59c4f0a2916c4d000109428a	2	1	DL_test	13	DL_test	5			0		pa	1	1023	6	4	antiphase_hc_sio.wav	1	6	3	noise_calib_stim_LEFT.wav	1	11	blb_dichoticlistening_da-pa.mp3	da	pa	1	right
6.6.1	and	2023-06-27	08:41:10	0	0	59c4f0a2916c4d000109428a	2	1	DL_test	13	DL_test	6			0		ka	1	1259	6	4	antiphase_hc_sio.wav	1	6	3	noise_calib_stim_LEFT.wav	1	20	blb_dichoticlistening_ka-da.mp3	ka	da	1	left
6.6.1	and	2023-06-27	08:41:10	0	0	59c4f0a2916c4d000109428a	2	1	DL_test	13	DL_test	7			0		ka	1	1144	6	4	antiphase_hc_sio.wav	1	6	3	noise_calib_stim_LEFT.wav	1	16	blb_dichoticlistening_ga-ka.mp3	ga	ka	1	right
6.6.1	and	2023-06-27	08:41:10	0	0	59c4f0a2916c4d000109428a	2	1	DL_test	13	DL_test	8			0		ka	1	1206	6	4	antiphase_hc_sio.wav	1	6	3	noise_calib_stim_LEFT.wav	1	21	blb_dichoticlistening_ka-ga.mp3	ka	ga	1	left
6.6.1	and	2023-06-27	08:41:10	0	0	59c4f0a2916c4d000109428a	2	1	DL_test	13	DL_test	9			0		da	0	1970	6	4	antiphase_hc_sio.wav	1	6	3	noise_calib_stim_LEFT.wav	1	3	blb_dichoticlistening_ba-ga.mp3	ba	ga	1	other
6.6.1	and	2023-06-27	08:41:10	0	0	59c4f0a2916c4d000109428a	2	1	DL_test	13	DL_test	10			0		ka	0	1247	6	4	antiphase_hc_sio.wav	1	6	3	noise_calib_stim_LEFT.wav	1	18	blb_dichoticlistening_ga-ta.mp3	ga	ta	1	other
6.6.1	and	2023-06-27	08:41:10	0	0	59c4f0a2916c4d000109428a	2	1	DL_test	13	DL_test	11			0		pa	1	1388	6	4	antiphase_hc_sio.wav	1	6	3	noise_calib_stim_LEFT.wav	1	17	blb_dichoticlistening_ga-pa.mp3	ga	pa	1	right
6.6.1	and	2023-06-27	08:41:10	0	0	59c4f0a2916c4d000109428a	2	1	DL_test	13	DL_test	12			0		ka	0	1655	6	4	antiphase_hc_sio.wav	1	6	3	noise_calib_stim_LEFT.wav	1	6	blb_dichoticlistening_ba-ta.mp3	ba	ta	1	other
6.6.1	and	2023-06-27	08:41:10	0	0	59c4f0a2916c4d000109428a	2	1	DL_test	13	DL_test	13			0		pa	1	1489	6	4	antiphase_hc_sio.wav	1	6	3	noise_calib_stim_LEFT.wav	1	23	blb_dichoticlistening_ka-pa.mp3	ka	pa	1	right
6.6.1	and	2023-06-27	08:41:10	0	0	59c4f0a2916c4d000109428a	2	1	DL_test	13	DL_test	14			0		ka	0	1791	6	4	antiphase_hc_sio.wav	1	6	3	noise_calib_stim_LEFT.wav	1	36	blb_dichoticlistening_ta-ta.mp3	ta	ta	0	other
6.6.1	and	2023-06-27	08:41:10	0	0	59c4f0a2916c4d000109428a	2	1	DL_test	13	DL_test	15			0		pa	1	2219	6	4	antiphase_hc_sio.wav	1	6	3	noise_calib_stim_LEFT.wav	1	26	blb_dichoticlistening_pa-da.mp3	pa	da	1	left
6.6.1	and	2023-06-27	08:41:10	0	0	59c4f0a2916c4d000109428a	2	1	DL_test	13	DL_test	16			0		ba	1	1593	6	4	antiphase_hc_sio.wav	1	6	3	noise_calib_stim_LEFT.wav	1	2	blb_dichoticlistening_ba-da.mp3	ba	da	1	left
6.6.1	and	2023-06-27	08:41:10	0	0	59c4f0a2916c4d000109428a	2	1	DL_test	13	DL_test	17			0		ba	1	1174	6	4	antiphase_hc_sio.wav	1	6	3	noise_calib_stim_LEFT.wav	1	7	blb_dichoticlistening_da-ba.mp3	da	ba	1	right
6.6.1	and	2023-06-27	08:41:10	0	0	59c4f0a2916c4d000109428a	2	1	DL_test	13	DL_test	18			0		pa	1	1541	6	4	antiphase_hc_sio.wav	1	6	3	noise_calib_stim_LEFT.wav	1	29	blb_dichoticlistening_pa-pa.mp3	pa	pa	0	left
6.6.1	and	2023-06-27	08:41:10	0	0	59c4f0a2916c4d000109428a	2	1	DL_test	13	DL_test	19			0		pa	1	1224	6	4	antiphase_hc_sio.wav	1	6	3	noise_calib_stim_LEFT.wav	1	5	blb_dichoticlistening_ba-pa.mp3	ba	pa	1	right
6.6.1	and	2023-06-27	08:41:10	0	0	59c4f0a2916c4d000109428a	2	1	DL_test	13	DL_test	20			0		ka	1	1313	6	4	antiphase_hc_sio.wav	1	6	3	noise_calib_stim_LEFT.wav	1	4	blb_dichoticlistening_ba-ka.mp3	ba	ka	1	right
6.6.1	and	2023-06-27	08:41:10	0	0	59c4f0a2916c4d000109428a	2	1	DL_test	13	DL_test	21			0		pa	1	1300	6	4	antiphase_hc_sio.wav	1	6	3	noise_calib_stim_LEFT.wav	1	35	blb_dichoticlistening_ta-pa.mp3	ta	pa	1	right
6.6.1	and	2023-06-27	08:41:10	0	0	59c4f0a2916c4d000109428a	2	1	DL_test	13	DL_test	22			0		ba	1	1659	6	4	antiphase_hc_sio.wav	1	6	3	noise_calib_stim_LEFT.wav	1	13	blb_dichoticlistening_ga-ba.mp3	ga	ba	1	right
6.6.1	and	2023-06-27	08:41:10	0	0	59c4f0a2916c4d000109428a	2	1	DL_test	13	DL_test	23			0		ga	1	1476	6	4	antiphase_hc_sio.wav	1	6	3	noise_calib_stim_LEFT.wav	1	14	blb_dichoticlistening_ga-da.mp3	ga	da	1	left
6.6.1	and	2023-06-27	08:41:10	0	0	59c4f0a2916c4d000109428a	2	1	DL_test	13	DL_test	24			0		ga	1	1149	6	4	antiphase_hc_sio.wav	1	6	3	noise_calib_stim_LEFT.wav	1	15	blb_dichoticlistening_ga-ga.mp3	ga	ga	0	left
6.6.1	and	2023-06-27	08:41:10	0	0	59c4f0a2916c4d000109428a	2	1	DL_test	13	DL_test	25			0		ka	0	1290	6	4	antiphase_hc_sio.wav	1	6	3	noise_calib_stim_LEFT.wav	1	32	blb_dichoticlistening_ta-da.mp3	ta	da	1	other
6.6.1	and	2023-06-27	08:41:10	0	0	59c4f0a2916c4d000109428a	2	1	DL_test	13	DL_test	26			0		ka	1	1355	6	4	antiphase_hc_sio.wav	1	6	3	noise_calib_stim_LEFT.wav	1	22	blb_dichoticlistening_ka-ka.mp3	ka	ka	0	left
6.6.1	and	2023-06-27	08:41:10	0	0	59c4f0a2916c4d000109428a	2	1	DL_test	13	DL_test	27			0		ka	1	1205	6	4	antiphase_hc_sio.wav	1	6	3	noise_calib_stim_LEFT.wav	1	24	blb_dichoticlistening_ka-ta.mp3	ka	ta	1	left
6.6.1	and	2023-06-27	08:41:10	0	0	59c4f0a2916c4d000109428a	2	1	DL_test	13	DL_test	28			0		ka	0	1195	6	4	antiphase_hc_sio.wav	1	6	3	noise_calib_stim_LEFT.wav	1	33	blb_dichoticlistening_ta-ga.mp3	ta	ga	1	other
6.6.1	and	2023-06-27	08:41:10	0	0	59c4f0a2916c4d000109428a	2	1	DL_test	13	DL_test	29			0		ba	1	1386	6	4	antiphase_hc_sio.wav	1	6	3	noise_calib_stim_LEFT.wav	1	1	blb_dichoticlistening_ba-ba.mp3	ba	ba	0	left
6.6.1	and	2023-06-27	08:41:10	0	0	59c4f0a2916c4d000109428a	2	1	DL_test	13	DL_test	30			0		pa	1	989	6	4	antiphase_hc_sio.wav	1	6	3	noise_calib_stim_LEFT.wav	1	25	blb_dichoticlistening_pa-ba.mp3	pa	ba	1	left
6.6.1	and	2023-06-27	08:41:10	0	0	59c4f0a2916c4d000109428a	2	1	DL_test	13	DL_test	31			0		ka	0	1458	6	4	antiphase_hc_sio.wav	1	6	3	noise_calib_stim_LEFT.wav	1	12	blb_dichoticlistening_da-ta.mp3	da	ta	1	other
6.6.1	and	2023-06-27	08:41:10	0	0	59c4f0a2916c4d000109428a	2	1	DL_test	13	DL_test	32			0		ka	0	1428	6	4	antiphase_hc_sio.wav	1	6	3	noise_calib_stim_LEFT.wav	1	27	blb_dichoticlistening_pa-ga.mp3	pa	ga	1	other
6.6.1	and	2023-06-27	08:41:10	0	0	59c4f0a2916c4d000109428a	2	1	DL_test	13	DL_test	33			0		ka	1	1184	6	4	antiphase_hc_sio.wav	1	6	3	noise_calib_stim_LEFT.wav	1	34	blb_dichoticlistening_ta-ka.mp3	ta	ka	1	right
6.6.1	and	2023-06-27	08:41:10	0	0	59c4f0a2916c4d000109428a	2	1	DL_test	13	DL_test	34			0		ga	1	1343	6	4	antiphase_hc_sio.wav	1	6	3	noise_calib_stim_LEFT.wav	1	9	blb_dichoticlistening_da-ga.mp3	da	ga	1	right
6.6.1	and	2023-06-27	08:41:10	0	0	59c4f0a2916c4d000109428a	2	1	DL_test	13	DL_test	35			0		pa	0	1588	6	4	antiphase_hc_sio.wav	1	6	3	noise_calib_stim_LEFT.wav	1	31	blb_dichoticlistening_ta-ba.mp3	ta	ba	1	other
6.6.1	and	2023-06-27	08:41:10	0	0	59c4f0a2916c4d000109428a	2	1	DL_test	13	DL_test	36			0		da	1	2454	6	4	antiphase_hc_sio.wav	1	6	3	noise_calib_stim_LEFT.wav	1	8	blb_dichoticlistening_da-da.mp3	da	da	0	left
6.6.1	and	2023-06-27	08:41:10	0	0	59c4f0a2916c4d000109428a	2	1	DL_test	14	DL_test	1			0		da	1	2052	6	4	antiphase_hc_sio.wav	1	6	3	noise_calib_stim_LEFT.wav	1	9	blb_dichoticlistening_da-ga.mp3	da	ga	1	left
6.6.1	and	2023-06-27	08:41:10	0	0	59c4f0a2916c4d000109428a	2	1	DL_test	14	DL_test	2			0		ba	1	1880	6	4	antiphase_hc_sio.wav	1	6	3	noise_calib_stim_LEFT.wav	1	13	blb_dichoticlistening_ga-ba.mp3	ga	ba	1	right
6.6.1	and	2023-06-27	08:41:10	0	0	59c4f0a2916c4d000109428a	2	1	DL_test	14	DL_test	3			0		pa	1	1327	6	4	antiphase_hc_sio.wav	1	6	3	noise_calib_stim_LEFT.wav	1	26	blb_dichoticlistening_pa-da.mp3	pa	da	1	left
6.6.1	and	2023-06-27	08:41:10	0	0	59c4f0a2916c4d000109428a	2	1	DL_test	14	DL_test	4			0		ka	1	1797	6	4	antiphase_hc_sio.wav	1	6	3	noise_calib_stim_LEFT.wav	1	22	blb_dichoticlistening_ka-ka.mp3	ka	ka	0	left
6.6.1	and	2023-06-27	08:41:10	0	0	59c4f0a2916c4d000109428a	2	1	DL_test	14	DL_test	5			0		ka	0	1109	6	4	antiphase_hc_sio.wav	1	6	3	noise_calib_stim_LEFT.wav	1	27	blb_dichoticlistening_pa-ga.mp3	pa	ga	1	other
6.6.1	and	2023-06-27	08:41:10	0	0	59c4f0a2916c4d000109428a	2	1	DL_test	14	DL_test	6			0		pa	1	1654	6	4	antiphase_hc_sio.wav	1	6	3	noise_calib_stim_LEFT.wav	1	29	blb_dichoticlistening_pa-pa.mp3	pa	pa	0	left
6.6.1	and	2023-06-27	08:41:10	0	0	59c4f0a2916c4d000109428a	2	1	DL_test	14	DL_test	7			0		ka	0	2360	6	4	antiphase_hc_sio.wav	1	6	3	noise_calib_stim_LEFT.wav	1	30	blb_dichoticlistening_pa-ta.mp3	pa	ta	1	other
6.6.1	and	2023-06-27	08:41:10	0	0	59c4f0a2916c4d000109428a	2	1	DL_test	14	DL_test	8			0		ka	0	971	6	4	antiphase_hc_sio.wav	1	6	3	noise_calib_stim_LEFT.wav	1	6	blb_dichoticlistening_ba-ta.mp3	ba	ta	1	other
6.6.1	and	2023-06-27	08:41:10	0	0	59c4f0a2916c4d000109428a	2	1	DL_test	14	DL_test	9			0		ga	0	1475	6	4	antiphase_hc_sio.wav	1	6	3	noise_calib_stim_LEFT.wav	1	32	blb_dichoticlistening_ta-da.mp3	ta	da	1	other
6.6.1	and	2023-06-27	08:41:10	0	0	59c4f0a2916c4d000109428a	2	1	DL_test	14	DL_test	10			0		ga	1	1076	6	4	antiphase_hc_sio.wav	1	6	3	noise_calib_stim_LEFT.wav	1	15	blb_dichoticlistening_ga-ga.mp3	ga	ga	0	left
6.6.1	and	2023-06-27	08:41:10	0	0	59c4f0a2916c4d000109428a	2	1	DL_test	14	DL_test	11			0		ka	1	1190	6	4	antiphase_hc_sio.wav	1	6	3	noise_calib_stim_LEFT.wav	1	4	blb_dichoticlistening_ba-ka.mp3	ba	ka	1	right
6.6.1	and	2023-06-27	08:41:10	0	0	59c4f0a2916c4d000109428a	2	1	DL_test	14	DL_test	12			0		ga	1	997	6	4	antiphase_hc_sio.wav	1	6	3	noise_calib_stim_LEFT.wav	1	14	blb_dichoticlistening_ga-da.mp3	ga	da	1	left
6.6.1	and	2023-06-27	08:41:10	0	0	59c4f0a2916c4d000109428a	2	1	DL_test	14	DL_test	13			0		pa	0	1602	6	4	antiphase_hc_sio.wav	1	6	3	noise_calib_stim_LEFT.wav	1	10	blb_dichoticlistening_da-ka.mp3	da	ka	1	other
6.6.1	and	2023-06-27	08:41:10	0	0	59c4f0a2916c4d000109428a	2	1	DL_test	14	DL_test	14			0		ka	1	1724	6	4	antiphase_hc_sio.wav	1	6	3	noise_calib_stim_LEFT.wav	1	34	blb_dichoticlistening_ta-ka.mp3	ta	ka	1	right
6.6.1	and	2023-06-27	08:41:10	0	0	59c4f0a2916c4d000109428a	2	1	DL_test	14	DL_test	15			0		ka	1	1702	6	4	antiphase_hc_sio.wav	1	6	3	noise_calib_stim_LEFT.wav	1	21	blb_dichoticlistening_ka-ga.mp3	ka	ga	1	left
6.6.1	and	2023-06-27	08:41:10	0	0	59c4f0a2916c4d000109428a	2	1	DL_test	14	DL_test	16			0		ba	1	1888	6	4	antiphase_hc_sio.wav	1	6	3	noise_calib_stim_LEFT.wav	1	7	blb_dichoticlistening_da-ba.mp3	da	ba	1	right
6.6.1	and	2023-06-27	08:41:10	0	0	59c4f0a2916c4d000109428a	2	1	DL_test	14	DL_test	17			0		da	1	1741	6	4	antiphase_hc_sio.wav	1	6	3	noise_calib_stim_LEFT.wav	1	8	blb_dichoticlistening_da-da.mp3	da	da	0	left
6.6.1	and	2023-06-27	08:41:10	0	0	59c4f0a2916c4d000109428a	2	1	DL_test	14	DL_test	18			0		ka	1	2137	6	4	antiphase_hc_sio.wav	1	6	3	noise_calib_stim_LEFT.wav	1	24	blb_dichoticlistening_ka-ta.mp3	ka	ta	1	left
6.6.1	and	2023-06-27	08:41:10	0	0	59c4f0a2916c4d000109428a	2	1	DL_test	14	DL_test	19			0		pa	1	1460	6	4	antiphase_hc_sio.wav	1	6	3	noise_calib_stim_LEFT.wav	1	35	blb_dichoticlistening_ta-pa.mp3	ta	pa	1	right
6.6.1	and	2023-06-27	08:41:10	0	0	59c4f0a2916c4d000109428a	2	1	DL_test	14	DL_test	20			0		ka	1	1310	6	4	antiphase_hc_sio.wav	1	6	3	noise_calib_stim_LEFT.wav	1	16	blb_dichoticlistening_ga-ka.mp3	ga	ka	1	right
6.6.1	and	2023-06-27	08:41:10	0	0	59c4f0a2916c4d000109428a	2	1	DL_test	14	DL_test	21			0		pa	1	1948	6	4	antiphase_hc_sio.wav	1	6	3	noise_calib_stim_LEFT.wav	1	25	blb_dichoticlistening_pa-ba.mp3	pa	ba	1	left
6.6.1	and	2023-06-27	08:41:10	0	0	59c4f0a2916c4d000109428a	2	1	DL_test	14	DL_test	22			0		ka	1	1574	6	4	antiphase_hc_sio.wav	1	6	3	noise_calib_stim_LEFT.wav	1	20	blb_dichoticlistening_ka-da.mp3	ka	da	1	left
6.6.1	and	2023-06-27	08:41:10	0	0	59c4f0a2916c4d000109428a	2	1	DL_test	14	DL_test	23			0		pa	0	2851	6	4	antiphase_hc_sio.wav	1	6	3	noise_calib_stim_LEFT.wav	1	31	blb_dichoticlistening_ta-ba.mp3	ta	ba	1	other
6.6.1	and	2023-06-27	08:41:10	0	0	59c4f0a2916c4d000109428a	2	1	DL_test	14	DL_test	24			0		da	1	1834	6	4	antiphase_hc_sio.wav	1	6	3	noise_calib_stim_LEFT.wav	1	2	blb_dichoticlistening_ba-da.mp3	ba	da	1	right
6.6.1	and	2023-06-27	08:41:10	0	0	59c4f0a2916c4d000109428a	2	1	DL_test	14	DL_test	25			0		ka	0	1432	6	4	antiphase_hc_sio.wav	1	6	3	noise_calib_stim_LEFT.wav	1	33	blb_dichoticlistening_ta-ga.mp3	ta	ga	1	other
6.6.1	and	2023-06-27	08:41:10	0	0	59c4f0a2916c4d000109428a	2	1	DL_test	14	DL_test	26			0		ta	1	2698	6	4	antiphase_hc_sio.wav	1	6	3	noise_calib_stim_LEFT.wav	1	36	blb_dichoticlistening_ta-ta.mp3	ta	ta	0	left
6.6.1	and	2023-06-27	08:41:10	0	0	59c4f0a2916c4d000109428a	2	1	DL_test	14	DL_test	27			0		ka	0	1370	6	4	antiphase_hc_sio.wav	1	6	3	noise_calib_stim_LEFT.wav	1	12	blb_dichoticlistening_da-ta.mp3	da	ta	1	other
6.6.1	and	2023-06-27	08:41:10	0	0	59c4f0a2916c4d000109428a	2	1	DL_test	14	DL_test	28			0		ka	1	1228	6	4	antiphase_hc_sio.wav	1	6	3	noise_calib_stim_LEFT.wav	1	28	blb_dichoticlistening_pa-ka.mp3	pa	ka	1	right
6.6.1	and	2023-06-27	08:41:10	0	0	59c4f0a2916c4d000109428a	2	1	DL_test	14	DL_test	29			0		ga	1	1094	6	4	antiphase_hc_sio.wav	1	6	3	noise_calib_stim_LEFT.wav	1	3	blb_dichoticlistening_ba-ga.mp3	ba	ga	1	right
6.6.1	and	2023-06-27	08:41:10	0	0	59c4f0a2916c4d000109428a	2	1	DL_test	14	DL_test	30			0		ba	1	1682	6	4	antiphase_hc_sio.wav	1	6	3	noise_calib_stim_LEFT.wav	1	1	blb_dichoticlistening_ba-ba.mp3	ba	ba	0	left
6.6.1	and	2023-06-27	08:41:10	0	0	59c4f0a2916c4d000109428a	2	1	DL_test	14	DL_test	31			0		pa	1	1285	6	4	antiphase_hc_sio.wav	1	6	3	noise_calib_stim_LEFT.wav	1	17	blb_dichoticlistening_ga-pa.mp3	ga	pa	1	right
6.6.1	and	2023-06-27	08:41:10	0	0	59c4f0a2916c4d000109428a	2	1	DL_test	14	DL_test	32			0		ka	0	1203	6	4	antiphase_hc_sio.wav	1	6	3	noise_calib_stim_LEFT.wav	1	18	blb_dichoticlistening_ga-ta.mp3	ga	ta	1	other
6.6.1	and	2023-06-27	08:41:10	0	0	59c4f0a2916c4d000109428a	2	1	DL_test	14	DL_test	33			0		pa	1	1149	6	4	antiphase_hc_sio.wav	1	6	3	noise_calib_stim_LEFT.wav	1	23	blb_dichoticlistening_ka-pa.mp3	ka	pa	1	right
6.6.1	and	2023-06-27	08:41:10	0	0	59c4f0a2916c4d000109428a	2	1	DL_test	14	DL_test	34			0		ka	1	1369	6	4	antiphase_hc_sio.wav	1	6	3	noise_calib_stim_LEFT.wav	1	19	blb_dichoticlistening_ka-ba.mp3	ka	ba	1	left
6.6.1	and	2023-06-27	08:41:10	0	0	59c4f0a2916c4d000109428a	2	1	DL_test	14	DL_test	35			0		pa	1	1402	6	4	antiphase_hc_sio.wav	1	6	3	noise_calib_stim_LEFT.wav	1	5	blb_dichoticlistening_ba-pa.mp3	ba	pa	1	right
6.6.1	and	2023-06-27	08:41:10	0	0	59c4f0a2916c4d000109428a	2	1	DL_test	14	DL_test	36			0		pa	1	1010	6	4	antiphase_hc_sio.wav	1	6	3	noise_calib_stim_LEFT.wav	1	11	blb_dichoticlistening_da-pa.mp3	da	pa	1	right
6.6.1	and	2023-06-27	08:41:10	0	0	59c4f0a2916c4d000109428a	2	1	DL_test	15	DL_test	1			0		ba	1	3722	6	4	antiphase_hc_sio.wav	1	6	3	noise_calib_stim_LEFT.wav	1	2	blb_dichoticlistening_ba-da.mp3	ba	da	1	left
6.6.1	and	2023-06-27	08:41:10	0	0	59c4f0a2916c4d000109428a	2	1	DL_test	15	DL_test	2			0		pa	1	2873	6	4	antiphase_hc_sio.wav	1	6	3	noise_calib_stim_LEFT.wav	1	25	blb_dichoticlistening_pa-ba.mp3	pa	ba	1	left
6.6.1	and	2023-06-27	08:41:10	0	0	59c4f0a2916c4d000109428a	2	1	DL_test	15	DL_test	3			0		ka	0	1671	6	4	antiphase_hc_sio.wav	1	6	3	noise_calib_stim_LEFT.wav	1	26	blb_dichoticlistening_pa-da.mp3	pa	da	1	other
6.6.1	and	2023-06-27	08:41:10	0	0	59c4f0a2916c4d000109428a	2	1	DL_test	15	DL_test	4			0		ba	1	1496	6	4	antiphase_hc_sio.wav	1	6	3	noise_calib_stim_LEFT.wav	1	13	blb_dichoticlistening_ga-ba.mp3	ga	ba	1	right
6.6.1	and	2023-06-27	08:41:10	0	0	59c4f0a2916c4d000109428a	2	1	DL_test	15	DL_test	5			0		ka	0	2285	6	4	antiphase_hc_sio.wav	1	6	3	noise_calib_stim_LEFT.wav	1	6	blb_dichoticlistening_ba-ta.mp3	ba	ta	1	other
6.6.1	and	2023-06-27	08:41:10	0	0	59c4f0a2916c4d000109428a	2	1	DL_test	15	DL_test	6			0		ka	0	1142	6	4	antiphase_hc_sio.wav	1	6	3	noise_calib_stim_LEFT.wav	1	18	blb_dichoticlistening_ga-ta.mp3	ga	ta	1	other
6.6.1	and	2023-06-27	08:41:10	0	0	59c4f0a2916c4d000109428a	2	1	DL_test	15	DL_test	7			0		ga	1	920	6	4	antiphase_hc_sio.wav	1	6	3	noise_calib_stim_LEFT.wav	1	3	blb_dichoticlistening_ba-ga.mp3	ba	ga	1	right
6.6.1	and	2023-06-27	08:41:10	0	0	59c4f0a2916c4d000109428a	2	1	DL_test	15	DL_test	8			0		pa	1	934	6	4	antiphase_hc_sio.wav	1	6	3	noise_calib_stim_LEFT.wav	1	30	blb_dichoticlistening_pa-ta.mp3	pa	ta	1	left
6.6.1	and	2023-06-27	08:41:10	0	0	59c4f0a2916c4d000109428a	2	1	DL_test	15	DL_test	9			0		pa	1	1250	6	4	antiphase_hc_sio.wav	1	6	3	noise_calib_stim_LEFT.wav	1	35	blb_dichoticlistening_ta-pa.mp3	ta	pa	1	right
6.6.1	and	2023-06-27	08:41:10	0	0	59c4f0a2916c4d000109428a	2	1	DL_test	15	DL_test	10			0		ka	0	1304	6	4	antiphase_hc_sio.wav	1	6	3	noise_calib_stim_LEFT.wav	1	12	blb_dichoticlistening_da-ta.mp3	da	ta	1	other
6.6.1	and	2023-06-27	08:41:10	0	0	59c4f0a2916c4d000109428a	2	1	DL_test	15	DL_test	11			0		ka	0	1163	6	4	antiphase_hc_sio.wav	1	6	3	noise_calib_stim_LEFT.wav	1	27	blb_dichoticlistening_pa-ga.mp3	pa	ga	1	other
6.6.1	and	2023-06-27	08:41:10	0	0	59c4f0a2916c4d000109428a	2	1	DL_test	15	DL_test	12			0		pa	1	1153	6	4	antiphase_hc_sio.wav	1	6	3	noise_calib_stim_LEFT.wav	1	5	blb_dichoticlistening_ba-pa.mp3	ba	pa	1	right
6.6.1	and	2023-06-27	08:41:10	0	0	59c4f0a2916c4d000109428a	2	1	DL_test	15	DL_test	13			0		ka	1	4205	6	4	antiphase_hc_sio.wav	1	6	3	noise_calib_stim_LEFT.wav	1	22	blb_dichoticlistening_ka-ka.mp3	ka	ka	0	left
6.6.1	and	2023-06-27	08:41:10	0	0	59c4f0a2916c4d000109428a	2	1	DL_test	15	DL_test	14			0		pa	1	3436	6	4	antiphase_hc_sio.wav	1	6	3	noise_calib_stim_LEFT.wav	1	11	blb_dichoticlistening_da-pa.mp3	da	pa	1	right
6.6.1	and	2023-06-27	08:41:10	0	0	59c4f0a2916c4d000109428a	2	1	DL_test	15	DL_test	15			0		ta	1	3706	6	4	antiphase_hc_sio.wav	1	6	3	noise_calib_stim_LEFT.wav	1	31	blb_dichoticlistening_ta-ba.mp3	ta	ba	1	left
6.6.1	and	2023-06-27	08:41:10	0	0	59c4f0a2916c4d000109428a	2	1	DL_test	15	DL_test	16			0		pa	0	2037	6	4	antiphase_hc_sio.wav	1	6	3	noise_calib_stim_LEFT.wav	1	36	blb_dichoticlistening_ta-ta.mp3	ta	ta	0	other
6.6.1	and	2023-06-27	08:41:10	0	0	59c4f0a2916c4d000109428a	2	1	DL_test	15	DL_test	17			0		ka	1	2172	6	4	antiphase_hc_sio.wav	1	6	3	noise_calib_stim_LEFT.wav	1	16	blb_dichoticlistening_ga-ka.mp3	ga	ka	1	right
6.6.1	and	2023-06-27	08:41:10	0	0	59c4f0a2916c4d000109428a	2	1	DL_test	15	DL_test	18			0		ka	1	1480	6	4	antiphase_hc_sio.wav	1	6	3	noise_calib_stim_LEFT.wav	1	19	blb_dichoticlistening_ka-ba.mp3	ka	ba	1	left
6.6.1	and	2023-06-27	08:41:10	0	0	59c4f0a2916c4d000109428a	2	1	DL_test	15	DL_test	19			0		ga	1	2195	6	4	antiphase_hc_sio.wav	1	6	3	noise_calib_stim_LEFT.wav	1	14	blb_dichoticlistening_ga-da.mp3	ga	da	1	left
6.6.1	and	2023-06-27	08:41:10	0	0	59c4f0a2916c4d000109428a	2	1	DL_test	15	DL_test	20			0		ka	1	1676	6	4	antiphase_hc_sio.wav	1	6	3	noise_calib_stim_LEFT.wav	1	28	blb_dichoticlistening_pa-ka.mp3	pa	ka	1	right
6.6.1	and	2023-06-27	08:41:10	0	0	59c4f0a2916c4d000109428a	2	1	DL_test	15	DL_test	21			0		pa	1	1646	6	4	antiphase_hc_sio.wav	1	6	3	noise_calib_stim_LEFT.wav	1	17	blb_dichoticlistening_ga-pa.mp3	ga	pa	1	right
6.6.1	and	2023-06-27	08:41:10	0	0	59c4f0a2916c4d000109428a	2	1	DL_test	15	DL_test	22			0		ka	1	1404	6	4	antiphase_hc_sio.wav	1	6	3	noise_calib_stim_LEFT.wav	1	34	blb_dichoticlistening_ta-ka.mp3	ta	ka	1	right
6.6.1	and	2023-06-27	08:41:10	0	0	59c4f0a2916c4d000109428a	2	1	DL_test	15	DL_test	23			0		ka	0	1089	6	4	antiphase_hc_sio.wav	1	6	3	noise_calib_stim_LEFT.wav	1	32	blb_dichoticlistening_ta-da.mp3	ta	da	1	other
6.6.1	and	2023-06-27	08:41:10	0	0	59c4f0a2916c4d000109428a	2	1	DL_test	15	DL_test	24			0		ka	0	1053	6	4	antiphase_hc_sio.wav	1	6	3	noise_calib_stim_LEFT.wav	1	33	blb_dichoticlistening_ta-ga.mp3	ta	ga	1	other
6.6.1	and	2023-06-27	08:41:10	0	0	59c4f0a2916c4d000109428a	2	1	DL_test	15	DL_test	25			0		ka	1	1370	6	4	antiphase_hc_sio.wav	1	6	3	noise_calib_stim_LEFT.wav	1	21	blb_dichoticlistening_ka-ga.mp3	ka	ga	1	left
6.6.1	and	2023-06-27	08:41:10	0	0	59c4f0a2916c4d000109428a	2	1	DL_test	15	DL_test	26			0		ka	1	924	6	4	antiphase_hc_sio.wav	1	6	3	noise_calib_stim_LEFT.wav	1	24	blb_dichoticlistening_ka-ta.mp3	ka	ta	1	left
6.6.1	and	2023-06-27	08:41:10	0	0	59c4f0a2916c4d000109428a	2	1	DL_test	15	DL_test	27			0		pa	1	1325	6	4	antiphase_hc_sio.wav	1	6	3	noise_calib_stim_LEFT.wav	1	23	blb_dichoticlistening_ka-pa.mp3	ka	pa	1	right
6.6.1	and	2023-06-27	08:41:10	0	0	59c4f0a2916c4d000109428a	2	1	DL_test	15	DL_test	28			0		ga	0	1468	6	4	antiphase_hc_sio.wav	1	6	3	noise_calib_stim_LEFT.wav	1	8	blb_dichoticlistening_da-da.mp3	da	da	0	other
6.6.1	and	2023-06-27	08:41:10	0	0	59c4f0a2916c4d000109428a	2	1	DL_test	15	DL_test	29			0		ka	1	1522	6	4	antiphase_hc_sio.wav	1	6	3	noise_calib_stim_LEFT.wav	1	20	blb_dichoticlistening_ka-da.mp3	ka	da	1	left
6.6.1	and	2023-06-27	08:41:10	0	0	59c4f0a2916c4d000109428a	2	1	DL_test	15	DL_test	30			0		ka	1	1937	6	4	antiphase_hc_sio.wav	1	6	3	noise_calib_stim_LEFT.wav	1	4	blb_dichoticlistening_ba-ka.mp3	ba	ka	1	right
6.6.1	and	2023-06-27	08:41:10	0	0	59c4f0a2916c4d000109428a	2	1	DL_test	15	DL_test	31			0		ba	1	1652	6	4	antiphase_hc_sio.wav	1	6	3	noise_calib_stim_LEFT.wav	1	1	blb_dichoticlistening_ba-ba.mp3	ba	ba	0	left
6.6.1	and	2023-06-27	08:41:10	0	0	59c4f0a2916c4d000109428a	2	1	DL_test	15	DL_test	32			0		ba	1	1357	6	4	antiphase_hc_sio.wav	1	6	3	noise_calib_stim_LEFT.wav	1	7	blb_dichoticlistening_da-ba.mp3	da	ba	1	right
6.6.1	and	2023-06-27	08:41:10	0	0	59c4f0a2916c4d000109428a	2	1	DL_test	15	DL_test	33			0		pa	1	55622	6	4	antiphase_hc_sio.wav	1	6	3	noise_calib_stim_LEFT.wav	1	29	blb_dichoticlistening_pa-pa.mp3	pa	pa	0	left
6.6.1	and	2023-06-27	08:41:10	0	0	59c4f0a2916c4d000109428a	2	1	DL_test	15	DL_test	34			0		pa	0	1186	6	4	antiphase_hc_sio.wav	1	6	3	noise_calib_stim_LEFT.wav	1	10	blb_dichoticlistening_da-ka.mp3	da	ka	1	other
6.6.1	and	2023-06-27	08:41:10	0	0	59c4f0a2916c4d000109428a	2	1	DL_test	15	DL_test	35			0		ga	1	1036	6	4	antiphase_hc_sio.wav	1	6	3	noise_calib_stim_LEFT.wav	1	15	blb_dichoticlistening_ga-ga.mp3	ga	ga	0	left
6.6.1	and	2023-06-27	08:41:10	0	0	59c4f0a2916c4d000109428a	2	1	DL_test	15	DL_test	36			0		ga	1	840	6	4	antiphase_hc_sio.wav	1	6	3	noise_calib_stim_LEFT.wav	1	9	blb_dichoticlistening_da-ga.mp3	da	ga	1	right
6.6.1	and	2023-06-27	08:41:10	0	0	59c4f0a2916c4d000109428a	2	1	DL_test	16	DL_test	1			0		ga	0	829	6	4	antiphase_hc_sio.wav	1	6	3	noise_calib_stim_LEFT.wav	1	8	blb_dichoticlistening_da-da.mp3	da	da	0	other
6.6.1	and	2023-06-27	08:41:10	0	0	59c4f0a2916c4d000109428a	2	1	DL_test	16	DL_test	2			0		pa	1	1077	6	4	antiphase_hc_sio.wav	1	6	3	noise_calib_stim_LEFT.wav	1	17	blb_dichoticlistening_ga-pa.mp3	ga	pa	1	right
6.6.1	and	2023-06-27	08:41:10	0	0	59c4f0a2916c4d000109428a	2	1	DL_test	16	DL_test	3			0		ka	0	1063	6	4	antiphase_hc_sio.wav	1	6	3	noise_calib_stim_LEFT.wav	1	6	blb_dichoticlistening_ba-ta.mp3	ba	ta	1	other
6.6.1	and	2023-06-27	08:41:10	0	0	59c4f0a2916c4d000109428a	2	1	DL_test	16	DL_test	4			0		ka	1	1136	6	4	antiphase_hc_sio.wav	1	6	3	noise_calib_stim_LEFT.wav	1	28	blb_dichoticlistening_pa-ka.mp3	pa	ka	1	right
6.6.1	and	2023-06-27	08:41:10	0	0	59c4f0a2916c4d000109428a	2	1	DL_test	16	DL_test	5			0		pa	1	1380	6	4	antiphase_hc_sio.wav	1	6	3	noise_calib_stim_LEFT.wav	1	23	blb_dichoticlistening_ka-pa.mp3	ka	pa	1	right
6.6.1	and	2023-06-27	08:41:10	0	0	59c4f0a2916c4d000109428a	2	1	DL_test	16	DL_test	6			0		pa	1	1156	6	4	antiphase_hc_sio.wav	1	6	3	noise_calib_stim_LEFT.wav	1	35	blb_dichoticlistening_ta-pa.mp3	ta	pa	1	right
6.6.1	and	2023-06-27	08:41:10	0	0	59c4f0a2916c4d000109428a	2	1	DL_test	16	DL_test	7			0		ga	1	1132	6	4	antiphase_hc_sio.wav	1	6	3	noise_calib_stim_LEFT.wav	1	14	blb_dichoticlistening_ga-da.mp3	ga	da	1	left
6.6.1	and	2023-06-27	08:41:10	0	0	59c4f0a2916c4d000109428a	2	1	DL_test	16	DL_test	8			0		ka	0	1400	6	4	antiphase_hc_sio.wav	1	6	3	noise_calib_stim_LEFT.wav	1	27	blb_dichoticlistening_pa-ga.mp3	pa	ga	1	other
6.6.1	and	2023-06-27	08:41:10	0	0	59c4f0a2916c4d000109428a	2	1	DL_test	16	DL_test	9			0		ba	1	1331	6	4	antiphase_hc_sio.wav	1	6	3	noise_calib_stim_LEFT.wav	1	7	blb_dichoticlistening_da-ba.mp3	da	ba	1	right
6.6.1	and	2023-06-27	08:41:10	0	0	59c4f0a2916c4d000109428a	2	1	DL_test	16	DL_test	10			0		ka	0	1279	6	4	antiphase_hc_sio.wav	1	6	3	noise_calib_stim_LEFT.wav	1	18	blb_dichoticlistening_ga-ta.mp3	ga	ta	1	other
6.6.1	and	2023-06-27	08:41:10	0	0	59c4f0a2916c4d000109428a	2	1	DL_test	16	DL_test	11			0		ba	1	1528	6	4	antiphase_hc_sio.wav	1	6	3	noise_calib_stim_LEFT.wav	1	13	blb_dichoticlistening_ga-ba.mp3	ga	ba	1	right
6.6.1	and	2023-06-27	08:41:10	0	0	59c4f0a2916c4d000109428a	2	1	DL_test	16	DL_test	12			0		pa	1	1346	6	4	antiphase_hc_sio.wav	1	6	3	noise_calib_stim_LEFT.wav	1	11	blb_dichoticlistening_da-pa.mp3	da	pa	1	right
6.6.1	and	2023-06-27	08:41:10	0	0	59c4f0a2916c4d000109428a	2	1	DL_test	16	DL_test	13			0		pa	1	1149	6	4	antiphase_hc_sio.wav	1	6	3	noise_calib_stim_LEFT.wav	1	29	blb_dichoticlistening_pa-pa.mp3	pa	pa	0	left
6.6.1	and	2023-06-27	08:41:10	0	0	59c4f0a2916c4d000109428a	2	1	DL_test	16	DL_test	14			0		ka	1	1233	6	4	antiphase_hc_sio.wav	1	6	3	noise_calib_stim_LEFT.wav	1	22	blb_dichoticlistening_ka-ka.mp3	ka	ka	0	left
6.6.1	and	2023-06-27	08:41:10	0	0	59c4f0a2916c4d000109428a	2	1	DL_test	16	DL_test	15			0		pa	1	1147	6	4	antiphase_hc_sio.wav	1	6	3	noise_calib_stim_LEFT.wav	1	25	blb_dichoticlistening_pa-ba.mp3	pa	ba	1	left
6.6.1	and	2023-06-27	08:41:10	0	0	59c4f0a2916c4d000109428a	2	1	DL_test	16	DL_test	16			0		ka	1	1735	6	4	antiphase_hc_sio.wav	1	6	3	noise_calib_stim_LEFT.wav	1	4	blb_dichoticlistening_ba-ka.mp3	ba	ka	1	right
6.6.1	and	2023-06-27	08:41:10	0	0	59c4f0a2916c4d000109428a	2	1	DL_test	16	DL_test	17			0		ka	1	1270	6	4	antiphase_hc_sio.wav	1	6	3	noise_calib_stim_LEFT.wav	1	24	blb_dichoticlistening_ka-ta.mp3	ka	ta	1	left
6.6.1	and	2023-06-27	08:41:10	0	0	59c4f0a2916c4d000109428a	2	1	DL_test	16	DL_test	18			0		ka	1	1133	6	4	antiphase_hc_sio.wav	1	6	3	noise_calib_stim_LEFT.wav	1	21	blb_dichoticlistening_ka-ga.mp3	ka	ga	1	left
6.6.1	and	2023-06-27	08:41:10	0	0	59c4f0a2916c4d000109428a	2	1	DL_test	16	DL_test	19			0		pa	0	1325	6	4	antiphase_hc_sio.wav	1	6	3	noise_calib_stim_LEFT.wav	1	10	blb_dichoticlistening_da-ka.mp3	da	ka	1	other
6.6.1	and	2023-06-27	08:41:10	0	0	59c4f0a2916c4d000109428a	2	1	DL_test	16	DL_test	20			0		ka	0	1271	6	4	antiphase_hc_sio.wav	1	6	3	noise_calib_stim_LEFT.wav	1	32	blb_dichoticlistening_ta-da.mp3	ta	da	1	other
6.6.1	and	2023-06-27	08:41:10	0	0	59c4f0a2916c4d000109428a	2	1	DL_test	16	DL_test	21			0		ka	0	1893	6	4	antiphase_hc_sio.wav	1	6	3	noise_calib_stim_LEFT.wav	1	36	blb_dichoticlistening_ta-ta.mp3	ta	ta	0	other
6.6.1	and	2023-06-27	08:41:10	0	0	59c4f0a2916c4d000109428a	2	1	DL_test	16	DL_test	22			0		ga	1	1344	6	4	antiphase_hc_sio.wav	1	6	3	noise_calib_stim_LEFT.wav	1	15	blb_dichoticlistening_ga-ga.mp3	ga	ga	0	left
6.6.1	and	2023-06-27	08:41:10	0	0	59c4f0a2916c4d000109428a	2	1	DL_test	16	DL_test	23			0		ka	0	966	6	4	antiphase_hc_sio.wav	1	6	3	noise_calib_stim_LEFT.wav	1	33	blb_dichoticlistening_ta-ga.mp3	ta	ga	1	other
6.6.1	and	2023-06-27	08:41:10	0	0	59c4f0a2916c4d000109428a	2	1	DL_test	16	DL_test	24			0		ga	1	986	6	4	antiphase_hc_sio.wav	1	6	3	noise_calib_stim_LEFT.wav	1	9	blb_dichoticlistening_da-ga.mp3	da	ga	1	right
6.6.1	and	2023-06-27	08:41:10	0	0	59c4f0a2916c4d000109428a	2	1	DL_test	16	DL_test	25			0		ka	1	1004	6	4	antiphase_hc_sio.wav	1	6	3	noise_calib_stim_LEFT.wav	1	34	blb_dichoticlistening_ta-ka.mp3	ta	ka	1	right
6.6.1	and	2023-06-27	08:41:10	0	0	59c4f0a2916c4d000109428a	2	1	DL_test	16	DL_test	26			0		pa	1	1844	6	4	antiphase_hc_sio.wav	1	6	3	noise_calib_stim_LEFT.wav	1	5	blb_dichoticlistening_ba-pa.mp3	ba	pa	1	right
6.6.1	and	2023-06-27	08:41:10	0	0	59c4f0a2916c4d000109428a	2	1	DL_test	16	DL_test	27			0		ka	0	1189	6	4	antiphase_hc_sio.wav	1	6	3	noise_calib_stim_LEFT.wav	1	30	blb_dichoticlistening_pa-ta.mp3	pa	ta	1	other
6.6.1	and	2023-06-27	08:41:10	0	0	59c4f0a2916c4d000109428a	2	1	DL_test	16	DL_test	28			0		ka	1	1140	6	4	antiphase_hc_sio.wav	1	6	3	noise_calib_stim_LEFT.wav	1	19	blb_dichoticlistening_ka-ba.mp3	ka	ba	1	left
6.6.1	and	2023-06-27	08:41:10	0	0	59c4f0a2916c4d000109428a	2	1	DL_test	16	DL_test	29			0		ka	1	926	6	4	antiphase_hc_sio.wav	1	6	3	noise_calib_stim_LEFT.wav	1	20	blb_dichoticlistening_ka-da.mp3	ka	da	1	left
6.6.1	and	2023-06-27	08:41:10	0	0	59c4f0a2916c4d000109428a	2	1	DL_test	16	DL_test	30			0		ga	1	1389	6	4	antiphase_hc_sio.wav	1	6	3	noise_calib_stim_LEFT.wav	1	3	blb_dichoticlistening_ba-ga.mp3	ba	ga	1	right
6.6.1	and	2023-06-27	08:41:10	0	0	59c4f0a2916c4d000109428a	2	1	DL_test	16	DL_test	31			0		ka	1	1244	6	4	antiphase_hc_sio.wav	1	6	3	noise_calib_stim_LEFT.wav	1	16	blb_dichoticlistening_ga-ka.mp3	ga	ka	1	right
6.6.1	and	2023-06-27	08:41:10	0	0	59c4f0a2916c4d000109428a	2	1	DL_test	16	DL_test	32			0		pa	0	1114	6	4	antiphase_hc_sio.wav	1	6	3	noise_calib_stim_LEFT.wav	1	31	blb_dichoticlistening_ta-ba.mp3	ta	ba	1	other
6.6.1	and	2023-06-27	08:41:10	0	0	59c4f0a2916c4d000109428a	2	1	DL_test	16	DL_test	33			0		pa	1	1141	6	4	antiphase_hc_sio.wav	1	6	3	noise_calib_stim_LEFT.wav	1	26	blb_dichoticlistening_pa-da.mp3	pa	da	1	left
6.6.1	and	2023-06-27	08:41:10	0	0	59c4f0a2916c4d000109428a	2	1	DL_test	16	DL_test	34			0		ka	0	1339	6	4	antiphase_hc_sio.wav	1	6	3	noise_calib_stim_LEFT.wav	1	12	blb_dichoticlistening_da-ta.mp3	da	ta	1	other
6.6.1	and	2023-06-27	08:41:10	0	0	59c4f0a2916c4d000109428a	2	1	DL_test	16	DL_test	35			0		ga	0	1357	6	4	antiphase_hc_sio.wav	1	6	3	noise_calib_stim_LEFT.wav	1	2	blb_dichoticlistening_ba-da.mp3	ba	da	1	other
6.6.1	and	2023-06-27	08:41:10	0	0	59c4f0a2916c4d000109428a	2	1	DL_test	16	DL_test	36			0		ba	1	2121	6	4	antiphase_hc_sio.wav	1	6	3	noise_calib_stim_LEFT.wav	1	1	blb_dichoticlistening_ba-ba.mp3	ba	ba	0	left
6.6.1	and	2023-06-27	08:41:10	08:58:44	969168	59c4f0a2916c4d000109428a	2	1	practice_z	22	practice_z	1	stimuli_distractor_trianglediamonds.svg	stimuli_target_squarediamonds.svg	11	yes	0	0	2000	6	4	antiphase_hc_sio.wav	1	6	3	noise_calib_stim_LEFT.wav	1	1	blb_dichoticlistening_ba-ba.mp3	ba	ba	0	left
6.6.1	and	2023-06-27	08:41:10	08:58:44	969168	59c4f0a2916c4d000109428a	2	1	practice_z	22	advance_on_keypress_ZEE	2	stimuli_distractor_trianglediamonds.svg	stimuli_target_squarediamonds.svg	11	yes	57	0	988	6	4	antiphase_hc_sio.wav	1	6	3	noise_calib_stim_LEFT.wav	1	1	blb_dichoticlistening_ba-ba.mp3	ba	ba	0	left
6.6.1	and	2023-06-27	08:41:10	08:58:47	972289	59c4f0a2916c4d000109428a	2	1	practice_z	22	practice_z	3	stimuli_distractor_diamondtriangles.svg	stimuli_target_rectangletriangles.svg	7	yes	44	1	420	6	4	antiphase_hc_sio.wav	1	6	3	noise_calib_stim_LEFT.wav	1	1	blb_dichoticlistening_ba-ba.mp3	ba	ba	0	left
6.6.1	and	2023-06-27	08:41:10	08:58:47	972289	59c4f0a2916c4d000109428a	2	1	practice_z	22	advance_on_keypress_ZEE	4	stimuli_distractor_diamondtriangles.svg	stimuli_target_rectangletriangles.svg	7	yes	57	0	938	6	4	antiphase_hc_sio.wav	1	6	3	noise_calib_stim_LEFT.wav	1	1	blb_dichoticlistening_ba-ba.mp3	ba	ba	0	left
6.6.1	and	2023-06-27	08:41:10	08:58:50	975335	59c4f0a2916c4d000109428a	2	1	practice_z	22	practice_z	5	stimuli_target_rectanglediamonds.svg	stimuli_distractor_diamondtriangles.svg	1	yes	44	1	400	6	4	antiphase_hc_sio.wav	1	6	3	noise_calib_stim_LEFT.wav	1	1	blb_dichoticlistening_ba-ba.mp3	ba	ba	0	left
6.6.1	and	2023-06-27	08:41:10	08:58:50	975335	59c4f0a2916c4d000109428a	2	1	practice_z	22	advance_on_keypress_ZEE	6	stimuli_target_rectanglediamonds.svg	stimuli_distractor_diamondtriangles.svg	1	yes	57	0	835	6	4	antiphase_hc_sio.wav	1	6	3	noise_calib_stim_LEFT.wav	1	1	blb_dichoticlistening_ba-ba.mp3	ba	ba	0	left
6.6.1	and	2023-06-27	08:41:10	08:58:53	978276	59c4f0a2916c4d000109428a	2	1	practice_z	22	practice_z	7	stimuli_target_rectanglediamonds.svg	stimuli_distractor_trianglediamonds.svg	4	yes	44	1	392	6	4	antiphase_hc_sio.wav	1	6	3	noise_calib_stim_LEFT.wav	1	1	blb_dichoticlistening_ba-ba.mp3	ba	ba	0	left
6.6.1	and	2023-06-27	08:41:10	08:58:53	978276	59c4f0a2916c4d000109428a	2	1	practice_z	22	advance_on_keypress_ZEE	8	stimuli_target_rectanglediamonds.svg	stimuli_distractor_trianglediamonds.svg	4	yes	57	0	837	6	4	antiphase_hc_sio.wav	1	6	3	noise_calib_stim_LEFT.wav	1	1	blb_dichoticlistening_ba-ba.mp3	ba	ba	0	left
6.6.1	and	2023-06-27	08:41:10	08:58:56	980957	59c4f0a2916c4d000109428a	2	1	practice_z	22	practice_z	9	stimuli_target_diamondsquares.svg	stimuli_distractor_trianglediamonds.svg	6	yes	44	1	130	6	4	antiphase_hc_sio.wav	1	6	3	noise_calib_stim_LEFT.wav	1	1	blb_dichoticlistening_ba-ba.mp3	ba	ba	0	left
6.6.1	and	2023-06-27	08:41:10	08:58:56	980957	59c4f0a2916c4d000109428a	2	1	practice_z	22	advance_on_keypress_ZEE	10	stimuli_target_diamondsquares.svg	stimuli_distractor_trianglediamonds.svg	6	yes	57	0	1056	6	4	antiphase_hc_sio.wav	1	6	3	noise_calib_stim_LEFT.wav	1	1	blb_dichoticlistening_ba-ba.mp3	ba	ba	0	left
6.6.1	and	2023-06-27	08:41:10	08:58:59	983963	59c4f0a2916c4d000109428a	2	1	practice_z	22	practice_z	11	stimuli_distractor_diamondtriangles.svg	stimuli_distractor_diamondtriangles.svg	13	no	44	0	260	6	4	antiphase_hc_sio.wav	1	6	3	noise_calib_stim_LEFT.wav	1	1	blb_dichoticlistening_ba-ba.mp3	ba	ba	0	left
6.6.1	and	2023-06-27	08:41:10	08:58:59	983963	59c4f0a2916c4d000109428a	2	1	practice_z	22	advance_on_keypress_ZEE	12	stimuli_distractor_diamondtriangles.svg	stimuli_distractor_diamondtriangles.svg	13	no	57	0	672	6	4	antiphase_hc_sio.wav	1	6	3	noise_calib_stim_LEFT.wav	1	1	blb_dichoticlistening_ba-ba.mp3	ba	ba	0	left
6.6.1	and	2023-06-27	08:41:10	08:59:01	986626	59c4f0a2916c4d000109428a	2	1	practice_z	22	practice_z	13	stimuli_distractor_trianglediamonds.svg	stimuli_distractor_trianglediamonds.svg	15	no	44	0	298	6	4	antiphase_hc_sio.wav	1	6	3	noise_calib_stim_LEFT.wav	1	1	blb_dichoticlistening_ba-ba.mp3	ba	ba	0	left
6.6.1	and	2023-06-27	08:41:10	08:59:01	986626	59c4f0a2916c4d000109428a	2	1	practice_z	22	advance_on_keypress_ZEE	14	stimuli_distractor_trianglediamonds.svg	stimuli_distractor_trianglediamonds.svg	15	no	57	0	606	6	4	antiphase_hc_sio.wav	1	6	3	noise_calib_stim_LEFT.wav	1	1	blb_dichoticlistening_ba-ba.mp3	ba	ba	0	left
6.6.1	and	2023-06-27	08:41:10	08:59:04	989345	59c4f0a2916c4d000109428a	2	1	practice_z	22	practice_z	15	stimuli_distractor_trianglediamonds.svg	stimuli_target_diamondrectangles.svg	12	yes	44	1	388	6	4	antiphase_hc_sio.wav	1	6	3	noise_calib_stim_LEFT.wav	1	1	blb_dichoticlistening_ba-ba.mp3	ba	ba	0	left
6.6.1	and	2023-06-27	08:41:10	08:59:04	989345	59c4f0a2916c4d000109428a	2	1	practice_z	22	advance_on_keypress_ZEE	16	stimuli_distractor_trianglediamonds.svg	stimuli_target_diamondrectangles.svg	12	yes	57	0	653	6	4	antiphase_hc_sio.wav	1	6	3	noise_calib_stim_LEFT.wav	1	1	blb_dichoticlistening_ba-ba.mp3	ba	ba	0	left
6.6.1	and	2023-06-27	08:41:10	08:59:07	992146	59c4f0a2916c4d000109428a	2	1	practice_z	22	practice_z	17	stimuli_target_squarediamonds.svg	stimuli_distractor_diamondtriangles.svg	2	yes	44	1	429	6	4	antiphase_hc_sio.wav	1	6	3	noise_calib_stim_LEFT.wav	1	1	blb_dichoticlistening_ba-ba.mp3	ba	ba	0	left
6.6.1	and	2023-06-27	08:41:10	08:59:07	992146	59c4f0a2916c4d000109428a	2	1	practice_z	22	advance_on_keypress_ZEE	18	stimuli_target_squarediamonds.svg	stimuli_distractor_diamondtriangles.svg	2	yes	57	0	767	6	4	antiphase_hc_sio.wav	1	6	3	noise_calib_stim_LEFT.wav	1	1	blb_dichoticlistening_ba-ba.mp3	ba	ba	0	left
6.6.1	and	2023-06-27	08:41:10	08:59:10	994939	59c4f0a2916c4d000109428a	2	1	practice_z	22	practice_z	19	stimuli_distractor_diamondtriangles.svg	stimuli_target_trianglerectangles.svg	9	yes	44	1	321	6	4	antiphase_hc_sio.wav	1	6	3	noise_calib_stim_LEFT.wav	1	1	blb_dichoticlistening_ba-ba.mp3	ba	ba	0	left
6.6.1	and	2023-06-27	08:41:10	08:59:10	994939	59c4f0a2916c4d000109428a	2	1	practice_z	22	advance_on_keypress_ZEE	20	stimuli_distractor_diamondtriangles.svg	stimuli_target_trianglerectangles.svg	9	yes	57	0	842	6	4	antiphase_hc_sio.wav	1	6	3	noise_calib_stim_LEFT.wav	1	1	blb_dichoticlistening_ba-ba.mp3	ba	ba	0	left
6.6.1	and	2023-06-27	08:41:10	08:59:13	997778	59c4f0a2916c4d000109428a	2	1	practice_z	22	practice_z	21	stimuli_distractor_trianglediamonds.svg	stimuli_target_rectanglediamonds.svg	10	yes	44	1	300	6	4	antiphase_hc_sio.wav	1	6	3	noise_calib_stim_LEFT.wav	1	1	blb_dichoticlistening_ba-ba.mp3	ba	ba	0	left
6.6.1	and	2023-06-27	08:41:10	08:59:13	997778	59c4f0a2916c4d000109428a	2	1	practice_z	22	advance_on_keypress_ZEE	22	stimuli_distractor_trianglediamonds.svg	stimuli_target_rectanglediamonds.svg	10	yes	57	0	654	6	4	antiphase_hc_sio.wav	1	6	3	noise_calib_stim_LEFT.wav	1	1	blb_dichoticlistening_ba-ba.mp3	ba	ba	0	left
6.6.1	and	2023-06-27	08:41:10	08:59:15	1000665	59c4f0a2916c4d000109428a	2	1	practice_z	22	practice_z	23	stimuli_distractor_diamondtriangles.svg	stimuli_distractor_trianglediamonds.svg	14	no	44	0	529	6	4	antiphase_hc_sio.wav	1	6	3	noise_calib_stim_LEFT.wav	1	1	blb_dichoticlistening_ba-ba.mp3	ba	ba	0	left
6.6.1	and	2023-06-27	08:41:10	08:59:15	1000665	59c4f0a2916c4d000109428a	2	1	practice_z	22	advance_on_keypress_ZEE	24	stimuli_distractor_diamondtriangles.svg	stimuli_distractor_trianglediamonds.svg	14	no	57	0	566	6	4	antiphase_hc_sio.wav	1	6	3	noise_calib_stim_LEFT.wav	1	1	blb_dichoticlistening_ba-ba.mp3	ba	ba	0	left
6.6.1	and	2023-06-27	08:41:10	08:59:18	1003464	59c4f0a2916c4d000109428a	2	1	practice_z	22	practice_z	25	stimuli_distractor_trianglediamonds.svg	stimuli_distractor_diamondtriangles.svg	16	no	44	0	524	6	4	antiphase_hc_sio.wav	1	6	3	noise_calib_stim_LEFT.wav	1	1	blb_dichoticlistening_ba-ba.mp3	ba	ba	0	left
6.6.1	and	2023-06-27	08:41:10	08:59:18	1003464	59c4f0a2916c4d000109428a	2	1	practice_z	22	advance_on_keypress_ZEE	26	stimuli_distractor_trianglediamonds.svg	stimuli_distractor_diamondtriangles.svg	16	no	57	0	560	6	4	antiphase_hc_sio.wav	1	6	3	noise_calib_stim_LEFT.wav	1	1	blb_dichoticlistening_ba-ba.mp3	ba	ba	0	left
6.6.1	and	2023-06-27	08:41:10	08:59:21	1006068	59c4f0a2916c4d000109428a	2	1	practice_z	22	practice_z	27	stimuli_distractor_diamondtriangles.svg	stimuli_target_diamondrectangles.svg	8	yes	44	1	323	6	4	antiphase_hc_sio.wav	1	6	3	noise_calib_stim_LEFT.wav	1	1	blb_dichoticlistening_ba-ba.mp3	ba	ba	0	left
6.6.1	and	2023-06-27	08:41:10	08:59:21	1006068	59c4f0a2916c4d000109428a	2	1	practice_z	22	advance_on_keypress_ZEE	28	stimuli_distractor_diamondtriangles.svg	stimuli_target_diamondrectangles.svg	8	yes	57	0	629	6	4	antiphase_hc_sio.wav	1	6	3	noise_calib_stim_LEFT.wav	1	1	blb_dichoticlistening_ba-ba.mp3	ba	ba	0	left
6.6.1	and	2023-06-27	08:41:10	08:59:24	1008911	59c4f0a2916c4d000109428a	2	1	practice_z	22	practice_z	29	stimuli_target_squarediamonds.svg	stimuli_distractor_trianglediamonds.svg	5	yes	44	1	505	6	4	antiphase_hc_sio.wav	1	6	3	noise_calib_stim_LEFT.wav	1	1	blb_dichoticlistening_ba-ba.mp3	ba	ba	0	left
6.6.1	and	2023-06-27	08:41:10	08:59:24	1008911	59c4f0a2916c4d000109428a	2	1	practice_z	22	advance_on_keypress_ZEE	30	stimuli_target_squarediamonds.svg	stimuli_distractor_trianglediamonds.svg	5	yes	57	0	502	6	4	antiphase_hc_sio.wav	1	6	3	noise_calib_stim_LEFT.wav	1	1	blb_dichoticlistening_ba-ba.mp3	ba	ba	0	left
6.6.1	and	2023-06-27	08:41:10	08:59:26	1011615	59c4f0a2916c4d000109428a	2	1	practice_z	22	practice_z	31	stimuli_target_diamondsquares.svg	stimuli_distractor_diamondtriangles.svg	3	yes	44	1	482	6	4	antiphase_hc_sio.wav	1	6	3	noise_calib_stim_LEFT.wav	1	1	blb_dichoticlistening_ba-ba.mp3	ba	ba	0	left
6.6.1	and	2023-06-27	08:41:10	08:59:26	1011615	59c4f0a2916c4d000109428a	2	1	practice_z	22	advance_on_keypress_ZEE	32	stimuli_target_diamondsquares.svg	stimuli_distractor_diamondtriangles.svg	3	yes	57	0	429	6	4	antiphase_hc_sio.wav	1	6	3	noise_calib_stim_LEFT.wav	1	1	blb_dichoticlistening_ba-ba.mp3	ba	ba	0	left
6.6.1	and	2023-06-27	08:41:10	08:59:34	1019568	59c4f0a2916c4d000109428a	2	1	main_z	24	main_z	1	stimuli_target_trianglerectangles.svg	stimuli_distractor_diamondtriangles.svg	21	yes	44	1	519	6	4	antiphase_hc_sio.wav	1	6	3	noise_calib_stim_LEFT.wav	1	1	blb_dichoticlistening_ba-ba.mp3	ba	ba	0	left
6.6.1	and	2023-06-27	08:41:10	08:59:34	1019568	59c4f0a2916c4d000109428a	2	1	main_z	24	advance_on_keypress_ZEE	2	stimuli_target_trianglerectangles.svg	stimuli_distractor_diamondtriangles.svg	21	yes	57	0	1286	6	4	antiphase_hc_sio.wav	1	6	3	noise_calib_stim_LEFT.wav	1	1	blb_dichoticlistening_ba-ba.mp3	ba	ba	0	left
6.6.1	and	2023-06-27	08:41:10	08:59:37	1021832	59c4f0a2916c4d000109428a	2	1	main_z	24	main_z	3	stimuli_distractor_diamondtriangles.svg	stimuli_target_trianglerectangles.svg	29	yes	44	1	272	6	4	antiphase_hc_sio.wav	1	6	3	noise_calib_stim_LEFT.wav	1	1	blb_dichoticlistening_ba-ba.mp3	ba	ba	0	left
6.6.1	and	2023-06-27	08:41:10	08:59:37	1021832	59c4f0a2916c4d000109428a	2	1	main_z	24	advance_on_keypress_ZEE	4	stimuli_distractor_diamondtriangles.svg	stimuli_target_trianglerectangles.svg	29	yes	57	0	1059	6	4	antiphase_hc_sio.wav	1	6	3	noise_calib_stim_LEFT.wav	1	1	blb_dichoticlistening_ba-ba.mp3	ba	ba	0	left
6.6.1	and	2023-06-27	08:41:10	08:59:39	1024006	59c4f0a2916c4d000109428a	2	1	main_z	24	main_z	5	stimuli_distractor_diamondtriangles.svg	stimuli_target_squarediamonds.svg	16	yes	44	1	392	6	4	antiphase_hc_sio.wav	1	6	3	noise_calib_stim_LEFT.wav	1	1	blb_dichoticlistening_ba-ba.mp3	ba	ba	0	left
6.6.1	and	2023-06-27	08:41:10	08:59:39	1024006	59c4f0a2916c4d000109428a	2	1	main_z	24	advance_on_keypress_ZEE	6	stimuli_distractor_diamondtriangles.svg	stimuli_target_squarediamonds.svg	16	yes	57	0	2157	6	4	antiphase_hc_sio.wav	1	6	3	noise_calib_stim_LEFT.wav	1	1	blb_dichoticlistening_ba-ba.mp3	ba	ba	0	left
6.6.1	and	2023-06-27	08:41:10	08:59:42	1027280	59c4f0a2916c4d000109428a	2	1	main_z	24	main_z	7	stimuli_target_diamondrectangles.svg	stimuli_distractor_trianglediamonds.svg	19	yes	44	1	393	6	4	antiphase_hc_sio.wav	1	6	3	noise_calib_stim_LEFT.wav	1	1	blb_dichoticlistening_ba-ba.mp3	ba	ba	0	left
6.6.1	and	2023-06-27	08:41:10	08:59:42	1027280	59c4f0a2916c4d000109428a	2	1	main_z	24	advance_on_keypress_ZEE	8	stimuli_target_diamondrectangles.svg	stimuli_distractor_trianglediamonds.svg	19	yes	57	0	777	6	4	antiphase_hc_sio.wav	1	6	3	noise_calib_stim_LEFT.wav	1	1	blb_dichoticlistening_ba-ba.mp3	ba	ba	0	left
6.6.1	and	2023-06-27	08:41:10	08:59:44	1029264	59c4f0a2916c4d000109428a	2	1	main_z	24	main_z	9	stimuli_distractor_diamondtriangles.svg	stimuli_target_squaretriangles.svg	15	yes	44	1	489	6	4	antiphase_hc_sio.wav	1	6	3	noise_calib_stim_LEFT.wav	1	1	blb_dichoticlistening_ba-ba.mp3	ba	ba	0	left
6.6.1	and	2023-06-27	08:41:10	08:59:44	1029264	59c4f0a2916c4d000109428a	2	1	main_z	24	advance_on_keypress_ZEE	10	stimuli_distractor_diamondtriangles.svg	stimuli_target_squaretriangles.svg	15	yes	57	0	1971	6	4	antiphase_hc_sio.wav	1	6	3	noise_calib_stim_LEFT.wav	1	1	blb_dichoticlistening_ba-ba.mp3	ba	ba	0	left
6.6.1	and	2023-06-27	08:41:10	08:59:47	1032418	59c4f0a2916c4d000109428a	2	1	main_z	24	main_z	11	stimuli_target_squaretriangles.svg	stimuli_distractor_diamondtriangles.svg	7	yes	44	1	454	6	4	antiphase_hc_sio.wav	1	6	3	noise_calib_stim_LEFT.wav	1	1	blb_dichoticlistening_ba-ba.mp3	ba	ba	0	left
6.6.1	and	2023-06-27	08:41:10	08:59:47	1032418	59c4f0a2916c4d000109428a	2	1	main_z	24	advance_on_keypress_ZEE	12	stimuli_target_squaretriangles.svg	stimuli_distractor_diamondtriangles.svg	7	yes	57	0	867	6	4	antiphase_hc_sio.wav	1	6	3	noise_calib_stim_LEFT.wav	1	1	blb_dichoticlistening_ba-ba.mp3	ba	ba	0	left
6.6.1	and	2023-06-27	08:41:10	08:59:49	1034407	59c4f0a2916c4d000109428a	2	1	main_z	24	main_z	13	stimuli_distractor_trianglediamonds.svg	stimuli_target_squaretriangles.svg	11	yes	44	1	401	6	4	antiphase_hc_sio.wav	1	6	3	noise_calib_stim_LEFT.wav	1	1	blb_dichoticlistening_ba-ba.mp3	ba	ba	0	left
6.6.1	and	2023-06-27	08:41:10	08:59:49	1034407	59c4f0a2916c4d000109428a	2	1	main_z	24	advance_on_keypress_ZEE	14	stimuli_distractor_trianglediamonds.svg	stimuli_target_squaretriangles.svg	11	yes	57	0	732	6	4	antiphase_hc_sio.wav	1	6	3	noise_calib_stim_LEFT.wav	1	1	blb_dichoticlistening_ba-ba.mp3	ba	ba	0	left
6.6.1	and	2023-06-27	08:41:10	08:59:51	1036336	59c4f0a2916c4d000109428a	2	1	main_z	24	main_z	15	stimuli_distractor_trianglediamonds.svg	stimuli_target_trianglesquares.svg	26	yes	44	1	480	6	4	antiphase_hc_sio.wav	1	6	3	noise_calib_stim_LEFT.wav	1	1	blb_dichoticlistening_ba-ba.mp3	ba	ba	0	left
6.6.1	and	2023-06-27	08:41:10	08:59:51	1036336	59c4f0a2916c4d000109428a	2	1	main_z	24	advance_on_keypress_ZEE	16	stimuli_distractor_trianglediamonds.svg	stimuli_target_trianglesquares.svg	26	yes	57	0	837	6	4	antiphase_hc_sio.wav	1	6	3	noise_calib_stim_LEFT.wav	1	1	blb_dichoticlistening_ba-ba.mp3	ba	ba	0	left
6.6.1	and	2023-06-27	08:41:10	08:59:53	1038226	59c4f0a2916c4d000109428a	2	1	main_z	24	main_z	17	stimuli_distractor_trianglediamonds.svg	stimuli_target_trianglerectangles.svg	25	yes	44	1	327	6	4	antiphase_hc_sio.wav	1	6	3	noise_calib_stim_LEFT.wav	1	1	blb_dichoticlistening_ba-ba.mp3	ba	ba	0	left
6.6.1	and	2023-06-27	08:41:10	08:59:53	1038226	59c4f0a2916c4d000109428a	2	1	main_z	24	advance_on_keypress_ZEE	18	stimuli_distractor_trianglediamonds.svg	stimuli_target_trianglerectangles.svg	25	yes	57	0	654	6	4	antiphase_hc_sio.wav	1	6	3	noise_calib_stim_LEFT.wav	1	1	blb_dichoticlistening_ba-ba.mp3	ba	ba	0	left
6.6.1	and	2023-06-27	08:41:10	08:59:55	1040049	59c4f0a2916c4d000109428a	2	1	main_z	24	main_z	19	stimuli_distractor_diamondtriangles.svg	stimuli_distractor_trianglediamonds.svg	37	no	44	0	446	6	4	antiphase_hc_sio.wav	1	6	3	noise_calib_stim_LEFT.wav	1	1	blb_dichoticlistening_ba-ba.mp3	ba	ba	0	left
6.6.1	and	2023-06-27	08:41:10	08:59:55	1040049	59c4f0a2916c4d000109428a	2	1	main_z	24	advance_on_keypress_ZEE	20	stimuli_distractor_diamondtriangles.svg	stimuli_distractor_trianglediamonds.svg	37	no	57	0	874	6	4	antiphase_hc_sio.wav	1	6	3	noise_calib_stim_LEFT.wav	1	1	blb_dichoticlistening_ba-ba.mp3	ba	ba	0	left
6.6.1	and	2023-06-27	08:41:10	08:59:57	1042082	59c4f0a2916c4d000109428a	2	1	main_z	24	main_z	21	stimuli_target_squarediamonds.svg	stimuli_distractor_trianglediamonds.svg	4	yes	44	1	442	6	4	antiphase_hc_sio.wav	1	6	3	noise_calib_stim_LEFT.wav	1	1	blb_dichoticlistening_ba-ba.mp3	ba	ba	0	left
6.6.1	and	2023-06-27	08:41:10	08:59:57	1042082	59c4f0a2916c4d000109428a	2	1	main_z	24	advance_on_keypress_ZEE	22	stimuli_target_squarediamonds.svg	stimuli_distractor_trianglediamonds.svg	4	yes	57	0	1064	6	4	antiphase_hc_sio.wav	1	6	3	noise_calib_stim_LEFT.wav	1	1	blb_dichoticlistening_ba-ba.mp3	ba	ba	0	left
6.6.1	and	2023-06-27	08:41:10	08:59:59	1044398	59c4f0a2916c4d000109428a	2	1	main_z	24	main_z	23	stimuli_target_diamondsquares.svg	stimuli_distractor_diamondtriangles.svg	24	yes	44	1	536	6	4	antiphase_hc_sio.wav	1	6	3	noise_calib_stim_LEFT.wav	1	1	blb_dichoticlistening_ba-ba.mp3	ba	ba	0	left
6.6.1	and	2023-06-27	08:41:10	08:59:59	1044398	59c4f0a2916c4d000109428a	2	1	main_z	24	advance_on_keypress_ZEE	24	stimuli_target_diamondsquares.svg	stimuli_distractor_diamondtriangles.svg	24	yes	57	0	797	6	4	antiphase_hc_sio.wav	1	6	3	noise_calib_stim_LEFT.wav	1	1	blb_dichoticlistening_ba-ba.mp3	ba	ba	0	left
6.6.1	and	2023-06-27	08:41:10	09:00:01	1046535	59c4f0a2916c4d000109428a	2	1	main_z	24	main_z	25	stimuli_target_trianglerectangles.svg	stimuli_distractor_trianglediamonds.svg	17	yes	44	1	637	6	4	antiphase_hc_sio.wav	1	6	3	noise_calib_stim_LEFT.wav	1	1	blb_dichoticlistening_ba-ba.mp3	ba	ba	0	left
6.6.1	and	2023-06-27	08:41:10	09:00:01	1046535	59c4f0a2916c4d000109428a	2	1	main_z	24	advance_on_keypress_ZEE	26	stimuli_target_trianglerectangles.svg	stimuli_distractor_trianglediamonds.svg	17	yes	57	0	775	6	4	antiphase_hc_sio.wav	1	6	3	noise_calib_stim_LEFT.wav	1	1	blb_dichoticlistening_ba-ba.mp3	ba	ba	0	left
6.6.1	and	2023-06-27	08:41:10	09:00:03	1048599	59c4f0a2916c4d000109428a	2	1	main_z	24	main_z	27	stimuli_distractor_diamondtriangles.svg	stimuli_target_trianglesquares.svg	30	yes	44	1	576	6	4	antiphase_hc_sio.wav	1	6	3	noise_calib_stim_LEFT.wav	1	1	blb_dichoticlistening_ba-ba.mp3	ba	ba	0	left
6.6.1	and	2023-06-27	08:41:10	09:00:03	1048599	59c4f0a2916c4d000109428a	2	1	main_z	24	advance_on_keypress_ZEE	28	stimuli_distractor_diamondtriangles.svg	stimuli_target_trianglesquares.svg	30	yes	57	0	765	6	4	antiphase_hc_sio.wav	1	6	3	noise_calib_stim_LEFT.wav	1	1	blb_dichoticlistening_ba-ba.mp3	ba	ba	0	left
6.6.1	and	2023-06-27	08:41:10	09:00:05	1050542	59c4f0a2916c4d000109428a	2	1	main_z	24	main_z	29	stimuli_target_squaretriangles.svg	stimuli_distractor_trianglediamonds.svg	3	yes	44	1	446	6	4	antiphase_hc_sio.wav	1	6	3	noise_calib_stim_LEFT.wav	1	1	blb_dichoticlistening_ba-ba.mp3	ba	ba	0	left
6.6.1	and	2023-06-27	08:41:10	09:00:05	1050542	59c4f0a2916c4d000109428a	2	1	main_z	24	advance_on_keypress_ZEE	30	stimuli_target_squaretriangles.svg	stimuli_distractor_trianglediamonds.svg	3	yes	57	0	745	6	4	antiphase_hc_sio.wav	1	6	3	noise_calib_stim_LEFT.wav	1	1	blb_dichoticlistening_ba-ba.mp3	ba	ba	0	left
6.6.1	and	2023-06-27	08:41:10	09:00:07	1052543	59c4f0a2916c4d000109428a	2	1	main_z	24	main_z	31	stimuli_target_squarediamonds.svg	stimuli_distractor_diamondtriangles.svg	8	yes	44	1	541	6	4	antiphase_hc_sio.wav	1	6	3	noise_calib_stim_LEFT.wav	1	1	blb_dichoticlistening_ba-ba.mp3	ba	ba	0	left
6.6.1	and	2023-06-27	08:41:10	09:00:07	1052543	59c4f0a2916c4d000109428a	2	1	main_z	24	advance_on_keypress_ZEE	32	stimuli_target_squarediamonds.svg	stimuli_distractor_diamondtriangles.svg	8	yes	57	0	646	6	4	antiphase_hc_sio.wav	1	6	3	noise_calib_stim_LEFT.wav	1	1	blb_dichoticlistening_ba-ba.mp3	ba	ba	0	left
6.6.1	and	2023-06-27	08:41:10	09:00:09	1054304	59c4f0a2916c4d000109428a	2	1	main_z	24	main_z	33	stimuli_target_rectangletriangles.svg	stimuli_distractor_trianglediamonds.svg	1	yes	44	1	399	6	4	antiphase_hc_sio.wav	1	6	3	noise_calib_stim_LEFT.wav	1	1	blb_dichoticlistening_ba-ba.mp3	ba	ba	0	left
6.6.1	and	2023-06-27	08:41:10	09:00:09	1054304	59c4f0a2916c4d000109428a	2	1	main_z	24	advance_on_keypress_ZEE	34	stimuli_target_rectangletriangles.svg	stimuli_distractor_trianglediamonds.svg	1	yes	57	0	730	6	4	antiphase_hc_sio.wav	1	6	3	noise_calib_stim_LEFT.wav	1	1	blb_dichoticlistening_ba-ba.mp3	ba	ba	0	left
6.6.1	and	2023-06-27	08:41:10	09:00:11	1056176	59c4f0a2916c4d000109428a	2	1	main_z	24	main_z	35	stimuli_distractor_trianglediamonds.svg	stimuli_target_rectanglediamonds.svg	10	yes	44	1	435	6	4	antiphase_hc_sio.wav	1	6	3	noise_calib_stim_LEFT.wav	1	1	blb_dichoticlistening_ba-ba.mp3	ba	ba	0	left
6.6.1	and	2023-06-27	08:41:10	09:00:11	1056176	59c4f0a2916c4d000109428a	2	1	main_z	24	advance_on_keypress_ZEE	36	stimuli_distractor_trianglediamonds.svg	stimuli_target_rectanglediamonds.svg	10	yes	57	0	892	6	4	antiphase_hc_sio.wav	1	6	3	noise_calib_stim_LEFT.wav	1	1	blb_dichoticlistening_ba-ba.mp3	ba	ba	0	left
6.6.1	and	2023-06-27	08:41:10	09:00:13	1058171	59c4f0a2916c4d000109428a	2	1	main_z	24	main_z	37	stimuli_distractor_diamondtriangles.svg	stimuli_target_diamondsquares.svg	32	yes	44	1	395	6	4	antiphase_hc_sio.wav	1	6	3	noise_calib_stim_LEFT.wav	1	1	blb_dichoticlistening_ba-ba.mp3	ba	ba	0	left
6.6.1	and	2023-06-27	08:41:10	09:00:13	1058171	59c4f0a2916c4d000109428a	2	1	main_z	24	advance_on_keypress_ZEE	38	stimuli_distractor_diamondtriangles.svg	stimuli_target_diamondsquares.svg	32	yes	57	0	606	6	4	antiphase_hc_sio.wav	1	6	3	noise_calib_stim_LEFT.wav	1	1	blb_dichoticlistening_ba-ba.mp3	ba	ba	0	left
6.6.1	and	2023-06-27	08:41:10	09:00:15	1059781	59c4f0a2916c4d000109428a	2	1	main_z	24	main_z	39	stimuli_target_trianglesquares.svg	stimuli_distractor_diamondtriangles.svg	22	yes	44	1	279	6	4	antiphase_hc_sio.wav	1	6	3	noise_calib_stim_LEFT.wav	1	1	blb_dichoticlistening_ba-ba.mp3	ba	ba	0	left
6.6.1	and	2023-06-27	08:41:10	09:00:15	1059781	59c4f0a2916c4d000109428a	2	1	main_z	24	advance_on_keypress_ZEE	40	stimuli_target_trianglesquares.svg	stimuli_distractor_diamondtriangles.svg	22	yes	57	0	765	6	4	antiphase_hc_sio.wav	1	6	3	noise_calib_stim_LEFT.wav	1	1	blb_dichoticlistening_ba-ba.mp3	ba	ba	0	left
6.6.1	and	2023-06-27	08:41:10	09:00:16	1061657	59c4f0a2916c4d000109428a	2	1	main_z	24	main_z	41	stimuli_target_rectangletriangles.svg	stimuli_distractor_diamondtriangles.svg	5	yes	44	1	387	6	4	antiphase_hc_sio.wav	1	6	3	noise_calib_stim_LEFT.wav	1	1	blb_dichoticlistening_ba-ba.mp3	ba	ba	0	left
6.6.1	and	2023-06-27	08:41:10	09:00:16	1061657	59c4f0a2916c4d000109428a	2	1	main_z	24	advance_on_keypress_ZEE	42	stimuli_target_rectangletriangles.svg	stimuli_distractor_diamondtriangles.svg	5	yes	57	0	761	6	4	antiphase_hc_sio.wav	1	6	3	noise_calib_stim_LEFT.wav	1	1	blb_dichoticlistening_ba-ba.mp3	ba	ba	0	left
6.6.1	and	2023-06-27	08:41:10	09:00:18	1063696	59c4f0a2916c4d000109428a	2	1	main_z	24	main_z	43	stimuli_distractor_diamondtriangles.svg	stimuli_distractor_trianglediamonds.svg	38	no	44	0	571	6	4	antiphase_hc_sio.wav	1	6	3	noise_calib_stim_LEFT.wav	1	1	blb_dichoticlistening_ba-ba.mp3	ba	ba	0	left
6.6.1	and	2023-06-27	08:41:10	09:00:18	1063696	59c4f0a2916c4d000109428a	2	1	main_z	24	advance_on_keypress_ZEE	44	stimuli_distractor_diamondtriangles.svg	stimuli_distractor_trianglediamonds.svg	38	no	57	0	1535	6	4	antiphase_hc_sio.wav	1	6	3	noise_calib_stim_LEFT.wav	1	1	blb_dichoticlistening_ba-ba.mp3	ba	ba	0	left
6.6.1	and	2023-06-27	08:41:10	09:00:21	1066428	59c4f0a2916c4d000109428a	2	1	main_z	24	main_z	45	stimuli_distractor_trianglediamonds.svg	stimuli_target_rectangletriangles.svg	9	yes	44	1	462	6	4	antiphase_hc_sio.wav	1	6	3	noise_calib_stim_LEFT.wav	1	1	blb_dichoticlistening_ba-ba.mp3	ba	ba	0	left
6.6.1	and	2023-06-27	08:41:10	09:00:21	1066428	59c4f0a2916c4d000109428a	2	1	main_z	24	advance_on_keypress_ZEE	46	stimuli_distractor_trianglediamonds.svg	stimuli_target_rectangletriangles.svg	9	yes	57	0	697	6	4	antiphase_hc_sio.wav	1	6	3	noise_calib_stim_LEFT.wav	1	1	blb_dichoticlistening_ba-ba.mp3	ba	ba	0	left
6.6.1	and	2023-06-27	08:41:10	09:00:23	1068424	59c4f0a2916c4d000109428a	2	1	main_z	24	main_z	47	stimuli_distractor_trianglediamonds.svg	stimuli_target_diamondrectangles.svg	27	yes	44	1	572	6	4	antiphase_hc_sio.wav	1	6	3	noise_calib_stim_LEFT.wav	1	1	blb_dichoticlistening_ba-ba.mp3	ba	ba	0	left
6.6.1	and	2023-06-27	08:41:10	09:00:23	1068424	59c4f0a2916c4d000109428a	2	1	main_z	24	advance_on_keypress_ZEE	48	stimuli_distractor_trianglediamonds.svg	stimuli_target_diamondrectangles.svg	27	yes	57	0	651	6	4	antiphase_hc_sio.wav	1	6	3	noise_calib_stim_LEFT.wav	1	1	blb_dichoticlistening_ba-ba.mp3	ba	ba	0	left
6.6.1	and	2023-06-27	08:41:10	09:00:25	1070435	59c4f0a2916c4d000109428a	2	1	main_z	24	main_z	49	stimuli_distractor_trianglediamonds.svg	stimuli_distractor_trianglediamonds.svg	34	no	44	0	619	6	4	antiphase_hc_sio.wav	1	6	3	noise_calib_stim_LEFT.wav	1	1	blb_dichoticlistening_ba-ba.mp3	ba	ba	0	left
6.6.1	and	2023-06-27	08:41:10	09:00:25	1070435	59c4f0a2916c4d000109428a	2	1	main_z	24	advance_on_keypress_ZEE	50	stimuli_distractor_trianglediamonds.svg	stimuli_distractor_trianglediamonds.svg	34	no	57	0	833	6	4	antiphase_hc_sio.wav	1	6	3	noise_calib_stim_LEFT.wav	1	1	blb_dichoticlistening_ba-ba.mp3	ba	ba	0	left
6.6.1	and	2023-06-27	08:41:10	09:00:27	1072573	59c4f0a2916c4d000109428a	2	1	main_z	24	main_z	51	stimuli_target_rectanglediamonds.svg	stimuli_distractor_diamondtriangles.svg	6	yes	44	1	582	6	4	antiphase_hc_sio.wav	1	6	3	noise_calib_stim_LEFT.wav	1	1	blb_dichoticlistening_ba-ba.mp3	ba	ba	0	left
6.6.1	and	2023-06-27	08:41:10	09:00:27	1072573	59c4f0a2916c4d000109428a	2	1	main_z	24	advance_on_keypress_ZEE	52	stimuli_target_rectanglediamonds.svg	stimuli_distractor_diamondtriangles.svg	6	yes	57	0	622	6	4	antiphase_hc_sio.wav	1	6	3	noise_calib_stim_LEFT.wav	1	1	blb_dichoticlistening_ba-ba.mp3	ba	ba	0	left
6.6.1	and	2023-06-27	08:41:10	09:00:29	1074583	59c4f0a2916c4d000109428a	2	1	main_z	24	main_z	53	stimuli_distractor_diamondtriangles.svg	stimuli_target_rectangletriangles.svg	13	yes	44	1	665	6	4	antiphase_hc_sio.wav	1	6	3	noise_calib_stim_LEFT.wav	1	1	blb_dichoticlistening_ba-ba.mp3	ba	ba	0	left
6.6.1	and	2023-06-27	08:41:10	09:00:29	1074583	59c4f0a2916c4d000109428a	2	1	main_z	24	advance_on_keypress_ZEE	54	stimuli_distractor_diamondtriangles.svg	stimuli_target_rectangletriangles.svg	13	yes	57	0	717	6	4	antiphase_hc_sio.wav	1	6	3	noise_calib_stim_LEFT.wav	1	1	blb_dichoticlistening_ba-ba.mp3	ba	ba	0	left
6.6.1	and	2023-06-27	08:41:10	09:00:31	1076549	59c4f0a2916c4d000109428a	2	1	main_z	24	main_z	55	stimuli_target_diamondsquares.svg	stimuli_distractor_trianglediamonds.svg	20	yes	44	1	510	6	4	antiphase_hc_sio.wav	1	6	3	noise_calib_stim_LEFT.wav	1	1	blb_dichoticlistening_ba-ba.mp3	ba	ba	0	left
6.6.1	and	2023-06-27	08:41:10	09:00:31	1076549	59c4f0a2916c4d000109428a	2	1	main_z	24	advance_on_keypress_ZEE	56	stimuli_target_diamondsquares.svg	stimuli_distractor_trianglediamonds.svg	20	yes	57	0	602	6	4	antiphase_hc_sio.wav	1	6	3	noise_calib_stim_LEFT.wav	1	1	blb_dichoticlistening_ba-ba.mp3	ba	ba	0	left
6.6.1	and	2023-06-27	08:41:10	09:00:33	1078389	59c4f0a2916c4d000109428a	2	1	main_z	24	main_z	57	stimuli_distractor_diamondtriangles.svg	stimuli_target_diamondrectangles.svg	31	yes	44	1	513	6	4	antiphase_hc_sio.wav	1	6	3	noise_calib_stim_LEFT.wav	1	1	blb_dichoticlistening_ba-ba.mp3	ba	ba	0	left
6.6.1	and	2023-06-27	08:41:10	09:00:33	1078389	59c4f0a2916c4d000109428a	2	1	main_z	24	advance_on_keypress_ZEE	58	stimuli_distractor_diamondtriangles.svg	stimuli_target_diamondrectangles.svg	31	yes	57	0	689	6	4	antiphase_hc_sio.wav	1	6	3	noise_calib_stim_LEFT.wav	1	1	blb_dichoticlistening_ba-ba.mp3	ba	ba	0	left
6.6.1	and	2023-06-27	08:41:10	09:00:35	1080142	59c4f0a2916c4d000109428a	2	1	main_z	24	main_z	59	stimuli_distractor_trianglediamonds.svg	stimuli_distractor_trianglediamonds.svg	33	no	44	0	362	6	4	antiphase_hc_sio.wav	1	6	3	noise_calib_stim_LEFT.wav	1	1	blb_dichoticlistening_ba-ba.mp3	ba	ba	0	left
6.6.1	and	2023-06-27	08:41:10	09:00:35	1080142	59c4f0a2916c4d000109428a	2	1	main_z	24	advance_on_keypress_ZEE	60	stimuli_distractor_trianglediamonds.svg	stimuli_distractor_trianglediamonds.svg	33	no	57	0	605	6	4	antiphase_hc_sio.wav	1	6	3	noise_calib_stim_LEFT.wav	1	1	blb_dichoticlistening_ba-ba.mp3	ba	ba	0	left
6.6.1	and	2023-06-27	08:41:10	09:00:37	1081909	59c4f0a2916c4d000109428a	2	1	main_z	24	main_z	61	stimuli_distractor_trianglediamonds.svg	stimuli_target_squarediamonds.svg	12	yes	44	1	443	6	4	antiphase_hc_sio.wav	1	6	3	noise_calib_stim_LEFT.wav	1	1	blb_dichoticlistening_ba-ba.mp3	ba	ba	0	left
6.6.1	and	2023-06-27	08:41:10	09:00:37	1081909	59c4f0a2916c4d000109428a	2	1	main_z	24	advance_on_keypress_ZEE	62	stimuli_distractor_trianglediamonds.svg	stimuli_target_squarediamonds.svg	12	yes	57	0	743	6	4	antiphase_hc_sio.wav	1	6	3	noise_calib_stim_LEFT.wav	1	1	blb_dichoticlistening_ba-ba.mp3	ba	ba	0	left
6.6.1	and	2023-06-27	08:41:10	09:00:39	1083927	59c4f0a2916c4d000109428a	2	1	main_z	24	main_z	63	stimuli_distractor_diamondtriangles.svg	stimuli_distractor_diamondtriangles.svg	40	no	44	0	548	6	4	antiphase_hc_sio.wav	1	6	3	noise_calib_stim_LEFT.wav	1	1	blb_dichoticlistening_ba-ba.mp3	ba	ba	0	left
6.6.1	and	2023-06-27	08:41:10	09:00:39	1083927	59c4f0a2916c4d000109428a	2	1	main_z	24	advance_on_keypress_ZEE	64	stimuli_distractor_diamondtriangles.svg	stimuli_distractor_diamondtriangles.svg	40	no	57	0	540	6	4	antiphase_hc_sio.wav	1	6	3	noise_calib_stim_LEFT.wav	1	1	blb_dichoticlistening_ba-ba.mp3	ba	ba	0	left
6.6.1	and	2023-06-27	08:41:10	09:00:40	1085500	59c4f0a2916c4d000109428a	2	1	main_z	24	main_z	65	stimuli_distractor_trianglediamonds.svg	stimuli_target_diamondsquares.svg	28	yes	44	1	326	6	4	antiphase_hc_sio.wav	1	6	3	noise_calib_stim_LEFT.wav	1	1	blb_dichoticlistening_ba-ba.mp3	ba	ba	0	left
6.6.1	and	2023-06-27	08:41:10	09:00:40	1085500	59c4f0a2916c4d000109428a	2	1	main_z	24	advance_on_keypress_ZEE	66	stimuli_distractor_trianglediamonds.svg	stimuli_target_diamondsquares.svg	28	yes	57	0	677	6	4	antiphase_hc_sio.wav	1	6	3	noise_calib_stim_LEFT.wav	1	1	blb_dichoticlistening_ba-ba.mp3	ba	ba	0	left
6.6.1	and	2023-06-27	08:41:10	09:00:42	1087298	59c4f0a2916c4d000109428a	2	1	main_z	24	main_z	67	stimuli_distractor_trianglediamonds.svg	stimuli_distractor_diamondtriangles.svg	35	no	44	0	394	6	4	antiphase_hc_sio.wav	1	6	3	noise_calib_stim_LEFT.wav	1	1	blb_dichoticlistening_ba-ba.mp3	ba	ba	0	left
6.6.1	and	2023-06-27	08:41:10	09:00:42	1087298	59c4f0a2916c4d000109428a	2	1	main_z	24	advance_on_keypress_ZEE	68	stimuli_distractor_trianglediamonds.svg	stimuli_distractor_diamondtriangles.svg	35	no	57	0	588	6	4	antiphase_hc_sio.wav	1	6	3	noise_calib_stim_LEFT.wav	1	1	blb_dichoticlistening_ba-ba.mp3	ba	ba	0	left
6.6.1	and	2023-06-27	08:41:10	09:00:45	1090608	59c4f0a2916c4d000109428a	2	1	main_z	24	main_z	69	stimuli_distractor_diamondtriangles.svg	stimuli_target_rectanglediamonds.svg	14	yes	0	0	2000	6	4	antiphase_hc_sio.wav	1	6	3	noise_calib_stim_LEFT.wav	1	1	blb_dichoticlistening_ba-ba.mp3	ba	ba	0	left
6.6.1	and	2023-06-27	08:41:10	09:00:45	1090608	59c4f0a2916c4d000109428a	2	1	main_z	24	advance_on_keypress_ZEE	70	stimuli_distractor_diamondtriangles.svg	stimuli_target_rectanglediamonds.svg	14	yes	57	0	301	6	4	antiphase_hc_sio.wav	1	6	3	noise_calib_stim_LEFT.wav	1	1	blb_dichoticlistening_ba-ba.mp3	ba	ba	0	left
6.6.1	and	2023-06-27	08:41:10	09:00:47	1092205	59c4f0a2916c4d000109428a	2	1	main_z	24	main_z	71	stimuli_target_diamondrectangles.svg	stimuli_distractor_diamondtriangles.svg	23	yes	44	1	586	6	4	antiphase_hc_sio.wav	1	6	3	noise_calib_stim_LEFT.wav	1	1	blb_dichoticlistening_ba-ba.mp3	ba	ba	0	left
6.6.1	and	2023-06-27	08:41:10	09:00:47	1092205	59c4f0a2916c4d000109428a	2	1	main_z	24	advance_on_keypress_ZEE	72	stimuli_target_diamondrectangles.svg	stimuli_distractor_diamondtriangles.svg	23	yes	57	0	677	6	4	antiphase_hc_sio.wav	1	6	3	noise_calib_stim_LEFT.wav	1	1	blb_dichoticlistening_ba-ba.mp3	ba	ba	0	left
6.6.1	and	2023-06-27	08:41:10	09:00:49	1094086	59c4f0a2916c4d000109428a	2	1	main_z	24	main_z	73	stimuli_target_rectanglediamonds.svg	stimuli_distractor_trianglediamonds.svg	2	yes	44	1	491	6	4	antiphase_hc_sio.wav	1	6	3	noise_calib_stim_LEFT.wav	1	1	blb_dichoticlistening_ba-ba.mp3	ba	ba	0	left
6.6.1	and	2023-06-27	08:41:10	09:00:49	1094086	59c4f0a2916c4d000109428a	2	1	main_z	24	advance_on_keypress_ZEE	74	stimuli_target_rectanglediamonds.svg	stimuli_distractor_trianglediamonds.svg	2	yes	57	0	837	6	4	antiphase_hc_sio.wav	1	6	3	noise_calib_stim_LEFT.wav	1	1	blb_dichoticlistening_ba-ba.mp3	ba	ba	0	left
6.6.1	and	2023-06-27	08:41:10	09:00:51	1096082	59c4f0a2916c4d000109428a	2	1	main_z	24	main_z	75	stimuli_distractor_diamondtriangles.svg	stimuli_distractor_diamondtriangles.svg	39	no	44	0	430	6	4	antiphase_hc_sio.wav	1	6	3	noise_calib_stim_LEFT.wav	1	1	blb_dichoticlistening_ba-ba.mp3	ba	ba	0	left
6.6.1	and	2023-06-27	08:41:10	09:00:51	1096082	59c4f0a2916c4d000109428a	2	1	main_z	24	advance_on_keypress_ZEE	76	stimuli_distractor_diamondtriangles.svg	stimuli_distractor_diamondtriangles.svg	39	no	57	0	915	6	4	antiphase_hc_sio.wav	1	6	3	noise_calib_stim_LEFT.wav	1	1	blb_dichoticlistening_ba-ba.mp3	ba	ba	0	left
6.6.1	and	2023-06-27	08:41:10	09:00:53	1098167	59c4f0a2916c4d000109428a	2	1	main_z	24	main_z	77	stimuli_target_trianglesquares.svg	stimuli_distractor_trianglediamonds.svg	18	yes	44	1	443	6	4	antiphase_hc_sio.wav	1	6	3	noise_calib_stim_LEFT.wav	1	1	blb_dichoticlistening_ba-ba.mp3	ba	ba	0	left
6.6.1	and	2023-06-27	08:41:10	09:00:53	1098167	59c4f0a2916c4d000109428a	2	1	main_z	24	advance_on_keypress_ZEE	78	stimuli_target_trianglesquares.svg	stimuli_distractor_trianglediamonds.svg	18	yes	57	0	1301	6	4	antiphase_hc_sio.wav	1	6	3	noise_calib_stim_LEFT.wav	1	1	blb_dichoticlistening_ba-ba.mp3	ba	ba	0	left
6.6.1	and	2023-06-27	08:41:10	09:00:56	1100775	59c4f0a2916c4d000109428a	2	1	main_z	24	main_z	79	stimuli_distractor_trianglediamonds.svg	stimuli_distractor_diamondtriangles.svg	36	no	44	0	579	6	4	antiphase_hc_sio.wav	1	6	3	noise_calib_stim_LEFT.wav	1	1	blb_dichoticlistening_ba-ba.mp3	ba	ba	0	left
6.6.1	and	2023-06-27	08:41:10	09:00:56	1100775	59c4f0a2916c4d000109428a	2	1	main_z	24	advance_on_keypress_ZEE	80	stimuli_distractor_trianglediamonds.svg	stimuli_distractor_diamondtriangles.svg	36	no	57	0	664	6	4	antiphase_hc_sio.wav	1	6	3	noise_calib_stim_LEFT.wav	1	1	blb_dichoticlistening_ba-ba.mp3	ba	ba	0	left
6.6.1	and	2023-06-27	08:41:10	09:00:57	1102691	59c4f0a2916c4d000109428a	2	1	main_z	24	main_z	81	stimuli_target_diamondsquares.svg	stimuli_distractor_trianglediamonds.svg	20	yes	44	1	542	6	4	antiphase_hc_sio.wav	1	6	3	noise_calib_stim_LEFT.wav	1	1	blb_dichoticlistening_ba-ba.mp3	ba	ba	0	left
6.6.1	and	2023-06-27	08:41:10	09:00:57	1102691	59c4f0a2916c4d000109428a	2	1	main_z	24	advance_on_keypress_ZEE	82	stimuli_target_diamondsquares.svg	stimuli_distractor_trianglediamonds.svg	20	yes	57	0	1262	6	4	antiphase_hc_sio.wav	1	6	3	noise_calib_stim_LEFT.wav	1	1	blb_dichoticlistening_ba-ba.mp3	ba	ba	0	left
6.6.1	and	2023-06-27	08:41:10	09:01:00	1105166	59c4f0a2916c4d000109428a	2	1	main_z	24	main_z	83	stimuli_distractor_trianglediamonds.svg	stimuli_target_rectangletriangles.svg	9	yes	44	1	490	6	4	antiphase_hc_sio.wav	1	6	3	noise_calib_stim_LEFT.wav	1	1	blb_dichoticlistening_ba-ba.mp3	ba	ba	0	left
6.6.1	and	2023-06-27	08:41:10	09:01:00	1105166	59c4f0a2916c4d000109428a	2	1	main_z	24	advance_on_keypress_ZEE	84	stimuli_distractor_trianglediamonds.svg	stimuli_target_rectangletriangles.svg	9	yes	57	0	671	6	4	antiphase_hc_sio.wav	1	6	3	noise_calib_stim_LEFT.wav	1	1	blb_dichoticlistening_ba-ba.mp3	ba	ba	0	left
6.6.1	and	2023-06-27	08:41:10	09:01:02	1107131	59c4f0a2916c4d000109428a	2	1	main_z	24	main_z	85	stimuli_distractor_trianglediamonds.svg	stimuli_distractor_diamondtriangles.svg	36	no	44	0	570	6	4	antiphase_hc_sio.wav	1	6	3	noise_calib_stim_LEFT.wav	1	1	blb_dichoticlistening_ba-ba.mp3	ba	ba	0	left
6.6.1	and	2023-06-27	08:41:10	09:01:02	1107131	59c4f0a2916c4d000109428a	2	1	main_z	24	advance_on_keypress_ZEE	86	stimuli_distractor_trianglediamonds.svg	stimuli_distractor_diamondtriangles.svg	36	no	57	0	658	6	4	antiphase_hc_sio.wav	1	6	3	noise_calib_stim_LEFT.wav	1	1	blb_dichoticlistening_ba-ba.mp3	ba	ba	0	left
6.6.1	and	2023-06-27	08:41:10	09:01:04	1108957	59c4f0a2916c4d000109428a	2	1	main_z	24	main_z	87	stimuli_distractor_trianglediamonds.svg	stimuli_target_trianglerectangles.svg	25	yes	44	1	457	6	4	antiphase_hc_sio.wav	1	6	3	noise_calib_stim_LEFT.wav	1	1	blb_dichoticlistening_ba-ba.mp3	ba	ba	0	left
6.6.1	and	2023-06-27	08:41:10	09:01:04	1108957	59c4f0a2916c4d000109428a	2	1	main_z	24	advance_on_keypress_ZEE	88	stimuli_distractor_trianglediamonds.svg	stimuli_target_trianglerectangles.svg	25	yes	57	0	690	6	4	antiphase_hc_sio.wav	1	6	3	noise_calib_stim_LEFT.wav	1	1	blb_dichoticlistening_ba-ba.mp3	ba	ba	0	left
6.6.1	and	2023-06-27	08:41:10	09:01:06	1110894	59c4f0a2916c4d000109428a	2	1	main_z	24	main_z	89	stimuli_distractor_trianglediamonds.svg	stimuli_target_squarediamonds.svg	12	yes	44	1	519	6	4	antiphase_hc_sio.wav	1	6	3	noise_calib_stim_LEFT.wav	1	1	blb_dichoticlistening_ba-ba.mp3	ba	ba	0	left
6.6.1	and	2023-06-27	08:41:10	09:01:06	1110894	59c4f0a2916c4d000109428a	2	1	main_z	24	advance_on_keypress_ZEE	90	stimuli_distractor_trianglediamonds.svg	stimuli_target_squarediamonds.svg	12	yes	57	0	776	6	4	antiphase_hc_sio.wav	1	6	3	noise_calib_stim_LEFT.wav	1	1	blb_dichoticlistening_ba-ba.mp3	ba	ba	0	left
6.6.1	and	2023-06-27	08:41:10	09:01:08	1112900	59c4f0a2916c4d000109428a	2	1	main_z	24	main_z	91	stimuli_distractor_diamondtriangles.svg	stimuli_target_trianglerectangles.svg	29	yes	44	1	523	6	4	antiphase_hc_sio.wav	1	6	3	noise_calib_stim_LEFT.wav	1	1	blb_dichoticlistening_ba-ba.mp3	ba	ba	0	left
6.6.1	and	2023-06-27	08:41:10	09:01:08	1112900	59c4f0a2916c4d000109428a	2	1	main_z	24	advance_on_keypress_ZEE	92	stimuli_distractor_diamondtriangles.svg	stimuli_target_trianglerectangles.svg	29	yes	57	0	1110	6	4	antiphase_hc_sio.wav	1	6	3	noise_calib_stim_LEFT.wav	1	1	blb_dichoticlistening_ba-ba.mp3	ba	ba	0	left
6.6.1	and	2023-06-27	08:41:10	09:01:10	1115196	59c4f0a2916c4d000109428a	2	1	main_z	24	main_z	93	stimuli_distractor_trianglediamonds.svg	stimuli_distractor_trianglediamonds.svg	33	no	44	0	480	6	4	antiphase_hc_sio.wav	1	6	3	noise_calib_stim_LEFT.wav	1	1	blb_dichoticlistening_ba-ba.mp3	ba	ba	0	left
6.6.1	and	2023-06-27	08:41:10	09:01:10	1115196	59c4f0a2916c4d000109428a	2	1	main_z	24	advance_on_keypress_ZEE	94	stimuli_distractor_trianglediamonds.svg	stimuli_distractor_trianglediamonds.svg	33	no	57	0	744	6	4	antiphase_hc_sio.wav	1	6	3	noise_calib_stim_LEFT.wav	1	1	blb_dichoticlistening_ba-ba.mp3	ba	ba	0	left
6.6.1	and	2023-06-27	08:41:10	09:01:12	1116962	59c4f0a2916c4d000109428a	2	1	main_z	24	main_z	95	stimuli_distractor_diamondtriangles.svg	stimuli_distractor_trianglediamonds.svg	38	no	44	0	276	6	4	antiphase_hc_sio.wav	1	6	3	noise_calib_stim_LEFT.wav	1	1	blb_dichoticlistening_ba-ba.mp3	ba	ba	0	left
6.6.1	and	2023-06-27	08:41:10	09:01:12	1116962	59c4f0a2916c4d000109428a	2	1	main_z	24	advance_on_keypress_ZEE	96	stimuli_distractor_diamondtriangles.svg	stimuli_distractor_trianglediamonds.svg	38	no	57	0	634	6	4	antiphase_hc_sio.wav	1	6	3	noise_calib_stim_LEFT.wav	1	1	blb_dichoticlistening_ba-ba.mp3	ba	ba	0	left
6.6.1	and	2023-06-27	08:41:10	09:01:14	1118834	59c4f0a2916c4d000109428a	2	1	main_z	24	main_z	97	stimuli_distractor_diamondtriangles.svg	stimuli_distractor_trianglediamonds.svg	37	no	44	0	513	6	4	antiphase_hc_sio.wav	1	6	3	noise_calib_stim_LEFT.wav	1	1	blb_dichoticlistening_ba-ba.mp3	ba	ba	0	left
6.6.1	and	2023-06-27	08:41:10	09:01:14	1118834	59c4f0a2916c4d000109428a	2	1	main_z	24	advance_on_keypress_ZEE	98	stimuli_distractor_diamondtriangles.svg	stimuli_distractor_trianglediamonds.svg	37	no	57	0	3582	6	4	antiphase_hc_sio.wav	1	6	3	noise_calib_stim_LEFT.wav	1	1	blb_dichoticlistening_ba-ba.mp3	ba	ba	0	left
6.6.1	and	2023-06-27	08:41:10	09:01:18	1123707	59c4f0a2916c4d000109428a	2	1	main_z	24	main_z	99	stimuli_target_rectangletriangles.svg	stimuli_distractor_diamondtriangles.svg	5	yes	44	1	577	6	4	antiphase_hc_sio.wav	1	6	3	noise_calib_stim_LEFT.wav	1	1	blb_dichoticlistening_ba-ba.mp3	ba	ba	0	left
6.6.1	and	2023-06-27	08:41:10	09:01:18	1123707	59c4f0a2916c4d000109428a	2	1	main_z	24	advance_on_keypress_ZEE	100	stimuli_target_rectangletriangles.svg	stimuli_distractor_diamondtriangles.svg	5	yes	57	0	643	6	4	antiphase_hc_sio.wav	1	6	3	noise_calib_stim_LEFT.wav	1	1	blb_dichoticlistening_ba-ba.mp3	ba	ba	0	left
6.6.1	and	2023-06-27	08:41:10	09:01:21	1125724	59c4f0a2916c4d000109428a	2	1	main_z	24	main_z	101	stimuli_distractor_diamondtriangles.svg	stimuli_distractor_diamondtriangles.svg	40	no	44	0	650	6	4	antiphase_hc_sio.wav	1	6	3	noise_calib_stim_LEFT.wav	1	1	blb_dichoticlistening_ba-ba.mp3	ba	ba	0	left
6.6.1	and	2023-06-27	08:41:10	09:01:21	1125724	59c4f0a2916c4d000109428a	2	1	main_z	24	advance_on_keypress_ZEE	102	stimuli_distractor_diamondtriangles.svg	stimuli_distractor_diamondtriangles.svg	40	no	57	0	2024	6	4	antiphase_hc_sio.wav	1	6	3	noise_calib_stim_LEFT.wav	1	1	blb_dichoticlistening_ba-ba.mp3	ba	ba	0	left
6.6.1	and	2023-06-27	08:41:10	09:01:24	1128912	59c4f0a2916c4d000109428a	2	1	main_z	24	main_z	103	stimuli_target_rectanglediamonds.svg	stimuli_distractor_diamondtriangles.svg	6	yes	44	1	448	6	4	antiphase_hc_sio.wav	1	6	3	noise_calib_stim_LEFT.wav	1	1	blb_dichoticlistening_ba-ba.mp3	ba	ba	0	left
6.6.1	and	2023-06-27	08:41:10	09:01:24	1128912	59c4f0a2916c4d000109428a	2	1	main_z	24	advance_on_keypress_ZEE	104	stimuli_target_rectanglediamonds.svg	stimuli_distractor_diamondtriangles.svg	6	yes	57	0	681	6	4	antiphase_hc_sio.wav	1	6	3	noise_calib_stim_LEFT.wav	1	1	blb_dichoticlistening_ba-ba.mp3	ba	ba	0	left
6.6.1	and	2023-06-27	08:41:10	09:01:26	1130766	59c4f0a2916c4d000109428a	2	1	main_z	24	main_z	105	stimuli_target_rectanglediamonds.svg	stimuli_distractor_trianglediamonds.svg	2	yes	44	1	458	6	4	antiphase_hc_sio.wav	1	6	3	noise_calib_stim_LEFT.wav	1	1	blb_dichoticlistening_ba-ba.mp3	ba	ba	0	left
6.6.1	and	2023-06-27	08:41:10	09:01:26	1130766	59c4f0a2916c4d000109428a	2	1	main_z	24	advance_on_keypress_ZEE	106	stimuli_target_rectanglediamonds.svg	stimuli_distractor_trianglediamonds.svg	2	yes	57	0	475	6	4	antiphase_hc_sio.wav	1	6	3	noise_calib_stim_LEFT.wav	1	1	blb_dichoticlistening_ba-ba.mp3	ba	ba	0	left
6.6.1	and	2023-06-27	08:41:10	09:01:27	1132289	59c4f0a2916c4d000109428a	2	1	main_z	24	main_z	107	stimuli_target_squarediamonds.svg	stimuli_distractor_trianglediamonds.svg	4	yes	44	1	330	6	4	antiphase_hc_sio.wav	1	6	3	noise_calib_stim_LEFT.wav	1	1	blb_dichoticlistening_ba-ba.mp3	ba	ba	0	left
6.6.1	and	2023-06-27	08:41:10	09:01:27	1132289	59c4f0a2916c4d000109428a	2	1	main_z	24	advance_on_keypress_ZEE	108	stimuli_target_squarediamonds.svg	stimuli_distractor_trianglediamonds.svg	4	yes	57	0	692	6	4	antiphase_hc_sio.wav	1	6	3	noise_calib_stim_LEFT.wav	1	1	blb_dichoticlistening_ba-ba.mp3	ba	ba	0	left
6.6.1	and	2023-06-27	08:41:10	09:01:29	1134127	59c4f0a2916c4d000109428a	2	1	main_z	24	main_z	109	stimuli_target_trianglerectangles.svg	stimuli_distractor_diamondtriangles.svg	21	yes	44	1	432	6	4	antiphase_hc_sio.wav	1	6	3	noise_calib_stim_LEFT.wav	1	1	blb_dichoticlistening_ba-ba.mp3	ba	ba	0	left
6.6.1	and	2023-06-27	08:41:10	09:01:29	1134127	59c4f0a2916c4d000109428a	2	1	main_z	24	advance_on_keypress_ZEE	110	stimuli_target_trianglerectangles.svg	stimuli_distractor_diamondtriangles.svg	21	yes	57	0	793	6	4	antiphase_hc_sio.wav	1	6	3	noise_calib_stim_LEFT.wav	1	1	blb_dichoticlistening_ba-ba.mp3	ba	ba	0	left
6.6.1	and	2023-06-27	08:41:10	09:01:31	1136201	59c4f0a2916c4d000109428a	2	1	main_z	24	main_z	111	stimuli_target_diamondrectangles.svg	stimuli_distractor_diamondtriangles.svg	23	yes	44	1	564	6	4	antiphase_hc_sio.wav	1	6	3	noise_calib_stim_LEFT.wav	1	1	blb_dichoticlistening_ba-ba.mp3	ba	ba	0	left
6.6.1	and	2023-06-27	08:41:10	09:01:31	1136201	59c4f0a2916c4d000109428a	2	1	main_z	24	advance_on_keypress_ZEE	112	stimuli_target_diamondrectangles.svg	stimuli_distractor_diamondtriangles.svg	23	yes	57	0	542	6	4	antiphase_hc_sio.wav	1	6	3	noise_calib_stim_LEFT.wav	1	1	blb_dichoticlistening_ba-ba.mp3	ba	ba	0	left
6.6.1	and	2023-06-27	08:41:10	09:01:34	1139371	59c4f0a2916c4d000109428a	2	1	main_z	24	main_z	113	stimuli_target_diamondrectangles.svg	stimuli_distractor_trianglediamonds.svg	19	yes	44	1	1922	6	4	antiphase_hc_sio.wav	1	6	3	noise_calib_stim_LEFT.wav	1	1	blb_dichoticlistening_ba-ba.mp3	ba	ba	0	left
6.6.1	and	2023-06-27	08:41:10	09:01:34	1139371	59c4f0a2916c4d000109428a	2	1	main_z	24	advance_on_keypress_ZEE	114	stimuli_target_diamondrectangles.svg	stimuli_distractor_trianglediamonds.svg	19	yes	57	0	728	6	4	antiphase_hc_sio.wav	1	6	3	noise_calib_stim_LEFT.wav	1	1	blb_dichoticlistening_ba-ba.mp3	ba	ba	0	left
6.6.1	and	2023-06-27	08:41:10	09:01:36	1141303	59c4f0a2916c4d000109428a	2	1	main_z	24	main_z	115	stimuli_distractor_diamondtriangles.svg	stimuli_target_rectangletriangles.svg	13	yes	44	1	477	6	4	antiphase_hc_sio.wav	1	6	3	noise_calib_stim_LEFT.wav	1	1	blb_dichoticlistening_ba-ba.mp3	ba	ba	0	left
6.6.1	and	2023-06-27	08:41:10	09:01:36	1141303	59c4f0a2916c4d000109428a	2	1	main_z	24	advance_on_keypress_ZEE	116	stimuli_distractor_diamondtriangles.svg	stimuli_target_rectangletriangles.svg	13	yes	57	0	581	6	4	antiphase_hc_sio.wav	1	6	3	noise_calib_stim_LEFT.wav	1	1	blb_dichoticlistening_ba-ba.mp3	ba	ba	0	left
6.6.1	and	2023-06-27	08:41:10	09:01:38	1143564	59c4f0a2916c4d000109428a	2	1	main_z	24	main_z	117	stimuli_target_squaretriangles.svg	stimuli_distractor_diamondtriangles.svg	7	yes	44	1	950	6	4	antiphase_hc_sio.wav	1	6	3	noise_calib_stim_LEFT.wav	1	1	blb_dichoticlistening_ba-ba.mp3	ba	ba	0	left
6.6.1	and	2023-06-27	08:41:10	09:01:38	1143564	59c4f0a2916c4d000109428a	2	1	main_z	24	advance_on_keypress_ZEE	118	stimuli_target_squaretriangles.svg	stimuli_distractor_diamondtriangles.svg	7	yes	57	0	612	6	4	antiphase_hc_sio.wav	1	6	3	noise_calib_stim_LEFT.wav	1	1	blb_dichoticlistening_ba-ba.mp3	ba	ba	0	left
6.6.1	and	2023-06-27	08:41:10	09:01:40	1145198	59c4f0a2916c4d000109428a	2	1	main_z	24	main_z	119	stimuli_target_trianglesquares.svg	stimuli_distractor_diamondtriangles.svg	22	yes	44	1	313	6	4	antiphase_hc_sio.wav	1	6	3	noise_calib_stim_LEFT.wav	1	1	blb_dichoticlistening_ba-ba.mp3	ba	ba	0	left
6.6.1	and	2023-06-27	08:41:10	09:01:40	1145198	59c4f0a2916c4d000109428a	2	1	main_z	24	advance_on_keypress_ZEE	120	stimuli_target_trianglesquares.svg	stimuli_distractor_diamondtriangles.svg	22	yes	57	0	602	6	4	antiphase_hc_sio.wav	1	6	3	noise_calib_stim_LEFT.wav	1	1	blb_dichoticlistening_ba-ba.mp3	ba	ba	0	left
6.6.1	and	2023-06-27	08:41:10	09:01:42	1146982	59c4f0a2916c4d000109428a	2	1	main_z	24	main_z	121	stimuli_target_trianglesquares.svg	stimuli_distractor_trianglediamonds.svg	18	yes	44	1	465	6	4	antiphase_hc_sio.wav	1	6	3	noise_calib_stim_LEFT.wav	1	1	blb_dichoticlistening_ba-ba.mp3	ba	ba	0	left
6.6.1	and	2023-06-27	08:41:10	09:01:42	1146982	59c4f0a2916c4d000109428a	2	1	main_z	24	advance_on_keypress_ZEE	122	stimuli_target_trianglesquares.svg	stimuli_distractor_trianglediamonds.svg	18	yes	57	0	685	6	4	antiphase_hc_sio.wav	1	6	3	noise_calib_stim_LEFT.wav	1	1	blb_dichoticlistening_ba-ba.mp3	ba	ba	0	left
6.6.1	and	2023-06-27	08:41:10	09:01:43	1148645	59c4f0a2916c4d000109428a	2	1	main_z	24	main_z	123	stimuli_distractor_diamondtriangles.svg	stimuli_target_rectanglediamonds.svg	14	yes	44	1	228	6	4	antiphase_hc_sio.wav	1	6	3	noise_calib_stim_LEFT.wav	1	1	blb_dichoticlistening_ba-ba.mp3	ba	ba	0	left
6.6.1	and	2023-06-27	08:41:10	09:01:43	1148645	59c4f0a2916c4d000109428a	2	1	main_z	24	advance_on_keypress_ZEE	124	stimuli_distractor_diamondtriangles.svg	stimuli_target_rectanglediamonds.svg	14	yes	57	0	578	6	4	antiphase_hc_sio.wav	1	6	3	noise_calib_stim_LEFT.wav	1	1	blb_dichoticlistening_ba-ba.mp3	ba	ba	0	left
6.6.1	and	2023-06-27	08:41:10	09:01:45	1150284	59c4f0a2916c4d000109428a	2	1	main_z	24	main_z	125	stimuli_distractor_diamondtriangles.svg	stimuli_target_trianglesquares.svg	30	yes	44	1	353	6	4	antiphase_hc_sio.wav	1	6	3	noise_calib_stim_LEFT.wav	1	1	blb_dichoticlistening_ba-ba.mp3	ba	ba	0	left
6.6.1	and	2023-06-27	08:41:10	09:01:45	1150284	59c4f0a2916c4d000109428a	2	1	main_z	24	advance_on_keypress_ZEE	126	stimuli_distractor_diamondtriangles.svg	stimuli_target_trianglesquares.svg	30	yes	57	0	702	6	4	antiphase_hc_sio.wav	1	6	3	noise_calib_stim_LEFT.wav	1	1	blb_dichoticlistening_ba-ba.mp3	ba	ba	0	left
6.6.1	and	2023-06-27	08:41:10	09:01:47	1152194	59c4f0a2916c4d000109428a	2	1	main_z	24	main_z	127	stimuli_target_diamondsquares.svg	stimuli_distractor_diamondtriangles.svg	24	yes	44	1	492	6	4	antiphase_hc_sio.wav	1	6	3	noise_calib_stim_LEFT.wav	1	1	blb_dichoticlistening_ba-ba.mp3	ba	ba	0	left
6.6.1	and	2023-06-27	08:41:10	09:01:47	1152194	59c4f0a2916c4d000109428a	2	1	main_z	24	advance_on_keypress_ZEE	128	stimuli_target_diamondsquares.svg	stimuli_distractor_diamondtriangles.svg	24	yes	57	0	1628	6	4	antiphase_hc_sio.wav	1	6	3	noise_calib_stim_LEFT.wav	1	1	blb_dichoticlistening_ba-ba.mp3	ba	ba	0	left
6.6.1	and	2023-06-27	08:41:10	09:01:50	1154969	59c4f0a2916c4d000109428a	2	1	main_z	24	main_z	129	stimuli_distractor_trianglediamonds.svg	stimuli_distractor_diamondtriangles.svg	35	no	44	0	423	6	4	antiphase_hc_sio.wav	1	6	3	noise_calib_stim_LEFT.wav	1	1	blb_dichoticlistening_ba-ba.mp3	ba	ba	0	left
6.6.1	and	2023-06-27	08:41:10	09:01:50	1154969	59c4f0a2916c4d000109428a	2	1	main_z	24	advance_on_keypress_ZEE	130	stimuli_distractor_trianglediamonds.svg	stimuli_distractor_diamondtriangles.svg	35	no	57	0	755	6	4	antiphase_hc_sio.wav	1	6	3	noise_calib_stim_LEFT.wav	1	1	blb_dichoticlistening_ba-ba.mp3	ba	ba	0	left
6.6.1	and	2023-06-27	08:41:10	09:01:52	1156905	59c4f0a2916c4d000109428a	2	1	main_z	24	main_z	131	stimuli_distractor_trianglediamonds.svg	stimuli_target_rectanglediamonds.svg	10	yes	44	1	465	6	4	antiphase_hc_sio.wav	1	6	3	noise_calib_stim_LEFT.wav	1	1	blb_dichoticlistening_ba-ba.mp3	ba	ba	0	left
6.6.1	and	2023-06-27	08:41:10	09:01:52	1156905	59c4f0a2916c4d000109428a	2	1	main_z	24	advance_on_keypress_ZEE	132	stimuli_distractor_trianglediamonds.svg	stimuli_target_rectanglediamonds.svg	10	yes	57	0	565	6	4	antiphase_hc_sio.wav	1	6	3	noise_calib_stim_LEFT.wav	1	1	blb_dichoticlistening_ba-ba.mp3	ba	ba	0	left
6.6.1	and	2023-06-27	08:41:10	09:01:53	1158504	59c4f0a2916c4d000109428a	2	1	main_z	24	main_z	133	stimuli_target_squarediamonds.svg	stimuli_distractor_diamondtriangles.svg	8	yes	44	1	301	6	4	antiphase_hc_sio.wav	1	6	3	noise_calib_stim_LEFT.wav	1	1	blb_dichoticlistening_ba-ba.mp3	ba	ba	0	left
6.6.1	and	2023-06-27	08:41:10	09:01:53	1158504	59c4f0a2916c4d000109428a	2	1	main_z	24	advance_on_keypress_ZEE	134	stimuli_target_squarediamonds.svg	stimuli_distractor_diamondtriangles.svg	8	yes	57	0	521	6	4	antiphase_hc_sio.wav	1	6	3	noise_calib_stim_LEFT.wav	1	1	blb_dichoticlistening_ba-ba.mp3	ba	ba	0	left
6.6.1	and	2023-06-27	08:41:10	09:01:55	1159919	59c4f0a2916c4d000109428a	2	1	main_z	24	main_z	135	stimuli_distractor_trianglediamonds.svg	stimuli_target_diamondrectangles.svg	27	yes	44	1	182	6	4	antiphase_hc_sio.wav	1	6	3	noise_calib_stim_LEFT.wav	1	1	blb_dichoticlistening_ba-ba.mp3	ba	ba	0	left
6.6.1	and	2023-06-27	08:41:10	09:01:55	1159919	59c4f0a2916c4d000109428a	2	1	main_z	24	advance_on_keypress_ZEE	136	stimuli_distractor_trianglediamonds.svg	stimuli_target_diamondrectangles.svg	27	yes	57	0	708	6	4	antiphase_hc_sio.wav	1	6	3	noise_calib_stim_LEFT.wav	1	1	blb_dichoticlistening_ba-ba.mp3	ba	ba	0	left
6.6.1	and	2023-06-27	08:41:10	09:01:57	1161836	59c4f0a2916c4d000109428a	2	1	main_z	24	main_z	137	stimuli_target_trianglerectangles.svg	stimuli_distractor_trianglediamonds.svg	17	yes	44	1	495	6	4	antiphase_hc_sio.wav	1	6	3	noise_calib_stim_LEFT.wav	1	1	blb_dichoticlistening_ba-ba.mp3	ba	ba	0	left
6.6.1	and	2023-06-27	08:41:10	09:01:57	1161836	59c4f0a2916c4d000109428a	2	1	main_z	24	advance_on_keypress_ZEE	138	stimuli_target_trianglerectangles.svg	stimuli_distractor_trianglediamonds.svg	17	yes	57	0	724	6	4	antiphase_hc_sio.wav	1	6	3	noise_calib_stim_LEFT.wav	1	1	blb_dichoticlistening_ba-ba.mp3	ba	ba	0	left
6.6.1	and	2023-06-27	08:41:10	09:01:58	1163587	59c4f0a2916c4d000109428a	2	1	main_z	24	main_z	139	stimuli_distractor_trianglediamonds.svg	stimuli_distractor_trianglediamonds.svg	34	no	44	0	304	6	4	antiphase_hc_sio.wav	1	6	3	noise_calib_stim_LEFT.wav	1	1	blb_dichoticlistening_ba-ba.mp3	ba	ba	0	left
6.6.1	and	2023-06-27	08:41:10	09:01:58	1163587	59c4f0a2916c4d000109428a	2	1	main_z	24	advance_on_keypress_ZEE	140	stimuli_distractor_trianglediamonds.svg	stimuli_distractor_trianglediamonds.svg	34	no	57	0	583	6	4	antiphase_hc_sio.wav	1	6	3	noise_calib_stim_LEFT.wav	1	1	blb_dichoticlistening_ba-ba.mp3	ba	ba	0	left
6.6.1	and	2023-06-27	08:41:10	09:02:00	1165224	59c4f0a2916c4d000109428a	2	1	main_z	24	main_z	141	stimuli_target_rectangletriangles.svg	stimuli_distractor_trianglediamonds.svg	1	yes	44	1	320	6	4	antiphase_hc_sio.wav	1	6	3	noise_calib_stim_LEFT.wav	1	1	blb_dichoticlistening_ba-ba.mp3	ba	ba	0	left
6.6.1	and	2023-06-27	08:41:10	09:02:00	1165224	59c4f0a2916c4d000109428a	2	1	main_z	24	advance_on_keypress_ZEE	142	stimuli_target_rectangletriangles.svg	stimuli_distractor_trianglediamonds.svg	1	yes	57	0	10466	6	4	antiphase_hc_sio.wav	1	6	3	noise_calib_stim_LEFT.wav	1	1	blb_dichoticlistening_ba-ba.mp3	ba	ba	0	left
6.6.1	and	2023-06-27	08:41:10	09:02:12	1176982	59c4f0a2916c4d000109428a	2	1	main_z	24	main_z	143	stimuli_distractor_trianglediamonds.svg	stimuli_target_diamondsquares.svg	28	yes	44	1	567	6	4	antiphase_hc_sio.wav	1	6	3	noise_calib_stim_LEFT.wav	1	1	blb_dichoticlistening_ba-ba.mp3	ba	ba	0	left
6.6.1	and	2023-06-27	08:41:10	09:02:12	1176982	59c4f0a2916c4d000109428a	2	1	main_z	24	advance_on_keypress_ZEE	144	stimuli_distractor_trianglediamonds.svg	stimuli_target_diamondsquares.svg	28	yes	57	0	535	6	4	antiphase_hc_sio.wav	1	6	3	noise_calib_stim_LEFT.wav	1	1	blb_dichoticlistening_ba-ba.mp3	ba	ba	0	left
6.6.1	and	2023-06-27	08:41:10	09:02:13	1178632	59c4f0a2916c4d000109428a	2	1	main_z	24	main_z	145	stimuli_distractor_trianglediamonds.svg	stimuli_target_trianglesquares.svg	26	yes	44	1	399	6	4	antiphase_hc_sio.wav	1	6	3	noise_calib_stim_LEFT.wav	1	1	blb_dichoticlistening_ba-ba.mp3	ba	ba	0	left
6.6.1	and	2023-06-27	08:41:10	09:02:13	1178632	59c4f0a2916c4d000109428a	2	1	main_z	24	advance_on_keypress_ZEE	146	stimuli_distractor_trianglediamonds.svg	stimuli_target_trianglesquares.svg	26	yes	57	0	484	6	4	antiphase_hc_sio.wav	1	6	3	noise_calib_stim_LEFT.wav	1	1	blb_dichoticlistening_ba-ba.mp3	ba	ba	0	left
6.6.1	and	2023-06-27	08:41:10	09:02:15	1180266	59c4f0a2916c4d000109428a	2	1	main_z	24	main_z	147	stimuli_distractor_diamondtriangles.svg	stimuli_distractor_diamondtriangles.svg	39	no	44	0	429	6	4	antiphase_hc_sio.wav	1	6	3	noise_calib_stim_LEFT.wav	1	1	blb_dichoticlistening_ba-ba.mp3	ba	ba	0	left
6.6.1	and	2023-06-27	08:41:10	09:02:15	1180266	59c4f0a2916c4d000109428a	2	1	main_z	24	advance_on_keypress_ZEE	148	stimuli_distractor_diamondtriangles.svg	stimuli_distractor_diamondtriangles.svg	39	no	57	0	500	6	4	antiphase_hc_sio.wav	1	6	3	noise_calib_stim_LEFT.wav	1	1	blb_dichoticlistening_ba-ba.mp3	ba	ba	0	left
6.6.1	and	2023-06-27	08:41:10	09:02:17	1181770	59c4f0a2916c4d000109428a	2	1	main_z	24	main_z	149	stimuli_distractor_diamondtriangles.svg	stimuli_target_squarediamonds.svg	16	yes	44	1	263	6	4	antiphase_hc_sio.wav	1	6	3	noise_calib_stim_LEFT.wav	1	1	blb_dichoticlistening_ba-ba.mp3	ba	ba	0	left
6.6.1	and	2023-06-27	08:41:10	09:02:17	1181770	59c4f0a2916c4d000109428a	2	1	main_z	24	advance_on_keypress_ZEE	150	stimuli_distractor_diamondtriangles.svg	stimuli_target_squarediamonds.svg	16	yes	57	0	449	6	4	antiphase_hc_sio.wav	1	6	3	noise_calib_stim_LEFT.wav	1	1	blb_dichoticlistening_ba-ba.mp3	ba	ba	0	left
6.6.1	and	2023-06-27	08:41:10	09:02:18	1183314	59c4f0a2916c4d000109428a	2	1	main_z	24	main_z	151	stimuli_target_squaretriangles.svg	stimuli_distractor_trianglediamonds.svg	3	yes	44	1	369	6	4	antiphase_hc_sio.wav	1	6	3	noise_calib_stim_LEFT.wav	1	1	blb_dichoticlistening_ba-ba.mp3	ba	ba	0	left
6.6.1	and	2023-06-27	08:41:10	09:02:18	1183314	59c4f0a2916c4d000109428a	2	1	main_z	24	advance_on_keypress_ZEE	152	stimuli_target_squaretriangles.svg	stimuli_distractor_trianglediamonds.svg	3	yes	57	0	30200	6	4	antiphase_hc_sio.wav	1	6	3	noise_calib_stim_LEFT.wav	1	1	blb_dichoticlistening_ba-ba.mp3	ba	ba	0	left
6.6.1	and	2023-06-27	08:41:10	09:02:49	1214511	59c4f0a2916c4d000109428a	2	1	main_z	24	main_z	153	stimuli_distractor_diamondtriangles.svg	stimuli_target_diamondsquares.svg	32	yes	44	1	291	6	4	antiphase_hc_sio.wav	1	6	3	noise_calib_stim_LEFT.wav	1	1	blb_dichoticlistening_ba-ba.mp3	ba	ba	0	left
6.6.1	and	2023-06-27	08:41:10	09:02:49	1214511	59c4f0a2916c4d000109428a	2	1	main_z	24	advance_on_keypress_ZEE	154	stimuli_distractor_diamondtriangles.svg	stimuli_target_diamondsquares.svg	32	yes	57	0	524	6	4	antiphase_hc_sio.wav	1	6	3	noise_calib_stim_LEFT.wav	1	1	blb_dichoticlistening_ba-ba.mp3	ba	ba	0	left
6.6.1	and	2023-06-27	08:41:10	09:02:51	1216122	59c4f0a2916c4d000109428a	2	1	main_z	24	main_z	155	stimuli_distractor_trianglediamonds.svg	stimuli_target_squaretriangles.svg	11	yes	44	1	362	6	4	antiphase_hc_sio.wav	1	6	3	noise_calib_stim_LEFT.wav	1	1	blb_dichoticlistening_ba-ba.mp3	ba	ba	0	left
6.6.1	and	2023-06-27	08:41:10	09:02:51	1216122	59c4f0a2916c4d000109428a	2	1	main_z	24	advance_on_keypress_ZEE	156	stimuli_distractor_trianglediamonds.svg	stimuli_target_squaretriangles.svg	11	yes	57	0	713	6	4	antiphase_hc_sio.wav	1	6	3	noise_calib_stim_LEFT.wav	1	1	blb_dichoticlistening_ba-ba.mp3	ba	ba	0	left
6.6.1	and	2023-06-27	08:41:10	09:02:53	1217829	59c4f0a2916c4d000109428a	2	1	main_z	24	main_z	157	stimuli_distractor_diamondtriangles.svg	stimuli_target_squaretriangles.svg	15	yes	44	1	262	6	4	antiphase_hc_sio.wav	1	6	3	noise_calib_stim_LEFT.wav	1	1	blb_dichoticlistening_ba-ba.mp3	ba	ba	0	left
6.6.1	and	2023-06-27	08:41:10	09:02:53	1217829	59c4f0a2916c4d000109428a	2	1	main_z	24	advance_on_keypress_ZEE	158	stimuli_distractor_diamondtriangles.svg	stimuli_target_squaretriangles.svg	15	yes	57	0	537	6	4	antiphase_hc_sio.wav	1	6	3	noise_calib_stim_LEFT.wav	1	1	blb_dichoticlistening_ba-ba.mp3	ba	ba	0	left
6.6.1	and	2023-06-27	08:41:10	09:02:54	1219530	59c4f0a2916c4d000109428a	2	1	main_z	24	main_z	159	stimuli_distractor_diamondtriangles.svg	stimuli_target_diamondrectangles.svg	31	yes	44	1	451	6	4	antiphase_hc_sio.wav	1	6	3	noise_calib_stim_LEFT.wav	1	1	blb_dichoticlistening_ba-ba.mp3	ba	ba	0	left
6.6.1	and	2023-06-27	08:41:10	09:02:54	1219530	59c4f0a2916c4d000109428a	2	1	main_z	24	advance_on_keypress_ZEE	160	stimuli_distractor_diamondtriangles.svg	stimuli_target_diamondrectangles.svg	31	yes	57	0	1122	6	4	antiphase_hc_sio.wav	1	6	3	noise_calib_stim_LEFT.wav	1	1	blb_dichoticlistening_ba-ba.mp3	ba	ba	0	left
6.6.1	and	2023-06-27	08:41:10	09:03:20	1244834	59c4f0a2916c4d000109428a	2	1	practice_slash	26	practice_slash	1	stimuli_distractor_diamondtriangles.svg	stimuli_target_trianglerectangles.svg	9	yes	53	1	539	6	4	antiphase_hc_sio.wav	1	6	3	noise_calib_stim_LEFT.wav	1	1	blb_dichoticlistening_ba-ba.mp3	ba	ba	0	left
6.6.1	and	2023-06-27	08:41:10	09:03:20	1244834	59c4f0a2916c4d000109428a	2	1	practice_slash	26	advance_on_keypress_SLASH	2	stimuli_distractor_diamondtriangles.svg	stimuli_target_trianglerectangles.svg	9	yes	57	0	1562	6	4	antiphase_hc_sio.wav	1	6	3	noise_calib_stim_LEFT.wav	1	1	blb_dichoticlistening_ba-ba.mp3	ba	ba	0	left
6.6.1	and	2023-06-27	08:41:10	09:03:23	1248387	59c4f0a2916c4d000109428a	2	1	practice_slash	26	practice_slash	3	stimuli_target_rectanglediamonds.svg	stimuli_distractor_diamondtriangles.svg	1	yes	53	1	284	6	4	antiphase_hc_sio.wav	1	6	3	noise_calib_stim_LEFT.wav	1	1	blb_dichoticlistening_ba-ba.mp3	ba	ba	0	left
6.6.1	and	2023-06-27	08:41:10	09:03:23	1248387	59c4f0a2916c4d000109428a	2	1	practice_slash	26	advance_on_keypress_SLASH	4	stimuli_target_rectanglediamonds.svg	stimuli_distractor_diamondtriangles.svg	1	yes	57	0	820	6	4	antiphase_hc_sio.wav	1	6	3	noise_calib_stim_LEFT.wav	1	1	blb_dichoticlistening_ba-ba.mp3	ba	ba	0	left
6.6.1	and	2023-06-27	08:41:10	09:03:26	1251179	59c4f0a2916c4d000109428a	2	1	practice_slash	26	practice_slash	5	stimuli_distractor_trianglediamonds.svg	stimuli_target_rectanglediamonds.svg	10	yes	53	1	273	6	4	antiphase_hc_sio.wav	1	6	3	noise_calib_stim_LEFT.wav	1	1	blb_dichoticlistening_ba-ba.mp3	ba	ba	0	left
6.6.1	and	2023-06-27	08:41:10	09:03:26	1251179	59c4f0a2916c4d000109428a	2	1	practice_slash	26	advance_on_keypress_SLASH	6	stimuli_distractor_trianglediamonds.svg	stimuli_target_rectanglediamonds.svg	10	yes	57	0	1018	6	4	antiphase_hc_sio.wav	1	6	3	noise_calib_stim_LEFT.wav	1	1	blb_dichoticlistening_ba-ba.mp3	ba	ba	0	left
6.6.1	and	2023-06-27	08:41:10	09:03:30	1254964	59c4f0a2916c4d000109428a	2	1	practice_slash	26	practice_slash	7	stimuli_distractor_diamondtriangles.svg	stimuli_distractor_diamondtriangles.svg	13	no	53	0	1060	6	4	antiphase_hc_sio.wav	1	6	3	noise_calib_stim_LEFT.wav	1	1	blb_dichoticlistening_ba-ba.mp3	ba	ba	0	left
6.6.1	and	2023-06-27	08:41:10	09:03:30	1254964	59c4f0a2916c4d000109428a	2	1	practice_slash	26	advance_on_keypress_SLASH	8	stimuli_distractor_diamondtriangles.svg	stimuli_distractor_diamondtriangles.svg	13	no	57	0	353	6	4	antiphase_hc_sio.wav	1	6	3	noise_calib_stim_LEFT.wav	1	1	blb_dichoticlistening_ba-ba.mp3	ba	ba	0	left
6.6.1	and	2023-06-27	08:41:10	09:03:32	1257302	59c4f0a2916c4d000109428a	2	1	practice_slash	26	practice_slash	9	stimuli_target_squarediamonds.svg	stimuli_distractor_trianglediamonds.svg	5	yes	53	1	287	6	4	antiphase_hc_sio.wav	1	6	3	noise_calib_stim_LEFT.wav	1	1	blb_dichoticlistening_ba-ba.mp3	ba	ba	0	left
6.6.1	and	2023-06-27	08:41:10	09:03:32	1257302	59c4f0a2916c4d000109428a	2	1	practice_slash	26	advance_on_keypress_SLASH	10	stimuli_target_squarediamonds.svg	stimuli_distractor_trianglediamonds.svg	5	yes	57	0	503	6	4	antiphase_hc_sio.wav	1	6	3	noise_calib_stim_LEFT.wav	1	1	blb_dichoticlistening_ba-ba.mp3	ba	ba	0	left
6.6.1	and	2023-06-27	08:41:10	09:03:35	1259940	59c4f0a2916c4d000109428a	2	1	practice_slash	26	practice_slash	11	stimuli_distractor_diamondtriangles.svg	stimuli_target_rectangletriangles.svg	7	yes	53	1	439	6	4	antiphase_hc_sio.wav	1	6	3	noise_calib_stim_LEFT.wav	1	1	blb_dichoticlistening_ba-ba.mp3	ba	ba	0	left
6.6.1	and	2023-06-27	08:41:10	09:03:35	1259940	59c4f0a2916c4d000109428a	2	1	practice_slash	26	advance_on_keypress_SLASH	12	stimuli_distractor_diamondtriangles.svg	stimuli_target_rectangletriangles.svg	7	yes	57	0	902	6	4	antiphase_hc_sio.wav	1	6	3	noise_calib_stim_LEFT.wav	1	1	blb_dichoticlistening_ba-ba.mp3	ba	ba	0	left
6.6.1	and	2023-06-27	08:41:10	09:03:38	1262850	59c4f0a2916c4d000109428a	2	1	practice_slash	26	practice_slash	13	stimuli_distractor_trianglediamonds.svg	stimuli_target_diamondrectangles.svg	12	yes	53	1	318	6	4	antiphase_hc_sio.wav	1	6	3	noise_calib_stim_LEFT.wav	1	1	blb_dichoticlistening_ba-ba.mp3	ba	ba	0	left
6.6.1	and	2023-06-27	08:41:10	09:03:38	1262850	59c4f0a2916c4d000109428a	2	1	practice_slash	26	advance_on_keypress_SLASH	14	stimuli_distractor_trianglediamonds.svg	stimuli_target_diamondrectangles.svg	12	yes	57	0	743	6	4	antiphase_hc_sio.wav	1	6	3	noise_calib_stim_LEFT.wav	1	1	blb_dichoticlistening_ba-ba.mp3	ba	ba	0	left
6.6.1	and	2023-06-27	08:41:10	09:03:40	1265606	59c4f0a2916c4d000109428a	2	1	practice_slash	26	practice_slash	15	stimuli_target_diamondsquares.svg	stimuli_distractor_trianglediamonds.svg	6	yes	53	1	287	6	4	antiphase_hc_sio.wav	1	6	3	noise_calib_stim_LEFT.wav	1	1	blb_dichoticlistening_ba-ba.mp3	ba	ba	0	left
6.6.1	and	2023-06-27	08:41:10	09:03:40	1265606	59c4f0a2916c4d000109428a	2	1	practice_slash	26	advance_on_keypress_SLASH	16	stimuli_target_diamondsquares.svg	stimuli_distractor_trianglediamonds.svg	6	yes	57	0	1457	6	4	antiphase_hc_sio.wav	1	6	3	noise_calib_stim_LEFT.wav	1	1	blb_dichoticlistening_ba-ba.mp3	ba	ba	0	left
6.6.1	and	2023-06-27	08:41:10	09:03:44	1269060	59c4f0a2916c4d000109428a	2	1	practice_slash	26	practice_slash	17	stimuli_target_rectanglediamonds.svg	stimuli_distractor_trianglediamonds.svg	4	yes	53	1	296	6	4	antiphase_hc_sio.wav	1	6	3	noise_calib_stim_LEFT.wav	1	1	blb_dichoticlistening_ba-ba.mp3	ba	ba	0	left
6.6.1	and	2023-06-27	08:41:10	09:03:44	1269060	59c4f0a2916c4d000109428a	2	1	practice_slash	26	advance_on_keypress_SLASH	18	stimuli_target_rectanglediamonds.svg	stimuli_distractor_trianglediamonds.svg	4	yes	57	0	15436	6	4	antiphase_hc_sio.wav	1	6	3	noise_calib_stim_LEFT.wav	1	1	blb_dichoticlistening_ba-ba.mp3	ba	ba	0	left
6.6.1	and	2023-06-27	08:41:10	09:04:01	1286387	59c4f0a2916c4d000109428a	2	1	practice_slash	26	practice_slash	19	stimuli_target_diamondsquares.svg	stimuli_distractor_diamondtriangles.svg	3	yes	53	1	190	6	4	antiphase_hc_sio.wav	1	6	3	noise_calib_stim_LEFT.wav	1	1	blb_dichoticlistening_ba-ba.mp3	ba	ba	0	left
