build	computer.platform	date	time	timestamp	time_elapsed_ms	subject	group	session	blockcode	blocknum	trialcode	trialnum	stimulus_left	stimulus_right	stim_index	target_present	response	correct	latency	headphonecheck_countTestTrials	headphonecheck_index	headphonecheck_testSound	headphonecheck_correctResponse	stereocheck_countTestTrials	stereocheck_index	stereocheck_testSound	stereocheck_correctResponse	DL_index	DL_soundfile	DL_leftSound	DL_rightSound	DL_dualSound	DL_choice
6.6.1	win	2023-06-13	16:14:26	16:17:23	174585	60ea8e0a21b4d8ed9eddcc82	4	1	practice_z	5	practice_z	1	stimuli_distractor_diamondtriangles.svg	stimuli_distractor_trianglediamonds.svg	14	no	0	1	2000	0	0			0	0			1				0	
6.6.1	win	2023-06-13	16:14:26	16:17:23	174585	60ea8e0a21b4d8ed9eddcc82	4	1	practice_z	5	advance_on_keypress_ZEE	2	stimuli_distractor_diamondtriangles.svg	stimuli_distractor_trianglediamonds.svg	14	no	57	0	1452	0	0			0	0			1				0	
6.6.1	win	2023-06-13	16:14:26	16:17:26	178141	60ea8e0a21b4d8ed9eddcc82	4	1	practice_z	5	practice_z	3	stimuli_target_rectanglediamonds.svg	stimuli_distractor_diamondtriangles.svg	1	yes	44	1	481	0	0			0	0			1				0	
6.6.1	win	2023-06-13	16:14:26	16:17:26	178141	60ea8e0a21b4d8ed9eddcc82	4	1	practice_z	5	advance_on_keypress_ZEE	4	stimuli_target_rectanglediamonds.svg	stimuli_distractor_diamondtriangles.svg	1	yes	57	0	735	0	0			0	0			1				0	
6.6.1	win	2023-06-13	16:14:26	16:17:29	180921	60ea8e0a21b4d8ed9eddcc82	4	1	practice_z	5	practice_z	5	stimuli_distractor_trianglediamonds.svg	stimuli_target_squarediamonds.svg	11	yes	44	1	426	0	0			0	0			1				0	
6.6.1	win	2023-06-13	16:14:26	16:17:29	180921	60ea8e0a21b4d8ed9eddcc82	4	1	practice_z	5	advance_on_keypress_ZEE	6	stimuli_distractor_trianglediamonds.svg	stimuli_target_squarediamonds.svg	11	yes	57	0	585	0	0			0	0			1				0	
6.6.1	win	2023-06-13	16:14:26	16:17:32	183780	60ea8e0a21b4d8ed9eddcc82	4	1	practice_z	5	practice_z	7	stimuli_distractor_trianglediamonds.svg	stimuli_target_diamondrectangles.svg	12	yes	44	1	657	0	0			0	0			1				0	
6.6.1	win	2023-06-13	16:14:26	16:17:32	183780	60ea8e0a21b4d8ed9eddcc82	4	1	practice_z	5	advance_on_keypress_ZEE	8	stimuli_distractor_trianglediamonds.svg	stimuli_target_diamondrectangles.svg	12	yes	57	0	727	0	0			0	0			1				0	
6.6.1	win	2023-06-13	16:14:26	16:17:35	186589	60ea8e0a21b4d8ed9eddcc82	4	1	practice_z	5	practice_z	9	stimuli_target_squarediamonds.svg	stimuli_distractor_trianglediamonds.svg	5	yes	44	1	465	0	0			0	0			1				0	
6.6.1	win	2023-06-13	16:14:26	16:17:35	186589	60ea8e0a21b4d8ed9eddcc82	4	1	practice_z	5	advance_on_keypress_ZEE	10	stimuli_target_squarediamonds.svg	stimuli_distractor_trianglediamonds.svg	5	yes	57	0	571	0	0			0	0			1				0	
6.6.1	win	2023-06-13	16:14:26	16:17:39	190775	60ea8e0a21b4d8ed9eddcc82	4	1	practice_z	5	practice_z	11	stimuli_distractor_diamondtriangles.svg	stimuli_distractor_diamondtriangles.svg	13	no	0	1	2000	0	0			0	0			1				0	
6.6.1	win	2023-06-13	16:14:26	16:17:39	190775	60ea8e0a21b4d8ed9eddcc82	4	1	practice_z	5	advance_on_keypress_ZEE	12	stimuli_distractor_diamondtriangles.svg	stimuli_distractor_diamondtriangles.svg	13	no	57	0	763	0	0			0	0			1				0	
6.6.1	win	2023-06-13	16:14:26	16:17:42	193592	60ea8e0a21b4d8ed9eddcc82	4	1	practice_z	5	practice_z	13	stimuli_distractor_diamondtriangles.svg	stimuli_target_rectangletriangles.svg	7	yes	44	1	436	0	0			0	0			1				0	
6.6.1	win	2023-06-13	16:14:26	16:17:42	193592	60ea8e0a21b4d8ed9eddcc82	4	1	practice_z	5	advance_on_keypress_ZEE	14	stimuli_distractor_diamondtriangles.svg	stimuli_target_rectangletriangles.svg	7	yes	57	0	439	0	0			0	0			1				0	
6.6.1	win	2023-06-13	16:14:26	16:17:44	196036	60ea8e0a21b4d8ed9eddcc82	4	1	practice_z	5	practice_z	15	stimuli_distractor_trianglediamonds.svg	stimuli_target_rectanglediamonds.svg	10	yes	44	1	391	0	0			0	0			1				0	
6.6.1	win	2023-06-13	16:14:26	16:17:44	196036	60ea8e0a21b4d8ed9eddcc82	4	1	practice_z	5	advance_on_keypress_ZEE	16	stimuli_distractor_trianglediamonds.svg	stimuli_target_rectanglediamonds.svg	10	yes	57	0	425	0	0			0	0			1				0	
6.6.1	win	2023-06-13	16:14:26	16:17:47	198513	60ea8e0a21b4d8ed9eddcc82	4	1	practice_z	5	practice_z	17	stimuli_distractor_trianglediamonds.svg	stimuli_distractor_diamondtriangles.svg	16	no	44	0	440	0	0			0	0			1				0	
6.6.1	win	2023-06-13	16:14:26	16:17:47	198513	60ea8e0a21b4d8ed9eddcc82	4	1	practice_z	5	advance_on_keypress_ZEE	18	stimuli_distractor_trianglediamonds.svg	stimuli_distractor_diamondtriangles.svg	16	no	57	0	405	0	0			0	0			1				0	
6.6.1	win	2023-06-13	16:14:26	16:17:50	201722	60ea8e0a21b4d8ed9eddcc82	4	1	practice_z	5	practice_z	19	stimuli_distractor_diamondtriangles.svg	stimuli_target_trianglerectangles.svg	9	yes	44	1	1184	0	0			0	0			1				0	
6.6.1	win	2023-06-13	16:14:26	16:17:50	201722	60ea8e0a21b4d8ed9eddcc82	4	1	practice_z	5	advance_on_keypress_ZEE	20	stimuli_distractor_diamondtriangles.svg	stimuli_target_trianglerectangles.svg	9	yes	57	0	739	0	0			0	0			1				0	
6.6.1	win	2023-06-13	16:14:26	16:17:53	204837	60ea8e0a21b4d8ed9eddcc82	4	1	practice_z	5	practice_z	21	stimuli_target_diamondsquares.svg	stimuli_distractor_diamondtriangles.svg	3	yes	44	1	757	0	0			0	0			1				0	
6.6.1	win	2023-06-13	16:14:26	16:17:53	204837	60ea8e0a21b4d8ed9eddcc82	4	1	practice_z	5	advance_on_keypress_ZEE	22	stimuli_target_diamondsquares.svg	stimuli_distractor_diamondtriangles.svg	3	yes	57	0	1526	0	0			0	0			1				0	
6.6.1	win	2023-06-13	16:14:26	16:17:57	208477	60ea8e0a21b4d8ed9eddcc82	4	1	practice_z	5	practice_z	23	stimuli_target_squarediamonds.svg	stimuli_distractor_diamondtriangles.svg	2	yes	44	1	499	0	0			0	0			1				0	
6.6.1	win	2023-06-13	16:14:26	16:17:57	208477	60ea8e0a21b4d8ed9eddcc82	4	1	practice_z	5	advance_on_keypress_ZEE	24	stimuli_target_squarediamonds.svg	stimuli_distractor_diamondtriangles.svg	2	yes	57	0	488	0	0			0	0			1				0	
6.6.1	win	2023-06-13	16:14:26	16:17:59	211049	60ea8e0a21b4d8ed9eddcc82	4	1	practice_z	5	practice_z	25	stimuli_target_rectanglediamonds.svg	stimuli_distractor_trianglediamonds.svg	4	yes	44	1	470	0	0			0	0			1				0	
6.6.1	win	2023-06-13	16:14:26	16:17:59	211049	60ea8e0a21b4d8ed9eddcc82	4	1	practice_z	5	advance_on_keypress_ZEE	26	stimuli_target_rectanglediamonds.svg	stimuli_distractor_trianglediamonds.svg	4	yes	57	0	372	0	0			0	0			1				0	
6.6.1	win	2023-06-13	16:14:26	16:18:02	213517	60ea8e0a21b4d8ed9eddcc82	4	1	practice_z	5	practice_z	27	stimuli_distractor_diamondtriangles.svg	stimuli_target_diamondrectangles.svg	8	yes	44	1	484	0	0			0	0			1				0	
6.6.1	win	2023-06-13	16:14:26	16:18:02	213517	60ea8e0a21b4d8ed9eddcc82	4	1	practice_z	5	advance_on_keypress_ZEE	28	stimuli_distractor_diamondtriangles.svg	stimuli_target_diamondrectangles.svg	8	yes	57	0	242	0	0			0	0			1				0	
6.6.1	win	2023-06-13	16:14:26	16:18:04	215824	60ea8e0a21b4d8ed9eddcc82	4	1	practice_z	5	practice_z	29	stimuli_target_diamondsquares.svg	stimuli_distractor_trianglediamonds.svg	6	yes	44	1	454	0	0			0	0			1				0	
6.6.1	win	2023-06-13	16:14:26	16:18:04	215824	60ea8e0a21b4d8ed9eddcc82	4	1	practice_z	5	advance_on_keypress_ZEE	30	stimuli_target_diamondsquares.svg	stimuli_distractor_trianglediamonds.svg	6	yes	57	0	314	0	0			0	0			1				0	
6.6.1	win	2023-06-13	16:14:26	16:18:08	219749	60ea8e0a21b4d8ed9eddcc82	4	1	practice_z	5	practice_z	31	stimuli_distractor_trianglediamonds.svg	stimuli_distractor_trianglediamonds.svg	15	no	0	1	2000	0	0			0	0			1				0	
6.6.1	win	2023-06-13	16:14:26	16:18:08	219749	60ea8e0a21b4d8ed9eddcc82	4	1	practice_z	5	advance_on_keypress_ZEE	32	stimuli_distractor_trianglediamonds.svg	stimuli_distractor_trianglediamonds.svg	15	no	57	0	420	0	0			0	0			1				0	
6.6.1	win	2023-06-13	16:14:26	16:18:15	226441	60ea8e0a21b4d8ed9eddcc82	4	1	main_z	7	main_z	1	stimuli_target_trianglerectangles.svg	stimuli_distractor_trianglediamonds.svg	17	yes	44	1	685	0	0			0	0			1				0	
6.6.1	win	2023-06-13	16:14:26	16:18:15	226441	60ea8e0a21b4d8ed9eddcc82	4	1	main_z	7	advance_on_keypress_ZEE	2	stimuli_target_trianglerectangles.svg	stimuli_distractor_trianglediamonds.svg	17	yes	57	0	1412	0	0			0	0			1				0	
6.6.1	win	2023-06-13	16:14:26	16:18:19	230464	60ea8e0a21b4d8ed9eddcc82	4	1	main_z	7	main_z	3	stimuli_distractor_trianglediamonds.svg	stimuli_distractor_diamondtriangles.svg	36	no	0	1	2000	0	0			0	0			1				0	
6.6.1	win	2023-06-13	16:14:26	16:18:19	230464	60ea8e0a21b4d8ed9eddcc82	4	1	main_z	7	advance_on_keypress_ZEE	4	stimuli_distractor_trianglediamonds.svg	stimuli_distractor_diamondtriangles.svg	36	no	57	0	528	0	0			0	0			1				0	
6.6.1	win	2023-06-13	16:14:26	16:18:20	232040	60ea8e0a21b4d8ed9eddcc82	4	1	main_z	7	main_z	5	stimuli_target_trianglesquares.svg	stimuli_distractor_diamondtriangles.svg	22	yes	44	1	436	0	0			0	0			1				0	
6.6.1	win	2023-06-13	16:14:26	16:18:20	232040	60ea8e0a21b4d8ed9eddcc82	4	1	main_z	7	advance_on_keypress_ZEE	6	stimuli_target_trianglesquares.svg	stimuli_distractor_diamondtriangles.svg	22	yes	57	0	799	0	0			0	0			1				0	
6.6.1	win	2023-06-13	16:14:26	16:18:22	233858	60ea8e0a21b4d8ed9eddcc82	4	1	main_z	7	main_z	7	stimuli_distractor_trianglediamonds.svg	stimuli_target_rectangletriangles.svg	9	yes	44	1	409	0	0			0	0			1				0	
6.6.1	win	2023-06-13	16:14:26	16:18:22	233858	60ea8e0a21b4d8ed9eddcc82	4	1	main_z	7	advance_on_keypress_ZEE	8	stimuli_distractor_trianglediamonds.svg	stimuli_target_rectangletriangles.svg	9	yes	57	0	658	0	0			0	0			1				0	
6.6.1	win	2023-06-13	16:14:26	16:18:24	235555	60ea8e0a21b4d8ed9eddcc82	4	1	main_z	7	main_z	9	stimuli_target_trianglesquares.svg	stimuli_distractor_trianglediamonds.svg	18	yes	44	1	425	0	0			0	0			1				0	
6.6.1	win	2023-06-13	16:14:26	16:18:24	235555	60ea8e0a21b4d8ed9eddcc82	4	1	main_z	7	advance_on_keypress_ZEE	10	stimuli_target_trianglesquares.svg	stimuli_distractor_trianglediamonds.svg	18	yes	57	0	405	0	0			0	0			1				0	
6.6.1	win	2023-06-13	16:14:26	16:18:25	237108	60ea8e0a21b4d8ed9eddcc82	4	1	main_z	7	main_z	11	stimuli_distractor_diamondtriangles.svg	stimuli_target_trianglesquares.svg	30	yes	44	1	533	0	0			0	0			1				0	
6.6.1	win	2023-06-13	16:14:26	16:18:25	237108	60ea8e0a21b4d8ed9eddcc82	4	1	main_z	7	advance_on_keypress_ZEE	12	stimuli_distractor_diamondtriangles.svg	stimuli_target_trianglesquares.svg	30	yes	57	0	2234	0	0			0	0			1				0	
6.6.1	win	2023-06-13	16:14:26	16:18:30	241951	60ea8e0a21b4d8ed9eddcc82	4	1	main_z	7	main_z	13	stimuli_distractor_diamondtriangles.svg	stimuli_distractor_trianglediamonds.svg	38	no	0	1	2000	0	0			0	0			1				0	
6.6.1	win	2023-06-13	16:14:26	16:18:30	241951	60ea8e0a21b4d8ed9eddcc82	4	1	main_z	7	advance_on_keypress_ZEE	14	stimuli_distractor_diamondtriangles.svg	stimuli_distractor_trianglediamonds.svg	38	no	57	0	532	0	0			0	0			1				0	
6.6.1	win	2023-06-13	16:14:26	16:18:32	243462	60ea8e0a21b4d8ed9eddcc82	4	1	main_z	7	main_z	15	stimuli_distractor_diamondtriangles.svg	stimuli_target_rectangletriangles.svg	13	yes	44	1	368	0	0			0	0			1				0	
6.6.1	win	2023-06-13	16:14:26	16:18:32	243462	60ea8e0a21b4d8ed9eddcc82	4	1	main_z	7	advance_on_keypress_ZEE	16	stimuli_distractor_diamondtriangles.svg	stimuli_target_rectangletriangles.svg	13	yes	57	0	595	0	0			0	0			1				0	
6.6.1	win	2023-06-13	16:14:26	16:18:34	245373	60ea8e0a21b4d8ed9eddcc82	4	1	main_z	7	main_z	17	stimuli_distractor_trianglediamonds.svg	stimuli_target_diamondrectangles.svg	27	yes	44	1	701	0	0			0	0			1				0	
6.6.1	win	2023-06-13	16:14:26	16:18:34	245373	60ea8e0a21b4d8ed9eddcc82	4	1	main_z	7	advance_on_keypress_ZEE	18	stimuli_distractor_trianglediamonds.svg	stimuli_target_diamondrectangles.svg	27	yes	57	0	669	0	0			0	0			1				0	
6.6.1	win	2023-06-13	16:14:26	16:18:35	247112	60ea8e0a21b4d8ed9eddcc82	4	1	main_z	7	main_z	19	stimuli_target_trianglerectangles.svg	stimuli_distractor_diamondtriangles.svg	21	yes	44	1	454	0	0			0	0			1				0	
6.6.1	win	2023-06-13	16:14:26	16:18:35	247112	60ea8e0a21b4d8ed9eddcc82	4	1	main_z	7	advance_on_keypress_ZEE	20	stimuli_target_trianglerectangles.svg	stimuli_distractor_diamondtriangles.svg	21	yes	57	0	309	0	0			0	0			1				0	
6.6.1	win	2023-06-13	16:14:26	16:18:37	248423	60ea8e0a21b4d8ed9eddcc82	4	1	main_z	7	main_z	21	stimuli_distractor_trianglediamonds.svg	stimuli_target_trianglesquares.svg	26	yes	44	1	387	0	0			0	0			1				0	
6.6.1	win	2023-06-13	16:14:26	16:18:37	248423	60ea8e0a21b4d8ed9eddcc82	4	1	main_z	7	advance_on_keypress_ZEE	22	stimuli_distractor_trianglediamonds.svg	stimuli_target_trianglesquares.svg	26	yes	57	0	262	0	0			0	0			1				0	
6.6.1	win	2023-06-13	16:14:26	16:18:38	249691	60ea8e0a21b4d8ed9eddcc82	4	1	main_z	7	main_z	23	stimuli_target_squarediamonds.svg	stimuli_distractor_trianglediamonds.svg	4	yes	44	1	395	0	0			0	0			1				0	
6.6.1	win	2023-06-13	16:14:26	16:18:38	249691	60ea8e0a21b4d8ed9eddcc82	4	1	main_z	7	advance_on_keypress_ZEE	24	stimuli_target_squarediamonds.svg	stimuli_distractor_trianglediamonds.svg	4	yes	57	0	200	0	0			0	0			1				0	
6.6.1	win	2023-06-13	16:14:26	16:18:39	250852	60ea8e0a21b4d8ed9eddcc82	4	1	main_z	7	main_z	25	stimuli_target_rectanglediamonds.svg	stimuli_distractor_trianglediamonds.svg	2	yes	44	1	350	0	0			0	0			1				0	
6.6.1	win	2023-06-13	16:14:26	16:18:39	250852	60ea8e0a21b4d8ed9eddcc82	4	1	main_z	7	advance_on_keypress_ZEE	26	stimuli_target_rectanglediamonds.svg	stimuli_distractor_trianglediamonds.svg	2	yes	57	0	112	0	0			0	0			1				0	
6.6.1	win	2023-06-13	16:14:26	16:18:40	252105	60ea8e0a21b4d8ed9eddcc82	4	1	main_z	7	main_z	27	stimuli_target_diamondsquares.svg	stimuli_distractor_trianglediamonds.svg	20	yes	44	1	526	0	0			0	0			1				0	
6.6.1	win	2023-06-13	16:14:26	16:18:40	252105	60ea8e0a21b4d8ed9eddcc82	4	1	main_z	7	advance_on_keypress_ZEE	28	stimuli_target_diamondsquares.svg	stimuli_distractor_trianglediamonds.svg	20	yes	57	0	105	0	0			0	0			1				0	
6.6.1	win	2023-06-13	16:14:26	16:18:42	253263	60ea8e0a21b4d8ed9eddcc82	4	1	main_z	7	main_z	29	stimuli_distractor_trianglediamonds.svg	stimuli_target_squarediamonds.svg	12	yes	44	1	439	0	0			0	0			1				0	
6.6.1	win	2023-06-13	16:14:26	16:18:42	253263	60ea8e0a21b4d8ed9eddcc82	4	1	main_z	7	advance_on_keypress_ZEE	30	stimuli_distractor_trianglediamonds.svg	stimuli_target_squarediamonds.svg	12	yes	57	0	123	0	0			0	0			1				0	
6.6.1	win	2023-06-13	16:14:26	16:18:43	254366	60ea8e0a21b4d8ed9eddcc82	4	1	main_z	7	main_z	31	stimuli_target_rectanglediamonds.svg	stimuli_distractor_diamondtriangles.svg	6	yes	44	1	370	0	0			0	0			1				0	
6.6.1	win	2023-06-13	16:14:26	16:18:43	254366	60ea8e0a21b4d8ed9eddcc82	4	1	main_z	7	advance_on_keypress_ZEE	32	stimuli_target_rectanglediamonds.svg	stimuli_distractor_diamondtriangles.svg	6	yes	57	0	115	0	0			0	0			1				0	
6.6.1	win	2023-06-13	16:14:26	16:18:44	255585	60ea8e0a21b4d8ed9eddcc82	4	1	main_z	7	main_z	33	stimuli_target_diamondsquares.svg	stimuli_distractor_diamondtriangles.svg	24	yes	44	1	492	0	0			0	0			1				0	
6.6.1	win	2023-06-13	16:14:26	16:18:44	255585	60ea8e0a21b4d8ed9eddcc82	4	1	main_z	7	advance_on_keypress_ZEE	34	stimuli_target_diamondsquares.svg	stimuli_distractor_diamondtriangles.svg	24	yes	57	0	105	0	0			0	0			1				0	
6.6.1	win	2023-06-13	16:14:26	16:18:45	256803	60ea8e0a21b4d8ed9eddcc82	4	1	main_z	7	main_z	35	stimuli_distractor_diamondtriangles.svg	stimuli_target_squarediamonds.svg	16	yes	44	1	499	0	0			0	0			1				0	
6.6.1	win	2023-06-13	16:14:26	16:18:45	256803	60ea8e0a21b4d8ed9eddcc82	4	1	main_z	7	advance_on_keypress_ZEE	36	stimuli_distractor_diamondtriangles.svg	stimuli_target_squarediamonds.svg	16	yes	57	0	88	0	0			0	0			1				0	
6.6.1	win	2023-06-13	16:14:26	16:18:46	257836	60ea8e0a21b4d8ed9eddcc82	4	1	main_z	7	main_z	37	stimuli_distractor_trianglediamonds.svg	stimuli_target_diamondsquares.svg	28	yes	44	1	335	0	0			0	0			1				0	
6.6.1	win	2023-06-13	16:14:26	16:18:46	257836	60ea8e0a21b4d8ed9eddcc82	4	1	main_z	7	advance_on_keypress_ZEE	38	stimuli_distractor_trianglediamonds.svg	stimuli_target_diamondsquares.svg	28	yes	57	0	89	0	0			0	0			1				0	
6.6.1	win	2023-06-13	16:14:26	16:18:47	258951	60ea8e0a21b4d8ed9eddcc82	4	1	main_z	7	main_z	39	stimuli_target_squaretriangles.svg	stimuli_distractor_diamondtriangles.svg	7	yes	44	1	410	0	0			0	0			1				0	
6.6.1	win	2023-06-13	16:14:26	16:18:47	258951	60ea8e0a21b4d8ed9eddcc82	4	1	main_z	7	advance_on_keypress_ZEE	40	stimuli_target_squaretriangles.svg	stimuli_distractor_diamondtriangles.svg	7	yes	57	0	170	0	0			0	0			1				0	
6.6.1	win	2023-06-13	16:14:26	16:18:48	260171	60ea8e0a21b4d8ed9eddcc82	4	1	main_z	7	main_z	41	stimuli_distractor_trianglediamonds.svg	stimuli_target_trianglerectangles.svg	25	yes	44	1	437	0	0			0	0			1				0	
6.6.1	win	2023-06-13	16:14:26	16:18:48	260171	60ea8e0a21b4d8ed9eddcc82	4	1	main_z	7	advance_on_keypress_ZEE	42	stimuli_distractor_trianglediamonds.svg	stimuli_target_trianglerectangles.svg	25	yes	57	0	101	0	0			0	0			1				0	
6.6.1	win	2023-06-13	16:14:26	16:18:50	261285	60ea8e0a21b4d8ed9eddcc82	4	1	main_z	7	main_z	43	stimuli_target_diamondrectangles.svg	stimuli_distractor_diamondtriangles.svg	23	yes	44	1	403	0	0			0	0			1				0	
6.6.1	win	2023-06-13	16:14:26	16:18:50	261285	60ea8e0a21b4d8ed9eddcc82	4	1	main_z	7	advance_on_keypress_ZEE	44	stimuli_target_diamondrectangles.svg	stimuli_distractor_diamondtriangles.svg	23	yes	57	0	89	0	0			0	0			1				0	
6.6.1	win	2023-06-13	16:14:26	16:18:51	262363	60ea8e0a21b4d8ed9eddcc82	4	1	main_z	7	main_z	45	stimuli_target_rectangletriangles.svg	stimuli_distractor_diamondtriangles.svg	5	yes	44	1	378	0	0			0	0			1				0	
6.6.1	win	2023-06-13	16:14:26	16:18:51	262363	60ea8e0a21b4d8ed9eddcc82	4	1	main_z	7	advance_on_keypress_ZEE	46	stimuli_target_rectangletriangles.svg	stimuli_distractor_diamondtriangles.svg	5	yes	57	0	86	0	0			0	0			1				0	
6.6.1	win	2023-06-13	16:14:26	16:18:52	263472	60ea8e0a21b4d8ed9eddcc82	4	1	main_z	7	main_z	47	stimuli_distractor_diamondtriangles.svg	stimuli_target_rectanglediamonds.svg	14	yes	44	1	411	0	0			0	0			1				0	
6.6.1	win	2023-06-13	16:14:26	16:18:52	263472	60ea8e0a21b4d8ed9eddcc82	4	1	main_z	7	advance_on_keypress_ZEE	48	stimuli_distractor_diamondtriangles.svg	stimuli_target_rectanglediamonds.svg	14	yes	57	0	76	0	0			0	0			1				0	
6.6.1	win	2023-06-13	16:14:26	16:18:53	264632	60ea8e0a21b4d8ed9eddcc82	4	1	main_z	7	main_z	49	stimuli_distractor_diamondtriangles.svg	stimuli_distractor_trianglediamonds.svg	37	no	44	0	472	0	0			0	0			1				0	
6.6.1	win	2023-06-13	16:14:26	16:18:53	264632	60ea8e0a21b4d8ed9eddcc82	4	1	main_z	7	advance_on_keypress_ZEE	50	stimuli_distractor_diamondtriangles.svg	stimuli_distractor_trianglediamonds.svg	37	no	57	0	75	0	0			0	0			1				0	
6.6.1	win	2023-06-13	16:14:26	16:18:56	267319	60ea8e0a21b4d8ed9eddcc82	4	1	main_z	7	main_z	51	stimuli_distractor_trianglediamonds.svg	stimuli_distractor_trianglediamonds.svg	33	no	0	1	2000	0	0			0	0			1				0	
6.6.1	win	2023-06-13	16:14:26	16:18:56	267319	60ea8e0a21b4d8ed9eddcc82	4	1	main_z	7	advance_on_keypress_ZEE	52	stimuli_distractor_trianglediamonds.svg	stimuli_distractor_trianglediamonds.svg	33	no	57	0	576	0	0			0	0			1				0	
6.6.1	win	2023-06-13	16:14:26	16:18:57	268913	60ea8e0a21b4d8ed9eddcc82	4	1	main_z	7	main_z	53	stimuli_target_squarediamonds.svg	stimuli_distractor_diamondtriangles.svg	8	yes	44	1	404	0	0			0	0			1				0	
6.6.1	win	2023-06-13	16:14:26	16:18:57	268913	60ea8e0a21b4d8ed9eddcc82	4	1	main_z	7	advance_on_keypress_ZEE	54	stimuli_target_squarediamonds.svg	stimuli_distractor_diamondtriangles.svg	8	yes	57	0	79	0	0			0	0			1				0	
6.6.1	win	2023-06-13	16:14:26	16:18:58	270099	60ea8e0a21b4d8ed9eddcc82	4	1	main_z	7	main_z	55	stimuli_distractor_diamondtriangles.svg	stimuli_target_trianglerectangles.svg	29	yes	44	1	493	0	0			0	0			1				0	
6.6.1	win	2023-06-13	16:14:26	16:18:58	270099	60ea8e0a21b4d8ed9eddcc82	4	1	main_z	7	advance_on_keypress_ZEE	56	stimuli_distractor_diamondtriangles.svg	stimuli_target_trianglerectangles.svg	29	yes	57	0	95	0	0			0	0			1				0	
6.6.1	win	2023-06-13	16:14:26	16:19:00	271420	60ea8e0a21b4d8ed9eddcc82	4	1	main_z	7	main_z	57	stimuli_distractor_trianglediamonds.svg	stimuli_target_squaretriangles.svg	11	yes	44	1	612	0	0			0	0			1				0	
6.6.1	win	2023-06-13	16:14:26	16:19:00	271420	60ea8e0a21b4d8ed9eddcc82	4	1	main_z	7	advance_on_keypress_ZEE	58	stimuli_distractor_trianglediamonds.svg	stimuli_target_squaretriangles.svg	11	yes	57	0	42	0	0			0	0			1				0	
6.6.1	win	2023-06-13	16:14:26	16:19:01	272533	60ea8e0a21b4d8ed9eddcc82	4	1	main_z	7	main_z	59	stimuli_target_squaretriangles.svg	stimuli_distractor_trianglediamonds.svg	3	yes	44	1	459	0	0			0	0			1				0	
6.6.1	win	2023-06-13	16:14:26	16:19:01	272533	60ea8e0a21b4d8ed9eddcc82	4	1	main_z	7	advance_on_keypress_ZEE	60	stimuli_target_squaretriangles.svg	stimuli_distractor_trianglediamonds.svg	3	yes	57	0	117	0	0			0	0			1				0	
6.6.1	win	2023-06-13	16:14:26	16:19:04	275266	60ea8e0a21b4d8ed9eddcc82	4	1	main_z	7	main_z	61	stimuli_distractor_diamondtriangles.svg	stimuli_distractor_diamondtriangles.svg	40	no	0	1	2000	0	0			0	0			1				0	
6.6.1	win	2023-06-13	16:14:26	16:19:04	275266	60ea8e0a21b4d8ed9eddcc82	4	1	main_z	7	advance_on_keypress_ZEE	62	stimuli_distractor_diamondtriangles.svg	stimuli_distractor_diamondtriangles.svg	40	no	57	0	593	0	0			0	0			1				0	
6.6.1	win	2023-06-13	16:14:26	16:19:05	276902	60ea8e0a21b4d8ed9eddcc82	4	1	main_z	7	main_z	63	stimuli_distractor_diamondtriangles.svg	stimuli_target_diamondsquares.svg	32	yes	44	1	431	0	0			0	0			1				0	
6.6.1	win	2023-06-13	16:14:26	16:19:05	276902	60ea8e0a21b4d8ed9eddcc82	4	1	main_z	7	advance_on_keypress_ZEE	64	stimuli_distractor_diamondtriangles.svg	stimuli_target_diamondsquares.svg	32	yes	57	0	90	0	0			0	0			1				0	
6.6.1	win	2023-06-13	16:14:26	16:19:06	278104	60ea8e0a21b4d8ed9eddcc82	4	1	main_z	7	main_z	65	stimuli_distractor_trianglediamonds.svg	stimuli_distractor_trianglediamonds.svg	34	no	44	0	497	0	0			0	0			1				0	
6.6.1	win	2023-06-13	16:14:26	16:19:06	278104	60ea8e0a21b4d8ed9eddcc82	4	1	main_z	7	advance_on_keypress_ZEE	66	stimuli_distractor_trianglediamonds.svg	stimuli_distractor_trianglediamonds.svg	34	no	57	0	919	0	0			0	0			1				0	
6.6.1	win	2023-06-13	16:14:26	16:19:10	281635	60ea8e0a21b4d8ed9eddcc82	4	1	main_z	7	main_z	67	stimuli_distractor_trianglediamonds.svg	stimuli_distractor_diamondtriangles.svg	35	no	0	1	2000	0	0			0	0			1				0	
6.6.1	win	2023-06-13	16:14:26	16:19:10	281635	60ea8e0a21b4d8ed9eddcc82	4	1	main_z	7	advance_on_keypress_ZEE	68	stimuli_distractor_trianglediamonds.svg	stimuli_distractor_diamondtriangles.svg	35	no	57	0	861	0	0			0	0			1				0	
6.6.1	win	2023-06-13	16:14:26	16:19:12	283516	60ea8e0a21b4d8ed9eddcc82	4	1	main_z	7	main_z	69	stimuli_distractor_diamondtriangles.svg	stimuli_target_squaretriangles.svg	15	yes	44	1	407	0	0			0	0			1				0	
6.6.1	win	2023-06-13	16:14:26	16:19:12	283516	60ea8e0a21b4d8ed9eddcc82	4	1	main_z	7	advance_on_keypress_ZEE	70	stimuli_distractor_diamondtriangles.svg	stimuli_target_squaretriangles.svg	15	yes	57	0	104	0	0			0	0			1				0	
6.6.1	win	2023-06-13	16:14:26	16:19:13	284745	60ea8e0a21b4d8ed9eddcc82	4	1	main_z	7	main_z	71	stimuli_distractor_trianglediamonds.svg	stimuli_target_rectanglediamonds.svg	10	yes	44	1	513	0	0			0	0			1				0	
6.6.1	win	2023-06-13	16:14:26	16:19:13	284745	60ea8e0a21b4d8ed9eddcc82	4	1	main_z	7	advance_on_keypress_ZEE	72	stimuli_distractor_trianglediamonds.svg	stimuli_target_rectanglediamonds.svg	10	yes	57	0	100	0	0			0	0			1				0	
6.6.1	win	2023-06-13	16:14:26	16:19:14	285972	60ea8e0a21b4d8ed9eddcc82	4	1	main_z	7	main_z	73	stimuli_target_rectangletriangles.svg	stimuli_distractor_trianglediamonds.svg	1	yes	44	1	514	0	0			0	0			1				0	
6.6.1	win	2023-06-13	16:14:26	16:19:14	285972	60ea8e0a21b4d8ed9eddcc82	4	1	main_z	7	advance_on_keypress_ZEE	74	stimuli_target_rectangletriangles.svg	stimuli_distractor_trianglediamonds.svg	1	yes	57	0	89	0	0			0	0			1				0	
6.6.1	win	2023-06-13	16:14:26	16:19:17	288677	60ea8e0a21b4d8ed9eddcc82	4	1	main_z	7	main_z	75	stimuli_distractor_diamondtriangles.svg	stimuli_distractor_diamondtriangles.svg	39	no	0	1	2000	0	0			0	0			1				0	
6.6.1	win	2023-06-13	16:14:26	16:19:17	288677	60ea8e0a21b4d8ed9eddcc82	4	1	main_z	7	advance_on_keypress_ZEE	76	stimuli_distractor_diamondtriangles.svg	stimuli_distractor_diamondtriangles.svg	39	no	57	0	522	0	0			0	0			1				0	
6.6.1	win	2023-06-13	16:14:26	16:19:19	290213	60ea8e0a21b4d8ed9eddcc82	4	1	main_z	7	main_z	77	stimuli_distractor_diamondtriangles.svg	stimuli_target_diamondrectangles.svg	31	yes	44	1	402	0	0			0	0			1				0	
6.6.1	win	2023-06-13	16:14:26	16:19:19	290213	60ea8e0a21b4d8ed9eddcc82	4	1	main_z	7	advance_on_keypress_ZEE	78	stimuli_distractor_diamondtriangles.svg	stimuli_target_diamondrectangles.svg	31	yes	57	0	63	0	0			0	0			1				0	
6.6.1	win	2023-06-13	16:14:26	16:19:21	292888	60ea8e0a21b4d8ed9eddcc82	4	1	main_z	7	main_z	79	stimuli_target_diamondrectangles.svg	stimuli_distractor_trianglediamonds.svg	19	yes	0	0	2000	0	0			0	0			1				0	
6.6.1	win	2023-06-13	16:14:26	16:19:21	292888	60ea8e0a21b4d8ed9eddcc82	4	1	main_z	7	advance_on_keypress_ZEE	80	stimuli_target_diamondrectangles.svg	stimuli_distractor_trianglediamonds.svg	19	yes	57	0	600	0	0			0	0			1				0	
6.6.1	win	2023-06-13	16:14:26	16:19:23	294555	60ea8e0a21b4d8ed9eddcc82	4	1	main_z	7	main_z	81	stimuli_distractor_trianglediamonds.svg	stimuli_target_squaretriangles.svg	11	yes	44	1	453	0	0			0	0			1				0	
6.6.1	win	2023-06-13	16:14:26	16:19:23	294555	60ea8e0a21b4d8ed9eddcc82	4	1	main_z	7	advance_on_keypress_ZEE	82	stimuli_distractor_trianglediamonds.svg	stimuli_target_squaretriangles.svg	11	yes	57	0	82	0	0			0	0			1				0	
6.6.1	win	2023-06-13	16:14:26	16:19:26	297251	60ea8e0a21b4d8ed9eddcc82	4	1	main_z	7	main_z	83	stimuli_distractor_trianglediamonds.svg	stimuli_distractor_trianglediamonds.svg	33	no	0	1	2000	0	0			0	0			1				0	
6.6.1	win	2023-06-13	16:14:26	16:19:26	297251	60ea8e0a21b4d8ed9eddcc82	4	1	main_z	7	advance_on_keypress_ZEE	84	stimuli_distractor_trianglediamonds.svg	stimuli_distractor_trianglediamonds.svg	33	no	57	0	482	0	0			0	0			1				0	
6.6.1	win	2023-06-13	16:14:26	16:19:27	298779	60ea8e0a21b4d8ed9eddcc82	4	1	main_z	7	main_z	85	stimuli_target_diamondsquares.svg	stimuli_distractor_diamondtriangles.svg	24	yes	44	1	436	0	0			0	0			1				0	
6.6.1	win	2023-06-13	16:14:26	16:19:27	298779	60ea8e0a21b4d8ed9eddcc82	4	1	main_z	7	advance_on_keypress_ZEE	86	stimuli_target_diamondsquares.svg	stimuli_distractor_diamondtriangles.svg	24	yes	57	0	83	0	0			0	0			1				0	
6.6.1	win	2023-06-13	16:14:26	16:19:28	299919	60ea8e0a21b4d8ed9eddcc82	4	1	main_z	7	main_z	87	stimuli_distractor_trianglediamonds.svg	stimuli_target_rectanglediamonds.svg	10	yes	44	1	446	0	0			0	0			1				0	
6.6.1	win	2023-06-13	16:14:26	16:19:28	299919	60ea8e0a21b4d8ed9eddcc82	4	1	main_z	7	advance_on_keypress_ZEE	88	stimuli_distractor_trianglediamonds.svg	stimuli_target_rectanglediamonds.svg	10	yes	57	0	88	0	0			0	0			1				0	
6.6.1	win	2023-06-13	16:14:26	16:19:29	300978	60ea8e0a21b4d8ed9eddcc82	4	1	main_z	7	main_z	89	stimuli_target_rectanglediamonds.svg	stimuli_distractor_diamondtriangles.svg	6	yes	44	1	360	0	0			0	0			1				0	
6.6.1	win	2023-06-13	16:14:26	16:19:29	300978	60ea8e0a21b4d8ed9eddcc82	4	1	main_z	7	advance_on_keypress_ZEE	90	stimuli_target_rectanglediamonds.svg	stimuli_distractor_diamondtriangles.svg	6	yes	57	0	70	0	0			0	0			1				0	
6.6.1	win	2023-06-13	16:14:26	16:19:30	302067	60ea8e0a21b4d8ed9eddcc82	4	1	main_z	7	main_z	91	stimuli_distractor_trianglediamonds.svg	stimuli_target_rectangletriangles.svg	9	yes	44	1	406	0	0			0	0			1				0	
6.6.1	win	2023-06-13	16:14:26	16:19:30	302067	60ea8e0a21b4d8ed9eddcc82	4	1	main_z	7	advance_on_keypress_ZEE	92	stimuli_distractor_trianglediamonds.svg	stimuli_target_rectangletriangles.svg	9	yes	57	0	54	0	0			0	0			1				0	
6.6.1	win	2023-06-13	16:14:26	16:19:31	303108	60ea8e0a21b4d8ed9eddcc82	4	1	main_z	7	main_z	93	stimuli_target_rectangletriangles.svg	stimuli_distractor_diamondtriangles.svg	5	yes	44	1	375	0	0			0	0			1				0	
6.6.1	win	2023-06-13	16:14:26	16:19:31	303108	60ea8e0a21b4d8ed9eddcc82	4	1	main_z	7	advance_on_keypress_ZEE	94	stimuli_target_rectangletriangles.svg	stimuli_distractor_diamondtriangles.svg	5	yes	57	0	47	0	0			0	0			1				0	
6.6.1	win	2023-06-13	16:14:26	16:19:33	304235	60ea8e0a21b4d8ed9eddcc82	4	1	main_z	7	main_z	95	stimuli_target_trianglesquares.svg	stimuli_distractor_diamondtriangles.svg	22	yes	44	1	470	0	0			0	0			1				0	
6.6.1	win	2023-06-13	16:14:26	16:19:33	304235	60ea8e0a21b4d8ed9eddcc82	4	1	main_z	7	advance_on_keypress_ZEE	96	stimuli_target_trianglesquares.svg	stimuli_distractor_diamondtriangles.svg	22	yes	57	0	57	0	0			0	0			1				0	
6.6.1	win	2023-06-13	16:14:26	16:19:34	305253	60ea8e0a21b4d8ed9eddcc82	4	1	main_z	7	main_z	97	stimuli_target_squaretriangles.svg	stimuli_distractor_diamondtriangles.svg	7	yes	44	1	349	0	0			0	0			1				0	
6.6.1	win	2023-06-13	16:14:26	16:19:34	305253	60ea8e0a21b4d8ed9eddcc82	4	1	main_z	7	advance_on_keypress_ZEE	98	stimuli_target_squaretriangles.svg	stimuli_distractor_diamondtriangles.svg	7	yes	57	0	71	0	0			0	0			1				0	
6.6.1	win	2023-06-13	16:14:26	16:19:36	307935	60ea8e0a21b4d8ed9eddcc82	4	1	main_z	7	main_z	99	stimuli_distractor_trianglediamonds.svg	stimuli_distractor_diamondtriangles.svg	36	no	0	1	2000	0	0			0	0			1				0	
6.6.1	win	2023-06-13	16:14:26	16:19:36	307935	60ea8e0a21b4d8ed9eddcc82	4	1	main_z	7	advance_on_keypress_ZEE	100	stimuli_distractor_trianglediamonds.svg	stimuli_distractor_diamondtriangles.svg	36	no	57	0	471	0	0			0	0			1				0	
6.6.1	win	2023-06-13	16:14:26	16:19:38	309421	60ea8e0a21b4d8ed9eddcc82	4	1	main_z	7	main_z	101	stimuli_target_trianglerectangles.svg	stimuli_distractor_trianglediamonds.svg	17	yes	44	1	402	0	0			0	0			1				0	
6.6.1	win	2023-06-13	16:14:26	16:19:38	309421	60ea8e0a21b4d8ed9eddcc82	4	1	main_z	7	advance_on_keypress_ZEE	102	stimuli_target_trianglerectangles.svg	stimuli_distractor_trianglediamonds.svg	17	yes	57	0	55	0	0			0	0			1				0	
6.6.1	win	2023-06-13	16:14:26	16:19:39	310582	60ea8e0a21b4d8ed9eddcc82	4	1	main_z	7	main_z	103	stimuli_distractor_diamondtriangles.svg	stimuli_target_diamondsquares.svg	32	yes	44	1	494	0	0			0	0			1				0	
6.6.1	win	2023-06-13	16:14:26	16:19:39	310582	60ea8e0a21b4d8ed9eddcc82	4	1	main_z	7	advance_on_keypress_ZEE	104	stimuli_distractor_diamondtriangles.svg	stimuli_target_diamondsquares.svg	32	yes	57	0	69	0	0			0	0			1				0	
6.6.1	win	2023-06-13	16:14:26	16:19:42	313261	60ea8e0a21b4d8ed9eddcc82	4	1	main_z	7	main_z	105	stimuli_distractor_trianglediamonds.svg	stimuli_distractor_trianglediamonds.svg	34	no	0	1	2000	0	0			0	0			1				0	
6.6.1	win	2023-06-13	16:14:26	16:19:42	313261	60ea8e0a21b4d8ed9eddcc82	4	1	main_z	7	advance_on_keypress_ZEE	106	stimuli_distractor_trianglediamonds.svg	stimuli_distractor_trianglediamonds.svg	34	no	57	0	489	0	0			0	0			1				0	
6.6.1	win	2023-06-13	16:14:26	16:19:45	316362	60ea8e0a21b4d8ed9eddcc82	4	1	main_z	7	main_z	107	stimuli_distractor_diamondtriangles.svg	stimuli_distractor_diamondtriangles.svg	40	no	0	1	2000	0	0			0	0			1				0	
6.6.1	win	2023-06-13	16:14:26	16:19:45	316362	60ea8e0a21b4d8ed9eddcc82	4	1	main_z	7	advance_on_keypress_ZEE	108	stimuli_distractor_diamondtriangles.svg	stimuli_distractor_diamondtriangles.svg	40	no	57	0	688	0	0			0	0			1				0	
6.6.1	win	2023-06-13	16:14:26	16:19:46	318141	60ea8e0a21b4d8ed9eddcc82	4	1	main_z	7	main_z	109	stimuli_distractor_trianglediamonds.svg	stimuli_target_diamondrectangles.svg	27	yes	44	1	478	0	0			0	0			1				0	
6.6.1	win	2023-06-13	16:14:26	16:19:46	318141	60ea8e0a21b4d8ed9eddcc82	4	1	main_z	7	advance_on_keypress_ZEE	110	stimuli_distractor_trianglediamonds.svg	stimuli_target_diamondrectangles.svg	27	yes	57	0	84	0	0			0	0			1				0	
6.6.1	win	2023-06-13	16:14:26	16:19:48	319282	60ea8e0a21b4d8ed9eddcc82	4	1	main_z	7	main_z	111	stimuli_target_rectangletriangles.svg	stimuli_distractor_trianglediamonds.svg	1	yes	44	1	445	0	0			0	0			1				0	
6.6.1	win	2023-06-13	16:14:26	16:19:48	319282	60ea8e0a21b4d8ed9eddcc82	4	1	main_z	7	advance_on_keypress_ZEE	112	stimuli_target_rectangletriangles.svg	stimuli_distractor_trianglediamonds.svg	1	yes	57	0	294	0	0			0	0			1				0	
6.6.1	win	2023-06-13	16:14:26	16:19:49	320617	60ea8e0a21b4d8ed9eddcc82	4	1	main_z	7	main_z	113	stimuli_distractor_trianglediamonds.svg	stimuli_target_squarediamonds.svg	12	yes	44	1	425	0	0			0	0			1				0	
6.6.1	win	2023-06-13	16:14:26	16:19:49	320617	60ea8e0a21b4d8ed9eddcc82	4	1	main_z	7	advance_on_keypress_ZEE	114	stimuli_distractor_trianglediamonds.svg	stimuli_target_squarediamonds.svg	12	yes	57	0	78	0	0			0	0			1				0	
6.6.1	win	2023-06-13	16:14:26	16:19:50	321706	60ea8e0a21b4d8ed9eddcc82	4	1	main_z	7	main_z	115	stimuli_target_squarediamonds.svg	stimuli_distractor_diamondtriangles.svg	8	yes	44	1	399	0	0			0	0			1				0	
6.6.1	win	2023-06-13	16:14:26	16:19:50	321706	60ea8e0a21b4d8ed9eddcc82	4	1	main_z	7	advance_on_keypress_ZEE	116	stimuli_target_squarediamonds.svg	stimuli_distractor_diamondtriangles.svg	8	yes	57	0	83	0	0			0	0			1				0	
6.6.1	win	2023-06-13	16:14:26	16:19:51	323073	60ea8e0a21b4d8ed9eddcc82	4	1	main_z	7	main_z	117	stimuli_distractor_diamondtriangles.svg	stimuli_target_rectangletriangles.svg	13	yes	44	1	673	0	0			0	0			1				0	
6.6.1	win	2023-06-13	16:14:26	16:19:51	323073	60ea8e0a21b4d8ed9eddcc82	4	1	main_z	7	advance_on_keypress_ZEE	118	stimuli_distractor_diamondtriangles.svg	stimuli_target_rectangletriangles.svg	13	yes	57	0	82	0	0			0	0			1				0	
6.6.1	win	2023-06-13	16:14:26	16:19:53	324375	60ea8e0a21b4d8ed9eddcc82	4	1	main_z	7	main_z	119	stimuli_distractor_diamondtriangles.svg	stimuli_target_diamondrectangles.svg	31	yes	44	1	606	0	0			0	0			1				0	
6.6.1	win	2023-06-13	16:14:26	16:19:53	324375	60ea8e0a21b4d8ed9eddcc82	4	1	main_z	7	advance_on_keypress_ZEE	120	stimuli_distractor_diamondtriangles.svg	stimuli_target_diamondrectangles.svg	31	yes	57	0	47	0	0			0	0			1				0	
6.6.1	win	2023-06-13	16:14:26	16:19:54	325454	60ea8e0a21b4d8ed9eddcc82	4	1	main_z	7	main_z	121	stimuli_distractor_trianglediamonds.svg	stimuli_target_trianglerectangles.svg	25	yes	44	1	419	0	0			0	0			1				0	
6.6.1	win	2023-06-13	16:14:26	16:19:54	325454	60ea8e0a21b4d8ed9eddcc82	4	1	main_z	7	advance_on_keypress_ZEE	122	stimuli_distractor_trianglediamonds.svg	stimuli_target_trianglerectangles.svg	25	yes	57	0	67	0	0			0	0			1				0	
6.6.1	win	2023-06-13	16:14:26	16:19:55	326588	60ea8e0a21b4d8ed9eddcc82	4	1	main_z	7	main_z	123	stimuli_distractor_diamondtriangles.svg	stimuli_target_trianglesquares.svg	30	yes	44	1	456	0	0			0	0			1				0	
6.6.1	win	2023-06-13	16:14:26	16:19:55	326588	60ea8e0a21b4d8ed9eddcc82	4	1	main_z	7	advance_on_keypress_ZEE	124	stimuli_distractor_diamondtriangles.svg	stimuli_target_trianglesquares.svg	30	yes	57	0	52	0	0			0	0			1				0	
6.6.1	win	2023-06-13	16:14:26	16:19:56	327799	60ea8e0a21b4d8ed9eddcc82	4	1	main_z	7	main_z	125	stimuli_target_rectanglediamonds.svg	stimuli_distractor_trianglediamonds.svg	2	yes	44	1	545	0	0			0	0			1				0	
6.6.1	win	2023-06-13	16:14:26	16:19:56	327799	60ea8e0a21b4d8ed9eddcc82	4	1	main_z	7	advance_on_keypress_ZEE	126	stimuli_target_rectanglediamonds.svg	stimuli_distractor_trianglediamonds.svg	2	yes	57	0	104	0	0			0	0			1				0	
6.6.1	win	2023-06-13	16:14:26	16:19:57	328959	60ea8e0a21b4d8ed9eddcc82	4	1	main_z	7	main_z	127	stimuli_target_diamondrectangles.svg	stimuli_distractor_trianglediamonds.svg	19	yes	44	1	444	0	0			0	0			1				0	
6.6.1	win	2023-06-13	16:14:26	16:19:57	328959	60ea8e0a21b4d8ed9eddcc82	4	1	main_z	7	advance_on_keypress_ZEE	128	stimuli_target_diamondrectangles.svg	stimuli_distractor_trianglediamonds.svg	19	yes	57	0	77	0	0			0	0			1				0	
6.6.1	win	2023-06-13	16:14:26	16:20:00	331647	60ea8e0a21b4d8ed9eddcc82	4	1	main_z	7	main_z	129	stimuli_distractor_trianglediamonds.svg	stimuli_distractor_diamondtriangles.svg	35	no	0	1	2000	0	0			0	0			1				0	
6.6.1	win	2023-06-13	16:14:26	16:20:00	331647	60ea8e0a21b4d8ed9eddcc82	4	1	main_z	7	advance_on_keypress_ZEE	130	stimuli_distractor_trianglediamonds.svg	stimuli_distractor_diamondtriangles.svg	35	no	57	0	539	0	0			0	0			1				0	
6.6.1	win	2023-06-13	16:14:26	16:20:02	333214	60ea8e0a21b4d8ed9eddcc82	4	1	main_z	7	main_z	131	stimuli_target_trianglerectangles.svg	stimuli_distractor_diamondtriangles.svg	21	yes	44	1	417	0	0			0	0			1				0	
6.6.1	win	2023-06-13	16:14:26	16:20:02	333214	60ea8e0a21b4d8ed9eddcc82	4	1	main_z	7	advance_on_keypress_ZEE	132	stimuli_target_trianglerectangles.svg	stimuli_distractor_diamondtriangles.svg	21	yes	57	0	79	0	0			0	0			1				0	
6.6.1	win	2023-06-13	16:14:26	16:20:03	334378	60ea8e0a21b4d8ed9eddcc82	4	1	main_z	7	main_z	133	stimuli_target_diamondrectangles.svg	stimuli_distractor_diamondtriangles.svg	23	yes	44	1	471	0	0			0	0			1				0	
6.6.1	win	2023-06-13	16:14:26	16:20:03	334378	60ea8e0a21b4d8ed9eddcc82	4	1	main_z	7	advance_on_keypress_ZEE	134	stimuli_target_diamondrectangles.svg	stimuli_distractor_diamondtriangles.svg	23	yes	57	0	87	0	0			0	0			1				0	
6.6.1	win	2023-06-13	16:14:26	16:20:05	337076	60ea8e0a21b4d8ed9eddcc82	4	1	main_z	7	main_z	135	stimuli_distractor_diamondtriangles.svg	stimuli_distractor_diamondtriangles.svg	39	no	0	1	2000	0	0			0	0			1				0	
6.6.1	win	2023-06-13	16:14:26	16:20:05	337076	60ea8e0a21b4d8ed9eddcc82	4	1	main_z	7	advance_on_keypress_ZEE	136	stimuli_distractor_diamondtriangles.svg	stimuli_distractor_diamondtriangles.svg	39	no	57	0	365	0	0			0	0			1				0	
6.6.1	win	2023-06-13	16:14:26	16:20:07	338494	60ea8e0a21b4d8ed9eddcc82	4	1	main_z	7	main_z	137	stimuli_distractor_diamondtriangles.svg	stimuli_target_squarediamonds.svg	16	yes	44	1	442	0	0			0	0			1				0	
6.6.1	win	2023-06-13	16:14:26	16:20:07	338494	60ea8e0a21b4d8ed9eddcc82	4	1	main_z	7	advance_on_keypress_ZEE	138	stimuli_distractor_diamondtriangles.svg	stimuli_target_squarediamonds.svg	16	yes	57	0	72	0	0			0	0			1				0	
6.6.1	win	2023-06-13	16:14:26	16:20:08	339525	60ea8e0a21b4d8ed9eddcc82	4	1	main_z	7	main_z	139	stimuli_distractor_trianglediamonds.svg	stimuli_target_diamondsquares.svg	28	yes	44	1	345	0	0			0	0			1				0	
6.6.1	win	2023-06-13	16:14:26	16:20:08	339525	60ea8e0a21b4d8ed9eddcc82	4	1	main_z	7	advance_on_keypress_ZEE	140	stimuli_distractor_trianglediamonds.svg	stimuli_target_diamondsquares.svg	28	yes	57	0	75	0	0			0	0			1				0	
6.6.1	win	2023-06-13	16:14:26	16:20:09	340628	60ea8e0a21b4d8ed9eddcc82	4	1	main_z	7	main_z	141	stimuli_distractor_diamondtriangles.svg	stimuli_target_rectanglediamonds.svg	14	yes	44	1	414	0	0			0	0			1				0	
6.6.1	win	2023-06-13	16:14:26	16:20:09	340628	60ea8e0a21b4d8ed9eddcc82	4	1	main_z	7	advance_on_keypress_ZEE	142	stimuli_distractor_diamondtriangles.svg	stimuli_target_rectanglediamonds.svg	14	yes	57	0	60	0	0			0	0			1				0	
6.6.1	win	2023-06-13	16:14:26	16:20:10	341662	60ea8e0a21b4d8ed9eddcc82	4	1	main_z	7	main_z	143	stimuli_distractor_diamondtriangles.svg	stimuli_target_trianglerectangles.svg	29	yes	44	1	363	0	0			0	0			1				0	
6.6.1	win	2023-06-13	16:14:26	16:20:10	341662	60ea8e0a21b4d8ed9eddcc82	4	1	main_z	7	advance_on_keypress_ZEE	144	stimuli_distractor_diamondtriangles.svg	stimuli_target_trianglerectangles.svg	29	yes	57	0	58	0	0			0	0			1				0	
6.6.1	win	2023-06-13	16:14:26	16:20:11	342746	60ea8e0a21b4d8ed9eddcc82	4	1	main_z	7	main_z	145	stimuli_target_trianglesquares.svg	stimuli_distractor_trianglediamonds.svg	18	yes	44	1	412	0	0			0	0			1				0	
6.6.1	win	2023-06-13	16:14:26	16:20:11	342746	60ea8e0a21b4d8ed9eddcc82	4	1	main_z	7	advance_on_keypress_ZEE	146	stimuli_target_trianglesquares.svg	stimuli_distractor_trianglediamonds.svg	18	yes	57	0	74	0	0			0	0			1				0	
6.6.1	win	2023-06-13	16:14:26	16:20:14	345432	60ea8e0a21b4d8ed9eddcc82	4	1	main_z	7	main_z	147	stimuli_distractor_diamondtriangles.svg	stimuli_distractor_trianglediamonds.svg	37	no	0	1	2000	0	0			0	0			1				0	
6.6.1	win	2023-06-13	16:14:26	16:20:14	345432	60ea8e0a21b4d8ed9eddcc82	4	1	main_z	7	advance_on_keypress_ZEE	148	stimuli_distractor_diamondtriangles.svg	stimuli_distractor_trianglediamonds.svg	37	no	57	0	277	0	0			0	0			1				0	
6.6.1	win	2023-06-13	16:14:26	16:20:15	346720	60ea8e0a21b4d8ed9eddcc82	4	1	main_z	7	main_z	149	stimuli_distractor_trianglediamonds.svg	stimuli_target_trianglesquares.svg	26	yes	44	1	400	0	0			0	0			1				0	
6.6.1	win	2023-06-13	16:14:26	16:20:15	346720	60ea8e0a21b4d8ed9eddcc82	4	1	main_z	7	advance_on_keypress_ZEE	150	stimuli_distractor_trianglediamonds.svg	stimuli_target_trianglesquares.svg	26	yes	57	0	100	0	0			0	0			1				0	
6.6.1	win	2023-06-13	16:14:26	16:20:16	347827	60ea8e0a21b4d8ed9eddcc82	4	1	main_z	7	main_z	151	stimuli_target_diamondsquares.svg	stimuli_distractor_trianglediamonds.svg	20	yes	44	1	396	0	0			0	0			1				0	
6.6.1	win	2023-06-13	16:14:26	16:20:16	347827	60ea8e0a21b4d8ed9eddcc82	4	1	main_z	7	advance_on_keypress_ZEE	152	stimuli_target_diamondsquares.svg	stimuli_distractor_trianglediamonds.svg	20	yes	57	0	478	0	0			0	0			1				0	
6.6.1	win	2023-06-13	16:14:26	16:20:19	350917	60ea8e0a21b4d8ed9eddcc82	4	1	main_z	7	main_z	153	stimuli_distractor_diamondtriangles.svg	stimuli_distractor_trianglediamonds.svg	38	no	0	1	2000	0	0			0	0			1				0	
6.6.1	win	2023-06-13	16:14:26	16:20:19	350917	60ea8e0a21b4d8ed9eddcc82	4	1	main_z	7	advance_on_keypress_ZEE	154	stimuli_distractor_diamondtriangles.svg	stimuli_distractor_trianglediamonds.svg	38	no	57	0	428	0	0			0	0			1				0	
6.6.1	win	2023-06-13	16:14:26	16:20:21	352368	60ea8e0a21b4d8ed9eddcc82	4	1	main_z	7	main_z	155	stimuli_target_squarediamonds.svg	stimuli_distractor_trianglediamonds.svg	4	yes	44	1	413	0	0			0	0			1				0	
6.6.1	win	2023-06-13	16:14:26	16:20:21	352368	60ea8e0a21b4d8ed9eddcc82	4	1	main_z	7	advance_on_keypress_ZEE	156	stimuli_target_squarediamonds.svg	stimuli_distractor_trianglediamonds.svg	4	yes	57	0	72	0	0			0	0			1				0	
6.6.1	win	2023-06-13	16:14:26	16:20:22	353506	60ea8e0a21b4d8ed9eddcc82	4	1	main_z	7	main_z	157	stimuli_distractor_diamondtriangles.svg	stimuli_target_squaretriangles.svg	15	yes	44	1	453	0	0			0	0			1				0	
6.6.1	win	2023-06-13	16:14:26	16:20:22	353506	60ea8e0a21b4d8ed9eddcc82	4	1	main_z	7	advance_on_keypress_ZEE	158	stimuli_distractor_diamondtriangles.svg	stimuli_target_squaretriangles.svg	15	yes	57	0	75	0	0			0	0			1				0	
6.6.1	win	2023-06-13	16:14:26	16:20:23	354560	60ea8e0a21b4d8ed9eddcc82	4	1	main_z	7	main_z	159	stimuli_target_squaretriangles.svg	stimuli_distractor_trianglediamonds.svg	3	yes	44	1	366	0	0			0	0			1				0	
6.6.1	win	2023-06-13	16:14:26	16:20:23	354560	60ea8e0a21b4d8ed9eddcc82	4	1	main_z	7	advance_on_keypress_ZEE	160	stimuli_target_squaretriangles.svg	stimuli_distractor_trianglediamonds.svg	3	yes	57	0	55	0	0			0	0			1				0	
6.6.1	win	2023-06-13	16:14:26	16:20:43	374790	60ea8e0a21b4d8ed9eddcc82	4	1	practice_slash	9	practice_slash	1	stimuli_distractor_diamondtriangles.svg	stimuli_distractor_diamondtriangles.svg	13	no	0	1	2000	0	0			0	0			1				0	
6.6.1	win	2023-06-13	16:14:26	16:20:43	374790	60ea8e0a21b4d8ed9eddcc82	4	1	practice_slash	9	advance_on_keypress_SLASH	2	stimuli_distractor_diamondtriangles.svg	stimuli_distractor_diamondtriangles.svg	13	no	57	0	1120	0	0			0	0			1				0	
6.6.1	win	2023-06-13	16:14:26	16:20:48	379523	60ea8e0a21b4d8ed9eddcc82	4	1	practice_slash	9	practice_slash	3	stimuli_distractor_trianglediamonds.svg	stimuli_distractor_diamondtriangles.svg	16	no	0	1	2000	0	0			0	0			1				0	
6.6.1	win	2023-06-13	16:14:26	16:20:48	379523	60ea8e0a21b4d8ed9eddcc82	4	1	practice_slash	9	advance_on_keypress_SLASH	4	stimuli_distractor_trianglediamonds.svg	stimuli_distractor_diamondtriangles.svg	16	no	57	0	797	0	0			0	0			1				0	
6.6.1	win	2023-06-13	16:14:26	16:20:51	382332	60ea8e0a21b4d8ed9eddcc82	4	1	practice_slash	9	practice_slash	5	stimuli_target_rectanglediamonds.svg	stimuli_distractor_trianglediamonds.svg	4	yes	53	1	397	0	0			0	0			1				0	
6.6.1	win	2023-06-13	16:14:26	16:20:51	382332	60ea8e0a21b4d8ed9eddcc82	4	1	practice_slash	9	advance_on_keypress_SLASH	6	stimuli_target_rectanglediamonds.svg	stimuli_distractor_trianglediamonds.svg	4	yes	57	0	380	0	0			0	0			1				0	
6.6.1	win	2023-06-13	16:14:26	16:20:55	386327	60ea8e0a21b4d8ed9eddcc82	4	1	practice_slash	9	practice_slash	7	stimuli_distractor_diamondtriangles.svg	stimuli_distractor_trianglediamonds.svg	14	no	0	1	2000	0	0			0	0			1				0	
6.6.1	win	2023-06-13	16:14:26	16:20:55	386327	60ea8e0a21b4d8ed9eddcc82	4	1	practice_slash	9	advance_on_keypress_SLASH	8	stimuli_distractor_diamondtriangles.svg	stimuli_distractor_trianglediamonds.svg	14	no	57	0	470	0	0			0	0			1				0	
6.6.1	win	2023-06-13	16:14:26	16:20:57	388906	60ea8e0a21b4d8ed9eddcc82	4	1	practice_slash	9	practice_slash	9	stimuli_distractor_diamondtriangles.svg	stimuli_target_trianglerectangles.svg	9	yes	53	1	493	0	0			0	0			1				0	
6.6.1	win	2023-06-13	16:14:26	16:20:57	388906	60ea8e0a21b4d8ed9eddcc82	4	1	practice_slash	9	advance_on_keypress_SLASH	10	stimuli_distractor_diamondtriangles.svg	stimuli_target_trianglerectangles.svg	9	yes	57	0	484	0	0			0	0			1				0	
6.6.1	win	2023-06-13	16:14:26	16:21:00	391433	60ea8e0a21b4d8ed9eddcc82	4	1	practice_slash	9	practice_slash	11	stimuli_distractor_trianglediamonds.svg	stimuli_target_squarediamonds.svg	11	yes	53	1	427	0	0			0	0			1				0	
6.6.1	win	2023-06-13	16:14:26	16:21:00	391433	60ea8e0a21b4d8ed9eddcc82	4	1	practice_slash	9	advance_on_keypress_SLASH	12	stimuli_distractor_trianglediamonds.svg	stimuli_target_squarediamonds.svg	11	yes	57	0	480	0	0			0	0			1				0	
6.6.1	win	2023-06-13	16:14:26	16:21:02	393908	60ea8e0a21b4d8ed9eddcc82	4	1	practice_slash	9	practice_slash	13	stimuli_target_squarediamonds.svg	stimuli_distractor_trianglediamonds.svg	5	yes	53	1	383	0	0			0	0			1				0	
6.6.1	win	2023-06-13	16:14:26	16:21:02	393908	60ea8e0a21b4d8ed9eddcc82	4	1	practice_slash	9	advance_on_keypress_SLASH	14	stimuli_target_squarediamonds.svg	stimuli_distractor_trianglediamonds.svg	5	yes	57	0	298	0	0			0	0			1				0	
6.6.1	win	2023-06-13	16:14:26	16:21:05	396249	60ea8e0a21b4d8ed9eddcc82	4	1	practice_slash	9	practice_slash	15	stimuli_target_diamondsquares.svg	stimuli_distractor_trianglediamonds.svg	6	yes	53	1	433	0	0			0	0			1				0	
6.6.1	win	2023-06-13	16:14:26	16:21:05	396249	60ea8e0a21b4d8ed9eddcc82	4	1	practice_slash	9	advance_on_keypress_SLASH	16	stimuli_target_diamondsquares.svg	stimuli_distractor_trianglediamonds.svg	6	yes	57	0	287	0	0			0	0			1				0	
6.6.1	win	2023-06-13	16:14:26	16:21:07	398673	60ea8e0a21b4d8ed9eddcc82	4	1	practice_slash	9	practice_slash	17	stimuli_target_diamondsquares.svg	stimuli_distractor_diamondtriangles.svg	3	yes	53	1	524	0	0			0	0			1				0	
6.6.1	win	2023-06-13	16:14:26	16:21:07	398673	60ea8e0a21b4d8ed9eddcc82	4	1	practice_slash	9	advance_on_keypress_SLASH	18	stimuli_target_diamondsquares.svg	stimuli_distractor_diamondtriangles.svg	3	yes	57	0	417	0	0			0	0			1				0	
6.6.1	win	2023-06-13	16:14:26	16:21:10	401416	60ea8e0a21b4d8ed9eddcc82	4	1	practice_slash	9	practice_slash	19	stimuli_distractor_diamondtriangles.svg	stimuli_target_rectangletriangles.svg	7	yes	53	1	712	0	0			0	0			1				0	
6.6.1	win	2023-06-13	16:14:26	16:21:10	401416	60ea8e0a21b4d8ed9eddcc82	4	1	practice_slash	9	advance_on_keypress_SLASH	20	stimuli_distractor_diamondtriangles.svg	stimuli_target_rectangletriangles.svg	7	yes	57	0	307	0	0			0	0			1				0	
6.6.1	win	2023-06-13	16:14:26	16:21:12	403823	60ea8e0a21b4d8ed9eddcc82	4	1	practice_slash	9	practice_slash	21	stimuli_target_squarediamonds.svg	stimuli_distractor_diamondtriangles.svg	2	yes	53	1	486	0	0			0	0			1				0	
6.6.1	win	2023-06-13	16:14:26	16:21:12	403823	60ea8e0a21b4d8ed9eddcc82	4	1	practice_slash	9	advance_on_keypress_SLASH	22	stimuli_target_squarediamonds.svg	stimuli_distractor_diamondtriangles.svg	2	yes	57	0	318	0	0			0	0			1				0	
6.6.1	win	2023-06-13	16:14:26	16:21:14	406075	60ea8e0a21b4d8ed9eddcc82	4	1	practice_slash	9	practice_slash	23	stimuli_distractor_trianglediamonds.svg	stimuli_target_diamondrectangles.svg	12	yes	53	1	321	0	0			0	0			1				0	
6.6.1	win	2023-06-13	16:14:26	16:21:14	406075	60ea8e0a21b4d8ed9eddcc82	4	1	practice_slash	9	advance_on_keypress_SLASH	24	stimuli_distractor_trianglediamonds.svg	stimuli_target_diamondrectangles.svg	12	yes	57	0	205	0	0			0	0			1				0	
6.6.1	win	2023-06-13	16:14:26	16:21:17	408367	60ea8e0a21b4d8ed9eddcc82	4	1	practice_slash	9	practice_slash	25	stimuli_target_rectanglediamonds.svg	stimuli_distractor_diamondtriangles.svg	1	yes	53	1	470	0	0			0	0			1				0	
6.6.1	win	2023-06-13	16:14:26	16:21:17	408367	60ea8e0a21b4d8ed9eddcc82	4	1	practice_slash	9	advance_on_keypress_SLASH	26	stimuli_target_rectanglediamonds.svg	stimuli_distractor_diamondtriangles.svg	1	yes	57	0	408	0	0			0	0			1				0	
6.6.1	win	2023-06-13	16:14:26	16:21:21	412388	60ea8e0a21b4d8ed9eddcc82	4	1	practice_slash	9	practice_slash	27	stimuli_distractor_trianglediamonds.svg	stimuli_distractor_trianglediamonds.svg	15	no	0	1	2000	0	0			0	0			1				0	
6.6.1	win	2023-06-13	16:14:26	16:21:21	412388	60ea8e0a21b4d8ed9eddcc82	4	1	practice_slash	9	advance_on_keypress_SLASH	28	stimuli_distractor_trianglediamonds.svg	stimuli_distractor_trianglediamonds.svg	15	no	57	0	207	0	0			0	0			1				0	
6.6.1	win	2023-06-13	16:14:26	16:21:23	414604	60ea8e0a21b4d8ed9eddcc82	4	1	practice_slash	9	practice_slash	29	stimuli_distractor_diamondtriangles.svg	stimuli_target_diamondrectangles.svg	8	yes	53	1	389	0	0			0	0			1				0	
6.6.1	win	2023-06-13	16:14:26	16:21:23	414604	60ea8e0a21b4d8ed9eddcc82	4	1	practice_slash	9	advance_on_keypress_SLASH	30	stimuli_distractor_diamondtriangles.svg	stimuli_target_diamondrectangles.svg	8	yes	57	0	334	0	0			0	0			1				0	
6.6.1	win	2023-06-13	16:14:26	16:21:25	416950	60ea8e0a21b4d8ed9eddcc82	4	1	practice_slash	9	practice_slash	31	stimuli_distractor_trianglediamonds.svg	stimuli_target_rectanglediamonds.svg	10	yes	53	1	398	0	0			0	0			1				0	
6.6.1	win	2023-06-13	16:14:26	16:21:25	416950	60ea8e0a21b4d8ed9eddcc82	4	1	practice_slash	9	advance_on_keypress_SLASH	32	stimuli_distractor_trianglediamonds.svg	stimuli_target_rectanglediamonds.svg	10	yes	57	0	446	0	0			0	0			1				0	
6.6.1	win	2023-06-13	16:14:26	16:21:29	420747	60ea8e0a21b4d8ed9eddcc82	4	1	main_slash	11	main_slash	1	stimuli_target_diamondsquares.svg	stimuli_distractor_trianglediamonds.svg	20	yes	53	1	386	0	0			0	0			1				0	
6.6.1	win	2023-06-13	16:14:26	16:21:29	420747	60ea8e0a21b4d8ed9eddcc82	4	1	main_slash	11	advance_on_keypress_SLASH	2	stimuli_target_diamondsquares.svg	stimuli_distractor_trianglediamonds.svg	20	yes	57	0	1313	0	0			0	0			1				0	
6.6.1	win	2023-06-13	16:14:26	16:21:32	423281	60ea8e0a21b4d8ed9eddcc82	4	1	main_slash	11	main_slash	3	stimuli_target_diamondrectangles.svg	stimuli_distractor_trianglediamonds.svg	19	yes	53	1	604	0	0			0	0			1				0	
6.6.1	win	2023-06-13	16:14:26	16:21:32	423281	60ea8e0a21b4d8ed9eddcc82	4	1	main_slash	11	advance_on_keypress_SLASH	4	stimuli_target_diamondrectangles.svg	stimuli_distractor_trianglediamonds.svg	19	yes	57	0	2062	0	0			0	0			1				0	
6.6.1	win	2023-06-13	16:14:26	16:21:35	426374	60ea8e0a21b4d8ed9eddcc82	4	1	main_slash	11	main_slash	5	stimuli_distractor_diamondtriangles.svg	stimuli_target_trianglesquares.svg	30	yes	53	1	421	0	0			0	0			1				0	
6.6.1	win	2023-06-13	16:14:26	16:21:35	426374	60ea8e0a21b4d8ed9eddcc82	4	1	main_slash	11	advance_on_keypress_SLASH	6	stimuli_distractor_diamondtriangles.svg	stimuli_target_trianglesquares.svg	30	yes	57	0	633	0	0			0	0			1				0	
6.6.1	win	2023-06-13	16:14:26	16:21:36	428044	60ea8e0a21b4d8ed9eddcc82	4	1	main_slash	11	main_slash	7	stimuli_target_trianglerectangles.svg	stimuli_distractor_trianglediamonds.svg	17	yes	53	1	421	0	0			0	0			1				0	
6.6.1	win	2023-06-13	16:14:26	16:21:36	428044	60ea8e0a21b4d8ed9eddcc82	4	1	main_slash	11	advance_on_keypress_SLASH	8	stimuli_target_trianglerectangles.svg	stimuli_distractor_trianglediamonds.svg	17	yes	57	0	286	0	0			0	0			1				0	
6.6.1	win	2023-06-13	16:14:26	16:21:38	429339	60ea8e0a21b4d8ed9eddcc82	4	1	main_slash	11	main_slash	9	stimuli_distractor_diamondtriangles.svg	stimuli_distractor_trianglediamonds.svg	38	no	53	0	392	0	0			0	0			1				0	
6.6.1	win	2023-06-13	16:14:26	16:21:38	429339	60ea8e0a21b4d8ed9eddcc82	4	1	main_slash	11	advance_on_keypress_SLASH	10	stimuli_distractor_diamondtriangles.svg	stimuli_distractor_trianglediamonds.svg	38	no	57	0	431	0	0			0	0			1				0	
6.6.1	win	2023-06-13	16:14:26	16:21:39	430767	60ea8e0a21b4d8ed9eddcc82	4	1	main_slash	11	main_slash	11	stimuli_target_rectanglediamonds.svg	stimuli_distractor_trianglediamonds.svg	2	yes	53	1	386	0	0			0	0			1				0	
6.6.1	win	2023-06-13	16:14:26	16:21:39	430767	60ea8e0a21b4d8ed9eddcc82	4	1	main_slash	11	advance_on_keypress_SLASH	12	stimuli_target_rectanglediamonds.svg	stimuli_distractor_trianglediamonds.svg	2	yes	57	0	223	0	0			0	0			1				0	
6.6.1	win	2023-06-13	16:14:26	16:21:42	433600	60ea8e0a21b4d8ed9eddcc82	4	1	main_slash	11	main_slash	13	stimuli_distractor_trianglediamonds.svg	stimuli_distractor_trianglediamonds.svg	34	no	0	1	2000	0	0			0	0			1				0	
6.6.1	win	2023-06-13	16:14:26	16:21:42	433600	60ea8e0a21b4d8ed9eddcc82	4	1	main_slash	11	advance_on_keypress_SLASH	14	stimuli_distractor_trianglediamonds.svg	stimuli_distractor_trianglediamonds.svg	34	no	57	0	464	0	0			0	0			1				0	
6.6.1	win	2023-06-13	16:14:26	16:21:43	435056	60ea8e0a21b4d8ed9eddcc82	4	1	main_slash	11	main_slash	15	stimuli_distractor_trianglediamonds.svg	stimuli_target_diamondrectangles.svg	27	yes	53	1	378	0	0			0	0			1				0	
6.6.1	win	2023-06-13	16:14:26	16:21:43	435056	60ea8e0a21b4d8ed9eddcc82	4	1	main_slash	11	advance_on_keypress_SLASH	16	stimuli_distractor_trianglediamonds.svg	stimuli_target_diamondrectangles.svg	27	yes	57	0	215	0	0			0	0			1				0	
6.6.1	win	2023-06-13	16:14:26	16:21:45	436259	60ea8e0a21b4d8ed9eddcc82	4	1	main_slash	11	main_slash	17	stimuli_distractor_trianglediamonds.svg	stimuli_target_diamondsquares.svg	28	yes	53	1	377	0	0			0	0			1				0	
6.6.1	win	2023-06-13	16:14:26	16:21:45	436259	60ea8e0a21b4d8ed9eddcc82	4	1	main_slash	11	advance_on_keypress_SLASH	18	stimuli_distractor_trianglediamonds.svg	stimuli_target_diamondsquares.svg	28	yes	57	0	234	0	0			0	0			1				0	
6.6.1	win	2023-06-13	16:14:26	16:21:47	439105	60ea8e0a21b4d8ed9eddcc82	4	1	main_slash	11	main_slash	19	stimuli_distractor_diamondtriangles.svg	stimuli_distractor_trianglediamonds.svg	37	no	0	1	2000	0	0			0	0			1				0	
6.6.1	win	2023-06-13	16:14:26	16:21:47	439105	60ea8e0a21b4d8ed9eddcc82	4	1	main_slash	11	advance_on_keypress_SLASH	20	stimuli_distractor_diamondtriangles.svg	stimuli_distractor_trianglediamonds.svg	37	no	57	0	391	0	0			0	0			1				0	
6.6.1	win	2023-06-13	16:14:26	16:21:49	440442	60ea8e0a21b4d8ed9eddcc82	4	1	main_slash	11	main_slash	21	stimuli_distractor_trianglediamonds.svg	stimuli_target_trianglerectangles.svg	25	yes	53	1	332	0	0			0	0			1				0	
6.6.1	win	2023-06-13	16:14:26	16:21:49	440442	60ea8e0a21b4d8ed9eddcc82	4	1	main_slash	11	advance_on_keypress_SLASH	22	stimuli_distractor_trianglediamonds.svg	stimuli_target_trianglerectangles.svg	25	yes	57	0	204	0	0			0	0			1				0	
6.6.1	win	2023-06-13	16:14:26	16:21:52	443258	60ea8e0a21b4d8ed9eddcc82	4	1	main_slash	11	main_slash	23	stimuli_distractor_trianglediamonds.svg	stimuli_distractor_diamondtriangles.svg	36	no	0	1	2000	0	0			0	0			1				0	
6.6.1	win	2023-06-13	16:14:26	16:21:52	443258	60ea8e0a21b4d8ed9eddcc82	4	1	main_slash	11	advance_on_keypress_SLASH	24	stimuli_distractor_trianglediamonds.svg	stimuli_distractor_diamondtriangles.svg	36	no	57	0	436	0	0			0	0			1				0	
6.6.1	win	2023-06-13	16:14:26	16:21:53	444692	60ea8e0a21b4d8ed9eddcc82	4	1	main_slash	11	main_slash	25	stimuli_target_squaretriangles.svg	stimuli_distractor_diamondtriangles.svg	7	yes	53	1	387	0	0			0	0			1				0	
6.6.1	win	2023-06-13	16:14:26	16:21:53	444692	60ea8e0a21b4d8ed9eddcc82	4	1	main_slash	11	advance_on_keypress_SLASH	26	stimuli_target_squaretriangles.svg	stimuli_distractor_diamondtriangles.svg	7	yes	57	0	163	0	0			0	0			1				0	
6.6.1	win	2023-06-13	16:14:26	16:21:56	447465	60ea8e0a21b4d8ed9eddcc82	4	1	main_slash	11	main_slash	27	stimuli_distractor_trianglediamonds.svg	stimuli_distractor_diamondtriangles.svg	35	no	0	1	2000	0	0			0	0			1				0	
6.6.1	win	2023-06-13	16:14:26	16:21:56	447465	60ea8e0a21b4d8ed9eddcc82	4	1	main_slash	11	advance_on_keypress_SLASH	28	stimuli_distractor_trianglediamonds.svg	stimuli_distractor_diamondtriangles.svg	35	no	57	0	401	0	0			0	0			1				0	
6.6.1	win	2023-06-13	16:14:26	16:21:57	448832	60ea8e0a21b4d8ed9eddcc82	4	1	main_slash	11	main_slash	29	stimuli_distractor_diamondtriangles.svg	stimuli_target_trianglerectangles.svg	29	yes	53	1	353	0	0			0	0			1				0	
6.6.1	win	2023-06-13	16:14:26	16:21:57	448832	60ea8e0a21b4d8ed9eddcc82	4	1	main_slash	11	advance_on_keypress_SLASH	30	stimuli_distractor_diamondtriangles.svg	stimuli_target_trianglerectangles.svg	29	yes	57	0	104	0	0			0	0			1				0	
6.6.1	win	2023-06-13	16:14:26	16:21:58	449984	60ea8e0a21b4d8ed9eddcc82	4	1	main_slash	11	main_slash	31	stimuli_distractor_diamondtriangles.svg	stimuli_target_diamondrectangles.svg	31	yes	53	1	437	0	0			0	0			1				0	
6.6.1	win	2023-06-13	16:14:26	16:21:58	449984	60ea8e0a21b4d8ed9eddcc82	4	1	main_slash	11	advance_on_keypress_SLASH	32	stimuli_distractor_diamondtriangles.svg	stimuli_target_diamondrectangles.svg	31	yes	57	0	95	0	0			0	0			1				0	
6.6.1	win	2023-06-13	16:14:26	16:21:59	451077	60ea8e0a21b4d8ed9eddcc82	4	1	main_slash	11	main_slash	33	stimuli_distractor_trianglediamonds.svg	stimuli_target_trianglesquares.svg	26	yes	53	1	386	0	0			0	0			1				0	
6.6.1	win	2023-06-13	16:14:26	16:21:59	451077	60ea8e0a21b4d8ed9eddcc82	4	1	main_slash	11	advance_on_keypress_SLASH	34	stimuli_distractor_trianglediamonds.svg	stimuli_target_trianglesquares.svg	26	yes	57	0	188	0	0			0	0			1				0	
6.6.1	win	2023-06-13	16:14:26	16:22:01	452643	60ea8e0a21b4d8ed9eddcc82	4	1	main_slash	11	main_slash	35	stimuli_distractor_trianglediamonds.svg	stimuli_target_rectanglediamonds.svg	10	yes	53	1	767	0	0			0	0			1				0	
6.6.1	win	2023-06-13	16:14:26	16:22:01	452643	60ea8e0a21b4d8ed9eddcc82	4	1	main_slash	11	advance_on_keypress_SLASH	36	stimuli_distractor_trianglediamonds.svg	stimuli_target_rectanglediamonds.svg	10	yes	57	0	128	0	0			0	0			1				0	
6.6.1	win	2023-06-13	16:14:26	16:22:02	454140	60ea8e0a21b4d8ed9eddcc82	4	1	main_slash	11	main_slash	37	stimuli_target_trianglesquares.svg	stimuli_distractor_diamondtriangles.svg	22	yes	53	1	757	0	0			0	0			1				0	
6.6.1	win	2023-06-13	16:14:26	16:22:02	454140	60ea8e0a21b4d8ed9eddcc82	4	1	main_slash	11	advance_on_keypress_SLASH	38	stimuli_target_trianglesquares.svg	stimuli_distractor_diamondtriangles.svg	22	yes	57	0	137	0	0			0	0			1				0	
6.6.1	win	2023-06-13	16:14:26	16:22:04	455341	60ea8e0a21b4d8ed9eddcc82	4	1	main_slash	11	main_slash	39	stimuli_target_diamondrectangles.svg	stimuli_distractor_diamondtriangles.svg	23	yes	53	1	451	0	0			0	0			1				0	
6.6.1	win	2023-06-13	16:14:26	16:22:04	455341	60ea8e0a21b4d8ed9eddcc82	4	1	main_slash	11	advance_on_keypress_SLASH	40	stimuli_target_diamondrectangles.svg	stimuli_distractor_diamondtriangles.svg	23	yes	57	0	53	0	0			0	0			1				0	
6.6.1	win	2023-06-13	16:14:26	16:22:05	456496	60ea8e0a21b4d8ed9eddcc82	4	1	main_slash	11	main_slash	41	stimuli_distractor_trianglediamonds.svg	stimuli_target_squarediamonds.svg	12	yes	53	1	488	0	0			0	0			1				0	
6.6.1	win	2023-06-13	16:14:26	16:22:05	456496	60ea8e0a21b4d8ed9eddcc82	4	1	main_slash	11	advance_on_keypress_SLASH	42	stimuli_distractor_trianglediamonds.svg	stimuli_target_squarediamonds.svg	12	yes	57	0	73	0	0			0	0			1				0	
6.6.1	win	2023-06-13	16:14:26	16:22:06	457629	60ea8e0a21b4d8ed9eddcc82	4	1	main_slash	11	main_slash	43	stimuli_distractor_diamondtriangles.svg	stimuli_target_rectangletriangles.svg	13	yes	53	1	448	0	0			0	0			1				0	
6.6.1	win	2023-06-13	16:14:26	16:22:06	457629	60ea8e0a21b4d8ed9eddcc82	4	1	main_slash	11	advance_on_keypress_SLASH	44	stimuli_distractor_diamondtriangles.svg	stimuli_target_rectangletriangles.svg	13	yes	57	0	152	0	0			0	0			1				0	
6.6.1	win	2023-06-13	16:14:26	16:22:07	458840	60ea8e0a21b4d8ed9eddcc82	4	1	main_slash	11	main_slash	45	stimuli_target_diamondsquares.svg	stimuli_distractor_diamondtriangles.svg	24	yes	53	1	447	0	0			0	0			1				0	
6.6.1	win	2023-06-13	16:14:26	16:22:07	458840	60ea8e0a21b4d8ed9eddcc82	4	1	main_slash	11	advance_on_keypress_SLASH	46	stimuli_target_diamondsquares.svg	stimuli_distractor_diamondtriangles.svg	24	yes	57	0	90	0	0			0	0			1				0	
6.6.1	win	2023-06-13	16:14:26	16:22:08	460087	60ea8e0a21b4d8ed9eddcc82	4	1	main_slash	11	main_slash	47	stimuli_distractor_diamondtriangles.svg	stimuli_target_rectanglediamonds.svg	14	yes	53	1	547	0	0			0	0			1				0	
6.6.1	win	2023-06-13	16:14:26	16:22:08	460087	60ea8e0a21b4d8ed9eddcc82	4	1	main_slash	11	advance_on_keypress_SLASH	48	stimuli_distractor_diamondtriangles.svg	stimuli_target_rectanglediamonds.svg	14	yes	57	0	94	0	0			0	0			1				0	
6.6.1	win	2023-06-13	16:14:26	16:22:09	461178	60ea8e0a21b4d8ed9eddcc82	4	1	main_slash	11	main_slash	49	stimuli_target_rectanglediamonds.svg	stimuli_distractor_diamondtriangles.svg	6	yes	53	1	387	0	0			0	0			1				0	
6.6.1	win	2023-06-13	16:14:26	16:22:09	461178	60ea8e0a21b4d8ed9eddcc82	4	1	main_slash	11	advance_on_keypress_SLASH	50	stimuli_target_rectanglediamonds.svg	stimuli_distractor_diamondtriangles.svg	6	yes	57	0	92	0	0			0	0			1				0	
6.6.1	win	2023-06-13	16:14:26	16:22:11	462224	60ea8e0a21b4d8ed9eddcc82	4	1	main_slash	11	main_slash	51	stimuli_target_rectangletriangles.svg	stimuli_distractor_diamondtriangles.svg	5	yes	53	1	343	0	0			0	0			1				0	
6.6.1	win	2023-06-13	16:14:26	16:22:11	462224	60ea8e0a21b4d8ed9eddcc82	4	1	main_slash	11	advance_on_keypress_SLASH	52	stimuli_target_rectangletriangles.svg	stimuli_distractor_diamondtriangles.svg	5	yes	57	0	120	0	0			0	0			1				0	
6.6.1	win	2023-06-13	16:14:26	16:22:13	464958	60ea8e0a21b4d8ed9eddcc82	4	1	main_slash	11	main_slash	53	stimuli_distractor_diamondtriangles.svg	stimuli_distractor_diamondtriangles.svg	40	no	0	1	2000	0	0			0	0			1				0	
6.6.1	win	2023-06-13	16:14:26	16:22:13	464958	60ea8e0a21b4d8ed9eddcc82	4	1	main_slash	11	advance_on_keypress_SLASH	54	stimuli_distractor_diamondtriangles.svg	stimuli_distractor_diamondtriangles.svg	40	no	57	0	510	0	0			0	0			1				0	
6.6.1	win	2023-06-13	16:14:26	16:22:15	466424	60ea8e0a21b4d8ed9eddcc82	4	1	main_slash	11	main_slash	55	stimuli_distractor_trianglediamonds.svg	stimuli_target_rectangletriangles.svg	9	yes	53	1	344	0	0			0	0			1				0	
6.6.1	win	2023-06-13	16:14:26	16:22:15	466424	60ea8e0a21b4d8ed9eddcc82	4	1	main_slash	11	advance_on_keypress_SLASH	56	stimuli_distractor_trianglediamonds.svg	stimuli_target_rectangletriangles.svg	9	yes	57	0	93	0	0			0	0			1				0	
6.6.1	win	2023-06-13	16:14:26	16:22:17	469128	60ea8e0a21b4d8ed9eddcc82	4	1	main_slash	11	main_slash	57	stimuli_distractor_trianglediamonds.svg	stimuli_target_squaretriangles.svg	11	yes	0	0	2000	0	0			0	0			1				0	
6.6.1	win	2023-06-13	16:14:26	16:22:17	469128	60ea8e0a21b4d8ed9eddcc82	4	1	main_slash	11	advance_on_keypress_SLASH	58	stimuli_distractor_trianglediamonds.svg	stimuli_target_squaretriangles.svg	11	yes	57	0	487	0	0			0	0			1				0	
6.6.1	win	2023-06-13	16:14:26	16:22:19	470876	60ea8e0a21b4d8ed9eddcc82	4	1	main_slash	11	main_slash	59	stimuli_target_trianglerectangles.svg	stimuli_distractor_diamondtriangles.svg	21	yes	53	1	648	0	0			0	0			1				0	
6.6.1	win	2023-06-13	16:14:26	16:22:19	470876	60ea8e0a21b4d8ed9eddcc82	4	1	main_slash	11	advance_on_keypress_SLASH	60	stimuli_target_trianglerectangles.svg	stimuli_distractor_diamondtriangles.svg	21	yes	57	0	143	0	0			0	0			1				0	
6.6.1	win	2023-06-13	16:14:26	16:22:20	472147	60ea8e0a21b4d8ed9eddcc82	4	1	main_slash	11	main_slash	61	stimuli_target_squaretriangles.svg	stimuli_distractor_trianglediamonds.svg	3	yes	53	1	516	0	0			0	0			1				0	
6.6.1	win	2023-06-13	16:14:26	16:22:20	472147	60ea8e0a21b4d8ed9eddcc82	4	1	main_slash	11	advance_on_keypress_SLASH	62	stimuli_target_squaretriangles.svg	stimuli_distractor_trianglediamonds.svg	3	yes	57	0	145	0	0			0	0			1				0	
6.6.1	win	2023-06-13	16:14:26	16:22:22	473322	60ea8e0a21b4d8ed9eddcc82	4	1	main_slash	11	main_slash	63	stimuli_distractor_diamondtriangles.svg	stimuli_target_diamondsquares.svg	32	yes	53	1	418	0	0			0	0			1				0	
6.6.1	win	2023-06-13	16:14:26	16:22:22	473322	60ea8e0a21b4d8ed9eddcc82	4	1	main_slash	11	advance_on_keypress_SLASH	64	stimuli_distractor_diamondtriangles.svg	stimuli_target_diamondsquares.svg	32	yes	57	0	131	0	0			0	0			1				0	
6.6.1	win	2023-06-13	16:14:26	16:22:23	474678	60ea8e0a21b4d8ed9eddcc82	4	1	main_slash	11	main_slash	65	stimuli_target_rectangletriangles.svg	stimuli_distractor_trianglediamonds.svg	1	yes	53	1	613	0	0			0	0			1				0	
6.6.1	win	2023-06-13	16:14:26	16:22:23	474678	60ea8e0a21b4d8ed9eddcc82	4	1	main_slash	11	advance_on_keypress_SLASH	66	stimuli_target_rectangletriangles.svg	stimuli_distractor_trianglediamonds.svg	1	yes	57	0	126	0	0			0	0			1				0	
6.6.1	win	2023-06-13	16:14:26	16:22:24	475846	60ea8e0a21b4d8ed9eddcc82	4	1	main_slash	11	main_slash	67	stimuli_target_trianglesquares.svg	stimuli_distractor_trianglediamonds.svg	18	yes	53	1	429	0	0			0	0			1				0	
6.6.1	win	2023-06-13	16:14:26	16:22:24	475846	60ea8e0a21b4d8ed9eddcc82	4	1	main_slash	11	advance_on_keypress_SLASH	68	stimuli_target_trianglesquares.svg	stimuli_distractor_trianglediamonds.svg	18	yes	57	0	178	0	0			0	0			1				0	
6.6.1	win	2023-06-13	16:14:26	16:22:25	477039	60ea8e0a21b4d8ed9eddcc82	4	1	main_slash	11	main_slash	69	stimuli_target_squarediamonds.svg	stimuli_distractor_diamondtriangles.svg	8	yes	53	1	399	0	0			0	0			1				0	
6.6.1	win	2023-06-13	16:14:26	16:22:25	477039	60ea8e0a21b4d8ed9eddcc82	4	1	main_slash	11	advance_on_keypress_SLASH	70	stimuli_target_squarediamonds.svg	stimuli_distractor_diamondtriangles.svg	8	yes	57	0	159	0	0			0	0			1				0	
6.6.1	win	2023-06-13	16:14:26	16:22:28	479809	60ea8e0a21b4d8ed9eddcc82	4	1	main_slash	11	main_slash	71	stimuli_distractor_trianglediamonds.svg	stimuli_distractor_trianglediamonds.svg	33	no	0	1	2000	0	0			0	0			1				0	
6.6.1	win	2023-06-13	16:14:26	16:22:28	479809	60ea8e0a21b4d8ed9eddcc82	4	1	main_slash	11	advance_on_keypress_SLASH	72	stimuli_distractor_trianglediamonds.svg	stimuli_distractor_trianglediamonds.svg	33	no	57	0	539	0	0			0	0			1				0	
6.6.1	win	2023-06-13	16:14:26	16:22:30	481381	60ea8e0a21b4d8ed9eddcc82	4	1	main_slash	11	main_slash	73	stimuli_distractor_diamondtriangles.svg	stimuli_target_squaretriangles.svg	15	yes	53	1	421	0	0			0	0			1				0	
6.6.1	win	2023-06-13	16:14:26	16:22:30	481381	60ea8e0a21b4d8ed9eddcc82	4	1	main_slash	11	advance_on_keypress_SLASH	74	stimuli_distractor_diamondtriangles.svg	stimuli_target_squaretriangles.svg	15	yes	57	0	116	0	0			0	0			1				0	
6.6.1	win	2023-06-13	16:14:26	16:22:32	484112	60ea8e0a21b4d8ed9eddcc82	4	1	main_slash	11	main_slash	75	stimuli_distractor_diamondtriangles.svg	stimuli_distractor_diamondtriangles.svg	39	no	0	1	2000	0	0			0	0			1				0	
6.6.1	win	2023-06-13	16:14:26	16:22:32	484112	60ea8e0a21b4d8ed9eddcc82	4	1	main_slash	11	advance_on_keypress_SLASH	76	stimuli_distractor_diamondtriangles.svg	stimuli_distractor_diamondtriangles.svg	39	no	57	0	278	0	0			0	0			1				0	
6.6.1	win	2023-06-13	16:14:26	16:22:34	485437	60ea8e0a21b4d8ed9eddcc82	4	1	main_slash	11	main_slash	77	stimuli_distractor_diamondtriangles.svg	stimuli_target_squarediamonds.svg	16	yes	53	1	433	0	0			0	0			1				0	
6.6.1	win	2023-06-13	16:14:26	16:22:34	485437	60ea8e0a21b4d8ed9eddcc82	4	1	main_slash	11	advance_on_keypress_SLASH	78	stimuli_distractor_diamondtriangles.svg	stimuli_target_squarediamonds.svg	16	yes	57	0	102	0	0			0	0			1				0	
6.6.1	win	2023-06-13	16:14:26	16:22:35	486531	60ea8e0a21b4d8ed9eddcc82	4	1	main_slash	11	main_slash	79	stimuli_target_squarediamonds.svg	stimuli_distractor_trianglediamonds.svg	4	yes	53	1	375	0	0			0	0			1				0	
6.6.1	win	2023-06-13	16:14:26	16:22:35	486531	60ea8e0a21b4d8ed9eddcc82	4	1	main_slash	11	advance_on_keypress_SLASH	80	stimuli_target_squarediamonds.svg	stimuli_distractor_trianglediamonds.svg	4	yes	57	0	126	0	0			0	0			1				0	
6.6.1	win	2023-06-13	16:14:26	16:22:36	487771	60ea8e0a21b4d8ed9eddcc82	4	1	main_slash	11	main_slash	81	stimuli_target_rectanglediamonds.svg	stimuli_distractor_trianglediamonds.svg	2	yes	53	1	501	0	0			0	0			1				0	
6.6.1	win	2023-06-13	16:14:26	16:22:36	487771	60ea8e0a21b4d8ed9eddcc82	4	1	main_slash	11	advance_on_keypress_SLASH	82	stimuli_target_rectanglediamonds.svg	stimuli_distractor_trianglediamonds.svg	2	yes	57	0	122	0	0			0	0			1				0	
6.6.1	win	2023-06-13	16:14:26	16:22:37	488930	60ea8e0a21b4d8ed9eddcc82	4	1	main_slash	11	main_slash	83	stimuli_target_diamondsquares.svg	stimuli_distractor_trianglediamonds.svg	20	yes	53	1	424	0	0			0	0			1				0	
6.6.1	win	2023-06-13	16:14:26	16:22:37	488930	60ea8e0a21b4d8ed9eddcc82	4	1	main_slash	11	advance_on_keypress_SLASH	84	stimuli_target_diamondsquares.svg	stimuli_distractor_trianglediamonds.svg	20	yes	57	0	106	0	0			0	0			1				0	
6.6.1	win	2023-06-13	16:14:26	16:22:38	490003	60ea8e0a21b4d8ed9eddcc82	4	1	main_slash	11	main_slash	85	stimuli_target_squaretriangles.svg	stimuli_distractor_diamondtriangles.svg	7	yes	53	1	358	0	0			0	0			1				0	
6.6.1	win	2023-06-13	16:14:26	16:22:38	490003	60ea8e0a21b4d8ed9eddcc82	4	1	main_slash	11	advance_on_keypress_SLASH	86	stimuli_target_squaretriangles.svg	stimuli_distractor_diamondtriangles.svg	7	yes	57	0	79	0	0			0	0			1				0	
6.6.1	win	2023-06-13	16:14:26	16:22:39	491004	60ea8e0a21b4d8ed9eddcc82	4	1	main_slash	11	main_slash	87	stimuli_target_squaretriangles.svg	stimuli_distractor_trianglediamonds.svg	3	yes	53	1	311	0	0			0	0			1				0	
6.6.1	win	2023-06-13	16:14:26	16:22:39	491004	60ea8e0a21b4d8ed9eddcc82	4	1	main_slash	11	advance_on_keypress_SLASH	88	stimuli_target_squaretriangles.svg	stimuli_distractor_trianglediamonds.svg	3	yes	57	0	155	0	0			0	0			1				0	
6.6.1	win	2023-06-13	16:14:26	16:22:40	492171	60ea8e0a21b4d8ed9eddcc82	4	1	main_slash	11	main_slash	89	stimuli_distractor_trianglediamonds.svg	stimuli_target_diamondrectangles.svg	27	yes	53	1	401	0	0			0	0			1				0	
6.6.1	win	2023-06-13	16:14:26	16:22:40	492171	60ea8e0a21b4d8ed9eddcc82	4	1	main_slash	11	advance_on_keypress_SLASH	90	stimuli_distractor_trianglediamonds.svg	stimuli_target_diamondrectangles.svg	27	yes	57	0	136	0	0			0	0			1				0	
6.6.1	win	2023-06-13	16:14:26	16:22:42	493257	60ea8e0a21b4d8ed9eddcc82	4	1	main_slash	11	main_slash	91	stimuli_distractor_diamondtriangles.svg	stimuli_target_trianglesquares.svg	30	yes	53	1	340	0	0			0	0			1				0	
6.6.1	win	2023-06-13	16:14:26	16:22:42	493257	60ea8e0a21b4d8ed9eddcc82	4	1	main_slash	11	advance_on_keypress_SLASH	92	stimuli_distractor_diamondtriangles.svg	stimuli_target_trianglesquares.svg	30	yes	57	0	117	0	0			0	0			1				0	
6.6.1	win	2023-06-13	16:14:26	16:22:44	495986	60ea8e0a21b4d8ed9eddcc82	4	1	main_slash	11	main_slash	93	stimuli_distractor_diamondtriangles.svg	stimuli_distractor_trianglediamonds.svg	38	no	0	1	2000	0	0			0	0			1				0	
6.6.1	win	2023-06-13	16:14:26	16:22:44	495986	60ea8e0a21b4d8ed9eddcc82	4	1	main_slash	11	advance_on_keypress_SLASH	94	stimuli_distractor_diamondtriangles.svg	stimuli_distractor_trianglediamonds.svg	38	no	57	0	431	0	0			0	0			1				0	
6.6.1	win	2023-06-13	16:14:26	16:22:47	499029	60ea8e0a21b4d8ed9eddcc82	4	1	main_slash	11	main_slash	95	stimuli_distractor_trianglediamonds.svg	stimuli_distractor_trianglediamonds.svg	33	no	0	1	2000	0	0			0	0			1				0	
6.6.1	win	2023-06-13	16:14:26	16:22:47	499029	60ea8e0a21b4d8ed9eddcc82	4	1	main_slash	11	advance_on_keypress_SLASH	96	stimuli_distractor_trianglediamonds.svg	stimuli_distractor_trianglediamonds.svg	33	no	57	0	210	0	0			0	0			1				0	
6.6.1	win	2023-06-13	16:14:26	16:22:49	500266	60ea8e0a21b4d8ed9eddcc82	4	1	main_slash	11	main_slash	97	stimuli_target_rectangletriangles.svg	stimuli_distractor_trianglediamonds.svg	1	yes	53	1	416	0	0			0	0			1				0	
6.6.1	win	2023-06-13	16:14:26	16:22:49	500266	60ea8e0a21b4d8ed9eddcc82	4	1	main_slash	11	advance_on_keypress_SLASH	98	stimuli_target_rectangletriangles.svg	stimuli_distractor_trianglediamonds.svg	1	yes	57	0	81	0	0			0	0			1				0	
6.6.1	win	2023-06-13	16:14:26	16:22:51	502956	60ea8e0a21b4d8ed9eddcc82	4	1	main_slash	11	main_slash	99	stimuli_distractor_trianglediamonds.svg	stimuli_distractor_trianglediamonds.svg	34	no	0	1	2000	0	0			0	0			1				0	
6.6.1	win	2023-06-13	16:14:26	16:22:51	502956	60ea8e0a21b4d8ed9eddcc82	4	1	main_slash	11	advance_on_keypress_SLASH	100	stimuli_distractor_trianglediamonds.svg	stimuli_distractor_trianglediamonds.svg	34	no	57	0	511	0	0			0	0			1				0	
6.6.1	win	2023-06-13	16:14:26	16:22:53	504484	60ea8e0a21b4d8ed9eddcc82	4	1	main_slash	11	main_slash	101	stimuli_distractor_trianglediamonds.svg	stimuli_target_rectanglediamonds.svg	10	yes	53	1	406	0	0			0	0			1				0	
6.6.1	win	2023-06-13	16:14:26	16:22:53	504484	60ea8e0a21b4d8ed9eddcc82	4	1	main_slash	11	advance_on_keypress_SLASH	102	stimuli_distractor_trianglediamonds.svg	stimuli_target_rectanglediamonds.svg	10	yes	57	0	82	0	0			0	0			1				0	
6.6.1	win	2023-06-13	16:14:26	16:22:54	505525	60ea8e0a21b4d8ed9eddcc82	4	1	main_slash	11	main_slash	103	stimuli_distractor_diamondtriangles.svg	stimuli_target_squarediamonds.svg	16	yes	53	1	345	0	0			0	0			1				0	
6.6.1	win	2023-06-13	16:14:26	16:22:54	505525	60ea8e0a21b4d8ed9eddcc82	4	1	main_slash	11	advance_on_keypress_SLASH	104	stimuli_distractor_diamondtriangles.svg	stimuli_target_squarediamonds.svg	16	yes	57	0	135	0	0			0	0			1				0	
6.6.1	win	2023-06-13	16:14:26	16:22:55	506590	60ea8e0a21b4d8ed9eddcc82	4	1	main_slash	11	main_slash	105	stimuli_target_squarediamonds.svg	stimuli_distractor_trianglediamonds.svg	4	yes	53	1	321	0	0			0	0			1				0	
6.6.1	win	2023-06-13	16:14:26	16:22:55	506590	60ea8e0a21b4d8ed9eddcc82	4	1	main_slash	11	advance_on_keypress_SLASH	106	stimuli_target_squarediamonds.svg	stimuli_distractor_trianglediamonds.svg	4	yes	57	0	87	0	0			0	0			1				0	
6.6.1	win	2023-06-13	16:14:26	16:22:56	508040	60ea8e0a21b4d8ed9eddcc82	4	1	main_slash	11	main_slash	107	stimuli_target_trianglerectangles.svg	stimuli_distractor_trianglediamonds.svg	17	yes	53	1	748	0	0			0	0			1				0	
6.6.1	win	2023-06-13	16:14:26	16:22:56	508040	60ea8e0a21b4d8ed9eddcc82	4	1	main_slash	11	advance_on_keypress_SLASH	108	stimuli_target_trianglerectangles.svg	stimuli_distractor_trianglediamonds.svg	17	yes	57	0	118	0	0			0	0			1				0	
6.6.1	win	2023-06-13	16:14:26	16:22:57	509181	60ea8e0a21b4d8ed9eddcc82	4	1	main_slash	11	main_slash	109	stimuli_distractor_diamondtriangles.svg	stimuli_target_rectanglediamonds.svg	14	yes	53	1	410	0	0			0	0			1				0	
6.6.1	win	2023-06-13	16:14:26	16:22:57	509181	60ea8e0a21b4d8ed9eddcc82	4	1	main_slash	11	advance_on_keypress_SLASH	110	stimuli_distractor_diamondtriangles.svg	stimuli_target_rectanglediamonds.svg	14	yes	57	0	74	0	0			0	0			1				0	
6.6.1	win	2023-06-13	16:14:26	16:22:59	510273	60ea8e0a21b4d8ed9eddcc82	4	1	main_slash	11	main_slash	111	stimuli_target_trianglerectangles.svg	stimuli_distractor_diamondtriangles.svg	21	yes	53	1	406	0	0			0	0			1				0	
6.6.1	win	2023-06-13	16:14:26	16:22:59	510273	60ea8e0a21b4d8ed9eddcc82	4	1	main_slash	11	advance_on_keypress_SLASH	112	stimuli_target_trianglerectangles.svg	stimuli_distractor_diamondtriangles.svg	21	yes	57	0	126	0	0			0	0			1				0	
6.6.1	win	2023-06-13	16:14:26	16:23:00	511343	60ea8e0a21b4d8ed9eddcc82	4	1	main_slash	11	main_slash	113	stimuli_distractor_trianglediamonds.svg	stimuli_target_trianglerectangles.svg	25	yes	53	1	331	0	0			0	0			1				0	
6.6.1	win	2023-06-13	16:14:26	16:23:00	511343	60ea8e0a21b4d8ed9eddcc82	4	1	main_slash	11	advance_on_keypress_SLASH	114	stimuli_distractor_trianglediamonds.svg	stimuli_target_trianglerectangles.svg	25	yes	57	0	125	0	0			0	0			1				0	
6.6.1	win	2023-06-13	16:14:26	16:23:01	512453	60ea8e0a21b4d8ed9eddcc82	4	1	main_slash	11	main_slash	115	stimuli_target_diamondrectangles.svg	stimuli_distractor_diamondtriangles.svg	23	yes	53	1	372	0	0			0	0			1				0	
6.6.1	win	2023-06-13	16:14:26	16:23:01	512453	60ea8e0a21b4d8ed9eddcc82	4	1	main_slash	11	advance_on_keypress_SLASH	116	stimuli_target_diamondrectangles.svg	stimuli_distractor_diamondtriangles.svg	23	yes	57	0	130	0	0			0	0			1				0	
6.6.1	win	2023-06-13	16:14:26	16:23:02	513629	60ea8e0a21b4d8ed9eddcc82	4	1	main_slash	11	main_slash	117	stimuli_distractor_trianglediamonds.svg	stimuli_target_rectangletriangles.svg	9	yes	53	1	435	0	0			0	0			1				0	
6.6.1	win	2023-06-13	16:14:26	16:23:02	513629	60ea8e0a21b4d8ed9eddcc82	4	1	main_slash	11	advance_on_keypress_SLASH	118	stimuli_distractor_trianglediamonds.svg	stimuli_target_rectangletriangles.svg	9	yes	57	0	92	0	0			0	0			1				0	
6.6.1	win	2023-06-13	16:14:26	16:23:05	516333	60ea8e0a21b4d8ed9eddcc82	4	1	main_slash	11	main_slash	119	stimuli_distractor_diamondtriangles.svg	stimuli_distractor_diamondtriangles.svg	39	no	0	1	2000	0	0			0	0			1				0	
6.6.1	win	2023-06-13	16:14:26	16:23:05	516333	60ea8e0a21b4d8ed9eddcc82	4	1	main_slash	11	advance_on_keypress_SLASH	120	stimuli_distractor_diamondtriangles.svg	stimuli_distractor_diamondtriangles.svg	39	no	57	0	580	0	0			0	0			1				0	
6.6.1	win	2023-06-13	16:14:26	16:23:06	517891	60ea8e0a21b4d8ed9eddcc82	4	1	main_slash	11	main_slash	121	stimuli_distractor_diamondtriangles.svg	stimuli_target_diamondrectangles.svg	31	yes	53	1	365	0	0			0	0			1				0	
6.6.1	win	2023-06-13	16:14:26	16:23:06	517891	60ea8e0a21b4d8ed9eddcc82	4	1	main_slash	11	advance_on_keypress_SLASH	122	stimuli_distractor_diamondtriangles.svg	stimuli_target_diamondrectangles.svg	31	yes	57	0	139	0	0			0	0			1				0	
6.6.1	win	2023-06-13	16:14:26	16:23:09	520641	60ea8e0a21b4d8ed9eddcc82	4	1	main_slash	11	main_slash	123	stimuli_distractor_trianglediamonds.svg	stimuli_distractor_diamondtriangles.svg	36	no	0	1	2000	0	0			0	0			1				0	
6.6.1	win	2023-06-13	16:14:26	16:23:09	520641	60ea8e0a21b4d8ed9eddcc82	4	1	main_slash	11	advance_on_keypress_SLASH	124	stimuli_distractor_trianglediamonds.svg	stimuli_distractor_diamondtriangles.svg	36	no	57	0	261	0	0			0	0			1				0	
6.6.1	win	2023-06-13	16:14:26	16:23:10	521933	60ea8e0a21b4d8ed9eddcc82	4	1	main_slash	11	main_slash	125	stimuli_target_squarediamonds.svg	stimuli_distractor_diamondtriangles.svg	8	yes	53	1	421	0	0			0	0			1				0	
6.6.1	win	2023-06-13	16:14:26	16:23:10	521933	60ea8e0a21b4d8ed9eddcc82	4	1	main_slash	11	advance_on_keypress_SLASH	126	stimuli_target_squarediamonds.svg	stimuli_distractor_diamondtriangles.svg	8	yes	57	0	84	0	0			0	0			1				0	
6.6.1	win	2023-06-13	16:14:26	16:23:11	523088	60ea8e0a21b4d8ed9eddcc82	4	1	main_slash	11	main_slash	127	stimuli_distractor_diamondtriangles.svg	stimuli_target_rectangletriangles.svg	13	yes	53	1	459	0	0			0	0			1				0	
6.6.1	win	2023-06-13	16:14:26	16:23:11	523088	60ea8e0a21b4d8ed9eddcc82	4	1	main_slash	11	advance_on_keypress_SLASH	128	stimuli_distractor_diamondtriangles.svg	stimuli_target_rectangletriangles.svg	13	yes	57	0	91	0	0			0	0			1				0	
6.6.1	win	2023-06-13	16:14:26	16:23:13	524395	60ea8e0a21b4d8ed9eddcc82	4	1	main_slash	11	main_slash	129	stimuli_target_trianglesquares.svg	stimuli_distractor_diamondtriangles.svg	22	yes	53	1	604	0	0			0	0			1				0	
6.6.1	win	2023-06-13	16:14:26	16:23:13	524395	60ea8e0a21b4d8ed9eddcc82	4	1	main_slash	11	advance_on_keypress_SLASH	130	stimuli_target_trianglesquares.svg	stimuli_distractor_diamondtriangles.svg	22	yes	57	0	128	0	0			0	0			1				0	
6.6.1	win	2023-06-13	16:14:26	16:23:15	527131	60ea8e0a21b4d8ed9eddcc82	4	1	main_slash	11	main_slash	131	stimuli_distractor_trianglediamonds.svg	stimuli_distractor_diamondtriangles.svg	35	no	0	1	2000	0	0			0	0			1				0	
6.6.1	win	2023-06-13	16:14:26	16:23:15	527131	60ea8e0a21b4d8ed9eddcc82	4	1	main_slash	11	advance_on_keypress_SLASH	132	stimuli_distractor_trianglediamonds.svg	stimuli_distractor_diamondtriangles.svg	35	no	57	0	676	0	0			0	0			1				0	
6.6.1	win	2023-06-13	16:14:26	16:23:19	530422	60ea8e0a21b4d8ed9eddcc82	4	1	main_slash	11	main_slash	133	stimuli_distractor_diamondtriangles.svg	stimuli_distractor_trianglediamonds.svg	37	no	0	1	2000	0	0			0	0			1				0	
6.6.1	win	2023-06-13	16:14:26	16:23:19	530422	60ea8e0a21b4d8ed9eddcc82	4	1	main_slash	11	advance_on_keypress_SLASH	134	stimuli_distractor_diamondtriangles.svg	stimuli_distractor_trianglediamonds.svg	37	no	57	0	259	0	0			0	0			1				0	
6.6.1	win	2023-06-13	16:14:26	16:23:20	531686	60ea8e0a21b4d8ed9eddcc82	4	1	main_slash	11	main_slash	135	stimuli_distractor_trianglediamonds.svg	stimuli_target_squarediamonds.svg	12	yes	53	1	395	0	0			0	0			1				0	
6.6.1	win	2023-06-13	16:14:26	16:23:20	531686	60ea8e0a21b4d8ed9eddcc82	4	1	main_slash	11	advance_on_keypress_SLASH	136	stimuli_distractor_trianglediamonds.svg	stimuli_target_squarediamonds.svg	12	yes	57	0	144	0	0			0	0			1				0	
6.6.1	win	2023-06-13	16:14:26	16:23:21	532867	60ea8e0a21b4d8ed9eddcc82	4	1	main_slash	11	main_slash	137	stimuli_distractor_diamondtriangles.svg	stimuli_target_squaretriangles.svg	15	yes	53	1	424	0	0			0	0			1				0	
6.6.1	win	2023-06-13	16:14:26	16:23:21	532867	60ea8e0a21b4d8ed9eddcc82	4	1	main_slash	11	advance_on_keypress_SLASH	138	stimuli_distractor_diamondtriangles.svg	stimuli_target_squaretriangles.svg	15	yes	57	0	112	0	0			0	0			1				0	
6.6.1	win	2023-06-13	16:14:26	16:23:24	535591	60ea8e0a21b4d8ed9eddcc82	4	1	main_slash	11	main_slash	139	stimuli_distractor_diamondtriangles.svg	stimuli_distractor_diamondtriangles.svg	40	no	0	1	2000	0	0			0	0			1				0	
6.6.1	win	2023-06-13	16:14:26	16:23:24	535591	60ea8e0a21b4d8ed9eddcc82	4	1	main_slash	11	advance_on_keypress_SLASH	140	stimuli_distractor_diamondtriangles.svg	stimuli_distractor_diamondtriangles.svg	40	no	57	0	477	0	0			0	0			1				0	
6.6.1	win	2023-06-13	16:14:26	16:23:26	537266	60ea8e0a21b4d8ed9eddcc82	4	1	main_slash	11	main_slash	141	stimuli_distractor_diamondtriangles.svg	stimuli_target_trianglerectangles.svg	29	yes	53	1	586	0	0			0	0			1				0	
6.6.1	win	2023-06-13	16:14:26	16:23:26	537266	60ea8e0a21b4d8ed9eddcc82	4	1	main_slash	11	advance_on_keypress_SLASH	142	stimuli_distractor_diamondtriangles.svg	stimuli_target_trianglerectangles.svg	29	yes	57	0	85	0	0			0	0			1				0	
6.6.1	win	2023-06-13	16:14:26	16:23:27	538360	60ea8e0a21b4d8ed9eddcc82	4	1	main_slash	11	main_slash	143	stimuli_target_rectanglediamonds.svg	stimuli_distractor_diamondtriangles.svg	6	yes	53	1	395	0	0			0	0			1				0	
6.6.1	win	2023-06-13	16:14:26	16:23:27	538360	60ea8e0a21b4d8ed9eddcc82	4	1	main_slash	11	advance_on_keypress_SLASH	144	stimuli_target_rectanglediamonds.svg	stimuli_distractor_diamondtriangles.svg	6	yes	57	0	104	0	0			0	0			1				0	
6.6.1	win	2023-06-13	16:14:26	16:23:28	539460	60ea8e0a21b4d8ed9eddcc82	4	1	main_slash	11	main_slash	145	stimuli_distractor_trianglediamonds.svg	stimuli_target_diamondsquares.svg	28	yes	53	1	384	0	0			0	0			1				0	
6.6.1	win	2023-06-13	16:14:26	16:23:28	539460	60ea8e0a21b4d8ed9eddcc82	4	1	main_slash	11	advance_on_keypress_SLASH	146	stimuli_distractor_trianglediamonds.svg	stimuli_target_diamondsquares.svg	28	yes	57	0	80	0	0			0	0			1				0	
6.6.1	win	2023-06-13	16:14:26	16:23:29	540536	60ea8e0a21b4d8ed9eddcc82	4	1	main_slash	11	main_slash	147	stimuli_target_trianglesquares.svg	stimuli_distractor_trianglediamonds.svg	18	yes	53	1	383	0	0			0	0			1				0	
6.6.1	win	2023-06-13	16:14:26	16:23:29	540536	60ea8e0a21b4d8ed9eddcc82	4	1	main_slash	11	advance_on_keypress_SLASH	148	stimuli_target_trianglesquares.svg	stimuli_distractor_trianglediamonds.svg	18	yes	57	0	84	0	0			0	0			1				0	
6.6.1	win	2023-06-13	16:14:26	16:23:30	541596	60ea8e0a21b4d8ed9eddcc82	4	1	main_slash	11	main_slash	149	stimuli_target_rectangletriangles.svg	stimuli_distractor_diamondtriangles.svg	5	yes	53	1	367	0	0			0	0			1				0	
6.6.1	win	2023-06-13	16:14:26	16:23:30	541596	60ea8e0a21b4d8ed9eddcc82	4	1	main_slash	11	advance_on_keypress_SLASH	150	stimuli_target_rectangletriangles.svg	stimuli_distractor_diamondtriangles.svg	5	yes	57	0	97	0	0			0	0			1				0	
6.6.1	win	2023-06-13	16:14:26	16:23:31	542618	60ea8e0a21b4d8ed9eddcc82	4	1	main_slash	11	main_slash	151	stimuli_distractor_trianglediamonds.svg	stimuli_target_squaretriangles.svg	11	yes	53	1	316	0	0			0	0			1				0	
6.6.1	win	2023-06-13	16:14:26	16:23:31	542618	60ea8e0a21b4d8ed9eddcc82	4	1	main_slash	11	advance_on_keypress_SLASH	152	stimuli_distractor_trianglediamonds.svg	stimuli_target_squaretriangles.svg	11	yes	57	0	100	0	0			0	0			1				0	
6.6.1	win	2023-06-13	16:14:26	16:23:32	543637	60ea8e0a21b4d8ed9eddcc82	4	1	main_slash	11	main_slash	153	stimuli_target_diamondrectangles.svg	stimuli_distractor_trianglediamonds.svg	19	yes	53	1	308	0	0			0	0			1				0	
6.6.1	win	2023-06-13	16:14:26	16:23:32	543637	60ea8e0a21b4d8ed9eddcc82	4	1	main_slash	11	advance_on_keypress_SLASH	154	stimuli_target_diamondrectangles.svg	stimuli_distractor_trianglediamonds.svg	19	yes	57	0	74	0	0			0	0			1				0	
6.6.1	win	2023-06-13	16:14:26	16:23:33	544587	60ea8e0a21b4d8ed9eddcc82	4	1	main_slash	11	main_slash	155	stimuli_distractor_trianglediamonds.svg	stimuli_target_trianglesquares.svg	26	yes	53	1	261	0	0			0	0			1				0	
6.6.1	win	2023-06-13	16:14:26	16:23:33	544587	60ea8e0a21b4d8ed9eddcc82	4	1	main_slash	11	advance_on_keypress_SLASH	156	stimuli_distractor_trianglediamonds.svg	stimuli_target_trianglesquares.svg	26	yes	57	0	89	0	0			0	0			1				0	
6.6.1	win	2023-06-13	16:14:26	16:23:34	545570	60ea8e0a21b4d8ed9eddcc82	4	1	main_slash	11	main_slash	157	stimuli_distractor_diamondtriangles.svg	stimuli_target_diamondsquares.svg	32	yes	53	1	284	0	0			0	0			1				0	
6.6.1	win	2023-06-13	16:14:26	16:23:34	545570	60ea8e0a21b4d8ed9eddcc82	4	1	main_slash	11	advance_on_keypress_SLASH	158	stimuli_distractor_diamondtriangles.svg	stimuli_target_diamondsquares.svg	32	yes	57	0	93	0	0			0	0			1				0	
6.6.1	win	2023-06-13	16:14:26	16:23:35	546720	60ea8e0a21b4d8ed9eddcc82	4	1	main_slash	11	main_slash	159	stimuli_target_diamondsquares.svg	stimuli_distractor_diamondtriangles.svg	24	yes	53	1	445	0	0			0	0			1				0	
6.6.1	win	2023-06-13	16:14:26	16:23:35	546720	60ea8e0a21b4d8ed9eddcc82	4	1	main_slash	11	advance_on_keypress_SLASH	160	stimuli_target_diamondsquares.svg	stimuli_distractor_diamondtriangles.svg	24	yes	57	0	323	0	0			0	0			1				0	
6.6.1	win	2023-06-13	16:14:26	16:23:35	546720	60ea8e0a21b4d8ed9eddcc82	4	1	headphonecheck_calibration	14	headphonecheck_calibrationIntro	1	stimuli_target_diamondsquares.svg	stimuli_distractor_diamondtriangles.svg	24	yes	calibrationButton	0	4040	0	0			0	0			1				0	
6.6.1	win	2023-06-13	16:14:26	16:23:35	546720	60ea8e0a21b4d8ed9eddcc82	4	1	headphonecheck_testphase	15	test_collectResponse	3	stimuli_target_diamondsquares.svg	stimuli_distractor_diamondtriangles.svg	24	yes	third	1	304	1	2	antiphase_hc_ios.wav	3	0	0			1				0	
6.6.1	win	2023-06-13	16:14:26	16:23:35	546720	60ea8e0a21b4d8ed9eddcc82	4	1	headphonecheck_testphase	15	test_collectResponse	6	stimuli_target_diamondsquares.svg	stimuli_distractor_diamondtriangles.svg	24	yes	second	1	117	2	1	antiphase_hc_iso.wav	2	0	0			1				0	
6.6.1	win	2023-06-13	16:14:26	16:23:35	546720	60ea8e0a21b4d8ed9eddcc82	4	1	headphonecheck_testphase	15	test_collectResponse	9	stimuli_target_diamondsquares.svg	stimuli_distractor_diamondtriangles.svg	24	yes	second	1	99	3	5	antiphase_hc_osi.wav	2	0	0			1				0	
6.6.1	win	2023-06-13	16:14:26	16:23:35	546720	60ea8e0a21b4d8ed9eddcc82	4	1	headphonecheck_testphase	15	test_collectResponse	12	stimuli_target_diamondsquares.svg	stimuli_distractor_diamondtriangles.svg	24	yes	first	1	97	4	4	antiphase_hc_sio.wav	1	0	0			1				0	
6.6.1	win	2023-06-13	16:14:26	16:23:35	546720	60ea8e0a21b4d8ed9eddcc82	4	1	headphonecheck_testphase	15	test_collectResponse	15	stimuli_target_diamondsquares.svg	stimuli_distractor_diamondtriangles.svg	24	yes	first	1	80	5	3	antiphase_hc_soi.wav	1	0	0			1				0	
6.6.1	win	2023-06-13	16:14:26	16:23:35	546720	60ea8e0a21b4d8ed9eddcc82	4	1	headphonecheck_testphase	15	test_collectResponse	18	stimuli_target_diamondsquares.svg	stimuli_distractor_diamondtriangles.svg	24	yes	third	1	171	6	6	antiphase_hc_ois.wav	3	0	0			1				0	
6.6.1	win	2023-06-13	16:14:26	16:23:35	546720	60ea8e0a21b4d8ed9eddcc82	4	1	stereocheck_calibration	17	stereocheck_calibrationIntro	1	stimuli_target_diamondsquares.svg	stimuli_distractor_diamondtriangles.svg	24	yes	stereocheck_calibrationButton	0	2925	6	6	antiphase_hc_ois.wav	3	0	0			1				0	
6.6.1	win	2023-06-13	16:14:26	16:23:35	546720	60ea8e0a21b4d8ed9eddcc82	4	1	stereocheck_testphase	18	stereocheck_test_collectResponse	3	stimuli_target_diamondsquares.svg	stimuli_distractor_diamondtriangles.svg	24	yes	stereocheck_left	1	3449	6	6	antiphase_hc_ois.wav	3	1	1	noise_calib_stim_LEFT.wav	1	1				0	
6.6.1	win	2023-06-13	16:14:26	16:23:35	546720	60ea8e0a21b4d8ed9eddcc82	4	1	stereocheck_testphase	18	stereocheck_test_collectResponse	6	stimuli_target_diamondsquares.svg	stimuli_distractor_diamondtriangles.svg	24	yes	stereocheck_right	1	611	6	6	antiphase_hc_ois.wav	3	2	5	noise_calib_stim_RIGHT.wav	2	1				0	
6.6.1	win	2023-06-13	16:14:26	16:23:35	546720	60ea8e0a21b4d8ed9eddcc82	4	1	stereocheck_testphase	18	stereocheck_test_collectResponse	9	stimuli_target_diamondsquares.svg	stimuli_distractor_diamondtriangles.svg	24	yes	stereocheck_right	1	299	6	6	antiphase_hc_ois.wav	3	3	4	noise_calib_stim_RIGHT.wav	2	1				0	
6.6.1	win	2023-06-13	16:14:26	16:23:35	546720	60ea8e0a21b4d8ed9eddcc82	4	1	stereocheck_testphase	18	stereocheck_test_collectResponse	12	stimuli_target_diamondsquares.svg	stimuli_distractor_diamondtriangles.svg	24	yes	stereocheck_left	1	1170	6	6	antiphase_hc_ois.wav	3	4	2	noise_calib_stim_LEFT.wav	1	1				0	
6.6.1	win	2023-06-13	16:14:26	16:23:35	546720	60ea8e0a21b4d8ed9eddcc82	4	1	stereocheck_testphase	18	stereocheck_test_collectResponse	15	stimuli_target_diamondsquares.svg	stimuli_distractor_diamondtriangles.svg	24	yes	stereocheck_right	1	232	6	6	antiphase_hc_ois.wav	3	5	6	noise_calib_stim_RIGHT.wav	2	1				0	
6.6.1	win	2023-06-13	16:14:26	16:23:35	546720	60ea8e0a21b4d8ed9eddcc82	4	1	stereocheck_testphase	18	stereocheck_test_collectResponse	18	stimuli_target_diamondsquares.svg	stimuli_distractor_diamondtriangles.svg	24	yes	stereocheck_left	1	112	6	6	antiphase_hc_ois.wav	3	6	3	noise_calib_stim_LEFT.wav	1	1				0	
6.6.1	win	2023-06-13	16:14:26	16:23:35	546720	60ea8e0a21b4d8ed9eddcc82	4	1	DL_practice	21	DL_practice	2	stimuli_target_diamondsquares.svg	stimuli_distractor_diamondtriangles.svg	24	yes	ga	1	1659	6	6	antiphase_hc_ois.wav	3	6	3	noise_calib_stim_LEFT.wav	1	18	blb_dichoticlistening_ga-ta.mp3	ga	ta	1	left
6.6.1	win	2023-06-13	16:14:26	16:23:35	546720	60ea8e0a21b4d8ed9eddcc82	4	1	DL_practice	21	DL_practice	3	stimuli_target_diamondsquares.svg	stimuli_distractor_diamondtriangles.svg	24	yes	da	1	1416	6	6	antiphase_hc_ois.wav	3	6	3	noise_calib_stim_LEFT.wav	1	7	blb_dichoticlistening_da-ba.mp3	da	ba	1	left
6.6.1	win	2023-06-13	16:14:26	16:23:35	546720	60ea8e0a21b4d8ed9eddcc82	4	1	DL_practice	21	DL_practice	4	stimuli_target_diamondsquares.svg	stimuli_distractor_diamondtriangles.svg	24	yes	ba	1	1381	6	6	antiphase_hc_ois.wav	3	6	3	noise_calib_stim_LEFT.wav	1	1	blb_dichoticlistening_ba-ba.mp3	ba	ba	0	left
6.6.1	win	2023-06-13	16:14:26	16:23:35	546720	60ea8e0a21b4d8ed9eddcc82	4	1	DL_practice	21	DL_practice	5	stimuli_target_diamondsquares.svg	stimuli_distractor_diamondtriangles.svg	24	yes	ga	1	1231	6	6	antiphase_hc_ois.wav	3	6	3	noise_calib_stim_LEFT.wav	1	15	blb_dichoticlistening_ga-ga.mp3	ga	ga	0	left
6.6.1	win	2023-06-13	16:14:26	16:23:35	546720	60ea8e0a21b4d8ed9eddcc82	4	1	DL_practice	21	DL_practice	6	stimuli_target_diamondsquares.svg	stimuli_distractor_diamondtriangles.svg	24	yes	da	1	860	6	6	antiphase_hc_ois.wav	3	6	3	noise_calib_stim_LEFT.wav	1	8	blb_dichoticlistening_da-da.mp3	da	da	0	left
6.6.1	win	2023-06-13	16:14:26	16:23:35	546720	60ea8e0a21b4d8ed9eddcc82	4	1	DL_practice	21	DL_practice	7	stimuli_target_diamondsquares.svg	stimuli_distractor_diamondtriangles.svg	24	yes	ka	1	1233	6	6	antiphase_hc_ois.wav	3	6	3	noise_calib_stim_LEFT.wav	1	22	blb_dichoticlistening_ka-ka.mp3	ka	ka	0	left
6.6.1	win	2023-06-13	16:14:26	16:23:35	546720	60ea8e0a21b4d8ed9eddcc82	4	1	DL_practice	21	DL_practice	8	stimuli_target_diamondsquares.svg	stimuli_distractor_diamondtriangles.svg	24	yes	ta	1	2068	6	6	antiphase_hc_ois.wav	3	6	3	noise_calib_stim_LEFT.wav	1	36	blb_dichoticlistening_ta-ta.mp3	ta	ta	0	left
6.6.1	win	2023-06-13	16:14:26	16:23:35	546720	60ea8e0a21b4d8ed9eddcc82	4	1	DL_practice	21	DL_practice	9	stimuli_target_diamondsquares.svg	stimuli_distractor_diamondtriangles.svg	24	yes	ka	1	1658	6	6	antiphase_hc_ois.wav	3	6	3	noise_calib_stim_LEFT.wav	1	23	blb_dichoticlistening_ka-pa.mp3	ka	pa	1	left
6.6.1	win	2023-06-13	16:14:26	16:23:35	546720	60ea8e0a21b4d8ed9eddcc82	4	1	DL_practice	21	DL_practice	10	stimuli_target_diamondsquares.svg	stimuli_distractor_diamondtriangles.svg	24	yes	pa	1	1088	6	6	antiphase_hc_ois.wav	3	6	3	noise_calib_stim_LEFT.wav	1	29	blb_dichoticlistening_pa-pa.mp3	pa	pa	0	left
6.6.1	win	2023-06-13	16:14:26	16:23:35	546720	60ea8e0a21b4d8ed9eddcc82	4	1	DL_test	23	DL_test	1	stimuli_target_diamondsquares.svg	stimuli_distractor_diamondtriangles.svg	24	yes	ta	1	2611	6	6	antiphase_hc_ois.wav	3	6	3	noise_calib_stim_LEFT.wav	1	35	blb_dichoticlistening_ta-pa.mp3	ta	pa	1	left
6.6.1	win	2023-06-13	16:14:26	16:23:35	546720	60ea8e0a21b4d8ed9eddcc82	4	1	DL_test	23	DL_test	2	stimuli_target_diamondsquares.svg	stimuli_distractor_diamondtriangles.svg	24	yes	ka	1	1125	6	6	antiphase_hc_ois.wav	3	6	3	noise_calib_stim_LEFT.wav	1	34	blb_dichoticlistening_ta-ka.mp3	ta	ka	1	right
6.6.1	win	2023-06-13	16:14:26	16:23:35	546720	60ea8e0a21b4d8ed9eddcc82	4	1	DL_test	23	DL_test	3	stimuli_target_diamondsquares.svg	stimuli_distractor_diamondtriangles.svg	24	yes	pa	1	2561	6	6	antiphase_hc_ois.wav	3	6	3	noise_calib_stim_LEFT.wav	1	26	blb_dichoticlistening_pa-da.mp3	pa	da	1	left
6.6.1	win	2023-06-13	16:14:26	16:23:35	546720	60ea8e0a21b4d8ed9eddcc82	4	1	DL_test	23	DL_test	4	stimuli_target_diamondsquares.svg	stimuli_distractor_diamondtriangles.svg	24	yes	ga	1	1344	6	6	antiphase_hc_ois.wav	3	6	3	noise_calib_stim_LEFT.wav	1	33	blb_dichoticlistening_ta-ga.mp3	ta	ga	1	right
6.6.1	win	2023-06-13	16:14:26	16:23:35	546720	60ea8e0a21b4d8ed9eddcc82	4	1	DL_test	23	DL_test	5	stimuli_target_diamondsquares.svg	stimuli_distractor_diamondtriangles.svg	24	yes	ga	0	970	6	6	antiphase_hc_ois.wav	3	6	3	noise_calib_stim_LEFT.wav	1	32	blb_dichoticlistening_ta-da.mp3	ta	da	1	other
6.6.1	win	2023-06-13	16:14:26	16:23:35	546720	60ea8e0a21b4d8ed9eddcc82	4	1	DL_test	23	DL_test	6	stimuli_target_diamondsquares.svg	stimuli_distractor_diamondtriangles.svg	24	yes	ka	1	869	6	6	antiphase_hc_ois.wav	3	6	3	noise_calib_stim_LEFT.wav	1	28	blb_dichoticlistening_pa-ka.mp3	pa	ka	1	right
6.6.1	win	2023-06-13	16:14:26	16:23:35	546720	60ea8e0a21b4d8ed9eddcc82	4	1	DL_test	23	DL_test	7	stimuli_target_diamondsquares.svg	stimuli_distractor_diamondtriangles.svg	24	yes	pa	0	2800	6	6	antiphase_hc_ois.wav	3	6	3	noise_calib_stim_LEFT.wav	1	6	blb_dichoticlistening_ba-ta.mp3	ba	ta	1	other
6.6.1	win	2023-06-13	16:14:26	16:23:35	546720	60ea8e0a21b4d8ed9eddcc82	4	1	DL_test	23	DL_test	8	stimuli_target_diamondsquares.svg	stimuli_distractor_diamondtriangles.svg	24	yes	ta	1	879	6	6	antiphase_hc_ois.wav	3	6	3	noise_calib_stim_LEFT.wav	1	30	blb_dichoticlistening_pa-ta.mp3	pa	ta	1	right
6.6.1	win	2023-06-13	16:14:26	16:23:35	546720	60ea8e0a21b4d8ed9eddcc82	4	1	DL_test	23	DL_test	9	stimuli_target_diamondsquares.svg	stimuli_distractor_diamondtriangles.svg	24	yes	ka	1	1182	6	6	antiphase_hc_ois.wav	3	6	3	noise_calib_stim_LEFT.wav	1	4	blb_dichoticlistening_ba-ka.mp3	ba	ka	1	right
6.6.1	win	2023-06-13	16:14:26	16:23:35	546720	60ea8e0a21b4d8ed9eddcc82	4	1	DL_test	23	DL_test	10	stimuli_target_diamondsquares.svg	stimuli_distractor_diamondtriangles.svg	24	yes	da	1	1153	6	6	antiphase_hc_ois.wav	3	6	3	noise_calib_stim_LEFT.wav	1	9	blb_dichoticlistening_da-ga.mp3	da	ga	1	left
6.6.1	win	2023-06-13	16:14:26	16:23:35	546720	60ea8e0a21b4d8ed9eddcc82	4	1	DL_test	23	DL_test	11	stimuli_target_diamondsquares.svg	stimuli_distractor_diamondtriangles.svg	24	yes	ba	1	2261	6	6	antiphase_hc_ois.wav	3	6	3	noise_calib_stim_LEFT.wav	1	31	blb_dichoticlistening_ta-ba.mp3	ta	ba	1	right
6.6.1	win	2023-06-13	16:14:26	16:23:35	546720	60ea8e0a21b4d8ed9eddcc82	4	1	DL_test	23	DL_test	12	stimuli_target_diamondsquares.svg	stimuli_distractor_diamondtriangles.svg	24	yes	pa	1	909	6	6	antiphase_hc_ois.wav	3	6	3	noise_calib_stim_LEFT.wav	1	5	blb_dichoticlistening_ba-pa.mp3	ba	pa	1	right
6.6.1	win	2023-06-13	16:14:26	16:23:35	546720	60ea8e0a21b4d8ed9eddcc82	4	1	DL_test	23	DL_test	13	stimuli_target_diamondsquares.svg	stimuli_distractor_diamondtriangles.svg	24	yes	da	1	1320	6	6	antiphase_hc_ois.wav	3	6	3	noise_calib_stim_LEFT.wav	1	2	blb_dichoticlistening_ba-da.mp3	ba	da	1	right
6.6.1	win	2023-06-13	16:14:26	16:23:35	546720	60ea8e0a21b4d8ed9eddcc82	4	1	DL_test	23	DL_test	14	stimuli_target_diamondsquares.svg	stimuli_distractor_diamondtriangles.svg	24	yes	ka	1	953	6	6	antiphase_hc_ois.wav	3	6	3	noise_calib_stim_LEFT.wav	1	19	blb_dichoticlistening_ka-ba.mp3	ka	ba	1	left
6.6.1	win	2023-06-13	16:14:26	16:23:35	546720	60ea8e0a21b4d8ed9eddcc82	4	1	DL_test	23	DL_test	15	stimuli_target_diamondsquares.svg	stimuli_distractor_diamondtriangles.svg	24	yes	ta	1	873	6	6	antiphase_hc_ois.wav	3	6	3	noise_calib_stim_LEFT.wav	1	36	blb_dichoticlistening_ta-ta.mp3	ta	ta	0	left
6.6.1	win	2023-06-13	16:14:26	16:23:35	546720	60ea8e0a21b4d8ed9eddcc82	4	1	DL_test	23	DL_test	16	stimuli_target_diamondsquares.svg	stimuli_distractor_diamondtriangles.svg	24	yes	da	1	1095	6	6	antiphase_hc_ois.wav	3	6	3	noise_calib_stim_LEFT.wav	1	12	blb_dichoticlistening_da-ta.mp3	da	ta	1	left
6.6.1	win	2023-06-13	16:14:26	16:23:35	546720	60ea8e0a21b4d8ed9eddcc82	4	1	DL_test	23	DL_test	17	stimuli_target_diamondsquares.svg	stimuli_distractor_diamondtriangles.svg	24	yes	pa	1	943	6	6	antiphase_hc_ois.wav	3	6	3	noise_calib_stim_LEFT.wav	1	29	blb_dichoticlistening_pa-pa.mp3	pa	pa	0	left
6.6.1	win	2023-06-13	16:14:26	16:23:35	546720	60ea8e0a21b4d8ed9eddcc82	4	1	DL_test	23	DL_test	18	stimuli_target_diamondsquares.svg	stimuli_distractor_diamondtriangles.svg	24	yes	ga	1	1107	6	6	antiphase_hc_ois.wav	3	6	3	noise_calib_stim_LEFT.wav	1	3	blb_dichoticlistening_ba-ga.mp3	ba	ga	1	right
6.6.1	win	2023-06-13	16:14:26	16:23:35	546720	60ea8e0a21b4d8ed9eddcc82	4	1	DL_test	23	DL_test	19	stimuli_target_diamondsquares.svg	stimuli_distractor_diamondtriangles.svg	24	yes	pa	0	2065	6	6	antiphase_hc_ois.wav	3	6	3	noise_calib_stim_LEFT.wav	1	10	blb_dichoticlistening_da-ka.mp3	da	ka	1	other
6.6.1	win	2023-06-13	16:14:26	16:23:35	546720	60ea8e0a21b4d8ed9eddcc82	4	1	DL_test	23	DL_test	20	stimuli_target_diamondsquares.svg	stimuli_distractor_diamondtriangles.svg	24	yes	ka	1	895	6	6	antiphase_hc_ois.wav	3	6	3	noise_calib_stim_LEFT.wav	1	16	blb_dichoticlistening_ga-ka.mp3	ga	ka	1	right
6.6.1	win	2023-06-13	16:14:26	16:23:35	546720	60ea8e0a21b4d8ed9eddcc82	4	1	DL_test	23	DL_test	21	stimuli_target_diamondsquares.svg	stimuli_distractor_diamondtriangles.svg	24	yes	ga	1	1586	6	6	antiphase_hc_ois.wav	3	6	3	noise_calib_stim_LEFT.wav	1	17	blb_dichoticlistening_ga-pa.mp3	ga	pa	1	left
6.6.1	win	2023-06-13	16:14:26	16:23:35	546720	60ea8e0a21b4d8ed9eddcc82	4	1	DL_test	23	DL_test	22	stimuli_target_diamondsquares.svg	stimuli_distractor_diamondtriangles.svg	24	yes	ka	1	784	6	6	antiphase_hc_ois.wav	3	6	3	noise_calib_stim_LEFT.wav	1	23	blb_dichoticlistening_ka-pa.mp3	ka	pa	1	left
6.6.1	win	2023-06-13	16:14:26	16:23:35	546720	60ea8e0a21b4d8ed9eddcc82	4	1	DL_test	23	DL_test	23	stimuli_target_diamondsquares.svg	stimuli_distractor_diamondtriangles.svg	24	yes	ga	0	1062	6	6	antiphase_hc_ois.wav	3	6	3	noise_calib_stim_LEFT.wav	1	20	blb_dichoticlistening_ka-da.mp3	ka	da	1	other
6.6.1	win	2023-06-13	16:14:26	16:23:35	546720	60ea8e0a21b4d8ed9eddcc82	4	1	DL_test	23	DL_test	24	stimuli_target_diamondsquares.svg	stimuli_distractor_diamondtriangles.svg	24	yes	ga	1	2471	6	6	antiphase_hc_ois.wav	3	6	3	noise_calib_stim_LEFT.wav	1	18	blb_dichoticlistening_ga-ta.mp3	ga	ta	1	left
6.6.1	win	2023-06-13	16:14:26	16:23:35	546720	60ea8e0a21b4d8ed9eddcc82	4	1	DL_test	23	DL_test	25	stimuli_target_diamondsquares.svg	stimuli_distractor_diamondtriangles.svg	24	yes	ka	1	1001	6	6	antiphase_hc_ois.wav	3	6	3	noise_calib_stim_LEFT.wav	1	24	blb_dichoticlistening_ka-ta.mp3	ka	ta	1	left
6.6.1	win	2023-06-13	16:14:26	16:23:35	546720	60ea8e0a21b4d8ed9eddcc82	4	1	DL_test	23	DL_test	26	stimuli_target_diamondsquares.svg	stimuli_distractor_diamondtriangles.svg	24	yes	da	1	793	6	6	antiphase_hc_ois.wav	3	6	3	noise_calib_stim_LEFT.wav	1	8	blb_dichoticlistening_da-da.mp3	da	da	0	left
6.6.1	win	2023-06-13	16:14:26	16:23:35	546720	60ea8e0a21b4d8ed9eddcc82	4	1	DL_test	23	DL_test	27	stimuli_target_diamondsquares.svg	stimuli_distractor_diamondtriangles.svg	24	yes	ka	1	804	6	6	antiphase_hc_ois.wav	3	6	3	noise_calib_stim_LEFT.wav	1	22	blb_dichoticlistening_ka-ka.mp3	ka	ka	0	left
