build	computer.platform	date	time	timestamp	time_elapsed_ms	subject	group	session	blockcode	blocknum	trialcode	trialnum	stimulus_left	stimulus_right	stim_index	target_present	response	correct	latency	headphonecheck_countTestTrials	headphonecheck_index	headphonecheck_testSound	headphonecheck_correctResponse	stereocheck_countTestTrials	stereocheck_index	stereocheck_testSound	stereocheck_correctResponse	DL_index	DL_soundfile	DL_leftSound	DL_rightSound	DL_dualSound	DL_choice
6.6.1	mac	2023-07-12	20:05:26	0	0	611409d13bdb227076c9426b	1	1	headphonecheck_calibration	4	headphonecheck_calibrationIntro	1			0		calibrationButton	0	4199	0	0			0	0			1				0	
6.6.1	mac	2023-07-12	20:05:26	0	0	611409d13bdb227076c9426b	1	1	headphonecheck_testphase	5	test_collectResponse	3			0		third	1	4230	1	6	antiphase_hc_ois.wav	3	0	0			1				0	
6.6.1	mac	2023-07-12	20:05:26	0	0	611409d13bdb227076c9426b	1	1	headphonecheck_testphase	5	test_collectResponse	6			0		first	1	495	2	3	antiphase_hc_soi.wav	1	0	0			1				0	
6.6.1	mac	2023-07-12	20:05:26	0	0	611409d13bdb227076c9426b	1	1	headphonecheck_testphase	5	test_collectResponse	9			0		second	0	421	3	2	antiphase_hc_ios.wav	3	0	0			1				0	
6.6.1	mac	2023-07-12	20:05:26	0	0	611409d13bdb227076c9426b	1	1	headphonecheck_testphase	5	test_collectResponse	12			0		third	0	312	4	1	antiphase_hc_iso.wav	2	0	0			1				0	
6.6.1	mac	2023-07-12	20:05:26	0	0	611409d13bdb227076c9426b	1	1	headphonecheck_testphase	5	test_collectResponse	15			0		first	0	370	5	5	antiphase_hc_osi.wav	2	0	0			1				0	
6.6.1	mac	2023-07-12	20:05:26	0	0	611409d13bdb227076c9426b	1	1	headphonecheck_testphase	5	test_collectResponse	18			0		third	0	719	6	4	antiphase_hc_sio.wav	1	0	0			1				0	
6.6.1	mac	2023-07-12	20:05:26	0	0	611409d13bdb227076c9426b	1	1	stereocheck_calibration	7	stereocheck_calibrationIntro	1			0		stereocheck_calibrationButton	0	4965	6	4	antiphase_hc_sio.wav	1	0	0			1				0	
6.6.1	mac	2023-07-12	20:05:26	0	0	611409d13bdb227076c9426b	1	1	stereocheck_testphase	8	stereocheck_test_collectResponse	3			0		stereocheck_right	1	204	6	4	antiphase_hc_sio.wav	1	1	4	noise_calib_stim_RIGHT.wav	2	1				0	
6.6.1	mac	2023-07-12	20:05:26	0	0	611409d13bdb227076c9426b	1	1	stereocheck_testphase	8	stereocheck_test_collectResponse	6			0		stereocheck_left	1	410	6	4	antiphase_hc_sio.wav	1	2	2	noise_calib_stim_LEFT.wav	1	1				0	
6.6.1	mac	2023-07-12	20:05:26	0	0	611409d13bdb227076c9426b	1	1	stereocheck_testphase	8	stereocheck_test_collectResponse	9			0		stereocheck_right	1	362	6	4	antiphase_hc_sio.wav	1	3	6	noise_calib_stim_RIGHT.wav	2	1				0	
6.6.1	mac	2023-07-12	20:05:26	0	0	611409d13bdb227076c9426b	1	1	stereocheck_testphase	8	stereocheck_test_collectResponse	12			0		stereocheck_left	1	316	6	4	antiphase_hc_sio.wav	1	4	3	noise_calib_stim_LEFT.wav	1	1				0	
6.6.1	mac	2023-07-12	20:05:26	0	0	611409d13bdb227076c9426b	1	1	stereocheck_testphase	8	stereocheck_test_collectResponse	15			0		stereocheck_left	1	367	6	4	antiphase_hc_sio.wav	1	5	1	noise_calib_stim_LEFT.wav	1	1				0	
6.6.1	mac	2023-07-12	20:05:26	0	0	611409d13bdb227076c9426b	1	1	stereocheck_testphase	8	stereocheck_test_collectResponse	18			0		stereocheck_right	1	341	6	4	antiphase_hc_sio.wav	1	6	5	noise_calib_stim_RIGHT.wav	2	1				0	
6.6.1	mac	2023-07-12	20:05:26	0	0	611409d13bdb227076c9426b	1	1	DL_practice	11	DL_practice	2			0		ba	1	1045	6	4	antiphase_hc_sio.wav	1	6	5	noise_calib_stim_RIGHT.wav	2	1	blb_dichoticlistening_ba-ba.mp3	ba	ba	0	left
6.6.1	mac	2023-07-12	20:05:26	0	0	611409d13bdb227076c9426b	1	1	DL_practice	11	DL_practice	3			0		da	0	1319	6	4	antiphase_hc_sio.wav	1	6	5	noise_calib_stim_RIGHT.wav	2	18	blb_dichoticlistening_ga-ta.mp3	ga	ta	1	other
6.6.1	mac	2023-07-12	20:05:26	0	0	611409d13bdb227076c9426b	1	1	DL_practice	11	DL_practice	4			0		pa	1	1486	6	4	antiphase_hc_sio.wav	1	6	5	noise_calib_stim_RIGHT.wav	2	29	blb_dichoticlistening_pa-pa.mp3	pa	pa	0	left
6.6.1	mac	2023-07-12	20:05:26	0	0	611409d13bdb227076c9426b	1	1	DL_practice	11	DL_practice	5			0		ga	1	1386	6	4	antiphase_hc_sio.wav	1	6	5	noise_calib_stim_RIGHT.wav	2	15	blb_dichoticlistening_ga-ga.mp3	ga	ga	0	left
6.6.1	mac	2023-07-12	20:05:26	0	0	611409d13bdb227076c9426b	1	1	DL_practice	11	DL_practice	6			0		ba	1	1312	6	4	antiphase_hc_sio.wav	1	6	5	noise_calib_stim_RIGHT.wav	2	7	blb_dichoticlistening_da-ba.mp3	da	ba	1	right
6.6.1	mac	2023-07-12	20:05:26	0	0	611409d13bdb227076c9426b	1	1	DL_practice	11	DL_practice	7			0		pa	1	1315	6	4	antiphase_hc_sio.wav	1	6	5	noise_calib_stim_RIGHT.wav	2	23	blb_dichoticlistening_ka-pa.mp3	ka	pa	1	right
6.6.1	mac	2023-07-12	20:05:26	0	0	611409d13bdb227076c9426b	1	1	DL_practice	11	DL_practice	8			0		ka	1	1014	6	4	antiphase_hc_sio.wav	1	6	5	noise_calib_stim_RIGHT.wav	2	22	blb_dichoticlistening_ka-ka.mp3	ka	ka	0	left
6.6.1	mac	2023-07-12	20:05:26	0	0	611409d13bdb227076c9426b	1	1	DL_practice	11	DL_practice	9			0		da	1	1125	6	4	antiphase_hc_sio.wav	1	6	5	noise_calib_stim_RIGHT.wav	2	8	blb_dichoticlistening_da-da.mp3	da	da	0	left
6.6.1	mac	2023-07-12	20:05:26	0	0	611409d13bdb227076c9426b	1	1	DL_practice	11	DL_practice	10			0		ta	1	1043	6	4	antiphase_hc_sio.wav	1	6	5	noise_calib_stim_RIGHT.wav	2	36	blb_dichoticlistening_ta-ta.mp3	ta	ta	0	left
6.6.1	mac	2023-07-12	20:05:26	0	0	611409d13bdb227076c9426b	1	1	DL_test	13	DL_test	1			0		da	1	1092	6	4	antiphase_hc_sio.wav	1	6	5	noise_calib_stim_RIGHT.wav	2	10	blb_dichoticlistening_da-ka.mp3	da	ka	1	left
6.6.1	mac	2023-07-12	20:05:26	0	0	611409d13bdb227076c9426b	1	1	DL_test	13	DL_test	2			0		da	1	852	6	4	antiphase_hc_sio.wav	1	6	5	noise_calib_stim_RIGHT.wav	2	11	blb_dichoticlistening_da-pa.mp3	da	pa	1	left
6.6.1	mac	2023-07-12	20:05:26	0	0	611409d13bdb227076c9426b	1	1	DL_test	13	DL_test	3			0		da	1	947	6	4	antiphase_hc_sio.wav	1	6	5	noise_calib_stim_RIGHT.wav	2	26	blb_dichoticlistening_pa-da.mp3	pa	da	1	right
6.6.1	mac	2023-07-12	20:05:26	0	0	611409d13bdb227076c9426b	1	1	DL_test	13	DL_test	4			0		da	1	1609	6	4	antiphase_hc_sio.wav	1	6	5	noise_calib_stim_RIGHT.wav	2	2	blb_dichoticlistening_ba-da.mp3	ba	da	1	right
6.6.1	mac	2023-07-12	20:05:26	0	0	611409d13bdb227076c9426b	1	1	DL_test	13	DL_test	5			0		ka	1	999	6	4	antiphase_hc_sio.wav	1	6	5	noise_calib_stim_RIGHT.wav	2	23	blb_dichoticlistening_ka-pa.mp3	ka	pa	1	left
6.6.1	mac	2023-07-12	20:05:26	0	0	611409d13bdb227076c9426b	1	1	DL_test	13	DL_test	6			0		ba	1	1212	6	4	antiphase_hc_sio.wav	1	6	5	noise_calib_stim_RIGHT.wav	2	25	blb_dichoticlistening_pa-ba.mp3	pa	ba	1	right
6.6.1	mac	2023-07-12	20:05:26	0	0	611409d13bdb227076c9426b	1	1	DL_test	13	DL_test	7			0		pa	1	728	6	4	antiphase_hc_sio.wav	1	6	5	noise_calib_stim_RIGHT.wav	2	29	blb_dichoticlistening_pa-pa.mp3	pa	pa	0	left
6.6.1	mac	2023-07-12	20:05:26	0	0	611409d13bdb227076c9426b	1	1	DL_test	13	DL_test	8			0		da	0	2084	6	4	antiphase_hc_sio.wav	1	6	5	noise_calib_stim_RIGHT.wav	2	6	blb_dichoticlistening_ba-ta.mp3	ba	ta	1	other
6.6.1	mac	2023-07-12	20:05:26	0	0	611409d13bdb227076c9426b	1	1	DL_test	13	DL_test	9			0		da	0	918	6	4	antiphase_hc_sio.wav	1	6	5	noise_calib_stim_RIGHT.wav	2	4	blb_dichoticlistening_ba-ka.mp3	ba	ka	1	other
6.6.1	mac	2023-07-12	20:05:26	0	0	611409d13bdb227076c9426b	1	1	DL_test	13	DL_test	10			0		ba	1	870	6	4	antiphase_hc_sio.wav	1	6	5	noise_calib_stim_RIGHT.wav	2	3	blb_dichoticlistening_ba-ga.mp3	ba	ga	1	left
6.6.1	mac	2023-07-12	20:05:26	0	0	611409d13bdb227076c9426b	1	1	DL_test	13	DL_test	11			0		ga	1	767	6	4	antiphase_hc_sio.wav	1	6	5	noise_calib_stim_RIGHT.wav	2	16	blb_dichoticlistening_ga-ka.mp3	ga	ka	1	left
6.6.1	mac	2023-07-12	20:05:26	0	0	611409d13bdb227076c9426b	1	1	DL_test	13	DL_test	12			0		da	1	803	6	4	antiphase_hc_sio.wav	1	6	5	noise_calib_stim_RIGHT.wav	2	8	blb_dichoticlistening_da-da.mp3	da	da	0	left
6.6.1	mac	2023-07-12	20:05:26	0	0	611409d13bdb227076c9426b	1	1	DL_test	13	DL_test	13			0		ka	1	846	6	4	antiphase_hc_sio.wav	1	6	5	noise_calib_stim_RIGHT.wav	2	28	blb_dichoticlistening_pa-ka.mp3	pa	ka	1	right
6.6.1	mac	2023-07-12	20:05:26	0	0	611409d13bdb227076c9426b	1	1	DL_test	13	DL_test	14			0		ka	1	1273	6	4	antiphase_hc_sio.wav	1	6	5	noise_calib_stim_RIGHT.wav	2	22	blb_dichoticlistening_ka-ka.mp3	ka	ka	0	left
6.6.1	mac	2023-07-12	20:05:26	0	0	611409d13bdb227076c9426b	1	1	DL_test	13	DL_test	15			0		ga	1	968	6	4	antiphase_hc_sio.wav	1	6	5	noise_calib_stim_RIGHT.wav	2	17	blb_dichoticlistening_ga-pa.mp3	ga	pa	1	left
6.6.1	mac	2023-07-12	20:05:26	0	0	611409d13bdb227076c9426b	1	1	DL_test	13	DL_test	16			0		da	1	1149	6	4	antiphase_hc_sio.wav	1	6	5	noise_calib_stim_RIGHT.wav	2	32	blb_dichoticlistening_ta-da.mp3	ta	da	1	right
6.6.1	mac	2023-07-12	20:05:26	0	0	611409d13bdb227076c9426b	1	1	DL_test	13	DL_test	17			0		ba	1	1112	6	4	antiphase_hc_sio.wav	1	6	5	noise_calib_stim_RIGHT.wav	2	7	blb_dichoticlistening_da-ba.mp3	da	ba	1	right
6.6.1	mac	2023-07-12	20:05:26	0	0	611409d13bdb227076c9426b	1	1	DL_test	13	DL_test	18			0		ga	1	1088	6	4	antiphase_hc_sio.wav	1	6	5	noise_calib_stim_RIGHT.wav	2	18	blb_dichoticlistening_ga-ta.mp3	ga	ta	1	left
6.6.1	mac	2023-07-12	20:05:26	0	0	611409d13bdb227076c9426b	1	1	DL_test	13	DL_test	19			0		da	0	984	6	4	antiphase_hc_sio.wav	1	6	5	noise_calib_stim_RIGHT.wav	2	31	blb_dichoticlistening_ta-ba.mp3	ta	ba	1	other
6.6.1	mac	2023-07-12	20:05:26	0	0	611409d13bdb227076c9426b	1	1	DL_test	13	DL_test	20			0		ga	1	838	6	4	antiphase_hc_sio.wav	1	6	5	noise_calib_stim_RIGHT.wav	2	14	blb_dichoticlistening_ga-da.mp3	ga	da	1	left
6.6.1	mac	2023-07-12	20:05:26	0	0	611409d13bdb227076c9426b	1	1	DL_test	13	DL_test	21			0		ga	1	1040	6	4	antiphase_hc_sio.wav	1	6	5	noise_calib_stim_RIGHT.wav	2	15	blb_dichoticlistening_ga-ga.mp3	ga	ga	0	left
6.6.1	mac	2023-07-12	20:05:26	0	0	611409d13bdb227076c9426b	1	1	DL_test	13	DL_test	22			0		ka	1	1008	6	4	antiphase_hc_sio.wav	1	6	5	noise_calib_stim_RIGHT.wav	2	34	blb_dichoticlistening_ta-ka.mp3	ta	ka	1	right
6.6.1	mac	2023-07-12	20:05:26	0	0	611409d13bdb227076c9426b	1	1	DL_test	13	DL_test	23			0		ba	1	2012	6	4	antiphase_hc_sio.wav	1	6	5	noise_calib_stim_RIGHT.wav	2	5	blb_dichoticlistening_ba-pa.mp3	ba	pa	1	left
6.6.1	mac	2023-07-12	20:05:26	0	0	611409d13bdb227076c9426b	1	1	DL_test	13	DL_test	24			0		ba	1	922	6	4	antiphase_hc_sio.wav	1	6	5	noise_calib_stim_RIGHT.wav	2	1	blb_dichoticlistening_ba-ba.mp3	ba	ba	0	left
6.6.1	mac	2023-07-12	20:05:26	0	0	611409d13bdb227076c9426b	1	1	DL_test	13	DL_test	25			0		ga	1	777	6	4	antiphase_hc_sio.wav	1	6	5	noise_calib_stim_RIGHT.wav	2	21	blb_dichoticlistening_ka-ga.mp3	ka	ga	1	right
6.6.1	mac	2023-07-12	20:05:26	0	0	611409d13bdb227076c9426b	1	1	DL_test	13	DL_test	26			0		ga	1	730	6	4	antiphase_hc_sio.wav	1	6	5	noise_calib_stim_RIGHT.wav	2	33	blb_dichoticlistening_ta-ga.mp3	ta	ga	1	right
6.6.1	mac	2023-07-12	20:05:26	0	0	611409d13bdb227076c9426b	1	1	DL_test	13	DL_test	27			0		ta	1	1026	6	4	antiphase_hc_sio.wav	1	6	5	noise_calib_stim_RIGHT.wav	2	35	blb_dichoticlistening_ta-pa.mp3	ta	pa	1	left
6.6.1	mac	2023-07-12	20:05:26	0	0	611409d13bdb227076c9426b	1	1	DL_test	13	DL_test	28			0		ta	1	712	6	4	antiphase_hc_sio.wav	1	6	5	noise_calib_stim_RIGHT.wav	2	36	blb_dichoticlistening_ta-ta.mp3	ta	ta	0	left
6.6.1	mac	2023-07-12	20:05:26	0	0	611409d13bdb227076c9426b	1	1	DL_test	13	DL_test	29			0		ga	1	1286	6	4	antiphase_hc_sio.wav	1	6	5	noise_calib_stim_RIGHT.wav	2	9	blb_dichoticlistening_da-ga.mp3	da	ga	1	right
6.6.1	mac	2023-07-12	20:05:26	0	0	611409d13bdb227076c9426b	1	1	DL_test	13	DL_test	30			0		ka	1	1124	6	4	antiphase_hc_sio.wav	1	6	5	noise_calib_stim_RIGHT.wav	2	24	blb_dichoticlistening_ka-ta.mp3	ka	ta	1	left
6.6.1	mac	2023-07-12	20:05:26	0	0	611409d13bdb227076c9426b	1	1	DL_test	13	DL_test	31			0		ta	1	1227	6	4	antiphase_hc_sio.wav	1	6	5	noise_calib_stim_RIGHT.wav	2	30	blb_dichoticlistening_pa-ta.mp3	pa	ta	1	right
6.6.1	mac	2023-07-12	20:05:26	0	0	611409d13bdb227076c9426b	1	1	DL_test	13	DL_test	32			0		ba	1	964	6	4	antiphase_hc_sio.wav	1	6	5	noise_calib_stim_RIGHT.wav	2	13	blb_dichoticlistening_ga-ba.mp3	ga	ba	1	right
6.6.1	mac	2023-07-12	20:05:26	0	0	611409d13bdb227076c9426b	1	1	DL_test	13	DL_test	33			0		ga	1	1027	6	4	antiphase_hc_sio.wav	1	6	5	noise_calib_stim_RIGHT.wav	2	27	blb_dichoticlistening_pa-ga.mp3	pa	ga	1	right
6.6.1	mac	2023-07-12	20:05:26	0	0	611409d13bdb227076c9426b	1	1	DL_test	13	DL_test	34			0		ga	0	882	6	4	antiphase_hc_sio.wav	1	6	5	noise_calib_stim_RIGHT.wav	2	20	blb_dichoticlistening_ka-da.mp3	ka	da	1	other
6.6.1	mac	2023-07-12	20:05:26	0	0	611409d13bdb227076c9426b	1	1	DL_test	13	DL_test	35			0		da	1	892	6	4	antiphase_hc_sio.wav	1	6	5	noise_calib_stim_RIGHT.wav	2	12	blb_dichoticlistening_da-ta.mp3	da	ta	1	left
6.6.1	mac	2023-07-12	20:05:26	0	0	611409d13bdb227076c9426b	1	1	DL_test	13	DL_test	36			0		ba	1	917	6	4	antiphase_hc_sio.wav	1	6	5	noise_calib_stim_RIGHT.wav	2	19	blb_dichoticlistening_ka-ba.mp3	ka	ba	1	right
6.6.1	mac	2023-07-12	20:05:26	0	0	611409d13bdb227076c9426b	1	1	DL_test	14	DL_test	1			0		ta	1	1018	6	4	antiphase_hc_sio.wav	1	6	5	noise_calib_stim_RIGHT.wav	2	35	blb_dichoticlistening_ta-pa.mp3	ta	pa	1	left
6.6.1	mac	2023-07-12	20:05:26	0	0	611409d13bdb227076c9426b	1	1	DL_test	14	DL_test	2			0		ga	1	609	6	4	antiphase_hc_sio.wav	1	6	5	noise_calib_stim_RIGHT.wav	2	9	blb_dichoticlistening_da-ga.mp3	da	ga	1	right
6.6.1	mac	2023-07-12	20:05:26	0	0	611409d13bdb227076c9426b	1	1	DL_test	14	DL_test	3			0		ka	1	955	6	4	antiphase_hc_sio.wav	1	6	5	noise_calib_stim_RIGHT.wav	2	22	blb_dichoticlistening_ka-ka.mp3	ka	ka	0	left
6.6.1	mac	2023-07-12	20:05:26	0	0	611409d13bdb227076c9426b	1	1	DL_test	14	DL_test	4			0		da	1	899	6	4	antiphase_hc_sio.wav	1	6	5	noise_calib_stim_RIGHT.wav	2	11	blb_dichoticlistening_da-pa.mp3	da	pa	1	left
6.6.1	mac	2023-07-12	20:05:26	0	0	611409d13bdb227076c9426b	1	1	DL_test	14	DL_test	5			0		ba	1	1124	6	4	antiphase_hc_sio.wav	1	6	5	noise_calib_stim_RIGHT.wav	2	19	blb_dichoticlistening_ka-ba.mp3	ka	ba	1	right
6.6.1	mac	2023-07-12	20:05:26	0	0	611409d13bdb227076c9426b	1	1	DL_test	14	DL_test	6			0		pa	1	842	6	4	antiphase_hc_sio.wav	1	6	5	noise_calib_stim_RIGHT.wav	2	29	blb_dichoticlistening_pa-pa.mp3	pa	pa	0	left
6.6.1	mac	2023-07-12	20:05:26	0	0	611409d13bdb227076c9426b	1	1	DL_test	14	DL_test	7			0		ka	1	674	6	4	antiphase_hc_sio.wav	1	6	5	noise_calib_stim_RIGHT.wav	2	28	blb_dichoticlistening_pa-ka.mp3	pa	ka	1	right
6.6.1	mac	2023-07-12	20:05:26	0	0	611409d13bdb227076c9426b	1	1	DL_test	14	DL_test	8			0		ga	1	692	6	4	antiphase_hc_sio.wav	1	6	5	noise_calib_stim_RIGHT.wav	2	27	blb_dichoticlistening_pa-ga.mp3	pa	ga	1	right
6.6.1	mac	2023-07-12	20:05:26	0	0	611409d13bdb227076c9426b	1	1	DL_test	14	DL_test	9			0		da	1	634	6	4	antiphase_hc_sio.wav	1	6	5	noise_calib_stim_RIGHT.wav	2	20	blb_dichoticlistening_ka-da.mp3	ka	da	1	right
6.6.1	mac	2023-07-12	20:05:26	0	0	611409d13bdb227076c9426b	1	1	DL_test	14	DL_test	10			0		ta	1	933	6	4	antiphase_hc_sio.wav	1	6	5	noise_calib_stim_RIGHT.wav	2	36	blb_dichoticlistening_ta-ta.mp3	ta	ta	0	left
6.6.1	mac	2023-07-12	20:05:26	0	0	611409d13bdb227076c9426b	1	1	DL_test	14	DL_test	11			0		ga	1	679	6	4	antiphase_hc_sio.wav	1	6	5	noise_calib_stim_RIGHT.wav	2	33	blb_dichoticlistening_ta-ga.mp3	ta	ga	1	right
6.6.1	mac	2023-07-12	20:05:26	0	0	611409d13bdb227076c9426b	1	1	DL_test	14	DL_test	12			0		ka	1	619	6	4	antiphase_hc_sio.wav	1	6	5	noise_calib_stim_RIGHT.wav	2	34	blb_dichoticlistening_ta-ka.mp3	ta	ka	1	right
6.6.1	mac	2023-07-12	20:05:26	0	0	611409d13bdb227076c9426b	1	1	DL_test	14	DL_test	13			0		pa	0	580	6	4	antiphase_hc_sio.wav	1	6	5	noise_calib_stim_RIGHT.wav	2	1	blb_dichoticlistening_ba-ba.mp3	ba	ba	0	other
6.6.1	mac	2023-07-12	20:05:26	0	0	611409d13bdb227076c9426b	1	1	DL_test	14	DL_test	14			0		ga	1	925	6	4	antiphase_hc_sio.wav	1	6	5	noise_calib_stim_RIGHT.wav	2	15	blb_dichoticlistening_ga-ga.mp3	ga	ga	0	left
6.6.1	mac	2023-07-12	20:05:26	0	0	611409d13bdb227076c9426b	1	1	DL_test	14	DL_test	15			0		ta	1	1008	6	4	antiphase_hc_sio.wav	1	6	5	noise_calib_stim_RIGHT.wav	2	24	blb_dichoticlistening_ka-ta.mp3	ka	ta	1	right
6.6.1	mac	2023-07-12	20:05:26	0	0	611409d13bdb227076c9426b	1	1	DL_test	14	DL_test	16			0		da	1	874	6	4	antiphase_hc_sio.wav	1	6	5	noise_calib_stim_RIGHT.wav	2	26	blb_dichoticlistening_pa-da.mp3	pa	da	1	right
6.6.1	mac	2023-07-12	20:05:26	0	0	611409d13bdb227076c9426b	1	1	DL_test	14	DL_test	17			0		ba	1	937	6	4	antiphase_hc_sio.wav	1	6	5	noise_calib_stim_RIGHT.wav	2	5	blb_dichoticlistening_ba-pa.mp3	ba	pa	1	left
6.6.1	mac	2023-07-12	20:05:26	0	0	611409d13bdb227076c9426b	1	1	DL_test	14	DL_test	18			0		da	0	1792	6	4	antiphase_hc_sio.wav	1	6	5	noise_calib_stim_RIGHT.wav	2	31	blb_dichoticlistening_ta-ba.mp3	ta	ba	1	other
6.6.1	mac	2023-07-12	20:05:26	0	0	611409d13bdb227076c9426b	1	1	DL_test	14	DL_test	19			0		ga	1	750	6	4	antiphase_hc_sio.wav	1	6	5	noise_calib_stim_RIGHT.wav	2	17	blb_dichoticlistening_ga-pa.mp3	ga	pa	1	left
6.6.1	mac	2023-07-12	20:05:26	0	0	611409d13bdb227076c9426b	1	1	DL_test	14	DL_test	20			0		ba	1	1107	6	4	antiphase_hc_sio.wav	1	6	5	noise_calib_stim_RIGHT.wav	2	25	blb_dichoticlistening_pa-ba.mp3	pa	ba	1	right
6.6.1	mac	2023-07-12	20:05:26	0	0	611409d13bdb227076c9426b	1	1	DL_test	14	DL_test	21			0		ga	1	674	6	4	antiphase_hc_sio.wav	1	6	5	noise_calib_stim_RIGHT.wav	2	18	blb_dichoticlistening_ga-ta.mp3	ga	ta	1	left
6.6.1	mac	2023-07-12	20:05:26	0	0	611409d13bdb227076c9426b	1	1	DL_test	14	DL_test	22			0		da	1	1501	6	4	antiphase_hc_sio.wav	1	6	5	noise_calib_stim_RIGHT.wav	2	32	blb_dichoticlistening_ta-da.mp3	ta	da	1	right
6.6.1	mac	2023-07-12	20:05:26	0	0	611409d13bdb227076c9426b	1	1	DL_test	14	DL_test	23			0		da	0	1036	6	4	antiphase_hc_sio.wav	1	6	5	noise_calib_stim_RIGHT.wav	2	6	blb_dichoticlistening_ba-ta.mp3	ba	ta	1	other
6.6.1	mac	2023-07-12	20:05:26	0	0	611409d13bdb227076c9426b	1	1	DL_test	14	DL_test	24			0		ba	1	1008	6	4	antiphase_hc_sio.wav	1	6	5	noise_calib_stim_RIGHT.wav	2	3	blb_dichoticlistening_ba-ga.mp3	ba	ga	1	left
6.6.1	mac	2023-07-12	20:05:26	0	0	611409d13bdb227076c9426b	1	1	DL_test	14	DL_test	25			0		ba	1	766	6	4	antiphase_hc_sio.wav	1	6	5	noise_calib_stim_RIGHT.wav	2	7	blb_dichoticlistening_da-ba.mp3	da	ba	1	right
6.6.1	mac	2023-07-12	20:05:26	0	0	611409d13bdb227076c9426b	1	1	DL_test	14	DL_test	26			0		da	1	964	6	4	antiphase_hc_sio.wav	1	6	5	noise_calib_stim_RIGHT.wav	2	8	blb_dichoticlistening_da-da.mp3	da	da	0	left
6.6.1	mac	2023-07-12	20:05:26	0	0	611409d13bdb227076c9426b	1	1	DL_test	14	DL_test	27			0		ga	1	649	6	4	antiphase_hc_sio.wav	1	6	5	noise_calib_stim_RIGHT.wav	2	14	blb_dichoticlistening_ga-da.mp3	ga	da	1	left
6.6.1	mac	2023-07-12	20:05:26	0	0	611409d13bdb227076c9426b	1	1	DL_test	14	DL_test	28			0		ka	1	906	6	4	antiphase_hc_sio.wav	1	6	5	noise_calib_stim_RIGHT.wav	2	23	blb_dichoticlistening_ka-pa.mp3	ka	pa	1	left
6.6.1	mac	2023-07-12	20:05:26	0	0	611409d13bdb227076c9426b	1	1	DL_test	14	DL_test	29			0		pa	0	767	6	4	antiphase_hc_sio.wav	1	6	5	noise_calib_stim_RIGHT.wav	2	4	blb_dichoticlistening_ba-ka.mp3	ba	ka	1	other
6.6.1	mac	2023-07-12	20:05:26	0	0	611409d13bdb227076c9426b	1	1	DL_test	14	DL_test	30			0		da	1	1049	6	4	antiphase_hc_sio.wav	1	6	5	noise_calib_stim_RIGHT.wav	2	12	blb_dichoticlistening_da-ta.mp3	da	ta	1	left
6.6.1	mac	2023-07-12	20:05:26	0	0	611409d13bdb227076c9426b	1	1	DL_test	14	DL_test	31			0		ga	1	625	6	4	antiphase_hc_sio.wav	1	6	5	noise_calib_stim_RIGHT.wav	2	21	blb_dichoticlistening_ka-ga.mp3	ka	ga	1	right
6.6.1	mac	2023-07-12	20:05:26	0	0	611409d13bdb227076c9426b	1	1	DL_test	14	DL_test	32			0		da	1	1962	6	4	antiphase_hc_sio.wav	1	6	5	noise_calib_stim_RIGHT.wav	2	10	blb_dichoticlistening_da-ka.mp3	da	ka	1	left
6.6.1	mac	2023-07-12	20:05:26	0	0	611409d13bdb227076c9426b	1	1	DL_test	14	DL_test	33			0		ta	1	897	6	4	antiphase_hc_sio.wav	1	6	5	noise_calib_stim_RIGHT.wav	2	30	blb_dichoticlistening_pa-ta.mp3	pa	ta	1	right
6.6.1	mac	2023-07-12	20:05:26	0	0	611409d13bdb227076c9426b	1	1	DL_test	14	DL_test	34			0		ba	1	843	6	4	antiphase_hc_sio.wav	1	6	5	noise_calib_stim_RIGHT.wav	2	13	blb_dichoticlistening_ga-ba.mp3	ga	ba	1	right
6.6.1	mac	2023-07-12	20:05:26	0	0	611409d13bdb227076c9426b	1	1	DL_test	14	DL_test	35			0		ga	1	676	6	4	antiphase_hc_sio.wav	1	6	5	noise_calib_stim_RIGHT.wav	2	16	blb_dichoticlistening_ga-ka.mp3	ga	ka	1	left
6.6.1	mac	2023-07-12	20:05:26	0	0	611409d13bdb227076c9426b	1	1	DL_test	14	DL_test	36			0		ba	1	747	6	4	antiphase_hc_sio.wav	1	6	5	noise_calib_stim_RIGHT.wav	2	2	blb_dichoticlistening_ba-da.mp3	ba	da	1	left
6.6.1	mac	2023-07-12	20:05:26	0	0	611409d13bdb227076c9426b	1	1	DL_test	15	DL_test	1			0		ta	0	1181	6	4	antiphase_hc_sio.wav	1	6	5	noise_calib_stim_RIGHT.wav	2	11	blb_dichoticlistening_da-pa.mp3	da	pa	1	other
6.6.1	mac	2023-07-12	20:05:26	0	0	611409d13bdb227076c9426b	1	1	DL_test	15	DL_test	2			0		pa	1	1237	6	4	antiphase_hc_sio.wav	1	6	5	noise_calib_stim_RIGHT.wav	2	29	blb_dichoticlistening_pa-pa.mp3	pa	pa	0	left
6.6.1	mac	2023-07-12	20:05:26	0	0	611409d13bdb227076c9426b	1	1	DL_test	15	DL_test	3			0		ta	1	1294	6	4	antiphase_hc_sio.wav	1	6	5	noise_calib_stim_RIGHT.wav	2	36	blb_dichoticlistening_ta-ta.mp3	ta	ta	0	left
6.6.1	mac	2023-07-12	20:05:26	0	0	611409d13bdb227076c9426b	1	1	DL_test	15	DL_test	4			0		da	1	726	6	4	antiphase_hc_sio.wav	1	6	5	noise_calib_stim_RIGHT.wav	2	10	blb_dichoticlistening_da-ka.mp3	da	ka	1	left
6.6.1	mac	2023-07-12	20:05:26	0	0	611409d13bdb227076c9426b	1	1	DL_test	15	DL_test	5			0		pa	0	1890	6	4	antiphase_hc_sio.wav	1	6	5	noise_calib_stim_RIGHT.wav	2	19	blb_dichoticlistening_ka-ba.mp3	ka	ba	1	other
6.6.1	mac	2023-07-12	20:05:26	0	0	611409d13bdb227076c9426b	1	1	DL_test	15	DL_test	6			0		ka	1	1175	6	4	antiphase_hc_sio.wav	1	6	5	noise_calib_stim_RIGHT.wav	2	28	blb_dichoticlistening_pa-ka.mp3	pa	ka	1	right
6.6.1	mac	2023-07-12	20:05:26	0	0	611409d13bdb227076c9426b	1	1	DL_test	15	DL_test	7			0		ta	1	1021	6	4	antiphase_hc_sio.wav	1	6	5	noise_calib_stim_RIGHT.wav	2	30	blb_dichoticlistening_pa-ta.mp3	pa	ta	1	right
6.6.1	mac	2023-07-12	20:05:26	0	0	611409d13bdb227076c9426b	1	1	DL_test	15	DL_test	8			0		da	1	923	6	4	antiphase_hc_sio.wav	1	6	5	noise_calib_stim_RIGHT.wav	2	8	blb_dichoticlistening_da-da.mp3	da	da	0	left
6.6.1	mac	2023-07-12	20:05:26	0	0	611409d13bdb227076c9426b	1	1	DL_test	15	DL_test	9			0		ga	1	652	6	4	antiphase_hc_sio.wav	1	6	5	noise_calib_stim_RIGHT.wav	2	15	blb_dichoticlistening_ga-ga.mp3	ga	ga	0	left
6.6.1	mac	2023-07-12	20:05:26	0	0	611409d13bdb227076c9426b	1	1	DL_test	15	DL_test	10			0		ba	1	1083	6	4	antiphase_hc_sio.wav	1	6	5	noise_calib_stim_RIGHT.wav	2	25	blb_dichoticlistening_pa-ba.mp3	pa	ba	1	right
6.6.1	mac	2023-07-12	20:05:26	0	0	611409d13bdb227076c9426b	1	1	DL_test	15	DL_test	11			0		ka	1	1956	6	4	antiphase_hc_sio.wav	1	6	5	noise_calib_stim_RIGHT.wav	2	4	blb_dichoticlistening_ba-ka.mp3	ba	ka	1	right
6.6.1	mac	2023-07-12	20:05:26	0	0	611409d13bdb227076c9426b	1	1	DL_test	15	DL_test	12			0		ba	1	1088	6	4	antiphase_hc_sio.wav	1	6	5	noise_calib_stim_RIGHT.wav	2	7	blb_dichoticlistening_da-ba.mp3	da	ba	1	right
6.6.1	mac	2023-07-12	20:05:26	0	0	611409d13bdb227076c9426b	1	1	DL_test	15	DL_test	13			0		ga	0	679	6	4	antiphase_hc_sio.wav	1	6	5	noise_calib_stim_RIGHT.wav	2	20	blb_dichoticlistening_ka-da.mp3	ka	da	1	other
6.6.1	mac	2023-07-12	20:05:26	0	0	611409d13bdb227076c9426b	1	1	DL_test	15	DL_test	14			0		ka	1	746	6	4	antiphase_hc_sio.wav	1	6	5	noise_calib_stim_RIGHT.wav	2	24	blb_dichoticlistening_ka-ta.mp3	ka	ta	1	left
6.6.1	mac	2023-07-12	20:05:26	0	0	611409d13bdb227076c9426b	1	1	DL_test	15	DL_test	15			0		ta	1	986	6	4	antiphase_hc_sio.wav	1	6	5	noise_calib_stim_RIGHT.wav	2	35	blb_dichoticlistening_ta-pa.mp3	ta	pa	1	left
6.6.1	mac	2023-07-12	20:05:26	0	0	611409d13bdb227076c9426b	1	1	DL_test	15	DL_test	16			0		pa	1	1408	6	4	antiphase_hc_sio.wav	1	6	5	noise_calib_stim_RIGHT.wav	2	5	blb_dichoticlistening_ba-pa.mp3	ba	pa	1	right
6.6.1	mac	2023-07-12	20:05:26	0	0	611409d13bdb227076c9426b	1	1	DL_test	15	DL_test	17			0		ga	1	828	6	4	antiphase_hc_sio.wav	1	6	5	noise_calib_stim_RIGHT.wav	2	9	blb_dichoticlistening_da-ga.mp3	da	ga	1	right
6.6.1	mac	2023-07-12	20:05:26	0	0	611409d13bdb227076c9426b	1	1	DL_test	15	DL_test	18			0		da	1	910	6	4	antiphase_hc_sio.wav	1	6	5	noise_calib_stim_RIGHT.wav	2	32	blb_dichoticlistening_ta-da.mp3	ta	da	1	right
6.6.1	mac	2023-07-12	20:05:26	0	0	611409d13bdb227076c9426b	1	1	DL_test	15	DL_test	19			0		da	1	1166	6	4	antiphase_hc_sio.wav	1	6	5	noise_calib_stim_RIGHT.wav	2	26	blb_dichoticlistening_pa-da.mp3	pa	da	1	right
6.6.1	mac	2023-07-12	20:05:26	0	0	611409d13bdb227076c9426b	1	1	DL_test	15	DL_test	20			0		ka	0	951	6	4	antiphase_hc_sio.wav	1	6	5	noise_calib_stim_RIGHT.wav	2	31	blb_dichoticlistening_ta-ba.mp3	ta	ba	1	other
6.6.1	mac	2023-07-12	20:05:26	0	0	611409d13bdb227076c9426b	1	1	DL_test	15	DL_test	21			0		ga	1	1338	6	4	antiphase_hc_sio.wav	1	6	5	noise_calib_stim_RIGHT.wav	2	18	blb_dichoticlistening_ga-ta.mp3	ga	ta	1	left
6.6.1	mac	2023-07-12	20:05:26	0	0	611409d13bdb227076c9426b	1	1	DL_test	15	DL_test	22			0		ga	1	701	6	4	antiphase_hc_sio.wav	1	6	5	noise_calib_stim_RIGHT.wav	2	17	blb_dichoticlistening_ga-pa.mp3	ga	pa	1	left
6.6.1	mac	2023-07-12	20:05:26	0	0	611409d13bdb227076c9426b	1	1	DL_test	15	DL_test	23			0		ba	1	1018	6	4	antiphase_hc_sio.wav	1	6	5	noise_calib_stim_RIGHT.wav	2	13	blb_dichoticlistening_ga-ba.mp3	ga	ba	1	right
6.6.1	mac	2023-07-12	20:05:26	0	0	611409d13bdb227076c9426b	1	1	DL_test	15	DL_test	24			0		ba	1	428	6	4	antiphase_hc_sio.wav	1	6	5	noise_calib_stim_RIGHT.wav	2	2	blb_dichoticlistening_ba-da.mp3	ba	da	1	left
6.6.1	mac	2023-07-12	20:05:26	0	0	611409d13bdb227076c9426b	1	1	DL_test	15	DL_test	25			0		ka	1	935	6	4	antiphase_hc_sio.wav	1	6	5	noise_calib_stim_RIGHT.wav	2	34	blb_dichoticlistening_ta-ka.mp3	ta	ka	1	right
6.6.1	mac	2023-07-12	20:05:26	0	0	611409d13bdb227076c9426b	1	1	DL_test	15	DL_test	26			0		ba	1	992	6	4	antiphase_hc_sio.wav	1	6	5	noise_calib_stim_RIGHT.wav	2	1	blb_dichoticlistening_ba-ba.mp3	ba	ba	0	left
6.6.1	mac	2023-07-12	20:05:26	0	0	611409d13bdb227076c9426b	1	1	DL_test	15	DL_test	27			0		ka	1	1033	6	4	antiphase_hc_sio.wav	1	6	5	noise_calib_stim_RIGHT.wav	2	22	blb_dichoticlistening_ka-ka.mp3	ka	ka	0	left
6.6.1	mac	2023-07-12	20:05:26	0	0	611409d13bdb227076c9426b	1	1	DL_test	15	DL_test	28			0		ga	1	1196	6	4	antiphase_hc_sio.wav	1	6	5	noise_calib_stim_RIGHT.wav	2	33	blb_dichoticlistening_ta-ga.mp3	ta	ga	1	right
6.6.1	mac	2023-07-12	20:05:26	0	0	611409d13bdb227076c9426b	1	1	DL_test	15	DL_test	29			0		da	1	1486	6	4	antiphase_hc_sio.wav	1	6	5	noise_calib_stim_RIGHT.wav	2	12	blb_dichoticlistening_da-ta.mp3	da	ta	1	left
6.6.1	mac	2023-07-12	20:05:26	0	0	611409d13bdb227076c9426b	1	1	DL_test	15	DL_test	30			0		ka	1	871	6	4	antiphase_hc_sio.wav	1	6	5	noise_calib_stim_RIGHT.wav	2	23	blb_dichoticlistening_ka-pa.mp3	ka	pa	1	left
6.6.1	mac	2023-07-12	20:05:26	0	0	611409d13bdb227076c9426b	1	1	DL_test	15	DL_test	31			0		ga	1	888	6	4	antiphase_hc_sio.wav	1	6	5	noise_calib_stim_RIGHT.wav	2	27	blb_dichoticlistening_pa-ga.mp3	pa	ga	1	right
6.6.1	mac	2023-07-12	20:05:26	0	0	611409d13bdb227076c9426b	1	1	DL_test	15	DL_test	32			0		ga	1	527	6	4	antiphase_hc_sio.wav	1	6	5	noise_calib_stim_RIGHT.wav	2	21	blb_dichoticlistening_ka-ga.mp3	ka	ga	1	right
6.6.1	mac	2023-07-12	20:05:26	0	0	611409d13bdb227076c9426b	1	1	DL_test	15	DL_test	33			0		da	1	858	6	4	antiphase_hc_sio.wav	1	6	5	noise_calib_stim_RIGHT.wav	2	14	blb_dichoticlistening_ga-da.mp3	ga	da	1	right
6.6.1	mac	2023-07-12	20:05:26	0	0	611409d13bdb227076c9426b	1	1	DL_test	15	DL_test	34			0		ga	1	1038	6	4	antiphase_hc_sio.wav	1	6	5	noise_calib_stim_RIGHT.wav	2	16	blb_dichoticlistening_ga-ka.mp3	ga	ka	1	left
6.6.1	mac	2023-07-12	20:05:26	0	0	611409d13bdb227076c9426b	1	1	DL_test	15	DL_test	35			0		ta	1	1889	6	4	antiphase_hc_sio.wav	1	6	5	noise_calib_stim_RIGHT.wav	2	6	blb_dichoticlistening_ba-ta.mp3	ba	ta	1	right
6.6.1	mac	2023-07-12	20:05:26	0	0	611409d13bdb227076c9426b	1	1	DL_test	15	DL_test	36			0		ba	1	1465	6	4	antiphase_hc_sio.wav	1	6	5	noise_calib_stim_RIGHT.wav	2	3	blb_dichoticlistening_ba-ga.mp3	ba	ga	1	left
6.6.1	mac	2023-07-12	20:05:26	0	0	611409d13bdb227076c9426b	1	1	DL_test	16	DL_test	1			0		ka	1	658	6	4	antiphase_hc_sio.wav	1	6	5	noise_calib_stim_RIGHT.wav	2	23	blb_dichoticlistening_ka-pa.mp3	ka	pa	1	left
6.6.1	mac	2023-07-12	20:05:26	0	0	611409d13bdb227076c9426b	1	1	DL_test	16	DL_test	2			0		pa	1	956	6	4	antiphase_hc_sio.wav	1	6	5	noise_calib_stim_RIGHT.wav	2	29	blb_dichoticlistening_pa-pa.mp3	pa	pa	0	left
6.6.1	mac	2023-07-12	20:05:26	0	0	611409d13bdb227076c9426b	1	1	DL_test	16	DL_test	3			0		ka	0	609	6	4	antiphase_hc_sio.wav	1	6	5	noise_calib_stim_RIGHT.wav	2	17	blb_dichoticlistening_ga-pa.mp3	ga	pa	1	other
6.6.1	mac	2023-07-12	20:05:26	0	0	611409d13bdb227076c9426b	1	1	DL_test	16	DL_test	4			0		ba	1	863	6	4	antiphase_hc_sio.wav	1	6	5	noise_calib_stim_RIGHT.wav	2	2	blb_dichoticlistening_ba-da.mp3	ba	da	1	left
6.6.1	mac	2023-07-12	20:05:26	0	0	611409d13bdb227076c9426b	1	1	DL_test	16	DL_test	5			0		da	0	1364	6	4	antiphase_hc_sio.wav	1	6	5	noise_calib_stim_RIGHT.wav	2	18	blb_dichoticlistening_ga-ta.mp3	ga	ta	1	other
6.6.1	mac	2023-07-12	20:05:26	0	0	611409d13bdb227076c9426b	1	1	DL_test	16	DL_test	6			0		ga	1	1096	6	4	antiphase_hc_sio.wav	1	6	5	noise_calib_stim_RIGHT.wav	2	14	blb_dichoticlistening_ga-da.mp3	ga	da	1	left
6.6.1	mac	2023-07-12	20:05:26	0	0	611409d13bdb227076c9426b	1	1	DL_test	16	DL_test	7			0		ta	1	1401	6	4	antiphase_hc_sio.wav	1	6	5	noise_calib_stim_RIGHT.wav	2	6	blb_dichoticlistening_ba-ta.mp3	ba	ta	1	right
6.6.1	mac	2023-07-12	20:05:26	0	0	611409d13bdb227076c9426b	1	1	DL_test	16	DL_test	8			0		ga	1	1159	6	4	antiphase_hc_sio.wav	1	6	5	noise_calib_stim_RIGHT.wav	2	9	blb_dichoticlistening_da-ga.mp3	da	ga	1	right
6.6.1	mac	2023-07-12	20:05:26	0	0	611409d13bdb227076c9426b	1	1	DL_test	16	DL_test	9			0		da	1	836	6	4	antiphase_hc_sio.wav	1	6	5	noise_calib_stim_RIGHT.wav	2	11	blb_dichoticlistening_da-pa.mp3	da	pa	1	left
6.6.1	mac	2023-07-12	20:05:26	0	0	611409d13bdb227076c9426b	1	1	DL_test	16	DL_test	10			0		ta	1	819	6	4	antiphase_hc_sio.wav	1	6	5	noise_calib_stim_RIGHT.wav	2	30	blb_dichoticlistening_pa-ta.mp3	pa	ta	1	right
6.6.1	mac	2023-07-12	20:05:26	0	0	611409d13bdb227076c9426b	1	1	DL_test	16	DL_test	11			0		ta	1	777	6	4	antiphase_hc_sio.wav	1	6	5	noise_calib_stim_RIGHT.wav	2	36	blb_dichoticlistening_ta-ta.mp3	ta	ta	0	left
6.6.1	mac	2023-07-12	20:05:26	0	0	611409d13bdb227076c9426b	1	1	DL_test	16	DL_test	12			0		pa	1	1408	6	4	antiphase_hc_sio.wav	1	6	5	noise_calib_stim_RIGHT.wav	2	25	blb_dichoticlistening_pa-ba.mp3	pa	ba	1	left
6.6.1	mac	2023-07-12	20:05:26	0	0	611409d13bdb227076c9426b	1	1	DL_test	16	DL_test	13			0		da	1	1012	6	4	antiphase_hc_sio.wav	1	6	5	noise_calib_stim_RIGHT.wav	2	8	blb_dichoticlistening_da-da.mp3	da	da	0	left
6.6.1	mac	2023-07-12	20:05:26	0	0	611409d13bdb227076c9426b	1	1	DL_test	16	DL_test	14			0		pa	1	746	6	4	antiphase_hc_sio.wav	1	6	5	noise_calib_stim_RIGHT.wav	2	5	blb_dichoticlistening_ba-pa.mp3	ba	pa	1	right
6.6.1	mac	2023-07-12	20:05:26	0	0	611409d13bdb227076c9426b	1	1	DL_test	16	DL_test	15			0		da	1	1256	6	4	antiphase_hc_sio.wav	1	6	5	noise_calib_stim_RIGHT.wav	2	32	blb_dichoticlistening_ta-da.mp3	ta	da	1	right
6.6.1	mac	2023-07-12	20:05:26	0	0	611409d13bdb227076c9426b	1	1	DL_test	16	DL_test	16			0		ba	1	860	6	4	antiphase_hc_sio.wav	1	6	5	noise_calib_stim_RIGHT.wav	2	19	blb_dichoticlistening_ka-ba.mp3	ka	ba	1	right
6.6.1	mac	2023-07-12	20:05:26	0	0	611409d13bdb227076c9426b	1	1	DL_test	16	DL_test	17			0		ba	1	736	6	4	antiphase_hc_sio.wav	1	6	5	noise_calib_stim_RIGHT.wav	2	1	blb_dichoticlistening_ba-ba.mp3	ba	ba	0	left
6.6.1	mac	2023-07-12	20:05:26	0	0	611409d13bdb227076c9426b	1	1	DL_test	16	DL_test	18			0		da	1	647	6	4	antiphase_hc_sio.wav	1	6	5	noise_calib_stim_RIGHT.wav	2	10	blb_dichoticlistening_da-ka.mp3	da	ka	1	left
6.6.1	mac	2023-07-12	20:05:26	0	0	611409d13bdb227076c9426b	1	1	DL_test	16	DL_test	19			0		ga	1	803	6	4	antiphase_hc_sio.wav	1	6	5	noise_calib_stim_RIGHT.wav	2	33	blb_dichoticlistening_ta-ga.mp3	ta	ga	1	right
6.6.1	mac	2023-07-12	20:05:26	0	0	611409d13bdb227076c9426b	1	1	DL_test	16	DL_test	20			0		ba	1	1349	6	4	antiphase_hc_sio.wav	1	6	5	noise_calib_stim_RIGHT.wav	2	7	blb_dichoticlistening_da-ba.mp3	da	ba	1	right
6.6.1	mac	2023-07-12	20:05:26	0	0	611409d13bdb227076c9426b	1	1	DL_test	16	DL_test	21			0		ba	0	433	6	4	antiphase_hc_sio.wav	1	6	5	noise_calib_stim_RIGHT.wav	2	12	blb_dichoticlistening_da-ta.mp3	da	ta	1	other
6.6.1	mac	2023-07-12	20:05:26	0	0	611409d13bdb227076c9426b	1	1	DL_test	16	DL_test	22			0		ka	1	936	6	4	antiphase_hc_sio.wav	1	6	5	noise_calib_stim_RIGHT.wav	2	28	blb_dichoticlistening_pa-ka.mp3	pa	ka	1	right
6.6.1	mac	2023-07-12	20:05:26	0	0	611409d13bdb227076c9426b	1	1	DL_test	16	DL_test	23			0		ka	1	537	6	4	antiphase_hc_sio.wav	1	6	5	noise_calib_stim_RIGHT.wav	2	22	blb_dichoticlistening_ka-ka.mp3	ka	ka	0	left
6.6.1	mac	2023-07-12	20:05:26	0	0	611409d13bdb227076c9426b	1	1	DL_test	16	DL_test	24			0		ba	1	1097	6	4	antiphase_hc_sio.wav	1	6	5	noise_calib_stim_RIGHT.wav	2	13	blb_dichoticlistening_ga-ba.mp3	ga	ba	1	right
6.6.1	mac	2023-07-12	20:05:26	0	0	611409d13bdb227076c9426b	1	1	DL_test	16	DL_test	25			0		ba	0	417	6	4	antiphase_hc_sio.wav	1	6	5	noise_calib_stim_RIGHT.wav	2	16	blb_dichoticlistening_ga-ka.mp3	ga	ka	1	other
6.6.1	mac	2023-07-12	20:05:26	0	0	611409d13bdb227076c9426b	1	1	DL_test	16	DL_test	26			0		da	0	1691	6	4	antiphase_hc_sio.wav	1	6	5	noise_calib_stim_RIGHT.wav	2	31	blb_dichoticlistening_ta-ba.mp3	ta	ba	1	other
6.6.1	mac	2023-07-12	20:05:26	0	0	611409d13bdb227076c9426b	1	1	DL_test	16	DL_test	27			0		ga	1	991	6	4	antiphase_hc_sio.wav	1	6	5	noise_calib_stim_RIGHT.wav	2	21	blb_dichoticlistening_ka-ga.mp3	ka	ga	1	right
6.6.1	mac	2023-07-12	20:05:26	0	0	611409d13bdb227076c9426b	1	1	DL_test	16	DL_test	28			0		ka	1	1835	6	4	antiphase_hc_sio.wav	1	6	5	noise_calib_stim_RIGHT.wav	2	4	blb_dichoticlistening_ba-ka.mp3	ba	ka	1	right
6.6.1	mac	2023-07-12	20:05:26	0	0	611409d13bdb227076c9426b	1	1	DL_test	16	DL_test	29			0		ga	1	816	6	4	antiphase_hc_sio.wav	1	6	5	noise_calib_stim_RIGHT.wav	2	27	blb_dichoticlistening_pa-ga.mp3	pa	ga	1	right
6.6.1	mac	2023-07-12	20:05:26	0	0	611409d13bdb227076c9426b	1	1	DL_test	16	DL_test	30			0		ta	1	1366	6	4	antiphase_hc_sio.wav	1	6	5	noise_calib_stim_RIGHT.wav	2	35	blb_dichoticlistening_ta-pa.mp3	ta	pa	1	left
6.6.1	mac	2023-07-12	20:05:26	0	0	611409d13bdb227076c9426b	1	1	DL_test	16	DL_test	31			0		da	1	1030	6	4	antiphase_hc_sio.wav	1	6	5	noise_calib_stim_RIGHT.wav	2	26	blb_dichoticlistening_pa-da.mp3	pa	da	1	right
6.6.1	mac	2023-07-12	20:05:26	0	0	611409d13bdb227076c9426b	1	1	DL_test	16	DL_test	32			0		ga	0	939	6	4	antiphase_hc_sio.wav	1	6	5	noise_calib_stim_RIGHT.wav	2	20	blb_dichoticlistening_ka-da.mp3	ka	da	1	other
6.6.1	mac	2023-07-12	20:05:26	0	0	611409d13bdb227076c9426b	1	1	DL_test	16	DL_test	33			0		ga	1	816	6	4	antiphase_hc_sio.wav	1	6	5	noise_calib_stim_RIGHT.wav	2	15	blb_dichoticlistening_ga-ga.mp3	ga	ga	0	left
6.6.1	mac	2023-07-12	20:05:26	0	0	611409d13bdb227076c9426b	1	1	DL_test	16	DL_test	34			0		ka	1	1019	6	4	antiphase_hc_sio.wav	1	6	5	noise_calib_stim_RIGHT.wav	2	24	blb_dichoticlistening_ka-ta.mp3	ka	ta	1	left
6.6.1	mac	2023-07-12	20:05:26	0	0	611409d13bdb227076c9426b	1	1	DL_test	16	DL_test	35			0		ka	1	1208	6	4	antiphase_hc_sio.wav	1	6	5	noise_calib_stim_RIGHT.wav	2	34	blb_dichoticlistening_ta-ka.mp3	ta	ka	1	right
6.6.1	mac	2023-07-12	20:05:26	0	0	611409d13bdb227076c9426b	1	1	DL_test	16	DL_test	36			0		ba	1	1261	6	4	antiphase_hc_sio.wav	1	6	5	noise_calib_stim_RIGHT.wav	2	3	blb_dichoticlistening_ba-ga.mp3	ba	ga	1	left
6.6.1	mac	2023-07-12	20:05:26	20:14:54	564910	611409d13bdb227076c9426b	1	1	practice_slash	22	practice_slash	1	stimuli_distractor_trianglediamonds.svg	stimuli_distractor_diamondtriangles.svg	16	no	0	1	2000	6	4	antiphase_hc_sio.wav	1	6	5	noise_calib_stim_RIGHT.wav	2	3	blb_dichoticlistening_ba-ga.mp3	ba	ga	1	left
6.6.1	mac	2023-07-12	20:05:26	20:14:54	564910	611409d13bdb227076c9426b	1	1	practice_slash	22	advance_on_keypress_SLASH	2	stimuli_distractor_trianglediamonds.svg	stimuli_distractor_diamondtriangles.svg	16	no	57	0	1836	6	4	antiphase_hc_sio.wav	1	6	5	noise_calib_stim_RIGHT.wav	2	3	blb_dichoticlistening_ba-ga.mp3	ba	ga	1	left
6.6.1	mac	2023-07-12	20:05:26	20:14:59	570295	611409d13bdb227076c9426b	1	1	practice_slash	22	practice_slash	3	stimuli_distractor_diamondtriangles.svg	stimuli_target_rectangletriangles.svg	7	yes	53	1	1878	6	4	antiphase_hc_sio.wav	1	6	5	noise_calib_stim_RIGHT.wav	2	3	blb_dichoticlistening_ba-ga.mp3	ba	ga	1	left
6.6.1	mac	2023-07-12	20:05:26	20:14:59	570295	611409d13bdb227076c9426b	1	1	practice_slash	22	advance_on_keypress_SLASH	4	stimuli_distractor_diamondtriangles.svg	stimuli_target_rectangletriangles.svg	7	yes	57	0	2229	6	4	antiphase_hc_sio.wav	1	6	5	noise_calib_stim_RIGHT.wav	2	3	blb_dichoticlistening_ba-ga.mp3	ba	ga	1	left
6.6.1	mac	2023-07-12	20:05:26	20:15:05	576175	611409d13bdb227076c9426b	1	1	practice_slash	22	practice_slash	5	stimuli_distractor_trianglediamonds.svg	stimuli_distractor_trianglediamonds.svg	15	no	0	1	2000	6	4	antiphase_hc_sio.wav	1	6	5	noise_calib_stim_RIGHT.wav	2	3	blb_dichoticlistening_ba-ga.mp3	ba	ga	1	left
6.6.1	mac	2023-07-12	20:05:26	20:15:05	576175	611409d13bdb227076c9426b	1	1	practice_slash	22	advance_on_keypress_SLASH	6	stimuli_distractor_trianglediamonds.svg	stimuli_distractor_trianglediamonds.svg	15	no	57	0	993	6	4	antiphase_hc_sio.wav	1	6	5	noise_calib_stim_RIGHT.wav	2	3	blb_dichoticlistening_ba-ga.mp3	ba	ga	1	left
6.6.1	mac	2023-07-12	20:05:26	20:15:09	579856	611409d13bdb227076c9426b	1	1	practice_slash	22	practice_slash	7	stimuli_target_squarediamonds.svg	stimuli_distractor_diamondtriangles.svg	2	yes	53	1	1030	6	4	antiphase_hc_sio.wav	1	6	5	noise_calib_stim_RIGHT.wav	2	3	blb_dichoticlistening_ba-ga.mp3	ba	ga	1	left
6.6.1	mac	2023-07-12	20:05:26	20:15:09	579856	611409d13bdb227076c9426b	1	1	practice_slash	22	advance_on_keypress_SLASH	8	stimuli_target_squarediamonds.svg	stimuli_distractor_diamondtriangles.svg	2	yes	57	0	707	6	4	antiphase_hc_sio.wav	1	6	5	noise_calib_stim_RIGHT.wav	2	3	blb_dichoticlistening_ba-ga.mp3	ba	ga	1	left
6.6.1	mac	2023-07-12	20:05:26	20:15:13	584231	611409d13bdb227076c9426b	1	1	practice_slash	22	practice_slash	9	stimuli_distractor_trianglediamonds.svg	stimuli_target_diamondrectangles.svg	12	yes	0	0	2000	6	4	antiphase_hc_sio.wav	1	6	5	noise_calib_stim_RIGHT.wav	2	3	blb_dichoticlistening_ba-ga.mp3	ba	ga	1	left
6.6.1	mac	2023-07-12	20:05:26	20:15:13	584231	611409d13bdb227076c9426b	1	1	practice_slash	22	advance_on_keypress_SLASH	10	stimuli_distractor_trianglediamonds.svg	stimuli_target_diamondrectangles.svg	12	yes	57	0	595	6	4	antiphase_hc_sio.wav	1	6	5	noise_calib_stim_RIGHT.wav	2	3	blb_dichoticlistening_ba-ga.mp3	ba	ga	1	left
6.6.1	mac	2023-07-12	20:05:26	20:15:16	587415	611409d13bdb227076c9426b	1	1	practice_slash	22	practice_slash	11	stimuli_distractor_trianglediamonds.svg	stimuli_target_rectanglediamonds.svg	10	yes	53	1	944	6	4	antiphase_hc_sio.wav	1	6	5	noise_calib_stim_RIGHT.wav	2	3	blb_dichoticlistening_ba-ga.mp3	ba	ga	1	left
6.6.1	mac	2023-07-12	20:05:26	20:15:16	587415	611409d13bdb227076c9426b	1	1	practice_slash	22	advance_on_keypress_SLASH	12	stimuli_distractor_trianglediamonds.svg	stimuli_target_rectanglediamonds.svg	10	yes	57	0	568	6	4	antiphase_hc_sio.wav	1	6	5	noise_calib_stim_RIGHT.wav	2	3	blb_dichoticlistening_ba-ga.mp3	ba	ga	1	left
6.6.1	mac	2023-07-12	20:05:26	20:15:20	590720	611409d13bdb227076c9426b	1	1	practice_slash	22	practice_slash	13	stimuli_target_diamondsquares.svg	stimuli_distractor_trianglediamonds.svg	6	yes	53	1	1079	6	4	antiphase_hc_sio.wav	1	6	5	noise_calib_stim_RIGHT.wav	2	3	blb_dichoticlistening_ba-ga.mp3	ba	ga	1	left
6.6.1	mac	2023-07-12	20:05:26	20:15:20	590720	611409d13bdb227076c9426b	1	1	practice_slash	22	advance_on_keypress_SLASH	14	stimuli_target_diamondsquares.svg	stimuli_distractor_trianglediamonds.svg	6	yes	57	0	438	6	4	antiphase_hc_sio.wav	1	6	5	noise_calib_stim_RIGHT.wav	2	3	blb_dichoticlistening_ba-ga.mp3	ba	ga	1	left
6.6.1	mac	2023-07-12	20:05:26	20:15:23	594015	611409d13bdb227076c9426b	1	1	practice_slash	22	practice_slash	15	stimuli_target_rectanglediamonds.svg	stimuli_distractor_trianglediamonds.svg	4	yes	53	1	1196	6	4	antiphase_hc_sio.wav	1	6	5	noise_calib_stim_RIGHT.wav	2	3	blb_dichoticlistening_ba-ga.mp3	ba	ga	1	left
6.6.1	mac	2023-07-12	20:05:26	20:15:23	594015	611409d13bdb227076c9426b	1	1	practice_slash	22	advance_on_keypress_SLASH	16	stimuli_target_rectanglediamonds.svg	stimuli_distractor_trianglediamonds.svg	4	yes	57	0	319	6	4	antiphase_hc_sio.wav	1	6	5	noise_calib_stim_RIGHT.wav	2	3	blb_dichoticlistening_ba-ga.mp3	ba	ga	1	left
6.6.1	mac	2023-07-12	20:05:26	20:15:26	596805	611409d13bdb227076c9426b	1	1	practice_slash	22	practice_slash	17	stimuli_target_squarediamonds.svg	stimuli_distractor_trianglediamonds.svg	5	yes	53	1	816	6	4	antiphase_hc_sio.wav	1	6	5	noise_calib_stim_RIGHT.wav	2	3	blb_dichoticlistening_ba-ga.mp3	ba	ga	1	left
6.6.1	mac	2023-07-12	20:05:26	20:15:26	596805	611409d13bdb227076c9426b	1	1	practice_slash	22	advance_on_keypress_SLASH	18	stimuli_target_squarediamonds.svg	stimuli_distractor_trianglediamonds.svg	5	yes	57	0	314	6	4	antiphase_hc_sio.wav	1	6	5	noise_calib_stim_RIGHT.wav	2	3	blb_dichoticlistening_ba-ga.mp3	ba	ga	1	left
6.6.1	mac	2023-07-12	20:05:26	20:15:29	599928	611409d13bdb227076c9426b	1	1	practice_slash	22	practice_slash	19	stimuli_distractor_diamondtriangles.svg	stimuli_target_diamondrectangles.svg	8	yes	53	1	1163	6	4	antiphase_hc_sio.wav	1	6	5	noise_calib_stim_RIGHT.wav	2	3	blb_dichoticlistening_ba-ga.mp3	ba	ga	1	left
6.6.1	mac	2023-07-12	20:05:26	20:15:29	599928	611409d13bdb227076c9426b	1	1	practice_slash	22	advance_on_keypress_SLASH	20	stimuli_distractor_diamondtriangles.svg	stimuli_target_diamondrectangles.svg	8	yes	57	0	401	6	4	antiphase_hc_sio.wav	1	6	5	noise_calib_stim_RIGHT.wav	2	3	blb_dichoticlistening_ba-ga.mp3	ba	ga	1	left
6.6.1	mac	2023-07-12	20:05:26	20:15:32	602730	611409d13bdb227076c9426b	1	1	practice_slash	22	practice_slash	21	stimuli_target_rectanglediamonds.svg	stimuli_distractor_diamondtriangles.svg	1	yes	53	1	765	6	4	antiphase_hc_sio.wav	1	6	5	noise_calib_stim_RIGHT.wav	2	3	blb_dichoticlistening_ba-ga.mp3	ba	ga	1	left
6.6.1	mac	2023-07-12	20:05:26	20:15:32	602730	611409d13bdb227076c9426b	1	1	practice_slash	22	advance_on_keypress_SLASH	22	stimuli_target_rectanglediamonds.svg	stimuli_distractor_diamondtriangles.svg	1	yes	57	0	240	6	4	antiphase_hc_sio.wav	1	6	5	noise_calib_stim_RIGHT.wav	2	3	blb_dichoticlistening_ba-ga.mp3	ba	ga	1	left
6.6.1	mac	2023-07-12	20:05:26	20:15:34	605474	611409d13bdb227076c9426b	1	1	practice_slash	22	practice_slash	23	stimuli_target_diamondsquares.svg	stimuli_distractor_diamondtriangles.svg	3	yes	53	1	851	6	4	antiphase_hc_sio.wav	1	6	5	noise_calib_stim_RIGHT.wav	2	3	blb_dichoticlistening_ba-ga.mp3	ba	ga	1	left
6.6.1	mac	2023-07-12	20:05:26	20:15:34	605474	611409d13bdb227076c9426b	1	1	practice_slash	22	advance_on_keypress_SLASH	24	stimuli_target_diamondsquares.svg	stimuli_distractor_diamondtriangles.svg	3	yes	57	0	292	6	4	antiphase_hc_sio.wav	1	6	5	noise_calib_stim_RIGHT.wav	2	3	blb_dichoticlistening_ba-ga.mp3	ba	ga	1	left
6.6.1	mac	2023-07-12	20:05:26	20:15:37	608054	611409d13bdb227076c9426b	1	1	practice_slash	22	practice_slash	25	stimuli_distractor_diamondtriangles.svg	stimuli_distractor_trianglediamonds.svg	14	no	53	0	631	6	4	antiphase_hc_sio.wav	1	6	5	noise_calib_stim_RIGHT.wav	2	3	blb_dichoticlistening_ba-ga.mp3	ba	ga	1	left
6.6.1	mac	2023-07-12	20:05:26	20:15:37	608054	611409d13bdb227076c9426b	1	1	practice_slash	22	advance_on_keypress_SLASH	26	stimuli_distractor_diamondtriangles.svg	stimuli_distractor_trianglediamonds.svg	14	no	57	0	308	6	4	antiphase_hc_sio.wav	1	6	5	noise_calib_stim_RIGHT.wav	2	3	blb_dichoticlistening_ba-ga.mp3	ba	ga	1	left
6.6.1	mac	2023-07-12	20:05:26	20:15:41	612007	611409d13bdb227076c9426b	1	1	practice_slash	22	practice_slash	27	stimuli_distractor_diamondtriangles.svg	stimuli_distractor_diamondtriangles.svg	13	no	0	1	2000	6	4	antiphase_hc_sio.wav	1	6	5	noise_calib_stim_RIGHT.wav	2	3	blb_dichoticlistening_ba-ga.mp3	ba	ga	1	left
6.6.1	mac	2023-07-12	20:05:26	20:15:41	612007	611409d13bdb227076c9426b	1	1	practice_slash	22	advance_on_keypress_SLASH	28	stimuli_distractor_diamondtriangles.svg	stimuli_distractor_diamondtriangles.svg	13	no	57	0	360	6	4	antiphase_hc_sio.wav	1	6	5	noise_calib_stim_RIGHT.wav	2	3	blb_dichoticlistening_ba-ga.mp3	ba	ga	1	left
6.6.1	mac	2023-07-12	20:05:26	20:15:43	614359	611409d13bdb227076c9426b	1	1	practice_slash	22	practice_slash	29	stimuli_distractor_diamondtriangles.svg	stimuli_target_trianglerectangles.svg	9	yes	53	1	341	6	4	antiphase_hc_sio.wav	1	6	5	noise_calib_stim_RIGHT.wav	2	3	blb_dichoticlistening_ba-ga.mp3	ba	ga	1	left
6.6.1	mac	2023-07-12	20:05:26	20:15:43	614359	611409d13bdb227076c9426b	1	1	practice_slash	22	advance_on_keypress_SLASH	30	stimuli_distractor_diamondtriangles.svg	stimuli_target_trianglerectangles.svg	9	yes	57	0	327	6	4	antiphase_hc_sio.wav	1	6	5	noise_calib_stim_RIGHT.wav	2	3	blb_dichoticlistening_ba-ga.mp3	ba	ga	1	left
6.6.1	mac	2023-07-12	20:05:26	20:15:46	616802	611409d13bdb227076c9426b	1	1	practice_slash	22	practice_slash	31	stimuli_distractor_trianglediamonds.svg	stimuli_target_squarediamonds.svg	11	yes	53	1	471	6	4	antiphase_hc_sio.wav	1	6	5	noise_calib_stim_RIGHT.wav	2	3	blb_dichoticlistening_ba-ga.mp3	ba	ga	1	left
6.6.1	mac	2023-07-12	20:05:26	20:15:46	616802	611409d13bdb227076c9426b	1	1	practice_slash	22	advance_on_keypress_SLASH	32	stimuli_distractor_trianglediamonds.svg	stimuli_target_squarediamonds.svg	11	yes	57	0	329	6	4	antiphase_hc_sio.wav	1	6	5	noise_calib_stim_RIGHT.wav	2	3	blb_dichoticlistening_ba-ga.mp3	ba	ga	1	left
6.6.1	mac	2023-07-12	20:05:26	20:15:53	623671	611409d13bdb227076c9426b	1	1	main_slash	24	main_slash	1	stimuli_distractor_diamondtriangles.svg	stimuli_distractor_trianglediamonds.svg	37	no	0	1	2000	6	4	antiphase_hc_sio.wav	1	6	5	noise_calib_stim_RIGHT.wav	2	3	blb_dichoticlistening_ba-ga.mp3	ba	ga	1	left
6.6.1	mac	2023-07-12	20:05:26	20:15:53	623671	611409d13bdb227076c9426b	1	1	main_slash	24	advance_on_keypress_SLASH	2	stimuli_distractor_diamondtriangles.svg	stimuli_distractor_trianglediamonds.svg	37	no	57	0	599	6	4	antiphase_hc_sio.wav	1	6	5	noise_calib_stim_RIGHT.wav	2	3	blb_dichoticlistening_ba-ga.mp3	ba	ga	1	left
6.6.1	mac	2023-07-12	20:05:26	20:15:56	626924	611409d13bdb227076c9426b	1	1	main_slash	24	main_slash	3	stimuli_distractor_diamondtriangles.svg	stimuli_distractor_diamondtriangles.svg	39	no	0	1	2000	6	4	antiphase_hc_sio.wav	1	6	5	noise_calib_stim_RIGHT.wav	2	3	blb_dichoticlistening_ba-ga.mp3	ba	ga	1	left
6.6.1	mac	2023-07-12	20:05:26	20:15:56	626924	611409d13bdb227076c9426b	1	1	main_slash	24	advance_on_keypress_SLASH	4	stimuli_distractor_diamondtriangles.svg	stimuli_distractor_diamondtriangles.svg	39	no	57	0	686	6	4	antiphase_hc_sio.wav	1	6	5	noise_calib_stim_RIGHT.wav	2	3	blb_dichoticlistening_ba-ga.mp3	ba	ga	1	left
6.6.1	mac	2023-07-12	20:05:26	20:15:58	628579	611409d13bdb227076c9426b	1	1	main_slash	24	main_slash	5	stimuli_distractor_diamondtriangles.svg	stimuli_target_rectanglediamonds.svg	14	yes	53	1	327	6	4	antiphase_hc_sio.wav	1	6	5	noise_calib_stim_RIGHT.wav	2	3	blb_dichoticlistening_ba-ga.mp3	ba	ga	1	left
6.6.1	mac	2023-07-12	20:05:26	20:15:58	628579	611409d13bdb227076c9426b	1	1	main_slash	24	advance_on_keypress_SLASH	6	stimuli_distractor_diamondtriangles.svg	stimuli_target_rectanglediamonds.svg	14	yes	57	0	678	6	4	antiphase_hc_sio.wav	1	6	5	noise_calib_stim_RIGHT.wav	2	3	blb_dichoticlistening_ba-ga.mp3	ba	ga	1	left
6.6.1	mac	2023-07-12	20:05:26	20:15:59	630408	611409d13bdb227076c9426b	1	1	main_slash	24	main_slash	7	stimuli_target_diamondsquares.svg	stimuli_distractor_trianglediamonds.svg	20	yes	53	1	500	6	4	antiphase_hc_sio.wav	1	6	5	noise_calib_stim_RIGHT.wav	2	3	blb_dichoticlistening_ba-ga.mp3	ba	ga	1	left
6.6.1	mac	2023-07-12	20:05:26	20:15:59	630408	611409d13bdb227076c9426b	1	1	main_slash	24	advance_on_keypress_SLASH	8	stimuli_target_diamondsquares.svg	stimuli_distractor_trianglediamonds.svg	20	yes	57	0	508	6	4	antiphase_hc_sio.wav	1	6	5	noise_calib_stim_RIGHT.wav	2	3	blb_dichoticlistening_ba-ga.mp3	ba	ga	1	left
6.6.1	mac	2023-07-12	20:05:26	20:16:01	631996	611409d13bdb227076c9426b	1	1	main_slash	24	main_slash	9	stimuli_distractor_trianglediamonds.svg	stimuli_target_diamondrectangles.svg	27	yes	53	1	438	6	4	antiphase_hc_sio.wav	1	6	5	noise_calib_stim_RIGHT.wav	2	3	blb_dichoticlistening_ba-ga.mp3	ba	ga	1	left
6.6.1	mac	2023-07-12	20:05:26	20:16:01	631996	611409d13bdb227076c9426b	1	1	main_slash	24	advance_on_keypress_SLASH	10	stimuli_distractor_trianglediamonds.svg	stimuli_target_diamondrectangles.svg	27	yes	57	0	484	6	4	antiphase_hc_sio.wav	1	6	5	noise_calib_stim_RIGHT.wav	2	3	blb_dichoticlistening_ba-ga.mp3	ba	ga	1	left
6.6.1	mac	2023-07-12	20:05:26	20:16:02	633428	611409d13bdb227076c9426b	1	1	main_slash	24	main_slash	11	stimuli_target_rectangletriangles.svg	stimuli_distractor_trianglediamonds.svg	1	yes	53	1	301	6	4	antiphase_hc_sio.wav	1	6	5	noise_calib_stim_RIGHT.wav	2	3	blb_dichoticlistening_ba-ga.mp3	ba	ga	1	left
6.6.1	mac	2023-07-12	20:05:26	20:16:02	633428	611409d13bdb227076c9426b	1	1	main_slash	24	advance_on_keypress_SLASH	12	stimuli_target_rectangletriangles.svg	stimuli_distractor_trianglediamonds.svg	1	yes	57	0	550	6	4	antiphase_hc_sio.wav	1	6	5	noise_calib_stim_RIGHT.wav	2	3	blb_dichoticlistening_ba-ga.mp3	ba	ga	1	left
6.6.1	mac	2023-07-12	20:05:26	20:16:04	634970	611409d13bdb227076c9426b	1	1	main_slash	24	main_slash	13	stimuli_target_rectangletriangles.svg	stimuli_distractor_diamondtriangles.svg	5	yes	53	1	345	6	4	antiphase_hc_sio.wav	1	6	5	noise_calib_stim_RIGHT.wav	2	3	blb_dichoticlistening_ba-ga.mp3	ba	ga	1	left
6.6.1	mac	2023-07-12	20:05:26	20:16:04	634970	611409d13bdb227076c9426b	1	1	main_slash	24	advance_on_keypress_SLASH	14	stimuli_target_rectangletriangles.svg	stimuli_distractor_diamondtriangles.svg	5	yes	57	0	404	6	4	antiphase_hc_sio.wav	1	6	5	noise_calib_stim_RIGHT.wav	2	3	blb_dichoticlistening_ba-ga.mp3	ba	ga	1	left
6.6.1	mac	2023-07-12	20:05:26	20:16:07	638003	611409d13bdb227076c9426b	1	1	main_slash	24	main_slash	15	stimuli_distractor_diamondtriangles.svg	stimuli_distractor_diamondtriangles.svg	40	no	0	1	2000	6	4	antiphase_hc_sio.wav	1	6	5	noise_calib_stim_RIGHT.wav	2	3	blb_dichoticlistening_ba-ga.mp3	ba	ga	1	left
6.6.1	mac	2023-07-12	20:05:26	20:16:07	638003	611409d13bdb227076c9426b	1	1	main_slash	24	advance_on_keypress_SLASH	16	stimuli_distractor_diamondtriangles.svg	stimuli_distractor_diamondtriangles.svg	40	no	57	0	613	6	4	antiphase_hc_sio.wav	1	6	5	noise_calib_stim_RIGHT.wav	2	3	blb_dichoticlistening_ba-ga.mp3	ba	ga	1	left
6.6.1	mac	2023-07-12	20:05:26	20:16:09	640016	611409d13bdb227076c9426b	1	1	main_slash	24	main_slash	17	stimuli_distractor_trianglediamonds.svg	stimuli_distractor_trianglediamonds.svg	34	no	53	0	773	6	4	antiphase_hc_sio.wav	1	6	5	noise_calib_stim_RIGHT.wav	2	3	blb_dichoticlistening_ba-ga.mp3	ba	ga	1	left
6.6.1	mac	2023-07-12	20:05:26	20:16:09	640016	611409d13bdb227076c9426b	1	1	main_slash	24	advance_on_keypress_SLASH	18	stimuli_distractor_trianglediamonds.svg	stimuli_distractor_trianglediamonds.svg	34	no	57	0	587	6	4	antiphase_hc_sio.wav	1	6	5	noise_calib_stim_RIGHT.wav	2	3	blb_dichoticlistening_ba-ga.mp3	ba	ga	1	left
6.6.1	mac	2023-07-12	20:05:26	20:16:11	641621	611409d13bdb227076c9426b	1	1	main_slash	24	main_slash	19	stimuli_target_trianglesquares.svg	stimuli_distractor_diamondtriangles.svg	22	yes	53	1	382	6	4	antiphase_hc_sio.wav	1	6	5	noise_calib_stim_RIGHT.wav	2	3	blb_dichoticlistening_ba-ga.mp3	ba	ga	1	left
6.6.1	mac	2023-07-12	20:05:26	20:16:11	641621	611409d13bdb227076c9426b	1	1	main_slash	24	advance_on_keypress_SLASH	20	stimuli_target_trianglesquares.svg	stimuli_distractor_diamondtriangles.svg	22	yes	57	0	423	6	4	antiphase_hc_sio.wav	1	6	5	noise_calib_stim_RIGHT.wav	2	3	blb_dichoticlistening_ba-ga.mp3	ba	ga	1	left
6.6.1	mac	2023-07-12	20:05:26	20:16:12	643027	611409d13bdb227076c9426b	1	1	main_slash	24	main_slash	21	stimuli_distractor_trianglediamonds.svg	stimuli_distractor_diamondtriangles.svg	35	no	53	0	342	6	4	antiphase_hc_sio.wav	1	6	5	noise_calib_stim_RIGHT.wav	2	3	blb_dichoticlistening_ba-ga.mp3	ba	ga	1	left
6.6.1	mac	2023-07-12	20:05:26	20:16:12	643027	611409d13bdb227076c9426b	1	1	main_slash	24	advance_on_keypress_SLASH	22	stimuli_distractor_trianglediamonds.svg	stimuli_distractor_diamondtriangles.svg	35	no	57	0	366	6	4	antiphase_hc_sio.wav	1	6	5	noise_calib_stim_RIGHT.wav	2	3	blb_dichoticlistening_ba-ga.mp3	ba	ga	1	left
6.6.1	mac	2023-07-12	20:05:26	20:16:14	644613	611409d13bdb227076c9426b	1	1	main_slash	24	main_slash	23	stimuli_target_rectanglediamonds.svg	stimuli_distractor_trianglediamonds.svg	2	yes	53	1	579	6	4	antiphase_hc_sio.wav	1	6	5	noise_calib_stim_RIGHT.wav	2	3	blb_dichoticlistening_ba-ga.mp3	ba	ga	1	left
6.6.1	mac	2023-07-12	20:05:26	20:16:14	644613	611409d13bdb227076c9426b	1	1	main_slash	24	advance_on_keypress_SLASH	24	stimuli_target_rectanglediamonds.svg	stimuli_distractor_trianglediamonds.svg	2	yes	57	0	318	6	4	antiphase_hc_sio.wav	1	6	5	noise_calib_stim_RIGHT.wav	2	3	blb_dichoticlistening_ba-ga.mp3	ba	ga	1	left
6.6.1	mac	2023-07-12	20:05:26	20:16:17	647569	611409d13bdb227076c9426b	1	1	main_slash	24	main_slash	25	stimuli_distractor_trianglediamonds.svg	stimuli_distractor_trianglediamonds.svg	33	no	0	1	2000	6	4	antiphase_hc_sio.wav	1	6	5	noise_calib_stim_RIGHT.wav	2	3	blb_dichoticlistening_ba-ga.mp3	ba	ga	1	left
6.6.1	mac	2023-07-12	20:05:26	20:16:17	647569	611409d13bdb227076c9426b	1	1	main_slash	24	advance_on_keypress_SLASH	26	stimuli_distractor_trianglediamonds.svg	stimuli_distractor_trianglediamonds.svg	33	no	57	0	810	6	4	antiphase_hc_sio.wav	1	6	5	noise_calib_stim_RIGHT.wav	2	3	blb_dichoticlistening_ba-ga.mp3	ba	ga	1	left
6.6.1	mac	2023-07-12	20:05:26	20:16:19	650046	611409d13bdb227076c9426b	1	1	main_slash	24	main_slash	27	stimuli_distractor_diamondtriangles.svg	stimuli_target_rectangletriangles.svg	13	yes	53	1	1025	6	4	antiphase_hc_sio.wav	1	6	5	noise_calib_stim_RIGHT.wav	2	3	blb_dichoticlistening_ba-ga.mp3	ba	ga	1	left
6.6.1	mac	2023-07-12	20:05:26	20:16:19	650046	611409d13bdb227076c9426b	1	1	main_slash	24	advance_on_keypress_SLASH	28	stimuli_distractor_diamondtriangles.svg	stimuli_target_rectangletriangles.svg	13	yes	57	0	550	6	4	antiphase_hc_sio.wav	1	6	5	noise_calib_stim_RIGHT.wav	2	3	blb_dichoticlistening_ba-ga.mp3	ba	ga	1	left
6.6.1	mac	2023-07-12	20:05:26	20:16:22	653244	611409d13bdb227076c9426b	1	1	main_slash	24	main_slash	29	stimuli_distractor_diamondtriangles.svg	stimuli_target_trianglerectangles.svg	29	yes	0	0	2000	6	4	antiphase_hc_sio.wav	1	6	5	noise_calib_stim_RIGHT.wav	2	3	blb_dichoticlistening_ba-ga.mp3	ba	ga	1	left
6.6.1	mac	2023-07-12	20:05:26	20:16:22	653244	611409d13bdb227076c9426b	1	1	main_slash	24	advance_on_keypress_SLASH	30	stimuli_distractor_diamondtriangles.svg	stimuli_target_trianglerectangles.svg	29	yes	57	0	1218	6	4	antiphase_hc_sio.wav	1	6	5	noise_calib_stim_RIGHT.wav	2	3	blb_dichoticlistening_ba-ga.mp3	ba	ga	1	left
6.6.1	mac	2023-07-12	20:05:26	20:16:25	655710	611409d13bdb227076c9426b	1	1	main_slash	24	main_slash	31	stimuli_target_trianglerectangles.svg	stimuli_distractor_diamondtriangles.svg	21	yes	53	1	617	6	4	antiphase_hc_sio.wav	1	6	5	noise_calib_stim_RIGHT.wav	2	3	blb_dichoticlistening_ba-ga.mp3	ba	ga	1	left
6.6.1	mac	2023-07-12	20:05:26	20:16:25	655710	611409d13bdb227076c9426b	1	1	main_slash	24	advance_on_keypress_SLASH	32	stimuli_target_trianglerectangles.svg	stimuli_distractor_diamondtriangles.svg	21	yes	57	0	659	6	4	antiphase_hc_sio.wav	1	6	5	noise_calib_stim_RIGHT.wav	2	3	blb_dichoticlistening_ba-ga.mp3	ba	ga	1	left
6.6.1	mac	2023-07-12	20:05:26	20:16:28	659008	611409d13bdb227076c9426b	1	1	main_slash	24	main_slash	33	stimuli_distractor_trianglediamonds.svg	stimuli_target_trianglerectangles.svg	25	yes	0	0	2000	6	4	antiphase_hc_sio.wav	1	6	5	noise_calib_stim_RIGHT.wav	2	3	blb_dichoticlistening_ba-ga.mp3	ba	ga	1	left
6.6.1	mac	2023-07-12	20:05:26	20:16:28	659008	611409d13bdb227076c9426b	1	1	main_slash	24	advance_on_keypress_SLASH	34	stimuli_distractor_trianglediamonds.svg	stimuli_target_trianglerectangles.svg	25	yes	57	0	423	6	4	antiphase_hc_sio.wav	1	6	5	noise_calib_stim_RIGHT.wav	2	3	blb_dichoticlistening_ba-ga.mp3	ba	ga	1	left
6.6.1	mac	2023-07-12	20:05:26	20:16:29	660414	611409d13bdb227076c9426b	1	1	main_slash	24	main_slash	35	stimuli_distractor_trianglediamonds.svg	stimuli_target_squarediamonds.svg	12	yes	53	1	350	6	4	antiphase_hc_sio.wav	1	6	5	noise_calib_stim_RIGHT.wav	2	3	blb_dichoticlistening_ba-ga.mp3	ba	ga	1	left
6.6.1	mac	2023-07-12	20:05:26	20:16:29	660414	611409d13bdb227076c9426b	1	1	main_slash	24	advance_on_keypress_SLASH	36	stimuli_distractor_trianglediamonds.svg	stimuli_target_squarediamonds.svg	12	yes	57	0	466	6	4	antiphase_hc_sio.wav	1	6	5	noise_calib_stim_RIGHT.wav	2	3	blb_dichoticlistening_ba-ga.mp3	ba	ga	1	left
6.6.1	mac	2023-07-12	20:05:26	20:16:31	662247	611409d13bdb227076c9426b	1	1	main_slash	24	main_slash	37	stimuli_distractor_trianglediamonds.svg	stimuli_distractor_diamondtriangles.svg	36	no	53	0	727	6	4	antiphase_hc_sio.wav	1	6	5	noise_calib_stim_RIGHT.wav	2	3	blb_dichoticlistening_ba-ga.mp3	ba	ga	1	left
6.6.1	mac	2023-07-12	20:05:26	20:16:31	662247	611409d13bdb227076c9426b	1	1	main_slash	24	advance_on_keypress_SLASH	38	stimuli_distractor_trianglediamonds.svg	stimuli_distractor_diamondtriangles.svg	36	no	57	0	400	6	4	antiphase_hc_sio.wav	1	6	5	noise_calib_stim_RIGHT.wav	2	3	blb_dichoticlistening_ba-ga.mp3	ba	ga	1	left
6.6.1	mac	2023-07-12	20:05:26	20:16:33	663943	611409d13bdb227076c9426b	1	1	main_slash	24	main_slash	39	stimuli_distractor_trianglediamonds.svg	stimuli_target_diamondsquares.svg	28	yes	53	1	653	6	4	antiphase_hc_sio.wav	1	6	5	noise_calib_stim_RIGHT.wav	2	3	blb_dichoticlistening_ba-ga.mp3	ba	ga	1	left
6.6.1	mac	2023-07-12	20:05:26	20:16:33	663943	611409d13bdb227076c9426b	1	1	main_slash	24	advance_on_keypress_SLASH	40	stimuli_distractor_trianglediamonds.svg	stimuli_target_diamondsquares.svg	28	yes	57	0	367	6	4	antiphase_hc_sio.wav	1	6	5	noise_calib_stim_RIGHT.wav	2	3	blb_dichoticlistening_ba-ga.mp3	ba	ga	1	left
6.6.1	mac	2023-07-12	20:05:26	20:16:36	666943	611409d13bdb227076c9426b	1	1	main_slash	24	main_slash	41	stimuli_distractor_diamondtriangles.svg	stimuli_target_diamondrectangles.svg	31	yes	0	0	2000	6	4	antiphase_hc_sio.wav	1	6	5	noise_calib_stim_RIGHT.wav	2	3	blb_dichoticlistening_ba-ga.mp3	ba	ga	1	left
6.6.1	mac	2023-07-12	20:05:26	20:16:36	666943	611409d13bdb227076c9426b	1	1	main_slash	24	advance_on_keypress_SLASH	42	stimuli_distractor_diamondtriangles.svg	stimuli_target_diamondrectangles.svg	31	yes	57	0	577	6	4	antiphase_hc_sio.wav	1	6	5	noise_calib_stim_RIGHT.wav	2	3	blb_dichoticlistening_ba-ga.mp3	ba	ga	1	left
6.6.1	mac	2023-07-12	20:05:26	20:16:37	668499	611409d13bdb227076c9426b	1	1	main_slash	24	main_slash	43	stimuli_target_squaretriangles.svg	stimuli_distractor_diamondtriangles.svg	7	yes	53	1	328	6	4	antiphase_hc_sio.wav	1	6	5	noise_calib_stim_RIGHT.wav	2	3	blb_dichoticlistening_ba-ga.mp3	ba	ga	1	left
6.6.1	mac	2023-07-12	20:05:26	20:16:37	668499	611409d13bdb227076c9426b	1	1	main_slash	24	advance_on_keypress_SLASH	44	stimuli_target_squaretriangles.svg	stimuli_distractor_diamondtriangles.svg	7	yes	57	0	463	6	4	antiphase_hc_sio.wav	1	6	5	noise_calib_stim_RIGHT.wav	2	3	blb_dichoticlistening_ba-ga.mp3	ba	ga	1	left
6.6.1	mac	2023-07-12	20:05:26	20:16:39	670102	611409d13bdb227076c9426b	1	1	main_slash	24	main_slash	45	stimuli_target_rectanglediamonds.svg	stimuli_distractor_diamondtriangles.svg	6	yes	53	1	496	6	4	antiphase_hc_sio.wav	1	6	5	noise_calib_stim_RIGHT.wav	2	3	blb_dichoticlistening_ba-ga.mp3	ba	ga	1	left
6.6.1	mac	2023-07-12	20:05:26	20:16:39	670102	611409d13bdb227076c9426b	1	1	main_slash	24	advance_on_keypress_SLASH	46	stimuli_target_rectanglediamonds.svg	stimuli_distractor_diamondtriangles.svg	6	yes	57	0	274	6	4	antiphase_hc_sio.wav	1	6	5	noise_calib_stim_RIGHT.wav	2	3	blb_dichoticlistening_ba-ga.mp3	ba	ga	1	left
6.6.1	mac	2023-07-12	20:05:26	20:16:41	671771	611409d13bdb227076c9426b	1	1	main_slash	24	main_slash	47	stimuli_distractor_trianglediamonds.svg	stimuli_target_rectanglediamonds.svg	10	yes	53	1	763	6	4	antiphase_hc_sio.wav	1	6	5	noise_calib_stim_RIGHT.wav	2	3	blb_dichoticlistening_ba-ga.mp3	ba	ga	1	left
6.6.1	mac	2023-07-12	20:05:26	20:16:41	671771	611409d13bdb227076c9426b	1	1	main_slash	24	advance_on_keypress_SLASH	48	stimuli_distractor_trianglediamonds.svg	stimuli_target_rectanglediamonds.svg	10	yes	57	0	525	6	4	antiphase_hc_sio.wav	1	6	5	noise_calib_stim_RIGHT.wav	2	3	blb_dichoticlistening_ba-ga.mp3	ba	ga	1	left
6.6.1	mac	2023-07-12	20:05:26	20:16:43	674136	611409d13bdb227076c9426b	1	1	main_slash	24	main_slash	49	stimuli_target_diamondrectangles.svg	stimuli_distractor_trianglediamonds.svg	19	yes	53	1	1202	6	4	antiphase_hc_sio.wav	1	6	5	noise_calib_stim_RIGHT.wav	2	3	blb_dichoticlistening_ba-ga.mp3	ba	ga	1	left
6.6.1	mac	2023-07-12	20:05:26	20:16:43	674136	611409d13bdb227076c9426b	1	1	main_slash	24	advance_on_keypress_SLASH	50	stimuli_target_diamondrectangles.svg	stimuli_distractor_trianglediamonds.svg	19	yes	57	0	456	6	4	antiphase_hc_sio.wav	1	6	5	noise_calib_stim_RIGHT.wav	2	3	blb_dichoticlistening_ba-ga.mp3	ba	ga	1	left
6.6.1	mac	2023-07-12	20:05:26	20:16:46	677226	611409d13bdb227076c9426b	1	1	main_slash	24	main_slash	51	stimuli_target_squarediamonds.svg	stimuli_distractor_diamondtriangles.svg	8	yes	0	0	2000	6	4	antiphase_hc_sio.wav	1	6	5	noise_calib_stim_RIGHT.wav	2	3	blb_dichoticlistening_ba-ga.mp3	ba	ga	1	left
6.6.1	mac	2023-07-12	20:05:26	20:16:46	677226	611409d13bdb227076c9426b	1	1	main_slash	24	advance_on_keypress_SLASH	52	stimuli_target_squarediamonds.svg	stimuli_distractor_diamondtriangles.svg	8	yes	57	0	533	6	4	antiphase_hc_sio.wav	1	6	5	noise_calib_stim_RIGHT.wav	2	3	blb_dichoticlistening_ba-ga.mp3	ba	ga	1	left
6.6.1	mac	2023-07-12	20:05:26	20:16:49	680397	611409d13bdb227076c9426b	1	1	main_slash	24	main_slash	53	stimuli_distractor_trianglediamonds.svg	stimuli_target_squaretriangles.svg	11	yes	0	0	2000	6	4	antiphase_hc_sio.wav	1	6	5	noise_calib_stim_RIGHT.wav	2	3	blb_dichoticlistening_ba-ga.mp3	ba	ga	1	left
6.6.1	mac	2023-07-12	20:05:26	20:16:49	680397	611409d13bdb227076c9426b	1	1	main_slash	24	advance_on_keypress_SLASH	54	stimuli_distractor_trianglediamonds.svg	stimuli_target_squaretriangles.svg	11	yes	57	0	441	6	4	antiphase_hc_sio.wav	1	6	5	noise_calib_stim_RIGHT.wav	2	3	blb_dichoticlistening_ba-ga.mp3	ba	ga	1	left
6.6.1	mac	2023-07-12	20:05:26	20:16:51	681850	611409d13bdb227076c9426b	1	1	main_slash	24	main_slash	55	stimuli_distractor_diamondtriangles.svg	stimuli_target_squarediamonds.svg	16	yes	53	1	379	6	4	antiphase_hc_sio.wav	1	6	5	noise_calib_stim_RIGHT.wav	2	3	blb_dichoticlistening_ba-ga.mp3	ba	ga	1	left
6.6.1	mac	2023-07-12	20:05:26	20:16:51	681850	611409d13bdb227076c9426b	1	1	main_slash	24	advance_on_keypress_SLASH	56	stimuli_distractor_diamondtriangles.svg	stimuli_target_squarediamonds.svg	16	yes	57	0	407	6	4	antiphase_hc_sio.wav	1	6	5	noise_calib_stim_RIGHT.wav	2	3	blb_dichoticlistening_ba-ga.mp3	ba	ga	1	left
6.6.1	mac	2023-07-12	20:05:26	20:16:53	683528	611409d13bdb227076c9426b	1	1	main_slash	24	main_slash	57	stimuli_distractor_diamondtriangles.svg	stimuli_target_trianglesquares.svg	30	yes	53	1	617	6	4	antiphase_hc_sio.wav	1	6	5	noise_calib_stim_RIGHT.wav	2	3	blb_dichoticlistening_ba-ga.mp3	ba	ga	1	left
6.6.1	mac	2023-07-12	20:05:26	20:16:53	683528	611409d13bdb227076c9426b	1	1	main_slash	24	advance_on_keypress_SLASH	58	stimuli_distractor_diamondtriangles.svg	stimuli_target_trianglesquares.svg	30	yes	57	0	391	6	4	antiphase_hc_sio.wav	1	6	5	noise_calib_stim_RIGHT.wav	2	3	blb_dichoticlistening_ba-ga.mp3	ba	ga	1	left
6.6.1	mac	2023-07-12	20:05:26	20:16:54	684946	611409d13bdb227076c9426b	1	1	main_slash	24	main_slash	59	stimuli_distractor_diamondtriangles.svg	stimuli_target_squaretriangles.svg	15	yes	53	1	388	6	4	antiphase_hc_sio.wav	1	6	5	noise_calib_stim_RIGHT.wav	2	3	blb_dichoticlistening_ba-ga.mp3	ba	ga	1	left
6.6.1	mac	2023-07-12	20:05:26	20:16:54	684946	611409d13bdb227076c9426b	1	1	main_slash	24	advance_on_keypress_SLASH	60	stimuli_distractor_diamondtriangles.svg	stimuli_target_squaretriangles.svg	15	yes	57	0	448	6	4	antiphase_hc_sio.wav	1	6	5	noise_calib_stim_RIGHT.wav	2	3	blb_dichoticlistening_ba-ga.mp3	ba	ga	1	left
6.6.1	mac	2023-07-12	20:05:26	20:16:56	686632	611409d13bdb227076c9426b	1	1	main_slash	24	main_slash	61	stimuli_target_diamondrectangles.svg	stimuli_distractor_diamondtriangles.svg	23	yes	53	1	601	6	4	antiphase_hc_sio.wav	1	6	5	noise_calib_stim_RIGHT.wav	2	3	blb_dichoticlistening_ba-ga.mp3	ba	ga	1	left
6.6.1	mac	2023-07-12	20:05:26	20:16:56	686632	611409d13bdb227076c9426b	1	1	main_slash	24	advance_on_keypress_SLASH	62	stimuli_target_diamondrectangles.svg	stimuli_distractor_diamondtriangles.svg	23	yes	57	0	463	6	4	antiphase_hc_sio.wav	1	6	5	noise_calib_stim_RIGHT.wav	2	3	blb_dichoticlistening_ba-ga.mp3	ba	ga	1	left
6.6.1	mac	2023-07-12	20:05:26	20:16:57	688300	611409d13bdb227076c9426b	1	1	main_slash	24	main_slash	63	stimuli_target_diamondsquares.svg	stimuli_distractor_diamondtriangles.svg	24	yes	53	1	550	6	4	antiphase_hc_sio.wav	1	6	5	noise_calib_stim_RIGHT.wav	2	3	blb_dichoticlistening_ba-ga.mp3	ba	ga	1	left
6.6.1	mac	2023-07-12	20:05:26	20:16:57	688300	611409d13bdb227076c9426b	1	1	main_slash	24	advance_on_keypress_SLASH	64	stimuli_target_diamondsquares.svg	stimuli_distractor_diamondtriangles.svg	24	yes	57	0	365	6	4	antiphase_hc_sio.wav	1	6	5	noise_calib_stim_RIGHT.wav	2	3	blb_dichoticlistening_ba-ga.mp3	ba	ga	1	left
6.6.1	mac	2023-07-12	20:05:26	20:16:59	690119	611409d13bdb227076c9426b	1	1	main_slash	24	main_slash	65	stimuli_distractor_trianglediamonds.svg	stimuli_target_rectangletriangles.svg	9	yes	53	1	812	6	4	antiphase_hc_sio.wav	1	6	5	noise_calib_stim_RIGHT.wav	2	3	blb_dichoticlistening_ba-ga.mp3	ba	ga	1	left
6.6.1	mac	2023-07-12	20:05:26	20:16:59	690119	611409d13bdb227076c9426b	1	1	main_slash	24	advance_on_keypress_SLASH	66	stimuli_distractor_trianglediamonds.svg	stimuli_target_rectangletriangles.svg	9	yes	57	0	400	6	4	antiphase_hc_sio.wav	1	6	5	noise_calib_stim_RIGHT.wav	2	3	blb_dichoticlistening_ba-ga.mp3	ba	ga	1	left
6.6.1	mac	2023-07-12	20:05:26	20:17:02	693162	611409d13bdb227076c9426b	1	1	main_slash	24	main_slash	67	stimuli_distractor_diamondtriangles.svg	stimuli_distractor_trianglediamonds.svg	38	no	0	1	2000	6	4	antiphase_hc_sio.wav	1	6	5	noise_calib_stim_RIGHT.wav	2	3	blb_dichoticlistening_ba-ga.mp3	ba	ga	1	left
6.6.1	mac	2023-07-12	20:05:26	20:17:02	693162	611409d13bdb227076c9426b	1	1	main_slash	24	advance_on_keypress_SLASH	68	stimuli_distractor_diamondtriangles.svg	stimuli_distractor_trianglediamonds.svg	38	no	57	0	448	6	4	antiphase_hc_sio.wav	1	6	5	noise_calib_stim_RIGHT.wav	2	3	blb_dichoticlistening_ba-ga.mp3	ba	ga	1	left
6.6.1	mac	2023-07-12	20:05:26	20:17:04	694757	611409d13bdb227076c9426b	1	1	main_slash	24	main_slash	69	stimuli_distractor_trianglediamonds.svg	stimuli_target_trianglesquares.svg	26	yes	53	1	503	6	4	antiphase_hc_sio.wav	1	6	5	noise_calib_stim_RIGHT.wav	2	3	blb_dichoticlistening_ba-ga.mp3	ba	ga	1	left
6.6.1	mac	2023-07-12	20:05:26	20:17:04	694757	611409d13bdb227076c9426b	1	1	main_slash	24	advance_on_keypress_SLASH	70	stimuli_distractor_trianglediamonds.svg	stimuli_target_trianglesquares.svg	26	yes	57	0	369	6	4	antiphase_hc_sio.wav	1	6	5	noise_calib_stim_RIGHT.wav	2	3	blb_dichoticlistening_ba-ga.mp3	ba	ga	1	left
6.6.1	mac	2023-07-12	20:05:26	20:17:05	696501	611409d13bdb227076c9426b	1	1	main_slash	24	main_slash	71	stimuli_distractor_diamondtriangles.svg	stimuli_target_diamondsquares.svg	32	yes	53	1	729	6	4	antiphase_hc_sio.wav	1	6	5	noise_calib_stim_RIGHT.wav	2	3	blb_dichoticlistening_ba-ga.mp3	ba	ga	1	left
6.6.1	mac	2023-07-12	20:05:26	20:17:05	696501	611409d13bdb227076c9426b	1	1	main_slash	24	advance_on_keypress_SLASH	72	stimuli_distractor_diamondtriangles.svg	stimuli_target_diamondsquares.svg	32	yes	57	0	338	6	4	antiphase_hc_sio.wav	1	6	5	noise_calib_stim_RIGHT.wav	2	3	blb_dichoticlistening_ba-ga.mp3	ba	ga	1	left
6.6.1	mac	2023-07-12	20:05:26	20:17:07	698018	611409d13bdb227076c9426b	1	1	main_slash	24	main_slash	73	stimuli_target_trianglesquares.svg	stimuli_distractor_trianglediamonds.svg	18	yes	53	1	542	6	4	antiphase_hc_sio.wav	1	6	5	noise_calib_stim_RIGHT.wav	2	3	blb_dichoticlistening_ba-ga.mp3	ba	ga	1	left
6.6.1	mac	2023-07-12	20:05:26	20:17:07	698018	611409d13bdb227076c9426b	1	1	main_slash	24	advance_on_keypress_SLASH	74	stimuli_target_trianglesquares.svg	stimuli_distractor_trianglediamonds.svg	18	yes	57	0	418	6	4	antiphase_hc_sio.wav	1	6	5	noise_calib_stim_RIGHT.wav	2	3	blb_dichoticlistening_ba-ga.mp3	ba	ga	1	left
6.6.1	mac	2023-07-12	20:05:26	20:17:09	699747	611409d13bdb227076c9426b	1	1	main_slash	24	main_slash	75	stimuli_target_trianglerectangles.svg	stimuli_distractor_trianglediamonds.svg	17	yes	53	1	663	6	4	antiphase_hc_sio.wav	1	6	5	noise_calib_stim_RIGHT.wav	2	3	blb_dichoticlistening_ba-ga.mp3	ba	ga	1	left
6.6.1	mac	2023-07-12	20:05:26	20:17:09	699747	611409d13bdb227076c9426b	1	1	main_slash	24	advance_on_keypress_SLASH	76	stimuli_target_trianglerectangles.svg	stimuli_distractor_trianglediamonds.svg	17	yes	57	0	312	6	4	antiphase_hc_sio.wav	1	6	5	noise_calib_stim_RIGHT.wav	2	3	blb_dichoticlistening_ba-ga.mp3	ba	ga	1	left
6.6.1	mac	2023-07-12	20:05:26	20:17:10	701414	611409d13bdb227076c9426b	1	1	main_slash	24	main_slash	77	stimuli_target_squaretriangles.svg	stimuli_distractor_trianglediamonds.svg	3	yes	53	1	710	6	4	antiphase_hc_sio.wav	1	6	5	noise_calib_stim_RIGHT.wav	2	3	blb_dichoticlistening_ba-ga.mp3	ba	ga	1	left
6.6.1	mac	2023-07-12	20:05:26	20:17:10	701414	611409d13bdb227076c9426b	1	1	main_slash	24	advance_on_keypress_SLASH	78	stimuli_target_squaretriangles.svg	stimuli_distractor_trianglediamonds.svg	3	yes	57	0	234	6	4	antiphase_hc_sio.wav	1	6	5	noise_calib_stim_RIGHT.wav	2	3	blb_dichoticlistening_ba-ga.mp3	ba	ga	1	left
6.6.1	mac	2023-07-12	20:05:26	20:17:12	702758	611409d13bdb227076c9426b	1	1	main_slash	24	main_slash	79	stimuli_target_squarediamonds.svg	stimuli_distractor_trianglediamonds.svg	4	yes	53	1	463	6	4	antiphase_hc_sio.wav	1	6	5	noise_calib_stim_RIGHT.wav	2	3	blb_dichoticlistening_ba-ga.mp3	ba	ga	1	left
6.6.1	mac	2023-07-12	20:05:26	20:17:12	702758	611409d13bdb227076c9426b	1	1	main_slash	24	advance_on_keypress_SLASH	80	stimuli_target_squarediamonds.svg	stimuli_distractor_trianglediamonds.svg	4	yes	57	0	306	6	4	antiphase_hc_sio.wav	1	6	5	noise_calib_stim_RIGHT.wav	2	3	blb_dichoticlistening_ba-ga.mp3	ba	ga	1	left
6.6.1	mac	2023-07-12	20:05:26	20:17:14	704742	611409d13bdb227076c9426b	1	1	main_slash	24	main_slash	81	stimuli_distractor_trianglediamonds.svg	stimuli_target_trianglerectangles.svg	25	yes	53	1	1042	6	4	antiphase_hc_sio.wav	1	6	5	noise_calib_stim_RIGHT.wav	2	3	blb_dichoticlistening_ba-ga.mp3	ba	ga	1	left
6.6.1	mac	2023-07-12	20:05:26	20:17:14	704742	611409d13bdb227076c9426b	1	1	main_slash	24	advance_on_keypress_SLASH	82	stimuli_distractor_trianglediamonds.svg	stimuli_target_trianglerectangles.svg	25	yes	57	0	444	6	4	antiphase_hc_sio.wav	1	6	5	noise_calib_stim_RIGHT.wav	2	3	blb_dichoticlistening_ba-ga.mp3	ba	ga	1	left
6.6.1	mac	2023-07-12	20:05:26	20:17:15	706225	611409d13bdb227076c9426b	1	1	main_slash	24	main_slash	83	stimuli_target_squaretriangles.svg	stimuli_distractor_trianglediamonds.svg	3	yes	53	1	410	6	4	antiphase_hc_sio.wav	1	6	5	noise_calib_stim_RIGHT.wav	2	3	blb_dichoticlistening_ba-ga.mp3	ba	ga	1	left
6.6.1	mac	2023-07-12	20:05:26	20:17:15	706225	611409d13bdb227076c9426b	1	1	main_slash	24	advance_on_keypress_SLASH	84	stimuli_target_squaretriangles.svg	stimuli_distractor_trianglediamonds.svg	3	yes	57	0	337	6	4	antiphase_hc_sio.wav	1	6	5	noise_calib_stim_RIGHT.wav	2	3	blb_dichoticlistening_ba-ga.mp3	ba	ga	1	left
6.6.1	mac	2023-07-12	20:05:26	20:17:17	707681	611409d13bdb227076c9426b	1	1	main_slash	24	main_slash	85	stimuli_distractor_diamondtriangles.svg	stimuli_target_squarediamonds.svg	16	yes	53	1	483	6	4	antiphase_hc_sio.wav	1	6	5	noise_calib_stim_RIGHT.wav	2	3	blb_dichoticlistening_ba-ga.mp3	ba	ga	1	left
6.6.1	mac	2023-07-12	20:05:26	20:17:17	707681	611409d13bdb227076c9426b	1	1	main_slash	24	advance_on_keypress_SLASH	86	stimuli_distractor_diamondtriangles.svg	stimuli_target_squarediamonds.svg	16	yes	57	0	290	6	4	antiphase_hc_sio.wav	1	6	5	noise_calib_stim_RIGHT.wav	2	3	blb_dichoticlistening_ba-ga.mp3	ba	ga	1	left
6.6.1	mac	2023-07-12	20:05:26	20:17:18	709367	611409d13bdb227076c9426b	1	1	main_slash	24	main_slash	87	stimuli_target_trianglesquares.svg	stimuli_distractor_diamondtriangles.svg	22	yes	53	1	752	6	4	antiphase_hc_sio.wav	1	6	5	noise_calib_stim_RIGHT.wav	2	3	blb_dichoticlistening_ba-ga.mp3	ba	ga	1	left
6.6.1	mac	2023-07-12	20:05:26	20:17:18	709367	611409d13bdb227076c9426b	1	1	main_slash	24	advance_on_keypress_SLASH	88	stimuli_target_trianglesquares.svg	stimuli_distractor_diamondtriangles.svg	22	yes	57	0	325	6	4	antiphase_hc_sio.wav	1	6	5	noise_calib_stim_RIGHT.wav	2	3	blb_dichoticlistening_ba-ga.mp3	ba	ga	1	left
6.6.1	mac	2023-07-12	20:05:26	20:17:20	710934	611409d13bdb227076c9426b	1	1	main_slash	24	main_slash	89	stimuli_target_rectanglediamonds.svg	stimuli_distractor_diamondtriangles.svg	6	yes	53	1	613	6	4	antiphase_hc_sio.wav	1	6	5	noise_calib_stim_RIGHT.wav	2	3	blb_dichoticlistening_ba-ga.mp3	ba	ga	1	left
6.6.1	mac	2023-07-12	20:05:26	20:17:20	710934	611409d13bdb227076c9426b	1	1	main_slash	24	advance_on_keypress_SLASH	90	stimuli_target_rectanglediamonds.svg	stimuli_distractor_diamondtriangles.svg	6	yes	57	0	304	6	4	antiphase_hc_sio.wav	1	6	5	noise_calib_stim_RIGHT.wav	2	3	blb_dichoticlistening_ba-ga.mp3	ba	ga	1	left
6.6.1	mac	2023-07-12	20:05:26	20:17:21	712373	611409d13bdb227076c9426b	1	1	main_slash	24	main_slash	91	stimuli_target_squaretriangles.svg	stimuli_distractor_diamondtriangles.svg	7	yes	53	1	495	6	4	antiphase_hc_sio.wav	1	6	5	noise_calib_stim_RIGHT.wav	2	3	blb_dichoticlistening_ba-ga.mp3	ba	ga	1	left
6.6.1	mac	2023-07-12	20:05:26	20:17:21	712373	611409d13bdb227076c9426b	1	1	main_slash	24	advance_on_keypress_SLASH	92	stimuli_target_squaretriangles.svg	stimuli_distractor_diamondtriangles.svg	7	yes	57	0	226	6	4	antiphase_hc_sio.wav	1	6	5	noise_calib_stim_RIGHT.wav	2	3	blb_dichoticlistening_ba-ga.mp3	ba	ga	1	left
6.6.1	mac	2023-07-12	20:05:26	20:17:23	713917	611409d13bdb227076c9426b	1	1	main_slash	24	main_slash	93	stimuli_distractor_trianglediamonds.svg	stimuli_target_squarediamonds.svg	12	yes	53	1	669	6	4	antiphase_hc_sio.wav	1	6	5	noise_calib_stim_RIGHT.wav	2	3	blb_dichoticlistening_ba-ga.mp3	ba	ga	1	left
6.6.1	mac	2023-07-12	20:05:26	20:17:23	713917	611409d13bdb227076c9426b	1	1	main_slash	24	advance_on_keypress_SLASH	94	stimuli_distractor_trianglediamonds.svg	stimuli_target_squarediamonds.svg	12	yes	57	0	291	6	4	antiphase_hc_sio.wav	1	6	5	noise_calib_stim_RIGHT.wav	2	3	blb_dichoticlistening_ba-ga.mp3	ba	ga	1	left
6.6.1	mac	2023-07-12	20:05:26	20:17:26	716837	611409d13bdb227076c9426b	1	1	main_slash	24	main_slash	95	stimuli_distractor_diamondtriangles.svg	stimuli_target_diamondsquares.svg	32	yes	0	0	2000	6	4	antiphase_hc_sio.wav	1	6	5	noise_calib_stim_RIGHT.wav	2	3	blb_dichoticlistening_ba-ga.mp3	ba	ga	1	left
6.6.1	mac	2023-07-12	20:05:26	20:17:26	716837	611409d13bdb227076c9426b	1	1	main_slash	24	advance_on_keypress_SLASH	96	stimuli_distractor_diamondtriangles.svg	stimuli_target_diamondsquares.svg	32	yes	57	0	627	6	4	antiphase_hc_sio.wav	1	6	5	noise_calib_stim_RIGHT.wav	2	3	blb_dichoticlistening_ba-ga.mp3	ba	ga	1	left
6.6.1	mac	2023-07-12	20:05:26	20:17:28	718817	611409d13bdb227076c9426b	1	1	main_slash	24	main_slash	97	stimuli_distractor_trianglediamonds.svg	stimuli_distractor_trianglediamonds.svg	34	no	53	0	707	6	4	antiphase_hc_sio.wav	1	6	5	noise_calib_stim_RIGHT.wav	2	3	blb_dichoticlistening_ba-ga.mp3	ba	ga	1	left
6.6.1	mac	2023-07-12	20:05:26	20:17:28	718817	611409d13bdb227076c9426b	1	1	main_slash	24	advance_on_keypress_SLASH	98	stimuli_distractor_trianglediamonds.svg	stimuli_distractor_trianglediamonds.svg	34	no	57	0	398	6	4	antiphase_hc_sio.wav	1	6	5	noise_calib_stim_RIGHT.wav	2	3	blb_dichoticlistening_ba-ga.mp3	ba	ga	1	left
6.6.1	mac	2023-07-12	20:05:26	20:17:29	720236	611409d13bdb227076c9426b	1	1	main_slash	24	main_slash	99	stimuli_distractor_trianglediamonds.svg	stimuli_target_rectangletriangles.svg	9	yes	53	1	374	6	4	antiphase_hc_sio.wav	1	6	5	noise_calib_stim_RIGHT.wav	2	3	blb_dichoticlistening_ba-ga.mp3	ba	ga	1	left
6.6.1	mac	2023-07-12	20:05:26	20:17:29	720236	611409d13bdb227076c9426b	1	1	main_slash	24	advance_on_keypress_SLASH	100	stimuli_distractor_trianglediamonds.svg	stimuli_target_rectangletriangles.svg	9	yes	57	0	273	6	4	antiphase_hc_sio.wav	1	6	5	noise_calib_stim_RIGHT.wav	2	3	blb_dichoticlistening_ba-ga.mp3	ba	ga	1	left
6.6.1	mac	2023-07-12	20:05:26	20:17:31	721832	611409d13bdb227076c9426b	1	1	main_slash	24	main_slash	101	stimuli_target_diamondrectangles.svg	stimuli_distractor_trianglediamonds.svg	19	yes	53	1	671	6	4	antiphase_hc_sio.wav	1	6	5	noise_calib_stim_RIGHT.wav	2	3	blb_dichoticlistening_ba-ga.mp3	ba	ga	1	left
6.6.1	mac	2023-07-12	20:05:26	20:17:31	721832	611409d13bdb227076c9426b	1	1	main_slash	24	advance_on_keypress_SLASH	102	stimuli_target_diamondrectangles.svg	stimuli_distractor_trianglediamonds.svg	19	yes	57	0	346	6	4	antiphase_hc_sio.wav	1	6	5	noise_calib_stim_RIGHT.wav	2	3	blb_dichoticlistening_ba-ga.mp3	ba	ga	1	left
6.6.1	mac	2023-07-12	20:05:26	20:17:32	723242	611409d13bdb227076c9426b	1	1	main_slash	24	main_slash	103	stimuli_distractor_diamondtriangles.svg	stimuli_target_rectanglediamonds.svg	14	yes	53	1	412	6	4	antiphase_hc_sio.wav	1	6	5	noise_calib_stim_RIGHT.wav	2	3	blb_dichoticlistening_ba-ga.mp3	ba	ga	1	left
6.6.1	mac	2023-07-12	20:05:26	20:17:32	723242	611409d13bdb227076c9426b	1	1	main_slash	24	advance_on_keypress_SLASH	104	stimuli_distractor_diamondtriangles.svg	stimuli_target_rectanglediamonds.svg	14	yes	57	0	272	6	4	antiphase_hc_sio.wav	1	6	5	noise_calib_stim_RIGHT.wav	2	3	blb_dichoticlistening_ba-ga.mp3	ba	ga	1	left
6.6.1	mac	2023-07-12	20:05:26	20:17:34	724568	611409d13bdb227076c9426b	1	1	main_slash	24	main_slash	105	stimuli_target_squarediamonds.svg	stimuli_distractor_diamondtriangles.svg	8	yes	53	1	422	6	4	antiphase_hc_sio.wav	1	6	5	noise_calib_stim_RIGHT.wav	2	3	blb_dichoticlistening_ba-ga.mp3	ba	ga	1	left
6.6.1	mac	2023-07-12	20:05:26	20:17:34	724568	611409d13bdb227076c9426b	1	1	main_slash	24	advance_on_keypress_SLASH	106	stimuli_target_squarediamonds.svg	stimuli_distractor_diamondtriangles.svg	8	yes	57	0	267	6	4	antiphase_hc_sio.wav	1	6	5	noise_calib_stim_RIGHT.wav	2	3	blb_dichoticlistening_ba-ga.mp3	ba	ga	1	left
6.6.1	mac	2023-07-12	20:05:26	20:17:35	726095	611409d13bdb227076c9426b	1	1	main_slash	24	main_slash	107	stimuli_distractor_trianglediamonds.svg	stimuli_target_rectanglediamonds.svg	10	yes	53	1	614	6	4	antiphase_hc_sio.wav	1	6	5	noise_calib_stim_RIGHT.wav	2	3	blb_dichoticlistening_ba-ga.mp3	ba	ga	1	left
6.6.1	mac	2023-07-12	20:05:26	20:17:35	726095	611409d13bdb227076c9426b	1	1	main_slash	24	advance_on_keypress_SLASH	108	stimuli_distractor_trianglediamonds.svg	stimuli_target_rectanglediamonds.svg	10	yes	57	0	345	6	4	antiphase_hc_sio.wav	1	6	5	noise_calib_stim_RIGHT.wav	2	3	blb_dichoticlistening_ba-ga.mp3	ba	ga	1	left
6.6.1	mac	2023-07-12	20:05:26	20:17:37	727728	611409d13bdb227076c9426b	1	1	main_slash	24	main_slash	109	stimuli_distractor_diamondtriangles.svg	stimuli_target_diamondrectangles.svg	31	yes	53	1	644	6	4	antiphase_hc_sio.wav	1	6	5	noise_calib_stim_RIGHT.wav	2	3	blb_dichoticlistening_ba-ga.mp3	ba	ga	1	left
6.6.1	mac	2023-07-12	20:05:26	20:17:37	727728	611409d13bdb227076c9426b	1	1	main_slash	24	advance_on_keypress_SLASH	110	stimuli_distractor_diamondtriangles.svg	stimuli_target_diamondrectangles.svg	31	yes	57	0	274	6	4	antiphase_hc_sio.wav	1	6	5	noise_calib_stim_RIGHT.wav	2	3	blb_dichoticlistening_ba-ga.mp3	ba	ga	1	left
6.6.1	mac	2023-07-12	20:05:26	20:17:38	729369	611409d13bdb227076c9426b	1	1	main_slash	24	main_slash	111	stimuli_distractor_trianglediamonds.svg	stimuli_target_diamondrectangles.svg	27	yes	53	1	731	6	4	antiphase_hc_sio.wav	1	6	5	noise_calib_stim_RIGHT.wav	2	3	blb_dichoticlistening_ba-ga.mp3	ba	ga	1	left
6.6.1	mac	2023-07-12	20:05:26	20:17:38	729369	611409d13bdb227076c9426b	1	1	main_slash	24	advance_on_keypress_SLASH	112	stimuli_distractor_trianglediamonds.svg	stimuli_target_diamondrectangles.svg	27	yes	57	0	299	6	4	antiphase_hc_sio.wav	1	6	5	noise_calib_stim_RIGHT.wav	2	3	blb_dichoticlistening_ba-ga.mp3	ba	ga	1	left
6.6.1	mac	2023-07-12	20:05:26	20:17:41	732310	611409d13bdb227076c9426b	1	1	main_slash	24	main_slash	113	stimuli_distractor_diamondtriangles.svg	stimuli_distractor_trianglediamonds.svg	37	no	0	1	2000	6	4	antiphase_hc_sio.wav	1	6	5	noise_calib_stim_RIGHT.wav	2	3	blb_dichoticlistening_ba-ga.mp3	ba	ga	1	left
6.6.1	mac	2023-07-12	20:05:26	20:17:41	732310	611409d13bdb227076c9426b	1	1	main_slash	24	advance_on_keypress_SLASH	114	stimuli_distractor_diamondtriangles.svg	stimuli_distractor_trianglediamonds.svg	37	no	57	0	348	6	4	antiphase_hc_sio.wav	1	6	5	noise_calib_stim_RIGHT.wav	2	3	blb_dichoticlistening_ba-ga.mp3	ba	ga	1	left
6.6.1	mac	2023-07-12	20:05:26	20:17:43	733871	611409d13bdb227076c9426b	1	1	main_slash	24	main_slash	115	stimuli_distractor_trianglediamonds.svg	stimuli_distractor_trianglediamonds.svg	33	no	53	0	563	6	4	antiphase_hc_sio.wav	1	6	5	noise_calib_stim_RIGHT.wav	2	3	blb_dichoticlistening_ba-ga.mp3	ba	ga	1	left
6.6.1	mac	2023-07-12	20:05:26	20:17:43	733871	611409d13bdb227076c9426b	1	1	main_slash	24	advance_on_keypress_SLASH	116	stimuli_distractor_trianglediamonds.svg	stimuli_distractor_trianglediamonds.svg	33	no	57	0	265	6	4	antiphase_hc_sio.wav	1	6	5	noise_calib_stim_RIGHT.wav	2	3	blb_dichoticlistening_ba-ga.mp3	ba	ga	1	left
6.6.1	mac	2023-07-12	20:05:26	20:17:44	735087	611409d13bdb227076c9426b	1	1	main_slash	24	main_slash	117	stimuli_target_rectangletriangles.svg	stimuli_distractor_trianglediamonds.svg	1	yes	53	1	310	6	4	antiphase_hc_sio.wav	1	6	5	noise_calib_stim_RIGHT.wav	2	3	blb_dichoticlistening_ba-ga.mp3	ba	ga	1	left
6.6.1	mac	2023-07-12	20:05:26	20:17:44	735087	611409d13bdb227076c9426b	1	1	main_slash	24	advance_on_keypress_SLASH	118	stimuli_target_rectangletriangles.svg	stimuli_distractor_trianglediamonds.svg	1	yes	57	0	330	6	4	antiphase_hc_sio.wav	1	6	5	noise_calib_stim_RIGHT.wav	2	3	blb_dichoticlistening_ba-ga.mp3	ba	ga	1	left
6.6.1	mac	2023-07-12	20:05:26	20:17:45	736444	611409d13bdb227076c9426b	1	1	main_slash	24	main_slash	119	stimuli_target_rectangletriangles.svg	stimuli_distractor_diamondtriangles.svg	5	yes	53	1	386	6	4	antiphase_hc_sio.wav	1	6	5	noise_calib_stim_RIGHT.wav	2	3	blb_dichoticlistening_ba-ga.mp3	ba	ga	1	left
6.6.1	mac	2023-07-12	20:05:26	20:17:45	736444	611409d13bdb227076c9426b	1	1	main_slash	24	advance_on_keypress_SLASH	120	stimuli_target_rectangletriangles.svg	stimuli_distractor_diamondtriangles.svg	5	yes	57	0	274	6	4	antiphase_hc_sio.wav	1	6	5	noise_calib_stim_RIGHT.wav	2	3	blb_dichoticlistening_ba-ga.mp3	ba	ga	1	left
6.6.1	mac	2023-07-12	20:05:26	20:17:47	737771	611409d13bdb227076c9426b	1	1	main_slash	24	main_slash	121	stimuli_target_rectanglediamonds.svg	stimuli_distractor_trianglediamonds.svg	2	yes	53	1	391	6	4	antiphase_hc_sio.wav	1	6	5	noise_calib_stim_RIGHT.wav	2	3	blb_dichoticlistening_ba-ga.mp3	ba	ga	1	left
6.6.1	mac	2023-07-12	20:05:26	20:17:47	737771	611409d13bdb227076c9426b	1	1	main_slash	24	advance_on_keypress_SLASH	122	stimuli_target_rectanglediamonds.svg	stimuli_distractor_trianglediamonds.svg	2	yes	57	0	272	6	4	antiphase_hc_sio.wav	1	6	5	noise_calib_stim_RIGHT.wav	2	3	blb_dichoticlistening_ba-ga.mp3	ba	ga	1	left
6.6.1	mac	2023-07-12	20:05:26	20:17:48	739387	611409d13bdb227076c9426b	1	1	main_slash	24	main_slash	123	stimuli_target_diamondrectangles.svg	stimuli_distractor_diamondtriangles.svg	23	yes	53	1	706	6	4	antiphase_hc_sio.wav	1	6	5	noise_calib_stim_RIGHT.wav	2	3	blb_dichoticlistening_ba-ga.mp3	ba	ga	1	left
6.6.1	mac	2023-07-12	20:05:26	20:17:48	739387	611409d13bdb227076c9426b	1	1	main_slash	24	advance_on_keypress_SLASH	124	stimuli_target_diamondrectangles.svg	stimuli_distractor_diamondtriangles.svg	23	yes	57	0	401	6	4	antiphase_hc_sio.wav	1	6	5	noise_calib_stim_RIGHT.wav	2	3	blb_dichoticlistening_ba-ga.mp3	ba	ga	1	left
6.6.1	mac	2023-07-12	20:05:26	20:17:51	742429	611409d13bdb227076c9426b	1	1	main_slash	24	main_slash	125	stimuli_distractor_trianglediamonds.svg	stimuli_distractor_diamondtriangles.svg	35	no	0	1	2000	6	4	antiphase_hc_sio.wav	1	6	5	noise_calib_stim_RIGHT.wav	2	3	blb_dichoticlistening_ba-ga.mp3	ba	ga	1	left
6.6.1	mac	2023-07-12	20:05:26	20:17:51	742429	611409d13bdb227076c9426b	1	1	main_slash	24	advance_on_keypress_SLASH	126	stimuli_distractor_trianglediamonds.svg	stimuli_distractor_diamondtriangles.svg	35	no	57	0	488	6	4	antiphase_hc_sio.wav	1	6	5	noise_calib_stim_RIGHT.wav	2	3	blb_dichoticlistening_ba-ga.mp3	ba	ga	1	left
6.6.1	mac	2023-07-12	20:05:26	20:17:53	743820	611409d13bdb227076c9426b	1	1	main_slash	24	main_slash	127	stimuli_distractor_diamondtriangles.svg	stimuli_target_trianglesquares.svg	30	yes	53	1	258	6	4	antiphase_hc_sio.wav	1	6	5	noise_calib_stim_RIGHT.wav	2	3	blb_dichoticlistening_ba-ga.mp3	ba	ga	1	left
6.6.1	mac	2023-07-12	20:05:26	20:17:53	743820	611409d13bdb227076c9426b	1	1	main_slash	24	advance_on_keypress_SLASH	128	stimuli_distractor_diamondtriangles.svg	stimuli_target_trianglesquares.svg	30	yes	57	0	265	6	4	antiphase_hc_sio.wav	1	6	5	noise_calib_stim_RIGHT.wav	2	3	blb_dichoticlistening_ba-ga.mp3	ba	ga	1	left
6.6.1	mac	2023-07-12	20:05:26	20:17:55	745593	611409d13bdb227076c9426b	1	1	main_slash	24	main_slash	129	stimuli_target_trianglerectangles.svg	stimuli_distractor_diamondtriangles.svg	21	yes	53	1	868	6	4	antiphase_hc_sio.wav	1	6	5	noise_calib_stim_RIGHT.wav	2	3	blb_dichoticlistening_ba-ga.mp3	ba	ga	1	left
6.6.1	mac	2023-07-12	20:05:26	20:17:55	745593	611409d13bdb227076c9426b	1	1	main_slash	24	advance_on_keypress_SLASH	130	stimuli_target_trianglerectangles.svg	stimuli_distractor_diamondtriangles.svg	21	yes	57	0	1011	6	4	antiphase_hc_sio.wav	1	6	5	noise_calib_stim_RIGHT.wav	2	3	blb_dichoticlistening_ba-ga.mp3	ba	ga	1	left
6.6.1	mac	2023-07-12	20:05:26	20:17:57	747563	611409d13bdb227076c9426b	1	1	main_slash	24	main_slash	131	stimuli_distractor_diamondtriangles.svg	stimuli_target_trianglerectangles.svg	29	yes	53	1	320	6	4	antiphase_hc_sio.wav	1	6	5	noise_calib_stim_RIGHT.wav	2	3	blb_dichoticlistening_ba-ga.mp3	ba	ga	1	left
6.6.1	mac	2023-07-12	20:05:26	20:17:57	747563	611409d13bdb227076c9426b	1	1	main_slash	24	advance_on_keypress_SLASH	132	stimuli_distractor_diamondtriangles.svg	stimuli_target_trianglerectangles.svg	29	yes	57	0	515	6	4	antiphase_hc_sio.wav	1	6	5	noise_calib_stim_RIGHT.wav	2	3	blb_dichoticlistening_ba-ga.mp3	ba	ga	1	left
6.6.1	mac	2023-07-12	20:05:26	20:17:59	749677	611409d13bdb227076c9426b	1	1	main_slash	24	main_slash	133	stimuli_distractor_trianglediamonds.svg	stimuli_target_diamondsquares.svg	28	yes	53	1	957	6	4	antiphase_hc_sio.wav	1	6	5	noise_calib_stim_RIGHT.wav	2	3	blb_dichoticlistening_ba-ga.mp3	ba	ga	1	left
6.6.1	mac	2023-07-12	20:05:26	20:17:59	749677	611409d13bdb227076c9426b	1	1	main_slash	24	advance_on_keypress_SLASH	134	stimuli_distractor_trianglediamonds.svg	stimuli_target_diamondsquares.svg	28	yes	57	0	306	6	4	antiphase_hc_sio.wav	1	6	5	noise_calib_stim_RIGHT.wav	2	3	blb_dichoticlistening_ba-ga.mp3	ba	ga	1	left
6.6.1	mac	2023-07-12	20:05:26	20:18:02	752620	611409d13bdb227076c9426b	1	1	main_slash	24	main_slash	135	stimuli_distractor_diamondtriangles.svg	stimuli_distractor_diamondtriangles.svg	40	no	0	1	2000	6	4	antiphase_hc_sio.wav	1	6	5	noise_calib_stim_RIGHT.wav	2	3	blb_dichoticlistening_ba-ga.mp3	ba	ga	1	left
6.6.1	mac	2023-07-12	20:05:26	20:18:02	752620	611409d13bdb227076c9426b	1	1	main_slash	24	advance_on_keypress_SLASH	136	stimuli_distractor_diamondtriangles.svg	stimuli_distractor_diamondtriangles.svg	40	no	57	0	511	6	4	antiphase_hc_sio.wav	1	6	5	noise_calib_stim_RIGHT.wav	2	3	blb_dichoticlistening_ba-ga.mp3	ba	ga	1	left
6.6.1	mac	2023-07-12	20:05:26	20:18:05	755764	611409d13bdb227076c9426b	1	1	main_slash	24	main_slash	137	stimuli_distractor_diamondtriangles.svg	stimuli_distractor_trianglediamonds.svg	38	no	0	1	2000	6	4	antiphase_hc_sio.wav	1	6	5	noise_calib_stim_RIGHT.wav	2	3	blb_dichoticlistening_ba-ga.mp3	ba	ga	1	left
6.6.1	mac	2023-07-12	20:05:26	20:18:05	755764	611409d13bdb227076c9426b	1	1	main_slash	24	advance_on_keypress_SLASH	138	stimuli_distractor_diamondtriangles.svg	stimuli_distractor_trianglediamonds.svg	38	no	57	0	571	6	4	antiphase_hc_sio.wav	1	6	5	noise_calib_stim_RIGHT.wav	2	3	blb_dichoticlistening_ba-ga.mp3	ba	ga	1	left
6.6.1	mac	2023-07-12	20:05:26	20:18:07	757611	611409d13bdb227076c9426b	1	1	main_slash	24	main_slash	139	stimuli_target_diamondsquares.svg	stimuli_distractor_trianglediamonds.svg	20	yes	53	1	626	6	4	antiphase_hc_sio.wav	1	6	5	noise_calib_stim_RIGHT.wav	2	3	blb_dichoticlistening_ba-ga.mp3	ba	ga	1	left
6.6.1	mac	2023-07-12	20:05:26	20:18:07	757611	611409d13bdb227076c9426b	1	1	main_slash	24	advance_on_keypress_SLASH	140	stimuli_target_diamondsquares.svg	stimuli_distractor_trianglediamonds.svg	20	yes	57	0	350	6	4	antiphase_hc_sio.wav	1	6	5	noise_calib_stim_RIGHT.wav	2	3	blb_dichoticlistening_ba-ga.mp3	ba	ga	1	left
6.6.1	mac	2023-07-12	20:05:26	20:18:08	758907	611409d13bdb227076c9426b	1	1	main_slash	24	main_slash	141	stimuli_target_diamondsquares.svg	stimuli_distractor_diamondtriangles.svg	24	yes	53	1	306	6	4	antiphase_hc_sio.wav	1	6	5	noise_calib_stim_RIGHT.wav	2	3	blb_dichoticlistening_ba-ga.mp3	ba	ga	1	left
6.6.1	mac	2023-07-12	20:05:26	20:18:08	758907	611409d13bdb227076c9426b	1	1	main_slash	24	advance_on_keypress_SLASH	142	stimuli_target_diamondsquares.svg	stimuli_distractor_diamondtriangles.svg	24	yes	57	0	329	6	4	antiphase_hc_sio.wav	1	6	5	noise_calib_stim_RIGHT.wav	2	3	blb_dichoticlistening_ba-ga.mp3	ba	ga	1	left
6.6.1	mac	2023-07-12	20:05:26	20:18:10	760536	611409d13bdb227076c9426b	1	1	main_slash	24	main_slash	143	stimuli_distractor_trianglediamonds.svg	stimuli_target_squaretriangles.svg	11	yes	53	1	650	6	4	antiphase_hc_sio.wav	1	6	5	noise_calib_stim_RIGHT.wav	2	3	blb_dichoticlistening_ba-ga.mp3	ba	ga	1	left
6.6.1	mac	2023-07-12	20:05:26	20:18:10	760536	611409d13bdb227076c9426b	1	1	main_slash	24	advance_on_keypress_SLASH	144	stimuli_distractor_trianglediamonds.svg	stimuli_target_squaretriangles.svg	11	yes	57	0	926	6	4	antiphase_hc_sio.wav	1	6	5	noise_calib_stim_RIGHT.wav	2	3	blb_dichoticlistening_ba-ga.mp3	ba	ga	1	left
6.6.1	mac	2023-07-12	20:05:26	20:18:13	764097	611409d13bdb227076c9426b	1	1	main_slash	24	main_slash	145	stimuli_distractor_diamondtriangles.svg	stimuli_target_rectangletriangles.svg	13	yes	0	0	2000	6	4	antiphase_hc_sio.wav	1	6	5	noise_calib_stim_RIGHT.wav	2	3	blb_dichoticlistening_ba-ga.mp3	ba	ga	1	left
6.6.1	mac	2023-07-12	20:05:26	20:18:13	764097	611409d13bdb227076c9426b	1	1	main_slash	24	advance_on_keypress_SLASH	146	stimuli_distractor_diamondtriangles.svg	stimuli_target_rectangletriangles.svg	13	yes	57	0	628	6	4	antiphase_hc_sio.wav	1	6	5	noise_calib_stim_RIGHT.wav	2	3	blb_dichoticlistening_ba-ga.mp3	ba	ga	1	left
6.6.1	mac	2023-07-12	20:05:26	20:18:15	765830	611409d13bdb227076c9426b	1	1	main_slash	24	main_slash	147	stimuli_distractor_trianglediamonds.svg	stimuli_target_trianglesquares.svg	26	yes	53	1	456	6	4	antiphase_hc_sio.wav	1	6	5	noise_calib_stim_RIGHT.wav	2	3	blb_dichoticlistening_ba-ga.mp3	ba	ga	1	left
6.6.1	mac	2023-07-12	20:05:26	20:18:15	765830	611409d13bdb227076c9426b	1	1	main_slash	24	advance_on_keypress_SLASH	148	stimuli_distractor_trianglediamonds.svg	stimuli_target_trianglesquares.svg	26	yes	57	0	320	6	4	antiphase_hc_sio.wav	1	6	5	noise_calib_stim_RIGHT.wav	2	3	blb_dichoticlistening_ba-ga.mp3	ba	ga	1	left
6.6.1	mac	2023-07-12	20:05:26	20:18:16	767353	611409d13bdb227076c9426b	1	1	main_slash	24	main_slash	149	stimuli_distractor_diamondtriangles.svg	stimuli_target_squaretriangles.svg	15	yes	53	1	570	6	4	antiphase_hc_sio.wav	1	6	5	noise_calib_stim_RIGHT.wav	2	3	blb_dichoticlistening_ba-ga.mp3	ba	ga	1	left
6.6.1	mac	2023-07-12	20:05:26	20:18:16	767353	611409d13bdb227076c9426b	1	1	main_slash	24	advance_on_keypress_SLASH	150	stimuli_distractor_diamondtriangles.svg	stimuli_target_squaretriangles.svg	15	yes	57	0	558	6	4	antiphase_hc_sio.wav	1	6	5	noise_calib_stim_RIGHT.wav	2	3	blb_dichoticlistening_ba-ga.mp3	ba	ga	1	left
6.6.1	mac	2023-07-12	20:05:26	20:18:18	769455	611409d13bdb227076c9426b	1	1	main_slash	24	main_slash	151	stimuli_distractor_trianglediamonds.svg	stimuli_distractor_diamondtriangles.svg	36	no	53	0	913	6	4	antiphase_hc_sio.wav	1	6	5	noise_calib_stim_RIGHT.wav	2	3	blb_dichoticlistening_ba-ga.mp3	ba	ga	1	left
6.6.1	mac	2023-07-12	20:05:26	20:18:18	769455	611409d13bdb227076c9426b	1	1	main_slash	24	advance_on_keypress_SLASH	152	stimuli_distractor_trianglediamonds.svg	stimuli_distractor_diamondtriangles.svg	36	no	57	0	608	6	4	antiphase_hc_sio.wav	1	6	5	noise_calib_stim_RIGHT.wav	2	3	blb_dichoticlistening_ba-ga.mp3	ba	ga	1	left
6.6.1	mac	2023-07-12	20:05:26	20:18:22	772705	611409d13bdb227076c9426b	1	1	main_slash	24	main_slash	153	stimuli_distractor_diamondtriangles.svg	stimuli_distractor_diamondtriangles.svg	39	no	0	1	2000	6	4	antiphase_hc_sio.wav	1	6	5	noise_calib_stim_RIGHT.wav	2	3	blb_dichoticlistening_ba-ga.mp3	ba	ga	1	left
6.6.1	mac	2023-07-12	20:05:26	20:18:22	772705	611409d13bdb227076c9426b	1	1	main_slash	24	advance_on_keypress_SLASH	154	stimuli_distractor_diamondtriangles.svg	stimuli_distractor_diamondtriangles.svg	39	no	57	0	506	6	4	antiphase_hc_sio.wav	1	6	5	noise_calib_stim_RIGHT.wav	2	3	blb_dichoticlistening_ba-ga.mp3	ba	ga	1	left
6.6.1	mac	2023-07-12	20:05:26	20:18:23	774178	611409d13bdb227076c9426b	1	1	main_slash	24	main_slash	155	stimuli_target_squarediamonds.svg	stimuli_distractor_trianglediamonds.svg	4	yes	53	1	328	6	4	antiphase_hc_sio.wav	1	6	5	noise_calib_stim_RIGHT.wav	2	3	blb_dichoticlistening_ba-ga.mp3	ba	ga	1	left
6.6.1	mac	2023-07-12	20:05:26	20:18:23	774178	611409d13bdb227076c9426b	1	1	main_slash	24	advance_on_keypress_SLASH	156	stimuli_target_squarediamonds.svg	stimuli_distractor_trianglediamonds.svg	4	yes	57	0	292	6	4	antiphase_hc_sio.wav	1	6	5	noise_calib_stim_RIGHT.wav	2	3	blb_dichoticlistening_ba-ga.mp3	ba	ga	1	left
6.6.1	mac	2023-07-12	20:05:26	20:18:25	775648	611409d13bdb227076c9426b	1	1	main_slash	24	main_slash	157	stimuli_target_trianglesquares.svg	stimuli_distractor_trianglediamonds.svg	18	yes	53	1	537	6	4	antiphase_hc_sio.wav	1	6	5	noise_calib_stim_RIGHT.wav	2	3	blb_dichoticlistening_ba-ga.mp3	ba	ga	1	left
6.6.1	mac	2023-07-12	20:05:26	20:18:25	775648	611409d13bdb227076c9426b	1	1	main_slash	24	advance_on_keypress_SLASH	158	stimuli_target_trianglesquares.svg	stimuli_distractor_trianglediamonds.svg	18	yes	57	0	236	6	4	antiphase_hc_sio.wav	1	6	5	noise_calib_stim_RIGHT.wav	2	3	blb_dichoticlistening_ba-ga.mp3	ba	ga	1	left
6.6.1	mac	2023-07-12	20:05:26	20:18:26	777038	611409d13bdb227076c9426b	1	1	main_slash	24	main_slash	159	stimuli_target_trianglerectangles.svg	stimuli_distractor_trianglediamonds.svg	17	yes	53	1	509	6	4	antiphase_hc_sio.wav	1	6	5	noise_calib_stim_RIGHT.wav	2	3	blb_dichoticlistening_ba-ga.mp3	ba	ga	1	left
6.6.1	mac	2023-07-12	20:05:26	20:18:26	777038	611409d13bdb227076c9426b	1	1	main_slash	24	advance_on_keypress_SLASH	160	stimuli_target_trianglerectangles.svg	stimuli_distractor_trianglediamonds.svg	17	yes	57	0	327	6	4	antiphase_hc_sio.wav	1	6	5	noise_calib_stim_RIGHT.wav	2	3	blb_dichoticlistening_ba-ga.mp3	ba	ga	1	left
6.6.1	mac	2023-07-12	20:05:26	20:18:50	801191	611409d13bdb227076c9426b	1	1	practice_z	26	practice_z	1	stimuli_target_rectanglediamonds.svg	stimuli_distractor_trianglediamonds.svg	4	yes	44	1	521	6	4	antiphase_hc_sio.wav	1	6	5	noise_calib_stim_RIGHT.wav	2	3	blb_dichoticlistening_ba-ga.mp3	ba	ga	1	left
6.6.1	mac	2023-07-12	20:05:26	20:18:50	801191	611409d13bdb227076c9426b	1	1	practice_z	26	advance_on_keypress_ZEE	2	stimuli_target_rectanglediamonds.svg	stimuli_distractor_trianglediamonds.svg	4	yes	57	0	565	6	4	antiphase_hc_sio.wav	1	6	5	noise_calib_stim_RIGHT.wav	2	3	blb_dichoticlistening_ba-ga.mp3	ba	ga	1	left
6.6.1	mac	2023-07-12	20:05:26	20:18:53	803752	611409d13bdb227076c9426b	1	1	practice_z	26	practice_z	3	stimuli_distractor_diamondtriangles.svg	stimuli_target_diamondrectangles.svg	8	yes	44	1	337	6	4	antiphase_hc_sio.wav	1	6	5	noise_calib_stim_RIGHT.wav	2	3	blb_dichoticlistening_ba-ga.mp3	ba	ga	1	left
6.6.1	mac	2023-07-12	20:05:26	20:18:53	803752	611409d13bdb227076c9426b	1	1	practice_z	26	advance_on_keypress_ZEE	4	stimuli_distractor_diamondtriangles.svg	stimuli_target_diamondrectangles.svg	8	yes	57	0	353	6	4	antiphase_hc_sio.wav	1	6	5	noise_calib_stim_RIGHT.wav	2	3	blb_dichoticlistening_ba-ga.mp3	ba	ga	1	left
6.6.1	mac	2023-07-12	20:05:26	20:18:55	806371	611409d13bdb227076c9426b	1	1	practice_z	26	practice_z	5	stimuli_distractor_diamondtriangles.svg	stimuli_distractor_trianglediamonds.svg	14	no	44	0	622	6	4	antiphase_hc_sio.wav	1	6	5	noise_calib_stim_RIGHT.wav	2	3	blb_dichoticlistening_ba-ga.mp3	ba	ga	1	left
6.6.1	mac	2023-07-12	20:05:26	20:18:55	806371	611409d13bdb227076c9426b	1	1	practice_z	26	advance_on_keypress_ZEE	6	stimuli_distractor_diamondtriangles.svg	stimuli_distractor_trianglediamonds.svg	14	no	57	0	302	6	4	antiphase_hc_sio.wav	1	6	5	noise_calib_stim_RIGHT.wav	2	3	blb_dichoticlistening_ba-ga.mp3	ba	ga	1	left
6.6.1	mac	2023-07-12	20:05:26	20:18:58	809218	611409d13bdb227076c9426b	1	1	practice_z	26	practice_z	7	stimuli_distractor_trianglediamonds.svg	stimuli_distractor_diamondtriangles.svg	16	no	44	0	908	6	4	antiphase_hc_sio.wav	1	6	5	noise_calib_stim_RIGHT.wav	2	3	blb_dichoticlistening_ba-ga.mp3	ba	ga	1	left
6.6.1	mac	2023-07-12	20:05:26	20:18:58	809218	611409d13bdb227076c9426b	1	1	practice_z	26	advance_on_keypress_ZEE	8	stimuli_distractor_trianglediamonds.svg	stimuli_distractor_diamondtriangles.svg	16	no	57	0	275	6	4	antiphase_hc_sio.wav	1	6	5	noise_calib_stim_RIGHT.wav	2	3	blb_dichoticlistening_ba-ga.mp3	ba	ga	1	left
6.6.1	mac	2023-07-12	20:05:26	20:19:01	811595	611409d13bdb227076c9426b	1	1	practice_z	26	practice_z	9	stimuli_distractor_trianglediamonds.svg	stimuli_target_squarediamonds.svg	11	yes	44	1	470	6	4	antiphase_hc_sio.wav	1	6	5	noise_calib_stim_RIGHT.wav	2	3	blb_dichoticlistening_ba-ga.mp3	ba	ga	1	left
6.6.1	mac	2023-07-12	20:05:26	20:19:01	811595	611409d13bdb227076c9426b	1	1	practice_z	26	advance_on_keypress_ZEE	10	stimuli_distractor_trianglediamonds.svg	stimuli_target_squarediamonds.svg	11	yes	57	0	295	6	4	antiphase_hc_sio.wav	1	6	5	noise_calib_stim_RIGHT.wav	2	3	blb_dichoticlistening_ba-ga.mp3	ba	ga	1	left
6.6.1	mac	2023-07-12	20:05:26	20:19:03	814272	611409d13bdb227076c9426b	1	1	practice_z	26	practice_z	11	stimuli_target_diamondsquares.svg	stimuli_distractor_trianglediamonds.svg	6	yes	44	1	729	6	4	antiphase_hc_sio.wav	1	6	5	noise_calib_stim_RIGHT.wav	2	3	blb_dichoticlistening_ba-ga.mp3	ba	ga	1	left
6.6.1	mac	2023-07-12	20:05:26	20:19:03	814272	611409d13bdb227076c9426b	1	1	practice_z	26	advance_on_keypress_ZEE	12	stimuli_target_diamondsquares.svg	stimuli_distractor_trianglediamonds.svg	6	yes	57	0	304	6	4	antiphase_hc_sio.wav	1	6	5	noise_calib_stim_RIGHT.wav	2	3	blb_dichoticlistening_ba-ga.mp3	ba	ga	1	left
6.6.1	mac	2023-07-12	20:05:26	20:19:06	816769	611409d13bdb227076c9426b	1	1	practice_z	26	practice_z	13	stimuli_distractor_diamondtriangles.svg	stimuli_target_trianglerectangles.svg	9	yes	44	1	551	6	4	antiphase_hc_sio.wav	1	6	5	noise_calib_stim_RIGHT.wav	2	3	blb_dichoticlistening_ba-ga.mp3	ba	ga	1	left
6.6.1	mac	2023-07-12	20:05:26	20:19:06	816769	611409d13bdb227076c9426b	1	1	practice_z	26	advance_on_keypress_ZEE	14	stimuli_distractor_diamondtriangles.svg	stimuli_target_trianglerectangles.svg	9	yes	57	0	499	6	4	antiphase_hc_sio.wav	1	6	5	noise_calib_stim_RIGHT.wav	2	3	blb_dichoticlistening_ba-ga.mp3	ba	ga	1	left
6.6.1	mac	2023-07-12	20:05:26	20:19:09	819816	611409d13bdb227076c9426b	1	1	practice_z	26	practice_z	15	stimuli_distractor_trianglediamonds.svg	stimuli_target_rectanglediamonds.svg	10	yes	44	1	900	6	4	antiphase_hc_sio.wav	1	6	5	noise_calib_stim_RIGHT.wav	2	3	blb_dichoticlistening_ba-ga.mp3	ba	ga	1	left
