build	computer.platform	date	time	timestamp	time_elapsed_ms	subject	group	session	blockcode	blocknum	trialcode	trialnum	stimulus_left	stimulus_right	stim_index	target_present	response	correct	latency	headphonecheck_countTestTrials	headphonecheck_index	headphonecheck_testSound	headphonecheck_correctResponse	stereocheck_countTestTrials	stereocheck_index	stereocheck_testSound	stereocheck_correctResponse	DL_index	DL_soundfile	DL_leftSound	DL_rightSound	DL_dualSound	DL_choice
6.6.1	win	2023-06-01	23:53:13	0	0	592bb32c943e670001cde123	1	1	headphonecheck_calibration	4	headphonecheck_calibrationIntro	1			0		calibrationButton	0	4038	0	0			0	0			1				0	
6.6.1	win	2023-06-01	23:53:13	0	0	592bb32c943e670001cde123	1	1	headphonecheck_testphase	5	test_collectResponse	3			0		third	1	597	1	6	antiphase_hc_ois.wav	3	0	0			1				0	
6.6.1	win	2023-06-01	23:53:13	0	0	592bb32c943e670001cde123	1	1	headphonecheck_testphase	5	test_collectResponse	6			0		first	1	475	2	4	antiphase_hc_sio.wav	1	0	0			1				0	
6.6.1	win	2023-06-01	23:53:13	0	0	592bb32c943e670001cde123	1	1	headphonecheck_testphase	5	test_collectResponse	9			0		second	1	413	3	1	antiphase_hc_iso.wav	2	0	0			1				0	
6.6.1	win	2023-06-01	23:53:13	0	0	592bb32c943e670001cde123	1	1	headphonecheck_testphase	5	test_collectResponse	12			0		second	1	563	4	5	antiphase_hc_osi.wav	2	0	0			1				0	
6.6.1	win	2023-06-01	23:53:13	0	0	592bb32c943e670001cde123	1	1	headphonecheck_testphase	5	test_collectResponse	15			0		third	1	395	5	2	antiphase_hc_ios.wav	3	0	0			1				0	
6.6.1	win	2023-06-01	23:53:13	0	0	592bb32c943e670001cde123	1	1	headphonecheck_testphase	5	test_collectResponse	18			0		first	1	488	6	3	antiphase_hc_soi.wav	1	0	0			1				0	
6.6.1	win	2023-06-01	23:53:13	0	0	592bb32c943e670001cde123	1	1	stereocheck_calibration	7	stereocheck_calibrationIntro	1			0		stereocheck_calibrationButton	0	5416	6	3	antiphase_hc_soi.wav	1	0	0			1				0	
6.6.1	win	2023-06-01	23:53:13	0	0	592bb32c943e670001cde123	1	1	stereocheck_testphase	8	stereocheck_test_collectResponse	3			0		stereocheck_right	1	633	6	3	antiphase_hc_soi.wav	1	1	5	noise_calib_stim_RIGHT.wav	2	1				0	
6.6.1	win	2023-06-01	23:53:13	0	0	592bb32c943e670001cde123	1	1	stereocheck_testphase	8	stereocheck_test_collectResponse	6			0		stereocheck_right	1	858	6	3	antiphase_hc_soi.wav	1	2	6	noise_calib_stim_RIGHT.wav	2	1				0	
6.6.1	win	2023-06-01	23:53:13	0	0	592bb32c943e670001cde123	1	1	stereocheck_testphase	8	stereocheck_test_collectResponse	9			0		stereocheck_right	1	593	6	3	antiphase_hc_soi.wav	1	3	4	noise_calib_stim_RIGHT.wav	2	1				0	
6.6.1	win	2023-06-01	23:53:13	0	0	592bb32c943e670001cde123	1	1	stereocheck_testphase	8	stereocheck_test_collectResponse	12			0		stereocheck_left	1	346	6	3	antiphase_hc_soi.wav	1	4	2	noise_calib_stim_LEFT.wav	1	1				0	
6.6.1	win	2023-06-01	23:53:13	0	0	592bb32c943e670001cde123	1	1	stereocheck_testphase	8	stereocheck_test_collectResponse	15			0		stereocheck_left	1	598	6	3	antiphase_hc_soi.wav	1	5	1	noise_calib_stim_LEFT.wav	1	1				0	
6.6.1	win	2023-06-01	23:53:13	0	0	592bb32c943e670001cde123	1	1	stereocheck_testphase	8	stereocheck_test_collectResponse	18			0		stereocheck_left	1	311	6	3	antiphase_hc_soi.wav	1	6	3	noise_calib_stim_LEFT.wav	1	1				0	
6.6.1	win	2023-06-01	23:53:13	0	0	592bb32c943e670001cde123	1	1	DL_practice	11	DL_practice	2			0		ga	1	1255	6	3	antiphase_hc_soi.wav	1	6	3	noise_calib_stim_LEFT.wav	1	15	blb_dichoticlistening_ga-ga.mp3	ga	ga	0	left
6.6.1	win	2023-06-01	23:53:13	0	0	592bb32c943e670001cde123	1	1	DL_practice	11	DL_practice	3			0		ta	1	1242	6	3	antiphase_hc_soi.wav	1	6	3	noise_calib_stim_LEFT.wav	1	36	blb_dichoticlistening_ta-ta.mp3	ta	ta	0	left
6.6.1	win	2023-06-01	23:53:13	0	0	592bb32c943e670001cde123	1	1	DL_practice	11	DL_practice	4			0		ba	1	2157	6	3	antiphase_hc_soi.wav	1	6	3	noise_calib_stim_LEFT.wav	1	7	blb_dichoticlistening_da-ba.mp3	da	ba	1	right
6.6.1	win	2023-06-01	23:53:13	0	0	592bb32c943e670001cde123	1	1	DL_practice	11	DL_practice	5			0		da	1	901	6	3	antiphase_hc_soi.wav	1	6	3	noise_calib_stim_LEFT.wav	1	8	blb_dichoticlistening_da-da.mp3	da	da	0	left
6.6.1	win	2023-06-01	23:53:13	0	0	592bb32c943e670001cde123	1	1	DL_practice	11	DL_practice	6			0		pa	1	1094	6	3	antiphase_hc_soi.wav	1	6	3	noise_calib_stim_LEFT.wav	1	29	blb_dichoticlistening_pa-pa.mp3	pa	pa	0	left
6.6.1	win	2023-06-01	23:53:13	0	0	592bb32c943e670001cde123	1	1	DL_practice	11	DL_practice	7			0		ba	1	1215	6	3	antiphase_hc_soi.wav	1	6	3	noise_calib_stim_LEFT.wav	1	1	blb_dichoticlistening_ba-ba.mp3	ba	ba	0	left
6.6.1	win	2023-06-01	23:53:13	0	0	592bb32c943e670001cde123	1	1	DL_practice	11	DL_practice	8			0		pa	1	1404	6	3	antiphase_hc_soi.wav	1	6	3	noise_calib_stim_LEFT.wav	1	23	blb_dichoticlistening_ka-pa.mp3	ka	pa	1	right
6.6.1	win	2023-06-01	23:53:13	0	0	592bb32c943e670001cde123	1	1	DL_practice	11	DL_practice	9			0		ka	1	881	6	3	antiphase_hc_soi.wav	1	6	3	noise_calib_stim_LEFT.wav	1	22	blb_dichoticlistening_ka-ka.mp3	ka	ka	0	left
6.6.1	win	2023-06-01	23:53:13	0	0	592bb32c943e670001cde123	1	1	DL_practice	11	DL_practice	10			0		ka	0	812	6	3	antiphase_hc_soi.wav	1	6	3	noise_calib_stim_LEFT.wav	1	18	blb_dichoticlistening_ga-ta.mp3	ga	ta	1	other
6.6.1	win	2023-06-01	23:53:13	0	0	592bb32c943e670001cde123	1	1	DL_test	13	DL_test	1			0		pa	1	1088	6	3	antiphase_hc_soi.wav	1	6	3	noise_calib_stim_LEFT.wav	1	35	blb_dichoticlistening_ta-pa.mp3	ta	pa	1	right
6.6.1	win	2023-06-01	23:53:13	0	0	592bb32c943e670001cde123	1	1	DL_test	13	DL_test	2			0		ka	1	994	6	3	antiphase_hc_soi.wav	1	6	3	noise_calib_stim_LEFT.wav	1	24	blb_dichoticlistening_ka-ta.mp3	ka	ta	1	left
6.6.1	win	2023-06-01	23:53:13	0	0	592bb32c943e670001cde123	1	1	DL_test	13	DL_test	3			0		ka	1	1007	6	3	antiphase_hc_soi.wav	1	6	3	noise_calib_stim_LEFT.wav	1	19	blb_dichoticlistening_ka-ba.mp3	ka	ba	1	left
6.6.1	win	2023-06-01	23:53:13	0	0	592bb32c943e670001cde123	1	1	DL_test	13	DL_test	4			0		ga	1	1188	6	3	antiphase_hc_soi.wav	1	6	3	noise_calib_stim_LEFT.wav	1	21	blb_dichoticlistening_ka-ga.mp3	ka	ga	1	right
6.6.1	win	2023-06-01	23:53:13	0	0	592bb32c943e670001cde123	1	1	DL_test	13	DL_test	5			0		ka	0	1138	6	3	antiphase_hc_soi.wav	1	6	3	noise_calib_stim_LEFT.wav	1	11	blb_dichoticlistening_da-pa.mp3	da	pa	1	other
6.6.1	win	2023-06-01	23:53:13	0	0	592bb32c943e670001cde123	1	1	DL_test	13	DL_test	6			0		ka	1	777	6	3	antiphase_hc_soi.wav	1	6	3	noise_calib_stim_LEFT.wav	1	20	blb_dichoticlistening_ka-da.mp3	ka	da	1	left
6.6.1	win	2023-06-01	23:53:13	0	0	592bb32c943e670001cde123	1	1	DL_test	13	DL_test	7			0		ga	1	695	6	3	antiphase_hc_soi.wav	1	6	3	noise_calib_stim_LEFT.wav	1	9	blb_dichoticlistening_da-ga.mp3	da	ga	1	right
6.6.1	win	2023-06-01	23:53:13	0	0	592bb32c943e670001cde123	1	1	DL_test	13	DL_test	8			0		ka	1	719	6	3	antiphase_hc_soi.wav	1	6	3	noise_calib_stim_LEFT.wav	1	28	blb_dichoticlistening_pa-ka.mp3	pa	ka	1	right
6.6.1	win	2023-06-01	23:53:13	0	0	592bb32c943e670001cde123	1	1	DL_test	13	DL_test	9			0		ga	1	1071	6	3	antiphase_hc_soi.wav	1	6	3	noise_calib_stim_LEFT.wav	1	14	blb_dichoticlistening_ga-da.mp3	ga	da	1	left
6.6.1	win	2023-06-01	23:53:13	0	0	592bb32c943e670001cde123	1	1	DL_test	13	DL_test	10			0		pa	1	977	6	3	antiphase_hc_soi.wav	1	6	3	noise_calib_stim_LEFT.wav	1	29	blb_dichoticlistening_pa-pa.mp3	pa	pa	0	left
6.6.1	win	2023-06-01	23:53:13	0	0	592bb32c943e670001cde123	1	1	DL_test	13	DL_test	11			0		da	1	1240	6	3	antiphase_hc_soi.wav	1	6	3	noise_calib_stim_LEFT.wav	1	2	blb_dichoticlistening_ba-da.mp3	ba	da	1	right
6.6.1	win	2023-06-01	23:53:13	0	0	592bb32c943e670001cde123	1	1	DL_test	13	DL_test	12			0		da	1	1827	6	3	antiphase_hc_soi.wav	1	6	3	noise_calib_stim_LEFT.wav	1	32	blb_dichoticlistening_ta-da.mp3	ta	da	1	right
6.6.1	win	2023-06-01	23:53:13	0	0	592bb32c943e670001cde123	1	1	DL_test	13	DL_test	13			0		pa	1	2263	6	3	antiphase_hc_soi.wav	1	6	3	noise_calib_stim_LEFT.wav	1	27	blb_dichoticlistening_pa-ga.mp3	pa	ga	1	left
6.6.1	win	2023-06-01	23:53:13	0	0	592bb32c943e670001cde123	1	1	DL_test	13	DL_test	14			0		ga	1	1113	6	3	antiphase_hc_soi.wav	1	6	3	noise_calib_stim_LEFT.wav	1	15	blb_dichoticlistening_ga-ga.mp3	ga	ga	0	left
6.6.1	win	2023-06-01	23:53:13	0	0	592bb32c943e670001cde123	1	1	DL_test	13	DL_test	15			0		ta	1	1538	6	3	antiphase_hc_soi.wav	1	6	3	noise_calib_stim_LEFT.wav	1	12	blb_dichoticlistening_da-ta.mp3	da	ta	1	right
6.6.1	win	2023-06-01	23:53:13	0	0	592bb32c943e670001cde123	1	1	DL_test	13	DL_test	16			0		ta	1	561	6	3	antiphase_hc_soi.wav	1	6	3	noise_calib_stim_LEFT.wav	1	36	blb_dichoticlistening_ta-ta.mp3	ta	ta	0	left
6.6.1	win	2023-06-01	23:53:13	0	0	592bb32c943e670001cde123	1	1	DL_test	13	DL_test	17			0		ka	0	1200	6	3	antiphase_hc_soi.wav	1	6	3	noise_calib_stim_LEFT.wav	1	18	blb_dichoticlistening_ga-ta.mp3	ga	ta	1	other
6.6.1	win	2023-06-01	23:53:13	0	0	592bb32c943e670001cde123	1	1	DL_test	13	DL_test	18			0		ka	1	606	6	3	antiphase_hc_soi.wav	1	6	3	noise_calib_stim_LEFT.wav	1	4	blb_dichoticlistening_ba-ka.mp3	ba	ka	1	right
6.6.1	win	2023-06-01	23:53:13	0	0	592bb32c943e670001cde123	1	1	DL_test	13	DL_test	19			0		ga	1	1314	6	3	antiphase_hc_soi.wav	1	6	3	noise_calib_stim_LEFT.wav	1	3	blb_dichoticlistening_ba-ga.mp3	ba	ga	1	right
6.6.1	win	2023-06-01	23:53:13	0	0	592bb32c943e670001cde123	1	1	DL_test	13	DL_test	20			0		ka	0	834	6	3	antiphase_hc_soi.wav	1	6	3	noise_calib_stim_LEFT.wav	1	31	blb_dichoticlistening_ta-ba.mp3	ta	ba	1	other
6.6.1	win	2023-06-01	23:53:13	0	0	592bb32c943e670001cde123	1	1	DL_test	13	DL_test	21			0		pa	1	862	6	3	antiphase_hc_soi.wav	1	6	3	noise_calib_stim_LEFT.wav	1	25	blb_dichoticlistening_pa-ba.mp3	pa	ba	1	left
6.6.1	win	2023-06-01	23:53:13	0	0	592bb32c943e670001cde123	1	1	DL_test	13	DL_test	22			0		pa	1	808	6	3	antiphase_hc_soi.wav	1	6	3	noise_calib_stim_LEFT.wav	1	5	blb_dichoticlistening_ba-pa.mp3	ba	pa	1	right
6.6.1	win	2023-06-01	23:53:13	0	0	592bb32c943e670001cde123	1	1	DL_test	13	DL_test	23			0		ka	1	1261	6	3	antiphase_hc_soi.wav	1	6	3	noise_calib_stim_LEFT.wav	1	34	blb_dichoticlistening_ta-ka.mp3	ta	ka	1	right
6.6.1	win	2023-06-01	23:53:13	0	0	592bb32c943e670001cde123	1	1	DL_test	13	DL_test	24			0		ka	1	2400	6	3	antiphase_hc_soi.wav	1	6	3	noise_calib_stim_LEFT.wav	1	16	blb_dichoticlistening_ga-ka.mp3	ga	ka	1	right
6.6.1	win	2023-06-01	23:53:13	0	0	592bb32c943e670001cde123	1	1	DL_test	13	DL_test	25			0		ka	1	733	6	3	antiphase_hc_soi.wav	1	6	3	noise_calib_stim_LEFT.wav	1	22	blb_dichoticlistening_ka-ka.mp3	ka	ka	0	left
6.6.1	win	2023-06-01	23:53:13	0	0	592bb32c943e670001cde123	1	1	DL_test	13	DL_test	26			0		ka	1	678	6	3	antiphase_hc_soi.wav	1	6	3	noise_calib_stim_LEFT.wav	1	23	blb_dichoticlistening_ka-pa.mp3	ka	pa	1	left
6.6.1	win	2023-06-01	23:53:13	0	0	592bb32c943e670001cde123	1	1	DL_test	13	DL_test	27			0		ka	1	800	6	3	antiphase_hc_soi.wav	1	6	3	noise_calib_stim_LEFT.wav	1	10	blb_dichoticlistening_da-ka.mp3	da	ka	1	right
6.6.1	win	2023-06-01	23:53:13	0	0	592bb32c943e670001cde123	1	1	DL_test	13	DL_test	28			0		ta	1	1485	6	3	antiphase_hc_soi.wav	1	6	3	noise_calib_stim_LEFT.wav	1	30	blb_dichoticlistening_pa-ta.mp3	pa	ta	1	right
6.6.1	win	2023-06-01	23:53:13	0	0	592bb32c943e670001cde123	1	1	DL_test	13	DL_test	29			0		ga	1	1215	6	3	antiphase_hc_soi.wav	1	6	3	noise_calib_stim_LEFT.wav	1	33	blb_dichoticlistening_ta-ga.mp3	ta	ga	1	right
6.6.1	win	2023-06-01	23:53:13	0	0	592bb32c943e670001cde123	1	1	DL_test	13	DL_test	30			0		da	1	2164	6	3	antiphase_hc_soi.wav	1	6	3	noise_calib_stim_LEFT.wav	1	7	blb_dichoticlistening_da-ba.mp3	da	ba	1	left
6.6.1	win	2023-06-01	23:53:13	0	0	592bb32c943e670001cde123	1	1	DL_test	13	DL_test	31			0		ka	0	1818	6	3	antiphase_hc_soi.wav	1	6	3	noise_calib_stim_LEFT.wav	1	26	blb_dichoticlistening_pa-da.mp3	pa	da	1	other
6.6.1	win	2023-06-01	23:53:13	0	0	592bb32c943e670001cde123	1	1	DL_test	13	DL_test	32			0		da	1	880	6	3	antiphase_hc_soi.wav	1	6	3	noise_calib_stim_LEFT.wav	1	8	blb_dichoticlistening_da-da.mp3	da	da	0	left
6.6.1	win	2023-06-01	23:53:13	0	0	592bb32c943e670001cde123	1	1	DL_test	13	DL_test	33			0		ga	1	1386	6	3	antiphase_hc_soi.wav	1	6	3	noise_calib_stim_LEFT.wav	1	13	blb_dichoticlistening_ga-ba.mp3	ga	ba	1	left
6.6.1	win	2023-06-01	23:53:13	0	0	592bb32c943e670001cde123	1	1	DL_test	13	DL_test	34			0		ka	0	1167	6	3	antiphase_hc_soi.wav	1	6	3	noise_calib_stim_LEFT.wav	1	17	blb_dichoticlistening_ga-pa.mp3	ga	pa	1	other
6.6.1	win	2023-06-01	23:53:13	0	0	592bb32c943e670001cde123	1	1	DL_test	13	DL_test	35			0		ka	0	846	6	3	antiphase_hc_soi.wav	1	6	3	noise_calib_stim_LEFT.wav	1	6	blb_dichoticlistening_ba-ta.mp3	ba	ta	1	other
6.6.1	win	2023-06-01	23:53:13	0	0	592bb32c943e670001cde123	1	1	DL_test	13	DL_test	36			0		ba	1	1593	6	3	antiphase_hc_soi.wav	1	6	3	noise_calib_stim_LEFT.wav	1	1	blb_dichoticlistening_ba-ba.mp3	ba	ba	0	left
6.6.1	win	2023-06-01	23:53:13	0	0	592bb32c943e670001cde123	1	1	DL_test	14	DL_test	1			0		ka	1	1235	6	3	antiphase_hc_soi.wav	1	6	3	noise_calib_stim_LEFT.wav	1	28	blb_dichoticlistening_pa-ka.mp3	pa	ka	1	right
6.6.1	win	2023-06-01	23:53:13	0	0	592bb32c943e670001cde123	1	1	DL_test	14	DL_test	2			0		ga	1	1159	6	3	antiphase_hc_soi.wav	1	6	3	noise_calib_stim_LEFT.wav	1	15	blb_dichoticlistening_ga-ga.mp3	ga	ga	0	left
6.6.1	win	2023-06-01	23:53:13	0	0	592bb32c943e670001cde123	1	1	DL_test	14	DL_test	3			0		ka	0	1014	6	3	antiphase_hc_soi.wav	1	6	3	noise_calib_stim_LEFT.wav	1	6	blb_dichoticlistening_ba-ta.mp3	ba	ta	1	other
6.6.1	win	2023-06-01	23:53:13	0	0	592bb32c943e670001cde123	1	1	DL_test	14	DL_test	4			0		pa	1	1131	6	3	antiphase_hc_soi.wav	1	6	3	noise_calib_stim_LEFT.wav	1	35	blb_dichoticlistening_ta-pa.mp3	ta	pa	1	right
6.6.1	win	2023-06-01	23:53:13	0	0	592bb32c943e670001cde123	1	1	DL_test	14	DL_test	5			0		ga	1	1148	6	3	antiphase_hc_soi.wav	1	6	3	noise_calib_stim_LEFT.wav	1	21	blb_dichoticlistening_ka-ga.mp3	ka	ga	1	right
6.6.1	win	2023-06-01	23:53:13	0	0	592bb32c943e670001cde123	1	1	DL_test	14	DL_test	6			0		pa	0	1443	6	3	antiphase_hc_soi.wav	1	6	3	noise_calib_stim_LEFT.wav	1	19	blb_dichoticlistening_ka-ba.mp3	ka	ba	1	other
6.6.1	win	2023-06-01	23:53:13	0	0	592bb32c943e670001cde123	1	1	DL_test	14	DL_test	7			0		ta	1	1096	6	3	antiphase_hc_soi.wav	1	6	3	noise_calib_stim_LEFT.wav	1	30	blb_dichoticlistening_pa-ta.mp3	pa	ta	1	right
6.6.1	win	2023-06-01	23:53:13	0	0	592bb32c943e670001cde123	1	1	DL_test	14	DL_test	8			0		ba	1	1393	6	3	antiphase_hc_soi.wav	1	6	3	noise_calib_stim_LEFT.wav	1	1	blb_dichoticlistening_ba-ba.mp3	ba	ba	0	left
6.6.1	win	2023-06-01	23:53:13	0	0	592bb32c943e670001cde123	1	1	DL_test	14	DL_test	9			0		ga	1	895	6	3	antiphase_hc_soi.wav	1	6	3	noise_calib_stim_LEFT.wav	1	33	blb_dichoticlistening_ta-ga.mp3	ta	ga	1	right
6.6.1	win	2023-06-01	23:53:13	0	0	592bb32c943e670001cde123	1	1	DL_test	14	DL_test	10			0		pa	1	1097	6	3	antiphase_hc_soi.wav	1	6	3	noise_calib_stim_LEFT.wav	1	29	blb_dichoticlistening_pa-pa.mp3	pa	pa	0	left
6.6.1	win	2023-06-01	23:53:13	0	0	592bb32c943e670001cde123	1	1	DL_test	14	DL_test	11			0		ga	0	1771	6	3	antiphase_hc_soi.wav	1	6	3	noise_calib_stim_LEFT.wav	1	31	blb_dichoticlistening_ta-ba.mp3	ta	ba	1	other
6.6.1	win	2023-06-01	23:53:13	0	0	592bb32c943e670001cde123	1	1	DL_test	14	DL_test	12			0		ga	1	625	6	3	antiphase_hc_soi.wav	1	6	3	noise_calib_stim_LEFT.wav	1	9	blb_dichoticlistening_da-ga.mp3	da	ga	1	right
6.6.1	win	2023-06-01	23:53:13	0	0	592bb32c943e670001cde123	1	1	DL_test	14	DL_test	13			0		ga	0	694	6	3	antiphase_hc_soi.wav	1	6	3	noise_calib_stim_LEFT.wav	1	20	blb_dichoticlistening_ka-da.mp3	ka	da	1	other
6.6.1	win	2023-06-01	23:53:13	0	0	592bb32c943e670001cde123	1	1	DL_test	14	DL_test	14			0		pa	1	1520	6	3	antiphase_hc_soi.wav	1	6	3	noise_calib_stim_LEFT.wav	1	11	blb_dichoticlistening_da-pa.mp3	da	pa	1	right
6.6.1	win	2023-06-01	23:53:13	0	0	592bb32c943e670001cde123	1	1	DL_test	14	DL_test	15			0		pa	1	1064	6	3	antiphase_hc_soi.wav	1	6	3	noise_calib_stim_LEFT.wav	1	26	blb_dichoticlistening_pa-da.mp3	pa	da	1	left
6.6.1	win	2023-06-01	23:53:13	0	0	592bb32c943e670001cde123	1	1	DL_test	14	DL_test	16			0		ga	1	1195	6	3	antiphase_hc_soi.wav	1	6	3	noise_calib_stim_LEFT.wav	1	3	blb_dichoticlistening_ba-ga.mp3	ba	ga	1	right
6.6.1	win	2023-06-01	23:53:13	0	0	592bb32c943e670001cde123	1	1	DL_test	14	DL_test	17			0		da	1	1601	6	3	antiphase_hc_soi.wav	1	6	3	noise_calib_stim_LEFT.wav	1	2	blb_dichoticlistening_ba-da.mp3	ba	da	1	right
6.6.1	win	2023-06-01	23:53:13	0	0	592bb32c943e670001cde123	1	1	DL_test	14	DL_test	18			0		ka	1	1318	6	3	antiphase_hc_soi.wav	1	6	3	noise_calib_stim_LEFT.wav	1	22	blb_dichoticlistening_ka-ka.mp3	ka	ka	0	left
6.6.1	win	2023-06-01	23:53:13	0	0	592bb32c943e670001cde123	1	1	DL_test	14	DL_test	19			0		ka	1	688	6	3	antiphase_hc_soi.wav	1	6	3	noise_calib_stim_LEFT.wav	1	24	blb_dichoticlistening_ka-ta.mp3	ka	ta	1	left
6.6.1	win	2023-06-01	23:53:13	0	0	592bb32c943e670001cde123	1	1	DL_test	14	DL_test	20			0		da	1	1273	6	3	antiphase_hc_soi.wav	1	6	3	noise_calib_stim_LEFT.wav	1	7	blb_dichoticlistening_da-ba.mp3	da	ba	1	left
6.6.1	win	2023-06-01	23:53:13	0	0	592bb32c943e670001cde123	1	1	DL_test	14	DL_test	21			0		pa	1	1084	6	3	antiphase_hc_soi.wav	1	6	3	noise_calib_stim_LEFT.wav	1	5	blb_dichoticlistening_ba-pa.mp3	ba	pa	1	right
6.6.1	win	2023-06-01	23:53:13	0	0	592bb32c943e670001cde123	1	1	DL_test	14	DL_test	22			0		ka	1	1207	6	3	antiphase_hc_soi.wav	1	6	3	noise_calib_stim_LEFT.wav	1	4	blb_dichoticlistening_ba-ka.mp3	ba	ka	1	right
6.6.1	win	2023-06-01	23:53:13	0	0	592bb32c943e670001cde123	1	1	DL_test	14	DL_test	23			0		ka	1	828	6	3	antiphase_hc_soi.wav	1	6	3	noise_calib_stim_LEFT.wav	1	16	blb_dichoticlistening_ga-ka.mp3	ga	ka	1	right
6.6.1	win	2023-06-01	23:53:13	0	0	592bb32c943e670001cde123	1	1	DL_test	14	DL_test	24			0		da	1	1151	6	3	antiphase_hc_soi.wav	1	6	3	noise_calib_stim_LEFT.wav	1	8	blb_dichoticlistening_da-da.mp3	da	da	0	left
6.6.1	win	2023-06-01	23:53:13	0	0	592bb32c943e670001cde123	1	1	DL_test	14	DL_test	25			0		da	1	1215	6	3	antiphase_hc_soi.wav	1	6	3	noise_calib_stim_LEFT.wav	1	32	blb_dichoticlistening_ta-da.mp3	ta	da	1	right
6.6.1	win	2023-06-01	23:53:13	0	0	592bb32c943e670001cde123	1	1	DL_test	14	DL_test	26			0		ka	1	1757	6	3	antiphase_hc_soi.wav	1	6	3	noise_calib_stim_LEFT.wav	1	23	blb_dichoticlistening_ka-pa.mp3	ka	pa	1	left
6.6.1	win	2023-06-01	23:53:13	0	0	592bb32c943e670001cde123	1	1	DL_test	14	DL_test	27			0		ka	0	1260	6	3	antiphase_hc_soi.wav	1	6	3	noise_calib_stim_LEFT.wav	1	18	blb_dichoticlistening_ga-ta.mp3	ga	ta	1	other
6.6.1	win	2023-06-01	23:53:13	0	0	592bb32c943e670001cde123	1	1	DL_test	14	DL_test	28			0		pa	1	1128	6	3	antiphase_hc_soi.wav	1	6	3	noise_calib_stim_LEFT.wav	1	25	blb_dichoticlistening_pa-ba.mp3	pa	ba	1	left
6.6.1	win	2023-06-01	23:53:13	0	0	592bb32c943e670001cde123	1	1	DL_test	14	DL_test	29			0		pa	1	1088	6	3	antiphase_hc_soi.wav	1	6	3	noise_calib_stim_LEFT.wav	1	17	blb_dichoticlistening_ga-pa.mp3	ga	pa	1	right
6.6.1	win	2023-06-01	23:53:13	0	0	592bb32c943e670001cde123	1	1	DL_test	14	DL_test	30			0		ta	1	1139	6	3	antiphase_hc_soi.wav	1	6	3	noise_calib_stim_LEFT.wav	1	36	blb_dichoticlistening_ta-ta.mp3	ta	ta	0	left
6.6.1	win	2023-06-01	23:53:13	0	0	592bb32c943e670001cde123	1	1	DL_test	14	DL_test	31			0		ga	1	2434	6	3	antiphase_hc_soi.wav	1	6	3	noise_calib_stim_LEFT.wav	1	27	blb_dichoticlistening_pa-ga.mp3	pa	ga	1	right
6.6.1	win	2023-06-01	23:53:13	0	0	592bb32c943e670001cde123	1	1	DL_test	14	DL_test	32			0		da	1	1645	6	3	antiphase_hc_soi.wav	1	6	3	noise_calib_stim_LEFT.wav	1	14	blb_dichoticlistening_ga-da.mp3	ga	da	1	right
6.6.1	win	2023-06-01	23:53:13	0	0	592bb32c943e670001cde123	1	1	DL_test	14	DL_test	33			0		pa	0	1529	6	3	antiphase_hc_soi.wav	1	6	3	noise_calib_stim_LEFT.wav	1	10	blb_dichoticlistening_da-ka.mp3	da	ka	1	other
6.6.1	win	2023-06-01	23:53:13	0	0	592bb32c943e670001cde123	1	1	DL_test	14	DL_test	34			0		ta	1	985	6	3	antiphase_hc_soi.wav	1	6	3	noise_calib_stim_LEFT.wav	1	12	blb_dichoticlistening_da-ta.mp3	da	ta	1	right
6.6.1	win	2023-06-01	23:53:13	0	0	592bb32c943e670001cde123	1	1	DL_test	14	DL_test	35			0		ka	1	1295	6	3	antiphase_hc_soi.wav	1	6	3	noise_calib_stim_LEFT.wav	1	34	blb_dichoticlistening_ta-ka.mp3	ta	ka	1	right
6.6.1	win	2023-06-01	23:53:13	0	0	592bb32c943e670001cde123	1	1	DL_test	14	DL_test	36			0		ba	1	2265	6	3	antiphase_hc_soi.wav	1	6	3	noise_calib_stim_LEFT.wav	1	13	blb_dichoticlistening_ga-ba.mp3	ga	ba	1	right
6.6.1	win	2023-06-01	23:53:13	0	0	592bb32c943e670001cde123	1	1	DL_test	15	DL_test	1			0		pa	1	1126	6	3	antiphase_hc_soi.wav	1	6	3	noise_calib_stim_LEFT.wav	1	11	blb_dichoticlistening_da-pa.mp3	da	pa	1	right
6.6.1	win	2023-06-01	23:53:13	0	0	592bb32c943e670001cde123	1	1	DL_test	15	DL_test	2			0		ka	0	1022	6	3	antiphase_hc_soi.wav	1	6	3	noise_calib_stim_LEFT.wav	1	18	blb_dichoticlistening_ga-ta.mp3	ga	ta	1	other
6.6.1	win	2023-06-01	23:53:13	0	0	592bb32c943e670001cde123	1	1	DL_test	15	DL_test	3			0		ta	1	1003	6	3	antiphase_hc_soi.wav	1	6	3	noise_calib_stim_LEFT.wav	1	12	blb_dichoticlistening_da-ta.mp3	da	ta	1	right
6.6.1	win	2023-06-01	23:53:13	0	0	592bb32c943e670001cde123	1	1	DL_test	15	DL_test	4			0		ka	0	1176	6	3	antiphase_hc_soi.wav	1	6	3	noise_calib_stim_LEFT.wav	1	6	blb_dichoticlistening_ba-ta.mp3	ba	ta	1	other
6.6.1	win	2023-06-01	23:53:13	0	0	592bb32c943e670001cde123	1	1	DL_test	15	DL_test	5			0		pa	1	798	6	3	antiphase_hc_soi.wav	1	6	3	noise_calib_stim_LEFT.wav	1	5	blb_dichoticlistening_ba-pa.mp3	ba	pa	1	right
6.6.1	win	2023-06-01	23:53:13	0	0	592bb32c943e670001cde123	1	1	DL_test	15	DL_test	6			0		ba	1	1340	6	3	antiphase_hc_soi.wav	1	6	3	noise_calib_stim_LEFT.wav	1	1	blb_dichoticlistening_ba-ba.mp3	ba	ba	0	left
6.6.1	win	2023-06-01	23:53:13	0	0	592bb32c943e670001cde123	1	1	DL_test	15	DL_test	7			0		ga	1	2036	6	3	antiphase_hc_soi.wav	1	6	3	noise_calib_stim_LEFT.wav	1	21	blb_dichoticlistening_ka-ga.mp3	ka	ga	1	right
6.6.1	win	2023-06-01	23:53:13	0	0	592bb32c943e670001cde123	1	1	DL_test	15	DL_test	8			0		da	1	1391	6	3	antiphase_hc_soi.wav	1	6	3	noise_calib_stim_LEFT.wav	1	32	blb_dichoticlistening_ta-da.mp3	ta	da	1	right
6.6.1	win	2023-06-01	23:53:13	0	0	592bb32c943e670001cde123	1	1	DL_test	15	DL_test	9			0		ba	1	1157	6	3	antiphase_hc_soi.wav	1	6	3	noise_calib_stim_LEFT.wav	1	13	blb_dichoticlistening_ga-ba.mp3	ga	ba	1	right
6.6.1	win	2023-06-01	23:53:13	0	0	592bb32c943e670001cde123	1	1	DL_test	15	DL_test	10			0		ta	1	1380	6	3	antiphase_hc_soi.wav	1	6	3	noise_calib_stim_LEFT.wav	1	24	blb_dichoticlistening_ka-ta.mp3	ka	ta	1	right
6.6.1	win	2023-06-01	23:53:13	0	0	592bb32c943e670001cde123	1	1	DL_test	15	DL_test	11			0		ka	1	2026	6	3	antiphase_hc_soi.wav	1	6	3	noise_calib_stim_LEFT.wav	1	34	blb_dichoticlistening_ta-ka.mp3	ta	ka	1	right
6.6.1	win	2023-06-01	23:53:13	0	0	592bb32c943e670001cde123	1	1	DL_test	15	DL_test	12			0		da	1	1830	6	3	antiphase_hc_soi.wav	1	6	3	noise_calib_stim_LEFT.wav	1	26	blb_dichoticlistening_pa-da.mp3	pa	da	1	right
6.6.1	win	2023-06-01	23:53:13	0	0	592bb32c943e670001cde123	1	1	DL_test	15	DL_test	13			0		ka	1	1178	6	3	antiphase_hc_soi.wav	1	6	3	noise_calib_stim_LEFT.wav	1	28	blb_dichoticlistening_pa-ka.mp3	pa	ka	1	right
6.6.1	win	2023-06-01	23:53:13	0	0	592bb32c943e670001cde123	1	1	DL_test	15	DL_test	14			0		ga	1	1137	6	3	antiphase_hc_soi.wav	1	6	3	noise_calib_stim_LEFT.wav	1	27	blb_dichoticlistening_pa-ga.mp3	pa	ga	1	right
6.6.1	win	2023-06-01	23:53:13	0	0	592bb32c943e670001cde123	1	1	DL_test	15	DL_test	15			0		da	1	1361	6	3	antiphase_hc_soi.wav	1	6	3	noise_calib_stim_LEFT.wav	1	20	blb_dichoticlistening_ka-da.mp3	ka	da	1	right
6.6.1	win	2023-06-01	23:53:13	0	0	592bb32c943e670001cde123	1	1	DL_test	15	DL_test	16			0		ga	1	1073	6	3	antiphase_hc_soi.wav	1	6	3	noise_calib_stim_LEFT.wav	1	9	blb_dichoticlistening_da-ga.mp3	da	ga	1	right
6.6.1	win	2023-06-01	23:53:13	0	0	592bb32c943e670001cde123	1	1	DL_test	15	DL_test	17			0		da	1	939	6	3	antiphase_hc_soi.wav	1	6	3	noise_calib_stim_LEFT.wav	1	8	blb_dichoticlistening_da-da.mp3	da	da	0	left
6.6.1	win	2023-06-01	23:53:13	0	0	592bb32c943e670001cde123	1	1	DL_test	15	DL_test	18			0		pa	1	1188	6	3	antiphase_hc_soi.wav	1	6	3	noise_calib_stim_LEFT.wav	1	29	blb_dichoticlistening_pa-pa.mp3	pa	pa	0	left
6.6.1	win	2023-06-01	23:53:13	0	0	592bb32c943e670001cde123	1	1	DL_test	15	DL_test	19			0		ba	1	1290	6	3	antiphase_hc_soi.wav	1	6	3	noise_calib_stim_LEFT.wav	1	7	blb_dichoticlistening_da-ba.mp3	da	ba	1	right
6.6.1	win	2023-06-01	23:53:13	0	0	592bb32c943e670001cde123	1	1	DL_test	15	DL_test	20			0		pa	1	1603	6	3	antiphase_hc_soi.wav	1	6	3	noise_calib_stim_LEFT.wav	1	25	blb_dichoticlistening_pa-ba.mp3	pa	ba	1	left
6.6.1	win	2023-06-01	23:53:13	0	0	592bb32c943e670001cde123	1	1	DL_test	15	DL_test	21			0		da	1	1728	6	3	antiphase_hc_soi.wav	1	6	3	noise_calib_stim_LEFT.wav	1	14	blb_dichoticlistening_ga-da.mp3	ga	da	1	right
6.6.1	win	2023-06-01	23:53:13	0	0	592bb32c943e670001cde123	1	1	DL_test	15	DL_test	22			0		ta	1	1905	6	3	antiphase_hc_soi.wav	1	6	3	noise_calib_stim_LEFT.wav	1	30	blb_dichoticlistening_pa-ta.mp3	pa	ta	1	right
6.6.1	win	2023-06-01	23:53:13	0	0	592bb32c943e670001cde123	1	1	DL_test	15	DL_test	23			0		da	1	2346	6	3	antiphase_hc_soi.wav	1	6	3	noise_calib_stim_LEFT.wav	1	2	blb_dichoticlistening_ba-da.mp3	ba	da	1	right
6.6.1	win	2023-06-01	23:53:13	0	0	592bb32c943e670001cde123	1	1	DL_test	15	DL_test	24			0		ga	0	1465	6	3	antiphase_hc_soi.wav	1	6	3	noise_calib_stim_LEFT.wav	1	31	blb_dichoticlistening_ta-ba.mp3	ta	ba	1	other
6.6.1	win	2023-06-01	23:53:13	0	0	592bb32c943e670001cde123	1	1	DL_test	15	DL_test	25			0		pa	0	1075	6	3	antiphase_hc_soi.wav	1	6	3	noise_calib_stim_LEFT.wav	1	10	blb_dichoticlistening_da-ka.mp3	da	ka	1	other
6.6.1	win	2023-06-01	23:53:13	0	0	592bb32c943e670001cde123	1	1	DL_test	15	DL_test	26			0		pa	0	813	6	3	antiphase_hc_soi.wav	1	6	3	noise_calib_stim_LEFT.wav	1	19	blb_dichoticlistening_ka-ba.mp3	ka	ba	1	other
6.6.1	win	2023-06-01	23:53:13	0	0	592bb32c943e670001cde123	1	1	DL_test	15	DL_test	27			0		ga	1	1234	6	3	antiphase_hc_soi.wav	1	6	3	noise_calib_stim_LEFT.wav	1	33	blb_dichoticlistening_ta-ga.mp3	ta	ga	1	right
6.6.1	win	2023-06-01	23:53:13	0	0	592bb32c943e670001cde123	1	1	DL_test	15	DL_test	28			0		ta	1	1735	6	3	antiphase_hc_soi.wav	1	6	3	noise_calib_stim_LEFT.wav	1	36	blb_dichoticlistening_ta-ta.mp3	ta	ta	0	left
6.6.1	win	2023-06-01	23:53:13	0	0	592bb32c943e670001cde123	1	1	DL_test	15	DL_test	29			0		ka	1	1087	6	3	antiphase_hc_soi.wav	1	6	3	noise_calib_stim_LEFT.wav	1	22	blb_dichoticlistening_ka-ka.mp3	ka	ka	0	left
6.6.1	win	2023-06-01	23:53:13	0	0	592bb32c943e670001cde123	1	1	DL_test	15	DL_test	30			0		ka	1	785	6	3	antiphase_hc_soi.wav	1	6	3	noise_calib_stim_LEFT.wav	1	16	blb_dichoticlistening_ga-ka.mp3	ga	ka	1	right
6.6.1	win	2023-06-01	23:53:13	0	0	592bb32c943e670001cde123	1	1	DL_test	15	DL_test	31			0		pa	1	1023	6	3	antiphase_hc_soi.wav	1	6	3	noise_calib_stim_LEFT.wav	1	17	blb_dichoticlistening_ga-pa.mp3	ga	pa	1	right
6.6.1	win	2023-06-01	23:53:13	0	0	592bb32c943e670001cde123	1	1	DL_test	15	DL_test	32			0		pa	1	563	6	3	antiphase_hc_soi.wav	1	6	3	noise_calib_stim_LEFT.wav	1	35	blb_dichoticlistening_ta-pa.mp3	ta	pa	1	right
6.6.1	win	2023-06-01	23:53:13	0	0	592bb32c943e670001cde123	1	1	DL_test	15	DL_test	33			0		pa	0	843	6	3	antiphase_hc_soi.wav	1	6	3	noise_calib_stim_LEFT.wav	1	4	blb_dichoticlistening_ba-ka.mp3	ba	ka	1	other
6.6.1	win	2023-06-01	23:53:13	0	0	592bb32c943e670001cde123	1	1	DL_test	15	DL_test	34			0		ga	1	1254	6	3	antiphase_hc_soi.wav	1	6	3	noise_calib_stim_LEFT.wav	1	15	blb_dichoticlistening_ga-ga.mp3	ga	ga	0	left
6.6.1	win	2023-06-01	23:53:13	0	0	592bb32c943e670001cde123	1	1	DL_test	15	DL_test	35			0		pa	1	1137	6	3	antiphase_hc_soi.wav	1	6	3	noise_calib_stim_LEFT.wav	1	23	blb_dichoticlistening_ka-pa.mp3	ka	pa	1	right
6.6.1	win	2023-06-01	23:53:13	0	0	592bb32c943e670001cde123	1	1	DL_test	15	DL_test	36			0		ba	1	1426	6	3	antiphase_hc_soi.wav	1	6	3	noise_calib_stim_LEFT.wav	1	3	blb_dichoticlistening_ba-ga.mp3	ba	ga	1	left
6.6.1	win	2023-06-01	23:53:13	0	0	592bb32c943e670001cde123	1	1	DL_test	16	DL_test	1			0		da	1	1045	6	3	antiphase_hc_soi.wav	1	6	3	noise_calib_stim_LEFT.wav	1	8	blb_dichoticlistening_da-da.mp3	da	da	0	left
6.6.1	win	2023-06-01	23:53:13	0	0	592bb32c943e670001cde123	1	1	DL_test	16	DL_test	2			0		da	0	1361	6	3	antiphase_hc_soi.wav	1	6	3	noise_calib_stim_LEFT.wav	1	31	blb_dichoticlistening_ta-ba.mp3	ta	ba	1	other
6.6.1	win	2023-06-01	23:53:13	0	0	592bb32c943e670001cde123	1	1	DL_test	16	DL_test	3			0		da	1	752	6	3	antiphase_hc_soi.wav	1	6	3	noise_calib_stim_LEFT.wav	1	20	blb_dichoticlistening_ka-da.mp3	ka	da	1	right
6.6.1	win	2023-06-01	23:53:13	0	0	592bb32c943e670001cde123	1	1	DL_test	16	DL_test	4			0		ba	1	1496	6	3	antiphase_hc_soi.wav	1	6	3	noise_calib_stim_LEFT.wav	1	13	blb_dichoticlistening_ga-ba.mp3	ga	ba	1	right
6.6.1	win	2023-06-01	23:53:13	0	0	592bb32c943e670001cde123	1	1	DL_test	16	DL_test	5			0		da	1	905	6	3	antiphase_hc_soi.wav	1	6	3	noise_calib_stim_LEFT.wav	1	32	blb_dichoticlistening_ta-da.mp3	ta	da	1	right
6.6.1	win	2023-06-01	23:53:13	0	0	592bb32c943e670001cde123	1	1	DL_test	16	DL_test	6			0		ta	1	1131	6	3	antiphase_hc_soi.wav	1	6	3	noise_calib_stim_LEFT.wav	1	12	blb_dichoticlistening_da-ta.mp3	da	ta	1	right
6.6.1	win	2023-06-01	23:53:13	0	0	592bb32c943e670001cde123	1	1	DL_test	16	DL_test	7			0		pa	1	819	6	3	antiphase_hc_soi.wav	1	6	3	noise_calib_stim_LEFT.wav	1	5	blb_dichoticlistening_ba-pa.mp3	ba	pa	1	right
6.6.1	win	2023-06-01	23:53:13	0	0	592bb32c943e670001cde123	1	1	DL_test	16	DL_test	8			0		da	1	1000	6	3	antiphase_hc_soi.wav	1	6	3	noise_calib_stim_LEFT.wav	1	26	blb_dichoticlistening_pa-da.mp3	pa	da	1	right
6.6.1	win	2023-06-01	23:53:13	0	0	592bb32c943e670001cde123	1	1	DL_test	16	DL_test	9			0		pa	1	1325	6	3	antiphase_hc_soi.wav	1	6	3	noise_calib_stim_LEFT.wav	1	17	blb_dichoticlistening_ga-pa.mp3	ga	pa	1	right
6.6.1	win	2023-06-01	23:53:13	0	0	592bb32c943e670001cde123	1	1	DL_test	16	DL_test	10			0		ka	1	1190	6	3	antiphase_hc_soi.wav	1	6	3	noise_calib_stim_LEFT.wav	1	22	blb_dichoticlistening_ka-ka.mp3	ka	ka	0	left
6.6.1	win	2023-06-01	23:53:13	0	0	592bb32c943e670001cde123	1	1	DL_test	16	DL_test	11			0		ga	1	1116	6	3	antiphase_hc_soi.wav	1	6	3	noise_calib_stim_LEFT.wav	1	9	blb_dichoticlistening_da-ga.mp3	da	ga	1	right
6.6.1	win	2023-06-01	23:53:13	0	0	592bb32c943e670001cde123	1	1	DL_test	16	DL_test	12			0		ga	1	845	6	3	antiphase_hc_soi.wav	1	6	3	noise_calib_stim_LEFT.wav	1	27	blb_dichoticlistening_pa-ga.mp3	pa	ga	1	right
6.6.1	win	2023-06-01	23:53:13	0	0	592bb32c943e670001cde123	1	1	DL_test	16	DL_test	13			0		ga	1	577	6	3	antiphase_hc_soi.wav	1	6	3	noise_calib_stim_LEFT.wav	1	15	blb_dichoticlistening_ga-ga.mp3	ga	ga	0	left
6.6.1	win	2023-06-01	23:53:13	0	0	592bb32c943e670001cde123	1	1	DL_test	16	DL_test	14			0		ta	1	1104	6	3	antiphase_hc_soi.wav	1	6	3	noise_calib_stim_LEFT.wav	1	30	blb_dichoticlistening_pa-ta.mp3	pa	ta	1	right
6.6.1	win	2023-06-01	23:53:13	0	0	592bb32c943e670001cde123	1	1	DL_test	16	DL_test	15			0		pa	1	3001	6	3	antiphase_hc_soi.wav	1	6	3	noise_calib_stim_LEFT.wav	1	23	blb_dichoticlistening_ka-pa.mp3	ka	pa	1	right
6.6.1	win	2023-06-01	23:53:13	0	0	592bb32c943e670001cde123	1	1	DL_test	16	DL_test	16			0		ba	1	1879	6	3	antiphase_hc_soi.wav	1	6	3	noise_calib_stim_LEFT.wav	1	3	blb_dichoticlistening_ba-ga.mp3	ba	ga	1	left
6.6.1	win	2023-06-01	23:53:13	0	0	592bb32c943e670001cde123	1	1	DL_test	16	DL_test	17			0		ga	1	961	6	3	antiphase_hc_soi.wav	1	6	3	noise_calib_stim_LEFT.wav	1	21	blb_dichoticlistening_ka-ga.mp3	ka	ga	1	right
6.6.1	win	2023-06-01	23:53:13	0	0	592bb32c943e670001cde123	1	1	DL_test	16	DL_test	18			0		ka	1	2008	6	3	antiphase_hc_soi.wav	1	6	3	noise_calib_stim_LEFT.wav	1	4	blb_dichoticlistening_ba-ka.mp3	ba	ka	1	right
6.6.1	win	2023-06-01	23:53:13	0	0	592bb32c943e670001cde123	1	1	DL_test	16	DL_test	19			0		ba	0	1477	6	3	antiphase_hc_soi.wav	1	6	3	noise_calib_stim_LEFT.wav	1	10	blb_dichoticlistening_da-ka.mp3	da	ka	1	other
6.6.1	win	2023-06-01	23:53:13	0	0	592bb32c943e670001cde123	1	1	DL_test	16	DL_test	20			0		ba	1	839	6	3	antiphase_hc_soi.wav	1	6	3	noise_calib_stim_LEFT.wav	1	1	blb_dichoticlistening_ba-ba.mp3	ba	ba	0	left
6.6.1	win	2023-06-01	23:53:13	0	0	592bb32c943e670001cde123	1	1	DL_test	16	DL_test	21			0		da	1	1019	6	3	antiphase_hc_soi.wav	1	6	3	noise_calib_stim_LEFT.wav	1	2	blb_dichoticlistening_ba-da.mp3	ba	da	1	right
6.6.1	win	2023-06-01	23:53:13	0	0	592bb32c943e670001cde123	1	1	DL_test	16	DL_test	22			0		pa	1	1561	6	3	antiphase_hc_soi.wav	1	6	3	noise_calib_stim_LEFT.wav	1	25	blb_dichoticlistening_pa-ba.mp3	pa	ba	1	left
6.6.1	win	2023-06-01	23:53:13	0	0	592bb32c943e670001cde123	1	1	DL_test	16	DL_test	23			0		ta	1	1185	6	3	antiphase_hc_soi.wav	1	6	3	noise_calib_stim_LEFT.wav	1	36	blb_dichoticlistening_ta-ta.mp3	ta	ta	0	left
6.6.1	win	2023-06-01	23:53:13	0	0	592bb32c943e670001cde123	1	1	DL_test	16	DL_test	24			0		ta	1	815	6	3	antiphase_hc_soi.wav	1	6	3	noise_calib_stim_LEFT.wav	1	18	blb_dichoticlistening_ga-ta.mp3	ga	ta	1	right
6.6.1	win	2023-06-01	23:53:13	0	0	592bb32c943e670001cde123	1	1	DL_test	16	DL_test	25			0		ka	1	1316	6	3	antiphase_hc_soi.wav	1	6	3	noise_calib_stim_LEFT.wav	1	16	blb_dichoticlistening_ga-ka.mp3	ga	ka	1	right
6.6.1	win	2023-06-01	23:53:13	0	0	592bb32c943e670001cde123	1	1	DL_test	16	DL_test	26			0		ka	1	670	6	3	antiphase_hc_soi.wav	1	6	3	noise_calib_stim_LEFT.wav	1	24	blb_dichoticlistening_ka-ta.mp3	ka	ta	1	left
6.6.1	win	2023-06-01	23:53:13	0	0	592bb32c943e670001cde123	1	1	DL_test	16	DL_test	27			0		da	1	1513	6	3	antiphase_hc_soi.wav	1	6	3	noise_calib_stim_LEFT.wav	1	14	blb_dichoticlistening_ga-da.mp3	ga	da	1	right
6.6.1	win	2023-06-01	23:53:13	0	0	592bb32c943e670001cde123	1	1	DL_test	16	DL_test	28			0		pa	1	2106	6	3	antiphase_hc_soi.wav	1	6	3	noise_calib_stim_LEFT.wav	1	11	blb_dichoticlistening_da-pa.mp3	da	pa	1	right
6.6.1	win	2023-06-01	23:53:13	0	0	592bb32c943e670001cde123	1	1	DL_test	16	DL_test	29			0		pa	1	747	6	3	antiphase_hc_soi.wav	1	6	3	noise_calib_stim_LEFT.wav	1	29	blb_dichoticlistening_pa-pa.mp3	pa	pa	0	left
6.6.1	win	2023-06-01	23:53:13	0	0	592bb32c943e670001cde123	1	1	DL_test	16	DL_test	30			0		ga	1	1707	6	3	antiphase_hc_soi.wav	1	6	3	noise_calib_stim_LEFT.wav	1	33	blb_dichoticlistening_ta-ga.mp3	ta	ga	1	right
6.6.1	win	2023-06-01	23:53:13	0	0	592bb32c943e670001cde123	1	1	DL_test	16	DL_test	31			0		ka	0	2212	6	3	antiphase_hc_soi.wav	1	6	3	noise_calib_stim_LEFT.wav	1	6	blb_dichoticlistening_ba-ta.mp3	ba	ta	1	other
6.6.1	win	2023-06-01	23:53:13	0	0	592bb32c943e670001cde123	1	1	DL_test	16	DL_test	32			0		ka	1	809	6	3	antiphase_hc_soi.wav	1	6	3	noise_calib_stim_LEFT.wav	1	34	blb_dichoticlistening_ta-ka.mp3	ta	ka	1	right
6.6.1	win	2023-06-01	23:53:13	0	0	592bb32c943e670001cde123	1	1	DL_test	16	DL_test	33			0		ka	1	750	6	3	antiphase_hc_soi.wav	1	6	3	noise_calib_stim_LEFT.wav	1	28	blb_dichoticlistening_pa-ka.mp3	pa	ka	1	right
6.6.1	win	2023-06-01	23:53:13	0	0	592bb32c943e670001cde123	1	1	DL_test	16	DL_test	34			0		ka	1	941	6	3	antiphase_hc_soi.wav	1	6	3	noise_calib_stim_LEFT.wav	1	19	blb_dichoticlistening_ka-ba.mp3	ka	ba	1	left
6.6.1	win	2023-06-01	23:53:13	0	0	592bb32c943e670001cde123	1	1	DL_test	16	DL_test	35			0		da	1	1734	6	3	antiphase_hc_soi.wav	1	6	3	noise_calib_stim_LEFT.wav	1	7	blb_dichoticlistening_da-ba.mp3	da	ba	1	left
6.6.1	win	2023-06-01	23:53:13	0	0	592bb32c943e670001cde123	1	1	DL_test	16	DL_test	36			0		pa	1	1262	6	3	antiphase_hc_soi.wav	1	6	3	noise_calib_stim_LEFT.wav	1	35	blb_dichoticlistening_ta-pa.mp3	ta	pa	1	right
6.6.1	win	2023-06-01	23:53:13	00:13:27	1210721	592bb32c943e670001cde123	1	1	practice_slash	22	practice_slash	1	stimuli_distractor_trianglediamonds.svg	stimuli_distractor_diamondtriangles.svg	16	no	53	0	1070	6	3	antiphase_hc_soi.wav	1	6	3	noise_calib_stim_LEFT.wav	1	35	blb_dichoticlistening_ta-pa.mp3	ta	pa	1	right
6.6.1	win	2023-06-01	23:53:13	00:13:27	1210721	592bb32c943e670001cde123	1	1	practice_slash	22	advance_on_keypress_SLASH	2	stimuli_distractor_trianglediamonds.svg	stimuli_distractor_diamondtriangles.svg	16	no	57	0	1530	6	3	antiphase_hc_soi.wav	1	6	3	noise_calib_stim_LEFT.wav	1	35	blb_dichoticlistening_ta-pa.mp3	ta	pa	1	right
6.6.1	win	2023-06-01	23:53:13	00:13:31	1214813	592bb32c943e670001cde123	1	1	practice_slash	22	practice_slash	3	stimuli_target_rectanglediamonds.svg	stimuli_distractor_diamondtriangles.svg	1	yes	53	1	911	6	3	antiphase_hc_soi.wav	1	6	3	noise_calib_stim_LEFT.wav	1	35	blb_dichoticlistening_ta-pa.mp3	ta	pa	1	right
6.6.1	win	2023-06-01	23:53:13	00:13:31	1214813	592bb32c943e670001cde123	1	1	practice_slash	22	advance_on_keypress_SLASH	4	stimuli_target_rectanglediamonds.svg	stimuli_distractor_diamondtriangles.svg	1	yes	57	0	1420	6	3	antiphase_hc_soi.wav	1	6	3	noise_calib_stim_LEFT.wav	1	35	blb_dichoticlistening_ta-pa.mp3	ta	pa	1	right
6.6.1	win	2023-06-01	23:53:13	00:13:35	1219306	592bb32c943e670001cde123	1	1	practice_slash	22	practice_slash	5	stimuli_target_diamondsquares.svg	stimuli_distractor_diamondtriangles.svg	3	yes	53	1	1435	6	3	antiphase_hc_soi.wav	1	6	3	noise_calib_stim_LEFT.wav	1	35	blb_dichoticlistening_ta-pa.mp3	ta	pa	1	right
6.6.1	win	2023-06-01	23:53:13	00:13:35	1219306	592bb32c943e670001cde123	1	1	practice_slash	22	advance_on_keypress_SLASH	6	stimuli_target_diamondsquares.svg	stimuli_distractor_diamondtriangles.svg	3	yes	57	0	1653	6	3	antiphase_hc_soi.wav	1	6	3	noise_calib_stim_LEFT.wav	1	35	blb_dichoticlistening_ta-pa.mp3	ta	pa	1	right
6.6.1	win	2023-06-01	23:53:13	00:13:40	1223672	592bb32c943e670001cde123	1	1	practice_slash	22	practice_slash	7	stimuli_distractor_trianglediamonds.svg	stimuli_target_diamondrectangles.svg	12	yes	53	1	1066	6	3	antiphase_hc_soi.wav	1	6	3	noise_calib_stim_LEFT.wav	1	35	blb_dichoticlistening_ta-pa.mp3	ta	pa	1	right
6.6.1	win	2023-06-01	23:53:13	00:13:40	1223672	592bb32c943e670001cde123	1	1	practice_slash	22	advance_on_keypress_SLASH	8	stimuli_distractor_trianglediamonds.svg	stimuli_target_diamondrectangles.svg	12	yes	57	0	988	6	3	antiphase_hc_soi.wav	1	6	3	noise_calib_stim_LEFT.wav	1	35	blb_dichoticlistening_ta-pa.mp3	ta	pa	1	right
6.6.1	win	2023-06-01	23:53:13	00:13:43	1227296	592bb32c943e670001cde123	1	1	practice_slash	22	practice_slash	9	stimuli_target_rectanglediamonds.svg	stimuli_distractor_trianglediamonds.svg	4	yes	53	1	988	6	3	antiphase_hc_soi.wav	1	6	3	noise_calib_stim_LEFT.wav	1	35	blb_dichoticlistening_ta-pa.mp3	ta	pa	1	right
6.6.1	win	2023-06-01	23:53:13	00:13:43	1227296	592bb32c943e670001cde123	1	1	practice_slash	22	advance_on_keypress_SLASH	10	stimuli_target_rectanglediamonds.svg	stimuli_distractor_trianglediamonds.svg	4	yes	57	0	392	6	3	antiphase_hc_soi.wav	1	6	3	noise_calib_stim_LEFT.wav	1	35	blb_dichoticlistening_ta-pa.mp3	ta	pa	1	right
6.6.1	win	2023-06-01	23:53:13	00:13:46	1230224	592bb32c943e670001cde123	1	1	practice_slash	22	practice_slash	11	stimuli_target_squarediamonds.svg	stimuli_distractor_trianglediamonds.svg	5	yes	53	1	898	6	3	antiphase_hc_soi.wav	1	6	3	noise_calib_stim_LEFT.wav	1	35	blb_dichoticlistening_ta-pa.mp3	ta	pa	1	right
6.6.1	win	2023-06-01	23:53:13	00:13:46	1230224	592bb32c943e670001cde123	1	1	practice_slash	22	advance_on_keypress_SLASH	12	stimuli_target_squarediamonds.svg	stimuli_distractor_trianglediamonds.svg	5	yes	57	0	593	6	3	antiphase_hc_soi.wav	1	6	3	noise_calib_stim_LEFT.wav	1	35	blb_dichoticlistening_ta-pa.mp3	ta	pa	1	right
6.6.1	win	2023-06-01	23:53:13	00:13:51	1234460	592bb32c943e670001cde123	1	1	practice_slash	22	practice_slash	13	stimuli_distractor_diamondtriangles.svg	stimuli_target_diamondrectangles.svg	8	yes	0	0	2000	6	3	antiphase_hc_soi.wav	1	6	3	noise_calib_stim_LEFT.wav	1	35	blb_dichoticlistening_ta-pa.mp3	ta	pa	1	right
6.6.1	win	2023-06-01	23:53:13	00:13:51	1234460	592bb32c943e670001cde123	1	1	practice_slash	22	advance_on_keypress_SLASH	14	stimuli_distractor_diamondtriangles.svg	stimuli_target_diamondrectangles.svg	8	yes	57	0	1798	6	3	antiphase_hc_soi.wav	1	6	3	noise_calib_stim_LEFT.wav	1	35	blb_dichoticlistening_ta-pa.mp3	ta	pa	1	right
6.6.1	win	2023-06-01	23:53:13	00:13:55	1238872	592bb32c943e670001cde123	1	1	practice_slash	22	practice_slash	15	stimuli_target_squarediamonds.svg	stimuli_distractor_diamondtriangles.svg	2	yes	53	1	960	6	3	antiphase_hc_soi.wav	1	6	3	noise_calib_stim_LEFT.wav	1	35	blb_dichoticlistening_ta-pa.mp3	ta	pa	1	right
6.6.1	win	2023-06-01	23:53:13	00:13:55	1238872	592bb32c943e670001cde123	1	1	practice_slash	22	advance_on_keypress_SLASH	16	stimuli_target_squarediamonds.svg	stimuli_distractor_diamondtriangles.svg	2	yes	57	0	736	6	3	antiphase_hc_soi.wav	1	6	3	noise_calib_stim_LEFT.wav	1	35	blb_dichoticlistening_ta-pa.mp3	ta	pa	1	right
6.6.1	win	2023-06-01	23:53:13	00:13:58	1241960	592bb32c943e670001cde123	1	1	practice_slash	22	practice_slash	17	stimuli_distractor_trianglediamonds.svg	stimuli_target_squarediamonds.svg	11	yes	53	1	714	6	3	antiphase_hc_soi.wav	1	6	3	noise_calib_stim_LEFT.wav	1	35	blb_dichoticlistening_ta-pa.mp3	ta	pa	1	right
6.6.1	win	2023-06-01	23:53:13	00:13:58	1241960	592bb32c943e670001cde123	1	1	practice_slash	22	advance_on_keypress_SLASH	18	stimuli_distractor_trianglediamonds.svg	stimuli_target_squarediamonds.svg	11	yes	57	0	381	6	3	antiphase_hc_soi.wav	1	6	3	noise_calib_stim_LEFT.wav	1	35	blb_dichoticlistening_ta-pa.mp3	ta	pa	1	right
6.6.1	win	2023-06-01	23:53:13	00:14:01	1244927	592bb32c943e670001cde123	1	1	practice_slash	22	practice_slash	19	stimuli_distractor_diamondtriangles.svg	stimuli_distractor_diamondtriangles.svg	13	no	53	0	930	6	3	antiphase_hc_soi.wav	1	6	3	noise_calib_stim_LEFT.wav	1	35	blb_dichoticlistening_ta-pa.mp3	ta	pa	1	right
6.6.1	win	2023-06-01	23:53:13	00:14:01	1244927	592bb32c943e670001cde123	1	1	practice_slash	22	advance_on_keypress_SLASH	20	stimuli_distractor_diamondtriangles.svg	stimuli_distractor_diamondtriangles.svg	13	no	57	0	540	6	3	antiphase_hc_soi.wav	1	6	3	noise_calib_stim_LEFT.wav	1	35	blb_dichoticlistening_ta-pa.mp3	ta	pa	1	right
6.6.1	win	2023-06-01	23:53:13	00:14:05	1249116	592bb32c943e670001cde123	1	1	practice_slash	22	practice_slash	21	stimuli_distractor_diamondtriangles.svg	stimuli_target_trianglerectangles.svg	9	yes	0	0	2000	6	3	antiphase_hc_soi.wav	1	6	3	noise_calib_stim_LEFT.wav	1	35	blb_dichoticlistening_ta-pa.mp3	ta	pa	1	right
6.6.1	win	2023-06-01	23:53:13	00:14:05	1249116	592bb32c943e670001cde123	1	1	practice_slash	22	advance_on_keypress_SLASH	22	stimuli_distractor_diamondtriangles.svg	stimuli_target_trianglerectangles.svg	9	yes	57	0	1919	6	3	antiphase_hc_soi.wav	1	6	3	noise_calib_stim_LEFT.wav	1	35	blb_dichoticlistening_ta-pa.mp3	ta	pa	1	right
6.6.1	win	2023-06-01	23:53:13	00:14:10	1253619	592bb32c943e670001cde123	1	1	practice_slash	22	practice_slash	23	stimuli_distractor_trianglediamonds.svg	stimuli_target_rectanglediamonds.svg	10	yes	53	1	935	6	3	antiphase_hc_soi.wav	1	6	3	noise_calib_stim_LEFT.wav	1	35	blb_dichoticlistening_ta-pa.mp3	ta	pa	1	right
6.6.1	win	2023-06-01	23:53:13	00:14:10	1253619	592bb32c943e670001cde123	1	1	practice_slash	22	advance_on_keypress_SLASH	24	stimuli_distractor_trianglediamonds.svg	stimuli_target_rectanglediamonds.svg	10	yes	57	0	620	6	3	antiphase_hc_soi.wav	1	6	3	noise_calib_stim_LEFT.wav	1	35	blb_dichoticlistening_ta-pa.mp3	ta	pa	1	right
6.6.1	win	2023-06-01	23:53:13	00:14:14	1257886	592bb32c943e670001cde123	1	1	practice_slash	22	practice_slash	25	stimuli_target_diamondsquares.svg	stimuli_distractor_trianglediamonds.svg	6	yes	0	0	2000	6	3	antiphase_hc_soi.wav	1	6	3	noise_calib_stim_LEFT.wav	1	35	blb_dichoticlistening_ta-pa.mp3	ta	pa	1	right
6.6.1	win	2023-06-01	23:53:13	00:14:14	1257886	592bb32c943e670001cde123	1	1	practice_slash	22	advance_on_keypress_SLASH	26	stimuli_target_diamondsquares.svg	stimuli_distractor_trianglediamonds.svg	6	yes	57	0	619	6	3	antiphase_hc_soi.wav	1	6	3	noise_calib_stim_LEFT.wav	1	35	blb_dichoticlistening_ta-pa.mp3	ta	pa	1	right
6.6.1	win	2023-06-01	23:53:13	00:14:17	1260918	592bb32c943e670001cde123	1	1	practice_slash	22	practice_slash	27	stimuli_distractor_diamondtriangles.svg	stimuli_target_rectangletriangles.svg	7	yes	53	1	766	6	3	antiphase_hc_soi.wav	1	6	3	noise_calib_stim_LEFT.wav	1	35	blb_dichoticlistening_ta-pa.mp3	ta	pa	1	right
6.6.1	win	2023-06-01	23:53:13	00:14:17	1260918	592bb32c943e670001cde123	1	1	practice_slash	22	advance_on_keypress_SLASH	28	stimuli_distractor_diamondtriangles.svg	stimuli_target_rectangletriangles.svg	7	yes	57	0	801	6	3	antiphase_hc_soi.wav	1	6	3	noise_calib_stim_LEFT.wav	1	35	blb_dichoticlistening_ta-pa.mp3	ta	pa	1	right
6.6.1	win	2023-06-01	23:53:13	00:14:20	1263948	592bb32c943e670001cde123	1	1	practice_slash	22	practice_slash	29	stimuli_distractor_trianglediamonds.svg	stimuli_distractor_trianglediamonds.svg	15	no	53	0	576	6	3	antiphase_hc_soi.wav	1	6	3	noise_calib_stim_LEFT.wav	1	35	blb_dichoticlistening_ta-pa.mp3	ta	pa	1	right
6.6.1	win	2023-06-01	23:53:13	00:14:20	1263948	592bb32c943e670001cde123	1	1	practice_slash	22	advance_on_keypress_SLASH	30	stimuli_distractor_trianglediamonds.svg	stimuli_distractor_trianglediamonds.svg	15	no	57	0	2106	6	3	antiphase_hc_soi.wav	1	6	3	noise_calib_stim_LEFT.wav	1	35	blb_dichoticlistening_ta-pa.mp3	ta	pa	1	right
6.6.1	win	2023-06-01	23:53:13	00:14:24	1268305	592bb32c943e670001cde123	1	1	practice_slash	22	practice_slash	31	stimuli_distractor_diamondtriangles.svg	stimuli_distractor_trianglediamonds.svg	14	no	53	0	614	6	3	antiphase_hc_soi.wav	1	6	3	noise_calib_stim_LEFT.wav	1	35	blb_dichoticlistening_ta-pa.mp3	ta	pa	1	right
6.6.1	win	2023-06-01	23:53:13	00:14:24	1268305	592bb32c943e670001cde123	1	1	practice_slash	22	advance_on_keypress_SLASH	32	stimuli_distractor_diamondtriangles.svg	stimuli_distractor_trianglediamonds.svg	14	no	57	0	636	6	3	antiphase_hc_soi.wav	1	6	3	noise_calib_stim_LEFT.wav	1	35	blb_dichoticlistening_ta-pa.mp3	ta	pa	1	right
6.6.1	win	2023-06-01	23:53:13	00:14:35	1279209	592bb32c943e670001cde123	1	1	main_slash	24	main_slash	1	stimuli_target_diamondrectangles.svg	stimuli_distractor_trianglediamonds.svg	19	yes	0	0	2000	6	3	antiphase_hc_soi.wav	1	6	3	noise_calib_stim_LEFT.wav	1	35	blb_dichoticlistening_ta-pa.mp3	ta	pa	1	right
6.6.1	win	2023-06-01	23:53:13	00:14:35	1279209	592bb32c943e670001cde123	1	1	main_slash	24	advance_on_keypress_SLASH	2	stimuli_target_diamondrectangles.svg	stimuli_distractor_trianglediamonds.svg	19	yes	57	0	665	6	3	antiphase_hc_soi.wav	1	6	3	noise_calib_stim_LEFT.wav	1	35	blb_dichoticlistening_ta-pa.mp3	ta	pa	1	right
6.6.1	win	2023-06-01	23:53:13	00:14:39	1282527	592bb32c943e670001cde123	1	1	main_slash	24	main_slash	3	stimuli_distractor_trianglediamonds.svg	stimuli_target_trianglesquares.svg	26	yes	0	0	2000	6	3	antiphase_hc_soi.wav	1	6	3	noise_calib_stim_LEFT.wav	1	35	blb_dichoticlistening_ta-pa.mp3	ta	pa	1	right
6.6.1	win	2023-06-01	23:53:13	00:14:39	1282527	592bb32c943e670001cde123	1	1	main_slash	24	advance_on_keypress_SLASH	4	stimuli_distractor_trianglediamonds.svg	stimuli_target_trianglesquares.svg	26	yes	57	0	887	6	3	antiphase_hc_soi.wav	1	6	3	noise_calib_stim_LEFT.wav	1	35	blb_dichoticlistening_ta-pa.mp3	ta	pa	1	right
6.6.1	win	2023-06-01	23:53:13	00:14:42	1286045	592bb32c943e670001cde123	1	1	main_slash	24	main_slash	5	stimuli_target_diamondsquares.svg	stimuli_distractor_trianglediamonds.svg	20	yes	53	1	1983	6	3	antiphase_hc_soi.wav	1	6	3	noise_calib_stim_LEFT.wav	1	35	blb_dichoticlistening_ta-pa.mp3	ta	pa	1	right
6.6.1	win	2023-06-01	23:53:13	00:14:42	1286045	592bb32c943e670001cde123	1	1	main_slash	24	advance_on_keypress_SLASH	6	stimuli_target_diamondsquares.svg	stimuli_distractor_trianglediamonds.svg	20	yes	57	0	658	6	3	antiphase_hc_soi.wav	1	6	3	noise_calib_stim_LEFT.wav	1	35	blb_dichoticlistening_ta-pa.mp3	ta	pa	1	right
6.6.1	win	2023-06-01	23:53:13	00:14:44	1288162	592bb32c943e670001cde123	1	1	main_slash	24	main_slash	7	stimuli_distractor_diamondtriangles.svg	stimuli_distractor_diamondtriangles.svg	39	no	53	0	817	6	3	antiphase_hc_soi.wav	1	6	3	noise_calib_stim_LEFT.wav	1	35	blb_dichoticlistening_ta-pa.mp3	ta	pa	1	right
6.6.1	win	2023-06-01	23:53:13	00:14:44	1288162	592bb32c943e670001cde123	1	1	main_slash	24	advance_on_keypress_SLASH	8	stimuli_distractor_diamondtriangles.svg	stimuli_distractor_diamondtriangles.svg	39	no	57	0	658	6	3	antiphase_hc_soi.wav	1	6	3	noise_calib_stim_LEFT.wav	1	35	blb_dichoticlistening_ta-pa.mp3	ta	pa	1	right
6.6.1	win	2023-06-01	23:53:13	00:14:48	1291463	592bb32c943e670001cde123	1	1	main_slash	24	main_slash	9	stimuli_distractor_trianglediamonds.svg	stimuli_distractor_trianglediamonds.svg	33	no	0	1	2000	6	3	antiphase_hc_soi.wav	1	6	3	noise_calib_stim_LEFT.wav	1	35	blb_dichoticlistening_ta-pa.mp3	ta	pa	1	right
6.6.1	win	2023-06-01	23:53:13	00:14:48	1291463	592bb32c943e670001cde123	1	1	main_slash	24	advance_on_keypress_SLASH	10	stimuli_distractor_trianglediamonds.svg	stimuli_distractor_trianglediamonds.svg	33	no	57	0	427	6	3	antiphase_hc_soi.wav	1	6	3	noise_calib_stim_LEFT.wav	1	35	blb_dichoticlistening_ta-pa.mp3	ta	pa	1	right
6.6.1	win	2023-06-01	23:53:13	00:14:50	1293427	592bb32c943e670001cde123	1	1	main_slash	24	main_slash	11	stimuli_distractor_trianglediamonds.svg	stimuli_target_squaretriangles.svg	11	yes	53	1	895	6	3	antiphase_hc_soi.wav	1	6	3	noise_calib_stim_LEFT.wav	1	35	blb_dichoticlistening_ta-pa.mp3	ta	pa	1	right
6.6.1	win	2023-06-01	23:53:13	00:14:50	1293427	592bb32c943e670001cde123	1	1	main_slash	24	advance_on_keypress_SLASH	12	stimuli_distractor_trianglediamonds.svg	stimuli_target_squaretriangles.svg	11	yes	57	0	762	6	3	antiphase_hc_soi.wav	1	6	3	noise_calib_stim_LEFT.wav	1	35	blb_dichoticlistening_ta-pa.mp3	ta	pa	1	right
6.6.1	win	2023-06-01	23:53:13	00:14:52	1295778	592bb32c943e670001cde123	1	1	main_slash	24	main_slash	13	stimuli_target_rectangletriangles.svg	stimuli_distractor_diamondtriangles.svg	5	yes	53	1	962	6	3	antiphase_hc_soi.wav	1	6	3	noise_calib_stim_LEFT.wav	1	35	blb_dichoticlistening_ta-pa.mp3	ta	pa	1	right
6.6.1	win	2023-06-01	23:53:13	00:14:52	1295778	592bb32c943e670001cde123	1	1	main_slash	24	advance_on_keypress_SLASH	14	stimuli_target_rectangletriangles.svg	stimuli_distractor_diamondtriangles.svg	5	yes	57	0	620	6	3	antiphase_hc_soi.wav	1	6	3	noise_calib_stim_LEFT.wav	1	35	blb_dichoticlistening_ta-pa.mp3	ta	pa	1	right
6.6.1	win	2023-06-01	23:53:13	00:14:54	1297932	592bb32c943e670001cde123	1	1	main_slash	24	main_slash	15	stimuli_distractor_diamondtriangles.svg	stimuli_target_squaretriangles.svg	15	yes	53	1	899	6	3	antiphase_hc_soi.wav	1	6	3	noise_calib_stim_LEFT.wav	1	35	blb_dichoticlistening_ta-pa.mp3	ta	pa	1	right
6.6.1	win	2023-06-01	23:53:13	00:14:54	1297932	592bb32c943e670001cde123	1	1	main_slash	24	advance_on_keypress_SLASH	16	stimuli_distractor_diamondtriangles.svg	stimuli_target_squaretriangles.svg	15	yes	57	0	530	6	3	antiphase_hc_soi.wav	1	6	3	noise_calib_stim_LEFT.wav	1	35	blb_dichoticlistening_ta-pa.mp3	ta	pa	1	right
6.6.1	win	2023-06-01	23:53:13	00:14:56	1299938	592bb32c943e670001cde123	1	1	main_slash	24	main_slash	17	stimuli_target_squaretriangles.svg	stimuli_distractor_trianglediamonds.svg	3	yes	53	1	821	6	3	antiphase_hc_soi.wav	1	6	3	noise_calib_stim_LEFT.wav	1	35	blb_dichoticlistening_ta-pa.mp3	ta	pa	1	right
6.6.1	win	2023-06-01	23:53:13	00:14:56	1299938	592bb32c943e670001cde123	1	1	main_slash	24	advance_on_keypress_SLASH	18	stimuli_target_squaretriangles.svg	stimuli_distractor_trianglediamonds.svg	3	yes	57	0	557	6	3	antiphase_hc_soi.wav	1	6	3	noise_calib_stim_LEFT.wav	1	35	blb_dichoticlistening_ta-pa.mp3	ta	pa	1	right
6.6.1	win	2023-06-01	23:53:13	00:14:58	1301986	592bb32c943e670001cde123	1	1	main_slash	24	main_slash	19	stimuli_distractor_diamondtriangles.svg	stimuli_target_rectangletriangles.svg	13	yes	53	1	851	6	3	antiphase_hc_soi.wav	1	6	3	noise_calib_stim_LEFT.wav	1	35	blb_dichoticlistening_ta-pa.mp3	ta	pa	1	right
6.6.1	win	2023-06-01	23:53:13	00:14:58	1301986	592bb32c943e670001cde123	1	1	main_slash	24	advance_on_keypress_SLASH	20	stimuli_distractor_diamondtriangles.svg	stimuli_target_rectangletriangles.svg	13	yes	57	0	557	6	3	antiphase_hc_soi.wav	1	6	3	noise_calib_stim_LEFT.wav	1	35	blb_dichoticlistening_ta-pa.mp3	ta	pa	1	right
6.6.1	win	2023-06-01	23:53:13	00:15:01	1305185	592bb32c943e670001cde123	1	1	main_slash	24	main_slash	21	stimuli_target_diamondsquares.svg	stimuli_distractor_diamondtriangles.svg	24	yes	0	0	2000	6	3	antiphase_hc_soi.wav	1	6	3	noise_calib_stim_LEFT.wav	1	35	blb_dichoticlistening_ta-pa.mp3	ta	pa	1	right
6.6.1	win	2023-06-01	23:53:13	00:15:01	1305185	592bb32c943e670001cde123	1	1	main_slash	24	advance_on_keypress_SLASH	22	stimuli_target_diamondsquares.svg	stimuli_distractor_diamondtriangles.svg	24	yes	57	0	372	6	3	antiphase_hc_soi.wav	1	6	3	noise_calib_stim_LEFT.wav	1	35	blb_dichoticlistening_ta-pa.mp3	ta	pa	1	right
6.6.1	win	2023-06-01	23:53:13	00:15:03	1307183	592bb32c943e670001cde123	1	1	main_slash	24	main_slash	23	stimuli_distractor_trianglediamonds.svg	stimuli_target_diamondsquares.svg	28	yes	53	1	981	6	3	antiphase_hc_soi.wav	1	6	3	noise_calib_stim_LEFT.wav	1	35	blb_dichoticlistening_ta-pa.mp3	ta	pa	1	right
6.6.1	win	2023-06-01	23:53:13	00:15:03	1307183	592bb32c943e670001cde123	1	1	main_slash	24	advance_on_keypress_SLASH	24	stimuli_distractor_trianglediamonds.svg	stimuli_target_diamondsquares.svg	28	yes	57	0	596	6	3	antiphase_hc_soi.wav	1	6	3	noise_calib_stim_LEFT.wav	1	35	blb_dichoticlistening_ta-pa.mp3	ta	pa	1	right
6.6.1	win	2023-06-01	23:53:13	00:15:07	1310421	592bb32c943e670001cde123	1	1	main_slash	24	main_slash	25	stimuli_target_diamondrectangles.svg	stimuli_distractor_diamondtriangles.svg	23	yes	0	0	2000	6	3	antiphase_hc_soi.wav	1	6	3	noise_calib_stim_LEFT.wav	1	35	blb_dichoticlistening_ta-pa.mp3	ta	pa	1	right
6.6.1	win	2023-06-01	23:53:13	00:15:07	1310421	592bb32c943e670001cde123	1	1	main_slash	24	advance_on_keypress_SLASH	26	stimuli_target_diamondrectangles.svg	stimuli_distractor_diamondtriangles.svg	23	yes	57	0	283	6	3	antiphase_hc_soi.wav	1	6	3	noise_calib_stim_LEFT.wav	1	35	blb_dichoticlistening_ta-pa.mp3	ta	pa	1	right
6.6.1	win	2023-06-01	23:53:13	00:15:08	1312240	592bb32c943e670001cde123	1	1	main_slash	24	main_slash	27	stimuli_distractor_diamondtriangles.svg	stimuli_target_squarediamonds.svg	16	yes	53	1	886	6	3	antiphase_hc_soi.wav	1	6	3	noise_calib_stim_LEFT.wav	1	35	blb_dichoticlistening_ta-pa.mp3	ta	pa	1	right
6.6.1	win	2023-06-01	23:53:13	00:15:08	1312240	592bb32c943e670001cde123	1	1	main_slash	24	advance_on_keypress_SLASH	28	stimuli_distractor_diamondtriangles.svg	stimuli_target_squarediamonds.svg	16	yes	57	0	689	6	3	antiphase_hc_soi.wav	1	6	3	noise_calib_stim_LEFT.wav	1	35	blb_dichoticlistening_ta-pa.mp3	ta	pa	1	right
6.6.1	win	2023-06-01	23:53:13	00:15:11	1314398	592bb32c943e670001cde123	1	1	main_slash	24	main_slash	29	stimuli_target_rectanglediamonds.svg	stimuli_distractor_trianglediamonds.svg	2	yes	53	1	825	6	3	antiphase_hc_soi.wav	1	6	3	noise_calib_stim_LEFT.wav	1	35	blb_dichoticlistening_ta-pa.mp3	ta	pa	1	right
6.6.1	win	2023-06-01	23:53:13	00:15:11	1314398	592bb32c943e670001cde123	1	1	main_slash	24	advance_on_keypress_SLASH	30	stimuli_target_rectanglediamonds.svg	stimuli_distractor_trianglediamonds.svg	2	yes	57	0	563	6	3	antiphase_hc_soi.wav	1	6	3	noise_calib_stim_LEFT.wav	1	35	blb_dichoticlistening_ta-pa.mp3	ta	pa	1	right
6.6.1	win	2023-06-01	23:53:13	00:15:13	1316515	592bb32c943e670001cde123	1	1	main_slash	24	main_slash	31	stimuli_target_rectanglediamonds.svg	stimuli_distractor_diamondtriangles.svg	6	yes	53	1	925	6	3	antiphase_hc_soi.wav	1	6	3	noise_calib_stim_LEFT.wav	1	35	blb_dichoticlistening_ta-pa.mp3	ta	pa	1	right
6.6.1	win	2023-06-01	23:53:13	00:15:13	1316515	592bb32c943e670001cde123	1	1	main_slash	24	advance_on_keypress_SLASH	32	stimuli_target_rectanglediamonds.svg	stimuli_distractor_diamondtriangles.svg	6	yes	57	0	497	6	3	antiphase_hc_soi.wav	1	6	3	noise_calib_stim_LEFT.wav	1	35	blb_dichoticlistening_ta-pa.mp3	ta	pa	1	right
6.6.1	win	2023-06-01	23:53:13	00:15:16	1319657	592bb32c943e670001cde123	1	1	main_slash	24	main_slash	33	stimuli_distractor_trianglediamonds.svg	stimuli_target_diamondrectangles.svg	27	yes	0	0	2000	6	3	antiphase_hc_soi.wav	1	6	3	noise_calib_stim_LEFT.wav	1	35	blb_dichoticlistening_ta-pa.mp3	ta	pa	1	right
6.6.1	win	2023-06-01	23:53:13	00:15:16	1319657	592bb32c943e670001cde123	1	1	main_slash	24	advance_on_keypress_SLASH	34	stimuli_distractor_trianglediamonds.svg	stimuli_target_diamondrectangles.svg	27	yes	57	0	326	6	3	antiphase_hc_soi.wav	1	6	3	noise_calib_stim_LEFT.wav	1	35	blb_dichoticlistening_ta-pa.mp3	ta	pa	1	right
6.6.1	win	2023-06-01	23:53:13	00:15:17	1321323	592bb32c943e670001cde123	1	1	main_slash	24	main_slash	35	stimuli_distractor_trianglediamonds.svg	stimuli_target_rectanglediamonds.svg	10	yes	53	1	698	6	3	antiphase_hc_soi.wav	1	6	3	noise_calib_stim_LEFT.wav	1	35	blb_dichoticlistening_ta-pa.mp3	ta	pa	1	right
6.6.1	win	2023-06-01	23:53:13	00:15:17	1321323	592bb32c943e670001cde123	1	1	main_slash	24	advance_on_keypress_SLASH	36	stimuli_distractor_trianglediamonds.svg	stimuli_target_rectanglediamonds.svg	10	yes	57	0	538	6	3	antiphase_hc_soi.wav	1	6	3	noise_calib_stim_LEFT.wav	1	35	blb_dichoticlistening_ta-pa.mp3	ta	pa	1	right
6.6.1	win	2023-06-01	23:53:13	00:15:21	1324509	592bb32c943e670001cde123	1	1	main_slash	24	main_slash	37	stimuli_distractor_diamondtriangles.svg	stimuli_target_trianglesquares.svg	30	yes	0	0	2000	6	3	antiphase_hc_soi.wav	1	6	3	noise_calib_stim_LEFT.wav	1	35	blb_dichoticlistening_ta-pa.mp3	ta	pa	1	right
6.6.1	win	2023-06-01	23:53:13	00:15:21	1324509	592bb32c943e670001cde123	1	1	main_slash	24	advance_on_keypress_SLASH	38	stimuli_distractor_diamondtriangles.svg	stimuli_target_trianglesquares.svg	30	yes	57	0	379	6	3	antiphase_hc_soi.wav	1	6	3	noise_calib_stim_LEFT.wav	1	35	blb_dichoticlistening_ta-pa.mp3	ta	pa	1	right
6.6.1	win	2023-06-01	23:53:13	00:15:23	1326618	592bb32c943e670001cde123	1	1	main_slash	24	main_slash	39	stimuli_distractor_diamondtriangles.svg	stimuli_target_rectanglediamonds.svg	14	yes	53	1	1091	6	3	antiphase_hc_soi.wav	1	6	3	noise_calib_stim_LEFT.wav	1	35	blb_dichoticlistening_ta-pa.mp3	ta	pa	1	right
6.6.1	win	2023-06-01	23:53:13	00:15:23	1326618	592bb32c943e670001cde123	1	1	main_slash	24	advance_on_keypress_SLASH	40	stimuli_distractor_diamondtriangles.svg	stimuli_target_rectanglediamonds.svg	14	yes	57	0	709	6	3	antiphase_hc_soi.wav	1	6	3	noise_calib_stim_LEFT.wav	1	35	blb_dichoticlistening_ta-pa.mp3	ta	pa	1	right
6.6.1	win	2023-06-01	23:53:13	00:15:25	1328670	592bb32c943e670001cde123	1	1	main_slash	24	main_slash	41	stimuli_distractor_trianglediamonds.svg	stimuli_target_rectangletriangles.svg	9	yes	53	1	708	6	3	antiphase_hc_soi.wav	1	6	3	noise_calib_stim_LEFT.wav	1	35	blb_dichoticlistening_ta-pa.mp3	ta	pa	1	right
6.6.1	win	2023-06-01	23:53:13	00:15:25	1328670	592bb32c943e670001cde123	1	1	main_slash	24	advance_on_keypress_SLASH	42	stimuli_distractor_trianglediamonds.svg	stimuli_target_rectangletriangles.svg	9	yes	57	0	569	6	3	antiphase_hc_soi.wav	1	6	3	noise_calib_stim_LEFT.wav	1	35	blb_dichoticlistening_ta-pa.mp3	ta	pa	1	right
6.6.1	win	2023-06-01	23:53:13	00:15:27	1331188	592bb32c943e670001cde123	1	1	main_slash	24	main_slash	43	stimuli_distractor_diamondtriangles.svg	stimuli_target_trianglerectangles.svg	29	yes	53	1	1309	6	3	antiphase_hc_soi.wav	1	6	3	noise_calib_stim_LEFT.wav	1	35	blb_dichoticlistening_ta-pa.mp3	ta	pa	1	right
6.6.1	win	2023-06-01	23:53:13	00:15:27	1331188	592bb32c943e670001cde123	1	1	main_slash	24	advance_on_keypress_SLASH	44	stimuli_distractor_diamondtriangles.svg	stimuli_target_trianglerectangles.svg	29	yes	57	0	982	6	3	antiphase_hc_soi.wav	1	6	3	noise_calib_stim_LEFT.wav	1	35	blb_dichoticlistening_ta-pa.mp3	ta	pa	1	right
6.6.1	win	2023-06-01	23:53:13	00:15:31	1334813	592bb32c943e670001cde123	1	1	main_slash	24	main_slash	45	stimuli_target_trianglesquares.svg	stimuli_distractor_diamondtriangles.svg	22	yes	0	0	2000	6	3	antiphase_hc_soi.wav	1	6	3	noise_calib_stim_LEFT.wav	1	35	blb_dichoticlistening_ta-pa.mp3	ta	pa	1	right
6.6.1	win	2023-06-01	23:53:13	00:15:31	1334813	592bb32c943e670001cde123	1	1	main_slash	24	advance_on_keypress_SLASH	46	stimuli_target_trianglesquares.svg	stimuli_distractor_diamondtriangles.svg	22	yes	57	0	418	6	3	antiphase_hc_soi.wav	1	6	3	noise_calib_stim_LEFT.wav	1	35	blb_dichoticlistening_ta-pa.mp3	ta	pa	1	right
6.6.1	win	2023-06-01	23:53:13	00:15:34	1337881	592bb32c943e670001cde123	1	1	main_slash	24	main_slash	47	stimuli_distractor_diamondtriangles.svg	stimuli_distractor_trianglediamonds.svg	38	no	0	1	2000	6	3	antiphase_hc_soi.wav	1	6	3	noise_calib_stim_LEFT.wav	1	35	blb_dichoticlistening_ta-pa.mp3	ta	pa	1	right
6.6.1	win	2023-06-01	23:53:13	00:15:34	1337881	592bb32c943e670001cde123	1	1	main_slash	24	advance_on_keypress_SLASH	48	stimuli_distractor_diamondtriangles.svg	stimuli_distractor_trianglediamonds.svg	38	no	57	0	240	6	3	antiphase_hc_soi.wav	1	6	3	noise_calib_stim_LEFT.wav	1	35	blb_dichoticlistening_ta-pa.mp3	ta	pa	1	right
6.6.1	win	2023-06-01	23:53:13	00:15:37	1340766	592bb32c943e670001cde123	1	1	main_slash	24	main_slash	49	stimuli_distractor_trianglediamonds.svg	stimuli_distractor_diamondtriangles.svg	35	no	0	1	2000	6	3	antiphase_hc_soi.wav	1	6	3	noise_calib_stim_LEFT.wav	1	35	blb_dichoticlistening_ta-pa.mp3	ta	pa	1	right
6.6.1	win	2023-06-01	23:53:13	00:15:37	1340766	592bb32c943e670001cde123	1	1	main_slash	24	advance_on_keypress_SLASH	50	stimuli_distractor_trianglediamonds.svg	stimuli_distractor_diamondtriangles.svg	35	no	57	0	377	6	3	antiphase_hc_soi.wav	1	6	3	noise_calib_stim_LEFT.wav	1	35	blb_dichoticlistening_ta-pa.mp3	ta	pa	1	right
6.6.1	win	2023-06-01	23:53:13	00:15:40	1343783	592bb32c943e670001cde123	1	1	main_slash	24	main_slash	51	stimuli_target_trianglesquares.svg	stimuli_distractor_trianglediamonds.svg	18	yes	0	0	2000	6	3	antiphase_hc_soi.wav	1	6	3	noise_calib_stim_LEFT.wav	1	35	blb_dichoticlistening_ta-pa.mp3	ta	pa	1	right
6.6.1	win	2023-06-01	23:53:13	00:15:40	1343783	592bb32c943e670001cde123	1	1	main_slash	24	advance_on_keypress_SLASH	52	stimuli_target_trianglesquares.svg	stimuli_distractor_trianglediamonds.svg	18	yes	57	0	1025	6	3	antiphase_hc_soi.wav	1	6	3	noise_calib_stim_LEFT.wav	1	35	blb_dichoticlistening_ta-pa.mp3	ta	pa	1	right
6.6.1	win	2023-06-01	23:53:13	00:15:42	1345974	592bb32c943e670001cde123	1	1	main_slash	24	main_slash	53	stimuli_distractor_trianglediamonds.svg	stimuli_distractor_trianglediamonds.svg	34	no	53	0	522	6	3	antiphase_hc_soi.wav	1	6	3	noise_calib_stim_LEFT.wav	1	35	blb_dichoticlistening_ta-pa.mp3	ta	pa	1	right
6.6.1	win	2023-06-01	23:53:13	00:15:42	1345974	592bb32c943e670001cde123	1	1	main_slash	24	advance_on_keypress_SLASH	54	stimuli_distractor_trianglediamonds.svg	stimuli_distractor_trianglediamonds.svg	34	no	57	0	693	6	3	antiphase_hc_soi.wav	1	6	3	noise_calib_stim_LEFT.wav	1	35	blb_dichoticlistening_ta-pa.mp3	ta	pa	1	right
6.6.1	win	2023-06-01	23:53:13	00:15:45	1349302	592bb32c943e670001cde123	1	1	main_slash	24	main_slash	55	stimuli_distractor_trianglediamonds.svg	stimuli_target_trianglerectangles.svg	25	yes	0	0	2000	6	3	antiphase_hc_soi.wav	1	6	3	noise_calib_stim_LEFT.wav	1	35	blb_dichoticlistening_ta-pa.mp3	ta	pa	1	right
6.6.1	win	2023-06-01	23:53:13	00:15:45	1349302	592bb32c943e670001cde123	1	1	main_slash	24	advance_on_keypress_SLASH	56	stimuli_distractor_trianglediamonds.svg	stimuli_target_trianglerectangles.svg	25	yes	57	0	386	6	3	antiphase_hc_soi.wav	1	6	3	noise_calib_stim_LEFT.wav	1	35	blb_dichoticlistening_ta-pa.mp3	ta	pa	1	right
6.6.1	win	2023-06-01	23:53:13	00:15:48	1352337	592bb32c943e670001cde123	1	1	main_slash	24	main_slash	57	stimuli_distractor_trianglediamonds.svg	stimuli_target_squarediamonds.svg	12	yes	0	0	2000	6	3	antiphase_hc_soi.wav	1	6	3	noise_calib_stim_LEFT.wav	1	35	blb_dichoticlistening_ta-pa.mp3	ta	pa	1	right
6.6.1	win	2023-06-01	23:53:13	00:15:48	1352337	592bb32c943e670001cde123	1	1	main_slash	24	advance_on_keypress_SLASH	58	stimuli_distractor_trianglediamonds.svg	stimuli_target_squarediamonds.svg	12	yes	57	0	449	6	3	antiphase_hc_soi.wav	1	6	3	noise_calib_stim_LEFT.wav	1	35	blb_dichoticlistening_ta-pa.mp3	ta	pa	1	right
6.6.1	win	2023-06-01	23:53:13	00:15:52	1355438	592bb32c943e670001cde123	1	1	main_slash	24	main_slash	59	stimuli_target_trianglerectangles.svg	stimuli_distractor_trianglediamonds.svg	17	yes	0	0	2000	6	3	antiphase_hc_soi.wav	1	6	3	noise_calib_stim_LEFT.wav	1	35	blb_dichoticlistening_ta-pa.mp3	ta	pa	1	right
6.6.1	win	2023-06-01	23:53:13	00:15:52	1355438	592bb32c943e670001cde123	1	1	main_slash	24	advance_on_keypress_SLASH	60	stimuli_target_trianglerectangles.svg	stimuli_distractor_trianglediamonds.svg	17	yes	57	0	348	6	3	antiphase_hc_soi.wav	1	6	3	noise_calib_stim_LEFT.wav	1	35	blb_dichoticlistening_ta-pa.mp3	ta	pa	1	right
6.6.1	win	2023-06-01	23:53:13	00:15:55	1358439	592bb32c943e670001cde123	1	1	main_slash	24	main_slash	61	stimuli_distractor_diamondtriangles.svg	stimuli_distractor_diamondtriangles.svg	40	no	0	1	2000	6	3	antiphase_hc_soi.wav	1	6	3	noise_calib_stim_LEFT.wav	1	35	blb_dichoticlistening_ta-pa.mp3	ta	pa	1	right
6.6.1	win	2023-06-01	23:53:13	00:15:55	1358439	592bb32c943e670001cde123	1	1	main_slash	24	advance_on_keypress_SLASH	62	stimuli_distractor_diamondtriangles.svg	stimuli_distractor_diamondtriangles.svg	40	no	57	0	171	6	3	antiphase_hc_soi.wav	1	6	3	noise_calib_stim_LEFT.wav	1	35	blb_dichoticlistening_ta-pa.mp3	ta	pa	1	right
6.6.1	win	2023-06-01	23:53:13	00:15:56	1360165	592bb32c943e670001cde123	1	1	main_slash	24	main_slash	63	stimuli_target_squaretriangles.svg	stimuli_distractor_diamondtriangles.svg	7	yes	53	1	908	6	3	antiphase_hc_soi.wav	1	6	3	noise_calib_stim_LEFT.wav	1	35	blb_dichoticlistening_ta-pa.mp3	ta	pa	1	right
6.6.1	win	2023-06-01	23:53:13	00:15:56	1360165	592bb32c943e670001cde123	1	1	main_slash	24	advance_on_keypress_SLASH	64	stimuli_target_squaretriangles.svg	stimuli_distractor_diamondtriangles.svg	7	yes	57	0	771	6	3	antiphase_hc_soi.wav	1	6	3	noise_calib_stim_LEFT.wav	1	35	blb_dichoticlistening_ta-pa.mp3	ta	pa	1	right
6.6.1	win	2023-06-01	23:53:13	00:16:00	1363574	592bb32c943e670001cde123	1	1	main_slash	24	main_slash	65	stimuli_distractor_trianglediamonds.svg	stimuli_distractor_diamondtriangles.svg	36	no	0	1	2000	6	3	antiphase_hc_soi.wav	1	6	3	noise_calib_stim_LEFT.wav	1	35	blb_dichoticlistening_ta-pa.mp3	ta	pa	1	right
6.6.1	win	2023-06-01	23:53:13	00:16:00	1363574	592bb32c943e670001cde123	1	1	main_slash	24	advance_on_keypress_SLASH	66	stimuli_distractor_trianglediamonds.svg	stimuli_distractor_diamondtriangles.svg	36	no	57	0	391	6	3	antiphase_hc_soi.wav	1	6	3	noise_calib_stim_LEFT.wav	1	35	blb_dichoticlistening_ta-pa.mp3	ta	pa	1	right
6.6.1	win	2023-06-01	23:53:13	00:16:02	1365471	592bb32c943e670001cde123	1	1	main_slash	24	main_slash	67	stimuli_target_squarediamonds.svg	stimuli_distractor_trianglediamonds.svg	4	yes	53	1	863	6	3	antiphase_hc_soi.wav	1	6	3	noise_calib_stim_LEFT.wav	1	35	blb_dichoticlistening_ta-pa.mp3	ta	pa	1	right
6.6.1	win	2023-06-01	23:53:13	00:16:02	1365471	592bb32c943e670001cde123	1	1	main_slash	24	advance_on_keypress_SLASH	68	stimuli_target_squarediamonds.svg	stimuli_distractor_trianglediamonds.svg	4	yes	57	0	1222	6	3	antiphase_hc_soi.wav	1	6	3	noise_calib_stim_LEFT.wav	1	35	blb_dichoticlistening_ta-pa.mp3	ta	pa	1	right
6.6.1	win	2023-06-01	23:53:13	00:16:05	1369327	592bb32c943e670001cde123	1	1	main_slash	24	main_slash	69	stimuli_distractor_diamondtriangles.svg	stimuli_target_diamondrectangles.svg	31	yes	0	0	2000	6	3	antiphase_hc_soi.wav	1	6	3	noise_calib_stim_LEFT.wav	1	35	blb_dichoticlistening_ta-pa.mp3	ta	pa	1	right
6.6.1	win	2023-06-01	23:53:13	00:16:05	1369327	592bb32c943e670001cde123	1	1	main_slash	24	advance_on_keypress_SLASH	70	stimuli_distractor_diamondtriangles.svg	stimuli_target_diamondrectangles.svg	31	yes	57	0	725	6	3	antiphase_hc_soi.wav	1	6	3	noise_calib_stim_LEFT.wav	1	35	blb_dichoticlistening_ta-pa.mp3	ta	pa	1	right
6.6.1	win	2023-06-01	23:53:13	00:16:09	1372694	592bb32c943e670001cde123	1	1	main_slash	24	main_slash	71	stimuli_target_trianglerectangles.svg	stimuli_distractor_diamondtriangles.svg	21	yes	0	0	2000	6	3	antiphase_hc_soi.wav	1	6	3	noise_calib_stim_LEFT.wav	1	35	blb_dichoticlistening_ta-pa.mp3	ta	pa	1	right
6.6.1	win	2023-06-01	23:53:13	00:16:09	1372694	592bb32c943e670001cde123	1	1	main_slash	24	advance_on_keypress_SLASH	72	stimuli_target_trianglerectangles.svg	stimuli_distractor_diamondtriangles.svg	21	yes	57	0	256	6	3	antiphase_hc_soi.wav	1	6	3	noise_calib_stim_LEFT.wav	1	35	blb_dichoticlistening_ta-pa.mp3	ta	pa	1	right
6.6.1	win	2023-06-01	23:53:13	00:16:12	1375595	592bb32c943e670001cde123	1	1	main_slash	24	main_slash	73	stimuli_distractor_diamondtriangles.svg	stimuli_target_diamondsquares.svg	32	yes	0	0	2000	6	3	antiphase_hc_soi.wav	1	6	3	noise_calib_stim_LEFT.wav	1	35	blb_dichoticlistening_ta-pa.mp3	ta	pa	1	right
6.6.1	win	2023-06-01	23:53:13	00:16:12	1375595	592bb32c943e670001cde123	1	1	main_slash	24	advance_on_keypress_SLASH	74	stimuli_distractor_diamondtriangles.svg	stimuli_target_diamondsquares.svg	32	yes	57	0	298	6	3	antiphase_hc_soi.wav	1	6	3	noise_calib_stim_LEFT.wav	1	35	blb_dichoticlistening_ta-pa.mp3	ta	pa	1	right
6.6.1	win	2023-06-01	23:53:13	00:16:15	1378547	592bb32c943e670001cde123	1	1	main_slash	24	main_slash	75	stimuli_distractor_diamondtriangles.svg	stimuli_distractor_trianglediamonds.svg	37	no	0	1	2000	6	3	antiphase_hc_soi.wav	1	6	3	noise_calib_stim_LEFT.wav	1	35	blb_dichoticlistening_ta-pa.mp3	ta	pa	1	right
6.6.1	win	2023-06-01	23:53:13	00:16:15	1378547	592bb32c943e670001cde123	1	1	main_slash	24	advance_on_keypress_SLASH	76	stimuli_distractor_diamondtriangles.svg	stimuli_distractor_trianglediamonds.svg	37	no	57	0	448	6	3	antiphase_hc_soi.wav	1	6	3	noise_calib_stim_LEFT.wav	1	35	blb_dichoticlistening_ta-pa.mp3	ta	pa	1	right
6.6.1	win	2023-06-01	23:53:13	00:16:16	1380325	592bb32c943e670001cde123	1	1	main_slash	24	main_slash	77	stimuli_target_squarediamonds.svg	stimuli_distractor_diamondtriangles.svg	8	yes	53	1	677	6	3	antiphase_hc_soi.wav	1	6	3	noise_calib_stim_LEFT.wav	1	35	blb_dichoticlistening_ta-pa.mp3	ta	pa	1	right
6.6.1	win	2023-06-01	23:53:13	00:16:16	1380325	592bb32c943e670001cde123	1	1	main_slash	24	advance_on_keypress_SLASH	78	stimuli_target_squarediamonds.svg	stimuli_distractor_diamondtriangles.svg	8	yes	57	0	860	6	3	antiphase_hc_soi.wav	1	6	3	noise_calib_stim_LEFT.wav	1	35	blb_dichoticlistening_ta-pa.mp3	ta	pa	1	right
6.6.1	win	2023-06-01	23:53:13	00:16:19	1382755	592bb32c943e670001cde123	1	1	main_slash	24	main_slash	79	stimuli_target_rectangletriangles.svg	stimuli_distractor_trianglediamonds.svg	1	yes	53	1	941	6	3	antiphase_hc_soi.wav	1	6	3	noise_calib_stim_LEFT.wav	1	35	blb_dichoticlistening_ta-pa.mp3	ta	pa	1	right
6.6.1	win	2023-06-01	23:53:13	00:16:19	1382755	592bb32c943e670001cde123	1	1	main_slash	24	advance_on_keypress_SLASH	80	stimuli_target_rectangletriangles.svg	stimuli_distractor_trianglediamonds.svg	1	yes	57	0	1117	6	3	antiphase_hc_soi.wav	1	6	3	noise_calib_stim_LEFT.wav	1	35	blb_dichoticlistening_ta-pa.mp3	ta	pa	1	right
6.6.1	win	2023-06-01	23:53:13	00:16:23	1386517	592bb32c943e670001cde123	1	1	main_slash	24	main_slash	81	stimuli_distractor_diamondtriangles.svg	stimuli_distractor_trianglediamonds.svg	38	no	0	1	2000	6	3	antiphase_hc_soi.wav	1	6	3	noise_calib_stim_LEFT.wav	1	35	blb_dichoticlistening_ta-pa.mp3	ta	pa	1	right
6.6.1	win	2023-06-01	23:53:13	00:16:23	1386517	592bb32c943e670001cde123	1	1	main_slash	24	advance_on_keypress_SLASH	82	stimuli_distractor_diamondtriangles.svg	stimuli_distractor_trianglediamonds.svg	38	no	57	0	492	6	3	antiphase_hc_soi.wav	1	6	3	noise_calib_stim_LEFT.wav	1	35	blb_dichoticlistening_ta-pa.mp3	ta	pa	1	right
6.6.1	win	2023-06-01	23:53:13	00:16:26	1389651	592bb32c943e670001cde123	1	1	main_slash	24	main_slash	83	stimuli_distractor_trianglediamonds.svg	stimuli_target_trianglerectangles.svg	25	yes	0	0	2000	6	3	antiphase_hc_soi.wav	1	6	3	noise_calib_stim_LEFT.wav	1	35	blb_dichoticlistening_ta-pa.mp3	ta	pa	1	right
6.6.1	win	2023-06-01	23:53:13	00:16:26	1389651	592bb32c943e670001cde123	1	1	main_slash	24	advance_on_keypress_SLASH	84	stimuli_distractor_trianglediamonds.svg	stimuli_target_trianglerectangles.svg	25	yes	57	0	394	6	3	antiphase_hc_soi.wav	1	6	3	noise_calib_stim_LEFT.wav	1	35	blb_dichoticlistening_ta-pa.mp3	ta	pa	1	right
6.6.1	win	2023-06-01	23:53:13	00:16:28	1391795	592bb32c943e670001cde123	1	1	main_slash	24	main_slash	85	stimuli_distractor_trianglediamonds.svg	stimuli_target_squaretriangles.svg	11	yes	53	1	1109	6	3	antiphase_hc_soi.wav	1	6	3	noise_calib_stim_LEFT.wav	1	35	blb_dichoticlistening_ta-pa.mp3	ta	pa	1	right
6.6.1	win	2023-06-01	23:53:13	00:16:28	1391795	592bb32c943e670001cde123	1	1	main_slash	24	advance_on_keypress_SLASH	86	stimuli_distractor_trianglediamonds.svg	stimuli_target_squaretriangles.svg	11	yes	57	0	649	6	3	antiphase_hc_soi.wav	1	6	3	noise_calib_stim_LEFT.wav	1	35	blb_dichoticlistening_ta-pa.mp3	ta	pa	1	right
6.6.1	win	2023-06-01	23:53:13	00:16:31	1394488	592bb32c943e670001cde123	1	1	main_slash	24	main_slash	87	stimuli_target_trianglerectangles.svg	stimuli_distractor_trianglediamonds.svg	17	yes	53	1	1402	6	3	antiphase_hc_soi.wav	1	6	3	noise_calib_stim_LEFT.wav	1	35	blb_dichoticlistening_ta-pa.mp3	ta	pa	1	right
6.6.1	win	2023-06-01	23:53:13	00:16:31	1394488	592bb32c943e670001cde123	1	1	main_slash	24	advance_on_keypress_SLASH	88	stimuli_target_trianglerectangles.svg	stimuli_distractor_trianglediamonds.svg	17	yes	57	0	634	6	3	antiphase_hc_soi.wav	1	6	3	noise_calib_stim_LEFT.wav	1	35	blb_dichoticlistening_ta-pa.mp3	ta	pa	1	right
6.6.1	win	2023-06-01	23:53:13	00:16:33	1397134	592bb32c943e670001cde123	1	1	main_slash	24	main_slash	89	stimuli_distractor_diamondtriangles.svg	stimuli_target_squarediamonds.svg	16	yes	53	1	1364	6	3	antiphase_hc_soi.wav	1	6	3	noise_calib_stim_LEFT.wav	1	35	blb_dichoticlistening_ta-pa.mp3	ta	pa	1	right
6.6.1	win	2023-06-01	23:53:13	00:16:33	1397134	592bb32c943e670001cde123	1	1	main_slash	24	advance_on_keypress_SLASH	90	stimuli_distractor_diamondtriangles.svg	stimuli_target_squarediamonds.svg	16	yes	57	0	627	6	3	antiphase_hc_soi.wav	1	6	3	noise_calib_stim_LEFT.wav	1	35	blb_dichoticlistening_ta-pa.mp3	ta	pa	1	right
6.6.1	win	2023-06-01	23:53:13	00:16:36	1399749	592bb32c943e670001cde123	1	1	main_slash	24	main_slash	91	stimuli_distractor_diamondtriangles.svg	stimuli_distractor_diamondtriangles.svg	39	no	53	0	1345	6	3	antiphase_hc_soi.wav	1	6	3	noise_calib_stim_LEFT.wav	1	35	blb_dichoticlistening_ta-pa.mp3	ta	pa	1	right
6.6.1	win	2023-06-01	23:53:13	00:16:36	1399749	592bb32c943e670001cde123	1	1	main_slash	24	advance_on_keypress_SLASH	92	stimuli_distractor_diamondtriangles.svg	stimuli_distractor_diamondtriangles.svg	39	no	57	0	511	6	3	antiphase_hc_soi.wav	1	6	3	noise_calib_stim_LEFT.wav	1	35	blb_dichoticlistening_ta-pa.mp3	ta	pa	1	right
6.6.1	win	2023-06-01	23:53:13	00:16:38	1401797	592bb32c943e670001cde123	1	1	main_slash	24	main_slash	93	stimuli_distractor_diamondtriangles.svg	stimuli_target_rectanglediamonds.svg	14	yes	53	1	908	6	3	antiphase_hc_soi.wav	1	6	3	noise_calib_stim_LEFT.wav	1	35	blb_dichoticlistening_ta-pa.mp3	ta	pa	1	right
6.6.1	win	2023-06-01	23:53:13	00:16:38	1401797	592bb32c943e670001cde123	1	1	main_slash	24	advance_on_keypress_SLASH	94	stimuli_distractor_diamondtriangles.svg	stimuli_target_rectanglediamonds.svg	14	yes	57	0	440	6	3	antiphase_hc_soi.wav	1	6	3	noise_calib_stim_LEFT.wav	1	35	blb_dichoticlistening_ta-pa.mp3	ta	pa	1	right
6.6.1	win	2023-06-01	23:53:13	00:16:40	1403982	592bb32c943e670001cde123	1	1	main_slash	24	main_slash	95	stimuli_distractor_trianglediamonds.svg	stimuli_distractor_diamondtriangles.svg	36	no	53	0	1108	6	3	antiphase_hc_soi.wav	1	6	3	noise_calib_stim_LEFT.wav	1	35	blb_dichoticlistening_ta-pa.mp3	ta	pa	1	right
6.6.1	win	2023-06-01	23:53:13	00:16:40	1403982	592bb32c943e670001cde123	1	1	main_slash	24	advance_on_keypress_SLASH	96	stimuli_distractor_trianglediamonds.svg	stimuli_distractor_diamondtriangles.svg	36	no	57	0	923	6	3	antiphase_hc_soi.wav	1	6	3	noise_calib_stim_LEFT.wav	1	35	blb_dichoticlistening_ta-pa.mp3	ta	pa	1	right
6.6.1	win	2023-06-01	23:53:13	00:16:44	1407541	592bb32c943e670001cde123	1	1	main_slash	24	main_slash	97	stimuli_target_diamondrectangles.svg	stimuli_distractor_diamondtriangles.svg	23	yes	0	0	2000	6	3	antiphase_hc_soi.wav	1	6	3	noise_calib_stim_LEFT.wav	1	35	blb_dichoticlistening_ta-pa.mp3	ta	pa	1	right
6.6.1	win	2023-06-01	23:53:13	00:16:44	1407541	592bb32c943e670001cde123	1	1	main_slash	24	advance_on_keypress_SLASH	98	stimuli_target_diamondrectangles.svg	stimuli_distractor_diamondtriangles.svg	23	yes	57	0	499	6	3	antiphase_hc_soi.wav	1	6	3	noise_calib_stim_LEFT.wav	1	35	blb_dichoticlistening_ta-pa.mp3	ta	pa	1	right
6.6.1	win	2023-06-01	23:53:13	00:16:47	1410692	592bb32c943e670001cde123	1	1	main_slash	24	main_slash	99	stimuli_target_diamondsquares.svg	stimuli_distractor_trianglediamonds.svg	20	yes	0	0	2000	6	3	antiphase_hc_soi.wav	1	6	3	noise_calib_stim_LEFT.wav	1	35	blb_dichoticlistening_ta-pa.mp3	ta	pa	1	right
6.6.1	win	2023-06-01	23:53:13	00:16:47	1410692	592bb32c943e670001cde123	1	1	main_slash	24	advance_on_keypress_SLASH	100	stimuli_target_diamondsquares.svg	stimuli_distractor_trianglediamonds.svg	20	yes	57	0	629	6	3	antiphase_hc_soi.wav	1	6	3	noise_calib_stim_LEFT.wav	1	35	blb_dichoticlistening_ta-pa.mp3	ta	pa	1	right
6.6.1	win	2023-06-01	23:53:13	00:16:49	1413020	592bb32c943e670001cde123	1	1	main_slash	24	main_slash	101	stimuli_distractor_trianglediamonds.svg	stimuli_target_squarediamonds.svg	12	yes	53	1	1043	6	3	antiphase_hc_soi.wav	1	6	3	noise_calib_stim_LEFT.wav	1	35	blb_dichoticlistening_ta-pa.mp3	ta	pa	1	right
6.6.1	win	2023-06-01	23:53:13	00:16:49	1413020	592bb32c943e670001cde123	1	1	main_slash	24	advance_on_keypress_SLASH	102	stimuli_distractor_trianglediamonds.svg	stimuli_target_squarediamonds.svg	12	yes	57	0	667	6	3	antiphase_hc_soi.wav	1	6	3	noise_calib_stim_LEFT.wav	1	35	blb_dichoticlistening_ta-pa.mp3	ta	pa	1	right
6.6.1	win	2023-06-01	23:53:13	00:16:52	1416328	592bb32c943e670001cde123	1	1	main_slash	24	main_slash	103	stimuli_distractor_diamondtriangles.svg	stimuli_target_diamondrectangles.svg	31	yes	0	0	2000	6	3	antiphase_hc_soi.wav	1	6	3	noise_calib_stim_LEFT.wav	1	35	blb_dichoticlistening_ta-pa.mp3	ta	pa	1	right
6.6.1	win	2023-06-01	23:53:13	00:16:52	1416328	592bb32c943e670001cde123	1	1	main_slash	24	advance_on_keypress_SLASH	104	stimuli_distractor_diamondtriangles.svg	stimuli_target_diamondrectangles.svg	31	yes	57	0	502	6	3	antiphase_hc_soi.wav	1	6	3	noise_calib_stim_LEFT.wav	1	35	blb_dichoticlistening_ta-pa.mp3	ta	pa	1	right
6.6.1	win	2023-06-01	23:53:13	00:16:56	1419479	592bb32c943e670001cde123	1	1	main_slash	24	main_slash	105	stimuli_distractor_trianglediamonds.svg	stimuli_distractor_trianglediamonds.svg	34	no	0	1	2000	6	3	antiphase_hc_soi.wav	1	6	3	noise_calib_stim_LEFT.wav	1	35	blb_dichoticlistening_ta-pa.mp3	ta	pa	1	right
6.6.1	win	2023-06-01	23:53:13	00:16:56	1419479	592bb32c943e670001cde123	1	1	main_slash	24	advance_on_keypress_SLASH	106	stimuli_distractor_trianglediamonds.svg	stimuli_distractor_trianglediamonds.svg	34	no	57	0	311	6	3	antiphase_hc_soi.wav	1	6	3	noise_calib_stim_LEFT.wav	1	35	blb_dichoticlistening_ta-pa.mp3	ta	pa	1	right
6.6.1	win	2023-06-01	23:53:13	00:16:59	1422430	592bb32c943e670001cde123	1	1	main_slash	24	main_slash	107	stimuli_target_trianglesquares.svg	stimuli_distractor_diamondtriangles.svg	22	yes	0	0	2000	6	3	antiphase_hc_soi.wav	1	6	3	noise_calib_stim_LEFT.wav	1	35	blb_dichoticlistening_ta-pa.mp3	ta	pa	1	right
6.6.1	win	2023-06-01	23:53:13	00:16:59	1422430	592bb32c943e670001cde123	1	1	main_slash	24	advance_on_keypress_SLASH	108	stimuli_target_trianglesquares.svg	stimuli_distractor_diamondtriangles.svg	22	yes	57	0	571	6	3	antiphase_hc_soi.wav	1	6	3	noise_calib_stim_LEFT.wav	1	35	blb_dichoticlistening_ta-pa.mp3	ta	pa	1	right
6.6.1	win	2023-06-01	23:53:13	00:17:02	1425648	592bb32c943e670001cde123	1	1	main_slash	24	main_slash	109	stimuli_distractor_diamondtriangles.svg	stimuli_target_trianglerectangles.svg	29	yes	0	0	2000	6	3	antiphase_hc_soi.wav	1	6	3	noise_calib_stim_LEFT.wav	1	35	blb_dichoticlistening_ta-pa.mp3	ta	pa	1	right
6.6.1	win	2023-06-01	23:53:13	00:17:02	1425648	592bb32c943e670001cde123	1	1	main_slash	24	advance_on_keypress_SLASH	110	stimuli_distractor_diamondtriangles.svg	stimuli_target_trianglerectangles.svg	29	yes	57	0	462	6	3	antiphase_hc_soi.wav	1	6	3	noise_calib_stim_LEFT.wav	1	35	blb_dichoticlistening_ta-pa.mp3	ta	pa	1	right
6.6.1	win	2023-06-01	23:53:13	00:17:05	1428749	592bb32c943e670001cde123	1	1	main_slash	24	main_slash	111	stimuli_target_diamondsquares.svg	stimuli_distractor_diamondtriangles.svg	24	yes	0	0	2000	6	3	antiphase_hc_soi.wav	1	6	3	noise_calib_stim_LEFT.wav	1	35	blb_dichoticlistening_ta-pa.mp3	ta	pa	1	right
6.6.1	win	2023-06-01	23:53:13	00:17:05	1428749	592bb32c943e670001cde123	1	1	main_slash	24	advance_on_keypress_SLASH	112	stimuli_target_diamondsquares.svg	stimuli_distractor_diamondtriangles.svg	24	yes	57	0	378	6	3	antiphase_hc_soi.wav	1	6	3	noise_calib_stim_LEFT.wav	1	35	blb_dichoticlistening_ta-pa.mp3	ta	pa	1	right
6.6.1	win	2023-06-01	23:53:13	00:17:07	1430679	592bb32c943e670001cde123	1	1	main_slash	24	main_slash	113	stimuli_target_rectangletriangles.svg	stimuli_distractor_trianglediamonds.svg	1	yes	53	1	912	6	3	antiphase_hc_soi.wav	1	6	3	noise_calib_stim_LEFT.wav	1	35	blb_dichoticlistening_ta-pa.mp3	ta	pa	1	right
6.6.1	win	2023-06-01	23:53:13	00:17:07	1430679	592bb32c943e670001cde123	1	1	main_slash	24	advance_on_keypress_SLASH	114	stimuli_target_rectangletriangles.svg	stimuli_distractor_trianglediamonds.svg	1	yes	57	0	654	6	3	antiphase_hc_soi.wav	1	6	3	noise_calib_stim_LEFT.wav	1	35	blb_dichoticlistening_ta-pa.mp3	ta	pa	1	right
6.6.1	win	2023-06-01	23:53:13	00:17:09	1432763	592bb32c943e670001cde123	1	1	main_slash	24	main_slash	115	stimuli_distractor_trianglediamonds.svg	stimuli_target_rectangletriangles.svg	9	yes	53	1	795	6	3	antiphase_hc_soi.wav	1	6	3	noise_calib_stim_LEFT.wav	1	35	blb_dichoticlistening_ta-pa.mp3	ta	pa	1	right
6.6.1	win	2023-06-01	23:53:13	00:17:09	1432763	592bb32c943e670001cde123	1	1	main_slash	24	advance_on_keypress_SLASH	116	stimuli_distractor_trianglediamonds.svg	stimuli_target_rectangletriangles.svg	9	yes	57	0	614	6	3	antiphase_hc_soi.wav	1	6	3	noise_calib_stim_LEFT.wav	1	35	blb_dichoticlistening_ta-pa.mp3	ta	pa	1	right
6.6.1	win	2023-06-01	23:53:13	00:17:11	1434914	592bb32c943e670001cde123	1	1	main_slash	24	main_slash	117	stimuli_target_rectanglediamonds.svg	stimuli_distractor_diamondtriangles.svg	6	yes	53	1	896	6	3	antiphase_hc_soi.wav	1	6	3	noise_calib_stim_LEFT.wav	1	35	blb_dichoticlistening_ta-pa.mp3	ta	pa	1	right
6.6.1	win	2023-06-01	23:53:13	00:17:11	1434914	592bb32c943e670001cde123	1	1	main_slash	24	advance_on_keypress_SLASH	118	stimuli_target_rectanglediamonds.svg	stimuli_distractor_diamondtriangles.svg	6	yes	57	0	633	6	3	antiphase_hc_soi.wav	1	6	3	noise_calib_stim_LEFT.wav	1	35	blb_dichoticlistening_ta-pa.mp3	ta	pa	1	right
6.6.1	win	2023-06-01	23:53:13	00:17:13	1437078	592bb32c943e670001cde123	1	1	main_slash	24	main_slash	119	stimuli_target_squarediamonds.svg	stimuli_distractor_trianglediamonds.svg	4	yes	53	1	892	6	3	antiphase_hc_soi.wav	1	6	3	noise_calib_stim_LEFT.wav	1	35	blb_dichoticlistening_ta-pa.mp3	ta	pa	1	right
6.6.1	win	2023-06-01	23:53:13	00:17:13	1437078	592bb32c943e670001cde123	1	1	main_slash	24	advance_on_keypress_SLASH	120	stimuli_target_squarediamonds.svg	stimuli_distractor_trianglediamonds.svg	4	yes	57	0	547	6	3	antiphase_hc_soi.wav	1	6	3	noise_calib_stim_LEFT.wav	1	35	blb_dichoticlistening_ta-pa.mp3	ta	pa	1	right
6.6.1	win	2023-06-01	23:53:13	00:17:16	1440270	592bb32c943e670001cde123	1	1	main_slash	24	main_slash	121	stimuli_distractor_diamondtriangles.svg	stimuli_target_diamondsquares.svg	32	yes	0	0	2000	6	3	antiphase_hc_soi.wav	1	6	3	noise_calib_stim_LEFT.wav	1	35	blb_dichoticlistening_ta-pa.mp3	ta	pa	1	right
6.6.1	win	2023-06-01	23:53:13	00:17:16	1440270	592bb32c943e670001cde123	1	1	main_slash	24	advance_on_keypress_SLASH	122	stimuli_distractor_diamondtriangles.svg	stimuli_target_diamondsquares.svg	32	yes	57	0	307	6	3	antiphase_hc_soi.wav	1	6	3	noise_calib_stim_LEFT.wav	1	35	blb_dichoticlistening_ta-pa.mp3	ta	pa	1	right
6.6.1	win	2023-06-01	23:53:13	00:17:18	1442013	592bb32c943e670001cde123	1	1	main_slash	24	main_slash	123	stimuli_distractor_diamondtriangles.svg	stimuli_target_rectangletriangles.svg	13	yes	53	1	793	6	3	antiphase_hc_soi.wav	1	6	3	noise_calib_stim_LEFT.wav	1	35	blb_dichoticlistening_ta-pa.mp3	ta	pa	1	right
6.6.1	win	2023-06-01	23:53:13	00:17:18	1442013	592bb32c943e670001cde123	1	1	main_slash	24	advance_on_keypress_SLASH	124	stimuli_distractor_diamondtriangles.svg	stimuli_target_rectangletriangles.svg	13	yes	57	0	954	6	3	antiphase_hc_soi.wav	1	6	3	noise_calib_stim_LEFT.wav	1	35	blb_dichoticlistening_ta-pa.mp3	ta	pa	1	right
6.6.1	win	2023-06-01	23:53:13	00:17:22	1445605	592bb32c943e670001cde123	1	1	main_slash	24	main_slash	125	stimuli_target_trianglesquares.svg	stimuli_distractor_trianglediamonds.svg	18	yes	0	0	2000	6	3	antiphase_hc_soi.wav	1	6	3	noise_calib_stim_LEFT.wav	1	35	blb_dichoticlistening_ta-pa.mp3	ta	pa	1	right
6.6.1	win	2023-06-01	23:53:13	00:17:22	1445605	592bb32c943e670001cde123	1	1	main_slash	24	advance_on_keypress_SLASH	126	stimuli_target_trianglesquares.svg	stimuli_distractor_trianglediamonds.svg	18	yes	57	0	363	6	3	antiphase_hc_soi.wav	1	6	3	noise_calib_stim_LEFT.wav	1	35	blb_dichoticlistening_ta-pa.mp3	ta	pa	1	right
6.6.1	win	2023-06-01	23:53:13	00:17:24	1447484	592bb32c943e670001cde123	1	1	main_slash	24	main_slash	127	stimuli_target_squaretriangles.svg	stimuli_distractor_trianglediamonds.svg	3	yes	53	1	862	6	3	antiphase_hc_soi.wav	1	6	3	noise_calib_stim_LEFT.wav	1	35	blb_dichoticlistening_ta-pa.mp3	ta	pa	1	right
6.6.1	win	2023-06-01	23:53:13	00:17:24	1447484	592bb32c943e670001cde123	1	1	main_slash	24	advance_on_keypress_SLASH	128	stimuli_target_squaretriangles.svg	stimuli_distractor_trianglediamonds.svg	3	yes	57	0	627	6	3	antiphase_hc_soi.wav	1	6	3	noise_calib_stim_LEFT.wav	1	35	blb_dichoticlistening_ta-pa.mp3	ta	pa	1	right
6.6.1	win	2023-06-01	23:53:13	00:17:27	1450741	592bb32c943e670001cde123	1	1	main_slash	24	main_slash	129	stimuli_target_trianglerectangles.svg	stimuli_distractor_diamondtriangles.svg	21	yes	0	0	2000	6	3	antiphase_hc_soi.wav	1	6	3	noise_calib_stim_LEFT.wav	1	35	blb_dichoticlistening_ta-pa.mp3	ta	pa	1	right
6.6.1	win	2023-06-01	23:53:13	00:17:27	1450741	592bb32c943e670001cde123	1	1	main_slash	24	advance_on_keypress_SLASH	130	stimuli_target_trianglerectangles.svg	stimuli_distractor_diamondtriangles.svg	21	yes	57	0	302	6	3	antiphase_hc_soi.wav	1	6	3	noise_calib_stim_LEFT.wav	1	35	blb_dichoticlistening_ta-pa.mp3	ta	pa	1	right
6.6.1	win	2023-06-01	23:53:13	00:17:29	1452619	592bb32c943e670001cde123	1	1	main_slash	24	main_slash	131	stimuli_target_rectangletriangles.svg	stimuli_distractor_diamondtriangles.svg	5	yes	53	1	927	6	3	antiphase_hc_soi.wav	1	6	3	noise_calib_stim_LEFT.wav	1	35	blb_dichoticlistening_ta-pa.mp3	ta	pa	1	right
6.6.1	win	2023-06-01	23:53:13	00:17:29	1452619	592bb32c943e670001cde123	1	1	main_slash	24	advance_on_keypress_SLASH	132	stimuli_target_rectangletriangles.svg	stimuli_distractor_diamondtriangles.svg	5	yes	57	0	706	6	3	antiphase_hc_soi.wav	1	6	3	noise_calib_stim_LEFT.wav	1	35	blb_dichoticlistening_ta-pa.mp3	ta	pa	1	right
6.6.1	win	2023-06-01	23:53:13	00:17:32	1455526	592bb32c943e670001cde123	1	1	main_slash	24	main_slash	133	stimuli_distractor_trianglediamonds.svg	stimuli_target_diamondsquares.svg	28	yes	53	1	1566	6	3	antiphase_hc_soi.wav	1	6	3	noise_calib_stim_LEFT.wav	1	35	blb_dichoticlistening_ta-pa.mp3	ta	pa	1	right
6.6.1	win	2023-06-01	23:53:13	00:17:32	1455526	592bb32c943e670001cde123	1	1	main_slash	24	advance_on_keypress_SLASH	134	stimuli_distractor_trianglediamonds.svg	stimuli_target_diamondsquares.svg	28	yes	57	0	567	6	3	antiphase_hc_soi.wav	1	6	3	noise_calib_stim_LEFT.wav	1	35	blb_dichoticlistening_ta-pa.mp3	ta	pa	1	right
6.6.1	win	2023-06-01	23:53:13	00:17:35	1458744	592bb32c943e670001cde123	1	1	main_slash	24	main_slash	135	stimuli_distractor_diamondtriangles.svg	stimuli_distractor_trianglediamonds.svg	37	no	0	1	2000	6	3	antiphase_hc_soi.wav	1	6	3	noise_calib_stim_LEFT.wav	1	35	blb_dichoticlistening_ta-pa.mp3	ta	pa	1	right
6.6.1	win	2023-06-01	23:53:13	00:17:35	1458744	592bb32c943e670001cde123	1	1	main_slash	24	advance_on_keypress_SLASH	136	stimuli_distractor_diamondtriangles.svg	stimuli_distractor_trianglediamonds.svg	37	no	57	0	358	6	3	antiphase_hc_soi.wav	1	6	3	noise_calib_stim_LEFT.wav	1	35	blb_dichoticlistening_ta-pa.mp3	ta	pa	1	right
6.6.1	win	2023-06-01	23:53:13	00:17:37	1460814	592bb32c943e670001cde123	1	1	main_slash	24	main_slash	137	stimuli_target_squaretriangles.svg	stimuli_distractor_diamondtriangles.svg	7	yes	53	1	1069	6	3	antiphase_hc_soi.wav	1	6	3	noise_calib_stim_LEFT.wav	1	35	blb_dichoticlistening_ta-pa.mp3	ta	pa	1	right
6.6.1	win	2023-06-01	23:53:13	00:17:37	1460814	592bb32c943e670001cde123	1	1	main_slash	24	advance_on_keypress_SLASH	138	stimuli_target_squaretriangles.svg	stimuli_distractor_diamondtriangles.svg	7	yes	57	0	563	6	3	antiphase_hc_soi.wav	1	6	3	noise_calib_stim_LEFT.wav	1	35	blb_dichoticlistening_ta-pa.mp3	ta	pa	1	right
6.6.1	win	2023-06-01	23:53:13	00:17:39	1463246	592bb32c943e670001cde123	1	1	main_slash	24	main_slash	139	stimuli_distractor_diamondtriangles.svg	stimuli_target_squaretriangles.svg	15	yes	53	1	1217	6	3	antiphase_hc_soi.wav	1	6	3	noise_calib_stim_LEFT.wav	1	35	blb_dichoticlistening_ta-pa.mp3	ta	pa	1	right
6.6.1	win	2023-06-01	23:53:13	00:17:39	1463246	592bb32c943e670001cde123	1	1	main_slash	24	advance_on_keypress_SLASH	140	stimuli_distractor_diamondtriangles.svg	stimuli_target_squaretriangles.svg	15	yes	57	0	568	6	3	antiphase_hc_soi.wav	1	6	3	noise_calib_stim_LEFT.wav	1	35	blb_dichoticlistening_ta-pa.mp3	ta	pa	1	right
6.6.1	win	2023-06-01	23:53:13	00:17:43	1466463	592bb32c943e670001cde123	1	1	main_slash	24	main_slash	141	stimuli_distractor_diamondtriangles.svg	stimuli_target_trianglesquares.svg	30	yes	0	0	2000	6	3	antiphase_hc_soi.wav	1	6	3	noise_calib_stim_LEFT.wav	1	35	blb_dichoticlistening_ta-pa.mp3	ta	pa	1	right
6.6.1	win	2023-06-01	23:53:13	00:17:43	1466463	592bb32c943e670001cde123	1	1	main_slash	24	advance_on_keypress_SLASH	142	stimuli_distractor_diamondtriangles.svg	stimuli_target_trianglesquares.svg	30	yes	57	0	543	6	3	antiphase_hc_soi.wav	1	6	3	noise_calib_stim_LEFT.wav	1	35	blb_dichoticlistening_ta-pa.mp3	ta	pa	1	right
6.6.1	win	2023-06-01	23:53:13	00:17:46	1469648	592bb32c943e670001cde123	1	1	main_slash	24	main_slash	143	stimuli_target_diamondrectangles.svg	stimuli_distractor_trianglediamonds.svg	19	yes	0	0	2000	6	3	antiphase_hc_soi.wav	1	6	3	noise_calib_stim_LEFT.wav	1	35	blb_dichoticlistening_ta-pa.mp3	ta	pa	1	right
6.6.1	win	2023-06-01	23:53:13	00:17:46	1469648	592bb32c943e670001cde123	1	1	main_slash	24	advance_on_keypress_SLASH	144	stimuli_target_diamondrectangles.svg	stimuli_distractor_trianglediamonds.svg	19	yes	57	0	441	6	3	antiphase_hc_soi.wav	1	6	3	noise_calib_stim_LEFT.wav	1	35	blb_dichoticlistening_ta-pa.mp3	ta	pa	1	right
6.6.1	win	2023-06-01	23:53:13	00:17:49	1472732	592bb32c943e670001cde123	1	1	main_slash	24	main_slash	145	stimuli_distractor_trianglediamonds.svg	stimuli_distractor_diamondtriangles.svg	35	no	0	1	2000	6	3	antiphase_hc_soi.wav	1	6	3	noise_calib_stim_LEFT.wav	1	35	blb_dichoticlistening_ta-pa.mp3	ta	pa	1	right
6.6.1	win	2023-06-01	23:53:13	00:17:49	1472732	592bb32c943e670001cde123	1	1	main_slash	24	advance_on_keypress_SLASH	146	stimuli_distractor_trianglediamonds.svg	stimuli_distractor_diamondtriangles.svg	35	no	57	0	409	6	3	antiphase_hc_soi.wav	1	6	3	noise_calib_stim_LEFT.wav	1	35	blb_dichoticlistening_ta-pa.mp3	ta	pa	1	right
6.6.1	win	2023-06-01	23:53:13	00:17:52	1475783	592bb32c943e670001cde123	1	1	main_slash	24	main_slash	147	stimuli_distractor_trianglediamonds.svg	stimuli_distractor_trianglediamonds.svg	33	no	0	1	2000	6	3	antiphase_hc_soi.wav	1	6	3	noise_calib_stim_LEFT.wav	1	35	blb_dichoticlistening_ta-pa.mp3	ta	pa	1	right
6.6.1	win	2023-06-01	23:53:13	00:17:52	1475783	592bb32c943e670001cde123	1	1	main_slash	24	advance_on_keypress_SLASH	148	stimuli_distractor_trianglediamonds.svg	stimuli_distractor_trianglediamonds.svg	33	no	57	0	435	6	3	antiphase_hc_soi.wav	1	6	3	noise_calib_stim_LEFT.wav	1	35	blb_dichoticlistening_ta-pa.mp3	ta	pa	1	right
6.6.1	win	2023-06-01	23:53:13	00:17:55	1478868	592bb32c943e670001cde123	1	1	main_slash	24	main_slash	149	stimuli_distractor_diamondtriangles.svg	stimuli_distractor_diamondtriangles.svg	40	no	0	1	2000	6	3	antiphase_hc_soi.wav	1	6	3	noise_calib_stim_LEFT.wav	1	35	blb_dichoticlistening_ta-pa.mp3	ta	pa	1	right
6.6.1	win	2023-06-01	23:53:13	00:17:55	1478868	592bb32c943e670001cde123	1	1	main_slash	24	advance_on_keypress_SLASH	150	stimuli_distractor_diamondtriangles.svg	stimuli_distractor_diamondtriangles.svg	40	no	57	0	342	6	3	antiphase_hc_soi.wav	1	6	3	noise_calib_stim_LEFT.wav	1	35	blb_dichoticlistening_ta-pa.mp3	ta	pa	1	right
6.6.1	win	2023-06-01	23:53:13	00:17:57	1480868	592bb32c943e670001cde123	1	1	main_slash	24	main_slash	151	stimuli_distractor_trianglediamonds.svg	stimuli_target_rectanglediamonds.svg	10	yes	53	1	1015	6	3	antiphase_hc_soi.wav	1	6	3	noise_calib_stim_LEFT.wav	1	35	blb_dichoticlistening_ta-pa.mp3	ta	pa	1	right
6.6.1	win	2023-06-01	23:53:13	00:17:57	1480868	592bb32c943e670001cde123	1	1	main_slash	24	advance_on_keypress_SLASH	152	stimuli_distractor_trianglediamonds.svg	stimuli_target_rectanglediamonds.svg	10	yes	57	0	747	6	3	antiphase_hc_soi.wav	1	6	3	noise_calib_stim_LEFT.wav	1	35	blb_dichoticlistening_ta-pa.mp3	ta	pa	1	right
6.6.1	win	2023-06-01	23:53:13	00:18:00	1484270	592bb32c943e670001cde123	1	1	main_slash	24	main_slash	153	stimuli_distractor_trianglediamonds.svg	stimuli_target_trianglesquares.svg	26	yes	0	0	2000	6	3	antiphase_hc_soi.wav	1	6	3	noise_calib_stim_LEFT.wav	1	35	blb_dichoticlistening_ta-pa.mp3	ta	pa	1	right
6.6.1	win	2023-06-01	23:53:13	00:18:00	1484270	592bb32c943e670001cde123	1	1	main_slash	24	advance_on_keypress_SLASH	154	stimuli_distractor_trianglediamonds.svg	stimuli_target_trianglesquares.svg	26	yes	57	0	498	6	3	antiphase_hc_soi.wav	1	6	3	noise_calib_stim_LEFT.wav	1	35	blb_dichoticlistening_ta-pa.mp3	ta	pa	1	right
6.6.1	win	2023-06-01	23:53:13	00:18:02	1486344	592bb32c943e670001cde123	1	1	main_slash	24	main_slash	155	stimuli_target_squarediamonds.svg	stimuli_distractor_diamondtriangles.svg	8	yes	53	1	922	6	3	antiphase_hc_soi.wav	1	6	3	noise_calib_stim_LEFT.wav	1	35	blb_dichoticlistening_ta-pa.mp3	ta	pa	1	right
6.6.1	win	2023-06-01	23:53:13	00:18:02	1486344	592bb32c943e670001cde123	1	1	main_slash	24	advance_on_keypress_SLASH	156	stimuli_target_squarediamonds.svg	stimuli_distractor_diamondtriangles.svg	8	yes	57	0	675	6	3	antiphase_hc_soi.wav	1	6	3	noise_calib_stim_LEFT.wav	1	35	blb_dichoticlistening_ta-pa.mp3	ta	pa	1	right
6.6.1	win	2023-06-01	23:53:13	00:18:05	1489173	592bb32c943e670001cde123	1	1	main_slash	24	main_slash	157	stimuli_distractor_trianglediamonds.svg	stimuli_target_diamondrectangles.svg	27	yes	53	1	1517	6	3	antiphase_hc_soi.wav	1	6	3	noise_calib_stim_LEFT.wav	1	35	blb_dichoticlistening_ta-pa.mp3	ta	pa	1	right
6.6.1	win	2023-06-01	23:53:13	00:18:05	1489173	592bb32c943e670001cde123	1	1	main_slash	24	advance_on_keypress_SLASH	158	stimuli_distractor_trianglediamonds.svg	stimuli_target_diamondrectangles.svg	27	yes	57	0	697	6	3	antiphase_hc_soi.wav	1	6	3	noise_calib_stim_LEFT.wav	1	35	blb_dichoticlistening_ta-pa.mp3	ta	pa	1	right
6.6.1	win	2023-06-01	23:53:13	00:18:07	1491326	592bb32c943e670001cde123	1	1	main_slash	24	main_slash	159	stimuli_target_rectanglediamonds.svg	stimuli_distractor_trianglediamonds.svg	2	yes	53	1	803	6	3	antiphase_hc_soi.wav	1	6	3	noise_calib_stim_LEFT.wav	1	35	blb_dichoticlistening_ta-pa.mp3	ta	pa	1	right
6.6.1	win	2023-06-01	23:53:13	00:18:07	1491326	592bb32c943e670001cde123	1	1	main_slash	24	advance_on_keypress_SLASH	160	stimuli_target_rectanglediamonds.svg	stimuli_distractor_trianglediamonds.svg	2	yes	57	0	785	6	3	antiphase_hc_soi.wav	1	6	3	noise_calib_stim_LEFT.wav	1	35	blb_dichoticlistening_ta-pa.mp3	ta	pa	1	right
6.6.1	win	2023-06-01	23:53:13	00:18:30	1513467	592bb32c943e670001cde123	1	1	practice_z	26	practice_z	1	stimuli_distractor_diamondtriangles.svg	stimuli_distractor_diamondtriangles.svg	13	no	0	1	2000	6	3	antiphase_hc_soi.wav	1	6	3	noise_calib_stim_LEFT.wav	1	35	blb_dichoticlistening_ta-pa.mp3	ta	pa	1	right
6.6.1	win	2023-06-01	23:53:13	00:18:30	1513467	592bb32c943e670001cde123	1	1	practice_z	26	advance_on_keypress_ZEE	2	stimuli_distractor_diamondtriangles.svg	stimuli_distractor_diamondtriangles.svg	13	no	57	0	657	6	3	antiphase_hc_soi.wav	1	6	3	noise_calib_stim_LEFT.wav	1	35	blb_dichoticlistening_ta-pa.mp3	ta	pa	1	right
6.6.1	win	2023-06-01	23:53:13	00:18:33	1516731	592bb32c943e670001cde123	1	1	practice_z	26	practice_z	3	stimuli_distractor_trianglediamonds.svg	stimuli_target_diamondrectangles.svg	12	yes	44	1	964	6	3	antiphase_hc_soi.wav	1	6	3	noise_calib_stim_LEFT.wav	1	35	blb_dichoticlistening_ta-pa.mp3	ta	pa	1	right
6.6.1	win	2023-06-01	23:53:13	00:18:33	1516731	592bb32c943e670001cde123	1	1	practice_z	26	advance_on_keypress_ZEE	4	stimuli_distractor_trianglediamonds.svg	stimuli_target_diamondrectangles.svg	12	yes	57	0	506	6	3	antiphase_hc_soi.wav	1	6	3	noise_calib_stim_LEFT.wav	1	35	blb_dichoticlistening_ta-pa.mp3	ta	pa	1	right
6.6.1	win	2023-06-01	23:53:13	00:18:36	1519598	592bb32c943e670001cde123	1	1	practice_z	26	practice_z	5	stimuli_target_rectanglediamonds.svg	stimuli_distractor_diamondtriangles.svg	1	yes	44	1	712	6	3	antiphase_hc_soi.wav	1	6	3	noise_calib_stim_LEFT.wav	1	35	blb_dichoticlistening_ta-pa.mp3	ta	pa	1	right
6.6.1	win	2023-06-01	23:53:13	00:18:36	1519598	592bb32c943e670001cde123	1	1	practice_z	26	advance_on_keypress_ZEE	6	stimuli_target_rectanglediamonds.svg	stimuli_distractor_diamondtriangles.svg	1	yes	57	0	343	6	3	antiphase_hc_soi.wav	1	6	3	noise_calib_stim_LEFT.wav	1	35	blb_dichoticlistening_ta-pa.mp3	ta	pa	1	right
6.6.1	win	2023-06-01	23:53:13	00:18:40	1523587	592bb32c943e670001cde123	1	1	practice_z	26	practice_z	7	stimuli_distractor_diamondtriangles.svg	stimuli_target_diamondrectangles.svg	8	yes	0	0	2000	6	3	antiphase_hc_soi.wav	1	6	3	noise_calib_stim_LEFT.wav	1	35	blb_dichoticlistening_ta-pa.mp3	ta	pa	1	right
6.6.1	win	2023-06-01	23:53:13	00:18:40	1523587	592bb32c943e670001cde123	1	1	practice_z	26	advance_on_keypress_ZEE	8	stimuli_distractor_diamondtriangles.svg	stimuli_target_diamondrectangles.svg	8	yes	57	0	11	6	3	antiphase_hc_soi.wav	1	6	3	noise_calib_stim_LEFT.wav	1	35	blb_dichoticlistening_ta-pa.mp3	ta	pa	1	right
6.6.1	win	2023-06-01	23:53:13	00:18:42	1525929	592bb32c943e670001cde123	1	1	practice_z	26	practice_z	9	stimuli_target_diamondsquares.svg	stimuli_distractor_diamondtriangles.svg	3	yes	44	1	674	6	3	antiphase_hc_soi.wav	1	6	3	noise_calib_stim_LEFT.wav	1	35	blb_dichoticlistening_ta-pa.mp3	ta	pa	1	right
6.6.1	win	2023-06-01	23:53:13	00:18:42	1525929	592bb32c943e670001cde123	1	1	practice_z	26	advance_on_keypress_ZEE	10	stimuli_target_diamondsquares.svg	stimuli_distractor_diamondtriangles.svg	3	yes	57	0	431	6	3	antiphase_hc_soi.wav	1	6	3	noise_calib_stim_LEFT.wav	1	35	blb_dichoticlistening_ta-pa.mp3	ta	pa	1	right
6.6.1	win	2023-06-01	23:53:13	00:18:46	1530006	592bb32c943e670001cde123	1	1	practice_z	26	practice_z	11	stimuli_distractor_trianglediamonds.svg	stimuli_distractor_trianglediamonds.svg	15	no	0	1	2000	6	3	antiphase_hc_soi.wav	1	6	3	noise_calib_stim_LEFT.wav	1	35	blb_dichoticlistening_ta-pa.mp3	ta	pa	1	right
6.6.1	win	2023-06-01	23:53:13	00:18:46	1530006	592bb32c943e670001cde123	1	1	practice_z	26	advance_on_keypress_ZEE	12	stimuli_distractor_trianglediamonds.svg	stimuli_distractor_trianglediamonds.svg	15	no	57	0	417	6	3	antiphase_hc_soi.wav	1	6	3	noise_calib_stim_LEFT.wav	1	35	blb_dichoticlistening_ta-pa.mp3	ta	pa	1	right
6.6.1	win	2023-06-01	23:53:13	00:18:49	1533000	592bb32c943e670001cde123	1	1	practice_z	26	practice_z	13	stimuli_target_squarediamonds.svg	stimuli_distractor_diamondtriangles.svg	2	yes	44	1	926	6	3	antiphase_hc_soi.wav	1	6	3	noise_calib_stim_LEFT.wav	1	35	blb_dichoticlistening_ta-pa.mp3	ta	pa	1	right
6.6.1	win	2023-06-01	23:53:13	00:18:49	1533000	592bb32c943e670001cde123	1	1	practice_z	26	advance_on_keypress_ZEE	14	stimuli_target_squarediamonds.svg	stimuli_distractor_diamondtriangles.svg	2	yes	57	0	430	6	3	antiphase_hc_soi.wav	1	6	3	noise_calib_stim_LEFT.wav	1	35	blb_dichoticlistening_ta-pa.mp3	ta	pa	1	right
