build	computer.platform	date	time	timestamp	time_elapsed_ms	subject	group	session	blockcode	blocknum	trialcode	trialnum	stimulus_left	stimulus_right	stim_index	target_present	response	correct	latency	headphonecheck_countTestTrials	headphonecheck_index	headphonecheck_testSound	headphonecheck_correctResponse	stereocheck_countTestTrials	stereocheck_index	stereocheck_testSound	stereocheck_correctResponse	DL_index	DL_soundfile	DL_leftSound	DL_rightSound	DL_dualSound	DL_choice
6.6.1	and	2023-06-02	07:09:29	07:13:03	192023	58ed2be2a083320001a13783	3	1	practice_slash	5	practice_slash	1	stimuli_target_squarediamonds.svg	stimuli_distractor_diamondtriangles.svg	2	yes	53	1	1122	0	0			0	0			1				0	
6.6.1	and	2023-06-02	07:09:29	07:13:03	192023	58ed2be2a083320001a13783	3	1	practice_slash	5	advance_on_keypress_SLASH	2	stimuli_target_squarediamonds.svg	stimuli_distractor_diamondtriangles.svg	2	yes	57	0	1186	0	0			0	0			1				0	
6.6.1	and	2023-06-02	07:09:29	07:13:08	196898	58ed2be2a083320001a13783	3	1	practice_slash	5	practice_slash	3	stimuli_target_diamondsquares.svg	stimuli_distractor_trianglediamonds.svg	6	yes	0	0	2000	0	0			0	0			1				0	
6.6.1	and	2023-06-02	07:09:29	07:13:08	196898	58ed2be2a083320001a13783	3	1	practice_slash	5	advance_on_keypress_SLASH	4	stimuli_target_diamondsquares.svg	stimuli_distractor_trianglediamonds.svg	6	yes	57	0	993	0	0			0	0			1				0	
6.6.1	and	2023-06-02	07:09:29	07:13:12	201539	58ed2be2a083320001a13783	3	1	practice_slash	5	practice_slash	5	stimuli_distractor_diamondtriangles.svg	stimuli_distractor_trianglediamonds.svg	14	no	0	1	2000	0	0			0	0			1				0	
6.6.1	and	2023-06-02	07:09:29	07:13:12	201539	58ed2be2a083320001a13783	3	1	practice_slash	5	advance_on_keypress_SLASH	6	stimuli_distractor_diamondtriangles.svg	stimuli_distractor_trianglediamonds.svg	14	no	57	0	463	0	0			0	0			1				0	
6.6.1	and	2023-06-02	07:09:29	07:13:17	205647	58ed2be2a083320001a13783	3	1	practice_slash	5	practice_slash	7	stimuli_distractor_trianglediamonds.svg	stimuli_distractor_diamondtriangles.svg	16	no	0	1	2000	0	0			0	0			1				0	
6.6.1	and	2023-06-02	07:09:29	07:13:17	205647	58ed2be2a083320001a13783	3	1	practice_slash	5	advance_on_keypress_SLASH	8	stimuli_distractor_trianglediamonds.svg	stimuli_distractor_diamondtriangles.svg	16	no	57	0	836	0	0			0	0			1				0	
6.6.1	and	2023-06-02	07:09:29	07:13:21	210138	58ed2be2a083320001a13783	3	1	practice_slash	5	practice_slash	9	stimuli_distractor_trianglediamonds.svg	stimuli_distractor_trianglediamonds.svg	15	no	0	1	2000	0	0			0	0			1				0	
6.6.1	and	2023-06-02	07:09:29	07:13:21	210138	58ed2be2a083320001a13783	3	1	practice_slash	5	advance_on_keypress_SLASH	10	stimuli_distractor_trianglediamonds.svg	stimuli_distractor_trianglediamonds.svg	15	no	57	0	267	0	0			0	0			1				0	
6.6.1	and	2023-06-02	07:09:29	07:13:25	213709	58ed2be2a083320001a13783	3	1	practice_slash	5	practice_slash	11	stimuli_distractor_trianglediamonds.svg	stimuli_target_rectanglediamonds.svg	10	yes	53	1	1645	0	0			0	0			1				0	
6.6.1	and	2023-06-02	07:09:29	07:13:25	213709	58ed2be2a083320001a13783	3	1	practice_slash	5	advance_on_keypress_SLASH	12	stimuli_distractor_trianglediamonds.svg	stimuli_target_rectanglediamonds.svg	10	yes	57	0	425	0	0			0	0			1				0	
6.6.1	and	2023-06-02	07:09:29	07:13:28	216995	58ed2be2a083320001a13783	3	1	practice_slash	5	practice_slash	13	stimuli_distractor_diamondtriangles.svg	stimuli_distractor_diamondtriangles.svg	13	no	53	0	1201	0	0			0	0			1				0	
6.6.1	and	2023-06-02	07:09:29	07:13:28	216995	58ed2be2a083320001a13783	3	1	practice_slash	5	advance_on_keypress_SLASH	14	stimuli_distractor_diamondtriangles.svg	stimuli_distractor_diamondtriangles.svg	13	no	57	0	508	0	0			0	0			1				0	
6.6.1	and	2023-06-02	07:09:29	07:13:31	220483	58ed2be2a083320001a13783	3	1	practice_slash	5	practice_slash	15	stimuli_target_rectanglediamonds.svg	stimuli_distractor_diamondtriangles.svg	1	yes	53	1	1314	0	0			0	0			1				0	
6.6.1	and	2023-06-02	07:09:29	07:13:31	220483	58ed2be2a083320001a13783	3	1	practice_slash	5	advance_on_keypress_SLASH	16	stimuli_target_rectanglediamonds.svg	stimuli_distractor_diamondtriangles.svg	1	yes	57	0	1609	0	0			0	0			1				0	
6.6.1	and	2023-06-02	07:09:29	07:13:36	224849	58ed2be2a083320001a13783	3	1	practice_slash	5	practice_slash	17	stimuli_target_squarediamonds.svg	stimuli_distractor_trianglediamonds.svg	5	yes	53	1	1108	0	0			0	0			1				0	
6.6.1	and	2023-06-02	07:09:29	07:13:36	224849	58ed2be2a083320001a13783	3	1	practice_slash	5	advance_on_keypress_SLASH	18	stimuli_target_squarediamonds.svg	stimuli_distractor_trianglediamonds.svg	5	yes	57	0	362	0	0			0	0			1				0	
6.6.1	and	2023-06-02	07:09:29	07:13:39	227925	58ed2be2a083320001a13783	3	1	practice_slash	5	practice_slash	19	stimuli_target_rectanglediamonds.svg	stimuli_distractor_trianglediamonds.svg	4	yes	53	1	1037	0	0			0	0			1				0	
6.6.1	and	2023-06-02	07:09:29	07:13:39	227925	58ed2be2a083320001a13783	3	1	practice_slash	5	advance_on_keypress_SLASH	20	stimuli_target_rectanglediamonds.svg	stimuli_distractor_trianglediamonds.svg	4	yes	57	0	466	0	0			0	0			1				0	
6.6.1	and	2023-06-02	07:09:29	07:13:42	231163	58ed2be2a083320001a13783	3	1	practice_slash	5	practice_slash	21	stimuli_distractor_diamondtriangles.svg	stimuli_target_trianglerectangles.svg	9	yes	53	1	1097	0	0			0	0			1				0	
6.6.1	and	2023-06-02	07:09:29	07:13:42	231163	58ed2be2a083320001a13783	3	1	practice_slash	5	advance_on_keypress_SLASH	22	stimuli_distractor_diamondtriangles.svg	stimuli_target_trianglerectangles.svg	9	yes	57	0	446	0	0			0	0			1				0	
6.6.1	and	2023-06-02	07:09:29	07:13:46	235276	58ed2be2a083320001a13783	3	1	practice_slash	5	practice_slash	23	stimuli_distractor_diamondtriangles.svg	stimuli_target_diamondrectangles.svg	8	yes	0	0	2000	0	0			0	0			1				0	
6.6.1	and	2023-06-02	07:09:29	07:13:46	235276	58ed2be2a083320001a13783	3	1	practice_slash	5	advance_on_keypress_SLASH	24	stimuli_distractor_diamondtriangles.svg	stimuli_target_diamondrectangles.svg	8	yes	57	0	132	0	0			0	0			1				0	
6.6.1	and	2023-06-02	07:09:29	07:13:50	239069	58ed2be2a083320001a13783	3	1	practice_slash	5	practice_slash	25	stimuli_target_diamondsquares.svg	stimuli_distractor_diamondtriangles.svg	3	yes	0	0	2000	0	0			0	0			1				0	
6.6.1	and	2023-06-02	07:09:29	07:13:50	239069	58ed2be2a083320001a13783	3	1	practice_slash	5	advance_on_keypress_SLASH	26	stimuli_target_diamondsquares.svg	stimuli_distractor_diamondtriangles.svg	3	yes	57	0	269	0	0			0	0			1				0	
6.6.1	and	2023-06-02	07:09:29	07:13:53	242233	58ed2be2a083320001a13783	3	1	practice_slash	5	practice_slash	27	stimuli_distractor_trianglediamonds.svg	stimuli_target_squarediamonds.svg	11	yes	53	1	1238	0	0			0	0			1				0	
6.6.1	and	2023-06-02	07:09:29	07:13:53	242233	58ed2be2a083320001a13783	3	1	practice_slash	5	advance_on_keypress_SLASH	28	stimuli_distractor_trianglediamonds.svg	stimuli_target_squarediamonds.svg	11	yes	57	0	534	0	0			0	0			1				0	
6.6.1	and	2023-06-02	07:09:29	07:13:56	245540	58ed2be2a083320001a13783	3	1	practice_slash	5	practice_slash	29	stimuli_distractor_diamondtriangles.svg	stimuli_target_rectangletriangles.svg	7	yes	53	1	1100	0	0			0	0			1				0	
6.6.1	and	2023-06-02	07:09:29	07:13:56	245540	58ed2be2a083320001a13783	3	1	practice_slash	5	advance_on_keypress_SLASH	30	stimuli_distractor_diamondtriangles.svg	stimuli_target_rectangletriangles.svg	7	yes	57	0	529	0	0			0	0			1				0	
6.6.1	and	2023-06-02	07:09:29	07:14:00	249018	58ed2be2a083320001a13783	3	1	practice_slash	5	practice_slash	31	stimuli_distractor_trianglediamonds.svg	stimuli_target_diamondrectangles.svg	12	yes	53	1	1303	0	0			0	0			1				0	
6.6.1	and	2023-06-02	07:09:29	07:14:00	249018	58ed2be2a083320001a13783	3	1	practice_slash	5	advance_on_keypress_SLASH	32	stimuli_distractor_trianglediamonds.svg	stimuli_target_diamondrectangles.svg	12	yes	57	0	501	0	0			0	0			1				0	
6.6.1	and	2023-06-02	07:09:29	07:14:20	269526	58ed2be2a083320001a13783	3	1	main_slash	7	main_slash	1	stimuli_distractor_diamondtriangles.svg	stimuli_target_diamondrectangles.svg	31	yes	0	0	2000	0	0			0	0			1				0	
6.6.1	and	2023-06-02	07:09:29	07:14:20	269526	58ed2be2a083320001a13783	3	1	main_slash	7	advance_on_keypress_SLASH	2	stimuli_distractor_diamondtriangles.svg	stimuli_target_diamondrectangles.svg	31	yes	57	0	607	0	0			0	0			1				0	
6.6.1	and	2023-06-02	07:09:29	07:14:23	271773	58ed2be2a083320001a13783	3	1	main_slash	7	main_slash	3	stimuli_distractor_trianglediamonds.svg	stimuli_target_diamondsquares.svg	28	yes	53	1	992	0	0			0	0			1				0	
6.6.1	and	2023-06-02	07:09:29	07:14:23	271773	58ed2be2a083320001a13783	3	1	main_slash	7	advance_on_keypress_SLASH	4	stimuli_distractor_trianglediamonds.svg	stimuli_target_diamondsquares.svg	28	yes	57	0	754	0	0			0	0			1				0	
6.6.1	and	2023-06-02	07:09:29	07:14:25	274182	58ed2be2a083320001a13783	3	1	main_slash	7	main_slash	5	stimuli_distractor_trianglediamonds.svg	stimuli_target_rectangletriangles.svg	9	yes	53	1	1021	0	0			0	0			1				0	
6.6.1	and	2023-06-02	07:09:29	07:14:25	274182	58ed2be2a083320001a13783	3	1	main_slash	7	advance_on_keypress_SLASH	6	stimuli_distractor_trianglediamonds.svg	stimuli_target_rectangletriangles.svg	9	yes	57	0	677	0	0			0	0			1				0	
6.6.1	and	2023-06-02	07:09:29	07:14:28	277505	58ed2be2a083320001a13783	3	1	main_slash	7	main_slash	7	stimuli_target_trianglesquares.svg	stimuli_distractor_diamondtriangles.svg	22	yes	0	0	2000	0	0			0	0			1				0	
6.6.1	and	2023-06-02	07:09:29	07:14:28	277505	58ed2be2a083320001a13783	3	1	main_slash	7	advance_on_keypress_SLASH	8	stimuli_target_trianglesquares.svg	stimuli_distractor_diamondtriangles.svg	22	yes	57	0	342	0	0			0	0			1				0	
6.6.1	and	2023-06-02	07:09:29	07:14:30	279335	58ed2be2a083320001a13783	3	1	main_slash	7	main_slash	9	stimuli_target_rectangletriangles.svg	stimuli_distractor_trianglediamonds.svg	1	yes	53	1	834	0	0			0	0			1				0	
6.6.1	and	2023-06-02	07:09:29	07:14:30	279335	58ed2be2a083320001a13783	3	1	main_slash	7	advance_on_keypress_SLASH	10	stimuli_target_rectangletriangles.svg	stimuli_distractor_trianglediamonds.svg	1	yes	57	0	644	0	0			0	0			1				0	
6.6.1	and	2023-06-02	07:09:29	07:14:34	282633	58ed2be2a083320001a13783	3	1	main_slash	7	main_slash	11	stimuli_distractor_diamondtriangles.svg	stimuli_distractor_trianglediamonds.svg	37	no	0	1	2000	0	0			0	0			1				0	
6.6.1	and	2023-06-02	07:09:29	07:14:34	282633	58ed2be2a083320001a13783	3	1	main_slash	7	advance_on_keypress_SLASH	12	stimuli_distractor_diamondtriangles.svg	stimuli_distractor_trianglediamonds.svg	37	no	57	0	540	0	0			0	0			1				0	
6.6.1	and	2023-06-02	07:09:29	07:14:36	284810	58ed2be2a083320001a13783	3	1	main_slash	7	main_slash	13	stimuli_target_diamondrectangles.svg	stimuli_distractor_diamondtriangles.svg	23	yes	53	1	985	0	0			0	0			1				0	
6.6.1	and	2023-06-02	07:09:29	07:14:36	284810	58ed2be2a083320001a13783	3	1	main_slash	7	advance_on_keypress_SLASH	14	stimuli_target_diamondrectangles.svg	stimuli_distractor_diamondtriangles.svg	23	yes	57	0	637	0	0			0	0			1				0	
6.6.1	and	2023-06-02	07:09:29	07:14:39	287630	58ed2be2a083320001a13783	3	1	main_slash	7	main_slash	15	stimuli_distractor_diamondtriangles.svg	stimuli_target_rectangletriangles.svg	13	yes	53	1	1529	0	0			0	0			1				0	
6.6.1	and	2023-06-02	07:09:29	07:14:39	287630	58ed2be2a083320001a13783	3	1	main_slash	7	advance_on_keypress_SLASH	16	stimuli_distractor_diamondtriangles.svg	stimuli_target_rectangletriangles.svg	13	yes	57	0	621	0	0			0	0			1				0	
6.6.1	and	2023-06-02	07:09:29	07:14:42	290901	58ed2be2a083320001a13783	3	1	main_slash	7	main_slash	17	stimuli_distractor_diamondtriangles.svg	stimuli_distractor_trianglediamonds.svg	38	no	0	1	2000	0	0			0	0			1				0	
6.6.1	and	2023-06-02	07:09:29	07:14:42	290901	58ed2be2a083320001a13783	3	1	main_slash	7	advance_on_keypress_SLASH	18	stimuli_distractor_diamondtriangles.svg	stimuli_distractor_trianglediamonds.svg	38	no	57	0	440	0	0			0	0			1				0	
6.6.1	and	2023-06-02	07:09:29	07:14:45	293993	58ed2be2a083320001a13783	3	1	main_slash	7	main_slash	19	stimuli_distractor_trianglediamonds.svg	stimuli_distractor_trianglediamonds.svg	33	no	0	1	2000	0	0			0	0			1				0	
6.6.1	and	2023-06-02	07:09:29	07:14:45	293993	58ed2be2a083320001a13783	3	1	main_slash	7	advance_on_keypress_SLASH	20	stimuli_distractor_trianglediamonds.svg	stimuli_distractor_trianglediamonds.svg	33	no	57	0	473	0	0			0	0			1				0	
6.6.1	and	2023-06-02	07:09:29	07:14:48	297122	58ed2be2a083320001a13783	3	1	main_slash	7	main_slash	21	stimuli_target_trianglerectangles.svg	stimuli_distractor_diamondtriangles.svg	21	yes	0	0	2000	0	0			0	0			1				0	
6.6.1	and	2023-06-02	07:09:29	07:14:48	297122	58ed2be2a083320001a13783	3	1	main_slash	7	advance_on_keypress_SLASH	22	stimuli_target_trianglerectangles.svg	stimuli_distractor_diamondtriangles.svg	21	yes	57	0	526	0	0			0	0			1				0	
6.6.1	and	2023-06-02	07:09:29	07:14:50	299182	58ed2be2a083320001a13783	3	1	main_slash	7	main_slash	23	stimuli_target_rectangletriangles.svg	stimuli_distractor_diamondtriangles.svg	5	yes	53	1	885	0	0			0	0			1				0	
6.6.1	and	2023-06-02	07:09:29	07:14:50	299182	58ed2be2a083320001a13783	3	1	main_slash	7	advance_on_keypress_SLASH	24	stimuli_target_rectangletriangles.svg	stimuli_distractor_diamondtriangles.svg	5	yes	57	0	1102	0	0			0	0			1				0	
6.6.1	and	2023-06-02	07:09:29	07:14:53	302004	58ed2be2a083320001a13783	3	1	main_slash	7	main_slash	25	stimuli_distractor_trianglediamonds.svg	stimuli_target_squaretriangles.svg	11	yes	53	1	1061	0	0			0	0			1				0	
6.6.1	and	2023-06-02	07:09:29	07:14:53	302004	58ed2be2a083320001a13783	3	1	main_slash	7	advance_on_keypress_SLASH	26	stimuli_distractor_trianglediamonds.svg	stimuli_target_squaretriangles.svg	11	yes	57	0	726	0	0			0	0			1				0	
6.6.1	and	2023-06-02	07:09:29	07:14:55	304249	58ed2be2a083320001a13783	3	1	main_slash	7	main_slash	27	stimuli_distractor_trianglediamonds.svg	stimuli_target_rectanglediamonds.svg	10	yes	53	1	879	0	0			0	0			1				0	
6.6.1	and	2023-06-02	07:09:29	07:14:55	304249	58ed2be2a083320001a13783	3	1	main_slash	7	advance_on_keypress_SLASH	28	stimuli_distractor_trianglediamonds.svg	stimuli_target_rectanglediamonds.svg	10	yes	57	0	577	0	0			0	0			1				0	
6.6.1	and	2023-06-02	07:09:29	07:14:57	306441	58ed2be2a083320001a13783	3	1	main_slash	7	main_slash	29	stimuli_target_rectanglediamonds.svg	stimuli_distractor_trianglediamonds.svg	2	yes	53	1	973	0	0			0	0			1				0	
6.6.1	and	2023-06-02	07:09:29	07:14:57	306441	58ed2be2a083320001a13783	3	1	main_slash	7	advance_on_keypress_SLASH	30	stimuli_target_rectanglediamonds.svg	stimuli_distractor_trianglediamonds.svg	2	yes	57	0	399	0	0			0	0			1				0	
6.6.1	and	2023-06-02	07:09:29	07:14:59	308403	58ed2be2a083320001a13783	3	1	main_slash	7	main_slash	31	stimuli_target_squaretriangles.svg	stimuli_distractor_diamondtriangles.svg	7	yes	53	1	903	0	0			0	0			1				0	
6.6.1	and	2023-06-02	07:09:29	07:14:59	308403	58ed2be2a083320001a13783	3	1	main_slash	7	advance_on_keypress_SLASH	32	stimuli_target_squaretriangles.svg	stimuli_distractor_diamondtriangles.svg	7	yes	57	0	429	0	0			0	0			1				0	
6.6.1	and	2023-06-02	07:09:29	07:15:01	310404	58ed2be2a083320001a13783	3	1	main_slash	7	main_slash	33	stimuli_distractor_diamondtriangles.svg	stimuli_target_squaretriangles.svg	15	yes	53	1	926	0	0			0	0			1				0	
6.6.1	and	2023-06-02	07:09:29	07:15:01	310404	58ed2be2a083320001a13783	3	1	main_slash	7	advance_on_keypress_SLASH	34	stimuli_distractor_diamondtriangles.svg	stimuli_target_squaretriangles.svg	15	yes	57	0	504	0	0			0	0			1				0	
6.6.1	and	2023-06-02	07:09:29	07:15:05	313560	58ed2be2a083320001a13783	3	1	main_slash	7	main_slash	35	stimuli_distractor_trianglediamonds.svg	stimuli_distractor_trianglediamonds.svg	34	no	0	1	2000	0	0			0	0			1				0	
6.6.1	and	2023-06-02	07:09:29	07:15:05	313560	58ed2be2a083320001a13783	3	1	main_slash	7	advance_on_keypress_SLASH	36	stimuli_distractor_trianglediamonds.svg	stimuli_distractor_trianglediamonds.svg	34	no	57	0	426	0	0			0	0			1				0	
6.6.1	and	2023-06-02	07:09:29	07:15:07	315620	58ed2be2a083320001a13783	3	1	main_slash	7	main_slash	37	stimuli_target_squarediamonds.svg	stimuli_distractor_diamondtriangles.svg	8	yes	53	1	984	0	0			0	0			1				0	
6.6.1	and	2023-06-02	07:09:29	07:15:07	315620	58ed2be2a083320001a13783	3	1	main_slash	7	advance_on_keypress_SLASH	38	stimuli_target_squarediamonds.svg	stimuli_distractor_diamondtriangles.svg	8	yes	57	0	678	0	0			0	0			1				0	
6.6.1	and	2023-06-02	07:09:29	07:15:09	318482	58ed2be2a083320001a13783	3	1	main_slash	7	main_slash	39	stimuli_distractor_diamondtriangles.svg	stimuli_target_trianglesquares.svg	30	yes	53	1	1537	0	0			0	0			1				0	
6.6.1	and	2023-06-02	07:09:29	07:15:09	318482	58ed2be2a083320001a13783	3	1	main_slash	7	advance_on_keypress_SLASH	40	stimuli_distractor_diamondtriangles.svg	stimuli_target_trianglesquares.svg	30	yes	57	0	586	0	0			0	0			1				0	
6.6.1	and	2023-06-02	07:09:29	07:15:12	320882	58ed2be2a083320001a13783	3	1	main_slash	7	main_slash	41	stimuli_distractor_trianglediamonds.svg	stimuli_target_diamondrectangles.svg	27	yes	53	1	1158	0	0			0	0			1				0	
6.6.1	and	2023-06-02	07:09:29	07:15:12	320882	58ed2be2a083320001a13783	3	1	main_slash	7	advance_on_keypress_SLASH	42	stimuli_distractor_trianglediamonds.svg	stimuli_target_diamondrectangles.svg	27	yes	57	0	519	0	0			0	0			1				0	
6.6.1	and	2023-06-02	07:09:29	07:15:15	324055	58ed2be2a083320001a13783	3	1	main_slash	7	main_slash	43	stimuli_distractor_trianglediamonds.svg	stimuli_target_trianglerectangles.svg	25	yes	0	0	2000	0	0			0	0			1				0	
6.6.1	and	2023-06-02	07:09:29	07:15:15	324055	58ed2be2a083320001a13783	3	1	main_slash	7	advance_on_keypress_SLASH	44	stimuli_distractor_trianglediamonds.svg	stimuli_target_trianglerectangles.svg	25	yes	57	0	468	0	0			0	0			1				0	
6.6.1	and	2023-06-02	07:09:29	07:15:18	326571	58ed2be2a083320001a13783	3	1	main_slash	7	main_slash	45	stimuli_distractor_diamondtriangles.svg	stimuli_target_trianglerectangles.svg	29	yes	53	1	1391	0	0			0	0			1				0	
6.6.1	and	2023-06-02	07:09:29	07:15:18	326571	58ed2be2a083320001a13783	3	1	main_slash	7	advance_on_keypress_SLASH	46	stimuli_distractor_diamondtriangles.svg	stimuli_target_trianglerectangles.svg	29	yes	57	0	553	0	0			0	0			1				0	
6.6.1	and	2023-06-02	07:09:29	07:15:21	329777	58ed2be2a083320001a13783	3	1	main_slash	7	main_slash	47	stimuli_distractor_diamondtriangles.svg	stimuli_distractor_diamondtriangles.svg	40	no	0	1	2000	0	0			0	0			1				0	
6.6.1	and	2023-06-02	07:09:29	07:15:21	329777	58ed2be2a083320001a13783	3	1	main_slash	7	advance_on_keypress_SLASH	48	stimuli_distractor_diamondtriangles.svg	stimuli_distractor_diamondtriangles.svg	40	no	57	0	4074	0	0			0	0			1				0	
6.6.1	and	2023-06-02	07:09:29	07:15:26	335358	58ed2be2a083320001a13783	3	1	main_slash	7	main_slash	49	stimuli_target_squaretriangles.svg	stimuli_distractor_trianglediamonds.svg	3	yes	53	1	857	0	0			0	0			1				0	
6.6.1	and	2023-06-02	07:09:29	07:15:26	335358	58ed2be2a083320001a13783	3	1	main_slash	7	advance_on_keypress_SLASH	50	stimuli_target_squaretriangles.svg	stimuli_distractor_trianglediamonds.svg	3	yes	57	0	833	0	0			0	0			1				0	
6.6.1	and	2023-06-02	07:09:29	07:15:29	338057	58ed2be2a083320001a13783	3	1	main_slash	7	main_slash	51	stimuli_distractor_diamondtriangles.svg	stimuli_target_diamondsquares.svg	32	yes	53	1	1231	0	0			0	0			1				0	
6.6.1	and	2023-06-02	07:09:29	07:15:29	338057	58ed2be2a083320001a13783	3	1	main_slash	7	advance_on_keypress_SLASH	52	stimuli_distractor_diamondtriangles.svg	stimuli_target_diamondsquares.svg	32	yes	57	0	710	0	0			0	0			1				0	
6.6.1	and	2023-06-02	07:09:29	07:15:32	341424	58ed2be2a083320001a13783	3	1	main_slash	7	main_slash	53	stimuli_distractor_trianglediamonds.svg	stimuli_distractor_diamondtriangles.svg	36	no	0	1	2000	0	0			0	0			1				0	
6.6.1	and	2023-06-02	07:09:29	07:15:32	341424	58ed2be2a083320001a13783	3	1	main_slash	7	advance_on_keypress_SLASH	54	stimuli_distractor_trianglediamonds.svg	stimuli_distractor_diamondtriangles.svg	36	no	57	0	342	0	0			0	0			1				0	
6.6.1	and	2023-06-02	07:09:29	07:15:34	343333	58ed2be2a083320001a13783	3	1	main_slash	7	main_slash	55	stimuli_distractor_diamondtriangles.svg	stimuli_target_rectanglediamonds.svg	14	yes	53	1	917	0	0			0	0			1				0	
6.6.1	and	2023-06-02	07:09:29	07:15:34	343333	58ed2be2a083320001a13783	3	1	main_slash	7	advance_on_keypress_SLASH	56	stimuli_distractor_diamondtriangles.svg	stimuli_target_rectanglediamonds.svg	14	yes	57	0	633	0	0			0	0			1				0	
6.6.1	and	2023-06-02	07:09:29	07:15:38	346633	58ed2be2a083320001a13783	3	1	main_slash	7	main_slash	57	stimuli_target_diamondrectangles.svg	stimuli_distractor_trianglediamonds.svg	19	yes	0	0	2000	0	0			0	0			1				0	
6.6.1	and	2023-06-02	07:09:29	07:15:38	346633	58ed2be2a083320001a13783	3	1	main_slash	7	advance_on_keypress_SLASH	58	stimuli_target_diamondrectangles.svg	stimuli_distractor_trianglediamonds.svg	19	yes	57	0	371	0	0			0	0			1				0	
6.6.1	and	2023-06-02	07:09:29	07:15:39	348490	58ed2be2a083320001a13783	3	1	main_slash	7	main_slash	59	stimuli_target_rectanglediamonds.svg	stimuli_distractor_diamondtriangles.svg	6	yes	53	1	835	0	0			0	0			1				0	
6.6.1	and	2023-06-02	07:09:29	07:15:39	348490	58ed2be2a083320001a13783	3	1	main_slash	7	advance_on_keypress_SLASH	60	stimuli_target_rectanglediamonds.svg	stimuli_distractor_diamondtriangles.svg	6	yes	57	0	473	0	0			0	0			1				0	
6.6.1	and	2023-06-02	07:09:29	07:15:41	350490	58ed2be2a083320001a13783	3	1	main_slash	7	main_slash	61	stimuli_distractor_trianglediamonds.svg	stimuli_target_squarediamonds.svg	12	yes	53	1	870	0	0			0	0			1				0	
6.6.1	and	2023-06-02	07:09:29	07:15:41	350490	58ed2be2a083320001a13783	3	1	main_slash	7	advance_on_keypress_SLASH	62	stimuli_distractor_trianglediamonds.svg	stimuli_target_squarediamonds.svg	12	yes	57	0	453	0	0			0	0			1				0	
6.6.1	and	2023-06-02	07:09:29	07:15:45	353599	58ed2be2a083320001a13783	3	1	main_slash	7	main_slash	63	stimuli_distractor_diamondtriangles.svg	stimuli_distractor_diamondtriangles.svg	39	no	0	1	2000	0	0			0	0			1				0	
6.6.1	and	2023-06-02	07:09:29	07:15:45	353599	58ed2be2a083320001a13783	3	1	main_slash	7	advance_on_keypress_SLASH	64	stimuli_distractor_diamondtriangles.svg	stimuli_distractor_diamondtriangles.svg	39	no	57	0	372	0	0			0	0			1				0	
6.6.1	and	2023-06-02	07:09:29	07:15:48	356630	58ed2be2a083320001a13783	3	1	main_slash	7	main_slash	65	stimuli_target_diamondsquares.svg	stimuli_distractor_trianglediamonds.svg	20	yes	0	0	2000	0	0			0	0			1				0	
6.6.1	and	2023-06-02	07:09:29	07:15:48	356630	58ed2be2a083320001a13783	3	1	main_slash	7	advance_on_keypress_SLASH	66	stimuli_target_diamondsquares.svg	stimuli_distractor_trianglediamonds.svg	20	yes	57	0	2307	0	0			0	0			1				0	
6.6.1	and	2023-06-02	07:09:29	07:15:52	360726	58ed2be2a083320001a13783	3	1	main_slash	7	main_slash	67	stimuli_target_trianglerectangles.svg	stimuli_distractor_trianglediamonds.svg	17	yes	53	1	1142	0	0			0	0			1				0	
6.6.1	and	2023-06-02	07:09:29	07:15:52	360726	58ed2be2a083320001a13783	3	1	main_slash	7	advance_on_keypress_SLASH	68	stimuli_target_trianglerectangles.svg	stimuli_distractor_trianglediamonds.svg	17	yes	57	0	587	0	0			0	0			1				0	
6.6.1	and	2023-06-02	07:09:29	07:15:55	363965	58ed2be2a083320001a13783	3	1	main_slash	7	main_slash	69	stimuli_distractor_trianglediamonds.svg	stimuli_distractor_diamondtriangles.svg	35	no	0	1	2000	0	0			0	0			1				0	
6.6.1	and	2023-06-02	07:09:29	07:15:55	363965	58ed2be2a083320001a13783	3	1	main_slash	7	advance_on_keypress_SLASH	70	stimuli_distractor_trianglediamonds.svg	stimuli_distractor_diamondtriangles.svg	35	no	57	0	350	0	0			0	0			1				0	
6.6.1	and	2023-06-02	07:09:29	07:15:57	365852	58ed2be2a083320001a13783	3	1	main_slash	7	main_slash	71	stimuli_target_squarediamonds.svg	stimuli_distractor_trianglediamonds.svg	4	yes	53	1	894	0	0			0	0			1				0	
6.6.1	and	2023-06-02	07:09:29	07:15:57	365852	58ed2be2a083320001a13783	3	1	main_slash	7	advance_on_keypress_SLASH	72	stimuli_target_squarediamonds.svg	stimuli_distractor_trianglediamonds.svg	4	yes	57	0	1690	0	0			0	0			1				0	
6.6.1	and	2023-06-02	07:09:29	07:16:00	369273	58ed2be2a083320001a13783	3	1	main_slash	7	main_slash	73	stimuli_target_diamondsquares.svg	stimuli_distractor_diamondtriangles.svg	24	yes	53	1	1086	0	0			0	0			1				0	
6.6.1	and	2023-06-02	07:09:29	07:16:00	369273	58ed2be2a083320001a13783	3	1	main_slash	7	advance_on_keypress_SLASH	74	stimuli_target_diamondsquares.svg	stimuli_distractor_diamondtriangles.svg	24	yes	57	0	16841	0	0			0	0			1				0	
6.6.1	and	2023-06-02	07:09:29	07:16:19	387511	58ed2be2a083320001a13783	3	1	main_slash	7	main_slash	75	stimuli_distractor_diamondtriangles.svg	stimuli_target_squarediamonds.svg	16	yes	53	1	754	0	0			0	0			1				0	
6.6.1	and	2023-06-02	07:09:29	07:16:19	387511	58ed2be2a083320001a13783	3	1	main_slash	7	advance_on_keypress_SLASH	76	stimuli_distractor_diamondtriangles.svg	stimuli_target_squarediamonds.svg	16	yes	57	0	2545	0	0			0	0			1				0	
6.6.1	and	2023-06-02	07:09:29	07:16:23	391611	58ed2be2a083320001a13783	3	1	main_slash	7	main_slash	77	stimuli_distractor_trianglediamonds.svg	stimuli_target_trianglesquares.svg	26	yes	53	1	900	0	0			0	0			1				0	
6.6.1	and	2023-06-02	07:09:29	07:16:23	391611	58ed2be2a083320001a13783	3	1	main_slash	7	advance_on_keypress_SLASH	78	stimuli_distractor_trianglediamonds.svg	stimuli_target_trianglesquares.svg	26	yes	57	0	707	0	0			0	0			1				0	
6.6.1	and	2023-06-02	07:09:29	07:16:26	394977	58ed2be2a083320001a13783	3	1	main_slash	7	main_slash	79	stimuli_target_trianglesquares.svg	stimuli_distractor_trianglediamonds.svg	18	yes	0	0	2000	0	0			0	0			1				0	
6.6.1	and	2023-06-02	07:09:29	07:16:26	394977	58ed2be2a083320001a13783	3	1	main_slash	7	advance_on_keypress_SLASH	80	stimuli_target_trianglesquares.svg	stimuli_distractor_trianglediamonds.svg	18	yes	57	0	447	0	0			0	0			1				0	
6.6.1	and	2023-06-02	07:09:29	07:16:29	398070	58ed2be2a083320001a13783	3	1	main_slash	7	main_slash	81	stimuli_distractor_trianglediamonds.svg	stimuli_distractor_trianglediamonds.svg	34	no	0	1	2000	0	0			0	0			1				0	
6.6.1	and	2023-06-02	07:09:29	07:16:29	398070	58ed2be2a083320001a13783	3	1	main_slash	7	advance_on_keypress_SLASH	82	stimuli_distractor_trianglediamonds.svg	stimuli_distractor_trianglediamonds.svg	34	no	57	0	278	0	0			0	0			1				0	
6.6.1	and	2023-06-02	07:09:29	07:16:31	400112	58ed2be2a083320001a13783	3	1	main_slash	7	main_slash	83	stimuli_distractor_trianglediamonds.svg	stimuli_target_trianglerectangles.svg	25	yes	53	1	1114	0	0			0	0			1				0	
6.6.1	and	2023-06-02	07:09:29	07:16:31	400112	58ed2be2a083320001a13783	3	1	main_slash	7	advance_on_keypress_SLASH	84	stimuli_distractor_trianglediamonds.svg	stimuli_target_trianglerectangles.svg	25	yes	57	0	1113	0	0			0	0			1				0	
6.6.1	and	2023-06-02	07:09:29	07:16:35	403874	58ed2be2a083320001a13783	3	1	main_slash	7	main_slash	85	stimuli_distractor_diamondtriangles.svg	stimuli_distractor_diamondtriangles.svg	40	no	0	1	2000	0	0			0	0			1				0	
6.6.1	and	2023-06-02	07:09:29	07:16:35	403874	58ed2be2a083320001a13783	3	1	main_slash	7	advance_on_keypress_SLASH	86	stimuli_distractor_diamondtriangles.svg	stimuli_distractor_diamondtriangles.svg	40	no	57	0	479	0	0			0	0			1				0	
6.6.1	and	2023-06-02	07:09:29	07:16:38	406511	58ed2be2a083320001a13783	3	1	main_slash	7	main_slash	87	stimuli_target_trianglesquares.svg	stimuli_distractor_diamondtriangles.svg	22	yes	53	1	1509	0	0			0	0			1				0	
6.6.1	and	2023-06-02	07:09:29	07:16:38	406511	58ed2be2a083320001a13783	3	1	main_slash	7	advance_on_keypress_SLASH	88	stimuli_target_trianglesquares.svg	stimuli_distractor_diamondtriangles.svg	22	yes	57	0	564	0	0			0	0			1				0	
6.6.1	and	2023-06-02	07:09:29	07:16:40	408825	58ed2be2a083320001a13783	3	1	main_slash	7	main_slash	89	stimuli_target_squarediamonds.svg	stimuli_distractor_trianglediamonds.svg	4	yes	53	1	1112	0	0			0	0			1				0	
6.6.1	and	2023-06-02	07:09:29	07:16:40	408825	58ed2be2a083320001a13783	3	1	main_slash	7	advance_on_keypress_SLASH	90	stimuli_target_squarediamonds.svg	stimuli_distractor_trianglediamonds.svg	4	yes	57	0	766	0	0			0	0			1				0	
6.6.1	and	2023-06-02	07:09:29	07:16:42	411294	58ed2be2a083320001a13783	3	1	main_slash	7	main_slash	91	stimuli_target_squaretriangles.svg	stimuli_distractor_trianglediamonds.svg	3	yes	53	1	1054	0	0			0	0			1				0	
6.6.1	and	2023-06-02	07:09:29	07:16:42	411294	58ed2be2a083320001a13783	3	1	main_slash	7	advance_on_keypress_SLASH	92	stimuli_target_squaretriangles.svg	stimuli_distractor_trianglediamonds.svg	3	yes	57	0	593	0	0			0	0			1				0	
6.6.1	and	2023-06-02	07:09:29	07:16:44	413395	58ed2be2a083320001a13783	3	1	main_slash	7	main_slash	93	stimuli_distractor_diamondtriangles.svg	stimuli_target_squaretriangles.svg	15	yes	53	1	858	0	0			0	0			1				0	
6.6.1	and	2023-06-02	07:09:29	07:16:44	413395	58ed2be2a083320001a13783	3	1	main_slash	7	advance_on_keypress_SLASH	94	stimuli_distractor_diamondtriangles.svg	stimuli_target_squaretriangles.svg	15	yes	57	0	672	0	0			0	0			1				0	
6.6.1	and	2023-06-02	07:09:29	07:16:48	416719	58ed2be2a083320001a13783	3	1	main_slash	7	main_slash	95	stimuli_target_trianglerectangles.svg	stimuli_distractor_diamondtriangles.svg	21	yes	0	0	2000	0	0			0	0			1				0	
6.6.1	and	2023-06-02	07:09:29	07:16:48	416719	58ed2be2a083320001a13783	3	1	main_slash	7	advance_on_keypress_SLASH	96	stimuli_target_trianglerectangles.svg	stimuli_distractor_diamondtriangles.svg	21	yes	57	0	351	0	0			0	0			1				0	
6.6.1	and	2023-06-02	07:09:29	07:16:49	418468	58ed2be2a083320001a13783	3	1	main_slash	7	main_slash	97	stimuli_target_rectanglediamonds.svg	stimuli_distractor_trianglediamonds.svg	2	yes	53	1	742	0	0			0	0			1				0	
6.6.1	and	2023-06-02	07:09:29	07:16:49	418468	58ed2be2a083320001a13783	3	1	main_slash	7	advance_on_keypress_SLASH	98	stimuli_target_rectanglediamonds.svg	stimuli_distractor_trianglediamonds.svg	2	yes	57	0	629	0	0			0	0			1				0	
6.6.1	and	2023-06-02	07:09:29	07:16:52	420714	58ed2be2a083320001a13783	3	1	main_slash	7	main_slash	99	stimuli_distractor_diamondtriangles.svg	stimuli_target_diamondrectangles.svg	31	yes	53	1	972	0	0			0	0			1				0	
6.6.1	and	2023-06-02	07:09:29	07:16:52	420714	58ed2be2a083320001a13783	3	1	main_slash	7	advance_on_keypress_SLASH	100	stimuli_distractor_diamondtriangles.svg	stimuli_target_diamondrectangles.svg	31	yes	57	0	528	0	0			0	0			1				0	
6.6.1	and	2023-06-02	07:09:29	07:16:54	422742	58ed2be2a083320001a13783	3	1	main_slash	7	main_slash	101	stimuli_distractor_trianglediamonds.svg	stimuli_target_rectanglediamonds.svg	10	yes	53	1	855	0	0			0	0			1				0	
6.6.1	and	2023-06-02	07:09:29	07:16:54	422742	58ed2be2a083320001a13783	3	1	main_slash	7	advance_on_keypress_SLASH	102	stimuli_distractor_trianglediamonds.svg	stimuli_target_rectanglediamonds.svg	10	yes	57	0	577	0	0			0	0			1				0	
6.6.1	and	2023-06-02	07:09:29	07:16:57	425968	58ed2be2a083320001a13783	3	1	main_slash	7	main_slash	103	stimuli_distractor_diamondtriangles.svg	stimuli_distractor_trianglediamonds.svg	37	no	0	1	2000	0	0			0	0			1				0	
6.6.1	and	2023-06-02	07:09:29	07:16:57	425968	58ed2be2a083320001a13783	3	1	main_slash	7	advance_on_keypress_SLASH	104	stimuli_distractor_diamondtriangles.svg	stimuli_distractor_trianglediamonds.svg	37	no	57	0	422	0	0			0	0			1				0	
6.6.1	and	2023-06-02	07:09:29	07:16:59	427898	58ed2be2a083320001a13783	3	1	main_slash	7	main_slash	105	stimuli_distractor_trianglediamonds.svg	stimuli_target_diamondrectangles.svg	27	yes	53	1	852	0	0			0	0			1				0	
6.6.1	and	2023-06-02	07:09:29	07:16:59	427898	58ed2be2a083320001a13783	3	1	main_slash	7	advance_on_keypress_SLASH	106	stimuli_distractor_trianglediamonds.svg	stimuli_target_diamondrectangles.svg	27	yes	57	0	872	0	0			0	0			1				0	
6.6.1	and	2023-06-02	07:09:29	07:17:01	430207	58ed2be2a083320001a13783	3	1	main_slash	7	main_slash	107	stimuli_target_squarediamonds.svg	stimuli_distractor_diamondtriangles.svg	8	yes	53	1	785	0	0			0	0			1				0	
6.6.1	and	2023-06-02	07:09:29	07:17:01	430207	58ed2be2a083320001a13783	3	1	main_slash	7	advance_on_keypress_SLASH	108	stimuli_target_squarediamonds.svg	stimuli_distractor_diamondtriangles.svg	8	yes	57	0	593	0	0			0	0			1				0	
6.6.1	and	2023-06-02	07:09:29	07:17:03	432296	58ed2be2a083320001a13783	3	1	main_slash	7	main_slash	109	stimuli_distractor_trianglediamonds.svg	stimuli_target_squaretriangles.svg	11	yes	53	1	843	0	0			0	0			1				0	
6.6.1	and	2023-06-02	07:09:29	07:17:03	432296	58ed2be2a083320001a13783	3	1	main_slash	7	advance_on_keypress_SLASH	110	stimuli_distractor_trianglediamonds.svg	stimuli_target_squaretriangles.svg	11	yes	57	0	469	0	0			0	0			1				0	
6.6.1	and	2023-06-02	07:09:29	07:17:06	435071	58ed2be2a083320001a13783	3	1	main_slash	7	main_slash	111	stimuli_distractor_diamondtriangles.svg	stimuli_target_trianglerectangles.svg	29	yes	53	1	1656	0	0			0	0			1				0	
6.6.1	and	2023-06-02	07:09:29	07:17:06	435071	58ed2be2a083320001a13783	3	1	main_slash	7	advance_on_keypress_SLASH	112	stimuli_distractor_diamondtriangles.svg	stimuli_target_trianglerectangles.svg	29	yes	57	0	763	0	0			0	0			1				0	
6.6.1	and	2023-06-02	07:09:29	07:17:09	437558	58ed2be2a083320001a13783	3	1	main_slash	7	main_slash	113	stimuli_target_trianglesquares.svg	stimuli_distractor_trianglediamonds.svg	18	yes	53	1	1080	0	0			0	0			1				0	
6.6.1	and	2023-06-02	07:09:29	07:17:09	437558	58ed2be2a083320001a13783	3	1	main_slash	7	advance_on_keypress_SLASH	114	stimuli_target_trianglesquares.svg	stimuli_distractor_trianglediamonds.svg	18	yes	57	0	1152	0	0			0	0			1				0	
6.6.1	and	2023-06-02	07:09:29	07:17:12	441376	58ed2be2a083320001a13783	3	1	main_slash	7	main_slash	115	stimuli_distractor_trianglediamonds.svg	stimuli_distractor_trianglediamonds.svg	33	no	0	1	2000	0	0			0	0			1				0	
6.6.1	and	2023-06-02	07:09:29	07:17:12	441376	58ed2be2a083320001a13783	3	1	main_slash	7	advance_on_keypress_SLASH	116	stimuli_distractor_trianglediamonds.svg	stimuli_distractor_trianglediamonds.svg	33	no	57	0	463	0	0			0	0			1				0	
6.6.1	and	2023-06-02	07:09:29	07:17:15	443788	58ed2be2a083320001a13783	3	1	main_slash	7	main_slash	117	stimuli_target_diamondrectangles.svg	stimuli_distractor_trianglediamonds.svg	19	yes	53	1	1305	0	0			0	0			1				0	
6.6.1	and	2023-06-02	07:09:29	07:17:15	443788	58ed2be2a083320001a13783	3	1	main_slash	7	advance_on_keypress_SLASH	118	stimuli_target_diamondrectangles.svg	stimuli_distractor_trianglediamonds.svg	19	yes	57	0	809	0	0			0	0			1				0	
6.6.1	and	2023-06-02	07:09:29	07:17:17	446243	58ed2be2a083320001a13783	3	1	main_slash	7	main_slash	119	stimuli_distractor_diamondtriangles.svg	stimuli_target_diamondsquares.svg	32	yes	53	1	1000	0	0			0	0			1				0	
6.6.1	and	2023-06-02	07:09:29	07:17:17	446243	58ed2be2a083320001a13783	3	1	main_slash	7	advance_on_keypress_SLASH	120	stimuli_distractor_diamondtriangles.svg	stimuli_target_diamondsquares.svg	32	yes	57	0	503	0	0			0	0			1				0	
6.6.1	and	2023-06-02	07:09:29	07:17:19	448360	58ed2be2a083320001a13783	3	1	main_slash	7	main_slash	121	stimuli_target_rectanglediamonds.svg	stimuli_distractor_diamondtriangles.svg	6	yes	53	1	952	0	0			0	0			1				0	
6.6.1	and	2023-06-02	07:09:29	07:17:19	448360	58ed2be2a083320001a13783	3	1	main_slash	7	advance_on_keypress_SLASH	122	stimuli_target_rectanglediamonds.svg	stimuli_distractor_diamondtriangles.svg	6	yes	57	0	461	0	0			0	0			1				0	
6.6.1	and	2023-06-02	07:09:29	07:17:23	451473	58ed2be2a083320001a13783	3	1	main_slash	7	main_slash	123	stimuli_distractor_diamondtriangles.svg	stimuli_distractor_trianglediamonds.svg	38	no	0	1	2000	0	0			0	0			1				0	
6.6.1	and	2023-06-02	07:09:29	07:17:23	451473	58ed2be2a083320001a13783	3	1	main_slash	7	advance_on_keypress_SLASH	124	stimuli_distractor_diamondtriangles.svg	stimuli_distractor_trianglediamonds.svg	38	no	57	0	1582	0	0			0	0			1				0	
6.6.1	and	2023-06-02	07:09:29	07:17:26	454564	58ed2be2a083320001a13783	3	1	main_slash	7	main_slash	125	stimuli_distractor_trianglediamonds.svg	stimuli_target_trianglesquares.svg	26	yes	53	1	851	0	0			0	0			1				0	
6.6.1	and	2023-06-02	07:09:29	07:17:26	454564	58ed2be2a083320001a13783	3	1	main_slash	7	advance_on_keypress_SLASH	126	stimuli_distractor_trianglediamonds.svg	stimuli_target_trianglesquares.svg	26	yes	57	0	504	0	0			0	0			1				0	
6.6.1	and	2023-06-02	07:09:29	07:17:29	457732	58ed2be2a083320001a13783	3	1	main_slash	7	main_slash	127	stimuli_distractor_trianglediamonds.svg	stimuli_distractor_diamondtriangles.svg	35	no	0	1	2000	0	0			0	0			1				0	
6.6.1	and	2023-06-02	07:09:29	07:17:29	457732	58ed2be2a083320001a13783	3	1	main_slash	7	advance_on_keypress_SLASH	128	stimuli_distractor_trianglediamonds.svg	stimuli_distractor_diamondtriangles.svg	35	no	57	0	379	0	0			0	0			1				0	
6.6.1	and	2023-06-02	07:09:29	07:17:31	459670	58ed2be2a083320001a13783	3	1	main_slash	7	main_slash	129	stimuli_distractor_trianglediamonds.svg	stimuli_target_squarediamonds.svg	12	yes	53	1	917	0	0			0	0			1				0	
6.6.1	and	2023-06-02	07:09:29	07:17:31	459670	58ed2be2a083320001a13783	3	1	main_slash	7	advance_on_keypress_SLASH	130	stimuli_distractor_trianglediamonds.svg	stimuli_target_squarediamonds.svg	12	yes	57	0	731	0	0			0	0			1				0	
6.6.1	and	2023-06-02	07:09:29	07:17:33	462005	58ed2be2a083320001a13783	3	1	main_slash	7	main_slash	131	stimuli_target_squaretriangles.svg	stimuli_distractor_diamondtriangles.svg	7	yes	53	1	939	0	0			0	0			1				0	
6.6.1	and	2023-06-02	07:09:29	07:17:33	462005	58ed2be2a083320001a13783	3	1	main_slash	7	advance_on_keypress_SLASH	132	stimuli_target_squaretriangles.svg	stimuli_distractor_diamondtriangles.svg	7	yes	57	0	519	0	0			0	0			1				0	
6.6.1	and	2023-06-02	07:09:29	07:17:35	464108	58ed2be2a083320001a13783	3	1	main_slash	7	main_slash	133	stimuli_distractor_trianglediamonds.svg	stimuli_target_diamondsquares.svg	28	yes	53	1	928	0	0			0	0			1				0	
6.6.1	and	2023-06-02	07:09:29	07:17:35	464108	58ed2be2a083320001a13783	3	1	main_slash	7	advance_on_keypress_SLASH	134	stimuli_distractor_trianglediamonds.svg	stimuli_target_diamondsquares.svg	28	yes	57	0	886	0	0			0	0			1				0	
6.6.1	and	2023-06-02	07:09:29	07:17:39	467643	58ed2be2a083320001a13783	3	1	main_slash	7	main_slash	135	stimuli_distractor_diamondtriangles.svg	stimuli_distractor_diamondtriangles.svg	39	no	0	1	2000	0	0			0	0			1				0	
6.6.1	and	2023-06-02	07:09:29	07:17:39	467643	58ed2be2a083320001a13783	3	1	main_slash	7	advance_on_keypress_SLASH	136	stimuli_distractor_diamondtriangles.svg	stimuli_distractor_diamondtriangles.svg	39	no	57	0	628	0	0			0	0			1				0	
6.6.1	and	2023-06-02	07:09:29	07:17:41	469950	58ed2be2a083320001a13783	3	1	main_slash	7	main_slash	137	stimuli_target_rectangletriangles.svg	stimuli_distractor_trianglediamonds.svg	1	yes	53	1	1033	0	0			0	0			1				0	
6.6.1	and	2023-06-02	07:09:29	07:17:41	469950	58ed2be2a083320001a13783	3	1	main_slash	7	advance_on_keypress_SLASH	138	stimuli_target_rectangletriangles.svg	stimuli_distractor_trianglediamonds.svg	1	yes	57	0	3207	0	0			0	0			1				0	
6.6.1	and	2023-06-02	07:09:29	07:17:46	474703	58ed2be2a083320001a13783	3	1	main_slash	7	main_slash	139	stimuli_target_rectangletriangles.svg	stimuli_distractor_diamondtriangles.svg	5	yes	53	1	894	0	0			0	0			1				0	
6.6.1	and	2023-06-02	07:09:29	07:17:46	474703	58ed2be2a083320001a13783	3	1	main_slash	7	advance_on_keypress_SLASH	140	stimuli_target_rectangletriangles.svg	stimuli_distractor_diamondtriangles.svg	5	yes	57	0	811	0	0			0	0			1				0	
6.6.1	and	2023-06-02	07:09:29	07:17:48	476990	58ed2be2a083320001a13783	3	1	main_slash	7	main_slash	141	stimuli_distractor_diamondtriangles.svg	stimuli_target_rectanglediamonds.svg	14	yes	53	1	837	0	0			0	0			1				0	
6.6.1	and	2023-06-02	07:09:29	07:17:48	476990	58ed2be2a083320001a13783	3	1	main_slash	7	advance_on_keypress_SLASH	142	stimuli_distractor_diamondtriangles.svg	stimuli_target_rectanglediamonds.svg	14	yes	57	0	649	0	0			0	0			1				0	
6.6.1	and	2023-06-02	07:09:29	07:17:51	480304	58ed2be2a083320001a13783	3	1	main_slash	7	main_slash	143	stimuli_target_diamondrectangles.svg	stimuli_distractor_diamondtriangles.svg	23	yes	0	0	2000	0	0			0	0			1				0	
6.6.1	and	2023-06-02	07:09:29	07:17:51	480304	58ed2be2a083320001a13783	3	1	main_slash	7	advance_on_keypress_SLASH	144	stimuli_target_diamondrectangles.svg	stimuli_distractor_diamondtriangles.svg	23	yes	57	0	20186	0	0			0	0			1				0	
6.6.1	and	2023-06-02	07:09:29	07:18:14	503135	58ed2be2a083320001a13783	3	1	main_slash	7	main_slash	145	stimuli_distractor_trianglediamonds.svg	stimuli_distractor_diamondtriangles.svg	36	no	0	1	2000	0	0			0	0			1				0	
6.6.1	and	2023-06-02	07:09:29	07:18:14	503135	58ed2be2a083320001a13783	3	1	main_slash	7	advance_on_keypress_SLASH	146	stimuli_distractor_trianglediamonds.svg	stimuli_distractor_diamondtriangles.svg	36	no	57	0	252	0	0			0	0			1				0	
6.6.1	and	2023-06-02	07:09:29	07:18:16	504744	58ed2be2a083320001a13783	3	1	main_slash	7	main_slash	147	stimuli_distractor_diamondtriangles.svg	stimuli_target_trianglesquares.svg	30	yes	53	1	706	0	0			0	0			1				0	
6.6.1	and	2023-06-02	07:09:29	07:18:16	504744	58ed2be2a083320001a13783	3	1	main_slash	7	advance_on_keypress_SLASH	148	stimuli_distractor_diamondtriangles.svg	stimuli_target_trianglesquares.svg	30	yes	57	0	705	0	0			0	0			1				0	
6.6.1	and	2023-06-02	07:09:29	07:18:18	507045	58ed2be2a083320001a13783	3	1	main_slash	7	main_slash	149	stimuli_target_trianglerectangles.svg	stimuli_distractor_trianglediamonds.svg	17	yes	53	1	945	0	0			0	0			1				0	
6.6.1	and	2023-06-02	07:09:29	07:18:18	507045	58ed2be2a083320001a13783	3	1	main_slash	7	advance_on_keypress_SLASH	150	stimuli_target_trianglerectangles.svg	stimuli_distractor_trianglediamonds.svg	17	yes	57	0	457	0	0			0	0			1				0	
6.6.1	and	2023-06-02	07:09:29	07:18:20	509154	58ed2be2a083320001a13783	3	1	main_slash	7	main_slash	151	stimuli_distractor_diamondtriangles.svg	stimuli_target_rectangletriangles.svg	13	yes	53	1	1006	0	0			0	0			1				0	
6.6.1	and	2023-06-02	07:09:29	07:18:20	509154	58ed2be2a083320001a13783	3	1	main_slash	7	advance_on_keypress_SLASH	152	stimuli_distractor_diamondtriangles.svg	stimuli_target_rectangletriangles.svg	13	yes	57	0	485	0	0			0	0			1				0	
6.6.1	and	2023-06-02	07:09:29	07:18:22	511113	58ed2be2a083320001a13783	3	1	main_slash	7	main_slash	153	stimuli_distractor_trianglediamonds.svg	stimuli_target_rectangletriangles.svg	9	yes	53	1	818	0	0			0	0			1				0	
6.6.1	and	2023-06-02	07:09:29	07:18:22	511113	58ed2be2a083320001a13783	3	1	main_slash	7	advance_on_keypress_SLASH	154	stimuli_distractor_trianglediamonds.svg	stimuli_target_rectangletriangles.svg	9	yes	57	0	413	0	0			0	0			1				0	
6.6.1	and	2023-06-02	07:09:29	07:18:24	513007	58ed2be2a083320001a13783	3	1	main_slash	7	main_slash	155	stimuli_target_diamondsquares.svg	stimuli_distractor_diamondtriangles.svg	24	yes	53	1	836	0	0			0	0			1				0	
6.6.1	and	2023-06-02	07:09:29	07:18:24	513007	58ed2be2a083320001a13783	3	1	main_slash	7	advance_on_keypress_SLASH	156	stimuli_target_diamondsquares.svg	stimuli_distractor_diamondtriangles.svg	24	yes	57	0	470	0	0			0	0			1				0	
6.6.1	and	2023-06-02	07:09:29	07:18:26	515046	58ed2be2a083320001a13783	3	1	main_slash	7	main_slash	157	stimuli_target_diamondsquares.svg	stimuli_distractor_trianglediamonds.svg	20	yes	53	1	909	0	0			0	0			1				0	
6.6.1	and	2023-06-02	07:09:29	07:18:26	515046	58ed2be2a083320001a13783	3	1	main_slash	7	advance_on_keypress_SLASH	158	stimuli_target_diamondsquares.svg	stimuli_distractor_trianglediamonds.svg	20	yes	57	0	911	0	0			0	0			1				0	
6.6.1	and	2023-06-02	07:09:29	07:18:29	518107	58ed2be2a083320001a13783	3	1	main_slash	7	main_slash	159	stimuli_distractor_diamondtriangles.svg	stimuli_target_squarediamonds.svg	16	yes	53	1	1511	0	0			0	0			1				0	
6.6.1	and	2023-06-02	07:09:29	07:18:29	518107	58ed2be2a083320001a13783	3	1	main_slash	7	advance_on_keypress_SLASH	160	stimuli_distractor_diamondtriangles.svg	stimuli_target_squarediamonds.svg	16	yes	57	0	492	0	0			0	0			1				0	
6.6.1	and	2023-06-02	07:09:29	07:18:49	538038	58ed2be2a083320001a13783	3	1	practice_z	9	practice_z	1	stimuli_target_diamondsquares.svg	stimuli_distractor_diamondtriangles.svg	3	yes	44	1	891	0	0			0	0			1				0	
6.6.1	and	2023-06-02	07:09:29	07:18:49	538038	58ed2be2a083320001a13783	3	1	practice_z	9	advance_on_keypress_ZEE	2	stimuli_target_diamondsquares.svg	stimuli_distractor_diamondtriangles.svg	3	yes	57	0	510	0	0			0	0			1				0	
6.6.1	and	2023-06-02	07:09:29	07:18:52	541161	58ed2be2a083320001a13783	3	1	practice_z	9	practice_z	3	stimuli_target_squarediamonds.svg	stimuli_distractor_trianglediamonds.svg	5	yes	44	1	963	0	0			0	0			1				0	
6.6.1	and	2023-06-02	07:09:29	07:18:52	541161	58ed2be2a083320001a13783	3	1	practice_z	9	advance_on_keypress_ZEE	4	stimuli_target_squarediamonds.svg	stimuli_distractor_trianglediamonds.svg	5	yes	57	0	395	0	0			0	0			1				0	
6.6.1	and	2023-06-02	07:09:29	07:18:55	543962	58ed2be2a083320001a13783	3	1	practice_z	9	practice_z	5	stimuli_distractor_trianglediamonds.svg	stimuli_target_rectanglediamonds.svg	10	yes	44	1	752	0	0			0	0			1				0	
6.6.1	and	2023-06-02	07:09:29	07:18:55	543962	58ed2be2a083320001a13783	3	1	practice_z	9	advance_on_keypress_ZEE	6	stimuli_distractor_trianglediamonds.svg	stimuli_target_rectanglediamonds.svg	10	yes	57	0	496	0	0			0	0			1				0	
6.6.1	and	2023-06-02	07:09:29	07:18:58	546930	58ed2be2a083320001a13783	3	1	practice_z	9	practice_z	7	stimuli_target_rectanglediamonds.svg	stimuli_distractor_diamondtriangles.svg	1	yes	44	1	826	0	0			0	0			1				0	
6.6.1	and	2023-06-02	07:09:29	07:18:58	546930	58ed2be2a083320001a13783	3	1	practice_z	9	advance_on_keypress_ZEE	8	stimuli_target_rectanglediamonds.svg	stimuli_distractor_diamondtriangles.svg	1	yes	57	0	313	0	0			0	0			1				0	
6.6.1	and	2023-06-02	07:09:29	07:19:01	549730	58ed2be2a083320001a13783	3	1	practice_z	9	practice_z	9	stimuli_distractor_trianglediamonds.svg	stimuli_target_squarediamonds.svg	11	yes	44	1	832	0	0			0	0			1				0	
6.6.1	and	2023-06-02	07:09:29	07:19:01	549730	58ed2be2a083320001a13783	3	1	practice_z	9	advance_on_keypress_ZEE	10	stimuli_distractor_trianglediamonds.svg	stimuli_target_squarediamonds.svg	11	yes	57	0	331	0	0			0	0			1				0	
6.6.1	and	2023-06-02	07:09:29	07:19:05	553726	58ed2be2a083320001a13783	3	1	practice_z	9	practice_z	11	stimuli_distractor_trianglediamonds.svg	stimuli_distractor_diamondtriangles.svg	16	no	0	1	2000	0	0			0	0			1				0	
6.6.1	and	2023-06-02	07:09:29	07:19:05	553726	58ed2be2a083320001a13783	3	1	practice_z	9	advance_on_keypress_ZEE	12	stimuli_distractor_trianglediamonds.svg	stimuli_distractor_diamondtriangles.svg	16	no	57	0	458	0	0			0	0			1				0	
6.6.1	and	2023-06-02	07:09:29	07:19:08	556784	58ed2be2a083320001a13783	3	1	practice_z	9	practice_z	13	stimuli_target_squarediamonds.svg	stimuli_distractor_diamondtriangles.svg	2	yes	44	1	947	0	0			0	0			1				0	
6.6.1	and	2023-06-02	07:09:29	07:19:08	556784	58ed2be2a083320001a13783	3	1	practice_z	9	advance_on_keypress_ZEE	14	stimuli_target_squarediamonds.svg	stimuli_distractor_diamondtriangles.svg	2	yes	57	0	407	0	0			0	0			1				0	
6.6.1	and	2023-06-02	07:09:29	07:19:11	560096	58ed2be2a083320001a13783	3	1	practice_z	9	practice_z	15	stimuli_target_diamondsquares.svg	stimuli_distractor_trianglediamonds.svg	6	yes	44	1	1250	0	0			0	0			1				0	
6.6.1	and	2023-06-02	07:09:29	07:19:11	560096	58ed2be2a083320001a13783	3	1	practice_z	9	advance_on_keypress_ZEE	16	stimuli_target_diamondsquares.svg	stimuli_distractor_trianglediamonds.svg	6	yes	57	0	361	0	0			0	0			1				0	
6.6.1	and	2023-06-02	07:09:29	07:19:15	564108	58ed2be2a083320001a13783	3	1	practice_z	9	practice_z	17	stimuli_distractor_diamondtriangles.svg	stimuli_distractor_trianglediamonds.svg	14	no	0	1	2000	0	0			0	0			1				0	
6.6.1	and	2023-06-02	07:09:29	07:19:15	564108	58ed2be2a083320001a13783	3	1	practice_z	9	advance_on_keypress_ZEE	18	stimuli_distractor_diamondtriangles.svg	stimuli_distractor_trianglediamonds.svg	14	no	57	0	412	0	0			0	0			1				0	
6.6.1	and	2023-06-02	07:09:29	07:19:19	568169	58ed2be2a083320001a13783	3	1	practice_z	9	practice_z	19	stimuli_distractor_trianglediamonds.svg	stimuli_distractor_trianglediamonds.svg	15	no	0	1	2000	0	0			0	0			1				0	
6.6.1	and	2023-06-02	07:09:29	07:19:19	568169	58ed2be2a083320001a13783	3	1	practice_z	9	advance_on_keypress_ZEE	20	stimuli_distractor_trianglediamonds.svg	stimuli_distractor_trianglediamonds.svg	15	no	57	0	229	0	0			0	0			1				0	
6.6.1	and	2023-06-02	07:09:29	07:19:22	571160	58ed2be2a083320001a13783	3	1	practice_z	9	practice_z	21	stimuli_distractor_diamondtriangles.svg	stimuli_target_diamondrectangles.svg	8	yes	44	1	1085	0	0			0	0			1				0	
6.6.1	and	2023-06-02	07:09:29	07:19:22	571160	58ed2be2a083320001a13783	3	1	practice_z	9	advance_on_keypress_ZEE	22	stimuli_distractor_diamondtriangles.svg	stimuli_target_diamondrectangles.svg	8	yes	57	0	464	0	0			0	0			1				0	
6.6.1	and	2023-06-02	07:09:29	07:19:25	574218	58ed2be2a083320001a13783	3	1	practice_z	9	practice_z	23	stimuli_target_rectanglediamonds.svg	stimuli_distractor_trianglediamonds.svg	4	yes	44	1	950	0	0			0	0			1				0	
6.6.1	and	2023-06-02	07:09:29	07:19:25	574218	58ed2be2a083320001a13783	3	1	practice_z	9	advance_on_keypress_ZEE	24	stimuli_target_rectanglediamonds.svg	stimuli_distractor_trianglediamonds.svg	4	yes	57	0	383	0	0			0	0			1				0	
6.6.1	and	2023-06-02	07:09:29	07:19:28	577152	58ed2be2a083320001a13783	3	1	practice_z	9	practice_z	25	stimuli_distractor_diamondtriangles.svg	stimuli_target_rectangletriangles.svg	7	yes	44	1	888	0	0			0	0			1				0	
6.6.1	and	2023-06-02	07:09:29	07:19:28	577152	58ed2be2a083320001a13783	3	1	practice_z	9	advance_on_keypress_ZEE	26	stimuli_distractor_diamondtriangles.svg	stimuli_target_rectangletriangles.svg	7	yes	57	0	446	0	0			0	0			1				0	
6.6.1	and	2023-06-02	07:09:29	07:19:31	580214	58ed2be2a083320001a13783	3	1	practice_z	9	practice_z	27	stimuli_distractor_trianglediamonds.svg	stimuli_target_diamondrectangles.svg	12	yes	44	1	954	0	0			0	0			1				0	
6.6.1	and	2023-06-02	07:09:29	07:19:31	580214	58ed2be2a083320001a13783	3	1	practice_z	9	advance_on_keypress_ZEE	28	stimuli_distractor_trianglediamonds.svg	stimuli_target_diamondrectangles.svg	12	yes	57	0	550	0	0			0	0			1				0	
6.6.1	and	2023-06-02	07:09:29	07:19:36	584424	58ed2be2a083320001a13783	3	1	practice_z	9	practice_z	29	stimuli_distractor_diamondtriangles.svg	stimuli_target_trianglerectangles.svg	9	yes	0	0	2000	0	0			0	0			1				0	
6.6.1	and	2023-06-02	07:09:29	07:19:36	584424	58ed2be2a083320001a13783	3	1	practice_z	9	advance_on_keypress_ZEE	30	stimuli_distractor_diamondtriangles.svg	stimuli_target_trianglerectangles.svg	9	yes	57	0	555	0	0			0	0			1				0	
6.6.1	and	2023-06-02	07:09:29	07:19:40	588649	58ed2be2a083320001a13783	3	1	practice_z	9	practice_z	31	stimuli_distractor_diamondtriangles.svg	stimuli_distractor_diamondtriangles.svg	13	no	0	1	2000	0	0			0	0			1				0	
6.6.1	and	2023-06-02	07:09:29	07:19:40	588649	58ed2be2a083320001a13783	3	1	practice_z	9	advance_on_keypress_ZEE	32	stimuli_distractor_diamondtriangles.svg	stimuli_distractor_diamondtriangles.svg	13	no	57	0	268	0	0			0	0			1				0	
6.6.1	and	2023-06-02	07:09:29	07:20:10	618845	58ed2be2a083320001a13783	3	1	main_z	11	main_z	1	stimuli_target_trianglesquares.svg	stimuli_distractor_trianglediamonds.svg	18	yes	44	1	1008	0	0			0	0			1				0	
6.6.1	and	2023-06-02	07:09:29	07:20:10	618845	58ed2be2a083320001a13783	3	1	main_z	11	advance_on_keypress_ZEE	2	stimuli_target_trianglesquares.svg	stimuli_distractor_trianglediamonds.svg	18	yes	57	0	790	0	0			0	0			1				0	
6.6.1	and	2023-06-02	07:09:29	07:20:13	622293	58ed2be2a083320001a13783	3	1	main_z	11	main_z	3	stimuli_distractor_trianglediamonds.svg	stimuli_distractor_trianglediamonds.svg	33	no	0	1	2000	0	0			0	0			1				0	
6.6.1	and	2023-06-02	07:09:29	07:20:13	622293	58ed2be2a083320001a13783	3	1	main_z	11	advance_on_keypress_ZEE	4	stimuli_distractor_trianglediamonds.svg	stimuli_distractor_trianglediamonds.svg	33	no	57	0	438	0	0			0	0			1				0	
6.6.1	and	2023-06-02	07:09:29	07:20:17	625387	58ed2be2a083320001a13783	3	1	main_z	11	main_z	5	stimuli_distractor_trianglediamonds.svg	stimuli_distractor_trianglediamonds.svg	34	no	0	1	2000	0	0			0	0			1				0	
6.6.1	and	2023-06-02	07:09:29	07:20:17	625387	58ed2be2a083320001a13783	3	1	main_z	11	advance_on_keypress_ZEE	6	stimuli_distractor_trianglediamonds.svg	stimuli_distractor_trianglediamonds.svg	34	no	57	0	753	0	0			0	0			1				0	
6.6.1	and	2023-06-02	07:09:29	07:20:20	628797	58ed2be2a083320001a13783	3	1	main_z	11	main_z	7	stimuli_distractor_diamondtriangles.svg	stimuli_distractor_diamondtriangles.svg	40	no	0	1	2000	0	0			0	0			1				0	
6.6.1	and	2023-06-02	07:09:29	07:20:20	628797	58ed2be2a083320001a13783	3	1	main_z	11	advance_on_keypress_ZEE	8	stimuli_distractor_diamondtriangles.svg	stimuli_distractor_diamondtriangles.svg	40	no	57	0	311	0	0			0	0			1				0	
6.6.1	and	2023-06-02	07:09:29	07:20:22	630677	58ed2be2a083320001a13783	3	1	main_z	11	main_z	9	stimuli_target_squarediamonds.svg	stimuli_distractor_diamondtriangles.svg	8	yes	44	1	920	0	0			0	0			1				0	
6.6.1	and	2023-06-02	07:09:29	07:20:22	630677	58ed2be2a083320001a13783	3	1	main_z	11	advance_on_keypress_ZEE	10	stimuli_target_squarediamonds.svg	stimuli_distractor_diamondtriangles.svg	8	yes	57	0	718	0	0			0	0			1				0	
6.6.1	and	2023-06-02	07:09:29	07:20:24	633005	58ed2be2a083320001a13783	3	1	main_z	11	main_z	11	stimuli_distractor_diamondtriangles.svg	stimuli_target_diamondsquares.svg	32	yes	44	1	951	0	0			0	0			1				0	
6.6.1	and	2023-06-02	07:09:29	07:20:24	633005	58ed2be2a083320001a13783	3	1	main_z	11	advance_on_keypress_ZEE	12	stimuli_distractor_diamondtriangles.svg	stimuli_target_diamondsquares.svg	32	yes	57	0	645	0	0			0	0			1				0	
6.6.1	and	2023-06-02	07:09:29	07:20:27	635789	58ed2be2a083320001a13783	3	1	main_z	11	main_z	13	stimuli_target_squaretriangles.svg	stimuli_distractor_trianglediamonds.svg	3	yes	44	1	1471	0	0			0	0			1				0	
6.6.1	and	2023-06-02	07:09:29	07:20:27	635789	58ed2be2a083320001a13783	3	1	main_z	11	advance_on_keypress_ZEE	14	stimuli_target_squaretriangles.svg	stimuli_distractor_trianglediamonds.svg	3	yes	57	0	530	0	0			0	0			1				0	
6.6.1	and	2023-06-02	07:09:29	07:20:29	637905	58ed2be2a083320001a13783	3	1	main_z	11	main_z	15	stimuli_distractor_trianglediamonds.svg	stimuli_target_squaretriangles.svg	11	yes	44	1	944	0	0			0	0			1				0	
6.6.1	and	2023-06-02	07:09:29	07:20:29	637905	58ed2be2a083320001a13783	3	1	main_z	11	advance_on_keypress_ZEE	16	stimuli_distractor_trianglediamonds.svg	stimuli_target_squaretriangles.svg	11	yes	57	0	545	0	0			0	0			1				0	
6.6.1	and	2023-06-02	07:09:29	07:20:32	640478	58ed2be2a083320001a13783	3	1	main_z	11	main_z	17	stimuli_distractor_diamondtriangles.svg	stimuli_target_trianglesquares.svg	30	yes	44	1	1388	0	0			0	0			1				0	
6.6.1	and	2023-06-02	07:09:29	07:20:32	640478	58ed2be2a083320001a13783	3	1	main_z	11	advance_on_keypress_ZEE	18	stimuli_distractor_diamondtriangles.svg	stimuli_target_trianglesquares.svg	30	yes	57	0	491	0	0			0	0			1				0	
6.6.1	and	2023-06-02	07:09:29	07:20:35	643620	58ed2be2a083320001a13783	3	1	main_z	11	main_z	19	stimuli_distractor_diamondtriangles.svg	stimuli_distractor_diamondtriangles.svg	39	no	0	1	2000	0	0			0	0			1				0	
6.6.1	and	2023-06-02	07:09:29	07:20:35	643620	58ed2be2a083320001a13783	3	1	main_z	11	advance_on_keypress_ZEE	20	stimuli_distractor_diamondtriangles.svg	stimuli_distractor_diamondtriangles.svg	39	no	57	0	405	0	0			0	0			1				0	
6.6.1	and	2023-06-02	07:09:29	07:20:37	645609	58ed2be2a083320001a13783	3	1	main_z	11	main_z	21	stimuli_target_rectangletriangles.svg	stimuli_distractor_diamondtriangles.svg	5	yes	44	1	927	0	0			0	0			1				0	
6.6.1	and	2023-06-02	07:09:29	07:20:37	645609	58ed2be2a083320001a13783	3	1	main_z	11	advance_on_keypress_ZEE	22	stimuli_target_rectangletriangles.svg	stimuli_distractor_diamondtriangles.svg	5	yes	57	0	680	0	0			0	0			1				0	
6.6.1	and	2023-06-02	07:09:29	07:20:39	647888	58ed2be2a083320001a13783	3	1	main_z	11	main_z	23	stimuli_distractor_diamondtriangles.svg	stimuli_target_rectangletriangles.svg	13	yes	44	1	961	0	0			0	0			1				0	
6.6.1	and	2023-06-02	07:09:29	07:20:39	647888	58ed2be2a083320001a13783	3	1	main_z	11	advance_on_keypress_ZEE	24	stimuli_distractor_diamondtriangles.svg	stimuli_target_rectangletriangles.svg	13	yes	57	0	504	0	0			0	0			1				0	
6.6.1	and	2023-06-02	07:09:29	07:20:41	649964	58ed2be2a083320001a13783	3	1	main_z	11	main_z	25	stimuli_target_squaretriangles.svg	stimuli_distractor_diamondtriangles.svg	7	yes	44	1	927	0	0			0	0			1				0	
6.6.1	and	2023-06-02	07:09:29	07:20:41	649964	58ed2be2a083320001a13783	3	1	main_z	11	advance_on_keypress_ZEE	26	stimuli_target_squaretriangles.svg	stimuli_distractor_diamondtriangles.svg	7	yes	57	0	428	0	0			0	0			1				0	
6.6.1	and	2023-06-02	07:09:29	07:20:44	652382	58ed2be2a083320001a13783	3	1	main_z	11	main_z	27	stimuli_target_trianglerectangles.svg	stimuli_distractor_diamondtriangles.svg	21	yes	44	1	1350	0	0			0	0			1				0	
6.6.1	and	2023-06-02	07:09:29	07:20:44	652382	58ed2be2a083320001a13783	3	1	main_z	11	advance_on_keypress_ZEE	28	stimuli_target_trianglerectangles.svg	stimuli_distractor_diamondtriangles.svg	21	yes	57	0	660	0	0			0	0			1				0	
6.6.1	and	2023-06-02	07:09:29	07:20:46	654631	58ed2be2a083320001a13783	3	1	main_z	11	main_z	29	stimuli_distractor_diamondtriangles.svg	stimuli_target_trianglerectangles.svg	29	yes	44	1	934	0	0			0	0			1				0	
6.6.1	and	2023-06-02	07:09:29	07:20:46	654631	58ed2be2a083320001a13783	3	1	main_z	11	advance_on_keypress_ZEE	30	stimuli_distractor_diamondtriangles.svg	stimuli_target_trianglerectangles.svg	29	yes	57	0	525	0	0			0	0			1				0	
6.6.1	and	2023-06-02	07:09:29	07:20:48	656634	58ed2be2a083320001a13783	3	1	main_z	11	main_z	31	stimuli_distractor_trianglediamonds.svg	stimuli_target_squarediamonds.svg	12	yes	44	1	825	0	0			0	0			1				0	
6.6.1	and	2023-06-02	07:09:29	07:20:48	656634	58ed2be2a083320001a13783	3	1	main_z	11	advance_on_keypress_ZEE	32	stimuli_distractor_trianglediamonds.svg	stimuli_target_squarediamonds.svg	12	yes	57	0	573	0	0			0	0			1				0	
6.6.1	and	2023-06-02	07:09:29	07:20:50	659235	58ed2be2a083320001a13783	3	1	main_z	11	main_z	33	stimuli_target_diamondrectangles.svg	stimuli_distractor_trianglediamonds.svg	19	yes	44	1	1380	0	0			0	0			1				0	
6.6.1	and	2023-06-02	07:09:29	07:20:50	659235	58ed2be2a083320001a13783	3	1	main_z	11	advance_on_keypress_ZEE	34	stimuli_target_diamondrectangles.svg	stimuli_distractor_trianglediamonds.svg	19	yes	57	0	566	0	0			0	0			1				0	
6.6.1	and	2023-06-02	07:09:29	07:20:54	662440	58ed2be2a083320001a13783	3	1	main_z	11	main_z	35	stimuli_distractor_trianglediamonds.svg	stimuli_distractor_diamondtriangles.svg	36	no	0	1	2000	0	0			0	0			1				0	
6.6.1	and	2023-06-02	07:09:29	07:20:54	662440	58ed2be2a083320001a13783	3	1	main_z	11	advance_on_keypress_ZEE	36	stimuli_distractor_trianglediamonds.svg	stimuli_distractor_diamondtriangles.svg	36	no	57	0	852	0	0			0	0			1				0	
6.6.1	and	2023-06-02	07:09:29	07:20:56	664824	58ed2be2a083320001a13783	3	1	main_z	11	main_z	37	stimuli_target_squarediamonds.svg	stimuli_distractor_trianglediamonds.svg	4	yes	44	1	879	0	0			0	0			1				0	
6.6.1	and	2023-06-02	07:09:29	07:20:56	664824	58ed2be2a083320001a13783	3	1	main_z	11	advance_on_keypress_ZEE	38	stimuli_target_squarediamonds.svg	stimuli_distractor_trianglediamonds.svg	4	yes	57	0	956	0	0			0	0			1				0	
6.6.1	and	2023-06-02	07:09:29	07:20:59	668115	58ed2be2a083320001a13783	3	1	main_z	11	main_z	39	stimuli_distractor_trianglediamonds.svg	stimuli_target_trianglerectangles.svg	25	yes	44	1	1689	0	0			0	0			1				0	
6.6.1	and	2023-06-02	07:09:29	07:20:59	668115	58ed2be2a083320001a13783	3	1	main_z	11	advance_on_keypress_ZEE	40	stimuli_distractor_trianglediamonds.svg	stimuli_target_trianglerectangles.svg	25	yes	57	0	473	0	0			0	0			1				0	
6.6.1	and	2023-06-02	07:09:29	07:21:01	670089	58ed2be2a083320001a13783	3	1	main_z	11	main_z	41	stimuli_distractor_diamondtriangles.svg	stimuli_target_squaretriangles.svg	15	yes	44	1	854	0	0			0	0			1				0	
6.6.1	and	2023-06-02	07:09:29	07:21:01	670089	58ed2be2a083320001a13783	3	1	main_z	11	advance_on_keypress_ZEE	42	stimuli_distractor_diamondtriangles.svg	stimuli_target_squaretriangles.svg	15	yes	57	0	449	0	0			0	0			1				0	
6.6.1	and	2023-06-02	07:09:29	07:21:03	672317	58ed2be2a083320001a13783	3	1	main_z	11	main_z	43	stimuli_distractor_diamondtriangles.svg	stimuli_target_diamondrectangles.svg	31	yes	44	1	1119	0	0			0	0			1				0	
6.6.1	and	2023-06-02	07:09:29	07:21:03	672317	58ed2be2a083320001a13783	3	1	main_z	11	advance_on_keypress_ZEE	44	stimuli_distractor_diamondtriangles.svg	stimuli_target_diamondrectangles.svg	31	yes	57	0	520	0	0			0	0			1				0	
6.6.1	and	2023-06-02	07:09:29	07:21:06	674584	58ed2be2a083320001a13783	3	1	main_z	11	main_z	45	stimuli_target_diamondrectangles.svg	stimuli_distractor_diamondtriangles.svg	23	yes	44	1	1088	0	0			0	0			1				0	
6.6.1	and	2023-06-02	07:09:29	07:21:06	674584	58ed2be2a083320001a13783	3	1	main_z	11	advance_on_keypress_ZEE	46	stimuli_target_diamondrectangles.svg	stimuli_distractor_diamondtriangles.svg	23	yes	57	0	583	0	0			0	0			1				0	
6.6.1	and	2023-06-02	07:09:29	07:21:08	676866	58ed2be2a083320001a13783	3	1	main_z	11	main_z	47	stimuli_distractor_diamondtriangles.svg	stimuli_target_rectanglediamonds.svg	14	yes	44	1	1045	0	0			0	0			1				0	
6.6.1	and	2023-06-02	07:09:29	07:21:08	676866	58ed2be2a083320001a13783	3	1	main_z	11	advance_on_keypress_ZEE	48	stimuli_distractor_diamondtriangles.svg	stimuli_target_rectanglediamonds.svg	14	yes	57	0	486	0	0			0	0			1				0	
6.6.1	and	2023-06-02	07:09:29	07:21:10	679183	58ed2be2a083320001a13783	3	1	main_z	11	main_z	49	stimuli_distractor_trianglediamonds.svg	stimuli_target_diamondrectangles.svg	27	yes	44	1	1198	0	0			0	0			1				0	
6.6.1	and	2023-06-02	07:09:29	07:21:10	679183	58ed2be2a083320001a13783	3	1	main_z	11	advance_on_keypress_ZEE	50	stimuli_distractor_trianglediamonds.svg	stimuli_target_diamondrectangles.svg	27	yes	57	0	544	0	0			0	0			1				0	
6.6.1	and	2023-06-02	07:09:29	07:21:13	681532	58ed2be2a083320001a13783	3	1	main_z	11	main_z	51	stimuli_target_diamondsquares.svg	stimuli_distractor_trianglediamonds.svg	20	yes	44	1	1133	0	0			0	0			1				0	
6.6.1	and	2023-06-02	07:09:29	07:21:13	681532	58ed2be2a083320001a13783	3	1	main_z	11	advance_on_keypress_ZEE	52	stimuli_target_diamondsquares.svg	stimuli_distractor_trianglediamonds.svg	20	yes	57	0	560	0	0			0	0			1				0	
6.6.1	and	2023-06-02	07:09:29	07:21:16	684747	58ed2be2a083320001a13783	3	1	main_z	11	main_z	53	stimuli_distractor_diamondtriangles.svg	stimuli_distractor_trianglediamonds.svg	37	no	0	1	2000	0	0			0	0			1				0	
6.6.1	and	2023-06-02	07:09:29	07:21:16	684747	58ed2be2a083320001a13783	3	1	main_z	11	advance_on_keypress_ZEE	54	stimuli_distractor_diamondtriangles.svg	stimuli_distractor_trianglediamonds.svg	37	no	57	0	555	0	0			0	0			1				0	
6.6.1	and	2023-06-02	07:09:29	07:21:18	686756	58ed2be2a083320001a13783	3	1	main_z	11	main_z	55	stimuli_distractor_trianglediamonds.svg	stimuli_target_rectangletriangles.svg	9	yes	44	1	801	0	0			0	0			1				0	
6.6.1	and	2023-06-02	07:09:29	07:21:18	686756	58ed2be2a083320001a13783	3	1	main_z	11	advance_on_keypress_ZEE	56	stimuli_distractor_trianglediamonds.svg	stimuli_target_rectangletriangles.svg	9	yes	57	0	545	0	0			0	0			1				0	
6.6.1	and	2023-06-02	07:09:29	07:21:20	688837	58ed2be2a083320001a13783	3	1	main_z	11	main_z	57	stimuli_target_rectanglediamonds.svg	stimuli_distractor_trianglediamonds.svg	2	yes	44	1	868	0	0			0	0			1				0	
6.6.1	and	2023-06-02	07:09:29	07:21:20	688837	58ed2be2a083320001a13783	3	1	main_z	11	advance_on_keypress_ZEE	58	stimuli_target_rectanglediamonds.svg	stimuli_distractor_trianglediamonds.svg	2	yes	57	0	483	0	0			0	0			1				0	
6.6.1	and	2023-06-02	07:09:29	07:21:22	690964	58ed2be2a083320001a13783	3	1	main_z	11	main_z	59	stimuli_distractor_trianglediamonds.svg	stimuli_target_trianglesquares.svg	26	yes	44	1	984	0	0			0	0			1				0	
6.6.1	and	2023-06-02	07:09:29	07:21:22	690964	58ed2be2a083320001a13783	3	1	main_z	11	advance_on_keypress_ZEE	60	stimuli_distractor_trianglediamonds.svg	stimuli_target_trianglesquares.svg	26	yes	57	0	508	0	0			0	0			1				0	
6.6.1	and	2023-06-02	07:09:29	07:21:24	693143	58ed2be2a083320001a13783	3	1	main_z	11	main_z	61	stimuli_distractor_diamondtriangles.svg	stimuli_target_squarediamonds.svg	16	yes	44	1	1017	0	0			0	0			1				0	
6.6.1	and	2023-06-02	07:09:29	07:21:24	693143	58ed2be2a083320001a13783	3	1	main_z	11	advance_on_keypress_ZEE	62	stimuli_distractor_diamondtriangles.svg	stimuli_target_squarediamonds.svg	16	yes	57	0	401	0	0			0	0			1				0	
6.6.1	and	2023-06-02	07:09:29	07:21:26	695145	58ed2be2a083320001a13783	3	1	main_z	11	main_z	63	stimuli_distractor_trianglediamonds.svg	stimuli_target_diamondsquares.svg	28	yes	44	1	937	0	0			0	0			1				0	
6.6.1	and	2023-06-02	07:09:29	07:21:26	695145	58ed2be2a083320001a13783	3	1	main_z	11	advance_on_keypress_ZEE	64	stimuli_distractor_trianglediamonds.svg	stimuli_target_diamondsquares.svg	28	yes	57	0	430	0	0			0	0			1				0	
6.6.1	and	2023-06-02	07:09:29	07:21:28	697173	58ed2be2a083320001a13783	3	1	main_z	11	main_z	65	stimuli_distractor_trianglediamonds.svg	stimuli_target_rectanglediamonds.svg	10	yes	44	1	953	0	0			0	0			1				0	
6.6.1	and	2023-06-02	07:09:29	07:21:28	697173	58ed2be2a083320001a13783	3	1	main_z	11	advance_on_keypress_ZEE	66	stimuli_distractor_trianglediamonds.svg	stimuli_target_rectanglediamonds.svg	10	yes	57	0	508	0	0			0	0			1				0	
6.6.1	and	2023-06-02	07:09:29	07:21:31	699417	58ed2be2a083320001a13783	3	1	main_z	11	main_z	67	stimuli_target_rectangletriangles.svg	stimuli_distractor_trianglediamonds.svg	1	yes	44	1	1085	0	0			0	0			1				0	
6.6.1	and	2023-06-02	07:09:29	07:21:31	699417	58ed2be2a083320001a13783	3	1	main_z	11	advance_on_keypress_ZEE	68	stimuli_target_rectangletriangles.svg	stimuli_distractor_trianglediamonds.svg	1	yes	57	0	23333	0	0			0	0			1				0	
6.6.1	and	2023-06-02	07:09:29	07:21:57	725395	58ed2be2a083320001a13783	3	1	main_z	11	main_z	69	stimuli_distractor_trianglediamonds.svg	stimuli_distractor_diamondtriangles.svg	35	no	0	1	2000	0	0			0	0			1				0	
6.6.1	and	2023-06-02	07:09:29	07:21:57	725395	58ed2be2a083320001a13783	3	1	main_z	11	advance_on_keypress_ZEE	70	stimuli_distractor_trianglediamonds.svg	stimuli_distractor_diamondtriangles.svg	35	no	57	0	294	0	0			0	0			1				0	
6.6.1	and	2023-06-02	07:09:29	07:21:58	727068	58ed2be2a083320001a13783	3	1	main_z	11	main_z	71	stimuli_target_diamondsquares.svg	stimuli_distractor_diamondtriangles.svg	24	yes	44	1	736	0	0			0	0			1				0	
6.6.1	and	2023-06-02	07:09:29	07:21:58	727068	58ed2be2a083320001a13783	3	1	main_z	11	advance_on_keypress_ZEE	72	stimuli_target_diamondsquares.svg	stimuli_distractor_diamondtriangles.svg	24	yes	57	0	457	0	0			0	0			1				0	
6.6.1	and	2023-06-02	07:09:29	07:22:00	728948	58ed2be2a083320001a13783	3	1	main_z	11	main_z	73	stimuli_target_rectanglediamonds.svg	stimuli_distractor_diamondtriangles.svg	6	yes	44	1	773	0	0			0	0			1				0	
6.6.1	and	2023-06-02	07:09:29	07:22:00	728948	58ed2be2a083320001a13783	3	1	main_z	11	advance_on_keypress_ZEE	74	stimuli_target_rectanglediamonds.svg	stimuli_distractor_diamondtriangles.svg	6	yes	57	0	452	0	0			0	0			1				0	
6.6.1	and	2023-06-02	07:09:29	07:22:02	730939	58ed2be2a083320001a13783	3	1	main_z	11	main_z	75	stimuli_target_trianglerectangles.svg	stimuli_distractor_trianglediamonds.svg	17	yes	44	1	879	0	0			0	0			1				0	
6.6.1	and	2023-06-02	07:09:29	07:22:02	730939	58ed2be2a083320001a13783	3	1	main_z	11	advance_on_keypress_ZEE	76	stimuli_target_trianglerectangles.svg	stimuli_distractor_trianglediamonds.svg	17	yes	57	0	381	0	0			0	0			1				0	
6.6.1	and	2023-06-02	07:09:29	07:22:05	733972	58ed2be2a083320001a13783	3	1	main_z	11	main_z	77	stimuli_distractor_diamondtriangles.svg	stimuli_distractor_trianglediamonds.svg	38	no	0	1	2000	0	0			0	0			1				0	
6.6.1	and	2023-06-02	07:09:29	07:22:05	733972	58ed2be2a083320001a13783	3	1	main_z	11	advance_on_keypress_ZEE	78	stimuli_distractor_diamondtriangles.svg	stimuli_distractor_trianglediamonds.svg	38	no	57	0	372	0	0			0	0			1				0	
6.6.1	and	2023-06-02	07:09:29	07:22:07	735841	58ed2be2a083320001a13783	3	1	main_z	11	main_z	79	stimuli_target_trianglesquares.svg	stimuli_distractor_diamondtriangles.svg	22	yes	44	1	842	0	0			0	0			1				0	
6.6.1	and	2023-06-02	07:09:29	07:22:07	735841	58ed2be2a083320001a13783	3	1	main_z	11	advance_on_keypress_ZEE	80	stimuli_target_trianglesquares.svg	stimuli_distractor_diamondtriangles.svg	22	yes	57	0	416	0	0			0	0			1				0	
6.6.1	and	2023-06-02	07:09:29	07:22:09	737915	58ed2be2a083320001a13783	3	1	main_z	11	main_z	81	stimuli_distractor_trianglediamonds.svg	stimuli_target_squaretriangles.svg	11	yes	44	1	1009	0	0			0	0			1				0	
6.6.1	and	2023-06-02	07:09:29	07:22:09	737915	58ed2be2a083320001a13783	3	1	main_z	11	advance_on_keypress_ZEE	82	stimuli_distractor_trianglediamonds.svg	stimuli_target_squaretriangles.svg	11	yes	57	0	400	0	0			0	0			1				0	
6.6.1	and	2023-06-02	07:09:29	07:22:11	739842	58ed2be2a083320001a13783	3	1	main_z	11	main_z	83	stimuli_target_squarediamonds.svg	stimuli_distractor_trianglediamonds.svg	4	yes	44	1	862	0	0			0	0			1				0	
6.6.1	and	2023-06-02	07:09:29	07:22:11	739842	58ed2be2a083320001a13783	3	1	main_z	11	advance_on_keypress_ZEE	84	stimuli_target_squarediamonds.svg	stimuli_distractor_trianglediamonds.svg	4	yes	57	0	432	0	0			0	0			1				0	
6.6.1	and	2023-06-02	07:09:29	07:22:14	742939	58ed2be2a083320001a13783	3	1	main_z	11	main_z	85	stimuli_target_trianglerectangles.svg	stimuli_distractor_diamondtriangles.svg	21	yes	0	0	2000	0	0			0	0			1				0	
6.6.1	and	2023-06-02	07:09:29	07:22:14	742939	58ed2be2a083320001a13783	3	1	main_z	11	advance_on_keypress_ZEE	86	stimuli_target_trianglerectangles.svg	stimuli_distractor_diamondtriangles.svg	21	yes	57	0	503	0	0			0	0			1				0	
6.6.1	and	2023-06-02	07:09:29	07:22:16	744894	58ed2be2a083320001a13783	3	1	main_z	11	main_z	87	stimuli_distractor_trianglediamonds.svg	stimuli_target_squarediamonds.svg	12	yes	44	1	793	0	0			0	0			1				0	
6.6.1	and	2023-06-02	07:09:29	07:22:16	744894	58ed2be2a083320001a13783	3	1	main_z	11	advance_on_keypress_ZEE	88	stimuli_distractor_trianglediamonds.svg	stimuli_target_squarediamonds.svg	12	yes	57	0	874	0	0			0	0			1				0	
6.6.1	and	2023-06-02	07:09:29	07:22:19	747634	58ed2be2a083320001a13783	3	1	main_z	11	main_z	89	stimuli_distractor_trianglediamonds.svg	stimuli_target_trianglerectangles.svg	25	yes	44	1	1223	0	0			0	0			1				0	
6.6.1	and	2023-06-02	07:09:29	07:22:19	747634	58ed2be2a083320001a13783	3	1	main_z	11	advance_on_keypress_ZEE	90	stimuli_distractor_trianglediamonds.svg	stimuli_target_trianglerectangles.svg	25	yes	57	0	575	0	0			0	0			1				0	
6.6.1	and	2023-06-02	07:09:29	07:22:21	749944	58ed2be2a083320001a13783	3	1	main_z	11	main_z	91	stimuli_distractor_trianglediamonds.svg	stimuli_target_rectangletriangles.svg	9	yes	44	1	1088	0	0			0	0			1				0	
6.6.1	and	2023-06-02	07:09:29	07:22:21	749944	58ed2be2a083320001a13783	3	1	main_z	11	advance_on_keypress_ZEE	92	stimuli_distractor_trianglediamonds.svg	stimuli_target_rectangletriangles.svg	9	yes	57	0	432	0	0			0	0			1				0	
6.6.1	and	2023-06-02	07:09:29	07:22:23	752013	58ed2be2a083320001a13783	3	1	main_z	11	main_z	93	stimuli_target_rectanglediamonds.svg	stimuli_distractor_diamondtriangles.svg	6	yes	44	1	978	0	0			0	0			1				0	
6.6.1	and	2023-06-02	07:09:29	07:22:23	752013	58ed2be2a083320001a13783	3	1	main_z	11	advance_on_keypress_ZEE	94	stimuli_target_rectanglediamonds.svg	stimuli_distractor_diamondtriangles.svg	6	yes	57	0	481	0	0			0	0			1				0	
6.6.1	and	2023-06-02	07:09:29	07:22:26	754405	58ed2be2a083320001a13783	3	1	main_z	11	main_z	95	stimuli_distractor_trianglediamonds.svg	stimuli_target_trianglesquares.svg	26	yes	44	1	1272	0	0			0	0			1				0	
6.6.1	and	2023-06-02	07:09:29	07:22:26	754405	58ed2be2a083320001a13783	3	1	main_z	11	advance_on_keypress_ZEE	96	stimuli_distractor_trianglediamonds.svg	stimuli_target_trianglesquares.svg	26	yes	57	0	432	0	0			0	0			1				0	
6.6.1	and	2023-06-02	07:09:29	07:22:28	756622	58ed2be2a083320001a13783	3	1	main_z	11	main_z	97	stimuli_distractor_diamondtriangles.svg	stimuli_target_diamondrectangles.svg	31	yes	44	1	1128	0	0			0	0			1				0	
6.6.1	and	2023-06-02	07:09:29	07:22:28	756622	58ed2be2a083320001a13783	3	1	main_z	11	advance_on_keypress_ZEE	98	stimuli_distractor_diamondtriangles.svg	stimuli_target_diamondrectangles.svg	31	yes	57	0	713	0	0			0	0			1				0	
6.6.1	and	2023-06-02	07:09:29	07:22:31	759975	58ed2be2a083320001a13783	3	1	main_z	11	main_z	99	stimuli_distractor_trianglediamonds.svg	stimuli_distractor_trianglediamonds.svg	34	no	0	1	2000	0	0			0	0			1				0	
6.6.1	and	2023-06-02	07:09:29	07:22:31	759975	58ed2be2a083320001a13783	3	1	main_z	11	advance_on_keypress_ZEE	100	stimuli_distractor_trianglediamonds.svg	stimuli_distractor_trianglediamonds.svg	34	no	57	0	749	0	0			0	0			1				0	
6.6.1	and	2023-06-02	07:09:29	07:22:35	763370	58ed2be2a083320001a13783	3	1	main_z	11	main_z	101	stimuli_distractor_diamondtriangles.svg	stimuli_distractor_diamondtriangles.svg	39	no	0	1	2000	0	0			0	0			1				0	
6.6.1	and	2023-06-02	07:09:29	07:22:35	763370	58ed2be2a083320001a13783	3	1	main_z	11	advance_on_keypress_ZEE	102	stimuli_distractor_diamondtriangles.svg	stimuli_distractor_diamondtriangles.svg	39	no	57	0	303	0	0			0	0			1				0	
6.6.1	and	2023-06-02	07:09:29	07:22:36	765284	58ed2be2a083320001a13783	3	1	main_z	11	main_z	103	stimuli_target_diamondrectangles.svg	stimuli_distractor_diamondtriangles.svg	23	yes	44	1	951	0	0			0	0			1				0	
6.6.1	and	2023-06-02	07:09:29	07:22:36	765284	58ed2be2a083320001a13783	3	1	main_z	11	advance_on_keypress_ZEE	104	stimuli_target_diamondrectangles.svg	stimuli_distractor_diamondtriangles.svg	23	yes	57	0	461	0	0			0	0			1				0	
6.6.1	and	2023-06-02	07:09:29	07:22:39	767414	58ed2be2a083320001a13783	3	1	main_z	11	main_z	105	stimuli_target_squarediamonds.svg	stimuli_distractor_diamondtriangles.svg	8	yes	44	1	1024	0	0			0	0			1				0	
6.6.1	and	2023-06-02	07:09:29	07:22:39	767414	58ed2be2a083320001a13783	3	1	main_z	11	advance_on_keypress_ZEE	106	stimuli_target_squarediamonds.svg	stimuli_distractor_diamondtriangles.svg	8	yes	57	0	415	0	0			0	0			1				0	
6.6.1	and	2023-06-02	07:09:29	07:22:42	770474	58ed2be2a083320001a13783	3	1	main_z	11	main_z	107	stimuli_distractor_trianglediamonds.svg	stimuli_distractor_diamondtriangles.svg	35	no	0	1	2000	0	0			0	0			1				0	
6.6.1	and	2023-06-02	07:09:29	07:22:42	770474	58ed2be2a083320001a13783	3	1	main_z	11	advance_on_keypress_ZEE	108	stimuli_distractor_trianglediamonds.svg	stimuli_distractor_diamondtriangles.svg	35	no	57	0	502	0	0			0	0			1				0	
6.6.1	and	2023-06-02	07:09:29	07:22:44	772479	58ed2be2a083320001a13783	3	1	main_z	11	main_z	109	stimuli_target_diamondsquares.svg	stimuli_distractor_diamondtriangles.svg	24	yes	44	1	847	0	0			0	0			1				0	
6.6.1	and	2023-06-02	07:09:29	07:22:44	772479	58ed2be2a083320001a13783	3	1	main_z	11	advance_on_keypress_ZEE	110	stimuli_target_diamondsquares.svg	stimuli_distractor_diamondtriangles.svg	24	yes	57	0	365	0	0			0	0			1				0	
6.6.1	and	2023-06-02	07:09:29	07:22:46	774449	58ed2be2a083320001a13783	3	1	main_z	11	main_z	111	stimuli_distractor_trianglediamonds.svg	stimuli_target_rectanglediamonds.svg	10	yes	44	1	937	0	0			0	0			1				0	
6.6.1	and	2023-06-02	07:09:29	07:22:46	774449	58ed2be2a083320001a13783	3	1	main_z	11	advance_on_keypress_ZEE	112	stimuli_distractor_trianglediamonds.svg	stimuli_target_rectanglediamonds.svg	10	yes	57	0	365	0	0			0	0			1				0	
6.6.1	and	2023-06-02	07:09:29	07:22:48	776460	58ed2be2a083320001a13783	3	1	main_z	11	main_z	113	stimuli_distractor_diamondtriangles.svg	stimuli_target_trianglesquares.svg	30	yes	44	1	986	0	0			0	0			1				0	
6.6.1	and	2023-06-02	07:09:29	07:22:48	776460	58ed2be2a083320001a13783	3	1	main_z	11	advance_on_keypress_ZEE	114	stimuli_distractor_diamondtriangles.svg	stimuli_target_trianglesquares.svg	30	yes	57	0	402	0	0			0	0			1				0	
6.6.1	and	2023-06-02	07:09:29	07:22:50	778443	58ed2be2a083320001a13783	3	1	main_z	11	main_z	115	stimuli_target_rectangletriangles.svg	stimuli_distractor_diamondtriangles.svg	5	yes	44	1	924	0	0			0	0			1				0	
6.6.1	and	2023-06-02	07:09:29	07:22:50	778443	58ed2be2a083320001a13783	3	1	main_z	11	advance_on_keypress_ZEE	116	stimuli_target_rectangletriangles.svg	stimuli_distractor_diamondtriangles.svg	5	yes	57	0	405	0	0			0	0			1				0	
6.6.1	and	2023-06-02	07:09:29	07:22:52	780616	58ed2be2a083320001a13783	3	1	main_z	11	main_z	117	stimuli_distractor_trianglediamonds.svg	stimuli_target_diamondsquares.svg	28	yes	44	1	1117	0	0			0	0			1				0	
6.6.1	and	2023-06-02	07:09:29	07:22:52	780616	58ed2be2a083320001a13783	3	1	main_z	11	advance_on_keypress_ZEE	118	stimuli_distractor_trianglediamonds.svg	stimuli_target_diamondsquares.svg	28	yes	57	0	433	0	0			0	0			1				0	
6.6.1	and	2023-06-02	07:09:29	07:22:54	782811	58ed2be2a083320001a13783	3	1	main_z	11	main_z	119	stimuli_distractor_diamondtriangles.svg	stimuli_target_diamondsquares.svg	32	yes	44	1	1099	0	0			0	0			1				0	
6.6.1	and	2023-06-02	07:09:29	07:22:54	782811	58ed2be2a083320001a13783	3	1	main_z	11	advance_on_keypress_ZEE	120	stimuli_distractor_diamondtriangles.svg	stimuli_target_diamondsquares.svg	32	yes	57	0	526	0	0			0	0			1				0	
6.6.1	and	2023-06-02	07:09:29	07:22:57	785992	58ed2be2a083320001a13783	3	1	main_z	11	main_z	121	stimuli_distractor_trianglediamonds.svg	stimuli_distractor_trianglediamonds.svg	33	no	0	1	2000	0	0			0	0			1				0	
6.6.1	and	2023-06-02	07:09:29	07:22:57	785992	58ed2be2a083320001a13783	3	1	main_z	11	advance_on_keypress_ZEE	122	stimuli_distractor_trianglediamonds.svg	stimuli_distractor_trianglediamonds.svg	33	no	57	0	514	0	0			0	0			1				0	
6.6.1	and	2023-06-02	07:09:29	07:22:59	788038	58ed2be2a083320001a13783	3	1	main_z	11	main_z	123	stimuli_distractor_trianglediamonds.svg	stimuli_target_diamondrectangles.svg	27	yes	44	1	886	0	0			0	0			1				0	
6.6.1	and	2023-06-02	07:09:29	07:22:59	788038	58ed2be2a083320001a13783	3	1	main_z	11	advance_on_keypress_ZEE	124	stimuli_distractor_trianglediamonds.svg	stimuli_target_diamondrectangles.svg	27	yes	57	0	568	0	0			0	0			1				0	
6.6.1	and	2023-06-02	07:09:29	07:23:02	790503	58ed2be2a083320001a13783	3	1	main_z	11	main_z	125	stimuli_distractor_diamondtriangles.svg	stimuli_target_trianglerectangles.svg	29	yes	44	1	1238	0	0			0	0			1				0	
6.6.1	and	2023-06-02	07:09:29	07:23:02	790503	58ed2be2a083320001a13783	3	1	main_z	11	advance_on_keypress_ZEE	126	stimuli_distractor_diamondtriangles.svg	stimuli_target_trianglerectangles.svg	29	yes	57	0	417	0	0			0	0			1				0	
6.6.1	and	2023-06-02	07:09:29	07:23:05	793330	58ed2be2a083320001a13783	3	1	main_z	11	main_z	127	stimuli_target_rectanglediamonds.svg	stimuli_distractor_trianglediamonds.svg	2	yes	44	1	1769	0	0			0	0			1				0	
6.6.1	and	2023-06-02	07:09:29	07:23:05	793330	58ed2be2a083320001a13783	3	1	main_z	11	advance_on_keypress_ZEE	128	stimuli_target_rectanglediamonds.svg	stimuli_distractor_trianglediamonds.svg	2	yes	57	0	434	0	0			0	0			1				0	
6.6.1	and	2023-06-02	07:09:29	07:23:07	795911	58ed2be2a083320001a13783	3	1	main_z	11	main_z	129	stimuli_target_trianglesquares.svg	stimuli_distractor_diamondtriangles.svg	22	yes	44	1	1504	0	0			0	0			1				0	
6.6.1	and	2023-06-02	07:09:29	07:23:07	795911	58ed2be2a083320001a13783	3	1	main_z	11	advance_on_keypress_ZEE	130	stimuli_target_trianglesquares.svg	stimuli_distractor_diamondtriangles.svg	22	yes	57	0	428	0	0			0	0			1				0	
6.6.1	and	2023-06-02	07:09:29	07:23:09	797995	58ed2be2a083320001a13783	3	1	main_z	11	main_z	131	stimuli_target_diamondrectangles.svg	stimuli_distractor_trianglediamonds.svg	19	yes	44	1	1010	0	0			0	0			1				0	
6.6.1	and	2023-06-02	07:09:29	07:23:09	797995	58ed2be2a083320001a13783	3	1	main_z	11	advance_on_keypress_ZEE	132	stimuli_target_diamondrectangles.svg	stimuli_distractor_trianglediamonds.svg	19	yes	57	0	410	0	0			0	0			1				0	
6.6.1	and	2023-06-02	07:09:29	07:23:12	800474	58ed2be2a083320001a13783	3	1	main_z	11	main_z	133	stimuli_target_rectangletriangles.svg	stimuli_distractor_trianglediamonds.svg	1	yes	44	1	1426	0	0			0	0			1				0	
6.6.1	and	2023-06-02	07:09:29	07:23:12	800474	58ed2be2a083320001a13783	3	1	main_z	11	advance_on_keypress_ZEE	134	stimuli_target_rectangletriangles.svg	stimuli_distractor_trianglediamonds.svg	1	yes	57	0	486	0	0			0	0			1				0	
6.6.1	and	2023-06-02	07:09:29	07:23:14	802819	58ed2be2a083320001a13783	3	1	main_z	11	main_z	135	stimuli_distractor_diamondtriangles.svg	stimuli_target_squaretriangles.svg	15	yes	44	1	1209	0	0			0	0			1				0	
6.6.1	and	2023-06-02	07:09:29	07:23:14	802819	58ed2be2a083320001a13783	3	1	main_z	11	advance_on_keypress_ZEE	136	stimuli_distractor_diamondtriangles.svg	stimuli_target_squaretriangles.svg	15	yes	57	0	707	0	0			0	0			1				0	
6.6.1	and	2023-06-02	07:09:29	07:23:17	805379	58ed2be2a083320001a13783	3	1	main_z	11	main_z	137	stimuli_target_trianglerectangles.svg	stimuli_distractor_trianglediamonds.svg	17	yes	44	1	1207	0	0			0	0			1				0	
6.6.1	and	2023-06-02	07:09:29	07:23:17	805379	58ed2be2a083320001a13783	3	1	main_z	11	advance_on_keypress_ZEE	138	stimuli_target_trianglerectangles.svg	stimuli_distractor_trianglediamonds.svg	17	yes	57	0	418	0	0			0	0			1				0	
6.6.1	and	2023-06-02	07:09:29	07:23:20	808453	58ed2be2a083320001a13783	3	1	main_z	11	main_z	139	stimuli_distractor_trianglediamonds.svg	stimuli_distractor_diamondtriangles.svg	36	no	0	1	2000	0	0			0	0			1				0	
6.6.1	and	2023-06-02	07:09:29	07:23:20	808453	58ed2be2a083320001a13783	3	1	main_z	11	advance_on_keypress_ZEE	140	stimuli_distractor_trianglediamonds.svg	stimuli_distractor_diamondtriangles.svg	36	no	57	0	533	0	0			0	0			1				0	
6.6.1	and	2023-06-02	07:09:29	07:23:22	810595	58ed2be2a083320001a13783	3	1	main_z	11	main_z	141	stimuli_target_squaretriangles.svg	stimuli_distractor_diamondtriangles.svg	7	yes	44	1	966	0	0			0	0			1				0	
6.6.1	and	2023-06-02	07:09:29	07:23:22	810595	58ed2be2a083320001a13783	3	1	main_z	11	advance_on_keypress_ZEE	142	stimuli_target_squaretriangles.svg	stimuli_distractor_diamondtriangles.svg	7	yes	57	0	401	0	0			0	0			1				0	
6.6.1	and	2023-06-02	07:09:29	07:23:24	812582	58ed2be2a083320001a13783	3	1	main_z	11	main_z	143	stimuli_distractor_diamondtriangles.svg	stimuli_target_squarediamonds.svg	16	yes	44	1	926	0	0			0	0			1				0	
6.6.1	and	2023-06-02	07:09:29	07:23:24	812582	58ed2be2a083320001a13783	3	1	main_z	11	advance_on_keypress_ZEE	144	stimuli_distractor_diamondtriangles.svg	stimuli_target_squarediamonds.svg	16	yes	57	0	391	0	0			0	0			1				0	
6.6.1	and	2023-06-02	07:09:29	07:23:26	814781	58ed2be2a083320001a13783	3	1	main_z	11	main_z	145	stimuli_target_trianglesquares.svg	stimuli_distractor_trianglediamonds.svg	18	yes	44	1	1159	0	0			0	0			1				0	
6.6.1	and	2023-06-02	07:09:29	07:23:26	814781	58ed2be2a083320001a13783	3	1	main_z	11	advance_on_keypress_ZEE	146	stimuli_target_trianglesquares.svg	stimuli_distractor_trianglediamonds.svg	18	yes	57	0	7108	0	0			0	0			1				0	
6.6.1	and	2023-06-02	07:09:29	07:23:36	824526	58ed2be2a083320001a13783	3	1	main_z	11	main_z	147	stimuli_distractor_diamondtriangles.svg	stimuli_distractor_diamondtriangles.svg	40	no	0	1	2000	0	0			0	0			1				0	
6.6.1	and	2023-06-02	07:09:29	07:23:36	824526	58ed2be2a083320001a13783	3	1	main_z	11	advance_on_keypress_ZEE	148	stimuli_distractor_diamondtriangles.svg	stimuli_distractor_diamondtriangles.svg	40	no	57	0	425	0	0			0	0			1				0	
6.6.1	and	2023-06-02	07:09:29	07:23:39	827604	58ed2be2a083320001a13783	3	1	main_z	11	main_z	149	stimuli_distractor_diamondtriangles.svg	stimuli_distractor_trianglediamonds.svg	38	no	0	1	2000	0	0			0	0			1				0	
6.6.1	and	2023-06-02	07:09:29	07:23:39	827604	58ed2be2a083320001a13783	3	1	main_z	11	advance_on_keypress_ZEE	150	stimuli_distractor_diamondtriangles.svg	stimuli_distractor_trianglediamonds.svg	38	no	57	0	414	0	0			0	0			1				0	
6.6.1	and	2023-06-02	07:09:29	07:23:41	829893	58ed2be2a083320001a13783	3	1	main_z	11	main_z	151	stimuli_distractor_diamondtriangles.svg	stimuli_target_rectanglediamonds.svg	14	yes	44	1	1233	0	0			0	0			1				0	
6.6.1	and	2023-06-02	07:09:29	07:23:41	829893	58ed2be2a083320001a13783	3	1	main_z	11	advance_on_keypress_ZEE	152	stimuli_distractor_diamondtriangles.svg	stimuli_target_rectanglediamonds.svg	14	yes	57	0	476	0	0			0	0			1				0	
6.6.1	and	2023-06-02	07:09:29	07:23:44	832662	58ed2be2a083320001a13783	3	1	main_z	11	main_z	153	stimuli_target_squaretriangles.svg	stimuli_distractor_trianglediamonds.svg	3	yes	44	1	1639	0	0			0	0			1				0	
6.6.1	and	2023-06-02	07:09:29	07:23:44	832662	58ed2be2a083320001a13783	3	1	main_z	11	advance_on_keypress_ZEE	154	stimuli_target_squaretriangles.svg	stimuli_distractor_trianglediamonds.svg	3	yes	57	0	9895	0	0			0	0			1				0	
6.6.1	and	2023-06-02	07:09:29	07:23:55	843888	58ed2be2a083320001a13783	3	1	main_z	11	main_z	155	stimuli_distractor_diamondtriangles.svg	stimuli_target_rectangletriangles.svg	13	yes	44	1	688	0	0			0	0			1				0	
6.6.1	and	2023-06-02	07:09:29	07:23:55	843888	58ed2be2a083320001a13783	3	1	main_z	11	advance_on_keypress_ZEE	156	stimuli_distractor_diamondtriangles.svg	stimuli_target_rectangletriangles.svg	13	yes	57	0	443	0	0			0	0			1				0	
6.6.1	and	2023-06-02	07:09:29	07:23:57	846107	58ed2be2a083320001a13783	3	1	main_z	11	main_z	157	stimuli_target_diamondsquares.svg	stimuli_distractor_trianglediamonds.svg	20	yes	44	1	1126	0	0			0	0			1				0	
6.6.1	and	2023-06-02	07:09:29	07:23:57	846107	58ed2be2a083320001a13783	3	1	main_z	11	advance_on_keypress_ZEE	158	stimuli_target_diamondsquares.svg	stimuli_distractor_trianglediamonds.svg	20	yes	57	0	594	0	0			0	0			1				0	
6.6.1	and	2023-06-02	07:09:29	07:24:01	849345	58ed2be2a083320001a13783	3	1	main_z	11	main_z	159	stimuli_distractor_diamondtriangles.svg	stimuli_distractor_trianglediamonds.svg	37	no	0	1	2000	0	0			0	0			1				0	
6.6.1	and	2023-06-02	07:09:29	07:24:01	849345	58ed2be2a083320001a13783	3	1	main_z	11	advance_on_keypress_ZEE	160	stimuli_distractor_diamondtriangles.svg	stimuli_distractor_trianglediamonds.svg	37	no	57	0	455	0	0			0	0			1				0	
6.6.1	and	2023-06-02	07:09:29	07:24:01	849345	58ed2be2a083320001a13783	3	1	headphonecheck_calibration	14	headphonecheck_calibrationIntro	1	stimuli_distractor_diamondtriangles.svg	stimuli_distractor_trianglediamonds.svg	37	no	calibrationButton	0	1220	0	0			0	0			1				0	
6.6.1	and	2023-06-02	07:09:29	07:24:01	849345	58ed2be2a083320001a13783	3	1	headphonecheck_testphase	15	test_collectResponse	3	stimuli_distractor_diamondtriangles.svg	stimuli_distractor_trianglediamonds.svg	37	no	second	1	570	1	5	antiphase_hc_osi.wav	2	0	0			1				0	
6.6.1	and	2023-06-02	07:09:29	07:24:01	849345	58ed2be2a083320001a13783	3	1	headphonecheck_testphase	15	test_collectResponse	6	stimuli_distractor_diamondtriangles.svg	stimuli_distractor_trianglediamonds.svg	37	no	first	1	649	2	3	antiphase_hc_soi.wav	1	0	0			1				0	
6.6.1	and	2023-06-02	07:09:29	07:24:01	849345	58ed2be2a083320001a13783	3	1	headphonecheck_testphase	15	test_collectResponse	9	stimuli_distractor_diamondtriangles.svg	stimuli_distractor_trianglediamonds.svg	37	no	third	1	564	3	6	antiphase_hc_ois.wav	3	0	0			1				0	
6.6.1	and	2023-06-02	07:09:29	07:24:01	849345	58ed2be2a083320001a13783	3	1	headphonecheck_testphase	15	test_collectResponse	12	stimuli_distractor_diamondtriangles.svg	stimuli_distractor_trianglediamonds.svg	37	no	second	1	491	4	1	antiphase_hc_iso.wav	2	0	0			1				0	
6.6.1	and	2023-06-02	07:09:29	07:24:01	849345	58ed2be2a083320001a13783	3	1	headphonecheck_testphase	15	test_collectResponse	15	stimuli_distractor_diamondtriangles.svg	stimuli_distractor_trianglediamonds.svg	37	no	first	1	517	5	4	antiphase_hc_sio.wav	1	0	0			1				0	
6.6.1	and	2023-06-02	07:09:29	07:24:01	849345	58ed2be2a083320001a13783	3	1	headphonecheck_testphase	15	test_collectResponse	18	stimuli_distractor_diamondtriangles.svg	stimuli_distractor_trianglediamonds.svg	37	no	third	1	595	6	2	antiphase_hc_ios.wav	3	0	0			1				0	
6.6.1	and	2023-06-02	07:09:29	07:24:01	849345	58ed2be2a083320001a13783	3	1	stereocheck_calibration	17	stereocheck_calibrationIntro	1	stimuli_distractor_diamondtriangles.svg	stimuli_distractor_trianglediamonds.svg	37	no	stereocheck_calibrationButton	0	4514	6	2	antiphase_hc_ios.wav	3	0	0			1				0	
6.6.1	and	2023-06-02	07:09:29	07:24:01	849345	58ed2be2a083320001a13783	3	1	stereocheck_testphase	18	stereocheck_test_collectResponse	3	stimuli_distractor_diamondtriangles.svg	stimuli_distractor_trianglediamonds.svg	37	no	stereocheck_left	1	3967	6	2	antiphase_hc_ios.wav	3	1	2	noise_calib_stim_LEFT.wav	1	1				0	
6.6.1	and	2023-06-02	07:09:29	07:24:01	849345	58ed2be2a083320001a13783	3	1	stereocheck_testphase	18	stereocheck_test_collectResponse	6	stimuli_distractor_diamondtriangles.svg	stimuli_distractor_trianglediamonds.svg	37	no	stereocheck_left	1	722	6	2	antiphase_hc_ios.wav	3	2	1	noise_calib_stim_LEFT.wav	1	1				0	
6.6.1	and	2023-06-02	07:09:29	07:24:01	849345	58ed2be2a083320001a13783	3	1	stereocheck_testphase	18	stereocheck_test_collectResponse	9	stimuli_distractor_diamondtriangles.svg	stimuli_distractor_trianglediamonds.svg	37	no	stereocheck_right	1	696	6	2	antiphase_hc_ios.wav	3	3	6	noise_calib_stim_RIGHT.wav	2	1				0	
6.6.1	and	2023-06-02	07:09:29	07:24:01	849345	58ed2be2a083320001a13783	3	1	stereocheck_testphase	18	stereocheck_test_collectResponse	12	stimuli_distractor_diamondtriangles.svg	stimuli_distractor_trianglediamonds.svg	37	no	stereocheck_right	1	560	6	2	antiphase_hc_ios.wav	3	4	4	noise_calib_stim_RIGHT.wav	2	1				0	
6.6.1	and	2023-06-02	07:09:29	07:24:01	849345	58ed2be2a083320001a13783	3	1	stereocheck_testphase	18	stereocheck_test_collectResponse	15	stimuli_distractor_diamondtriangles.svg	stimuli_distractor_trianglediamonds.svg	37	no	stereocheck_left	1	948	6	2	antiphase_hc_ios.wav	3	5	3	noise_calib_stim_LEFT.wav	1	1				0	
6.6.1	and	2023-06-02	07:09:29	07:24:01	849345	58ed2be2a083320001a13783	3	1	stereocheck_testphase	18	stereocheck_test_collectResponse	18	stimuli_distractor_diamondtriangles.svg	stimuli_distractor_trianglediamonds.svg	37	no	stereocheck_right	1	818	6	2	antiphase_hc_ios.wav	3	6	5	noise_calib_stim_RIGHT.wav	2	1				0	
6.6.1	and	2023-06-02	07:09:29	07:24:01	849345	58ed2be2a083320001a13783	3	1	DL_practice	21	DL_practice	2	stimuli_distractor_diamondtriangles.svg	stimuli_distractor_trianglediamonds.svg	37	no	da	1	1232	6	2	antiphase_hc_ios.wav	3	6	5	noise_calib_stim_RIGHT.wav	2	8	blb_dichoticlistening_da-da.mp3	da	da	0	left
6.6.1	and	2023-06-02	07:09:29	07:24:01	849345	58ed2be2a083320001a13783	3	1	DL_practice	21	DL_practice	3	stimuli_distractor_diamondtriangles.svg	stimuli_distractor_trianglediamonds.svg	37	no	da	1	1197	6	2	antiphase_hc_ios.wav	3	6	5	noise_calib_stim_RIGHT.wav	2	7	blb_dichoticlistening_da-ba.mp3	da	ba	1	left
6.6.1	and	2023-06-02	07:09:29	07:24:01	849345	58ed2be2a083320001a13783	3	1	DL_practice	21	DL_practice	4	stimuli_distractor_diamondtriangles.svg	stimuli_distractor_trianglediamonds.svg	37	no	ka	1	1442	6	2	antiphase_hc_ios.wav	3	6	5	noise_calib_stim_RIGHT.wav	2	22	blb_dichoticlistening_ka-ka.mp3	ka	ka	0	left
6.6.1	and	2023-06-02	07:09:29	07:24:01	849345	58ed2be2a083320001a13783	3	1	DL_practice	21	DL_practice	5	stimuli_distractor_diamondtriangles.svg	stimuli_distractor_trianglediamonds.svg	37	no	pa	1	1449	6	2	antiphase_hc_ios.wav	3	6	5	noise_calib_stim_RIGHT.wav	2	23	blb_dichoticlistening_ka-pa.mp3	ka	pa	1	right
6.6.1	and	2023-06-02	07:09:29	07:24:01	849345	58ed2be2a083320001a13783	3	1	DL_practice	21	DL_practice	6	stimuli_distractor_diamondtriangles.svg	stimuli_distractor_trianglediamonds.svg	37	no	da	0	1619	6	2	antiphase_hc_ios.wav	3	6	5	noise_calib_stim_RIGHT.wav	2	18	blb_dichoticlistening_ga-ta.mp3	ga	ta	1	other
6.6.1	and	2023-06-02	07:09:29	07:24:01	849345	58ed2be2a083320001a13783	3	1	DL_practice	21	DL_practice	7	stimuli_distractor_diamondtriangles.svg	stimuli_distractor_trianglediamonds.svg	37	no	ta	1	1578	6	2	antiphase_hc_ios.wav	3	6	5	noise_calib_stim_RIGHT.wav	2	36	blb_dichoticlistening_ta-ta.mp3	ta	ta	0	left
6.6.1	and	2023-06-02	07:09:29	07:24:01	849345	58ed2be2a083320001a13783	3	1	DL_practice	21	DL_practice	8	stimuli_distractor_diamondtriangles.svg	stimuli_distractor_trianglediamonds.svg	37	no	ba	1	1560	6	2	antiphase_hc_ios.wav	3	6	5	noise_calib_stim_RIGHT.wav	2	1	blb_dichoticlistening_ba-ba.mp3	ba	ba	0	left
6.6.1	and	2023-06-02	07:09:29	07:24:01	849345	58ed2be2a083320001a13783	3	1	DL_practice	21	DL_practice	9	stimuli_distractor_diamondtriangles.svg	stimuli_distractor_trianglediamonds.svg	37	no	ga	1	1861	6	2	antiphase_hc_ios.wav	3	6	5	noise_calib_stim_RIGHT.wav	2	15	blb_dichoticlistening_ga-ga.mp3	ga	ga	0	left
6.6.1	and	2023-06-02	07:09:29	07:24:01	849345	58ed2be2a083320001a13783	3	1	DL_practice	21	DL_practice	10	stimuli_distractor_diamondtriangles.svg	stimuli_distractor_trianglediamonds.svg	37	no	pa	1	1926	6	2	antiphase_hc_ios.wav	3	6	5	noise_calib_stim_RIGHT.wav	2	29	blb_dichoticlistening_pa-pa.mp3	pa	pa	0	left
6.6.1	and	2023-06-02	07:09:29	07:24:01	849345	58ed2be2a083320001a13783	3	1	DL_test	23	DL_test	1	stimuli_distractor_diamondtriangles.svg	stimuli_distractor_trianglediamonds.svg	37	no	da	1	1396	6	2	antiphase_hc_ios.wav	3	6	5	noise_calib_stim_RIGHT.wav	2	14	blb_dichoticlistening_ga-da.mp3	ga	da	1	right
6.6.1	and	2023-06-02	07:09:29	07:24:01	849345	58ed2be2a083320001a13783	3	1	DL_test	23	DL_test	2	stimuli_distractor_diamondtriangles.svg	stimuli_distractor_trianglediamonds.svg	37	no	ta	1	2184	6	2	antiphase_hc_ios.wav	3	6	5	noise_calib_stim_RIGHT.wav	2	12	blb_dichoticlistening_da-ta.mp3	da	ta	1	right
6.6.1	and	2023-06-02	07:09:29	07:24:01	849345	58ed2be2a083320001a13783	3	1	DL_test	23	DL_test	3	stimuli_distractor_diamondtriangles.svg	stimuli_distractor_trianglediamonds.svg	37	no	ga	1	1381	6	2	antiphase_hc_ios.wav	3	6	5	noise_calib_stim_RIGHT.wav	2	21	blb_dichoticlistening_ka-ga.mp3	ka	ga	1	right
6.6.1	and	2023-06-02	07:09:29	07:24:01	849345	58ed2be2a083320001a13783	3	1	DL_test	23	DL_test	4	stimuli_distractor_diamondtriangles.svg	stimuli_distractor_trianglediamonds.svg	37	no	ta	1	2418	6	2	antiphase_hc_ios.wav	3	6	5	noise_calib_stim_RIGHT.wav	2	24	blb_dichoticlistening_ka-ta.mp3	ka	ta	1	right
6.6.1	and	2023-06-02	07:09:29	07:24:01	849345	58ed2be2a083320001a13783	3	1	DL_test	23	DL_test	5	stimuli_distractor_diamondtriangles.svg	stimuli_distractor_trianglediamonds.svg	37	no	ka	1	1752	6	2	antiphase_hc_ios.wav	3	6	5	noise_calib_stim_RIGHT.wav	2	20	blb_dichoticlistening_ka-da.mp3	ka	da	1	left
6.6.1	and	2023-06-02	07:09:29	07:24:01	849345	58ed2be2a083320001a13783	3	1	DL_test	23	DL_test	6	stimuli_distractor_diamondtriangles.svg	stimuli_distractor_trianglediamonds.svg	37	no	ga	1	1285	6	2	antiphase_hc_ios.wav	3	6	5	noise_calib_stim_RIGHT.wav	2	15	blb_dichoticlistening_ga-ga.mp3	ga	ga	0	left
6.6.1	and	2023-06-02	07:09:29	07:24:01	849345	58ed2be2a083320001a13783	3	1	DL_test	23	DL_test	7	stimuli_distractor_diamondtriangles.svg	stimuli_distractor_trianglediamonds.svg	37	no	pa	1	1802	6	2	antiphase_hc_ios.wav	3	6	5	noise_calib_stim_RIGHT.wav	2	26	blb_dichoticlistening_pa-da.mp3	pa	da	1	left
6.6.1	and	2023-06-02	07:09:29	07:24:01	849345	58ed2be2a083320001a13783	3	1	DL_test	23	DL_test	8	stimuli_distractor_diamondtriangles.svg	stimuli_distractor_trianglediamonds.svg	37	no	ba	1	2518	6	2	antiphase_hc_ios.wav	3	6	5	noise_calib_stim_RIGHT.wav	2	4	blb_dichoticlistening_ba-ka.mp3	ba	ka	1	left
6.6.1	and	2023-06-02	07:09:29	07:24:01	849345	58ed2be2a083320001a13783	3	1	DL_test	23	DL_test	9	stimuli_distractor_diamondtriangles.svg	stimuli_distractor_trianglediamonds.svg	37	no	ta	1	1600	6	2	antiphase_hc_ios.wav	3	6	5	noise_calib_stim_RIGHT.wav	2	31	blb_dichoticlistening_ta-ba.mp3	ta	ba	1	left
6.6.1	and	2023-06-02	07:09:29	07:24:01	849345	58ed2be2a083320001a13783	3	1	DL_test	23	DL_test	10	stimuli_distractor_diamondtriangles.svg	stimuli_distractor_trianglediamonds.svg	37	no	da	1	1395	6	2	antiphase_hc_ios.wav	3	6	5	noise_calib_stim_RIGHT.wav	2	8	blb_dichoticlistening_da-da.mp3	da	da	0	left
6.6.1	and	2023-06-02	07:09:29	07:24:01	849345	58ed2be2a083320001a13783	3	1	DL_test	23	DL_test	11	stimuli_distractor_diamondtriangles.svg	stimuli_distractor_trianglediamonds.svg	37	no	ta	1	1477	6	2	antiphase_hc_ios.wav	3	6	5	noise_calib_stim_RIGHT.wav	2	36	blb_dichoticlistening_ta-ta.mp3	ta	ta	0	left
6.6.1	and	2023-06-02	07:09:29	07:24:01	849345	58ed2be2a083320001a13783	3	1	DL_test	23	DL_test	12	stimuli_distractor_diamondtriangles.svg	stimuli_distractor_trianglediamonds.svg	37	no	ka	1	1405	6	2	antiphase_hc_ios.wav	3	6	5	noise_calib_stim_RIGHT.wav	2	34	blb_dichoticlistening_ta-ka.mp3	ta	ka	1	right
6.6.1	and	2023-06-02	07:09:29	07:24:01	849345	58ed2be2a083320001a13783	3	1	DL_test	23	DL_test	13	stimuli_distractor_diamondtriangles.svg	stimuli_distractor_trianglediamonds.svg	37	no	pa	1	1683	6	2	antiphase_hc_ios.wav	3	6	5	noise_calib_stim_RIGHT.wav	2	30	blb_dichoticlistening_pa-ta.mp3	pa	ta	1	left
6.6.1	and	2023-06-02	07:09:29	07:24:01	849345	58ed2be2a083320001a13783	3	1	DL_test	23	DL_test	14	stimuli_distractor_diamondtriangles.svg	stimuli_distractor_trianglediamonds.svg	37	no	da	1	1404	6	2	antiphase_hc_ios.wav	3	6	5	noise_calib_stim_RIGHT.wav	2	2	blb_dichoticlistening_ba-da.mp3	ba	da	1	right
6.6.1	and	2023-06-02	07:09:29	07:24:01	849345	58ed2be2a083320001a13783	3	1	DL_test	23	DL_test	15	stimuli_distractor_diamondtriangles.svg	stimuli_distractor_trianglediamonds.svg	37	no	ta	1	1560	6	2	antiphase_hc_ios.wav	3	6	5	noise_calib_stim_RIGHT.wav	2	33	blb_dichoticlistening_ta-ga.mp3	ta	ga	1	left
6.6.1	and	2023-06-02	07:09:29	07:24:01	849345	58ed2be2a083320001a13783	3	1	DL_test	23	DL_test	16	stimuli_distractor_diamondtriangles.svg	stimuli_distractor_trianglediamonds.svg	37	no	da	1	1569	6	2	antiphase_hc_ios.wav	3	6	5	noise_calib_stim_RIGHT.wav	2	7	blb_dichoticlistening_da-ba.mp3	da	ba	1	left
6.6.1	and	2023-06-02	07:09:29	07:24:01	849345	58ed2be2a083320001a13783	3	1	DL_test	23	DL_test	17	stimuli_distractor_diamondtriangles.svg	stimuli_distractor_trianglediamonds.svg	37	no	ba	1	2024	6	2	antiphase_hc_ios.wav	3	6	5	noise_calib_stim_RIGHT.wav	2	6	blb_dichoticlistening_ba-ta.mp3	ba	ta	1	left
6.6.1	and	2023-06-02	07:09:29	07:24:01	849345	58ed2be2a083320001a13783	3	1	DL_test	23	DL_test	18	stimuli_distractor_diamondtriangles.svg	stimuli_distractor_trianglediamonds.svg	37	no	ga	1	1409	6	2	antiphase_hc_ios.wav	3	6	5	noise_calib_stim_RIGHT.wav	2	18	blb_dichoticlistening_ga-ta.mp3	ga	ta	1	left
6.6.1	and	2023-06-02	07:09:29	07:24:01	849345	58ed2be2a083320001a13783	3	1	DL_test	23	DL_test	19	stimuli_distractor_diamondtriangles.svg	stimuli_distractor_trianglediamonds.svg	37	no	pa	1	1552	6	2	antiphase_hc_ios.wav	3	6	5	noise_calib_stim_RIGHT.wav	2	5	blb_dichoticlistening_ba-pa.mp3	ba	pa	1	right
6.6.1	and	2023-06-02	07:09:29	07:24:01	849345	58ed2be2a083320001a13783	3	1	DL_test	23	DL_test	20	stimuli_distractor_diamondtriangles.svg	stimuli_distractor_trianglediamonds.svg	37	no	ka	1	1555	6	2	antiphase_hc_ios.wav	3	6	5	noise_calib_stim_RIGHT.wav	2	19	blb_dichoticlistening_ka-ba.mp3	ka	ba	1	left
6.6.1	and	2023-06-02	07:09:29	07:24:01	849345	58ed2be2a083320001a13783	3	1	DL_test	23	DL_test	21	stimuli_distractor_diamondtriangles.svg	stimuli_distractor_trianglediamonds.svg	37	no	ba	1	2157	6	2	antiphase_hc_ios.wav	3	6	5	noise_calib_stim_RIGHT.wav	2	3	blb_dichoticlistening_ba-ga.mp3	ba	ga	1	left
6.6.1	and	2023-06-02	07:09:29	07:24:01	849345	58ed2be2a083320001a13783	3	1	DL_test	23	DL_test	22	stimuli_distractor_diamondtriangles.svg	stimuli_distractor_trianglediamonds.svg	37	no	pa	1	1844	6	2	antiphase_hc_ios.wav	3	6	5	noise_calib_stim_RIGHT.wav	2	11	blb_dichoticlistening_da-pa.mp3	da	pa	1	right
6.6.1	and	2023-06-02	07:09:29	07:24:01	849345	58ed2be2a083320001a13783	3	1	DL_test	23	DL_test	23	stimuli_distractor_diamondtriangles.svg	stimuli_distractor_trianglediamonds.svg	37	no	ba	1	1431	6	2	antiphase_hc_ios.wav	3	6	5	noise_calib_stim_RIGHT.wav	2	1	blb_dichoticlistening_ba-ba.mp3	ba	ba	0	left
6.6.1	and	2023-06-02	07:09:29	07:24:01	849345	58ed2be2a083320001a13783	3	1	DL_test	23	DL_test	24	stimuli_distractor_diamondtriangles.svg	stimuli_distractor_trianglediamonds.svg	37	no	ta	1	1809	6	2	antiphase_hc_ios.wav	3	6	5	noise_calib_stim_RIGHT.wav	2	35	blb_dichoticlistening_ta-pa.mp3	ta	pa	1	left
6.6.1	and	2023-06-02	07:09:29	07:24:01	849345	58ed2be2a083320001a13783	3	1	DL_test	23	DL_test	25	stimuli_distractor_diamondtriangles.svg	stimuli_distractor_trianglediamonds.svg	37	no	pa	1	1542	6	2	antiphase_hc_ios.wav	3	6	5	noise_calib_stim_RIGHT.wav	2	25	blb_dichoticlistening_pa-ba.mp3	pa	ba	1	left
