build	computer.platform	date	time	timestamp	time_elapsed_ms	subject	group	session	blockcode	blocknum	trialcode	trialnum	stimulus_left	stimulus_right	stim_index	target_present	response	correct	latency	headphonecheck_countTestTrials	headphonecheck_index	headphonecheck_testSound	headphonecheck_correctResponse	stereocheck_countTestTrials	stereocheck_index	stereocheck_testSound	stereocheck_correctResponse	DL_index	DL_soundfile	DL_leftSound	DL_rightSound	DL_dualSound	DL_choice
6.6.1	mac	2023-06-27	00:19:56	00:22:46	167039	5c0004a72340e10001bfc3a0	4	1	practice_z	5	practice_z	1	stimuli_target_diamondsquares.svg	stimuli_distractor_diamondtriangles.svg	3	yes	0	0	2000	0	0			0	0			1				0	
6.6.1	mac	2023-06-27	00:19:56	00:22:46	167039	5c0004a72340e10001bfc3a0	4	1	practice_z	5	advance_on_keypress_ZEE	2	stimuli_target_diamondsquares.svg	stimuli_distractor_diamondtriangles.svg	3	yes	57	0	4171	0	0			0	0			1				0	
6.6.1	mac	2023-06-27	00:19:56	00:22:53	173672	5c0004a72340e10001bfc3a0	4	1	practice_z	5	practice_z	3	stimuli_distractor_trianglediamonds.svg	stimuli_target_rectanglediamonds.svg	10	yes	44	1	832	0	0			0	0			1				0	
6.6.1	mac	2023-06-27	00:19:56	00:22:53	173672	5c0004a72340e10001bfc3a0	4	1	practice_z	5	advance_on_keypress_ZEE	4	stimuli_distractor_trianglediamonds.svg	stimuli_target_rectanglediamonds.svg	10	yes	57	0	739	0	0			0	0			1				0	
6.6.1	mac	2023-06-27	00:19:56	00:22:57	178037	5c0004a72340e10001bfc3a0	4	1	practice_z	5	practice_z	5	stimuli_distractor_trianglediamonds.svg	stimuli_distractor_diamondtriangles.svg	16	no	0	1	2000	0	0			0	0			1				0	
6.6.1	mac	2023-06-27	00:19:56	00:22:57	178037	5c0004a72340e10001bfc3a0	4	1	practice_z	5	advance_on_keypress_ZEE	6	stimuli_distractor_trianglediamonds.svg	stimuli_distractor_diamondtriangles.svg	16	no	57	0	512	0	0			0	0			1				0	
6.6.1	mac	2023-06-27	00:19:56	00:23:00	181033	5c0004a72340e10001bfc3a0	4	1	practice_z	5	practice_z	7	stimuli_distractor_diamondtriangles.svg	stimuli_target_diamondrectangles.svg	8	yes	44	1	845	0	0			0	0			1				0	
6.6.1	mac	2023-06-27	00:19:56	00:23:00	181033	5c0004a72340e10001bfc3a0	4	1	practice_z	5	advance_on_keypress_ZEE	8	stimuli_distractor_diamondtriangles.svg	stimuli_target_diamondrectangles.svg	8	yes	57	0	503	0	0			0	0			1				0	
6.6.1	mac	2023-06-27	00:19:56	00:23:04	185155	5c0004a72340e10001bfc3a0	4	1	practice_z	5	practice_z	9	stimuli_distractor_diamondtriangles.svg	stimuli_distractor_trianglediamonds.svg	14	no	0	1	2000	0	0			0	0			1				0	
6.6.1	mac	2023-06-27	00:19:56	00:23:04	185155	5c0004a72340e10001bfc3a0	4	1	practice_z	5	advance_on_keypress_ZEE	10	stimuli_distractor_diamondtriangles.svg	stimuli_distractor_trianglediamonds.svg	14	no	57	0	345	0	0			0	0			1				0	
6.6.1	mac	2023-06-27	00:19:56	00:23:07	188153	5c0004a72340e10001bfc3a0	4	1	practice_z	5	practice_z	11	stimuli_target_rectanglediamonds.svg	stimuli_distractor_trianglediamonds.svg	4	yes	44	1	1033	0	0			0	0			1				0	
6.6.1	mac	2023-06-27	00:19:56	00:23:07	188153	5c0004a72340e10001bfc3a0	4	1	practice_z	5	advance_on_keypress_ZEE	12	stimuli_target_rectanglediamonds.svg	stimuli_distractor_trianglediamonds.svg	4	yes	57	0	360	0	0			0	0			1				0	
6.6.1	mac	2023-06-27	00:19:56	00:23:10	191124	5c0004a72340e10001bfc3a0	4	1	practice_z	5	practice_z	13	stimuli_target_squarediamonds.svg	stimuli_distractor_diamondtriangles.svg	2	yes	44	1	985	0	0			0	0			1				0	
6.6.1	mac	2023-06-27	00:19:56	00:23:10	191124	5c0004a72340e10001bfc3a0	4	1	practice_z	5	advance_on_keypress_ZEE	14	stimuli_target_squarediamonds.svg	stimuli_distractor_diamondtriangles.svg	2	yes	57	0	567	0	0			0	0			1				0	
6.6.1	mac	2023-06-27	00:19:56	00:23:13	194022	5c0004a72340e10001bfc3a0	4	1	practice_z	5	practice_z	15	stimuli_distractor_trianglediamonds.svg	stimuli_target_squarediamonds.svg	11	yes	44	1	701	0	0			0	0			1				0	
6.6.1	mac	2023-06-27	00:19:56	00:23:13	194022	5c0004a72340e10001bfc3a0	4	1	practice_z	5	advance_on_keypress_ZEE	16	stimuli_distractor_trianglediamonds.svg	stimuli_target_squarediamonds.svg	11	yes	57	0	658	0	0			0	0			1				0	
6.6.1	mac	2023-06-27	00:19:56	00:23:16	197299	5c0004a72340e10001bfc3a0	4	1	practice_z	5	practice_z	17	stimuli_distractor_diamondtriangles.svg	stimuli_target_trianglerectangles.svg	9	yes	44	1	994	0	0			0	0			1				0	
6.6.1	mac	2023-06-27	00:19:56	00:23:16	197299	5c0004a72340e10001bfc3a0	4	1	practice_z	5	advance_on_keypress_ZEE	18	stimuli_distractor_diamondtriangles.svg	stimuli_target_trianglerectangles.svg	9	yes	57	0	451	0	0			0	0			1				0	
6.6.1	mac	2023-06-27	00:19:56	00:23:19	200359	5c0004a72340e10001bfc3a0	4	1	practice_z	5	practice_z	19	stimuli_target_rectanglediamonds.svg	stimuli_distractor_diamondtriangles.svg	1	yes	44	1	988	0	0			0	0			1				0	
6.6.1	mac	2023-06-27	00:19:56	00:23:19	200359	5c0004a72340e10001bfc3a0	4	1	practice_z	5	advance_on_keypress_ZEE	20	stimuli_target_rectanglediamonds.svg	stimuli_distractor_diamondtriangles.svg	1	yes	57	0	204	0	0			0	0			1				0	
6.6.1	mac	2023-06-27	00:19:56	00:23:22	203423	5c0004a72340e10001bfc3a0	4	1	practice_z	5	practice_z	21	stimuli_target_diamondsquares.svg	stimuli_distractor_trianglediamonds.svg	6	yes	44	1	1235	0	0			0	0			1				0	
6.6.1	mac	2023-06-27	00:19:56	00:23:22	203423	5c0004a72340e10001bfc3a0	4	1	practice_z	5	advance_on_keypress_ZEE	22	stimuli_target_diamondsquares.svg	stimuli_distractor_trianglediamonds.svg	6	yes	57	0	540	0	0			0	0			1				0	
6.6.1	mac	2023-06-27	00:19:56	00:23:26	206546	5c0004a72340e10001bfc3a0	4	1	practice_z	5	practice_z	23	stimuli_distractor_diamondtriangles.svg	stimuli_target_rectangletriangles.svg	7	yes	44	1	958	0	0			0	0			1				0	
6.6.1	mac	2023-06-27	00:19:56	00:23:26	206546	5c0004a72340e10001bfc3a0	4	1	practice_z	5	advance_on_keypress_ZEE	24	stimuli_distractor_diamondtriangles.svg	stimuli_target_rectangletriangles.svg	7	yes	57	0	404	0	0			0	0			1				0	
6.6.1	mac	2023-06-27	00:19:56	00:23:30	210570	5c0004a72340e10001bfc3a0	4	1	practice_z	5	practice_z	25	stimuli_distractor_diamondtriangles.svg	stimuli_distractor_diamondtriangles.svg	13	no	0	1	2000	0	0			0	0			1				0	
6.6.1	mac	2023-06-27	00:19:56	00:23:30	210570	5c0004a72340e10001bfc3a0	4	1	practice_z	5	advance_on_keypress_ZEE	26	stimuli_distractor_diamondtriangles.svg	stimuli_distractor_diamondtriangles.svg	13	no	57	0	386	0	0			0	0			1				0	
6.6.1	mac	2023-06-27	00:19:56	00:23:34	214588	5c0004a72340e10001bfc3a0	4	1	practice_z	5	practice_z	27	stimuli_distractor_trianglediamonds.svg	stimuli_distractor_trianglediamonds.svg	15	no	0	1	2000	0	0			0	0			1				0	
6.6.1	mac	2023-06-27	00:19:56	00:23:34	214588	5c0004a72340e10001bfc3a0	4	1	practice_z	5	advance_on_keypress_ZEE	28	stimuli_distractor_trianglediamonds.svg	stimuli_distractor_trianglediamonds.svg	15	no	57	0	261	0	0			0	0			1				0	
6.6.1	mac	2023-06-27	00:19:56	00:23:36	217276	5c0004a72340e10001bfc3a0	4	1	practice_z	5	practice_z	29	stimuli_target_squarediamonds.svg	stimuli_distractor_trianglediamonds.svg	5	yes	44	1	806	0	0			0	0			1				0	
6.6.1	mac	2023-06-27	00:19:56	00:23:36	217276	5c0004a72340e10001bfc3a0	4	1	practice_z	5	advance_on_keypress_ZEE	30	stimuli_target_squarediamonds.svg	stimuli_distractor_trianglediamonds.svg	5	yes	57	0	488	0	0			0	0			1				0	
6.6.1	mac	2023-06-27	00:19:56	00:23:40	220833	5c0004a72340e10001bfc3a0	4	1	practice_z	5	practice_z	31	stimuli_distractor_trianglediamonds.svg	stimuli_target_diamondrectangles.svg	12	yes	44	1	1445	0	0			0	0			1				0	
6.6.1	mac	2023-06-27	00:19:56	00:23:40	220833	5c0004a72340e10001bfc3a0	4	1	practice_z	5	advance_on_keypress_ZEE	32	stimuli_distractor_trianglediamonds.svg	stimuli_target_diamondrectangles.svg	12	yes	57	0	424	0	0			0	0			1				0	
6.6.1	mac	2023-06-27	00:19:56	00:23:46	227199	5c0004a72340e10001bfc3a0	4	1	main_z	7	main_z	1	stimuli_target_trianglesquares.svg	stimuli_distractor_diamondtriangles.svg	22	yes	44	1	862	0	0			0	0			1				0	
6.6.1	mac	2023-06-27	00:19:56	00:23:46	227199	5c0004a72340e10001bfc3a0	4	1	main_z	7	advance_on_keypress_ZEE	2	stimuli_target_trianglesquares.svg	stimuli_distractor_diamondtriangles.svg	22	yes	57	0	815	0	0			0	0			1				0	
6.6.1	mac	2023-06-27	00:19:56	00:23:50	230637	5c0004a72340e10001bfc3a0	4	1	main_z	7	main_z	3	stimuli_distractor_trianglediamonds.svg	stimuli_target_diamondsquares.svg	28	yes	0	0	2000	0	0			0	0			1				0	
6.6.1	mac	2023-06-27	00:19:56	00:23:50	230637	5c0004a72340e10001bfc3a0	4	1	main_z	7	advance_on_keypress_ZEE	4	stimuli_distractor_trianglediamonds.svg	stimuli_target_diamondsquares.svg	28	yes	57	0	547	0	0			0	0			1				0	
6.6.1	mac	2023-06-27	00:19:56	00:23:52	232900	5c0004a72340e10001bfc3a0	4	1	main_z	7	main_z	5	stimuli_target_trianglesquares.svg	stimuli_distractor_trianglediamonds.svg	18	yes	44	1	1080	0	0			0	0			1				0	
6.6.1	mac	2023-06-27	00:19:56	00:23:52	232900	5c0004a72340e10001bfc3a0	4	1	main_z	7	advance_on_keypress_ZEE	6	stimuli_target_trianglesquares.svg	stimuli_distractor_trianglediamonds.svg	18	yes	57	0	382	0	0			0	0			1				0	
6.6.1	mac	2023-06-27	00:19:56	00:23:55	235904	5c0004a72340e10001bfc3a0	4	1	main_z	7	main_z	7	stimuli_distractor_diamondtriangles.svg	stimuli_distractor_diamondtriangles.svg	39	no	0	1	2000	0	0			0	0			1				0	
6.6.1	mac	2023-06-27	00:19:56	00:23:55	235904	5c0004a72340e10001bfc3a0	4	1	main_z	7	advance_on_keypress_ZEE	8	stimuli_distractor_diamondtriangles.svg	stimuli_distractor_diamondtriangles.svg	39	no	57	0	376	0	0			0	0			1				0	
6.6.1	mac	2023-06-27	00:19:56	00:23:57	237615	5c0004a72340e10001bfc3a0	4	1	main_z	7	main_z	9	stimuli_distractor_diamondtriangles.svg	stimuli_target_rectanglediamonds.svg	14	yes	44	1	711	0	0			0	0			1				0	
6.6.1	mac	2023-06-27	00:19:56	00:23:57	237615	5c0004a72340e10001bfc3a0	4	1	main_z	7	advance_on_keypress_ZEE	10	stimuli_distractor_diamondtriangles.svg	stimuli_target_rectanglediamonds.svg	14	yes	57	0	438	0	0			0	0			1				0	
6.6.1	mac	2023-06-27	00:19:56	00:24:00	240670	5c0004a72340e10001bfc3a0	4	1	main_z	7	main_z	11	stimuli_distractor_diamondtriangles.svg	stimuli_distractor_diamondtriangles.svg	40	no	0	1	2000	0	0			0	0			1				0	
6.6.1	mac	2023-06-27	00:19:56	00:24:00	240670	5c0004a72340e10001bfc3a0	4	1	main_z	7	advance_on_keypress_ZEE	12	stimuli_distractor_diamondtriangles.svg	stimuli_distractor_diamondtriangles.svg	40	no	57	0	346	0	0			0	0			1				0	
6.6.1	mac	2023-06-27	00:19:56	00:24:01	242321	5c0004a72340e10001bfc3a0	4	1	main_z	7	main_z	13	stimuli_distractor_trianglediamonds.svg	stimuli_target_squarediamonds.svg	12	yes	44	1	667	0	0			0	0			1				0	
6.6.1	mac	2023-06-27	00:19:56	00:24:01	242321	5c0004a72340e10001bfc3a0	4	1	main_z	7	advance_on_keypress_ZEE	14	stimuli_distractor_trianglediamonds.svg	stimuli_target_squarediamonds.svg	12	yes	57	0	467	0	0			0	0			1				0	
6.6.1	mac	2023-06-27	00:19:56	00:24:03	244268	5c0004a72340e10001bfc3a0	4	1	main_z	7	main_z	15	stimuli_target_trianglerectangles.svg	stimuli_distractor_diamondtriangles.svg	21	yes	44	1	848	0	0			0	0			1				0	
6.6.1	mac	2023-06-27	00:19:56	00:24:03	244268	5c0004a72340e10001bfc3a0	4	1	main_z	7	advance_on_keypress_ZEE	16	stimuli_target_trianglerectangles.svg	stimuli_distractor_diamondtriangles.svg	21	yes	57	0	531	0	0			0	0			1				0	
6.6.1	mac	2023-06-27	00:19:56	00:24:06	246795	5c0004a72340e10001bfc3a0	4	1	main_z	7	main_z	17	stimuli_target_rectangletriangles.svg	stimuli_distractor_trianglediamonds.svg	1	yes	44	1	1357	0	0			0	0			1				0	
6.6.1	mac	2023-06-27	00:19:56	00:24:06	246795	5c0004a72340e10001bfc3a0	4	1	main_z	7	advance_on_keypress_ZEE	18	stimuli_target_rectangletriangles.svg	stimuli_distractor_trianglediamonds.svg	1	yes	57	0	408	0	0			0	0			1				0	
6.6.1	mac	2023-06-27	00:19:56	00:24:08	248633	5c0004a72340e10001bfc3a0	4	1	main_z	7	main_z	19	stimuli_target_rectanglediamonds.svg	stimuli_distractor_diamondtriangles.svg	6	yes	44	1	813	0	0			0	0			1				0	
6.6.1	mac	2023-06-27	00:19:56	00:24:08	248633	5c0004a72340e10001bfc3a0	4	1	main_z	7	advance_on_keypress_ZEE	20	stimuli_target_rectanglediamonds.svg	stimuli_distractor_diamondtriangles.svg	6	yes	57	0	510	0	0			0	0			1				0	
6.6.1	mac	2023-06-27	00:19:56	00:24:10	250930	5c0004a72340e10001bfc3a0	4	1	main_z	7	main_z	21	stimuli_target_diamondrectangles.svg	stimuli_distractor_diamondtriangles.svg	23	yes	44	1	1175	0	0			0	0			1				0	
6.6.1	mac	2023-06-27	00:19:56	00:24:10	250930	5c0004a72340e10001bfc3a0	4	1	main_z	7	advance_on_keypress_ZEE	22	stimuli_target_diamondrectangles.svg	stimuli_distractor_diamondtriangles.svg	23	yes	57	0	381	0	0			0	0			1				0	
6.6.1	mac	2023-06-27	00:19:56	00:24:12	252910	5c0004a72340e10001bfc3a0	4	1	main_z	7	main_z	23	stimuli_distractor_diamondtriangles.svg	stimuli_target_diamondsquares.svg	32	yes	44	1	972	0	0			0	0			1				0	
6.6.1	mac	2023-06-27	00:19:56	00:24:12	252910	5c0004a72340e10001bfc3a0	4	1	main_z	7	advance_on_keypress_ZEE	24	stimuli_distractor_diamondtriangles.svg	stimuli_target_diamondsquares.svg	32	yes	57	0	415	0	0			0	0			1				0	
6.6.1	mac	2023-06-27	00:19:56	00:24:15	255954	5c0004a72340e10001bfc3a0	4	1	main_z	7	main_z	25	stimuli_distractor_diamondtriangles.svg	stimuli_distractor_trianglediamonds.svg	37	no	0	1	2000	0	0			0	0			1				0	
6.6.1	mac	2023-06-27	00:19:56	00:24:15	255954	5c0004a72340e10001bfc3a0	4	1	main_z	7	advance_on_keypress_ZEE	26	stimuli_distractor_diamondtriangles.svg	stimuli_distractor_trianglediamonds.svg	37	no	57	0	402	0	0			0	0			1				0	
6.6.1	mac	2023-06-27	00:19:56	00:24:17	257972	5c0004a72340e10001bfc3a0	4	1	main_z	7	main_z	27	stimuli_target_trianglerectangles.svg	stimuli_distractor_trianglediamonds.svg	17	yes	44	1	985	0	0			0	0			1				0	
6.6.1	mac	2023-06-27	00:19:56	00:24:17	257972	5c0004a72340e10001bfc3a0	4	1	main_z	7	advance_on_keypress_ZEE	28	stimuli_target_trianglerectangles.svg	stimuli_distractor_trianglediamonds.svg	17	yes	57	0	345	0	0			0	0			1				0	
6.6.1	mac	2023-06-27	00:19:56	00:24:19	260014	5c0004a72340e10001bfc3a0	4	1	main_z	7	main_z	29	stimuli_distractor_trianglediamonds.svg	stimuli_target_squaretriangles.svg	11	yes	44	1	1077	0	0			0	0			1				0	
6.6.1	mac	2023-06-27	00:19:56	00:24:19	260014	5c0004a72340e10001bfc3a0	4	1	main_z	7	advance_on_keypress_ZEE	30	stimuli_distractor_trianglediamonds.svg	stimuli_target_squaretriangles.svg	11	yes	57	0	472	0	0			0	0			1				0	
6.6.1	mac	2023-06-27	00:19:56	00:24:21	261974	5c0004a72340e10001bfc3a0	4	1	main_z	7	main_z	31	stimuli_target_diamondsquares.svg	stimuli_distractor_diamondtriangles.svg	24	yes	44	1	871	0	0			0	0			1				0	
6.6.1	mac	2023-06-27	00:19:56	00:24:21	261974	5c0004a72340e10001bfc3a0	4	1	main_z	7	advance_on_keypress_ZEE	32	stimuli_target_diamondsquares.svg	stimuli_distractor_diamondtriangles.svg	24	yes	57	0	320	0	0			0	0			1				0	
6.6.1	mac	2023-06-27	00:19:56	00:24:23	263646	5c0004a72340e10001bfc3a0	4	1	main_z	7	main_z	33	stimuli_distractor_diamondtriangles.svg	stimuli_target_squarediamonds.svg	16	yes	44	1	726	0	0			0	0			1				0	
6.6.1	mac	2023-06-27	00:19:56	00:24:23	263646	5c0004a72340e10001bfc3a0	4	1	main_z	7	advance_on_keypress_ZEE	34	stimuli_distractor_diamondtriangles.svg	stimuli_target_squarediamonds.svg	16	yes	57	0	419	0	0			0	0			1				0	
6.6.1	mac	2023-06-27	00:19:56	00:24:25	265641	5c0004a72340e10001bfc3a0	4	1	main_z	7	main_z	35	stimuli_distractor_diamondtriangles.svg	stimuli_target_trianglesquares.svg	30	yes	44	1	954	0	0			0	0			1				0	
6.6.1	mac	2023-06-27	00:19:56	00:24:25	265641	5c0004a72340e10001bfc3a0	4	1	main_z	7	advance_on_keypress_ZEE	36	stimuli_distractor_diamondtriangles.svg	stimuli_target_trianglesquares.svg	30	yes	57	0	298	0	0			0	0			1				0	
6.6.1	mac	2023-06-27	00:19:56	00:24:26	267327	5c0004a72340e10001bfc3a0	4	1	main_z	7	main_z	37	stimuli_distractor_diamondtriangles.svg	stimuli_target_trianglerectangles.svg	29	yes	44	1	757	0	0			0	0			1				0	
6.6.1	mac	2023-06-27	00:19:56	00:24:26	267327	5c0004a72340e10001bfc3a0	4	1	main_z	7	advance_on_keypress_ZEE	38	stimuli_distractor_diamondtriangles.svg	stimuli_target_trianglerectangles.svg	29	yes	57	0	338	0	0			0	0			1				0	
6.6.1	mac	2023-06-27	00:19:56	00:24:29	270287	5c0004a72340e10001bfc3a0	4	1	main_z	7	main_z	39	stimuli_distractor_trianglediamonds.svg	stimuli_distractor_diamondtriangles.svg	36	no	0	1	2000	0	0			0	0			1				0	
6.6.1	mac	2023-06-27	00:19:56	00:24:29	270287	5c0004a72340e10001bfc3a0	4	1	main_z	7	advance_on_keypress_ZEE	40	stimuli_distractor_trianglediamonds.svg	stimuli_distractor_diamondtriangles.svg	36	no	57	0	443	0	0			0	0			1				0	
6.6.1	mac	2023-06-27	00:19:56	00:24:32	273354	5c0004a72340e10001bfc3a0	4	1	main_z	7	main_z	41	stimuli_distractor_trianglediamonds.svg	stimuli_distractor_diamondtriangles.svg	35	no	0	1	2000	0	0			0	0			1				0	
6.6.1	mac	2023-06-27	00:19:56	00:24:32	273354	5c0004a72340e10001bfc3a0	4	1	main_z	7	advance_on_keypress_ZEE	42	stimuli_distractor_trianglediamonds.svg	stimuli_distractor_diamondtriangles.svg	35	no	57	0	442	0	0			0	0			1				0	
6.6.1	mac	2023-06-27	00:19:56	00:24:34	275100	5c0004a72340e10001bfc3a0	4	1	main_z	7	main_z	43	stimuli_target_rectanglediamonds.svg	stimuli_distractor_trianglediamonds.svg	2	yes	44	1	679	0	0			0	0			1				0	
6.6.1	mac	2023-06-27	00:19:56	00:24:34	275100	5c0004a72340e10001bfc3a0	4	1	main_z	7	advance_on_keypress_ZEE	44	stimuli_target_rectanglediamonds.svg	stimuli_distractor_trianglediamonds.svg	2	yes	57	0	401	0	0			0	0			1				0	
6.6.1	mac	2023-06-27	00:19:56	00:24:36	276732	5c0004a72340e10001bfc3a0	4	1	main_z	7	main_z	45	stimuli_target_squarediamonds.svg	stimuli_distractor_diamondtriangles.svg	8	yes	44	1	611	0	0			0	0			1				0	
6.6.1	mac	2023-06-27	00:19:56	00:24:36	276732	5c0004a72340e10001bfc3a0	4	1	main_z	7	advance_on_keypress_ZEE	46	stimuli_target_squarediamonds.svg	stimuli_distractor_diamondtriangles.svg	8	yes	57	0	455	0	0			0	0			1				0	
6.6.1	mac	2023-06-27	00:19:56	00:24:38	279183	5c0004a72340e10001bfc3a0	4	1	main_z	7	main_z	47	stimuli_distractor_trianglediamonds.svg	stimuli_target_rectanglediamonds.svg	10	yes	44	1	1379	0	0			0	0			1				0	
6.6.1	mac	2023-06-27	00:19:56	00:24:38	279183	5c0004a72340e10001bfc3a0	4	1	main_z	7	advance_on_keypress_ZEE	48	stimuli_distractor_trianglediamonds.svg	stimuli_target_rectanglediamonds.svg	10	yes	57	0	460	0	0			0	0			1				0	
6.6.1	mac	2023-06-27	00:19:56	00:24:41	282254	5c0004a72340e10001bfc3a0	4	1	main_z	7	main_z	49	stimuli_distractor_diamondtriangles.svg	stimuli_distractor_trianglediamonds.svg	38	no	0	1	2000	0	0			0	0			1				0	
6.6.1	mac	2023-06-27	00:19:56	00:24:41	282254	5c0004a72340e10001bfc3a0	4	1	main_z	7	advance_on_keypress_ZEE	50	stimuli_distractor_diamondtriangles.svg	stimuli_distractor_trianglediamonds.svg	38	no	57	0	398	0	0			0	0			1				0	
6.6.1	mac	2023-06-27	00:19:56	00:24:43	284090	5c0004a72340e10001bfc3a0	4	1	main_z	7	main_z	51	stimuli_target_diamondsquares.svg	stimuli_distractor_trianglediamonds.svg	20	yes	44	1	803	0	0			0	0			1				0	
6.6.1	mac	2023-06-27	00:19:56	00:24:43	284090	5c0004a72340e10001bfc3a0	4	1	main_z	7	advance_on_keypress_ZEE	52	stimuli_target_diamondsquares.svg	stimuli_distractor_trianglediamonds.svg	20	yes	57	0	432	0	0			0	0			1				0	
6.6.1	mac	2023-06-27	00:19:56	00:24:45	285934	5c0004a72340e10001bfc3a0	4	1	main_z	7	main_z	53	stimuli_distractor_trianglediamonds.svg	stimuli_target_diamondrectangles.svg	27	yes	44	1	779	0	0			0	0			1				0	
6.6.1	mac	2023-06-27	00:19:56	00:24:45	285934	5c0004a72340e10001bfc3a0	4	1	main_z	7	advance_on_keypress_ZEE	54	stimuli_distractor_trianglediamonds.svg	stimuli_target_diamondrectangles.svg	27	yes	57	0	406	0	0			0	0			1				0	
6.6.1	mac	2023-06-27	00:19:56	00:24:47	287741	5c0004a72340e10001bfc3a0	4	1	main_z	7	main_z	55	stimuli_distractor_trianglediamonds.svg	stimuli_target_trianglesquares.svg	26	yes	44	1	771	0	0			0	0			1				0	
6.6.1	mac	2023-06-27	00:19:56	00:24:47	287741	5c0004a72340e10001bfc3a0	4	1	main_z	7	advance_on_keypress_ZEE	56	stimuli_distractor_trianglediamonds.svg	stimuli_target_trianglesquares.svg	26	yes	57	0	426	0	0			0	0			1				0	
6.6.1	mac	2023-06-27	00:19:56	00:24:49	289550	5c0004a72340e10001bfc3a0	4	1	main_z	7	main_z	57	stimuli_target_squaretriangles.svg	stimuli_distractor_trianglediamonds.svg	3	yes	44	1	763	0	0			0	0			1				0	
6.6.1	mac	2023-06-27	00:19:56	00:24:49	289550	5c0004a72340e10001bfc3a0	4	1	main_z	7	advance_on_keypress_ZEE	58	stimuli_target_squaretriangles.svg	stimuli_distractor_trianglediamonds.svg	3	yes	57	0	407	0	0			0	0			1				0	
6.6.1	mac	2023-06-27	00:19:56	00:24:50	291372	5c0004a72340e10001bfc3a0	4	1	main_z	7	main_z	59	stimuli_distractor_trianglediamonds.svg	stimuli_target_trianglerectangles.svg	25	yes	44	1	785	0	0			0	0			1				0	
6.6.1	mac	2023-06-27	00:19:56	00:24:50	291372	5c0004a72340e10001bfc3a0	4	1	main_z	7	advance_on_keypress_ZEE	60	stimuli_distractor_trianglediamonds.svg	stimuli_target_trianglerectangles.svg	25	yes	57	0	370	0	0			0	0			1				0	
6.6.1	mac	2023-06-27	00:19:56	00:24:52	293000	5c0004a72340e10001bfc3a0	4	1	main_z	7	main_z	61	stimuli_target_diamondrectangles.svg	stimuli_distractor_trianglediamonds.svg	19	yes	44	1	629	0	0			0	0			1				0	
6.6.1	mac	2023-06-27	00:19:56	00:24:52	293000	5c0004a72340e10001bfc3a0	4	1	main_z	7	advance_on_keypress_ZEE	62	stimuli_target_diamondrectangles.svg	stimuli_distractor_trianglediamonds.svg	19	yes	57	0	482	0	0			0	0			1				0	
6.6.1	mac	2023-06-27	00:19:56	00:24:54	294963	5c0004a72340e10001bfc3a0	4	1	main_z	7	main_z	63	stimuli_distractor_diamondtriangles.svg	stimuli_target_squaretriangles.svg	15	yes	44	1	860	0	0			0	0			1				0	
6.6.1	mac	2023-06-27	00:19:56	00:24:54	294963	5c0004a72340e10001bfc3a0	4	1	main_z	7	advance_on_keypress_ZEE	64	stimuli_distractor_diamondtriangles.svg	stimuli_target_squaretriangles.svg	15	yes	57	0	382	0	0			0	0			1				0	
6.6.1	mac	2023-06-27	00:19:56	00:24:56	296713	5c0004a72340e10001bfc3a0	4	1	main_z	7	main_z	65	stimuli_target_squarediamonds.svg	stimuli_distractor_trianglediamonds.svg	4	yes	44	1	743	0	0			0	0			1				0	
6.6.1	mac	2023-06-27	00:19:56	00:24:56	296713	5c0004a72340e10001bfc3a0	4	1	main_z	7	advance_on_keypress_ZEE	66	stimuli_target_squarediamonds.svg	stimuli_distractor_trianglediamonds.svg	4	yes	57	0	412	0	0			0	0			1				0	
6.6.1	mac	2023-06-27	00:19:56	00:24:58	298618	5c0004a72340e10001bfc3a0	4	1	main_z	7	main_z	67	stimuli_target_squaretriangles.svg	stimuli_distractor_diamondtriangles.svg	7	yes	44	1	881	0	0			0	0			1				0	
6.6.1	mac	2023-06-27	00:19:56	00:24:58	298618	5c0004a72340e10001bfc3a0	4	1	main_z	7	advance_on_keypress_ZEE	68	stimuli_target_squaretriangles.svg	stimuli_distractor_diamondtriangles.svg	7	yes	57	0	382	0	0			0	0			1				0	
6.6.1	mac	2023-06-27	00:19:56	00:24:59	300434	5c0004a72340e10001bfc3a0	4	1	main_z	7	main_z	69	stimuli_target_rectangletriangles.svg	stimuli_distractor_diamondtriangles.svg	5	yes	44	1	797	0	0			0	0			1				0	
6.6.1	mac	2023-06-27	00:19:56	00:24:59	300434	5c0004a72340e10001bfc3a0	4	1	main_z	7	advance_on_keypress_ZEE	70	stimuli_target_rectangletriangles.svg	stimuli_distractor_diamondtriangles.svg	5	yes	57	0	473	0	0			0	0			1				0	
6.6.1	mac	2023-06-27	00:19:56	00:25:02	303537	5c0004a72340e10001bfc3a0	4	1	main_z	7	main_z	71	stimuli_distractor_trianglediamonds.svg	stimuli_distractor_trianglediamonds.svg	34	no	0	1	2000	0	0			0	0			1				0	
6.6.1	mac	2023-06-27	00:19:56	00:25:02	303537	5c0004a72340e10001bfc3a0	4	1	main_z	7	advance_on_keypress_ZEE	72	stimuli_distractor_trianglediamonds.svg	stimuli_distractor_trianglediamonds.svg	34	no	57	0	924	0	0			0	0			1				0	
6.6.1	mac	2023-06-27	00:19:56	00:25:05	305970	5c0004a72340e10001bfc3a0	4	1	main_z	7	main_z	73	stimuli_distractor_diamondtriangles.svg	stimuli_target_diamondrectangles.svg	31	yes	44	1	882	0	0			0	0			1				0	
6.6.1	mac	2023-06-27	00:19:56	00:25:05	305970	5c0004a72340e10001bfc3a0	4	1	main_z	7	advance_on_keypress_ZEE	74	stimuli_distractor_diamondtriangles.svg	stimuli_target_diamondrectangles.svg	31	yes	57	0	551	0	0			0	0			1				0	
6.6.1	mac	2023-06-27	00:19:56	00:25:08	309154	5c0004a72340e10001bfc3a0	4	1	main_z	7	main_z	75	stimuli_distractor_trianglediamonds.svg	stimuli_distractor_trianglediamonds.svg	33	no	0	1	2000	0	0			0	0			1				0	
6.6.1	mac	2023-06-27	00:19:56	00:25:08	309154	5c0004a72340e10001bfc3a0	4	1	main_z	7	advance_on_keypress_ZEE	76	stimuli_distractor_trianglediamonds.svg	stimuli_distractor_trianglediamonds.svg	33	no	57	0	358	0	0			0	0			1				0	
6.6.1	mac	2023-06-27	00:19:56	00:25:10	310964	5c0004a72340e10001bfc3a0	4	1	main_z	7	main_z	77	stimuli_distractor_diamondtriangles.svg	stimuli_target_rectangletriangles.svg	13	yes	44	1	826	0	0			0	0			1				0	
6.6.1	mac	2023-06-27	00:19:56	00:25:10	310964	5c0004a72340e10001bfc3a0	4	1	main_z	7	advance_on_keypress_ZEE	78	stimuli_distractor_diamondtriangles.svg	stimuli_target_rectangletriangles.svg	13	yes	57	0	415	0	0			0	0			1				0	
6.6.1	mac	2023-06-27	00:19:56	00:25:12	312731	5c0004a72340e10001bfc3a0	4	1	main_z	7	main_z	79	stimuli_distractor_trianglediamonds.svg	stimuli_target_rectangletriangles.svg	9	yes	44	1	727	0	0			0	0			1				0	
6.6.1	mac	2023-06-27	00:19:56	00:25:12	312731	5c0004a72340e10001bfc3a0	4	1	main_z	7	advance_on_keypress_ZEE	80	stimuli_distractor_trianglediamonds.svg	stimuli_target_rectangletriangles.svg	9	yes	57	0	361	0	0			0	0			1				0	
6.6.1	mac	2023-06-27	00:19:56	00:25:13	314441	5c0004a72340e10001bfc3a0	4	1	main_z	7	main_z	81	stimuli_distractor_trianglediamonds.svg	stimuli_target_diamondsquares.svg	28	yes	44	1	738	0	0			0	0			1				0	
6.6.1	mac	2023-06-27	00:19:56	00:25:13	314441	5c0004a72340e10001bfc3a0	4	1	main_z	7	advance_on_keypress_ZEE	82	stimuli_distractor_trianglediamonds.svg	stimuli_target_diamondsquares.svg	28	yes	57	0	340	0	0			0	0			1				0	
6.6.1	mac	2023-06-27	00:19:56	00:25:15	316128	5c0004a72340e10001bfc3a0	4	1	main_z	7	main_z	83	stimuli_distractor_diamondtriangles.svg	stimuli_target_trianglerectangles.svg	29	yes	44	1	725	0	0			0	0			1				0	
6.6.1	mac	2023-06-27	00:19:56	00:25:15	316128	5c0004a72340e10001bfc3a0	4	1	main_z	7	advance_on_keypress_ZEE	84	stimuli_distractor_diamondtriangles.svg	stimuli_target_trianglerectangles.svg	29	yes	57	0	366	0	0			0	0			1				0	
6.6.1	mac	2023-06-27	00:19:56	00:25:17	317900	5c0004a72340e10001bfc3a0	4	1	main_z	7	main_z	85	stimuli_target_trianglesquares.svg	stimuli_distractor_trianglediamonds.svg	18	yes	44	1	779	0	0			0	0			1				0	
6.6.1	mac	2023-06-27	00:19:56	00:25:17	317900	5c0004a72340e10001bfc3a0	4	1	main_z	7	advance_on_keypress_ZEE	86	stimuli_target_trianglesquares.svg	stimuli_distractor_trianglediamonds.svg	18	yes	57	0	377	0	0			0	0			1				0	
6.6.1	mac	2023-06-27	00:19:56	00:25:19	320055	5c0004a72340e10001bfc3a0	4	1	main_z	7	main_z	87	stimuli_distractor_trianglediamonds.svg	stimuli_target_squaretriangles.svg	11	yes	44	1	1168	0	0			0	0			1				0	
6.6.1	mac	2023-06-27	00:19:56	00:25:19	320055	5c0004a72340e10001bfc3a0	4	1	main_z	7	advance_on_keypress_ZEE	88	stimuli_distractor_trianglediamonds.svg	stimuli_target_squaretriangles.svg	11	yes	57	0	298	0	0			0	0			1				0	
6.6.1	mac	2023-06-27	00:19:56	00:25:21	322246	5c0004a72340e10001bfc3a0	4	1	main_z	7	main_z	89	stimuli_target_trianglerectangles.svg	stimuli_distractor_diamondtriangles.svg	21	yes	44	1	1260	0	0			0	0			1				0	
6.6.1	mac	2023-06-27	00:19:56	00:25:21	322246	5c0004a72340e10001bfc3a0	4	1	main_z	7	advance_on_keypress_ZEE	90	stimuli_target_trianglerectangles.svg	stimuli_distractor_diamondtriangles.svg	21	yes	57	0	231	0	0			0	0			1				0	
6.6.1	mac	2023-06-27	00:19:56	00:25:23	324052	5c0004a72340e10001bfc3a0	4	1	main_z	7	main_z	91	stimuli_distractor_diamondtriangles.svg	stimuli_target_diamondrectangles.svg	31	yes	44	1	949	0	0			0	0			1				0	
6.6.1	mac	2023-06-27	00:19:56	00:25:23	324052	5c0004a72340e10001bfc3a0	4	1	main_z	7	advance_on_keypress_ZEE	92	stimuli_distractor_diamondtriangles.svg	stimuli_target_diamondrectangles.svg	31	yes	57	0	340	0	0			0	0			1				0	
6.6.1	mac	2023-06-27	00:19:56	00:25:25	325995	5c0004a72340e10001bfc3a0	4	1	main_z	7	main_z	93	stimuli_target_squaretriangles.svg	stimuli_distractor_diamondtriangles.svg	7	yes	44	1	974	0	0			0	0			1				0	
6.6.1	mac	2023-06-27	00:19:56	00:25:25	325995	5c0004a72340e10001bfc3a0	4	1	main_z	7	advance_on_keypress_ZEE	94	stimuli_target_squaretriangles.svg	stimuli_distractor_diamondtriangles.svg	7	yes	57	0	386	0	0			0	0			1				0	
6.6.1	mac	2023-06-27	00:19:56	00:25:27	327770	5c0004a72340e10001bfc3a0	4	1	main_z	7	main_z	95	stimuli_distractor_trianglediamonds.svg	stimuli_target_trianglesquares.svg	26	yes	44	1	766	0	0			0	0			1				0	
6.6.1	mac	2023-06-27	00:19:56	00:25:27	327770	5c0004a72340e10001bfc3a0	4	1	main_z	7	advance_on_keypress_ZEE	96	stimuli_distractor_trianglediamonds.svg	stimuli_target_trianglesquares.svg	26	yes	57	0	323	0	0			0	0			1				0	
6.6.1	mac	2023-06-27	00:19:56	00:25:29	329662	5c0004a72340e10001bfc3a0	4	1	main_z	7	main_z	97	stimuli_distractor_diamondtriangles.svg	stimuli_target_rectangletriangles.svg	13	yes	44	1	942	0	0			0	0			1				0	
6.6.1	mac	2023-06-27	00:19:56	00:25:29	329662	5c0004a72340e10001bfc3a0	4	1	main_z	7	advance_on_keypress_ZEE	98	stimuli_distractor_diamondtriangles.svg	stimuli_target_rectangletriangles.svg	13	yes	57	0	320	0	0			0	0			1				0	
6.6.1	mac	2023-06-27	00:19:56	00:25:32	332604	5c0004a72340e10001bfc3a0	4	1	main_z	7	main_z	99	stimuli_distractor_diamondtriangles.svg	stimuli_distractor_trianglediamonds.svg	37	no	0	1	2000	0	0			0	0			1				0	
6.6.1	mac	2023-06-27	00:19:56	00:25:32	332604	5c0004a72340e10001bfc3a0	4	1	main_z	7	advance_on_keypress_ZEE	100	stimuli_distractor_diamondtriangles.svg	stimuli_distractor_trianglediamonds.svg	37	no	57	0	272	0	0			0	0			1				0	
6.6.1	mac	2023-06-27	00:19:56	00:25:34	335157	5c0004a72340e10001bfc3a0	4	1	main_z	7	main_z	101	stimuli_distractor_diamondtriangles.svg	stimuli_distractor_trianglediamonds.svg	38	no	44	0	1653	0	0			0	0			1				0	
6.6.1	mac	2023-06-27	00:19:56	00:25:34	335157	5c0004a72340e10001bfc3a0	4	1	main_z	7	advance_on_keypress_ZEE	102	stimuli_distractor_diamondtriangles.svg	stimuli_distractor_trianglediamonds.svg	38	no	57	0	307	0	0			0	0			1				0	
6.6.1	mac	2023-06-27	00:19:56	00:25:37	337926	5c0004a72340e10001bfc3a0	4	1	main_z	7	main_z	103	stimuli_target_diamondrectangles.svg	stimuli_distractor_trianglediamonds.svg	19	yes	44	1	1838	0	0			0	0			1				0	
6.6.1	mac	2023-06-27	00:19:56	00:25:37	337926	5c0004a72340e10001bfc3a0	4	1	main_z	7	advance_on_keypress_ZEE	104	stimuli_target_diamondrectangles.svg	stimuli_distractor_trianglediamonds.svg	19	yes	57	0	265	0	0			0	0			1				0	
6.6.1	mac	2023-06-27	00:19:56	00:25:39	339684	5c0004a72340e10001bfc3a0	4	1	main_z	7	main_z	105	stimuli_target_trianglerectangles.svg	stimuli_distractor_trianglediamonds.svg	17	yes	44	1	863	0	0			0	0			1				0	
6.6.1	mac	2023-06-27	00:19:56	00:25:39	339684	5c0004a72340e10001bfc3a0	4	1	main_z	7	advance_on_keypress_ZEE	106	stimuli_target_trianglerectangles.svg	stimuli_distractor_trianglediamonds.svg	17	yes	57	0	316	0	0			0	0			1				0	
6.6.1	mac	2023-06-27	00:19:56	00:25:40	341469	5c0004a72340e10001bfc3a0	4	1	main_z	7	main_z	107	stimuli_target_diamondsquares.svg	stimuli_distractor_diamondtriangles.svg	24	yes	44	1	832	0	0			0	0			1				0	
6.6.1	mac	2023-06-27	00:19:56	00:25:40	341469	5c0004a72340e10001bfc3a0	4	1	main_z	7	advance_on_keypress_ZEE	108	stimuli_target_diamondsquares.svg	stimuli_distractor_diamondtriangles.svg	24	yes	57	0	352	0	0			0	0			1				0	
6.6.1	mac	2023-06-27	00:19:56	00:25:42	343319	5c0004a72340e10001bfc3a0	4	1	main_z	7	main_z	109	stimuli_distractor_diamondtriangles.svg	stimuli_target_diamondsquares.svg	32	yes	44	1	865	0	0			0	0			1				0	
6.6.1	mac	2023-06-27	00:19:56	00:25:42	343319	5c0004a72340e10001bfc3a0	4	1	main_z	7	advance_on_keypress_ZEE	110	stimuli_distractor_diamondtriangles.svg	stimuli_target_diamondsquares.svg	32	yes	57	0	407	0	0			0	0			1				0	
6.6.1	mac	2023-06-27	00:19:56	00:25:44	345273	5c0004a72340e10001bfc3a0	4	1	main_z	7	main_z	111	stimuli_target_rectanglediamonds.svg	stimuli_distractor_diamondtriangles.svg	6	yes	44	1	919	0	0			0	0			1				0	
6.6.1	mac	2023-06-27	00:19:56	00:25:44	345273	5c0004a72340e10001bfc3a0	4	1	main_z	7	advance_on_keypress_ZEE	112	stimuli_target_rectanglediamonds.svg	stimuli_distractor_diamondtriangles.svg	6	yes	57	0	293	0	0			0	0			1				0	
6.6.1	mac	2023-06-27	00:19:56	00:25:47	348187	5c0004a72340e10001bfc3a0	4	1	main_z	7	main_z	113	stimuli_distractor_trianglediamonds.svg	stimuli_distractor_trianglediamonds.svg	34	no	0	1	2000	0	0			0	0			1				0	
6.6.1	mac	2023-06-27	00:19:56	00:25:47	348187	5c0004a72340e10001bfc3a0	4	1	main_z	7	advance_on_keypress_ZEE	114	stimuli_distractor_trianglediamonds.svg	stimuli_distractor_trianglediamonds.svg	34	no	57	0	242	0	0			0	0			1				0	
6.6.1	mac	2023-06-27	00:19:56	00:25:49	349698	5c0004a72340e10001bfc3a0	4	1	main_z	7	main_z	115	stimuli_target_rectanglediamonds.svg	stimuli_distractor_trianglediamonds.svg	2	yes	44	1	643	0	0			0	0			1				0	
6.6.1	mac	2023-06-27	00:19:56	00:25:49	349698	5c0004a72340e10001bfc3a0	4	1	main_z	7	advance_on_keypress_ZEE	116	stimuli_target_rectanglediamonds.svg	stimuli_distractor_trianglediamonds.svg	2	yes	57	0	673	0	0			0	0			1				0	
6.6.1	mac	2023-06-27	00:19:56	00:25:51	351580	5c0004a72340e10001bfc3a0	4	1	main_z	7	main_z	117	stimuli_distractor_trianglediamonds.svg	stimuli_target_rectangletriangles.svg	9	yes	44	1	592	0	0			0	0			1				0	
6.6.1	mac	2023-06-27	00:19:56	00:25:51	351580	5c0004a72340e10001bfc3a0	4	1	main_z	7	advance_on_keypress_ZEE	118	stimuli_distractor_trianglediamonds.svg	stimuli_target_rectangletriangles.svg	9	yes	57	0	461	0	0			0	0			1				0	
6.6.1	mac	2023-06-27	00:19:56	00:25:52	353170	5c0004a72340e10001bfc3a0	4	1	main_z	7	main_z	119	stimuli_distractor_trianglediamonds.svg	stimuli_target_rectanglediamonds.svg	10	yes	44	1	500	0	0			0	0			1				0	
6.6.1	mac	2023-06-27	00:19:56	00:25:52	353170	5c0004a72340e10001bfc3a0	4	1	main_z	7	advance_on_keypress_ZEE	120	stimuli_distractor_trianglediamonds.svg	stimuli_target_rectanglediamonds.svg	10	yes	57	0	421	0	0			0	0			1				0	
6.6.1	mac	2023-06-27	00:19:56	00:25:54	354841	5c0004a72340e10001bfc3a0	4	1	main_z	7	main_z	121	stimuli_distractor_trianglediamonds.svg	stimuli_target_squarediamonds.svg	12	yes	44	1	621	0	0			0	0			1				0	
6.6.1	mac	2023-06-27	00:19:56	00:25:54	354841	5c0004a72340e10001bfc3a0	4	1	main_z	7	advance_on_keypress_ZEE	122	stimuli_distractor_trianglediamonds.svg	stimuli_target_squarediamonds.svg	12	yes	57	0	338	0	0			0	0			1				0	
6.6.1	mac	2023-06-27	00:19:56	00:25:56	356692	5c0004a72340e10001bfc3a0	4	1	main_z	7	main_z	123	stimuli_target_diamondrectangles.svg	stimuli_distractor_diamondtriangles.svg	23	yes	44	1	888	0	0			0	0			1				0	
6.6.1	mac	2023-06-27	00:19:56	00:25:56	356692	5c0004a72340e10001bfc3a0	4	1	main_z	7	advance_on_keypress_ZEE	124	stimuli_target_diamondrectangles.svg	stimuli_distractor_diamondtriangles.svg	23	yes	57	0	208	0	0			0	0			1				0	
6.6.1	mac	2023-06-27	00:19:56	00:25:57	358265	5c0004a72340e10001bfc3a0	4	1	main_z	7	main_z	125	stimuli_target_squaretriangles.svg	stimuli_distractor_trianglediamonds.svg	3	yes	44	1	745	0	0			0	0			1				0	
6.6.1	mac	2023-06-27	00:19:56	00:25:57	358265	5c0004a72340e10001bfc3a0	4	1	main_z	7	advance_on_keypress_ZEE	126	stimuli_target_squaretriangles.svg	stimuli_distractor_trianglediamonds.svg	3	yes	57	0	389	0	0			0	0			1				0	
6.6.1	mac	2023-06-27	00:19:56	00:25:59	359923	5c0004a72340e10001bfc3a0	4	1	main_z	7	main_z	127	stimuli_distractor_diamondtriangles.svg	stimuli_target_trianglesquares.svg	30	yes	44	1	653	0	0			0	0			1				0	
6.6.1	mac	2023-06-27	00:19:56	00:25:59	359923	5c0004a72340e10001bfc3a0	4	1	main_z	7	advance_on_keypress_ZEE	128	stimuli_distractor_diamondtriangles.svg	stimuli_target_trianglesquares.svg	30	yes	57	0	385	0	0			0	0			1				0	
6.6.1	mac	2023-06-27	00:19:56	00:26:01	361665	5c0004a72340e10001bfc3a0	4	1	main_z	7	main_z	129	stimuli_target_squarediamonds.svg	stimuli_distractor_trianglediamonds.svg	4	yes	44	1	728	0	0			0	0			1				0	
6.6.1	mac	2023-06-27	00:19:56	00:26:01	361665	5c0004a72340e10001bfc3a0	4	1	main_z	7	advance_on_keypress_ZEE	130	stimuli_target_squarediamonds.svg	stimuli_distractor_trianglediamonds.svg	4	yes	57	0	402	0	0			0	0			1				0	
6.6.1	mac	2023-06-27	00:19:56	00:26:02	363387	5c0004a72340e10001bfc3a0	4	1	main_z	7	main_z	131	stimuli_distractor_diamondtriangles.svg	stimuli_target_squarediamonds.svg	16	yes	44	1	700	0	0			0	0			1				0	
6.6.1	mac	2023-06-27	00:19:56	00:26:02	363387	5c0004a72340e10001bfc3a0	4	1	main_z	7	advance_on_keypress_ZEE	132	stimuli_distractor_diamondtriangles.svg	stimuli_target_squarediamonds.svg	16	yes	57	0	379	0	0			0	0			1				0	
6.6.1	mac	2023-06-27	00:19:56	00:26:04	365003	5c0004a72340e10001bfc3a0	4	1	main_z	7	main_z	133	stimuli_target_rectangletriangles.svg	stimuli_distractor_trianglediamonds.svg	1	yes	44	1	616	0	0			0	0			1				0	
6.6.1	mac	2023-06-27	00:19:56	00:26:04	365003	5c0004a72340e10001bfc3a0	4	1	main_z	7	advance_on_keypress_ZEE	134	stimuli_target_rectangletriangles.svg	stimuli_distractor_trianglediamonds.svg	1	yes	57	0	372	0	0			0	0			1				0	
6.6.1	mac	2023-06-27	00:19:56	00:26:07	368004	5c0004a72340e10001bfc3a0	4	1	main_z	7	main_z	135	stimuli_distractor_trianglediamonds.svg	stimuli_distractor_diamondtriangles.svg	35	no	0	1	2000	0	0			0	0			1				0	
6.6.1	mac	2023-06-27	00:19:56	00:26:07	368004	5c0004a72340e10001bfc3a0	4	1	main_z	7	advance_on_keypress_ZEE	136	stimuli_distractor_trianglediamonds.svg	stimuli_distractor_diamondtriangles.svg	35	no	57	0	267	0	0			0	0			1				0	
6.6.1	mac	2023-06-27	00:19:56	00:26:09	369605	5c0004a72340e10001bfc3a0	4	1	main_z	7	main_z	137	stimuli_distractor_trianglediamonds.svg	stimuli_target_diamondrectangles.svg	27	yes	44	1	702	0	0			0	0			1				0	
6.6.1	mac	2023-06-27	00:19:56	00:26:09	369605	5c0004a72340e10001bfc3a0	4	1	main_z	7	advance_on_keypress_ZEE	138	stimuli_distractor_trianglediamonds.svg	stimuli_target_diamondrectangles.svg	27	yes	57	0	330	0	0			0	0			1				0	
6.6.1	mac	2023-06-27	00:19:56	00:26:12	372554	5c0004a72340e10001bfc3a0	4	1	main_z	7	main_z	139	stimuli_distractor_trianglediamonds.svg	stimuli_distractor_diamondtriangles.svg	36	no	0	1	2000	0	0			0	0			1				0	
6.6.1	mac	2023-06-27	00:19:56	00:26:12	372554	5c0004a72340e10001bfc3a0	4	1	main_z	7	advance_on_keypress_ZEE	140	stimuli_distractor_trianglediamonds.svg	stimuli_distractor_diamondtriangles.svg	36	no	57	0	372	0	0			0	0			1				0	
6.6.1	mac	2023-06-27	00:19:56	00:26:15	375554	5c0004a72340e10001bfc3a0	4	1	main_z	7	main_z	141	stimuli_distractor_diamondtriangles.svg	stimuli_distractor_diamondtriangles.svg	40	no	0	1	2000	0	0			0	0			1				0	
6.6.1	mac	2023-06-27	00:19:56	00:26:15	375554	5c0004a72340e10001bfc3a0	4	1	main_z	7	advance_on_keypress_ZEE	142	stimuli_distractor_diamondtriangles.svg	stimuli_distractor_diamondtriangles.svg	40	no	57	0	275	0	0			0	0			1				0	
6.6.1	mac	2023-06-27	00:19:56	00:26:16	376951	5c0004a72340e10001bfc3a0	4	1	main_z	7	main_z	143	stimuli_target_rectangletriangles.svg	stimuli_distractor_diamondtriangles.svg	5	yes	44	1	498	0	0			0	0			1				0	
6.6.1	mac	2023-06-27	00:19:56	00:26:16	376951	5c0004a72340e10001bfc3a0	4	1	main_z	7	advance_on_keypress_ZEE	144	stimuli_target_rectangletriangles.svg	stimuli_distractor_diamondtriangles.svg	5	yes	57	0	330	0	0			0	0			1				0	
6.6.1	mac	2023-06-27	00:19:56	00:26:19	379920	5c0004a72340e10001bfc3a0	4	1	main_z	7	main_z	145	stimuli_distractor_diamondtriangles.svg	stimuli_distractor_diamondtriangles.svg	39	no	0	1	2000	0	0			0	0			1				0	
6.6.1	mac	2023-06-27	00:19:56	00:26:19	379920	5c0004a72340e10001bfc3a0	4	1	main_z	7	advance_on_keypress_ZEE	146	stimuli_distractor_diamondtriangles.svg	stimuli_distractor_diamondtriangles.svg	39	no	57	0	236	0	0			0	0			1				0	
6.6.1	mac	2023-06-27	00:19:56	00:26:22	382649	5c0004a72340e10001bfc3a0	4	1	main_z	7	main_z	147	stimuli_distractor_trianglediamonds.svg	stimuli_distractor_trianglediamonds.svg	33	no	44	0	1861	0	0			0	0			1				0	
6.6.1	mac	2023-06-27	00:19:56	00:26:22	382649	5c0004a72340e10001bfc3a0	4	1	main_z	7	advance_on_keypress_ZEE	148	stimuli_distractor_trianglediamonds.svg	stimuli_distractor_trianglediamonds.svg	33	no	57	0	432	0	0			0	0			1				0	
6.6.1	mac	2023-06-27	00:19:56	00:26:23	384398	5c0004a72340e10001bfc3a0	4	1	main_z	7	main_z	149	stimuli_target_trianglesquares.svg	stimuli_distractor_diamondtriangles.svg	22	yes	44	1	695	0	0			0	0			1				0	
6.6.1	mac	2023-06-27	00:19:56	00:26:23	384398	5c0004a72340e10001bfc3a0	4	1	main_z	7	advance_on_keypress_ZEE	150	stimuli_target_trianglesquares.svg	stimuli_distractor_diamondtriangles.svg	22	yes	57	0	316	0	0			0	0			1				0	
6.6.1	mac	2023-06-27	00:19:56	00:26:26	387339	5c0004a72340e10001bfc3a0	4	1	main_z	7	main_z	151	stimuli_target_squarediamonds.svg	stimuli_distractor_diamondtriangles.svg	8	yes	0	0	2000	0	0			0	0			1				0	
6.6.1	mac	2023-06-27	00:19:56	00:26:26	387339	5c0004a72340e10001bfc3a0	4	1	main_z	7	advance_on_keypress_ZEE	152	stimuli_target_squarediamonds.svg	stimuli_distractor_diamondtriangles.svg	8	yes	57	0	571	0	0			0	0			1				0	
6.6.1	mac	2023-06-27	00:19:56	00:26:28	389519	5c0004a72340e10001bfc3a0	4	1	main_z	7	main_z	153	stimuli_distractor_trianglediamonds.svg	stimuli_target_trianglerectangles.svg	25	yes	44	1	981	0	0			0	0			1				0	
6.6.1	mac	2023-06-27	00:19:56	00:26:28	389519	5c0004a72340e10001bfc3a0	4	1	main_z	7	advance_on_keypress_ZEE	154	stimuli_distractor_trianglediamonds.svg	stimuli_target_trianglerectangles.svg	25	yes	57	0	482	0	0			0	0			1				0	
6.6.1	mac	2023-06-27	00:19:56	00:26:30	391336	5c0004a72340e10001bfc3a0	4	1	main_z	7	main_z	155	stimuli_distractor_diamondtriangles.svg	stimuli_target_rectanglediamonds.svg	14	yes	44	1	699	0	0			0	0			1				0	
6.6.1	mac	2023-06-27	00:19:56	00:26:30	391336	5c0004a72340e10001bfc3a0	4	1	main_z	7	advance_on_keypress_ZEE	156	stimuli_distractor_diamondtriangles.svg	stimuli_target_rectanglediamonds.svg	14	yes	57	0	349	0	0			0	0			1				0	
6.6.1	mac	2023-06-27	00:19:56	00:26:32	393040	5c0004a72340e10001bfc3a0	4	1	main_z	7	main_z	157	stimuli_distractor_diamondtriangles.svg	stimuli_target_squaretriangles.svg	15	yes	44	1	720	0	0			0	0			1				0	
6.6.1	mac	2023-06-27	00:19:56	00:26:32	393040	5c0004a72340e10001bfc3a0	4	1	main_z	7	advance_on_keypress_ZEE	158	stimuli_distractor_diamondtriangles.svg	stimuli_target_squaretriangles.svg	15	yes	57	0	360	0	0			0	0			1				0	
6.6.1	mac	2023-06-27	00:19:56	00:26:34	394930	5c0004a72340e10001bfc3a0	4	1	main_z	7	main_z	159	stimuli_target_diamondsquares.svg	stimuli_distractor_trianglediamonds.svg	20	yes	44	1	910	0	0			0	0			1				0	
6.6.1	mac	2023-06-27	00:19:56	00:26:34	394930	5c0004a72340e10001bfc3a0	4	1	main_z	7	advance_on_keypress_ZEE	160	stimuli_target_diamondsquares.svg	stimuli_distractor_trianglediamonds.svg	20	yes	57	0	201	0	0			0	0			1				0	
6.6.1	mac	2023-06-27	00:19:56	00:26:52	412774	5c0004a72340e10001bfc3a0	4	1	practice_slash	9	practice_slash	1	stimuli_target_rectanglediamonds.svg	stimuli_distractor_diamondtriangles.svg	1	yes	53	1	903	0	0			0	0			1				0	
6.6.1	mac	2023-06-27	00:19:56	00:26:52	412774	5c0004a72340e10001bfc3a0	4	1	practice_slash	9	advance_on_keypress_SLASH	2	stimuli_target_rectanglediamonds.svg	stimuli_distractor_diamondtriangles.svg	1	yes	57	0	750	0	0			0	0			1				0	
6.6.1	mac	2023-06-27	00:19:56	00:26:55	416181	5c0004a72340e10001bfc3a0	4	1	practice_slash	9	practice_slash	3	stimuli_target_diamondsquares.svg	stimuli_distractor_diamondtriangles.svg	3	yes	53	1	1027	0	0			0	0			1				0	
6.6.1	mac	2023-06-27	00:19:56	00:26:55	416181	5c0004a72340e10001bfc3a0	4	1	practice_slash	9	advance_on_keypress_SLASH	4	stimuli_target_diamondsquares.svg	stimuli_distractor_diamondtriangles.svg	3	yes	57	0	432	0	0			0	0			1				0	
6.6.1	mac	2023-06-27	00:19:56	00:26:58	418987	5c0004a72340e10001bfc3a0	4	1	practice_slash	9	practice_slash	5	stimuli_target_squarediamonds.svg	stimuli_distractor_diamondtriangles.svg	2	yes	53	1	749	0	0			0	0			1				0	
6.6.1	mac	2023-06-27	00:19:56	00:26:58	418987	5c0004a72340e10001bfc3a0	4	1	practice_slash	9	advance_on_keypress_SLASH	6	stimuli_target_squarediamonds.svg	stimuli_distractor_diamondtriangles.svg	2	yes	57	0	657	0	0			0	0			1				0	
6.6.1	mac	2023-06-27	00:19:56	00:27:01	422422	5c0004a72340e10001bfc3a0	4	1	practice_slash	9	practice_slash	7	stimuli_target_squarediamonds.svg	stimuli_distractor_trianglediamonds.svg	5	yes	53	1	1151	0	0			0	0			1				0	
6.6.1	mac	2023-06-27	00:19:56	00:27:01	422422	5c0004a72340e10001bfc3a0	4	1	practice_slash	9	advance_on_keypress_SLASH	8	stimuli_target_squarediamonds.svg	stimuli_distractor_trianglediamonds.svg	5	yes	57	0	507	0	0			0	0			1				0	
6.6.1	mac	2023-06-27	00:19:56	00:27:04	425434	5c0004a72340e10001bfc3a0	4	1	practice_slash	9	practice_slash	9	stimuli_distractor_diamondtriangles.svg	stimuli_target_trianglerectangles.svg	9	yes	53	1	881	0	0			0	0			1				0	
6.6.1	mac	2023-06-27	00:19:56	00:27:04	425434	5c0004a72340e10001bfc3a0	4	1	practice_slash	9	advance_on_keypress_SLASH	10	stimuli_distractor_diamondtriangles.svg	stimuli_target_trianglerectangles.svg	9	yes	57	0	265	0	0			0	0			1				0	
6.6.1	mac	2023-06-27	00:19:56	00:27:07	428128	5c0004a72340e10001bfc3a0	4	1	practice_slash	9	practice_slash	11	stimuli_target_diamondsquares.svg	stimuli_distractor_trianglediamonds.svg	6	yes	53	1	790	0	0			0	0			1				0	
6.6.1	mac	2023-06-27	00:19:56	00:27:07	428128	5c0004a72340e10001bfc3a0	4	1	practice_slash	9	advance_on_keypress_SLASH	12	stimuli_target_diamondsquares.svg	stimuli_distractor_trianglediamonds.svg	6	yes	57	0	155	0	0			0	0			1				0	
6.6.1	mac	2023-06-27	00:19:56	00:27:11	431905	5c0004a72340e10001bfc3a0	4	1	practice_slash	9	practice_slash	13	stimuli_distractor_diamondtriangles.svg	stimuli_distractor_diamondtriangles.svg	13	no	0	1	2000	0	0			0	0			1				0	
6.6.1	mac	2023-06-27	00:19:56	00:27:11	431905	5c0004a72340e10001bfc3a0	4	1	practice_slash	9	advance_on_keypress_SLASH	14	stimuli_distractor_diamondtriangles.svg	stimuli_distractor_diamondtriangles.svg	13	no	57	0	231	0	0			0	0			1				0	
6.6.1	mac	2023-06-27	00:19:56	00:27:15	435772	5c0004a72340e10001bfc3a0	4	1	practice_slash	9	practice_slash	15	stimuli_distractor_trianglediamonds.svg	stimuli_distractor_trianglediamonds.svg	15	no	0	1	2000	0	0			0	0			1				0	
6.6.1	mac	2023-06-27	00:19:56	00:27:15	435772	5c0004a72340e10001bfc3a0	4	1	practice_slash	9	advance_on_keypress_SLASH	16	stimuli_distractor_trianglediamonds.svg	stimuli_distractor_trianglediamonds.svg	15	no	57	0	441	0	0			0	0			1				0	
6.6.1	mac	2023-06-27	00:19:56	00:27:18	438660	5c0004a72340e10001bfc3a0	4	1	practice_slash	9	practice_slash	17	stimuli_distractor_trianglediamonds.svg	stimuli_target_diamondrectangles.svg	12	yes	53	1	822	0	0			0	0			1				0	
6.6.1	mac	2023-06-27	00:19:56	00:27:18	438660	5c0004a72340e10001bfc3a0	4	1	practice_slash	9	advance_on_keypress_SLASH	18	stimuli_distractor_trianglediamonds.svg	stimuli_target_diamondrectangles.svg	12	yes	57	0	533	0	0			0	0			1				0	
6.6.1	mac	2023-06-27	00:19:56	00:27:20	441540	5c0004a72340e10001bfc3a0	4	1	practice_slash	9	practice_slash	19	stimuli_distractor_diamondtriangles.svg	stimuli_target_diamondrectangles.svg	8	yes	53	1	720	0	0			0	0			1				0	
6.6.1	mac	2023-06-27	00:19:56	00:27:20	441540	5c0004a72340e10001bfc3a0	4	1	practice_slash	9	advance_on_keypress_SLASH	20	stimuli_distractor_diamondtriangles.svg	stimuli_target_diamondrectangles.svg	8	yes	57	0	520	0	0			0	0			1				0	
6.6.1	mac	2023-06-27	00:19:56	00:27:23	444428	5c0004a72340e10001bfc3a0	4	1	practice_slash	9	practice_slash	21	stimuli_distractor_trianglediamonds.svg	stimuli_target_rectanglediamonds.svg	10	yes	53	1	740	0	0			0	0			1				0	
6.6.1	mac	2023-06-27	00:19:56	00:27:23	444428	5c0004a72340e10001bfc3a0	4	1	practice_slash	9	advance_on_keypress_SLASH	22	stimuli_distractor_trianglediamonds.svg	stimuli_target_rectanglediamonds.svg	10	yes	57	0	56	0	0			0	0			1				0	
6.6.1	mac	2023-06-27	00:19:56	00:27:26	446947	5c0004a72340e10001bfc3a0	4	1	practice_slash	9	practice_slash	23	stimuli_distractor_diamondtriangles.svg	stimuli_target_rectangletriangles.svg	7	yes	53	1	844	0	0			0	0			1				0	
6.6.1	mac	2023-06-27	00:19:56	00:27:26	446947	5c0004a72340e10001bfc3a0	4	1	practice_slash	9	advance_on_keypress_SLASH	24	stimuli_distractor_diamondtriangles.svg	stimuli_target_rectangletriangles.svg	7	yes	57	0	403	0	0			0	0			1				0	
6.6.1	mac	2023-06-27	00:19:56	00:27:30	450972	5c0004a72340e10001bfc3a0	4	1	practice_slash	9	practice_slash	25	stimuli_distractor_diamondtriangles.svg	stimuli_distractor_trianglediamonds.svg	14	no	0	1	2000	0	0			0	0			1				0	
6.6.1	mac	2023-06-27	00:19:56	00:27:30	450972	5c0004a72340e10001bfc3a0	4	1	practice_slash	9	advance_on_keypress_SLASH	26	stimuli_distractor_diamondtriangles.svg	stimuli_distractor_trianglediamonds.svg	14	no	57	0	89	0	0			0	0			1				0	
6.6.1	mac	2023-06-27	00:19:56	00:27:34	454688	5c0004a72340e10001bfc3a0	4	1	practice_slash	9	practice_slash	27	stimuli_distractor_trianglediamonds.svg	stimuli_distractor_diamondtriangles.svg	16	no	0	1	2000	0	0			0	0			1				0	
6.6.1	mac	2023-06-27	00:19:56	00:27:34	454688	5c0004a72340e10001bfc3a0	4	1	practice_slash	9	advance_on_keypress_SLASH	28	stimuli_distractor_trianglediamonds.svg	stimuli_distractor_diamondtriangles.svg	16	no	57	0	142	0	0			0	0			1				0	
6.6.1	mac	2023-06-27	00:19:56	00:27:36	457281	5c0004a72340e10001bfc3a0	4	1	practice_slash	9	practice_slash	29	stimuli_target_rectanglediamonds.svg	stimuli_distractor_trianglediamonds.svg	4	yes	53	1	828	0	0			0	0			1				0	
6.6.1	mac	2023-06-27	00:19:56	00:27:36	457281	5c0004a72340e10001bfc3a0	4	1	practice_slash	9	advance_on_keypress_SLASH	30	stimuli_target_rectanglediamonds.svg	stimuli_distractor_trianglediamonds.svg	4	yes	57	0	420	0	0			0	0			1				0	
6.6.1	mac	2023-06-27	00:19:56	00:27:39	460137	5c0004a72340e10001bfc3a0	4	1	practice_slash	9	practice_slash	31	stimuli_distractor_trianglediamonds.svg	stimuli_target_squarediamonds.svg	11	yes	53	1	817	0	0			0	0			1				0	
6.6.1	mac	2023-06-27	00:19:56	00:27:39	460137	5c0004a72340e10001bfc3a0	4	1	practice_slash	9	advance_on_keypress_SLASH	32	stimuli_distractor_trianglediamonds.svg	stimuli_target_squarediamonds.svg	11	yes	57	0	421	0	0			0	0			1				0	
6.6.1	mac	2023-06-27	00:19:56	00:27:44	465344	5c0004a72340e10001bfc3a0	4	1	main_slash	11	main_slash	1	stimuli_distractor_diamondtriangles.svg	stimuli_target_squaretriangles.svg	15	yes	53	1	507	0	0			0	0			1				0	
6.6.1	mac	2023-06-27	00:19:56	00:27:44	465344	5c0004a72340e10001bfc3a0	4	1	main_slash	11	advance_on_keypress_SLASH	2	stimuli_distractor_diamondtriangles.svg	stimuli_target_squaretriangles.svg	15	yes	57	0	480	0	0			0	0			1				0	
6.6.1	mac	2023-06-27	00:19:56	00:27:46	466964	5c0004a72340e10001bfc3a0	4	1	main_slash	11	main_slash	3	stimuli_target_rectangletriangles.svg	stimuli_distractor_diamondtriangles.svg	5	yes	53	1	527	0	0			0	0			1				0	
6.6.1	mac	2023-06-27	00:19:56	00:27:46	466964	5c0004a72340e10001bfc3a0	4	1	main_slash	11	advance_on_keypress_SLASH	4	stimuli_target_rectangletriangles.svg	stimuli_distractor_diamondtriangles.svg	5	yes	57	0	390	0	0			0	0			1				0	
6.6.1	mac	2023-06-27	00:19:56	00:27:47	468541	5c0004a72340e10001bfc3a0	4	1	main_slash	11	main_slash	5	stimuli_distractor_diamondtriangles.svg	stimuli_target_trianglerectangles.svg	29	yes	53	1	571	0	0			0	0			1				0	
6.6.1	mac	2023-06-27	00:19:56	00:27:47	468541	5c0004a72340e10001bfc3a0	4	1	main_slash	11	advance_on_keypress_SLASH	6	stimuli_distractor_diamondtriangles.svg	stimuli_target_trianglerectangles.svg	29	yes	57	0	351	0	0			0	0			1				0	
6.6.1	mac	2023-06-27	00:19:56	00:27:49	470163	5c0004a72340e10001bfc3a0	4	1	main_slash	11	main_slash	7	stimuli_target_rectanglediamonds.svg	stimuli_distractor_trianglediamonds.svg	2	yes	53	1	641	0	0			0	0			1				0	
6.6.1	mac	2023-06-27	00:19:56	00:27:49	470163	5c0004a72340e10001bfc3a0	4	1	main_slash	11	advance_on_keypress_SLASH	8	stimuli_target_rectanglediamonds.svg	stimuli_distractor_trianglediamonds.svg	2	yes	57	0	254	0	0			0	0			1				0	
6.6.1	mac	2023-06-27	00:19:56	00:27:50	471552	5c0004a72340e10001bfc3a0	4	1	main_slash	11	main_slash	9	stimuli_target_squaretriangles.svg	stimuli_distractor_diamondtriangles.svg	7	yes	53	1	514	0	0			0	0			1				0	
6.6.1	mac	2023-06-27	00:19:56	00:27:50	471552	5c0004a72340e10001bfc3a0	4	1	main_slash	11	advance_on_keypress_SLASH	10	stimuli_target_squaretriangles.svg	stimuli_distractor_diamondtriangles.svg	7	yes	57	0	261	0	0			0	0			1				0	
6.6.1	mac	2023-06-27	00:19:56	00:27:52	472876	5c0004a72340e10001bfc3a0	4	1	main_slash	11	main_slash	11	stimuli_target_squarediamonds.svg	stimuli_distractor_diamondtriangles.svg	8	yes	53	1	438	0	0			0	0			1				0	
6.6.1	mac	2023-06-27	00:19:56	00:27:52	472876	5c0004a72340e10001bfc3a0	4	1	main_slash	11	advance_on_keypress_SLASH	12	stimuli_target_squarediamonds.svg	stimuli_distractor_diamondtriangles.svg	8	yes	57	0	341	0	0			0	0			1				0	
6.6.1	mac	2023-06-27	00:19:56	00:27:53	474450	5c0004a72340e10001bfc3a0	4	1	main_slash	11	main_slash	13	stimuli_target_trianglerectangles.svg	stimuli_distractor_trianglediamonds.svg	17	yes	53	1	595	0	0			0	0			1				0	
6.6.1	mac	2023-06-27	00:19:56	00:27:53	474450	5c0004a72340e10001bfc3a0	4	1	main_slash	11	advance_on_keypress_SLASH	14	stimuli_target_trianglerectangles.svg	stimuli_distractor_trianglediamonds.svg	17	yes	57	0	309	0	0			0	0			1				0	
6.6.1	mac	2023-06-27	00:19:56	00:27:55	476074	5c0004a72340e10001bfc3a0	4	1	main_slash	11	main_slash	15	stimuli_target_squaretriangles.svg	stimuli_distractor_trianglediamonds.svg	3	yes	53	1	703	0	0			0	0			1				0	
6.6.1	mac	2023-06-27	00:19:56	00:27:55	476074	5c0004a72340e10001bfc3a0	4	1	main_slash	11	advance_on_keypress_SLASH	16	stimuli_target_squaretriangles.svg	stimuli_distractor_trianglediamonds.svg	3	yes	57	0	326	0	0			0	0			1				0	
6.6.1	mac	2023-06-27	00:19:56	00:27:58	479020	5c0004a72340e10001bfc3a0	4	1	main_slash	11	main_slash	17	stimuli_distractor_trianglediamonds.svg	stimuli_distractor_diamondtriangles.svg	35	no	0	1	2000	0	0			0	0			1				0	
6.6.1	mac	2023-06-27	00:19:56	00:27:58	479020	5c0004a72340e10001bfc3a0	4	1	main_slash	11	advance_on_keypress_SLASH	18	stimuli_distractor_trianglediamonds.svg	stimuli_distractor_diamondtriangles.svg	35	no	57	0	59	0	0			0	0			1				0	
6.6.1	mac	2023-06-27	00:19:56	00:27:59	480368	5c0004a72340e10001bfc3a0	4	1	main_slash	11	main_slash	19	stimuli_distractor_diamondtriangles.svg	stimuli_target_trianglesquares.svg	30	yes	53	1	664	0	0			0	0			1				0	
6.6.1	mac	2023-06-27	00:19:56	00:27:59	480368	5c0004a72340e10001bfc3a0	4	1	main_slash	11	advance_on_keypress_SLASH	20	stimuli_distractor_diamondtriangles.svg	stimuli_target_trianglesquares.svg	30	yes	57	0	482	0	0			0	0			1				0	
6.6.1	mac	2023-06-27	00:19:56	00:28:01	482111	5c0004a72340e10001bfc3a0	4	1	main_slash	11	main_slash	21	stimuli_target_squarediamonds.svg	stimuli_distractor_trianglediamonds.svg	4	yes	53	1	624	0	0			0	0			1				0	
6.6.1	mac	2023-06-27	00:19:56	00:28:01	482111	5c0004a72340e10001bfc3a0	4	1	main_slash	11	advance_on_keypress_SLASH	22	stimuli_target_squarediamonds.svg	stimuli_distractor_trianglediamonds.svg	4	yes	57	0	416	0	0			0	0			1				0	
6.6.1	mac	2023-06-27	00:19:56	00:28:03	483726	5c0004a72340e10001bfc3a0	4	1	main_slash	11	main_slash	23	stimuli_distractor_trianglediamonds.svg	stimuli_target_squarediamonds.svg	12	yes	53	1	573	0	0			0	0			1				0	
6.6.1	mac	2023-06-27	00:19:56	00:28:03	483726	5c0004a72340e10001bfc3a0	4	1	main_slash	11	advance_on_keypress_SLASH	24	stimuli_distractor_trianglediamonds.svg	stimuli_target_squarediamonds.svg	12	yes	57	0	314	0	0			0	0			1				0	
6.6.1	mac	2023-06-27	00:19:56	00:28:04	485332	5c0004a72340e10001bfc3a0	4	1	main_slash	11	main_slash	25	stimuli_distractor_diamondtriangles.svg	stimuli_target_diamondsquares.svg	32	yes	53	1	662	0	0			0	0			1				0	
6.6.1	mac	2023-06-27	00:19:56	00:28:04	485332	5c0004a72340e10001bfc3a0	4	1	main_slash	11	advance_on_keypress_SLASH	26	stimuli_distractor_diamondtriangles.svg	stimuli_target_diamondsquares.svg	32	yes	57	0	304	0	0			0	0			1				0	
6.6.1	mac	2023-06-27	00:19:56	00:28:07	488253	5c0004a72340e10001bfc3a0	4	1	main_slash	11	main_slash	27	stimuli_distractor_trianglediamonds.svg	stimuli_distractor_trianglediamonds.svg	33	no	0	1	2000	0	0			0	0			1				0	
6.6.1	mac	2023-06-27	00:19:56	00:28:07	488253	5c0004a72340e10001bfc3a0	4	1	main_slash	11	advance_on_keypress_SLASH	28	stimuli_distractor_trianglediamonds.svg	stimuli_distractor_trianglediamonds.svg	33	no	57	0	253	0	0			0	0			1				0	
6.6.1	mac	2023-06-27	00:19:56	00:28:10	491138	5c0004a72340e10001bfc3a0	4	1	main_slash	11	main_slash	29	stimuli_distractor_diamondtriangles.svg	stimuli_distractor_diamondtriangles.svg	39	no	0	1	2000	0	0			0	0			1				0	
6.6.1	mac	2023-06-27	00:19:56	00:28:10	491138	5c0004a72340e10001bfc3a0	4	1	main_slash	11	advance_on_keypress_SLASH	30	stimuli_distractor_diamondtriangles.svg	stimuli_distractor_diamondtriangles.svg	39	no	57	0	304	0	0			0	0			1				0	
6.6.1	mac	2023-06-27	00:19:56	00:28:12	492829	5c0004a72340e10001bfc3a0	4	1	main_slash	11	main_slash	31	stimuli_target_diamondsquares.svg	stimuli_distractor_diamondtriangles.svg	24	yes	53	1	759	0	0			0	0			1				0	
6.6.1	mac	2023-06-27	00:19:56	00:28:12	492829	5c0004a72340e10001bfc3a0	4	1	main_slash	11	advance_on_keypress_SLASH	32	stimuli_target_diamondsquares.svg	stimuli_distractor_diamondtriangles.svg	24	yes	57	0	399	0	0			0	0			1				0	
6.6.1	mac	2023-06-27	00:19:56	00:28:13	494490	5c0004a72340e10001bfc3a0	4	1	main_slash	11	main_slash	33	stimuli_target_trianglerectangles.svg	stimuli_distractor_diamondtriangles.svg	21	yes	53	1	636	0	0			0	0			1				0	
6.6.1	mac	2023-06-27	00:19:56	00:28:13	494490	5c0004a72340e10001bfc3a0	4	1	main_slash	11	advance_on_keypress_SLASH	34	stimuli_target_trianglerectangles.svg	stimuli_distractor_diamondtriangles.svg	21	yes	57	0	338	0	0			0	0			1				0	
6.6.1	mac	2023-06-27	00:19:56	00:28:15	496379	5c0004a72340e10001bfc3a0	4	1	main_slash	11	main_slash	35	stimuli_distractor_trianglediamonds.svg	stimuli_target_rectanglediamonds.svg	10	yes	53	1	924	0	0			0	0			1				0	
6.6.1	mac	2023-06-27	00:19:56	00:28:15	496379	5c0004a72340e10001bfc3a0	4	1	main_slash	11	advance_on_keypress_SLASH	36	stimuli_distractor_trianglediamonds.svg	stimuli_target_rectanglediamonds.svg	10	yes	57	0	352	0	0			0	0			1				0	
6.6.1	mac	2023-06-27	00:19:56	00:28:17	498091	5c0004a72340e10001bfc3a0	4	1	main_slash	11	main_slash	37	stimuli_distractor_trianglediamonds.svg	stimuli_target_diamondrectangles.svg	27	yes	53	1	736	0	0			0	0			1				0	
6.6.1	mac	2023-06-27	00:19:56	00:28:17	498091	5c0004a72340e10001bfc3a0	4	1	main_slash	11	advance_on_keypress_SLASH	38	stimuli_distractor_trianglediamonds.svg	stimuli_target_diamondrectangles.svg	27	yes	57	0	496	0	0			0	0			1				0	
6.6.1	mac	2023-06-27	00:19:56	00:28:19	499848	5c0004a72340e10001bfc3a0	4	1	main_slash	11	main_slash	39	stimuli_distractor_diamondtriangles.svg	stimuli_target_squarediamonds.svg	16	yes	53	1	644	0	0			0	0			1				0	
6.6.1	mac	2023-06-27	00:19:56	00:28:19	499848	5c0004a72340e10001bfc3a0	4	1	main_slash	11	advance_on_keypress_SLASH	40	stimuli_distractor_diamondtriangles.svg	stimuli_target_squarediamonds.svg	16	yes	57	0	311	0	0			0	0			1				0	
6.6.1	mac	2023-06-27	00:19:56	00:28:20	501278	5c0004a72340e10001bfc3a0	4	1	main_slash	11	main_slash	41	stimuli_distractor_trianglediamonds.svg	stimuli_target_trianglesquares.svg	26	yes	53	1	508	0	0			0	0			1				0	
6.6.1	mac	2023-06-27	00:19:56	00:28:20	501278	5c0004a72340e10001bfc3a0	4	1	main_slash	11	advance_on_keypress_SLASH	42	stimuli_distractor_trianglediamonds.svg	stimuli_target_trianglesquares.svg	26	yes	57	0	401	0	0			0	0			1				0	
6.6.1	mac	2023-06-27	00:19:56	00:28:22	503270	5c0004a72340e10001bfc3a0	4	1	main_slash	11	main_slash	43	stimuli_target_rectangletriangles.svg	stimuli_distractor_trianglediamonds.svg	1	yes	53	1	966	0	0			0	0			1				0	
6.6.1	mac	2023-06-27	00:19:56	00:28:22	503270	5c0004a72340e10001bfc3a0	4	1	main_slash	11	advance_on_keypress_SLASH	44	stimuli_target_rectangletriangles.svg	stimuli_distractor_trianglediamonds.svg	1	yes	57	0	289	0	0			0	0			1				0	
6.6.1	mac	2023-06-27	00:19:56	00:28:24	504783	5c0004a72340e10001bfc3a0	4	1	main_slash	11	main_slash	45	stimuli_distractor_trianglediamonds.svg	stimuli_target_diamondsquares.svg	28	yes	53	1	595	0	0			0	0			1				0	
6.6.1	mac	2023-06-27	00:19:56	00:28:24	504783	5c0004a72340e10001bfc3a0	4	1	main_slash	11	advance_on_keypress_SLASH	46	stimuli_distractor_trianglediamonds.svg	stimuli_target_diamondsquares.svg	28	yes	57	0	357	0	0			0	0			1				0	
6.6.1	mac	2023-06-27	00:19:56	00:28:27	507753	5c0004a72340e10001bfc3a0	4	1	main_slash	11	main_slash	47	stimuli_distractor_diamondtriangles.svg	stimuli_distractor_diamondtriangles.svg	40	no	0	1	2000	0	0			0	0			1				0	
6.6.1	mac	2023-06-27	00:19:56	00:28:27	507753	5c0004a72340e10001bfc3a0	4	1	main_slash	11	advance_on_keypress_SLASH	48	stimuli_distractor_diamondtriangles.svg	stimuli_distractor_diamondtriangles.svg	40	no	57	0	254	0	0			0	0			1				0	
6.6.1	mac	2023-06-27	00:19:56	00:28:28	509265	5c0004a72340e10001bfc3a0	4	1	main_slash	11	main_slash	49	stimuli_distractor_trianglediamonds.svg	stimuli_target_trianglerectangles.svg	25	yes	53	1	627	0	0			0	0			1				0	
6.6.1	mac	2023-06-27	00:19:56	00:28:28	509265	5c0004a72340e10001bfc3a0	4	1	main_slash	11	advance_on_keypress_SLASH	50	stimuli_distractor_trianglediamonds.svg	stimuli_target_trianglerectangles.svg	25	yes	57	0	86	0	0			0	0			1				0	
6.6.1	mac	2023-06-27	00:19:56	00:28:31	511971	5c0004a72340e10001bfc3a0	4	1	main_slash	11	main_slash	51	stimuli_distractor_diamondtriangles.svg	stimuli_distractor_trianglediamonds.svg	38	no	0	1	2000	0	0			0	0			1				0	
6.6.1	mac	2023-06-27	00:19:56	00:28:31	511971	5c0004a72340e10001bfc3a0	4	1	main_slash	11	advance_on_keypress_SLASH	52	stimuli_distractor_diamondtriangles.svg	stimuli_distractor_trianglediamonds.svg	38	no	57	0	347	0	0			0	0			1				0	
6.6.1	mac	2023-06-27	00:19:56	00:28:33	513567	5c0004a72340e10001bfc3a0	4	1	main_slash	11	main_slash	53	stimuli_target_rectanglediamonds.svg	stimuli_distractor_diamondtriangles.svg	6	yes	53	1	614	0	0			0	0			1				0	
6.6.1	mac	2023-06-27	00:19:56	00:28:33	513567	5c0004a72340e10001bfc3a0	4	1	main_slash	11	advance_on_keypress_SLASH	54	stimuli_target_rectanglediamonds.svg	stimuli_distractor_diamondtriangles.svg	6	yes	57	0	104	0	0			0	0			1				0	
6.6.1	mac	2023-06-27	00:19:56	00:28:34	514943	5c0004a72340e10001bfc3a0	4	1	main_slash	11	main_slash	55	stimuli_target_diamondrectangles.svg	stimuli_distractor_diamondtriangles.svg	23	yes	53	1	639	0	0			0	0			1				0	
6.6.1	mac	2023-06-27	00:19:56	00:28:34	514943	5c0004a72340e10001bfc3a0	4	1	main_slash	11	advance_on_keypress_SLASH	56	stimuli_target_diamondrectangles.svg	stimuli_distractor_diamondtriangles.svg	23	yes	57	0	97	0	0			0	0			1				0	
6.6.1	mac	2023-06-27	00:19:56	00:28:35	516288	5c0004a72340e10001bfc3a0	4	1	main_slash	11	main_slash	57	stimuli_distractor_diamondtriangles.svg	stimuli_target_diamondrectangles.svg	31	yes	53	1	618	0	0			0	0			1				0	
6.6.1	mac	2023-06-27	00:19:56	00:28:35	516288	5c0004a72340e10001bfc3a0	4	1	main_slash	11	advance_on_keypress_SLASH	58	stimuli_distractor_diamondtriangles.svg	stimuli_target_diamondrectangles.svg	31	yes	57	0	85	0	0			0	0			1				0	
6.6.1	mac	2023-06-27	00:19:56	00:28:38	519003	5c0004a72340e10001bfc3a0	4	1	main_slash	11	main_slash	59	stimuli_distractor_diamondtriangles.svg	stimuli_distractor_trianglediamonds.svg	37	no	0	1	2000	0	0			0	0			1				0	
6.6.1	mac	2023-06-27	00:19:56	00:28:38	519003	5c0004a72340e10001bfc3a0	4	1	main_slash	11	advance_on_keypress_SLASH	60	stimuli_distractor_diamondtriangles.svg	stimuli_distractor_trianglediamonds.svg	37	no	57	0	341	0	0			0	0			1				0	
6.6.1	mac	2023-06-27	00:19:56	00:28:39	520550	5c0004a72340e10001bfc3a0	4	1	main_slash	11	main_slash	61	stimuli_distractor_trianglediamonds.svg	stimuli_target_rectangletriangles.svg	9	yes	53	1	580	0	0			0	0			1				0	
6.6.1	mac	2023-06-27	00:19:56	00:28:39	520550	5c0004a72340e10001bfc3a0	4	1	main_slash	11	advance_on_keypress_SLASH	62	stimuli_distractor_trianglediamonds.svg	stimuli_target_rectangletriangles.svg	9	yes	57	0	66	0	0			0	0			1				0	
6.6.1	mac	2023-06-27	00:19:56	00:28:41	522222	5c0004a72340e10001bfc3a0	4	1	main_slash	11	main_slash	63	stimuli_target_diamondsquares.svg	stimuli_distractor_trianglediamonds.svg	20	yes	53	1	985	0	0			0	0			1				0	
6.6.1	mac	2023-06-27	00:19:56	00:28:41	522222	5c0004a72340e10001bfc3a0	4	1	main_slash	11	advance_on_keypress_SLASH	64	stimuli_target_diamondsquares.svg	stimuli_distractor_trianglediamonds.svg	20	yes	57	0	106	0	0			0	0			1				0	
6.6.1	mac	2023-06-27	00:19:56	00:28:43	524373	5c0004a72340e10001bfc3a0	4	1	main_slash	11	main_slash	65	stimuli_distractor_trianglediamonds.svg	stimuli_target_squaretriangles.svg	11	yes	53	1	1420	0	0			0	0			1				0	
6.6.1	mac	2023-06-27	00:19:56	00:28:43	524373	5c0004a72340e10001bfc3a0	4	1	main_slash	11	advance_on_keypress_SLASH	66	stimuli_distractor_trianglediamonds.svg	stimuli_target_squaretriangles.svg	11	yes	57	0	22	0	0			0	0			1				0	
6.6.1	mac	2023-06-27	00:19:56	00:28:45	525690	5c0004a72340e10001bfc3a0	4	1	main_slash	11	main_slash	67	stimuli_target_trianglesquares.svg	stimuli_distractor_diamondtriangles.svg	22	yes	53	1	670	0	0			0	0			1				0	
6.6.1	mac	2023-06-27	00:19:56	00:28:45	525690	5c0004a72340e10001bfc3a0	4	1	main_slash	11	advance_on_keypress_SLASH	68	stimuli_target_trianglesquares.svg	stimuli_distractor_diamondtriangles.svg	22	yes	57	0	35	0	0			0	0			1				0	
6.6.1	mac	2023-06-27	00:19:56	00:28:47	528353	5c0004a72340e10001bfc3a0	4	1	main_slash	11	main_slash	69	stimuli_distractor_trianglediamonds.svg	stimuli_distractor_diamondtriangles.svg	36	no	0	1	2000	0	0			0	0			1				0	
6.6.1	mac	2023-06-27	00:19:56	00:28:47	528353	5c0004a72340e10001bfc3a0	4	1	main_slash	11	advance_on_keypress_SLASH	70	stimuli_distractor_trianglediamonds.svg	stimuli_distractor_diamondtriangles.svg	36	no	57	0	321	0	0			0	0			1				0	
6.6.1	mac	2023-06-27	00:19:56	00:28:49	529949	5c0004a72340e10001bfc3a0	4	1	main_slash	11	main_slash	71	stimuli_target_diamondrectangles.svg	stimuli_distractor_trianglediamonds.svg	19	yes	53	1	646	0	0			0	0			1				0	
6.6.1	mac	2023-06-27	00:19:56	00:28:49	529949	5c0004a72340e10001bfc3a0	4	1	main_slash	11	advance_on_keypress_SLASH	72	stimuli_target_diamondrectangles.svg	stimuli_distractor_trianglediamonds.svg	19	yes	57	0	103	0	0			0	0			1				0	
6.6.1	mac	2023-06-27	00:19:56	00:28:50	531217	5c0004a72340e10001bfc3a0	4	1	main_slash	11	main_slash	73	stimuli_target_trianglesquares.svg	stimuli_distractor_trianglediamonds.svg	18	yes	53	1	547	0	0			0	0			1				0	
6.6.1	mac	2023-06-27	00:19:56	00:28:50	531217	5c0004a72340e10001bfc3a0	4	1	main_slash	11	advance_on_keypress_SLASH	74	stimuli_target_trianglesquares.svg	stimuli_distractor_trianglediamonds.svg	18	yes	57	0	168	0	0			0	0			1				0	
6.6.1	mac	2023-06-27	00:19:56	00:28:52	532792	5c0004a72340e10001bfc3a0	4	1	main_slash	11	main_slash	75	stimuli_distractor_diamondtriangles.svg	stimuli_target_rectangletriangles.svg	13	yes	53	1	787	0	0			0	0			1				0	
6.6.1	mac	2023-06-27	00:19:56	00:28:52	532792	5c0004a72340e10001bfc3a0	4	1	main_slash	11	advance_on_keypress_SLASH	76	stimuli_distractor_diamondtriangles.svg	stimuli_target_rectangletriangles.svg	13	yes	57	0	147	0	0			0	0			1				0	
6.6.1	mac	2023-06-27	00:19:56	00:28:53	534149	5c0004a72340e10001bfc3a0	4	1	main_slash	11	main_slash	77	stimuli_distractor_diamondtriangles.svg	stimuli_target_rectanglediamonds.svg	14	yes	53	1	578	0	0			0	0			1				0	
6.6.1	mac	2023-06-27	00:19:56	00:28:53	534149	5c0004a72340e10001bfc3a0	4	1	main_slash	11	advance_on_keypress_SLASH	78	stimuli_distractor_diamondtriangles.svg	stimuli_target_rectanglediamonds.svg	14	yes	57	0	144	0	0			0	0			1				0	
6.6.1	mac	2023-06-27	00:19:56	00:28:56	536920	5c0004a72340e10001bfc3a0	4	1	main_slash	11	main_slash	79	stimuli_distractor_trianglediamonds.svg	stimuli_distractor_trianglediamonds.svg	34	no	0	1	2000	0	0			0	0			1				0	
6.6.1	mac	2023-06-27	00:19:56	00:28:56	536920	5c0004a72340e10001bfc3a0	4	1	main_slash	11	advance_on_keypress_SLASH	80	stimuli_distractor_trianglediamonds.svg	stimuli_distractor_trianglediamonds.svg	34	no	57	0	327	0	0			0	0			1				0	
6.6.1	mac	2023-06-27	00:19:56	00:28:57	538468	5c0004a72340e10001bfc3a0	4	1	main_slash	11	main_slash	81	stimuli_target_trianglerectangles.svg	stimuli_distractor_diamondtriangles.svg	21	yes	53	1	597	0	0			0	0			1				0	
6.6.1	mac	2023-06-27	00:19:56	00:28:57	538468	5c0004a72340e10001bfc3a0	4	1	main_slash	11	advance_on_keypress_SLASH	82	stimuli_target_trianglerectangles.svg	stimuli_distractor_diamondtriangles.svg	21	yes	57	0	156	0	0			0	0			1				0	
6.6.1	mac	2023-06-27	00:19:56	00:29:00	541253	5c0004a72340e10001bfc3a0	4	1	main_slash	11	main_slash	83	stimuli_distractor_trianglediamonds.svg	stimuli_distractor_trianglediamonds.svg	33	no	0	1	2000	0	0			0	0			1				0	
6.6.1	mac	2023-06-27	00:19:56	00:29:00	541253	5c0004a72340e10001bfc3a0	4	1	main_slash	11	advance_on_keypress_SLASH	84	stimuli_distractor_trianglediamonds.svg	stimuli_distractor_trianglediamonds.svg	33	no	57	0	283	0	0			0	0			1				0	
6.6.1	mac	2023-06-27	00:19:56	00:29:02	542923	5c0004a72340e10001bfc3a0	4	1	main_slash	11	main_slash	85	stimuli_target_diamondrectangles.svg	stimuli_distractor_diamondtriangles.svg	23	yes	53	1	753	0	0			0	0			1				0	
6.6.1	mac	2023-06-27	00:19:56	00:29:02	542923	5c0004a72340e10001bfc3a0	4	1	main_slash	11	advance_on_keypress_SLASH	86	stimuli_target_diamondrectangles.svg	stimuli_distractor_diamondtriangles.svg	23	yes	57	0	91	0	0			0	0			1				0	
6.6.1	mac	2023-06-27	00:19:56	00:29:03	544099	5c0004a72340e10001bfc3a0	4	1	main_slash	11	main_slash	87	stimuli_target_diamondrectangles.svg	stimuli_distractor_trianglediamonds.svg	19	yes	53	1	462	0	0			0	0			1				0	
6.6.1	mac	2023-06-27	00:19:56	00:29:03	544099	5c0004a72340e10001bfc3a0	4	1	main_slash	11	advance_on_keypress_SLASH	88	stimuli_target_diamondrectangles.svg	stimuli_distractor_trianglediamonds.svg	19	yes	57	0	64	0	0			0	0			1				0	
6.6.1	mac	2023-06-27	00:19:56	00:29:04	545365	5c0004a72340e10001bfc3a0	4	1	main_slash	11	main_slash	89	stimuli_distractor_diamondtriangles.svg	stimuli_target_squarediamonds.svg	16	yes	53	1	595	0	0			0	0			1				0	
6.6.1	mac	2023-06-27	00:19:56	00:29:04	545365	5c0004a72340e10001bfc3a0	4	1	main_slash	11	advance_on_keypress_SLASH	90	stimuli_distractor_diamondtriangles.svg	stimuli_target_squarediamonds.svg	16	yes	57	0	95	0	0			0	0			1				0	
6.6.1	mac	2023-06-27	00:19:56	00:29:05	546485	5c0004a72340e10001bfc3a0	4	1	main_slash	11	main_slash	91	stimuli_distractor_trianglediamonds.svg	stimuli_target_diamondrectangles.svg	27	yes	53	1	415	0	0			0	0			1				0	
6.6.1	mac	2023-06-27	00:19:56	00:29:05	546485	5c0004a72340e10001bfc3a0	4	1	main_slash	11	advance_on_keypress_SLASH	92	stimuli_distractor_trianglediamonds.svg	stimuli_target_diamondrectangles.svg	27	yes	57	0	593	0	0			0	0			1				0	
6.6.1	mac	2023-06-27	00:19:56	00:29:07	548313	5c0004a72340e10001bfc3a0	4	1	main_slash	11	main_slash	93	stimuli_target_diamondsquares.svg	stimuli_distractor_diamondtriangles.svg	24	yes	53	1	610	0	0			0	0			1				0	
6.6.1	mac	2023-06-27	00:19:56	00:29:07	548313	5c0004a72340e10001bfc3a0	4	1	main_slash	11	advance_on_keypress_SLASH	94	stimuli_target_diamondsquares.svg	stimuli_distractor_diamondtriangles.svg	24	yes	57	0	73	0	0			0	0			1				0	
6.6.1	mac	2023-06-27	00:19:56	00:29:10	551003	5c0004a72340e10001bfc3a0	4	1	main_slash	11	main_slash	95	stimuli_distractor_trianglediamonds.svg	stimuli_distractor_diamondtriangles.svg	35	no	0	1	2000	0	0			0	0			1				0	
6.6.1	mac	2023-06-27	00:19:56	00:29:10	551003	5c0004a72340e10001bfc3a0	4	1	main_slash	11	advance_on_keypress_SLASH	96	stimuli_distractor_trianglediamonds.svg	stimuli_distractor_diamondtriangles.svg	35	no	57	0	376	0	0			0	0			1				0	
6.6.1	mac	2023-06-27	00:19:56	00:29:11	552529	5c0004a72340e10001bfc3a0	4	1	main_slash	11	main_slash	97	stimuli_target_squaretriangles.svg	stimuli_distractor_diamondtriangles.svg	7	yes	53	1	525	0	0			0	0			1				0	
6.6.1	mac	2023-06-27	00:19:56	00:29:11	552529	5c0004a72340e10001bfc3a0	4	1	main_slash	11	advance_on_keypress_SLASH	98	stimuli_target_squaretriangles.svg	stimuli_distractor_diamondtriangles.svg	7	yes	57	0	89	0	0			0	0			1				0	
6.6.1	mac	2023-06-27	00:19:56	00:29:13	553784	5c0004a72340e10001bfc3a0	4	1	main_slash	11	main_slash	99	stimuli_target_rectanglediamonds.svg	stimuli_distractor_diamondtriangles.svg	6	yes	53	1	547	0	0			0	0			1				0	
6.6.1	mac	2023-06-27	00:19:56	00:29:13	553784	5c0004a72340e10001bfc3a0	4	1	main_slash	11	advance_on_keypress_SLASH	100	stimuli_target_rectanglediamonds.svg	stimuli_distractor_diamondtriangles.svg	6	yes	57	0	57	0	0			0	0			1				0	
6.6.1	mac	2023-06-27	00:19:56	00:29:14	555002	5c0004a72340e10001bfc3a0	4	1	main_slash	11	main_slash	101	stimuli_distractor_diamondtriangles.svg	stimuli_target_rectanglediamonds.svg	14	yes	53	1	532	0	0			0	0			1				0	
6.6.1	mac	2023-06-27	00:19:56	00:29:14	555002	5c0004a72340e10001bfc3a0	4	1	main_slash	11	advance_on_keypress_SLASH	102	stimuli_distractor_diamondtriangles.svg	stimuli_target_rectanglediamonds.svg	14	yes	57	0	90	0	0			0	0			1				0	
6.6.1	mac	2023-06-27	00:19:56	00:29:16	556618	5c0004a72340e10001bfc3a0	4	1	main_slash	11	main_slash	103	stimuli_target_rectanglediamonds.svg	stimuli_distractor_trianglediamonds.svg	2	yes	53	1	897	0	0			0	0			1				0	
6.6.1	mac	2023-06-27	00:19:56	00:29:16	556618	5c0004a72340e10001bfc3a0	4	1	main_slash	11	advance_on_keypress_SLASH	104	stimuli_target_rectanglediamonds.svg	stimuli_distractor_trianglediamonds.svg	2	yes	57	0	73	0	0			0	0			1				0	
6.6.1	mac	2023-06-27	00:19:56	00:29:17	557922	5c0004a72340e10001bfc3a0	4	1	main_slash	11	main_slash	105	stimuli_distractor_trianglediamonds.svg	stimuli_target_squaretriangles.svg	11	yes	53	1	602	0	0			0	0			1				0	
6.6.1	mac	2023-06-27	00:19:56	00:29:17	557922	5c0004a72340e10001bfc3a0	4	1	main_slash	11	advance_on_keypress_SLASH	106	stimuli_distractor_trianglediamonds.svg	stimuli_target_squaretriangles.svg	11	yes	57	0	94	0	0			0	0			1				0	
6.6.1	mac	2023-06-27	00:19:56	00:29:19	559832	5c0004a72340e10001bfc3a0	4	1	main_slash	11	main_slash	107	stimuli_target_trianglesquares.svg	stimuli_distractor_diamondtriangles.svg	22	yes	53	1	1195	0	0			0	0			1				0	
6.6.1	mac	2023-06-27	00:19:56	00:29:19	559832	5c0004a72340e10001bfc3a0	4	1	main_slash	11	advance_on_keypress_SLASH	108	stimuli_target_trianglesquares.svg	stimuli_distractor_diamondtriangles.svg	22	yes	57	0	101	0	0			0	0			1				0	
6.6.1	mac	2023-06-27	00:19:56	00:29:20	561296	5c0004a72340e10001bfc3a0	4	1	main_slash	11	main_slash	109	stimuli_distractor_trianglediamonds.svg	stimuli_target_squarediamonds.svg	12	yes	53	1	743	0	0			0	0			1				0	
6.6.1	mac	2023-06-27	00:19:56	00:29:20	561296	5c0004a72340e10001bfc3a0	4	1	main_slash	11	advance_on_keypress_SLASH	110	stimuli_distractor_trianglediamonds.svg	stimuli_target_squarediamonds.svg	12	yes	57	0	59	0	0			0	0			1				0	
6.6.1	mac	2023-06-27	00:19:56	00:29:23	563970	5c0004a72340e10001bfc3a0	4	1	main_slash	11	main_slash	111	stimuli_distractor_trianglediamonds.svg	stimuli_distractor_trianglediamonds.svg	34	no	0	1	2000	0	0			0	0			1				0	
6.6.1	mac	2023-06-27	00:19:56	00:29:23	563970	5c0004a72340e10001bfc3a0	4	1	main_slash	11	advance_on_keypress_SLASH	112	stimuli_distractor_trianglediamonds.svg	stimuli_distractor_trianglediamonds.svg	34	no	57	0	373	0	0			0	0			1				0	
6.6.1	mac	2023-06-27	00:19:56	00:29:25	565662	5c0004a72340e10001bfc3a0	4	1	main_slash	11	main_slash	113	stimuli_distractor_diamondtriangles.svg	stimuli_target_diamondsquares.svg	32	yes	53	1	692	0	0			0	0			1				0	
6.6.1	mac	2023-06-27	00:19:56	00:29:25	565662	5c0004a72340e10001bfc3a0	4	1	main_slash	11	advance_on_keypress_SLASH	114	stimuli_distractor_diamondtriangles.svg	stimuli_target_diamondsquares.svg	32	yes	57	0	100	0	0			0	0			1				0	
6.6.1	mac	2023-06-27	00:19:56	00:29:27	568387	5c0004a72340e10001bfc3a0	4	1	main_slash	11	main_slash	115	stimuli_distractor_trianglediamonds.svg	stimuli_distractor_diamondtriangles.svg	36	no	0	1	2000	0	0			0	0			1				0	
6.6.1	mac	2023-06-27	00:19:56	00:29:27	568387	5c0004a72340e10001bfc3a0	4	1	main_slash	11	advance_on_keypress_SLASH	116	stimuli_distractor_trianglediamonds.svg	stimuli_distractor_diamondtriangles.svg	36	no	57	0	274	0	0			0	0			1				0	
6.6.1	mac	2023-06-27	00:19:56	00:29:30	571287	5c0004a72340e10001bfc3a0	4	1	main_slash	11	main_slash	117	stimuli_distractor_diamondtriangles.svg	stimuli_distractor_trianglediamonds.svg	38	no	0	1	2000	0	0			0	0			1				0	
6.6.1	mac	2023-06-27	00:19:56	00:29:30	571287	5c0004a72340e10001bfc3a0	4	1	main_slash	11	advance_on_keypress_SLASH	118	stimuli_distractor_diamondtriangles.svg	stimuli_distractor_trianglediamonds.svg	38	no	57	0	298	0	0			0	0			1				0	
6.6.1	mac	2023-06-27	00:19:56	00:29:33	574221	5c0004a72340e10001bfc3a0	4	1	main_slash	11	main_slash	119	stimuli_distractor_diamondtriangles.svg	stimuli_distractor_diamondtriangles.svg	39	no	0	1	2000	0	0			0	0			1				0	
6.6.1	mac	2023-06-27	00:19:56	00:29:33	574221	5c0004a72340e10001bfc3a0	4	1	main_slash	11	advance_on_keypress_SLASH	120	stimuli_distractor_diamondtriangles.svg	stimuli_distractor_diamondtriangles.svg	39	no	57	0	485	0	0			0	0			1				0	
6.6.1	mac	2023-06-27	00:19:56	00:29:36	577337	5c0004a72340e10001bfc3a0	4	1	main_slash	11	main_slash	121	stimuli_distractor_diamondtriangles.svg	stimuli_distractor_trianglediamonds.svg	37	no	0	1	2000	0	0			0	0			1				0	
6.6.1	mac	2023-06-27	00:19:56	00:29:36	577337	5c0004a72340e10001bfc3a0	4	1	main_slash	11	advance_on_keypress_SLASH	122	stimuli_distractor_diamondtriangles.svg	stimuli_distractor_trianglediamonds.svg	37	no	57	0	80	0	0			0	0			1				0	
6.6.1	mac	2023-06-27	00:19:56	00:29:38	579379	5c0004a72340e10001bfc3a0	4	1	main_slash	11	main_slash	123	stimuli_target_diamondsquares.svg	stimuli_distractor_trianglediamonds.svg	20	yes	53	1	1342	0	0			0	0			1				0	
6.6.1	mac	2023-06-27	00:19:56	00:29:38	579379	5c0004a72340e10001bfc3a0	4	1	main_slash	11	advance_on_keypress_SLASH	124	stimuli_target_diamondsquares.svg	stimuli_distractor_trianglediamonds.svg	20	yes	57	0	189	0	0			0	0			1				0	
6.6.1	mac	2023-06-27	00:19:56	00:29:40	580793	5c0004a72340e10001bfc3a0	4	1	main_slash	11	main_slash	125	stimuli_distractor_diamondtriangles.svg	stimuli_target_trianglerectangles.svg	29	yes	53	1	606	0	0			0	0			1				0	
6.6.1	mac	2023-06-27	00:19:56	00:29:40	580793	5c0004a72340e10001bfc3a0	4	1	main_slash	11	advance_on_keypress_SLASH	126	stimuli_distractor_diamondtriangles.svg	stimuli_target_trianglerectangles.svg	29	yes	57	0	84	0	0			0	0			1				0	
6.6.1	mac	2023-06-27	00:19:56	00:29:41	582091	5c0004a72340e10001bfc3a0	4	1	main_slash	11	main_slash	127	stimuli_distractor_trianglediamonds.svg	stimuli_target_diamondsquares.svg	28	yes	53	1	588	0	0			0	0			1				0	
6.6.1	mac	2023-06-27	00:19:56	00:29:41	582091	5c0004a72340e10001bfc3a0	4	1	main_slash	11	advance_on_keypress_SLASH	128	stimuli_distractor_trianglediamonds.svg	stimuli_target_diamondsquares.svg	28	yes	57	0	88	0	0			0	0			1				0	
6.6.1	mac	2023-06-27	00:19:56	00:29:42	583331	5c0004a72340e10001bfc3a0	4	1	main_slash	11	main_slash	129	stimuli_distractor_trianglediamonds.svg	stimuli_target_trianglerectangles.svg	25	yes	53	1	528	0	0			0	0			1				0	
6.6.1	mac	2023-06-27	00:19:56	00:29:42	583331	5c0004a72340e10001bfc3a0	4	1	main_slash	11	advance_on_keypress_SLASH	130	stimuli_distractor_trianglediamonds.svg	stimuli_target_trianglerectangles.svg	25	yes	57	0	100	0	0			0	0			1				0	
6.6.1	mac	2023-06-27	00:19:56	00:29:43	584500	5c0004a72340e10001bfc3a0	4	1	main_slash	11	main_slash	131	stimuli_distractor_diamondtriangles.svg	stimuli_target_diamondrectangles.svg	31	yes	53	1	447	0	0			0	0			1				0	
6.6.1	mac	2023-06-27	00:19:56	00:29:43	584500	5c0004a72340e10001bfc3a0	4	1	main_slash	11	advance_on_keypress_SLASH	132	stimuli_distractor_diamondtriangles.svg	stimuli_target_diamondrectangles.svg	31	yes	57	0	94	0	0			0	0			1				0	
6.6.1	mac	2023-06-27	00:19:56	00:29:45	585743	5c0004a72340e10001bfc3a0	4	1	main_slash	11	main_slash	133	stimuli_distractor_diamondtriangles.svg	stimuli_distractor_diamondtriangles.svg	40	no	53	0	523	0	0			0	0			1				0	
6.6.1	mac	2023-06-27	00:19:56	00:29:45	585743	5c0004a72340e10001bfc3a0	4	1	main_slash	11	advance_on_keypress_SLASH	134	stimuli_distractor_diamondtriangles.svg	stimuli_distractor_diamondtriangles.svg	40	no	57	0	690	0	0			0	0			1				0	
6.6.1	mac	2023-06-27	00:19:56	00:29:47	588176	5c0004a72340e10001bfc3a0	4	1	main_slash	11	main_slash	135	stimuli_target_trianglesquares.svg	stimuli_distractor_trianglediamonds.svg	18	yes	53	1	1123	0	0			0	0			1				0	
6.6.1	mac	2023-06-27	00:19:56	00:29:47	588176	5c0004a72340e10001bfc3a0	4	1	main_slash	11	advance_on_keypress_SLASH	136	stimuli_target_trianglesquares.svg	stimuli_distractor_trianglediamonds.svg	18	yes	57	0	97	0	0			0	0			1				0	
6.6.1	mac	2023-06-27	00:19:56	00:29:49	590089	5c0004a72340e10001bfc3a0	4	1	main_slash	11	main_slash	137	stimuli_distractor_diamondtriangles.svg	stimuli_target_rectangletriangles.svg	13	yes	53	1	1203	0	0			0	0			1				0	
6.6.1	mac	2023-06-27	00:19:56	00:29:49	590089	5c0004a72340e10001bfc3a0	4	1	main_slash	11	advance_on_keypress_SLASH	138	stimuli_distractor_diamondtriangles.svg	stimuli_target_rectangletriangles.svg	13	yes	57	0	78	0	0			0	0			1				0	
6.6.1	mac	2023-06-27	00:19:56	00:29:50	591337	5c0004a72340e10001bfc3a0	4	1	main_slash	11	main_slash	139	stimuli_target_rectangletriangles.svg	stimuli_distractor_diamondtriangles.svg	5	yes	53	1	550	0	0			0	0			1				0	
6.6.1	mac	2023-06-27	00:19:56	00:29:50	591337	5c0004a72340e10001bfc3a0	4	1	main_slash	11	advance_on_keypress_SLASH	140	stimuli_target_rectangletriangles.svg	stimuli_distractor_diamondtriangles.svg	5	yes	57	0	51	0	0			0	0			1				0	
6.6.1	mac	2023-06-27	00:19:56	00:29:52	593072	5c0004a72340e10001bfc3a0	4	1	main_slash	11	main_slash	141	stimuli_distractor_diamondtriangles.svg	stimuli_target_trianglesquares.svg	30	yes	53	1	1051	0	0			0	0			1				0	
6.6.1	mac	2023-06-27	00:19:56	00:29:52	593072	5c0004a72340e10001bfc3a0	4	1	main_slash	11	advance_on_keypress_SLASH	142	stimuli_distractor_diamondtriangles.svg	stimuli_target_trianglesquares.svg	30	yes	57	0	52	0	0			0	0			1				0	
6.6.1	mac	2023-06-27	00:19:56	00:29:54	594798	5c0004a72340e10001bfc3a0	4	1	main_slash	11	main_slash	143	stimuli_distractor_trianglediamonds.svg	stimuli_target_rectanglediamonds.svg	10	yes	53	1	1043	0	0			0	0			1				0	
6.6.1	mac	2023-06-27	00:19:56	00:29:54	594798	5c0004a72340e10001bfc3a0	4	1	main_slash	11	advance_on_keypress_SLASH	144	stimuli_distractor_trianglediamonds.svg	stimuli_target_rectanglediamonds.svg	10	yes	57	0	73	0	0			0	0			1				0	
6.6.1	mac	2023-06-27	00:19:56	00:29:55	596046	5c0004a72340e10001bfc3a0	4	1	main_slash	11	main_slash	145	stimuli_target_squarediamonds.svg	stimuli_distractor_diamondtriangles.svg	8	yes	53	1	558	0	0			0	0			1				0	
6.6.1	mac	2023-06-27	00:19:56	00:29:55	596046	5c0004a72340e10001bfc3a0	4	1	main_slash	11	advance_on_keypress_SLASH	146	stimuli_target_squarediamonds.svg	stimuli_distractor_diamondtriangles.svg	8	yes	57	0	451	0	0			0	0			1				0	
6.6.1	mac	2023-06-27	00:19:56	00:29:57	597623	5c0004a72340e10001bfc3a0	4	1	main_slash	11	main_slash	147	stimuli_target_rectangletriangles.svg	stimuli_distractor_trianglediamonds.svg	1	yes	53	1	502	0	0			0	0			1				0	
6.6.1	mac	2023-06-27	00:19:56	00:29:57	597623	5c0004a72340e10001bfc3a0	4	1	main_slash	11	advance_on_keypress_SLASH	148	stimuli_target_rectangletriangles.svg	stimuli_distractor_trianglediamonds.svg	1	yes	57	0	70	0	0			0	0			1				0	
6.6.1	mac	2023-06-27	00:19:56	00:29:58	598909	5c0004a72340e10001bfc3a0	4	1	main_slash	11	main_slash	149	stimuli_distractor_diamondtriangles.svg	stimuli_target_squaretriangles.svg	15	yes	53	1	589	0	0			0	0			1				0	
6.6.1	mac	2023-06-27	00:19:56	00:29:58	598909	5c0004a72340e10001bfc3a0	4	1	main_slash	11	advance_on_keypress_SLASH	150	stimuli_distractor_diamondtriangles.svg	stimuli_target_squaretriangles.svg	15	yes	57	0	294	0	0			0	0			1				0	
6.6.1	mac	2023-06-27	00:19:56	00:30:01	601820	5c0004a72340e10001bfc3a0	4	1	main_slash	11	main_slash	151	stimuli_target_trianglerectangles.svg	stimuli_distractor_trianglediamonds.svg	17	yes	0	0	2000	0	0			0	0			1				0	
6.6.1	mac	2023-06-27	00:19:56	00:30:01	601820	5c0004a72340e10001bfc3a0	4	1	main_slash	11	advance_on_keypress_SLASH	152	stimuli_target_trianglerectangles.svg	stimuli_distractor_trianglediamonds.svg	17	yes	57	0	249	0	0			0	0			1				0	
6.6.1	mac	2023-06-27	00:19:56	00:30:03	603594	5c0004a72340e10001bfc3a0	4	1	main_slash	11	main_slash	153	stimuli_target_squaretriangles.svg	stimuli_distractor_trianglediamonds.svg	3	yes	53	1	890	0	0			0	0			1				0	
6.6.1	mac	2023-06-27	00:19:56	00:30:03	603594	5c0004a72340e10001bfc3a0	4	1	main_slash	11	advance_on_keypress_SLASH	154	stimuli_target_squaretriangles.svg	stimuli_distractor_trianglediamonds.svg	3	yes	57	0	84	0	0			0	0			1				0	
6.6.1	mac	2023-06-27	00:19:56	00:30:04	604705	5c0004a72340e10001bfc3a0	4	1	main_slash	11	main_slash	155	stimuli_target_squarediamonds.svg	stimuli_distractor_trianglediamonds.svg	4	yes	53	1	402	0	0			0	0			1				0	
6.6.1	mac	2023-06-27	00:19:56	00:30:04	604705	5c0004a72340e10001bfc3a0	4	1	main_slash	11	advance_on_keypress_SLASH	156	stimuli_target_squarediamonds.svg	stimuli_distractor_trianglediamonds.svg	4	yes	57	0	77	0	0			0	0			1				0	
6.6.1	mac	2023-06-27	00:19:56	00:30:05	605975	5c0004a72340e10001bfc3a0	4	1	main_slash	11	main_slash	157	stimuli_distractor_trianglediamonds.svg	stimuli_target_trianglesquares.svg	26	yes	53	1	572	0	0			0	0			1				0	
6.6.1	mac	2023-06-27	00:19:56	00:30:05	605975	5c0004a72340e10001bfc3a0	4	1	main_slash	11	advance_on_keypress_SLASH	158	stimuli_distractor_trianglediamonds.svg	stimuli_target_trianglesquares.svg	26	yes	57	0	128	0	0			0	0			1				0	
6.6.1	mac	2023-06-27	00:19:56	00:30:06	607457	5c0004a72340e10001bfc3a0	4	1	main_slash	11	main_slash	159	stimuli_distractor_trianglediamonds.svg	stimuli_target_rectangletriangles.svg	9	yes	53	1	720	0	0			0	0			1				0	
6.6.1	mac	2023-06-27	00:19:56	00:30:06	607457	5c0004a72340e10001bfc3a0	4	1	main_slash	11	advance_on_keypress_SLASH	160	stimuli_distractor_trianglediamonds.svg	stimuli_target_rectangletriangles.svg	9	yes	57	0	119	0	0			0	0			1				0	
6.6.1	mac	2023-06-27	00:19:56	00:30:06	607457	5c0004a72340e10001bfc3a0	4	1	headphonecheck_calibration	14	headphonecheck_calibrationIntro	1	stimuli_distractor_trianglediamonds.svg	stimuli_target_rectangletriangles.svg	9	yes	calibrationButton	0	2076	0	0			0	0			1				0	
6.6.1	mac	2023-06-27	00:19:56	00:30:06	607457	5c0004a72340e10001bfc3a0	4	1	headphonecheck_testphase	15	test_collectResponse	3	stimuli_distractor_trianglediamonds.svg	stimuli_target_rectangletriangles.svg	9	yes	second	1	176	1	1	antiphase_hc_iso.wav	2	0	0			1				0	
6.6.1	mac	2023-06-27	00:19:56	00:30:06	607457	5c0004a72340e10001bfc3a0	4	1	headphonecheck_testphase	15	test_collectResponse	6	stimuli_distractor_trianglediamonds.svg	stimuli_target_rectangletriangles.svg	9	yes	first	1	476	2	4	antiphase_hc_sio.wav	1	0	0			1				0	
6.6.1	mac	2023-06-27	00:19:56	00:30:06	607457	5c0004a72340e10001bfc3a0	4	1	headphonecheck_testphase	15	test_collectResponse	9	stimuli_distractor_trianglediamonds.svg	stimuli_target_rectangletriangles.svg	9	yes	third	1	76	3	2	antiphase_hc_ios.wav	3	0	0			1				0	
6.6.1	mac	2023-06-27	00:19:56	00:30:06	607457	5c0004a72340e10001bfc3a0	4	1	headphonecheck_testphase	15	test_collectResponse	12	stimuli_distractor_trianglediamonds.svg	stimuli_target_rectangletriangles.svg	9	yes	third	1	225	4	6	antiphase_hc_ois.wav	3	0	0			1				0	
6.6.1	mac	2023-06-27	00:19:56	00:30:06	607457	5c0004a72340e10001bfc3a0	4	1	headphonecheck_testphase	15	test_collectResponse	15	stimuli_distractor_trianglediamonds.svg	stimuli_target_rectangletriangles.svg	9	yes	second	1	426	5	5	antiphase_hc_osi.wav	2	0	0			1				0	
6.6.1	mac	2023-06-27	00:19:56	00:30:06	607457	5c0004a72340e10001bfc3a0	4	1	headphonecheck_testphase	15	test_collectResponse	18	stimuli_distractor_trianglediamonds.svg	stimuli_target_rectangletriangles.svg	9	yes	first	1	260	6	3	antiphase_hc_soi.wav	1	0	0			1				0	
6.6.1	mac	2023-06-27	00:19:56	00:30:06	607457	5c0004a72340e10001bfc3a0	4	1	stereocheck_calibration	17	stereocheck_calibrationIntro	1	stimuli_distractor_trianglediamonds.svg	stimuli_target_rectangletriangles.svg	9	yes	stereocheck_calibrationButton	0	3655	6	3	antiphase_hc_soi.wav	1	0	0			1				0	
6.6.1	mac	2023-06-27	00:19:56	00:30:06	607457	5c0004a72340e10001bfc3a0	4	1	stereocheck_testphase	18	stereocheck_test_collectResponse	3	stimuli_distractor_trianglediamonds.svg	stimuli_target_rectangletriangles.svg	9	yes	stereocheck_right	1	342	6	3	antiphase_hc_soi.wav	1	1	6	noise_calib_stim_RIGHT.wav	2	1				0	
6.6.1	mac	2023-06-27	00:19:56	00:30:06	607457	5c0004a72340e10001bfc3a0	4	1	stereocheck_testphase	18	stereocheck_test_collectResponse	6	stimuli_distractor_trianglediamonds.svg	stimuli_target_rectangletriangles.svg	9	yes	stereocheck_right	1	309	6	3	antiphase_hc_soi.wav	1	2	5	noise_calib_stim_RIGHT.wav	2	1				0	
6.6.1	mac	2023-06-27	00:19:56	00:30:06	607457	5c0004a72340e10001bfc3a0	4	1	stereocheck_testphase	18	stereocheck_test_collectResponse	9	stimuli_distractor_trianglediamonds.svg	stimuli_target_rectangletriangles.svg	9	yes	stereocheck_left	1	259	6	3	antiphase_hc_soi.wav	1	3	1	noise_calib_stim_LEFT.wav	1	1				0	
6.6.1	mac	2023-06-27	00:19:56	00:30:06	607457	5c0004a72340e10001bfc3a0	4	1	stereocheck_testphase	18	stereocheck_test_collectResponse	12	stimuli_distractor_trianglediamonds.svg	stimuli_target_rectangletriangles.svg	9	yes	stereocheck_left	1	375	6	3	antiphase_hc_soi.wav	1	4	3	noise_calib_stim_LEFT.wav	1	1				0	
6.6.1	mac	2023-06-27	00:19:56	00:30:06	607457	5c0004a72340e10001bfc3a0	4	1	stereocheck_testphase	18	stereocheck_test_collectResponse	15	stimuli_distractor_trianglediamonds.svg	stimuli_target_rectangletriangles.svg	9	yes	stereocheck_left	1	176	6	3	antiphase_hc_soi.wav	1	5	2	noise_calib_stim_LEFT.wav	1	1				0	
6.6.1	mac	2023-06-27	00:19:56	00:30:06	607457	5c0004a72340e10001bfc3a0	4	1	stereocheck_testphase	18	stereocheck_test_collectResponse	18	stimuli_distractor_trianglediamonds.svg	stimuli_target_rectangletriangles.svg	9	yes	stereocheck_right	1	825	6	3	antiphase_hc_soi.wav	1	6	4	noise_calib_stim_RIGHT.wav	2	1				0	
6.6.1	mac	2023-06-27	00:19:56	00:30:06	607457	5c0004a72340e10001bfc3a0	4	1	DL_practice	21	DL_practice	2	stimuli_distractor_trianglediamonds.svg	stimuli_target_rectangletriangles.svg	9	yes	da	1	1327	6	3	antiphase_hc_soi.wav	1	6	4	noise_calib_stim_RIGHT.wav	2	7	blb_dichoticlistening_da-ba.mp3	da	ba	1	left
6.6.1	mac	2023-06-27	00:19:56	00:30:06	607457	5c0004a72340e10001bfc3a0	4	1	DL_practice	21	DL_practice	3	stimuli_distractor_trianglediamonds.svg	stimuli_target_rectangletriangles.svg	9	yes	ta	1	1527	6	3	antiphase_hc_soi.wav	1	6	4	noise_calib_stim_RIGHT.wav	2	36	blb_dichoticlistening_ta-ta.mp3	ta	ta	0	left
6.6.1	mac	2023-06-27	00:19:56	00:30:06	607457	5c0004a72340e10001bfc3a0	4	1	DL_practice	21	DL_practice	4	stimuli_distractor_trianglediamonds.svg	stimuli_target_rectangletriangles.svg	9	yes	da	1	1343	6	3	antiphase_hc_soi.wav	1	6	4	noise_calib_stim_RIGHT.wav	2	8	blb_dichoticlistening_da-da.mp3	da	da	0	left
6.6.1	mac	2023-06-27	00:19:56	00:30:06	607457	5c0004a72340e10001bfc3a0	4	1	DL_practice	21	DL_practice	5	stimuli_distractor_trianglediamonds.svg	stimuli_target_rectangletriangles.svg	9	yes	ka	1	1260	6	3	antiphase_hc_soi.wav	1	6	4	noise_calib_stim_RIGHT.wav	2	22	blb_dichoticlistening_ka-ka.mp3	ka	ka	0	left
6.6.1	mac	2023-06-27	00:19:56	00:30:06	607457	5c0004a72340e10001bfc3a0	4	1	DL_practice	21	DL_practice	6	stimuli_distractor_trianglediamonds.svg	stimuli_target_rectangletriangles.svg	9	yes	ka	0	1160	6	3	antiphase_hc_soi.wav	1	6	4	noise_calib_stim_RIGHT.wav	2	18	blb_dichoticlistening_ga-ta.mp3	ga	ta	1	other
6.6.1	mac	2023-06-27	00:19:56	00:30:06	607457	5c0004a72340e10001bfc3a0	4	1	DL_practice	21	DL_practice	7	stimuli_distractor_trianglediamonds.svg	stimuli_target_rectangletriangles.svg	9	yes	pa	1	1793	6	3	antiphase_hc_soi.wav	1	6	4	noise_calib_stim_RIGHT.wav	2	23	blb_dichoticlistening_ka-pa.mp3	ka	pa	1	right
6.6.1	mac	2023-06-27	00:19:56	00:30:06	607457	5c0004a72340e10001bfc3a0	4	1	DL_practice	21	DL_practice	8	stimuli_distractor_trianglediamonds.svg	stimuli_target_rectangletriangles.svg	9	yes	ba	1	1293	6	3	antiphase_hc_soi.wav	1	6	4	noise_calib_stim_RIGHT.wav	2	1	blb_dichoticlistening_ba-ba.mp3	ba	ba	0	left
6.6.1	mac	2023-06-27	00:19:56	00:30:06	607457	5c0004a72340e10001bfc3a0	4	1	DL_practice	21	DL_practice	9	stimuli_distractor_trianglediamonds.svg	stimuli_target_rectangletriangles.svg	9	yes	pa	1	1943	6	3	antiphase_hc_soi.wav	1	6	4	noise_calib_stim_RIGHT.wav	2	29	blb_dichoticlistening_pa-pa.mp3	pa	pa	0	left
6.6.1	mac	2023-06-27	00:19:56	00:30:06	607457	5c0004a72340e10001bfc3a0	4	1	DL_practice	21	DL_practice	10	stimuli_distractor_trianglediamonds.svg	stimuli_target_rectangletriangles.svg	9	yes	ga	1	1143	6	3	antiphase_hc_soi.wav	1	6	4	noise_calib_stim_RIGHT.wav	2	15	blb_dichoticlistening_ga-ga.mp3	ga	ga	0	left
6.6.1	mac	2023-06-27	00:19:56	00:30:06	607457	5c0004a72340e10001bfc3a0	4	1	DL_test	23	DL_test	1	stimuli_distractor_trianglediamonds.svg	stimuli_target_rectangletriangles.svg	9	yes	ta	1	2209	6	3	antiphase_hc_soi.wav	1	6	4	noise_calib_stim_RIGHT.wav	2	30	blb_dichoticlistening_pa-ta.mp3	pa	ta	1	right
6.6.1	mac	2023-06-27	00:19:56	00:30:06	607457	5c0004a72340e10001bfc3a0	4	1	DL_test	23	DL_test	2	stimuli_distractor_trianglediamonds.svg	stimuli_target_rectangletriangles.svg	9	yes	ta	0	92	6	3	antiphase_hc_soi.wav	1	6	4	noise_calib_stim_RIGHT.wav	2	4	blb_dichoticlistening_ba-ka.mp3	ba	ka	1	other
6.6.1	mac	2023-06-27	00:19:56	00:30:06	607457	5c0004a72340e10001bfc3a0	4	1	DL_test	23	DL_test	3	stimuli_distractor_trianglediamonds.svg	stimuli_target_rectangletriangles.svg	9	yes	da	1	1259	6	3	antiphase_hc_soi.wav	1	6	4	noise_calib_stim_RIGHT.wav	2	7	blb_dichoticlistening_da-ba.mp3	da	ba	1	left
6.6.1	mac	2023-06-27	00:19:56	00:30:06	607457	5c0004a72340e10001bfc3a0	4	1	DL_test	23	DL_test	4	stimuli_distractor_trianglediamonds.svg	stimuli_target_rectangletriangles.svg	9	yes	ka	0	1709	6	3	antiphase_hc_soi.wav	1	6	4	noise_calib_stim_RIGHT.wav	2	18	blb_dichoticlistening_ga-ta.mp3	ga	ta	1	other
6.6.1	mac	2023-06-27	00:19:56	00:30:06	607457	5c0004a72340e10001bfc3a0	4	1	DL_test	23	DL_test	5	stimuli_distractor_trianglediamonds.svg	stimuli_target_rectangletriangles.svg	9	yes	da	1	1076	6	3	antiphase_hc_soi.wav	1	6	4	noise_calib_stim_RIGHT.wav	2	8	blb_dichoticlistening_da-da.mp3	da	da	0	left
6.6.1	mac	2023-06-27	00:19:56	00:30:06	607457	5c0004a72340e10001bfc3a0	4	1	DL_test	23	DL_test	6	stimuli_distractor_trianglediamonds.svg	stimuli_target_rectangletriangles.svg	9	yes	pa	1	1259	6	3	antiphase_hc_soi.wav	1	6	4	noise_calib_stim_RIGHT.wav	2	29	blb_dichoticlistening_pa-pa.mp3	pa	pa	0	left
6.6.1	mac	2023-06-27	00:19:56	00:30:06	607457	5c0004a72340e10001bfc3a0	4	1	DL_test	23	DL_test	7	stimuli_distractor_trianglediamonds.svg	stimuli_target_rectangletriangles.svg	9	yes	ta	0	1625	6	3	antiphase_hc_soi.wav	1	6	4	noise_calib_stim_RIGHT.wav	2	11	blb_dichoticlistening_da-pa.mp3	da	pa	1	other
6.6.1	mac	2023-06-27	00:19:56	00:30:06	607457	5c0004a72340e10001bfc3a0	4	1	DL_test	23	DL_test	8	stimuli_distractor_trianglediamonds.svg	stimuli_target_rectangletriangles.svg	9	yes	ka	1	1059	6	3	antiphase_hc_soi.wav	1	6	4	noise_calib_stim_RIGHT.wav	2	21	blb_dichoticlistening_ka-ga.mp3	ka	ga	1	left
6.6.1	mac	2023-06-27	00:19:56	00:30:06	607457	5c0004a72340e10001bfc3a0	4	1	DL_test	23	DL_test	9	stimuli_distractor_trianglediamonds.svg	stimuli_target_rectangletriangles.svg	9	yes	ga	1	1475	6	3	antiphase_hc_soi.wav	1	6	4	noise_calib_stim_RIGHT.wav	2	14	blb_dichoticlistening_ga-da.mp3	ga	da	1	left
6.6.1	mac	2023-06-27	00:19:56	00:30:06	607457	5c0004a72340e10001bfc3a0	4	1	DL_test	23	DL_test	10	stimuli_distractor_trianglediamonds.svg	stimuli_target_rectangletriangles.svg	9	yes	ka	1	1092	6	3	antiphase_hc_soi.wav	1	6	4	noise_calib_stim_RIGHT.wav	2	23	blb_dichoticlistening_ka-pa.mp3	ka	pa	1	left
6.6.1	mac	2023-06-27	00:19:56	00:30:06	607457	5c0004a72340e10001bfc3a0	4	1	DL_test	23	DL_test	11	stimuli_distractor_trianglediamonds.svg	stimuli_target_rectangletriangles.svg	9	yes	da	1	1192	6	3	antiphase_hc_soi.wav	1	6	4	noise_calib_stim_RIGHT.wav	2	9	blb_dichoticlistening_da-ga.mp3	da	ga	1	left
6.6.1	mac	2023-06-27	00:19:56	00:30:06	607457	5c0004a72340e10001bfc3a0	4	1	DL_test	23	DL_test	12	stimuli_distractor_trianglediamonds.svg	stimuli_target_rectangletriangles.svg	9	yes	pa	1	1276	6	3	antiphase_hc_soi.wav	1	6	4	noise_calib_stim_RIGHT.wav	2	25	blb_dichoticlistening_pa-ba.mp3	pa	ba	1	left
6.6.1	mac	2023-06-27	00:19:56	00:30:06	607457	5c0004a72340e10001bfc3a0	4	1	DL_test	23	DL_test	13	stimuli_distractor_trianglediamonds.svg	stimuli_target_rectangletriangles.svg	9	yes	ka	1	1960	6	3	antiphase_hc_soi.wav	1	6	4	noise_calib_stim_RIGHT.wav	2	16	blb_dichoticlistening_ga-ka.mp3	ga	ka	1	right
6.6.1	mac	2023-06-27	00:19:56	00:30:06	607457	5c0004a72340e10001bfc3a0	4	1	DL_test	23	DL_test	14	stimuli_distractor_trianglediamonds.svg	stimuli_target_rectangletriangles.svg	9	yes	pa	1	1175	6	3	antiphase_hc_soi.wav	1	6	4	noise_calib_stim_RIGHT.wav	2	27	blb_dichoticlistening_pa-ga.mp3	pa	ga	1	left
6.6.1	mac	2023-06-27	00:19:56	00:30:06	607457	5c0004a72340e10001bfc3a0	4	1	DL_test	23	DL_test	15	stimuli_distractor_trianglediamonds.svg	stimuli_target_rectangletriangles.svg	9	yes	da	0	1376	6	3	antiphase_hc_soi.wav	1	6	4	noise_calib_stim_RIGHT.wav	2	3	blb_dichoticlistening_ba-ga.mp3	ba	ga	1	other
6.6.1	mac	2023-06-27	00:19:56	00:30:06	607457	5c0004a72340e10001bfc3a0	4	1	DL_test	23	DL_test	16	stimuli_distractor_trianglediamonds.svg	stimuli_target_rectangletriangles.svg	9	yes	pa	1	1521	6	3	antiphase_hc_soi.wav	1	6	4	noise_calib_stim_RIGHT.wav	2	5	blb_dichoticlistening_ba-pa.mp3	ba	pa	1	right
6.6.1	mac	2023-06-27	00:19:56	00:30:06	607457	5c0004a72340e10001bfc3a0	4	1	DL_test	23	DL_test	17	stimuli_distractor_trianglediamonds.svg	stimuli_target_rectangletriangles.svg	9	yes	ka	1	1125	6	3	antiphase_hc_soi.wav	1	6	4	noise_calib_stim_RIGHT.wav	2	20	blb_dichoticlistening_ka-da.mp3	ka	da	1	left
6.6.1	mac	2023-06-27	00:19:56	00:30:06	607457	5c0004a72340e10001bfc3a0	4	1	DL_test	23	DL_test	18	stimuli_distractor_trianglediamonds.svg	stimuli_target_rectangletriangles.svg	9	yes	ka	1	892	6	3	antiphase_hc_soi.wav	1	6	4	noise_calib_stim_RIGHT.wav	2	19	blb_dichoticlistening_ka-ba.mp3	ka	ba	1	left
6.6.1	mac	2023-06-27	00:19:56	00:30:06	607457	5c0004a72340e10001bfc3a0	4	1	DL_test	23	DL_test	19	stimuli_distractor_trianglediamonds.svg	stimuli_target_rectangletriangles.svg	9	yes	ta	1	1492	6	3	antiphase_hc_soi.wav	1	6	4	noise_calib_stim_RIGHT.wav	2	33	blb_dichoticlistening_ta-ga.mp3	ta	ga	1	left
6.6.1	mac	2023-06-27	00:19:56	00:30:06	607457	5c0004a72340e10001bfc3a0	4	1	DL_test	23	DL_test	20	stimuli_distractor_trianglediamonds.svg	stimuli_target_rectangletriangles.svg	9	yes	ta	1	1259	6	3	antiphase_hc_soi.wav	1	6	4	noise_calib_stim_RIGHT.wav	2	6	blb_dichoticlistening_ba-ta.mp3	ba	ta	1	right
6.6.1	mac	2023-06-27	00:19:56	00:30:06	607457	5c0004a72340e10001bfc3a0	4	1	DL_test	23	DL_test	21	stimuli_distractor_trianglediamonds.svg	stimuli_target_rectangletriangles.svg	9	yes	ta	1	892	6	3	antiphase_hc_soi.wav	1	6	4	noise_calib_stim_RIGHT.wav	2	12	blb_dichoticlistening_da-ta.mp3	da	ta	1	right
6.6.1	mac	2023-06-27	00:19:56	00:30:06	607457	5c0004a72340e10001bfc3a0	4	1	DL_test	23	DL_test	22	stimuli_distractor_trianglediamonds.svg	stimuli_target_rectangletriangles.svg	9	yes	ba	1	1575	6	3	antiphase_hc_soi.wav	1	6	4	noise_calib_stim_RIGHT.wav	2	1	blb_dichoticlistening_ba-ba.mp3	ba	ba	0	left
6.6.1	mac	2023-06-27	00:19:56	00:30:06	607457	5c0004a72340e10001bfc3a0	4	1	DL_test	23	DL_test	23	stimuli_distractor_trianglediamonds.svg	stimuli_target_rectangletriangles.svg	9	yes	pa	1	1192	6	3	antiphase_hc_soi.wav	1	6	4	noise_calib_stim_RIGHT.wav	2	28	blb_dichoticlistening_pa-ka.mp3	pa	ka	1	left
6.6.1	mac	2023-06-27	00:19:56	00:30:06	607457	5c0004a72340e10001bfc3a0	4	1	DL_test	23	DL_test	24	stimuli_distractor_trianglediamonds.svg	stimuli_target_rectangletriangles.svg	9	yes	pa	0	1592	6	3	antiphase_hc_soi.wav	1	6	4	noise_calib_stim_RIGHT.wav	2	10	blb_dichoticlistening_da-ka.mp3	da	ka	1	other
6.6.1	mac	2023-06-27	00:19:56	00:30:06	607457	5c0004a72340e10001bfc3a0	4	1	DL_test	23	DL_test	25	stimuli_distractor_trianglediamonds.svg	stimuli_target_rectangletriangles.svg	9	yes	ka	1	1193	6	3	antiphase_hc_soi.wav	1	6	4	noise_calib_stim_RIGHT.wav	2	34	blb_dichoticlistening_ta-ka.mp3	ta	ka	1	right
6.6.1	mac	2023-06-27	00:19:56	00:30:06	607457	5c0004a72340e10001bfc3a0	4	1	DL_test	23	DL_test	26	stimuli_distractor_trianglediamonds.svg	stimuli_target_rectangletriangles.svg	9	yes	pa	1	993	6	3	antiphase_hc_soi.wav	1	6	4	noise_calib_stim_RIGHT.wav	2	17	blb_dichoticlistening_ga-pa.mp3	ga	pa	1	right
