build	computer.platform	date	time	timestamp	time_elapsed_ms	subject	group	session	blockcode	blocknum	trialcode	trialnum	stimulus_left	stimulus_right	stim_index	target_present	response	correct	latency	headphonecheck_countTestTrials	headphonecheck_index	headphonecheck_testSound	headphonecheck_correctResponse	stereocheck_countTestTrials	stereocheck_index	stereocheck_testSound	stereocheck_correctResponse	DL_index	DL_soundfile	DL_leftSound	DL_rightSound	DL_dualSound	DL_choice
6.6.1	win	2023-06-27	08:40:13	0	0	58061b34c7b1100001138a1e	1	1	headphonecheck_calibration	4	headphonecheck_calibrationIntro	1			0		calibrationButton	0	3025	0	0			0	0			1				0	
6.6.1	win	2023-06-27	08:40:13	0	0	58061b34c7b1100001138a1e	1	1	headphonecheck_testphase	5	test_collectResponse	3			0		first	1	414	1	4	antiphase_hc_sio.wav	1	0	0			1				0	
6.6.1	win	2023-06-27	08:40:13	0	0	58061b34c7b1100001138a1e	1	1	headphonecheck_testphase	5	test_collectResponse	6			0		second	1	712	2	5	antiphase_hc_osi.wav	2	0	0			1				0	
6.6.1	win	2023-06-27	08:40:13	0	0	58061b34c7b1100001138a1e	1	1	headphonecheck_testphase	5	test_collectResponse	9			0		second	1	632	3	1	antiphase_hc_iso.wav	2	0	0			1				0	
6.6.1	win	2023-06-27	08:40:13	0	0	58061b34c7b1100001138a1e	1	1	headphonecheck_testphase	5	test_collectResponse	12			0		first	1	406	4	3	antiphase_hc_soi.wav	1	0	0			1				0	
6.6.1	win	2023-06-27	08:40:13	0	0	58061b34c7b1100001138a1e	1	1	headphonecheck_testphase	5	test_collectResponse	15			0		third	1	363	5	6	antiphase_hc_ois.wav	3	0	0			1				0	
6.6.1	win	2023-06-27	08:40:13	0	0	58061b34c7b1100001138a1e	1	1	headphonecheck_testphase	5	test_collectResponse	18			0		third	1	545	6	2	antiphase_hc_ios.wav	3	0	0			1				0	
6.6.1	win	2023-06-27	08:40:13	0	0	58061b34c7b1100001138a1e	1	1	stereocheck_calibration	7	stereocheck_calibrationIntro	1			0		stereocheck_calibrationButton	0	5752	6	2	antiphase_hc_ios.wav	3	0	0			1				0	
6.6.1	win	2023-06-27	08:40:13	0	0	58061b34c7b1100001138a1e	1	1	stereocheck_testphase	8	stereocheck_test_collectResponse	3			0		stereocheck_left	1	326	6	2	antiphase_hc_ios.wav	3	1	2	noise_calib_stim_LEFT.wav	1	1				0	
6.6.1	win	2023-06-27	08:40:13	0	0	58061b34c7b1100001138a1e	1	1	stereocheck_testphase	8	stereocheck_test_collectResponse	6			0		stereocheck_right	1	308	6	2	antiphase_hc_ios.wav	3	2	5	noise_calib_stim_RIGHT.wav	2	1				0	
6.6.1	win	2023-06-27	08:40:13	0	0	58061b34c7b1100001138a1e	1	1	stereocheck_testphase	8	stereocheck_test_collectResponse	9			0		stereocheck_left	1	299	6	2	antiphase_hc_ios.wav	3	3	1	noise_calib_stim_LEFT.wav	1	1				0	
6.6.1	win	2023-06-27	08:40:13	0	0	58061b34c7b1100001138a1e	1	1	stereocheck_testphase	8	stereocheck_test_collectResponse	12			0		stereocheck_left	1	283	6	2	antiphase_hc_ios.wav	3	4	3	noise_calib_stim_LEFT.wav	1	1				0	
6.6.1	win	2023-06-27	08:40:13	0	0	58061b34c7b1100001138a1e	1	1	stereocheck_testphase	8	stereocheck_test_collectResponse	15			0		stereocheck_right	1	348	6	2	antiphase_hc_ios.wav	3	5	4	noise_calib_stim_RIGHT.wav	2	1				0	
6.6.1	win	2023-06-27	08:40:13	0	0	58061b34c7b1100001138a1e	1	1	stereocheck_testphase	8	stereocheck_test_collectResponse	18			0		stereocheck_right	1	346	6	2	antiphase_hc_ios.wav	3	6	6	noise_calib_stim_RIGHT.wav	2	1				0	
6.6.1	win	2023-06-27	08:40:13	0	0	58061b34c7b1100001138a1e	1	1	DL_practice	11	DL_practice	2			0		ba	1	1210	6	2	antiphase_hc_ios.wav	3	6	6	noise_calib_stim_RIGHT.wav	2	1	blb_dichoticlistening_ba-ba.mp3	ba	ba	0	left
6.6.1	win	2023-06-27	08:40:13	0	0	58061b34c7b1100001138a1e	1	1	DL_practice	11	DL_practice	3			0		ka	0	1377	6	2	antiphase_hc_ios.wav	3	6	6	noise_calib_stim_RIGHT.wav	2	18	blb_dichoticlistening_ga-ta.mp3	ga	ta	1	other
6.6.1	win	2023-06-27	08:40:13	0	0	58061b34c7b1100001138a1e	1	1	DL_practice	11	DL_practice	4			0		ka	1	1055	6	2	antiphase_hc_ios.wav	3	6	6	noise_calib_stim_RIGHT.wav	2	22	blb_dichoticlistening_ka-ka.mp3	ka	ka	0	left
6.6.1	win	2023-06-27	08:40:13	0	0	58061b34c7b1100001138a1e	1	1	DL_practice	11	DL_practice	5			0		pa	1	1171	6	2	antiphase_hc_ios.wav	3	6	6	noise_calib_stim_RIGHT.wav	2	23	blb_dichoticlistening_ka-pa.mp3	ka	pa	1	right
6.6.1	win	2023-06-27	08:40:13	0	0	58061b34c7b1100001138a1e	1	1	DL_practice	11	DL_practice	6			0		pa	1	992	6	2	antiphase_hc_ios.wav	3	6	6	noise_calib_stim_RIGHT.wav	2	29	blb_dichoticlistening_pa-pa.mp3	pa	pa	0	left
6.6.1	win	2023-06-27	08:40:13	0	0	58061b34c7b1100001138a1e	1	1	DL_practice	11	DL_practice	7			0		ta	1	1384	6	2	antiphase_hc_ios.wav	3	6	6	noise_calib_stim_RIGHT.wav	2	36	blb_dichoticlistening_ta-ta.mp3	ta	ta	0	left
6.6.1	win	2023-06-27	08:40:13	0	0	58061b34c7b1100001138a1e	1	1	DL_practice	11	DL_practice	8			0		da	1	1220	6	2	antiphase_hc_ios.wav	3	6	6	noise_calib_stim_RIGHT.wav	2	7	blb_dichoticlistening_da-ba.mp3	da	ba	1	left
6.6.1	win	2023-06-27	08:40:13	0	0	58061b34c7b1100001138a1e	1	1	DL_practice	11	DL_practice	9			0		ga	1	914	6	2	antiphase_hc_ios.wav	3	6	6	noise_calib_stim_RIGHT.wav	2	15	blb_dichoticlistening_ga-ga.mp3	ga	ga	0	left
6.6.1	win	2023-06-27	08:40:13	0	0	58061b34c7b1100001138a1e	1	1	DL_practice	11	DL_practice	10			0		da	1	1396	6	2	antiphase_hc_ios.wav	3	6	6	noise_calib_stim_RIGHT.wav	2	8	blb_dichoticlistening_da-da.mp3	da	da	0	left
6.6.1	win	2023-06-27	08:40:13	0	0	58061b34c7b1100001138a1e	1	1	DL_test	13	DL_test	1			0		ta	1	1403	6	2	antiphase_hc_ios.wav	3	6	6	noise_calib_stim_RIGHT.wav	2	12	blb_dichoticlistening_da-ta.mp3	da	ta	1	right
6.6.1	win	2023-06-27	08:40:13	0	0	58061b34c7b1100001138a1e	1	1	DL_test	13	DL_test	2			0		pa	1	936	6	2	antiphase_hc_ios.wav	3	6	6	noise_calib_stim_RIGHT.wav	2	17	blb_dichoticlistening_ga-pa.mp3	ga	pa	1	right
6.6.1	win	2023-06-27	08:40:13	0	0	58061b34c7b1100001138a1e	1	1	DL_test	13	DL_test	3			0		ta	1	930	6	2	antiphase_hc_ios.wav	3	6	6	noise_calib_stim_RIGHT.wav	2	6	blb_dichoticlistening_ba-ta.mp3	ba	ta	1	right
6.6.1	win	2023-06-27	08:40:13	0	0	58061b34c7b1100001138a1e	1	1	DL_test	13	DL_test	4			0		pa	0	1010	6	2	antiphase_hc_ios.wav	3	6	6	noise_calib_stim_RIGHT.wav	2	10	blb_dichoticlistening_da-ka.mp3	da	ka	1	other
6.6.1	win	2023-06-27	08:40:13	0	0	58061b34c7b1100001138a1e	1	1	DL_test	13	DL_test	5			0		ka	1	1159	6	2	antiphase_hc_ios.wav	3	6	6	noise_calib_stim_RIGHT.wav	2	16	blb_dichoticlistening_ga-ka.mp3	ga	ka	1	right
6.6.1	win	2023-06-27	08:40:13	0	0	58061b34c7b1100001138a1e	1	1	DL_test	13	DL_test	6			0		ga	0	2822	6	2	antiphase_hc_ios.wav	3	6	6	noise_calib_stim_RIGHT.wav	2	31	blb_dichoticlistening_ta-ba.mp3	ta	ba	1	other
6.6.1	win	2023-06-27	08:40:13	0	0	58061b34c7b1100001138a1e	1	1	DL_test	13	DL_test	7			0		pa	1	1057	6	2	antiphase_hc_ios.wav	3	6	6	noise_calib_stim_RIGHT.wav	2	5	blb_dichoticlistening_ba-pa.mp3	ba	pa	1	right
6.6.1	win	2023-06-27	08:40:13	0	0	58061b34c7b1100001138a1e	1	1	DL_test	13	DL_test	8			0		da	1	965	6	2	antiphase_hc_ios.wav	3	6	6	noise_calib_stim_RIGHT.wav	2	2	blb_dichoticlistening_ba-da.mp3	ba	da	1	right
6.6.1	win	2023-06-27	08:40:13	0	0	58061b34c7b1100001138a1e	1	1	DL_test	13	DL_test	9			0		ga	1	1276	6	2	antiphase_hc_ios.wav	3	6	6	noise_calib_stim_RIGHT.wav	2	9	blb_dichoticlistening_da-ga.mp3	da	ga	1	right
6.6.1	win	2023-06-27	08:40:13	0	0	58061b34c7b1100001138a1e	1	1	DL_test	13	DL_test	10			0		ka	1	1103	6	2	antiphase_hc_ios.wav	3	6	6	noise_calib_stim_RIGHT.wav	2	34	blb_dichoticlistening_ta-ka.mp3	ta	ka	1	right
6.6.1	win	2023-06-27	08:40:13	0	0	58061b34c7b1100001138a1e	1	1	DL_test	13	DL_test	11			0		ga	1	2456	6	2	antiphase_hc_ios.wav	3	6	6	noise_calib_stim_RIGHT.wav	2	13	blb_dichoticlistening_ga-ba.mp3	ga	ba	1	left
6.6.1	win	2023-06-27	08:40:13	0	0	58061b34c7b1100001138a1e	1	1	DL_test	13	DL_test	12			0		da	1	906	6	2	antiphase_hc_ios.wav	3	6	6	noise_calib_stim_RIGHT.wav	2	14	blb_dichoticlistening_ga-da.mp3	ga	da	1	right
6.6.1	win	2023-06-27	08:40:13	0	0	58061b34c7b1100001138a1e	1	1	DL_test	13	DL_test	13			0		ka	1	1268	6	2	antiphase_hc_ios.wav	3	6	6	noise_calib_stim_RIGHT.wav	2	20	blb_dichoticlistening_ka-da.mp3	ka	da	1	left
6.6.1	win	2023-06-27	08:40:13	0	0	58061b34c7b1100001138a1e	1	1	DL_test	13	DL_test	14			0		pa	1	1078	6	2	antiphase_hc_ios.wav	3	6	6	noise_calib_stim_RIGHT.wav	2	29	blb_dichoticlistening_pa-pa.mp3	pa	pa	0	left
6.6.1	win	2023-06-27	08:40:13	0	0	58061b34c7b1100001138a1e	1	1	DL_test	13	DL_test	15			0		ka	1	2689	6	2	antiphase_hc_ios.wav	3	6	6	noise_calib_stim_RIGHT.wav	2	19	blb_dichoticlistening_ka-ba.mp3	ka	ba	1	left
6.6.1	win	2023-06-27	08:40:13	0	0	58061b34c7b1100001138a1e	1	1	DL_test	13	DL_test	16			0		pa	1	914	6	2	antiphase_hc_ios.wav	3	6	6	noise_calib_stim_RIGHT.wav	2	25	blb_dichoticlistening_pa-ba.mp3	pa	ba	1	left
6.6.1	win	2023-06-27	08:40:13	0	0	58061b34c7b1100001138a1e	1	1	DL_test	13	DL_test	17			0		ka	0	1620	6	2	antiphase_hc_ios.wav	3	6	6	noise_calib_stim_RIGHT.wav	2	33	blb_dichoticlistening_ta-ga.mp3	ta	ga	1	other
6.6.1	win	2023-06-27	08:40:13	0	0	58061b34c7b1100001138a1e	1	1	DL_test	13	DL_test	18			0		da	1	1256	6	2	antiphase_hc_ios.wav	3	6	6	noise_calib_stim_RIGHT.wav	2	7	blb_dichoticlistening_da-ba.mp3	da	ba	1	left
6.6.1	win	2023-06-27	08:40:13	0	0	58061b34c7b1100001138a1e	1	1	DL_test	13	DL_test	19			0		ta	1	1468	6	2	antiphase_hc_ios.wav	3	6	6	noise_calib_stim_RIGHT.wav	2	30	blb_dichoticlistening_pa-ta.mp3	pa	ta	1	right
6.6.1	win	2023-06-27	08:40:13	0	0	58061b34c7b1100001138a1e	1	1	DL_test	13	DL_test	20			0		ka	0	1887	6	2	antiphase_hc_ios.wav	3	6	6	noise_calib_stim_RIGHT.wav	2	18	blb_dichoticlistening_ga-ta.mp3	ga	ta	1	other
6.6.1	win	2023-06-27	08:40:13	0	0	58061b34c7b1100001138a1e	1	1	DL_test	13	DL_test	21			0		pa	1	881	6	2	antiphase_hc_ios.wav	3	6	6	noise_calib_stim_RIGHT.wav	2	23	blb_dichoticlistening_ka-pa.mp3	ka	pa	1	right
6.6.1	win	2023-06-27	08:40:13	0	0	58061b34c7b1100001138a1e	1	1	DL_test	13	DL_test	22			0		ka	1	1156	6	2	antiphase_hc_ios.wav	3	6	6	noise_calib_stim_RIGHT.wav	2	4	blb_dichoticlistening_ba-ka.mp3	ba	ka	1	right
6.6.1	win	2023-06-27	08:40:13	0	0	58061b34c7b1100001138a1e	1	1	DL_test	13	DL_test	23			0		da	1	1307	6	2	antiphase_hc_ios.wav	3	6	6	noise_calib_stim_RIGHT.wav	2	8	blb_dichoticlistening_da-da.mp3	da	da	0	left
6.6.1	win	2023-06-27	08:40:13	0	0	58061b34c7b1100001138a1e	1	1	DL_test	13	DL_test	24			0		ka	1	1069	6	2	antiphase_hc_ios.wav	3	6	6	noise_calib_stim_RIGHT.wav	2	21	blb_dichoticlistening_ka-ga.mp3	ka	ga	1	left
6.6.1	win	2023-06-27	08:40:13	0	0	58061b34c7b1100001138a1e	1	1	DL_test	13	DL_test	25			0		pa	1	2583	6	2	antiphase_hc_ios.wav	3	6	6	noise_calib_stim_RIGHT.wav	2	26	blb_dichoticlistening_pa-da.mp3	pa	da	1	left
6.6.1	win	2023-06-27	08:40:13	0	0	58061b34c7b1100001138a1e	1	1	DL_test	13	DL_test	26			0		pa	1	1119	6	2	antiphase_hc_ios.wav	3	6	6	noise_calib_stim_RIGHT.wav	2	35	blb_dichoticlistening_ta-pa.mp3	ta	pa	1	right
6.6.1	win	2023-06-27	08:40:13	0	0	58061b34c7b1100001138a1e	1	1	DL_test	13	DL_test	27			0		ga	1	919	6	2	antiphase_hc_ios.wav	3	6	6	noise_calib_stim_RIGHT.wav	2	3	blb_dichoticlistening_ba-ga.mp3	ba	ga	1	right
6.6.1	win	2023-06-27	08:40:13	0	0	58061b34c7b1100001138a1e	1	1	DL_test	13	DL_test	28			0		ta	1	1320	6	2	antiphase_hc_ios.wav	3	6	6	noise_calib_stim_RIGHT.wav	2	32	blb_dichoticlistening_ta-da.mp3	ta	da	1	left
6.6.1	win	2023-06-27	08:40:13	0	0	58061b34c7b1100001138a1e	1	1	DL_test	13	DL_test	29			0		ta	1	1047	6	2	antiphase_hc_ios.wav	3	6	6	noise_calib_stim_RIGHT.wav	2	36	blb_dichoticlistening_ta-ta.mp3	ta	ta	0	left
6.6.1	win	2023-06-27	08:40:13	0	0	58061b34c7b1100001138a1e	1	1	DL_test	13	DL_test	30			0		ka	1	1066	6	2	antiphase_hc_ios.wav	3	6	6	noise_calib_stim_RIGHT.wav	2	22	blb_dichoticlistening_ka-ka.mp3	ka	ka	0	left
6.6.1	win	2023-06-27	08:40:13	0	0	58061b34c7b1100001138a1e	1	1	DL_test	13	DL_test	31			0		pa	1	1669	6	2	antiphase_hc_ios.wav	3	6	6	noise_calib_stim_RIGHT.wav	2	28	blb_dichoticlistening_pa-ka.mp3	pa	ka	1	left
6.6.1	win	2023-06-27	08:40:13	0	0	58061b34c7b1100001138a1e	1	1	DL_test	13	DL_test	32			0		ga	1	1096	6	2	antiphase_hc_ios.wav	3	6	6	noise_calib_stim_RIGHT.wav	2	27	blb_dichoticlistening_pa-ga.mp3	pa	ga	1	right
6.6.1	win	2023-06-27	08:40:13	0	0	58061b34c7b1100001138a1e	1	1	DL_test	13	DL_test	33			0		ga	1	961	6	2	antiphase_hc_ios.wav	3	6	6	noise_calib_stim_RIGHT.wav	2	15	blb_dichoticlistening_ga-ga.mp3	ga	ga	0	left
6.6.1	win	2023-06-27	08:40:13	0	0	58061b34c7b1100001138a1e	1	1	DL_test	13	DL_test	34			0		ta	1	2607	6	2	antiphase_hc_ios.wav	3	6	6	noise_calib_stim_RIGHT.wav	2	24	blb_dichoticlistening_ka-ta.mp3	ka	ta	1	right
6.6.1	win	2023-06-27	08:40:13	0	0	58061b34c7b1100001138a1e	1	1	DL_test	13	DL_test	35			0		ba	1	1509	6	2	antiphase_hc_ios.wav	3	6	6	noise_calib_stim_RIGHT.wav	2	1	blb_dichoticlistening_ba-ba.mp3	ba	ba	0	left
6.6.1	win	2023-06-27	08:40:13	0	0	58061b34c7b1100001138a1e	1	1	DL_test	13	DL_test	36			0		pa	1	1493	6	2	antiphase_hc_ios.wav	3	6	6	noise_calib_stim_RIGHT.wav	2	11	blb_dichoticlistening_da-pa.mp3	da	pa	1	right
6.6.1	win	2023-06-27	08:40:13	0	0	58061b34c7b1100001138a1e	1	1	DL_test	14	DL_test	1			0		ka	1	1744	6	2	antiphase_hc_ios.wav	3	6	6	noise_calib_stim_RIGHT.wav	2	20	blb_dichoticlistening_ka-da.mp3	ka	da	1	left
6.6.1	win	2023-06-27	08:40:13	0	0	58061b34c7b1100001138a1e	1	1	DL_test	14	DL_test	2			0		da	1	1023	6	2	antiphase_hc_ios.wav	3	6	6	noise_calib_stim_RIGHT.wav	2	2	blb_dichoticlistening_ba-da.mp3	ba	da	1	right
6.6.1	win	2023-06-27	08:40:13	0	0	58061b34c7b1100001138a1e	1	1	DL_test	14	DL_test	3			0		ba	0	3532	6	2	antiphase_hc_ios.wav	3	6	6	noise_calib_stim_RIGHT.wav	2	27	blb_dichoticlistening_pa-ga.mp3	pa	ga	1	other
6.6.1	win	2023-06-27	08:40:13	0	0	58061b34c7b1100001138a1e	1	1	DL_test	14	DL_test	4			0		ta	1	1780	6	2	antiphase_hc_ios.wav	3	6	6	noise_calib_stim_RIGHT.wav	2	30	blb_dichoticlistening_pa-ta.mp3	pa	ta	1	right
6.6.1	win	2023-06-27	08:40:13	0	0	58061b34c7b1100001138a1e	1	1	DL_test	14	DL_test	5			0		ga	0	3304	6	2	antiphase_hc_ios.wav	3	6	6	noise_calib_stim_RIGHT.wav	2	26	blb_dichoticlistening_pa-da.mp3	pa	da	1	other
6.6.1	win	2023-06-27	08:40:13	0	0	58061b34c7b1100001138a1e	1	1	DL_test	14	DL_test	6			0		ga	1	1177	6	2	antiphase_hc_ios.wav	3	6	6	noise_calib_stim_RIGHT.wav	2	13	blb_dichoticlistening_ga-ba.mp3	ga	ba	1	left
6.6.1	win	2023-06-27	08:40:13	0	0	58061b34c7b1100001138a1e	1	1	DL_test	14	DL_test	7			0		da	1	1098	6	2	antiphase_hc_ios.wav	3	6	6	noise_calib_stim_RIGHT.wav	2	14	blb_dichoticlistening_ga-da.mp3	ga	da	1	right
6.6.1	win	2023-06-27	08:40:13	0	0	58061b34c7b1100001138a1e	1	1	DL_test	14	DL_test	8			0		ta	1	1899	6	2	antiphase_hc_ios.wav	3	6	6	noise_calib_stim_RIGHT.wav	2	34	blb_dichoticlistening_ta-ka.mp3	ta	ka	1	left
6.6.1	win	2023-06-27	08:40:13	0	0	58061b34c7b1100001138a1e	1	1	DL_test	14	DL_test	9			0		ka	1	2028	6	2	antiphase_hc_ios.wav	3	6	6	noise_calib_stim_RIGHT.wav	2	19	blb_dichoticlistening_ka-ba.mp3	ka	ba	1	left
6.6.1	win	2023-06-27	08:40:13	0	0	58061b34c7b1100001138a1e	1	1	DL_test	14	DL_test	10			0		pa	1	1729	6	2	antiphase_hc_ios.wav	3	6	6	noise_calib_stim_RIGHT.wav	2	29	blb_dichoticlistening_pa-pa.mp3	pa	pa	0	left
6.6.1	win	2023-06-27	08:40:13	0	0	58061b34c7b1100001138a1e	1	1	DL_test	14	DL_test	11			0		ta	1	1345	6	2	antiphase_hc_ios.wav	3	6	6	noise_calib_stim_RIGHT.wav	2	12	blb_dichoticlistening_da-ta.mp3	da	ta	1	right
6.6.1	win	2023-06-27	08:40:13	0	0	58061b34c7b1100001138a1e	1	1	DL_test	14	DL_test	12			0		pa	1	1167	6	2	antiphase_hc_ios.wav	3	6	6	noise_calib_stim_RIGHT.wav	2	25	blb_dichoticlistening_pa-ba.mp3	pa	ba	1	left
6.6.1	win	2023-06-27	08:40:13	0	0	58061b34c7b1100001138a1e	1	1	DL_test	14	DL_test	13			0		ga	1	1000	6	2	antiphase_hc_ios.wav	3	6	6	noise_calib_stim_RIGHT.wav	2	15	blb_dichoticlistening_ga-ga.mp3	ga	ga	0	left
6.6.1	win	2023-06-27	08:40:13	0	0	58061b34c7b1100001138a1e	1	1	DL_test	14	DL_test	14			0		da	1	1135	6	2	antiphase_hc_ios.wav	3	6	6	noise_calib_stim_RIGHT.wav	2	8	blb_dichoticlistening_da-da.mp3	da	da	0	left
6.6.1	win	2023-06-27	08:40:13	0	0	58061b34c7b1100001138a1e	1	1	DL_test	14	DL_test	15			0		ka	1	1270	6	2	antiphase_hc_ios.wav	3	6	6	noise_calib_stim_RIGHT.wav	2	4	blb_dichoticlistening_ba-ka.mp3	ba	ka	1	right
6.6.1	win	2023-06-27	08:40:13	0	0	58061b34c7b1100001138a1e	1	1	DL_test	14	DL_test	16			0		ka	1	1240	6	2	antiphase_hc_ios.wav	3	6	6	noise_calib_stim_RIGHT.wav	2	22	blb_dichoticlistening_ka-ka.mp3	ka	ka	0	left
6.6.1	win	2023-06-27	08:40:13	0	0	58061b34c7b1100001138a1e	1	1	DL_test	14	DL_test	17			0		pa	0	1332	6	2	antiphase_hc_ios.wav	3	6	6	noise_calib_stim_RIGHT.wav	2	10	blb_dichoticlistening_da-ka.mp3	da	ka	1	other
6.6.1	win	2023-06-27	08:40:13	0	0	58061b34c7b1100001138a1e	1	1	DL_test	14	DL_test	18			0		pa	1	949	6	2	antiphase_hc_ios.wav	3	6	6	noise_calib_stim_RIGHT.wav	2	17	blb_dichoticlistening_ga-pa.mp3	ga	pa	1	right
6.6.1	win	2023-06-27	08:40:13	0	0	58061b34c7b1100001138a1e	1	1	DL_test	14	DL_test	19			0		ba	1	1654	6	2	antiphase_hc_ios.wav	3	6	6	noise_calib_stim_RIGHT.wav	2	1	blb_dichoticlistening_ba-ba.mp3	ba	ba	0	left
6.6.1	win	2023-06-27	08:40:13	0	0	58061b34c7b1100001138a1e	1	1	DL_test	14	DL_test	20			0		pa	1	1104	6	2	antiphase_hc_ios.wav	3	6	6	noise_calib_stim_RIGHT.wav	2	5	blb_dichoticlistening_ba-pa.mp3	ba	pa	1	right
6.6.1	win	2023-06-27	08:40:13	0	0	58061b34c7b1100001138a1e	1	1	DL_test	14	DL_test	21			0		ga	1	2777	6	2	antiphase_hc_ios.wav	3	6	6	noise_calib_stim_RIGHT.wav	2	33	blb_dichoticlistening_ta-ga.mp3	ta	ga	1	right
6.6.1	win	2023-06-27	08:40:13	0	0	58061b34c7b1100001138a1e	1	1	DL_test	14	DL_test	22			0		ka	0	1789	6	2	antiphase_hc_ios.wav	3	6	6	noise_calib_stim_RIGHT.wav	2	18	blb_dichoticlistening_ga-ta.mp3	ga	ta	1	other
6.6.1	win	2023-06-27	08:40:13	0	0	58061b34c7b1100001138a1e	1	1	DL_test	14	DL_test	23			0		ka	1	1235	6	2	antiphase_hc_ios.wav	3	6	6	noise_calib_stim_RIGHT.wav	2	28	blb_dichoticlistening_pa-ka.mp3	pa	ka	1	right
6.6.1	win	2023-06-27	08:40:13	0	0	58061b34c7b1100001138a1e	1	1	DL_test	14	DL_test	24			0		ta	1	1840	6	2	antiphase_hc_ios.wav	3	6	6	noise_calib_stim_RIGHT.wav	2	6	blb_dichoticlistening_ba-ta.mp3	ba	ta	1	right
6.6.1	win	2023-06-27	08:40:13	0	0	58061b34c7b1100001138a1e	1	1	DL_test	14	DL_test	25			0		pa	1	1602	6	2	antiphase_hc_ios.wav	3	6	6	noise_calib_stim_RIGHT.wav	2	35	blb_dichoticlistening_ta-pa.mp3	ta	pa	1	right
6.6.1	win	2023-06-27	08:40:13	0	0	58061b34c7b1100001138a1e	1	1	DL_test	14	DL_test	26			0		ga	1	1697	6	2	antiphase_hc_ios.wav	3	6	6	noise_calib_stim_RIGHT.wav	2	21	blb_dichoticlistening_ka-ga.mp3	ka	ga	1	right
6.6.1	win	2023-06-27	08:40:13	0	0	58061b34c7b1100001138a1e	1	1	DL_test	14	DL_test	27			0		ka	1	1227	6	2	antiphase_hc_ios.wav	3	6	6	noise_calib_stim_RIGHT.wav	2	16	blb_dichoticlistening_ga-ka.mp3	ga	ka	1	right
6.6.1	win	2023-06-27	08:40:13	0	0	58061b34c7b1100001138a1e	1	1	DL_test	14	DL_test	28			0		pa	1	984	6	2	antiphase_hc_ios.wav	3	6	6	noise_calib_stim_RIGHT.wav	2	11	blb_dichoticlistening_da-pa.mp3	da	pa	1	right
6.6.1	win	2023-06-27	08:40:13	0	0	58061b34c7b1100001138a1e	1	1	DL_test	14	DL_test	29			0		ta	1	982	6	2	antiphase_hc_ios.wav	3	6	6	noise_calib_stim_RIGHT.wav	2	24	blb_dichoticlistening_ka-ta.mp3	ka	ta	1	right
6.6.1	win	2023-06-27	08:40:13	0	0	58061b34c7b1100001138a1e	1	1	DL_test	14	DL_test	30			0		pa	1	916	6	2	antiphase_hc_ios.wav	3	6	6	noise_calib_stim_RIGHT.wav	2	23	blb_dichoticlistening_ka-pa.mp3	ka	pa	1	right
6.6.1	win	2023-06-27	08:40:13	0	0	58061b34c7b1100001138a1e	1	1	DL_test	14	DL_test	31			0		ta	1	1869	6	2	antiphase_hc_ios.wav	3	6	6	noise_calib_stim_RIGHT.wav	2	32	blb_dichoticlistening_ta-da.mp3	ta	da	1	left
6.6.1	win	2023-06-27	08:40:13	0	0	58061b34c7b1100001138a1e	1	1	DL_test	14	DL_test	32			0		ta	1	1223	6	2	antiphase_hc_ios.wav	3	6	6	noise_calib_stim_RIGHT.wav	2	36	blb_dichoticlistening_ta-ta.mp3	ta	ta	0	left
6.6.1	win	2023-06-27	08:40:13	0	0	58061b34c7b1100001138a1e	1	1	DL_test	14	DL_test	33			0		ga	0	1196	6	2	antiphase_hc_ios.wav	3	6	6	noise_calib_stim_RIGHT.wav	2	31	blb_dichoticlistening_ta-ba.mp3	ta	ba	1	other
6.6.1	win	2023-06-27	08:40:13	0	0	58061b34c7b1100001138a1e	1	1	DL_test	14	DL_test	34			0		da	1	1018	6	2	antiphase_hc_ios.wav	3	6	6	noise_calib_stim_RIGHT.wav	2	9	blb_dichoticlistening_da-ga.mp3	da	ga	1	left
6.6.1	win	2023-06-27	08:40:13	0	0	58061b34c7b1100001138a1e	1	1	DL_test	14	DL_test	35			0		da	1	1079	6	2	antiphase_hc_ios.wav	3	6	6	noise_calib_stim_RIGHT.wav	2	7	blb_dichoticlistening_da-ba.mp3	da	ba	1	left
6.6.1	win	2023-06-27	08:40:13	0	0	58061b34c7b1100001138a1e	1	1	DL_test	14	DL_test	36			0		ga	1	1362	6	2	antiphase_hc_ios.wav	3	6	6	noise_calib_stim_RIGHT.wav	2	3	blb_dichoticlistening_ba-ga.mp3	ba	ga	1	right
6.6.1	win	2023-06-27	08:40:13	0	0	58061b34c7b1100001138a1e	1	1	DL_test	15	DL_test	1			0		pa	1	1082	6	2	antiphase_hc_ios.wav	3	6	6	noise_calib_stim_RIGHT.wav	2	11	blb_dichoticlistening_da-pa.mp3	da	pa	1	right
6.6.1	win	2023-06-27	08:40:13	0	0	58061b34c7b1100001138a1e	1	1	DL_test	15	DL_test	2			0		ba	1	1434	6	2	antiphase_hc_ios.wav	3	6	6	noise_calib_stim_RIGHT.wav	2	1	blb_dichoticlistening_ba-ba.mp3	ba	ba	0	left
6.6.1	win	2023-06-27	08:40:13	0	0	58061b34c7b1100001138a1e	1	1	DL_test	15	DL_test	3			0		ka	1	1012	6	2	antiphase_hc_ios.wav	3	6	6	noise_calib_stim_RIGHT.wav	2	22	blb_dichoticlistening_ka-ka.mp3	ka	ka	0	left
6.6.1	win	2023-06-27	08:40:13	0	0	58061b34c7b1100001138a1e	1	1	DL_test	15	DL_test	4			0		ka	0	1674	6	2	antiphase_hc_ios.wav	3	6	6	noise_calib_stim_RIGHT.wav	2	31	blb_dichoticlistening_ta-ba.mp3	ta	ba	1	other
6.6.1	win	2023-06-27	08:40:13	0	0	58061b34c7b1100001138a1e	1	1	DL_test	15	DL_test	5			0		pa	1	1027	6	2	antiphase_hc_ios.wav	3	6	6	noise_calib_stim_RIGHT.wav	2	29	blb_dichoticlistening_pa-pa.mp3	pa	pa	0	left
6.6.1	win	2023-06-27	08:40:13	0	0	58061b34c7b1100001138a1e	1	1	DL_test	15	DL_test	6			0		da	1	1176	6	2	antiphase_hc_ios.wav	3	6	6	noise_calib_stim_RIGHT.wav	2	14	blb_dichoticlistening_ga-da.mp3	ga	da	1	right
6.6.1	win	2023-06-27	08:40:13	0	0	58061b34c7b1100001138a1e	1	1	DL_test	15	DL_test	7			0		ta	1	1351	6	2	antiphase_hc_ios.wav	3	6	6	noise_calib_stim_RIGHT.wav	2	32	blb_dichoticlistening_ta-da.mp3	ta	da	1	left
6.6.1	win	2023-06-27	08:40:13	0	0	58061b34c7b1100001138a1e	1	1	DL_test	15	DL_test	8			0		pa	0	1136	6	2	antiphase_hc_ios.wav	3	6	6	noise_calib_stim_RIGHT.wav	2	10	blb_dichoticlistening_da-ka.mp3	da	ka	1	other
6.6.1	win	2023-06-27	08:40:13	0	0	58061b34c7b1100001138a1e	1	1	DL_test	15	DL_test	9			0		ga	1	896	6	2	antiphase_hc_ios.wav	3	6	6	noise_calib_stim_RIGHT.wav	2	13	blb_dichoticlistening_ga-ba.mp3	ga	ba	1	left
6.6.1	win	2023-06-27	08:40:13	0	0	58061b34c7b1100001138a1e	1	1	DL_test	15	DL_test	10			0		ga	1	778	6	2	antiphase_hc_ios.wav	3	6	6	noise_calib_stim_RIGHT.wav	2	15	blb_dichoticlistening_ga-ga.mp3	ga	ga	0	left
6.6.1	win	2023-06-27	08:40:13	0	0	58061b34c7b1100001138a1e	1	1	DL_test	15	DL_test	11			0		ta	1	1199	6	2	antiphase_hc_ios.wav	3	6	6	noise_calib_stim_RIGHT.wav	2	18	blb_dichoticlistening_ga-ta.mp3	ga	ta	1	right
6.6.1	win	2023-06-27	08:40:13	0	0	58061b34c7b1100001138a1e	1	1	DL_test	15	DL_test	12			0		ka	1	1269	6	2	antiphase_hc_ios.wav	3	6	6	noise_calib_stim_RIGHT.wav	2	28	blb_dichoticlistening_pa-ka.mp3	pa	ka	1	right
6.6.1	win	2023-06-27	08:40:13	0	0	58061b34c7b1100001138a1e	1	1	DL_test	15	DL_test	13			0		ta	1	1488	6	2	antiphase_hc_ios.wav	3	6	6	noise_calib_stim_RIGHT.wav	2	12	blb_dichoticlistening_da-ta.mp3	da	ta	1	right
6.6.1	win	2023-06-27	08:40:13	0	0	58061b34c7b1100001138a1e	1	1	DL_test	15	DL_test	14			0		pa	1	1266	6	2	antiphase_hc_ios.wav	3	6	6	noise_calib_stim_RIGHT.wav	2	35	blb_dichoticlistening_ta-pa.mp3	ta	pa	1	right
6.6.1	win	2023-06-27	08:40:13	0	0	58061b34c7b1100001138a1e	1	1	DL_test	15	DL_test	15			0		ka	1	942	6	2	antiphase_hc_ios.wav	3	6	6	noise_calib_stim_RIGHT.wav	2	4	blb_dichoticlistening_ba-ka.mp3	ba	ka	1	right
6.6.1	win	2023-06-27	08:40:13	0	0	58061b34c7b1100001138a1e	1	1	DL_test	15	DL_test	16			0		ga	0	1261	6	2	antiphase_hc_ios.wav	3	6	6	noise_calib_stim_RIGHT.wav	2	20	blb_dichoticlistening_ka-da.mp3	ka	da	1	other
6.6.1	win	2023-06-27	08:40:13	0	0	58061b34c7b1100001138a1e	1	1	DL_test	15	DL_test	17			0		pa	1	1240	6	2	antiphase_hc_ios.wav	3	6	6	noise_calib_stim_RIGHT.wav	2	17	blb_dichoticlistening_ga-pa.mp3	ga	pa	1	right
6.6.1	win	2023-06-27	08:40:13	0	0	58061b34c7b1100001138a1e	1	1	DL_test	15	DL_test	18			0		ka	1	1204	6	2	antiphase_hc_ios.wav	3	6	6	noise_calib_stim_RIGHT.wav	2	19	blb_dichoticlistening_ka-ba.mp3	ka	ba	1	left
6.6.1	win	2023-06-27	08:40:13	0	0	58061b34c7b1100001138a1e	1	1	DL_test	15	DL_test	19			0		ga	1	1225	6	2	antiphase_hc_ios.wav	3	6	6	noise_calib_stim_RIGHT.wav	2	27	blb_dichoticlistening_pa-ga.mp3	pa	ga	1	right
6.6.1	win	2023-06-27	08:40:13	0	0	58061b34c7b1100001138a1e	1	1	DL_test	15	DL_test	20			0		ta	1	1174	6	2	antiphase_hc_ios.wav	3	6	6	noise_calib_stim_RIGHT.wav	2	36	blb_dichoticlistening_ta-ta.mp3	ta	ta	0	left
6.6.1	win	2023-06-27	08:40:13	0	0	58061b34c7b1100001138a1e	1	1	DL_test	15	DL_test	21			0		ga	1	844	6	2	antiphase_hc_ios.wav	3	6	6	noise_calib_stim_RIGHT.wav	2	21	blb_dichoticlistening_ka-ga.mp3	ka	ga	1	right
6.6.1	win	2023-06-27	08:40:13	0	0	58061b34c7b1100001138a1e	1	1	DL_test	15	DL_test	22			0		da	1	1288	6	2	antiphase_hc_ios.wav	3	6	6	noise_calib_stim_RIGHT.wav	2	26	blb_dichoticlistening_pa-da.mp3	pa	da	1	right
6.6.1	win	2023-06-27	08:40:13	0	0	58061b34c7b1100001138a1e	1	1	DL_test	15	DL_test	23			0		da	1	1106	6	2	antiphase_hc_ios.wav	3	6	6	noise_calib_stim_RIGHT.wav	2	8	blb_dichoticlistening_da-da.mp3	da	da	0	left
6.6.1	win	2023-06-27	08:40:13	0	0	58061b34c7b1100001138a1e	1	1	DL_test	15	DL_test	24			0		ta	1	1444	6	2	antiphase_hc_ios.wav	3	6	6	noise_calib_stim_RIGHT.wav	2	6	blb_dichoticlistening_ba-ta.mp3	ba	ta	1	right
6.6.1	win	2023-06-27	08:40:13	0	0	58061b34c7b1100001138a1e	1	1	DL_test	15	DL_test	25			0		ka	1	959	6	2	antiphase_hc_ios.wav	3	6	6	noise_calib_stim_RIGHT.wav	2	16	blb_dichoticlistening_ga-ka.mp3	ga	ka	1	right
6.6.1	win	2023-06-27	08:40:13	0	0	58061b34c7b1100001138a1e	1	1	DL_test	15	DL_test	26			0		ka	0	959	6	2	antiphase_hc_ios.wav	3	6	6	noise_calib_stim_RIGHT.wav	2	33	blb_dichoticlistening_ta-ga.mp3	ta	ga	1	other
6.6.1	win	2023-06-27	08:40:13	0	0	58061b34c7b1100001138a1e	1	1	DL_test	15	DL_test	27			0		ka	1	1462	6	2	antiphase_hc_ios.wav	3	6	6	noise_calib_stim_RIGHT.wav	2	24	blb_dichoticlistening_ka-ta.mp3	ka	ta	1	left
6.6.1	win	2023-06-27	08:40:13	0	0	58061b34c7b1100001138a1e	1	1	DL_test	15	DL_test	28			0		ta	1	1635	6	2	antiphase_hc_ios.wav	3	6	6	noise_calib_stim_RIGHT.wav	2	34	blb_dichoticlistening_ta-ka.mp3	ta	ka	1	left
6.6.1	win	2023-06-27	08:40:13	0	0	58061b34c7b1100001138a1e	1	1	DL_test	15	DL_test	29			0		da	1	1102	6	2	antiphase_hc_ios.wav	3	6	6	noise_calib_stim_RIGHT.wav	2	9	blb_dichoticlistening_da-ga.mp3	da	ga	1	left
6.6.1	win	2023-06-27	08:40:13	0	0	58061b34c7b1100001138a1e	1	1	DL_test	15	DL_test	30			0		da	1	1007	6	2	antiphase_hc_ios.wav	3	6	6	noise_calib_stim_RIGHT.wav	2	7	blb_dichoticlistening_da-ba.mp3	da	ba	1	left
6.6.1	win	2023-06-27	08:40:13	0	0	58061b34c7b1100001138a1e	1	1	DL_test	15	DL_test	31			0		ga	0	2086	6	2	antiphase_hc_ios.wav	3	6	6	noise_calib_stim_RIGHT.wav	2	2	blb_dichoticlistening_ba-da.mp3	ba	da	1	other
6.6.1	win	2023-06-27	08:40:13	0	0	58061b34c7b1100001138a1e	1	1	DL_test	15	DL_test	32			0		pa	1	1344	6	2	antiphase_hc_ios.wav	3	6	6	noise_calib_stim_RIGHT.wav	2	23	blb_dichoticlistening_ka-pa.mp3	ka	pa	1	right
6.6.1	win	2023-06-27	08:40:13	0	0	58061b34c7b1100001138a1e	1	1	DL_test	15	DL_test	33			0		ta	1	936	6	2	antiphase_hc_ios.wav	3	6	6	noise_calib_stim_RIGHT.wav	2	30	blb_dichoticlistening_pa-ta.mp3	pa	ta	1	right
6.6.1	win	2023-06-27	08:40:13	0	0	58061b34c7b1100001138a1e	1	1	DL_test	15	DL_test	34			0		pa	1	585	6	2	antiphase_hc_ios.wav	3	6	6	noise_calib_stim_RIGHT.wav	2	5	blb_dichoticlistening_ba-pa.mp3	ba	pa	1	right
6.6.1	win	2023-06-27	08:40:13	0	0	58061b34c7b1100001138a1e	1	1	DL_test	15	DL_test	35			0		ga	1	1054	6	2	antiphase_hc_ios.wav	3	6	6	noise_calib_stim_RIGHT.wav	2	3	blb_dichoticlistening_ba-ga.mp3	ba	ga	1	right
6.6.1	win	2023-06-27	08:40:13	0	0	58061b34c7b1100001138a1e	1	1	DL_test	15	DL_test	36			0		pa	1	1170	6	2	antiphase_hc_ios.wav	3	6	6	noise_calib_stim_RIGHT.wav	2	25	blb_dichoticlistening_pa-ba.mp3	pa	ba	1	left
6.6.1	win	2023-06-27	08:40:13	0	0	58061b34c7b1100001138a1e	1	1	DL_test	16	DL_test	1			0		ka	1	955	6	2	antiphase_hc_ios.wav	3	6	6	noise_calib_stim_RIGHT.wav	2	4	blb_dichoticlistening_ba-ka.mp3	ba	ka	1	right
6.6.1	win	2023-06-27	08:40:13	0	0	58061b34c7b1100001138a1e	1	1	DL_test	16	DL_test	2			0		ka	0	713	6	2	antiphase_hc_ios.wav	3	6	6	noise_calib_stim_RIGHT.wav	2	6	blb_dichoticlistening_ba-ta.mp3	ba	ta	1	other
6.6.1	win	2023-06-27	08:40:13	0	0	58061b34c7b1100001138a1e	1	1	DL_test	16	DL_test	3			0		ga	1	978	6	2	antiphase_hc_ios.wav	3	6	6	noise_calib_stim_RIGHT.wav	2	3	blb_dichoticlistening_ba-ga.mp3	ba	ga	1	right
6.6.1	win	2023-06-27	08:40:13	0	0	58061b34c7b1100001138a1e	1	1	DL_test	16	DL_test	4			0		ka	1	1536	6	2	antiphase_hc_ios.wav	3	6	6	noise_calib_stim_RIGHT.wav	2	34	blb_dichoticlistening_ta-ka.mp3	ta	ka	1	right
6.6.1	win	2023-06-27	08:40:13	0	0	58061b34c7b1100001138a1e	1	1	DL_test	16	DL_test	5			0		da	1	1385	6	2	antiphase_hc_ios.wav	3	6	6	noise_calib_stim_RIGHT.wav	2	32	blb_dichoticlistening_ta-da.mp3	ta	da	1	right
6.6.1	win	2023-06-27	08:40:13	0	0	58061b34c7b1100001138a1e	1	1	DL_test	16	DL_test	6			0		pa	1	975	6	2	antiphase_hc_ios.wav	3	6	6	noise_calib_stim_RIGHT.wav	2	17	blb_dichoticlistening_ga-pa.mp3	ga	pa	1	right
6.6.1	win	2023-06-27	08:40:13	0	0	58061b34c7b1100001138a1e	1	1	DL_test	16	DL_test	7			0		ta	1	1598	6	2	antiphase_hc_ios.wav	3	6	6	noise_calib_stim_RIGHT.wav	2	30	blb_dichoticlistening_pa-ta.mp3	pa	ta	1	right
6.6.1	win	2023-06-27	08:40:13	0	0	58061b34c7b1100001138a1e	1	1	DL_test	16	DL_test	8			0		da	1	1036	6	2	antiphase_hc_ios.wav	3	6	6	noise_calib_stim_RIGHT.wav	2	14	blb_dichoticlistening_ga-da.mp3	ga	da	1	right
6.6.1	win	2023-06-27	08:40:13	0	0	58061b34c7b1100001138a1e	1	1	DL_test	16	DL_test	9			0		pa	1	1152	6	2	antiphase_hc_ios.wav	3	6	6	noise_calib_stim_RIGHT.wav	2	35	blb_dichoticlistening_ta-pa.mp3	ta	pa	1	right
6.6.1	win	2023-06-27	08:40:13	0	0	58061b34c7b1100001138a1e	1	1	DL_test	16	DL_test	10			0		pa	1	831	6	2	antiphase_hc_ios.wav	3	6	6	noise_calib_stim_RIGHT.wav	2	29	blb_dichoticlistening_pa-pa.mp3	pa	pa	0	left
6.6.1	win	2023-06-27	08:40:13	0	0	58061b34c7b1100001138a1e	1	1	DL_test	16	DL_test	11			0		pa	1	796	6	2	antiphase_hc_ios.wav	3	6	6	noise_calib_stim_RIGHT.wav	2	23	blb_dichoticlistening_ka-pa.mp3	ka	pa	1	right
6.6.1	win	2023-06-27	08:40:13	0	0	58061b34c7b1100001138a1e	1	1	DL_test	16	DL_test	12			0		pa	0	1162	6	2	antiphase_hc_ios.wav	3	6	6	noise_calib_stim_RIGHT.wav	2	31	blb_dichoticlistening_ta-ba.mp3	ta	ba	1	other
6.6.1	win	2023-06-27	08:40:13	0	0	58061b34c7b1100001138a1e	1	1	DL_test	16	DL_test	13			0		pa	1	824	6	2	antiphase_hc_ios.wav	3	6	6	noise_calib_stim_RIGHT.wav	2	25	blb_dichoticlistening_pa-ba.mp3	pa	ba	1	left
6.6.1	win	2023-06-27	08:40:13	0	0	58061b34c7b1100001138a1e	1	1	DL_test	16	DL_test	14			0		ga	1	989	6	2	antiphase_hc_ios.wav	3	6	6	noise_calib_stim_RIGHT.wav	2	33	blb_dichoticlistening_ta-ga.mp3	ta	ga	1	right
6.6.1	win	2023-06-27	08:40:13	0	0	58061b34c7b1100001138a1e	1	1	DL_test	16	DL_test	15			0		da	1	788	6	2	antiphase_hc_ios.wav	3	6	6	noise_calib_stim_RIGHT.wav	2	8	blb_dichoticlistening_da-da.mp3	da	da	0	left
6.6.1	win	2023-06-27	08:40:13	0	0	58061b34c7b1100001138a1e	1	1	DL_test	16	DL_test	16			0		da	1	1338	6	2	antiphase_hc_ios.wav	3	6	6	noise_calib_stim_RIGHT.wav	2	26	blb_dichoticlistening_pa-da.mp3	pa	da	1	right
6.6.1	win	2023-06-27	08:40:13	0	0	58061b34c7b1100001138a1e	1	1	DL_test	16	DL_test	17			0		ka	1	1970	6	2	antiphase_hc_ios.wav	3	6	6	noise_calib_stim_RIGHT.wav	2	28	blb_dichoticlistening_pa-ka.mp3	pa	ka	1	right
6.6.1	win	2023-06-27	08:40:13	0	0	58061b34c7b1100001138a1e	1	1	DL_test	16	DL_test	18			0		da	1	1017	6	2	antiphase_hc_ios.wav	3	6	6	noise_calib_stim_RIGHT.wav	2	7	blb_dichoticlistening_da-ba.mp3	da	ba	1	left
6.6.1	win	2023-06-27	08:40:13	0	0	58061b34c7b1100001138a1e	1	1	DL_test	16	DL_test	19			0		pa	0	983	6	2	antiphase_hc_ios.wav	3	6	6	noise_calib_stim_RIGHT.wav	2	10	blb_dichoticlistening_da-ka.mp3	da	ka	1	other
6.6.1	win	2023-06-27	08:40:13	0	0	58061b34c7b1100001138a1e	1	1	DL_test	16	DL_test	20			0		ga	1	1126	6	2	antiphase_hc_ios.wav	3	6	6	noise_calib_stim_RIGHT.wav	2	21	blb_dichoticlistening_ka-ga.mp3	ka	ga	1	right
6.6.1	win	2023-06-27	08:40:13	0	0	58061b34c7b1100001138a1e	1	1	DL_test	16	DL_test	21			0		da	1	847	6	2	antiphase_hc_ios.wav	3	6	6	noise_calib_stim_RIGHT.wav	2	20	blb_dichoticlistening_ka-da.mp3	ka	da	1	right
6.6.1	win	2023-06-27	08:40:13	0	0	58061b34c7b1100001138a1e	1	1	DL_test	16	DL_test	22			0		da	1	739	6	2	antiphase_hc_ios.wav	3	6	6	noise_calib_stim_RIGHT.wav	2	9	blb_dichoticlistening_da-ga.mp3	da	ga	1	left
6.6.1	win	2023-06-27	08:40:13	0	0	58061b34c7b1100001138a1e	1	1	DL_test	16	DL_test	23			0		ta	1	1173	6	2	antiphase_hc_ios.wav	3	6	6	noise_calib_stim_RIGHT.wav	2	12	blb_dichoticlistening_da-ta.mp3	da	ta	1	right
6.6.1	win	2023-06-27	08:40:13	0	0	58061b34c7b1100001138a1e	1	1	DL_test	16	DL_test	24			0		ka	1	818	6	2	antiphase_hc_ios.wav	3	6	6	noise_calib_stim_RIGHT.wav	2	22	blb_dichoticlistening_ka-ka.mp3	ka	ka	0	left
6.6.1	win	2023-06-27	08:40:13	0	0	58061b34c7b1100001138a1e	1	1	DL_test	16	DL_test	25			0		ka	1	1024	6	2	antiphase_hc_ios.wav	3	6	6	noise_calib_stim_RIGHT.wav	2	19	blb_dichoticlistening_ka-ba.mp3	ka	ba	1	left
6.6.1	win	2023-06-27	08:40:13	0	0	58061b34c7b1100001138a1e	1	1	DL_test	16	DL_test	26			0		ta	1	1357	6	2	antiphase_hc_ios.wav	3	6	6	noise_calib_stim_RIGHT.wav	2	24	blb_dichoticlistening_ka-ta.mp3	ka	ta	1	right
6.6.1	win	2023-06-27	08:40:13	0	0	58061b34c7b1100001138a1e	1	1	DL_test	16	DL_test	27			0		ka	1	1076	6	2	antiphase_hc_ios.wav	3	6	6	noise_calib_stim_RIGHT.wav	2	16	blb_dichoticlistening_ga-ka.mp3	ga	ka	1	right
6.6.1	win	2023-06-27	08:40:13	0	0	58061b34c7b1100001138a1e	1	1	DL_test	16	DL_test	28			0		ga	1	726	6	2	antiphase_hc_ios.wav	3	6	6	noise_calib_stim_RIGHT.wav	2	15	blb_dichoticlistening_ga-ga.mp3	ga	ga	0	left
6.6.1	win	2023-06-27	08:40:13	0	0	58061b34c7b1100001138a1e	1	1	DL_test	16	DL_test	29			0		ga	1	885	6	2	antiphase_hc_ios.wav	3	6	6	noise_calib_stim_RIGHT.wav	2	27	blb_dichoticlistening_pa-ga.mp3	pa	ga	1	right
6.6.1	win	2023-06-27	08:40:13	0	0	58061b34c7b1100001138a1e	1	1	DL_test	16	DL_test	30			0		da	1	985	6	2	antiphase_hc_ios.wav	3	6	6	noise_calib_stim_RIGHT.wav	2	2	blb_dichoticlistening_ba-da.mp3	ba	da	1	right
6.6.1	win	2023-06-27	08:40:13	0	0	58061b34c7b1100001138a1e	1	1	DL_test	16	DL_test	31			0		pa	1	840	6	2	antiphase_hc_ios.wav	3	6	6	noise_calib_stim_RIGHT.wav	2	11	blb_dichoticlistening_da-pa.mp3	da	pa	1	right
6.6.1	win	2023-06-27	08:40:13	0	0	58061b34c7b1100001138a1e	1	1	DL_test	16	DL_test	32			0		ka	0	1596	6	2	antiphase_hc_ios.wav	3	6	6	noise_calib_stim_RIGHT.wav	2	18	blb_dichoticlistening_ga-ta.mp3	ga	ta	1	other
6.6.1	win	2023-06-27	08:40:13	0	0	58061b34c7b1100001138a1e	1	1	DL_test	16	DL_test	33			0		ta	1	1082	6	2	antiphase_hc_ios.wav	3	6	6	noise_calib_stim_RIGHT.wav	2	36	blb_dichoticlistening_ta-ta.mp3	ta	ta	0	left
6.6.1	win	2023-06-27	08:40:13	0	0	58061b34c7b1100001138a1e	1	1	DL_test	16	DL_test	34			0		pa	1	1188	6	2	antiphase_hc_ios.wav	3	6	6	noise_calib_stim_RIGHT.wav	2	5	blb_dichoticlistening_ba-pa.mp3	ba	pa	1	right
6.6.1	win	2023-06-27	08:40:13	0	0	58061b34c7b1100001138a1e	1	1	DL_test	16	DL_test	35			0		ba	1	1409	6	2	antiphase_hc_ios.wav	3	6	6	noise_calib_stim_RIGHT.wav	2	1	blb_dichoticlistening_ba-ba.mp3	ba	ba	0	left
6.6.1	win	2023-06-27	08:40:13	0	0	58061b34c7b1100001138a1e	1	1	DL_test	16	DL_test	36			0		ga	1	1247	6	2	antiphase_hc_ios.wav	3	6	6	noise_calib_stim_RIGHT.wav	2	13	blb_dichoticlistening_ga-ba.mp3	ga	ba	1	left
6.6.1	win	2023-06-27	08:40:13	08:50:13	596315	58061b34c7b1100001138a1e	1	1	practice_slash	22	practice_slash	1	stimuli_distractor_trianglediamonds.svg	stimuli_distractor_diamondtriangles.svg	16	no	0	1	2000	6	2	antiphase_hc_ios.wav	3	6	6	noise_calib_stim_RIGHT.wav	2	13	blb_dichoticlistening_ga-ba.mp3	ga	ba	1	left
6.6.1	win	2023-06-27	08:40:13	08:50:13	596315	58061b34c7b1100001138a1e	1	1	practice_slash	22	advance_on_keypress_SLASH	2	stimuli_distractor_trianglediamonds.svg	stimuli_distractor_diamondtriangles.svg	16	no	57	0	1895	6	2	antiphase_hc_ios.wav	3	6	6	noise_calib_stim_RIGHT.wav	2	13	blb_dichoticlistening_ga-ba.mp3	ga	ba	1	left
6.6.1	win	2023-06-27	08:40:13	08:50:18	601587	58061b34c7b1100001138a1e	1	1	practice_slash	22	practice_slash	3	stimuli_distractor_diamondtriangles.svg	stimuli_target_diamondrectangles.svg	8	yes	53	1	1738	6	2	antiphase_hc_ios.wav	3	6	6	noise_calib_stim_RIGHT.wav	2	13	blb_dichoticlistening_ga-ba.mp3	ga	ba	1	left
6.6.1	win	2023-06-27	08:40:13	08:50:18	601587	58061b34c7b1100001138a1e	1	1	practice_slash	22	advance_on_keypress_SLASH	4	stimuli_distractor_diamondtriangles.svg	stimuli_target_diamondrectangles.svg	8	yes	57	0	1076	6	2	antiphase_hc_ios.wav	3	6	6	noise_calib_stim_RIGHT.wav	2	13	blb_dichoticlistening_ga-ba.mp3	ga	ba	1	left
6.6.1	win	2023-06-27	08:40:13	08:50:22	605595	58061b34c7b1100001138a1e	1	1	practice_slash	22	practice_slash	5	stimuli_distractor_trianglediamonds.svg	stimuli_target_squarediamonds.svg	11	yes	53	1	1296	6	2	antiphase_hc_ios.wav	3	6	6	noise_calib_stim_RIGHT.wav	2	13	blb_dichoticlistening_ga-ba.mp3	ga	ba	1	left
6.6.1	win	2023-06-27	08:40:13	08:50:22	605595	58061b34c7b1100001138a1e	1	1	practice_slash	22	advance_on_keypress_SLASH	6	stimuli_distractor_trianglediamonds.svg	stimuli_target_squarediamonds.svg	11	yes	57	0	931	6	2	antiphase_hc_ios.wav	3	6	6	noise_calib_stim_RIGHT.wav	2	13	blb_dichoticlistening_ga-ba.mp3	ga	ba	1	left
6.6.1	win	2023-06-27	08:40:13	08:50:26	609251	58061b34c7b1100001138a1e	1	1	practice_slash	22	practice_slash	7	stimuli_distractor_diamondtriangles.svg	stimuli_target_trianglerectangles.svg	9	yes	53	1	1068	6	2	antiphase_hc_ios.wav	3	6	6	noise_calib_stim_RIGHT.wav	2	13	blb_dichoticlistening_ga-ba.mp3	ga	ba	1	left
6.6.1	win	2023-06-27	08:40:13	08:50:26	609251	58061b34c7b1100001138a1e	1	1	practice_slash	22	advance_on_keypress_SLASH	8	stimuli_distractor_diamondtriangles.svg	stimuli_target_trianglerectangles.svg	9	yes	57	0	905	6	2	antiphase_hc_ios.wav	3	6	6	noise_calib_stim_RIGHT.wav	2	13	blb_dichoticlistening_ga-ba.mp3	ga	ba	1	left
6.6.1	win	2023-06-27	08:40:13	08:50:29	612738	58061b34c7b1100001138a1e	1	1	practice_slash	22	practice_slash	9	stimuli_target_squarediamonds.svg	stimuli_distractor_trianglediamonds.svg	5	yes	53	1	940	6	2	antiphase_hc_ios.wav	3	6	6	noise_calib_stim_RIGHT.wav	2	13	blb_dichoticlistening_ga-ba.mp3	ga	ba	1	left
6.6.1	win	2023-06-27	08:40:13	08:50:29	612738	58061b34c7b1100001138a1e	1	1	practice_slash	22	advance_on_keypress_SLASH	10	stimuli_target_squarediamonds.svg	stimuli_distractor_trianglediamonds.svg	5	yes	57	0	1037	6	2	antiphase_hc_ios.wav	3	6	6	noise_calib_stim_RIGHT.wav	2	13	blb_dichoticlistening_ga-ba.mp3	ga	ba	1	left
6.6.1	win	2023-06-27	08:40:13	08:50:33	616418	58061b34c7b1100001138a1e	1	1	practice_slash	22	practice_slash	11	stimuli_distractor_trianglediamonds.svg	stimuli_target_diamondrectangles.svg	12	yes	53	1	1003	6	2	antiphase_hc_ios.wav	3	6	6	noise_calib_stim_RIGHT.wav	2	13	blb_dichoticlistening_ga-ba.mp3	ga	ba	1	left
6.6.1	win	2023-06-27	08:40:13	08:50:33	616418	58061b34c7b1100001138a1e	1	1	practice_slash	22	advance_on_keypress_SLASH	12	stimuli_distractor_trianglediamonds.svg	stimuli_target_diamondrectangles.svg	12	yes	57	0	713	6	2	antiphase_hc_ios.wav	3	6	6	noise_calib_stim_RIGHT.wav	2	13	blb_dichoticlistening_ga-ba.mp3	ga	ba	1	left
6.6.1	win	2023-06-27	08:40:13	08:50:36	619883	58061b34c7b1100001138a1e	1	1	practice_slash	22	practice_slash	13	stimuli_distractor_diamondtriangles.svg	stimuli_target_rectangletriangles.svg	7	yes	53	1	1100	6	2	antiphase_hc_ios.wav	3	6	6	noise_calib_stim_RIGHT.wav	2	13	blb_dichoticlistening_ga-ba.mp3	ga	ba	1	left
6.6.1	win	2023-06-27	08:40:13	08:50:36	619883	58061b34c7b1100001138a1e	1	1	practice_slash	22	advance_on_keypress_SLASH	14	stimuli_distractor_diamondtriangles.svg	stimuli_target_rectangletriangles.svg	7	yes	57	0	798	6	2	antiphase_hc_ios.wav	3	6	6	noise_calib_stim_RIGHT.wav	2	13	blb_dichoticlistening_ga-ba.mp3	ga	ba	1	left
6.6.1	win	2023-06-27	08:40:13	08:50:40	623426	58061b34c7b1100001138a1e	1	1	practice_slash	22	practice_slash	15	stimuli_distractor_trianglediamonds.svg	stimuli_target_rectanglediamonds.svg	10	yes	53	1	1093	6	2	antiphase_hc_ios.wav	3	6	6	noise_calib_stim_RIGHT.wav	2	13	blb_dichoticlistening_ga-ba.mp3	ga	ba	1	left
6.6.1	win	2023-06-27	08:40:13	08:50:40	623426	58061b34c7b1100001138a1e	1	1	practice_slash	22	advance_on_keypress_SLASH	16	stimuli_distractor_trianglediamonds.svg	stimuli_target_rectanglediamonds.svg	10	yes	57	0	793	6	2	antiphase_hc_ios.wav	3	6	6	noise_calib_stim_RIGHT.wav	2	13	blb_dichoticlistening_ga-ba.mp3	ga	ba	1	left
6.6.1	win	2023-06-27	08:40:13	08:50:44	627131	58061b34c7b1100001138a1e	1	1	practice_slash	22	practice_slash	17	stimuli_target_diamondsquares.svg	stimuli_distractor_trianglediamonds.svg	6	yes	53	1	1280	6	2	antiphase_hc_ios.wav	3	6	6	noise_calib_stim_RIGHT.wav	2	13	blb_dichoticlistening_ga-ba.mp3	ga	ba	1	left
6.6.1	win	2023-06-27	08:40:13	08:50:44	627131	58061b34c7b1100001138a1e	1	1	practice_slash	22	advance_on_keypress_SLASH	18	stimuli_target_diamondsquares.svg	stimuli_distractor_trianglediamonds.svg	6	yes	57	0	645	6	2	antiphase_hc_ios.wav	3	6	6	noise_calib_stim_RIGHT.wav	2	13	blb_dichoticlistening_ga-ba.mp3	ga	ba	1	left
6.6.1	win	2023-06-27	08:40:13	08:50:47	630531	58061b34c7b1100001138a1e	1	1	practice_slash	22	practice_slash	19	stimuli_target_diamondsquares.svg	stimuli_distractor_diamondtriangles.svg	3	yes	53	1	1114	6	2	antiphase_hc_ios.wav	3	6	6	noise_calib_stim_RIGHT.wav	2	13	blb_dichoticlistening_ga-ba.mp3	ga	ba	1	left
6.6.1	win	2023-06-27	08:40:13	08:50:47	630531	58061b34c7b1100001138a1e	1	1	practice_slash	22	advance_on_keypress_SLASH	20	stimuli_target_diamondsquares.svg	stimuli_distractor_diamondtriangles.svg	3	yes	57	0	620	6	2	antiphase_hc_ios.wav	3	6	6	noise_calib_stim_RIGHT.wav	2	13	blb_dichoticlistening_ga-ba.mp3	ga	ba	1	left
6.6.1	win	2023-06-27	08:40:13	08:50:51	634801	58061b34c7b1100001138a1e	1	1	practice_slash	22	practice_slash	21	stimuli_distractor_diamondtriangles.svg	stimuli_distractor_trianglediamonds.svg	14	no	0	1	2000	6	2	antiphase_hc_ios.wav	3	6	6	noise_calib_stim_RIGHT.wav	2	13	blb_dichoticlistening_ga-ba.mp3	ga	ba	1	left
6.6.1	win	2023-06-27	08:40:13	08:50:51	634801	58061b34c7b1100001138a1e	1	1	practice_slash	22	advance_on_keypress_SLASH	22	stimuli_distractor_diamondtriangles.svg	stimuli_distractor_trianglediamonds.svg	14	no	57	0	592	6	2	antiphase_hc_ios.wav	3	6	6	noise_calib_stim_RIGHT.wav	2	13	blb_dichoticlistening_ga-ba.mp3	ga	ba	1	left
6.6.1	win	2023-06-27	08:40:13	08:50:55	639034	58061b34c7b1100001138a1e	1	1	practice_slash	22	practice_slash	23	stimuli_distractor_trianglediamonds.svg	stimuli_distractor_trianglediamonds.svg	15	no	0	1	2000	6	2	antiphase_hc_ios.wav	3	6	6	noise_calib_stim_RIGHT.wav	2	13	blb_dichoticlistening_ga-ba.mp3	ga	ba	1	left
6.6.1	win	2023-06-27	08:40:13	08:50:55	639034	58061b34c7b1100001138a1e	1	1	practice_slash	22	advance_on_keypress_SLASH	24	stimuli_distractor_trianglediamonds.svg	stimuli_distractor_trianglediamonds.svg	15	no	57	0	712	6	2	antiphase_hc_ios.wav	3	6	6	noise_calib_stim_RIGHT.wav	2	13	blb_dichoticlistening_ga-ba.mp3	ga	ba	1	left
6.6.1	win	2023-06-27	08:40:13	08:50:59	642394	58061b34c7b1100001138a1e	1	1	practice_slash	22	practice_slash	25	stimuli_target_rectanglediamonds.svg	stimuli_distractor_diamondtriangles.svg	1	yes	53	1	1010	6	2	antiphase_hc_ios.wav	3	6	6	noise_calib_stim_RIGHT.wav	2	13	blb_dichoticlistening_ga-ba.mp3	ga	ba	1	left
6.6.1	win	2023-06-27	08:40:13	08:50:59	642394	58061b34c7b1100001138a1e	1	1	practice_slash	22	advance_on_keypress_SLASH	26	stimuli_target_rectanglediamonds.svg	stimuli_distractor_diamondtriangles.svg	1	yes	57	0	730	6	2	antiphase_hc_ios.wav	3	6	6	noise_calib_stim_RIGHT.wav	2	13	blb_dichoticlistening_ga-ba.mp3	ga	ba	1	left
6.6.1	win	2023-06-27	08:40:13	08:51:02	645690	58061b34c7b1100001138a1e	1	1	practice_slash	22	practice_slash	27	stimuli_target_rectanglediamonds.svg	stimuli_distractor_trianglediamonds.svg	4	yes	53	1	939	6	2	antiphase_hc_ios.wav	3	6	6	noise_calib_stim_RIGHT.wav	2	13	blb_dichoticlistening_ga-ba.mp3	ga	ba	1	left
6.6.1	win	2023-06-27	08:40:13	08:51:02	645690	58061b34c7b1100001138a1e	1	1	practice_slash	22	advance_on_keypress_SLASH	28	stimuli_target_rectanglediamonds.svg	stimuli_distractor_trianglediamonds.svg	4	yes	57	0	741	6	2	antiphase_hc_ios.wav	3	6	6	noise_calib_stim_RIGHT.wav	2	13	blb_dichoticlistening_ga-ba.mp3	ga	ba	1	left
6.6.1	win	2023-06-27	08:40:13	08:51:05	648947	58061b34c7b1100001138a1e	1	1	practice_slash	22	practice_slash	29	stimuli_target_squarediamonds.svg	stimuli_distractor_diamondtriangles.svg	2	yes	53	1	878	6	2	antiphase_hc_ios.wav	3	6	6	noise_calib_stim_RIGHT.wav	2	13	blb_dichoticlistening_ga-ba.mp3	ga	ba	1	left
6.6.1	win	2023-06-27	08:40:13	08:51:05	648947	58061b34c7b1100001138a1e	1	1	practice_slash	22	advance_on_keypress_SLASH	30	stimuli_target_squarediamonds.svg	stimuli_distractor_diamondtriangles.svg	2	yes	57	0	515	6	2	antiphase_hc_ios.wav	3	6	6	noise_calib_stim_RIGHT.wav	2	13	blb_dichoticlistening_ga-ba.mp3	ga	ba	1	left
6.6.1	win	2023-06-27	08:40:13	08:51:09	653102	58061b34c7b1100001138a1e	1	1	practice_slash	22	practice_slash	31	stimuli_distractor_diamondtriangles.svg	stimuli_distractor_diamondtriangles.svg	13	no	0	1	2000	6	2	antiphase_hc_ios.wav	3	6	6	noise_calib_stim_RIGHT.wav	2	13	blb_dichoticlistening_ga-ba.mp3	ga	ba	1	left
6.6.1	win	2023-06-27	08:40:13	08:51:09	653102	58061b34c7b1100001138a1e	1	1	practice_slash	22	advance_on_keypress_SLASH	32	stimuli_distractor_diamondtriangles.svg	stimuli_distractor_diamondtriangles.svg	13	no	57	0	636	6	2	antiphase_hc_ios.wav	3	6	6	noise_calib_stim_RIGHT.wav	2	13	blb_dichoticlistening_ga-ba.mp3	ga	ba	1	left
6.6.1	win	2023-06-27	08:40:13	08:51:19	662951	58061b34c7b1100001138a1e	1	1	main_slash	24	main_slash	1	stimuli_distractor_trianglediamonds.svg	stimuli_distractor_trianglediamonds.svg	33	no	0	1	2000	6	2	antiphase_hc_ios.wav	3	6	6	noise_calib_stim_RIGHT.wav	2	13	blb_dichoticlistening_ga-ba.mp3	ga	ba	1	left
6.6.1	win	2023-06-27	08:40:13	08:51:19	662951	58061b34c7b1100001138a1e	1	1	main_slash	24	advance_on_keypress_SLASH	2	stimuli_distractor_trianglediamonds.svg	stimuli_distractor_trianglediamonds.svg	33	no	57	0	1498	6	2	antiphase_hc_ios.wav	3	6	6	noise_calib_stim_RIGHT.wav	2	13	blb_dichoticlistening_ga-ba.mp3	ga	ba	1	left
6.6.1	win	2023-06-27	08:40:13	08:51:23	666223	58061b34c7b1100001138a1e	1	1	main_slash	24	main_slash	3	stimuli_distractor_diamondtriangles.svg	stimuli_target_squaretriangles.svg	15	yes	53	1	1117	6	2	antiphase_hc_ios.wav	3	6	6	noise_calib_stim_RIGHT.wav	2	13	blb_dichoticlistening_ga-ba.mp3	ga	ba	1	left
6.6.1	win	2023-06-27	08:40:13	08:51:23	666223	58061b34c7b1100001138a1e	1	1	main_slash	24	advance_on_keypress_SLASH	4	stimuli_distractor_diamondtriangles.svg	stimuli_target_squaretriangles.svg	15	yes	57	0	1415	6	2	antiphase_hc_ios.wav	3	6	6	noise_calib_stim_RIGHT.wav	2	13	blb_dichoticlistening_ga-ba.mp3	ga	ba	1	left
6.6.1	win	2023-06-27	08:40:13	08:51:27	670285	58061b34c7b1100001138a1e	1	1	main_slash	24	main_slash	5	stimuli_distractor_trianglediamonds.svg	stimuli_distractor_trianglediamonds.svg	34	no	0	1	2000	6	2	antiphase_hc_ios.wav	3	6	6	noise_calib_stim_RIGHT.wav	2	13	blb_dichoticlistening_ga-ba.mp3	ga	ba	1	left
6.6.1	win	2023-06-27	08:40:13	08:51:27	670285	58061b34c7b1100001138a1e	1	1	main_slash	24	advance_on_keypress_SLASH	6	stimuli_distractor_trianglediamonds.svg	stimuli_distractor_trianglediamonds.svg	34	no	57	0	780	6	2	antiphase_hc_ios.wav	3	6	6	noise_calib_stim_RIGHT.wav	2	13	blb_dichoticlistening_ga-ba.mp3	ga	ba	1	left
6.6.1	win	2023-06-27	08:40:13	08:51:29	672809	58061b34c7b1100001138a1e	1	1	main_slash	24	main_slash	7	stimuli_distractor_diamondtriangles.svg	stimuli_target_diamondrectangles.svg	31	yes	53	1	1108	6	2	antiphase_hc_ios.wav	3	6	6	noise_calib_stim_RIGHT.wav	2	13	blb_dichoticlistening_ga-ba.mp3	ga	ba	1	left
6.6.1	win	2023-06-27	08:40:13	08:51:29	672809	58061b34c7b1100001138a1e	1	1	main_slash	24	advance_on_keypress_SLASH	8	stimuli_distractor_diamondtriangles.svg	stimuli_target_diamondrectangles.svg	31	yes	57	0	1478	6	2	antiphase_hc_ios.wav	3	6	6	noise_calib_stim_RIGHT.wav	2	13	blb_dichoticlistening_ga-ba.mp3	ga	ba	1	left
6.6.1	win	2023-06-27	08:40:13	08:51:33	676919	58061b34c7b1100001138a1e	1	1	main_slash	24	main_slash	9	stimuli_distractor_trianglediamonds.svg	stimuli_target_squaretriangles.svg	11	yes	0	0	2000	6	2	antiphase_hc_ios.wav	3	6	6	noise_calib_stim_RIGHT.wav	2	13	blb_dichoticlistening_ga-ba.mp3	ga	ba	1	left
6.6.1	win	2023-06-27	08:40:13	08:51:33	676919	58061b34c7b1100001138a1e	1	1	main_slash	24	advance_on_keypress_SLASH	10	stimuli_distractor_trianglediamonds.svg	stimuli_target_squaretriangles.svg	11	yes	57	0	634	6	2	antiphase_hc_ios.wav	3	6	6	noise_calib_stim_RIGHT.wav	2	13	blb_dichoticlistening_ga-ba.mp3	ga	ba	1	left
6.6.1	win	2023-06-27	08:40:13	08:51:36	679505	58061b34c7b1100001138a1e	1	1	main_slash	24	main_slash	11	stimuli_distractor_trianglediamonds.svg	stimuli_target_trianglesquares.svg	26	yes	53	1	1303	6	2	antiphase_hc_ios.wav	3	6	6	noise_calib_stim_RIGHT.wav	2	13	blb_dichoticlistening_ga-ba.mp3	ga	ba	1	left
6.6.1	win	2023-06-27	08:40:13	08:51:36	679505	58061b34c7b1100001138a1e	1	1	main_slash	24	advance_on_keypress_SLASH	12	stimuli_distractor_trianglediamonds.svg	stimuli_target_trianglesquares.svg	26	yes	57	0	1403	6	2	antiphase_hc_ios.wav	3	6	6	noise_calib_stim_RIGHT.wav	2	13	blb_dichoticlistening_ga-ba.mp3	ga	ba	1	left
6.6.1	win	2023-06-27	08:40:13	08:51:39	682914	58061b34c7b1100001138a1e	1	1	main_slash	24	main_slash	13	stimuli_distractor_diamondtriangles.svg	stimuli_target_squarediamonds.svg	16	yes	53	1	1362	6	2	antiphase_hc_ios.wav	3	6	6	noise_calib_stim_RIGHT.wav	2	13	blb_dichoticlistening_ga-ba.mp3	ga	ba	1	left
6.6.1	win	2023-06-27	08:40:13	08:51:39	682914	58061b34c7b1100001138a1e	1	1	main_slash	24	advance_on_keypress_SLASH	14	stimuli_distractor_diamondtriangles.svg	stimuli_target_squarediamonds.svg	16	yes	57	0	1106	6	2	antiphase_hc_ios.wav	3	6	6	noise_calib_stim_RIGHT.wav	2	13	blb_dichoticlistening_ga-ba.mp3	ga	ba	1	left
6.6.1	win	2023-06-27	08:40:13	08:51:43	686652	58061b34c7b1100001138a1e	1	1	main_slash	24	main_slash	15	stimuli_distractor_trianglediamonds.svg	stimuli_distractor_diamondtriangles.svg	36	no	0	1	2000	6	2	antiphase_hc_ios.wav	3	6	6	noise_calib_stim_RIGHT.wav	2	13	blb_dichoticlistening_ga-ba.mp3	ga	ba	1	left
6.6.1	win	2023-06-27	08:40:13	08:51:43	686652	58061b34c7b1100001138a1e	1	1	main_slash	24	advance_on_keypress_SLASH	16	stimuli_distractor_trianglediamonds.svg	stimuli_distractor_diamondtriangles.svg	36	no	57	0	740	6	2	antiphase_hc_ios.wav	3	6	6	noise_calib_stim_RIGHT.wav	2	13	blb_dichoticlistening_ga-ba.mp3	ga	ba	1	left
6.6.1	win	2023-06-27	08:40:13	08:51:46	689681	58061b34c7b1100001138a1e	1	1	main_slash	24	main_slash	17	stimuli_target_trianglerectangles.svg	stimuli_distractor_trianglediamonds.svg	17	yes	53	1	1645	6	2	antiphase_hc_ios.wav	3	6	6	noise_calib_stim_RIGHT.wav	2	13	blb_dichoticlistening_ga-ba.mp3	ga	ba	1	left
6.6.1	win	2023-06-27	08:40:13	08:51:46	689681	58061b34c7b1100001138a1e	1	1	main_slash	24	advance_on_keypress_SLASH	18	stimuli_target_trianglerectangles.svg	stimuli_distractor_trianglediamonds.svg	17	yes	57	0	771	6	2	antiphase_hc_ios.wav	3	6	6	noise_calib_stim_RIGHT.wav	2	13	blb_dichoticlistening_ga-ba.mp3	ga	ba	1	left
6.6.1	win	2023-06-27	08:40:13	08:51:49	692193	58061b34c7b1100001138a1e	1	1	main_slash	24	main_slash	19	stimuli_distractor_trianglediamonds.svg	stimuli_target_trianglerectangles.svg	25	yes	53	1	1108	6	2	antiphase_hc_ios.wav	3	6	6	noise_calib_stim_RIGHT.wav	2	13	blb_dichoticlistening_ga-ba.mp3	ga	ba	1	left
6.6.1	win	2023-06-27	08:40:13	08:51:49	692193	58061b34c7b1100001138a1e	1	1	main_slash	24	advance_on_keypress_SLASH	20	stimuli_distractor_trianglediamonds.svg	stimuli_target_trianglerectangles.svg	25	yes	57	0	766	6	2	antiphase_hc_ios.wav	3	6	6	noise_calib_stim_RIGHT.wav	2	13	blb_dichoticlistening_ga-ba.mp3	ga	ba	1	left
6.6.1	win	2023-06-27	08:40:13	08:51:52	695603	58061b34c7b1100001138a1e	1	1	main_slash	24	main_slash	21	stimuli_distractor_diamondtriangles.svg	stimuli_target_rectangletriangles.svg	13	yes	0	0	2000	6	2	antiphase_hc_ios.wav	3	6	6	noise_calib_stim_RIGHT.wav	2	13	blb_dichoticlistening_ga-ba.mp3	ga	ba	1	left
6.6.1	win	2023-06-27	08:40:13	08:51:52	695603	58061b34c7b1100001138a1e	1	1	main_slash	24	advance_on_keypress_SLASH	22	stimuli_distractor_diamondtriangles.svg	stimuli_target_rectangletriangles.svg	13	yes	57	0	629	6	2	antiphase_hc_ios.wav	3	6	6	noise_calib_stim_RIGHT.wav	2	13	blb_dichoticlistening_ga-ba.mp3	ga	ba	1	left
6.6.1	win	2023-06-27	08:40:13	08:51:55	698218	58061b34c7b1100001138a1e	1	1	main_slash	24	main_slash	23	stimuli_target_squarediamonds.svg	stimuli_distractor_trianglediamonds.svg	4	yes	53	1	1348	6	2	antiphase_hc_ios.wav	3	6	6	noise_calib_stim_RIGHT.wav	2	13	blb_dichoticlistening_ga-ba.mp3	ga	ba	1	left
6.6.1	win	2023-06-27	08:40:13	08:51:55	698218	58061b34c7b1100001138a1e	1	1	main_slash	24	advance_on_keypress_SLASH	24	stimuli_target_squarediamonds.svg	stimuli_distractor_trianglediamonds.svg	4	yes	57	0	788	6	2	antiphase_hc_ios.wav	3	6	6	noise_calib_stim_RIGHT.wav	2	13	blb_dichoticlistening_ga-ba.mp3	ga	ba	1	left
6.6.1	win	2023-06-27	08:40:13	08:51:58	701653	58061b34c7b1100001138a1e	1	1	main_slash	24	main_slash	25	stimuli_distractor_trianglediamonds.svg	stimuli_distractor_diamondtriangles.svg	35	no	0	1	2000	6	2	antiphase_hc_ios.wav	3	6	6	noise_calib_stim_RIGHT.wav	2	13	blb_dichoticlistening_ga-ba.mp3	ga	ba	1	left
6.6.1	win	2023-06-27	08:40:13	08:51:58	701653	58061b34c7b1100001138a1e	1	1	main_slash	24	advance_on_keypress_SLASH	26	stimuli_distractor_trianglediamonds.svg	stimuli_distractor_diamondtriangles.svg	35	no	57	0	540	6	2	antiphase_hc_ios.wav	3	6	6	noise_calib_stim_RIGHT.wav	2	13	blb_dichoticlistening_ga-ba.mp3	ga	ba	1	left
6.6.1	win	2023-06-27	08:40:13	08:52:00	703945	58061b34c7b1100001138a1e	1	1	main_slash	24	main_slash	27	stimuli_distractor_diamondtriangles.svg	stimuli_target_diamondsquares.svg	32	yes	53	1	1108	6	2	antiphase_hc_ios.wav	3	6	6	noise_calib_stim_RIGHT.wav	2	13	blb_dichoticlistening_ga-ba.mp3	ga	ba	1	left
6.6.1	win	2023-06-27	08:40:13	08:52:00	703945	58061b34c7b1100001138a1e	1	1	main_slash	24	advance_on_keypress_SLASH	28	stimuli_distractor_diamondtriangles.svg	stimuli_target_diamondsquares.svg	32	yes	57	0	1023	6	2	antiphase_hc_ios.wav	3	6	6	noise_calib_stim_RIGHT.wav	2	13	blb_dichoticlistening_ga-ba.mp3	ga	ba	1	left
6.6.1	win	2023-06-27	08:40:13	08:52:04	707604	58061b34c7b1100001138a1e	1	1	main_slash	24	main_slash	29	stimuli_distractor_diamondtriangles.svg	stimuli_distractor_trianglediamonds.svg	37	no	0	1	2000	6	2	antiphase_hc_ios.wav	3	6	6	noise_calib_stim_RIGHT.wav	2	13	blb_dichoticlistening_ga-ba.mp3	ga	ba	1	left
6.6.1	win	2023-06-27	08:40:13	08:52:04	707604	58061b34c7b1100001138a1e	1	1	main_slash	24	advance_on_keypress_SLASH	30	stimuli_distractor_diamondtriangles.svg	stimuli_distractor_trianglediamonds.svg	37	no	57	0	398	6	2	antiphase_hc_ios.wav	3	6	6	noise_calib_stim_RIGHT.wav	2	13	blb_dichoticlistening_ga-ba.mp3	ga	ba	1	left
6.6.1	win	2023-06-27	08:40:13	08:52:06	709873	58061b34c7b1100001138a1e	1	1	main_slash	24	main_slash	31	stimuli_target_trianglesquares.svg	stimuli_distractor_diamondtriangles.svg	22	yes	53	1	1219	6	2	antiphase_hc_ios.wav	3	6	6	noise_calib_stim_RIGHT.wav	2	13	blb_dichoticlistening_ga-ba.mp3	ga	ba	1	left
6.6.1	win	2023-06-27	08:40:13	08:52:06	709873	58061b34c7b1100001138a1e	1	1	main_slash	24	advance_on_keypress_SLASH	32	stimuli_target_trianglesquares.svg	stimuli_distractor_diamondtriangles.svg	22	yes	57	0	946	6	2	antiphase_hc_ios.wav	3	6	6	noise_calib_stim_RIGHT.wav	2	13	blb_dichoticlistening_ga-ba.mp3	ga	ba	1	left
6.6.1	win	2023-06-27	08:40:13	08:52:09	712882	58061b34c7b1100001138a1e	1	1	main_slash	24	main_slash	33	stimuli_distractor_trianglediamonds.svg	stimuli_target_rectanglediamonds.svg	10	yes	53	1	1428	6	2	antiphase_hc_ios.wav	3	6	6	noise_calib_stim_RIGHT.wav	2	13	blb_dichoticlistening_ga-ba.mp3	ga	ba	1	left
6.6.1	win	2023-06-27	08:40:13	08:52:09	712882	58061b34c7b1100001138a1e	1	1	main_slash	24	advance_on_keypress_SLASH	34	stimuli_distractor_trianglediamonds.svg	stimuli_target_rectanglediamonds.svg	10	yes	57	0	922	6	2	antiphase_hc_ios.wav	3	6	6	noise_calib_stim_RIGHT.wav	2	13	blb_dichoticlistening_ga-ba.mp3	ga	ba	1	left
6.6.1	win	2023-06-27	08:40:13	08:52:12	715505	58061b34c7b1100001138a1e	1	1	main_slash	24	main_slash	35	stimuli_distractor_trianglediamonds.svg	stimuli_target_diamondsquares.svg	28	yes	53	1	1068	6	2	antiphase_hc_ios.wav	3	6	6	noise_calib_stim_RIGHT.wav	2	13	blb_dichoticlistening_ga-ba.mp3	ga	ba	1	left
6.6.1	win	2023-06-27	08:40:13	08:52:12	715505	58061b34c7b1100001138a1e	1	1	main_slash	24	advance_on_keypress_SLASH	36	stimuli_distractor_trianglediamonds.svg	stimuli_target_diamondsquares.svg	28	yes	57	0	1176	6	2	antiphase_hc_ios.wav	3	6	6	noise_calib_stim_RIGHT.wav	2	13	blb_dichoticlistening_ga-ba.mp3	ga	ba	1	left
6.6.1	win	2023-06-27	08:40:13	08:52:15	718265	58061b34c7b1100001138a1e	1	1	main_slash	24	main_slash	37	stimuli_distractor_diamondtriangles.svg	stimuli_target_trianglerectangles.svg	29	yes	53	1	945	6	2	antiphase_hc_ios.wav	3	6	6	noise_calib_stim_RIGHT.wav	2	13	blb_dichoticlistening_ga-ba.mp3	ga	ba	1	left
6.6.1	win	2023-06-27	08:40:13	08:52:15	718265	58061b34c7b1100001138a1e	1	1	main_slash	24	advance_on_keypress_SLASH	38	stimuli_distractor_diamondtriangles.svg	stimuli_target_trianglerectangles.svg	29	yes	57	0	786	6	2	antiphase_hc_ios.wav	3	6	6	noise_calib_stim_RIGHT.wav	2	13	blb_dichoticlistening_ga-ba.mp3	ga	ba	1	left
6.6.1	win	2023-06-27	08:40:13	08:52:17	720649	58061b34c7b1100001138a1e	1	1	main_slash	24	main_slash	39	stimuli_target_diamondrectangles.svg	stimuli_distractor_diamondtriangles.svg	23	yes	53	1	961	6	2	antiphase_hc_ios.wav	3	6	6	noise_calib_stim_RIGHT.wav	2	13	blb_dichoticlistening_ga-ba.mp3	ga	ba	1	left
6.6.1	win	2023-06-27	08:40:13	08:52:17	720649	58061b34c7b1100001138a1e	1	1	main_slash	24	advance_on_keypress_SLASH	40	stimuli_target_diamondrectangles.svg	stimuli_distractor_diamondtriangles.svg	23	yes	57	0	659	6	2	antiphase_hc_ios.wav	3	6	6	noise_calib_stim_RIGHT.wav	2	13	blb_dichoticlistening_ga-ba.mp3	ga	ba	1	left
6.6.1	win	2023-06-27	08:40:13	08:52:20	723241	58061b34c7b1100001138a1e	1	1	main_slash	24	main_slash	41	stimuli_distractor_diamondtriangles.svg	stimuli_target_rectanglediamonds.svg	14	yes	53	1	1303	6	2	antiphase_hc_ios.wav	3	6	6	noise_calib_stim_RIGHT.wav	2	13	blb_dichoticlistening_ga-ba.mp3	ga	ba	1	left
6.6.1	win	2023-06-27	08:40:13	08:52:20	723241	58061b34c7b1100001138a1e	1	1	main_slash	24	advance_on_keypress_SLASH	42	stimuli_distractor_diamondtriangles.svg	stimuli_target_rectanglediamonds.svg	14	yes	57	0	842	6	2	antiphase_hc_ios.wav	3	6	6	noise_calib_stim_RIGHT.wav	2	13	blb_dichoticlistening_ga-ba.mp3	ga	ba	1	left
6.6.1	win	2023-06-27	08:40:13	08:52:22	725761	58061b34c7b1100001138a1e	1	1	main_slash	24	main_slash	43	stimuli_distractor_trianglediamonds.svg	stimuli_target_diamondrectangles.svg	27	yes	53	1	1040	6	2	antiphase_hc_ios.wav	3	6	6	noise_calib_stim_RIGHT.wav	2	13	blb_dichoticlistening_ga-ba.mp3	ga	ba	1	left
6.6.1	win	2023-06-27	08:40:13	08:52:22	725761	58061b34c7b1100001138a1e	1	1	main_slash	24	advance_on_keypress_SLASH	44	stimuli_distractor_trianglediamonds.svg	stimuli_target_diamondrectangles.svg	27	yes	57	0	798	6	2	antiphase_hc_ios.wav	3	6	6	noise_calib_stim_RIGHT.wav	2	13	blb_dichoticlistening_ga-ba.mp3	ga	ba	1	left
6.6.1	win	2023-06-27	08:40:13	08:52:26	729205	58061b34c7b1100001138a1e	1	1	main_slash	24	main_slash	45	stimuli_distractor_diamondtriangles.svg	stimuli_distractor_diamondtriangles.svg	39	no	0	1	2000	6	2	antiphase_hc_ios.wav	3	6	6	noise_calib_stim_RIGHT.wav	2	13	blb_dichoticlistening_ga-ba.mp3	ga	ba	1	left
6.6.1	win	2023-06-27	08:40:13	08:52:26	729205	58061b34c7b1100001138a1e	1	1	main_slash	24	advance_on_keypress_SLASH	46	stimuli_distractor_diamondtriangles.svg	stimuli_distractor_diamondtriangles.svg	39	no	57	0	780	6	2	antiphase_hc_ios.wav	3	6	6	noise_calib_stim_RIGHT.wav	2	13	blb_dichoticlistening_ga-ba.mp3	ga	ba	1	left
6.6.1	win	2023-06-27	08:40:13	08:52:28	731441	58061b34c7b1100001138a1e	1	1	main_slash	24	main_slash	47	stimuli_distractor_trianglediamonds.svg	stimuli_target_squarediamonds.svg	12	yes	53	1	819	6	2	antiphase_hc_ios.wav	3	6	6	noise_calib_stim_RIGHT.wav	2	13	blb_dichoticlistening_ga-ba.mp3	ga	ba	1	left
6.6.1	win	2023-06-27	08:40:13	08:52:28	731441	58061b34c7b1100001138a1e	1	1	main_slash	24	advance_on_keypress_SLASH	48	stimuli_distractor_trianglediamonds.svg	stimuli_target_squarediamonds.svg	12	yes	57	0	611	6	2	antiphase_hc_ios.wav	3	6	6	noise_calib_stim_RIGHT.wav	2	13	blb_dichoticlistening_ga-ba.mp3	ga	ba	1	left
6.6.1	win	2023-06-27	08:40:13	08:52:30	733633	58061b34c7b1100001138a1e	1	1	main_slash	24	main_slash	49	stimuli_target_rectanglediamonds.svg	stimuli_distractor_trianglediamonds.svg	2	yes	53	1	945	6	2	antiphase_hc_ios.wav	3	6	6	noise_calib_stim_RIGHT.wav	2	13	blb_dichoticlistening_ga-ba.mp3	ga	ba	1	left
6.6.1	win	2023-06-27	08:40:13	08:52:30	733633	58061b34c7b1100001138a1e	1	1	main_slash	24	advance_on_keypress_SLASH	50	stimuli_target_rectanglediamonds.svg	stimuli_distractor_trianglediamonds.svg	2	yes	57	0	603	6	2	antiphase_hc_ios.wav	3	6	6	noise_calib_stim_RIGHT.wav	2	13	blb_dichoticlistening_ga-ba.mp3	ga	ba	1	left
6.6.1	win	2023-06-27	08:40:13	08:52:32	735729	58061b34c7b1100001138a1e	1	1	main_slash	24	main_slash	51	stimuli_target_rectangletriangles.svg	stimuli_distractor_trianglediamonds.svg	1	yes	53	1	857	6	2	antiphase_hc_ios.wav	3	6	6	noise_calib_stim_RIGHT.wav	2	13	blb_dichoticlistening_ga-ba.mp3	ga	ba	1	left
6.6.1	win	2023-06-27	08:40:13	08:52:32	735729	58061b34c7b1100001138a1e	1	1	main_slash	24	advance_on_keypress_SLASH	52	stimuli_target_rectangletriangles.svg	stimuli_distractor_trianglediamonds.svg	1	yes	57	0	630	6	2	antiphase_hc_ios.wav	3	6	6	noise_calib_stim_RIGHT.wav	2	13	blb_dichoticlistening_ga-ba.mp3	ga	ba	1	left
6.6.1	win	2023-06-27	08:40:13	08:52:34	737889	58061b34c7b1100001138a1e	1	1	main_slash	24	main_slash	53	stimuli_target_rectanglediamonds.svg	stimuli_distractor_diamondtriangles.svg	6	yes	53	1	900	6	2	antiphase_hc_ios.wav	3	6	6	noise_calib_stim_RIGHT.wav	2	13	blb_dichoticlistening_ga-ba.mp3	ga	ba	1	left
6.6.1	win	2023-06-27	08:40:13	08:52:34	737889	58061b34c7b1100001138a1e	1	1	main_slash	24	advance_on_keypress_SLASH	54	stimuli_target_rectanglediamonds.svg	stimuli_distractor_diamondtriangles.svg	6	yes	57	0	609	6	2	antiphase_hc_ios.wav	3	6	6	noise_calib_stim_RIGHT.wav	2	13	blb_dichoticlistening_ga-ba.mp3	ga	ba	1	left
6.6.1	win	2023-06-27	08:40:13	08:52:36	740106	58061b34c7b1100001138a1e	1	1	main_slash	24	main_slash	55	stimuli_target_rectangletriangles.svg	stimuli_distractor_diamondtriangles.svg	5	yes	53	1	967	6	2	antiphase_hc_ios.wav	3	6	6	noise_calib_stim_RIGHT.wav	2	13	blb_dichoticlistening_ga-ba.mp3	ga	ba	1	left
6.6.1	win	2023-06-27	08:40:13	08:52:36	740106	58061b34c7b1100001138a1e	1	1	main_slash	24	advance_on_keypress_SLASH	56	stimuli_target_rectangletriangles.svg	stimuli_distractor_diamondtriangles.svg	5	yes	57	0	567	6	2	antiphase_hc_ios.wav	3	6	6	noise_calib_stim_RIGHT.wav	2	13	blb_dichoticlistening_ga-ba.mp3	ga	ba	1	left
6.6.1	win	2023-06-27	08:40:13	08:52:39	742257	58061b34c7b1100001138a1e	1	1	main_slash	24	main_slash	57	stimuli_target_squarediamonds.svg	stimuli_distractor_diamondtriangles.svg	8	yes	53	1	935	6	2	antiphase_hc_ios.wav	3	6	6	noise_calib_stim_RIGHT.wav	2	13	blb_dichoticlistening_ga-ba.mp3	ga	ba	1	left
6.6.1	win	2023-06-27	08:40:13	08:52:39	742257	58061b34c7b1100001138a1e	1	1	main_slash	24	advance_on_keypress_SLASH	58	stimuli_target_squarediamonds.svg	stimuli_distractor_diamondtriangles.svg	8	yes	57	0	529	6	2	antiphase_hc_ios.wav	3	6	6	noise_calib_stim_RIGHT.wav	2	13	blb_dichoticlistening_ga-ba.mp3	ga	ba	1	left
6.6.1	win	2023-06-27	08:40:13	08:52:42	745422	58061b34c7b1100001138a1e	1	1	main_slash	24	main_slash	59	stimuli_distractor_diamondtriangles.svg	stimuli_distractor_trianglediamonds.svg	38	no	0	1	2000	6	2	antiphase_hc_ios.wav	3	6	6	noise_calib_stim_RIGHT.wav	2	13	blb_dichoticlistening_ga-ba.mp3	ga	ba	1	left
6.6.1	win	2023-06-27	08:40:13	08:52:42	745422	58061b34c7b1100001138a1e	1	1	main_slash	24	advance_on_keypress_SLASH	60	stimuli_distractor_diamondtriangles.svg	stimuli_distractor_trianglediamonds.svg	38	no	57	0	482	6	2	antiphase_hc_ios.wav	3	6	6	noise_calib_stim_RIGHT.wav	2	13	blb_dichoticlistening_ga-ba.mp3	ga	ba	1	left
6.6.1	win	2023-06-27	08:40:13	08:52:44	747537	58061b34c7b1100001138a1e	1	1	main_slash	24	main_slash	61	stimuli_target_diamondsquares.svg	stimuli_distractor_diamondtriangles.svg	24	yes	53	1	981	6	2	antiphase_hc_ios.wav	3	6	6	noise_calib_stim_RIGHT.wav	2	13	blb_dichoticlistening_ga-ba.mp3	ga	ba	1	left
6.6.1	win	2023-06-27	08:40:13	08:52:44	747537	58061b34c7b1100001138a1e	1	1	main_slash	24	advance_on_keypress_SLASH	62	stimuli_target_diamondsquares.svg	stimuli_distractor_diamondtriangles.svg	24	yes	57	0	686	6	2	antiphase_hc_ios.wav	3	6	6	noise_calib_stim_RIGHT.wav	2	13	blb_dichoticlistening_ga-ba.mp3	ga	ba	1	left
6.6.1	win	2023-06-27	08:40:13	08:52:47	750873	58061b34c7b1100001138a1e	1	1	main_slash	24	main_slash	63	stimuli_distractor_diamondtriangles.svg	stimuli_distractor_diamondtriangles.svg	40	no	0	1	2000	6	2	antiphase_hc_ios.wav	3	6	6	noise_calib_stim_RIGHT.wav	2	13	blb_dichoticlistening_ga-ba.mp3	ga	ba	1	left
6.6.1	win	2023-06-27	08:40:13	08:52:47	750873	58061b34c7b1100001138a1e	1	1	main_slash	24	advance_on_keypress_SLASH	64	stimuli_distractor_diamondtriangles.svg	stimuli_distractor_diamondtriangles.svg	40	no	57	0	520	6	2	antiphase_hc_ios.wav	3	6	6	noise_calib_stim_RIGHT.wav	2	13	blb_dichoticlistening_ga-ba.mp3	ga	ba	1	left
6.6.1	win	2023-06-27	08:40:13	08:52:49	752993	58061b34c7b1100001138a1e	1	1	main_slash	24	main_slash	65	stimuli_distractor_trianglediamonds.svg	stimuli_target_rectangletriangles.svg	9	yes	53	1	954	6	2	antiphase_hc_ios.wav	3	6	6	noise_calib_stim_RIGHT.wav	2	13	blb_dichoticlistening_ga-ba.mp3	ga	ba	1	left
6.6.1	win	2023-06-27	08:40:13	08:52:49	752993	58061b34c7b1100001138a1e	1	1	main_slash	24	advance_on_keypress_SLASH	66	stimuli_distractor_trianglediamonds.svg	stimuli_target_rectangletriangles.svg	9	yes	57	0	683	6	2	antiphase_hc_ios.wav	3	6	6	noise_calib_stim_RIGHT.wav	2	13	blb_dichoticlistening_ga-ba.mp3	ga	ba	1	left
6.6.1	win	2023-06-27	08:40:13	08:52:52	755337	58061b34c7b1100001138a1e	1	1	main_slash	24	main_slash	67	stimuli_target_trianglesquares.svg	stimuli_distractor_trianglediamonds.svg	18	yes	53	1	1015	6	2	antiphase_hc_ios.wav	3	6	6	noise_calib_stim_RIGHT.wav	2	13	blb_dichoticlistening_ga-ba.mp3	ga	ba	1	left
6.6.1	win	2023-06-27	08:40:13	08:52:52	755337	58061b34c7b1100001138a1e	1	1	main_slash	24	advance_on_keypress_SLASH	68	stimuli_target_trianglesquares.svg	stimuli_distractor_trianglediamonds.svg	18	yes	57	0	661	6	2	antiphase_hc_ios.wav	3	6	6	noise_calib_stim_RIGHT.wav	2	13	blb_dichoticlistening_ga-ba.mp3	ga	ba	1	left
6.6.1	win	2023-06-27	08:40:13	08:52:54	757473	58061b34c7b1100001138a1e	1	1	main_slash	24	main_slash	69	stimuli_target_squaretriangles.svg	stimuli_distractor_trianglediamonds.svg	3	yes	53	1	833	6	2	antiphase_hc_ios.wav	3	6	6	noise_calib_stim_RIGHT.wav	2	13	blb_dichoticlistening_ga-ba.mp3	ga	ba	1	left
6.6.1	win	2023-06-27	08:40:13	08:52:54	757473	58061b34c7b1100001138a1e	1	1	main_slash	24	advance_on_keypress_SLASH	70	stimuli_target_squaretriangles.svg	stimuli_distractor_trianglediamonds.svg	3	yes	57	0	551	6	2	antiphase_hc_ios.wav	3	6	6	noise_calib_stim_RIGHT.wav	2	13	blb_dichoticlistening_ga-ba.mp3	ga	ba	1	left
6.6.1	win	2023-06-27	08:40:13	08:52:56	759561	58061b34c7b1100001138a1e	1	1	main_slash	24	main_slash	71	stimuli_target_diamondsquares.svg	stimuli_distractor_trianglediamonds.svg	20	yes	53	1	888	6	2	antiphase_hc_ios.wav	3	6	6	noise_calib_stim_RIGHT.wav	2	13	blb_dichoticlistening_ga-ba.mp3	ga	ba	1	left
6.6.1	win	2023-06-27	08:40:13	08:52:56	759561	58061b34c7b1100001138a1e	1	1	main_slash	24	advance_on_keypress_SLASH	72	stimuli_target_diamondsquares.svg	stimuli_distractor_trianglediamonds.svg	20	yes	57	0	556	6	2	antiphase_hc_ios.wav	3	6	6	noise_calib_stim_RIGHT.wav	2	13	blb_dichoticlistening_ga-ba.mp3	ga	ba	1	left
6.6.1	win	2023-06-27	08:40:13	08:52:58	761697	58061b34c7b1100001138a1e	1	1	main_slash	24	main_slash	73	stimuli_target_diamondrectangles.svg	stimuli_distractor_trianglediamonds.svg	19	yes	53	1	940	6	2	antiphase_hc_ios.wav	3	6	6	noise_calib_stim_RIGHT.wav	2	13	blb_dichoticlistening_ga-ba.mp3	ga	ba	1	left
6.6.1	win	2023-06-27	08:40:13	08:52:58	761697	58061b34c7b1100001138a1e	1	1	main_slash	24	advance_on_keypress_SLASH	74	stimuli_target_diamondrectangles.svg	stimuli_distractor_trianglediamonds.svg	19	yes	57	0	526	6	2	antiphase_hc_ios.wav	3	6	6	noise_calib_stim_RIGHT.wav	2	13	blb_dichoticlistening_ga-ba.mp3	ga	ba	1	left
6.6.1	win	2023-06-27	08:40:13	08:53:00	763729	58061b34c7b1100001138a1e	1	1	main_slash	24	main_slash	75	stimuli_distractor_diamondtriangles.svg	stimuli_target_trianglesquares.svg	30	yes	53	1	872	6	2	antiphase_hc_ios.wav	3	6	6	noise_calib_stim_RIGHT.wav	2	13	blb_dichoticlistening_ga-ba.mp3	ga	ba	1	left
6.6.1	win	2023-06-27	08:40:13	08:53:00	763729	58061b34c7b1100001138a1e	1	1	main_slash	24	advance_on_keypress_SLASH	76	stimuli_distractor_diamondtriangles.svg	stimuli_target_trianglesquares.svg	30	yes	57	0	509	6	2	antiphase_hc_ios.wav	3	6	6	noise_calib_stim_RIGHT.wav	2	13	blb_dichoticlistening_ga-ba.mp3	ga	ba	1	left
6.6.1	win	2023-06-27	08:40:13	08:53:03	766305	58061b34c7b1100001138a1e	1	1	main_slash	24	main_slash	77	stimuli_target_trianglerectangles.svg	stimuli_distractor_diamondtriangles.svg	21	yes	53	1	1431	6	2	antiphase_hc_ios.wav	3	6	6	noise_calib_stim_RIGHT.wav	2	13	blb_dichoticlistening_ga-ba.mp3	ga	ba	1	left
6.6.1	win	2023-06-27	08:40:13	08:53:03	766305	58061b34c7b1100001138a1e	1	1	main_slash	24	advance_on_keypress_SLASH	78	stimuli_target_trianglerectangles.svg	stimuli_distractor_diamondtriangles.svg	21	yes	57	0	525	6	2	antiphase_hc_ios.wav	3	6	6	noise_calib_stim_RIGHT.wav	2	13	blb_dichoticlistening_ga-ba.mp3	ga	ba	1	left
6.6.1	win	2023-06-27	08:40:13	08:53:05	769025	58061b34c7b1100001138a1e	1	1	main_slash	24	main_slash	79	stimuli_target_squaretriangles.svg	stimuli_distractor_diamondtriangles.svg	7	yes	53	1	1551	6	2	antiphase_hc_ios.wav	3	6	6	noise_calib_stim_RIGHT.wav	2	13	blb_dichoticlistening_ga-ba.mp3	ga	ba	1	left
6.6.1	win	2023-06-27	08:40:13	08:53:05	769025	58061b34c7b1100001138a1e	1	1	main_slash	24	advance_on_keypress_SLASH	80	stimuli_target_squaretriangles.svg	stimuli_distractor_diamondtriangles.svg	7	yes	57	0	448	6	2	antiphase_hc_ios.wav	3	6	6	noise_calib_stim_RIGHT.wav	2	13	blb_dichoticlistening_ga-ba.mp3	ga	ba	1	left
6.6.1	win	2023-06-27	08:40:13	08:53:08	771225	58061b34c7b1100001138a1e	1	1	main_slash	24	main_slash	81	stimuli_target_diamondrectangles.svg	stimuli_distractor_trianglediamonds.svg	19	yes	53	1	1102	6	2	antiphase_hc_ios.wav	3	6	6	noise_calib_stim_RIGHT.wav	2	13	blb_dichoticlistening_ga-ba.mp3	ga	ba	1	left
6.6.1	win	2023-06-27	08:40:13	08:53:08	771225	58061b34c7b1100001138a1e	1	1	main_slash	24	advance_on_keypress_SLASH	82	stimuli_target_diamondrectangles.svg	stimuli_distractor_trianglediamonds.svg	19	yes	57	0	393	6	2	antiphase_hc_ios.wav	3	6	6	noise_calib_stim_RIGHT.wav	2	13	blb_dichoticlistening_ga-ba.mp3	ga	ba	1	left
6.6.1	win	2023-06-27	08:40:13	08:53:10	773841	58061b34c7b1100001138a1e	1	1	main_slash	24	main_slash	83	stimuli_target_squaretriangles.svg	stimuli_distractor_diamondtriangles.svg	7	yes	53	1	1584	6	2	antiphase_hc_ios.wav	3	6	6	noise_calib_stim_RIGHT.wav	2	13	blb_dichoticlistening_ga-ba.mp3	ga	ba	1	left
6.6.1	win	2023-06-27	08:40:13	08:53:10	773841	58061b34c7b1100001138a1e	1	1	main_slash	24	advance_on_keypress_SLASH	84	stimuli_target_squaretriangles.svg	stimuli_distractor_diamondtriangles.svg	7	yes	57	0	400	6	2	antiphase_hc_ios.wav	3	6	6	noise_calib_stim_RIGHT.wav	2	13	blb_dichoticlistening_ga-ba.mp3	ga	ba	1	left
6.6.1	win	2023-06-27	08:40:13	08:53:12	775929	58061b34c7b1100001138a1e	1	1	main_slash	24	main_slash	85	stimuli_distractor_diamondtriangles.svg	stimuli_target_squaretriangles.svg	15	yes	53	1	1038	6	2	antiphase_hc_ios.wav	3	6	6	noise_calib_stim_RIGHT.wav	2	13	blb_dichoticlistening_ga-ba.mp3	ga	ba	1	left
6.6.1	win	2023-06-27	08:40:13	08:53:12	775929	58061b34c7b1100001138a1e	1	1	main_slash	24	advance_on_keypress_SLASH	86	stimuli_distractor_diamondtriangles.svg	stimuli_target_squaretriangles.svg	15	yes	57	0	452	6	2	antiphase_hc_ios.wav	3	6	6	noise_calib_stim_RIGHT.wav	2	13	blb_dichoticlistening_ga-ba.mp3	ga	ba	1	left
6.6.1	win	2023-06-27	08:40:13	08:53:14	778081	58061b34c7b1100001138a1e	1	1	main_slash	24	main_slash	87	stimuli_distractor_diamondtriangles.svg	stimuli_target_squarediamonds.svg	16	yes	53	1	1057	6	2	antiphase_hc_ios.wav	3	6	6	noise_calib_stim_RIGHT.wav	2	13	blb_dichoticlistening_ga-ba.mp3	ga	ba	1	left
6.6.1	win	2023-06-27	08:40:13	08:53:14	778081	58061b34c7b1100001138a1e	1	1	main_slash	24	advance_on_keypress_SLASH	88	stimuli_distractor_diamondtriangles.svg	stimuli_target_squarediamonds.svg	16	yes	57	0	447	6	2	antiphase_hc_ios.wav	3	6	6	noise_calib_stim_RIGHT.wav	2	13	blb_dichoticlistening_ga-ba.mp3	ga	ba	1	left
6.6.1	win	2023-06-27	08:40:13	08:53:17	780177	58061b34c7b1100001138a1e	1	1	main_slash	24	main_slash	89	stimuli_distractor_trianglediamonds.svg	stimuli_target_squaretriangles.svg	11	yes	53	1	1019	6	2	antiphase_hc_ios.wav	3	6	6	noise_calib_stim_RIGHT.wav	2	13	blb_dichoticlistening_ga-ba.mp3	ga	ba	1	left
6.6.1	win	2023-06-27	08:40:13	08:53:17	780177	58061b34c7b1100001138a1e	1	1	main_slash	24	advance_on_keypress_SLASH	90	stimuli_distractor_trianglediamonds.svg	stimuli_target_squaretriangles.svg	11	yes	57	0	426	6	2	antiphase_hc_ios.wav	3	6	6	noise_calib_stim_RIGHT.wav	2	13	blb_dichoticlistening_ga-ba.mp3	ga	ba	1	left
6.6.1	win	2023-06-27	08:40:13	08:53:19	782281	58061b34c7b1100001138a1e	1	1	main_slash	24	main_slash	91	stimuli_distractor_diamondtriangles.svg	stimuli_target_rectanglediamonds.svg	14	yes	53	1	1041	6	2	antiphase_hc_ios.wav	3	6	6	noise_calib_stim_RIGHT.wav	2	13	blb_dichoticlistening_ga-ba.mp3	ga	ba	1	left
6.6.1	win	2023-06-27	08:40:13	08:53:19	782281	58061b34c7b1100001138a1e	1	1	main_slash	24	advance_on_keypress_SLASH	92	stimuli_distractor_diamondtriangles.svg	stimuli_target_rectanglediamonds.svg	14	yes	57	0	494	6	2	antiphase_hc_ios.wav	3	6	6	noise_calib_stim_RIGHT.wav	2	13	blb_dichoticlistening_ga-ba.mp3	ga	ba	1	left
6.6.1	win	2023-06-27	08:40:13	08:53:21	784417	58061b34c7b1100001138a1e	1	1	main_slash	24	main_slash	93	stimuli_target_rectangletriangles.svg	stimuli_distractor_trianglediamonds.svg	1	yes	53	1	1009	6	2	antiphase_hc_ios.wav	3	6	6	noise_calib_stim_RIGHT.wav	2	13	blb_dichoticlistening_ga-ba.mp3	ga	ba	1	left
6.6.1	win	2023-06-27	08:40:13	08:53:21	784417	58061b34c7b1100001138a1e	1	1	main_slash	24	advance_on_keypress_SLASH	94	stimuli_target_rectangletriangles.svg	stimuli_distractor_trianglediamonds.svg	1	yes	57	0	401	6	2	antiphase_hc_ios.wav	3	6	6	noise_calib_stim_RIGHT.wav	2	13	blb_dichoticlistening_ga-ba.mp3	ga	ba	1	left
6.6.1	win	2023-06-27	08:40:13	08:53:24	787458	58061b34c7b1100001138a1e	1	1	main_slash	24	main_slash	95	stimuli_distractor_diamondtriangles.svg	stimuli_distractor_diamondtriangles.svg	39	no	0	1	2000	6	2	antiphase_hc_ios.wav	3	6	6	noise_calib_stim_RIGHT.wav	2	13	blb_dichoticlistening_ga-ba.mp3	ga	ba	1	left
6.6.1	win	2023-06-27	08:40:13	08:53:24	787458	58061b34c7b1100001138a1e	1	1	main_slash	24	advance_on_keypress_SLASH	96	stimuli_distractor_diamondtriangles.svg	stimuli_distractor_diamondtriangles.svg	39	no	57	0	382	6	2	antiphase_hc_ios.wav	3	6	6	noise_calib_stim_RIGHT.wav	2	13	blb_dichoticlistening_ga-ba.mp3	ga	ba	1	left
6.6.1	win	2023-06-27	08:40:13	08:53:27	790492	58061b34c7b1100001138a1e	1	1	main_slash	24	main_slash	97	stimuli_distractor_trianglediamonds.svg	stimuli_distractor_diamondtriangles.svg	36	no	0	1	2000	6	2	antiphase_hc_ios.wav	3	6	6	noise_calib_stim_RIGHT.wav	2	13	blb_dichoticlistening_ga-ba.mp3	ga	ba	1	left
6.6.1	win	2023-06-27	08:40:13	08:53:27	790492	58061b34c7b1100001138a1e	1	1	main_slash	24	advance_on_keypress_SLASH	98	stimuli_distractor_trianglediamonds.svg	stimuli_distractor_diamondtriangles.svg	36	no	57	0	429	6	2	antiphase_hc_ios.wav	3	6	6	noise_calib_stim_RIGHT.wav	2	13	blb_dichoticlistening_ga-ba.mp3	ga	ba	1	left
6.6.1	win	2023-06-27	08:40:13	08:53:29	792769	58061b34c7b1100001138a1e	1	1	main_slash	24	main_slash	99	stimuli_distractor_trianglediamonds.svg	stimuli_target_rectangletriangles.svg	9	yes	53	1	1211	6	2	antiphase_hc_ios.wav	3	6	6	noise_calib_stim_RIGHT.wav	2	13	blb_dichoticlistening_ga-ba.mp3	ga	ba	1	left
6.6.1	win	2023-06-27	08:40:13	08:53:29	792769	58061b34c7b1100001138a1e	1	1	main_slash	24	advance_on_keypress_SLASH	100	stimuli_distractor_trianglediamonds.svg	stimuli_target_rectangletriangles.svg	9	yes	57	0	370	6	2	antiphase_hc_ios.wav	3	6	6	noise_calib_stim_RIGHT.wav	2	13	blb_dichoticlistening_ga-ba.mp3	ga	ba	1	left
6.6.1	win	2023-06-27	08:40:13	08:53:31	795097	58061b34c7b1100001138a1e	1	1	main_slash	24	main_slash	101	stimuli_target_trianglerectangles.svg	stimuli_distractor_diamondtriangles.svg	21	yes	53	1	1322	6	2	antiphase_hc_ios.wav	3	6	6	noise_calib_stim_RIGHT.wav	2	13	blb_dichoticlistening_ga-ba.mp3	ga	ba	1	left
6.6.1	win	2023-06-27	08:40:13	08:53:31	795097	58061b34c7b1100001138a1e	1	1	main_slash	24	advance_on_keypress_SLASH	102	stimuli_target_trianglerectangles.svg	stimuli_distractor_diamondtriangles.svg	21	yes	57	0	340	6	2	antiphase_hc_ios.wav	3	6	6	noise_calib_stim_RIGHT.wav	2	13	blb_dichoticlistening_ga-ba.mp3	ga	ba	1	left
6.6.1	win	2023-06-27	08:40:13	08:53:33	797081	58061b34c7b1100001138a1e	1	1	main_slash	24	main_slash	103	stimuli_distractor_trianglediamonds.svg	stimuli_target_diamondrectangles.svg	27	yes	53	1	1006	6	2	antiphase_hc_ios.wav	3	6	6	noise_calib_stim_RIGHT.wav	2	13	blb_dichoticlistening_ga-ba.mp3	ga	ba	1	left
6.6.1	win	2023-06-27	08:40:13	08:53:33	797081	58061b34c7b1100001138a1e	1	1	main_slash	24	advance_on_keypress_SLASH	104	stimuli_distractor_trianglediamonds.svg	stimuli_target_diamondrectangles.svg	27	yes	57	0	629	6	2	antiphase_hc_ios.wav	3	6	6	noise_calib_stim_RIGHT.wav	2	13	blb_dichoticlistening_ga-ba.mp3	ga	ba	1	left
6.6.1	win	2023-06-27	08:40:13	08:53:36	799417	58061b34c7b1100001138a1e	1	1	main_slash	24	main_slash	105	stimuli_distractor_trianglediamonds.svg	stimuli_target_trianglesquares.svg	26	yes	53	1	1075	6	2	antiphase_hc_ios.wav	3	6	6	noise_calib_stim_RIGHT.wav	2	13	blb_dichoticlistening_ga-ba.mp3	ga	ba	1	left
6.6.1	win	2023-06-27	08:40:13	08:53:36	799417	58061b34c7b1100001138a1e	1	1	main_slash	24	advance_on_keypress_SLASH	106	stimuli_distractor_trianglediamonds.svg	stimuli_target_trianglesquares.svg	26	yes	57	0	536	6	2	antiphase_hc_ios.wav	3	6	6	noise_calib_stim_RIGHT.wav	2	13	blb_dichoticlistening_ga-ba.mp3	ga	ba	1	left
6.6.1	win	2023-06-27	08:40:13	08:53:39	802592	58061b34c7b1100001138a1e	1	1	main_slash	24	main_slash	107	stimuli_distractor_diamondtriangles.svg	stimuli_distractor_trianglediamonds.svg	38	no	0	1	2000	6	2	antiphase_hc_ios.wav	3	6	6	noise_calib_stim_RIGHT.wav	2	13	blb_dichoticlistening_ga-ba.mp3	ga	ba	1	left
6.6.1	win	2023-06-27	08:40:13	08:53:39	802592	58061b34c7b1100001138a1e	1	1	main_slash	24	advance_on_keypress_SLASH	108	stimuli_distractor_diamondtriangles.svg	stimuli_distractor_trianglediamonds.svg	38	no	57	0	376	6	2	antiphase_hc_ios.wav	3	6	6	noise_calib_stim_RIGHT.wav	2	13	blb_dichoticlistening_ga-ba.mp3	ga	ba	1	left
6.6.1	win	2023-06-27	08:40:13	08:53:42	805609	58061b34c7b1100001138a1e	1	1	main_slash	24	main_slash	109	stimuli_distractor_trianglediamonds.svg	stimuli_distractor_trianglediamonds.svg	34	no	0	1	2000	6	2	antiphase_hc_ios.wav	3	6	6	noise_calib_stim_RIGHT.wav	2	13	blb_dichoticlistening_ga-ba.mp3	ga	ba	1	left
6.6.1	win	2023-06-27	08:40:13	08:53:42	805609	58061b34c7b1100001138a1e	1	1	main_slash	24	advance_on_keypress_SLASH	110	stimuli_distractor_trianglediamonds.svg	stimuli_distractor_trianglediamonds.svg	34	no	57	0	408	6	2	antiphase_hc_ios.wav	3	6	6	noise_calib_stim_RIGHT.wav	2	13	blb_dichoticlistening_ga-ba.mp3	ga	ba	1	left
6.6.1	win	2023-06-27	08:40:13	08:53:44	807745	58061b34c7b1100001138a1e	1	1	main_slash	24	main_slash	111	stimuli_target_squaretriangles.svg	stimuli_distractor_trianglediamonds.svg	3	yes	53	1	1086	6	2	antiphase_hc_ios.wav	3	6	6	noise_calib_stim_RIGHT.wav	2	13	blb_dichoticlistening_ga-ba.mp3	ga	ba	1	left
6.6.1	win	2023-06-27	08:40:13	08:53:44	807745	58061b34c7b1100001138a1e	1	1	main_slash	24	advance_on_keypress_SLASH	112	stimuli_target_squaretriangles.svg	stimuli_distractor_trianglediamonds.svg	3	yes	57	0	666	6	2	antiphase_hc_ios.wav	3	6	6	noise_calib_stim_RIGHT.wav	2	13	blb_dichoticlistening_ga-ba.mp3	ga	ba	1	left
6.6.1	win	2023-06-27	08:40:13	08:53:46	809761	58061b34c7b1100001138a1e	1	1	main_slash	24	main_slash	113	stimuli_target_diamondsquares.svg	stimuli_distractor_trianglediamonds.svg	20	yes	53	1	702	6	2	antiphase_hc_ios.wav	3	6	6	noise_calib_stim_RIGHT.wav	2	13	blb_dichoticlistening_ga-ba.mp3	ga	ba	1	left
6.6.1	win	2023-06-27	08:40:13	08:53:46	809761	58061b34c7b1100001138a1e	1	1	main_slash	24	advance_on_keypress_SLASH	114	stimuli_target_diamondsquares.svg	stimuli_distractor_trianglediamonds.svg	20	yes	57	0	457	6	2	antiphase_hc_ios.wav	3	6	6	noise_calib_stim_RIGHT.wav	2	13	blb_dichoticlistening_ga-ba.mp3	ga	ba	1	left
6.6.1	win	2023-06-27	08:40:13	08:53:48	811561	58061b34c7b1100001138a1e	1	1	main_slash	24	main_slash	115	stimuli_distractor_trianglediamonds.svg	stimuli_target_rectanglediamonds.svg	10	yes	53	1	702	6	2	antiphase_hc_ios.wav	3	6	6	noise_calib_stim_RIGHT.wav	2	13	blb_dichoticlistening_ga-ba.mp3	ga	ba	1	left
6.6.1	win	2023-06-27	08:40:13	08:53:48	811561	58061b34c7b1100001138a1e	1	1	main_slash	24	advance_on_keypress_SLASH	116	stimuli_distractor_trianglediamonds.svg	stimuli_target_rectanglediamonds.svg	10	yes	57	0	409	6	2	antiphase_hc_ios.wav	3	6	6	noise_calib_stim_RIGHT.wav	2	13	blb_dichoticlistening_ga-ba.mp3	ga	ba	1	left
6.6.1	win	2023-06-27	08:40:13	08:53:50	813281	58061b34c7b1100001138a1e	1	1	main_slash	24	main_slash	117	stimuli_distractor_diamondtriangles.svg	stimuli_target_rectangletriangles.svg	13	yes	53	1	671	6	2	antiphase_hc_ios.wav	3	6	6	noise_calib_stim_RIGHT.wav	2	13	blb_dichoticlistening_ga-ba.mp3	ga	ba	1	left
6.6.1	win	2023-06-27	08:40:13	08:53:50	813281	58061b34c7b1100001138a1e	1	1	main_slash	24	advance_on_keypress_SLASH	118	stimuli_distractor_diamondtriangles.svg	stimuli_target_rectangletriangles.svg	13	yes	57	0	364	6	2	antiphase_hc_ios.wav	3	6	6	noise_calib_stim_RIGHT.wav	2	13	blb_dichoticlistening_ga-ba.mp3	ga	ba	1	left
6.6.1	win	2023-06-27	08:40:13	08:53:51	814977	58061b34c7b1100001138a1e	1	1	main_slash	24	main_slash	119	stimuli_target_squarediamonds.svg	stimuli_distractor_trianglediamonds.svg	4	yes	53	1	684	6	2	antiphase_hc_ios.wav	3	6	6	noise_calib_stim_RIGHT.wav	2	13	blb_dichoticlistening_ga-ba.mp3	ga	ba	1	left
6.6.1	win	2023-06-27	08:40:13	08:53:51	814977	58061b34c7b1100001138a1e	1	1	main_slash	24	advance_on_keypress_SLASH	120	stimuli_target_squarediamonds.svg	stimuli_distractor_trianglediamonds.svg	4	yes	57	0	392	6	2	antiphase_hc_ios.wav	3	6	6	noise_calib_stim_RIGHT.wav	2	13	blb_dichoticlistening_ga-ba.mp3	ga	ba	1	left
6.6.1	win	2023-06-27	08:40:13	08:53:54	818010	58061b34c7b1100001138a1e	1	1	main_slash	24	main_slash	121	stimuli_target_trianglerectangles.svg	stimuli_distractor_trianglediamonds.svg	17	yes	0	0	2000	6	2	antiphase_hc_ios.wav	3	6	6	noise_calib_stim_RIGHT.wav	2	13	blb_dichoticlistening_ga-ba.mp3	ga	ba	1	left
6.6.1	win	2023-06-27	08:40:13	08:53:54	818010	58061b34c7b1100001138a1e	1	1	main_slash	24	advance_on_keypress_SLASH	122	stimuli_target_trianglerectangles.svg	stimuli_distractor_trianglediamonds.svg	17	yes	57	0	486	6	2	antiphase_hc_ios.wav	3	6	6	noise_calib_stim_RIGHT.wav	2	13	blb_dichoticlistening_ga-ba.mp3	ga	ba	1	left
6.6.1	win	2023-06-27	08:40:13	08:53:56	819833	58061b34c7b1100001138a1e	1	1	main_slash	24	main_slash	123	stimuli_target_trianglesquares.svg	stimuli_distractor_trianglediamonds.svg	18	yes	53	1	690	6	2	antiphase_hc_ios.wav	3	6	6	noise_calib_stim_RIGHT.wav	2	13	blb_dichoticlistening_ga-ba.mp3	ga	ba	1	left
6.6.1	win	2023-06-27	08:40:13	08:53:56	819833	58061b34c7b1100001138a1e	1	1	main_slash	24	advance_on_keypress_SLASH	124	stimuli_target_trianglesquares.svg	stimuli_distractor_trianglediamonds.svg	18	yes	57	0	415	6	2	antiphase_hc_ios.wav	3	6	6	noise_calib_stim_RIGHT.wav	2	13	blb_dichoticlistening_ga-ba.mp3	ga	ba	1	left
6.6.1	win	2023-06-27	08:40:13	08:53:58	821577	58061b34c7b1100001138a1e	1	1	main_slash	24	main_slash	125	stimuli_target_rectanglediamonds.svg	stimuli_distractor_diamondtriangles.svg	6	yes	53	1	684	6	2	antiphase_hc_ios.wav	3	6	6	noise_calib_stim_RIGHT.wav	2	13	blb_dichoticlistening_ga-ba.mp3	ga	ba	1	left
6.6.1	win	2023-06-27	08:40:13	08:53:58	821577	58061b34c7b1100001138a1e	1	1	main_slash	24	advance_on_keypress_SLASH	126	stimuli_target_rectanglediamonds.svg	stimuli_distractor_diamondtriangles.svg	6	yes	57	0	384	6	2	antiphase_hc_ios.wav	3	6	6	noise_calib_stim_RIGHT.wav	2	13	blb_dichoticlistening_ga-ba.mp3	ga	ba	1	left
6.6.1	win	2023-06-27	08:40:13	08:54:00	823281	58061b34c7b1100001138a1e	1	1	main_slash	24	main_slash	127	stimuli_target_squarediamonds.svg	stimuli_distractor_diamondtriangles.svg	8	yes	53	1	671	6	2	antiphase_hc_ios.wav	3	6	6	noise_calib_stim_RIGHT.wav	2	13	blb_dichoticlistening_ga-ba.mp3	ga	ba	1	left
6.6.1	win	2023-06-27	08:40:13	08:54:00	823281	58061b34c7b1100001138a1e	1	1	main_slash	24	advance_on_keypress_SLASH	128	stimuli_target_squarediamonds.svg	stimuli_distractor_diamondtriangles.svg	8	yes	57	0	261	6	2	antiphase_hc_ios.wav	3	6	6	noise_calib_stim_RIGHT.wav	2	13	blb_dichoticlistening_ga-ba.mp3	ga	ba	1	left
6.6.1	win	2023-06-27	08:40:13	08:54:01	824817	58061b34c7b1100001138a1e	1	1	main_slash	24	main_slash	129	stimuli_distractor_diamondtriangles.svg	stimuli_target_diamondrectangles.svg	31	yes	53	1	640	6	2	antiphase_hc_ios.wav	3	6	6	noise_calib_stim_RIGHT.wav	2	13	blb_dichoticlistening_ga-ba.mp3	ga	ba	1	left
6.6.1	win	2023-06-27	08:40:13	08:54:01	824817	58061b34c7b1100001138a1e	1	1	main_slash	24	advance_on_keypress_SLASH	130	stimuli_distractor_diamondtriangles.svg	stimuli_target_diamondrectangles.svg	31	yes	57	0	310	6	2	antiphase_hc_ios.wav	3	6	6	noise_calib_stim_RIGHT.wav	2	13	blb_dichoticlistening_ga-ba.mp3	ga	ba	1	left
6.6.1	win	2023-06-27	08:40:13	08:54:03	826777	58061b34c7b1100001138a1e	1	1	main_slash	24	main_slash	131	stimuli_target_trianglesquares.svg	stimuli_distractor_diamondtriangles.svg	22	yes	53	1	1017	6	2	antiphase_hc_ios.wav	3	6	6	noise_calib_stim_RIGHT.wav	2	13	blb_dichoticlistening_ga-ba.mp3	ga	ba	1	left
6.6.1	win	2023-06-27	08:40:13	08:54:03	826777	58061b34c7b1100001138a1e	1	1	main_slash	24	advance_on_keypress_SLASH	132	stimuli_target_trianglesquares.svg	stimuli_distractor_diamondtriangles.svg	22	yes	57	0	263	6	2	antiphase_hc_ios.wav	3	6	6	noise_calib_stim_RIGHT.wav	2	13	blb_dichoticlistening_ga-ba.mp3	ga	ba	1	left
6.6.1	win	2023-06-27	08:40:13	08:54:06	829677	58061b34c7b1100001138a1e	1	1	main_slash	24	main_slash	133	stimuli_target_rectangletriangles.svg	stimuli_distractor_diamondtriangles.svg	5	yes	0	0	2000	6	2	antiphase_hc_ios.wav	3	6	6	noise_calib_stim_RIGHT.wav	2	13	blb_dichoticlistening_ga-ba.mp3	ga	ba	1	left
6.6.1	win	2023-06-27	08:40:13	08:54:06	829677	58061b34c7b1100001138a1e	1	1	main_slash	24	advance_on_keypress_SLASH	134	stimuli_target_rectangletriangles.svg	stimuli_distractor_diamondtriangles.svg	5	yes	57	0	299	6	2	antiphase_hc_ios.wav	3	6	6	noise_calib_stim_RIGHT.wav	2	13	blb_dichoticlistening_ga-ba.mp3	ga	ba	1	left
6.6.1	win	2023-06-27	08:40:13	08:54:08	831857	58061b34c7b1100001138a1e	1	1	main_slash	24	main_slash	135	stimuli_distractor_diamondtriangles.svg	stimuli_target_trianglerectangles.svg	29	yes	53	1	1230	6	2	antiphase_hc_ios.wav	3	6	6	noise_calib_stim_RIGHT.wav	2	13	blb_dichoticlistening_ga-ba.mp3	ga	ba	1	left
6.6.1	win	2023-06-27	08:40:13	08:54:08	831857	58061b34c7b1100001138a1e	1	1	main_slash	24	advance_on_keypress_SLASH	136	stimuli_distractor_diamondtriangles.svg	stimuli_target_trianglerectangles.svg	29	yes	57	0	188	6	2	antiphase_hc_ios.wav	3	6	6	noise_calib_stim_RIGHT.wav	2	13	blb_dichoticlistening_ga-ba.mp3	ga	ba	1	left
6.6.1	win	2023-06-27	08:40:13	08:54:10	833281	58061b34c7b1100001138a1e	1	1	main_slash	24	main_slash	137	stimuli_distractor_diamondtriangles.svg	stimuli_target_trianglesquares.svg	30	yes	53	1	604	6	2	antiphase_hc_ios.wav	3	6	6	noise_calib_stim_RIGHT.wav	2	13	blb_dichoticlistening_ga-ba.mp3	ga	ba	1	left
6.6.1	win	2023-06-27	08:40:13	08:54:10	833281	58061b34c7b1100001138a1e	1	1	main_slash	24	advance_on_keypress_SLASH	138	stimuli_distractor_diamondtriangles.svg	stimuli_target_trianglesquares.svg	30	yes	57	0	331	6	2	antiphase_hc_ios.wav	3	6	6	noise_calib_stim_RIGHT.wav	2	13	blb_dichoticlistening_ga-ba.mp3	ga	ba	1	left
6.6.1	win	2023-06-27	08:40:13	08:54:13	836261	58061b34c7b1100001138a1e	1	1	main_slash	24	main_slash	139	stimuli_distractor_trianglediamonds.svg	stimuli_distractor_diamondtriangles.svg	35	no	0	1	2000	6	2	antiphase_hc_ios.wav	3	6	6	noise_calib_stim_RIGHT.wav	2	13	blb_dichoticlistening_ga-ba.mp3	ga	ba	1	left
6.6.1	win	2023-06-27	08:40:13	08:54:13	836261	58061b34c7b1100001138a1e	1	1	main_slash	24	advance_on_keypress_SLASH	140	stimuli_distractor_trianglediamonds.svg	stimuli_distractor_diamondtriangles.svg	35	no	57	0	323	6	2	antiphase_hc_ios.wav	3	6	6	noise_calib_stim_RIGHT.wav	2	13	blb_dichoticlistening_ga-ba.mp3	ga	ba	1	left
6.6.1	win	2023-06-27	08:40:13	08:54:15	838241	58061b34c7b1100001138a1e	1	1	main_slash	24	main_slash	141	stimuli_distractor_trianglediamonds.svg	stimuli_target_squarediamonds.svg	12	yes	53	1	1014	6	2	antiphase_hc_ios.wav	3	6	6	noise_calib_stim_RIGHT.wav	2	13	blb_dichoticlistening_ga-ba.mp3	ga	ba	1	left
6.6.1	win	2023-06-27	08:40:13	08:54:15	838241	58061b34c7b1100001138a1e	1	1	main_slash	24	advance_on_keypress_SLASH	142	stimuli_distractor_trianglediamonds.svg	stimuli_target_squarediamonds.svg	12	yes	57	0	300	6	2	antiphase_hc_ios.wav	3	6	6	noise_calib_stim_RIGHT.wav	2	13	blb_dichoticlistening_ga-ba.mp3	ga	ba	1	left
6.6.1	win	2023-06-27	08:40:13	08:54:18	841194	58061b34c7b1100001138a1e	1	1	main_slash	24	main_slash	143	stimuli_distractor_diamondtriangles.svg	stimuli_distractor_trianglediamonds.svg	37	no	0	1	2000	6	2	antiphase_hc_ios.wav	3	6	6	noise_calib_stim_RIGHT.wav	2	13	blb_dichoticlistening_ga-ba.mp3	ga	ba	1	left
6.6.1	win	2023-06-27	08:40:13	08:54:18	841194	58061b34c7b1100001138a1e	1	1	main_slash	24	advance_on_keypress_SLASH	144	stimuli_distractor_diamondtriangles.svg	stimuli_distractor_trianglediamonds.svg	37	no	57	0	318	6	2	antiphase_hc_ios.wav	3	6	6	noise_calib_stim_RIGHT.wav	2	13	blb_dichoticlistening_ga-ba.mp3	ga	ba	1	left
6.6.1	win	2023-06-27	08:40:13	08:54:19	842729	58061b34c7b1100001138a1e	1	1	main_slash	24	main_slash	145	stimuli_distractor_trianglediamonds.svg	stimuli_target_diamondsquares.svg	28	yes	53	1	568	6	2	antiphase_hc_ios.wav	3	6	6	noise_calib_stim_RIGHT.wav	2	13	blb_dichoticlistening_ga-ba.mp3	ga	ba	1	left
6.6.1	win	2023-06-27	08:40:13	08:54:19	842729	58061b34c7b1100001138a1e	1	1	main_slash	24	advance_on_keypress_SLASH	146	stimuli_distractor_trianglediamonds.svg	stimuli_target_diamondsquares.svg	28	yes	57	0	408	6	2	antiphase_hc_ios.wav	3	6	6	noise_calib_stim_RIGHT.wav	2	13	blb_dichoticlistening_ga-ba.mp3	ga	ba	1	left
6.6.1	win	2023-06-27	08:40:13	08:54:21	844337	58061b34c7b1100001138a1e	1	1	main_slash	24	main_slash	147	stimuli_distractor_diamondtriangles.svg	stimuli_target_diamondsquares.svg	32	yes	53	1	559	6	2	antiphase_hc_ios.wav	3	6	6	noise_calib_stim_RIGHT.wav	2	13	blb_dichoticlistening_ga-ba.mp3	ga	ba	1	left
6.6.1	win	2023-06-27	08:40:13	08:54:21	844337	58061b34c7b1100001138a1e	1	1	main_slash	24	advance_on_keypress_SLASH	148	stimuli_distractor_diamondtriangles.svg	stimuli_target_diamondsquares.svg	32	yes	57	0	296	6	2	antiphase_hc_ios.wav	3	6	6	noise_calib_stim_RIGHT.wav	2	13	blb_dichoticlistening_ga-ba.mp3	ga	ba	1	left
6.6.1	win	2023-06-27	08:40:13	08:54:24	847261	58061b34c7b1100001138a1e	1	1	main_slash	24	main_slash	149	stimuli_distractor_diamondtriangles.svg	stimuli_distractor_diamondtriangles.svg	40	no	0	1	2000	6	2	antiphase_hc_ios.wav	3	6	6	noise_calib_stim_RIGHT.wav	2	13	blb_dichoticlistening_ga-ba.mp3	ga	ba	1	left
6.6.1	win	2023-06-27	08:40:13	08:54:24	847261	58061b34c7b1100001138a1e	1	1	main_slash	24	advance_on_keypress_SLASH	150	stimuli_distractor_diamondtriangles.svg	stimuli_distractor_diamondtriangles.svg	40	no	57	0	308	6	2	antiphase_hc_ios.wav	3	6	6	noise_calib_stim_RIGHT.wav	2	13	blb_dichoticlistening_ga-ba.mp3	ga	ba	1	left
6.6.1	win	2023-06-27	08:40:13	08:54:25	848809	58061b34c7b1100001138a1e	1	1	main_slash	24	main_slash	151	stimuli_distractor_trianglediamonds.svg	stimuli_target_trianglerectangles.svg	25	yes	53	1	598	6	2	antiphase_hc_ios.wav	3	6	6	noise_calib_stim_RIGHT.wav	2	13	blb_dichoticlistening_ga-ba.mp3	ga	ba	1	left
6.6.1	win	2023-06-27	08:40:13	08:54:25	848809	58061b34c7b1100001138a1e	1	1	main_slash	24	advance_on_keypress_SLASH	152	stimuli_distractor_trianglediamonds.svg	stimuli_target_trianglerectangles.svg	25	yes	57	0	317	6	2	antiphase_hc_ios.wav	3	6	6	noise_calib_stim_RIGHT.wav	2	13	blb_dichoticlistening_ga-ba.mp3	ga	ba	1	left
6.6.1	win	2023-06-27	08:40:13	08:54:27	850585	58061b34c7b1100001138a1e	1	1	main_slash	24	main_slash	153	stimuli_target_rectanglediamonds.svg	stimuli_distractor_trianglediamonds.svg	2	yes	53	1	807	6	2	antiphase_hc_ios.wav	3	6	6	noise_calib_stim_RIGHT.wav	2	13	blb_dichoticlistening_ga-ba.mp3	ga	ba	1	left
6.6.1	win	2023-06-27	08:40:13	08:54:27	850585	58061b34c7b1100001138a1e	1	1	main_slash	24	advance_on_keypress_SLASH	154	stimuli_target_rectanglediamonds.svg	stimuli_distractor_trianglediamonds.svg	2	yes	57	0	342	6	2	antiphase_hc_ios.wav	3	6	6	noise_calib_stim_RIGHT.wav	2	13	blb_dichoticlistening_ga-ba.mp3	ga	ba	1	left
6.6.1	win	2023-06-27	08:40:13	08:54:30	853562	58061b34c7b1100001138a1e	1	1	main_slash	24	main_slash	155	stimuli_distractor_trianglediamonds.svg	stimuli_distractor_trianglediamonds.svg	33	no	0	1	2000	6	2	antiphase_hc_ios.wav	3	6	6	noise_calib_stim_RIGHT.wav	2	13	blb_dichoticlistening_ga-ba.mp3	ga	ba	1	left
6.6.1	win	2023-06-27	08:40:13	08:54:30	853562	58061b34c7b1100001138a1e	1	1	main_slash	24	advance_on_keypress_SLASH	156	stimuli_distractor_trianglediamonds.svg	stimuli_distractor_trianglediamonds.svg	33	no	57	0	631	6	2	antiphase_hc_ios.wav	3	6	6	noise_calib_stim_RIGHT.wav	2	13	blb_dichoticlistening_ga-ba.mp3	ga	ba	1	left
6.6.1	win	2023-06-27	08:40:13	08:54:32	855577	58061b34c7b1100001138a1e	1	1	main_slash	24	main_slash	157	stimuli_target_diamondsquares.svg	stimuli_distractor_diamondtriangles.svg	24	yes	53	1	732	6	2	antiphase_hc_ios.wav	3	6	6	noise_calib_stim_RIGHT.wav	2	13	blb_dichoticlistening_ga-ba.mp3	ga	ba	1	left
6.6.1	win	2023-06-27	08:40:13	08:54:32	855577	58061b34c7b1100001138a1e	1	1	main_slash	24	advance_on_keypress_SLASH	158	stimuli_target_diamondsquares.svg	stimuli_distractor_diamondtriangles.svg	24	yes	57	0	455	6	2	antiphase_hc_ios.wav	3	6	6	noise_calib_stim_RIGHT.wav	2	13	blb_dichoticlistening_ga-ba.mp3	ga	ba	1	left
6.6.1	win	2023-06-27	08:40:13	08:54:34	857353	58061b34c7b1100001138a1e	1	1	main_slash	24	main_slash	159	stimuli_target_diamondrectangles.svg	stimuli_distractor_diamondtriangles.svg	23	yes	53	1	674	6	2	antiphase_hc_ios.wav	3	6	6	noise_calib_stim_RIGHT.wav	2	13	blb_dichoticlistening_ga-ba.mp3	ga	ba	1	left
6.6.1	win	2023-06-27	08:40:13	08:54:34	857353	58061b34c7b1100001138a1e	1	1	main_slash	24	advance_on_keypress_SLASH	160	stimuli_target_diamondrectangles.svg	stimuli_distractor_diamondtriangles.svg	23	yes	57	0	327	6	2	antiphase_hc_ios.wav	3	6	6	noise_calib_stim_RIGHT.wav	2	13	blb_dichoticlistening_ga-ba.mp3	ga	ba	1	left
6.6.1	win	2023-06-27	08:40:13	08:55:22	905615	58061b34c7b1100001138a1e	1	1	practice_z	26	practice_z	1	stimuli_distractor_diamondtriangles.svg	stimuli_target_trianglerectangles.svg	9	yes	44	1	595	6	2	antiphase_hc_ios.wav	3	6	6	noise_calib_stim_RIGHT.wav	2	13	blb_dichoticlistening_ga-ba.mp3	ga	ba	1	left
6.6.1	win	2023-06-27	08:40:13	08:55:22	905615	58061b34c7b1100001138a1e	1	1	practice_z	26	advance_on_keypress_ZEE	2	stimuli_distractor_diamondtriangles.svg	stimuli_target_trianglerectangles.svg	9	yes	57	0	746	6	2	antiphase_hc_ios.wav	3	6	6	noise_calib_stim_RIGHT.wav	2	13	blb_dichoticlistening_ga-ba.mp3	ga	ba	1	left
6.6.1	win	2023-06-27	08:40:13	08:55:25	908683	58061b34c7b1100001138a1e	1	1	practice_z	26	practice_z	3	stimuli_distractor_trianglediamonds.svg	stimuli_target_diamondrectangles.svg	12	yes	44	1	667	6	2	antiphase_hc_ios.wav	3	6	6	noise_calib_stim_RIGHT.wav	2	13	blb_dichoticlistening_ga-ba.mp3	ga	ba	1	left
6.6.1	win	2023-06-27	08:40:13	08:55:25	908683	58061b34c7b1100001138a1e	1	1	practice_z	26	advance_on_keypress_ZEE	4	stimuli_distractor_trianglediamonds.svg	stimuli_target_diamondrectangles.svg	12	yes	57	0	447	6	2	antiphase_hc_ios.wav	3	6	6	noise_calib_stim_RIGHT.wav	2	13	blb_dichoticlistening_ga-ba.mp3	ga	ba	1	left
6.6.1	win	2023-06-27	08:40:13	08:55:28	911611	58061b34c7b1100001138a1e	1	1	practice_z	26	practice_z	5	stimuli_distractor_trianglediamonds.svg	stimuli_target_squarediamonds.svg	11	yes	44	1	828	6	2	antiphase_hc_ios.wav	3	6	6	noise_calib_stim_RIGHT.wav	2	13	blb_dichoticlistening_ga-ba.mp3	ga	ba	1	left
6.6.1	win	2023-06-27	08:40:13	08:55:28	911611	58061b34c7b1100001138a1e	1	1	practice_z	26	advance_on_keypress_ZEE	6	stimuli_distractor_trianglediamonds.svg	stimuli_target_squarediamonds.svg	11	yes	57	0	514	6	2	antiphase_hc_ios.wav	3	6	6	noise_calib_stim_RIGHT.wav	2	13	blb_dichoticlistening_ga-ba.mp3	ga	ba	1	left
6.6.1	win	2023-06-27	08:40:13	08:55:31	914947	58061b34c7b1100001138a1e	1	1	practice_z	26	practice_z	7	stimuli_distractor_diamondtriangles.svg	stimuli_target_rectangletriangles.svg	7	yes	44	1	1180	6	2	antiphase_hc_ios.wav	3	6	6	noise_calib_stim_RIGHT.wav	2	13	blb_dichoticlistening_ga-ba.mp3	ga	ba	1	left
6.6.1	win	2023-06-27	08:40:13	08:55:31	914947	58061b34c7b1100001138a1e	1	1	practice_z	26	advance_on_keypress_ZEE	8	stimuli_distractor_diamondtriangles.svg	stimuli_target_rectangletriangles.svg	7	yes	57	0	404	6	2	antiphase_hc_ios.wav	3	6	6	noise_calib_stim_RIGHT.wav	2	13	blb_dichoticlistening_ga-ba.mp3	ga	ba	1	left
6.6.1	win	2023-06-27	08:40:13	08:55:34	917938	58061b34c7b1100001138a1e	1	1	practice_z	26	practice_z	9	stimuli_target_diamondsquares.svg	stimuli_distractor_diamondtriangles.svg	3	yes	44	1	939	6	2	antiphase_hc_ios.wav	3	6	6	noise_calib_stim_RIGHT.wav	2	13	blb_dichoticlistening_ga-ba.mp3	ga	ba	1	left
6.6.1	win	2023-06-27	08:40:13	08:55:34	917938	58061b34c7b1100001138a1e	1	1	practice_z	26	advance_on_keypress_ZEE	10	stimuli_target_diamondsquares.svg	stimuli_distractor_diamondtriangles.svg	3	yes	57	0	452	6	2	antiphase_hc_ios.wav	3	6	6	noise_calib_stim_RIGHT.wav	2	13	blb_dichoticlistening_ga-ba.mp3	ga	ba	1	left
6.6.1	win	2023-06-27	08:40:13	08:55:37	921067	58061b34c7b1100001138a1e	1	1	practice_z	26	practice_z	11	stimuli_distractor_diamondtriangles.svg	stimuli_target_diamondrectangles.svg	8	yes	44	1	1034	6	2	antiphase_hc_ios.wav	3	6	6	noise_calib_stim_RIGHT.wav	2	13	blb_dichoticlistening_ga-ba.mp3	ga	ba	1	left
6.6.1	win	2023-06-27	08:40:13	08:55:37	921067	58061b34c7b1100001138a1e	1	1	practice_z	26	advance_on_keypress_ZEE	12	stimuli_distractor_diamondtriangles.svg	stimuli_target_diamondrectangles.svg	8	yes	57	0	479	6	2	antiphase_hc_ios.wav	3	6	6	noise_calib_stim_RIGHT.wav	2	13	blb_dichoticlistening_ga-ba.mp3	ga	ba	1	left
6.6.1	win	2023-06-27	08:40:13	08:55:42	925183	58061b34c7b1100001138a1e	1	1	practice_z	26	practice_z	13	stimuli_distractor_diamondtriangles.svg	stimuli_distractor_trianglediamonds.svg	14	no	0	1	2000	6	2	antiphase_hc_ios.wav	3	6	6	noise_calib_stim_RIGHT.wav	2	13	blb_dichoticlistening_ga-ba.mp3	ga	ba	1	left
6.6.1	win	2023-06-27	08:40:13	08:55:42	925183	58061b34c7b1100001138a1e	1	1	practice_z	26	advance_on_keypress_ZEE	14	stimuli_distractor_diamondtriangles.svg	stimuli_distractor_trianglediamonds.svg	14	no	57	0	522	6	2	antiphase_hc_ios.wav	3	6	6	noise_calib_stim_RIGHT.wav	2	13	blb_dichoticlistening_ga-ba.mp3	ga	ba	1	left
