build	computer.platform	date	time	timestamp	time_elapsed_ms	subject	group	session	blockcode	blocknum	trialcode	trialnum	stimulus_left	stimulus_right	stim_index	target_present	response	correct	latency	headphonecheck_countTestTrials	headphonecheck_index	headphonecheck_testSound	headphonecheck_correctResponse	stereocheck_countTestTrials	stereocheck_index	stereocheck_testSound	stereocheck_correctResponse	DL_index	DL_soundfile	DL_leftSound	DL_rightSound	DL_dualSound	DL_choice
6.6.1	win	2023-06-27	16:28:23	16:30:56	148872	5862a405d22a5800014c4c27	3	1	practice_slash	5	practice_slash	1	stimuli_target_rectanglediamonds.svg	stimuli_distractor_trianglediamonds.svg	4	yes	0	0	2000	0	0			0	0			1				0	
6.6.1	win	2023-06-27	16:28:23	16:30:56	148872	5862a405d22a5800014c4c27	3	1	practice_slash	5	advance_on_keypress_SLASH	2	stimuli_target_rectanglediamonds.svg	stimuli_distractor_trianglediamonds.svg	4	yes	57	0	2394	0	0			0	0			1				0	
6.6.1	win	2023-06-27	16:28:23	16:31:01	153700	5862a405d22a5800014c4c27	3	1	practice_slash	5	practice_slash	3	stimuli_target_rectanglediamonds.svg	stimuli_distractor_diamondtriangles.svg	1	yes	53	1	793	0	0			0	0			1				0	
6.6.1	win	2023-06-27	16:28:23	16:31:01	153700	5862a405d22a5800014c4c27	3	1	practice_slash	5	advance_on_keypress_SLASH	4	stimuli_target_rectanglediamonds.svg	stimuli_distractor_diamondtriangles.svg	1	yes	57	0	1351	0	0			0	0			1				0	
6.6.1	win	2023-06-27	16:28:23	16:31:04	156997	5862a405d22a5800014c4c27	3	1	practice_slash	5	practice_slash	5	stimuli_distractor_diamondtriangles.svg	stimuli_distractor_trianglediamonds.svg	14	no	53	0	305	0	0			0	0			1				0	
6.6.1	win	2023-06-27	16:28:23	16:31:04	156997	5862a405d22a5800014c4c27	3	1	practice_slash	5	advance_on_keypress_SLASH	6	stimuli_distractor_diamondtriangles.svg	stimuli_distractor_trianglediamonds.svg	14	no	57	0	467	0	0			0	0			1				0	
6.6.1	win	2023-06-27	16:28:23	16:31:08	161110	5862a405d22a5800014c4c27	3	1	practice_slash	5	practice_slash	7	stimuli_target_diamondsquares.svg	stimuli_distractor_diamondtriangles.svg	3	yes	0	0	2000	0	0			0	0			1				0	
6.6.1	win	2023-06-27	16:28:23	16:31:08	161110	5862a405d22a5800014c4c27	3	1	practice_slash	5	advance_on_keypress_SLASH	8	stimuli_target_diamondsquares.svg	stimuli_distractor_diamondtriangles.svg	3	yes	57	0	1372	0	0			0	0			1				0	
6.6.1	win	2023-06-27	16:28:23	16:31:12	164549	5862a405d22a5800014c4c27	3	1	practice_slash	5	practice_slash	9	stimuli_distractor_diamondtriangles.svg	stimuli_target_rectangletriangles.svg	7	yes	53	1	420	0	0			0	0			1				0	
6.6.1	win	2023-06-27	16:28:23	16:31:12	164549	5862a405d22a5800014c4c27	3	1	practice_slash	5	advance_on_keypress_SLASH	10	stimuli_distractor_diamondtriangles.svg	stimuli_target_rectangletriangles.svg	7	yes	57	0	713	0	0			0	0			1				0	
6.6.1	win	2023-06-27	16:28:23	16:31:15	167437	5862a405d22a5800014c4c27	3	1	practice_slash	5	practice_slash	11	stimuli_distractor_diamondtriangles.svg	stimuli_target_trianglerectangles.svg	9	yes	53	1	523	0	0			0	0			1				0	
6.6.1	win	2023-06-27	16:28:23	16:31:15	167437	5862a405d22a5800014c4c27	3	1	practice_slash	5	advance_on_keypress_SLASH	12	stimuli_distractor_diamondtriangles.svg	stimuli_target_trianglerectangles.svg	9	yes	57	0	412	0	0			0	0			1				0	
6.6.1	win	2023-06-27	16:28:23	16:31:17	169934	5862a405d22a5800014c4c27	3	1	practice_slash	5	practice_slash	13	stimuli_distractor_diamondtriangles.svg	stimuli_target_diamondrectangles.svg	8	yes	53	1	453	0	0			0	0			1				0	
6.6.1	win	2023-06-27	16:28:23	16:31:17	169934	5862a405d22a5800014c4c27	3	1	practice_slash	5	advance_on_keypress_SLASH	14	stimuli_distractor_diamondtriangles.svg	stimuli_target_diamondrectangles.svg	8	yes	57	0	296	0	0			0	0			1				0	
6.6.1	win	2023-06-27	16:28:23	16:31:21	173866	5862a405d22a5800014c4c27	3	1	practice_slash	5	practice_slash	15	stimuli_distractor_diamondtriangles.svg	stimuli_distractor_diamondtriangles.svg	13	no	0	1	2000	0	0			0	0			1				0	
6.6.1	win	2023-06-27	16:28:23	16:31:21	173866	5862a405d22a5800014c4c27	3	1	practice_slash	5	advance_on_keypress_SLASH	16	stimuli_distractor_diamondtriangles.svg	stimuli_distractor_diamondtriangles.svg	13	no	57	0	287	0	0			0	0			1				0	
6.6.1	win	2023-06-27	16:28:23	16:31:24	176228	5862a405d22a5800014c4c27	3	1	practice_slash	5	practice_slash	17	stimuli_target_squarediamonds.svg	stimuli_distractor_trianglediamonds.svg	5	yes	53	1	427	0	0			0	0			1				0	
6.6.1	win	2023-06-27	16:28:23	16:31:24	176228	5862a405d22a5800014c4c27	3	1	practice_slash	5	advance_on_keypress_SLASH	18	stimuli_target_squarediamonds.svg	stimuli_distractor_trianglediamonds.svg	5	yes	57	0	376	0	0			0	0			1				0	
6.6.1	win	2023-06-27	16:28:23	16:31:26	178597	5862a405d22a5800014c4c27	3	1	practice_slash	5	practice_slash	19	stimuli_target_squarediamonds.svg	stimuli_distractor_diamondtriangles.svg	2	yes	53	1	362	0	0			0	0			1				0	
6.6.1	win	2023-06-27	16:28:23	16:31:26	178597	5862a405d22a5800014c4c27	3	1	practice_slash	5	advance_on_keypress_SLASH	20	stimuli_target_squarediamonds.svg	stimuli_distractor_diamondtriangles.svg	2	yes	57	0	258	0	0			0	0			1				0	
6.6.1	win	2023-06-27	16:28:23	16:31:28	180908	5862a405d22a5800014c4c27	3	1	practice_slash	5	practice_slash	21	stimuli_distractor_trianglediamonds.svg	stimuli_target_rectanglediamonds.svg	10	yes	53	1	422	0	0			0	0			1				0	
6.6.1	win	2023-06-27	16:28:23	16:31:28	180908	5862a405d22a5800014c4c27	3	1	practice_slash	5	advance_on_keypress_SLASH	22	stimuli_distractor_trianglediamonds.svg	stimuli_target_rectanglediamonds.svg	10	yes	57	0	270	0	0			0	0			1				0	
6.6.1	win	2023-06-27	16:28:23	16:31:31	183294	5862a405d22a5800014c4c27	3	1	practice_slash	5	practice_slash	23	stimuli_distractor_trianglediamonds.svg	stimuli_target_diamondrectangles.svg	12	yes	53	1	473	0	0			0	0			1				0	
6.6.1	win	2023-06-27	16:28:23	16:31:31	183294	5862a405d22a5800014c4c27	3	1	practice_slash	5	advance_on_keypress_SLASH	24	stimuli_distractor_trianglediamonds.svg	stimuli_target_diamondrectangles.svg	12	yes	57	0	195	0	0			0	0			1				0	
6.6.1	win	2023-06-27	16:28:23	16:31:33	185670	5862a405d22a5800014c4c27	3	1	practice_slash	5	practice_slash	25	stimuli_distractor_trianglediamonds.svg	stimuli_target_squarediamonds.svg	11	yes	53	1	548	0	0			0	0			1				0	
6.6.1	win	2023-06-27	16:28:23	16:31:33	185670	5862a405d22a5800014c4c27	3	1	practice_slash	5	advance_on_keypress_SLASH	26	stimuli_distractor_trianglediamonds.svg	stimuli_target_squarediamonds.svg	11	yes	57	0	253	0	0			0	0			1				0	
6.6.1	win	2023-06-27	16:28:23	16:31:37	189573	5862a405d22a5800014c4c27	3	1	practice_slash	5	practice_slash	27	stimuli_distractor_trianglediamonds.svg	stimuli_distractor_trianglediamonds.svg	15	no	0	1	2000	0	0			0	0			1				0	
6.6.1	win	2023-06-27	16:28:23	16:31:37	189573	5862a405d22a5800014c4c27	3	1	practice_slash	5	advance_on_keypress_SLASH	28	stimuli_distractor_trianglediamonds.svg	stimuli_distractor_trianglediamonds.svg	15	no	57	0	1004	0	0			0	0			1				0	
6.6.1	win	2023-06-27	16:28:23	16:31:41	193348	5862a405d22a5800014c4c27	3	1	practice_slash	5	practice_slash	29	stimuli_target_diamondsquares.svg	stimuli_distractor_trianglediamonds.svg	6	yes	53	1	1122	0	0			0	0			1				0	
6.6.1	win	2023-06-27	16:28:23	16:31:41	193348	5862a405d22a5800014c4c27	3	1	practice_slash	5	advance_on_keypress_SLASH	30	stimuli_target_diamondsquares.svg	stimuli_distractor_trianglediamonds.svg	6	yes	57	0	420	0	0			0	0			1				0	
6.6.1	win	2023-06-27	16:28:23	16:31:45	197410	5862a405d22a5800014c4c27	3	1	practice_slash	5	practice_slash	31	stimuli_distractor_trianglediamonds.svg	stimuli_distractor_diamondtriangles.svg	16	no	0	1	2000	0	0			0	0			1				0	
6.6.1	win	2023-06-27	16:28:23	16:31:45	197410	5862a405d22a5800014c4c27	3	1	practice_slash	5	advance_on_keypress_SLASH	32	stimuli_distractor_trianglediamonds.svg	stimuli_distractor_diamondtriangles.svg	16	no	57	0	287	0	0			0	0			1				0	
6.6.1	win	2023-06-27	16:28:23	16:31:52	204579	5862a405d22a5800014c4c27	3	1	main_slash	7	main_slash	1	stimuli_target_squarediamonds.svg	stimuli_distractor_diamondtriangles.svg	8	yes	53	1	568	0	0			0	0			1				0	
6.6.1	win	2023-06-27	16:28:23	16:31:52	204579	5862a405d22a5800014c4c27	3	1	main_slash	7	advance_on_keypress_SLASH	2	stimuli_target_squarediamonds.svg	stimuli_distractor_diamondtriangles.svg	8	yes	57	0	1047	0	0			0	0			1				0	
6.6.1	win	2023-06-27	16:28:23	16:31:54	206940	5862a405d22a5800014c4c27	3	1	main_slash	7	main_slash	3	stimuli_distractor_diamondtriangles.svg	stimuli_target_diamondrectangles.svg	31	yes	53	1	659	0	0			0	0			1				0	
6.6.1	win	2023-06-27	16:28:23	16:31:54	206940	5862a405d22a5800014c4c27	3	1	main_slash	7	advance_on_keypress_SLASH	4	stimuli_distractor_diamondtriangles.svg	stimuli_target_diamondrectangles.svg	31	yes	57	0	998	0	0			0	0			1				0	
6.6.1	win	2023-06-27	16:28:23	16:31:56	209044	5862a405d22a5800014c4c27	3	1	main_slash	7	main_slash	5	stimuli_distractor_diamondtriangles.svg	stimuli_target_rectangletriangles.svg	13	yes	53	1	462	0	0			0	0			1				0	
6.6.1	win	2023-06-27	16:28:23	16:31:56	209044	5862a405d22a5800014c4c27	3	1	main_slash	7	advance_on_keypress_SLASH	6	stimuli_distractor_diamondtriangles.svg	stimuli_target_rectangletriangles.svg	13	yes	57	0	625	0	0			0	0			1				0	
6.6.1	win	2023-06-27	16:28:23	16:31:58	210685	5862a405d22a5800014c4c27	3	1	main_slash	7	main_slash	7	stimuli_target_rectangletriangles.svg	stimuli_distractor_diamondtriangles.svg	5	yes	53	1	383	0	0			0	0			1				0	
6.6.1	win	2023-06-27	16:28:23	16:31:58	210685	5862a405d22a5800014c4c27	3	1	main_slash	7	advance_on_keypress_SLASH	8	stimuli_target_rectangletriangles.svg	stimuli_distractor_diamondtriangles.svg	5	yes	57	0	431	0	0			0	0			1				0	
6.6.1	win	2023-06-27	16:28:23	16:32:00	212533	5862a405d22a5800014c4c27	3	1	main_slash	7	main_slash	9	stimuli_target_rectangletriangles.svg	stimuli_distractor_trianglediamonds.svg	1	yes	53	1	783	0	0			0	0			1				0	
6.6.1	win	2023-06-27	16:28:23	16:32:00	212533	5862a405d22a5800014c4c27	3	1	main_slash	7	advance_on_keypress_SLASH	10	stimuli_target_rectangletriangles.svg	stimuli_distractor_trianglediamonds.svg	1	yes	57	0	660	0	0			0	0			1				0	
6.6.1	win	2023-06-27	16:28:23	16:32:02	214181	5862a405d22a5800014c4c27	3	1	main_slash	7	main_slash	11	stimuli_distractor_diamondtriangles.svg	stimuli_target_rectanglediamonds.svg	14	yes	53	1	347	0	0			0	0			1				0	
6.6.1	win	2023-06-27	16:28:23	16:32:02	214181	5862a405d22a5800014c4c27	3	1	main_slash	7	advance_on_keypress_SLASH	12	stimuli_distractor_diamondtriangles.svg	stimuli_target_rectanglediamonds.svg	14	yes	57	0	579	0	0			0	0			1				0	
6.6.1	win	2023-06-27	16:28:23	16:32:03	215787	5862a405d22a5800014c4c27	3	1	main_slash	7	main_slash	13	stimuli_distractor_trianglediamonds.svg	stimuli_target_rectanglediamonds.svg	10	yes	53	1	377	0	0			0	0			1				0	
6.6.1	win	2023-06-27	16:28:23	16:32:03	215787	5862a405d22a5800014c4c27	3	1	main_slash	7	advance_on_keypress_SLASH	14	stimuli_distractor_trianglediamonds.svg	stimuli_target_rectanglediamonds.svg	10	yes	57	0	553	0	0			0	0			1				0	
6.6.1	win	2023-06-27	16:28:23	16:32:05	217435	5862a405d22a5800014c4c27	3	1	main_slash	7	main_slash	15	stimuli_distractor_trianglediamonds.svg	stimuli_target_squaretriangles.svg	11	yes	53	1	450	0	0			0	0			1				0	
6.6.1	win	2023-06-27	16:28:23	16:32:05	217435	5862a405d22a5800014c4c27	3	1	main_slash	7	advance_on_keypress_SLASH	16	stimuli_distractor_trianglediamonds.svg	stimuli_target_squaretriangles.svg	11	yes	57	0	480	0	0			0	0			1				0	
6.6.1	win	2023-06-27	16:28:23	16:32:06	219054	5862a405d22a5800014c4c27	3	1	main_slash	7	main_slash	17	stimuli_target_trianglerectangles.svg	stimuli_distractor_diamondtriangles.svg	21	yes	53	1	497	0	0			0	0			1				0	
6.6.1	win	2023-06-27	16:28:23	16:32:06	219054	5862a405d22a5800014c4c27	3	1	main_slash	7	advance_on_keypress_SLASH	18	stimuli_target_trianglerectangles.svg	stimuli_distractor_diamondtriangles.svg	21	yes	57	0	428	0	0			0	0			1				0	
6.6.1	win	2023-06-27	16:28:23	16:32:08	220684	5862a405d22a5800014c4c27	3	1	main_slash	7	main_slash	19	stimuli_distractor_diamondtriangles.svg	stimuli_target_squarediamonds.svg	16	yes	53	1	547	0	0			0	0			1				0	
6.6.1	win	2023-06-27	16:28:23	16:32:08	220684	5862a405d22a5800014c4c27	3	1	main_slash	7	advance_on_keypress_SLASH	20	stimuli_distractor_diamondtriangles.svg	stimuli_target_squarediamonds.svg	16	yes	57	0	692	0	0			0	0			1				0	
6.6.1	win	2023-06-27	16:28:23	16:32:10	222474	5862a405d22a5800014c4c27	3	1	main_slash	7	main_slash	21	stimuli_distractor_diamondtriangles.svg	stimuli_target_trianglesquares.svg	30	yes	53	1	470	0	0			0	0			1				0	
6.6.1	win	2023-06-27	16:28:23	16:32:10	222474	5862a405d22a5800014c4c27	3	1	main_slash	7	advance_on_keypress_SLASH	22	stimuli_distractor_diamondtriangles.svg	stimuli_target_trianglesquares.svg	30	yes	57	0	474	0	0			0	0			1				0	
6.6.1	win	2023-06-27	16:28:23	16:32:13	225589	5862a405d22a5800014c4c27	3	1	main_slash	7	main_slash	23	stimuli_distractor_diamondtriangles.svg	stimuli_target_squaretriangles.svg	15	yes	0	0	2000	0	0			0	0			1				0	
6.6.1	win	2023-06-27	16:28:23	16:32:13	225589	5862a405d22a5800014c4c27	3	1	main_slash	7	advance_on_keypress_SLASH	24	stimuli_distractor_diamondtriangles.svg	stimuli_target_squaretriangles.svg	15	yes	57	0	452	0	0			0	0			1				0	
6.6.1	win	2023-06-27	16:28:23	16:32:15	227517	5862a405d22a5800014c4c27	3	1	main_slash	7	main_slash	25	stimuli_target_diamondsquares.svg	stimuli_distractor_trianglediamonds.svg	20	yes	53	1	827	0	0			0	0			1				0	
6.6.1	win	2023-06-27	16:28:23	16:32:15	227517	5862a405d22a5800014c4c27	3	1	main_slash	7	advance_on_keypress_SLASH	26	stimuli_target_diamondsquares.svg	stimuli_distractor_trianglediamonds.svg	20	yes	57	0	599	0	0			0	0			1				0	
6.6.1	win	2023-06-27	16:28:23	16:32:16	229123	5862a405d22a5800014c4c27	3	1	main_slash	7	main_slash	27	stimuli_target_diamondrectangles.svg	stimuli_distractor_diamondtriangles.svg	23	yes	53	1	365	0	0			0	0			1				0	
6.6.1	win	2023-06-27	16:28:23	16:32:16	229123	5862a405d22a5800014c4c27	3	1	main_slash	7	advance_on_keypress_SLASH	28	stimuli_target_diamondrectangles.svg	stimuli_distractor_diamondtriangles.svg	23	yes	57	0	405	0	0			0	0			1				0	
6.6.1	win	2023-06-27	16:28:23	16:32:20	232175	5862a405d22a5800014c4c27	3	1	main_slash	7	main_slash	29	stimuli_distractor_diamondtriangles.svg	stimuli_distractor_diamondtriangles.svg	39	no	0	1	2000	0	0			0	0			1				0	
6.6.1	win	2023-06-27	16:28:23	16:32:20	232175	5862a405d22a5800014c4c27	3	1	main_slash	7	advance_on_keypress_SLASH	30	stimuli_distractor_diamondtriangles.svg	stimuli_distractor_diamondtriangles.svg	39	no	57	0	345	0	0			0	0			1				0	
6.6.1	win	2023-06-27	16:28:23	16:32:21	233683	5862a405d22a5800014c4c27	3	1	main_slash	7	main_slash	31	stimuli_target_diamondrectangles.svg	stimuli_distractor_trianglediamonds.svg	19	yes	53	1	523	0	0			0	0			1				0	
6.6.1	win	2023-06-27	16:28:23	16:32:21	233683	5862a405d22a5800014c4c27	3	1	main_slash	7	advance_on_keypress_SLASH	32	stimuli_target_diamondrectangles.svg	stimuli_distractor_trianglediamonds.svg	19	yes	57	0	517	0	0			0	0			1				0	
6.6.1	win	2023-06-27	16:28:23	16:32:23	235284	5862a405d22a5800014c4c27	3	1	main_slash	7	main_slash	33	stimuli_distractor_trianglediamonds.svg	stimuli_target_diamondsquares.svg	28	yes	53	1	440	0	0			0	0			1				0	
6.6.1	win	2023-06-27	16:28:23	16:32:23	235284	5862a405d22a5800014c4c27	3	1	main_slash	7	advance_on_keypress_SLASH	34	stimuli_distractor_trianglediamonds.svg	stimuli_target_diamondsquares.svg	28	yes	57	0	436	0	0			0	0			1				0	
6.6.1	win	2023-06-27	16:28:23	16:32:24	236880	5862a405d22a5800014c4c27	3	1	main_slash	7	main_slash	35	stimuli_distractor_trianglediamonds.svg	stimuli_target_diamondrectangles.svg	27	yes	53	1	514	0	0			0	0			1				0	
6.6.1	win	2023-06-27	16:28:23	16:32:24	236880	5862a405d22a5800014c4c27	3	1	main_slash	7	advance_on_keypress_SLASH	36	stimuli_distractor_trianglediamonds.svg	stimuli_target_diamondrectangles.svg	27	yes	57	0	380	0	0			0	0			1				0	
6.6.1	win	2023-06-27	16:28:23	16:32:26	239115	5862a405d22a5800014c4c27	3	1	main_slash	7	main_slash	37	stimuli_distractor_diamondtriangles.svg	stimuli_distractor_trianglediamonds.svg	38	no	53	0	1220	0	0			0	0			1				0	
6.6.1	win	2023-06-27	16:28:23	16:32:26	239115	5862a405d22a5800014c4c27	3	1	main_slash	7	advance_on_keypress_SLASH	38	stimuli_distractor_diamondtriangles.svg	stimuli_distractor_trianglediamonds.svg	38	no	57	0	578	0	0			0	0			1				0	
6.6.1	win	2023-06-27	16:28:23	16:32:28	241026	5862a405d22a5800014c4c27	3	1	main_slash	7	main_slash	39	stimuli_target_trianglesquares.svg	stimuli_distractor_diamondtriangles.svg	22	yes	53	1	697	0	0			0	0			1				0	
6.6.1	win	2023-06-27	16:28:23	16:32:28	241026	5862a405d22a5800014c4c27	3	1	main_slash	7	advance_on_keypress_SLASH	40	stimuli_target_trianglesquares.svg	stimuli_distractor_diamondtriangles.svg	22	yes	57	0	444	0	0			0	0			1				0	
6.6.1	win	2023-06-27	16:28:23	16:32:30	242554	5862a405d22a5800014c4c27	3	1	main_slash	7	main_slash	41	stimuli_target_diamondsquares.svg	stimuli_distractor_diamondtriangles.svg	24	yes	53	1	457	0	0			0	0			1				0	
6.6.1	win	2023-06-27	16:28:23	16:32:30	242554	5862a405d22a5800014c4c27	3	1	main_slash	7	advance_on_keypress_SLASH	42	stimuli_target_diamondsquares.svg	stimuli_distractor_diamondtriangles.svg	24	yes	57	0	416	0	0			0	0			1				0	
6.6.1	win	2023-06-27	16:28:23	16:32:33	245614	5862a405d22a5800014c4c27	3	1	main_slash	7	main_slash	43	stimuli_distractor_diamondtriangles.svg	stimuli_distractor_diamondtriangles.svg	40	no	0	1	2000	0	0			0	0			1				0	
6.6.1	win	2023-06-27	16:28:23	16:32:33	245614	5862a405d22a5800014c4c27	3	1	main_slash	7	advance_on_keypress_SLASH	44	stimuli_distractor_diamondtriangles.svg	stimuli_distractor_diamondtriangles.svg	40	no	57	0	259	0	0			0	0			1				0	
6.6.1	win	2023-06-27	16:28:23	16:32:34	246971	5862a405d22a5800014c4c27	3	1	main_slash	7	main_slash	45	stimuli_distractor_diamondtriangles.svg	stimuli_target_trianglerectangles.svg	29	yes	53	1	455	0	0			0	0			1				0	
6.6.1	win	2023-06-27	16:28:23	16:32:34	246971	5862a405d22a5800014c4c27	3	1	main_slash	7	advance_on_keypress_SLASH	46	stimuli_distractor_diamondtriangles.svg	stimuli_target_trianglerectangles.svg	29	yes	57	0	459	0	0			0	0			1				0	
6.6.1	win	2023-06-27	16:28:23	16:32:36	248653	5862a405d22a5800014c4c27	3	1	main_slash	7	main_slash	47	stimuli_target_squarediamonds.svg	stimuli_distractor_trianglediamonds.svg	4	yes	53	1	587	0	0			0	0			1				0	
6.6.1	win	2023-06-27	16:28:23	16:32:36	248653	5862a405d22a5800014c4c27	3	1	main_slash	7	advance_on_keypress_SLASH	48	stimuli_target_squarediamonds.svg	stimuli_distractor_trianglediamonds.svg	4	yes	57	0	511	0	0			0	0			1				0	
6.6.1	win	2023-06-27	16:28:23	16:32:38	250242	5862a405d22a5800014c4c27	3	1	main_slash	7	main_slash	49	stimuli_distractor_diamondtriangles.svg	stimuli_target_diamondsquares.svg	32	yes	53	1	442	0	0			0	0			1				0	
6.6.1	win	2023-06-27	16:28:23	16:32:38	250242	5862a405d22a5800014c4c27	3	1	main_slash	7	advance_on_keypress_SLASH	50	stimuli_distractor_diamondtriangles.svg	stimuli_target_diamondsquares.svg	32	yes	57	0	455	0	0			0	0			1				0	
6.6.1	win	2023-06-27	16:28:23	16:32:41	253335	5862a405d22a5800014c4c27	3	1	main_slash	7	main_slash	51	stimuli_distractor_trianglediamonds.svg	stimuli_distractor_diamondtriangles.svg	36	no	0	1	2000	0	0			0	0			1				0	
6.6.1	win	2023-06-27	16:28:23	16:32:41	253335	5862a405d22a5800014c4c27	3	1	main_slash	7	advance_on_keypress_SLASH	52	stimuli_distractor_trianglediamonds.svg	stimuli_distractor_diamondtriangles.svg	36	no	57	0	372	0	0			0	0			1				0	
6.6.1	win	2023-06-27	16:28:23	16:32:44	256353	5862a405d22a5800014c4c27	3	1	main_slash	7	main_slash	53	stimuli_distractor_trianglediamonds.svg	stimuli_distractor_trianglediamonds.svg	33	no	0	1	2000	0	0			0	0			1				0	
6.6.1	win	2023-06-27	16:28:23	16:32:44	256353	5862a405d22a5800014c4c27	3	1	main_slash	7	advance_on_keypress_SLASH	54	stimuli_distractor_trianglediamonds.svg	stimuli_distractor_trianglediamonds.svg	33	no	57	0	298	0	0			0	0			1				0	
6.6.1	win	2023-06-27	16:28:23	16:32:45	257861	5862a405d22a5800014c4c27	3	1	main_slash	7	main_slash	55	stimuli_distractor_trianglediamonds.svg	stimuli_target_trianglesquares.svg	26	yes	53	1	557	0	0			0	0			1				0	
6.6.1	win	2023-06-27	16:28:23	16:32:45	257861	5862a405d22a5800014c4c27	3	1	main_slash	7	advance_on_keypress_SLASH	56	stimuli_distractor_trianglediamonds.svg	stimuli_target_trianglesquares.svg	26	yes	57	0	503	0	0			0	0			1				0	
6.6.1	win	2023-06-27	16:28:23	16:32:48	261005	5862a405d22a5800014c4c27	3	1	main_slash	7	main_slash	57	stimuli_distractor_trianglediamonds.svg	stimuli_distractor_diamondtriangles.svg	35	no	0	1	2000	0	0			0	0			1				0	
6.6.1	win	2023-06-27	16:28:23	16:32:48	261005	5862a405d22a5800014c4c27	3	1	main_slash	7	advance_on_keypress_SLASH	58	stimuli_distractor_trianglediamonds.svg	stimuli_distractor_diamondtriangles.svg	35	no	57	0	375	0	0			0	0			1				0	
6.6.1	win	2023-06-27	16:28:23	16:32:50	262420	5862a405d22a5800014c4c27	3	1	main_slash	7	main_slash	59	stimuli_target_trianglesquares.svg	stimuli_distractor_trianglediamonds.svg	18	yes	53	1	397	0	0			0	0			1				0	
6.6.1	win	2023-06-27	16:28:23	16:32:50	262420	5862a405d22a5800014c4c27	3	1	main_slash	7	advance_on_keypress_SLASH	60	stimuli_target_trianglesquares.svg	stimuli_distractor_trianglediamonds.svg	18	yes	57	0	420	0	0			0	0			1				0	
6.6.1	win	2023-06-27	16:28:23	16:32:51	264115	5862a405d22a5800014c4c27	3	1	main_slash	7	main_slash	61	stimuli_distractor_trianglediamonds.svg	stimuli_target_rectangletriangles.svg	9	yes	53	1	641	0	0			0	0			1				0	
6.6.1	win	2023-06-27	16:28:23	16:32:51	264115	5862a405d22a5800014c4c27	3	1	main_slash	7	advance_on_keypress_SLASH	62	stimuli_distractor_trianglediamonds.svg	stimuli_target_rectangletriangles.svg	9	yes	57	0	462	0	0			0	0			1				0	
6.6.1	win	2023-06-27	16:28:23	16:32:53	265811	5862a405d22a5800014c4c27	3	1	main_slash	7	main_slash	63	stimuli_distractor_trianglediamonds.svg	stimuli_target_squarediamonds.svg	12	yes	53	1	604	0	0			0	0			1				0	
6.6.1	win	2023-06-27	16:28:23	16:32:53	265811	5862a405d22a5800014c4c27	3	1	main_slash	7	advance_on_keypress_SLASH	64	stimuli_distractor_trianglediamonds.svg	stimuli_target_squarediamonds.svg	12	yes	57	0	394	0	0			0	0			1				0	
6.6.1	win	2023-06-27	16:28:23	16:32:55	267820	5862a405d22a5800014c4c27	3	1	main_slash	7	main_slash	65	stimuli_target_squaretriangles.svg	stimuli_distractor_trianglediamonds.svg	3	yes	53	1	979	0	0			0	0			1				0	
6.6.1	win	2023-06-27	16:28:23	16:32:55	267820	5862a405d22a5800014c4c27	3	1	main_slash	7	advance_on_keypress_SLASH	66	stimuli_target_squaretriangles.svg	stimuli_distractor_trianglediamonds.svg	3	yes	57	0	586	0	0			0	0			1				0	
6.6.1	win	2023-06-27	16:28:23	16:32:57	269666	5862a405d22a5800014c4c27	3	1	main_slash	7	main_slash	67	stimuli_target_rectanglediamonds.svg	stimuli_distractor_trianglediamonds.svg	2	yes	53	1	623	0	0			0	0			1				0	
6.6.1	win	2023-06-27	16:28:23	16:32:57	269666	5862a405d22a5800014c4c27	3	1	main_slash	7	advance_on_keypress_SLASH	68	stimuli_target_rectanglediamonds.svg	stimuli_distractor_trianglediamonds.svg	2	yes	57	0	390	0	0			0	0			1				0	
6.6.1	win	2023-06-27	16:28:23	16:33:00	272694	5862a405d22a5800014c4c27	3	1	main_slash	7	main_slash	69	stimuli_distractor_trianglediamonds.svg	stimuli_distractor_trianglediamonds.svg	34	no	0	1	2000	0	0			0	0			1				0	
6.6.1	win	2023-06-27	16:28:23	16:33:00	272694	5862a405d22a5800014c4c27	3	1	main_slash	7	advance_on_keypress_SLASH	70	stimuli_distractor_trianglediamonds.svg	stimuli_distractor_trianglediamonds.svg	34	no	57	0	379	0	0			0	0			1				0	
6.6.1	win	2023-06-27	16:28:23	16:33:01	274131	5862a405d22a5800014c4c27	3	1	main_slash	7	main_slash	71	stimuli_target_rectanglediamonds.svg	stimuli_distractor_diamondtriangles.svg	6	yes	53	1	420	0	0			0	0			1				0	
6.6.1	win	2023-06-27	16:28:23	16:33:01	274131	5862a405d22a5800014c4c27	3	1	main_slash	7	advance_on_keypress_SLASH	72	stimuli_target_rectanglediamonds.svg	stimuli_distractor_diamondtriangles.svg	6	yes	57	0	362	0	0			0	0			1				0	
6.6.1	win	2023-06-27	16:28:23	16:33:03	275602	5862a405d22a5800014c4c27	3	1	main_slash	7	main_slash	73	stimuli_target_squaretriangles.svg	stimuli_distractor_diamondtriangles.svg	7	yes	53	1	473	0	0			0	0			1				0	
6.6.1	win	2023-06-27	16:28:23	16:33:03	275602	5862a405d22a5800014c4c27	3	1	main_slash	7	advance_on_keypress_SLASH	74	stimuli_target_squaretriangles.svg	stimuli_distractor_diamondtriangles.svg	7	yes	57	0	327	0	0			0	0			1				0	
6.6.1	win	2023-06-27	16:28:23	16:33:04	277019	5862a405d22a5800014c4c27	3	1	main_slash	7	main_slash	75	stimuli_target_trianglerectangles.svg	stimuli_distractor_trianglediamonds.svg	17	yes	53	1	456	0	0			0	0			1				0	
6.6.1	win	2023-06-27	16:28:23	16:33:04	277019	5862a405d22a5800014c4c27	3	1	main_slash	7	advance_on_keypress_SLASH	76	stimuli_target_trianglerectangles.svg	stimuli_distractor_trianglediamonds.svg	17	yes	57	0	309	0	0			0	0			1				0	
6.6.1	win	2023-06-27	16:28:23	16:33:07	279963	5862a405d22a5800014c4c27	3	1	main_slash	7	main_slash	77	stimuli_distractor_diamondtriangles.svg	stimuli_distractor_trianglediamonds.svg	37	no	0	1	2000	0	0			0	0			1				0	
6.6.1	win	2023-06-27	16:28:23	16:33:07	279963	5862a405d22a5800014c4c27	3	1	main_slash	7	advance_on_keypress_SLASH	78	stimuli_distractor_diamondtriangles.svg	stimuli_distractor_trianglediamonds.svg	37	no	57	0	279	0	0			0	0			1				0	
6.6.1	win	2023-06-27	16:28:23	16:33:09	281419	5862a405d22a5800014c4c27	3	1	main_slash	7	main_slash	79	stimuli_distractor_trianglediamonds.svg	stimuli_target_trianglerectangles.svg	25	yes	53	1	538	0	0			0	0			1				0	
6.6.1	win	2023-06-27	16:28:23	16:33:09	281419	5862a405d22a5800014c4c27	3	1	main_slash	7	advance_on_keypress_SLASH	80	stimuli_distractor_trianglediamonds.svg	stimuli_target_trianglerectangles.svg	25	yes	57	0	410	0	0			0	0			1				0	
6.6.1	win	2023-06-27	16:28:23	16:33:12	284466	5862a405d22a5800014c4c27	3	1	main_slash	7	main_slash	81	stimuli_distractor_trianglediamonds.svg	stimuli_distractor_trianglediamonds.svg	34	no	0	1	2000	0	0			0	0			1				0	
6.6.1	win	2023-06-27	16:28:23	16:33:12	284466	5862a405d22a5800014c4c27	3	1	main_slash	7	advance_on_keypress_SLASH	82	stimuli_distractor_trianglediamonds.svg	stimuli_distractor_trianglediamonds.svg	34	no	57	0	393	0	0			0	0			1				0	
6.6.1	win	2023-06-27	16:28:23	16:33:13	285988	5862a405d22a5800014c4c27	3	1	main_slash	7	main_slash	83	stimuli_distractor_trianglediamonds.svg	stimuli_distractor_diamondtriangles.svg	36	no	53	0	488	0	0			0	0			1				0	
6.6.1	win	2023-06-27	16:28:23	16:33:13	285988	5862a405d22a5800014c4c27	3	1	main_slash	7	advance_on_keypress_SLASH	84	stimuli_distractor_trianglediamonds.svg	stimuli_distractor_diamondtriangles.svg	36	no	57	0	570	0	0			0	0			1				0	
6.6.1	win	2023-06-27	16:28:23	16:33:17	289201	5862a405d22a5800014c4c27	3	1	main_slash	7	main_slash	85	stimuli_distractor_trianglediamonds.svg	stimuli_distractor_diamondtriangles.svg	35	no	0	1	2000	0	0			0	0			1				0	
6.6.1	win	2023-06-27	16:28:23	16:33:17	289201	5862a405d22a5800014c4c27	3	1	main_slash	7	advance_on_keypress_SLASH	86	stimuli_distractor_trianglediamonds.svg	stimuli_distractor_diamondtriangles.svg	35	no	57	0	273	0	0			0	0			1				0	
6.6.1	win	2023-06-27	16:28:23	16:33:19	292119	5862a405d22a5800014c4c27	3	1	main_slash	7	main_slash	87	stimuli_distractor_trianglediamonds.svg	stimuli_target_squarediamonds.svg	12	yes	0	0	2000	0	0			0	0			1				0	
6.6.1	win	2023-06-27	16:28:23	16:33:19	292119	5862a405d22a5800014c4c27	3	1	main_slash	7	advance_on_keypress_SLASH	88	stimuli_distractor_trianglediamonds.svg	stimuli_target_squarediamonds.svg	12	yes	57	0	299	0	0			0	0			1				0	
6.6.1	win	2023-06-27	16:28:23	16:33:21	293474	5862a405d22a5800014c4c27	3	1	main_slash	7	main_slash	89	stimuli_target_diamondsquares.svg	stimuli_distractor_diamondtriangles.svg	24	yes	53	1	404	0	0			0	0			1				0	
6.6.1	win	2023-06-27	16:28:23	16:33:21	293474	5862a405d22a5800014c4c27	3	1	main_slash	7	advance_on_keypress_SLASH	90	stimuli_target_diamondsquares.svg	stimuli_distractor_diamondtriangles.svg	24	yes	57	0	395	0	0			0	0			1				0	
6.6.1	win	2023-06-27	16:28:23	16:33:22	295042	5862a405d22a5800014c4c27	3	1	main_slash	7	main_slash	91	stimuli_distractor_trianglediamonds.svg	stimuli_target_diamondsquares.svg	28	yes	53	1	538	0	0			0	0			1				0	
6.6.1	win	2023-06-27	16:28:23	16:33:22	295042	5862a405d22a5800014c4c27	3	1	main_slash	7	advance_on_keypress_SLASH	92	stimuli_distractor_trianglediamonds.svg	stimuli_target_diamondsquares.svg	28	yes	57	0	363	0	0			0	0			1				0	
6.6.1	win	2023-06-27	16:28:23	16:33:24	296499	5862a405d22a5800014c4c27	3	1	main_slash	7	main_slash	93	stimuli_target_diamondrectangles.svg	stimuli_distractor_trianglediamonds.svg	19	yes	53	1	461	0	0			0	0			1				0	
6.6.1	win	2023-06-27	16:28:23	16:33:24	296499	5862a405d22a5800014c4c27	3	1	main_slash	7	advance_on_keypress_SLASH	94	stimuli_target_diamondrectangles.svg	stimuli_distractor_trianglediamonds.svg	19	yes	57	0	307	0	0			0	0			1				0	
6.6.1	win	2023-06-27	16:28:23	16:33:25	298155	5862a405d22a5800014c4c27	3	1	main_slash	7	main_slash	95	stimuli_target_squaretriangles.svg	stimuli_distractor_trianglediamonds.svg	3	yes	53	1	716	0	0			0	0			1				0	
6.6.1	win	2023-06-27	16:28:23	16:33:25	298155	5862a405d22a5800014c4c27	3	1	main_slash	7	advance_on_keypress_SLASH	96	stimuli_target_squaretriangles.svg	stimuli_distractor_trianglediamonds.svg	3	yes	57	0	550	0	0			0	0			1				0	
6.6.1	win	2023-06-27	16:28:23	16:33:27	299810	5862a405d22a5800014c4c27	3	1	main_slash	7	main_slash	97	stimuli_distractor_trianglediamonds.svg	stimuli_target_rectanglediamonds.svg	10	yes	53	1	454	0	0			0	0			1				0	
6.6.1	win	2023-06-27	16:28:23	16:33:27	299810	5862a405d22a5800014c4c27	3	1	main_slash	7	advance_on_keypress_SLASH	98	stimuli_distractor_trianglediamonds.svg	stimuli_target_rectanglediamonds.svg	10	yes	57	0	388	0	0			0	0			1				0	
6.6.1	win	2023-06-27	16:28:23	16:33:30	302841	5862a405d22a5800014c4c27	3	1	main_slash	7	main_slash	99	stimuli_distractor_diamondtriangles.svg	stimuli_distractor_trianglediamonds.svg	38	no	0	1	2000	0	0			0	0			1				0	
6.6.1	win	2023-06-27	16:28:23	16:33:30	302841	5862a405d22a5800014c4c27	3	1	main_slash	7	advance_on_keypress_SLASH	100	stimuli_distractor_diamondtriangles.svg	stimuli_distractor_trianglediamonds.svg	38	no	57	0	355	0	0			0	0			1				0	
6.6.1	win	2023-06-27	16:28:23	16:33:33	305842	5862a405d22a5800014c4c27	3	1	main_slash	7	main_slash	101	stimuli_distractor_diamondtriangles.svg	stimuli_distractor_diamondtriangles.svg	40	no	0	1	2000	0	0			0	0			1				0	
6.6.1	win	2023-06-27	16:28:23	16:33:33	305842	5862a405d22a5800014c4c27	3	1	main_slash	7	advance_on_keypress_SLASH	102	stimuli_distractor_diamondtriangles.svg	stimuli_distractor_diamondtriangles.svg	40	no	57	0	311	0	0			0	0			1				0	
6.6.1	win	2023-06-27	16:28:23	16:33:35	307312	5862a405d22a5800014c4c27	3	1	main_slash	7	main_slash	103	stimuli_distractor_diamondtriangles.svg	stimuli_target_squarediamonds.svg	16	yes	53	1	514	0	0			0	0			1				0	
6.6.1	win	2023-06-27	16:28:23	16:33:35	307312	5862a405d22a5800014c4c27	3	1	main_slash	7	advance_on_keypress_SLASH	104	stimuli_distractor_diamondtriangles.svg	stimuli_target_squarediamonds.svg	16	yes	57	0	365	0	0			0	0			1				0	
6.6.1	win	2023-06-27	16:28:23	16:33:36	308712	5862a405d22a5800014c4c27	3	1	main_slash	7	main_slash	105	stimuli_distractor_trianglediamonds.svg	stimuli_target_diamondrectangles.svg	27	yes	53	1	380	0	0			0	0			1				0	
6.6.1	win	2023-06-27	16:28:23	16:33:36	308712	5862a405d22a5800014c4c27	3	1	main_slash	7	advance_on_keypress_SLASH	106	stimuli_distractor_trianglediamonds.svg	stimuli_target_diamondrectangles.svg	27	yes	57	0	251	0	0			0	0			1				0	
6.6.1	win	2023-06-27	16:28:23	16:33:37	309956	5862a405d22a5800014c4c27	3	1	main_slash	7	main_slash	107	stimuli_target_rectangletriangles.svg	stimuli_distractor_trianglediamonds.svg	1	yes	53	1	345	0	0			0	0			1				0	
6.6.1	win	2023-06-27	16:28:23	16:33:37	309956	5862a405d22a5800014c4c27	3	1	main_slash	7	advance_on_keypress_SLASH	108	stimuli_target_rectangletriangles.svg	stimuli_distractor_trianglediamonds.svg	1	yes	57	0	154	0	0			0	0			1				0	
6.6.1	win	2023-06-27	16:28:23	16:33:38	311131	5862a405d22a5800014c4c27	3	1	main_slash	7	main_slash	109	stimuli_target_trianglesquares.svg	stimuli_distractor_trianglediamonds.svg	18	yes	53	1	385	0	0			0	0			1				0	
6.6.1	win	2023-06-27	16:28:23	16:33:38	311131	5862a405d22a5800014c4c27	3	1	main_slash	7	advance_on_keypress_SLASH	110	stimuli_target_trianglesquares.svg	stimuli_distractor_trianglediamonds.svg	18	yes	57	0	177	0	0			0	0			1				0	
6.6.1	win	2023-06-27	16:28:23	16:33:40	312258	5862a405d22a5800014c4c27	3	1	main_slash	7	main_slash	111	stimuli_target_diamondsquares.svg	stimuli_distractor_trianglediamonds.svg	20	yes	53	1	313	0	0			0	0			1				0	
6.6.1	win	2023-06-27	16:28:23	16:33:40	312258	5862a405d22a5800014c4c27	3	1	main_slash	7	advance_on_keypress_SLASH	112	stimuli_target_diamondsquares.svg	stimuli_distractor_trianglediamonds.svg	20	yes	57	0	206	0	0			0	0			1				0	
6.6.1	win	2023-06-27	16:28:23	16:33:42	315096	5862a405d22a5800014c4c27	3	1	main_slash	7	main_slash	113	stimuli_distractor_diamondtriangles.svg	stimuli_distractor_trianglediamonds.svg	37	no	0	1	2000	0	0			0	0			1				0	
6.6.1	win	2023-06-27	16:28:23	16:33:42	315096	5862a405d22a5800014c4c27	3	1	main_slash	7	advance_on_keypress_SLASH	114	stimuli_distractor_diamondtriangles.svg	stimuli_distractor_trianglediamonds.svg	37	no	57	0	571	0	0			0	0			1				0	
6.6.1	win	2023-06-27	16:28:23	16:33:46	318314	5862a405d22a5800014c4c27	3	1	main_slash	7	main_slash	115	stimuli_distractor_diamondtriangles.svg	stimuli_distractor_diamondtriangles.svg	39	no	0	1	2000	0	0			0	0			1				0	
6.6.1	win	2023-06-27	16:28:23	16:33:46	318314	5862a405d22a5800014c4c27	3	1	main_slash	7	advance_on_keypress_SLASH	116	stimuli_distractor_diamondtriangles.svg	stimuli_distractor_diamondtriangles.svg	39	no	57	0	358	0	0			0	0			1				0	
6.6.1	win	2023-06-27	16:28:23	16:33:47	319714	5862a405d22a5800014c4c27	3	1	main_slash	7	main_slash	117	stimuli_target_trianglerectangles.svg	stimuli_distractor_trianglediamonds.svg	17	yes	53	1	399	0	0			0	0			1				0	
6.6.1	win	2023-06-27	16:28:23	16:33:47	319714	5862a405d22a5800014c4c27	3	1	main_slash	7	advance_on_keypress_SLASH	118	stimuli_target_trianglerectangles.svg	stimuli_distractor_trianglediamonds.svg	17	yes	57	0	431	0	0			0	0			1				0	
6.6.1	win	2023-06-27	16:28:23	16:33:49	321190	5862a405d22a5800014c4c27	3	1	main_slash	7	main_slash	119	stimuli_distractor_diamondtriangles.svg	stimuli_target_rectanglediamonds.svg	14	yes	53	1	389	0	0			0	0			1				0	
6.6.1	win	2023-06-27	16:28:23	16:33:49	321190	5862a405d22a5800014c4c27	3	1	main_slash	7	advance_on_keypress_SLASH	120	stimuli_distractor_diamondtriangles.svg	stimuli_target_rectanglediamonds.svg	14	yes	57	0	739	0	0			0	0			1				0	
6.6.1	win	2023-06-27	16:28:23	16:33:50	322916	5862a405d22a5800014c4c27	3	1	main_slash	7	main_slash	121	stimuli_distractor_trianglediamonds.svg	stimuli_target_trianglerectangles.svg	25	yes	53	1	349	0	0			0	0			1				0	
6.6.1	win	2023-06-27	16:28:23	16:33:50	322916	5862a405d22a5800014c4c27	3	1	main_slash	7	advance_on_keypress_SLASH	122	stimuli_distractor_trianglediamonds.svg	stimuli_target_trianglerectangles.svg	25	yes	57	0	348	0	0			0	0			1				0	
6.6.1	win	2023-06-27	16:28:23	16:33:52	324490	5862a405d22a5800014c4c27	3	1	main_slash	7	main_slash	123	stimuli_target_squarediamonds.svg	stimuli_distractor_trianglediamonds.svg	4	yes	53	1	572	0	0			0	0			1				0	
6.6.1	win	2023-06-27	16:28:23	16:33:52	324490	5862a405d22a5800014c4c27	3	1	main_slash	7	advance_on_keypress_SLASH	124	stimuli_target_squarediamonds.svg	stimuli_distractor_trianglediamonds.svg	4	yes	57	0	302	0	0			0	0			1				0	
6.6.1	win	2023-06-27	16:28:23	16:33:55	327435	5862a405d22a5800014c4c27	3	1	main_slash	7	main_slash	125	stimuli_distractor_diamondtriangles.svg	stimuli_target_rectangletriangles.svg	13	yes	0	0	2000	0	0			0	0			1				0	
6.6.1	win	2023-06-27	16:28:23	16:33:55	327435	5862a405d22a5800014c4c27	3	1	main_slash	7	advance_on_keypress_SLASH	126	stimuli_distractor_diamondtriangles.svg	stimuli_target_rectangletriangles.svg	13	yes	57	0	422	0	0			0	0			1				0	
6.6.1	win	2023-06-27	16:28:23	16:33:57	329890	5862a405d22a5800014c4c27	3	1	main_slash	7	main_slash	127	stimuli_distractor_diamondtriangles.svg	stimuli_target_squaretriangles.svg	15	yes	53	1	1387	0	0			0	0			1				0	
6.6.1	win	2023-06-27	16:28:23	16:33:57	329890	5862a405d22a5800014c4c27	3	1	main_slash	7	advance_on_keypress_SLASH	128	stimuli_distractor_diamondtriangles.svg	stimuli_target_squaretriangles.svg	15	yes	57	0	394	0	0			0	0			1				0	
6.6.1	win	2023-06-27	16:28:23	16:33:59	331613	5862a405d22a5800014c4c27	3	1	main_slash	7	main_slash	129	stimuli_target_trianglesquares.svg	stimuli_distractor_diamondtriangles.svg	22	yes	53	1	692	0	0			0	0			1				0	
6.6.1	win	2023-06-27	16:28:23	16:33:59	331613	5862a405d22a5800014c4c27	3	1	main_slash	7	advance_on_keypress_SLASH	130	stimuli_target_trianglesquares.svg	stimuli_distractor_diamondtriangles.svg	22	yes	57	0	414	0	0			0	0			1				0	
6.6.1	win	2023-06-27	16:28:23	16:34:00	333154	5862a405d22a5800014c4c27	3	1	main_slash	7	main_slash	131	stimuli_target_diamondrectangles.svg	stimuli_distractor_diamondtriangles.svg	23	yes	53	1	499	0	0			0	0			1				0	
6.6.1	win	2023-06-27	16:28:23	16:34:00	333154	5862a405d22a5800014c4c27	3	1	main_slash	7	advance_on_keypress_SLASH	132	stimuli_target_diamondrectangles.svg	stimuli_distractor_diamondtriangles.svg	23	yes	57	0	310	0	0			0	0			1				0	
6.6.1	win	2023-06-27	16:28:23	16:34:02	334796	5862a405d22a5800014c4c27	3	1	main_slash	7	main_slash	133	stimuli_distractor_diamondtriangles.svg	stimuli_target_trianglerectangles.svg	29	yes	53	1	690	0	0			0	0			1				0	
6.6.1	win	2023-06-27	16:28:23	16:34:02	334796	5862a405d22a5800014c4c27	3	1	main_slash	7	advance_on_keypress_SLASH	134	stimuli_distractor_diamondtriangles.svg	stimuli_target_trianglerectangles.svg	29	yes	57	0	292	0	0			0	0			1				0	
6.6.1	win	2023-06-27	16:28:23	16:34:04	336850	5862a405d22a5800014c4c27	3	1	main_slash	7	main_slash	135	stimuli_target_trianglerectangles.svg	stimuli_distractor_diamondtriangles.svg	21	yes	53	1	1127	0	0			0	0			1				0	
6.6.1	win	2023-06-27	16:28:23	16:34:04	336850	5862a405d22a5800014c4c27	3	1	main_slash	7	advance_on_keypress_SLASH	136	stimuli_target_trianglerectangles.svg	stimuli_distractor_diamondtriangles.svg	21	yes	57	0	339	0	0			0	0			1				0	
6.6.1	win	2023-06-27	16:28:23	16:34:06	338356	5862a405d22a5800014c4c27	3	1	main_slash	7	main_slash	137	stimuli_distractor_trianglediamonds.svg	stimuli_target_trianglesquares.svg	26	yes	53	1	532	0	0			0	0			1				0	
6.6.1	win	2023-06-27	16:28:23	16:34:06	338356	5862a405d22a5800014c4c27	3	1	main_slash	7	advance_on_keypress_SLASH	138	stimuli_distractor_trianglediamonds.svg	stimuli_target_trianglesquares.svg	26	yes	57	0	260	0	0			0	0			1				0	
6.6.1	win	2023-06-27	16:28:23	16:34:07	339995	5862a405d22a5800014c4c27	3	1	main_slash	7	main_slash	139	stimuli_distractor_trianglediamonds.svg	stimuli_target_squaretriangles.svg	11	yes	53	1	737	0	0			0	0			1				0	
6.6.1	win	2023-06-27	16:28:23	16:34:07	339995	5862a405d22a5800014c4c27	3	1	main_slash	7	advance_on_keypress_SLASH	140	stimuli_distractor_trianglediamonds.svg	stimuli_target_squaretriangles.svg	11	yes	57	0	371	0	0			0	0			1				0	
6.6.1	win	2023-06-27	16:28:23	16:34:09	341483	5862a405d22a5800014c4c27	3	1	main_slash	7	main_slash	141	stimuli_distractor_diamondtriangles.svg	stimuli_target_diamondrectangles.svg	31	yes	53	1	474	0	0			0	0			1				0	
6.6.1	win	2023-06-27	16:28:23	16:34:09	341483	5862a405d22a5800014c4c27	3	1	main_slash	7	advance_on_keypress_SLASH	142	stimuli_distractor_diamondtriangles.svg	stimuli_target_diamondrectangles.svg	31	yes	57	0	301	0	0			0	0			1				0	
6.6.1	win	2023-06-27	16:28:23	16:34:10	342883	5862a405d22a5800014c4c27	3	1	main_slash	7	main_slash	143	stimuli_target_rectanglediamonds.svg	stimuli_distractor_diamondtriangles.svg	6	yes	53	1	457	0	0			0	0			1				0	
6.6.1	win	2023-06-27	16:28:23	16:34:10	342883	5862a405d22a5800014c4c27	3	1	main_slash	7	advance_on_keypress_SLASH	144	stimuli_target_rectanglediamonds.svg	stimuli_distractor_diamondtriangles.svg	6	yes	57	0	437	0	0			0	0			1				0	
6.6.1	win	2023-06-27	16:28:23	16:34:12	344362	5862a405d22a5800014c4c27	3	1	main_slash	7	main_slash	145	stimuli_target_squaretriangles.svg	stimuli_distractor_diamondtriangles.svg	7	yes	53	1	402	0	0			0	0			1				0	
6.6.1	win	2023-06-27	16:28:23	16:34:12	344362	5862a405d22a5800014c4c27	3	1	main_slash	7	advance_on_keypress_SLASH	146	stimuli_target_squaretriangles.svg	stimuli_distractor_diamondtriangles.svg	7	yes	57	0	257	0	0			0	0			1				0	
6.6.1	win	2023-06-27	16:28:23	16:34:13	345850	5862a405d22a5800014c4c27	3	1	main_slash	7	main_slash	147	stimuli_target_rectangletriangles.svg	stimuli_distractor_diamondtriangles.svg	5	yes	53	1	589	0	0			0	0			1				0	
6.6.1	win	2023-06-27	16:28:23	16:34:13	345850	5862a405d22a5800014c4c27	3	1	main_slash	7	advance_on_keypress_SLASH	148	stimuli_target_rectangletriangles.svg	stimuli_distractor_diamondtriangles.svg	5	yes	57	0	398	0	0			0	0			1				0	
6.6.1	win	2023-06-27	16:28:23	16:34:15	347348	5862a405d22a5800014c4c27	3	1	main_slash	7	main_slash	149	stimuli_distractor_diamondtriangles.svg	stimuli_target_trianglesquares.svg	30	yes	53	1	453	0	0			0	0			1				0	
6.6.1	win	2023-06-27	16:28:23	16:34:15	347348	5862a405d22a5800014c4c27	3	1	main_slash	7	advance_on_keypress_SLASH	150	stimuli_distractor_diamondtriangles.svg	stimuli_target_trianglesquares.svg	30	yes	57	0	395	0	0			0	0			1				0	
6.6.1	win	2023-06-27	16:28:23	16:34:16	349074	5862a405d22a5800014c4c27	3	1	main_slash	7	main_slash	151	stimuli_distractor_trianglediamonds.svg	stimuli_target_rectangletriangles.svg	9	yes	53	1	695	0	0			0	0			1				0	
6.6.1	win	2023-06-27	16:28:23	16:34:16	349074	5862a405d22a5800014c4c27	3	1	main_slash	7	advance_on_keypress_SLASH	152	stimuli_distractor_trianglediamonds.svg	stimuli_target_rectangletriangles.svg	9	yes	57	0	260	0	0			0	0			1				0	
6.6.1	win	2023-06-27	16:28:23	16:34:18	350402	5862a405d22a5800014c4c27	3	1	main_slash	7	main_slash	153	stimuli_target_squarediamonds.svg	stimuli_distractor_diamondtriangles.svg	8	yes	53	1	439	0	0			0	0			1				0	
6.6.1	win	2023-06-27	16:28:23	16:34:18	350402	5862a405d22a5800014c4c27	3	1	main_slash	7	advance_on_keypress_SLASH	154	stimuli_target_squarediamonds.svg	stimuli_distractor_diamondtriangles.svg	8	yes	57	0	326	0	0			0	0			1				0	
6.6.1	win	2023-06-27	16:28:23	16:34:21	353364	5862a405d22a5800014c4c27	3	1	main_slash	7	main_slash	155	stimuli_distractor_trianglediamonds.svg	stimuli_distractor_trianglediamonds.svg	33	no	0	1	2000	0	0			0	0			1				0	
6.6.1	win	2023-06-27	16:28:23	16:34:21	353364	5862a405d22a5800014c4c27	3	1	main_slash	7	advance_on_keypress_SLASH	156	stimuli_distractor_trianglediamonds.svg	stimuli_distractor_trianglediamonds.svg	33	no	57	0	325	0	0			0	0			1				0	
6.6.1	win	2023-06-27	16:28:23	16:34:22	354908	5862a405d22a5800014c4c27	3	1	main_slash	7	main_slash	157	stimuli_target_rectanglediamonds.svg	stimuli_distractor_trianglediamonds.svg	2	yes	53	1	577	0	0			0	0			1				0	
6.6.1	win	2023-06-27	16:28:23	16:34:22	354908	5862a405d22a5800014c4c27	3	1	main_slash	7	advance_on_keypress_SLASH	158	stimuli_target_rectanglediamonds.svg	stimuli_distractor_trianglediamonds.svg	2	yes	57	0	256	0	0			0	0			1				0	
6.6.1	win	2023-06-27	16:28:23	16:34:24	356275	5862a405d22a5800014c4c27	3	1	main_slash	7	main_slash	159	stimuli_distractor_diamondtriangles.svg	stimuli_target_diamondsquares.svg	32	yes	53	1	476	0	0			0	0			1				0	
6.6.1	win	2023-06-27	16:28:23	16:34:24	356275	5862a405d22a5800014c4c27	3	1	main_slash	7	advance_on_keypress_SLASH	160	stimuli_distractor_diamondtriangles.svg	stimuli_target_diamondsquares.svg	32	yes	57	0	231	0	0			0	0			1				0	
6.6.1	win	2023-06-27	16:28:23	16:34:46	378628	5862a405d22a5800014c4c27	3	1	practice_z	9	practice_z	1	stimuli_distractor_trianglediamonds.svg	stimuli_distractor_trianglediamonds.svg	15	no	44	0	376	0	0			0	0			1				0	
6.6.1	win	2023-06-27	16:28:23	16:34:46	378628	5862a405d22a5800014c4c27	3	1	practice_z	9	advance_on_keypress_ZEE	2	stimuli_distractor_trianglediamonds.svg	stimuli_distractor_trianglediamonds.svg	15	no	57	0	735	0	0			0	0			1				0	
6.6.1	win	2023-06-27	16:28:23	16:34:49	381530	5862a405d22a5800014c4c27	3	1	practice_z	9	practice_z	3	stimuli_target_rectanglediamonds.svg	stimuli_distractor_diamondtriangles.svg	1	yes	44	1	504	0	0			0	0			1				0	
6.6.1	win	2023-06-27	16:28:23	16:34:49	381530	5862a405d22a5800014c4c27	3	1	practice_z	9	advance_on_keypress_ZEE	4	stimuli_target_rectanglediamonds.svg	stimuli_distractor_diamondtriangles.svg	1	yes	57	0	548	0	0			0	0			1				0	
6.6.1	win	2023-06-27	16:28:23	16:34:51	384155	5862a405d22a5800014c4c27	3	1	practice_z	9	practice_z	5	stimuli_distractor_diamondtriangles.svg	stimuli_target_trianglerectangles.svg	9	yes	44	1	426	0	0			0	0			1				0	
6.6.1	win	2023-06-27	16:28:23	16:34:51	384155	5862a405d22a5800014c4c27	3	1	practice_z	9	advance_on_keypress_ZEE	6	stimuli_distractor_diamondtriangles.svg	stimuli_target_trianglerectangles.svg	9	yes	57	0	320	0	0			0	0			1				0	
6.6.1	win	2023-06-27	16:28:23	16:34:54	386460	5862a405d22a5800014c4c27	3	1	practice_z	9	practice_z	7	stimuli_distractor_trianglediamonds.svg	stimuli_target_squarediamonds.svg	11	yes	44	1	347	0	0			0	0			1				0	
6.6.1	win	2023-06-27	16:28:23	16:34:54	386460	5862a405d22a5800014c4c27	3	1	practice_z	9	advance_on_keypress_ZEE	8	stimuli_distractor_trianglediamonds.svg	stimuli_target_squarediamonds.svg	11	yes	57	0	444	0	0			0	0			1				0	
6.6.1	win	2023-06-27	16:28:23	16:34:56	389068	5862a405d22a5800014c4c27	3	1	practice_z	9	practice_z	9	stimuli_distractor_diamondtriangles.svg	stimuli_target_rectangletriangles.svg	7	yes	44	1	519	0	0			0	0			1				0	
6.6.1	win	2023-06-27	16:28:23	16:34:56	389068	5862a405d22a5800014c4c27	3	1	practice_z	9	advance_on_keypress_ZEE	10	stimuli_distractor_diamondtriangles.svg	stimuli_target_rectangletriangles.svg	7	yes	57	0	594	0	0			0	0			1				0	
6.6.1	win	2023-06-27	16:28:23	16:34:59	391795	5862a405d22a5800014c4c27	3	1	practice_z	9	practice_z	11	stimuli_distractor_diamondtriangles.svg	stimuli_distractor_trianglediamonds.svg	14	no	44	0	496	0	0			0	0			1				0	
6.6.1	win	2023-06-27	16:28:23	16:34:59	391795	5862a405d22a5800014c4c27	3	1	practice_z	9	advance_on_keypress_ZEE	12	stimuli_distractor_diamondtriangles.svg	stimuli_distractor_trianglediamonds.svg	14	no	57	0	459	0	0			0	0			1				0	
6.6.1	win	2023-06-27	16:28:23	16:35:02	394317	5862a405d22a5800014c4c27	3	1	practice_z	9	practice_z	13	stimuli_distractor_trianglediamonds.svg	stimuli_target_diamondrectangles.svg	12	yes	44	1	433	0	0			0	0			1				0	
6.6.1	win	2023-06-27	16:28:23	16:35:02	394317	5862a405d22a5800014c4c27	3	1	practice_z	9	advance_on_keypress_ZEE	14	stimuli_distractor_trianglediamonds.svg	stimuli_target_diamondrectangles.svg	12	yes	57	0	822	0	0			0	0			1				0	
6.6.1	win	2023-06-27	16:28:23	16:35:05	397326	5862a405d22a5800014c4c27	3	1	practice_z	9	practice_z	15	stimuli_target_rectanglediamonds.svg	stimuli_distractor_trianglediamonds.svg	4	yes	44	1	541	0	0			0	0			1				0	
6.6.1	win	2023-06-27	16:28:23	16:35:05	397326	5862a405d22a5800014c4c27	3	1	practice_z	9	advance_on_keypress_ZEE	16	stimuli_target_rectanglediamonds.svg	stimuli_distractor_trianglediamonds.svg	4	yes	57	0	403	0	0			0	0			1				0	
6.6.1	win	2023-06-27	16:28:23	16:35:09	401370	5862a405d22a5800014c4c27	3	1	practice_z	9	practice_z	17	stimuli_distractor_trianglediamonds.svg	stimuli_distractor_diamondtriangles.svg	16	no	0	1	2000	0	0			0	0			1				0	
6.6.1	win	2023-06-27	16:28:23	16:35:09	401370	5862a405d22a5800014c4c27	3	1	practice_z	9	advance_on_keypress_ZEE	18	stimuli_distractor_trianglediamonds.svg	stimuli_distractor_diamondtriangles.svg	16	no	57	0	258	0	0			0	0			1				0	
6.6.1	win	2023-06-27	16:28:23	16:35:11	403726	5862a405d22a5800014c4c27	3	1	practice_z	9	practice_z	19	stimuli_distractor_diamondtriangles.svg	stimuli_target_diamondrectangles.svg	8	yes	44	1	455	0	0			0	0			1				0	
6.6.1	win	2023-06-27	16:28:23	16:35:11	403726	5862a405d22a5800014c4c27	3	1	practice_z	9	advance_on_keypress_ZEE	20	stimuli_distractor_diamondtriangles.svg	stimuli_target_diamondrectangles.svg	8	yes	57	0	330	0	0			0	0			1				0	
6.6.1	win	2023-06-27	16:28:23	16:35:13	406156	5862a405d22a5800014c4c27	3	1	practice_z	9	practice_z	21	stimuli_target_diamondsquares.svg	stimuli_distractor_trianglediamonds.svg	6	yes	44	1	449	0	0			0	0			1				0	
6.6.1	win	2023-06-27	16:28:23	16:35:13	406156	5862a405d22a5800014c4c27	3	1	practice_z	9	advance_on_keypress_ZEE	22	stimuli_target_diamondsquares.svg	stimuli_distractor_trianglediamonds.svg	6	yes	57	0	399	0	0			0	0			1				0	
6.6.1	win	2023-06-27	16:28:23	16:35:18	410207	5862a405d22a5800014c4c27	3	1	practice_z	9	practice_z	23	stimuli_distractor_diamondtriangles.svg	stimuli_distractor_diamondtriangles.svg	13	no	0	1	2000	0	0			0	0			1				0	
6.6.1	win	2023-06-27	16:28:23	16:35:18	410207	5862a405d22a5800014c4c27	3	1	practice_z	9	advance_on_keypress_ZEE	24	stimuli_distractor_diamondtriangles.svg	stimuli_distractor_diamondtriangles.svg	13	no	57	0	250	0	0			0	0			1				0	
6.6.1	win	2023-06-27	16:28:23	16:35:20	412644	5862a405d22a5800014c4c27	3	1	practice_z	9	practice_z	25	stimuli_target_squarediamonds.svg	stimuli_distractor_diamondtriangles.svg	2	yes	44	1	535	0	0			0	0			1				0	
6.6.1	win	2023-06-27	16:28:23	16:35:20	412644	5862a405d22a5800014c4c27	3	1	practice_z	9	advance_on_keypress_ZEE	26	stimuli_target_squarediamonds.svg	stimuli_distractor_diamondtriangles.svg	2	yes	57	0	296	0	0			0	0			1				0	
6.6.1	win	2023-06-27	16:28:23	16:35:22	415165	5862a405d22a5800014c4c27	3	1	practice_z	9	practice_z	27	stimuli_target_squarediamonds.svg	stimuli_distractor_trianglediamonds.svg	5	yes	44	1	589	0	0			0	0			1				0	
6.6.1	win	2023-06-27	16:28:23	16:35:22	415165	5862a405d22a5800014c4c27	3	1	practice_z	9	advance_on_keypress_ZEE	28	stimuli_target_squarediamonds.svg	stimuli_distractor_trianglediamonds.svg	5	yes	57	0	410	0	0			0	0			1				0	
6.6.1	win	2023-06-27	16:28:23	16:35:25	417703	5862a405d22a5800014c4c27	3	1	practice_z	9	practice_z	29	stimuli_distractor_trianglediamonds.svg	stimuli_target_rectanglediamonds.svg	10	yes	44	1	489	0	0			0	0			1				0	
6.6.1	win	2023-06-27	16:28:23	16:35:25	417703	5862a405d22a5800014c4c27	3	1	practice_z	9	advance_on_keypress_ZEE	30	stimuli_distractor_trianglediamonds.svg	stimuli_target_rectanglediamonds.svg	10	yes	57	0	580	0	0			0	0			1				0	
6.6.1	win	2023-06-27	16:28:23	16:35:28	420317	5862a405d22a5800014c4c27	3	1	practice_z	9	practice_z	31	stimuli_target_diamondsquares.svg	stimuli_distractor_diamondtriangles.svg	3	yes	44	1	404	0	0			0	0			1				0	
6.6.1	win	2023-06-27	16:28:23	16:35:28	420317	5862a405d22a5800014c4c27	3	1	practice_z	9	advance_on_keypress_ZEE	32	stimuli_target_diamondsquares.svg	stimuli_distractor_diamondtriangles.svg	3	yes	57	0	433	0	0			0	0			1				0	
6.6.1	win	2023-06-27	16:28:23	16:35:34	426293	5862a405d22a5800014c4c27	3	1	main_z	11	main_z	1	stimuli_distractor_diamondtriangles.svg	stimuli_target_diamondsquares.svg	32	yes	44	1	596	0	0			0	0			1				0	
6.6.1	win	2023-06-27	16:28:23	16:35:34	426293	5862a405d22a5800014c4c27	3	1	main_z	11	advance_on_keypress_ZEE	2	stimuli_distractor_diamondtriangles.svg	stimuli_target_diamondsquares.svg	32	yes	57	0	1568	0	0			0	0			1				0	
6.6.1	win	2023-06-27	16:28:23	16:35:36	428971	5862a405d22a5800014c4c27	3	1	main_z	11	main_z	3	stimuli_target_diamondrectangles.svg	stimuli_distractor_diamondtriangles.svg	23	yes	44	1	471	0	0			0	0			1				0	
6.6.1	win	2023-06-27	16:28:23	16:35:36	428971	5862a405d22a5800014c4c27	3	1	main_z	11	advance_on_keypress_ZEE	4	stimuli_target_diamondrectangles.svg	stimuli_distractor_diamondtriangles.svg	23	yes	57	0	212	0	0			0	0			1				0	
6.6.1	win	2023-06-27	16:28:23	16:35:39	431816	5862a405d22a5800014c4c27	3	1	main_z	11	main_z	5	stimuli_distractor_diamondtriangles.svg	stimuli_distractor_trianglediamonds.svg	37	no	0	1	2000	0	0			0	0			1				0	
6.6.1	win	2023-06-27	16:28:23	16:35:39	431816	5862a405d22a5800014c4c27	3	1	main_z	11	advance_on_keypress_ZEE	6	stimuli_distractor_diamondtriangles.svg	stimuli_distractor_trianglediamonds.svg	37	no	57	0	258	0	0			0	0			1				0	
6.6.1	win	2023-06-27	16:28:23	16:35:40	433059	5862a405d22a5800014c4c27	3	1	main_z	11	main_z	7	stimuli_target_rectanglediamonds.svg	stimuli_distractor_diamondtriangles.svg	6	yes	44	1	342	0	0			0	0			1				0	
6.6.1	win	2023-06-27	16:28:23	16:35:40	433059	5862a405d22a5800014c4c27	3	1	main_z	11	advance_on_keypress_ZEE	8	stimuli_target_rectanglediamonds.svg	stimuli_distractor_diamondtriangles.svg	6	yes	57	0	240	0	0			0	0			1				0	
6.6.1	win	2023-06-27	16:28:23	16:35:43	435935	5862a405d22a5800014c4c27	3	1	main_z	11	main_z	9	stimuli_distractor_diamondtriangles.svg	stimuli_distractor_diamondtriangles.svg	39	no	0	1	2000	0	0			0	0			1				0	
6.6.1	win	2023-06-27	16:28:23	16:35:43	435935	5862a405d22a5800014c4c27	3	1	main_z	11	advance_on_keypress_ZEE	10	stimuli_distractor_diamondtriangles.svg	stimuli_distractor_diamondtriangles.svg	39	no	57	0	258	0	0			0	0			1				0	
6.6.1	win	2023-06-27	16:28:23	16:35:45	437234	5862a405d22a5800014c4c27	3	1	main_z	11	main_z	11	stimuli_target_rectangletriangles.svg	stimuli_distractor_trianglediamonds.svg	1	yes	44	1	398	0	0			0	0			1				0	
6.6.1	win	2023-06-27	16:28:23	16:35:45	437234	5862a405d22a5800014c4c27	3	1	main_z	11	advance_on_keypress_ZEE	12	stimuli_target_rectangletriangles.svg	stimuli_distractor_trianglediamonds.svg	1	yes	57	0	263	0	0			0	0			1				0	
6.6.1	win	2023-06-27	16:28:23	16:35:46	438666	5862a405d22a5800014c4c27	3	1	main_z	11	main_z	13	stimuli_distractor_diamondtriangles.svg	stimuli_target_trianglerectangles.svg	29	yes	44	1	530	0	0			0	0			1				0	
6.6.1	win	2023-06-27	16:28:23	16:35:46	438666	5862a405d22a5800014c4c27	3	1	main_z	11	advance_on_keypress_ZEE	14	stimuli_distractor_diamondtriangles.svg	stimuli_target_trianglerectangles.svg	29	yes	57	0	132	0	0			0	0			1				0	
6.6.1	win	2023-06-27	16:28:23	16:35:47	440005	5862a405d22a5800014c4c27	3	1	main_z	11	main_z	15	stimuli_distractor_trianglediamonds.svg	stimuli_target_squaretriangles.svg	11	yes	44	1	567	0	0			0	0			1				0	
6.6.1	win	2023-06-27	16:28:23	16:35:47	440005	5862a405d22a5800014c4c27	3	1	main_z	11	advance_on_keypress_ZEE	16	stimuli_distractor_trianglediamonds.svg	stimuli_target_squaretriangles.svg	11	yes	57	0	157	0	0			0	0			1				0	
6.6.1	win	2023-06-27	16:28:23	16:35:49	441339	5862a405d22a5800014c4c27	3	1	main_z	11	main_z	17	stimuli_distractor_trianglediamonds.svg	stimuli_target_diamondsquares.svg	28	yes	44	1	534	0	0			0	0			1				0	
6.6.1	win	2023-06-27	16:28:23	16:35:49	441339	5862a405d22a5800014c4c27	3	1	main_z	11	advance_on_keypress_ZEE	18	stimuli_distractor_trianglediamonds.svg	stimuli_target_diamondsquares.svg	28	yes	57	0	105	0	0			0	0			1				0	
6.6.1	win	2023-06-27	16:28:23	16:35:50	442554	5862a405d22a5800014c4c27	3	1	main_z	11	main_z	19	stimuli_target_trianglerectangles.svg	stimuli_distractor_diamondtriangles.svg	21	yes	44	1	466	0	0			0	0			1				0	
6.6.1	win	2023-06-27	16:28:23	16:35:50	442554	5862a405d22a5800014c4c27	3	1	main_z	11	advance_on_keypress_ZEE	20	stimuli_target_trianglerectangles.svg	stimuli_distractor_diamondtriangles.svg	21	yes	57	0	95	0	0			0	0			1				0	
6.6.1	win	2023-06-27	16:28:23	16:35:51	443674	5862a405d22a5800014c4c27	3	1	main_z	11	main_z	21	stimuli_target_squarediamonds.svg	stimuli_distractor_diamondtriangles.svg	8	yes	44	1	378	0	0			0	0			1				0	
6.6.1	win	2023-06-27	16:28:23	16:35:51	443674	5862a405d22a5800014c4c27	3	1	main_z	11	advance_on_keypress_ZEE	22	stimuli_target_squarediamonds.svg	stimuli_distractor_diamondtriangles.svg	8	yes	57	0	73	0	0			0	0			1				0	
6.6.1	win	2023-06-27	16:28:23	16:35:54	446389	5862a405d22a5800014c4c27	3	1	main_z	11	main_z	23	stimuli_distractor_trianglediamonds.svg	stimuli_distractor_trianglediamonds.svg	34	no	0	1	2000	0	0			0	0			1				0	
6.6.1	win	2023-06-27	16:28:23	16:35:54	446389	5862a405d22a5800014c4c27	3	1	main_z	11	advance_on_keypress_ZEE	24	stimuli_distractor_trianglediamonds.svg	stimuli_distractor_trianglediamonds.svg	34	no	57	0	308	0	0			0	0			1				0	
6.6.1	win	2023-06-27	16:28:23	16:35:55	447659	5862a405d22a5800014c4c27	3	1	main_z	11	main_z	25	stimuli_distractor_trianglediamonds.svg	stimuli_distractor_diamondtriangles.svg	35	no	44	0	317	0	0			0	0			1				0	
6.6.1	win	2023-06-27	16:28:23	16:35:55	447659	5862a405d22a5800014c4c27	3	1	main_z	11	advance_on_keypress_ZEE	26	stimuli_distractor_trianglediamonds.svg	stimuli_distractor_diamondtriangles.svg	35	no	57	0	97	0	0			0	0			1				0	
6.6.1	win	2023-06-27	16:28:23	16:35:56	449162	5862a405d22a5800014c4c27	3	1	main_z	11	main_z	27	stimuli_distractor_diamondtriangles.svg	stimuli_target_squarediamonds.svg	16	yes	44	1	771	0	0			0	0			1				0	
6.6.1	win	2023-06-27	16:28:23	16:35:56	449162	5862a405d22a5800014c4c27	3	1	main_z	11	advance_on_keypress_ZEE	28	stimuli_distractor_diamondtriangles.svg	stimuli_target_squarediamonds.svg	16	yes	57	0	123	0	0			0	0			1				0	
6.6.1	win	2023-06-27	16:28:23	16:35:58	450499	5862a405d22a5800014c4c27	3	1	main_z	11	main_z	29	stimuli_target_rectangletriangles.svg	stimuli_distractor_diamondtriangles.svg	5	yes	44	1	574	0	0			0	0			1				0	
6.6.1	win	2023-06-27	16:28:23	16:35:58	450499	5862a405d22a5800014c4c27	3	1	main_z	11	advance_on_keypress_ZEE	30	stimuli_target_rectangletriangles.svg	stimuli_distractor_diamondtriangles.svg	5	yes	57	0	94	0	0			0	0			1				0	
6.6.1	win	2023-06-27	16:28:23	16:35:59	451795	5862a405d22a5800014c4c27	3	1	main_z	11	main_z	31	stimuli_distractor_trianglediamonds.svg	stimuli_target_diamondrectangles.svg	27	yes	44	1	569	0	0			0	0			1				0	
6.6.1	win	2023-06-27	16:28:23	16:35:59	451795	5862a405d22a5800014c4c27	3	1	main_z	11	advance_on_keypress_ZEE	32	stimuli_distractor_trianglediamonds.svg	stimuli_target_diamondrectangles.svg	27	yes	57	0	136	0	0			0	0			1				0	
6.6.1	win	2023-06-27	16:28:23	16:36:00	453035	5862a405d22a5800014c4c27	3	1	main_z	11	main_z	33	stimuli_distractor_diamondtriangles.svg	stimuli_target_rectangletriangles.svg	13	yes	44	1	459	0	0			0	0			1				0	
6.6.1	win	2023-06-27	16:28:23	16:36:00	453035	5862a405d22a5800014c4c27	3	1	main_z	11	advance_on_keypress_ZEE	34	stimuli_distractor_diamondtriangles.svg	stimuli_target_rectangletriangles.svg	13	yes	57	0	95	0	0			0	0			1				0	
6.6.1	win	2023-06-27	16:28:23	16:36:02	454378	5862a405d22a5800014c4c27	3	1	main_z	11	main_z	35	stimuli_target_trianglesquares.svg	stimuli_distractor_trianglediamonds.svg	18	yes	44	1	618	0	0			0	0			1				0	
6.6.1	win	2023-06-27	16:28:23	16:36:02	454378	5862a405d22a5800014c4c27	3	1	main_z	11	advance_on_keypress_ZEE	36	stimuli_target_trianglesquares.svg	stimuli_distractor_trianglediamonds.svg	18	yes	57	0	97	0	0			0	0			1				0	
6.6.1	win	2023-06-27	16:28:23	16:36:03	455599	5862a405d22a5800014c4c27	3	1	main_z	11	main_z	37	stimuli_target_trianglesquares.svg	stimuli_distractor_diamondtriangles.svg	22	yes	44	1	475	0	0			0	0			1				0	
6.6.1	win	2023-06-27	16:28:23	16:36:03	455599	5862a405d22a5800014c4c27	3	1	main_z	11	advance_on_keypress_ZEE	38	stimuli_target_trianglesquares.svg	stimuli_distractor_diamondtriangles.svg	22	yes	57	0	87	0	0			0	0			1				0	
6.6.1	win	2023-06-27	16:28:23	16:36:04	457074	5862a405d22a5800014c4c27	3	1	main_z	11	main_z	39	stimuli_target_diamondsquares.svg	stimuli_distractor_trianglediamonds.svg	20	yes	44	1	729	0	0			0	0			1				0	
6.6.1	win	2023-06-27	16:28:23	16:36:04	457074	5862a405d22a5800014c4c27	3	1	main_z	11	advance_on_keypress_ZEE	40	stimuli_target_diamondsquares.svg	stimuli_distractor_trianglediamonds.svg	20	yes	57	0	107	0	0			0	0			1				0	
6.6.1	win	2023-06-27	16:28:23	16:36:07	459812	5862a405d22a5800014c4c27	3	1	main_z	11	main_z	41	stimuli_distractor_trianglediamonds.svg	stimuli_distractor_diamondtriangles.svg	36	no	0	1	2000	0	0			0	0			1				0	
6.6.1	win	2023-06-27	16:28:23	16:36:07	459812	5862a405d22a5800014c4c27	3	1	main_z	11	advance_on_keypress_ZEE	42	stimuli_distractor_trianglediamonds.svg	stimuli_distractor_diamondtriangles.svg	36	no	57	0	334	0	0			0	0			1				0	
6.6.1	win	2023-06-27	16:28:23	16:36:09	461243	5862a405d22a5800014c4c27	3	1	main_z	11	main_z	43	stimuli_distractor_diamondtriangles.svg	stimuli_distractor_trianglediamonds.svg	38	no	44	0	446	0	0			0	0			1				0	
6.6.1	win	2023-06-27	16:28:23	16:36:09	461243	5862a405d22a5800014c4c27	3	1	main_z	11	advance_on_keypress_ZEE	44	stimuli_distractor_diamondtriangles.svg	stimuli_distractor_trianglediamonds.svg	38	no	57	0	292	0	0			0	0			1				0	
6.6.1	win	2023-06-27	16:28:23	16:36:10	462755	5862a405d22a5800014c4c27	3	1	main_z	11	main_z	45	stimuli_target_trianglerectangles.svg	stimuli_distractor_trianglediamonds.svg	17	yes	44	1	591	0	0			0	0			1				0	
6.6.1	win	2023-06-27	16:28:23	16:36:10	462755	5862a405d22a5800014c4c27	3	1	main_z	11	advance_on_keypress_ZEE	46	stimuli_target_trianglerectangles.svg	stimuli_distractor_trianglediamonds.svg	17	yes	57	0	109	0	0			0	0			1				0	
6.6.1	win	2023-06-27	16:28:23	16:36:11	464034	5862a405d22a5800014c4c27	3	1	main_z	11	main_z	47	stimuli_target_squaretriangles.svg	stimuli_distractor_trianglediamonds.svg	3	yes	44	1	536	0	0			0	0			1				0	
6.6.1	win	2023-06-27	16:28:23	16:36:11	464034	5862a405d22a5800014c4c27	3	1	main_z	11	advance_on_keypress_ZEE	48	stimuli_target_squaretriangles.svg	stimuli_distractor_trianglediamonds.svg	3	yes	57	0	106	0	0			0	0			1				0	
6.6.1	win	2023-06-27	16:28:23	16:36:14	466782	5862a405d22a5800014c4c27	3	1	main_z	11	main_z	49	stimuli_distractor_diamondtriangles.svg	stimuli_distractor_diamondtriangles.svg	40	no	0	1	2000	0	0			0	0			1				0	
6.6.1	win	2023-06-27	16:28:23	16:36:14	466782	5862a405d22a5800014c4c27	3	1	main_z	11	advance_on_keypress_ZEE	50	stimuli_distractor_diamondtriangles.svg	stimuli_distractor_diamondtriangles.svg	40	no	57	0	290	0	0			0	0			1				0	
6.6.1	win	2023-06-27	16:28:23	16:36:15	468156	5862a405d22a5800014c4c27	3	1	main_z	11	main_z	51	stimuli_distractor_trianglediamonds.svg	stimuli_target_squarediamonds.svg	12	yes	44	1	439	0	0			0	0			1				0	
6.6.1	win	2023-06-27	16:28:23	16:36:15	468156	5862a405d22a5800014c4c27	3	1	main_z	11	advance_on_keypress_ZEE	52	stimuli_distractor_trianglediamonds.svg	stimuli_target_squarediamonds.svg	12	yes	57	0	78	0	0			0	0			1				0	
6.6.1	win	2023-06-27	16:28:23	16:36:17	469410	5862a405d22a5800014c4c27	3	1	main_z	11	main_z	53	stimuli_distractor_diamondtriangles.svg	stimuli_target_trianglesquares.svg	30	yes	44	1	543	0	0			0	0			1				0	
6.6.1	win	2023-06-27	16:28:23	16:36:17	469410	5862a405d22a5800014c4c27	3	1	main_z	11	advance_on_keypress_ZEE	54	stimuli_distractor_diamondtriangles.svg	stimuli_target_trianglesquares.svg	30	yes	57	0	104	0	0			0	0			1				0	
6.6.1	win	2023-06-27	16:28:23	16:36:18	470670	5862a405d22a5800014c4c27	3	1	main_z	11	main_z	55	stimuli_distractor_trianglediamonds.svg	stimuli_target_rectanglediamonds.svg	10	yes	44	1	507	0	0			0	0			1				0	
6.6.1	win	2023-06-27	16:28:23	16:36:18	470670	5862a405d22a5800014c4c27	3	1	main_z	11	advance_on_keypress_ZEE	56	stimuli_distractor_trianglediamonds.svg	stimuli_target_rectanglediamonds.svg	10	yes	57	0	101	0	0			0	0			1				0	
6.6.1	win	2023-06-27	16:28:23	16:36:19	471997	5862a405d22a5800014c4c27	3	1	main_z	11	main_z	57	stimuli_distractor_trianglediamonds.svg	stimuli_target_rectangletriangles.svg	9	yes	44	1	579	0	0			0	0			1				0	
6.6.1	win	2023-06-27	16:28:23	16:36:19	471997	5862a405d22a5800014c4c27	3	1	main_z	11	advance_on_keypress_ZEE	58	stimuli_distractor_trianglediamonds.svg	stimuli_target_rectangletriangles.svg	9	yes	57	0	112	0	0			0	0			1				0	
6.6.1	win	2023-06-27	16:28:23	16:36:21	473322	5862a405d22a5800014c4c27	3	1	main_z	11	main_z	59	stimuli_distractor_diamondtriangles.svg	stimuli_target_squaretriangles.svg	15	yes	44	1	586	0	0			0	0			1				0	
6.6.1	win	2023-06-27	16:28:23	16:36:21	473322	5862a405d22a5800014c4c27	3	1	main_z	11	advance_on_keypress_ZEE	60	stimuli_distractor_diamondtriangles.svg	stimuli_target_squaretriangles.svg	15	yes	57	0	107	0	0			0	0			1				0	
6.6.1	win	2023-06-27	16:28:23	16:36:22	474642	5862a405d22a5800014c4c27	3	1	main_z	11	main_z	61	stimuli_distractor_diamondtriangles.svg	stimuli_target_diamondrectangles.svg	31	yes	44	1	572	0	0			0	0			1				0	
6.6.1	win	2023-06-27	16:28:23	16:36:22	474642	5862a405d22a5800014c4c27	3	1	main_z	11	advance_on_keypress_ZEE	62	stimuli_distractor_diamondtriangles.svg	stimuli_target_diamondrectangles.svg	31	yes	57	0	110	0	0			0	0			1				0	
6.6.1	win	2023-06-27	16:28:23	16:36:24	476251	5862a405d22a5800014c4c27	3	1	main_z	11	main_z	63	stimuli_target_diamondrectangles.svg	stimuli_distractor_trianglediamonds.svg	19	yes	44	1	864	0	0			0	0			1				0	
6.6.1	win	2023-06-27	16:28:23	16:36:24	476251	5862a405d22a5800014c4c27	3	1	main_z	11	advance_on_keypress_ZEE	64	stimuli_target_diamondrectangles.svg	stimuli_distractor_trianglediamonds.svg	19	yes	57	0	124	0	0			0	0			1				0	
6.6.1	win	2023-06-27	16:28:23	16:36:25	477610	5862a405d22a5800014c4c27	3	1	main_z	11	main_z	65	stimuli_target_squarediamonds.svg	stimuli_distractor_trianglediamonds.svg	4	yes	44	1	589	0	0			0	0			1				0	
6.6.1	win	2023-06-27	16:28:23	16:36:25	477610	5862a405d22a5800014c4c27	3	1	main_z	11	advance_on_keypress_ZEE	66	stimuli_target_squarediamonds.svg	stimuli_distractor_trianglediamonds.svg	4	yes	57	0	119	0	0			0	0			1				0	
6.6.1	win	2023-06-27	16:28:23	16:36:26	478924	5862a405d22a5800014c4c27	3	1	main_z	11	main_z	67	stimuli_distractor_trianglediamonds.svg	stimuli_target_trianglerectangles.svg	25	yes	44	1	552	0	0			0	0			1				0	
6.6.1	win	2023-06-27	16:28:23	16:36:26	478924	5862a405d22a5800014c4c27	3	1	main_z	11	advance_on_keypress_ZEE	68	stimuli_distractor_trianglediamonds.svg	stimuli_target_trianglerectangles.svg	25	yes	57	0	103	0	0			0	0			1				0	
6.6.1	win	2023-06-27	16:28:23	16:36:28	480243	5862a405d22a5800014c4c27	3	1	main_z	11	main_z	69	stimuli_target_rectanglediamonds.svg	stimuli_distractor_trianglediamonds.svg	2	yes	44	1	571	0	0			0	0			1				0	
6.6.1	win	2023-06-27	16:28:23	16:36:28	480243	5862a405d22a5800014c4c27	3	1	main_z	11	advance_on_keypress_ZEE	70	stimuli_target_rectanglediamonds.svg	stimuli_distractor_trianglediamonds.svg	2	yes	57	0	123	0	0			0	0			1				0	
6.6.1	win	2023-06-27	16:28:23	16:36:29	481586	5862a405d22a5800014c4c27	3	1	main_z	11	main_z	71	stimuli_distractor_diamondtriangles.svg	stimuli_target_rectanglediamonds.svg	14	yes	44	1	580	0	0			0	0			1				0	
6.6.1	win	2023-06-27	16:28:23	16:36:29	481586	5862a405d22a5800014c4c27	3	1	main_z	11	advance_on_keypress_ZEE	72	stimuli_distractor_diamondtriangles.svg	stimuli_target_rectanglediamonds.svg	14	yes	57	0	118	0	0			0	0			1				0	
6.6.1	win	2023-06-27	16:28:23	16:36:32	484340	5862a405d22a5800014c4c27	3	1	main_z	11	main_z	73	stimuli_target_squaretriangles.svg	stimuli_distractor_diamondtriangles.svg	7	yes	0	0	2000	0	0			0	0			1				0	
6.6.1	win	2023-06-27	16:28:23	16:36:32	484340	5862a405d22a5800014c4c27	3	1	main_z	11	advance_on_keypress_ZEE	74	stimuli_target_squaretriangles.svg	stimuli_distractor_diamondtriangles.svg	7	yes	57	0	341	0	0			0	0			1				0	
6.6.1	win	2023-06-27	16:28:23	16:36:33	485756	5862a405d22a5800014c4c27	3	1	main_z	11	main_z	75	stimuli_target_diamondsquares.svg	stimuli_distractor_diamondtriangles.svg	24	yes	44	1	431	0	0			0	0			1				0	
6.6.1	win	2023-06-27	16:28:23	16:36:33	485756	5862a405d22a5800014c4c27	3	1	main_z	11	advance_on_keypress_ZEE	76	stimuli_target_diamondsquares.svg	stimuli_distractor_diamondtriangles.svg	24	yes	57	0	91	0	0			0	0			1				0	
6.6.1	win	2023-06-27	16:28:23	16:36:36	488492	5862a405d22a5800014c4c27	3	1	main_z	11	main_z	77	stimuli_distractor_trianglediamonds.svg	stimuli_distractor_trianglediamonds.svg	33	no	0	1	2000	0	0			0	0			1				0	
6.6.1	win	2023-06-27	16:28:23	16:36:36	488492	5862a405d22a5800014c4c27	3	1	main_z	11	advance_on_keypress_ZEE	78	stimuli_distractor_trianglediamonds.svg	stimuli_distractor_trianglediamonds.svg	33	no	57	0	317	0	0			0	0			1				0	
6.6.1	win	2023-06-27	16:28:23	16:36:37	489747	5862a405d22a5800014c4c27	3	1	main_z	11	main_z	79	stimuli_distractor_trianglediamonds.svg	stimuli_target_trianglesquares.svg	26	yes	44	1	287	0	0			0	0			1				0	
6.6.1	win	2023-06-27	16:28:23	16:36:37	489747	5862a405d22a5800014c4c27	3	1	main_z	11	advance_on_keypress_ZEE	80	stimuli_distractor_trianglediamonds.svg	stimuli_target_trianglesquares.svg	26	yes	57	0	90	0	0			0	0			1				0	
6.6.1	win	2023-06-27	16:28:23	16:36:38	491002	5862a405d22a5800014c4c27	3	1	main_z	11	main_z	81	stimuli_target_trianglesquares.svg	stimuli_distractor_trianglediamonds.svg	18	yes	44	1	525	0	0			0	0			1				0	
6.6.1	win	2023-06-27	16:28:23	16:36:38	491002	5862a405d22a5800014c4c27	3	1	main_z	11	advance_on_keypress_ZEE	82	stimuli_target_trianglesquares.svg	stimuli_distractor_trianglediamonds.svg	18	yes	57	0	112	0	0			0	0			1				0	
6.6.1	win	2023-06-27	16:28:23	16:36:40	492194	5862a405d22a5800014c4c27	3	1	main_z	11	main_z	83	stimuli_target_trianglerectangles.svg	stimuli_distractor_trianglediamonds.svg	17	yes	44	1	450	0	0			0	0			1				0	
6.6.1	win	2023-06-27	16:28:23	16:36:40	492194	5862a405d22a5800014c4c27	3	1	main_z	11	advance_on_keypress_ZEE	84	stimuli_target_trianglerectangles.svg	stimuli_distractor_trianglediamonds.svg	17	yes	57	0	95	0	0			0	0			1				0	
6.6.1	win	2023-06-27	16:28:23	16:36:41	493565	5862a405d22a5800014c4c27	3	1	main_z	11	main_z	85	stimuli_target_rectanglediamonds.svg	stimuli_distractor_trianglediamonds.svg	2	yes	44	1	637	0	0			0	0			1				0	
6.6.1	win	2023-06-27	16:28:23	16:36:41	493565	5862a405d22a5800014c4c27	3	1	main_z	11	advance_on_keypress_ZEE	86	stimuli_target_rectanglediamonds.svg	stimuli_distractor_trianglediamonds.svg	2	yes	57	0	80	0	0			0	0			1				0	
6.6.1	win	2023-06-27	16:28:23	16:36:44	496283	5862a405d22a5800014c4c27	3	1	main_z	11	main_z	87	stimuli_distractor_diamondtriangles.svg	stimuli_distractor_diamondtriangles.svg	39	no	0	1	2000	0	0			0	0			1				0	
6.6.1	win	2023-06-27	16:28:23	16:36:44	496283	5862a405d22a5800014c4c27	3	1	main_z	11	advance_on_keypress_ZEE	88	stimuli_distractor_diamondtriangles.svg	stimuli_distractor_diamondtriangles.svg	39	no	57	0	362	0	0			0	0			1				0	
6.6.1	win	2023-06-27	16:28:23	16:36:47	499280	5862a405d22a5800014c4c27	3	1	main_z	11	main_z	89	stimuli_distractor_diamondtriangles.svg	stimuli_distractor_diamondtriangles.svg	40	no	0	1	2000	0	0			0	0			1				0	
6.6.1	win	2023-06-27	16:28:23	16:36:47	499280	5862a405d22a5800014c4c27	3	1	main_z	11	advance_on_keypress_ZEE	90	stimuli_distractor_diamondtriangles.svg	stimuli_distractor_diamondtriangles.svg	40	no	57	0	282	0	0			0	0			1				0	
6.6.1	win	2023-06-27	16:28:23	16:36:48	500834	5862a405d22a5800014c4c27	3	1	main_z	11	main_z	91	stimuli_target_squaretriangles.svg	stimuli_distractor_trianglediamonds.svg	3	yes	44	1	619	0	0			0	0			1				0	
6.6.1	win	2023-06-27	16:28:23	16:36:48	500834	5862a405d22a5800014c4c27	3	1	main_z	11	advance_on_keypress_ZEE	92	stimuli_target_squaretriangles.svg	stimuli_distractor_trianglediamonds.svg	3	yes	57	0	97	0	0			0	0			1				0	
6.6.1	win	2023-06-27	16:28:23	16:36:49	502084	5862a405d22a5800014c4c27	3	1	main_z	11	main_z	93	stimuli_distractor_trianglediamonds.svg	stimuli_distractor_trianglediamonds.svg	33	no	44	0	504	0	0			0	0			1				0	
6.6.1	win	2023-06-27	16:28:23	16:36:49	502084	5862a405d22a5800014c4c27	3	1	main_z	11	advance_on_keypress_ZEE	94	stimuli_distractor_trianglediamonds.svg	stimuli_distractor_trianglediamonds.svg	33	no	57	0	79	0	0			0	0			1				0	
6.6.1	win	2023-06-27	16:28:23	16:36:52	504800	5862a405d22a5800014c4c27	3	1	main_z	11	main_z	95	stimuli_distractor_trianglediamonds.svg	stimuli_distractor_trianglediamonds.svg	34	no	0	1	2000	0	0			0	0			1				0	
6.6.1	win	2023-06-27	16:28:23	16:36:52	504800	5862a405d22a5800014c4c27	3	1	main_z	11	advance_on_keypress_ZEE	96	stimuli_distractor_trianglediamonds.svg	stimuli_distractor_trianglediamonds.svg	34	no	57	0	402	0	0			0	0			1				0	
6.6.1	win	2023-06-27	16:28:23	16:36:54	506403	5862a405d22a5800014c4c27	3	1	main_z	11	main_z	97	stimuli_distractor_diamondtriangles.svg	stimuli_target_trianglerectangles.svg	29	yes	44	1	552	0	0			0	0			1				0	
6.6.1	win	2023-06-27	16:28:23	16:36:54	506403	5862a405d22a5800014c4c27	3	1	main_z	11	advance_on_keypress_ZEE	98	stimuli_distractor_diamondtriangles.svg	stimuli_target_trianglerectangles.svg	29	yes	57	0	104	0	0			0	0			1				0	
6.6.1	win	2023-06-27	16:28:23	16:36:55	507578	5862a405d22a5800014c4c27	3	1	main_z	11	main_z	99	stimuli_distractor_trianglediamonds.svg	stimuli_target_diamondrectangles.svg	27	yes	44	1	427	0	0			0	0			1				0	
6.6.1	win	2023-06-27	16:28:23	16:36:55	507578	5862a405d22a5800014c4c27	3	1	main_z	11	advance_on_keypress_ZEE	100	stimuli_distractor_trianglediamonds.svg	stimuli_target_diamondrectangles.svg	27	yes	57	0	100	0	0			0	0			1				0	
6.6.1	win	2023-06-27	16:28:23	16:36:56	508755	5862a405d22a5800014c4c27	3	1	main_z	11	main_z	101	stimuli_target_trianglesquares.svg	stimuli_distractor_diamondtriangles.svg	22	yes	44	1	437	0	0			0	0			1				0	
6.6.1	win	2023-06-27	16:28:23	16:36:56	508755	5862a405d22a5800014c4c27	3	1	main_z	11	advance_on_keypress_ZEE	102	stimuli_target_trianglesquares.svg	stimuli_distractor_diamondtriangles.svg	22	yes	57	0	105	0	0			0	0			1				0	
6.6.1	win	2023-06-27	16:28:23	16:36:58	510188	5862a405d22a5800014c4c27	3	1	main_z	11	main_z	103	stimuli_distractor_diamondtriangles.svg	stimuli_target_squaretriangles.svg	15	yes	44	1	686	0	0			0	0			1				0	
6.6.1	win	2023-06-27	16:28:23	16:36:58	510188	5862a405d22a5800014c4c27	3	1	main_z	11	advance_on_keypress_ZEE	104	stimuli_distractor_diamondtriangles.svg	stimuli_target_squaretriangles.svg	15	yes	57	0	74	0	0			0	0			1				0	
6.6.1	win	2023-06-27	16:28:23	16:36:59	511394	5862a405d22a5800014c4c27	3	1	main_z	11	main_z	105	stimuli_distractor_trianglediamonds.svg	stimuli_target_squaretriangles.svg	11	yes	44	1	491	0	0			0	0			1				0	
6.6.1	win	2023-06-27	16:28:23	16:36:59	511394	5862a405d22a5800014c4c27	3	1	main_z	11	advance_on_keypress_ZEE	106	stimuli_distractor_trianglediamonds.svg	stimuli_target_squaretriangles.svg	11	yes	57	0	118	0	0			0	0			1				0	
6.6.1	win	2023-06-27	16:28:23	16:37:00	512564	5862a405d22a5800014c4c27	3	1	main_z	11	main_z	107	stimuli_target_squarediamonds.svg	stimuli_distractor_diamondtriangles.svg	8	yes	44	1	410	0	0			0	0			1				0	
6.6.1	win	2023-06-27	16:28:23	16:37:00	512564	5862a405d22a5800014c4c27	3	1	main_z	11	advance_on_keypress_ZEE	108	stimuli_target_squarediamonds.svg	stimuli_distractor_diamondtriangles.svg	8	yes	57	0	120	0	0			0	0			1				0	
6.6.1	win	2023-06-27	16:28:23	16:37:01	513866	5862a405d22a5800014c4c27	3	1	main_z	11	main_z	109	stimuli_distractor_diamondtriangles.svg	stimuli_target_diamondrectangles.svg	31	yes	44	1	545	0	0			0	0			1				0	
6.6.1	win	2023-06-27	16:28:23	16:37:01	513866	5862a405d22a5800014c4c27	3	1	main_z	11	advance_on_keypress_ZEE	110	stimuli_distractor_diamondtriangles.svg	stimuli_target_diamondrectangles.svg	31	yes	57	0	107	0	0			0	0			1				0	
6.6.1	win	2023-06-27	16:28:23	16:37:02	515135	5862a405d22a5800014c4c27	3	1	main_z	11	main_z	111	stimuli_distractor_trianglediamonds.svg	stimuli_target_squarediamonds.svg	12	yes	44	1	527	0	0			0	0			1				0	
6.6.1	win	2023-06-27	16:28:23	16:37:02	515135	5862a405d22a5800014c4c27	3	1	main_z	11	advance_on_keypress_ZEE	112	stimuli_distractor_trianglediamonds.svg	stimuli_target_squarediamonds.svg	12	yes	57	0	97	0	0			0	0			1				0	
6.6.1	win	2023-06-27	16:28:23	16:37:04	516323	5862a405d22a5800014c4c27	3	1	main_z	11	main_z	113	stimuli_distractor_trianglediamonds.svg	stimuli_target_trianglerectangles.svg	25	yes	44	1	450	0	0			0	0			1				0	
6.6.1	win	2023-06-27	16:28:23	16:37:04	516323	5862a405d22a5800014c4c27	3	1	main_z	11	advance_on_keypress_ZEE	114	stimuli_distractor_trianglediamonds.svg	stimuli_target_trianglerectangles.svg	25	yes	57	0	89	0	0			0	0			1				0	
6.6.1	win	2023-06-27	16:28:23	16:37:05	517441	5862a405d22a5800014c4c27	3	1	main_z	11	main_z	115	stimuli_target_diamondrectangles.svg	stimuli_distractor_diamondtriangles.svg	23	yes	44	1	378	0	0			0	0			1				0	
6.6.1	win	2023-06-27	16:28:23	16:37:05	517441	5862a405d22a5800014c4c27	3	1	main_z	11	advance_on_keypress_ZEE	116	stimuli_target_diamondrectangles.svg	stimuli_distractor_diamondtriangles.svg	23	yes	57	0	90	0	0			0	0			1				0	
6.6.1	win	2023-06-27	16:28:23	16:37:06	519021	5862a405d22a5800014c4c27	3	1	main_z	11	main_z	117	stimuli_distractor_diamondtriangles.svg	stimuli_target_rectangletriangles.svg	13	yes	44	1	847	0	0			0	0			1				0	
6.6.1	win	2023-06-27	16:28:23	16:37:06	519021	5862a405d22a5800014c4c27	3	1	main_z	11	advance_on_keypress_ZEE	118	stimuli_distractor_diamondtriangles.svg	stimuli_target_rectangletriangles.svg	13	yes	57	0	98	0	0			0	0			1				0	
6.6.1	win	2023-06-27	16:28:23	16:37:08	520266	5862a405d22a5800014c4c27	3	1	main_z	11	main_z	119	stimuli_target_rectangletriangles.svg	stimuli_distractor_diamondtriangles.svg	5	yes	44	1	492	0	0			0	0			1				0	
6.6.1	win	2023-06-27	16:28:23	16:37:08	520266	5862a405d22a5800014c4c27	3	1	main_z	11	advance_on_keypress_ZEE	120	stimuli_target_rectangletriangles.svg	stimuli_distractor_diamondtriangles.svg	5	yes	57	0	90	0	0			0	0			1				0	
6.6.1	win	2023-06-27	16:28:23	16:37:10	522991	5862a405d22a5800014c4c27	3	1	main_z	11	main_z	121	stimuli_distractor_trianglediamonds.svg	stimuli_distractor_diamondtriangles.svg	35	no	0	1	2000	0	0			0	0			1				0	
6.6.1	win	2023-06-27	16:28:23	16:37:10	522991	5862a405d22a5800014c4c27	3	1	main_z	11	advance_on_keypress_ZEE	122	stimuli_distractor_trianglediamonds.svg	stimuli_distractor_diamondtriangles.svg	35	no	57	0	379	0	0			0	0			1				0	
6.6.1	win	2023-06-27	16:28:23	16:37:12	524491	5862a405d22a5800014c4c27	3	1	main_z	11	main_z	123	stimuli_target_diamondsquares.svg	stimuli_distractor_trianglediamonds.svg	20	yes	44	1	482	0	0			0	0			1				0	
6.6.1	win	2023-06-27	16:28:23	16:37:12	524491	5862a405d22a5800014c4c27	3	1	main_z	11	advance_on_keypress_ZEE	124	stimuli_target_diamondsquares.svg	stimuli_distractor_trianglediamonds.svg	20	yes	57	0	84	0	0			0	0			1				0	
6.6.1	win	2023-06-27	16:28:23	16:37:13	525674	5862a405d22a5800014c4c27	3	1	main_z	11	main_z	125	stimuli_distractor_trianglediamonds.svg	stimuli_target_trianglesquares.svg	26	yes	44	1	448	0	0			0	0			1				0	
6.6.1	win	2023-06-27	16:28:23	16:37:13	525674	5862a405d22a5800014c4c27	3	1	main_z	11	advance_on_keypress_ZEE	126	stimuli_distractor_trianglediamonds.svg	stimuli_target_trianglesquares.svg	26	yes	57	0	109	0	0			0	0			1				0	
6.6.1	win	2023-06-27	16:28:23	16:37:14	526812	5862a405d22a5800014c4c27	3	1	main_z	11	main_z	127	stimuli_target_rectangletriangles.svg	stimuli_distractor_trianglediamonds.svg	1	yes	44	1	384	0	0			0	0			1				0	
6.6.1	win	2023-06-27	16:28:23	16:37:14	526812	5862a405d22a5800014c4c27	3	1	main_z	11	advance_on_keypress_ZEE	128	stimuli_target_rectangletriangles.svg	stimuli_distractor_trianglediamonds.svg	1	yes	57	0	120	0	0			0	0			1				0	
6.6.1	win	2023-06-27	16:28:23	16:37:15	527966	5862a405d22a5800014c4c27	3	1	main_z	11	main_z	129	stimuli_distractor_diamondtriangles.svg	stimuli_target_rectanglediamonds.svg	14	yes	44	1	385	0	0			0	0			1				0	
6.6.1	win	2023-06-27	16:28:23	16:37:15	527966	5862a405d22a5800014c4c27	3	1	main_z	11	advance_on_keypress_ZEE	130	stimuli_distractor_diamondtriangles.svg	stimuli_target_rectanglediamonds.svg	14	yes	57	0	96	0	0			0	0			1				0	
6.6.1	win	2023-06-27	16:28:23	16:37:16	529130	5862a405d22a5800014c4c27	3	1	main_z	11	main_z	131	stimuli_distractor_trianglediamonds.svg	stimuli_target_rectangletriangles.svg	9	yes	44	1	436	0	0			0	0			1				0	
6.6.1	win	2023-06-27	16:28:23	16:37:16	529130	5862a405d22a5800014c4c27	3	1	main_z	11	advance_on_keypress_ZEE	132	stimuli_distractor_trianglediamonds.svg	stimuli_target_rectangletriangles.svg	9	yes	57	0	105	0	0			0	0			1				0	
6.6.1	win	2023-06-27	16:28:23	16:37:18	530234	5862a405d22a5800014c4c27	3	1	main_z	11	main_z	133	stimuli_distractor_trianglediamonds.svg	stimuli_target_rectanglediamonds.svg	10	yes	44	1	356	0	0			0	0			1				0	
6.6.1	win	2023-06-27	16:28:23	16:37:18	530234	5862a405d22a5800014c4c27	3	1	main_z	11	advance_on_keypress_ZEE	134	stimuli_distractor_trianglediamonds.svg	stimuli_target_rectanglediamonds.svg	10	yes	57	0	102	0	0			0	0			1				0	
6.6.1	win	2023-06-27	16:28:23	16:37:19	531508	5862a405d22a5800014c4c27	3	1	main_z	11	main_z	135	stimuli_target_diamondsquares.svg	stimuli_distractor_diamondtriangles.svg	24	yes	44	1	528	0	0			0	0			1				0	
6.6.1	win	2023-06-27	16:28:23	16:37:19	531508	5862a405d22a5800014c4c27	3	1	main_z	11	advance_on_keypress_ZEE	136	stimuli_target_diamondsquares.svg	stimuli_distractor_diamondtriangles.svg	24	yes	57	0	83	0	0			0	0			1				0	
6.6.1	win	2023-06-27	16:28:23	16:37:20	532652	5862a405d22a5800014c4c27	3	1	main_z	11	main_z	137	stimuli_target_squarediamonds.svg	stimuli_distractor_trianglediamonds.svg	4	yes	44	1	423	0	0			0	0			1				0	
6.6.1	win	2023-06-27	16:28:23	16:37:20	532652	5862a405d22a5800014c4c27	3	1	main_z	11	advance_on_keypress_ZEE	138	stimuli_target_squarediamonds.svg	stimuli_distractor_trianglediamonds.svg	4	yes	57	0	75	0	0			0	0			1				0	
6.6.1	win	2023-06-27	16:28:23	16:37:21	534099	5862a405d22a5800014c4c27	3	1	main_z	11	main_z	139	stimuli_target_squaretriangles.svg	stimuli_distractor_diamondtriangles.svg	7	yes	44	1	736	0	0			0	0			1				0	
6.6.1	win	2023-06-27	16:28:23	16:37:21	534099	5862a405d22a5800014c4c27	3	1	main_z	11	advance_on_keypress_ZEE	140	stimuli_target_squaretriangles.svg	stimuli_distractor_diamondtriangles.svg	7	yes	57	0	88	0	0			0	0			1				0	
6.6.1	win	2023-06-27	16:28:23	16:37:23	535442	5862a405d22a5800014c4c27	3	1	main_z	11	main_z	141	stimuli_target_diamondrectangles.svg	stimuli_distractor_trianglediamonds.svg	19	yes	44	1	611	0	0			0	0			1				0	
6.6.1	win	2023-06-27	16:28:23	16:37:23	535442	5862a405d22a5800014c4c27	3	1	main_z	11	advance_on_keypress_ZEE	142	stimuli_target_diamondrectangles.svg	stimuli_distractor_trianglediamonds.svg	19	yes	57	0	83	0	0			0	0			1				0	
6.6.1	win	2023-06-27	16:28:23	16:37:24	536550	5862a405d22a5800014c4c27	3	1	main_z	11	main_z	143	stimuli_distractor_diamondtriangles.svg	stimuli_distractor_trianglediamonds.svg	38	no	44	0	376	0	0			0	0			1				0	
6.6.1	win	2023-06-27	16:28:23	16:37:24	536550	5862a405d22a5800014c4c27	3	1	main_z	11	advance_on_keypress_ZEE	144	stimuli_distractor_diamondtriangles.svg	stimuli_distractor_trianglediamonds.svg	38	no	57	0	239	0	0			0	0			1				0	
6.6.1	win	2023-06-27	16:28:23	16:37:25	538034	5862a405d22a5800014c4c27	3	1	main_z	11	main_z	145	stimuli_distractor_diamondtriangles.svg	stimuli_target_diamondsquares.svg	32	yes	44	1	602	0	0			0	0			1				0	
6.6.1	win	2023-06-27	16:28:23	16:37:25	538034	5862a405d22a5800014c4c27	3	1	main_z	11	advance_on_keypress_ZEE	146	stimuli_distractor_diamondtriangles.svg	stimuli_target_diamondsquares.svg	32	yes	57	0	51	0	0			0	0			1				0	
6.6.1	win	2023-06-27	16:28:23	16:37:27	539227	5862a405d22a5800014c4c27	3	1	main_z	11	main_z	147	stimuli_target_trianglerectangles.svg	stimuli_distractor_diamondtriangles.svg	21	yes	44	1	495	0	0			0	0			1				0	
6.6.1	win	2023-06-27	16:28:23	16:37:27	539227	5862a405d22a5800014c4c27	3	1	main_z	11	advance_on_keypress_ZEE	148	stimuli_target_trianglerectangles.svg	stimuli_distractor_diamondtriangles.svg	21	yes	57	0	89	0	0			0	0			1				0	
6.6.1	win	2023-06-27	16:28:23	16:37:29	541950	5862a405d22a5800014c4c27	3	1	main_z	11	main_z	149	stimuli_distractor_diamondtriangles.svg	stimuli_distractor_trianglediamonds.svg	37	no	0	1	2000	0	0			0	0			1				0	
6.6.1	win	2023-06-27	16:28:23	16:37:29	541950	5862a405d22a5800014c4c27	3	1	main_z	11	advance_on_keypress_ZEE	150	stimuli_distractor_diamondtriangles.svg	stimuli_distractor_trianglediamonds.svg	37	no	57	0	852	0	0			0	0			1				0	
6.6.1	win	2023-06-27	16:28:23	16:37:31	543970	5862a405d22a5800014c4c27	3	1	main_z	11	main_z	151	stimuli_target_rectanglediamonds.svg	stimuli_distractor_diamondtriangles.svg	6	yes	44	1	504	0	0			0	0			1				0	
6.6.1	win	2023-06-27	16:28:23	16:37:31	543970	5862a405d22a5800014c4c27	3	1	main_z	11	advance_on_keypress_ZEE	152	stimuli_target_rectanglediamonds.svg	stimuli_distractor_diamondtriangles.svg	6	yes	57	0	50	0	0			0	0			1				0	
6.6.1	win	2023-06-27	16:28:23	16:37:33	545187	5862a405d22a5800014c4c27	3	1	main_z	11	main_z	153	stimuli_distractor_diamondtriangles.svg	stimuli_target_trianglesquares.svg	30	yes	44	1	513	0	0			0	0			1				0	
6.6.1	win	2023-06-27	16:28:23	16:37:33	545187	5862a405d22a5800014c4c27	3	1	main_z	11	advance_on_keypress_ZEE	154	stimuli_distractor_diamondtriangles.svg	stimuli_target_trianglesquares.svg	30	yes	57	0	73	0	0			0	0			1				0	
6.6.1	win	2023-06-27	16:28:23	16:37:34	546458	5862a405d22a5800014c4c27	3	1	main_z	11	main_z	155	stimuli_distractor_trianglediamonds.svg	stimuli_target_diamondsquares.svg	28	yes	44	1	556	0	0			0	0			1				0	
6.6.1	win	2023-06-27	16:28:23	16:37:34	546458	5862a405d22a5800014c4c27	3	1	main_z	11	advance_on_keypress_ZEE	156	stimuli_distractor_trianglediamonds.svg	stimuli_target_diamondsquares.svg	28	yes	57	0	68	0	0			0	0			1				0	
6.6.1	win	2023-06-27	16:28:23	16:37:35	547716	5862a405d22a5800014c4c27	3	1	main_z	11	main_z	157	stimuli_distractor_diamondtriangles.svg	stimuli_target_squarediamonds.svg	16	yes	44	1	546	0	0			0	0			1				0	
6.6.1	win	2023-06-27	16:28:23	16:37:35	547716	5862a405d22a5800014c4c27	3	1	main_z	11	advance_on_keypress_ZEE	158	stimuli_distractor_diamondtriangles.svg	stimuli_target_squarediamonds.svg	16	yes	57	0	43	0	0			0	0			1				0	
6.6.1	win	2023-06-27	16:28:23	16:37:38	550387	5862a405d22a5800014c4c27	3	1	main_z	11	main_z	159	stimuli_distractor_trianglediamonds.svg	stimuli_distractor_diamondtriangles.svg	36	no	0	1	2000	0	0			0	0			1				0	
6.6.1	win	2023-06-27	16:28:23	16:37:38	550387	5862a405d22a5800014c4c27	3	1	main_z	11	advance_on_keypress_ZEE	160	stimuli_distractor_trianglediamonds.svg	stimuli_distractor_diamondtriangles.svg	36	no	57	0	365	0	0			0	0			1				0	
6.6.1	win	2023-06-27	16:28:23	16:37:38	550387	5862a405d22a5800014c4c27	3	1	headphonecheck_calibration	14	headphonecheck_calibrationIntro	1	stimuli_distractor_trianglediamonds.svg	stimuli_distractor_diamondtriangles.svg	36	no	calibrationButton	0	1318	0	0			0	0			1				0	
6.6.1	win	2023-06-27	16:28:23	16:37:38	550387	5862a405d22a5800014c4c27	3	1	headphonecheck_testphase	15	test_collectResponse	3	stimuli_distractor_trianglediamonds.svg	stimuli_distractor_diamondtriangles.svg	36	no	third	0	16254	1	1	antiphase_hc_iso.wav	2	0	0			1				0	
6.6.1	win	2023-06-27	16:28:23	16:37:38	550387	5862a405d22a5800014c4c27	3	1	headphonecheck_testphase	15	test_collectResponse	6	stimuli_distractor_trianglediamonds.svg	stimuli_distractor_diamondtriangles.svg	36	no	first	1	793	2	3	antiphase_hc_soi.wav	1	0	0			1				0	
6.6.1	win	2023-06-27	16:28:23	16:37:38	550387	5862a405d22a5800014c4c27	3	1	headphonecheck_testphase	15	test_collectResponse	9	stimuli_distractor_trianglediamonds.svg	stimuli_distractor_diamondtriangles.svg	36	no	third	1	339	3	2	antiphase_hc_ios.wav	3	0	0			1				0	
6.6.1	win	2023-06-27	16:28:23	16:37:38	550387	5862a405d22a5800014c4c27	3	1	headphonecheck_testphase	15	test_collectResponse	12	stimuli_distractor_trianglediamonds.svg	stimuli_distractor_diamondtriangles.svg	36	no	first	1	722	4	4	antiphase_hc_sio.wav	1	0	0			1				0	
6.6.1	win	2023-06-27	16:28:23	16:37:38	550387	5862a405d22a5800014c4c27	3	1	headphonecheck_testphase	15	test_collectResponse	15	stimuli_distractor_trianglediamonds.svg	stimuli_distractor_diamondtriangles.svg	36	no	third	1	364	5	6	antiphase_hc_ois.wav	3	0	0			1				0	
6.6.1	win	2023-06-27	16:28:23	16:37:38	550387	5862a405d22a5800014c4c27	3	1	headphonecheck_testphase	15	test_collectResponse	18	stimuli_distractor_trianglediamonds.svg	stimuli_distractor_diamondtriangles.svg	36	no	second	1	147	6	5	antiphase_hc_osi.wav	2	0	0			1				0	
6.6.1	win	2023-06-27	16:28:23	16:37:38	550387	5862a405d22a5800014c4c27	3	1	stereocheck_calibration	17	stereocheck_calibrationIntro	1	stimuli_distractor_trianglediamonds.svg	stimuli_distractor_diamondtriangles.svg	36	no	stereocheck_calibrationButton	0	3081	6	5	antiphase_hc_osi.wav	2	0	0			1				0	
6.6.1	win	2023-06-27	16:28:23	16:37:38	550387	5862a405d22a5800014c4c27	3	1	stereocheck_testphase	18	stereocheck_test_collectResponse	3	stimuli_distractor_trianglediamonds.svg	stimuli_distractor_diamondtriangles.svg	36	no	stereocheck_left	1	439	6	5	antiphase_hc_osi.wav	2	1	3	noise_calib_stim_LEFT.wav	1	1				0	
6.6.1	win	2023-06-27	16:28:23	16:37:38	550387	5862a405d22a5800014c4c27	3	1	stereocheck_testphase	18	stereocheck_test_collectResponse	6	stimuli_distractor_trianglediamonds.svg	stimuli_distractor_diamondtriangles.svg	36	no	stereocheck_left	1	342	6	5	antiphase_hc_osi.wav	2	2	2	noise_calib_stim_LEFT.wav	1	1				0	
6.6.1	win	2023-06-27	16:28:23	16:37:38	550387	5862a405d22a5800014c4c27	3	1	stereocheck_testphase	18	stereocheck_test_collectResponse	9	stimuli_distractor_trianglediamonds.svg	stimuli_distractor_diamondtriangles.svg	36	no	stereocheck_right	1	332	6	5	antiphase_hc_osi.wav	2	3	5	noise_calib_stim_RIGHT.wav	2	1				0	
6.6.1	win	2023-06-27	16:28:23	16:37:38	550387	5862a405d22a5800014c4c27	3	1	stereocheck_testphase	18	stereocheck_test_collectResponse	12	stimuli_distractor_trianglediamonds.svg	stimuli_distractor_diamondtriangles.svg	36	no	stereocheck_left	1	213	6	5	antiphase_hc_osi.wav	2	4	1	noise_calib_stim_LEFT.wav	1	1				0	
6.6.1	win	2023-06-27	16:28:23	16:37:38	550387	5862a405d22a5800014c4c27	3	1	stereocheck_testphase	18	stereocheck_test_collectResponse	15	stimuli_distractor_trianglediamonds.svg	stimuli_distractor_diamondtriangles.svg	36	no	stereocheck_right	1	251	6	5	antiphase_hc_osi.wav	2	5	6	noise_calib_stim_RIGHT.wav	2	1				0	
6.6.1	win	2023-06-27	16:28:23	16:37:38	550387	5862a405d22a5800014c4c27	3	1	stereocheck_testphase	18	stereocheck_test_collectResponse	18	stimuli_distractor_trianglediamonds.svg	stimuli_distractor_diamondtriangles.svg	36	no	stereocheck_right	1	337	6	5	antiphase_hc_osi.wav	2	6	4	noise_calib_stim_RIGHT.wav	2	1				0	
6.6.1	win	2023-06-27	16:28:23	16:37:38	550387	5862a405d22a5800014c4c27	3	1	DL_practice	21	DL_practice	2	stimuli_distractor_trianglediamonds.svg	stimuli_distractor_diamondtriangles.svg	36	no	pa	1	1148	6	5	antiphase_hc_osi.wav	2	6	4	noise_calib_stim_RIGHT.wav	2	29	blb_dichoticlistening_pa-pa.mp3	pa	pa	0	left
6.6.1	win	2023-06-27	16:28:23	16:37:38	550387	5862a405d22a5800014c4c27	3	1	DL_practice	21	DL_practice	3	stimuli_distractor_trianglediamonds.svg	stimuli_distractor_diamondtriangles.svg	36	no	ka	1	1243	6	5	antiphase_hc_osi.wav	2	6	4	noise_calib_stim_RIGHT.wav	2	22	blb_dichoticlistening_ka-ka.mp3	ka	ka	0	left
6.6.1	win	2023-06-27	16:28:23	16:37:38	550387	5862a405d22a5800014c4c27	3	1	DL_practice	21	DL_practice	4	stimuli_distractor_trianglediamonds.svg	stimuli_distractor_diamondtriangles.svg	36	no	da	1	1024	6	5	antiphase_hc_osi.wav	2	6	4	noise_calib_stim_RIGHT.wav	2	7	blb_dichoticlistening_da-ba.mp3	da	ba	1	left
6.6.1	win	2023-06-27	16:28:23	16:37:38	550387	5862a405d22a5800014c4c27	3	1	DL_practice	21	DL_practice	5	stimuli_distractor_trianglediamonds.svg	stimuli_distractor_diamondtriangles.svg	36	no	da	0	813	6	5	antiphase_hc_osi.wav	2	6	4	noise_calib_stim_RIGHT.wav	2	15	blb_dichoticlistening_ga-ga.mp3	ga	ga	0	other
6.6.1	win	2023-06-27	16:28:23	16:37:38	550387	5862a405d22a5800014c4c27	3	1	DL_practice	21	DL_practice	6	stimuli_distractor_trianglediamonds.svg	stimuli_distractor_diamondtriangles.svg	36	no	pa	0	849	6	5	antiphase_hc_osi.wav	2	6	4	noise_calib_stim_RIGHT.wav	2	1	blb_dichoticlistening_ba-ba.mp3	ba	ba	0	other
6.6.1	win	2023-06-27	16:28:23	16:37:38	550387	5862a405d22a5800014c4c27	3	1	DL_practice	21	DL_practice	7	stimuli_distractor_trianglediamonds.svg	stimuli_distractor_diamondtriangles.svg	36	no	da	1	1297	6	5	antiphase_hc_osi.wav	2	6	4	noise_calib_stim_RIGHT.wav	2	8	blb_dichoticlistening_da-da.mp3	da	da	0	left
6.6.1	win	2023-06-27	16:28:23	16:37:38	550387	5862a405d22a5800014c4c27	3	1	DL_practice	21	DL_practice	8	stimuli_distractor_trianglediamonds.svg	stimuli_distractor_diamondtriangles.svg	36	no	ta	1	862	6	5	antiphase_hc_osi.wav	2	6	4	noise_calib_stim_RIGHT.wav	2	36	blb_dichoticlistening_ta-ta.mp3	ta	ta	0	left
6.6.1	win	2023-06-27	16:28:23	16:37:38	550387	5862a405d22a5800014c4c27	3	1	DL_practice	21	DL_practice	9	stimuli_distractor_trianglediamonds.svg	stimuli_distractor_diamondtriangles.svg	36	no	ga	1	1054	6	5	antiphase_hc_osi.wav	2	6	4	noise_calib_stim_RIGHT.wav	2	18	blb_dichoticlistening_ga-ta.mp3	ga	ta	1	left
6.6.1	win	2023-06-27	16:28:23	16:37:38	550387	5862a405d22a5800014c4c27	3	1	DL_practice	21	DL_practice	10	stimuli_distractor_trianglediamonds.svg	stimuli_distractor_diamondtriangles.svg	36	no	da	0	2505	6	5	antiphase_hc_osi.wav	2	6	4	noise_calib_stim_RIGHT.wav	2	23	blb_dichoticlistening_ka-pa.mp3	ka	pa	1	other
6.6.1	win	2023-06-27	16:28:23	16:37:38	550387	5862a405d22a5800014c4c27	3	1	DL_test	23	DL_test	1	stimuli_distractor_trianglediamonds.svg	stimuli_distractor_diamondtriangles.svg	36	no	ta	0	1673	6	5	antiphase_hc_osi.wav	2	6	4	noise_calib_stim_RIGHT.wav	2	10	blb_dichoticlistening_da-ka.mp3	da	ka	1	other
6.6.1	win	2023-06-27	16:28:23	16:37:38	550387	5862a405d22a5800014c4c27	3	1	DL_test	23	DL_test	2	stimuli_distractor_trianglediamonds.svg	stimuli_distractor_diamondtriangles.svg	36	no	pa	1	955	6	5	antiphase_hc_osi.wav	2	6	4	noise_calib_stim_RIGHT.wav	2	25	blb_dichoticlistening_pa-ba.mp3	pa	ba	1	left
6.6.1	win	2023-06-27	16:28:23	16:37:38	550387	5862a405d22a5800014c4c27	3	1	DL_test	23	DL_test	3	stimuli_distractor_trianglediamonds.svg	stimuli_distractor_diamondtriangles.svg	36	no	ka	1	1581	6	5	antiphase_hc_osi.wav	2	6	4	noise_calib_stim_RIGHT.wav	2	22	blb_dichoticlistening_ka-ka.mp3	ka	ka	0	left
6.6.1	win	2023-06-27	16:28:23	16:37:38	550387	5862a405d22a5800014c4c27	3	1	DL_test	23	DL_test	4	stimuli_distractor_trianglediamonds.svg	stimuli_distractor_diamondtriangles.svg	36	no	ga	1	517	6	5	antiphase_hc_osi.wav	2	6	4	noise_calib_stim_RIGHT.wav	2	3	blb_dichoticlistening_ba-ga.mp3	ba	ga	1	right
6.6.1	win	2023-06-27	16:28:23	16:37:38	550387	5862a405d22a5800014c4c27	3	1	DL_test	23	DL_test	5	stimuli_distractor_trianglediamonds.svg	stimuli_distractor_diamondtriangles.svg	36	no	ga	1	842	6	5	antiphase_hc_osi.wav	2	6	4	noise_calib_stim_RIGHT.wav	2	18	blb_dichoticlistening_ga-ta.mp3	ga	ta	1	left
6.6.1	win	2023-06-27	16:28:23	16:37:38	550387	5862a405d22a5800014c4c27	3	1	DL_test	23	DL_test	6	stimuli_distractor_trianglediamonds.svg	stimuli_distractor_diamondtriangles.svg	36	no	da	1	1686	6	5	antiphase_hc_osi.wav	2	6	4	noise_calib_stim_RIGHT.wav	2	20	blb_dichoticlistening_ka-da.mp3	ka	da	1	right
6.6.1	win	2023-06-27	16:28:23	16:37:38	550387	5862a405d22a5800014c4c27	3	1	DL_test	23	DL_test	7	stimuli_distractor_trianglediamonds.svg	stimuli_distractor_diamondtriangles.svg	36	no	ta	1	1485	6	5	antiphase_hc_osi.wav	2	6	4	noise_calib_stim_RIGHT.wav	2	31	blb_dichoticlistening_ta-ba.mp3	ta	ba	1	left
6.6.1	win	2023-06-27	16:28:23	16:37:38	550387	5862a405d22a5800014c4c27	3	1	DL_test	23	DL_test	8	stimuli_distractor_trianglediamonds.svg	stimuli_distractor_diamondtriangles.svg	36	no	ta	1	1028	6	5	antiphase_hc_osi.wav	2	6	4	noise_calib_stim_RIGHT.wav	2	36	blb_dichoticlistening_ta-ta.mp3	ta	ta	0	left
6.6.1	win	2023-06-27	16:28:23	16:37:38	550387	5862a405d22a5800014c4c27	3	1	DL_test	23	DL_test	9	stimuli_distractor_trianglediamonds.svg	stimuli_distractor_diamondtriangles.svg	36	no	da	1	856	6	5	antiphase_hc_osi.wav	2	6	4	noise_calib_stim_RIGHT.wav	2	14	blb_dichoticlistening_ga-da.mp3	ga	da	1	right
6.6.1	win	2023-06-27	16:28:23	16:37:38	550387	5862a405d22a5800014c4c27	3	1	DL_test	23	DL_test	10	stimuli_distractor_trianglediamonds.svg	stimuli_distractor_diamondtriangles.svg	36	no	ta	1	1028	6	5	antiphase_hc_osi.wav	2	6	4	noise_calib_stim_RIGHT.wav	2	35	blb_dichoticlistening_ta-pa.mp3	ta	pa	1	left
6.6.1	win	2023-06-27	16:28:23	16:37:38	550387	5862a405d22a5800014c4c27	3	1	DL_test	23	DL_test	11	stimuli_distractor_trianglediamonds.svg	stimuli_distractor_diamondtriangles.svg	36	no	ka	1	760	6	5	antiphase_hc_osi.wav	2	6	4	noise_calib_stim_RIGHT.wav	2	16	blb_dichoticlistening_ga-ka.mp3	ga	ka	1	right
6.6.1	win	2023-06-27	16:28:23	16:37:38	550387	5862a405d22a5800014c4c27	3	1	DL_test	23	DL_test	12	stimuli_distractor_trianglediamonds.svg	stimuli_distractor_diamondtriangles.svg	36	no	ta	1	1795	6	5	antiphase_hc_osi.wav	2	6	4	noise_calib_stim_RIGHT.wav	2	33	blb_dichoticlistening_ta-ga.mp3	ta	ga	1	left
6.6.1	win	2023-06-27	16:28:23	16:37:38	550387	5862a405d22a5800014c4c27	3	1	DL_test	23	DL_test	13	stimuli_distractor_trianglediamonds.svg	stimuli_distractor_diamondtriangles.svg	36	no	pa	1	833	6	5	antiphase_hc_osi.wav	2	6	4	noise_calib_stim_RIGHT.wav	2	5	blb_dichoticlistening_ba-pa.mp3	ba	pa	1	right
6.6.1	win	2023-06-27	16:28:23	16:37:38	550387	5862a405d22a5800014c4c27	3	1	DL_test	23	DL_test	14	stimuli_distractor_trianglediamonds.svg	stimuli_distractor_diamondtriangles.svg	36	no	da	1	1114	6	5	antiphase_hc_osi.wav	2	6	4	noise_calib_stim_RIGHT.wav	2	2	blb_dichoticlistening_ba-da.mp3	ba	da	1	right
6.6.1	win	2023-06-27	16:28:23	16:37:38	550387	5862a405d22a5800014c4c27	3	1	DL_test	23	DL_test	15	stimuli_distractor_trianglediamonds.svg	stimuli_distractor_diamondtriangles.svg	36	no	ta	0	1457	6	5	antiphase_hc_osi.wav	2	6	4	noise_calib_stim_RIGHT.wav	2	11	blb_dichoticlistening_da-pa.mp3	da	pa	1	other
6.6.1	win	2023-06-27	16:28:23	16:37:38	550387	5862a405d22a5800014c4c27	3	1	DL_test	23	DL_test	16	stimuli_distractor_trianglediamonds.svg	stimuli_distractor_diamondtriangles.svg	36	no	pa	1	1031	6	5	antiphase_hc_osi.wav	2	6	4	noise_calib_stim_RIGHT.wav	2	29	blb_dichoticlistening_pa-pa.mp3	pa	pa	0	left
6.6.1	win	2023-06-27	16:28:23	16:37:38	550387	5862a405d22a5800014c4c27	3	1	DL_test	23	DL_test	17	stimuli_distractor_trianglediamonds.svg	stimuli_distractor_diamondtriangles.svg	36	no	ka	1	2850	6	5	antiphase_hc_osi.wav	2	6	4	noise_calib_stim_RIGHT.wav	2	21	blb_dichoticlistening_ka-ga.mp3	ka	ga	1	left
6.6.1	win	2023-06-27	16:28:23	16:37:38	550387	5862a405d22a5800014c4c27	3	1	DL_test	23	DL_test	18	stimuli_distractor_trianglediamonds.svg	stimuli_distractor_diamondtriangles.svg	36	no	ta	1	891	6	5	antiphase_hc_osi.wav	2	6	4	noise_calib_stim_RIGHT.wav	2	6	blb_dichoticlistening_ba-ta.mp3	ba	ta	1	right
6.6.1	win	2023-06-27	16:28:23	16:37:38	550387	5862a405d22a5800014c4c27	3	1	DL_test	23	DL_test	19	stimuli_distractor_trianglediamonds.svg	stimuli_distractor_diamondtriangles.svg	36	no	ka	1	1444	6	5	antiphase_hc_osi.wav	2	6	4	noise_calib_stim_RIGHT.wav	2	4	blb_dichoticlistening_ba-ka.mp3	ba	ka	1	right
6.6.1	win	2023-06-27	16:28:23	16:37:38	550387	5862a405d22a5800014c4c27	3	1	DL_test	23	DL_test	20	stimuli_distractor_trianglediamonds.svg	stimuli_distractor_diamondtriangles.svg	36	no	pa	0	747	6	5	antiphase_hc_osi.wav	2	6	4	noise_calib_stim_RIGHT.wav	2	1	blb_dichoticlistening_ba-ba.mp3	ba	ba	0	other
6.6.1	win	2023-06-27	16:28:23	16:37:38	550387	5862a405d22a5800014c4c27	3	1	DL_test	23	DL_test	21	stimuli_distractor_trianglediamonds.svg	stimuli_distractor_diamondtriangles.svg	36	no	ta	0	1202	6	5	antiphase_hc_osi.wav	2	6	4	noise_calib_stim_RIGHT.wav	2	17	blb_dichoticlistening_ga-pa.mp3	ga	pa	1	other
6.6.1	win	2023-06-27	16:28:23	16:37:38	550387	5862a405d22a5800014c4c27	3	1	DL_test	23	DL_test	22	stimuli_distractor_trianglediamonds.svg	stimuli_distractor_diamondtriangles.svg	36	no	da	1	815	6	5	antiphase_hc_osi.wav	2	6	4	noise_calib_stim_RIGHT.wav	2	9	blb_dichoticlistening_da-ga.mp3	da	ga	1	left
6.6.1	win	2023-06-27	16:28:23	16:37:38	550387	5862a405d22a5800014c4c27	3	1	DL_test	23	DL_test	23	stimuli_distractor_trianglediamonds.svg	stimuli_distractor_diamondtriangles.svg	36	no	ta	0	1045	6	5	antiphase_hc_osi.wav	2	6	4	noise_calib_stim_RIGHT.wav	2	26	blb_dichoticlistening_pa-da.mp3	pa	da	1	other
6.6.1	win	2023-06-27	16:28:23	16:37:38	550387	5862a405d22a5800014c4c27	3	1	DL_test	23	DL_test	24	stimuli_distractor_trianglediamonds.svg	stimuli_distractor_diamondtriangles.svg	36	no	pa	1	1478	6	5	antiphase_hc_osi.wav	2	6	4	noise_calib_stim_RIGHT.wav	2	27	blb_dichoticlistening_pa-ga.mp3	pa	ga	1	left
6.6.1	win	2023-06-27	16:28:23	16:37:38	550387	5862a405d22a5800014c4c27	3	1	DL_test	23	DL_test	25	stimuli_distractor_trianglediamonds.svg	stimuli_distractor_diamondtriangles.svg	36	no	ta	0	1355	6	5	antiphase_hc_osi.wav	2	6	4	noise_calib_stim_RIGHT.wav	2	28	blb_dichoticlistening_pa-ka.mp3	pa	ka	1	other
6.6.1	win	2023-06-27	16:28:23	16:37:38	550387	5862a405d22a5800014c4c27	3	1	DL_test	23	DL_test	26	stimuli_distractor_trianglediamonds.svg	stimuli_distractor_diamondtriangles.svg	36	no	ga	1	800	6	5	antiphase_hc_osi.wav	2	6	4	noise_calib_stim_RIGHT.wav	2	15	blb_dichoticlistening_ga-ga.mp3	ga	ga	0	left
