build	computer.platform	date	time	timestamp	time_elapsed_ms	subject	group	session	blockcode	blocknum	trialcode	trialnum	stimulus_left	stimulus_right	stim_index	target_present	response	correct	latency	headphonecheck_countTestTrials	headphonecheck_index	headphonecheck_testSound	headphonecheck_correctResponse	stereocheck_countTestTrials	stereocheck_index	stereocheck_testSound	stereocheck_correctResponse	DL_index	DL_soundfile	DL_leftSound	DL_rightSound	DL_dualSound	DL_choice
6.6.1	win	2023-07-07	11:03:19	11:06:14	170339	5e2f65a3be23b2525a9b4d97	4	1	practice_z	5	practice_z	1	stimuli_distractor_diamondtriangles.svg	stimuli_distractor_diamondtriangles.svg	13	no	0	1	2000	0	0			0	0			1				0	
6.6.1	win	2023-07-07	11:03:19	11:06:14	170339	5e2f65a3be23b2525a9b4d97	4	1	practice_z	5	advance_on_keypress_ZEE	2	stimuli_distractor_diamondtriangles.svg	stimuli_distractor_diamondtriangles.svg	13	no	57	0	2019	0	0			0	0			1				0	
6.6.1	win	2023-07-07	11:03:19	11:06:18	174814	5e2f65a3be23b2525a9b4d97	4	1	practice_z	5	practice_z	3	stimuli_distractor_diamondtriangles.svg	stimuli_target_trianglerectangles.svg	9	yes	44	1	808	0	0			0	0			1				0	
6.6.1	win	2023-07-07	11:03:19	11:06:18	174814	5e2f65a3be23b2525a9b4d97	4	1	practice_z	5	advance_on_keypress_ZEE	4	stimuli_distractor_diamondtriangles.svg	stimuli_target_trianglerectangles.svg	9	yes	57	0	591	0	0			0	0			1				0	
6.6.1	win	2023-07-07	11:03:19	11:06:22	179072	5e2f65a3be23b2525a9b4d97	4	1	practice_z	5	practice_z	5	stimuli_distractor_diamondtriangles.svg	stimuli_distractor_trianglediamonds.svg	14	no	0	1	2000	0	0			0	0			1				0	
6.6.1	win	2023-07-07	11:03:19	11:06:22	179072	5e2f65a3be23b2525a9b4d97	4	1	practice_z	5	advance_on_keypress_ZEE	6	stimuli_distractor_diamondtriangles.svg	stimuli_distractor_trianglediamonds.svg	14	no	57	0	805	0	0			0	0			1				0	
6.6.1	win	2023-07-07	11:03:19	11:06:26	182366	5e2f65a3be23b2525a9b4d97	4	1	practice_z	5	practice_z	7	stimuli_target_squarediamonds.svg	stimuli_distractor_diamondtriangles.svg	2	yes	44	1	843	0	0			0	0			1				0	
6.6.1	win	2023-07-07	11:03:19	11:06:26	182366	5e2f65a3be23b2525a9b4d97	4	1	practice_z	5	advance_on_keypress_ZEE	8	stimuli_target_squarediamonds.svg	stimuli_distractor_diamondtriangles.svg	2	yes	57	0	345	0	0			0	0			1				0	
6.6.1	win	2023-07-07	11:03:19	11:06:28	185238	5e2f65a3be23b2525a9b4d97	4	1	practice_z	5	practice_z	9	stimuli_distractor_trianglediamonds.svg	stimuli_target_squarediamonds.svg	11	yes	44	1	866	0	0			0	0			1				0	
6.6.1	win	2023-07-07	11:03:19	11:06:28	185238	5e2f65a3be23b2525a9b4d97	4	1	practice_z	5	advance_on_keypress_ZEE	10	stimuli_distractor_trianglediamonds.svg	stimuli_target_squarediamonds.svg	11	yes	57	0	782	0	0			0	0			1				0	
6.6.1	win	2023-07-07	11:03:19	11:06:32	188566	5e2f65a3be23b2525a9b4d97	4	1	practice_z	5	practice_z	11	stimuli_target_rectanglediamonds.svg	stimuli_distractor_diamondtriangles.svg	1	yes	44	1	894	0	0			0	0			1				0	
6.6.1	win	2023-07-07	11:03:19	11:06:32	188566	5e2f65a3be23b2525a9b4d97	4	1	practice_z	5	advance_on_keypress_ZEE	12	stimuli_target_rectanglediamonds.svg	stimuli_distractor_diamondtriangles.svg	1	yes	57	0	625	0	0			0	0			1				0	
6.6.1	win	2023-07-07	11:03:19	11:06:35	191727	5e2f65a3be23b2525a9b4d97	4	1	practice_z	5	practice_z	13	stimuli_target_rectanglediamonds.svg	stimuli_distractor_trianglediamonds.svg	4	yes	44	1	887	0	0			0	0			1				0	
6.6.1	win	2023-07-07	11:03:19	11:06:35	191727	5e2f65a3be23b2525a9b4d97	4	1	practice_z	5	advance_on_keypress_ZEE	14	stimuli_target_rectanglediamonds.svg	stimuli_distractor_trianglediamonds.svg	4	yes	57	0	652	0	0			0	0			1				0	
6.6.1	win	2023-07-07	11:03:19	11:06:39	196023	5e2f65a3be23b2525a9b4d97	4	1	practice_z	5	practice_z	15	stimuli_distractor_trianglediamonds.svg	stimuli_distractor_diamondtriangles.svg	16	no	0	1	2000	0	0			0	0			1				0	
6.6.1	win	2023-07-07	11:03:19	11:06:39	196023	5e2f65a3be23b2525a9b4d97	4	1	practice_z	5	advance_on_keypress_ZEE	16	stimuli_distractor_trianglediamonds.svg	stimuli_distractor_diamondtriangles.svg	16	no	57	0	847	0	0			0	0			1				0	
6.6.1	win	2023-07-07	11:03:19	11:06:44	200523	5e2f65a3be23b2525a9b4d97	4	1	practice_z	5	practice_z	17	stimuli_distractor_trianglediamonds.svg	stimuli_distractor_trianglediamonds.svg	15	no	0	1	2000	0	0			0	0			1				0	
6.6.1	win	2023-07-07	11:03:19	11:06:44	200523	5e2f65a3be23b2525a9b4d97	4	1	practice_z	5	advance_on_keypress_ZEE	18	stimuli_distractor_trianglediamonds.svg	stimuli_distractor_trianglediamonds.svg	15	no	57	0	891	0	0			0	0			1				0	
6.6.1	win	2023-07-07	11:03:19	11:06:47	203919	5e2f65a3be23b2525a9b4d97	4	1	practice_z	5	practice_z	19	stimuli_target_diamondsquares.svg	stimuli_distractor_diamondtriangles.svg	3	yes	44	1	846	0	0			0	0			1				0	
6.6.1	win	2023-07-07	11:03:19	11:06:47	203919	5e2f65a3be23b2525a9b4d97	4	1	practice_z	5	advance_on_keypress_ZEE	20	stimuli_target_diamondsquares.svg	stimuli_distractor_diamondtriangles.svg	3	yes	57	0	699	0	0			0	0			1				0	
6.6.1	win	2023-07-07	11:03:19	11:06:50	207135	5e2f65a3be23b2525a9b4d97	4	1	practice_z	5	practice_z	21	stimuli_distractor_trianglediamonds.svg	stimuli_target_rectanglediamonds.svg	10	yes	44	1	862	0	0			0	0			1				0	
6.6.1	win	2023-07-07	11:03:19	11:06:50	207135	5e2f65a3be23b2525a9b4d97	4	1	practice_z	5	advance_on_keypress_ZEE	22	stimuli_distractor_trianglediamonds.svg	stimuli_target_rectanglediamonds.svg	10	yes	57	0	1634	0	0			0	0			1				0	
6.6.1	win	2023-07-07	11:03:19	11:06:55	211382	5e2f65a3be23b2525a9b4d97	4	1	practice_z	5	practice_z	23	stimuli_target_diamondsquares.svg	stimuli_distractor_trianglediamonds.svg	6	yes	44	1	960	0	0			0	0			1				0	
6.6.1	win	2023-07-07	11:03:19	11:06:55	211382	5e2f65a3be23b2525a9b4d97	4	1	practice_z	5	advance_on_keypress_ZEE	24	stimuli_target_diamondsquares.svg	stimuli_distractor_trianglediamonds.svg	6	yes	57	0	696	0	0			0	0			1				0	
6.6.1	win	2023-07-07	11:03:19	11:06:58	214718	5e2f65a3be23b2525a9b4d97	4	1	practice_z	5	practice_z	25	stimuli_distractor_diamondtriangles.svg	stimuli_target_diamondrectangles.svg	8	yes	44	1	979	0	0			0	0			1				0	
6.6.1	win	2023-07-07	11:03:19	11:06:58	214718	5e2f65a3be23b2525a9b4d97	4	1	practice_z	5	advance_on_keypress_ZEE	26	stimuli_distractor_diamondtriangles.svg	stimuli_target_diamondrectangles.svg	8	yes	57	0	643	0	0			0	0			1				0	
6.6.1	win	2023-07-07	11:03:19	11:07:01	217958	5e2f65a3be23b2525a9b4d97	4	1	practice_z	5	practice_z	27	stimuli_distractor_diamondtriangles.svg	stimuli_target_rectangletriangles.svg	7	yes	44	1	936	0	0			0	0			1				0	
6.6.1	win	2023-07-07	11:03:19	11:07:01	217958	5e2f65a3be23b2525a9b4d97	4	1	practice_z	5	advance_on_keypress_ZEE	28	stimuli_distractor_diamondtriangles.svg	stimuli_target_rectangletriangles.svg	7	yes	57	0	570	0	0			0	0			1				0	
6.6.1	win	2023-07-07	11:03:19	11:07:04	221150	5e2f65a3be23b2525a9b4d97	4	1	practice_z	5	practice_z	29	stimuli_distractor_trianglediamonds.svg	stimuli_target_diamondrectangles.svg	12	yes	44	1	978	0	0			0	0			1				0	
6.6.1	win	2023-07-07	11:03:19	11:07:04	221150	5e2f65a3be23b2525a9b4d97	4	1	practice_z	5	advance_on_keypress_ZEE	30	stimuli_distractor_trianglediamonds.svg	stimuli_target_diamondrectangles.svg	12	yes	57	0	546	0	0			0	0			1				0	
6.6.1	win	2023-07-07	11:03:19	11:07:07	224286	5e2f65a3be23b2525a9b4d97	4	1	practice_z	5	practice_z	31	stimuli_target_squarediamonds.svg	stimuli_distractor_trianglediamonds.svg	5	yes	44	1	930	0	0			0	0			1				0	
6.6.1	win	2023-07-07	11:03:19	11:07:07	224286	5e2f65a3be23b2525a9b4d97	4	1	practice_z	5	advance_on_keypress_ZEE	32	stimuli_target_squarediamonds.svg	stimuli_distractor_trianglediamonds.svg	5	yes	57	0	532	0	0			0	0			1				0	
6.6.1	win	2023-07-07	11:03:19	11:07:17	233802	5e2f65a3be23b2525a9b4d97	4	1	main_z	7	main_z	1	stimuli_distractor_trianglediamonds.svg	stimuli_target_squaretriangles.svg	11	yes	44	1	817	0	0			0	0			1				0	
6.6.1	win	2023-07-07	11:03:19	11:07:17	233802	5e2f65a3be23b2525a9b4d97	4	1	main_z	7	advance_on_keypress_ZEE	2	stimuli_distractor_trianglediamonds.svg	stimuli_target_squaretriangles.svg	11	yes	57	0	984	0	0			0	0			1				0	
6.6.1	win	2023-07-07	11:03:19	11:07:21	237436	5e2f65a3be23b2525a9b4d97	4	1	main_z	7	main_z	3	stimuli_distractor_trianglediamonds.svg	stimuli_distractor_diamondtriangles.svg	36	no	0	1	2000	0	0			0	0			1				0	
6.6.1	win	2023-07-07	11:03:19	11:07:21	237436	5e2f65a3be23b2525a9b4d97	4	1	main_z	7	advance_on_keypress_ZEE	4	stimuli_distractor_trianglediamonds.svg	stimuli_distractor_diamondtriangles.svg	36	no	57	0	887	0	0			0	0			1				0	
6.6.1	win	2023-07-07	11:03:19	11:07:23	239746	5e2f65a3be23b2525a9b4d97	4	1	main_z	7	main_z	5	stimuli_target_trianglerectangles.svg	stimuli_distractor_trianglediamonds.svg	17	yes	44	1	778	0	0			0	0			1				0	
6.6.1	win	2023-07-07	11:03:19	11:07:23	239746	5e2f65a3be23b2525a9b4d97	4	1	main_z	7	advance_on_keypress_ZEE	6	stimuli_target_trianglerectangles.svg	stimuli_distractor_trianglediamonds.svg	17	yes	57	0	794	0	0			0	0			1				0	
6.6.1	win	2023-07-07	11:03:19	11:07:25	242114	5e2f65a3be23b2525a9b4d97	4	1	main_z	7	main_z	7	stimuli_target_diamondsquares.svg	stimuli_distractor_trianglediamonds.svg	20	yes	44	1	912	0	0			0	0			1				0	
6.6.1	win	2023-07-07	11:03:19	11:07:25	242114	5e2f65a3be23b2525a9b4d97	4	1	main_z	7	advance_on_keypress_ZEE	8	stimuli_target_diamondsquares.svg	stimuli_distractor_trianglediamonds.svg	20	yes	57	0	683	0	0			0	0			1				0	
6.6.1	win	2023-07-07	11:03:19	11:07:28	244362	5e2f65a3be23b2525a9b4d97	4	1	main_z	7	main_z	9	stimuli_target_diamondsquares.svg	stimuli_distractor_diamondtriangles.svg	24	yes	44	1	911	0	0			0	0			1				0	
6.6.1	win	2023-07-07	11:03:19	11:07:28	244362	5e2f65a3be23b2525a9b4d97	4	1	main_z	7	advance_on_keypress_ZEE	10	stimuli_target_diamondsquares.svg	stimuli_distractor_diamondtriangles.svg	24	yes	57	0	578	0	0			0	0			1				0	
6.6.1	win	2023-07-07	11:03:19	11:07:31	247585	5e2f65a3be23b2525a9b4d97	4	1	main_z	7	main_z	11	stimuli_distractor_diamondtriangles.svg	stimuli_distractor_trianglediamonds.svg	37	no	0	1	2000	0	0			0	0			1				0	
6.6.1	win	2023-07-07	11:03:19	11:07:31	247585	5e2f65a3be23b2525a9b4d97	4	1	main_z	7	advance_on_keypress_ZEE	12	stimuli_distractor_diamondtriangles.svg	stimuli_distractor_trianglediamonds.svg	37	no	57	0	729	0	0			0	0			1				0	
6.6.1	win	2023-07-07	11:03:19	11:07:33	249810	5e2f65a3be23b2525a9b4d97	4	1	main_z	7	main_z	13	stimuli_distractor_trianglediamonds.svg	stimuli_target_squarediamonds.svg	12	yes	44	1	842	0	0			0	0			1				0	
6.6.1	win	2023-07-07	11:03:19	11:07:33	249810	5e2f65a3be23b2525a9b4d97	4	1	main_z	7	advance_on_keypress_ZEE	14	stimuli_distractor_trianglediamonds.svg	stimuli_target_squarediamonds.svg	12	yes	57	0	816	0	0			0	0			1				0	
6.6.1	win	2023-07-07	11:03:19	11:07:35	252122	5e2f65a3be23b2525a9b4d97	4	1	main_z	7	main_z	15	stimuli_target_rectangletriangles.svg	stimuli_distractor_trianglediamonds.svg	1	yes	44	1	854	0	0			0	0			1				0	
6.6.1	win	2023-07-07	11:03:19	11:07:35	252122	5e2f65a3be23b2525a9b4d97	4	1	main_z	7	advance_on_keypress_ZEE	16	stimuli_target_rectangletriangles.svg	stimuli_distractor_trianglediamonds.svg	1	yes	57	0	619	0	0			0	0			1				0	
6.6.1	win	2023-07-07	11:03:19	11:07:38	254490	5e2f65a3be23b2525a9b4d97	4	1	main_z	7	main_z	17	stimuli_target_trianglesquares.svg	stimuli_distractor_trianglediamonds.svg	18	yes	44	1	1105	0	0			0	0			1				0	
6.6.1	win	2023-07-07	11:03:19	11:07:38	254490	5e2f65a3be23b2525a9b4d97	4	1	main_z	7	advance_on_keypress_ZEE	18	stimuli_target_trianglesquares.svg	stimuli_distractor_trianglediamonds.svg	18	yes	57	0	597	0	0			0	0			1				0	
6.6.1	win	2023-07-07	11:03:19	11:07:40	256706	5e2f65a3be23b2525a9b4d97	4	1	main_z	7	main_z	19	stimuli_distractor_trianglediamonds.svg	stimuli_target_diamondsquares.svg	28	yes	44	1	970	0	0			0	0			1				0	
6.6.1	win	2023-07-07	11:03:19	11:07:40	256706	5e2f65a3be23b2525a9b4d97	4	1	main_z	7	advance_on_keypress_ZEE	20	stimuli_distractor_trianglediamonds.svg	stimuli_target_diamondsquares.svg	28	yes	57	0	540	0	0			0	0			1				0	
6.6.1	win	2023-07-07	11:03:19	11:07:42	258690	5e2f65a3be23b2525a9b4d97	4	1	main_z	7	main_z	21	stimuli_distractor_trianglediamonds.svg	stimuli_target_diamondrectangles.svg	27	yes	44	1	804	0	0			0	0			1				0	
6.6.1	win	2023-07-07	11:03:19	11:07:42	258690	5e2f65a3be23b2525a9b4d97	4	1	main_z	7	advance_on_keypress_ZEE	22	stimuli_distractor_trianglediamonds.svg	stimuli_target_diamondrectangles.svg	27	yes	57	0	589	0	0			0	0			1				0	
6.6.1	win	2023-07-07	11:03:19	11:07:44	260682	5e2f65a3be23b2525a9b4d97	4	1	main_z	7	main_z	23	stimuli_target_diamondrectangles.svg	stimuli_distractor_diamondtriangles.svg	23	yes	44	1	764	0	0			0	0			1				0	
6.6.1	win	2023-07-07	11:03:19	11:07:44	260682	5e2f65a3be23b2525a9b4d97	4	1	main_z	7	advance_on_keypress_ZEE	24	stimuli_target_diamondrectangles.svg	stimuli_distractor_diamondtriangles.svg	23	yes	57	0	501	0	0			0	0			1				0	
6.6.1	win	2023-07-07	11:03:19	11:07:46	262706	5e2f65a3be23b2525a9b4d97	4	1	main_z	7	main_z	25	stimuli_distractor_trianglediamonds.svg	stimuli_target_trianglerectangles.svg	25	yes	44	1	871	0	0			0	0			1				0	
6.6.1	win	2023-07-07	11:03:19	11:07:46	262706	5e2f65a3be23b2525a9b4d97	4	1	main_z	7	advance_on_keypress_ZEE	26	stimuli_distractor_trianglediamonds.svg	stimuli_target_trianglerectangles.svg	25	yes	57	0	491	0	0			0	0			1				0	
6.6.1	win	2023-07-07	11:03:19	11:07:48	264578	5e2f65a3be23b2525a9b4d97	4	1	main_z	7	main_z	27	stimuli_distractor_trianglediamonds.svg	stimuli_target_trianglesquares.svg	26	yes	44	1	743	0	0			0	0			1				0	
6.6.1	win	2023-07-07	11:03:19	11:07:48	264578	5e2f65a3be23b2525a9b4d97	4	1	main_z	7	advance_on_keypress_ZEE	28	stimuli_distractor_trianglediamonds.svg	stimuli_target_trianglesquares.svg	26	yes	57	0	505	0	0			0	0			1				0	
6.6.1	win	2023-07-07	11:03:19	11:07:49	266249	5e2f65a3be23b2525a9b4d97	4	1	main_z	7	main_z	29	stimuli_distractor_diamondtriangles.svg	stimuli_target_squarediamonds.svg	16	yes	44	1	524	0	0			0	0			1				0	
6.6.1	win	2023-07-07	11:03:19	11:07:49	266249	5e2f65a3be23b2525a9b4d97	4	1	main_z	7	advance_on_keypress_ZEE	30	stimuli_distractor_diamondtriangles.svg	stimuli_target_squarediamonds.svg	16	yes	57	0	485	0	0			0	0			1				0	
6.6.1	win	2023-07-07	11:03:19	11:07:51	267842	5e2f65a3be23b2525a9b4d97	4	1	main_z	7	main_z	31	stimuli_distractor_trianglediamonds.svg	stimuli_target_rectanglediamonds.svg	10	yes	44	1	457	0	0			0	0			1				0	
6.6.1	win	2023-07-07	11:03:19	11:07:51	267842	5e2f65a3be23b2525a9b4d97	4	1	main_z	7	advance_on_keypress_ZEE	32	stimuli_distractor_trianglediamonds.svg	stimuli_target_rectanglediamonds.svg	10	yes	57	0	503	0	0			0	0			1				0	
6.6.1	win	2023-07-07	11:03:19	11:07:54	270985	5e2f65a3be23b2525a9b4d97	4	1	main_z	7	main_z	33	stimuli_distractor_diamondtriangles.svg	stimuli_distractor_diamondtriangles.svg	40	no	0	1	2000	0	0			0	0			1				0	
6.6.1	win	2023-07-07	11:03:19	11:07:54	270985	5e2f65a3be23b2525a9b4d97	4	1	main_z	7	advance_on_keypress_ZEE	34	stimuli_distractor_diamondtriangles.svg	stimuli_distractor_diamondtriangles.svg	40	no	57	0	761	0	0			0	0			1				0	
6.6.1	win	2023-07-07	11:03:19	11:07:58	274402	5e2f65a3be23b2525a9b4d97	4	1	main_z	7	main_z	35	stimuli_distractor_trianglediamonds.svg	stimuli_distractor_trianglediamonds.svg	34	no	0	1	2000	0	0			0	0			1				0	
6.6.1	win	2023-07-07	11:03:19	11:07:58	274402	5e2f65a3be23b2525a9b4d97	4	1	main_z	7	advance_on_keypress_ZEE	36	stimuli_distractor_trianglediamonds.svg	stimuli_distractor_trianglediamonds.svg	34	no	57	0	447	0	0			0	0			1				0	
6.6.1	win	2023-07-07	11:03:19	11:07:59	276226	5e2f65a3be23b2525a9b4d97	4	1	main_z	7	main_z	37	stimuli_target_trianglesquares.svg	stimuli_distractor_diamondtriangles.svg	22	yes	44	1	724	0	0			0	0			1				0	
6.6.1	win	2023-07-07	11:03:19	11:07:59	276226	5e2f65a3be23b2525a9b4d97	4	1	main_z	7	advance_on_keypress_ZEE	38	stimuli_target_trianglesquares.svg	stimuli_distractor_diamondtriangles.svg	22	yes	57	0	480	0	0			0	0			1				0	
6.6.1	win	2023-07-07	11:03:19	11:08:03	279352	5e2f65a3be23b2525a9b4d97	4	1	main_z	7	main_z	39	stimuli_distractor_diamondtriangles.svg	stimuli_distractor_trianglediamonds.svg	38	no	0	1	2000	0	0			0	0			1				0	
6.6.1	win	2023-07-07	11:03:19	11:08:03	279352	5e2f65a3be23b2525a9b4d97	4	1	main_z	7	advance_on_keypress_ZEE	40	stimuli_distractor_diamondtriangles.svg	stimuli_distractor_trianglediamonds.svg	38	no	57	0	514	0	0			0	0			1				0	
6.6.1	win	2023-07-07	11:03:19	11:08:04	281234	5e2f65a3be23b2525a9b4d97	4	1	main_z	7	main_z	41	stimuli_distractor_diamondtriangles.svg	stimuli_target_rectangletriangles.svg	13	yes	44	1	716	0	0			0	0			1				0	
6.6.1	win	2023-07-07	11:03:19	11:08:04	281234	5e2f65a3be23b2525a9b4d97	4	1	main_z	7	advance_on_keypress_ZEE	42	stimuli_distractor_diamondtriangles.svg	stimuli_target_rectangletriangles.svg	13	yes	57	0	414	0	0			0	0			1				0	
6.6.1	win	2023-07-07	11:03:19	11:08:06	283074	5e2f65a3be23b2525a9b4d97	4	1	main_z	7	main_z	43	stimuli_target_squarediamonds.svg	stimuli_distractor_trianglediamonds.svg	4	yes	44	1	772	0	0			0	0			1				0	
6.6.1	win	2023-07-07	11:03:19	11:08:06	283074	5e2f65a3be23b2525a9b4d97	4	1	main_z	7	advance_on_keypress_ZEE	44	stimuli_target_squarediamonds.svg	stimuli_distractor_trianglediamonds.svg	4	yes	57	0	413	0	0			0	0			1				0	
6.6.1	win	2023-07-07	11:03:19	11:08:08	284794	5e2f65a3be23b2525a9b4d97	4	1	main_z	7	main_z	45	stimuli_distractor_trianglediamonds.svg	stimuli_target_rectangletriangles.svg	9	yes	44	1	659	0	0			0	0			1				0	
6.6.1	win	2023-07-07	11:03:19	11:08:08	284794	5e2f65a3be23b2525a9b4d97	4	1	main_z	7	advance_on_keypress_ZEE	46	stimuli_distractor_trianglediamonds.svg	stimuli_target_rectangletriangles.svg	9	yes	57	0	440	0	0			0	0			1				0	
6.6.1	win	2023-07-07	11:03:19	11:08:10	286554	5e2f65a3be23b2525a9b4d97	4	1	main_z	7	main_z	47	stimuli_target_trianglerectangles.svg	stimuli_distractor_diamondtriangles.svg	21	yes	44	1	685	0	0			0	0			1				0	
6.6.1	win	2023-07-07	11:03:19	11:08:10	286554	5e2f65a3be23b2525a9b4d97	4	1	main_z	7	advance_on_keypress_ZEE	48	stimuli_target_trianglerectangles.svg	stimuli_distractor_diamondtriangles.svg	21	yes	57	0	425	0	0			0	0			1				0	
6.6.1	win	2023-07-07	11:03:19	11:08:13	289618	5e2f65a3be23b2525a9b4d97	4	1	main_z	7	main_z	49	stimuli_distractor_trianglediamonds.svg	stimuli_distractor_diamondtriangles.svg	35	no	0	1	2000	0	0			0	0			1				0	
6.6.1	win	2023-07-07	11:03:19	11:08:13	289618	5e2f65a3be23b2525a9b4d97	4	1	main_z	7	advance_on_keypress_ZEE	50	stimuli_distractor_trianglediamonds.svg	stimuli_distractor_diamondtriangles.svg	35	no	57	0	615	0	0			0	0			1				0	
6.6.1	win	2023-07-07	11:03:19	11:08:15	291634	5e2f65a3be23b2525a9b4d97	4	1	main_z	7	main_z	51	stimuli_distractor_diamondtriangles.svg	stimuli_target_squaretriangles.svg	15	yes	44	1	749	0	0			0	0			1				0	
6.6.1	win	2023-07-07	11:03:19	11:08:15	291634	5e2f65a3be23b2525a9b4d97	4	1	main_z	7	advance_on_keypress_ZEE	52	stimuli_distractor_diamondtriangles.svg	stimuli_target_squaretriangles.svg	15	yes	57	0	454	0	0			0	0			1				0	
6.6.1	win	2023-07-07	11:03:19	11:08:16	293266	5e2f65a3be23b2525a9b4d97	4	1	main_z	7	main_z	53	stimuli_distractor_diamondtriangles.svg	stimuli_target_rectanglediamonds.svg	14	yes	44	1	531	0	0			0	0			1				0	
6.6.1	win	2023-07-07	11:03:19	11:08:16	293266	5e2f65a3be23b2525a9b4d97	4	1	main_z	7	advance_on_keypress_ZEE	54	stimuli_distractor_diamondtriangles.svg	stimuli_target_rectanglediamonds.svg	14	yes	57	0	389	0	0			0	0			1				0	
6.6.1	win	2023-07-07	11:03:19	11:08:19	295442	5e2f65a3be23b2525a9b4d97	4	1	main_z	7	main_z	55	stimuli_distractor_diamondtriangles.svg	stimuli_target_diamondrectangles.svg	31	yes	44	1	1140	0	0			0	0			1				0	
6.6.1	win	2023-07-07	11:03:19	11:08:19	295442	5e2f65a3be23b2525a9b4d97	4	1	main_z	7	advance_on_keypress_ZEE	56	stimuli_distractor_diamondtriangles.svg	stimuli_target_diamondrectangles.svg	31	yes	57	0	398	0	0			0	0			1				0	
6.6.1	win	2023-07-07	11:03:19	11:08:20	297154	5e2f65a3be23b2525a9b4d97	4	1	main_z	7	main_z	57	stimuli_target_rectanglediamonds.svg	stimuli_distractor_trianglediamonds.svg	2	yes	44	1	670	0	0			0	0			1				0	
6.6.1	win	2023-07-07	11:03:19	11:08:20	297154	5e2f65a3be23b2525a9b4d97	4	1	main_z	7	advance_on_keypress_ZEE	58	stimuli_target_rectanglediamonds.svg	stimuli_distractor_trianglediamonds.svg	2	yes	57	0	401	0	0			0	0			1				0	
6.6.1	win	2023-07-07	11:03:19	11:08:23	300201	5e2f65a3be23b2525a9b4d97	4	1	main_z	7	main_z	59	stimuli_distractor_trianglediamonds.svg	stimuli_distractor_trianglediamonds.svg	33	no	0	1	2000	0	0			0	0			1				0	
6.6.1	win	2023-07-07	11:03:19	11:08:23	300201	5e2f65a3be23b2525a9b4d97	4	1	main_z	7	advance_on_keypress_ZEE	60	stimuli_distractor_trianglediamonds.svg	stimuli_distractor_trianglediamonds.svg	33	no	57	0	696	0	0			0	0			1				0	
6.6.1	win	2023-07-07	11:03:19	11:08:25	302114	5e2f65a3be23b2525a9b4d97	4	1	main_z	7	main_z	61	stimuli_target_squarediamonds.svg	stimuli_distractor_diamondtriangles.svg	8	yes	44	1	562	0	0			0	0			1				0	
6.6.1	win	2023-07-07	11:03:19	11:08:25	302114	5e2f65a3be23b2525a9b4d97	4	1	main_z	7	advance_on_keypress_ZEE	62	stimuli_target_squarediamonds.svg	stimuli_distractor_diamondtriangles.svg	8	yes	57	0	411	0	0			0	0			1				0	
6.6.1	win	2023-07-07	11:03:19	11:08:27	303834	5e2f65a3be23b2525a9b4d97	4	1	main_z	7	main_z	63	stimuli_target_rectanglediamonds.svg	stimuli_distractor_diamondtriangles.svg	6	yes	44	1	649	0	0			0	0			1				0	
6.6.1	win	2023-07-07	11:03:19	11:08:27	303834	5e2f65a3be23b2525a9b4d97	4	1	main_z	7	advance_on_keypress_ZEE	64	stimuli_target_rectanglediamonds.svg	stimuli_distractor_diamondtriangles.svg	6	yes	57	0	390	0	0			0	0			1				0	
6.6.1	win	2023-07-07	11:03:19	11:08:29	305562	5e2f65a3be23b2525a9b4d97	4	1	main_z	7	main_z	65	stimuli_target_diamondrectangles.svg	stimuli_distractor_trianglediamonds.svg	19	yes	44	1	694	0	0			0	0			1				0	
6.6.1	win	2023-07-07	11:03:19	11:08:29	305562	5e2f65a3be23b2525a9b4d97	4	1	main_z	7	advance_on_keypress_ZEE	66	stimuli_target_diamondrectangles.svg	stimuli_distractor_trianglediamonds.svg	19	yes	57	0	417	0	0			0	0			1				0	
6.6.1	win	2023-07-07	11:03:19	11:08:31	307826	5e2f65a3be23b2525a9b4d97	4	1	main_z	7	main_z	67	stimuli_distractor_diamondtriangles.svg	stimuli_target_diamondsquares.svg	32	yes	44	1	1191	0	0			0	0			1				0	
6.6.1	win	2023-07-07	11:03:19	11:08:31	307826	5e2f65a3be23b2525a9b4d97	4	1	main_z	7	advance_on_keypress_ZEE	68	stimuli_distractor_diamondtriangles.svg	stimuli_target_diamondsquares.svg	32	yes	57	0	391	0	0			0	0			1				0	
6.6.1	win	2023-07-07	11:03:19	11:08:34	310851	5e2f65a3be23b2525a9b4d97	4	1	main_z	7	main_z	69	stimuli_distractor_diamondtriangles.svg	stimuli_distractor_diamondtriangles.svg	39	no	0	1	2000	0	0			0	0			1				0	
6.6.1	win	2023-07-07	11:03:19	11:08:34	310851	5e2f65a3be23b2525a9b4d97	4	1	main_z	7	advance_on_keypress_ZEE	70	stimuli_distractor_diamondtriangles.svg	stimuli_distractor_diamondtriangles.svg	39	no	57	0	886	0	0			0	0			1				0	
6.6.1	win	2023-07-07	11:03:19	11:08:36	312834	5e2f65a3be23b2525a9b4d97	4	1	main_z	7	main_z	71	stimuli_target_squaretriangles.svg	stimuli_distractor_trianglediamonds.svg	3	yes	44	1	449	0	0			0	0			1				0	
6.6.1	win	2023-07-07	11:03:19	11:08:36	312834	5e2f65a3be23b2525a9b4d97	4	1	main_z	7	advance_on_keypress_ZEE	72	stimuli_target_squaretriangles.svg	stimuli_distractor_trianglediamonds.svg	3	yes	57	0	382	0	0			0	0			1				0	
6.6.1	win	2023-07-07	11:03:19	11:08:38	314313	5e2f65a3be23b2525a9b4d97	4	1	main_z	7	main_z	73	stimuli_target_squaretriangles.svg	stimuli_distractor_diamondtriangles.svg	7	yes	44	1	446	0	0			0	0			1				0	
6.6.1	win	2023-07-07	11:03:19	11:08:38	314313	5e2f65a3be23b2525a9b4d97	4	1	main_z	7	advance_on_keypress_ZEE	74	stimuli_target_squaretriangles.svg	stimuli_distractor_diamondtriangles.svg	7	yes	57	0	419	0	0			0	0			1				0	
6.6.1	win	2023-07-07	11:03:19	11:08:39	315915	5e2f65a3be23b2525a9b4d97	4	1	main_z	7	main_z	75	stimuli_target_rectangletriangles.svg	stimuli_distractor_diamondtriangles.svg	5	yes	44	1	529	0	0			0	0			1				0	
6.6.1	win	2023-07-07	11:03:19	11:08:39	315915	5e2f65a3be23b2525a9b4d97	4	1	main_z	7	advance_on_keypress_ZEE	76	stimuli_target_rectangletriangles.svg	stimuli_distractor_diamondtriangles.svg	5	yes	57	0	411	0	0			0	0			1				0	
6.6.1	win	2023-07-07	11:03:19	11:08:41	317658	5e2f65a3be23b2525a9b4d97	4	1	main_z	7	main_z	77	stimuli_distractor_diamondtriangles.svg	stimuli_target_trianglerectangles.svg	29	yes	44	1	673	0	0			0	0			1				0	
6.6.1	win	2023-07-07	11:03:19	11:08:41	317658	5e2f65a3be23b2525a9b4d97	4	1	main_z	7	advance_on_keypress_ZEE	78	stimuli_distractor_diamondtriangles.svg	stimuli_target_trianglerectangles.svg	29	yes	57	0	390	0	0			0	0			1				0	
6.6.1	win	2023-07-07	11:03:19	11:08:43	319425	5e2f65a3be23b2525a9b4d97	4	1	main_z	7	main_z	79	stimuli_distractor_diamondtriangles.svg	stimuli_target_trianglesquares.svg	30	yes	44	1	741	0	0			0	0			1				0	
6.6.1	win	2023-07-07	11:03:19	11:08:43	319425	5e2f65a3be23b2525a9b4d97	4	1	main_z	7	advance_on_keypress_ZEE	80	stimuli_distractor_diamondtriangles.svg	stimuli_target_trianglesquares.svg	30	yes	57	0	383	0	0			0	0			1				0	
6.6.1	win	2023-07-07	11:03:19	11:08:44	321081	5e2f65a3be23b2525a9b4d97	4	1	main_z	7	main_z	81	stimuli_distractor_trianglediamonds.svg	stimuli_target_rectanglediamonds.svg	10	yes	44	1	630	0	0			0	0			1				0	
6.6.1	win	2023-07-07	11:03:19	11:08:44	321081	5e2f65a3be23b2525a9b4d97	4	1	main_z	7	advance_on_keypress_ZEE	82	stimuli_distractor_trianglediamonds.svg	stimuli_target_rectanglediamonds.svg	10	yes	57	0	380	0	0			0	0			1				0	
6.6.1	win	2023-07-07	11:03:19	11:08:46	322666	5e2f65a3be23b2525a9b4d97	4	1	main_z	7	main_z	83	stimuli_target_squaretriangles.svg	stimuli_distractor_diamondtriangles.svg	7	yes	44	1	548	0	0			0	0			1				0	
6.6.1	win	2023-07-07	11:03:19	11:08:46	322666	5e2f65a3be23b2525a9b4d97	4	1	main_z	7	advance_on_keypress_ZEE	84	stimuli_target_squaretriangles.svg	stimuli_distractor_diamondtriangles.svg	7	yes	57	0	381	0	0			0	0			1				0	
6.6.1	win	2023-07-07	11:03:19	11:08:48	324682	5e2f65a3be23b2525a9b4d97	4	1	main_z	7	main_z	85	stimuli_target_trianglesquares.svg	stimuli_distractor_diamondtriangles.svg	22	yes	44	1	980	0	0			0	0			1				0	
6.6.1	win	2023-07-07	11:03:19	11:08:48	324682	5e2f65a3be23b2525a9b4d97	4	1	main_z	7	advance_on_keypress_ZEE	86	stimuli_target_trianglesquares.svg	stimuli_distractor_diamondtriangles.svg	22	yes	57	0	348	0	0			0	0			1				0	
6.6.1	win	2023-07-07	11:03:19	11:08:50	326418	5e2f65a3be23b2525a9b4d97	4	1	main_z	7	main_z	87	stimuli_distractor_diamondtriangles.svg	stimuli_target_squarediamonds.svg	16	yes	44	1	733	0	0			0	0			1				0	
6.6.1	win	2023-07-07	11:03:19	11:08:50	326418	5e2f65a3be23b2525a9b4d97	4	1	main_z	7	advance_on_keypress_ZEE	88	stimuli_distractor_diamondtriangles.svg	stimuli_target_squarediamonds.svg	16	yes	57	0	391	0	0			0	0			1				0	
6.6.1	win	2023-07-07	11:03:19	11:08:51	328018	5e2f65a3be23b2525a9b4d97	4	1	main_z	7	main_z	89	stimuli_distractor_trianglediamonds.svg	stimuli_target_squaretriangles.svg	11	yes	44	1	566	0	0			0	0			1				0	
6.6.1	win	2023-07-07	11:03:19	11:08:51	328018	5e2f65a3be23b2525a9b4d97	4	1	main_z	7	advance_on_keypress_ZEE	90	stimuli_distractor_trianglediamonds.svg	stimuli_target_squaretriangles.svg	11	yes	57	0	343	0	0			0	0			1				0	
6.6.1	win	2023-07-07	11:03:19	11:08:53	329481	5e2f65a3be23b2525a9b4d97	4	1	main_z	7	main_z	91	stimuli_distractor_diamondtriangles.svg	stimuli_target_rectangletriangles.svg	13	yes	44	1	480	0	0			0	0			1				0	
6.6.1	win	2023-07-07	11:03:19	11:08:53	329481	5e2f65a3be23b2525a9b4d97	4	1	main_z	7	advance_on_keypress_ZEE	92	stimuli_distractor_diamondtriangles.svg	stimuli_target_rectangletriangles.svg	13	yes	57	0	364	0	0			0	0			1				0	
6.6.1	win	2023-07-07	11:03:19	11:08:54	331081	5e2f65a3be23b2525a9b4d97	4	1	main_z	7	main_z	93	stimuli_target_rectanglediamonds.svg	stimuli_distractor_trianglediamonds.svg	2	yes	44	1	580	0	0			0	0			1				0	
6.6.1	win	2023-07-07	11:03:19	11:08:54	331081	5e2f65a3be23b2525a9b4d97	4	1	main_z	7	advance_on_keypress_ZEE	94	stimuli_target_rectanglediamonds.svg	stimuli_distractor_trianglediamonds.svg	2	yes	57	0	356	0	0			0	0			1				0	
6.6.1	win	2023-07-07	11:03:19	11:08:56	332698	5e2f65a3be23b2525a9b4d97	4	1	main_z	7	main_z	95	stimuli_distractor_diamondtriangles.svg	stimuli_target_squaretriangles.svg	15	yes	44	1	613	0	0			0	0			1				0	
6.6.1	win	2023-07-07	11:03:19	11:08:56	332698	5e2f65a3be23b2525a9b4d97	4	1	main_z	7	advance_on_keypress_ZEE	96	stimuli_distractor_diamondtriangles.svg	stimuli_target_squaretriangles.svg	15	yes	57	0	388	0	0			0	0			1				0	
6.6.1	win	2023-07-07	11:03:19	11:08:58	334625	5e2f65a3be23b2525a9b4d97	4	1	main_z	7	main_z	97	stimuli_target_diamondrectangles.svg	stimuli_distractor_diamondtriangles.svg	23	yes	44	1	891	0	0			0	0			1				0	
6.6.1	win	2023-07-07	11:03:19	11:08:58	334625	5e2f65a3be23b2525a9b4d97	4	1	main_z	7	advance_on_keypress_ZEE	98	stimuli_target_diamondrectangles.svg	stimuli_distractor_diamondtriangles.svg	23	yes	57	0	391	0	0			0	0			1				0	
6.6.1	win	2023-07-07	11:03:19	11:08:59	336289	5e2f65a3be23b2525a9b4d97	4	1	main_z	7	main_z	99	stimuli_distractor_trianglediamonds.svg	stimuli_target_trianglerectangles.svg	25	yes	44	1	638	0	0			0	0			1				0	
6.6.1	win	2023-07-07	11:03:19	11:08:59	336289	5e2f65a3be23b2525a9b4d97	4	1	main_z	7	advance_on_keypress_ZEE	100	stimuli_distractor_trianglediamonds.svg	stimuli_target_trianglerectangles.svg	25	yes	57	0	396	0	0			0	0			1				0	
6.6.1	win	2023-07-07	11:03:19	11:09:03	339334	5e2f65a3be23b2525a9b4d97	4	1	main_z	7	main_z	101	stimuli_distractor_diamondtriangles.svg	stimuli_distractor_diamondtriangles.svg	39	no	0	1	2000	0	0			0	0			1				0	
6.6.1	win	2023-07-07	11:03:19	11:09:03	339334	5e2f65a3be23b2525a9b4d97	4	1	main_z	7	advance_on_keypress_ZEE	102	stimuli_distractor_diamondtriangles.svg	stimuli_distractor_diamondtriangles.svg	39	no	57	0	683	0	0			0	0			1				0	
6.6.1	win	2023-07-07	11:03:19	11:09:04	341097	5e2f65a3be23b2525a9b4d97	4	1	main_z	7	main_z	103	stimuli_target_trianglerectangles.svg	stimuli_distractor_diamondtriangles.svg	21	yes	44	1	430	0	0			0	0			1				0	
6.6.1	win	2023-07-07	11:03:19	11:09:04	341097	5e2f65a3be23b2525a9b4d97	4	1	main_z	7	advance_on_keypress_ZEE	104	stimuli_target_trianglerectangles.svg	stimuli_distractor_diamondtriangles.svg	21	yes	57	0	380	0	0			0	0			1				0	
6.6.1	win	2023-07-07	11:03:19	11:09:06	342617	5e2f65a3be23b2525a9b4d97	4	1	main_z	7	main_z	105	stimuli_distractor_diamondtriangles.svg	stimuli_target_diamondsquares.svg	32	yes	44	1	483	0	0			0	0			1				0	
6.6.1	win	2023-07-07	11:03:19	11:09:06	342617	5e2f65a3be23b2525a9b4d97	4	1	main_z	7	advance_on_keypress_ZEE	106	stimuli_distractor_diamondtriangles.svg	stimuli_target_diamondsquares.svg	32	yes	57	0	367	0	0			0	0			1				0	
6.6.1	win	2023-07-07	11:03:19	11:09:07	344050	5e2f65a3be23b2525a9b4d97	4	1	main_z	7	main_z	107	stimuli_target_diamondsquares.svg	stimuli_distractor_trianglediamonds.svg	20	yes	44	1	415	0	0			0	0			1				0	
6.6.1	win	2023-07-07	11:03:19	11:09:07	344050	5e2f65a3be23b2525a9b4d97	4	1	main_z	7	advance_on_keypress_ZEE	108	stimuli_target_diamondsquares.svg	stimuli_distractor_trianglediamonds.svg	20	yes	57	0	350	0	0			0	0			1				0	
6.6.1	win	2023-07-07	11:03:19	11:09:09	345537	5e2f65a3be23b2525a9b4d97	4	1	main_z	7	main_z	109	stimuli_target_rectanglediamonds.svg	stimuli_distractor_diamondtriangles.svg	6	yes	44	1	486	0	0			0	0			1				0	
6.6.1	win	2023-07-07	11:03:19	11:09:09	345537	5e2f65a3be23b2525a9b4d97	4	1	main_z	7	advance_on_keypress_ZEE	110	stimuli_target_rectanglediamonds.svg	stimuli_distractor_diamondtriangles.svg	6	yes	57	0	338	0	0			0	0			1				0	
6.6.1	win	2023-07-07	11:03:19	11:09:10	347114	5e2f65a3be23b2525a9b4d97	4	1	main_z	7	main_z	111	stimuli_distractor_trianglediamonds.svg	stimuli_target_diamondsquares.svg	28	yes	44	1	596	0	0			0	0			1				0	
6.6.1	win	2023-07-07	11:03:19	11:09:10	347114	5e2f65a3be23b2525a9b4d97	4	1	main_z	7	advance_on_keypress_ZEE	112	stimuli_distractor_trianglediamonds.svg	stimuli_target_diamondsquares.svg	28	yes	57	0	387	0	0			0	0			1				0	
6.6.1	win	2023-07-07	11:03:19	11:09:12	348625	5e2f65a3be23b2525a9b4d97	4	1	main_z	7	main_z	113	stimuli_target_diamondrectangles.svg	stimuli_distractor_trianglediamonds.svg	19	yes	44	1	474	0	0			0	0			1				0	
6.6.1	win	2023-07-07	11:03:19	11:09:12	348625	5e2f65a3be23b2525a9b4d97	4	1	main_z	7	advance_on_keypress_ZEE	114	stimuli_target_diamondrectangles.svg	stimuli_distractor_trianglediamonds.svg	19	yes	57	0	335	0	0			0	0			1				0	
6.6.1	win	2023-07-07	11:03:19	11:09:14	350369	5e2f65a3be23b2525a9b4d97	4	1	main_z	7	main_z	115	stimuli_distractor_trianglediamonds.svg	stimuli_target_trianglesquares.svg	26	yes	44	1	769	0	0			0	0			1				0	
6.6.1	win	2023-07-07	11:03:19	11:09:14	350369	5e2f65a3be23b2525a9b4d97	4	1	main_z	7	advance_on_keypress_ZEE	116	stimuli_distractor_trianglediamonds.svg	stimuli_target_trianglesquares.svg	26	yes	57	0	361	0	0			0	0			1				0	
6.6.1	win	2023-07-07	11:03:19	11:09:17	353384	5e2f65a3be23b2525a9b4d97	4	1	main_z	7	main_z	117	stimuli_distractor_trianglediamonds.svg	stimuli_distractor_trianglediamonds.svg	34	no	0	1	2000	0	0			0	0			1				0	
6.6.1	win	2023-07-07	11:03:19	11:09:17	353384	5e2f65a3be23b2525a9b4d97	4	1	main_z	7	advance_on_keypress_ZEE	118	stimuli_distractor_trianglediamonds.svg	stimuli_distractor_trianglediamonds.svg	34	no	57	0	417	0	0			0	0			1				0	
6.6.1	win	2023-07-07	11:03:19	11:09:18	354889	5e2f65a3be23b2525a9b4d97	4	1	main_z	7	main_z	119	stimuli_target_trianglesquares.svg	stimuli_distractor_trianglediamonds.svg	18	yes	44	1	439	0	0			0	0			1				0	
6.6.1	win	2023-07-07	11:03:19	11:09:18	354889	5e2f65a3be23b2525a9b4d97	4	1	main_z	7	advance_on_keypress_ZEE	120	stimuli_target_trianglesquares.svg	stimuli_distractor_trianglediamonds.svg	18	yes	57	0	349	0	0			0	0			1				0	
6.6.1	win	2023-07-07	11:03:19	11:09:21	357425	5e2f65a3be23b2525a9b4d97	4	1	main_z	7	main_z	121	stimuli_distractor_diamondtriangles.svg	stimuli_distractor_trianglediamonds.svg	37	no	44	0	1541	0	0			0	0			1				0	
6.6.1	win	2023-07-07	11:03:19	11:09:21	357425	5e2f65a3be23b2525a9b4d97	4	1	main_z	7	advance_on_keypress_ZEE	122	stimuli_distractor_diamondtriangles.svg	stimuli_distractor_trianglediamonds.svg	37	no	57	0	343	0	0			0	0			1				0	
6.6.1	win	2023-07-07	11:03:19	11:09:24	360401	5e2f65a3be23b2525a9b4d97	4	1	main_z	7	main_z	123	stimuli_distractor_trianglediamonds.svg	stimuli_distractor_diamondtriangles.svg	35	no	0	1	2000	0	0			0	0			1				0	
6.6.1	win	2023-07-07	11:03:19	11:09:24	360401	5e2f65a3be23b2525a9b4d97	4	1	main_z	7	advance_on_keypress_ZEE	124	stimuli_distractor_trianglediamonds.svg	stimuli_distractor_diamondtriangles.svg	35	no	57	0	672	0	0			0	0			1				0	
6.6.1	win	2023-07-07	11:03:19	11:09:25	362145	5e2f65a3be23b2525a9b4d97	4	1	main_z	7	main_z	125	stimuli_target_squarediamonds.svg	stimuli_distractor_diamondtriangles.svg	8	yes	44	1	428	0	0			0	0			1				0	
6.6.1	win	2023-07-07	11:03:19	11:09:25	362145	5e2f65a3be23b2525a9b4d97	4	1	main_z	7	advance_on_keypress_ZEE	126	stimuli_target_squarediamonds.svg	stimuli_distractor_diamondtriangles.svg	8	yes	57	0	346	0	0			0	0			1				0	
6.6.1	win	2023-07-07	11:03:19	11:09:27	363569	5e2f65a3be23b2525a9b4d97	4	1	main_z	7	main_z	127	stimuli_target_trianglerectangles.svg	stimuli_distractor_trianglediamonds.svg	17	yes	44	1	419	0	0			0	0			1				0	
6.6.1	win	2023-07-07	11:03:19	11:09:27	363569	5e2f65a3be23b2525a9b4d97	4	1	main_z	7	advance_on_keypress_ZEE	128	stimuli_target_trianglerectangles.svg	stimuli_distractor_trianglediamonds.svg	17	yes	57	0	345	0	0			0	0			1				0	
6.6.1	win	2023-07-07	11:03:19	11:09:28	365017	5e2f65a3be23b2525a9b4d97	4	1	main_z	7	main_z	129	stimuli_distractor_diamondtriangles.svg	stimuli_target_trianglesquares.svg	30	yes	44	1	450	0	0			0	0			1				0	
6.6.1	win	2023-07-07	11:03:19	11:09:28	365017	5e2f65a3be23b2525a9b4d97	4	1	main_z	7	advance_on_keypress_ZEE	130	stimuli_distractor_diamondtriangles.svg	stimuli_target_trianglesquares.svg	30	yes	57	0	383	0	0			0	0			1				0	
6.6.1	win	2023-07-07	11:03:19	11:09:31	368051	5e2f65a3be23b2525a9b4d97	4	1	main_z	7	main_z	131	stimuli_distractor_trianglediamonds.svg	stimuli_distractor_diamondtriangles.svg	36	no	0	1	2000	0	0			0	0			1				0	
6.6.1	win	2023-07-07	11:03:19	11:09:31	368051	5e2f65a3be23b2525a9b4d97	4	1	main_z	7	advance_on_keypress_ZEE	132	stimuli_distractor_trianglediamonds.svg	stimuli_distractor_diamondtriangles.svg	36	no	57	0	414	0	0			0	0			1				0	
6.6.1	win	2023-07-07	11:03:19	11:09:33	369689	5e2f65a3be23b2525a9b4d97	4	1	main_z	7	main_z	133	stimuli_distractor_diamondtriangles.svg	stimuli_target_trianglerectangles.svg	29	yes	44	1	572	0	0			0	0			1				0	
6.6.1	win	2023-07-07	11:03:19	11:09:33	369689	5e2f65a3be23b2525a9b4d97	4	1	main_z	7	advance_on_keypress_ZEE	134	stimuli_distractor_diamondtriangles.svg	stimuli_target_trianglerectangles.svg	29	yes	57	0	381	0	0			0	0			1				0	
6.6.1	win	2023-07-07	11:03:19	11:09:36	372717	5e2f65a3be23b2525a9b4d97	4	1	main_z	7	main_z	135	stimuli_distractor_trianglediamonds.svg	stimuli_target_squarediamonds.svg	12	yes	0	0	2000	0	0			0	0			1				0	
6.6.1	win	2023-07-07	11:03:19	11:09:36	372717	5e2f65a3be23b2525a9b4d97	4	1	main_z	7	advance_on_keypress_ZEE	136	stimuli_distractor_trianglediamonds.svg	stimuli_target_squarediamonds.svg	12	yes	57	0	667	0	0			0	0			1				0	
6.6.1	win	2023-07-07	11:03:19	11:09:39	376034	5e2f65a3be23b2525a9b4d97	4	1	main_z	7	main_z	137	stimuli_distractor_trianglediamonds.svg	stimuli_distractor_trianglediamonds.svg	33	no	0	1	2000	0	0			0	0			1				0	
6.6.1	win	2023-07-07	11:03:19	11:09:39	376034	5e2f65a3be23b2525a9b4d97	4	1	main_z	7	advance_on_keypress_ZEE	138	stimuli_distractor_trianglediamonds.svg	stimuli_distractor_trianglediamonds.svg	33	no	57	0	479	0	0			0	0			1				0	
6.6.1	win	2023-07-07	11:03:19	11:09:41	377649	5e2f65a3be23b2525a9b4d97	4	1	main_z	7	main_z	139	stimuli_distractor_diamondtriangles.svg	stimuli_target_rectanglediamonds.svg	14	yes	44	1	482	0	0			0	0			1				0	
6.6.1	win	2023-07-07	11:03:19	11:09:41	377649	5e2f65a3be23b2525a9b4d97	4	1	main_z	7	advance_on_keypress_ZEE	140	stimuli_distractor_diamondtriangles.svg	stimuli_target_rectanglediamonds.svg	14	yes	57	0	398	0	0			0	0			1				0	
6.6.1	win	2023-07-07	11:03:19	11:09:43	379337	5e2f65a3be23b2525a9b4d97	4	1	main_z	7	main_z	141	stimuli_distractor_trianglediamonds.svg	stimuli_target_rectangletriangles.svg	9	yes	44	1	637	0	0			0	0			1				0	
6.6.1	win	2023-07-07	11:03:19	11:09:43	379337	5e2f65a3be23b2525a9b4d97	4	1	main_z	7	advance_on_keypress_ZEE	142	stimuli_distractor_trianglediamonds.svg	stimuli_target_rectangletriangles.svg	9	yes	57	0	394	0	0			0	0			1				0	
6.6.1	win	2023-07-07	11:03:19	11:09:44	380801	5e2f65a3be23b2525a9b4d97	4	1	main_z	7	main_z	143	stimuli_target_rectangletriangles.svg	stimuli_distractor_trianglediamonds.svg	1	yes	44	1	418	0	0			0	0			1				0	
6.6.1	win	2023-07-07	11:03:19	11:09:44	380801	5e2f65a3be23b2525a9b4d97	4	1	main_z	7	advance_on_keypress_ZEE	144	stimuli_target_rectangletriangles.svg	stimuli_distractor_trianglediamonds.svg	1	yes	57	0	336	0	0			0	0			1				0	
6.6.1	win	2023-07-07	11:03:19	11:09:46	382441	5e2f65a3be23b2525a9b4d97	4	1	main_z	7	main_z	145	stimuli_distractor_trianglediamonds.svg	stimuli_target_diamondrectangles.svg	27	yes	44	1	656	0	0			0	0			1				0	
6.6.1	win	2023-07-07	11:03:19	11:09:46	382441	5e2f65a3be23b2525a9b4d97	4	1	main_z	7	advance_on_keypress_ZEE	146	stimuli_distractor_trianglediamonds.svg	stimuli_target_diamondrectangles.svg	27	yes	57	0	414	0	0			0	0			1				0	
6.6.1	win	2023-07-07	11:03:19	11:09:49	385501	5e2f65a3be23b2525a9b4d97	4	1	main_z	7	main_z	147	stimuli_distractor_diamondtriangles.svg	stimuli_distractor_trianglediamonds.svg	38	no	0	1	2000	0	0			0	0			1				0	
6.6.1	win	2023-07-07	11:03:19	11:09:49	385501	5e2f65a3be23b2525a9b4d97	4	1	main_z	7	advance_on_keypress_ZEE	148	stimuli_distractor_diamondtriangles.svg	stimuli_distractor_trianglediamonds.svg	38	no	57	0	652	0	0			0	0			1				0	
6.6.1	win	2023-07-07	11:03:19	11:09:50	387233	5e2f65a3be23b2525a9b4d97	4	1	main_z	7	main_z	149	stimuli_target_squarediamonds.svg	stimuli_distractor_trianglediamonds.svg	4	yes	44	1	433	0	0			0	0			1				0	
6.6.1	win	2023-07-07	11:03:19	11:09:50	387233	5e2f65a3be23b2525a9b4d97	4	1	main_z	7	advance_on_keypress_ZEE	150	stimuli_target_squarediamonds.svg	stimuli_distractor_trianglediamonds.svg	4	yes	57	0	326	0	0			0	0			1				0	
6.6.1	win	2023-07-07	11:03:19	11:09:52	388633	5e2f65a3be23b2525a9b4d97	4	1	main_z	7	main_z	151	stimuli_distractor_diamondtriangles.svg	stimuli_target_diamondrectangles.svg	31	yes	44	1	432	0	0			0	0			1				0	
6.6.1	win	2023-07-07	11:03:19	11:09:52	388633	5e2f65a3be23b2525a9b4d97	4	1	main_z	7	advance_on_keypress_ZEE	152	stimuli_distractor_diamondtriangles.svg	stimuli_target_diamondrectangles.svg	31	yes	57	0	359	0	0			0	0			1				0	
6.6.1	win	2023-07-07	11:03:19	11:09:54	390393	5e2f65a3be23b2525a9b4d97	4	1	main_z	7	main_z	153	stimuli_target_squaretriangles.svg	stimuli_distractor_trianglediamonds.svg	3	yes	44	1	758	0	0			0	0			1				0	
6.6.1	win	2023-07-07	11:03:19	11:09:54	390393	5e2f65a3be23b2525a9b4d97	4	1	main_z	7	advance_on_keypress_ZEE	154	stimuli_target_squaretriangles.svg	stimuli_distractor_trianglediamonds.svg	3	yes	57	0	352	0	0			0	0			1				0	
6.6.1	win	2023-07-07	11:03:19	11:09:55	391793	5e2f65a3be23b2525a9b4d97	4	1	main_z	7	main_z	155	stimuli_target_rectangletriangles.svg	stimuli_distractor_diamondtriangles.svg	5	yes	44	1	410	0	0			0	0			1				0	
6.6.1	win	2023-07-07	11:03:19	11:09:55	391793	5e2f65a3be23b2525a9b4d97	4	1	main_z	7	advance_on_keypress_ZEE	156	stimuli_target_rectangletriangles.svg	stimuli_distractor_diamondtriangles.svg	5	yes	57	0	360	0	0			0	0			1				0	
6.6.1	win	2023-07-07	11:03:19	11:09:58	394784	5e2f65a3be23b2525a9b4d97	4	1	main_z	7	main_z	157	stimuli_distractor_diamondtriangles.svg	stimuli_distractor_diamondtriangles.svg	40	no	0	1	2000	0	0			0	0			1				0	
6.6.1	win	2023-07-07	11:03:19	11:09:58	394784	5e2f65a3be23b2525a9b4d97	4	1	main_z	7	advance_on_keypress_ZEE	158	stimuli_distractor_diamondtriangles.svg	stimuli_distractor_diamondtriangles.svg	40	no	57	0	577	0	0			0	0			1				0	
6.6.1	win	2023-07-07	11:03:19	11:10:00	396425	5e2f65a3be23b2525a9b4d97	4	1	main_z	7	main_z	159	stimuli_target_diamondsquares.svg	stimuli_distractor_diamondtriangles.svg	24	yes	44	1	424	0	0			0	0			1				0	
6.6.1	win	2023-07-07	11:03:19	11:10:00	396425	5e2f65a3be23b2525a9b4d97	4	1	main_z	7	advance_on_keypress_ZEE	160	stimuli_target_diamondsquares.svg	stimuli_distractor_diamondtriangles.svg	24	yes	57	0	352	0	0			0	0			1				0	
6.6.1	win	2023-07-07	11:03:19	11:10:23	419797	5e2f65a3be23b2525a9b4d97	4	1	practice_slash	9	practice_slash	1	stimuli_target_rectanglediamonds.svg	stimuli_distractor_diamondtriangles.svg	1	yes	53	1	442	0	0			0	0			1				0	
6.6.1	win	2023-07-07	11:03:19	11:10:23	419797	5e2f65a3be23b2525a9b4d97	4	1	practice_slash	9	advance_on_keypress_SLASH	2	stimuli_target_rectanglediamonds.svg	stimuli_distractor_diamondtriangles.svg	1	yes	57	0	463	0	0			0	0			1				0	
6.6.1	win	2023-07-07	11:03:19	11:10:26	422451	5e2f65a3be23b2525a9b4d97	4	1	practice_slash	9	practice_slash	3	stimuli_target_diamondsquares.svg	stimuli_distractor_diamondtriangles.svg	3	yes	53	1	508	0	0			0	0			1				0	
6.6.1	win	2023-07-07	11:03:19	11:10:26	422451	5e2f65a3be23b2525a9b4d97	4	1	practice_slash	9	advance_on_keypress_SLASH	4	stimuli_target_diamondsquares.svg	stimuli_distractor_diamondtriangles.svg	3	yes	57	0	365	0	0			0	0			1				0	
6.6.1	win	2023-07-07	11:03:19	11:10:28	424924	5e2f65a3be23b2525a9b4d97	4	1	practice_slash	9	practice_slash	5	stimuli_target_squarediamonds.svg	stimuli_distractor_trianglediamonds.svg	5	yes	53	1	454	0	0			0	0			1				0	
6.6.1	win	2023-07-07	11:03:19	11:10:28	424924	5e2f65a3be23b2525a9b4d97	4	1	practice_slash	9	advance_on_keypress_SLASH	6	stimuli_target_squarediamonds.svg	stimuli_distractor_trianglediamonds.svg	5	yes	57	0	347	0	0			0	0			1				0	
6.6.1	win	2023-07-07	11:03:19	11:10:31	427492	5e2f65a3be23b2525a9b4d97	4	1	practice_slash	9	practice_slash	7	stimuli_distractor_diamondtriangles.svg	stimuli_target_diamondrectangles.svg	8	yes	53	1	572	0	0			0	0			1				0	
6.6.1	win	2023-07-07	11:03:19	11:10:31	427492	5e2f65a3be23b2525a9b4d97	4	1	practice_slash	9	advance_on_keypress_SLASH	8	stimuli_distractor_diamondtriangles.svg	stimuli_target_diamondrectangles.svg	8	yes	57	0	349	0	0			0	0			1				0	
6.6.1	win	2023-07-07	11:03:19	11:10:33	430037	5e2f65a3be23b2525a9b4d97	4	1	practice_slash	9	practice_slash	9	stimuli_target_squarediamonds.svg	stimuli_distractor_diamondtriangles.svg	2	yes	53	1	549	0	0			0	0			1				0	
6.6.1	win	2023-07-07	11:03:19	11:10:33	430037	5e2f65a3be23b2525a9b4d97	4	1	practice_slash	9	advance_on_keypress_SLASH	10	stimuli_target_squarediamonds.svg	stimuli_distractor_diamondtriangles.svg	2	yes	57	0	334	0	0			0	0			1				0	
6.6.1	win	2023-07-07	11:03:19	11:10:36	433085	5e2f65a3be23b2525a9b4d97	4	1	practice_slash	9	practice_slash	11	stimuli_distractor_diamondtriangles.svg	stimuli_target_rectangletriangles.svg	7	yes	53	1	1064	0	0			0	0			1				0	
6.6.1	win	2023-07-07	11:03:19	11:10:36	433085	5e2f65a3be23b2525a9b4d97	4	1	practice_slash	9	advance_on_keypress_SLASH	12	stimuli_distractor_diamondtriangles.svg	stimuli_target_rectangletriangles.svg	7	yes	57	0	380	0	0			0	0			1				0	
6.6.1	win	2023-07-07	11:03:19	11:10:39	435773	5e2f65a3be23b2525a9b4d97	4	1	practice_slash	9	practice_slash	13	stimuli_distractor_trianglediamonds.svg	stimuli_target_rectanglediamonds.svg	10	yes	53	1	652	0	0			0	0			1				0	
6.6.1	win	2023-07-07	11:03:19	11:10:39	435773	5e2f65a3be23b2525a9b4d97	4	1	practice_slash	9	advance_on_keypress_SLASH	14	stimuli_distractor_trianglediamonds.svg	stimuli_target_rectanglediamonds.svg	10	yes	57	0	345	0	0			0	0			1				0	
6.6.1	win	2023-07-07	11:03:19	11:10:43	439771	5e2f65a3be23b2525a9b4d97	4	1	practice_slash	9	practice_slash	15	stimuli_distractor_trianglediamonds.svg	stimuli_distractor_diamondtriangles.svg	16	no	0	1	2000	0	0			0	0			1				0	
6.6.1	win	2023-07-07	11:03:19	11:10:43	439771	5e2f65a3be23b2525a9b4d97	4	1	practice_slash	9	advance_on_keypress_SLASH	16	stimuli_distractor_trianglediamonds.svg	stimuli_distractor_diamondtriangles.svg	16	no	57	0	745	0	0			0	0			1				0	
6.6.1	win	2023-07-07	11:03:19	11:10:47	444171	5e2f65a3be23b2525a9b4d97	4	1	practice_slash	9	practice_slash	17	stimuli_distractor_diamondtriangles.svg	stimuli_distractor_diamondtriangles.svg	13	no	0	1	2000	0	0			0	0			1				0	
6.6.1	win	2023-07-07	11:03:19	11:10:47	444171	5e2f65a3be23b2525a9b4d97	4	1	practice_slash	9	advance_on_keypress_SLASH	18	stimuli_distractor_diamondtriangles.svg	stimuli_distractor_diamondtriangles.svg	13	no	57	0	657	0	0			0	0			1				0	
6.6.1	win	2023-07-07	11:03:19	11:10:52	448471	5e2f65a3be23b2525a9b4d97	4	1	practice_slash	9	practice_slash	19	stimuli_distractor_diamondtriangles.svg	stimuli_distractor_trianglediamonds.svg	14	no	0	1	2000	0	0			0	0			1				0	
6.6.1	win	2023-07-07	11:03:19	11:10:52	448471	5e2f65a3be23b2525a9b4d97	4	1	practice_slash	9	advance_on_keypress_SLASH	20	stimuli_distractor_diamondtriangles.svg	stimuli_distractor_trianglediamonds.svg	14	no	57	0	685	0	0			0	0			1				0	
6.6.1	win	2023-07-07	11:03:19	11:10:56	452804	5e2f65a3be23b2525a9b4d97	4	1	practice_slash	9	practice_slash	21	stimuli_distractor_trianglediamonds.svg	stimuli_distractor_trianglediamonds.svg	15	no	0	1	2000	0	0			0	0			1				0	
6.6.1	win	2023-07-07	11:03:19	11:10:56	452804	5e2f65a3be23b2525a9b4d97	4	1	practice_slash	9	advance_on_keypress_SLASH	22	stimuli_distractor_trianglediamonds.svg	stimuli_distractor_trianglediamonds.svg	15	no	57	0	824	0	0			0	0			1				0	
6.6.1	win	2023-07-07	11:03:19	11:10:59	455764	5e2f65a3be23b2525a9b4d97	4	1	practice_slash	9	practice_slash	23	stimuli_distractor_trianglediamonds.svg	stimuli_target_diamondrectangles.svg	12	yes	53	1	494	0	0			0	0			1				0	
6.6.1	win	2023-07-07	11:03:19	11:10:59	455764	5e2f65a3be23b2525a9b4d97	4	1	practice_slash	9	advance_on_keypress_SLASH	24	stimuli_distractor_trianglediamonds.svg	stimuli_target_diamondrectangles.svg	12	yes	57	0	385	0	0			0	0			1				0	
6.6.1	win	2023-07-07	11:03:19	11:11:02	458348	5e2f65a3be23b2525a9b4d97	4	1	practice_slash	9	practice_slash	25	stimuli_distractor_diamondtriangles.svg	stimuli_target_trianglerectangles.svg	9	yes	53	1	544	0	0			0	0			1				0	
6.6.1	win	2023-07-07	11:03:19	11:11:02	458348	5e2f65a3be23b2525a9b4d97	4	1	practice_slash	9	advance_on_keypress_SLASH	26	stimuli_distractor_diamondtriangles.svg	stimuli_target_trianglerectangles.svg	9	yes	57	0	714	0	0			0	0			1				0	
6.6.1	win	2023-07-07	11:03:19	11:11:05	461372	5e2f65a3be23b2525a9b4d97	4	1	practice_slash	9	practice_slash	27	stimuli_target_rectanglediamonds.svg	stimuli_distractor_trianglediamonds.svg	4	yes	53	1	652	0	0			0	0			1				0	
6.6.1	win	2023-07-07	11:03:19	11:11:05	461372	5e2f65a3be23b2525a9b4d97	4	1	practice_slash	9	advance_on_keypress_SLASH	28	stimuli_target_rectanglediamonds.svg	stimuli_distractor_trianglediamonds.svg	4	yes	57	0	329	0	0			0	0			1				0	
6.6.1	win	2023-07-07	11:03:19	11:11:07	463924	5e2f65a3be23b2525a9b4d97	4	1	practice_slash	9	practice_slash	29	stimuli_target_diamondsquares.svg	stimuli_distractor_trianglediamonds.svg	6	yes	53	1	570	0	0			0	0			1				0	
6.6.1	win	2023-07-07	11:03:19	11:11:07	463924	5e2f65a3be23b2525a9b4d97	4	1	practice_slash	9	advance_on_keypress_SLASH	30	stimuli_target_diamondsquares.svg	stimuli_distractor_trianglediamonds.svg	6	yes	57	0	315	0	0			0	0			1				0	
6.6.1	win	2023-07-07	11:03:19	11:11:10	466700	5e2f65a3be23b2525a9b4d97	4	1	practice_slash	9	practice_slash	31	stimuli_distractor_trianglediamonds.svg	stimuli_target_squarediamonds.svg	11	yes	53	1	813	0	0			0	0			1				0	
6.6.1	win	2023-07-07	11:03:19	11:11:10	466700	5e2f65a3be23b2525a9b4d97	4	1	practice_slash	9	advance_on_keypress_SLASH	32	stimuli_distractor_trianglediamonds.svg	stimuli_target_squarediamonds.svg	11	yes	57	0	364	0	0			0	0			1				0	
6.6.1	win	2023-07-07	11:03:19	11:11:15	471649	5e2f65a3be23b2525a9b4d97	4	1	main_slash	11	main_slash	1	stimuli_distractor_diamondtriangles.svg	stimuli_target_diamondsquares.svg	32	yes	53	1	549	0	0			0	0			1				0	
6.6.1	win	2023-07-07	11:03:19	11:11:15	471649	5e2f65a3be23b2525a9b4d97	4	1	main_slash	11	advance_on_keypress_SLASH	2	stimuli_distractor_diamondtriangles.svg	stimuli_target_diamondsquares.svg	32	yes	57	0	398	0	0			0	0			1				0	
6.6.1	win	2023-07-07	11:03:19	11:11:16	473144	5e2f65a3be23b2525a9b4d97	4	1	main_slash	11	main_slash	3	stimuli_distractor_trianglediamonds.svg	stimuli_target_squaretriangles.svg	11	yes	53	1	445	0	0			0	0			1				0	
6.6.1	win	2023-07-07	11:03:19	11:11:16	473144	5e2f65a3be23b2525a9b4d97	4	1	main_slash	11	advance_on_keypress_SLASH	4	stimuli_distractor_trianglediamonds.svg	stimuli_target_squaretriangles.svg	11	yes	57	0	370	0	0			0	0			1				0	
6.6.1	win	2023-07-07	11:03:19	11:11:18	474648	5e2f65a3be23b2525a9b4d97	4	1	main_slash	11	main_slash	5	stimuli_target_squaretriangles.svg	stimuli_distractor_diamondtriangles.svg	7	yes	53	1	481	0	0			0	0			1				0	
6.6.1	win	2023-07-07	11:03:19	11:11:18	474648	5e2f65a3be23b2525a9b4d97	4	1	main_slash	11	advance_on_keypress_SLASH	6	stimuli_target_squaretriangles.svg	stimuli_distractor_diamondtriangles.svg	7	yes	57	0	382	0	0			0	0			1				0	
6.6.1	win	2023-07-07	11:03:19	11:11:19	476296	5e2f65a3be23b2525a9b4d97	4	1	main_slash	11	main_slash	7	stimuli_target_squarediamonds.svg	stimuli_distractor_trianglediamonds.svg	4	yes	53	1	613	0	0			0	0			1				0	
6.6.1	win	2023-07-07	11:03:19	11:11:19	476296	5e2f65a3be23b2525a9b4d97	4	1	main_slash	11	advance_on_keypress_SLASH	8	stimuli_target_squarediamonds.svg	stimuli_distractor_trianglediamonds.svg	4	yes	57	0	372	0	0			0	0			1				0	
6.6.1	win	2023-07-07	11:03:19	11:11:21	477984	5e2f65a3be23b2525a9b4d97	4	1	main_slash	11	main_slash	9	stimuli_distractor_diamondtriangles.svg	stimuli_target_squarediamonds.svg	16	yes	53	1	668	0	0			0	0			1				0	
6.6.1	win	2023-07-07	11:03:19	11:11:21	477984	5e2f65a3be23b2525a9b4d97	4	1	main_slash	11	advance_on_keypress_SLASH	10	stimuli_distractor_diamondtriangles.svg	stimuli_target_squarediamonds.svg	16	yes	57	0	537	0	0			0	0			1				0	
6.6.1	win	2023-07-07	11:03:19	11:11:23	479817	5e2f65a3be23b2525a9b4d97	4	1	main_slash	11	main_slash	11	stimuli_target_trianglerectangles.svg	stimuli_distractor_trianglediamonds.svg	17	yes	53	1	650	0	0			0	0			1				0	
6.6.1	win	2023-07-07	11:03:19	11:11:23	479817	5e2f65a3be23b2525a9b4d97	4	1	main_slash	11	advance_on_keypress_SLASH	12	stimuli_target_trianglerectangles.svg	stimuli_distractor_trianglediamonds.svg	17	yes	57	0	399	0	0			0	0			1				0	
6.6.1	win	2023-07-07	11:03:19	11:11:25	481528	5e2f65a3be23b2525a9b4d97	4	1	main_slash	11	main_slash	13	stimuli_distractor_diamondtriangles.svg	stimuli_target_squaretriangles.svg	15	yes	53	1	662	0	0			0	0			1				0	
6.6.1	win	2023-07-07	11:03:19	11:11:25	481528	5e2f65a3be23b2525a9b4d97	4	1	main_slash	11	advance_on_keypress_SLASH	14	stimuli_distractor_diamondtriangles.svg	stimuli_target_squaretriangles.svg	15	yes	57	0	331	0	0			0	0			1				0	
6.6.1	win	2023-07-07	11:03:19	11:11:26	483008	5e2f65a3be23b2525a9b4d97	4	1	main_slash	11	main_slash	15	stimuli_target_rectangletriangles.svg	stimuli_distractor_diamondtriangles.svg	5	yes	53	1	492	0	0			0	0			1				0	
6.6.1	win	2023-07-07	11:03:19	11:11:26	483008	5e2f65a3be23b2525a9b4d97	4	1	main_slash	11	advance_on_keypress_SLASH	16	stimuli_target_rectangletriangles.svg	stimuli_distractor_diamondtriangles.svg	5	yes	57	0	392	0	0			0	0			1				0	
6.6.1	win	2023-07-07	11:03:19	11:11:28	484824	5e2f65a3be23b2525a9b4d97	4	1	main_slash	11	main_slash	17	stimuli_distractor_trianglediamonds.svg	stimuli_target_diamondrectangles.svg	27	yes	53	1	790	0	0			0	0			1				0	
6.6.1	win	2023-07-07	11:03:19	11:11:28	484824	5e2f65a3be23b2525a9b4d97	4	1	main_slash	11	advance_on_keypress_SLASH	18	stimuli_distractor_trianglediamonds.svg	stimuli_target_diamondrectangles.svg	27	yes	57	0	383	0	0			0	0			1				0	
6.6.1	win	2023-07-07	11:03:19	11:11:31	487850	5e2f65a3be23b2525a9b4d97	4	1	main_slash	11	main_slash	19	stimuli_distractor_trianglediamonds.svg	stimuli_distractor_diamondtriangles.svg	36	no	0	1	2000	0	0			0	0			1				0	
6.6.1	win	2023-07-07	11:03:19	11:11:31	487850	5e2f65a3be23b2525a9b4d97	4	1	main_slash	11	advance_on_keypress_SLASH	20	stimuli_distractor_trianglediamonds.svg	stimuli_distractor_diamondtriangles.svg	36	no	57	0	414	0	0			0	0			1				0	
6.6.1	win	2023-07-07	11:03:19	11:11:34	490917	5e2f65a3be23b2525a9b4d97	4	1	main_slash	11	main_slash	21	stimuli_distractor_diamondtriangles.svg	stimuli_distractor_trianglediamonds.svg	38	no	0	1	2000	0	0			0	0			1				0	
6.6.1	win	2023-07-07	11:03:19	11:11:34	490917	5e2f65a3be23b2525a9b4d97	4	1	main_slash	11	advance_on_keypress_SLASH	22	stimuli_distractor_diamondtriangles.svg	stimuli_distractor_trianglediamonds.svg	38	no	57	0	475	0	0			0	0			1				0	
6.6.1	win	2023-07-07	11:03:19	11:11:36	492497	5e2f65a3be23b2525a9b4d97	4	1	main_slash	11	main_slash	23	stimuli_distractor_trianglediamonds.svg	stimuli_target_rectanglediamonds.svg	10	yes	53	1	463	0	0			0	0			1				0	
6.6.1	win	2023-07-07	11:03:19	11:11:36	492497	5e2f65a3be23b2525a9b4d97	4	1	main_slash	11	advance_on_keypress_SLASH	24	stimuli_distractor_trianglediamonds.svg	stimuli_target_rectanglediamonds.svg	10	yes	57	0	372	0	0			0	0			1				0	
6.6.1	win	2023-07-07	11:03:19	11:11:39	495517	5e2f65a3be23b2525a9b4d97	4	1	main_slash	11	main_slash	25	stimuli_distractor_diamondtriangles.svg	stimuli_distractor_diamondtriangles.svg	39	no	0	1	2000	0	0			0	0			1				0	
6.6.1	win	2023-07-07	11:03:19	11:11:39	495517	5e2f65a3be23b2525a9b4d97	4	1	main_slash	11	advance_on_keypress_SLASH	26	stimuli_distractor_diamondtriangles.svg	stimuli_distractor_diamondtriangles.svg	39	no	57	0	699	0	0			0	0			1				0	
6.6.1	win	2023-07-07	11:03:19	11:11:42	498867	5e2f65a3be23b2525a9b4d97	4	1	main_slash	11	main_slash	27	stimuli_distractor_diamondtriangles.svg	stimuli_distractor_diamondtriangles.svg	40	no	0	1	2000	0	0			0	0			1				0	
6.6.1	win	2023-07-07	11:03:19	11:11:42	498867	5e2f65a3be23b2525a9b4d97	4	1	main_slash	11	advance_on_keypress_SLASH	28	stimuli_distractor_diamondtriangles.svg	stimuli_distractor_diamondtriangles.svg	40	no	57	0	373	0	0			0	0			1				0	
6.6.1	win	2023-07-07	11:03:19	11:11:43	500304	5e2f65a3be23b2525a9b4d97	4	1	main_slash	11	main_slash	29	stimuli_distractor_diamondtriangles.svg	stimuli_target_rectanglediamonds.svg	14	yes	53	1	421	0	0			0	0			1				0	
6.6.1	win	2023-07-07	11:03:19	11:11:43	500304	5e2f65a3be23b2525a9b4d97	4	1	main_slash	11	advance_on_keypress_SLASH	30	stimuli_distractor_diamondtriangles.svg	stimuli_target_rectanglediamonds.svg	14	yes	57	0	443	0	0			0	0			1				0	
6.6.1	win	2023-07-07	11:03:19	11:11:45	501913	5e2f65a3be23b2525a9b4d97	4	1	main_slash	11	main_slash	31	stimuli_target_trianglesquares.svg	stimuli_distractor_diamondtriangles.svg	22	yes	53	1	529	0	0			0	0			1				0	
6.6.1	win	2023-07-07	11:03:19	11:11:45	501913	5e2f65a3be23b2525a9b4d97	4	1	main_slash	11	advance_on_keypress_SLASH	32	stimuli_target_trianglesquares.svg	stimuli_distractor_diamondtriangles.svg	22	yes	57	0	363	0	0			0	0			1				0	
6.6.1	win	2023-07-07	11:03:19	11:11:47	503544	5e2f65a3be23b2525a9b4d97	4	1	main_slash	11	main_slash	33	stimuli_target_diamondrectangles.svg	stimuli_distractor_trianglediamonds.svg	19	yes	53	1	610	0	0			0	0			1				0	
6.6.1	win	2023-07-07	11:03:19	11:11:47	503544	5e2f65a3be23b2525a9b4d97	4	1	main_slash	11	advance_on_keypress_SLASH	34	stimuli_target_diamondrectangles.svg	stimuli_distractor_trianglediamonds.svg	19	yes	57	0	369	0	0			0	0			1				0	
6.6.1	win	2023-07-07	11:03:19	11:11:48	505128	5e2f65a3be23b2525a9b4d97	4	1	main_slash	11	main_slash	35	stimuli_target_rectanglediamonds.svg	stimuli_distractor_diamondtriangles.svg	6	yes	53	1	561	0	0			0	0			1				0	
6.6.1	win	2023-07-07	11:03:19	11:11:48	505128	5e2f65a3be23b2525a9b4d97	4	1	main_slash	11	advance_on_keypress_SLASH	36	stimuli_target_rectanglediamonds.svg	stimuli_distractor_diamondtriangles.svg	6	yes	57	0	379	0	0			0	0			1				0	
6.6.1	win	2023-07-07	11:03:19	11:11:50	506769	5e2f65a3be23b2525a9b4d97	4	1	main_slash	11	main_slash	37	stimuli_target_diamondrectangles.svg	stimuli_distractor_diamondtriangles.svg	23	yes	53	1	602	0	0			0	0			1				0	
6.6.1	win	2023-07-07	11:03:19	11:11:50	506769	5e2f65a3be23b2525a9b4d97	4	1	main_slash	11	advance_on_keypress_SLASH	38	stimuli_target_diamondrectangles.svg	stimuli_distractor_diamondtriangles.svg	23	yes	57	0	376	0	0			0	0			1				0	
6.6.1	win	2023-07-07	11:03:19	11:11:52	508392	5e2f65a3be23b2525a9b4d97	4	1	main_slash	11	main_slash	39	stimuli_target_trianglesquares.svg	stimuli_distractor_trianglediamonds.svg	18	yes	53	1	593	0	0			0	0			1				0	
6.6.1	win	2023-07-07	11:03:19	11:11:52	508392	5e2f65a3be23b2525a9b4d97	4	1	main_slash	11	advance_on_keypress_SLASH	40	stimuli_target_trianglesquares.svg	stimuli_distractor_trianglediamonds.svg	18	yes	57	0	392	0	0			0	0			1				0	
6.6.1	win	2023-07-07	11:03:19	11:11:53	509992	5e2f65a3be23b2525a9b4d97	4	1	main_slash	11	main_slash	41	stimuli_distractor_diamondtriangles.svg	stimuli_target_trianglerectangles.svg	29	yes	53	1	575	0	0			0	0			1				0	
6.6.1	win	2023-07-07	11:03:19	11:11:53	509992	5e2f65a3be23b2525a9b4d97	4	1	main_slash	11	advance_on_keypress_SLASH	42	stimuli_distractor_diamondtriangles.svg	stimuli_target_trianglerectangles.svg	29	yes	57	0	385	0	0			0	0			1				0	
6.6.1	win	2023-07-07	11:03:19	11:11:55	511784	5e2f65a3be23b2525a9b4d97	4	1	main_slash	11	main_slash	43	stimuli_distractor_trianglediamonds.svg	stimuli_target_trianglerectangles.svg	25	yes	53	1	767	0	0			0	0			1				0	
6.6.1	win	2023-07-07	11:03:19	11:11:55	511784	5e2f65a3be23b2525a9b4d97	4	1	main_slash	11	advance_on_keypress_SLASH	44	stimuli_distractor_trianglediamonds.svg	stimuli_target_trianglerectangles.svg	25	yes	57	0	360	0	0			0	0			1				0	
6.6.1	win	2023-07-07	11:03:19	11:11:58	514783	5e2f65a3be23b2525a9b4d97	4	1	main_slash	11	main_slash	45	stimuli_distractor_trianglediamonds.svg	stimuli_distractor_trianglediamonds.svg	34	no	0	1	2000	0	0			0	0			1				0	
6.6.1	win	2023-07-07	11:03:19	11:11:58	514783	5e2f65a3be23b2525a9b4d97	4	1	main_slash	11	advance_on_keypress_SLASH	46	stimuli_distractor_trianglediamonds.svg	stimuli_distractor_trianglediamonds.svg	34	no	57	0	377	0	0			0	0			1				0	
6.6.1	win	2023-07-07	11:03:19	11:12:00	516337	5e2f65a3be23b2525a9b4d97	4	1	main_slash	11	main_slash	47	stimuli_target_diamondsquares.svg	stimuli_distractor_trianglediamonds.svg	20	yes	53	1	537	0	0			0	0			1				0	
6.6.1	win	2023-07-07	11:03:19	11:12:00	516337	5e2f65a3be23b2525a9b4d97	4	1	main_slash	11	advance_on_keypress_SLASH	48	stimuli_target_diamondsquares.svg	stimuli_distractor_trianglediamonds.svg	20	yes	57	0	378	0	0			0	0			1				0	
6.6.1	win	2023-07-07	11:03:19	11:12:01	517968	5e2f65a3be23b2525a9b4d97	4	1	main_slash	11	main_slash	49	stimuli_target_rectanglediamonds.svg	stimuli_distractor_trianglediamonds.svg	2	yes	53	1	602	0	0			0	0			1				0	
6.6.1	win	2023-07-07	11:03:19	11:12:01	517968	5e2f65a3be23b2525a9b4d97	4	1	main_slash	11	advance_on_keypress_SLASH	50	stimuli_target_rectanglediamonds.svg	stimuli_distractor_trianglediamonds.svg	2	yes	57	0	370	0	0			0	0			1				0	
6.6.1	win	2023-07-07	11:03:19	11:12:04	520983	5e2f65a3be23b2525a9b4d97	4	1	main_slash	11	main_slash	51	stimuli_distractor_trianglediamonds.svg	stimuli_distractor_trianglediamonds.svg	33	no	0	1	2000	0	0			0	0			1				0	
6.6.1	win	2023-07-07	11:03:19	11:12:04	520983	5e2f65a3be23b2525a9b4d97	4	1	main_slash	11	advance_on_keypress_SLASH	52	stimuli_distractor_trianglediamonds.svg	stimuli_distractor_trianglediamonds.svg	33	no	57	0	640	0	0			0	0			1				0	
6.6.1	win	2023-07-07	11:03:19	11:12:06	522712	5e2f65a3be23b2525a9b4d97	4	1	main_slash	11	main_slash	53	stimuli_target_diamondsquares.svg	stimuli_distractor_diamondtriangles.svg	24	yes	53	1	445	0	0			0	0			1				0	
6.6.1	win	2023-07-07	11:03:19	11:12:06	522712	5e2f65a3be23b2525a9b4d97	4	1	main_slash	11	advance_on_keypress_SLASH	54	stimuli_target_diamondsquares.svg	stimuli_distractor_diamondtriangles.svg	24	yes	57	0	364	0	0			0	0			1				0	
6.6.1	win	2023-07-07	11:03:19	11:12:07	524184	5e2f65a3be23b2525a9b4d97	4	1	main_slash	11	main_slash	55	stimuli_distractor_trianglediamonds.svg	stimuli_target_squarediamonds.svg	12	yes	53	1	452	0	0			0	0			1				0	
6.6.1	win	2023-07-07	11:03:19	11:12:07	524184	5e2f65a3be23b2525a9b4d97	4	1	main_slash	11	advance_on_keypress_SLASH	56	stimuli_distractor_trianglediamonds.svg	stimuli_target_squarediamonds.svg	12	yes	57	0	352	0	0			0	0			1				0	
6.6.1	win	2023-07-07	11:03:19	11:12:09	525680	5e2f65a3be23b2525a9b4d97	4	1	main_slash	11	main_slash	57	stimuli_target_squarediamonds.svg	stimuli_distractor_diamondtriangles.svg	8	yes	53	1	498	0	0			0	0			1				0	
6.6.1	win	2023-07-07	11:03:19	11:12:09	525680	5e2f65a3be23b2525a9b4d97	4	1	main_slash	11	advance_on_keypress_SLASH	58	stimuli_target_squarediamonds.svg	stimuli_distractor_diamondtriangles.svg	8	yes	57	0	324	0	0			0	0			1				0	
6.6.1	win	2023-07-07	11:03:19	11:12:10	527180	5e2f65a3be23b2525a9b4d97	4	1	main_slash	11	main_slash	59	stimuli_distractor_trianglediamonds.svg	stimuli_target_diamondsquares.svg	28	yes	53	1	505	0	0			0	0			1				0	
6.6.1	win	2023-07-07	11:03:19	11:12:10	527180	5e2f65a3be23b2525a9b4d97	4	1	main_slash	11	advance_on_keypress_SLASH	60	stimuli_distractor_trianglediamonds.svg	stimuli_target_diamondsquares.svg	28	yes	57	0	296	0	0			0	0			1				0	
6.6.1	win	2023-07-07	11:03:19	11:12:12	528600	5e2f65a3be23b2525a9b4d97	4	1	main_slash	11	main_slash	61	stimuli_distractor_trianglediamonds.svg	stimuli_target_rectangletriangles.svg	9	yes	53	1	467	0	0			0	0			1				0	
6.6.1	win	2023-07-07	11:03:19	11:12:12	528600	5e2f65a3be23b2525a9b4d97	4	1	main_slash	11	advance_on_keypress_SLASH	62	stimuli_distractor_trianglediamonds.svg	stimuli_target_rectangletriangles.svg	9	yes	57	0	287	0	0			0	0			1				0	
6.6.1	win	2023-07-07	11:03:19	11:12:13	530032	5e2f65a3be23b2525a9b4d97	4	1	main_slash	11	main_slash	63	stimuli_distractor_diamondtriangles.svg	stimuli_target_rectangletriangles.svg	13	yes	53	1	499	0	0			0	0			1				0	
6.6.1	win	2023-07-07	11:03:19	11:12:13	530032	5e2f65a3be23b2525a9b4d97	4	1	main_slash	11	advance_on_keypress_SLASH	64	stimuli_distractor_diamondtriangles.svg	stimuli_target_rectangletriangles.svg	13	yes	57	0	326	0	0			0	0			1				0	
6.6.1	win	2023-07-07	11:03:19	11:12:16	533000	5e2f65a3be23b2525a9b4d97	4	1	main_slash	11	main_slash	65	stimuli_distractor_diamondtriangles.svg	stimuli_distractor_trianglediamonds.svg	37	no	0	1	2000	0	0			0	0			1				0	
6.6.1	win	2023-07-07	11:03:19	11:12:16	533000	5e2f65a3be23b2525a9b4d97	4	1	main_slash	11	advance_on_keypress_SLASH	66	stimuli_distractor_diamondtriangles.svg	stimuli_distractor_trianglediamonds.svg	37	no	57	0	1111	0	0			0	0			1				0	
6.6.1	win	2023-07-07	11:03:19	11:12:19	535352	5e2f65a3be23b2525a9b4d97	4	1	main_slash	11	main_slash	67	stimuli_target_trianglerectangles.svg	stimuli_distractor_diamondtriangles.svg	21	yes	53	1	585	0	0			0	0			1				0	
6.6.1	win	2023-07-07	11:03:19	11:12:19	535352	5e2f65a3be23b2525a9b4d97	4	1	main_slash	11	advance_on_keypress_SLASH	68	stimuli_target_trianglerectangles.svg	stimuli_distractor_diamondtriangles.svg	21	yes	57	0	385	0	0			0	0			1				0	
6.6.1	win	2023-07-07	11:03:19	11:12:20	536800	5e2f65a3be23b2525a9b4d97	4	1	main_slash	11	main_slash	69	stimuli_target_rectangletriangles.svg	stimuli_distractor_trianglediamonds.svg	1	yes	53	1	417	0	0			0	0			1				0	
6.6.1	win	2023-07-07	11:03:19	11:12:20	536800	5e2f65a3be23b2525a9b4d97	4	1	main_slash	11	advance_on_keypress_SLASH	70	stimuli_target_rectangletriangles.svg	stimuli_distractor_trianglediamonds.svg	1	yes	57	0	319	0	0			0	0			1				0	
6.6.1	win	2023-07-07	11:03:19	11:12:21	538224	5e2f65a3be23b2525a9b4d97	4	1	main_slash	11	main_slash	71	stimuli_target_squaretriangles.svg	stimuli_distractor_trianglediamonds.svg	3	yes	53	1	457	0	0			0	0			1				0	
6.6.1	win	2023-07-07	11:03:19	11:12:21	538224	5e2f65a3be23b2525a9b4d97	4	1	main_slash	11	advance_on_keypress_SLASH	72	stimuli_target_squaretriangles.svg	stimuli_distractor_trianglediamonds.svg	3	yes	57	0	303	0	0			0	0			1				0	
6.6.1	win	2023-07-07	11:03:19	11:12:23	539664	5e2f65a3be23b2525a9b4d97	4	1	main_slash	11	main_slash	73	stimuli_distractor_trianglediamonds.svg	stimuli_target_trianglesquares.svg	26	yes	53	1	498	0	0			0	0			1				0	
6.6.1	win	2023-07-07	11:03:19	11:12:23	539664	5e2f65a3be23b2525a9b4d97	4	1	main_slash	11	advance_on_keypress_SLASH	74	stimuli_distractor_trianglediamonds.svg	stimuli_target_trianglesquares.svg	26	yes	57	0	333	0	0			0	0			1				0	
6.6.1	win	2023-07-07	11:03:19	11:12:25	541328	5e2f65a3be23b2525a9b4d97	4	1	main_slash	11	main_slash	75	stimuli_distractor_diamondtriangles.svg	stimuli_target_diamondrectangles.svg	31	yes	53	1	678	0	0			0	0			1				0	
6.6.1	win	2023-07-07	11:03:19	11:12:25	541328	5e2f65a3be23b2525a9b4d97	4	1	main_slash	11	advance_on_keypress_SLASH	76	stimuli_distractor_diamondtriangles.svg	stimuli_target_diamondrectangles.svg	31	yes	57	0	290	0	0			0	0			1				0	
6.6.1	win	2023-07-07	11:03:19	11:12:27	544266	5e2f65a3be23b2525a9b4d97	4	1	main_slash	11	main_slash	77	stimuli_distractor_trianglediamonds.svg	stimuli_distractor_diamondtriangles.svg	35	no	0	1	2000	0	0			0	0			1				0	
6.6.1	win	2023-07-07	11:03:19	11:12:27	544266	5e2f65a3be23b2525a9b4d97	4	1	main_slash	11	advance_on_keypress_SLASH	78	stimuli_distractor_trianglediamonds.svg	stimuli_distractor_diamondtriangles.svg	35	no	57	0	725	0	0			0	0			1				0	
6.6.1	win	2023-07-07	11:03:19	11:12:29	546128	5e2f65a3be23b2525a9b4d97	4	1	main_slash	11	main_slash	79	stimuli_distractor_diamondtriangles.svg	stimuli_target_trianglesquares.svg	30	yes	53	1	495	0	0			0	0			1				0	
6.6.1	win	2023-07-07	11:03:19	11:12:29	546128	5e2f65a3be23b2525a9b4d97	4	1	main_slash	11	advance_on_keypress_SLASH	80	stimuli_distractor_diamondtriangles.svg	stimuli_target_trianglesquares.svg	30	yes	57	0	586	0	0			0	0			1				0	
6.6.1	win	2023-07-07	11:03:19	11:12:33	549366	5e2f65a3be23b2525a9b4d97	4	1	main_slash	11	main_slash	81	stimuli_distractor_diamondtriangles.svg	stimuli_distractor_diamondtriangles.svg	40	no	0	1	2000	0	0			0	0			1				0	
6.6.1	win	2023-07-07	11:03:19	11:12:33	549366	5e2f65a3be23b2525a9b4d97	4	1	main_slash	11	advance_on_keypress_SLASH	82	stimuli_distractor_diamondtriangles.svg	stimuli_distractor_diamondtriangles.svg	40	no	57	0	617	0	0			0	0			1				0	
6.6.1	win	2023-07-07	11:03:19	11:12:34	551088	5e2f65a3be23b2525a9b4d97	4	1	main_slash	11	main_slash	83	stimuli_target_trianglerectangles.svg	stimuli_distractor_diamondtriangles.svg	21	yes	53	1	455	0	0			0	0			1				0	
6.6.1	win	2023-07-07	11:03:19	11:12:34	551088	5e2f65a3be23b2525a9b4d97	4	1	main_slash	11	advance_on_keypress_SLASH	84	stimuli_target_trianglerectangles.svg	stimuli_distractor_diamondtriangles.svg	21	yes	57	0	308	0	0			0	0			1				0	
6.6.1	win	2023-07-07	11:03:19	11:12:37	554033	5e2f65a3be23b2525a9b4d97	4	1	main_slash	11	main_slash	85	stimuli_distractor_diamondtriangles.svg	stimuli_distractor_trianglediamonds.svg	37	no	0	1	2000	0	0			0	0			1				0	
6.6.1	win	2023-07-07	11:03:19	11:12:37	554033	5e2f65a3be23b2525a9b4d97	4	1	main_slash	11	advance_on_keypress_SLASH	86	stimuli_distractor_diamondtriangles.svg	stimuli_distractor_trianglediamonds.svg	37	no	57	0	583	0	0			0	0			1				0	
6.6.1	win	2023-07-07	11:03:19	11:12:39	555803	5e2f65a3be23b2525a9b4d97	4	1	main_slash	11	main_slash	87	stimuli_distractor_trianglediamonds.svg	stimuli_target_diamondsquares.svg	28	yes	53	1	534	0	0			0	0			1				0	
6.6.1	win	2023-07-07	11:03:19	11:12:39	555803	5e2f65a3be23b2525a9b4d97	4	1	main_slash	11	advance_on_keypress_SLASH	88	stimuli_distractor_trianglediamonds.svg	stimuli_target_diamondsquares.svg	28	yes	57	0	360	0	0			0	0			1				0	
6.6.1	win	2023-07-07	11:03:19	11:12:41	557330	5e2f65a3be23b2525a9b4d97	4	1	main_slash	11	main_slash	89	stimuli_target_trianglesquares.svg	stimuli_distractor_diamondtriangles.svg	22	yes	53	1	528	0	0			0	0			1				0	
6.6.1	win	2023-07-07	11:03:19	11:12:41	557330	5e2f65a3be23b2525a9b4d97	4	1	main_slash	11	advance_on_keypress_SLASH	90	stimuli_target_trianglesquares.svg	stimuli_distractor_diamondtriangles.svg	22	yes	57	0	298	0	0			0	0			1				0	
6.6.1	win	2023-07-07	11:03:19	11:12:43	560283	5e2f65a3be23b2525a9b4d97	4	1	main_slash	11	main_slash	91	stimuli_distractor_diamondtriangles.svg	stimuli_distractor_diamondtriangles.svg	39	no	0	1	2000	0	0			0	0			1				0	
6.6.1	win	2023-07-07	11:03:19	11:12:43	560283	5e2f65a3be23b2525a9b4d97	4	1	main_slash	11	advance_on_keypress_SLASH	92	stimuli_distractor_diamondtriangles.svg	stimuli_distractor_diamondtriangles.svg	39	no	57	0	580	0	0			0	0			1				0	
6.6.1	win	2023-07-07	11:03:19	11:12:45	562008	5e2f65a3be23b2525a9b4d97	4	1	main_slash	11	main_slash	93	stimuli_distractor_trianglediamonds.svg	stimuli_target_diamondrectangles.svg	27	yes	53	1	492	0	0			0	0			1				0	
6.6.1	win	2023-07-07	11:03:19	11:12:45	562008	5e2f65a3be23b2525a9b4d97	4	1	main_slash	11	advance_on_keypress_SLASH	94	stimuli_distractor_trianglediamonds.svg	stimuli_target_diamondrectangles.svg	27	yes	57	0	344	0	0			0	0			1				0	
6.6.1	win	2023-07-07	11:03:19	11:12:47	563576	5e2f65a3be23b2525a9b4d97	4	1	main_slash	11	main_slash	95	stimuli_target_diamondrectangles.svg	stimuli_distractor_trianglediamonds.svg	19	yes	53	1	593	0	0			0	0			1				0	
6.6.1	win	2023-07-07	11:03:19	11:12:47	563576	5e2f65a3be23b2525a9b4d97	4	1	main_slash	11	advance_on_keypress_SLASH	96	stimuli_target_diamondrectangles.svg	stimuli_distractor_trianglediamonds.svg	19	yes	57	0	353	0	0			0	0			1				0	
6.6.1	win	2023-07-07	11:03:19	11:12:48	564992	5e2f65a3be23b2525a9b4d97	4	1	main_slash	11	main_slash	97	stimuli_distractor_diamondtriangles.svg	stimuli_target_rectangletriangles.svg	13	yes	53	1	426	0	0			0	0			1				0	
6.6.1	win	2023-07-07	11:03:19	11:12:48	564992	5e2f65a3be23b2525a9b4d97	4	1	main_slash	11	advance_on_keypress_SLASH	98	stimuli_distractor_diamondtriangles.svg	stimuli_target_rectangletriangles.svg	13	yes	57	0	296	0	0			0	0			1				0	
6.6.1	win	2023-07-07	11:03:19	11:12:50	566384	5e2f65a3be23b2525a9b4d97	4	1	main_slash	11	main_slash	99	stimuli_distractor_diamondtriangles.svg	stimuli_target_rectanglediamonds.svg	14	yes	53	1	451	0	0			0	0			1				0	
6.6.1	win	2023-07-07	11:03:19	11:12:50	566384	5e2f65a3be23b2525a9b4d97	4	1	main_slash	11	advance_on_keypress_SLASH	100	stimuli_distractor_diamondtriangles.svg	stimuli_target_rectanglediamonds.svg	14	yes	57	0	280	0	0			0	0			1				0	
6.6.1	win	2023-07-07	11:03:19	11:12:51	567816	5e2f65a3be23b2525a9b4d97	4	1	main_slash	11	main_slash	101	stimuli_target_diamondsquares.svg	stimuli_distractor_diamondtriangles.svg	24	yes	53	1	500	0	0			0	0			1				0	
6.6.1	win	2023-07-07	11:03:19	11:12:51	567816	5e2f65a3be23b2525a9b4d97	4	1	main_slash	11	advance_on_keypress_SLASH	102	stimuli_target_diamondsquares.svg	stimuli_distractor_diamondtriangles.svg	24	yes	57	0	271	0	0			0	0			1				0	
6.6.1	win	2023-07-07	11:03:19	11:12:54	570733	5e2f65a3be23b2525a9b4d97	4	1	main_slash	11	main_slash	103	stimuli_distractor_diamondtriangles.svg	stimuli_distractor_trianglediamonds.svg	38	no	0	1	2000	0	0			0	0			1				0	
6.6.1	win	2023-07-07	11:03:19	11:12:54	570733	5e2f65a3be23b2525a9b4d97	4	1	main_slash	11	advance_on_keypress_SLASH	104	stimuli_distractor_diamondtriangles.svg	stimuli_distractor_trianglediamonds.svg	38	no	57	0	626	0	0			0	0			1				0	
6.6.1	win	2023-07-07	11:03:19	11:12:56	572530	5e2f65a3be23b2525a9b4d97	4	1	main_slash	11	main_slash	105	stimuli_target_squarediamonds.svg	stimuli_distractor_diamondtriangles.svg	8	yes	53	1	520	0	0			0	0			1				0	
6.6.1	win	2023-07-07	11:03:19	11:12:56	572530	5e2f65a3be23b2525a9b4d97	4	1	main_slash	11	advance_on_keypress_SLASH	106	stimuli_target_squarediamonds.svg	stimuli_distractor_diamondtriangles.svg	8	yes	57	0	274	0	0			0	0			1				0	
6.6.1	win	2023-07-07	11:03:19	11:12:57	574016	5e2f65a3be23b2525a9b4d97	4	1	main_slash	11	main_slash	107	stimuli_target_squaretriangles.svg	stimuli_distractor_trianglediamonds.svg	3	yes	53	1	566	0	0			0	0			1				0	
6.6.1	win	2023-07-07	11:03:19	11:12:57	574016	5e2f65a3be23b2525a9b4d97	4	1	main_slash	11	advance_on_keypress_SLASH	108	stimuli_target_squaretriangles.svg	stimuli_distractor_trianglediamonds.svg	3	yes	57	0	295	0	0			0	0			1				0	
6.6.1	win	2023-07-07	11:03:19	11:12:59	575792	5e2f65a3be23b2525a9b4d97	4	1	main_slash	11	main_slash	109	stimuli_target_trianglesquares.svg	stimuli_distractor_trianglediamonds.svg	18	yes	53	1	826	0	0			0	0			1				0	
6.6.1	win	2023-07-07	11:03:19	11:12:59	575792	5e2f65a3be23b2525a9b4d97	4	1	main_slash	11	advance_on_keypress_SLASH	110	stimuli_target_trianglesquares.svg	stimuli_distractor_trianglediamonds.svg	18	yes	57	0	320	0	0			0	0			1				0	
6.6.1	win	2023-07-07	11:03:19	11:13:01	577335	5e2f65a3be23b2525a9b4d97	4	1	main_slash	11	main_slash	111	stimuli_target_diamondrectangles.svg	stimuli_distractor_diamondtriangles.svg	23	yes	53	1	586	0	0			0	0			1				0	
6.6.1	win	2023-07-07	11:03:19	11:13:01	577335	5e2f65a3be23b2525a9b4d97	4	1	main_slash	11	advance_on_keypress_SLASH	112	stimuli_target_diamondrectangles.svg	stimuli_distractor_diamondtriangles.svg	23	yes	57	0	274	0	0			0	0			1				0	
6.6.1	win	2023-07-07	11:03:19	11:13:02	578780	5e2f65a3be23b2525a9b4d97	4	1	main_slash	11	main_slash	113	stimuli_distractor_trianglediamonds.svg	stimuli_target_rectangletriangles.svg	9	yes	53	1	518	0	0			0	0			1				0	
6.6.1	win	2023-07-07	11:03:19	11:13:02	578780	5e2f65a3be23b2525a9b4d97	4	1	main_slash	11	advance_on_keypress_SLASH	114	stimuli_distractor_trianglediamonds.svg	stimuli_target_rectangletriangles.svg	9	yes	57	0	272	0	0			0	0			1				0	
6.6.1	win	2023-07-07	11:03:19	11:13:05	581699	5e2f65a3be23b2525a9b4d97	4	1	main_slash	11	main_slash	115	stimuli_distractor_trianglediamonds.svg	stimuli_distractor_diamondtriangles.svg	35	no	0	1	2000	0	0			0	0			1				0	
6.6.1	win	2023-07-07	11:03:19	11:13:05	581699	5e2f65a3be23b2525a9b4d97	4	1	main_slash	11	advance_on_keypress_SLASH	116	stimuli_distractor_trianglediamonds.svg	stimuli_distractor_diamondtriangles.svg	35	no	57	0	612	0	0			0	0			1				0	
6.6.1	win	2023-07-07	11:03:19	11:13:07	583496	5e2f65a3be23b2525a9b4d97	4	1	main_slash	11	main_slash	117	stimuli_target_squarediamonds.svg	stimuli_distractor_trianglediamonds.svg	4	yes	53	1	506	0	0			0	0			1				0	
6.6.1	win	2023-07-07	11:03:19	11:13:07	583496	5e2f65a3be23b2525a9b4d97	4	1	main_slash	11	advance_on_keypress_SLASH	118	stimuli_target_squarediamonds.svg	stimuli_distractor_trianglediamonds.svg	4	yes	57	0	284	0	0			0	0			1				0	
6.6.1	win	2023-07-07	11:03:19	11:13:09	585711	5e2f65a3be23b2525a9b4d97	4	1	main_slash	11	main_slash	119	stimuli_target_trianglerectangles.svg	stimuli_distractor_trianglediamonds.svg	17	yes	53	1	1279	0	0			0	0			1				0	
6.6.1	win	2023-07-07	11:03:19	11:13:09	585711	5e2f65a3be23b2525a9b4d97	4	1	main_slash	11	advance_on_keypress_SLASH	120	stimuli_target_trianglerectangles.svg	stimuli_distractor_trianglediamonds.svg	17	yes	57	0	323	0	0			0	0			1				0	
6.6.1	win	2023-07-07	11:03:19	11:13:12	588682	5e2f65a3be23b2525a9b4d97	4	1	main_slash	11	main_slash	121	stimuli_distractor_trianglediamonds.svg	stimuli_distractor_trianglediamonds.svg	33	no	0	1	2000	0	0			0	0			1				0	
6.6.1	win	2023-07-07	11:03:19	11:13:12	588682	5e2f65a3be23b2525a9b4d97	4	1	main_slash	11	advance_on_keypress_SLASH	122	stimuli_distractor_trianglediamonds.svg	stimuli_distractor_trianglediamonds.svg	33	no	57	0	421	0	0			0	0			1				0	
6.6.1	win	2023-07-07	11:03:19	11:13:15	591749	5e2f65a3be23b2525a9b4d97	4	1	main_slash	11	main_slash	123	stimuli_distractor_trianglediamonds.svg	stimuli_distractor_trianglediamonds.svg	34	no	0	1	2000	0	0			0	0			1				0	
6.6.1	win	2023-07-07	11:03:19	11:13:15	591749	5e2f65a3be23b2525a9b4d97	4	1	main_slash	11	advance_on_keypress_SLASH	124	stimuli_distractor_trianglediamonds.svg	stimuli_distractor_trianglediamonds.svg	34	no	57	0	642	0	0			0	0			1				0	
6.6.1	win	2023-07-07	11:03:19	11:13:17	593503	5e2f65a3be23b2525a9b4d97	4	1	main_slash	11	main_slash	125	stimuli_distractor_diamondtriangles.svg	stimuli_target_squarediamonds.svg	16	yes	53	1	471	0	0			0	0			1				0	
6.6.1	win	2023-07-07	11:03:19	11:13:17	593503	5e2f65a3be23b2525a9b4d97	4	1	main_slash	11	advance_on_keypress_SLASH	126	stimuli_distractor_diamondtriangles.svg	stimuli_target_squarediamonds.svg	16	yes	57	0	275	0	0			0	0			1				0	
6.6.1	win	2023-07-07	11:03:19	11:13:18	594991	5e2f65a3be23b2525a9b4d97	4	1	main_slash	11	main_slash	127	stimuli_distractor_trianglediamonds.svg	stimuli_target_trianglesquares.svg	26	yes	53	1	576	0	0			0	0			1				0	
6.6.1	win	2023-07-07	11:03:19	11:13:18	594991	5e2f65a3be23b2525a9b4d97	4	1	main_slash	11	advance_on_keypress_SLASH	128	stimuli_distractor_trianglediamonds.svg	stimuli_target_trianglesquares.svg	26	yes	57	0	233	0	0			0	0			1				0	
6.6.1	win	2023-07-07	11:03:19	11:13:20	596463	5e2f65a3be23b2525a9b4d97	4	1	main_slash	11	main_slash	129	stimuli_distractor_trianglediamonds.svg	stimuli_distractor_diamondtriangles.svg	36	no	53	0	598	0	0			0	0			1				0	
6.6.1	win	2023-07-07	11:03:19	11:13:20	596463	5e2f65a3be23b2525a9b4d97	4	1	main_slash	11	advance_on_keypress_SLASH	130	stimuli_distractor_trianglediamonds.svg	stimuli_distractor_diamondtriangles.svg	36	no	57	0	533	0	0			0	0			1				0	
6.6.1	win	2023-07-07	11:03:19	11:13:21	598256	5e2f65a3be23b2525a9b4d97	4	1	main_slash	11	main_slash	131	stimuli_distractor_trianglediamonds.svg	stimuli_target_squaretriangles.svg	11	yes	53	1	607	0	0			0	0			1				0	
6.6.1	win	2023-07-07	11:03:19	11:13:21	598256	5e2f65a3be23b2525a9b4d97	4	1	main_slash	11	advance_on_keypress_SLASH	132	stimuli_distractor_trianglediamonds.svg	stimuli_target_squaretriangles.svg	11	yes	57	0	270	0	0			0	0			1				0	
6.6.1	win	2023-07-07	11:03:19	11:13:23	599888	5e2f65a3be23b2525a9b4d97	4	1	main_slash	11	main_slash	133	stimuli_distractor_diamondtriangles.svg	stimuli_target_diamondsquares.svg	32	yes	53	1	722	0	0			0	0			1				0	
6.6.1	win	2023-07-07	11:03:19	11:13:23	599888	5e2f65a3be23b2525a9b4d97	4	1	main_slash	11	advance_on_keypress_SLASH	134	stimuli_distractor_diamondtriangles.svg	stimuli_target_diamondsquares.svg	32	yes	57	0	277	0	0			0	0			1				0	
6.6.1	win	2023-07-07	11:03:19	11:13:25	601464	5e2f65a3be23b2525a9b4d97	4	1	main_slash	11	main_slash	135	stimuli_distractor_diamondtriangles.svg	stimuli_target_trianglesquares.svg	30	yes	53	1	665	0	0			0	0			1				0	
6.6.1	win	2023-07-07	11:03:19	11:13:25	601464	5e2f65a3be23b2525a9b4d97	4	1	main_slash	11	advance_on_keypress_SLASH	136	stimuli_distractor_diamondtriangles.svg	stimuli_target_trianglesquares.svg	30	yes	57	0	269	0	0			0	0			1				0	
6.6.1	win	2023-07-07	11:03:19	11:13:26	603007	5e2f65a3be23b2525a9b4d97	4	1	main_slash	11	main_slash	137	stimuli_target_rectanglediamonds.svg	stimuli_distractor_diamondtriangles.svg	6	yes	53	1	625	0	0			0	0			1				0	
6.6.1	win	2023-07-07	11:03:19	11:13:26	603007	5e2f65a3be23b2525a9b4d97	4	1	main_slash	11	advance_on_keypress_SLASH	138	stimuli_target_rectanglediamonds.svg	stimuli_distractor_diamondtriangles.svg	6	yes	57	0	240	0	0			0	0			1				0	
6.6.1	win	2023-07-07	11:03:19	11:13:28	604367	5e2f65a3be23b2525a9b4d97	4	1	main_slash	11	main_slash	139	stimuli_target_rectangletriangles.svg	stimuli_distractor_diamondtriangles.svg	5	yes	53	1	485	0	0			0	0			1				0	
6.6.1	win	2023-07-07	11:03:19	11:13:28	604367	5e2f65a3be23b2525a9b4d97	4	1	main_slash	11	advance_on_keypress_SLASH	140	stimuli_target_rectangletriangles.svg	stimuli_distractor_diamondtriangles.svg	5	yes	57	0	257	0	0			0	0			1				0	
6.6.1	win	2023-07-07	11:03:19	11:13:29	606271	5e2f65a3be23b2525a9b4d97	4	1	main_slash	11	main_slash	141	stimuli_target_diamondsquares.svg	stimuli_distractor_trianglediamonds.svg	20	yes	53	1	1006	0	0			0	0			1				0	
6.6.1	win	2023-07-07	11:03:19	11:13:29	606271	5e2f65a3be23b2525a9b4d97	4	1	main_slash	11	advance_on_keypress_SLASH	142	stimuli_target_diamondsquares.svg	stimuli_distractor_trianglediamonds.svg	20	yes	57	0	261	0	0			0	0			1				0	
6.6.1	win	2023-07-07	11:03:19	11:13:31	607984	5e2f65a3be23b2525a9b4d97	4	1	main_slash	11	main_slash	143	stimuli_distractor_diamondtriangles.svg	stimuli_target_trianglerectangles.svg	29	yes	53	1	801	0	0			0	0			1				0	
6.6.1	win	2023-07-07	11:03:19	11:13:31	607984	5e2f65a3be23b2525a9b4d97	4	1	main_slash	11	advance_on_keypress_SLASH	144	stimuli_distractor_diamondtriangles.svg	stimuli_target_trianglerectangles.svg	29	yes	57	0	289	0	0			0	0			1				0	
6.6.1	win	2023-07-07	11:03:19	11:13:33	609575	5e2f65a3be23b2525a9b4d97	4	1	main_slash	11	main_slash	145	stimuli_distractor_diamondtriangles.svg	stimuli_target_diamondrectangles.svg	31	yes	53	1	660	0	0			0	0			1				0	
6.6.1	win	2023-07-07	11:03:19	11:13:33	609575	5e2f65a3be23b2525a9b4d97	4	1	main_slash	11	advance_on_keypress_SLASH	146	stimuli_distractor_diamondtriangles.svg	stimuli_target_diamondrectangles.svg	31	yes	57	0	265	0	0			0	0			1				0	
6.6.1	win	2023-07-07	11:03:19	11:13:34	611013	5e2f65a3be23b2525a9b4d97	4	1	main_slash	11	main_slash	147	stimuli_target_rectangletriangles.svg	stimuli_distractor_trianglediamonds.svg	1	yes	53	1	509	0	0			0	0			1				0	
6.6.1	win	2023-07-07	11:03:19	11:13:34	611013	5e2f65a3be23b2525a9b4d97	4	1	main_slash	11	advance_on_keypress_SLASH	148	stimuli_target_rectangletriangles.svg	stimuli_distractor_trianglediamonds.svg	1	yes	57	0	239	0	0			0	0			1				0	
6.6.1	win	2023-07-07	11:03:19	11:13:36	612471	5e2f65a3be23b2525a9b4d97	4	1	main_slash	11	main_slash	149	stimuli_distractor_trianglediamonds.svg	stimuli_target_rectanglediamonds.svg	10	yes	53	1	573	0	0			0	0			1				0	
6.6.1	win	2023-07-07	11:03:19	11:13:36	612471	5e2f65a3be23b2525a9b4d97	4	1	main_slash	11	advance_on_keypress_SLASH	150	stimuli_distractor_trianglediamonds.svg	stimuli_target_rectanglediamonds.svg	10	yes	57	0	269	0	0			0	0			1				0	
6.6.1	win	2023-07-07	11:03:19	11:13:37	613927	5e2f65a3be23b2525a9b4d97	4	1	main_slash	11	main_slash	151	stimuli_distractor_diamondtriangles.svg	stimuli_target_squaretriangles.svg	15	yes	53	1	545	0	0			0	0			1				0	
6.6.1	win	2023-07-07	11:03:19	11:13:37	613927	5e2f65a3be23b2525a9b4d97	4	1	main_slash	11	advance_on_keypress_SLASH	152	stimuli_distractor_diamondtriangles.svg	stimuli_target_squaretriangles.svg	15	yes	57	0	267	0	0			0	0			1				0	
6.6.1	win	2023-07-07	11:03:19	11:13:39	615487	5e2f65a3be23b2525a9b4d97	4	1	main_slash	11	main_slash	153	stimuli_distractor_trianglediamonds.svg	stimuli_target_trianglerectangles.svg	25	yes	53	1	639	0	0			0	0			1				0	
6.6.1	win	2023-07-07	11:03:19	11:13:39	615487	5e2f65a3be23b2525a9b4d97	4	1	main_slash	11	advance_on_keypress_SLASH	154	stimuli_distractor_trianglediamonds.svg	stimuli_target_trianglerectangles.svg	25	yes	57	0	213	0	0			0	0			1				0	
6.6.1	win	2023-07-07	11:03:19	11:13:40	616881	5e2f65a3be23b2525a9b4d97	4	1	main_slash	11	main_slash	155	stimuli_target_rectanglediamonds.svg	stimuli_distractor_trianglediamonds.svg	2	yes	53	1	515	0	0			0	0			1				0	
6.6.1	win	2023-07-07	11:03:19	11:13:40	616881	5e2f65a3be23b2525a9b4d97	4	1	main_slash	11	advance_on_keypress_SLASH	156	stimuli_target_rectanglediamonds.svg	stimuli_distractor_trianglediamonds.svg	2	yes	57	0	213	0	0			0	0			1				0	
6.6.1	win	2023-07-07	11:03:19	11:13:41	618283	5e2f65a3be23b2525a9b4d97	4	1	main_slash	11	main_slash	157	stimuli_distractor_trianglediamonds.svg	stimuli_target_squarediamonds.svg	12	yes	53	1	507	0	0			0	0			1				0	
6.6.1	win	2023-07-07	11:03:19	11:13:41	618283	5e2f65a3be23b2525a9b4d97	4	1	main_slash	11	advance_on_keypress_SLASH	158	stimuli_distractor_trianglediamonds.svg	stimuli_target_squarediamonds.svg	12	yes	57	0	205	0	0			0	0			1				0	
6.6.1	win	2023-07-07	11:03:19	11:13:43	619743	5e2f65a3be23b2525a9b4d97	4	1	main_slash	11	main_slash	159	stimuli_target_squaretriangles.svg	stimuli_distractor_diamondtriangles.svg	7	yes	53	1	611	0	0			0	0			1				0	
6.6.1	win	2023-07-07	11:03:19	11:13:43	619743	5e2f65a3be23b2525a9b4d97	4	1	main_slash	11	advance_on_keypress_SLASH	160	stimuli_target_squaretriangles.svg	stimuli_distractor_diamondtriangles.svg	7	yes	57	0	218	0	0			0	0			1				0	
6.6.1	win	2023-07-07	11:03:19	11:13:43	619743	5e2f65a3be23b2525a9b4d97	4	1	headphonecheck_calibration	14	headphonecheck_calibrationIntro	1	stimuli_target_squaretriangles.svg	stimuli_distractor_diamondtriangles.svg	7	yes	calibrationButton	0	2727	0	0			0	0			1				0	
6.6.1	win	2023-07-07	11:03:19	11:13:43	619743	5e2f65a3be23b2525a9b4d97	4	1	headphonecheck_testphase	15	test_collectResponse	3	stimuli_target_squaretriangles.svg	stimuli_distractor_diamondtriangles.svg	7	yes	first	1	336	1	3	antiphase_hc_soi.wav	1	0	0			1				0	
6.6.1	win	2023-07-07	11:03:19	11:13:43	619743	5e2f65a3be23b2525a9b4d97	4	1	headphonecheck_testphase	15	test_collectResponse	6	stimuli_target_squaretriangles.svg	stimuli_distractor_diamondtriangles.svg	7	yes	third	1	804	2	2	antiphase_hc_ios.wav	3	0	0			1				0	
6.6.1	win	2023-07-07	11:03:19	11:13:43	619743	5e2f65a3be23b2525a9b4d97	4	1	headphonecheck_testphase	15	test_collectResponse	9	stimuli_target_squaretriangles.svg	stimuli_distractor_diamondtriangles.svg	7	yes	first	1	545	3	4	antiphase_hc_sio.wav	1	0	0			1				0	
6.6.1	win	2023-07-07	11:03:19	11:13:43	619743	5e2f65a3be23b2525a9b4d97	4	1	headphonecheck_testphase	15	test_collectResponse	12	stimuli_target_squaretriangles.svg	stimuli_distractor_diamondtriangles.svg	7	yes	second	1	105	4	1	antiphase_hc_iso.wav	2	0	0			1				0	
6.6.1	win	2023-07-07	11:03:19	11:13:43	619743	5e2f65a3be23b2525a9b4d97	4	1	headphonecheck_testphase	15	test_collectResponse	15	stimuli_target_squaretriangles.svg	stimuli_distractor_diamondtriangles.svg	7	yes	third	1	3792	5	6	antiphase_hc_ois.wav	3	0	0			1				0	
6.6.1	win	2023-07-07	11:03:19	11:13:43	619743	5e2f65a3be23b2525a9b4d97	4	1	headphonecheck_testphase	15	test_collectResponse	18	stimuli_target_squaretriangles.svg	stimuli_distractor_diamondtriangles.svg	7	yes	second	1	464	6	5	antiphase_hc_osi.wav	2	0	0			1				0	
6.6.1	win	2023-07-07	11:03:19	11:13:43	619743	5e2f65a3be23b2525a9b4d97	4	1	stereocheck_calibration	17	stereocheck_calibrationIntro	1	stimuli_target_squaretriangles.svg	stimuli_distractor_diamondtriangles.svg	7	yes	stereocheck_calibrationButton	0	4042	6	5	antiphase_hc_osi.wav	2	0	0			1				0	
6.6.1	win	2023-07-07	11:03:19	11:13:43	619743	5e2f65a3be23b2525a9b4d97	4	1	stereocheck_testphase	18	stereocheck_test_collectResponse	3	stimuli_target_squaretriangles.svg	stimuli_distractor_diamondtriangles.svg	7	yes	stereocheck_right	1	336	6	5	antiphase_hc_osi.wav	2	1	5	noise_calib_stim_RIGHT.wav	2	1				0	
6.6.1	win	2023-07-07	11:03:19	11:13:43	619743	5e2f65a3be23b2525a9b4d97	4	1	stereocheck_testphase	18	stereocheck_test_collectResponse	6	stimuli_target_squaretriangles.svg	stimuli_distractor_diamondtriangles.svg	7	yes	stereocheck_left	1	477	6	5	antiphase_hc_osi.wav	2	2	1	noise_calib_stim_LEFT.wav	1	1				0	
6.6.1	win	2023-07-07	11:03:19	11:13:43	619743	5e2f65a3be23b2525a9b4d97	4	1	stereocheck_testphase	18	stereocheck_test_collectResponse	9	stimuli_target_squaretriangles.svg	stimuli_distractor_diamondtriangles.svg	7	yes	stereocheck_right	1	264	6	5	antiphase_hc_osi.wav	2	3	6	noise_calib_stim_RIGHT.wav	2	1				0	
6.6.1	win	2023-07-07	11:03:19	11:13:43	619743	5e2f65a3be23b2525a9b4d97	4	1	stereocheck_testphase	18	stereocheck_test_collectResponse	12	stimuli_target_squaretriangles.svg	stimuli_distractor_diamondtriangles.svg	7	yes	stereocheck_left	1	419	6	5	antiphase_hc_osi.wav	2	4	2	noise_calib_stim_LEFT.wav	1	1				0	
6.6.1	win	2023-07-07	11:03:19	11:13:43	619743	5e2f65a3be23b2525a9b4d97	4	1	stereocheck_testphase	18	stereocheck_test_collectResponse	15	stimuli_target_squaretriangles.svg	stimuli_distractor_diamondtriangles.svg	7	yes	stereocheck_left	1	353	6	5	antiphase_hc_osi.wav	2	5	3	noise_calib_stim_LEFT.wav	1	1				0	
6.6.1	win	2023-07-07	11:03:19	11:13:43	619743	5e2f65a3be23b2525a9b4d97	4	1	stereocheck_testphase	18	stereocheck_test_collectResponse	18	stimuli_target_squaretriangles.svg	stimuli_distractor_diamondtriangles.svg	7	yes	stereocheck_right	1	272	6	5	antiphase_hc_osi.wav	2	6	4	noise_calib_stim_RIGHT.wav	2	1				0	
6.6.1	win	2023-07-07	11:03:19	11:13:43	619743	5e2f65a3be23b2525a9b4d97	4	1	DL_practice	21	DL_practice	2	stimuli_target_squaretriangles.svg	stimuli_distractor_diamondtriangles.svg	7	yes	ba	1	1682	6	5	antiphase_hc_osi.wav	2	6	4	noise_calib_stim_RIGHT.wav	2	1	blb_dichoticlistening_ba-ba.mp3	ba	ba	0	left
6.6.1	win	2023-07-07	11:03:19	11:13:43	619743	5e2f65a3be23b2525a9b4d97	4	1	DL_practice	21	DL_practice	3	stimuli_target_squaretriangles.svg	stimuli_distractor_diamondtriangles.svg	7	yes	ka	1	1092	6	5	antiphase_hc_osi.wav	2	6	4	noise_calib_stim_RIGHT.wav	2	22	blb_dichoticlistening_ka-ka.mp3	ka	ka	0	left
6.6.1	win	2023-07-07	11:03:19	11:13:43	619743	5e2f65a3be23b2525a9b4d97	4	1	DL_practice	21	DL_practice	4	stimuli_target_squaretriangles.svg	stimuli_distractor_diamondtriangles.svg	7	yes	pa	1	973	6	5	antiphase_hc_osi.wav	2	6	4	noise_calib_stim_RIGHT.wav	2	29	blb_dichoticlistening_pa-pa.mp3	pa	pa	0	left
6.6.1	win	2023-07-07	11:03:19	11:13:43	619743	5e2f65a3be23b2525a9b4d97	4	1	DL_practice	21	DL_practice	5	stimuli_target_squaretriangles.svg	stimuli_distractor_diamondtriangles.svg	7	yes	da	1	1092	6	5	antiphase_hc_osi.wav	2	6	4	noise_calib_stim_RIGHT.wav	2	8	blb_dichoticlistening_da-da.mp3	da	da	0	left
6.6.1	win	2023-07-07	11:03:19	11:13:43	619743	5e2f65a3be23b2525a9b4d97	4	1	DL_practice	21	DL_practice	6	stimuli_target_squaretriangles.svg	stimuli_distractor_diamondtriangles.svg	7	yes	pa	1	4724	6	5	antiphase_hc_osi.wav	2	6	4	noise_calib_stim_RIGHT.wav	2	23	blb_dichoticlistening_ka-pa.mp3	ka	pa	1	right
6.6.1	win	2023-07-07	11:03:19	11:13:43	619743	5e2f65a3be23b2525a9b4d97	4	1	DL_practice	21	DL_practice	7	stimuli_target_squaretriangles.svg	stimuli_distractor_diamondtriangles.svg	7	yes	ka	0	1646	6	5	antiphase_hc_osi.wav	2	6	4	noise_calib_stim_RIGHT.wav	2	18	blb_dichoticlistening_ga-ta.mp3	ga	ta	1	other
6.6.1	win	2023-07-07	11:03:19	11:13:43	619743	5e2f65a3be23b2525a9b4d97	4	1	DL_practice	21	DL_practice	8	stimuli_target_squaretriangles.svg	stimuli_distractor_diamondtriangles.svg	7	yes	ga	1	1057	6	5	antiphase_hc_osi.wav	2	6	4	noise_calib_stim_RIGHT.wav	2	15	blb_dichoticlistening_ga-ga.mp3	ga	ga	0	left
6.6.1	win	2023-07-07	11:03:19	11:13:43	619743	5e2f65a3be23b2525a9b4d97	4	1	DL_practice	21	DL_practice	9	stimuli_target_squaretriangles.svg	stimuli_distractor_diamondtriangles.svg	7	yes	ta	1	1100	6	5	antiphase_hc_osi.wav	2	6	4	noise_calib_stim_RIGHT.wav	2	36	blb_dichoticlistening_ta-ta.mp3	ta	ta	0	left
6.6.1	win	2023-07-07	11:03:19	11:13:43	619743	5e2f65a3be23b2525a9b4d97	4	1	DL_practice	21	DL_practice	10	stimuli_target_squaretriangles.svg	stimuli_distractor_diamondtriangles.svg	7	yes	da	1	1829	6	5	antiphase_hc_osi.wav	2	6	4	noise_calib_stim_RIGHT.wav	2	7	blb_dichoticlistening_da-ba.mp3	da	ba	1	left
6.6.1	win	2023-07-07	11:03:19	11:13:43	619743	5e2f65a3be23b2525a9b4d97	4	1	DL_test	23	DL_test	1	stimuli_target_squaretriangles.svg	stimuli_distractor_diamondtriangles.svg	7	yes	da	1	1736	6	5	antiphase_hc_osi.wav	2	6	4	noise_calib_stim_RIGHT.wav	2	2	blb_dichoticlistening_ba-da.mp3	ba	da	1	right
6.6.1	win	2023-07-07	11:03:19	11:13:43	619743	5e2f65a3be23b2525a9b4d97	4	1	DL_test	23	DL_test	2	stimuli_target_squaretriangles.svg	stimuli_distractor_diamondtriangles.svg	7	yes	da	1	983	6	5	antiphase_hc_osi.wav	2	6	4	noise_calib_stim_RIGHT.wav	2	7	blb_dichoticlistening_da-ba.mp3	da	ba	1	left
6.6.1	win	2023-07-07	11:03:19	11:13:43	619743	5e2f65a3be23b2525a9b4d97	4	1	DL_test	23	DL_test	3	stimuli_target_squaretriangles.svg	stimuli_distractor_diamondtriangles.svg	7	yes	pa	1	1589	6	5	antiphase_hc_osi.wav	2	6	4	noise_calib_stim_RIGHT.wav	2	23	blb_dichoticlistening_ka-pa.mp3	ka	pa	1	right
6.6.1	win	2023-07-07	11:03:19	11:13:43	619743	5e2f65a3be23b2525a9b4d97	4	1	DL_test	23	DL_test	4	stimuli_target_squaretriangles.svg	stimuli_distractor_diamondtriangles.svg	7	yes	ka	0	1763	6	5	antiphase_hc_osi.wav	2	6	4	noise_calib_stim_RIGHT.wav	2	33	blb_dichoticlistening_ta-ga.mp3	ta	ga	1	other
6.6.1	win	2023-07-07	11:03:19	11:13:43	619743	5e2f65a3be23b2525a9b4d97	4	1	DL_test	23	DL_test	5	stimuli_target_squaretriangles.svg	stimuli_distractor_diamondtriangles.svg	7	yes	da	1	1369	6	5	antiphase_hc_osi.wav	2	6	4	noise_calib_stim_RIGHT.wav	2	9	blb_dichoticlistening_da-ga.mp3	da	ga	1	left
6.6.1	win	2023-07-07	11:03:19	11:13:43	619743	5e2f65a3be23b2525a9b4d97	4	1	DL_test	23	DL_test	6	stimuli_target_squaretriangles.svg	stimuli_distractor_diamondtriangles.svg	7	yes	da	1	767	6	5	antiphase_hc_osi.wav	2	6	4	noise_calib_stim_RIGHT.wav	2	8	blb_dichoticlistening_da-da.mp3	da	da	0	left
6.6.1	win	2023-07-07	11:03:19	11:13:43	619743	5e2f65a3be23b2525a9b4d97	4	1	DL_test	23	DL_test	7	stimuli_target_squaretriangles.svg	stimuli_distractor_diamondtriangles.svg	7	yes	ba	1	1951	6	5	antiphase_hc_osi.wav	2	6	4	noise_calib_stim_RIGHT.wav	2	3	blb_dichoticlistening_ba-ga.mp3	ba	ga	1	left
6.6.1	win	2023-07-07	11:03:19	11:13:43	619743	5e2f65a3be23b2525a9b4d97	4	1	DL_test	23	DL_test	8	stimuli_target_squaretriangles.svg	stimuli_distractor_diamondtriangles.svg	7	yes	da	0	1029	6	5	antiphase_hc_osi.wav	2	6	4	noise_calib_stim_RIGHT.wav	2	15	blb_dichoticlistening_ga-ga.mp3	ga	ga	0	other
6.6.1	win	2023-07-07	11:03:19	11:13:43	619743	5e2f65a3be23b2525a9b4d97	4	1	DL_test	23	DL_test	9	stimuli_target_squaretriangles.svg	stimuli_distractor_diamondtriangles.svg	7	yes	ta	1	1472	6	5	antiphase_hc_osi.wav	2	6	4	noise_calib_stim_RIGHT.wav	2	35	blb_dichoticlistening_ta-pa.mp3	ta	pa	1	left
6.6.1	win	2023-07-07	11:03:19	11:13:43	619743	5e2f65a3be23b2525a9b4d97	4	1	DL_test	23	DL_test	10	stimuli_target_squaretriangles.svg	stimuli_distractor_diamondtriangles.svg	7	yes	pa	0	1027	6	5	antiphase_hc_osi.wav	2	6	4	noise_calib_stim_RIGHT.wav	2	10	blb_dichoticlistening_da-ka.mp3	da	ka	1	other
6.6.1	win	2023-07-07	11:03:19	11:13:43	619743	5e2f65a3be23b2525a9b4d97	4	1	DL_test	23	DL_test	11	stimuli_target_squaretriangles.svg	stimuli_distractor_diamondtriangles.svg	7	yes	ta	1	1006	6	5	antiphase_hc_osi.wav	2	6	4	noise_calib_stim_RIGHT.wav	2	32	blb_dichoticlistening_ta-da.mp3	ta	da	1	left
6.6.1	win	2023-07-07	11:03:19	11:13:43	619743	5e2f65a3be23b2525a9b4d97	4	1	DL_test	23	DL_test	12	stimuli_target_squaretriangles.svg	stimuli_distractor_diamondtriangles.svg	7	yes	pa	1	2164	6	5	antiphase_hc_osi.wav	2	6	4	noise_calib_stim_RIGHT.wav	2	30	blb_dichoticlistening_pa-ta.mp3	pa	ta	1	left
6.6.1	win	2023-07-07	11:03:19	11:13:43	619743	5e2f65a3be23b2525a9b4d97	4	1	DL_test	23	DL_test	13	stimuli_target_squaretriangles.svg	stimuli_distractor_diamondtriangles.svg	7	yes	pa	1	753	6	5	antiphase_hc_osi.wav	2	6	4	noise_calib_stim_RIGHT.wav	2	29	blb_dichoticlistening_pa-pa.mp3	pa	pa	0	left
6.6.1	win	2023-07-07	11:03:19	11:13:43	619743	5e2f65a3be23b2525a9b4d97	4	1	DL_test	23	DL_test	14	stimuli_target_squaretriangles.svg	stimuli_distractor_diamondtriangles.svg	7	yes	pa	1	856	6	5	antiphase_hc_osi.wav	2	6	4	noise_calib_stim_RIGHT.wav	2	26	blb_dichoticlistening_pa-da.mp3	pa	da	1	left
6.6.1	win	2023-07-07	11:03:19	11:13:43	619743	5e2f65a3be23b2525a9b4d97	4	1	DL_test	23	DL_test	15	stimuli_target_squaretriangles.svg	stimuli_distractor_diamondtriangles.svg	7	yes	pa	1	682	6	5	antiphase_hc_osi.wav	2	6	4	noise_calib_stim_RIGHT.wav	2	25	blb_dichoticlistening_pa-ba.mp3	pa	ba	1	left
6.6.1	win	2023-07-07	11:03:19	11:13:43	619743	5e2f65a3be23b2525a9b4d97	4	1	DL_test	23	DL_test	16	stimuli_target_squaretriangles.svg	stimuli_distractor_diamondtriangles.svg	7	yes	ba	1	1268	6	5	antiphase_hc_osi.wav	2	6	4	noise_calib_stim_RIGHT.wav	2	1	blb_dichoticlistening_ba-ba.mp3	ba	ba	0	left
6.6.1	win	2023-07-07	11:03:19	11:13:43	619743	5e2f65a3be23b2525a9b4d97	4	1	DL_test	23	DL_test	17	stimuli_target_squaretriangles.svg	stimuli_distractor_diamondtriangles.svg	7	yes	pa	1	1654	6	5	antiphase_hc_osi.wav	2	6	4	noise_calib_stim_RIGHT.wav	2	27	blb_dichoticlistening_pa-ga.mp3	pa	ga	1	left
6.6.1	win	2023-07-07	11:03:19	11:13:43	619743	5e2f65a3be23b2525a9b4d97	4	1	DL_test	23	DL_test	18	stimuli_target_squaretriangles.svg	stimuli_distractor_diamondtriangles.svg	7	yes	pa	1	1208	6	5	antiphase_hc_osi.wav	2	6	4	noise_calib_stim_RIGHT.wav	2	11	blb_dichoticlistening_da-pa.mp3	da	pa	1	right
6.6.1	win	2023-07-07	11:03:19	11:13:43	619743	5e2f65a3be23b2525a9b4d97	4	1	DL_test	23	DL_test	19	stimuli_target_squaretriangles.svg	stimuli_distractor_diamondtriangles.svg	7	yes	ka	1	1053	6	5	antiphase_hc_osi.wav	2	6	4	noise_calib_stim_RIGHT.wav	2	19	blb_dichoticlistening_ka-ba.mp3	ka	ba	1	left
6.6.1	win	2023-07-07	11:03:19	11:13:43	619743	5e2f65a3be23b2525a9b4d97	4	1	DL_test	23	DL_test	20	stimuli_target_squaretriangles.svg	stimuli_distractor_diamondtriangles.svg	7	yes	pa	1	1182	6	5	antiphase_hc_osi.wav	2	6	4	noise_calib_stim_RIGHT.wav	2	17	blb_dichoticlistening_ga-pa.mp3	ga	pa	1	right
6.6.1	win	2023-07-07	11:03:19	11:13:43	619743	5e2f65a3be23b2525a9b4d97	4	1	DL_test	23	DL_test	21	stimuli_target_squaretriangles.svg	stimuli_distractor_diamondtriangles.svg	7	yes	ta	1	1268	6	5	antiphase_hc_osi.wav	2	6	4	noise_calib_stim_RIGHT.wav	2	36	blb_dichoticlistening_ta-ta.mp3	ta	ta	0	left
6.6.1	win	2023-07-07	11:03:19	11:13:43	619743	5e2f65a3be23b2525a9b4d97	4	1	DL_test	23	DL_test	22	stimuli_target_squaretriangles.svg	stimuli_distractor_diamondtriangles.svg	7	yes	ka	1	1326	6	5	antiphase_hc_osi.wav	2	6	4	noise_calib_stim_RIGHT.wav	2	4	blb_dichoticlistening_ba-ka.mp3	ba	ka	1	right
6.6.1	win	2023-07-07	11:03:19	11:13:43	619743	5e2f65a3be23b2525a9b4d97	4	1	DL_test	23	DL_test	23	stimuli_target_squaretriangles.svg	stimuli_distractor_diamondtriangles.svg	7	yes	ta	1	1279	6	5	antiphase_hc_osi.wav	2	6	4	noise_calib_stim_RIGHT.wav	2	12	blb_dichoticlistening_da-ta.mp3	da	ta	1	right
6.6.1	win	2023-07-07	11:03:19	11:13:43	619743	5e2f65a3be23b2525a9b4d97	4	1	DL_test	23	DL_test	24	stimuli_target_squaretriangles.svg	stimuli_distractor_diamondtriangles.svg	7	yes	ka	1	1184	6	5	antiphase_hc_osi.wav	2	6	4	noise_calib_stim_RIGHT.wav	2	24	blb_dichoticlistening_ka-ta.mp3	ka	ta	1	left
6.6.1	win	2023-07-07	11:03:19	11:13:43	619743	5e2f65a3be23b2525a9b4d97	4	1	DL_test	23	DL_test	25	stimuli_target_squaretriangles.svg	stimuli_distractor_diamondtriangles.svg	7	yes	ka	1	965	6	5	antiphase_hc_osi.wav	2	6	4	noise_calib_stim_RIGHT.wav	2	28	blb_dichoticlistening_pa-ka.mp3	pa	ka	1	right
6.6.1	win	2023-07-07	11:03:19	11:13:43	619743	5e2f65a3be23b2525a9b4d97	4	1	DL_test	23	DL_test	26	stimuli_target_squaretriangles.svg	stimuli_distractor_diamondtriangles.svg	7	yes	ka	0	1483	6	5	antiphase_hc_osi.wav	2	6	4	noise_calib_stim_RIGHT.wav	2	18	blb_dichoticlistening_ga-ta.mp3	ga	ta	1	other
