build	computer.platform	date	time	timestamp	time_elapsed_ms	subject	group	session	blockcode	blocknum	trialcode	trialnum	stimulus_left	stimulus_right	stim_index	target_present	response	correct	latency	headphonecheck_countTestTrials	headphonecheck_index	headphonecheck_testSound	headphonecheck_correctResponse	stereocheck_countTestTrials	stereocheck_index	stereocheck_testSound	stereocheck_correctResponse	DL_index	DL_soundfile	DL_leftSound	DL_rightSound	DL_dualSound	DL_choice
6.6.1	win	2023-07-06	21:41:34	21:44:31	169731	596f8a83c988c000015bf765	4	1	practice_z	5	practice_z	1	stimuli_distractor_trianglediamonds.svg	stimuli_target_squarediamonds.svg	11	yes	44	1	459	0	0			0	0			1				0	
6.6.1	win	2023-07-06	21:41:34	21:44:31	169731	596f8a83c988c000015bf765	4	1	practice_z	5	advance_on_keypress_ZEE	2	stimuli_distractor_trianglediamonds.svg	stimuli_target_squarediamonds.svg	11	yes	57	0	2027	0	0			0	0			1				0	
6.6.1	win	2023-07-06	21:41:34	21:44:36	175435	596f8a83c988c000015bf765	4	1	practice_z	5	practice_z	3	stimuli_distractor_trianglediamonds.svg	stimuli_distractor_trianglediamonds.svg	15	no	0	1	2000	0	0			0	0			1				0	
6.6.1	win	2023-07-06	21:41:34	21:44:36	175435	596f8a83c988c000015bf765	4	1	practice_z	5	advance_on_keypress_ZEE	4	stimuli_distractor_trianglediamonds.svg	stimuli_distractor_trianglediamonds.svg	15	no	57	0	1730	0	0			0	0			1				0	
6.6.1	win	2023-07-06	21:41:34	21:44:40	179398	596f8a83c988c000015bf765	4	1	practice_z	5	practice_z	5	stimuli_target_rectanglediamonds.svg	stimuli_distractor_trianglediamonds.svg	4	yes	44	1	552	0	0			0	0			1				0	
6.6.1	win	2023-07-06	21:41:34	21:44:40	179398	596f8a83c988c000015bf765	4	1	practice_z	5	advance_on_keypress_ZEE	6	stimuli_target_rectanglediamonds.svg	stimuli_distractor_trianglediamonds.svg	4	yes	57	0	1503	0	0			0	0			1				0	
6.6.1	win	2023-07-06	21:41:34	21:44:44	183303	596f8a83c988c000015bf765	4	1	practice_z	5	practice_z	7	stimuli_distractor_trianglediamonds.svg	stimuli_target_diamondrectangles.svg	12	yes	44	1	727	0	0			0	0			1				0	
6.6.1	win	2023-07-06	21:41:34	21:44:44	183303	596f8a83c988c000015bf765	4	1	practice_z	5	advance_on_keypress_ZEE	8	stimuli_distractor_trianglediamonds.svg	stimuli_target_diamondrectangles.svg	12	yes	57	0	953	0	0			0	0			1				0	
6.6.1	win	2023-07-06	21:41:34	21:44:48	186839	596f8a83c988c000015bf765	4	1	practice_z	5	practice_z	9	stimuli_target_squarediamonds.svg	stimuli_distractor_trianglediamonds.svg	5	yes	44	1	917	0	0			0	0			1				0	
6.6.1	win	2023-07-06	21:41:34	21:44:48	186839	596f8a83c988c000015bf765	4	1	practice_z	5	advance_on_keypress_ZEE	10	stimuli_target_squarediamonds.svg	stimuli_distractor_trianglediamonds.svg	5	yes	57	0	745	0	0			0	0			1				0	
6.6.1	win	2023-07-06	21:41:34	21:44:51	190291	596f8a83c988c000015bf765	4	1	practice_z	5	practice_z	11	stimuli_target_squarediamonds.svg	stimuli_distractor_diamondtriangles.svg	2	yes	44	1	1055	0	0			0	0			1				0	
6.6.1	win	2023-07-06	21:41:34	21:44:51	190291	596f8a83c988c000015bf765	4	1	practice_z	5	advance_on_keypress_ZEE	12	stimuli_target_squarediamonds.svg	stimuli_distractor_diamondtriangles.svg	2	yes	57	0	778	0	0			0	0			1				0	
6.6.1	win	2023-07-06	21:41:34	21:44:56	194732	596f8a83c988c000015bf765	4	1	practice_z	5	practice_z	13	stimuli_distractor_trianglediamonds.svg	stimuli_distractor_diamondtriangles.svg	16	no	0	1	2000	0	0			0	0			1				0	
6.6.1	win	2023-07-06	21:41:34	21:44:56	194732	596f8a83c988c000015bf765	4	1	practice_z	5	advance_on_keypress_ZEE	14	stimuli_distractor_trianglediamonds.svg	stimuli_distractor_diamondtriangles.svg	16	no	57	0	748	0	0			0	0			1				0	
6.6.1	win	2023-07-06	21:41:34	21:44:59	197737	596f8a83c988c000015bf765	4	1	practice_z	5	practice_z	15	stimuli_distractor_trianglediamonds.svg	stimuli_target_rectanglediamonds.svg	10	yes	44	1	593	0	0			0	0			1				0	
6.6.1	win	2023-07-06	21:41:34	21:44:59	197737	596f8a83c988c000015bf765	4	1	practice_z	5	advance_on_keypress_ZEE	16	stimuli_distractor_trianglediamonds.svg	stimuli_target_rectanglediamonds.svg	10	yes	57	0	1083	0	0			0	0			1				0	
6.6.1	win	2023-07-06	21:41:34	21:45:03	201617	596f8a83c988c000015bf765	4	1	practice_z	5	practice_z	17	stimuli_distractor_diamondtriangles.svg	stimuli_target_trianglerectangles.svg	9	yes	44	1	1127	0	0			0	0			1				0	
6.6.1	win	2023-07-06	21:41:34	21:45:03	201617	596f8a83c988c000015bf765	4	1	practice_z	5	advance_on_keypress_ZEE	18	stimuli_distractor_diamondtriangles.svg	stimuli_target_trianglerectangles.svg	9	yes	57	0	730	0	0			0	0			1				0	
6.6.1	win	2023-07-06	21:41:34	21:45:06	204991	596f8a83c988c000015bf765	4	1	practice_z	5	practice_z	19	stimuli_distractor_diamondtriangles.svg	stimuli_target_rectangletriangles.svg	7	yes	44	1	987	0	0			0	0			1				0	
6.6.1	win	2023-07-06	21:41:34	21:45:06	204991	596f8a83c988c000015bf765	4	1	practice_z	5	advance_on_keypress_ZEE	20	stimuli_distractor_diamondtriangles.svg	stimuli_target_rectangletriangles.svg	7	yes	57	0	1246	0	0			0	0			1				0	
6.6.1	win	2023-07-06	21:41:34	21:45:10	208866	596f8a83c988c000015bf765	4	1	practice_z	5	practice_z	21	stimuli_target_diamondsquares.svg	stimuli_distractor_diamondtriangles.svg	3	yes	44	1	966	0	0			0	0			1				0	
6.6.1	win	2023-07-06	21:41:34	21:45:10	208866	596f8a83c988c000015bf765	4	1	practice_z	5	advance_on_keypress_ZEE	22	stimuli_target_diamondsquares.svg	stimuli_distractor_diamondtriangles.svg	3	yes	57	0	639	0	0			0	0			1				0	
6.6.1	win	2023-07-06	21:41:34	21:45:13	212190	596f8a83c988c000015bf765	4	1	practice_z	5	practice_z	23	stimuli_target_rectanglediamonds.svg	stimuli_distractor_diamondtriangles.svg	1	yes	44	1	1043	0	0			0	0			1				0	
6.6.1	win	2023-07-06	21:41:34	21:45:13	212190	596f8a83c988c000015bf765	4	1	practice_z	5	advance_on_keypress_ZEE	24	stimuli_target_rectanglediamonds.svg	stimuli_distractor_diamondtriangles.svg	1	yes	57	0	715	0	0			0	0			1				0	
6.6.1	win	2023-07-06	21:41:34	21:45:16	215499	596f8a83c988c000015bf765	4	1	practice_z	5	practice_z	25	stimuli_target_diamondsquares.svg	stimuli_distractor_trianglediamonds.svg	6	yes	44	1	939	0	0			0	0			1				0	
6.6.1	win	2023-07-06	21:41:34	21:45:16	215499	596f8a83c988c000015bf765	4	1	practice_z	5	advance_on_keypress_ZEE	26	stimuli_target_diamondsquares.svg	stimuli_distractor_trianglediamonds.svg	6	yes	57	0	941	0	0			0	0			1				0	
6.6.1	win	2023-07-06	21:41:34	21:45:20	219002	596f8a83c988c000015bf765	4	1	practice_z	5	practice_z	27	stimuli_distractor_diamondtriangles.svg	stimuli_target_diamondrectangles.svg	8	yes	44	1	896	0	0			0	0			1				0	
6.6.1	win	2023-07-06	21:41:34	21:45:20	219002	596f8a83c988c000015bf765	4	1	practice_z	5	advance_on_keypress_ZEE	28	stimuli_distractor_diamondtriangles.svg	stimuli_target_diamondrectangles.svg	8	yes	57	0	1009	0	0			0	0			1				0	
6.6.1	win	2023-07-06	21:41:34	21:45:25	223670	596f8a83c988c000015bf765	4	1	practice_z	5	practice_z	29	stimuli_distractor_diamondtriangles.svg	stimuli_distractor_diamondtriangles.svg	13	no	0	1	2000	0	0			0	0			1				0	
6.6.1	win	2023-07-06	21:41:34	21:45:25	223670	596f8a83c988c000015bf765	4	1	practice_z	5	advance_on_keypress_ZEE	30	stimuli_distractor_diamondtriangles.svg	stimuli_distractor_diamondtriangles.svg	13	no	57	0	533	0	0			0	0			1				0	
6.6.1	win	2023-07-06	21:41:34	21:45:29	227866	596f8a83c988c000015bf765	4	1	practice_z	5	practice_z	31	stimuli_distractor_diamondtriangles.svg	stimuli_distractor_trianglediamonds.svg	14	no	0	1	2000	0	0			0	0			1				0	
6.6.1	win	2023-07-06	21:41:34	21:45:29	227866	596f8a83c988c000015bf765	4	1	practice_z	5	advance_on_keypress_ZEE	32	stimuli_distractor_diamondtriangles.svg	stimuli_distractor_trianglediamonds.svg	14	no	57	0	603	0	0			0	0			1				0	
6.6.1	win	2023-07-06	21:41:34	21:45:49	247836	596f8a83c988c000015bf765	4	1	main_z	7	main_z	1	stimuli_distractor_diamondtriangles.svg	stimuli_target_trianglerectangles.svg	29	yes	44	1	730	0	0			0	0			1				0	
6.6.1	win	2023-07-06	21:41:34	21:45:49	247836	596f8a83c988c000015bf765	4	1	main_z	7	advance_on_keypress_ZEE	2	stimuli_distractor_diamondtriangles.svg	stimuli_target_trianglerectangles.svg	29	yes	57	0	863	0	0			0	0			1				0	
6.6.1	win	2023-07-06	21:41:34	21:45:51	250288	596f8a83c988c000015bf765	4	1	main_z	7	main_z	3	stimuli_distractor_trianglediamonds.svg	stimuli_target_trianglesquares.svg	26	yes	44	1	934	0	0			0	0			1				0	
6.6.1	win	2023-07-06	21:41:34	21:45:51	250288	596f8a83c988c000015bf765	4	1	main_z	7	advance_on_keypress_ZEE	4	stimuli_distractor_trianglediamonds.svg	stimuli_target_trianglesquares.svg	26	yes	57	0	2047	0	0			0	0			1				0	
6.6.1	win	2023-07-06	21:41:34	21:45:55	253697	596f8a83c988c000015bf765	4	1	main_z	7	main_z	5	stimuli_target_trianglesquares.svg	stimuli_distractor_diamondtriangles.svg	22	yes	44	1	714	0	0			0	0			1				0	
6.6.1	win	2023-07-06	21:41:34	21:45:55	253697	596f8a83c988c000015bf765	4	1	main_z	7	advance_on_keypress_ZEE	6	stimuli_target_trianglesquares.svg	stimuli_distractor_diamondtriangles.svg	22	yes	57	0	1858	0	0			0	0			1				0	
6.6.1	win	2023-07-06	21:41:34	21:45:58	256623	596f8a83c988c000015bf765	4	1	main_z	7	main_z	7	stimuli_target_diamondrectangles.svg	stimuli_distractor_diamondtriangles.svg	23	yes	44	1	408	0	0			0	0			1				0	
6.6.1	win	2023-07-06	21:41:34	21:45:58	256623	596f8a83c988c000015bf765	4	1	main_z	7	advance_on_keypress_ZEE	8	stimuli_target_diamondrectangles.svg	stimuli_distractor_diamondtriangles.svg	23	yes	57	0	1445	0	0			0	0			1				0	
6.6.1	win	2023-07-06	21:41:34	21:46:01	259723	596f8a83c988c000015bf765	4	1	main_z	7	main_z	9	stimuli_target_rectanglediamonds.svg	stimuli_distractor_trianglediamonds.svg	2	yes	44	1	995	0	0			0	0			1				0	
6.6.1	win	2023-07-06	21:41:34	21:46:01	259723	596f8a83c988c000015bf765	4	1	main_z	7	advance_on_keypress_ZEE	10	stimuli_target_rectanglediamonds.svg	stimuli_distractor_trianglediamonds.svg	2	yes	57	0	2222	0	0			0	0			1				0	
6.6.1	win	2023-07-06	21:41:34	21:46:04	263524	596f8a83c988c000015bf765	4	1	main_z	7	main_z	11	stimuli_target_squarediamonds.svg	stimuli_distractor_trianglediamonds.svg	4	yes	44	1	934	0	0			0	0			1				0	
6.6.1	win	2023-07-06	21:41:34	21:46:04	263524	596f8a83c988c000015bf765	4	1	main_z	7	advance_on_keypress_ZEE	12	stimuli_target_squarediamonds.svg	stimuli_distractor_trianglediamonds.svg	4	yes	57	0	3642	0	0			0	0			1				0	
6.6.1	win	2023-07-06	21:41:34	21:46:09	268108	596f8a83c988c000015bf765	4	1	main_z	7	main_z	13	stimuli_distractor_diamondtriangles.svg	stimuli_distractor_diamondtriangles.svg	39	no	44	0	289	0	0			0	0			1				0	
6.6.1	win	2023-07-06	21:41:34	21:46:09	268108	596f8a83c988c000015bf765	4	1	main_z	7	advance_on_keypress_ZEE	14	stimuli_distractor_diamondtriangles.svg	stimuli_distractor_diamondtriangles.svg	39	no	57	0	2084	0	0			0	0			1				0	
6.6.1	win	2023-07-06	21:41:34	21:46:12	271448	596f8a83c988c000015bf765	4	1	main_z	7	main_z	15	stimuli_distractor_diamondtriangles.svg	stimuli_target_squarediamonds.svg	16	yes	44	1	616	0	0			0	0			1				0	
6.6.1	win	2023-07-06	21:41:34	21:46:12	271448	596f8a83c988c000015bf765	4	1	main_z	7	advance_on_keypress_ZEE	16	stimuli_distractor_diamondtriangles.svg	stimuli_target_squarediamonds.svg	16	yes	57	0	3144	0	0			0	0			1				0	
6.6.1	win	2023-07-06	21:41:34	21:46:18	277244	596f8a83c988c000015bf765	4	1	main_z	7	main_z	17	stimuli_distractor_trianglediamonds.svg	stimuli_distractor_trianglediamonds.svg	34	no	0	1	2000	0	0			0	0			1				0	
6.6.1	win	2023-07-06	21:41:34	21:46:18	277244	596f8a83c988c000015bf765	4	1	main_z	7	advance_on_keypress_ZEE	18	stimuli_distractor_trianglediamonds.svg	stimuli_distractor_trianglediamonds.svg	34	no	57	0	584	0	0			0	0			1				0	
6.6.1	win	2023-07-06	21:41:34	21:46:21	280474	596f8a83c988c000015bf765	4	1	main_z	7	main_z	19	stimuli_distractor_trianglediamonds.svg	stimuli_distractor_diamondtriangles.svg	36	no	0	1	2000	0	0			0	0			1				0	
6.6.1	win	2023-07-06	21:41:34	21:46:21	280474	596f8a83c988c000015bf765	4	1	main_z	7	advance_on_keypress_ZEE	20	stimuli_distractor_trianglediamonds.svg	stimuli_distractor_diamondtriangles.svg	36	no	57	0	714	0	0			0	0			1				0	
6.6.1	win	2023-07-06	21:41:34	21:46:24	282795	596f8a83c988c000015bf765	4	1	main_z	7	main_z	21	stimuli_distractor_diamondtriangles.svg	stimuli_distractor_trianglediamonds.svg	37	no	44	0	958	0	0			0	0			1				0	
6.6.1	win	2023-07-06	21:41:34	21:46:24	282795	596f8a83c988c000015bf765	4	1	main_z	7	advance_on_keypress_ZEE	22	stimuli_distractor_diamondtriangles.svg	stimuli_distractor_trianglediamonds.svg	37	no	57	0	2392	0	0			0	0			1				0	
6.6.1	win	2023-07-06	21:41:34	21:46:28	286714	596f8a83c988c000015bf765	4	1	main_z	7	main_z	23	stimuli_distractor_trianglediamonds.svg	stimuli_target_diamondrectangles.svg	27	yes	44	1	863	0	0			0	0			1				0	
6.6.1	win	2023-07-06	21:41:34	21:46:28	286714	596f8a83c988c000015bf765	4	1	main_z	7	advance_on_keypress_ZEE	24	stimuli_distractor_trianglediamonds.svg	stimuli_target_diamondrectangles.svg	27	yes	57	0	4708	0	0			0	0			1				0	
6.6.1	win	2023-07-06	21:41:34	21:46:34	292995	596f8a83c988c000015bf765	4	1	main_z	7	main_z	25	stimuli_target_rectanglediamonds.svg	stimuli_distractor_diamondtriangles.svg	6	yes	44	1	917	0	0			0	0			1				0	
6.6.1	win	2023-07-06	21:41:34	21:46:34	292995	596f8a83c988c000015bf765	4	1	main_z	7	advance_on_keypress_ZEE	26	stimuli_target_rectanglediamonds.svg	stimuli_distractor_diamondtriangles.svg	6	yes	57	0	1484	0	0			0	0			1				0	
6.6.1	win	2023-07-06	21:41:34	21:46:37	295656	596f8a83c988c000015bf765	4	1	main_z	7	main_z	27	stimuli_target_trianglerectangles.svg	stimuli_distractor_trianglediamonds.svg	17	yes	44	1	522	0	0			0	0			1				0	
6.6.1	win	2023-07-06	21:41:34	21:46:37	295656	596f8a83c988c000015bf765	4	1	main_z	7	advance_on_keypress_ZEE	28	stimuli_target_trianglerectangles.svg	stimuli_distractor_trianglediamonds.svg	17	yes	57	0	1410	0	0			0	0			1				0	
6.6.1	win	2023-07-06	21:41:34	21:46:39	298438	596f8a83c988c000015bf765	4	1	main_z	7	main_z	29	stimuli_distractor_trianglediamonds.svg	stimuli_target_diamondsquares.svg	28	yes	44	1	716	0	0			0	0			1				0	
6.6.1	win	2023-07-06	21:41:34	21:46:39	298438	596f8a83c988c000015bf765	4	1	main_z	7	advance_on_keypress_ZEE	30	stimuli_distractor_trianglediamonds.svg	stimuli_target_diamondsquares.svg	28	yes	57	0	1036	0	0			0	0			1				0	
6.6.1	win	2023-07-06	21:41:34	21:46:42	300738	596f8a83c988c000015bf765	4	1	main_z	7	main_z	31	stimuli_distractor_trianglediamonds.svg	stimuli_target_rectangletriangles.svg	9	yes	44	1	618	0	0			0	0			1				0	
6.6.1	win	2023-07-06	21:41:34	21:46:42	300738	596f8a83c988c000015bf765	4	1	main_z	7	advance_on_keypress_ZEE	32	stimuli_distractor_trianglediamonds.svg	stimuli_target_rectangletriangles.svg	9	yes	57	0	998	0	0			0	0			1				0	
6.6.1	win	2023-07-06	21:41:34	21:46:44	303129	596f8a83c988c000015bf765	4	1	main_z	7	main_z	33	stimuli_target_squaretriangles.svg	stimuli_distractor_trianglediamonds.svg	3	yes	44	1	744	0	0			0	0			1				0	
6.6.1	win	2023-07-06	21:41:34	21:46:44	303129	596f8a83c988c000015bf765	4	1	main_z	7	advance_on_keypress_ZEE	34	stimuli_target_squaretriangles.svg	stimuli_distractor_trianglediamonds.svg	3	yes	57	0	1336	0	0			0	0			1				0	
6.6.1	win	2023-07-06	21:41:34	21:46:47	305984	596f8a83c988c000015bf765	4	1	main_z	7	main_z	35	stimuli_distractor_trianglediamonds.svg	stimuli_target_rectanglediamonds.svg	10	yes	44	1	870	0	0			0	0			1				0	
6.6.1	win	2023-07-06	21:41:34	21:46:47	305984	596f8a83c988c000015bf765	4	1	main_z	7	advance_on_keypress_ZEE	36	stimuli_distractor_trianglediamonds.svg	stimuli_target_rectanglediamonds.svg	10	yes	57	0	1184	0	0			0	0			1				0	
6.6.1	win	2023-07-06	21:41:34	21:46:51	309812	596f8a83c988c000015bf765	4	1	main_z	7	main_z	37	stimuli_distractor_diamondtriangles.svg	stimuli_distractor_diamondtriangles.svg	40	no	0	1	2000	0	0			0	0			1				0	
6.6.1	win	2023-07-06	21:41:34	21:46:51	309812	596f8a83c988c000015bf765	4	1	main_z	7	advance_on_keypress_ZEE	38	stimuli_distractor_diamondtriangles.svg	stimuli_distractor_diamondtriangles.svg	40	no	57	0	499	0	0			0	0			1				0	
6.6.1	win	2023-07-06	21:41:34	21:46:52	311403	596f8a83c988c000015bf765	4	1	main_z	7	main_z	39	stimuli_target_trianglerectangles.svg	stimuli_distractor_diamondtriangles.svg	21	yes	44	1	444	0	0			0	0			1				0	
6.6.1	win	2023-07-06	21:41:34	21:46:52	311403	596f8a83c988c000015bf765	4	1	main_z	7	advance_on_keypress_ZEE	40	stimuli_target_trianglerectangles.svg	stimuli_distractor_diamondtriangles.svg	21	yes	57	0	1085	0	0			0	0			1				0	
6.6.1	win	2023-07-06	21:41:34	21:46:55	313780	596f8a83c988c000015bf765	4	1	main_z	7	main_z	41	stimuli_distractor_diamondtriangles.svg	stimuli_target_rectanglediamonds.svg	14	yes	44	1	640	0	0			0	0			1				0	
6.6.1	win	2023-07-06	21:41:34	21:46:55	313780	596f8a83c988c000015bf765	4	1	main_z	7	advance_on_keypress_ZEE	42	stimuli_distractor_diamondtriangles.svg	stimuli_target_rectanglediamonds.svg	14	yes	57	0	1694	0	0			0	0			1				0	
6.6.1	win	2023-07-06	21:41:34	21:46:58	316933	596f8a83c988c000015bf765	4	1	main_z	7	main_z	43	stimuli_target_rectangletriangles.svg	stimuli_distractor_diamondtriangles.svg	5	yes	44	1	797	0	0			0	0			1				0	
6.6.1	win	2023-07-06	21:41:34	21:46:58	316933	596f8a83c988c000015bf765	4	1	main_z	7	advance_on_keypress_ZEE	44	stimuli_target_rectangletriangles.svg	stimuli_distractor_diamondtriangles.svg	5	yes	57	0	1994	0	0			0	0			1				0	
6.6.1	win	2023-07-06	21:41:34	21:47:01	319874	596f8a83c988c000015bf765	4	1	main_z	7	main_z	45	stimuli_target_trianglesquares.svg	stimuli_distractor_trianglediamonds.svg	18	yes	44	1	291	0	0			0	0			1				0	
6.6.1	win	2023-07-06	21:41:34	21:47:01	319874	596f8a83c988c000015bf765	4	1	main_z	7	advance_on_keypress_ZEE	46	stimuli_target_trianglesquares.svg	stimuli_distractor_trianglediamonds.svg	18	yes	57	0	1090	0	0			0	0			1				0	
6.6.1	win	2023-07-06	21:41:34	21:47:03	322165	596f8a83c988c000015bf765	4	1	main_z	7	main_z	47	stimuli_target_diamondsquares.svg	stimuli_distractor_trianglediamonds.svg	20	yes	44	1	550	0	0			0	0			1				0	
6.6.1	win	2023-07-06	21:41:34	21:47:03	322165	596f8a83c988c000015bf765	4	1	main_z	7	advance_on_keypress_ZEE	48	stimuli_target_diamondsquares.svg	stimuli_distractor_trianglediamonds.svg	20	yes	57	0	1019	0	0			0	0			1				0	
6.6.1	win	2023-07-06	21:41:34	21:47:05	324473	596f8a83c988c000015bf765	4	1	main_z	7	main_z	49	stimuli_target_squarediamonds.svg	stimuli_distractor_diamondtriangles.svg	8	yes	44	1	643	0	0			0	0			1				0	
6.6.1	win	2023-07-06	21:41:34	21:47:05	324473	596f8a83c988c000015bf765	4	1	main_z	7	advance_on_keypress_ZEE	50	stimuli_target_squarediamonds.svg	stimuli_distractor_diamondtriangles.svg	8	yes	57	0	754	0	0			0	0			1				0	
6.6.1	win	2023-07-06	21:41:34	21:47:08	326680	596f8a83c988c000015bf765	4	1	main_z	7	main_z	51	stimuli_distractor_diamondtriangles.svg	stimuli_target_rectangletriangles.svg	13	yes	44	1	803	0	0			0	0			1				0	
6.6.1	win	2023-07-06	21:41:34	21:47:08	326680	596f8a83c988c000015bf765	4	1	main_z	7	advance_on_keypress_ZEE	52	stimuli_distractor_diamondtriangles.svg	stimuli_target_rectangletriangles.svg	13	yes	57	0	633	0	0			0	0			1				0	
6.6.1	win	2023-07-06	21:41:34	21:47:09	328392	596f8a83c988c000015bf765	4	1	main_z	7	main_z	53	stimuli_target_diamondrectangles.svg	stimuli_distractor_trianglediamonds.svg	19	yes	44	1	433	0	0			0	0			1				0	
6.6.1	win	2023-07-06	21:41:34	21:47:09	328392	596f8a83c988c000015bf765	4	1	main_z	7	advance_on_keypress_ZEE	54	stimuli_target_diamondrectangles.svg	stimuli_distractor_trianglediamonds.svg	19	yes	57	0	1576	0	0			0	0			1				0	
6.6.1	win	2023-07-06	21:41:34	21:47:12	331411	596f8a83c988c000015bf765	4	1	main_z	7	main_z	55	stimuli_distractor_trianglediamonds.svg	stimuli_target_trianglerectangles.svg	25	yes	44	1	789	0	0			0	0			1				0	
6.6.1	win	2023-07-06	21:41:34	21:47:12	331411	596f8a83c988c000015bf765	4	1	main_z	7	advance_on_keypress_ZEE	56	stimuli_distractor_trianglediamonds.svg	stimuli_target_trianglerectangles.svg	25	yes	57	0	1959	0	0			0	0			1				0	
6.6.1	win	2023-07-06	21:41:34	21:47:16	334710	596f8a83c988c000015bf765	4	1	main_z	7	main_z	57	stimuli_distractor_trianglediamonds.svg	stimuli_target_squaretriangles.svg	11	yes	44	1	691	0	0			0	0			1				0	
6.6.1	win	2023-07-06	21:41:34	21:47:16	334710	596f8a83c988c000015bf765	4	1	main_z	7	advance_on_keypress_ZEE	58	stimuli_distractor_trianglediamonds.svg	stimuli_target_squaretriangles.svg	11	yes	57	0	1776	0	0			0	0			1				0	
6.6.1	win	2023-07-06	21:41:34	21:47:19	337735	596f8a83c988c000015bf765	4	1	main_z	7	main_z	59	stimuli_target_diamondsquares.svg	stimuli_distractor_diamondtriangles.svg	24	yes	44	1	585	0	0			0	0			1				0	
6.6.1	win	2023-07-06	21:41:34	21:47:19	337735	596f8a83c988c000015bf765	4	1	main_z	7	advance_on_keypress_ZEE	60	stimuli_target_diamondsquares.svg	stimuli_distractor_diamondtriangles.svg	24	yes	57	0	1318	0	0			0	0			1				0	
6.6.1	win	2023-07-06	21:41:34	21:47:21	340130	596f8a83c988c000015bf765	4	1	main_z	7	main_z	61	stimuli_distractor_diamondtriangles.svg	stimuli_target_squaretriangles.svg	15	yes	44	1	433	0	0			0	0			1				0	
6.6.1	win	2023-07-06	21:41:34	21:47:21	340130	596f8a83c988c000015bf765	4	1	main_z	7	advance_on_keypress_ZEE	62	stimuli_distractor_diamondtriangles.svg	stimuli_target_squaretriangles.svg	15	yes	57	0	1922	0	0			0	0			1				0	
6.6.1	win	2023-07-06	21:41:34	21:47:24	343261	596f8a83c988c000015bf765	4	1	main_z	7	main_z	63	stimuli_distractor_diamondtriangles.svg	stimuli_target_diamondrectangles.svg	31	yes	44	1	567	0	0			0	0			1				0	
6.6.1	win	2023-07-06	21:41:34	21:47:24	343261	596f8a83c988c000015bf765	4	1	main_z	7	advance_on_keypress_ZEE	64	stimuli_distractor_diamondtriangles.svg	stimuli_target_diamondrectangles.svg	31	yes	57	0	3044	0	0			0	0			1				0	
6.6.1	win	2023-07-06	21:41:34	21:47:29	347657	596f8a83c988c000015bf765	4	1	main_z	7	main_z	65	stimuli_distractor_trianglediamonds.svg	stimuli_distractor_diamondtriangles.svg	35	no	44	0	701	0	0			0	0			1				0	
6.6.1	win	2023-07-06	21:41:34	21:47:29	347657	596f8a83c988c000015bf765	4	1	main_z	7	advance_on_keypress_ZEE	66	stimuli_distractor_trianglediamonds.svg	stimuli_distractor_diamondtriangles.svg	35	no	57	0	1719	0	0			0	0			1				0	
6.6.1	win	2023-07-06	21:41:34	21:47:32	350657	596f8a83c988c000015bf765	4	1	main_z	7	main_z	67	stimuli_target_squaretriangles.svg	stimuli_distractor_diamondtriangles.svg	7	yes	44	1	637	0	0			0	0			1				0	
6.6.1	win	2023-07-06	21:41:34	21:47:32	350657	596f8a83c988c000015bf765	4	1	main_z	7	advance_on_keypress_ZEE	68	stimuli_target_squaretriangles.svg	stimuli_distractor_diamondtriangles.svg	7	yes	57	0	1711	0	0			0	0			1				0	
6.6.1	win	2023-07-06	21:41:34	21:47:36	355017	596f8a83c988c000015bf765	4	1	main_z	7	main_z	69	stimuli_distractor_diamondtriangles.svg	stimuli_distractor_trianglediamonds.svg	38	no	0	1	2000	0	0			0	0			1				0	
6.6.1	win	2023-07-06	21:41:34	21:47:36	355017	596f8a83c988c000015bf765	4	1	main_z	7	advance_on_keypress_ZEE	70	stimuli_distractor_diamondtriangles.svg	stimuli_distractor_trianglediamonds.svg	38	no	57	0	351	0	0			0	0			1				0	
6.6.1	win	2023-07-06	21:41:34	21:47:38	356637	596f8a83c988c000015bf765	4	1	main_z	7	main_z	71	stimuli_distractor_diamondtriangles.svg	stimuli_target_trianglesquares.svg	30	yes	44	1	624	0	0			0	0			1				0	
6.6.1	win	2023-07-06	21:41:34	21:47:38	356637	596f8a83c988c000015bf765	4	1	main_z	7	advance_on_keypress_ZEE	72	stimuli_distractor_diamondtriangles.svg	stimuli_target_trianglesquares.svg	30	yes	57	0	1022	0	0			0	0			1				0	
6.6.1	win	2023-07-06	21:41:34	21:47:40	359214	596f8a83c988c000015bf765	4	1	main_z	7	main_z	73	stimuli_distractor_trianglediamonds.svg	stimuli_target_squarediamonds.svg	12	yes	44	1	902	0	0			0	0			1				0	
6.6.1	win	2023-07-06	21:41:34	21:47:40	359214	596f8a83c988c000015bf765	4	1	main_z	7	advance_on_keypress_ZEE	74	stimuli_distractor_trianglediamonds.svg	stimuli_target_squarediamonds.svg	12	yes	57	0	1133	0	0			0	0			1				0	
6.6.1	win	2023-07-06	21:41:34	21:47:42	361336	596f8a83c988c000015bf765	4	1	main_z	7	main_z	75	stimuli_distractor_diamondtriangles.svg	stimuli_target_diamondsquares.svg	32	yes	44	1	344	0	0			0	0			1				0	
6.6.1	win	2023-07-06	21:41:34	21:47:42	361336	596f8a83c988c000015bf765	4	1	main_z	7	advance_on_keypress_ZEE	76	stimuli_distractor_diamondtriangles.svg	stimuli_target_diamondsquares.svg	32	yes	57	0	988	0	0			0	0			1				0	
6.6.1	win	2023-07-06	21:41:34	21:47:44	363188	596f8a83c988c000015bf765	4	1	main_z	7	main_z	77	stimuli_target_rectangletriangles.svg	stimuli_distractor_trianglediamonds.svg	1	yes	44	1	214	0	0			0	0			1				0	
6.6.1	win	2023-07-06	21:41:34	21:47:44	363188	596f8a83c988c000015bf765	4	1	main_z	7	advance_on_keypress_ZEE	78	stimuli_target_rectangletriangles.svg	stimuli_distractor_trianglediamonds.svg	1	yes	57	0	1579	0	0			0	0			1				0	
6.6.1	win	2023-07-06	21:41:34	21:47:48	367421	596f8a83c988c000015bf765	4	1	main_z	7	main_z	79	stimuli_distractor_trianglediamonds.svg	stimuli_distractor_trianglediamonds.svg	33	no	0	1	2000	0	0			0	0			1				0	
6.6.1	win	2023-07-06	21:41:34	21:47:48	367421	596f8a83c988c000015bf765	4	1	main_z	7	advance_on_keypress_ZEE	80	stimuli_distractor_trianglediamonds.svg	stimuli_distractor_trianglediamonds.svg	33	no	57	0	786	0	0			0	0			1				0	
6.6.1	win	2023-07-06	21:41:34	21:47:50	369136	596f8a83c988c000015bf765	4	1	main_z	7	main_z	81	stimuli_distractor_trianglediamonds.svg	stimuli_target_squaretriangles.svg	11	yes	44	1	285	0	0			0	0			1				0	
6.6.1	win	2023-07-06	21:41:34	21:47:50	369136	596f8a83c988c000015bf765	4	1	main_z	7	advance_on_keypress_ZEE	82	stimuli_distractor_trianglediamonds.svg	stimuli_target_squaretriangles.svg	11	yes	57	0	1347	0	0			0	0			1				0	
6.6.1	win	2023-07-06	21:41:34	21:47:53	371607	596f8a83c988c000015bf765	4	1	main_z	7	main_z	83	stimuli_distractor_diamondtriangles.svg	stimuli_target_squaretriangles.svg	15	yes	44	1	475	0	0			0	0			1				0	
6.6.1	win	2023-07-06	21:41:34	21:47:53	371607	596f8a83c988c000015bf765	4	1	main_z	7	advance_on_keypress_ZEE	84	stimuli_distractor_diamondtriangles.svg	stimuli_target_squaretriangles.svg	15	yes	57	0	947	0	0			0	0			1				0	
6.6.1	win	2023-07-06	21:41:34	21:47:55	374289	596f8a83c988c000015bf765	4	1	main_z	7	main_z	85	stimuli_target_trianglesquares.svg	stimuli_distractor_trianglediamonds.svg	18	yes	44	1	1075	0	0			0	0			1				0	
6.6.1	win	2023-07-06	21:41:34	21:47:55	374289	596f8a83c988c000015bf765	4	1	main_z	7	advance_on_keypress_ZEE	86	stimuli_target_trianglesquares.svg	stimuli_distractor_trianglediamonds.svg	18	yes	57	0	995	0	0			0	0			1				0	
6.6.1	win	2023-07-06	21:41:34	21:47:57	376548	596f8a83c988c000015bf765	4	1	main_z	7	main_z	87	stimuli_distractor_trianglediamonds.svg	stimuli_target_diamondrectangles.svg	27	yes	44	1	604	0	0			0	0			1				0	
6.6.1	win	2023-07-06	21:41:34	21:47:57	376548	596f8a83c988c000015bf765	4	1	main_z	7	advance_on_keypress_ZEE	88	stimuli_distractor_trianglediamonds.svg	stimuli_target_diamondrectangles.svg	27	yes	57	0	1429	0	0			0	0			1				0	
6.6.1	win	2023-07-06	21:41:34	21:48:00	379155	596f8a83c988c000015bf765	4	1	main_z	7	main_z	89	stimuli_target_squaretriangles.svg	stimuli_distractor_diamondtriangles.svg	7	yes	44	1	510	0	0			0	0			1				0	
6.6.1	win	2023-07-06	21:41:34	21:48:00	379155	596f8a83c988c000015bf765	4	1	main_z	7	advance_on_keypress_ZEE	90	stimuli_target_squaretriangles.svg	stimuli_distractor_diamondtriangles.svg	7	yes	57	0	902	0	0			0	0			1				0	
6.6.1	win	2023-07-06	21:41:34	21:48:04	382706	596f8a83c988c000015bf765	4	1	main_z	7	main_z	91	stimuli_distractor_diamondtriangles.svg	stimuli_distractor_trianglediamonds.svg	37	no	0	1	2000	0	0			0	0			1				0	
6.6.1	win	2023-07-06	21:41:34	21:48:04	382706	596f8a83c988c000015bf765	4	1	main_z	7	advance_on_keypress_ZEE	92	stimuli_distractor_diamondtriangles.svg	stimuli_distractor_trianglediamonds.svg	37	no	57	0	1392	0	0			0	0			1				0	
6.6.1	win	2023-07-06	21:41:34	21:48:06	385067	596f8a83c988c000015bf765	4	1	main_z	7	main_z	93	stimuli_distractor_diamondtriangles.svg	stimuli_distractor_diamondtriangles.svg	39	no	44	0	315	0	0			0	0			1				0	
6.6.1	win	2023-07-06	21:41:34	21:48:06	385067	596f8a83c988c000015bf765	4	1	main_z	7	advance_on_keypress_ZEE	94	stimuli_distractor_diamondtriangles.svg	stimuli_distractor_diamondtriangles.svg	39	no	57	0	937	0	0			0	0			1				0	
6.6.1	win	2023-07-06	21:41:34	21:48:08	386962	596f8a83c988c000015bf765	4	1	main_z	7	main_z	95	stimuli_distractor_trianglediamonds.svg	stimuli_distractor_diamondtriangles.svg	36	no	44	0	313	0	0			0	0			1				0	
6.6.1	win	2023-07-06	21:41:34	21:48:08	386962	596f8a83c988c000015bf765	4	1	main_z	7	advance_on_keypress_ZEE	96	stimuli_distractor_trianglediamonds.svg	stimuli_distractor_diamondtriangles.svg	36	no	57	0	1844	0	0			0	0			1				0	
6.6.1	win	2023-07-06	21:41:34	21:48:11	390101	596f8a83c988c000015bf765	4	1	main_z	7	main_z	97	stimuli_target_diamondrectangles.svg	stimuli_distractor_trianglediamonds.svg	19	yes	44	1	637	0	0			0	0			1				0	
6.6.1	win	2023-07-06	21:41:34	21:48:11	390101	596f8a83c988c000015bf765	4	1	main_z	7	advance_on_keypress_ZEE	98	stimuli_target_diamondrectangles.svg	stimuli_distractor_trianglediamonds.svg	19	yes	57	0	905	0	0			0	0			1				0	
6.6.1	win	2023-07-06	21:41:34	21:48:13	392484	596f8a83c988c000015bf765	4	1	main_z	7	main_z	99	stimuli_distractor_trianglediamonds.svg	stimuli_target_rectangletriangles.svg	9	yes	44	1	839	0	0			0	0			1				0	
6.6.1	win	2023-07-06	21:41:34	21:48:13	392484	596f8a83c988c000015bf765	4	1	main_z	7	advance_on_keypress_ZEE	100	stimuli_distractor_trianglediamonds.svg	stimuli_target_rectangletriangles.svg	9	yes	57	0	987	0	0			0	0			1				0	
6.6.1	win	2023-07-06	21:41:34	21:48:15	394506	596f8a83c988c000015bf765	4	1	main_z	7	main_z	101	stimuli_target_rectanglediamonds.svg	stimuli_distractor_trianglediamonds.svg	2	yes	44	1	381	0	0			0	0			1				0	
6.6.1	win	2023-07-06	21:41:34	21:48:15	394506	596f8a83c988c000015bf765	4	1	main_z	7	advance_on_keypress_ZEE	102	stimuli_target_rectanglediamonds.svg	stimuli_distractor_trianglediamonds.svg	2	yes	57	0	1262	0	0			0	0			1				0	
6.6.1	win	2023-07-06	21:41:34	21:48:18	397039	596f8a83c988c000015bf765	4	1	main_z	7	main_z	103	stimuli_target_trianglerectangles.svg	stimuli_distractor_trianglediamonds.svg	17	yes	44	1	615	0	0			0	0			1				0	
6.6.1	win	2023-07-06	21:41:34	21:48:18	397039	596f8a83c988c000015bf765	4	1	main_z	7	advance_on_keypress_ZEE	104	stimuli_target_trianglerectangles.svg	stimuli_distractor_trianglediamonds.svg	17	yes	57	0	790	0	0			0	0			1				0	
6.6.1	win	2023-07-06	21:41:34	21:48:20	398905	596f8a83c988c000015bf765	4	1	main_z	7	main_z	105	stimuli_distractor_diamondtriangles.svg	stimuli_target_diamondsquares.svg	32	yes	44	1	416	0	0			0	0			1				0	
6.6.1	win	2023-07-06	21:41:34	21:48:20	398905	596f8a83c988c000015bf765	4	1	main_z	7	advance_on_keypress_ZEE	106	stimuli_distractor_diamondtriangles.svg	stimuli_target_diamondsquares.svg	32	yes	57	0	1169	0	0			0	0			1				0	
6.6.1	win	2023-07-06	21:41:34	21:48:22	400968	596f8a83c988c000015bf765	4	1	main_z	7	main_z	107	stimuli_distractor_diamondtriangles.svg	stimuli_distractor_trianglediamonds.svg	38	no	44	0	249	0	0			0	0			1				0	
6.6.1	win	2023-07-06	21:41:34	21:48:22	400968	596f8a83c988c000015bf765	4	1	main_z	7	advance_on_keypress_ZEE	108	stimuli_distractor_diamondtriangles.svg	stimuli_distractor_trianglediamonds.svg	38	no	57	0	1167	0	0			0	0			1				0	
6.6.1	win	2023-07-06	21:41:34	21:48:24	403314	596f8a83c988c000015bf765	4	1	main_z	7	main_z	109	stimuli_distractor_trianglediamonds.svg	stimuli_target_squarediamonds.svg	12	yes	44	1	519	0	0			0	0			1				0	
6.6.1	win	2023-07-06	21:41:34	21:48:24	403314	596f8a83c988c000015bf765	4	1	main_z	7	advance_on_keypress_ZEE	110	stimuli_distractor_trianglediamonds.svg	stimuli_target_squarediamonds.svg	12	yes	57	0	1117	0	0			0	0			1				0	
6.6.1	win	2023-07-06	21:41:34	21:48:26	405444	596f8a83c988c000015bf765	4	1	main_z	7	main_z	111	stimuli_distractor_diamondtriangles.svg	stimuli_target_squarediamonds.svg	16	yes	44	1	362	0	0			0	0			1				0	
6.6.1	win	2023-07-06	21:41:34	21:48:26	405444	596f8a83c988c000015bf765	4	1	main_z	7	advance_on_keypress_ZEE	112	stimuli_distractor_diamondtriangles.svg	stimuli_target_squarediamonds.svg	16	yes	57	0	1004	0	0			0	0			1				0	
6.6.1	win	2023-07-06	21:41:34	21:48:28	407381	596f8a83c988c000015bf765	4	1	main_z	7	main_z	113	stimuli_target_squaretriangles.svg	stimuli_distractor_trianglediamonds.svg	3	yes	44	1	285	0	0			0	0			1				0	
6.6.1	win	2023-07-06	21:41:34	21:48:28	407381	596f8a83c988c000015bf765	4	1	main_z	7	advance_on_keypress_ZEE	114	stimuli_target_squaretriangles.svg	stimuli_distractor_trianglediamonds.svg	3	yes	57	0	1453	0	0			0	0			1				0	
6.6.1	win	2023-07-06	21:41:34	21:48:31	409756	596f8a83c988c000015bf765	4	1	main_z	7	main_z	115	stimuli_distractor_trianglediamonds.svg	stimuli_target_rectanglediamonds.svg	10	yes	44	1	278	0	0			0	0			1				0	
6.6.1	win	2023-07-06	21:41:34	21:48:31	409756	596f8a83c988c000015bf765	4	1	main_z	7	advance_on_keypress_ZEE	116	stimuli_distractor_trianglediamonds.svg	stimuli_target_rectanglediamonds.svg	10	yes	57	0	997	0	0			0	0			1				0	
6.6.1	win	2023-07-06	21:41:34	21:48:33	412211	596f8a83c988c000015bf765	4	1	main_z	7	main_z	117	stimuli_target_trianglerectangles.svg	stimuli_distractor_diamondtriangles.svg	21	yes	44	1	802	0	0			0	0			1				0	
6.6.1	win	2023-07-06	21:41:34	21:48:33	412211	596f8a83c988c000015bf765	4	1	main_z	7	advance_on_keypress_ZEE	118	stimuli_target_trianglerectangles.svg	stimuli_distractor_diamondtriangles.svg	21	yes	57	0	995	0	0			0	0			1				0	
6.6.1	win	2023-07-06	21:41:34	21:48:35	414297	596f8a83c988c000015bf765	4	1	main_z	7	main_z	119	stimuli_target_diamondsquares.svg	stimuli_distractor_diamondtriangles.svg	24	yes	44	1	439	0	0			0	0			1				0	
6.6.1	win	2023-07-06	21:41:34	21:48:35	414297	596f8a83c988c000015bf765	4	1	main_z	7	advance_on_keypress_ZEE	120	stimuli_target_diamondsquares.svg	stimuli_distractor_diamondtriangles.svg	24	yes	57	0	1241	0	0			0	0			1				0	
6.6.1	win	2023-07-06	21:41:34	21:48:37	416517	596f8a83c988c000015bf765	4	1	main_z	7	main_z	121	stimuli_target_squarediamonds.svg	stimuli_distractor_trianglediamonds.svg	4	yes	44	1	313	0	0			0	0			1				0	
6.6.1	win	2023-07-06	21:41:34	21:48:37	416517	596f8a83c988c000015bf765	4	1	main_z	7	advance_on_keypress_ZEE	122	stimuli_target_squarediamonds.svg	stimuli_distractor_trianglediamonds.svg	4	yes	57	0	1108	0	0			0	0			1				0	
6.6.1	win	2023-07-06	21:41:34	21:48:39	418516	596f8a83c988c000015bf765	4	1	main_z	7	main_z	123	stimuli_distractor_diamondtriangles.svg	stimuli_target_trianglesquares.svg	30	yes	44	1	230	0	0			0	0			1				0	
6.6.1	win	2023-07-06	21:41:34	21:48:39	418516	596f8a83c988c000015bf765	4	1	main_z	7	advance_on_keypress_ZEE	124	stimuli_distractor_diamondtriangles.svg	stimuli_target_trianglesquares.svg	30	yes	57	0	1130	0	0			0	0			1				0	
6.6.1	win	2023-07-06	21:41:34	21:48:42	420623	596f8a83c988c000015bf765	4	1	main_z	7	main_z	125	stimuli_target_diamondrectangles.svg	stimuli_distractor_diamondtriangles.svg	23	yes	44	1	323	0	0			0	0			1				0	
6.6.1	win	2023-07-06	21:41:34	21:48:42	420623	596f8a83c988c000015bf765	4	1	main_z	7	advance_on_keypress_ZEE	126	stimuli_target_diamondrectangles.svg	stimuli_distractor_diamondtriangles.svg	23	yes	57	0	1082	0	0			0	0			1				0	
6.6.1	win	2023-07-06	21:41:34	21:48:43	422569	596f8a83c988c000015bf765	4	1	main_z	7	main_z	127	stimuli_distractor_trianglediamonds.svg	stimuli_distractor_trianglediamonds.svg	34	no	44	0	221	0	0			0	0			1				0	
6.6.1	win	2023-07-06	21:41:34	21:48:43	422569	596f8a83c988c000015bf765	4	1	main_z	7	advance_on_keypress_ZEE	128	stimuli_distractor_trianglediamonds.svg	stimuli_distractor_trianglediamonds.svg	34	no	57	0	2194	0	0			0	0			1				0	
6.6.1	win	2023-07-06	21:41:34	21:48:47	425714	596f8a83c988c000015bf765	4	1	main_z	7	main_z	129	stimuli_target_rectanglediamonds.svg	stimuli_distractor_diamondtriangles.svg	6	yes	44	1	303	0	0			0	0			1				0	
6.6.1	win	2023-07-06	21:41:34	21:48:47	425714	596f8a83c988c000015bf765	4	1	main_z	7	advance_on_keypress_ZEE	130	stimuli_target_rectanglediamonds.svg	stimuli_distractor_diamondtriangles.svg	6	yes	57	0	1320	0	0			0	0			1				0	
6.6.1	win	2023-07-06	21:41:34	21:48:49	428018	596f8a83c988c000015bf765	4	1	main_z	7	main_z	131	stimuli_distractor_trianglediamonds.svg	stimuli_distractor_diamondtriangles.svg	35	no	44	0	343	0	0			0	0			1				0	
6.6.1	win	2023-07-06	21:41:34	21:48:49	428018	596f8a83c988c000015bf765	4	1	main_z	7	advance_on_keypress_ZEE	132	stimuli_distractor_trianglediamonds.svg	stimuli_distractor_diamondtriangles.svg	35	no	57	0	2053	0	0			0	0			1				0	
6.6.1	win	2023-07-06	21:41:34	21:48:54	432723	596f8a83c988c000015bf765	4	1	main_z	7	main_z	133	stimuli_distractor_trianglediamonds.svg	stimuli_distractor_trianglediamonds.svg	33	no	0	1	2000	0	0			0	0			1				0	
6.6.1	win	2023-07-06	21:41:34	21:48:54	432723	596f8a83c988c000015bf765	4	1	main_z	7	advance_on_keypress_ZEE	134	stimuli_distractor_trianglediamonds.svg	stimuli_distractor_trianglediamonds.svg	33	no	57	0	921	0	0			0	0			1				0	
6.6.1	win	2023-07-06	21:41:34	21:48:56	434816	596f8a83c988c000015bf765	4	1	main_z	7	main_z	135	stimuli_target_trianglesquares.svg	stimuli_distractor_diamondtriangles.svg	22	yes	44	1	522	0	0			0	0			1				0	
6.6.1	win	2023-07-06	21:41:34	21:48:56	434816	596f8a83c988c000015bf765	4	1	main_z	7	advance_on_keypress_ZEE	136	stimuli_target_trianglesquares.svg	stimuli_distractor_diamondtriangles.svg	22	yes	57	0	990	0	0			0	0			1				0	
6.6.1	win	2023-07-06	21:41:34	21:48:58	437122	596f8a83c988c000015bf765	4	1	main_z	7	main_z	137	stimuli_target_rectangletriangles.svg	stimuli_distractor_diamondtriangles.svg	5	yes	44	1	671	0	0			0	0			1				0	
6.6.1	win	2023-07-06	21:41:34	21:48:58	437122	596f8a83c988c000015bf765	4	1	main_z	7	advance_on_keypress_ZEE	138	stimuli_target_rectangletriangles.svg	stimuli_distractor_diamondtriangles.svg	5	yes	57	0	1040	0	0			0	0			1				0	
6.6.1	win	2023-07-06	21:41:34	21:49:00	439096	596f8a83c988c000015bf765	4	1	main_z	7	main_z	139	stimuli_target_rectangletriangles.svg	stimuli_distractor_trianglediamonds.svg	1	yes	44	1	281	0	0			0	0			1				0	
6.6.1	win	2023-07-06	21:41:34	21:49:00	439096	596f8a83c988c000015bf765	4	1	main_z	7	advance_on_keypress_ZEE	140	stimuli_target_rectangletriangles.svg	stimuli_distractor_trianglediamonds.svg	1	yes	57	0	939	0	0			0	0			1				0	
6.6.1	win	2023-07-06	21:41:34	21:49:02	441016	596f8a83c988c000015bf765	4	1	main_z	7	main_z	141	stimuli_target_squarediamonds.svg	stimuli_distractor_diamondtriangles.svg	8	yes	44	1	337	0	0			0	0			1				0	
6.6.1	win	2023-07-06	21:41:34	21:49:02	441016	596f8a83c988c000015bf765	4	1	main_z	7	advance_on_keypress_ZEE	142	stimuli_target_squarediamonds.svg	stimuli_distractor_diamondtriangles.svg	8	yes	57	0	1150	0	0			0	0			1				0	
6.6.1	win	2023-07-06	21:41:34	21:49:06	444811	596f8a83c988c000015bf765	4	1	main_z	7	main_z	143	stimuli_distractor_diamondtriangles.svg	stimuli_distractor_diamondtriangles.svg	40	no	0	1	2000	0	0			0	0			1				0	
6.6.1	win	2023-07-06	21:41:34	21:49:06	444811	596f8a83c988c000015bf765	4	1	main_z	7	advance_on_keypress_ZEE	144	stimuli_distractor_diamondtriangles.svg	stimuli_distractor_diamondtriangles.svg	40	no	57	0	397	0	0			0	0			1				0	
6.6.1	win	2023-07-06	21:41:34	21:49:07	446388	596f8a83c988c000015bf765	4	1	main_z	7	main_z	145	stimuli_distractor_trianglediamonds.svg	stimuli_target_trianglesquares.svg	26	yes	44	1	514	0	0			0	0			1				0	
6.6.1	win	2023-07-06	21:41:34	21:49:07	446388	596f8a83c988c000015bf765	4	1	main_z	7	advance_on_keypress_ZEE	146	stimuli_distractor_trianglediamonds.svg	stimuli_target_trianglesquares.svg	26	yes	57	0	852	0	0			0	0			1				0	
6.6.1	win	2023-07-06	21:41:34	21:49:09	448525	596f8a83c988c000015bf765	4	1	main_z	7	main_z	147	stimuli_distractor_trianglediamonds.svg	stimuli_target_diamondsquares.svg	28	yes	44	1	635	0	0			0	0			1				0	
6.6.1	win	2023-07-06	21:41:34	21:49:09	448525	596f8a83c988c000015bf765	4	1	main_z	7	advance_on_keypress_ZEE	148	stimuli_distractor_trianglediamonds.svg	stimuli_target_diamondsquares.svg	28	yes	57	0	888	0	0			0	0			1				0	
6.6.1	win	2023-07-06	21:41:34	21:49:11	450394	596f8a83c988c000015bf765	4	1	main_z	7	main_z	149	stimuli_distractor_diamondtriangles.svg	stimuli_target_rectanglediamonds.svg	14	yes	44	1	340	0	0			0	0			1				0	
6.6.1	win	2023-07-06	21:41:34	21:49:11	450394	596f8a83c988c000015bf765	4	1	main_z	7	advance_on_keypress_ZEE	150	stimuli_distractor_diamondtriangles.svg	stimuli_target_rectanglediamonds.svg	14	yes	57	0	1026	0	0			0	0			1				0	
6.6.1	win	2023-07-06	21:41:34	21:49:13	452390	596f8a83c988c000015bf765	4	1	main_z	7	main_z	151	stimuli_target_diamondsquares.svg	stimuli_distractor_trianglediamonds.svg	20	yes	44	1	305	0	0			0	0			1				0	
6.6.1	win	2023-07-06	21:41:34	21:49:13	452390	596f8a83c988c000015bf765	4	1	main_z	7	advance_on_keypress_ZEE	152	stimuli_target_diamondsquares.svg	stimuli_distractor_trianglediamonds.svg	20	yes	57	0	1145	0	0			0	0			1				0	
6.6.1	win	2023-07-06	21:41:34	21:49:15	454495	596f8a83c988c000015bf765	4	1	main_z	7	main_z	153	stimuli_distractor_diamondtriangles.svg	stimuli_target_rectangletriangles.svg	13	yes	44	1	312	0	0			0	0			1				0	
6.6.1	win	2023-07-06	21:41:34	21:49:15	454495	596f8a83c988c000015bf765	4	1	main_z	7	advance_on_keypress_ZEE	154	stimuli_distractor_diamondtriangles.svg	stimuli_target_rectangletriangles.svg	13	yes	57	0	1275	0	0			0	0			1				0	
6.6.1	win	2023-07-06	21:41:34	21:49:18	457084	596f8a83c988c000015bf765	4	1	main_z	7	main_z	155	stimuli_distractor_diamondtriangles.svg	stimuli_target_diamondrectangles.svg	31	yes	44	1	653	0	0			0	0			1				0	
6.6.1	win	2023-07-06	21:41:34	21:49:18	457084	596f8a83c988c000015bf765	4	1	main_z	7	advance_on_keypress_ZEE	156	stimuli_distractor_diamondtriangles.svg	stimuli_target_diamondrectangles.svg	31	yes	57	0	869	0	0			0	0			1				0	
6.6.1	win	2023-07-06	21:41:34	21:49:20	458908	596f8a83c988c000015bf765	4	1	main_z	7	main_z	157	stimuli_distractor_diamondtriangles.svg	stimuli_target_trianglerectangles.svg	29	yes	44	1	312	0	0			0	0			1				0	
6.6.1	win	2023-07-06	21:41:34	21:49:20	458908	596f8a83c988c000015bf765	4	1	main_z	7	advance_on_keypress_ZEE	158	stimuli_distractor_diamondtriangles.svg	stimuli_target_trianglerectangles.svg	29	yes	57	0	804	0	0			0	0			1				0	
6.6.1	win	2023-07-06	21:41:34	21:49:22	460619	596f8a83c988c000015bf765	4	1	main_z	7	main_z	159	stimuli_distractor_trianglediamonds.svg	stimuli_target_trianglerectangles.svg	25	yes	44	1	259	0	0			0	0			1				0	
6.6.1	win	2023-07-06	21:41:34	21:49:22	460619	596f8a83c988c000015bf765	4	1	main_z	7	advance_on_keypress_ZEE	160	stimuli_distractor_trianglediamonds.svg	stimuli_target_trianglerectangles.svg	25	yes	57	0	1028	0	0			0	0			1				0	
6.6.1	win	2023-07-06	21:41:34	21:49:48	487133	596f8a83c988c000015bf765	4	1	practice_slash	9	practice_slash	1	stimuli_distractor_trianglediamonds.svg	stimuli_target_diamondrectangles.svg	12	yes	53	1	406	0	0			0	0			1				0	
6.6.1	win	2023-07-06	21:41:34	21:49:48	487133	596f8a83c988c000015bf765	4	1	practice_slash	9	advance_on_keypress_SLASH	2	stimuli_distractor_trianglediamonds.svg	stimuli_target_diamondrectangles.svg	12	yes	57	0	1174	0	0			0	0			1				0	
6.6.1	win	2023-07-06	21:41:34	21:49:51	490325	596f8a83c988c000015bf765	4	1	practice_slash	9	practice_slash	3	stimuli_target_rectanglediamonds.svg	stimuli_distractor_diamondtriangles.svg	1	yes	53	1	356	0	0			0	0			1				0	
6.6.1	win	2023-07-06	21:41:34	21:49:51	490325	596f8a83c988c000015bf765	4	1	practice_slash	9	advance_on_keypress_SLASH	4	stimuli_target_rectanglediamonds.svg	stimuli_distractor_diamondtriangles.svg	1	yes	57	0	746	0	0			0	0			1				0	
6.6.1	win	2023-07-06	21:41:34	21:49:54	493019	596f8a83c988c000015bf765	4	1	practice_slash	9	practice_slash	5	stimuli_target_diamondsquares.svg	stimuli_distractor_trianglediamonds.svg	6	yes	53	1	286	0	0			0	0			1				0	
6.6.1	win	2023-07-06	21:41:34	21:49:54	493019	596f8a83c988c000015bf765	4	1	practice_slash	9	advance_on_keypress_SLASH	6	stimuli_target_diamondsquares.svg	stimuli_distractor_trianglediamonds.svg	6	yes	57	0	511	0	0			0	0			1				0	
6.6.1	win	2023-07-06	21:41:34	21:49:58	497198	596f8a83c988c000015bf765	4	1	practice_slash	9	practice_slash	7	stimuli_distractor_trianglediamonds.svg	stimuli_distractor_diamondtriangles.svg	16	no	0	1	2000	0	0			0	0			1				0	
6.6.1	win	2023-07-06	21:41:34	21:49:58	497198	596f8a83c988c000015bf765	4	1	practice_slash	9	advance_on_keypress_SLASH	8	stimuli_distractor_trianglediamonds.svg	stimuli_distractor_diamondtriangles.svg	16	no	57	0	614	0	0			0	0			1				0	
6.6.1	win	2023-07-06	21:41:34	21:50:02	501477	596f8a83c988c000015bf765	4	1	practice_slash	9	practice_slash	9	stimuli_distractor_trianglediamonds.svg	stimuli_distractor_trianglediamonds.svg	15	no	0	1	2000	0	0			0	0			1				0	
6.6.1	win	2023-07-06	21:41:34	21:50:02	501477	596f8a83c988c000015bf765	4	1	practice_slash	9	advance_on_keypress_SLASH	10	stimuli_distractor_trianglediamonds.svg	stimuli_distractor_trianglediamonds.svg	15	no	57	0	590	0	0			0	0			1				0	
6.6.1	win	2023-07-06	21:41:34	21:50:05	504079	596f8a83c988c000015bf765	4	1	practice_slash	9	practice_slash	11	stimuli_target_squarediamonds.svg	stimuli_distractor_diamondtriangles.svg	2	yes	53	1	340	0	0			0	0			1				0	
6.6.1	win	2023-07-06	21:41:34	21:50:05	504079	596f8a83c988c000015bf765	4	1	practice_slash	9	advance_on_keypress_SLASH	12	stimuli_target_squarediamonds.svg	stimuli_distractor_diamondtriangles.svg	2	yes	57	0	611	0	0			0	0			1				0	
6.6.1	win	2023-07-06	21:41:34	21:50:08	506970	596f8a83c988c000015bf765	4	1	practice_slash	9	practice_slash	13	stimuli_distractor_diamondtriangles.svg	stimuli_target_rectangletriangles.svg	7	yes	53	1	616	0	0			0	0			1				0	
6.6.1	win	2023-07-06	21:41:34	21:50:08	506970	596f8a83c988c000015bf765	4	1	practice_slash	9	advance_on_keypress_SLASH	14	stimuli_distractor_diamondtriangles.svg	stimuli_target_rectangletriangles.svg	7	yes	57	0	723	0	0			0	0			1				0	
6.6.1	win	2023-07-06	21:41:34	21:50:11	509941	596f8a83c988c000015bf765	4	1	practice_slash	9	practice_slash	15	stimuli_distractor_diamondtriangles.svg	stimuli_target_diamondrectangles.svg	8	yes	53	1	591	0	0			0	0			1				0	
6.6.1	win	2023-07-06	21:41:34	21:50:11	509941	596f8a83c988c000015bf765	4	1	practice_slash	9	advance_on_keypress_SLASH	16	stimuli_distractor_diamondtriangles.svg	stimuli_target_diamondrectangles.svg	8	yes	57	0	625	0	0			0	0			1				0	
6.6.1	win	2023-07-06	21:41:34	21:50:15	513967	596f8a83c988c000015bf765	4	1	practice_slash	9	practice_slash	17	stimuli_target_rectanglediamonds.svg	stimuli_distractor_trianglediamonds.svg	4	yes	53	1	1735	0	0			0	0			1				0	
6.6.1	win	2023-07-06	21:41:34	21:50:15	513967	596f8a83c988c000015bf765	4	1	practice_slash	9	advance_on_keypress_SLASH	18	stimuli_target_rectanglediamonds.svg	stimuli_distractor_trianglediamonds.svg	4	yes	57	0	796	0	0			0	0			1				0	
6.6.1	win	2023-07-06	21:41:34	21:50:19	518427	596f8a83c988c000015bf765	4	1	practice_slash	9	practice_slash	19	stimuli_target_diamondsquares.svg	stimuli_distractor_diamondtriangles.svg	3	yes	0	0	2000	0	0			0	0			1				0	
6.6.1	win	2023-07-06	21:41:34	21:50:19	518427	596f8a83c988c000015bf765	4	1	practice_slash	9	advance_on_keypress_SLASH	20	stimuli_target_diamondsquares.svg	stimuli_distractor_diamondtriangles.svg	3	yes	57	0	620	0	0			0	0			1				0	
6.6.1	win	2023-07-06	21:41:34	21:50:22	521082	596f8a83c988c000015bf765	4	1	practice_slash	9	practice_slash	21	stimuli_target_squarediamonds.svg	stimuli_distractor_trianglediamonds.svg	5	yes	53	1	360	0	0			0	0			1				0	
6.6.1	win	2023-07-06	21:41:34	21:50:22	521082	596f8a83c988c000015bf765	4	1	practice_slash	9	advance_on_keypress_SLASH	22	stimuli_target_squarediamonds.svg	stimuli_distractor_trianglediamonds.svg	5	yes	57	0	660	0	0			0	0			1				0	
6.6.1	win	2023-07-06	21:41:34	21:50:25	523748	596f8a83c988c000015bf765	4	1	practice_slash	9	practice_slash	23	stimuli_distractor_diamondtriangles.svg	stimuli_target_trianglerectangles.svg	9	yes	53	1	345	0	0			0	0			1				0	
6.6.1	win	2023-07-06	21:41:34	21:50:25	523748	596f8a83c988c000015bf765	4	1	practice_slash	9	advance_on_keypress_SLASH	24	stimuli_distractor_diamondtriangles.svg	stimuli_target_trianglerectangles.svg	9	yes	57	0	21	0	0			0	0			1				0	
6.6.1	win	2023-07-06	21:41:34	21:50:27	526180	596f8a83c988c000015bf765	4	1	practice_slash	9	practice_slash	25	stimuli_distractor_diamondtriangles.svg	stimuli_distractor_trianglediamonds.svg	14	no	53	0	729	0	0			0	0			1				0	
6.6.1	win	2023-07-06	21:41:34	21:50:27	526180	596f8a83c988c000015bf765	4	1	practice_slash	9	advance_on_keypress_SLASH	26	stimuli_distractor_diamondtriangles.svg	stimuli_distractor_trianglediamonds.svg	14	no	57	0	19	0	0			0	0			1				0	
6.6.1	win	2023-07-06	21:41:34	21:50:31	529882	596f8a83c988c000015bf765	4	1	practice_slash	9	practice_slash	27	stimuli_distractor_diamondtriangles.svg	stimuli_distractor_diamondtriangles.svg	13	no	0	1	2000	0	0			0	0			1				0	
6.6.1	win	2023-07-06	21:41:34	21:50:31	529882	596f8a83c988c000015bf765	4	1	practice_slash	9	advance_on_keypress_SLASH	28	stimuli_distractor_diamondtriangles.svg	stimuli_distractor_diamondtriangles.svg	13	no	57	0	455	0	0			0	0			1				0	
6.6.1	win	2023-07-06	21:41:34	21:50:33	532392	596f8a83c988c000015bf765	4	1	practice_slash	9	practice_slash	29	stimuli_distractor_trianglediamonds.svg	stimuli_target_rectanglediamonds.svg	10	yes	53	1	397	0	0			0	0			1				0	
6.6.1	win	2023-07-06	21:41:34	21:50:33	532392	596f8a83c988c000015bf765	4	1	practice_slash	9	advance_on_keypress_SLASH	30	stimuli_distractor_trianglediamonds.svg	stimuli_target_rectanglediamonds.svg	10	yes	57	0	687	0	0			0	0			1				0	
6.6.1	win	2023-07-06	21:41:34	21:50:36	535135	596f8a83c988c000015bf765	4	1	practice_slash	9	practice_slash	31	stimuli_distractor_trianglediamonds.svg	stimuli_target_squarediamonds.svg	11	yes	53	1	404	0	0			0	0			1				0	
6.6.1	win	2023-07-06	21:41:34	21:50:36	535135	596f8a83c988c000015bf765	4	1	practice_slash	9	advance_on_keypress_SLASH	32	stimuli_distractor_trianglediamonds.svg	stimuli_target_squarediamonds.svg	11	yes	57	0	93	0	0			0	0			1				0	
6.6.1	win	2023-07-06	21:41:34	21:50:40	539259	596f8a83c988c000015bf765	4	1	main_slash	11	main_slash	1	stimuli_target_trianglesquares.svg	stimuli_distractor_trianglediamonds.svg	18	yes	53	1	443	0	0			0	0			1				0	
6.6.1	win	2023-07-06	21:41:34	21:50:40	539259	596f8a83c988c000015bf765	4	1	main_slash	11	advance_on_keypress_SLASH	2	stimuli_target_trianglesquares.svg	stimuli_distractor_trianglediamonds.svg	18	yes	57	0	4840	0	0			0	0			1				0	
6.6.1	win	2023-07-06	21:41:34	21:50:46	545025	596f8a83c988c000015bf765	4	1	main_slash	11	main_slash	3	stimuli_target_squarediamonds.svg	stimuli_distractor_trianglediamonds.svg	4	yes	53	1	265	0	0			0	0			1				0	
6.6.1	win	2023-07-06	21:41:34	21:50:46	545025	596f8a83c988c000015bf765	4	1	main_slash	11	advance_on_keypress_SLASH	4	stimuli_target_squarediamonds.svg	stimuli_distractor_trianglediamonds.svg	4	yes	57	0	3934	0	0			0	0			1				0	
6.6.1	win	2023-07-06	21:41:34	21:50:53	551605	596f8a83c988c000015bf765	4	1	main_slash	11	main_slash	5	stimuli_distractor_trianglediamonds.svg	stimuli_target_diamondrectangles.svg	27	yes	0	0	2000	0	0			0	0			1				0	
6.6.1	win	2023-07-06	21:41:34	21:50:53	551605	596f8a83c988c000015bf765	4	1	main_slash	11	advance_on_keypress_SLASH	6	stimuli_distractor_trianglediamonds.svg	stimuli_target_diamondrectangles.svg	27	yes	57	0	18017	0	0			0	0			1				0	
6.6.1	win	2023-07-06	21:41:34	21:51:12	570678	596f8a83c988c000015bf765	4	1	main_slash	11	main_slash	7	stimuli_target_diamondrectangles.svg	stimuli_distractor_diamondtriangles.svg	23	yes	53	1	400	0	0			0	0			1				0	
6.6.1	win	2023-07-06	21:41:34	21:51:12	570678	596f8a83c988c000015bf765	4	1	main_slash	11	advance_on_keypress_SLASH	8	stimuli_target_diamondrectangles.svg	stimuli_distractor_diamondtriangles.svg	23	yes	57	0	21918	0	0			0	0			1				0	
6.6.1	win	2023-07-06	21:41:34	21:51:36	595245	596f8a83c988c000015bf765	4	1	main_slash	11	main_slash	9	stimuli_target_rectanglediamonds.svg	stimuli_distractor_trianglediamonds.svg	2	yes	0	0	2000	0	0			0	0			1				0	
6.6.1	win	2023-07-06	21:41:34	21:51:36	595245	596f8a83c988c000015bf765	4	1	main_slash	11	advance_on_keypress_SLASH	10	stimuli_target_rectanglediamonds.svg	stimuli_distractor_trianglediamonds.svg	2	yes	57	0	317	0	0			0	0			1				0	
6.6.1	win	2023-07-06	21:41:34	21:51:37	596552	596f8a83c988c000015bf765	4	1	main_slash	11	main_slash	11	stimuli_target_rectangletriangles.svg	stimuli_distractor_trianglediamonds.svg	1	yes	53	1	344	0	0			0	0			1				0	
6.6.1	win	2023-07-06	21:41:34	21:51:37	596552	596f8a83c988c000015bf765	4	1	main_slash	11	advance_on_keypress_SLASH	12	stimuli_target_rectangletriangles.svg	stimuli_distractor_trianglediamonds.svg	1	yes	57	0	1024	0	0			0	0			1				0	
6.6.1	win	2023-07-06	21:41:34	21:51:39	598387	596f8a83c988c000015bf765	4	1	main_slash	11	main_slash	13	stimuli_target_rectanglediamonds.svg	stimuli_distractor_diamondtriangles.svg	6	yes	53	1	135	0	0			0	0			1				0	
6.6.1	win	2023-07-06	21:41:34	21:51:39	598387	596f8a83c988c000015bf765	4	1	main_slash	11	advance_on_keypress_SLASH	14	stimuli_target_rectanglediamonds.svg	stimuli_distractor_diamondtriangles.svg	6	yes	57	0	670	0	0			0	0			1				0	
6.6.1	win	2023-07-06	21:41:34	21:51:41	599890	596f8a83c988c000015bf765	4	1	main_slash	11	main_slash	15	stimuli_target_diamondsquares.svg	stimuli_distractor_trianglediamonds.svg	20	yes	53	1	185	0	0			0	0			1				0	
6.6.1	win	2023-07-06	21:41:34	21:51:41	599890	596f8a83c988c000015bf765	4	1	main_slash	11	advance_on_keypress_SLASH	16	stimuli_target_diamondsquares.svg	stimuli_distractor_trianglediamonds.svg	20	yes	57	0	638	0	0			0	0			1				0	
6.6.1	win	2023-07-06	21:41:34	21:51:42	601404	596f8a83c988c000015bf765	4	1	main_slash	11	main_slash	17	stimuli_target_squaretriangles.svg	stimuli_distractor_diamondtriangles.svg	7	yes	53	1	235	0	0			0	0			1				0	
6.6.1	win	2023-07-06	21:41:34	21:51:42	601404	596f8a83c988c000015bf765	4	1	main_slash	11	advance_on_keypress_SLASH	18	stimuli_target_squaretriangles.svg	stimuli_distractor_diamondtriangles.svg	7	yes	57	0	706	0	0			0	0			1				0	
6.6.1	win	2023-07-06	21:41:34	21:51:46	604752	596f8a83c988c000015bf765	4	1	main_slash	11	main_slash	19	stimuli_target_squarediamonds.svg	stimuli_distractor_diamondtriangles.svg	8	yes	0	0	2000	0	0			0	0			1				0	
6.6.1	win	2023-07-06	21:41:34	21:51:46	604752	596f8a83c988c000015bf765	4	1	main_slash	11	advance_on_keypress_SLASH	20	stimuli_target_squarediamonds.svg	stimuli_distractor_diamondtriangles.svg	8	yes	57	0	614	0	0			0	0			1				0	
6.6.1	win	2023-07-06	21:41:34	21:51:47	606276	596f8a83c988c000015bf765	4	1	main_slash	11	main_slash	21	stimuli_distractor_trianglediamonds.svg	stimuli_target_trianglerectangles.svg	25	yes	53	1	260	0	0			0	0			1				0	
6.6.1	win	2023-07-06	21:41:34	21:51:47	606276	596f8a83c988c000015bf765	4	1	main_slash	11	advance_on_keypress_SLASH	22	stimuli_distractor_trianglediamonds.svg	stimuli_target_trianglerectangles.svg	25	yes	57	0	1232	0	0			0	0			1				0	
6.6.1	win	2023-07-06	21:41:34	21:51:49	608560	596f8a83c988c000015bf765	4	1	main_slash	11	main_slash	23	stimuli_distractor_trianglediamonds.svg	stimuli_target_squaretriangles.svg	11	yes	53	1	372	0	0			0	0			1				0	
6.6.1	win	2023-07-06	21:41:34	21:51:49	608560	596f8a83c988c000015bf765	4	1	main_slash	11	advance_on_keypress_SLASH	24	stimuli_distractor_trianglediamonds.svg	stimuli_target_squaretriangles.svg	11	yes	57	0	883	0	0			0	0			1				0	
6.6.1	win	2023-07-06	21:41:34	21:51:52	610767	596f8a83c988c000015bf765	4	1	main_slash	11	main_slash	25	stimuli_target_trianglerectangles.svg	stimuli_distractor_trianglediamonds.svg	17	yes	53	1	672	0	0			0	0			1				0	
6.6.1	win	2023-07-06	21:41:34	21:51:52	610767	596f8a83c988c000015bf765	4	1	main_slash	11	advance_on_keypress_SLASH	26	stimuli_target_trianglerectangles.svg	stimuli_distractor_trianglediamonds.svg	17	yes	57	0	1740	0	0			0	0			1				0	
6.6.1	win	2023-07-06	21:41:34	21:51:54	613407	596f8a83c988c000015bf765	4	1	main_slash	11	main_slash	27	stimuli_distractor_diamondtriangles.svg	stimuli_distractor_diamondtriangles.svg	40	no	53	0	249	0	0			0	0			1				0	
6.6.1	win	2023-07-06	21:41:34	21:51:54	613407	596f8a83c988c000015bf765	4	1	main_slash	11	advance_on_keypress_SLASH	28	stimuli_distractor_diamondtriangles.svg	stimuli_distractor_diamondtriangles.svg	40	no	57	0	1248	0	0			0	0			1				0	
6.6.1	win	2023-07-06	21:41:34	21:51:57	615642	596f8a83c988c000015bf765	4	1	main_slash	11	main_slash	29	stimuli_distractor_diamondtriangles.svg	stimuli_target_squarediamonds.svg	16	yes	53	1	336	0	0			0	0			1				0	
6.6.1	win	2023-07-06	21:41:34	21:51:57	615642	596f8a83c988c000015bf765	4	1	main_slash	11	advance_on_keypress_SLASH	30	stimuli_distractor_diamondtriangles.svg	stimuli_target_squarediamonds.svg	16	yes	57	0	999	0	0			0	0			1				0	
6.6.1	win	2023-07-06	21:41:34	21:52:00	618624	596f8a83c988c000015bf765	4	1	main_slash	11	main_slash	31	stimuli_target_diamondrectangles.svg	stimuli_distractor_trianglediamonds.svg	19	yes	53	1	1337	0	0			0	0			1				0	
6.6.1	win	2023-07-06	21:41:34	21:52:00	618624	596f8a83c988c000015bf765	4	1	main_slash	11	advance_on_keypress_SLASH	32	stimuli_target_diamondrectangles.svg	stimuli_distractor_trianglediamonds.svg	19	yes	57	0	868	0	0			0	0			1				0	
6.6.1	win	2023-07-06	21:41:34	21:52:02	620709	596f8a83c988c000015bf765	4	1	main_slash	11	main_slash	33	stimuli_distractor_diamondtriangles.svg	stimuli_target_diamondsquares.svg	32	yes	53	1	574	0	0			0	0			1				0	
6.6.1	win	2023-07-06	21:41:34	21:52:02	620709	596f8a83c988c000015bf765	4	1	main_slash	11	advance_on_keypress_SLASH	34	stimuli_distractor_diamondtriangles.svg	stimuli_target_diamondsquares.svg	32	yes	57	0	1199	0	0			0	0			1				0	
6.6.1	win	2023-07-06	21:41:34	21:52:05	624566	596f8a83c988c000015bf765	4	1	main_slash	11	main_slash	35	stimuli_distractor_diamondtriangles.svg	stimuli_distractor_diamondtriangles.svg	39	no	0	1	2000	0	0			0	0			1				0	
6.6.1	win	2023-07-06	21:41:34	21:52:05	624566	596f8a83c988c000015bf765	4	1	main_slash	11	advance_on_keypress_SLASH	36	stimuli_distractor_diamondtriangles.svg	stimuli_distractor_diamondtriangles.svg	39	no	57	0	568	0	0			0	0			1				0	
6.6.1	win	2023-07-06	21:41:34	21:52:07	626346	596f8a83c988c000015bf765	4	1	main_slash	11	main_slash	37	stimuli_target_trianglerectangles.svg	stimuli_distractor_diamondtriangles.svg	21	yes	53	1	568	0	0			0	0			1				0	
6.6.1	win	2023-07-06	21:41:34	21:52:07	626346	596f8a83c988c000015bf765	4	1	main_slash	11	advance_on_keypress_SLASH	38	stimuli_target_trianglerectangles.svg	stimuli_distractor_diamondtriangles.svg	21	yes	57	0	1689	0	0			0	0			1				0	
6.6.1	win	2023-07-06	21:41:34	21:52:10	628951	596f8a83c988c000015bf765	4	1	main_slash	11	main_slash	39	stimuli_target_diamondsquares.svg	stimuli_distractor_diamondtriangles.svg	24	yes	53	1	274	0	0			0	0			1				0	
6.6.1	win	2023-07-06	21:41:34	21:52:10	628951	596f8a83c988c000015bf765	4	1	main_slash	11	advance_on_keypress_SLASH	40	stimuli_target_diamondsquares.svg	stimuli_distractor_diamondtriangles.svg	24	yes	57	0	933	0	0			0	0			1				0	
6.6.1	win	2023-07-06	21:41:34	21:52:12	630794	596f8a83c988c000015bf765	4	1	main_slash	11	main_slash	41	stimuli_distractor_diamondtriangles.svg	stimuli_target_rectangletriangles.svg	13	yes	53	1	253	0	0			0	0			1				0	
6.6.1	win	2023-07-06	21:41:34	21:52:12	630794	596f8a83c988c000015bf765	4	1	main_slash	11	advance_on_keypress_SLASH	42	stimuli_distractor_diamondtriangles.svg	stimuli_target_rectangletriangles.svg	13	yes	57	0	891	0	0			0	0			1				0	
6.6.1	win	2023-07-06	21:41:34	21:52:14	632869	596f8a83c988c000015bf765	4	1	main_slash	11	main_slash	43	stimuli_distractor_trianglediamonds.svg	stimuli_distractor_diamondtriangles.svg	36	no	53	0	508	0	0			0	0			1				0	
6.6.1	win	2023-07-06	21:41:34	21:52:14	632869	596f8a83c988c000015bf765	4	1	main_slash	11	advance_on_keypress_SLASH	44	stimuli_distractor_trianglediamonds.svg	stimuli_distractor_diamondtriangles.svg	36	no	57	0	987	0	0			0	0			1				0	
6.6.1	win	2023-07-06	21:41:34	21:52:16	634914	596f8a83c988c000015bf765	4	1	main_slash	11	main_slash	45	stimuli_target_rectangletriangles.svg	stimuli_distractor_diamondtriangles.svg	5	yes	53	1	407	0	0			0	0			1				0	
6.6.1	win	2023-07-06	21:41:34	21:52:16	634914	596f8a83c988c000015bf765	4	1	main_slash	11	advance_on_keypress_SLASH	46	stimuli_target_rectangletriangles.svg	stimuli_distractor_diamondtriangles.svg	5	yes	57	0	950	0	0			0	0			1				0	
6.6.1	win	2023-07-06	21:41:34	21:52:18	636883	596f8a83c988c000015bf765	4	1	main_slash	11	main_slash	47	stimuli_target_squaretriangles.svg	stimuli_distractor_trianglediamonds.svg	3	yes	53	1	364	0	0			0	0			1				0	
6.6.1	win	2023-07-06	21:41:34	21:52:18	636883	596f8a83c988c000015bf765	4	1	main_slash	11	advance_on_keypress_SLASH	48	stimuli_target_squaretriangles.svg	stimuli_distractor_trianglediamonds.svg	3	yes	57	0	850	0	0			0	0			1				0	
6.6.1	win	2023-07-06	21:41:34	21:52:20	638645	596f8a83c988c000015bf765	4	1	main_slash	11	main_slash	49	stimuli_distractor_trianglediamonds.svg	stimuli_distractor_trianglediamonds.svg	33	no	53	0	261	0	0			0	0			1				0	
6.6.1	win	2023-07-06	21:41:34	21:52:20	638645	596f8a83c988c000015bf765	4	1	main_slash	11	advance_on_keypress_SLASH	50	stimuli_distractor_trianglediamonds.svg	stimuli_distractor_trianglediamonds.svg	33	no	57	0	1061	0	0			0	0			1				0	
6.6.1	win	2023-07-06	21:41:34	21:52:22	641260	596f8a83c988c000015bf765	4	1	main_slash	11	main_slash	51	stimuli_distractor_trianglediamonds.svg	stimuli_target_squarediamonds.svg	12	yes	53	1	895	0	0			0	0			1				0	
6.6.1	win	2023-07-06	21:41:34	21:52:22	641260	596f8a83c988c000015bf765	4	1	main_slash	11	advance_on_keypress_SLASH	52	stimuli_distractor_trianglediamonds.svg	stimuli_target_squarediamonds.svg	12	yes	57	0	981	0	0			0	0			1				0	
6.6.1	win	2023-07-06	21:41:34	21:52:26	644895	596f8a83c988c000015bf765	4	1	main_slash	11	main_slash	53	stimuli_distractor_trianglediamonds.svg	stimuli_distractor_diamondtriangles.svg	35	no	0	1	2000	0	0			0	0			1				0	
6.6.1	win	2023-07-06	21:41:34	21:52:26	644895	596f8a83c988c000015bf765	4	1	main_slash	11	advance_on_keypress_SLASH	54	stimuli_distractor_trianglediamonds.svg	stimuli_distractor_diamondtriangles.svg	35	no	57	0	803	0	0			0	0			1				0	
6.6.1	win	2023-07-06	21:41:34	21:52:28	646775	596f8a83c988c000015bf765	4	1	main_slash	11	main_slash	55	stimuli_distractor_trianglediamonds.svg	stimuli_target_rectanglediamonds.svg	10	yes	53	1	432	0	0			0	0			1				0	
6.6.1	win	2023-07-06	21:41:34	21:52:28	646775	596f8a83c988c000015bf765	4	1	main_slash	11	advance_on_keypress_SLASH	56	stimuli_distractor_trianglediamonds.svg	stimuli_target_rectanglediamonds.svg	10	yes	57	0	850	0	0			0	0			1				0	
6.6.1	win	2023-07-06	21:41:34	21:52:30	648803	596f8a83c988c000015bf765	4	1	main_slash	11	main_slash	57	stimuli_distractor_diamondtriangles.svg	stimuli_target_trianglerectangles.svg	29	yes	53	1	506	0	0			0	0			1				0	
6.6.1	win	2023-07-06	21:41:34	21:52:30	648803	596f8a83c988c000015bf765	4	1	main_slash	11	advance_on_keypress_SLASH	58	stimuli_distractor_diamondtriangles.svg	stimuli_target_trianglerectangles.svg	29	yes	57	0	751	0	0			0	0			1				0	
6.6.1	win	2023-07-06	21:41:34	21:52:31	650545	596f8a83c988c000015bf765	4	1	main_slash	11	main_slash	59	stimuli_distractor_diamondtriangles.svg	stimuli_target_squaretriangles.svg	15	yes	53	1	340	0	0			0	0			1				0	
6.6.1	win	2023-07-06	21:41:34	21:52:31	650545	596f8a83c988c000015bf765	4	1	main_slash	11	advance_on_keypress_SLASH	60	stimuli_distractor_diamondtriangles.svg	stimuli_target_squaretriangles.svg	15	yes	57	0	676	0	0			0	0			1				0	
6.6.1	win	2023-07-06	21:41:34	21:52:33	652158	596f8a83c988c000015bf765	4	1	main_slash	11	main_slash	61	stimuli_distractor_diamondtriangles.svg	stimuli_distractor_trianglediamonds.svg	37	no	53	0	288	0	0			0	0			1				0	
6.6.1	win	2023-07-06	21:41:34	21:52:33	652158	596f8a83c988c000015bf765	4	1	main_slash	11	advance_on_keypress_SLASH	62	stimuli_distractor_diamondtriangles.svg	stimuli_distractor_trianglediamonds.svg	37	no	57	0	1877	0	0			0	0			1				0	
6.6.1	win	2023-07-06	21:41:34	21:52:38	656684	596f8a83c988c000015bf765	4	1	main_slash	11	main_slash	63	stimuli_distractor_diamondtriangles.svg	stimuli_distractor_trianglediamonds.svg	38	no	0	1	2000	0	0			0	0			1				0	
6.6.1	win	2023-07-06	21:41:34	21:52:38	656684	596f8a83c988c000015bf765	4	1	main_slash	11	advance_on_keypress_SLASH	64	stimuli_distractor_diamondtriangles.svg	stimuli_distractor_trianglediamonds.svg	38	no	57	0	498	0	0			0	0			1				0	
6.6.1	win	2023-07-06	21:41:34	21:52:41	659831	596f8a83c988c000015bf765	4	1	main_slash	11	main_slash	65	stimuli_distractor_trianglediamonds.svg	stimuli_distractor_trianglediamonds.svg	34	no	0	1	2000	0	0			0	0			1				0	
6.6.1	win	2023-07-06	21:41:34	21:52:41	659831	596f8a83c988c000015bf765	4	1	main_slash	11	advance_on_keypress_SLASH	66	stimuli_distractor_trianglediamonds.svg	stimuli_distractor_trianglediamonds.svg	34	no	57	0	628	0	0			0	0			1				0	
6.6.1	win	2023-07-06	21:41:34	21:52:42	661586	596f8a83c988c000015bf765	4	1	main_slash	11	main_slash	67	stimuli_distractor_diamondtriangles.svg	stimuli_target_trianglesquares.svg	30	yes	53	1	476	0	0			0	0			1				0	
6.6.1	win	2023-07-06	21:41:34	21:52:42	661586	596f8a83c988c000015bf765	4	1	main_slash	11	advance_on_keypress_SLASH	68	stimuli_distractor_diamondtriangles.svg	stimuli_target_trianglesquares.svg	30	yes	57	0	866	0	0			0	0			1				0	
6.6.1	win	2023-07-06	21:41:34	21:52:45	663603	596f8a83c988c000015bf765	4	1	main_slash	11	main_slash	69	stimuli_distractor_diamondtriangles.svg	stimuli_target_rectanglediamonds.svg	14	yes	53	1	494	0	0			0	0			1				0	
6.6.1	win	2023-07-06	21:41:34	21:52:45	663603	596f8a83c988c000015bf765	4	1	main_slash	11	advance_on_keypress_SLASH	70	stimuli_distractor_diamondtriangles.svg	stimuli_target_rectanglediamonds.svg	14	yes	57	0	709	0	0			0	0			1				0	
6.6.1	win	2023-07-06	21:41:34	21:52:46	665329	596f8a83c988c000015bf765	4	1	main_slash	11	main_slash	71	stimuli_distractor_trianglediamonds.svg	stimuli_target_diamondsquares.svg	28	yes	53	1	355	0	0			0	0			1				0	
6.6.1	win	2023-07-06	21:41:34	21:52:46	665329	596f8a83c988c000015bf765	4	1	main_slash	11	advance_on_keypress_SLASH	72	stimuli_distractor_trianglediamonds.svg	stimuli_target_diamondsquares.svg	28	yes	57	0	1492	0	0			0	0			1				0	
6.6.1	win	2023-07-06	21:41:34	21:52:49	668063	596f8a83c988c000015bf765	4	1	main_slash	11	main_slash	73	stimuli_distractor_diamondtriangles.svg	stimuli_target_diamondrectangles.svg	31	yes	53	1	592	0	0			0	0			1				0	
6.6.1	win	2023-07-06	21:41:34	21:52:49	668063	596f8a83c988c000015bf765	4	1	main_slash	11	advance_on_keypress_SLASH	74	stimuli_distractor_diamondtriangles.svg	stimuli_target_diamondrectangles.svg	31	yes	57	0	1991	0	0			0	0			1				0	
6.6.1	win	2023-07-06	21:41:34	21:52:52	671023	596f8a83c988c000015bf765	4	1	main_slash	11	main_slash	75	stimuli_distractor_trianglediamonds.svg	stimuli_target_trianglesquares.svg	26	yes	53	1	305	0	0			0	0			1				0	
6.6.1	win	2023-07-06	21:41:34	21:52:52	671023	596f8a83c988c000015bf765	4	1	main_slash	11	advance_on_keypress_SLASH	76	stimuli_distractor_trianglediamonds.svg	stimuli_target_trianglesquares.svg	26	yes	57	0	1211	0	0			0	0			1				0	
6.6.1	win	2023-07-06	21:41:34	21:52:54	673190	596f8a83c988c000015bf765	4	1	main_slash	11	main_slash	77	stimuli_target_trianglesquares.svg	stimuli_distractor_diamondtriangles.svg	22	yes	53	1	308	0	0			0	0			1				0	
6.6.1	win	2023-07-06	21:41:34	21:52:54	673190	596f8a83c988c000015bf765	4	1	main_slash	11	advance_on_keypress_SLASH	78	stimuli_target_trianglesquares.svg	stimuli_distractor_diamondtriangles.svg	22	yes	57	0	1410	0	0			0	0			1				0	
6.6.1	win	2023-07-06	21:41:34	21:52:57	675616	596f8a83c988c000015bf765	4	1	main_slash	11	main_slash	79	stimuli_distractor_trianglediamonds.svg	stimuli_target_rectangletriangles.svg	9	yes	53	1	353	0	0			0	0			1				0	
6.6.1	win	2023-07-06	21:41:34	21:52:57	675616	596f8a83c988c000015bf765	4	1	main_slash	11	advance_on_keypress_SLASH	80	stimuli_distractor_trianglediamonds.svg	stimuli_target_rectangletriangles.svg	9	yes	57	0	969	0	0			0	0			1				0	
6.6.1	win	2023-07-06	21:41:34	21:53:00	679228	596f8a83c988c000015bf765	4	1	main_slash	11	main_slash	81	stimuli_distractor_diamondtriangles.svg	stimuli_distractor_trianglediamonds.svg	38	no	0	1	2000	0	0			0	0			1				0	
6.6.1	win	2023-07-06	21:41:34	21:53:00	679228	596f8a83c988c000015bf765	4	1	main_slash	11	advance_on_keypress_SLASH	82	stimuli_distractor_diamondtriangles.svg	stimuli_distractor_trianglediamonds.svg	38	no	57	0	1152	0	0			0	0			1				0	
6.6.1	win	2023-07-06	21:41:34	21:53:02	681421	596f8a83c988c000015bf765	4	1	main_slash	11	main_slash	83	stimuli_distractor_trianglediamonds.svg	stimuli_target_diamondrectangles.svg	27	yes	53	1	390	0	0			0	0			1				0	
6.6.1	win	2023-07-06	21:41:34	21:53:02	681421	596f8a83c988c000015bf765	4	1	main_slash	11	advance_on_keypress_SLASH	84	stimuli_distractor_trianglediamonds.svg	stimuli_target_diamondrectangles.svg	27	yes	57	0	1022	0	0			0	0			1				0	
6.6.1	win	2023-07-06	21:41:34	21:53:04	683444	596f8a83c988c000015bf765	4	1	main_slash	11	main_slash	85	stimuli_distractor_diamondtriangles.svg	stimuli_target_squaretriangles.svg	15	yes	53	1	356	0	0			0	0			1				0	
6.6.1	win	2023-07-06	21:41:34	21:53:04	683444	596f8a83c988c000015bf765	4	1	main_slash	11	advance_on_keypress_SLASH	86	stimuli_distractor_diamondtriangles.svg	stimuli_target_squaretriangles.svg	15	yes	57	0	967	0	0			0	0			1				0	
6.6.1	win	2023-07-06	21:41:34	21:53:08	687054	596f8a83c988c000015bf765	4	1	main_slash	11	main_slash	87	stimuli_distractor_trianglediamonds.svg	stimuli_distractor_trianglediamonds.svg	33	no	0	1	2000	0	0			0	0			1				0	
6.6.1	win	2023-07-06	21:41:34	21:53:08	687054	596f8a83c988c000015bf765	4	1	main_slash	11	advance_on_keypress_SLASH	88	stimuli_distractor_trianglediamonds.svg	stimuli_distractor_trianglediamonds.svg	33	no	57	0	886	0	0			0	0			1				0	
6.6.1	win	2023-07-06	21:41:34	21:53:10	688980	596f8a83c988c000015bf765	4	1	main_slash	11	main_slash	89	stimuli_target_diamondrectangles.svg	stimuli_distractor_trianglediamonds.svg	19	yes	53	1	380	0	0			0	0			1				0	
6.6.1	win	2023-07-06	21:41:34	21:53:10	688980	596f8a83c988c000015bf765	4	1	main_slash	11	advance_on_keypress_SLASH	90	stimuli_target_diamondrectangles.svg	stimuli_distractor_trianglediamonds.svg	19	yes	57	0	2084	0	0			0	0			1				0	
6.6.1	win	2023-07-06	21:41:34	21:53:13	692285	596f8a83c988c000015bf765	4	1	main_slash	11	main_slash	91	stimuli_distractor_diamondtriangles.svg	stimuli_target_diamondsquares.svg	32	yes	53	1	572	0	0			0	0			1				0	
6.6.1	win	2023-07-06	21:41:34	21:53:13	692285	596f8a83c988c000015bf765	4	1	main_slash	11	advance_on_keypress_SLASH	92	stimuli_distractor_diamondtriangles.svg	stimuli_target_diamondsquares.svg	32	yes	57	0	880	0	0			0	0			1				0	
6.6.1	win	2023-07-06	21:41:34	21:53:15	694148	596f8a83c988c000015bf765	4	1	main_slash	11	main_slash	93	stimuli_target_squaretriangles.svg	stimuli_distractor_diamondtriangles.svg	7	yes	53	1	337	0	0			0	0			1				0	
6.6.1	win	2023-07-06	21:41:34	21:53:15	694148	596f8a83c988c000015bf765	4	1	main_slash	11	advance_on_keypress_SLASH	94	stimuli_target_squaretriangles.svg	stimuli_distractor_diamondtriangles.svg	7	yes	57	0	1519	0	0			0	0			1				0	
6.6.1	win	2023-07-06	21:41:34	21:53:18	696719	596f8a83c988c000015bf765	4	1	main_slash	11	main_slash	95	stimuli_distractor_trianglediamonds.svg	stimuli_target_trianglesquares.svg	26	yes	53	1	404	0	0			0	0			1				0	
6.6.1	win	2023-07-06	21:41:34	21:53:18	696719	596f8a83c988c000015bf765	4	1	main_slash	11	advance_on_keypress_SLASH	96	stimuli_distractor_trianglediamonds.svg	stimuli_target_trianglesquares.svg	26	yes	57	0	868	0	0			0	0			1				0	
6.6.1	win	2023-07-06	21:41:34	21:53:19	698563	596f8a83c988c000015bf765	4	1	main_slash	11	main_slash	97	stimuli_target_rectanglediamonds.svg	stimuli_distractor_trianglediamonds.svg	2	yes	53	1	322	0	0			0	0			1				0	
6.6.1	win	2023-07-06	21:41:34	21:53:19	698563	596f8a83c988c000015bf765	4	1	main_slash	11	advance_on_keypress_SLASH	98	stimuli_target_rectanglediamonds.svg	stimuli_distractor_trianglediamonds.svg	2	yes	57	0	795	0	0			0	0			1				0	
6.6.1	win	2023-07-06	21:41:34	21:53:21	700344	596f8a83c988c000015bf765	4	1	main_slash	11	main_slash	99	stimuli_target_trianglesquares.svg	stimuli_distractor_diamondtriangles.svg	22	yes	53	1	338	0	0			0	0			1				0	
6.6.1	win	2023-07-06	21:41:34	21:53:21	700344	596f8a83c988c000015bf765	4	1	main_slash	11	advance_on_keypress_SLASH	100	stimuli_target_trianglesquares.svg	stimuli_distractor_diamondtriangles.svg	22	yes	57	0	837	0	0			0	0			1				0	
6.6.1	win	2023-07-06	21:41:34	21:53:25	703820	596f8a83c988c000015bf765	4	1	main_slash	11	main_slash	101	stimuli_distractor_trianglediamonds.svg	stimuli_distractor_diamondtriangles.svg	36	no	0	1	2000	0	0			0	0			1				0	
6.6.1	win	2023-07-06	21:41:34	21:53:25	703820	596f8a83c988c000015bf765	4	1	main_slash	11	advance_on_keypress_SLASH	102	stimuli_distractor_trianglediamonds.svg	stimuli_distractor_diamondtriangles.svg	36	no	57	0	413	0	0			0	0			1				0	
6.6.1	win	2023-07-06	21:41:34	21:53:26	705305	596f8a83c988c000015bf765	4	1	main_slash	11	main_slash	103	stimuli_distractor_diamondtriangles.svg	stimuli_target_trianglesquares.svg	30	yes	53	1	421	0	0			0	0			1				0	
6.6.1	win	2023-07-06	21:41:34	21:53:26	705305	596f8a83c988c000015bf765	4	1	main_slash	11	advance_on_keypress_SLASH	104	stimuli_distractor_diamondtriangles.svg	stimuli_target_trianglesquares.svg	30	yes	57	0	992	0	0			0	0			1				0	
6.6.1	win	2023-07-06	21:41:34	21:53:28	707371	596f8a83c988c000015bf765	4	1	main_slash	11	main_slash	105	stimuli_target_squarediamonds.svg	stimuli_distractor_trianglediamonds.svg	4	yes	53	1	422	0	0			0	0			1				0	
6.6.1	win	2023-07-06	21:41:34	21:53:28	707371	596f8a83c988c000015bf765	4	1	main_slash	11	advance_on_keypress_SLASH	106	stimuli_target_squarediamonds.svg	stimuli_distractor_trianglediamonds.svg	4	yes	57	0	2524	0	0			0	0			1				0	
6.6.1	win	2023-07-06	21:41:34	21:53:32	711075	596f8a83c988c000015bf765	4	1	main_slash	11	main_slash	107	stimuli_distractor_diamondtriangles.svg	stimuli_target_trianglerectangles.svg	29	yes	53	1	511	0	0			0	0			1				0	
6.6.1	win	2023-07-06	21:41:34	21:53:32	711075	596f8a83c988c000015bf765	4	1	main_slash	11	advance_on_keypress_SLASH	108	stimuli_distractor_diamondtriangles.svg	stimuli_target_trianglerectangles.svg	29	yes	57	0	888	0	0			0	0			1				0	
6.6.1	win	2023-07-06	21:41:34	21:53:34	712968	596f8a83c988c000015bf765	4	1	main_slash	11	main_slash	109	stimuli_distractor_trianglediamonds.svg	stimuli_target_squaretriangles.svg	11	yes	53	1	359	0	0			0	0			1				0	
6.6.1	win	2023-07-06	21:41:34	21:53:34	712968	596f8a83c988c000015bf765	4	1	main_slash	11	advance_on_keypress_SLASH	110	stimuli_distractor_trianglediamonds.svg	stimuli_target_squaretriangles.svg	11	yes	57	0	659	0	0			0	0			1				0	
6.6.1	win	2023-07-06	21:41:34	21:53:36	714762	596f8a83c988c000015bf765	4	1	main_slash	11	main_slash	111	stimuli_target_diamondsquares.svg	stimuli_distractor_diamondtriangles.svg	24	yes	53	1	471	0	0			0	0			1				0	
6.6.1	win	2023-07-06	21:41:34	21:53:36	714762	596f8a83c988c000015bf765	4	1	main_slash	11	advance_on_keypress_SLASH	112	stimuli_target_diamondsquares.svg	stimuli_distractor_diamondtriangles.svg	24	yes	57	0	881	0	0			0	0			1				0	
6.6.1	win	2023-07-06	21:41:34	21:53:38	716710	596f8a83c988c000015bf765	4	1	main_slash	11	main_slash	113	stimuli_distractor_trianglediamonds.svg	stimuli_target_diamondsquares.svg	28	yes	53	1	421	0	0			0	0			1				0	
6.6.1	win	2023-07-06	21:41:34	21:53:38	716710	596f8a83c988c000015bf765	4	1	main_slash	11	advance_on_keypress_SLASH	114	stimuli_distractor_trianglediamonds.svg	stimuli_target_diamondsquares.svg	28	yes	57	0	760	0	0			0	0			1				0	
6.6.1	win	2023-07-06	21:41:34	21:53:39	718549	596f8a83c988c000015bf765	4	1	main_slash	11	main_slash	115	stimuli_target_diamondsquares.svg	stimuli_distractor_trianglediamonds.svg	20	yes	53	1	428	0	0			0	0			1				0	
6.6.1	win	2023-07-06	21:41:34	21:53:39	718549	596f8a83c988c000015bf765	4	1	main_slash	11	advance_on_keypress_SLASH	116	stimuli_target_diamondsquares.svg	stimuli_distractor_trianglediamonds.svg	20	yes	57	0	846	0	0			0	0			1				0	
6.6.1	win	2023-07-06	21:41:34	21:53:43	722052	596f8a83c988c000015bf765	4	1	main_slash	11	main_slash	117	stimuli_distractor_trianglediamonds.svg	stimuli_target_rectangletriangles.svg	9	yes	0	0	2000	0	0			0	0			1				0	
6.6.1	win	2023-07-06	21:41:34	21:53:43	722052	596f8a83c988c000015bf765	4	1	main_slash	11	advance_on_keypress_SLASH	118	stimuli_distractor_trianglediamonds.svg	stimuli_target_rectangletriangles.svg	9	yes	57	0	733	0	0			0	0			1				0	
6.6.1	win	2023-07-06	21:41:34	21:53:45	723781	596f8a83c988c000015bf765	4	1	main_slash	11	main_slash	119	stimuli_distractor_diamondtriangles.svg	stimuli_target_diamondrectangles.svg	31	yes	53	1	350	0	0			0	0			1				0	
6.6.1	win	2023-07-06	21:41:34	21:53:45	723781	596f8a83c988c000015bf765	4	1	main_slash	11	advance_on_keypress_SLASH	120	stimuli_distractor_diamondtriangles.svg	stimuli_target_diamondrectangles.svg	31	yes	57	0	842	0	0			0	0			1				0	
6.6.1	win	2023-07-06	21:41:34	21:53:47	725618	596f8a83c988c000015bf765	4	1	main_slash	11	main_slash	121	stimuli_distractor_trianglediamonds.svg	stimuli_target_rectanglediamonds.svg	10	yes	53	1	338	0	0			0	0			1				0	
6.6.1	win	2023-07-06	21:41:34	21:53:47	725618	596f8a83c988c000015bf765	4	1	main_slash	11	advance_on_keypress_SLASH	122	stimuli_distractor_trianglediamonds.svg	stimuli_target_rectanglediamonds.svg	10	yes	57	0	806	0	0			0	0			1				0	
6.6.1	win	2023-07-06	21:41:34	21:53:48	727458	596f8a83c988c000015bf765	4	1	main_slash	11	main_slash	123	stimuli_target_rectangletriangles.svg	stimuli_distractor_trianglediamonds.svg	1	yes	53	1	394	0	0			0	0			1				0	
6.6.1	win	2023-07-06	21:41:34	21:53:48	727458	596f8a83c988c000015bf765	4	1	main_slash	11	advance_on_keypress_SLASH	124	stimuli_target_rectangletriangles.svg	stimuli_distractor_trianglediamonds.svg	1	yes	57	0	670	0	0			0	0			1				0	
6.6.1	win	2023-07-06	21:41:34	21:53:50	729062	596f8a83c988c000015bf765	4	1	main_slash	11	main_slash	125	stimuli_distractor_trianglediamonds.svg	stimuli_target_trianglerectangles.svg	25	yes	53	1	285	0	0			0	0			1				0	
6.6.1	win	2023-07-06	21:41:34	21:53:50	729062	596f8a83c988c000015bf765	4	1	main_slash	11	advance_on_keypress_SLASH	126	stimuli_distractor_trianglediamonds.svg	stimuli_target_trianglerectangles.svg	25	yes	57	0	802	0	0			0	0			1				0	
6.6.1	win	2023-07-06	21:41:34	21:53:52	731406	596f8a83c988c000015bf765	4	1	main_slash	11	main_slash	127	stimuli_target_trianglesquares.svg	stimuli_distractor_trianglediamonds.svg	18	yes	53	1	897	0	0			0	0			1				0	
6.6.1	win	2023-07-06	21:41:34	21:53:52	731406	596f8a83c988c000015bf765	4	1	main_slash	11	advance_on_keypress_SLASH	128	stimuli_target_trianglesquares.svg	stimuli_distractor_trianglediamonds.svg	18	yes	57	0	767	0	0			0	0			1				0	
6.6.1	win	2023-07-06	21:41:34	21:53:54	733171	596f8a83c988c000015bf765	4	1	main_slash	11	main_slash	129	stimuli_distractor_diamondtriangles.svg	stimuli_distractor_diamondtriangles.svg	40	no	53	0	348	0	0			0	0			1				0	
6.6.1	win	2023-07-06	21:41:34	21:53:54	733171	596f8a83c988c000015bf765	4	1	main_slash	11	advance_on_keypress_SLASH	130	stimuli_distractor_diamondtriangles.svg	stimuli_distractor_diamondtriangles.svg	40	no	57	0	769	0	0			0	0			1				0	
6.6.1	win	2023-07-06	21:41:34	21:53:56	735176	596f8a83c988c000015bf765	4	1	main_slash	11	main_slash	131	stimuli_target_squaretriangles.svg	stimuli_distractor_trianglediamonds.svg	3	yes	53	1	588	0	0			0	0			1				0	
6.6.1	win	2023-07-06	21:41:34	21:53:56	735176	596f8a83c988c000015bf765	4	1	main_slash	11	advance_on_keypress_SLASH	132	stimuli_target_squaretriangles.svg	stimuli_distractor_trianglediamonds.svg	3	yes	57	0	802	0	0			0	0			1				0	
6.6.1	win	2023-07-06	21:41:34	21:53:58	737015	596f8a83c988c000015bf765	4	1	main_slash	11	main_slash	133	stimuli_distractor_diamondtriangles.svg	stimuli_target_rectanglediamonds.svg	14	yes	53	1	391	0	0			0	0			1				0	
6.6.1	win	2023-07-06	21:41:34	21:53:58	737015	596f8a83c988c000015bf765	4	1	main_slash	11	advance_on_keypress_SLASH	134	stimuli_distractor_diamondtriangles.svg	stimuli_target_rectanglediamonds.svg	14	yes	57	0	1172	0	0			0	0			1				0	
6.6.1	win	2023-07-06	21:41:34	21:54:00	739490	596f8a83c988c000015bf765	4	1	main_slash	11	main_slash	135	stimuli_distractor_diamondtriangles.svg	stimuli_distractor_trianglediamonds.svg	37	no	53	0	656	0	0			0	0			1				0	
6.6.1	win	2023-07-06	21:41:34	21:54:00	739490	596f8a83c988c000015bf765	4	1	main_slash	11	advance_on_keypress_SLASH	136	stimuli_distractor_diamondtriangles.svg	stimuli_distractor_trianglediamonds.svg	37	no	57	0	1190	0	0			0	0			1				0	
6.6.1	win	2023-07-06	21:41:34	21:54:03	741997	596f8a83c988c000015bf765	4	1	main_slash	11	main_slash	137	stimuli_target_rectanglediamonds.svg	stimuli_distractor_diamondtriangles.svg	6	yes	53	1	649	0	0			0	0			1				0	
6.6.1	win	2023-07-06	21:41:34	21:54:03	741997	596f8a83c988c000015bf765	4	1	main_slash	11	advance_on_keypress_SLASH	138	stimuli_target_rectanglediamonds.svg	stimuli_distractor_diamondtriangles.svg	6	yes	57	0	870	0	0			0	0			1				0	
6.6.1	win	2023-07-06	21:41:34	21:54:05	743844	596f8a83c988c000015bf765	4	1	main_slash	11	main_slash	139	stimuli_distractor_trianglediamonds.svg	stimuli_distractor_trianglediamonds.svg	34	no	53	0	333	0	0			0	0			1				0	
6.6.1	win	2023-07-06	21:41:34	21:54:05	743844	596f8a83c988c000015bf765	4	1	main_slash	11	advance_on_keypress_SLASH	140	stimuli_distractor_trianglediamonds.svg	stimuli_distractor_trianglediamonds.svg	34	no	57	0	1650	0	0			0	0			1				0	
6.6.1	win	2023-07-06	21:41:34	21:54:07	746447	596f8a83c988c000015bf765	4	1	main_slash	11	main_slash	141	stimuli_target_squarediamonds.svg	stimuli_distractor_diamondtriangles.svg	8	yes	53	1	304	0	0			0	0			1				0	
6.6.1	win	2023-07-06	21:41:34	21:54:07	746447	596f8a83c988c000015bf765	4	1	main_slash	11	advance_on_keypress_SLASH	142	stimuli_target_squarediamonds.svg	stimuli_distractor_diamondtriangles.svg	8	yes	57	0	875	0	0			0	0			1				0	
6.6.1	win	2023-07-06	21:41:34	21:54:09	748340	596f8a83c988c000015bf765	4	1	main_slash	11	main_slash	143	stimuli_distractor_diamondtriangles.svg	stimuli_target_squarediamonds.svg	16	yes	53	1	365	0	0			0	0			1				0	
6.6.1	win	2023-07-06	21:41:34	21:54:09	748340	596f8a83c988c000015bf765	4	1	main_slash	11	advance_on_keypress_SLASH	144	stimuli_distractor_diamondtriangles.svg	stimuli_target_squarediamonds.svg	16	yes	57	0	910	0	0			0	0			1				0	
6.6.1	win	2023-07-06	21:41:34	21:54:11	750155	596f8a83c988c000015bf765	4	1	main_slash	11	main_slash	145	stimuli_distractor_diamondtriangles.svg	stimuli_distractor_diamondtriangles.svg	39	no	53	0	249	0	0			0	0			1				0	
6.6.1	win	2023-07-06	21:41:34	21:54:11	750155	596f8a83c988c000015bf765	4	1	main_slash	11	advance_on_keypress_SLASH	146	stimuli_distractor_diamondtriangles.svg	stimuli_distractor_diamondtriangles.svg	39	no	57	0	2864	0	0			0	0			1				0	
6.6.1	win	2023-07-06	21:41:34	21:54:15	753940	596f8a83c988c000015bf765	4	1	main_slash	11	main_slash	147	stimuli_target_rectangletriangles.svg	stimuli_distractor_diamondtriangles.svg	5	yes	53	1	271	0	0			0	0			1				0	
6.6.1	win	2023-07-06	21:41:34	21:54:15	753940	596f8a83c988c000015bf765	4	1	main_slash	11	advance_on_keypress_SLASH	148	stimuli_target_rectangletriangles.svg	stimuli_distractor_diamondtriangles.svg	5	yes	57	0	867	0	0			0	0			1				0	
6.6.1	win	2023-07-06	21:41:34	21:54:17	755915	596f8a83c988c000015bf765	4	1	main_slash	11	main_slash	149	stimuli_target_diamondrectangles.svg	stimuli_distractor_diamondtriangles.svg	23	yes	53	1	465	0	0			0	0			1				0	
6.6.1	win	2023-07-06	21:41:34	21:54:17	755915	596f8a83c988c000015bf765	4	1	main_slash	11	advance_on_keypress_SLASH	150	stimuli_target_diamondrectangles.svg	stimuli_distractor_diamondtriangles.svg	23	yes	57	0	826	0	0			0	0			1				0	
6.6.1	win	2023-07-06	21:41:34	21:54:19	757717	596f8a83c988c000015bf765	4	1	main_slash	11	main_slash	151	stimuli_target_trianglerectangles.svg	stimuli_distractor_trianglediamonds.svg	17	yes	53	1	319	0	0			0	0			1				0	
6.6.1	win	2023-07-06	21:41:34	21:54:19	757717	596f8a83c988c000015bf765	4	1	main_slash	11	advance_on_keypress_SLASH	152	stimuli_target_trianglerectangles.svg	stimuli_distractor_trianglediamonds.svg	17	yes	57	0	864	0	0			0	0			1				0	
6.6.1	win	2023-07-06	21:41:34	21:54:20	759530	596f8a83c988c000015bf765	4	1	main_slash	11	main_slash	153	stimuli_distractor_trianglediamonds.svg	stimuli_target_squarediamonds.svg	12	yes	53	1	301	0	0			0	0			1				0	
6.6.1	win	2023-07-06	21:41:34	21:54:20	759530	596f8a83c988c000015bf765	4	1	main_slash	11	advance_on_keypress_SLASH	154	stimuli_distractor_trianglediamonds.svg	stimuli_target_squarediamonds.svg	12	yes	57	0	1312	0	0			0	0			1				0	
6.6.1	win	2023-07-06	21:41:34	21:54:23	761767	596f8a83c988c000015bf765	4	1	main_slash	11	main_slash	155	stimuli_target_trianglerectangles.svg	stimuli_distractor_diamondtriangles.svg	21	yes	53	1	273	0	0			0	0			1				0	
6.6.1	win	2023-07-06	21:41:34	21:54:23	761767	596f8a83c988c000015bf765	4	1	main_slash	11	advance_on_keypress_SLASH	156	stimuli_target_trianglerectangles.svg	stimuli_distractor_diamondtriangles.svg	21	yes	57	0	773	0	0			0	0			1				0	
6.6.1	win	2023-07-06	21:41:34	21:54:24	763551	596f8a83c988c000015bf765	4	1	main_slash	11	main_slash	157	stimuli_distractor_diamondtriangles.svg	stimuli_target_rectangletriangles.svg	13	yes	53	1	359	0	0			0	0			1				0	
6.6.1	win	2023-07-06	21:41:34	21:54:24	763551	596f8a83c988c000015bf765	4	1	main_slash	11	advance_on_keypress_SLASH	158	stimuli_distractor_diamondtriangles.svg	stimuli_target_rectangletriangles.svg	13	yes	57	0	732	0	0			0	0			1				0	
6.6.1	win	2023-07-06	21:41:34	21:54:26	765419	596f8a83c988c000015bf765	4	1	main_slash	11	main_slash	159	stimuli_distractor_trianglediamonds.svg	stimuli_distractor_diamondtriangles.svg	35	no	53	0	478	0	0			0	0			1				0	
6.6.1	win	2023-07-06	21:41:34	21:54:26	765419	596f8a83c988c000015bf765	4	1	main_slash	11	advance_on_keypress_SLASH	160	stimuli_distractor_trianglediamonds.svg	stimuli_distractor_diamondtriangles.svg	35	no	57	0	1043	0	0			0	0			1				0	
6.6.1	win	2023-07-06	21:41:34	21:54:26	765419	596f8a83c988c000015bf765	4	1	headphonecheck_calibration	14	headphonecheck_calibrationIntro	1	stimuli_distractor_trianglediamonds.svg	stimuli_distractor_diamondtriangles.svg	35	no	calibrationButton	0	2731	0	0			0	0			1				0	
6.6.1	win	2023-07-06	21:41:34	21:54:26	765419	596f8a83c988c000015bf765	4	1	headphonecheck_testphase	15	test_collectResponse	3	stimuli_distractor_trianglediamonds.svg	stimuli_distractor_diamondtriangles.svg	35	no	second	1	1005	1	5	antiphase_hc_osi.wav	2	0	0			1				0	
6.6.1	win	2023-07-06	21:41:34	21:54:26	765419	596f8a83c988c000015bf765	4	1	headphonecheck_testphase	15	test_collectResponse	6	stimuli_distractor_trianglediamonds.svg	stimuli_distractor_diamondtriangles.svg	35	no	second	1	1149	2	1	antiphase_hc_iso.wav	2	0	0			1				0	
6.6.1	win	2023-07-06	21:41:34	21:54:26	765419	596f8a83c988c000015bf765	4	1	headphonecheck_testphase	15	test_collectResponse	9	stimuli_distractor_trianglediamonds.svg	stimuli_distractor_diamondtriangles.svg	35	no	first	1	636	3	3	antiphase_hc_soi.wav	1	0	0			1				0	
6.6.1	win	2023-07-06	21:41:34	21:54:26	765419	596f8a83c988c000015bf765	4	1	headphonecheck_testphase	15	test_collectResponse	12	stimuli_distractor_trianglediamonds.svg	stimuli_distractor_diamondtriangles.svg	35	no	third	1	742	4	6	antiphase_hc_ois.wav	3	0	0			1				0	
6.6.1	win	2023-07-06	21:41:34	21:54:26	765419	596f8a83c988c000015bf765	4	1	headphonecheck_testphase	15	test_collectResponse	15	stimuli_distractor_trianglediamonds.svg	stimuli_distractor_diamondtriangles.svg	35	no	third	1	774	5	2	antiphase_hc_ios.wav	3	0	0			1				0	
6.6.1	win	2023-07-06	21:41:34	21:54:26	765419	596f8a83c988c000015bf765	4	1	headphonecheck_testphase	15	test_collectResponse	18	stimuli_distractor_trianglediamonds.svg	stimuli_distractor_diamondtriangles.svg	35	no	first	1	722	6	4	antiphase_hc_sio.wav	1	0	0			1				0	
6.6.1	win	2023-07-06	21:41:34	21:54:26	765419	596f8a83c988c000015bf765	4	1	stereocheck_calibration	17	stereocheck_calibrationIntro	1	stimuli_distractor_trianglediamonds.svg	stimuli_distractor_diamondtriangles.svg	35	no	stereocheck_calibrationButton	0	4028	6	4	antiphase_hc_sio.wav	1	0	0			1				0	
6.6.1	win	2023-07-06	21:41:34	21:54:26	765419	596f8a83c988c000015bf765	4	1	stereocheck_testphase	18	stereocheck_test_collectResponse	3	stimuli_distractor_trianglediamonds.svg	stimuli_distractor_diamondtriangles.svg	35	no	stereocheck_left	1	8625	6	4	antiphase_hc_sio.wav	1	1	2	noise_calib_stim_LEFT.wav	1	1				0	
6.6.1	win	2023-07-06	21:41:34	21:54:26	765419	596f8a83c988c000015bf765	4	1	stereocheck_testphase	18	stereocheck_test_collectResponse	6	stimuli_distractor_trianglediamonds.svg	stimuli_distractor_diamondtriangles.svg	35	no	stereocheck_right	1	113	6	4	antiphase_hc_sio.wav	1	2	4	noise_calib_stim_RIGHT.wav	2	1				0	
6.6.1	win	2023-07-06	21:41:34	21:54:26	765419	596f8a83c988c000015bf765	4	1	stereocheck_testphase	18	stereocheck_test_collectResponse	9	stimuli_distractor_trianglediamonds.svg	stimuli_distractor_diamondtriangles.svg	35	no	stereocheck_left	1	2152	6	4	antiphase_hc_sio.wav	1	3	1	noise_calib_stim_LEFT.wav	1	1				0	
6.6.1	win	2023-07-06	21:41:34	21:54:26	765419	596f8a83c988c000015bf765	4	1	stereocheck_testphase	18	stereocheck_test_collectResponse	12	stimuli_distractor_trianglediamonds.svg	stimuli_distractor_diamondtriangles.svg	35	no	stereocheck_right	1	1201	6	4	antiphase_hc_sio.wav	1	4	6	noise_calib_stim_RIGHT.wav	2	1				0	
6.6.1	win	2023-07-06	21:41:34	21:54:26	765419	596f8a83c988c000015bf765	4	1	stereocheck_testphase	18	stereocheck_test_collectResponse	15	stimuli_distractor_trianglediamonds.svg	stimuli_distractor_diamondtriangles.svg	35	no	stereocheck_right	1	635	6	4	antiphase_hc_sio.wav	1	5	5	noise_calib_stim_RIGHT.wav	2	1				0	
6.6.1	win	2023-07-06	21:41:34	21:54:26	765419	596f8a83c988c000015bf765	4	1	stereocheck_testphase	18	stereocheck_test_collectResponse	18	stimuli_distractor_trianglediamonds.svg	stimuli_distractor_diamondtriangles.svg	35	no	stereocheck_left	1	967	6	4	antiphase_hc_sio.wav	1	6	3	noise_calib_stim_LEFT.wav	1	1				0	
6.6.1	win	2023-07-06	21:41:34	21:54:26	765419	596f8a83c988c000015bf765	4	1	DL_practice	21	DL_practice	2	stimuli_distractor_trianglediamonds.svg	stimuli_distractor_diamondtriangles.svg	35	no	ta	1	2204	6	4	antiphase_hc_sio.wav	1	6	3	noise_calib_stim_LEFT.wav	1	36	blb_dichoticlistening_ta-ta.mp3	ta	ta	0	left
6.6.1	win	2023-07-06	21:41:34	21:54:26	765419	596f8a83c988c000015bf765	4	1	DL_practice	21	DL_practice	3	stimuli_distractor_trianglediamonds.svg	stimuli_distractor_diamondtriangles.svg	35	no	ka	1	1651	6	4	antiphase_hc_sio.wav	1	6	3	noise_calib_stim_LEFT.wav	1	22	blb_dichoticlistening_ka-ka.mp3	ka	ka	0	left
6.6.1	win	2023-07-06	21:41:34	21:54:26	765419	596f8a83c988c000015bf765	4	1	DL_practice	21	DL_practice	4	stimuli_distractor_trianglediamonds.svg	stimuli_distractor_diamondtriangles.svg	35	no	pa	1	3387	6	4	antiphase_hc_sio.wav	1	6	3	noise_calib_stim_LEFT.wav	1	23	blb_dichoticlistening_ka-pa.mp3	ka	pa	1	right
6.6.1	win	2023-07-06	21:41:34	21:54:26	765419	596f8a83c988c000015bf765	4	1	DL_practice	21	DL_practice	5	stimuli_distractor_trianglediamonds.svg	stimuli_distractor_diamondtriangles.svg	35	no	ga	1	1360	6	4	antiphase_hc_sio.wav	1	6	3	noise_calib_stim_LEFT.wav	1	18	blb_dichoticlistening_ga-ta.mp3	ga	ta	1	left
6.6.1	win	2023-07-06	21:41:34	21:54:26	765419	596f8a83c988c000015bf765	4	1	DL_practice	21	DL_practice	6	stimuli_distractor_trianglediamonds.svg	stimuli_distractor_diamondtriangles.svg	35	no	pa	1	1629	6	4	antiphase_hc_sio.wav	1	6	3	noise_calib_stim_LEFT.wav	1	29	blb_dichoticlistening_pa-pa.mp3	pa	pa	0	left
6.6.1	win	2023-07-06	21:41:34	21:54:26	765419	596f8a83c988c000015bf765	4	1	DL_practice	21	DL_practice	7	stimuli_distractor_trianglediamonds.svg	stimuli_distractor_diamondtriangles.svg	35	no	ba	1	1233	6	4	antiphase_hc_sio.wav	1	6	3	noise_calib_stim_LEFT.wav	1	1	blb_dichoticlistening_ba-ba.mp3	ba	ba	0	left
6.6.1	win	2023-07-06	21:41:34	21:54:26	765419	596f8a83c988c000015bf765	4	1	DL_practice	21	DL_practice	8	stimuli_distractor_trianglediamonds.svg	stimuli_distractor_diamondtriangles.svg	35	no	da	1	899	6	4	antiphase_hc_sio.wav	1	6	3	noise_calib_stim_LEFT.wav	1	8	blb_dichoticlistening_da-da.mp3	da	da	0	left
6.6.1	win	2023-07-06	21:41:34	21:54:26	765419	596f8a83c988c000015bf765	4	1	DL_practice	21	DL_practice	9	stimuli_distractor_trianglediamonds.svg	stimuli_distractor_diamondtriangles.svg	35	no	ga	1	951	6	4	antiphase_hc_sio.wav	1	6	3	noise_calib_stim_LEFT.wav	1	15	blb_dichoticlistening_ga-ga.mp3	ga	ga	0	left
6.6.1	win	2023-07-06	21:41:34	21:54:26	765419	596f8a83c988c000015bf765	4	1	DL_practice	21	DL_practice	10	stimuli_distractor_trianglediamonds.svg	stimuli_distractor_diamondtriangles.svg	35	no	da	1	3552	6	4	antiphase_hc_sio.wav	1	6	3	noise_calib_stim_LEFT.wav	1	7	blb_dichoticlistening_da-ba.mp3	da	ba	1	left
6.6.1	win	2023-07-06	21:41:34	21:54:26	765419	596f8a83c988c000015bf765	4	1	DL_test	23	DL_test	1	stimuli_distractor_trianglediamonds.svg	stimuli_distractor_diamondtriangles.svg	35	no	ta	1	1323	6	4	antiphase_hc_sio.wav	1	6	3	noise_calib_stim_LEFT.wav	1	30	blb_dichoticlistening_pa-ta.mp3	pa	ta	1	right
6.6.1	win	2023-07-06	21:41:34	21:54:26	765419	596f8a83c988c000015bf765	4	1	DL_test	23	DL_test	2	stimuli_distractor_trianglediamonds.svg	stimuli_distractor_diamondtriangles.svg	35	no	da	1	1483	6	4	antiphase_hc_sio.wav	1	6	3	noise_calib_stim_LEFT.wav	1	2	blb_dichoticlistening_ba-da.mp3	ba	da	1	right
6.6.1	win	2023-07-06	21:41:34	21:54:26	765419	596f8a83c988c000015bf765	4	1	DL_test	23	DL_test	3	stimuli_distractor_trianglediamonds.svg	stimuli_distractor_diamondtriangles.svg	35	no	ka	1	1125	6	4	antiphase_hc_sio.wav	1	6	3	noise_calib_stim_LEFT.wav	1	16	blb_dichoticlistening_ga-ka.mp3	ga	ka	1	right
6.6.1	win	2023-07-06	21:41:34	21:54:26	765419	596f8a83c988c000015bf765	4	1	DL_test	23	DL_test	4	stimuli_distractor_trianglediamonds.svg	stimuli_distractor_diamondtriangles.svg	35	no	ga	1	901	6	4	antiphase_hc_sio.wav	1	6	3	noise_calib_stim_LEFT.wav	1	21	blb_dichoticlistening_ka-ga.mp3	ka	ga	1	right
6.6.1	win	2023-07-06	21:41:34	21:54:26	765419	596f8a83c988c000015bf765	4	1	DL_test	23	DL_test	5	stimuli_distractor_trianglediamonds.svg	stimuli_distractor_diamondtriangles.svg	35	no	ta	1	1496	6	4	antiphase_hc_sio.wav	1	6	3	noise_calib_stim_LEFT.wav	1	6	blb_dichoticlistening_ba-ta.mp3	ba	ta	1	right
6.6.1	win	2023-07-06	21:41:34	21:54:26	765419	596f8a83c988c000015bf765	4	1	DL_test	23	DL_test	6	stimuli_distractor_trianglediamonds.svg	stimuli_distractor_diamondtriangles.svg	35	no	pa	1	1225	6	4	antiphase_hc_sio.wav	1	6	3	noise_calib_stim_LEFT.wav	1	11	blb_dichoticlistening_da-pa.mp3	da	pa	1	right
6.6.1	win	2023-07-06	21:41:34	21:54:26	765419	596f8a83c988c000015bf765	4	1	DL_test	23	DL_test	7	stimuli_distractor_trianglediamonds.svg	stimuli_distractor_diamondtriangles.svg	35	no	ka	1	1179	6	4	antiphase_hc_sio.wav	1	6	3	noise_calib_stim_LEFT.wav	1	28	blb_dichoticlistening_pa-ka.mp3	pa	ka	1	right
6.6.1	win	2023-07-06	21:41:34	21:54:26	765419	596f8a83c988c000015bf765	4	1	DL_test	23	DL_test	8	stimuli_distractor_trianglediamonds.svg	stimuli_distractor_diamondtriangles.svg	35	no	ka	1	1901	6	4	antiphase_hc_sio.wav	1	6	3	noise_calib_stim_LEFT.wav	1	23	blb_dichoticlistening_ka-pa.mp3	ka	pa	1	left
6.6.1	win	2023-07-06	21:41:34	21:54:26	765419	596f8a83c988c000015bf765	4	1	DL_test	23	DL_test	9	stimuli_distractor_trianglediamonds.svg	stimuli_distractor_diamondtriangles.svg	35	no	ta	1	1373	6	4	antiphase_hc_sio.wav	1	6	3	noise_calib_stim_LEFT.wav	1	36	blb_dichoticlistening_ta-ta.mp3	ta	ta	0	left
6.6.1	win	2023-07-06	21:41:34	21:54:26	765419	596f8a83c988c000015bf765	4	1	DL_test	23	DL_test	10	stimuli_distractor_trianglediamonds.svg	stimuli_distractor_diamondtriangles.svg	35	no	ga	1	1912	6	4	antiphase_hc_sio.wav	1	6	3	noise_calib_stim_LEFT.wav	1	17	blb_dichoticlistening_ga-pa.mp3	ga	pa	1	left
6.6.1	win	2023-07-06	21:41:34	21:54:26	765419	596f8a83c988c000015bf765	4	1	DL_test	23	DL_test	11	stimuli_distractor_trianglediamonds.svg	stimuli_distractor_diamondtriangles.svg	35	no	ba	1	1501	6	4	antiphase_hc_sio.wav	1	6	3	noise_calib_stim_LEFT.wav	1	31	blb_dichoticlistening_ta-ba.mp3	ta	ba	1	right
6.6.1	win	2023-07-06	21:41:34	21:54:26	765419	596f8a83c988c000015bf765	4	1	DL_test	23	DL_test	12	stimuli_distractor_trianglediamonds.svg	stimuli_distractor_diamondtriangles.svg	35	no	da	1	1102	6	4	antiphase_hc_sio.wav	1	6	3	noise_calib_stim_LEFT.wav	1	8	blb_dichoticlistening_da-da.mp3	da	da	0	left
6.6.1	win	2023-07-06	21:41:34	21:54:26	765419	596f8a83c988c000015bf765	4	1	DL_test	23	DL_test	13	stimuli_distractor_trianglediamonds.svg	stimuli_distractor_diamondtriangles.svg	35	no	ga	1	2827	6	4	antiphase_hc_sio.wav	1	6	3	noise_calib_stim_LEFT.wav	1	33	blb_dichoticlistening_ta-ga.mp3	ta	ga	1	right
6.6.1	win	2023-07-06	21:41:34	21:54:26	765419	596f8a83c988c000015bf765	4	1	DL_test	23	DL_test	14	stimuli_distractor_trianglediamonds.svg	stimuli_distractor_diamondtriangles.svg	35	no	ka	1	1262	6	4	antiphase_hc_sio.wav	1	6	3	noise_calib_stim_LEFT.wav	1	24	blb_dichoticlistening_ka-ta.mp3	ka	ta	1	left
6.6.1	win	2023-07-06	21:41:34	21:54:26	765419	596f8a83c988c000015bf765	4	1	DL_test	23	DL_test	15	stimuli_distractor_trianglediamonds.svg	stimuli_distractor_diamondtriangles.svg	35	no	ga	1	1255	6	4	antiphase_hc_sio.wav	1	6	3	noise_calib_stim_LEFT.wav	1	15	blb_dichoticlistening_ga-ga.mp3	ga	ga	0	left
6.6.1	win	2023-07-06	21:41:34	21:54:26	765419	596f8a83c988c000015bf765	4	1	DL_test	23	DL_test	16	stimuli_distractor_trianglediamonds.svg	stimuli_distractor_diamondtriangles.svg	35	no	ka	1	1449	6	4	antiphase_hc_sio.wav	1	6	3	noise_calib_stim_LEFT.wav	1	22	blb_dichoticlistening_ka-ka.mp3	ka	ka	0	left
6.6.1	win	2023-07-06	21:41:34	21:54:26	765419	596f8a83c988c000015bf765	4	1	DL_test	23	DL_test	17	stimuli_distractor_trianglediamonds.svg	stimuli_distractor_diamondtriangles.svg	35	no	ka	1	2387	6	4	antiphase_hc_sio.wav	1	6	3	noise_calib_stim_LEFT.wav	1	19	blb_dichoticlistening_ka-ba.mp3	ka	ba	1	left
6.6.1	win	2023-07-06	21:41:34	21:54:26	765419	596f8a83c988c000015bf765	4	1	DL_test	23	DL_test	18	stimuli_distractor_trianglediamonds.svg	stimuli_distractor_diamondtriangles.svg	35	no	ba	1	1891	6	4	antiphase_hc_sio.wav	1	6	3	noise_calib_stim_LEFT.wav	1	13	blb_dichoticlistening_ga-ba.mp3	ga	ba	1	right
6.6.1	win	2023-07-06	21:41:34	21:54:26	765419	596f8a83c988c000015bf765	4	1	DL_test	23	DL_test	19	stimuli_distractor_trianglediamonds.svg	stimuli_distractor_diamondtriangles.svg	35	no	ka	1	1498	6	4	antiphase_hc_sio.wav	1	6	3	noise_calib_stim_LEFT.wav	1	34	blb_dichoticlistening_ta-ka.mp3	ta	ka	1	right
6.6.1	win	2023-07-06	21:41:34	21:54:26	765419	596f8a83c988c000015bf765	4	1	DL_test	23	DL_test	20	stimuli_distractor_trianglediamonds.svg	stimuli_distractor_diamondtriangles.svg	35	no	pa	1	1334	6	4	antiphase_hc_sio.wav	1	6	3	noise_calib_stim_LEFT.wav	1	29	blb_dichoticlistening_pa-pa.mp3	pa	pa	0	left
6.6.1	win	2023-07-06	21:41:34	21:54:26	765419	596f8a83c988c000015bf765	4	1	DL_test	23	DL_test	21	stimuli_distractor_trianglediamonds.svg	stimuli_distractor_diamondtriangles.svg	35	no	ta	0	2028	6	4	antiphase_hc_sio.wav	1	6	3	noise_calib_stim_LEFT.wav	1	10	blb_dichoticlistening_da-ka.mp3	da	ka	1	other
6.6.1	win	2023-07-06	21:41:34	21:54:26	765419	596f8a83c988c000015bf765	4	1	DL_test	23	DL_test	22	stimuli_distractor_trianglediamonds.svg	stimuli_distractor_diamondtriangles.svg	35	no	ga	0	1668	6	4	antiphase_hc_sio.wav	1	6	3	noise_calib_stim_LEFT.wav	1	12	blb_dichoticlistening_da-ta.mp3	da	ta	1	other
6.6.1	win	2023-07-06	21:41:34	21:54:26	765419	596f8a83c988c000015bf765	4	1	DL_test	23	DL_test	23	stimuli_distractor_trianglediamonds.svg	stimuli_distractor_diamondtriangles.svg	35	no	da	1	2418	6	4	antiphase_hc_sio.wav	1	6	3	noise_calib_stim_LEFT.wav	1	20	blb_dichoticlistening_ka-da.mp3	ka	da	1	right
6.6.1	win	2023-07-06	21:41:34	21:54:26	765419	596f8a83c988c000015bf765	4	1	DL_test	23	DL_test	24	stimuli_distractor_trianglediamonds.svg	stimuli_distractor_diamondtriangles.svg	35	no	ga	1	1144	6	4	antiphase_hc_sio.wav	1	6	3	noise_calib_stim_LEFT.wav	1	3	blb_dichoticlistening_ba-ga.mp3	ba	ga	1	right
6.6.1	win	2023-07-06	21:41:34	21:54:26	765419	596f8a83c988c000015bf765	4	1	DL_test	23	DL_test	25	stimuli_distractor_trianglediamonds.svg	stimuli_distractor_diamondtriangles.svg	35	no	pa	1	1312	6	4	antiphase_hc_sio.wav	1	6	3	noise_calib_stim_LEFT.wav	1	26	blb_dichoticlistening_pa-da.mp3	pa	da	1	left
