build	computer.platform	date	time	timestamp	time_elapsed_ms	subject	group	session	blockcode	blocknum	trialcode	trialnum	stimulus_left	stimulus_right	stim_index	target_present	response	correct	latency	headphonecheck_countTestTrials	headphonecheck_index	headphonecheck_testSound	headphonecheck_correctResponse	stereocheck_countTestTrials	stereocheck_index	stereocheck_testSound	stereocheck_correctResponse	DL_index	DL_soundfile	DL_leftSound	DL_rightSound	DL_dualSound	DL_choice
6.6.1	win	2023-06-27	13:51:42	0	0	5ea043f2618bcf041cb4c245	1	1	headphonecheck_calibration	4	headphonecheck_calibrationIntro	1			0		calibrationButton	0	4510	0	0			0	0			1				0	
6.6.1	win	2023-06-27	13:51:42	0	0	5ea043f2618bcf041cb4c245	1	1	headphonecheck_testphase	5	test_collectResponse	3			0		first	1	2443	1	4	antiphase_hc_sio.wav	1	0	0			1				0	
6.6.1	win	2023-06-27	13:51:42	0	0	5ea043f2618bcf041cb4c245	1	1	headphonecheck_testphase	5	test_collectResponse	6			0		second	1	1998	2	5	antiphase_hc_osi.wav	2	0	0			1				0	
6.6.1	win	2023-06-27	13:51:42	0	0	5ea043f2618bcf041cb4c245	1	1	headphonecheck_testphase	5	test_collectResponse	9			0		third	1	912	3	6	antiphase_hc_ois.wav	3	0	0			1				0	
6.6.1	win	2023-06-27	13:51:42	0	0	5ea043f2618bcf041cb4c245	1	1	headphonecheck_testphase	5	test_collectResponse	12			0		first	1	1509	4	3	antiphase_hc_soi.wav	1	0	0			1				0	
6.6.1	win	2023-06-27	13:51:42	0	0	5ea043f2618bcf041cb4c245	1	1	headphonecheck_testphase	5	test_collectResponse	15			0		third	1	1144	5	2	antiphase_hc_ios.wav	3	0	0			1				0	
6.6.1	win	2023-06-27	13:51:42	0	0	5ea043f2618bcf041cb4c245	1	1	headphonecheck_testphase	5	test_collectResponse	18			0		second	1	863	6	1	antiphase_hc_iso.wav	2	0	0			1				0	
6.6.1	win	2023-06-27	13:51:42	0	0	5ea043f2618bcf041cb4c245	1	1	stereocheck_calibration	7	stereocheck_calibrationIntro	1			0		stereocheck_calibrationButton	0	4257	6	1	antiphase_hc_iso.wav	2	0	0			1				0	
6.6.1	win	2023-06-27	13:51:42	0	0	5ea043f2618bcf041cb4c245	1	1	stereocheck_testphase	8	stereocheck_test_collectResponse	3			0		stereocheck_left	1	1312	6	1	antiphase_hc_iso.wav	2	1	1	noise_calib_stim_LEFT.wav	1	1				0	
6.6.1	win	2023-06-27	13:51:42	0	0	5ea043f2618bcf041cb4c245	1	1	stereocheck_testphase	8	stereocheck_test_collectResponse	6			0		stereocheck_right	1	919	6	1	antiphase_hc_iso.wav	2	2	4	noise_calib_stim_RIGHT.wav	2	1				0	
6.6.1	win	2023-06-27	13:51:42	0	0	5ea043f2618bcf041cb4c245	1	1	stereocheck_testphase	8	stereocheck_test_collectResponse	9			0		stereocheck_left	1	3346	6	1	antiphase_hc_iso.wav	2	3	3	noise_calib_stim_LEFT.wav	1	1				0	
6.6.1	win	2023-06-27	13:51:42	0	0	5ea043f2618bcf041cb4c245	1	1	stereocheck_testphase	8	stereocheck_test_collectResponse	12			0		stereocheck_left	1	1271	6	1	antiphase_hc_iso.wav	2	4	2	noise_calib_stim_LEFT.wav	1	1				0	
6.6.1	win	2023-06-27	13:51:42	0	0	5ea043f2618bcf041cb4c245	1	1	stereocheck_testphase	8	stereocheck_test_collectResponse	15			0		stereocheck_right	1	1066	6	1	antiphase_hc_iso.wav	2	5	6	noise_calib_stim_RIGHT.wav	2	1				0	
6.6.1	win	2023-06-27	13:51:42	0	0	5ea043f2618bcf041cb4c245	1	1	stereocheck_testphase	8	stereocheck_test_collectResponse	18			0		stereocheck_right	1	1128	6	1	antiphase_hc_iso.wav	2	6	5	noise_calib_stim_RIGHT.wav	2	1				0	
6.6.1	win	2023-06-27	13:51:42	0	0	5ea043f2618bcf041cb4c245	1	1	DL_practice	11	DL_practice	2			0		ga	0	6573	6	1	antiphase_hc_iso.wav	2	6	5	noise_calib_stim_RIGHT.wav	2	36	blb_dichoticlistening_ta-ta.mp3	ta	ta	0	other
6.6.1	win	2023-06-27	13:51:42	0	0	5ea043f2618bcf041cb4c245	1	1	DL_practice	11	DL_practice	3			0		pa	1	4263	6	1	antiphase_hc_iso.wav	2	6	5	noise_calib_stim_RIGHT.wav	2	23	blb_dichoticlistening_ka-pa.mp3	ka	pa	1	right
6.6.1	win	2023-06-27	13:51:42	0	0	5ea043f2618bcf041cb4c245	1	1	DL_practice	11	DL_practice	4			0		ga	0	3285	6	1	antiphase_hc_iso.wav	2	6	5	noise_calib_stim_RIGHT.wav	2	8	blb_dichoticlistening_da-da.mp3	da	da	0	other
6.6.1	win	2023-06-27	13:51:42	0	0	5ea043f2618bcf041cb4c245	1	1	DL_practice	11	DL_practice	5			0		da	0	1999	6	1	antiphase_hc_iso.wav	2	6	5	noise_calib_stim_RIGHT.wav	2	15	blb_dichoticlistening_ga-ga.mp3	ga	ga	0	other
6.6.1	win	2023-06-27	13:51:42	0	0	5ea043f2618bcf041cb4c245	1	1	DL_practice	11	DL_practice	6			0		ga	0	1788	6	1	antiphase_hc_iso.wav	2	6	5	noise_calib_stim_RIGHT.wav	2	22	blb_dichoticlistening_ka-ka.mp3	ka	ka	0	other
6.6.1	win	2023-06-27	13:51:42	0	0	5ea043f2618bcf041cb4c245	1	1	DL_practice	11	DL_practice	7			0		pa	0	2537	6	1	antiphase_hc_iso.wav	2	6	5	noise_calib_stim_RIGHT.wav	2	7	blb_dichoticlistening_da-ba.mp3	da	ba	1	other
6.6.1	win	2023-06-27	13:51:42	0	0	5ea043f2618bcf041cb4c245	1	1	DL_practice	11	DL_practice	8			0		ba	0	2801	6	1	antiphase_hc_iso.wav	2	6	5	noise_calib_stim_RIGHT.wav	2	18	blb_dichoticlistening_ga-ta.mp3	ga	ta	1	other
6.6.1	win	2023-06-27	13:51:42	0	0	5ea043f2618bcf041cb4c245	1	1	DL_practice	11	DL_practice	9			0		da	0	3293	6	1	antiphase_hc_iso.wav	2	6	5	noise_calib_stim_RIGHT.wav	2	29	blb_dichoticlistening_pa-pa.mp3	pa	pa	0	other
6.6.1	win	2023-06-27	13:51:42	0	0	5ea043f2618bcf041cb4c245	1	1	DL_practice	11	DL_practice	10			0		ga	0	2028	6	1	antiphase_hc_iso.wav	2	6	5	noise_calib_stim_RIGHT.wav	2	1	blb_dichoticlistening_ba-ba.mp3	ba	ba	0	other
6.6.1	win	2023-06-27	13:51:42	0	0	5ea043f2618bcf041cb4c245	1	1	DL_test	13	DL_test	1			0		ga	0	2821	6	1	antiphase_hc_iso.wav	2	6	5	noise_calib_stim_RIGHT.wav	2	32	blb_dichoticlistening_ta-da.mp3	ta	da	1	other
6.6.1	win	2023-06-27	13:51:42	0	0	5ea043f2618bcf041cb4c245	1	1	DL_test	13	DL_test	2			0		da	0	1922	6	1	antiphase_hc_iso.wav	2	6	5	noise_calib_stim_RIGHT.wav	2	15	blb_dichoticlistening_ga-ga.mp3	ga	ga	0	other
6.6.1	win	2023-06-27	13:51:42	0	0	5ea043f2618bcf041cb4c245	1	1	DL_test	13	DL_test	3			0		ka	1	1857	6	1	antiphase_hc_iso.wav	2	6	5	noise_calib_stim_RIGHT.wav	2	34	blb_dichoticlistening_ta-ka.mp3	ta	ka	1	right
6.6.1	win	2023-06-27	13:51:42	0	0	5ea043f2618bcf041cb4c245	1	1	DL_test	13	DL_test	4			0		pa	1	2171	6	1	antiphase_hc_iso.wav	2	6	5	noise_calib_stim_RIGHT.wav	2	23	blb_dichoticlistening_ka-pa.mp3	ka	pa	1	right
6.6.1	win	2023-06-27	13:51:42	0	0	5ea043f2618bcf041cb4c245	1	1	DL_test	13	DL_test	5			0		ga	0	2258	6	1	antiphase_hc_iso.wav	2	6	5	noise_calib_stim_RIGHT.wav	2	5	blb_dichoticlistening_ba-pa.mp3	ba	pa	1	other
6.6.1	win	2023-06-27	13:51:42	0	0	5ea043f2618bcf041cb4c245	1	1	DL_test	13	DL_test	6			0		ba	1	2314	6	1	antiphase_hc_iso.wav	2	6	5	noise_calib_stim_RIGHT.wav	2	25	blb_dichoticlistening_pa-ba.mp3	pa	ba	1	right
6.6.1	win	2023-06-27	13:51:42	0	0	5ea043f2618bcf041cb4c245	1	1	DL_test	13	DL_test	7			0		ka	1	2003	6	1	antiphase_hc_iso.wav	2	6	5	noise_calib_stim_RIGHT.wav	2	22	blb_dichoticlistening_ka-ka.mp3	ka	ka	0	left
6.6.1	win	2023-06-27	13:51:42	0	0	5ea043f2618bcf041cb4c245	1	1	DL_test	13	DL_test	8			0		pa	0	1794	6	1	antiphase_hc_iso.wav	2	6	5	noise_calib_stim_RIGHT.wav	2	8	blb_dichoticlistening_da-da.mp3	da	da	0	other
6.6.1	win	2023-06-27	13:51:42	0	0	5ea043f2618bcf041cb4c245	1	1	DL_test	13	DL_test	9			0		ga	1	1690	6	1	antiphase_hc_iso.wav	2	6	5	noise_calib_stim_RIGHT.wav	2	17	blb_dichoticlistening_ga-pa.mp3	ga	pa	1	left
6.6.1	win	2023-06-27	13:51:42	0	0	5ea043f2618bcf041cb4c245	1	1	DL_test	13	DL_test	10			0		ga	0	1855	6	1	antiphase_hc_iso.wav	2	6	5	noise_calib_stim_RIGHT.wav	2	4	blb_dichoticlistening_ba-ka.mp3	ba	ka	1	other
6.6.1	win	2023-06-27	13:51:42	0	0	5ea043f2618bcf041cb4c245	1	1	DL_test	13	DL_test	11			0		ka	1	1509	6	1	antiphase_hc_iso.wav	2	6	5	noise_calib_stim_RIGHT.wav	2	16	blb_dichoticlistening_ga-ka.mp3	ga	ka	1	right
6.6.1	win	2023-06-27	13:51:42	0	0	5ea043f2618bcf041cb4c245	1	1	DL_test	13	DL_test	12			0		ta	1	1753	6	1	antiphase_hc_iso.wav	2	6	5	noise_calib_stim_RIGHT.wav	2	35	blb_dichoticlistening_ta-pa.mp3	ta	pa	1	left
6.6.1	win	2023-06-27	13:51:42	0	0	5ea043f2618bcf041cb4c245	1	1	DL_test	13	DL_test	13			0		ga	0	1967	6	1	antiphase_hc_iso.wav	2	6	5	noise_calib_stim_RIGHT.wav	2	24	blb_dichoticlistening_ka-ta.mp3	ka	ta	1	other
6.6.1	win	2023-06-27	13:51:42	0	0	5ea043f2618bcf041cb4c245	1	1	DL_test	13	DL_test	14			0		da	0	3219	6	1	antiphase_hc_iso.wav	2	6	5	noise_calib_stim_RIGHT.wav	2	6	blb_dichoticlistening_ba-ta.mp3	ba	ta	1	other
6.6.1	win	2023-06-27	13:51:42	0	0	5ea043f2618bcf041cb4c245	1	1	DL_test	13	DL_test	15			0		ga	1	1882	6	1	antiphase_hc_iso.wav	2	6	5	noise_calib_stim_RIGHT.wav	2	18	blb_dichoticlistening_ga-ta.mp3	ga	ta	1	left
6.6.1	win	2023-06-27	13:51:42	0	0	5ea043f2618bcf041cb4c245	1	1	DL_test	13	DL_test	16			0		ga	0	1372	6	1	antiphase_hc_iso.wav	2	6	5	noise_calib_stim_RIGHT.wav	2	20	blb_dichoticlistening_ka-da.mp3	ka	da	1	other
6.6.1	win	2023-06-27	13:51:42	0	0	5ea043f2618bcf041cb4c245	1	1	DL_test	13	DL_test	17			0		ta	1	2033	6	1	antiphase_hc_iso.wav	2	6	5	noise_calib_stim_RIGHT.wav	2	12	blb_dichoticlistening_da-ta.mp3	da	ta	1	right
6.6.1	win	2023-06-27	13:51:42	0	0	5ea043f2618bcf041cb4c245	1	1	DL_test	13	DL_test	18			0		ga	0	2225	6	1	antiphase_hc_iso.wav	2	6	5	noise_calib_stim_RIGHT.wav	2	1	blb_dichoticlistening_ba-ba.mp3	ba	ba	0	other
6.6.1	win	2023-06-27	13:51:42	0	0	5ea043f2618bcf041cb4c245	1	1	DL_test	13	DL_test	19			0		ka	0	1867	6	1	antiphase_hc_iso.wav	2	6	5	noise_calib_stim_RIGHT.wav	2	36	blb_dichoticlistening_ta-ta.mp3	ta	ta	0	other
6.6.1	win	2023-06-27	13:51:42	0	0	5ea043f2618bcf041cb4c245	1	1	DL_test	13	DL_test	20			0		ga	1	1869	6	1	antiphase_hc_iso.wav	2	6	5	noise_calib_stim_RIGHT.wav	2	33	blb_dichoticlistening_ta-ga.mp3	ta	ga	1	right
6.6.1	win	2023-06-27	13:51:42	0	0	5ea043f2618bcf041cb4c245	1	1	DL_test	13	DL_test	21			0		pa	1	1953	6	1	antiphase_hc_iso.wav	2	6	5	noise_calib_stim_RIGHT.wav	2	11	blb_dichoticlistening_da-pa.mp3	da	pa	1	right
6.6.1	win	2023-06-27	13:51:42	0	0	5ea043f2618bcf041cb4c245	1	1	DL_test	13	DL_test	22			0		ga	1	1706	6	1	antiphase_hc_iso.wav	2	6	5	noise_calib_stim_RIGHT.wav	2	13	blb_dichoticlistening_ga-ba.mp3	ga	ba	1	left
6.6.1	win	2023-06-27	13:51:42	0	0	5ea043f2618bcf041cb4c245	1	1	DL_test	13	DL_test	23			0		ga	0	1181	6	1	antiphase_hc_iso.wav	2	6	5	noise_calib_stim_RIGHT.wav	2	31	blb_dichoticlistening_ta-ba.mp3	ta	ba	1	other
6.6.1	win	2023-06-27	13:51:42	0	0	5ea043f2618bcf041cb4c245	1	1	DL_test	13	DL_test	24			0		da	1	1800	6	1	antiphase_hc_iso.wav	2	6	5	noise_calib_stim_RIGHT.wav	2	9	blb_dichoticlistening_da-ga.mp3	da	ga	1	left
6.6.1	win	2023-06-27	13:51:42	0	0	5ea043f2618bcf041cb4c245	1	1	DL_test	13	DL_test	25			0		ga	1	1974	6	1	antiphase_hc_iso.wav	2	6	5	noise_calib_stim_RIGHT.wav	2	3	blb_dichoticlistening_ba-ga.mp3	ba	ga	1	right
6.6.1	win	2023-06-27	13:51:42	0	0	5ea043f2618bcf041cb4c245	1	1	DL_test	13	DL_test	26			0		ga	0	1349	6	1	antiphase_hc_iso.wav	2	6	5	noise_calib_stim_RIGHT.wav	2	10	blb_dichoticlistening_da-ka.mp3	da	ka	1	other
6.6.1	win	2023-06-27	13:51:42	0	0	5ea043f2618bcf041cb4c245	1	1	DL_test	13	DL_test	27			0		ta	0	2340	6	1	antiphase_hc_iso.wav	2	6	5	noise_calib_stim_RIGHT.wav	2	19	blb_dichoticlistening_ka-ba.mp3	ka	ba	1	other
6.6.1	win	2023-06-27	13:51:42	0	0	5ea043f2618bcf041cb4c245	1	1	DL_test	13	DL_test	28			0		ga	0	1841	6	1	antiphase_hc_iso.wav	2	6	5	noise_calib_stim_RIGHT.wav	2	7	blb_dichoticlistening_da-ba.mp3	da	ba	1	other
6.6.1	win	2023-06-27	13:51:42	0	0	5ea043f2618bcf041cb4c245	1	1	DL_test	13	DL_test	29			0		ga	0	1755	6	1	antiphase_hc_iso.wav	2	6	5	noise_calib_stim_RIGHT.wav	2	28	blb_dichoticlistening_pa-ka.mp3	pa	ka	1	other
6.6.1	win	2023-06-27	13:51:42	0	0	5ea043f2618bcf041cb4c245	1	1	DL_test	13	DL_test	30			0		ka	0	2215	6	1	antiphase_hc_iso.wav	2	6	5	noise_calib_stim_RIGHT.wav	2	27	blb_dichoticlistening_pa-ga.mp3	pa	ga	1	other
6.6.1	win	2023-06-27	13:51:42	0	0	5ea043f2618bcf041cb4c245	1	1	DL_test	13	DL_test	31			0		ga	0	1702	6	1	antiphase_hc_iso.wav	2	6	5	noise_calib_stim_RIGHT.wav	2	26	blb_dichoticlistening_pa-da.mp3	pa	da	1	other
6.6.1	win	2023-06-27	13:51:42	0	0	5ea043f2618bcf041cb4c245	1	1	DL_test	13	DL_test	32			0		ga	1	1130	6	1	antiphase_hc_iso.wav	2	6	5	noise_calib_stim_RIGHT.wav	2	14	blb_dichoticlistening_ga-da.mp3	ga	da	1	left
6.6.1	win	2023-06-27	13:51:42	0	0	5ea043f2618bcf041cb4c245	1	1	DL_test	13	DL_test	33			0		ta	1	1779	6	1	antiphase_hc_iso.wav	2	6	5	noise_calib_stim_RIGHT.wav	2	30	blb_dichoticlistening_pa-ta.mp3	pa	ta	1	right
6.6.1	win	2023-06-27	13:51:42	0	0	5ea043f2618bcf041cb4c245	1	1	DL_test	13	DL_test	34			0		ka	0	3426	6	1	antiphase_hc_iso.wav	2	6	5	noise_calib_stim_RIGHT.wav	2	29	blb_dichoticlistening_pa-pa.mp3	pa	pa	0	other
6.6.1	win	2023-06-27	13:51:42	0	0	5ea043f2618bcf041cb4c245	1	1	DL_test	13	DL_test	35			0		ga	1	1581	6	1	antiphase_hc_iso.wav	2	6	5	noise_calib_stim_RIGHT.wav	2	21	blb_dichoticlistening_ka-ga.mp3	ka	ga	1	right
6.6.1	win	2023-06-27	13:51:42	0	0	5ea043f2618bcf041cb4c245	1	1	DL_test	13	DL_test	36			0		da	1	2275	6	1	antiphase_hc_iso.wav	2	6	5	noise_calib_stim_RIGHT.wav	2	2	blb_dichoticlistening_ba-da.mp3	ba	da	1	right
6.6.1	win	2023-06-27	13:51:42	0	0	5ea043f2618bcf041cb4c245	1	1	DL_test	14	DL_test	1			0		ga	0	1599	6	1	antiphase_hc_iso.wav	2	6	5	noise_calib_stim_RIGHT.wav	2	19	blb_dichoticlistening_ka-ba.mp3	ka	ba	1	other
6.6.1	win	2023-06-27	13:51:42	0	0	5ea043f2618bcf041cb4c245	1	1	DL_test	14	DL_test	2			0		da	0	1746	6	1	antiphase_hc_iso.wav	2	6	5	noise_calib_stim_RIGHT.wav	2	18	blb_dichoticlistening_ga-ta.mp3	ga	ta	1	other
6.6.1	win	2023-06-27	13:51:42	0	0	5ea043f2618bcf041cb4c245	1	1	DL_test	14	DL_test	3			0		ga	0	1754	6	1	antiphase_hc_iso.wav	2	6	5	noise_calib_stim_RIGHT.wav	2	36	blb_dichoticlistening_ta-ta.mp3	ta	ta	0	other
6.6.1	win	2023-06-27	13:51:42	0	0	5ea043f2618bcf041cb4c245	1	1	DL_test	14	DL_test	4			0		ga	1	2019	6	1	antiphase_hc_iso.wav	2	6	5	noise_calib_stim_RIGHT.wav	2	13	blb_dichoticlistening_ga-ba.mp3	ga	ba	1	left
6.6.1	win	2023-06-27	13:51:42	0	0	5ea043f2618bcf041cb4c245	1	1	DL_test	14	DL_test	5			0		ga	1	1468	6	1	antiphase_hc_iso.wav	2	6	5	noise_calib_stim_RIGHT.wav	2	16	blb_dichoticlistening_ga-ka.mp3	ga	ka	1	left
6.6.1	win	2023-06-27	13:51:42	0	0	5ea043f2618bcf041cb4c245	1	1	DL_test	14	DL_test	6			0		ta	1	1877	6	1	antiphase_hc_iso.wav	2	6	5	noise_calib_stim_RIGHT.wav	2	31	blb_dichoticlistening_ta-ba.mp3	ta	ba	1	left
6.6.1	win	2023-06-27	13:51:42	0	0	5ea043f2618bcf041cb4c245	1	1	DL_test	14	DL_test	7			0		ga	0	2080	6	1	antiphase_hc_iso.wav	2	6	5	noise_calib_stim_RIGHT.wav	2	12	blb_dichoticlistening_da-ta.mp3	da	ta	1	other
6.6.1	win	2023-06-27	13:51:42	0	0	5ea043f2618bcf041cb4c245	1	1	DL_test	14	DL_test	8			0		ga	1	1099	6	1	antiphase_hc_iso.wav	2	6	5	noise_calib_stim_RIGHT.wav	2	27	blb_dichoticlistening_pa-ga.mp3	pa	ga	1	right
6.6.1	win	2023-06-27	13:51:42	0	0	5ea043f2618bcf041cb4c245	1	1	DL_test	14	DL_test	9			0		ta	1	1799	6	1	antiphase_hc_iso.wav	2	6	5	noise_calib_stim_RIGHT.wav	2	30	blb_dichoticlistening_pa-ta.mp3	pa	ta	1	right
6.6.1	win	2023-06-27	13:51:42	0	0	5ea043f2618bcf041cb4c245	1	1	DL_test	14	DL_test	10			0		ga	0	2324	6	1	antiphase_hc_iso.wav	2	6	5	noise_calib_stim_RIGHT.wav	2	1	blb_dichoticlistening_ba-ba.mp3	ba	ba	0	other
6.6.1	win	2023-06-27	13:51:42	0	0	5ea043f2618bcf041cb4c245	1	1	DL_test	14	DL_test	11			0		ga	1	1159	6	1	antiphase_hc_iso.wav	2	6	5	noise_calib_stim_RIGHT.wav	2	14	blb_dichoticlistening_ga-da.mp3	ga	da	1	left
6.6.1	win	2023-06-27	13:51:42	0	0	5ea043f2618bcf041cb4c245	1	1	DL_test	14	DL_test	12			0		ta	0	1844	6	1	antiphase_hc_iso.wav	2	6	5	noise_calib_stim_RIGHT.wav	2	10	blb_dichoticlistening_da-ka.mp3	da	ka	1	other
6.6.1	win	2023-06-27	13:51:42	0	0	5ea043f2618bcf041cb4c245	1	1	DL_test	14	DL_test	13			0		ga	0	1985	6	1	antiphase_hc_iso.wav	2	6	5	noise_calib_stim_RIGHT.wav	2	22	blb_dichoticlistening_ka-ka.mp3	ka	ka	0	other
6.6.1	win	2023-06-27	13:51:42	0	0	5ea043f2618bcf041cb4c245	1	1	DL_test	14	DL_test	14			0		ga	0	1126	6	1	antiphase_hc_iso.wav	2	6	5	noise_calib_stim_RIGHT.wav	2	7	blb_dichoticlistening_da-ba.mp3	da	ba	1	other
6.6.1	win	2023-06-27	13:51:42	0	0	5ea043f2618bcf041cb4c245	1	1	DL_test	14	DL_test	15			0		ta	1	2061	6	1	antiphase_hc_iso.wav	2	6	5	noise_calib_stim_RIGHT.wav	2	35	blb_dichoticlistening_ta-pa.mp3	ta	pa	1	left
6.6.1	win	2023-06-27	13:51:42	0	0	5ea043f2618bcf041cb4c245	1	1	DL_test	14	DL_test	16			0		ga	0	1905	6	1	antiphase_hc_iso.wav	2	6	5	noise_calib_stim_RIGHT.wav	2	26	blb_dichoticlistening_pa-da.mp3	pa	da	1	other
6.6.1	win	2023-06-27	13:51:42	0	0	5ea043f2618bcf041cb4c245	1	1	DL_test	14	DL_test	17			0		ga	1	1076	6	1	antiphase_hc_iso.wav	2	6	5	noise_calib_stim_RIGHT.wav	2	21	blb_dichoticlistening_ka-ga.mp3	ka	ga	1	right
6.6.1	win	2023-06-27	13:51:42	0	0	5ea043f2618bcf041cb4c245	1	1	DL_test	14	DL_test	18			0		ta	0	2059	6	1	antiphase_hc_iso.wav	2	6	5	noise_calib_stim_RIGHT.wav	2	3	blb_dichoticlistening_ba-ga.mp3	ba	ga	1	other
6.6.1	win	2023-06-27	13:51:42	0	0	5ea043f2618bcf041cb4c245	1	1	DL_test	14	DL_test	19			0		ga	0	1834	6	1	antiphase_hc_iso.wav	2	6	5	noise_calib_stim_RIGHT.wav	2	6	blb_dichoticlistening_ba-ta.mp3	ba	ta	1	other
6.6.1	win	2023-06-27	13:51:42	0	0	5ea043f2618bcf041cb4c245	1	1	DL_test	14	DL_test	20			0		da	1	2112	6	1	antiphase_hc_iso.wav	2	6	5	noise_calib_stim_RIGHT.wav	2	32	blb_dichoticlistening_ta-da.mp3	ta	da	1	right
6.6.1	win	2023-06-27	13:51:42	0	0	5ea043f2618bcf041cb4c245	1	1	DL_test	14	DL_test	21			0		ga	0	1613	6	1	antiphase_hc_iso.wav	2	6	5	noise_calib_stim_RIGHT.wav	2	11	blb_dichoticlistening_da-pa.mp3	da	pa	1	other
6.6.1	win	2023-06-27	13:51:42	0	0	5ea043f2618bcf041cb4c245	1	1	DL_test	14	DL_test	22			0		ga	0	1173	6	1	antiphase_hc_iso.wav	2	6	5	noise_calib_stim_RIGHT.wav	2	25	blb_dichoticlistening_pa-ba.mp3	pa	ba	1	other
6.6.1	win	2023-06-27	13:51:42	0	0	5ea043f2618bcf041cb4c245	1	1	DL_test	14	DL_test	23			0		pa	1	1896	6	1	antiphase_hc_iso.wav	2	6	5	noise_calib_stim_RIGHT.wav	2	29	blb_dichoticlistening_pa-pa.mp3	pa	pa	0	left
6.6.1	win	2023-06-27	13:51:42	0	0	5ea043f2618bcf041cb4c245	1	1	DL_test	14	DL_test	24			0		ga	0	1925	6	1	antiphase_hc_iso.wav	2	6	5	noise_calib_stim_RIGHT.wav	2	24	blb_dichoticlistening_ka-ta.mp3	ka	ta	1	other
6.6.1	win	2023-06-27	13:51:42	0	0	5ea043f2618bcf041cb4c245	1	1	DL_test	14	DL_test	25			0		ga	0	2204	6	1	antiphase_hc_iso.wav	2	6	5	noise_calib_stim_RIGHT.wav	2	5	blb_dichoticlistening_ba-pa.mp3	ba	pa	1	other
6.6.1	win	2023-06-27	13:51:42	0	0	5ea043f2618bcf041cb4c245	1	1	DL_test	14	DL_test	26			0		ga	0	1280	6	1	antiphase_hc_iso.wav	2	6	5	noise_calib_stim_RIGHT.wav	2	28	blb_dichoticlistening_pa-ka.mp3	pa	ka	1	other
6.6.1	win	2023-06-27	13:51:42	0	0	5ea043f2618bcf041cb4c245	1	1	DL_test	14	DL_test	27			0		ta	0	1995	6	1	antiphase_hc_iso.wav	2	6	5	noise_calib_stim_RIGHT.wav	2	4	blb_dichoticlistening_ba-ka.mp3	ba	ka	1	other
6.6.1	win	2023-06-27	13:51:42	0	0	5ea043f2618bcf041cb4c245	1	1	DL_test	14	DL_test	28			0		ga	1	1699	6	1	antiphase_hc_iso.wav	2	6	5	noise_calib_stim_RIGHT.wav	2	9	blb_dichoticlistening_da-ga.mp3	da	ga	1	right
6.6.1	win	2023-06-27	13:51:42	0	0	5ea043f2618bcf041cb4c245	1	1	DL_test	14	DL_test	29			0		ga	1	1643	6	1	antiphase_hc_iso.wav	2	6	5	noise_calib_stim_RIGHT.wav	2	17	blb_dichoticlistening_ga-pa.mp3	ga	pa	1	left
6.6.1	win	2023-06-27	13:51:42	0	0	5ea043f2618bcf041cb4c245	1	1	DL_test	14	DL_test	30			0		da	0	2184	6	1	antiphase_hc_iso.wav	2	6	5	noise_calib_stim_RIGHT.wav	2	34	blb_dichoticlistening_ta-ka.mp3	ta	ka	1	other
6.6.1	win	2023-06-27	13:51:42	0	0	5ea043f2618bcf041cb4c245	1	1	DL_test	14	DL_test	31			0		ga	0	1829	6	1	antiphase_hc_iso.wav	2	6	5	noise_calib_stim_RIGHT.wav	2	23	blb_dichoticlistening_ka-pa.mp3	ka	pa	1	other
6.6.1	win	2023-06-27	13:51:42	0	0	5ea043f2618bcf041cb4c245	1	1	DL_test	14	DL_test	32			0		ga	1	1217	6	1	antiphase_hc_iso.wav	2	6	5	noise_calib_stim_RIGHT.wav	2	33	blb_dichoticlistening_ta-ga.mp3	ta	ga	1	right
6.6.1	win	2023-06-27	13:51:42	0	0	5ea043f2618bcf041cb4c245	1	1	DL_test	14	DL_test	33			0		da	0	2481	6	1	antiphase_hc_iso.wav	2	6	5	noise_calib_stim_RIGHT.wav	2	15	blb_dichoticlistening_ga-ga.mp3	ga	ga	0	other
6.6.1	win	2023-06-27	13:51:42	0	0	5ea043f2618bcf041cb4c245	1	1	DL_test	14	DL_test	34			0		ga	0	1940	6	1	antiphase_hc_iso.wav	2	6	5	noise_calib_stim_RIGHT.wav	2	8	blb_dichoticlistening_da-da.mp3	da	da	0	other
6.6.1	win	2023-06-27	13:51:42	0	0	5ea043f2618bcf041cb4c245	1	1	DL_test	14	DL_test	35			0		ba	0	2063	6	1	antiphase_hc_iso.wav	2	6	5	noise_calib_stim_RIGHT.wav	2	20	blb_dichoticlistening_ka-da.mp3	ka	da	1	other
6.6.1	win	2023-06-27	13:51:42	0	0	5ea043f2618bcf041cb4c245	1	1	DL_test	14	DL_test	36			0		ga	0	1986	6	1	antiphase_hc_iso.wav	2	6	5	noise_calib_stim_RIGHT.wav	2	2	blb_dichoticlistening_ba-da.mp3	ba	da	1	other
6.6.1	win	2023-06-27	13:51:42	0	0	5ea043f2618bcf041cb4c245	1	1	DL_test	15	DL_test	1			0		ga	1	1837	6	1	antiphase_hc_iso.wav	2	6	5	noise_calib_stim_RIGHT.wav	2	21	blb_dichoticlistening_ka-ga.mp3	ka	ga	1	right
6.6.1	win	2023-06-27	13:51:42	0	0	5ea043f2618bcf041cb4c245	1	1	DL_test	15	DL_test	2			0		ga	0	1464	6	1	antiphase_hc_iso.wav	2	6	5	noise_calib_stim_RIGHT.wav	2	6	blb_dichoticlistening_ba-ta.mp3	ba	ta	1	other
6.6.1	win	2023-06-27	13:51:42	0	0	5ea043f2618bcf041cb4c245	1	1	DL_test	15	DL_test	3			0		ta	0	2119	6	1	antiphase_hc_iso.wav	2	6	5	noise_calib_stim_RIGHT.wav	2	1	blb_dichoticlistening_ba-ba.mp3	ba	ba	0	other
6.6.1	win	2023-06-27	13:51:42	0	0	5ea043f2618bcf041cb4c245	1	1	DL_test	15	DL_test	4			0		ga	0	2553	6	1	antiphase_hc_iso.wav	2	6	5	noise_calib_stim_RIGHT.wav	2	12	blb_dichoticlistening_da-ta.mp3	da	ta	1	other
6.6.1	win	2023-06-27	13:51:42	0	0	5ea043f2618bcf041cb4c245	1	1	DL_test	15	DL_test	5			0		ga	0	1560	6	1	antiphase_hc_iso.wav	2	6	5	noise_calib_stim_RIGHT.wav	2	22	blb_dichoticlistening_ka-ka.mp3	ka	ka	0	other
6.6.1	win	2023-06-27	13:51:42	0	0	5ea043f2618bcf041cb4c245	1	1	DL_test	15	DL_test	6			0		da	0	2551	6	1	antiphase_hc_iso.wav	2	6	5	noise_calib_stim_RIGHT.wav	2	36	blb_dichoticlistening_ta-ta.mp3	ta	ta	0	other
6.6.1	win	2023-06-27	13:51:42	0	0	5ea043f2618bcf041cb4c245	1	1	DL_test	15	DL_test	7			0		ga	1	1640	6	1	antiphase_hc_iso.wav	2	6	5	noise_calib_stim_RIGHT.wav	2	16	blb_dichoticlistening_ga-ka.mp3	ga	ka	1	left
6.6.1	win	2023-06-27	13:51:42	0	0	5ea043f2618bcf041cb4c245	1	1	DL_test	15	DL_test	8			0		ga	0	1657	6	1	antiphase_hc_iso.wav	2	6	5	noise_calib_stim_RIGHT.wav	2	7	blb_dichoticlistening_da-ba.mp3	da	ba	1	other
6.6.1	win	2023-06-27	13:51:42	0	0	5ea043f2618bcf041cb4c245	1	1	DL_test	15	DL_test	9			0		ga	1	1151	6	1	antiphase_hc_iso.wav	2	6	5	noise_calib_stim_RIGHT.wav	2	3	blb_dichoticlistening_ba-ga.mp3	ba	ga	1	right
6.6.1	win	2023-06-27	13:51:42	0	0	5ea043f2618bcf041cb4c245	1	1	DL_test	15	DL_test	10			0		ta	0	1808	6	1	antiphase_hc_iso.wav	2	6	5	noise_calib_stim_RIGHT.wav	2	19	blb_dichoticlistening_ka-ba.mp3	ka	ba	1	other
6.6.1	win	2023-06-27	13:51:42	0	0	5ea043f2618bcf041cb4c245	1	1	DL_test	15	DL_test	11			0		ga	0	2776	6	1	antiphase_hc_iso.wav	2	6	5	noise_calib_stim_RIGHT.wav	2	2	blb_dichoticlistening_ba-da.mp3	ba	da	1	other
6.6.1	win	2023-06-27	13:51:42	0	0	5ea043f2618bcf041cb4c245	1	1	DL_test	15	DL_test	12			0		ga	1	1330	6	1	antiphase_hc_iso.wav	2	6	5	noise_calib_stim_RIGHT.wav	2	33	blb_dichoticlistening_ta-ga.mp3	ta	ga	1	right
6.6.1	win	2023-06-27	13:51:42	0	0	5ea043f2618bcf041cb4c245	1	1	DL_test	15	DL_test	13			0		ta	1	2185	6	1	antiphase_hc_iso.wav	2	6	5	noise_calib_stim_RIGHT.wav	2	18	blb_dichoticlistening_ga-ta.mp3	ga	ta	1	right
6.6.1	win	2023-06-27	13:51:42	0	0	5ea043f2618bcf041cb4c245	1	1	DL_test	15	DL_test	14			0		ga	0	2182	6	1	antiphase_hc_iso.wav	2	6	5	noise_calib_stim_RIGHT.wav	2	29	blb_dichoticlistening_pa-pa.mp3	pa	pa	0	other
6.6.1	win	2023-06-27	13:51:42	0	0	5ea043f2618bcf041cb4c245	1	1	DL_test	15	DL_test	15			0		ba	0	2104	6	1	antiphase_hc_iso.wav	2	6	5	noise_calib_stim_RIGHT.wav	2	27	blb_dichoticlistening_pa-ga.mp3	pa	ga	1	other
6.6.1	win	2023-06-27	13:51:42	0	0	5ea043f2618bcf041cb4c245	1	1	DL_test	15	DL_test	16			0		ba	1	1719	6	1	antiphase_hc_iso.wav	2	6	5	noise_calib_stim_RIGHT.wav	2	4	blb_dichoticlistening_ba-ka.mp3	ba	ka	1	left
6.6.1	win	2023-06-27	13:51:42	0	0	5ea043f2618bcf041cb4c245	1	1	DL_test	15	DL_test	17			0		ga	0	1815	6	1	antiphase_hc_iso.wav	2	6	5	noise_calib_stim_RIGHT.wav	2	32	blb_dichoticlistening_ta-da.mp3	ta	da	1	other
6.6.1	win	2023-06-27	13:51:42	0	0	5ea043f2618bcf041cb4c245	1	1	DL_test	15	DL_test	18			0		ga	0	1542	6	1	antiphase_hc_iso.wav	2	6	5	noise_calib_stim_RIGHT.wav	2	28	blb_dichoticlistening_pa-ka.mp3	pa	ka	1	other
6.6.1	win	2023-06-27	13:51:42	0	0	5ea043f2618bcf041cb4c245	1	1	DL_test	15	DL_test	19			0		ta	0	1806	6	1	antiphase_hc_iso.wav	2	6	5	noise_calib_stim_RIGHT.wav	2	23	blb_dichoticlistening_ka-pa.mp3	ka	pa	1	other
6.6.1	win	2023-06-27	13:51:42	0	0	5ea043f2618bcf041cb4c245	1	1	DL_test	15	DL_test	20			0		ga	0	1787	6	1	antiphase_hc_iso.wav	2	6	5	noise_calib_stim_RIGHT.wav	2	24	blb_dichoticlistening_ka-ta.mp3	ka	ta	1	other
6.6.1	win	2023-06-27	13:51:42	0	0	5ea043f2618bcf041cb4c245	1	1	DL_test	15	DL_test	21			0		ga	1	1226	6	1	antiphase_hc_iso.wav	2	6	5	noise_calib_stim_RIGHT.wav	2	14	blb_dichoticlistening_ga-da.mp3	ga	da	1	left
6.6.1	win	2023-06-27	13:51:42	0	0	5ea043f2618bcf041cb4c245	1	1	DL_test	15	DL_test	22			0		ta	0	2007	6	1	antiphase_hc_iso.wav	2	6	5	noise_calib_stim_RIGHT.wav	2	11	blb_dichoticlistening_da-pa.mp3	da	pa	1	other
6.6.1	win	2023-06-27	13:51:42	0	0	5ea043f2618bcf041cb4c245	1	1	DL_test	15	DL_test	23			0		ba	0	2838	6	1	antiphase_hc_iso.wav	2	6	5	noise_calib_stim_RIGHT.wav	2	30	blb_dichoticlistening_pa-ta.mp3	pa	ta	1	other
6.6.1	win	2023-06-27	13:51:42	0	0	5ea043f2618bcf041cb4c245	1	1	DL_test	15	DL_test	24			0		ba	0	1578	6	1	antiphase_hc_iso.wav	2	6	5	noise_calib_stim_RIGHT.wav	2	34	blb_dichoticlistening_ta-ka.mp3	ta	ka	1	other
6.6.1	win	2023-06-27	13:51:42	0	0	5ea043f2618bcf041cb4c245	1	1	DL_test	15	DL_test	25			0		ga	0	1953	6	1	antiphase_hc_iso.wav	2	6	5	noise_calib_stim_RIGHT.wav	2	31	blb_dichoticlistening_ta-ba.mp3	ta	ba	1	other
6.6.1	win	2023-06-27	13:51:42	0	0	5ea043f2618bcf041cb4c245	1	1	DL_test	15	DL_test	26			0		ga	1	1586	6	1	antiphase_hc_iso.wav	2	6	5	noise_calib_stim_RIGHT.wav	2	17	blb_dichoticlistening_ga-pa.mp3	ga	pa	1	left
6.6.1	win	2023-06-27	13:51:42	0	0	5ea043f2618bcf041cb4c245	1	1	DL_test	15	DL_test	27			0		ga	1	2449	6	1	antiphase_hc_iso.wav	2	6	5	noise_calib_stim_RIGHT.wav	2	15	blb_dichoticlistening_ga-ga.mp3	ga	ga	0	left
6.6.1	win	2023-06-27	13:51:42	0	0	5ea043f2618bcf041cb4c245	1	1	DL_test	15	DL_test	28			0		ga	0	1238	6	1	antiphase_hc_iso.wav	2	6	5	noise_calib_stim_RIGHT.wav	2	5	blb_dichoticlistening_ba-pa.mp3	ba	pa	1	other
6.6.1	win	2023-06-27	13:51:42	0	0	5ea043f2618bcf041cb4c245	1	1	DL_test	15	DL_test	29			0		da	1	1835	6	1	antiphase_hc_iso.wav	2	6	5	noise_calib_stim_RIGHT.wav	2	9	blb_dichoticlistening_da-ga.mp3	da	ga	1	left
6.6.1	win	2023-06-27	13:51:42	0	0	5ea043f2618bcf041cb4c245	1	1	DL_test	15	DL_test	30			0		ga	0	1777	6	1	antiphase_hc_iso.wav	2	6	5	noise_calib_stim_RIGHT.wav	2	10	blb_dichoticlistening_da-ka.mp3	da	ka	1	other
6.6.1	win	2023-06-27	13:51:42	0	0	5ea043f2618bcf041cb4c245	1	1	DL_test	15	DL_test	31			0		ga	1	1376	6	1	antiphase_hc_iso.wav	2	6	5	noise_calib_stim_RIGHT.wav	2	13	blb_dichoticlistening_ga-ba.mp3	ga	ba	1	left
6.6.1	win	2023-06-27	13:51:42	0	0	5ea043f2618bcf041cb4c245	1	1	DL_test	15	DL_test	32			0		da	1	1616	6	1	antiphase_hc_iso.wav	2	6	5	noise_calib_stim_RIGHT.wav	2	8	blb_dichoticlistening_da-da.mp3	da	da	0	left
6.6.1	win	2023-06-27	13:51:42	0	0	5ea043f2618bcf041cb4c245	1	1	DL_test	15	DL_test	33			0		ga	0	1736	6	1	antiphase_hc_iso.wav	2	6	5	noise_calib_stim_RIGHT.wav	2	25	blb_dichoticlistening_pa-ba.mp3	pa	ba	1	other
6.6.1	win	2023-06-27	13:51:42	0	0	5ea043f2618bcf041cb4c245	1	1	DL_test	15	DL_test	34			0		ga	0	1132	6	1	antiphase_hc_iso.wav	2	6	5	noise_calib_stim_RIGHT.wav	2	20	blb_dichoticlistening_ka-da.mp3	ka	da	1	other
6.6.1	win	2023-06-27	13:51:42	0	0	5ea043f2618bcf041cb4c245	1	1	DL_test	15	DL_test	35			0		ta	0	2275	6	1	antiphase_hc_iso.wav	2	6	5	noise_calib_stim_RIGHT.wav	2	26	blb_dichoticlistening_pa-da.mp3	pa	da	1	other
6.6.1	win	2023-06-27	13:51:42	0	0	5ea043f2618bcf041cb4c245	1	1	DL_test	15	DL_test	36			0		ga	0	2119	6	1	antiphase_hc_iso.wav	2	6	5	noise_calib_stim_RIGHT.wav	2	35	blb_dichoticlistening_ta-pa.mp3	ta	pa	1	other
6.6.1	win	2023-06-27	13:51:42	0	0	5ea043f2618bcf041cb4c245	1	1	DL_test	16	DL_test	1			0		ga	0	2468	6	1	antiphase_hc_iso.wav	2	6	5	noise_calib_stim_RIGHT.wav	2	31	blb_dichoticlistening_ta-ba.mp3	ta	ba	1	other
6.6.1	win	2023-06-27	13:51:42	0	0	5ea043f2618bcf041cb4c245	1	1	DL_test	16	DL_test	2			0		ba	0	2329	6	1	antiphase_hc_iso.wav	2	6	5	noise_calib_stim_RIGHT.wav	2	22	blb_dichoticlistening_ka-ka.mp3	ka	ka	0	other
6.6.1	win	2023-06-27	13:51:42	0	0	5ea043f2618bcf041cb4c245	1	1	DL_test	16	DL_test	3			0		ga	0	2022	6	1	antiphase_hc_iso.wav	2	6	5	noise_calib_stim_RIGHT.wav	2	11	blb_dichoticlistening_da-pa.mp3	da	pa	1	other
6.6.1	win	2023-06-27	13:51:42	0	0	5ea043f2618bcf041cb4c245	1	1	DL_test	16	DL_test	4			0		ga	1	1173	6	1	antiphase_hc_iso.wav	2	6	5	noise_calib_stim_RIGHT.wav	2	14	blb_dichoticlistening_ga-da.mp3	ga	da	1	left
6.6.1	win	2023-06-27	13:51:42	0	0	5ea043f2618bcf041cb4c245	1	1	DL_test	16	DL_test	5			0		pa	1	2533	6	1	antiphase_hc_iso.wav	2	6	5	noise_calib_stim_RIGHT.wav	2	29	blb_dichoticlistening_pa-pa.mp3	pa	pa	0	left
6.6.1	win	2023-06-27	13:51:42	0	0	5ea043f2618bcf041cb4c245	1	1	DL_test	16	DL_test	6			0		ga	0	1719	6	1	antiphase_hc_iso.wav	2	6	5	noise_calib_stim_RIGHT.wav	2	28	blb_dichoticlistening_pa-ka.mp3	pa	ka	1	other
6.6.1	win	2023-06-27	13:51:42	0	0	5ea043f2618bcf041cb4c245	1	1	DL_test	16	DL_test	7			0		ga	1	1080	6	1	antiphase_hc_iso.wav	2	6	5	noise_calib_stim_RIGHT.wav	2	18	blb_dichoticlistening_ga-ta.mp3	ga	ta	1	left
6.6.1	win	2023-06-27	13:51:42	0	0	5ea043f2618bcf041cb4c245	1	1	DL_test	16	DL_test	8			0		ta	1	1972	6	1	antiphase_hc_iso.wav	2	6	5	noise_calib_stim_RIGHT.wav	2	30	blb_dichoticlistening_pa-ta.mp3	pa	ta	1	right
6.6.1	win	2023-06-27	13:51:42	0	0	5ea043f2618bcf041cb4c245	1	1	DL_test	16	DL_test	9			0		ga	0	1635	6	1	antiphase_hc_iso.wav	2	6	5	noise_calib_stim_RIGHT.wav	2	7	blb_dichoticlistening_da-ba.mp3	da	ba	1	other
6.6.1	win	2023-06-27	13:51:42	0	0	5ea043f2618bcf041cb4c245	1	1	DL_test	16	DL_test	10			0		ga	0	1178	6	1	antiphase_hc_iso.wav	2	6	5	noise_calib_stim_RIGHT.wav	2	25	blb_dichoticlistening_pa-ba.mp3	pa	ba	1	other
6.6.1	win	2023-06-27	13:51:42	0	0	5ea043f2618bcf041cb4c245	1	1	DL_test	16	DL_test	11			0		ta	1	1931	6	1	antiphase_hc_iso.wav	2	6	5	noise_calib_stim_RIGHT.wav	2	33	blb_dichoticlistening_ta-ga.mp3	ta	ga	1	left
6.6.1	win	2023-06-27	13:51:42	0	0	5ea043f2618bcf041cb4c245	1	1	DL_test	16	DL_test	12			0		ga	0	1733	6	1	antiphase_hc_iso.wav	2	6	5	noise_calib_stim_RIGHT.wav	2	23	blb_dichoticlistening_ka-pa.mp3	ka	pa	1	other
6.6.1	win	2023-06-27	13:51:42	0	0	5ea043f2618bcf041cb4c245	1	1	DL_test	16	DL_test	13			0		ga	0	1369	6	1	antiphase_hc_iso.wav	2	6	5	noise_calib_stim_RIGHT.wav	2	26	blb_dichoticlistening_pa-da.mp3	pa	da	1	other
6.6.1	win	2023-06-27	13:51:42	0	0	5ea043f2618bcf041cb4c245	1	1	DL_test	16	DL_test	14			0		ta	1	1749	6	1	antiphase_hc_iso.wav	2	6	5	noise_calib_stim_RIGHT.wav	2	12	blb_dichoticlistening_da-ta.mp3	da	ta	1	right
6.6.1	win	2023-06-27	13:51:42	0	0	5ea043f2618bcf041cb4c245	1	1	DL_test	16	DL_test	15			0		ga	0	1757	6	1	antiphase_hc_iso.wav	2	6	5	noise_calib_stim_RIGHT.wav	2	36	blb_dichoticlistening_ta-ta.mp3	ta	ta	0	other
6.6.1	win	2023-06-27	13:51:42	0	0	5ea043f2618bcf041cb4c245	1	1	DL_test	16	DL_test	16			0		ga	1	1328	6	1	antiphase_hc_iso.wav	2	6	5	noise_calib_stim_RIGHT.wav	2	16	blb_dichoticlistening_ga-ka.mp3	ga	ka	1	left
6.6.1	win	2023-06-27	13:51:42	0	0	5ea043f2618bcf041cb4c245	1	1	DL_test	16	DL_test	17			0		ta	0	2114	6	1	antiphase_hc_iso.wav	2	6	5	noise_calib_stim_RIGHT.wav	2	27	blb_dichoticlistening_pa-ga.mp3	pa	ga	1	other
6.6.1	win	2023-06-27	13:51:42	0	0	5ea043f2618bcf041cb4c245	1	1	DL_test	16	DL_test	18			0		ga	0	1720	6	1	antiphase_hc_iso.wav	2	6	5	noise_calib_stim_RIGHT.wav	2	2	blb_dichoticlistening_ba-da.mp3	ba	da	1	other
6.6.1	win	2023-06-27	13:51:42	0	0	5ea043f2618bcf041cb4c245	1	1	DL_test	16	DL_test	19			0		ga	1	1158	6	1	antiphase_hc_iso.wav	2	6	5	noise_calib_stim_RIGHT.wav	2	21	blb_dichoticlistening_ka-ga.mp3	ka	ga	1	right
6.6.1	win	2023-06-27	13:51:42	0	0	5ea043f2618bcf041cb4c245	1	1	DL_test	16	DL_test	20			0		ta	1	1882	6	1	antiphase_hc_iso.wav	2	6	5	noise_calib_stim_RIGHT.wav	2	6	blb_dichoticlistening_ba-ta.mp3	ba	ta	1	right
6.6.1	win	2023-06-27	13:51:42	0	0	5ea043f2618bcf041cb4c245	1	1	DL_test	16	DL_test	21			0		ga	0	1828	6	1	antiphase_hc_iso.wav	2	6	5	noise_calib_stim_RIGHT.wav	2	8	blb_dichoticlistening_da-da.mp3	da	da	0	other
6.6.1	win	2023-06-27	13:51:42	0	0	5ea043f2618bcf041cb4c245	1	1	DL_test	16	DL_test	22			0		ba	0	1991	6	1	antiphase_hc_iso.wav	2	6	5	noise_calib_stim_RIGHT.wav	2	20	blb_dichoticlistening_ka-da.mp3	ka	da	1	other
6.6.1	win	2023-06-27	13:51:42	0	0	5ea043f2618bcf041cb4c245	1	1	DL_test	16	DL_test	23			0		ga	0	2180	6	1	antiphase_hc_iso.wav	2	6	5	noise_calib_stim_RIGHT.wav	2	35	blb_dichoticlistening_ta-pa.mp3	ta	pa	1	other
6.6.1	win	2023-06-27	13:51:42	0	0	5ea043f2618bcf041cb4c245	1	1	DL_test	16	DL_test	24			0		ga	0	1312	6	1	antiphase_hc_iso.wav	2	6	5	noise_calib_stim_RIGHT.wav	2	34	blb_dichoticlistening_ta-ka.mp3	ta	ka	1	other
6.6.1	win	2023-06-27	13:51:42	0	0	5ea043f2618bcf041cb4c245	1	1	DL_test	16	DL_test	25			0		ta	0	1897	6	1	antiphase_hc_iso.wav	2	6	5	noise_calib_stim_RIGHT.wav	2	1	blb_dichoticlistening_ba-ba.mp3	ba	ba	0	other
6.6.1	win	2023-06-27	13:51:42	0	0	5ea043f2618bcf041cb4c245	1	1	DL_test	16	DL_test	26			0		ga	1	2252	6	1	antiphase_hc_iso.wav	2	6	5	noise_calib_stim_RIGHT.wav	2	17	blb_dichoticlistening_ga-pa.mp3	ga	pa	1	left
6.6.1	win	2023-06-27	13:51:42	0	0	5ea043f2618bcf041cb4c245	1	1	DL_test	16	DL_test	27			0		ga	0	1195	6	1	antiphase_hc_iso.wav	2	6	5	noise_calib_stim_RIGHT.wav	2	4	blb_dichoticlistening_ba-ka.mp3	ba	ka	1	other
6.6.1	win	2023-06-27	13:51:42	0	0	5ea043f2618bcf041cb4c245	1	1	DL_test	16	DL_test	28			0		ta	0	2003	6	1	antiphase_hc_iso.wav	2	6	5	noise_calib_stim_RIGHT.wav	2	3	blb_dichoticlistening_ba-ga.mp3	ba	ga	1	other
6.6.1	win	2023-06-27	13:51:42	0	0	5ea043f2618bcf041cb4c245	1	1	DL_test	16	DL_test	29			0		ga	1	1824	6	1	antiphase_hc_iso.wav	2	6	5	noise_calib_stim_RIGHT.wav	2	9	blb_dichoticlistening_da-ga.mp3	da	ga	1	right
6.6.1	win	2023-06-27	13:51:42	0	0	5ea043f2618bcf041cb4c245	1	1	DL_test	16	DL_test	30			0		ga	0	1142	6	1	antiphase_hc_iso.wav	2	6	5	noise_calib_stim_RIGHT.wav	2	32	blb_dichoticlistening_ta-da.mp3	ta	da	1	other
6.6.1	win	2023-06-27	13:51:42	0	0	5ea043f2618bcf041cb4c245	1	1	DL_test	16	DL_test	31			0		ta	0	1693	6	1	antiphase_hc_iso.wav	2	6	5	noise_calib_stim_RIGHT.wav	2	10	blb_dichoticlistening_da-ka.mp3	da	ka	1	other
6.6.1	win	2023-06-27	13:51:42	0	0	5ea043f2618bcf041cb4c245	1	1	DL_test	16	DL_test	32			0		ga	0	1891	6	1	antiphase_hc_iso.wav	2	6	5	noise_calib_stim_RIGHT.wav	2	24	blb_dichoticlistening_ka-ta.mp3	ka	ta	1	other
6.6.1	win	2023-06-27	13:51:42	0	0	5ea043f2618bcf041cb4c245	1	1	DL_test	16	DL_test	33			0		ga	0	1152	6	1	antiphase_hc_iso.wav	2	6	5	noise_calib_stim_RIGHT.wav	2	19	blb_dichoticlistening_ka-ba.mp3	ka	ba	1	other
6.6.1	win	2023-06-27	13:51:42	0	0	5ea043f2618bcf041cb4c245	1	1	DL_test	16	DL_test	34			0		da	0	1756	6	1	antiphase_hc_iso.wav	2	6	5	noise_calib_stim_RIGHT.wav	2	15	blb_dichoticlistening_ga-ga.mp3	ga	ga	0	other
6.6.1	win	2023-06-27	13:51:42	0	0	5ea043f2618bcf041cb4c245	1	1	DL_test	16	DL_test	35			0		ga	1	1935	6	1	antiphase_hc_iso.wav	2	6	5	noise_calib_stim_RIGHT.wav	2	13	blb_dichoticlistening_ga-ba.mp3	ga	ba	1	left
6.6.1	win	2023-06-27	13:51:42	0	0	5ea043f2618bcf041cb4c245	1	1	DL_test	16	DL_test	36			0		ga	0	1322	6	1	antiphase_hc_iso.wav	2	6	5	noise_calib_stim_RIGHT.wav	2	5	blb_dichoticlistening_ba-pa.mp3	ba	pa	1	other
6.6.1	win	2023-06-27	13:51:42	14:17:30	1545437	5ea043f2618bcf041cb4c245	1	1	practice_slash	22	practice_slash	1	stimuli_distractor_diamondtriangles.svg	stimuli_target_rectangletriangles.svg	7	yes	53	1	182	6	1	antiphase_hc_iso.wav	2	6	5	noise_calib_stim_RIGHT.wav	2	5	blb_dichoticlistening_ba-pa.mp3	ba	pa	1	other
6.6.1	win	2023-06-27	13:51:42	14:17:30	1545437	5ea043f2618bcf041cb4c245	1	1	practice_slash	22	advance_on_keypress_SLASH	2	stimuli_distractor_diamondtriangles.svg	stimuli_target_rectangletriangles.svg	7	yes	57	0	3216	6	1	antiphase_hc_iso.wav	2	6	5	noise_calib_stim_RIGHT.wav	2	5	blb_dichoticlistening_ba-pa.mp3	ba	pa	1	other
6.6.1	win	2023-06-27	13:51:42	14:17:36	1551109	5ea043f2618bcf041cb4c245	1	1	practice_slash	22	practice_slash	3	stimuli_distractor_diamondtriangles.svg	stimuli_distractor_diamondtriangles.svg	13	no	53	0	805	6	1	antiphase_hc_iso.wav	2	6	5	noise_calib_stim_RIGHT.wav	2	5	blb_dichoticlistening_ba-pa.mp3	ba	pa	1	other
6.6.1	win	2023-06-27	13:51:42	14:17:36	1551109	5ea043f2618bcf041cb4c245	1	1	practice_slash	22	advance_on_keypress_SLASH	4	stimuli_distractor_diamondtriangles.svg	stimuli_distractor_diamondtriangles.svg	13	no	57	0	554	6	1	antiphase_hc_iso.wav	2	6	5	noise_calib_stim_RIGHT.wav	2	5	blb_dichoticlistening_ba-pa.mp3	ba	pa	1	other
6.6.1	win	2023-06-27	13:51:42	14:17:39	1553634	5ea043f2618bcf041cb4c245	1	1	practice_slash	22	practice_slash	5	stimuli_distractor_trianglediamonds.svg	stimuli_target_rectanglediamonds.svg	10	yes	53	1	330	6	1	antiphase_hc_iso.wav	2	6	5	noise_calib_stim_RIGHT.wav	2	5	blb_dichoticlistening_ba-pa.mp3	ba	pa	1	other
6.6.1	win	2023-06-27	13:51:42	14:17:39	1553634	5ea043f2618bcf041cb4c245	1	1	practice_slash	22	advance_on_keypress_SLASH	6	stimuli_distractor_trianglediamonds.svg	stimuli_target_rectanglediamonds.svg	10	yes	57	0	439	6	1	antiphase_hc_iso.wav	2	6	5	noise_calib_stim_RIGHT.wav	2	5	blb_dichoticlistening_ba-pa.mp3	ba	pa	1	other
6.6.1	win	2023-06-27	13:51:42	14:17:42	1557013	5ea043f2618bcf041cb4c245	1	1	practice_slash	22	practice_slash	7	stimuli_distractor_trianglediamonds.svg	stimuli_target_diamondrectangles.svg	12	yes	53	1	1294	6	1	antiphase_hc_iso.wav	2	6	5	noise_calib_stim_RIGHT.wav	2	5	blb_dichoticlistening_ba-pa.mp3	ba	pa	1	other
6.6.1	win	2023-06-27	13:51:42	14:17:42	1557013	5ea043f2618bcf041cb4c245	1	1	practice_slash	22	advance_on_keypress_SLASH	8	stimuli_distractor_trianglediamonds.svg	stimuli_target_diamondrectangles.svg	12	yes	57	0	434	6	1	antiphase_hc_iso.wav	2	6	5	noise_calib_stim_RIGHT.wav	2	5	blb_dichoticlistening_ba-pa.mp3	ba	pa	1	other
6.6.1	win	2023-06-27	13:51:42	14:17:45	1559686	5ea043f2618bcf041cb4c245	1	1	practice_slash	22	practice_slash	9	stimuli_target_diamondsquares.svg	stimuli_distractor_trianglediamonds.svg	6	yes	53	1	582	6	1	antiphase_hc_iso.wav	2	6	5	noise_calib_stim_RIGHT.wav	2	5	blb_dichoticlistening_ba-pa.mp3	ba	pa	1	other
6.6.1	win	2023-06-27	13:51:42	14:17:45	1559686	5ea043f2618bcf041cb4c245	1	1	practice_slash	22	advance_on_keypress_SLASH	10	stimuli_target_diamondsquares.svg	stimuli_distractor_trianglediamonds.svg	6	yes	57	0	484	6	1	antiphase_hc_iso.wav	2	6	5	noise_calib_stim_RIGHT.wav	2	5	blb_dichoticlistening_ba-pa.mp3	ba	pa	1	other
6.6.1	win	2023-06-27	13:51:42	14:17:47	1562424	5ea043f2618bcf041cb4c245	1	1	practice_slash	22	practice_slash	11	stimuli_target_diamondsquares.svg	stimuli_distractor_diamondtriangles.svg	3	yes	53	1	605	6	1	antiphase_hc_iso.wav	2	6	5	noise_calib_stim_RIGHT.wav	2	5	blb_dichoticlistening_ba-pa.mp3	ba	pa	1	other
6.6.1	win	2023-06-27	13:51:42	14:17:47	1562424	5ea043f2618bcf041cb4c245	1	1	practice_slash	22	advance_on_keypress_SLASH	12	stimuli_target_diamondsquares.svg	stimuli_distractor_diamondtriangles.svg	3	yes	57	0	323	6	1	antiphase_hc_iso.wav	2	6	5	noise_calib_stim_RIGHT.wav	2	5	blb_dichoticlistening_ba-pa.mp3	ba	pa	1	other
6.6.1	win	2023-06-27	13:51:42	14:17:50	1565110	5ea043f2618bcf041cb4c245	1	1	practice_slash	22	practice_slash	13	stimuli_distractor_diamondtriangles.svg	stimuli_target_diamondrectangles.svg	8	yes	53	1	723	6	1	antiphase_hc_iso.wav	2	6	5	noise_calib_stim_RIGHT.wav	2	5	blb_dichoticlistening_ba-pa.mp3	ba	pa	1	other
6.6.1	win	2023-06-27	13:51:42	14:17:50	1565110	5ea043f2618bcf041cb4c245	1	1	practice_slash	22	advance_on_keypress_SLASH	14	stimuli_distractor_diamondtriangles.svg	stimuli_target_diamondrectangles.svg	8	yes	57	0	394	6	1	antiphase_hc_iso.wav	2	6	5	noise_calib_stim_RIGHT.wav	2	5	blb_dichoticlistening_ba-pa.mp3	ba	pa	1	other
6.6.1	win	2023-06-27	13:51:42	14:17:53	1568012	5ea043f2618bcf041cb4c245	1	1	practice_slash	22	practice_slash	15	stimuli_distractor_diamondtriangles.svg	stimuli_distractor_trianglediamonds.svg	14	no	53	0	859	6	1	antiphase_hc_iso.wav	2	6	5	noise_calib_stim_RIGHT.wav	2	5	blb_dichoticlistening_ba-pa.mp3	ba	pa	1	other
6.6.1	win	2023-06-27	13:51:42	14:17:53	1568012	5ea043f2618bcf041cb4c245	1	1	practice_slash	22	advance_on_keypress_SLASH	16	stimuli_distractor_diamondtriangles.svg	stimuli_distractor_trianglediamonds.svg	14	no	57	0	89	6	1	antiphase_hc_iso.wav	2	6	5	noise_calib_stim_RIGHT.wav	2	5	blb_dichoticlistening_ba-pa.mp3	ba	pa	1	other
6.6.1	win	2023-06-27	13:51:42	14:17:55	1570492	5ea043f2618bcf041cb4c245	1	1	practice_slash	22	practice_slash	17	stimuli_distractor_diamondtriangles.svg	stimuli_target_trianglerectangles.svg	9	yes	53	1	739	6	1	antiphase_hc_iso.wav	2	6	5	noise_calib_stim_RIGHT.wav	2	5	blb_dichoticlistening_ba-pa.mp3	ba	pa	1	other
6.6.1	win	2023-06-27	13:51:42	14:17:55	1570492	5ea043f2618bcf041cb4c245	1	1	practice_slash	22	advance_on_keypress_SLASH	18	stimuli_distractor_diamondtriangles.svg	stimuli_target_trianglerectangles.svg	9	yes	57	0	477	6	1	antiphase_hc_iso.wav	2	6	5	noise_calib_stim_RIGHT.wav	2	5	blb_dichoticlistening_ba-pa.mp3	ba	pa	1	other
6.6.1	win	2023-06-27	13:51:42	14:17:58	1573153	5ea043f2618bcf041cb4c245	1	1	practice_slash	22	practice_slash	19	stimuli_target_rectanglediamonds.svg	stimuli_distractor_diamondtriangles.svg	1	yes	53	1	533	6	1	antiphase_hc_iso.wav	2	6	5	noise_calib_stim_RIGHT.wav	2	5	blb_dichoticlistening_ba-pa.mp3	ba	pa	1	other
6.6.1	win	2023-06-27	13:51:42	14:17:58	1573153	5ea043f2618bcf041cb4c245	1	1	practice_slash	22	advance_on_keypress_SLASH	20	stimuli_target_rectanglediamonds.svg	stimuli_distractor_diamondtriangles.svg	1	yes	57	0	659	6	1	antiphase_hc_iso.wav	2	6	5	noise_calib_stim_RIGHT.wav	2	5	blb_dichoticlistening_ba-pa.mp3	ba	pa	1	other
6.6.1	win	2023-06-27	13:51:42	14:18:01	1575982	5ea043f2618bcf041cb4c245	1	1	practice_slash	22	practice_slash	21	stimuli_target_rectanglediamonds.svg	stimuli_distractor_trianglediamonds.svg	4	yes	53	1	529	6	1	antiphase_hc_iso.wav	2	6	5	noise_calib_stim_RIGHT.wav	2	5	blb_dichoticlistening_ba-pa.mp3	ba	pa	1	other
6.6.1	win	2023-06-27	13:51:42	14:18:01	1575982	5ea043f2618bcf041cb4c245	1	1	practice_slash	22	advance_on_keypress_SLASH	22	stimuli_target_rectanglediamonds.svg	stimuli_distractor_trianglediamonds.svg	4	yes	57	0	362	6	1	antiphase_hc_iso.wav	2	6	5	noise_calib_stim_RIGHT.wav	2	5	blb_dichoticlistening_ba-pa.mp3	ba	pa	1	other
6.6.1	win	2023-06-27	13:51:42	14:18:03	1578416	5ea043f2618bcf041cb4c245	1	1	practice_slash	22	practice_slash	23	stimuli_distractor_trianglediamonds.svg	stimuli_target_squarediamonds.svg	11	yes	53	1	413	6	1	antiphase_hc_iso.wav	2	6	5	noise_calib_stim_RIGHT.wav	2	5	blb_dichoticlistening_ba-pa.mp3	ba	pa	1	other
6.6.1	win	2023-06-27	13:51:42	14:18:03	1578416	5ea043f2618bcf041cb4c245	1	1	practice_slash	22	advance_on_keypress_SLASH	24	stimuli_distractor_trianglediamonds.svg	stimuli_target_squarediamonds.svg	11	yes	57	0	385	6	1	antiphase_hc_iso.wav	2	6	5	noise_calib_stim_RIGHT.wav	2	5	blb_dichoticlistening_ba-pa.mp3	ba	pa	1	other
6.6.1	win	2023-06-27	13:51:42	14:18:06	1580898	5ea043f2618bcf041cb4c245	1	1	practice_slash	22	practice_slash	25	stimuli_target_squarediamonds.svg	stimuli_distractor_diamondtriangles.svg	2	yes	53	1	445	6	1	antiphase_hc_iso.wav	2	6	5	noise_calib_stim_RIGHT.wav	2	5	blb_dichoticlistening_ba-pa.mp3	ba	pa	1	other
6.6.1	win	2023-06-27	13:51:42	14:18:06	1580898	5ea043f2618bcf041cb4c245	1	1	practice_slash	22	advance_on_keypress_SLASH	26	stimuli_target_squarediamonds.svg	stimuli_distractor_diamondtriangles.svg	2	yes	57	0	90	6	1	antiphase_hc_iso.wav	2	6	5	noise_calib_stim_RIGHT.wav	2	5	blb_dichoticlistening_ba-pa.mp3	ba	pa	1	other
6.6.1	win	2023-06-27	13:51:42	14:18:08	1583094	5ea043f2618bcf041cb4c245	1	1	practice_slash	22	practice_slash	27	stimuli_target_squarediamonds.svg	stimuli_distractor_trianglediamonds.svg	5	yes	53	1	458	6	1	antiphase_hc_iso.wav	2	6	5	noise_calib_stim_RIGHT.wav	2	5	blb_dichoticlistening_ba-pa.mp3	ba	pa	1	other
6.6.1	win	2023-06-27	13:51:42	14:18:08	1583094	5ea043f2618bcf041cb4c245	1	1	practice_slash	22	advance_on_keypress_SLASH	28	stimuli_target_squarediamonds.svg	stimuli_distractor_trianglediamonds.svg	5	yes	57	0	142	6	1	antiphase_hc_iso.wav	2	6	5	noise_calib_stim_RIGHT.wav	2	5	blb_dichoticlistening_ba-pa.mp3	ba	pa	1	other
6.6.1	win	2023-06-27	13:51:42	14:18:12	1586869	5ea043f2618bcf041cb4c245	1	1	practice_slash	22	practice_slash	29	stimuli_distractor_trianglediamonds.svg	stimuli_distractor_trianglediamonds.svg	15	no	0	1	2000	6	1	antiphase_hc_iso.wav	2	6	5	noise_calib_stim_RIGHT.wav	2	5	blb_dichoticlistening_ba-pa.mp3	ba	pa	1	other
6.6.1	win	2023-06-27	13:51:42	14:18:12	1586869	5ea043f2618bcf041cb4c245	1	1	practice_slash	22	advance_on_keypress_SLASH	30	stimuli_distractor_trianglediamonds.svg	stimuli_distractor_trianglediamonds.svg	15	no	57	0	822	6	1	antiphase_hc_iso.wav	2	6	5	noise_calib_stim_RIGHT.wav	2	5	blb_dichoticlistening_ba-pa.mp3	ba	pa	1	other
6.6.1	win	2023-06-27	13:51:42	14:18:16	1591336	5ea043f2618bcf041cb4c245	1	1	practice_slash	22	practice_slash	31	stimuli_distractor_trianglediamonds.svg	stimuli_distractor_diamondtriangles.svg	16	no	0	1	2000	6	1	antiphase_hc_iso.wav	2	6	5	noise_calib_stim_RIGHT.wav	2	5	blb_dichoticlistening_ba-pa.mp3	ba	pa	1	other
6.6.1	win	2023-06-27	13:51:42	14:18:16	1591336	5ea043f2618bcf041cb4c245	1	1	practice_slash	22	advance_on_keypress_SLASH	32	stimuli_distractor_trianglediamonds.svg	stimuli_distractor_diamondtriangles.svg	16	no	57	0	130	6	1	antiphase_hc_iso.wav	2	6	5	noise_calib_stim_RIGHT.wav	2	5	blb_dichoticlistening_ba-pa.mp3	ba	pa	1	other
6.6.1	win	2023-06-27	13:51:42	14:18:23	1598459	5ea043f2618bcf041cb4c245	1	1	main_slash	24	main_slash	1	stimuli_target_squaretriangles.svg	stimuli_distractor_diamondtriangles.svg	7	yes	53	1	709	6	1	antiphase_hc_iso.wav	2	6	5	noise_calib_stim_RIGHT.wav	2	5	blb_dichoticlistening_ba-pa.mp3	ba	pa	1	other
6.6.1	win	2023-06-27	13:51:42	14:18:23	1598459	5ea043f2618bcf041cb4c245	1	1	main_slash	24	advance_on_keypress_SLASH	2	stimuli_target_squaretriangles.svg	stimuli_distractor_diamondtriangles.svg	7	yes	57	0	1743	6	1	antiphase_hc_iso.wav	2	6	5	noise_calib_stim_RIGHT.wav	2	5	blb_dichoticlistening_ba-pa.mp3	ba	pa	1	other
6.6.1	win	2023-06-27	13:51:42	14:18:26	1601417	5ea043f2618bcf041cb4c245	1	1	main_slash	24	main_slash	3	stimuli_distractor_diamondtriangles.svg	stimuli_target_diamondsquares.svg	32	yes	53	1	567	6	1	antiphase_hc_iso.wav	2	6	5	noise_calib_stim_RIGHT.wav	2	5	blb_dichoticlistening_ba-pa.mp3	ba	pa	1	other
6.6.1	win	2023-06-27	13:51:42	14:18:26	1601417	5ea043f2618bcf041cb4c245	1	1	main_slash	24	advance_on_keypress_SLASH	4	stimuli_distractor_diamondtriangles.svg	stimuli_target_diamondsquares.svg	32	yes	57	0	3340	6	1	antiphase_hc_iso.wav	2	6	5	noise_calib_stim_RIGHT.wav	2	5	blb_dichoticlistening_ba-pa.mp3	ba	pa	1	other
6.6.1	win	2023-06-27	13:51:42	14:18:31	1605979	5ea043f2618bcf041cb4c245	1	1	main_slash	24	main_slash	5	stimuli_target_diamondsquares.svg	stimuli_distractor_trianglediamonds.svg	20	yes	53	1	580	6	1	antiphase_hc_iso.wav	2	6	5	noise_calib_stim_RIGHT.wav	2	5	blb_dichoticlistening_ba-pa.mp3	ba	pa	1	other
6.6.1	win	2023-06-27	13:51:42	14:18:31	1605979	5ea043f2618bcf041cb4c245	1	1	main_slash	24	advance_on_keypress_SLASH	6	stimuli_target_diamondsquares.svg	stimuli_distractor_trianglediamonds.svg	20	yes	57	0	1507	6	1	antiphase_hc_iso.wav	2	6	5	noise_calib_stim_RIGHT.wav	2	5	blb_dichoticlistening_ba-pa.mp3	ba	pa	1	other
6.6.1	win	2023-06-27	13:51:42	14:18:34	1608685	5ea043f2618bcf041cb4c245	1	1	main_slash	24	main_slash	7	stimuli_distractor_diamondtriangles.svg	stimuli_target_trianglesquares.svg	30	yes	53	1	552	6	1	antiphase_hc_iso.wav	2	6	5	noise_calib_stim_RIGHT.wav	2	5	blb_dichoticlistening_ba-pa.mp3	ba	pa	1	other
6.6.1	win	2023-06-27	13:51:42	14:18:34	1608685	5ea043f2618bcf041cb4c245	1	1	main_slash	24	advance_on_keypress_SLASH	8	stimuli_distractor_diamondtriangles.svg	stimuli_target_trianglesquares.svg	30	yes	57	0	486	6	1	antiphase_hc_iso.wav	2	6	5	noise_calib_stim_RIGHT.wav	2	5	blb_dichoticlistening_ba-pa.mp3	ba	pa	1	other
6.6.1	win	2023-06-27	13:51:42	14:18:37	1611816	5ea043f2618bcf041cb4c245	1	1	main_slash	24	main_slash	9	stimuli_distractor_diamondtriangles.svg	stimuli_target_rectangletriangles.svg	13	yes	0	0	2000	6	1	antiphase_hc_iso.wav	2	6	5	noise_calib_stim_RIGHT.wav	2	5	blb_dichoticlistening_ba-pa.mp3	ba	pa	1	other
6.6.1	win	2023-06-27	13:51:42	14:18:37	1611816	5ea043f2618bcf041cb4c245	1	1	main_slash	24	advance_on_keypress_SLASH	10	stimuli_distractor_diamondtriangles.svg	stimuli_target_rectangletriangles.svg	13	yes	57	0	1427	6	1	antiphase_hc_iso.wav	2	6	5	noise_calib_stim_RIGHT.wav	2	5	blb_dichoticlistening_ba-pa.mp3	ba	pa	1	other
6.6.1	win	2023-06-27	13:51:42	14:18:39	1614188	5ea043f2618bcf041cb4c245	1	1	main_slash	24	main_slash	11	stimuli_target_rectangletriangles.svg	stimuli_distractor_trianglediamonds.svg	1	yes	53	1	289	6	1	antiphase_hc_iso.wav	2	6	5	noise_calib_stim_RIGHT.wav	2	5	blb_dichoticlistening_ba-pa.mp3	ba	pa	1	other
6.6.1	win	2023-06-27	13:51:42	14:18:39	1614188	5ea043f2618bcf041cb4c245	1	1	main_slash	24	advance_on_keypress_SLASH	12	stimuli_target_rectangletriangles.svg	stimuli_distractor_trianglediamonds.svg	1	yes	57	0	1565	6	1	antiphase_hc_iso.wav	2	6	5	noise_calib_stim_RIGHT.wav	2	5	blb_dichoticlistening_ba-pa.mp3	ba	pa	1	other
6.6.1	win	2023-06-27	13:51:42	14:18:42	1616690	5ea043f2618bcf041cb4c245	1	1	main_slash	24	main_slash	13	stimuli_target_diamondsquares.svg	stimuli_distractor_diamondtriangles.svg	24	yes	53	1	291	6	1	antiphase_hc_iso.wav	2	6	5	noise_calib_stim_RIGHT.wav	2	5	blb_dichoticlistening_ba-pa.mp3	ba	pa	1	other
6.6.1	win	2023-06-27	13:51:42	14:18:42	1616690	5ea043f2618bcf041cb4c245	1	1	main_slash	24	advance_on_keypress_SLASH	14	stimuli_target_diamondsquares.svg	stimuli_distractor_diamondtriangles.svg	24	yes	57	0	839	6	1	antiphase_hc_iso.wav	2	6	5	noise_calib_stim_RIGHT.wav	2	5	blb_dichoticlistening_ba-pa.mp3	ba	pa	1	other
6.6.1	win	2023-06-27	13:51:42	14:18:43	1618476	5ea043f2618bcf041cb4c245	1	1	main_slash	24	main_slash	15	stimuli_target_diamondrectangles.svg	stimuli_distractor_diamondtriangles.svg	23	yes	53	1	310	6	1	antiphase_hc_iso.wav	2	6	5	noise_calib_stim_RIGHT.wav	2	5	blb_dichoticlistening_ba-pa.mp3	ba	pa	1	other
6.6.1	win	2023-06-27	13:51:42	14:18:43	1618476	5ea043f2618bcf041cb4c245	1	1	main_slash	24	advance_on_keypress_SLASH	16	stimuli_target_diamondrectangles.svg	stimuli_distractor_diamondtriangles.svg	23	yes	57	0	922	6	1	antiphase_hc_iso.wav	2	6	5	noise_calib_stim_RIGHT.wav	2	5	blb_dichoticlistening_ba-pa.mp3	ba	pa	1	other
6.6.1	win	2023-06-27	13:51:42	14:18:46	1620567	5ea043f2618bcf041cb4c245	1	1	main_slash	24	main_slash	17	stimuli_distractor_trianglediamonds.svg	stimuli_distractor_trianglediamonds.svg	34	no	53	0	519	6	1	antiphase_hc_iso.wav	2	6	5	noise_calib_stim_RIGHT.wav	2	5	blb_dichoticlistening_ba-pa.mp3	ba	pa	1	other
6.6.1	win	2023-06-27	13:51:42	14:18:46	1620567	5ea043f2618bcf041cb4c245	1	1	main_slash	24	advance_on_keypress_SLASH	18	stimuli_distractor_trianglediamonds.svg	stimuli_distractor_trianglediamonds.svg	34	no	57	0	782	6	1	antiphase_hc_iso.wav	2	6	5	noise_calib_stim_RIGHT.wav	2	5	blb_dichoticlistening_ba-pa.mp3	ba	pa	1	other
6.6.1	win	2023-06-27	13:51:42	14:18:47	1622454	5ea043f2618bcf041cb4c245	1	1	main_slash	24	main_slash	19	stimuli_target_squaretriangles.svg	stimuli_distractor_trianglediamonds.svg	3	yes	53	1	455	6	1	antiphase_hc_iso.wav	2	6	5	noise_calib_stim_RIGHT.wav	2	5	blb_dichoticlistening_ba-pa.mp3	ba	pa	1	other
6.6.1	win	2023-06-27	13:51:42	14:18:47	1622454	5ea043f2618bcf041cb4c245	1	1	main_slash	24	advance_on_keypress_SLASH	20	stimuli_target_squaretriangles.svg	stimuli_distractor_trianglediamonds.svg	3	yes	57	0	1211	6	1	antiphase_hc_iso.wav	2	6	5	noise_calib_stim_RIGHT.wav	2	5	blb_dichoticlistening_ba-pa.mp3	ba	pa	1	other
6.6.1	win	2023-06-27	13:51:42	14:18:51	1626315	5ea043f2618bcf041cb4c245	1	1	main_slash	24	main_slash	21	stimuli_distractor_diamondtriangles.svg	stimuli_target_trianglerectangles.svg	29	yes	0	0	2000	6	1	antiphase_hc_iso.wav	2	6	5	noise_calib_stim_RIGHT.wav	2	5	blb_dichoticlistening_ba-pa.mp3	ba	pa	1	other
6.6.1	win	2023-06-27	13:51:42	14:18:51	1626315	5ea043f2618bcf041cb4c245	1	1	main_slash	24	advance_on_keypress_SLASH	22	stimuli_distractor_diamondtriangles.svg	stimuli_target_trianglerectangles.svg	29	yes	57	0	572	6	1	antiphase_hc_iso.wav	2	6	5	noise_calib_stim_RIGHT.wav	2	5	blb_dichoticlistening_ba-pa.mp3	ba	pa	1	other
6.6.1	win	2023-06-27	13:51:42	14:18:53	1627945	5ea043f2618bcf041cb4c245	1	1	main_slash	24	main_slash	23	stimuli_distractor_trianglediamonds.svg	stimuli_target_squaretriangles.svg	11	yes	53	1	414	6	1	antiphase_hc_iso.wav	2	6	5	noise_calib_stim_RIGHT.wav	2	5	blb_dichoticlistening_ba-pa.mp3	ba	pa	1	other
6.6.1	win	2023-06-27	13:51:42	14:18:53	1627945	5ea043f2618bcf041cb4c245	1	1	main_slash	24	advance_on_keypress_SLASH	24	stimuli_distractor_trianglediamonds.svg	stimuli_target_squaretriangles.svg	11	yes	57	0	829	6	1	antiphase_hc_iso.wav	2	6	5	noise_calib_stim_RIGHT.wav	2	5	blb_dichoticlistening_ba-pa.mp3	ba	pa	1	other
6.6.1	win	2023-06-27	13:51:42	14:18:56	1631432	5ea043f2618bcf041cb4c245	1	1	main_slash	24	main_slash	25	stimuli_distractor_diamondtriangles.svg	stimuli_distractor_diamondtriangles.svg	40	no	0	1	2000	6	1	antiphase_hc_iso.wav	2	6	5	noise_calib_stim_RIGHT.wav	2	5	blb_dichoticlistening_ba-pa.mp3	ba	pa	1	other
6.6.1	win	2023-06-27	13:51:42	14:18:56	1631432	5ea043f2618bcf041cb4c245	1	1	main_slash	24	advance_on_keypress_SLASH	26	stimuli_distractor_diamondtriangles.svg	stimuli_distractor_diamondtriangles.svg	40	no	57	0	484	6	1	antiphase_hc_iso.wav	2	6	5	noise_calib_stim_RIGHT.wav	2	5	blb_dichoticlistening_ba-pa.mp3	ba	pa	1	other
6.6.1	win	2023-06-27	13:51:42	14:19:00	1634565	5ea043f2618bcf041cb4c245	1	1	main_slash	24	main_slash	27	stimuli_distractor_trianglediamonds.svg	stimuli_distractor_diamondtriangles.svg	35	no	0	1	2000	6	1	antiphase_hc_iso.wav	2	6	5	noise_calib_stim_RIGHT.wav	2	5	blb_dichoticlistening_ba-pa.mp3	ba	pa	1	other
6.6.1	win	2023-06-27	13:51:42	14:19:00	1634565	5ea043f2618bcf041cb4c245	1	1	main_slash	24	advance_on_keypress_SLASH	28	stimuli_distractor_trianglediamonds.svg	stimuli_distractor_diamondtriangles.svg	35	no	57	0	812	6	1	antiphase_hc_iso.wav	2	6	5	noise_calib_stim_RIGHT.wav	2	5	blb_dichoticlistening_ba-pa.mp3	ba	pa	1	other
6.6.1	win	2023-06-27	13:51:42	14:19:01	1636546	5ea043f2618bcf041cb4c245	1	1	main_slash	24	main_slash	29	stimuli_target_rectanglediamonds.svg	stimuli_distractor_diamondtriangles.svg	6	yes	53	1	511	6	1	antiphase_hc_iso.wav	2	6	5	noise_calib_stim_RIGHT.wav	2	5	blb_dichoticlistening_ba-pa.mp3	ba	pa	1	other
6.6.1	win	2023-06-27	13:51:42	14:19:01	1636546	5ea043f2618bcf041cb4c245	1	1	main_slash	24	advance_on_keypress_SLASH	30	stimuli_target_rectanglediamonds.svg	stimuli_distractor_diamondtriangles.svg	6	yes	57	0	2109	6	1	antiphase_hc_iso.wav	2	6	5	noise_calib_stim_RIGHT.wav	2	5	blb_dichoticlistening_ba-pa.mp3	ba	pa	1	other
6.6.1	win	2023-06-27	13:51:42	14:19:05	1640162	5ea043f2618bcf041cb4c245	1	1	main_slash	24	main_slash	31	stimuli_distractor_diamondtriangles.svg	stimuli_target_diamondrectangles.svg	31	yes	53	1	864	6	1	antiphase_hc_iso.wav	2	6	5	noise_calib_stim_RIGHT.wav	2	5	blb_dichoticlistening_ba-pa.mp3	ba	pa	1	other
6.6.1	win	2023-06-27	13:51:42	14:19:05	1640162	5ea043f2618bcf041cb4c245	1	1	main_slash	24	advance_on_keypress_SLASH	32	stimuli_distractor_diamondtriangles.svg	stimuli_target_diamondrectangles.svg	31	yes	57	0	1687	6	1	antiphase_hc_iso.wav	2	6	5	noise_calib_stim_RIGHT.wav	2	5	blb_dichoticlistening_ba-pa.mp3	ba	pa	1	other
6.6.1	win	2023-06-27	13:51:42	14:19:08	1643416	5ea043f2618bcf041cb4c245	1	1	main_slash	24	main_slash	33	stimuli_distractor_trianglediamonds.svg	stimuli_target_trianglerectangles.svg	25	yes	53	1	917	6	1	antiphase_hc_iso.wav	2	6	5	noise_calib_stim_RIGHT.wav	2	5	blb_dichoticlistening_ba-pa.mp3	ba	pa	1	other
6.6.1	win	2023-06-27	13:51:42	14:19:08	1643416	5ea043f2618bcf041cb4c245	1	1	main_slash	24	advance_on_keypress_SLASH	34	stimuli_distractor_trianglediamonds.svg	stimuli_target_trianglerectangles.svg	25	yes	57	0	1302	6	1	antiphase_hc_iso.wav	2	6	5	noise_calib_stim_RIGHT.wav	2	5	blb_dichoticlistening_ba-pa.mp3	ba	pa	1	other
6.6.1	win	2023-06-27	13:51:42	14:19:11	1645860	5ea043f2618bcf041cb4c245	1	1	main_slash	24	main_slash	35	stimuli_target_trianglerectangles.svg	stimuli_distractor_trianglediamonds.svg	17	yes	53	1	496	6	1	antiphase_hc_iso.wav	2	6	5	noise_calib_stim_RIGHT.wav	2	5	blb_dichoticlistening_ba-pa.mp3	ba	pa	1	other
6.6.1	win	2023-06-27	13:51:42	14:19:11	1645860	5ea043f2618bcf041cb4c245	1	1	main_slash	24	advance_on_keypress_SLASH	36	stimuli_target_trianglerectangles.svg	stimuli_distractor_trianglediamonds.svg	17	yes	57	0	1338	6	1	antiphase_hc_iso.wav	2	6	5	noise_calib_stim_RIGHT.wav	2	5	blb_dichoticlistening_ba-pa.mp3	ba	pa	1	other
6.6.1	win	2023-06-27	13:51:42	14:19:13	1648177	5ea043f2618bcf041cb4c245	1	1	main_slash	24	main_slash	37	stimuli_distractor_trianglediamonds.svg	stimuli_target_diamondrectangles.svg	27	yes	53	1	330	6	1	antiphase_hc_iso.wav	2	6	5	noise_calib_stim_RIGHT.wav	2	5	blb_dichoticlistening_ba-pa.mp3	ba	pa	1	other
6.6.1	win	2023-06-27	13:51:42	14:19:13	1648177	5ea043f2618bcf041cb4c245	1	1	main_slash	24	advance_on_keypress_SLASH	38	stimuli_distractor_trianglediamonds.svg	stimuli_target_diamondrectangles.svg	27	yes	57	0	1539	6	1	antiphase_hc_iso.wav	2	6	5	noise_calib_stim_RIGHT.wav	2	5	blb_dichoticlistening_ba-pa.mp3	ba	pa	1	other
6.6.1	win	2023-06-27	13:51:42	14:19:17	1652364	5ea043f2618bcf041cb4c245	1	1	main_slash	24	main_slash	39	stimuli_distractor_trianglediamonds.svg	stimuli_distractor_trianglediamonds.svg	33	no	0	1	2000	6	1	antiphase_hc_iso.wav	2	6	5	noise_calib_stim_RIGHT.wav	2	5	blb_dichoticlistening_ba-pa.mp3	ba	pa	1	other
6.6.1	win	2023-06-27	13:51:42	14:19:17	1652364	5ea043f2618bcf041cb4c245	1	1	main_slash	24	advance_on_keypress_SLASH	40	stimuli_distractor_trianglediamonds.svg	stimuli_distractor_trianglediamonds.svg	33	no	57	0	940	6	1	antiphase_hc_iso.wav	2	6	5	noise_calib_stim_RIGHT.wav	2	5	blb_dichoticlistening_ba-pa.mp3	ba	pa	1	other
6.6.1	win	2023-06-27	13:51:42	14:19:21	1655947	5ea043f2618bcf041cb4c245	1	1	main_slash	24	main_slash	41	stimuli_distractor_trianglediamonds.svg	stimuli_distractor_diamondtriangles.svg	36	no	0	1	2000	6	1	antiphase_hc_iso.wav	2	6	5	noise_calib_stim_RIGHT.wav	2	5	blb_dichoticlistening_ba-pa.mp3	ba	pa	1	other
6.6.1	win	2023-06-27	13:51:42	14:19:21	1655947	5ea043f2618bcf041cb4c245	1	1	main_slash	24	advance_on_keypress_SLASH	42	stimuli_distractor_trianglediamonds.svg	stimuli_distractor_diamondtriangles.svg	36	no	57	0	393	6	1	antiphase_hc_iso.wav	2	6	5	noise_calib_stim_RIGHT.wav	2	5	blb_dichoticlistening_ba-pa.mp3	ba	pa	1	other
6.6.1	win	2023-06-27	13:51:42	14:19:24	1658997	5ea043f2618bcf041cb4c245	1	1	main_slash	24	main_slash	43	stimuli_distractor_diamondtriangles.svg	stimuli_distractor_trianglediamonds.svg	38	no	0	1	2000	6	1	antiphase_hc_iso.wav	2	6	5	noise_calib_stim_RIGHT.wav	2	5	blb_dichoticlistening_ba-pa.mp3	ba	pa	1	other
6.6.1	win	2023-06-27	13:51:42	14:19:24	1658997	5ea043f2618bcf041cb4c245	1	1	main_slash	24	advance_on_keypress_SLASH	44	stimuli_distractor_diamondtriangles.svg	stimuli_distractor_trianglediamonds.svg	38	no	57	0	511	6	1	antiphase_hc_iso.wav	2	6	5	noise_calib_stim_RIGHT.wav	2	5	blb_dichoticlistening_ba-pa.mp3	ba	pa	1	other
6.6.1	win	2023-06-27	13:51:42	14:19:27	1662147	5ea043f2618bcf041cb4c245	1	1	main_slash	24	main_slash	45	stimuli_distractor_diamondtriangles.svg	stimuli_distractor_trianglediamonds.svg	37	no	0	1	2000	6	1	antiphase_hc_iso.wav	2	6	5	noise_calib_stim_RIGHT.wav	2	5	blb_dichoticlistening_ba-pa.mp3	ba	pa	1	other
6.6.1	win	2023-06-27	13:51:42	14:19:27	1662147	5ea043f2618bcf041cb4c245	1	1	main_slash	24	advance_on_keypress_SLASH	46	stimuli_distractor_diamondtriangles.svg	stimuli_distractor_trianglediamonds.svg	37	no	57	0	1020	6	1	antiphase_hc_iso.wav	2	6	5	noise_calib_stim_RIGHT.wav	2	5	blb_dichoticlistening_ba-pa.mp3	ba	pa	1	other
6.6.1	win	2023-06-27	13:51:42	14:19:29	1664508	5ea043f2618bcf041cb4c245	1	1	main_slash	24	main_slash	47	stimuli_distractor_trianglediamonds.svg	stimuli_target_rectanglediamonds.svg	10	yes	53	1	695	6	1	antiphase_hc_iso.wav	2	6	5	noise_calib_stim_RIGHT.wav	2	5	blb_dichoticlistening_ba-pa.mp3	ba	pa	1	other
6.6.1	win	2023-06-27	13:51:42	14:19:29	1664508	5ea043f2618bcf041cb4c245	1	1	main_slash	24	advance_on_keypress_SLASH	48	stimuli_distractor_trianglediamonds.svg	stimuli_target_rectanglediamonds.svg	10	yes	57	0	1506	6	1	antiphase_hc_iso.wav	2	6	5	noise_calib_stim_RIGHT.wav	2	5	blb_dichoticlistening_ba-pa.mp3	ba	pa	1	other
6.6.1	win	2023-06-27	13:51:42	14:19:32	1667133	5ea043f2618bcf041cb4c245	1	1	main_slash	24	main_slash	49	stimuli_target_squarediamonds.svg	stimuli_distractor_trianglediamonds.svg	4	yes	53	1	470	6	1	antiphase_hc_iso.wav	2	6	5	noise_calib_stim_RIGHT.wav	2	5	blb_dichoticlistening_ba-pa.mp3	ba	pa	1	other
6.6.1	win	2023-06-27	13:51:42	14:19:32	1667133	5ea043f2618bcf041cb4c245	1	1	main_slash	24	advance_on_keypress_SLASH	50	stimuli_target_squarediamonds.svg	stimuli_distractor_trianglediamonds.svg	4	yes	57	0	1244	6	1	antiphase_hc_iso.wav	2	6	5	noise_calib_stim_RIGHT.wav	2	5	blb_dichoticlistening_ba-pa.mp3	ba	pa	1	other
6.6.1	win	2023-06-27	13:51:42	14:19:36	1671030	5ea043f2618bcf041cb4c245	1	1	main_slash	24	main_slash	51	stimuli_target_trianglerectangles.svg	stimuli_distractor_diamondtriangles.svg	21	yes	0	0	2000	6	1	antiphase_hc_iso.wav	2	6	5	noise_calib_stim_RIGHT.wav	2	5	blb_dichoticlistening_ba-pa.mp3	ba	pa	1	other
6.6.1	win	2023-06-27	13:51:42	14:19:36	1671030	5ea043f2618bcf041cb4c245	1	1	main_slash	24	advance_on_keypress_SLASH	52	stimuli_target_trianglerectangles.svg	stimuli_distractor_diamondtriangles.svg	21	yes	57	0	973	6	1	antiphase_hc_iso.wav	2	6	5	noise_calib_stim_RIGHT.wav	2	5	blb_dichoticlistening_ba-pa.mp3	ba	pa	1	other
6.6.1	win	2023-06-27	13:51:42	14:19:38	1673034	5ea043f2618bcf041cb4c245	1	1	main_slash	24	main_slash	53	stimuli_distractor_trianglediamonds.svg	stimuli_target_rectangletriangles.svg	9	yes	53	1	388	6	1	antiphase_hc_iso.wav	2	6	5	noise_calib_stim_RIGHT.wav	2	5	blb_dichoticlistening_ba-pa.mp3	ba	pa	1	other
6.6.1	win	2023-06-27	13:51:42	14:19:38	1673034	5ea043f2618bcf041cb4c245	1	1	main_slash	24	advance_on_keypress_SLASH	54	stimuli_distractor_trianglediamonds.svg	stimuli_target_rectangletriangles.svg	9	yes	57	0	1432	6	1	antiphase_hc_iso.wav	2	6	5	noise_calib_stim_RIGHT.wav	2	5	blb_dichoticlistening_ba-pa.mp3	ba	pa	1	other
6.6.1	win	2023-06-27	13:51:42	14:19:41	1675594	5ea043f2618bcf041cb4c245	1	1	main_slash	24	main_slash	55	stimuli_target_rectanglediamonds.svg	stimuli_distractor_trianglediamonds.svg	2	yes	53	1	481	6	1	antiphase_hc_iso.wav	2	6	5	noise_calib_stim_RIGHT.wav	2	5	blb_dichoticlistening_ba-pa.mp3	ba	pa	1	other
6.6.1	win	2023-06-27	13:51:42	14:19:41	1675594	5ea043f2618bcf041cb4c245	1	1	main_slash	24	advance_on_keypress_SLASH	56	stimuli_target_rectanglediamonds.svg	stimuli_distractor_trianglediamonds.svg	2	yes	57	0	1114	6	1	antiphase_hc_iso.wav	2	6	5	noise_calib_stim_RIGHT.wav	2	5	blb_dichoticlistening_ba-pa.mp3	ba	pa	1	other
6.6.1	win	2023-06-27	13:51:42	14:19:43	1678135	5ea043f2618bcf041cb4c245	1	1	main_slash	24	main_slash	57	stimuli_target_diamondrectangles.svg	stimuli_distractor_trianglediamonds.svg	19	yes	53	1	771	6	1	antiphase_hc_iso.wav	2	6	5	noise_calib_stim_RIGHT.wav	2	5	blb_dichoticlistening_ba-pa.mp3	ba	pa	1	other
6.6.1	win	2023-06-27	13:51:42	14:19:43	1678135	5ea043f2618bcf041cb4c245	1	1	main_slash	24	advance_on_keypress_SLASH	58	stimuli_target_diamondrectangles.svg	stimuli_distractor_trianglediamonds.svg	19	yes	57	0	797	6	1	antiphase_hc_iso.wav	2	6	5	noise_calib_stim_RIGHT.wav	2	5	blb_dichoticlistening_ba-pa.mp3	ba	pa	1	other
6.6.1	win	2023-06-27	13:51:42	14:19:46	1680757	5ea043f2618bcf041cb4c245	1	1	main_slash	24	main_slash	59	stimuli_distractor_diamondtriangles.svg	stimuli_target_squaretriangles.svg	15	yes	53	1	1177	6	1	antiphase_hc_iso.wav	2	6	5	noise_calib_stim_RIGHT.wav	2	5	blb_dichoticlistening_ba-pa.mp3	ba	pa	1	other
6.6.1	win	2023-06-27	13:51:42	14:19:46	1680757	5ea043f2618bcf041cb4c245	1	1	main_slash	24	advance_on_keypress_SLASH	60	stimuli_distractor_diamondtriangles.svg	stimuli_target_squaretriangles.svg	15	yes	57	0	936	6	1	antiphase_hc_iso.wav	2	6	5	noise_calib_stim_RIGHT.wav	2	5	blb_dichoticlistening_ba-pa.mp3	ba	pa	1	other
6.6.1	win	2023-06-27	13:51:42	14:19:48	1682712	5ea043f2618bcf041cb4c245	1	1	main_slash	24	main_slash	61	stimuli_distractor_diamondtriangles.svg	stimuli_target_squarediamonds.svg	16	yes	53	1	382	6	1	antiphase_hc_iso.wav	2	6	5	noise_calib_stim_RIGHT.wav	2	5	blb_dichoticlistening_ba-pa.mp3	ba	pa	1	other
6.6.1	win	2023-06-27	13:51:42	14:19:48	1682712	5ea043f2618bcf041cb4c245	1	1	main_slash	24	advance_on_keypress_SLASH	62	stimuli_distractor_diamondtriangles.svg	stimuli_target_squarediamonds.svg	16	yes	57	0	776	6	1	antiphase_hc_iso.wav	2	6	5	noise_calib_stim_RIGHT.wav	2	5	blb_dichoticlistening_ba-pa.mp3	ba	pa	1	other
6.6.1	win	2023-06-27	13:51:42	14:19:50	1684591	5ea043f2618bcf041cb4c245	1	1	main_slash	24	main_slash	63	stimuli_target_trianglesquares.svg	stimuli_distractor_trianglediamonds.svg	18	yes	53	1	462	6	1	antiphase_hc_iso.wav	2	6	5	noise_calib_stim_RIGHT.wav	2	5	blb_dichoticlistening_ba-pa.mp3	ba	pa	1	other
6.6.1	win	2023-06-27	13:51:42	14:19:50	1684591	5ea043f2618bcf041cb4c245	1	1	main_slash	24	advance_on_keypress_SLASH	64	stimuli_target_trianglesquares.svg	stimuli_distractor_trianglediamonds.svg	18	yes	57	0	951	6	1	antiphase_hc_iso.wav	2	6	5	noise_calib_stim_RIGHT.wav	2	5	blb_dichoticlistening_ba-pa.mp3	ba	pa	1	other
6.6.1	win	2023-06-27	13:51:42	14:19:51	1686521	5ea043f2618bcf041cb4c245	1	1	main_slash	24	main_slash	65	stimuli_target_trianglesquares.svg	stimuli_distractor_diamondtriangles.svg	22	yes	53	1	325	6	1	antiphase_hc_iso.wav	2	6	5	noise_calib_stim_RIGHT.wav	2	5	blb_dichoticlistening_ba-pa.mp3	ba	pa	1	other
6.6.1	win	2023-06-27	13:51:42	14:19:51	1686521	5ea043f2618bcf041cb4c245	1	1	main_slash	24	advance_on_keypress_SLASH	66	stimuli_target_trianglesquares.svg	stimuli_distractor_diamondtriangles.svg	22	yes	57	0	857	6	1	antiphase_hc_iso.wav	2	6	5	noise_calib_stim_RIGHT.wav	2	5	blb_dichoticlistening_ba-pa.mp3	ba	pa	1	other
6.6.1	win	2023-06-27	13:51:42	14:19:53	1688411	5ea043f2618bcf041cb4c245	1	1	main_slash	24	main_slash	67	stimuli_distractor_trianglediamonds.svg	stimuli_target_diamondsquares.svg	28	yes	53	1	399	6	1	antiphase_hc_iso.wav	2	6	5	noise_calib_stim_RIGHT.wav	2	5	blb_dichoticlistening_ba-pa.mp3	ba	pa	1	other
6.6.1	win	2023-06-27	13:51:42	14:19:53	1688411	5ea043f2618bcf041cb4c245	1	1	main_slash	24	advance_on_keypress_SLASH	68	stimuli_distractor_trianglediamonds.svg	stimuli_target_diamondsquares.svg	28	yes	57	0	2035	6	1	antiphase_hc_iso.wav	2	6	5	noise_calib_stim_RIGHT.wav	2	5	blb_dichoticlistening_ba-pa.mp3	ba	pa	1	other
6.6.1	win	2023-06-27	13:51:42	14:19:57	1691567	5ea043f2618bcf041cb4c245	1	1	main_slash	24	main_slash	69	stimuli_distractor_trianglediamonds.svg	stimuli_target_trianglesquares.svg	26	yes	53	1	472	6	1	antiphase_hc_iso.wav	2	6	5	noise_calib_stim_RIGHT.wav	2	5	blb_dichoticlistening_ba-pa.mp3	ba	pa	1	other
6.6.1	win	2023-06-27	13:51:42	14:19:57	1691567	5ea043f2618bcf041cb4c245	1	1	main_slash	24	advance_on_keypress_SLASH	70	stimuli_distractor_trianglediamonds.svg	stimuli_target_trianglesquares.svg	26	yes	57	0	1334	6	1	antiphase_hc_iso.wav	2	6	5	noise_calib_stim_RIGHT.wav	2	5	blb_dichoticlistening_ba-pa.mp3	ba	pa	1	other
6.6.1	win	2023-06-27	13:51:42	14:19:59	1694090	5ea043f2618bcf041cb4c245	1	1	main_slash	24	main_slash	71	stimuli_distractor_diamondtriangles.svg	stimuli_distractor_diamondtriangles.svg	39	no	53	0	544	6	1	antiphase_hc_iso.wav	2	6	5	noise_calib_stim_RIGHT.wav	2	5	blb_dichoticlistening_ba-pa.mp3	ba	pa	1	other
6.6.1	win	2023-06-27	13:51:42	14:19:59	1694090	5ea043f2618bcf041cb4c245	1	1	main_slash	24	advance_on_keypress_SLASH	72	stimuli_distractor_diamondtriangles.svg	stimuli_distractor_diamondtriangles.svg	39	no	57	0	1400	6	1	antiphase_hc_iso.wav	2	6	5	noise_calib_stim_RIGHT.wav	2	5	blb_dichoticlistening_ba-pa.mp3	ba	pa	1	other
6.6.1	win	2023-06-27	13:51:42	14:20:02	1696997	5ea043f2618bcf041cb4c245	1	1	main_slash	24	main_slash	73	stimuli_target_rectangletriangles.svg	stimuli_distractor_diamondtriangles.svg	5	yes	53	1	868	6	1	antiphase_hc_iso.wav	2	6	5	noise_calib_stim_RIGHT.wav	2	5	blb_dichoticlistening_ba-pa.mp3	ba	pa	1	other
6.6.1	win	2023-06-27	13:51:42	14:20:02	1696997	5ea043f2618bcf041cb4c245	1	1	main_slash	24	advance_on_keypress_SLASH	74	stimuli_target_rectangletriangles.svg	stimuli_distractor_diamondtriangles.svg	5	yes	57	0	1069	6	1	antiphase_hc_iso.wav	2	6	5	noise_calib_stim_RIGHT.wav	2	5	blb_dichoticlistening_ba-pa.mp3	ba	pa	1	other
6.6.1	win	2023-06-27	13:51:42	14:20:04	1699098	5ea043f2618bcf041cb4c245	1	1	main_slash	24	main_slash	75	stimuli_distractor_diamondtriangles.svg	stimuli_target_rectanglediamonds.svg	14	yes	53	1	386	6	1	antiphase_hc_iso.wav	2	6	5	noise_calib_stim_RIGHT.wav	2	5	blb_dichoticlistening_ba-pa.mp3	ba	pa	1	other
6.6.1	win	2023-06-27	13:51:42	14:20:04	1699098	5ea043f2618bcf041cb4c245	1	1	main_slash	24	advance_on_keypress_SLASH	76	stimuli_distractor_diamondtriangles.svg	stimuli_target_rectanglediamonds.svg	14	yes	57	0	1079	6	1	antiphase_hc_iso.wav	2	6	5	noise_calib_stim_RIGHT.wav	2	5	blb_dichoticlistening_ba-pa.mp3	ba	pa	1	other
6.6.1	win	2023-06-27	13:51:42	14:20:06	1701189	5ea043f2618bcf041cb4c245	1	1	main_slash	24	main_slash	77	stimuli_target_squarediamonds.svg	stimuli_distractor_diamondtriangles.svg	8	yes	53	1	361	6	1	antiphase_hc_iso.wav	2	6	5	noise_calib_stim_RIGHT.wav	2	5	blb_dichoticlistening_ba-pa.mp3	ba	pa	1	other
6.6.1	win	2023-06-27	13:51:42	14:20:06	1701189	5ea043f2618bcf041cb4c245	1	1	main_slash	24	advance_on_keypress_SLASH	78	stimuli_target_squarediamonds.svg	stimuli_distractor_diamondtriangles.svg	8	yes	57	0	744	6	1	antiphase_hc_iso.wav	2	6	5	noise_calib_stim_RIGHT.wav	2	5	blb_dichoticlistening_ba-pa.mp3	ba	pa	1	other
6.6.1	win	2023-06-27	13:51:42	14:20:08	1702842	5ea043f2618bcf041cb4c245	1	1	main_slash	24	main_slash	79	stimuli_distractor_trianglediamonds.svg	stimuli_target_squarediamonds.svg	12	yes	53	1	281	6	1	antiphase_hc_iso.wav	2	6	5	noise_calib_stim_RIGHT.wav	2	5	blb_dichoticlistening_ba-pa.mp3	ba	pa	1	other
6.6.1	win	2023-06-27	13:51:42	14:20:08	1702842	5ea043f2618bcf041cb4c245	1	1	main_slash	24	advance_on_keypress_SLASH	80	stimuli_distractor_trianglediamonds.svg	stimuli_target_squarediamonds.svg	12	yes	57	0	989	6	1	antiphase_hc_iso.wav	2	6	5	noise_calib_stim_RIGHT.wav	2	5	blb_dichoticlistening_ba-pa.mp3	ba	pa	1	other
6.6.1	win	2023-06-27	13:51:42	14:20:10	1704761	5ea043f2618bcf041cb4c245	1	1	main_slash	24	main_slash	81	stimuli_target_rectanglediamonds.svg	stimuli_distractor_diamondtriangles.svg	6	yes	53	1	283	6	1	antiphase_hc_iso.wav	2	6	5	noise_calib_stim_RIGHT.wav	2	5	blb_dichoticlistening_ba-pa.mp3	ba	pa	1	other
6.6.1	win	2023-06-27	13:51:42	14:20:10	1704761	5ea043f2618bcf041cb4c245	1	1	main_slash	24	advance_on_keypress_SLASH	82	stimuli_target_rectanglediamonds.svg	stimuli_distractor_diamondtriangles.svg	6	yes	57	0	730	6	1	antiphase_hc_iso.wav	2	6	5	noise_calib_stim_RIGHT.wav	2	5	blb_dichoticlistening_ba-pa.mp3	ba	pa	1	other
6.6.1	win	2023-06-27	13:51:42	14:20:11	1706424	5ea043f2618bcf041cb4c245	1	1	main_slash	24	main_slash	83	stimuli_target_rectangletriangles.svg	stimuli_distractor_trianglediamonds.svg	1	yes	53	1	279	6	1	antiphase_hc_iso.wav	2	6	5	noise_calib_stim_RIGHT.wav	2	5	blb_dichoticlistening_ba-pa.mp3	ba	pa	1	other
6.6.1	win	2023-06-27	13:51:42	14:20:11	1706424	5ea043f2618bcf041cb4c245	1	1	main_slash	24	advance_on_keypress_SLASH	84	stimuli_target_rectangletriangles.svg	stimuli_distractor_trianglediamonds.svg	1	yes	57	0	1816	6	1	antiphase_hc_iso.wav	2	6	5	noise_calib_stim_RIGHT.wav	2	5	blb_dichoticlistening_ba-pa.mp3	ba	pa	1	other
6.6.1	win	2023-06-27	13:51:42	14:20:14	1709507	5ea043f2618bcf041cb4c245	1	1	main_slash	24	main_slash	85	stimuli_distractor_diamondtriangles.svg	stimuli_target_rectanglediamonds.svg	14	yes	53	1	612	6	1	antiphase_hc_iso.wav	2	6	5	noise_calib_stim_RIGHT.wav	2	5	blb_dichoticlistening_ba-pa.mp3	ba	pa	1	other
6.6.1	win	2023-06-27	13:51:42	14:20:14	1709507	5ea043f2618bcf041cb4c245	1	1	main_slash	24	advance_on_keypress_SLASH	86	stimuli_distractor_diamondtriangles.svg	stimuli_target_rectanglediamonds.svg	14	yes	57	0	1333	6	1	antiphase_hc_iso.wav	2	6	5	noise_calib_stim_RIGHT.wav	2	5	blb_dichoticlistening_ba-pa.mp3	ba	pa	1	other
6.6.1	win	2023-06-27	13:51:42	14:20:17	1711800	5ea043f2618bcf041cb4c245	1	1	main_slash	24	main_slash	87	stimuli_distractor_trianglediamonds.svg	stimuli_distractor_diamondtriangles.svg	35	no	53	0	305	6	1	antiphase_hc_iso.wav	2	6	5	noise_calib_stim_RIGHT.wav	2	5	blb_dichoticlistening_ba-pa.mp3	ba	pa	1	other
6.6.1	win	2023-06-27	13:51:42	14:20:17	1711800	5ea043f2618bcf041cb4c245	1	1	main_slash	24	advance_on_keypress_SLASH	88	stimuli_distractor_trianglediamonds.svg	stimuli_distractor_diamondtriangles.svg	35	no	57	0	1870	6	1	antiphase_hc_iso.wav	2	6	5	noise_calib_stim_RIGHT.wav	2	5	blb_dichoticlistening_ba-pa.mp3	ba	pa	1	other
6.6.1	win	2023-06-27	13:51:42	14:20:20	1714620	5ea043f2618bcf041cb4c245	1	1	main_slash	24	main_slash	89	stimuli_distractor_diamondtriangles.svg	stimuli_target_rectangletriangles.svg	13	yes	53	1	310	6	1	antiphase_hc_iso.wav	2	6	5	noise_calib_stim_RIGHT.wav	2	5	blb_dichoticlistening_ba-pa.mp3	ba	pa	1	other
6.6.1	win	2023-06-27	13:51:42	14:20:20	1714620	5ea043f2618bcf041cb4c245	1	1	main_slash	24	advance_on_keypress_SLASH	90	stimuli_distractor_diamondtriangles.svg	stimuli_target_rectangletriangles.svg	13	yes	57	0	1093	6	1	antiphase_hc_iso.wav	2	6	5	noise_calib_stim_RIGHT.wav	2	5	blb_dichoticlistening_ba-pa.mp3	ba	pa	1	other
6.6.1	win	2023-06-27	13:51:42	14:20:22	1716779	5ea043f2618bcf041cb4c245	1	1	main_slash	24	main_slash	91	stimuli_distractor_trianglediamonds.svg	stimuli_target_rectanglediamonds.svg	10	yes	53	1	435	6	1	antiphase_hc_iso.wav	2	6	5	noise_calib_stim_RIGHT.wav	2	5	blb_dichoticlistening_ba-pa.mp3	ba	pa	1	other
6.6.1	win	2023-06-27	13:51:42	14:20:22	1716779	5ea043f2618bcf041cb4c245	1	1	main_slash	24	advance_on_keypress_SLASH	92	stimuli_distractor_trianglediamonds.svg	stimuli_target_rectanglediamonds.svg	10	yes	57	0	1069	6	1	antiphase_hc_iso.wav	2	6	5	noise_calib_stim_RIGHT.wav	2	5	blb_dichoticlistening_ba-pa.mp3	ba	pa	1	other
6.6.1	win	2023-06-27	13:51:42	14:20:25	1720494	5ea043f2618bcf041cb4c245	1	1	main_slash	24	main_slash	93	stimuli_distractor_diamondtriangles.svg	stimuli_target_diamondsquares.svg	32	yes	0	0	2000	6	1	antiphase_hc_iso.wav	2	6	5	noise_calib_stim_RIGHT.wav	2	5	blb_dichoticlistening_ba-pa.mp3	ba	pa	1	other
6.6.1	win	2023-06-27	13:51:42	14:20:25	1720494	5ea043f2618bcf041cb4c245	1	1	main_slash	24	advance_on_keypress_SLASH	94	stimuli_distractor_diamondtriangles.svg	stimuli_target_diamondsquares.svg	32	yes	57	0	432	6	1	antiphase_hc_iso.wav	2	6	5	noise_calib_stim_RIGHT.wav	2	5	blb_dichoticlistening_ba-pa.mp3	ba	pa	1	other
6.6.1	win	2023-06-27	13:51:42	14:20:27	1722045	5ea043f2618bcf041cb4c245	1	1	main_slash	24	main_slash	95	stimuli_distractor_diamondtriangles.svg	stimuli_target_squaretriangles.svg	15	yes	53	1	467	6	1	antiphase_hc_iso.wav	2	6	5	noise_calib_stim_RIGHT.wav	2	5	blb_dichoticlistening_ba-pa.mp3	ba	pa	1	other
6.6.1	win	2023-06-27	13:51:42	14:20:27	1722045	5ea043f2618bcf041cb4c245	1	1	main_slash	24	advance_on_keypress_SLASH	96	stimuli_distractor_diamondtriangles.svg	stimuli_target_squaretriangles.svg	15	yes	57	0	1115	6	1	antiphase_hc_iso.wav	2	6	5	noise_calib_stim_RIGHT.wav	2	5	blb_dichoticlistening_ba-pa.mp3	ba	pa	1	other
6.6.1	win	2023-06-27	13:51:42	14:20:31	1725811	5ea043f2618bcf041cb4c245	1	1	main_slash	24	main_slash	97	stimuli_distractor_trianglediamonds.svg	stimuli_target_trianglesquares.svg	26	yes	0	0	2000	6	1	antiphase_hc_iso.wav	2	6	5	noise_calib_stim_RIGHT.wav	2	5	blb_dichoticlistening_ba-pa.mp3	ba	pa	1	other
6.6.1	win	2023-06-27	13:51:42	14:20:31	1725811	5ea043f2618bcf041cb4c245	1	1	main_slash	24	advance_on_keypress_SLASH	98	stimuli_distractor_trianglediamonds.svg	stimuli_target_trianglesquares.svg	26	yes	57	0	1170	6	1	antiphase_hc_iso.wav	2	6	5	noise_calib_stim_RIGHT.wav	2	5	blb_dichoticlistening_ba-pa.mp3	ba	pa	1	other
6.6.1	win	2023-06-27	13:51:42	14:20:35	1729627	5ea043f2618bcf041cb4c245	1	1	main_slash	24	main_slash	99	stimuli_target_diamondrectangles.svg	stimuli_distractor_trianglediamonds.svg	19	yes	0	0	2000	6	1	antiphase_hc_iso.wav	2	6	5	noise_calib_stim_RIGHT.wav	2	5	blb_dichoticlistening_ba-pa.mp3	ba	pa	1	other
6.6.1	win	2023-06-27	13:51:42	14:20:35	1729627	5ea043f2618bcf041cb4c245	1	1	main_slash	24	advance_on_keypress_SLASH	100	stimuli_target_diamondrectangles.svg	stimuli_distractor_trianglediamonds.svg	19	yes	57	0	520	6	1	antiphase_hc_iso.wav	2	6	5	noise_calib_stim_RIGHT.wav	2	5	blb_dichoticlistening_ba-pa.mp3	ba	pa	1	other
6.6.1	win	2023-06-27	13:51:42	14:20:36	1731293	5ea043f2618bcf041cb4c245	1	1	main_slash	24	main_slash	101	stimuli_target_squaretriangles.svg	stimuli_distractor_diamondtriangles.svg	7	yes	53	1	499	6	1	antiphase_hc_iso.wav	2	6	5	noise_calib_stim_RIGHT.wav	2	5	blb_dichoticlistening_ba-pa.mp3	ba	pa	1	other
6.6.1	win	2023-06-27	13:51:42	14:20:36	1731293	5ea043f2618bcf041cb4c245	1	1	main_slash	24	advance_on_keypress_SLASH	102	stimuli_target_squaretriangles.svg	stimuli_distractor_diamondtriangles.svg	7	yes	57	0	1196	6	1	antiphase_hc_iso.wav	2	6	5	noise_calib_stim_RIGHT.wav	2	5	blb_dichoticlistening_ba-pa.mp3	ba	pa	1	other
6.6.1	win	2023-06-27	13:51:42	14:20:39	1733575	5ea043f2618bcf041cb4c245	1	1	main_slash	24	main_slash	103	stimuli_target_squarediamonds.svg	stimuli_distractor_trianglediamonds.svg	4	yes	53	1	431	6	1	antiphase_hc_iso.wav	2	6	5	noise_calib_stim_RIGHT.wav	2	5	blb_dichoticlistening_ba-pa.mp3	ba	pa	1	other
6.6.1	win	2023-06-27	13:51:42	14:20:39	1733575	5ea043f2618bcf041cb4c245	1	1	main_slash	24	advance_on_keypress_SLASH	104	stimuli_target_squarediamonds.svg	stimuli_distractor_trianglediamonds.svg	4	yes	57	0	582	6	1	antiphase_hc_iso.wav	2	6	5	noise_calib_stim_RIGHT.wav	2	5	blb_dichoticlistening_ba-pa.mp3	ba	pa	1	other
6.6.1	win	2023-06-27	13:51:42	14:20:40	1735405	5ea043f2618bcf041cb4c245	1	1	main_slash	24	main_slash	105	stimuli_distractor_trianglediamonds.svg	stimuli_target_diamondrectangles.svg	27	yes	53	1	595	6	1	antiphase_hc_iso.wav	2	6	5	noise_calib_stim_RIGHT.wav	2	5	blb_dichoticlistening_ba-pa.mp3	ba	pa	1	other
6.6.1	win	2023-06-27	13:51:42	14:20:40	1735405	5ea043f2618bcf041cb4c245	1	1	main_slash	24	advance_on_keypress_SLASH	106	stimuli_distractor_trianglediamonds.svg	stimuli_target_diamondrectangles.svg	27	yes	57	0	910	6	1	antiphase_hc_iso.wav	2	6	5	noise_calib_stim_RIGHT.wav	2	5	blb_dichoticlistening_ba-pa.mp3	ba	pa	1	other
6.6.1	win	2023-06-27	13:51:42	14:20:42	1737494	5ea043f2618bcf041cb4c245	1	1	main_slash	24	main_slash	107	stimuli_distractor_trianglediamonds.svg	stimuli_target_diamondsquares.svg	28	yes	53	1	534	6	1	antiphase_hc_iso.wav	2	6	5	noise_calib_stim_RIGHT.wav	2	5	blb_dichoticlistening_ba-pa.mp3	ba	pa	1	other
6.6.1	win	2023-06-27	13:51:42	14:20:42	1737494	5ea043f2618bcf041cb4c245	1	1	main_slash	24	advance_on_keypress_SLASH	108	stimuli_distractor_trianglediamonds.svg	stimuli_target_diamondsquares.svg	28	yes	57	0	1057	6	1	antiphase_hc_iso.wav	2	6	5	noise_calib_stim_RIGHT.wav	2	5	blb_dichoticlistening_ba-pa.mp3	ba	pa	1	other
6.6.1	win	2023-06-27	13:51:42	14:20:45	1739876	5ea043f2618bcf041cb4c245	1	1	main_slash	24	main_slash	109	stimuli_distractor_diamondtriangles.svg	stimuli_target_trianglerectangles.svg	29	yes	53	1	683	6	1	antiphase_hc_iso.wav	2	6	5	noise_calib_stim_RIGHT.wav	2	5	blb_dichoticlistening_ba-pa.mp3	ba	pa	1	other
6.6.1	win	2023-06-27	13:51:42	14:20:45	1739876	5ea043f2618bcf041cb4c245	1	1	main_slash	24	advance_on_keypress_SLASH	110	stimuli_distractor_diamondtriangles.svg	stimuli_target_trianglerectangles.svg	29	yes	57	0	1782	6	1	antiphase_hc_iso.wav	2	6	5	noise_calib_stim_RIGHT.wav	2	5	blb_dichoticlistening_ba-pa.mp3	ba	pa	1	other
6.6.1	win	2023-06-27	13:51:42	14:20:49	1744310	5ea043f2618bcf041cb4c245	1	1	main_slash	24	main_slash	111	stimuli_distractor_trianglediamonds.svg	stimuli_distractor_trianglediamonds.svg	34	no	0	1	2000	6	1	antiphase_hc_iso.wav	2	6	5	noise_calib_stim_RIGHT.wav	2	5	blb_dichoticlistening_ba-pa.mp3	ba	pa	1	other
6.6.1	win	2023-06-27	13:51:42	14:20:49	1744310	5ea043f2618bcf041cb4c245	1	1	main_slash	24	advance_on_keypress_SLASH	112	stimuli_distractor_trianglediamonds.svg	stimuli_distractor_trianglediamonds.svg	34	no	57	0	2518	6	1	antiphase_hc_iso.wav	2	6	5	noise_calib_stim_RIGHT.wav	2	5	blb_dichoticlistening_ba-pa.mp3	ba	pa	1	other
6.6.1	win	2023-06-27	13:51:42	14:20:53	1747995	5ea043f2618bcf041cb4c245	1	1	main_slash	24	main_slash	113	stimuli_target_trianglesquares.svg	stimuli_distractor_diamondtriangles.svg	22	yes	53	1	519	6	1	antiphase_hc_iso.wav	2	6	5	noise_calib_stim_RIGHT.wav	2	5	blb_dichoticlistening_ba-pa.mp3	ba	pa	1	other
6.6.1	win	2023-06-27	13:51:42	14:20:53	1747995	5ea043f2618bcf041cb4c245	1	1	main_slash	24	advance_on_keypress_SLASH	114	stimuli_target_trianglesquares.svg	stimuli_distractor_diamondtriangles.svg	22	yes	57	0	1212	6	1	antiphase_hc_iso.wav	2	6	5	noise_calib_stim_RIGHT.wav	2	5	blb_dichoticlistening_ba-pa.mp3	ba	pa	1	other
6.6.1	win	2023-06-27	13:51:42	14:20:56	1750615	5ea043f2618bcf041cb4c245	1	1	main_slash	24	main_slash	115	stimuli_target_diamondrectangles.svg	stimuli_distractor_diamondtriangles.svg	23	yes	53	1	756	6	1	antiphase_hc_iso.wav	2	6	5	noise_calib_stim_RIGHT.wav	2	5	blb_dichoticlistening_ba-pa.mp3	ba	pa	1	other
6.6.1	win	2023-06-27	13:51:42	14:20:56	1750615	5ea043f2618bcf041cb4c245	1	1	main_slash	24	advance_on_keypress_SLASH	116	stimuli_target_diamondrectangles.svg	stimuli_distractor_diamondtriangles.svg	23	yes	57	0	875	6	1	antiphase_hc_iso.wav	2	6	5	noise_calib_stim_RIGHT.wav	2	5	blb_dichoticlistening_ba-pa.mp3	ba	pa	1	other
6.6.1	win	2023-06-27	13:51:42	14:20:58	1752649	5ea043f2618bcf041cb4c245	1	1	main_slash	24	main_slash	117	stimuli_target_trianglerectangles.svg	stimuli_distractor_diamondtriangles.svg	21	yes	53	1	523	6	1	antiphase_hc_iso.wav	2	6	5	noise_calib_stim_RIGHT.wav	2	5	blb_dichoticlistening_ba-pa.mp3	ba	pa	1	other
6.6.1	win	2023-06-27	13:51:42	14:20:58	1752649	5ea043f2618bcf041cb4c245	1	1	main_slash	24	advance_on_keypress_SLASH	118	stimuli_target_trianglerectangles.svg	stimuli_distractor_diamondtriangles.svg	21	yes	57	0	903	6	1	antiphase_hc_iso.wav	2	6	5	noise_calib_stim_RIGHT.wav	2	5	blb_dichoticlistening_ba-pa.mp3	ba	pa	1	other
6.6.1	win	2023-06-27	13:51:42	14:21:00	1754913	5ea043f2618bcf041cb4c245	1	1	main_slash	24	main_slash	119	stimuli_distractor_diamondtriangles.svg	stimuli_distractor_trianglediamonds.svg	37	no	53	0	720	6	1	antiphase_hc_iso.wav	2	6	5	noise_calib_stim_RIGHT.wav	2	5	blb_dichoticlistening_ba-pa.mp3	ba	pa	1	other
6.6.1	win	2023-06-27	13:51:42	14:21:00	1754913	5ea043f2618bcf041cb4c245	1	1	main_slash	24	advance_on_keypress_SLASH	120	stimuli_distractor_diamondtriangles.svg	stimuli_distractor_trianglediamonds.svg	37	no	57	0	1092	6	1	antiphase_hc_iso.wav	2	6	5	noise_calib_stim_RIGHT.wav	2	5	blb_dichoticlistening_ba-pa.mp3	ba	pa	1	other
6.6.1	win	2023-06-27	13:51:42	14:21:04	1758642	5ea043f2618bcf041cb4c245	1	1	main_slash	24	main_slash	121	stimuli_distractor_diamondtriangles.svg	stimuli_target_trianglesquares.svg	30	yes	0	0	2000	6	1	antiphase_hc_iso.wav	2	6	5	noise_calib_stim_RIGHT.wav	2	5	blb_dichoticlistening_ba-pa.mp3	ba	pa	1	other
6.6.1	win	2023-06-27	13:51:42	14:21:04	1758642	5ea043f2618bcf041cb4c245	1	1	main_slash	24	advance_on_keypress_SLASH	122	stimuli_distractor_diamondtriangles.svg	stimuli_target_trianglesquares.svg	30	yes	57	0	557	6	1	antiphase_hc_iso.wav	2	6	5	noise_calib_stim_RIGHT.wav	2	5	blb_dichoticlistening_ba-pa.mp3	ba	pa	1	other
6.6.1	win	2023-06-27	13:51:42	14:21:05	1760466	5ea043f2618bcf041cb4c245	1	1	main_slash	24	main_slash	123	stimuli_target_trianglerectangles.svg	stimuli_distractor_trianglediamonds.svg	17	yes	53	1	623	6	1	antiphase_hc_iso.wav	2	6	5	noise_calib_stim_RIGHT.wav	2	5	blb_dichoticlistening_ba-pa.mp3	ba	pa	1	other
6.6.1	win	2023-06-27	13:51:42	14:21:05	1760466	5ea043f2618bcf041cb4c245	1	1	main_slash	24	advance_on_keypress_SLASH	124	stimuli_target_trianglerectangles.svg	stimuli_distractor_trianglediamonds.svg	17	yes	57	0	1034	6	1	antiphase_hc_iso.wav	2	6	5	noise_calib_stim_RIGHT.wav	2	5	blb_dichoticlistening_ba-pa.mp3	ba	pa	1	other
6.6.1	win	2023-06-27	13:51:42	14:21:09	1764142	5ea043f2618bcf041cb4c245	1	1	main_slash	24	main_slash	125	stimuli_target_squaretriangles.svg	stimuli_distractor_trianglediamonds.svg	3	yes	0	0	2000	6	1	antiphase_hc_iso.wav	2	6	5	noise_calib_stim_RIGHT.wav	2	5	blb_dichoticlistening_ba-pa.mp3	ba	pa	1	other
6.6.1	win	2023-06-27	13:51:42	14:21:09	1764142	5ea043f2618bcf041cb4c245	1	1	main_slash	24	advance_on_keypress_SLASH	126	stimuli_target_squaretriangles.svg	stimuli_distractor_trianglediamonds.svg	3	yes	57	0	509	6	1	antiphase_hc_iso.wav	2	6	5	noise_calib_stim_RIGHT.wav	2	5	blb_dichoticlistening_ba-pa.mp3	ba	pa	1	other
6.6.1	win	2023-06-27	13:51:42	14:21:11	1765867	5ea043f2618bcf041cb4c245	1	1	main_slash	24	main_slash	127	stimuli_target_trianglesquares.svg	stimuli_distractor_trianglediamonds.svg	18	yes	53	1	575	6	1	antiphase_hc_iso.wav	2	6	5	noise_calib_stim_RIGHT.wav	2	5	blb_dichoticlistening_ba-pa.mp3	ba	pa	1	other
6.6.1	win	2023-06-27	13:51:42	14:21:11	1765867	5ea043f2618bcf041cb4c245	1	1	main_slash	24	advance_on_keypress_SLASH	128	stimuli_target_trianglesquares.svg	stimuli_distractor_trianglediamonds.svg	18	yes	57	0	1361	6	1	antiphase_hc_iso.wav	2	6	5	noise_calib_stim_RIGHT.wav	2	5	blb_dichoticlistening_ba-pa.mp3	ba	pa	1	other
6.6.1	win	2023-06-27	13:51:42	14:21:15	1769875	5ea043f2618bcf041cb4c245	1	1	main_slash	24	main_slash	129	stimuli_distractor_trianglediamonds.svg	stimuli_target_squarediamonds.svg	12	yes	0	0	2000	6	1	antiphase_hc_iso.wav	2	6	5	noise_calib_stim_RIGHT.wav	2	5	blb_dichoticlistening_ba-pa.mp3	ba	pa	1	other
6.6.1	win	2023-06-27	13:51:42	14:21:15	1769875	5ea043f2618bcf041cb4c245	1	1	main_slash	24	advance_on_keypress_SLASH	130	stimuli_distractor_trianglediamonds.svg	stimuli_target_squarediamonds.svg	12	yes	57	0	444	6	1	antiphase_hc_iso.wav	2	6	5	noise_calib_stim_RIGHT.wav	2	5	blb_dichoticlistening_ba-pa.mp3	ba	pa	1	other
6.6.1	win	2023-06-27	13:51:42	14:21:16	1771395	5ea043f2618bcf041cb4c245	1	1	main_slash	24	main_slash	131	stimuli_target_squarediamonds.svg	stimuli_distractor_diamondtriangles.svg	8	yes	53	1	421	6	1	antiphase_hc_iso.wav	2	6	5	noise_calib_stim_RIGHT.wav	2	5	blb_dichoticlistening_ba-pa.mp3	ba	pa	1	other
6.6.1	win	2023-06-27	13:51:42	14:21:16	1771395	5ea043f2618bcf041cb4c245	1	1	main_slash	24	advance_on_keypress_SLASH	132	stimuli_target_squarediamonds.svg	stimuli_distractor_diamondtriangles.svg	8	yes	57	0	1256	6	1	antiphase_hc_iso.wav	2	6	5	noise_calib_stim_RIGHT.wav	2	5	blb_dichoticlistening_ba-pa.mp3	ba	pa	1	other
6.6.1	win	2023-06-27	13:51:42	14:21:19	1773596	5ea043f2618bcf041cb4c245	1	1	main_slash	24	main_slash	133	stimuli_target_rectangletriangles.svg	stimuli_distractor_diamondtriangles.svg	5	yes	53	1	304	6	1	antiphase_hc_iso.wav	2	6	5	noise_calib_stim_RIGHT.wav	2	5	blb_dichoticlistening_ba-pa.mp3	ba	pa	1	other
6.6.1	win	2023-06-27	13:51:42	14:21:19	1773596	5ea043f2618bcf041cb4c245	1	1	main_slash	24	advance_on_keypress_SLASH	134	stimuli_target_rectangletriangles.svg	stimuli_distractor_diamondtriangles.svg	5	yes	57	0	1410	6	1	antiphase_hc_iso.wav	2	6	5	noise_calib_stim_RIGHT.wav	2	5	blb_dichoticlistening_ba-pa.mp3	ba	pa	1	other
6.6.1	win	2023-06-27	13:51:42	14:21:21	1775968	5ea043f2618bcf041cb4c245	1	1	main_slash	24	main_slash	135	stimuli_distractor_trianglediamonds.svg	stimuli_distractor_trianglediamonds.svg	33	no	53	0	326	6	1	antiphase_hc_iso.wav	2	6	5	noise_calib_stim_RIGHT.wav	2	5	blb_dichoticlistening_ba-pa.mp3	ba	pa	1	other
6.6.1	win	2023-06-27	13:51:42	14:21:21	1775968	5ea043f2618bcf041cb4c245	1	1	main_slash	24	advance_on_keypress_SLASH	136	stimuli_distractor_trianglediamonds.svg	stimuli_distractor_trianglediamonds.svg	33	no	57	0	1347	6	1	antiphase_hc_iso.wav	2	6	5	noise_calib_stim_RIGHT.wav	2	5	blb_dichoticlistening_ba-pa.mp3	ba	pa	1	other
6.6.1	win	2023-06-27	13:51:42	14:21:24	1778775	5ea043f2618bcf041cb4c245	1	1	main_slash	24	main_slash	137	stimuli_target_diamondsquares.svg	stimuli_distractor_diamondtriangles.svg	24	yes	53	1	817	6	1	antiphase_hc_iso.wav	2	6	5	noise_calib_stim_RIGHT.wav	2	5	blb_dichoticlistening_ba-pa.mp3	ba	pa	1	other
6.6.1	win	2023-06-27	13:51:42	14:21:24	1778775	5ea043f2618bcf041cb4c245	1	1	main_slash	24	advance_on_keypress_SLASH	138	stimuli_target_diamondsquares.svg	stimuli_distractor_diamondtriangles.svg	24	yes	57	0	1250	6	1	antiphase_hc_iso.wav	2	6	5	noise_calib_stim_RIGHT.wav	2	5	blb_dichoticlistening_ba-pa.mp3	ba	pa	1	other
6.6.1	win	2023-06-27	13:51:42	14:21:26	1780967	5ea043f2618bcf041cb4c245	1	1	main_slash	24	main_slash	139	stimuli_distractor_diamondtriangles.svg	stimuli_target_squarediamonds.svg	16	yes	53	1	292	6	1	antiphase_hc_iso.wav	2	6	5	noise_calib_stim_RIGHT.wav	2	5	blb_dichoticlistening_ba-pa.mp3	ba	pa	1	other
6.6.1	win	2023-06-27	13:51:42	14:21:26	1780967	5ea043f2618bcf041cb4c245	1	1	main_slash	24	advance_on_keypress_SLASH	140	stimuli_distractor_diamondtriangles.svg	stimuli_target_squarediamonds.svg	16	yes	57	0	981	6	1	antiphase_hc_iso.wav	2	6	5	noise_calib_stim_RIGHT.wav	2	5	blb_dichoticlistening_ba-pa.mp3	ba	pa	1	other
6.6.1	win	2023-06-27	13:51:42	14:21:30	1784591	5ea043f2618bcf041cb4c245	1	1	main_slash	24	main_slash	141	stimuli_distractor_trianglediamonds.svg	stimuli_target_trianglerectangles.svg	25	yes	0	0	2000	6	1	antiphase_hc_iso.wav	2	6	5	noise_calib_stim_RIGHT.wav	2	5	blb_dichoticlistening_ba-pa.mp3	ba	pa	1	other
6.6.1	win	2023-06-27	13:51:42	14:21:30	1784591	5ea043f2618bcf041cb4c245	1	1	main_slash	24	advance_on_keypress_SLASH	142	stimuli_distractor_trianglediamonds.svg	stimuli_target_trianglerectangles.svg	25	yes	57	0	321	6	1	antiphase_hc_iso.wav	2	6	5	noise_calib_stim_RIGHT.wav	2	5	blb_dichoticlistening_ba-pa.mp3	ba	pa	1	other
6.6.1	win	2023-06-27	13:51:42	14:21:33	1787558	5ea043f2618bcf041cb4c245	1	1	main_slash	24	main_slash	143	stimuli_distractor_trianglediamonds.svg	stimuli_distractor_diamondtriangles.svg	36	no	0	1	2000	6	1	antiphase_hc_iso.wav	2	6	5	noise_calib_stim_RIGHT.wav	2	5	blb_dichoticlistening_ba-pa.mp3	ba	pa	1	other
6.6.1	win	2023-06-27	13:51:42	14:21:33	1787558	5ea043f2618bcf041cb4c245	1	1	main_slash	24	advance_on_keypress_SLASH	144	stimuli_distractor_trianglediamonds.svg	stimuli_distractor_diamondtriangles.svg	36	no	57	0	333	6	1	antiphase_hc_iso.wav	2	6	5	noise_calib_stim_RIGHT.wav	2	5	blb_dichoticlistening_ba-pa.mp3	ba	pa	1	other
6.6.1	win	2023-06-27	13:51:42	14:21:34	1788885	5ea043f2618bcf041cb4c245	1	1	main_slash	24	main_slash	145	stimuli_distractor_trianglediamonds.svg	stimuli_target_squaretriangles.svg	11	yes	53	1	344	6	1	antiphase_hc_iso.wav	2	6	5	noise_calib_stim_RIGHT.wav	2	5	blb_dichoticlistening_ba-pa.mp3	ba	pa	1	other
6.6.1	win	2023-06-27	13:51:42	14:21:34	1788885	5ea043f2618bcf041cb4c245	1	1	main_slash	24	advance_on_keypress_SLASH	146	stimuli_distractor_trianglediamonds.svg	stimuli_target_squaretriangles.svg	11	yes	57	0	929	6	1	antiphase_hc_iso.wav	2	6	5	noise_calib_stim_RIGHT.wav	2	5	blb_dichoticlistening_ba-pa.mp3	ba	pa	1	other
6.6.1	win	2023-06-27	13:51:42	14:21:36	1791022	5ea043f2618bcf041cb4c245	1	1	main_slash	24	main_slash	147	stimuli_target_diamondsquares.svg	stimuli_distractor_trianglediamonds.svg	20	yes	53	1	564	6	1	antiphase_hc_iso.wav	2	6	5	noise_calib_stim_RIGHT.wav	2	5	blb_dichoticlistening_ba-pa.mp3	ba	pa	1	other
6.6.1	win	2023-06-27	13:51:42	14:21:36	1791022	5ea043f2618bcf041cb4c245	1	1	main_slash	24	advance_on_keypress_SLASH	148	stimuli_target_diamondsquares.svg	stimuli_distractor_trianglediamonds.svg	20	yes	57	0	1031	6	1	antiphase_hc_iso.wav	2	6	5	noise_calib_stim_RIGHT.wav	2	5	blb_dichoticlistening_ba-pa.mp3	ba	pa	1	other
6.6.1	win	2023-06-27	13:51:42	14:21:40	1794707	5ea043f2618bcf041cb4c245	1	1	main_slash	24	main_slash	149	stimuli_distractor_diamondtriangles.svg	stimuli_distractor_diamondtriangles.svg	40	no	0	1	2000	6	1	antiphase_hc_iso.wav	2	6	5	noise_calib_stim_RIGHT.wav	2	5	blb_dichoticlistening_ba-pa.mp3	ba	pa	1	other
6.6.1	win	2023-06-27	13:51:42	14:21:40	1794707	5ea043f2618bcf041cb4c245	1	1	main_slash	24	advance_on_keypress_SLASH	150	stimuli_distractor_diamondtriangles.svg	stimuli_distractor_diamondtriangles.svg	40	no	57	0	709	6	1	antiphase_hc_iso.wav	2	6	5	noise_calib_stim_RIGHT.wav	2	5	blb_dichoticlistening_ba-pa.mp3	ba	pa	1	other
6.6.1	win	2023-06-27	13:51:42	14:21:41	1796487	5ea043f2618bcf041cb4c245	1	1	main_slash	24	main_slash	151	stimuli_target_rectanglediamonds.svg	stimuli_distractor_trianglediamonds.svg	2	yes	53	1	430	6	1	antiphase_hc_iso.wav	2	6	5	noise_calib_stim_RIGHT.wav	2	5	blb_dichoticlistening_ba-pa.mp3	ba	pa	1	other
6.6.1	win	2023-06-27	13:51:42	14:21:41	1796487	5ea043f2618bcf041cb4c245	1	1	main_slash	24	advance_on_keypress_SLASH	152	stimuli_target_rectanglediamonds.svg	stimuli_distractor_trianglediamonds.svg	2	yes	57	0	1902	6	1	antiphase_hc_iso.wav	2	6	5	noise_calib_stim_RIGHT.wav	2	5	blb_dichoticlistening_ba-pa.mp3	ba	pa	1	other
6.6.1	win	2023-06-27	13:51:42	14:21:46	1801041	5ea043f2618bcf041cb4c245	1	1	main_slash	24	main_slash	153	stimuli_distractor_diamondtriangles.svg	stimuli_distractor_diamondtriangles.svg	39	no	0	1	2000	6	1	antiphase_hc_iso.wav	2	6	5	noise_calib_stim_RIGHT.wav	2	5	blb_dichoticlistening_ba-pa.mp3	ba	pa	1	other
6.6.1	win	2023-06-27	13:51:42	14:21:46	1801041	5ea043f2618bcf041cb4c245	1	1	main_slash	24	advance_on_keypress_SLASH	154	stimuli_distractor_diamondtriangles.svg	stimuli_distractor_diamondtriangles.svg	39	no	57	0	574	6	1	antiphase_hc_iso.wav	2	6	5	noise_calib_stim_RIGHT.wav	2	5	blb_dichoticlistening_ba-pa.mp3	ba	pa	1	other
6.6.1	win	2023-06-27	13:51:42	14:21:48	1803315	5ea043f2618bcf041cb4c245	1	1	main_slash	24	main_slash	155	stimuli_distractor_diamondtriangles.svg	stimuli_distractor_trianglediamonds.svg	38	no	53	0	1058	6	1	antiphase_hc_iso.wav	2	6	5	noise_calib_stim_RIGHT.wav	2	5	blb_dichoticlistening_ba-pa.mp3	ba	pa	1	other
6.6.1	win	2023-06-27	13:51:42	14:21:48	1803315	5ea043f2618bcf041cb4c245	1	1	main_slash	24	advance_on_keypress_SLASH	156	stimuli_distractor_diamondtriangles.svg	stimuli_distractor_trianglediamonds.svg	38	no	57	0	1160	6	1	antiphase_hc_iso.wav	2	6	5	noise_calib_stim_RIGHT.wav	2	5	blb_dichoticlistening_ba-pa.mp3	ba	pa	1	other
6.6.1	win	2023-06-27	13:51:42	14:21:51	1805779	5ea043f2618bcf041cb4c245	1	1	main_slash	24	main_slash	157	stimuli_distractor_diamondtriangles.svg	stimuli_target_diamondrectangles.svg	31	yes	53	1	655	6	1	antiphase_hc_iso.wav	2	6	5	noise_calib_stim_RIGHT.wav	2	5	blb_dichoticlistening_ba-pa.mp3	ba	pa	1	other
6.6.1	win	2023-06-27	13:51:42	14:21:51	1805779	5ea043f2618bcf041cb4c245	1	1	main_slash	24	advance_on_keypress_SLASH	158	stimuli_distractor_diamondtriangles.svg	stimuli_target_diamondrectangles.svg	31	yes	57	0	1861	6	1	antiphase_hc_iso.wav	2	6	5	noise_calib_stim_RIGHT.wav	2	5	blb_dichoticlistening_ba-pa.mp3	ba	pa	1	other
6.6.1	win	2023-06-27	13:51:42	14:21:54	1808868	5ea043f2618bcf041cb4c245	1	1	main_slash	24	main_slash	159	stimuli_distractor_trianglediamonds.svg	stimuli_target_rectangletriangles.svg	9	yes	53	1	578	6	1	antiphase_hc_iso.wav	2	6	5	noise_calib_stim_RIGHT.wav	2	5	blb_dichoticlistening_ba-pa.mp3	ba	pa	1	other
6.6.1	win	2023-06-27	13:51:42	14:21:54	1808868	5ea043f2618bcf041cb4c245	1	1	main_slash	24	advance_on_keypress_SLASH	160	stimuli_distractor_trianglediamonds.svg	stimuli_target_rectangletriangles.svg	9	yes	57	0	1158	6	1	antiphase_hc_iso.wav	2	6	5	noise_calib_stim_RIGHT.wav	2	5	blb_dichoticlistening_ba-pa.mp3	ba	pa	1	other
6.6.1	win	2023-06-27	13:51:42	14:22:17	1831637	5ea043f2618bcf041cb4c245	1	1	practice_z	26	practice_z	1	stimuli_target_rectanglediamonds.svg	stimuli_distractor_trianglediamonds.svg	4	yes	44	1	363	6	1	antiphase_hc_iso.wav	2	6	5	noise_calib_stim_RIGHT.wav	2	5	blb_dichoticlistening_ba-pa.mp3	ba	pa	1	other
6.6.1	win	2023-06-27	13:51:42	14:22:17	1831637	5ea043f2618bcf041cb4c245	1	1	practice_z	26	advance_on_keypress_ZEE	2	stimuli_target_rectanglediamonds.svg	stimuli_distractor_trianglediamonds.svg	4	yes	57	0	869	6	1	antiphase_hc_iso.wav	2	6	5	noise_calib_stim_RIGHT.wav	2	5	blb_dichoticlistening_ba-pa.mp3	ba	pa	1	other
6.6.1	win	2023-06-27	13:51:42	14:22:19	1834554	5ea043f2618bcf041cb4c245	1	1	practice_z	26	practice_z	3	stimuli_distractor_diamondtriangles.svg	stimuli_target_rectangletriangles.svg	7	yes	44	1	396	6	1	antiphase_hc_iso.wav	2	6	5	noise_calib_stim_RIGHT.wav	2	5	blb_dichoticlistening_ba-pa.mp3	ba	pa	1	other
6.6.1	win	2023-06-27	13:51:42	14:22:19	1834554	5ea043f2618bcf041cb4c245	1	1	practice_z	26	advance_on_keypress_ZEE	4	stimuli_distractor_diamondtriangles.svg	stimuli_target_rectangletriangles.svg	7	yes	57	0	643	6	1	antiphase_hc_iso.wav	2	6	5	noise_calib_stim_RIGHT.wav	2	5	blb_dichoticlistening_ba-pa.mp3	ba	pa	1	other
6.6.1	win	2023-06-27	13:51:42	14:22:22	1837407	5ea043f2618bcf041cb4c245	1	1	practice_z	26	practice_z	5	stimuli_distractor_diamondtriangles.svg	stimuli_target_trianglerectangles.svg	9	yes	44	1	566	6	1	antiphase_hc_iso.wav	2	6	5	noise_calib_stim_RIGHT.wav	2	5	blb_dichoticlistening_ba-pa.mp3	ba	pa	1	other
6.6.1	win	2023-06-27	13:51:42	14:22:22	1837407	5ea043f2618bcf041cb4c245	1	1	practice_z	26	advance_on_keypress_ZEE	6	stimuli_distractor_diamondtriangles.svg	stimuli_target_trianglerectangles.svg	9	yes	57	0	798	6	1	antiphase_hc_iso.wav	2	6	5	noise_calib_stim_RIGHT.wav	2	5	blb_dichoticlistening_ba-pa.mp3	ba	pa	1	other
6.6.1	win	2023-06-27	13:51:42	14:22:25	1840135	5ea043f2618bcf041cb4c245	1	1	practice_z	26	practice_z	7	stimuli_distractor_trianglediamonds.svg	stimuli_target_rectanglediamonds.svg	10	yes	44	1	279	6	1	antiphase_hc_iso.wav	2	6	5	noise_calib_stim_RIGHT.wav	2	5	blb_dichoticlistening_ba-pa.mp3	ba	pa	1	other
6.6.1	win	2023-06-27	13:51:42	14:22:25	1840135	5ea043f2618bcf041cb4c245	1	1	practice_z	26	advance_on_keypress_ZEE	8	stimuli_distractor_trianglediamonds.svg	stimuli_target_rectanglediamonds.svg	10	yes	57	0	642	6	1	antiphase_hc_iso.wav	2	6	5	noise_calib_stim_RIGHT.wav	2	5	blb_dichoticlistening_ba-pa.mp3	ba	pa	1	other
6.6.1	win	2023-06-27	13:51:42	14:22:29	1844424	5ea043f2618bcf041cb4c245	1	1	practice_z	26	practice_z	9	stimuli_target_diamondsquares.svg	stimuli_distractor_trianglediamonds.svg	6	yes	0	0	2000	6	1	antiphase_hc_iso.wav	2	6	5	noise_calib_stim_RIGHT.wav	2	5	blb_dichoticlistening_ba-pa.mp3	ba	pa	1	other
6.6.1	win	2023-06-27	13:51:42	14:22:29	1844424	5ea043f2618bcf041cb4c245	1	1	practice_z	26	advance_on_keypress_ZEE	10	stimuli_target_diamondsquares.svg	stimuli_distractor_trianglediamonds.svg	6	yes	57	0	610	6	1	antiphase_hc_iso.wav	2	6	5	noise_calib_stim_RIGHT.wav	2	5	blb_dichoticlistening_ba-pa.mp3	ba	pa	1	other
6.6.1	win	2023-06-27	13:51:42	14:22:32	1847051	5ea043f2618bcf041cb4c245	1	1	practice_z	26	practice_z	11	stimuli_distractor_diamondtriangles.svg	stimuli_target_diamondrectangles.svg	8	yes	44	1	360	6	1	antiphase_hc_iso.wav	2	6	5	noise_calib_stim_RIGHT.wav	2	5	blb_dichoticlistening_ba-pa.mp3	ba	pa	1	other
6.6.1	win	2023-06-27	13:51:42	14:22:32	1847051	5ea043f2618bcf041cb4c245	1	1	practice_z	26	advance_on_keypress_ZEE	12	stimuli_distractor_diamondtriangles.svg	stimuli_target_diamondrectangles.svg	8	yes	57	0	875	6	1	antiphase_hc_iso.wav	2	6	5	noise_calib_stim_RIGHT.wav	2	5	blb_dichoticlistening_ba-pa.mp3	ba	pa	1	other
6.6.1	win	2023-06-27	13:51:42	14:22:35	1850039	5ea043f2618bcf041cb4c245	1	1	practice_z	26	practice_z	13	stimuli_target_rectanglediamonds.svg	stimuli_distractor_diamondtriangles.svg	1	yes	44	1	465	6	1	antiphase_hc_iso.wav	2	6	5	noise_calib_stim_RIGHT.wav	2	5	blb_dichoticlistening_ba-pa.mp3	ba	pa	1	other
