build	computer.platform	date	time	timestamp	time_elapsed_ms	subject	group	session	blockcode	blocknum	trialcode	trialnum	stimulus_left	stimulus_right	stim_index	target_present	response	correct	latency	headphonecheck_countTestTrials	headphonecheck_index	headphonecheck_testSound	headphonecheck_correctResponse	stereocheck_countTestTrials	stereocheck_index	stereocheck_testSound	stereocheck_correctResponse	DL_index	DL_soundfile	DL_leftSound	DL_rightSound	DL_dualSound	DL_choice
6.6.1	and	2023-07-06	21:46:54	0	0	60f5917414ac7d222d22db64	1	1	headphonecheck_calibration	4	headphonecheck_calibrationIntro	1			0		calibrationButton	0	1590	0	0			0	0			1				0	
6.6.1	and	2023-07-06	21:46:54	0	0	60f5917414ac7d222d22db64	1	1	headphonecheck_testphase	5	test_collectResponse	3			0		second	1	389	1	1	antiphase_hc_iso.wav	2	0	0			1				0	
6.6.1	and	2023-07-06	21:46:54	0	0	60f5917414ac7d222d22db64	1	1	headphonecheck_testphase	5	test_collectResponse	6			0		first	1	495	2	3	antiphase_hc_soi.wav	1	0	0			1				0	
6.6.1	and	2023-07-06	21:46:54	0	0	60f5917414ac7d222d22db64	1	1	headphonecheck_testphase	5	test_collectResponse	9			0		third	1	751	3	6	antiphase_hc_ois.wav	3	0	0			1				0	
6.6.1	and	2023-07-06	21:46:54	0	0	60f5917414ac7d222d22db64	1	1	headphonecheck_testphase	5	test_collectResponse	12			0		first	1	470	4	4	antiphase_hc_sio.wav	1	0	0			1				0	
6.6.1	and	2023-07-06	21:46:54	0	0	60f5917414ac7d222d22db64	1	1	headphonecheck_testphase	5	test_collectResponse	15			0		third	1	510	5	2	antiphase_hc_ios.wav	3	0	0			1				0	
6.6.1	and	2023-07-06	21:46:54	0	0	60f5917414ac7d222d22db64	1	1	headphonecheck_testphase	5	test_collectResponse	18			0		second	1	456	6	5	antiphase_hc_osi.wav	2	0	0			1				0	
6.6.1	and	2023-07-06	21:46:54	0	0	60f5917414ac7d222d22db64	1	1	stereocheck_calibration	7	stereocheck_calibrationIntro	1			0		stereocheck_calibrationButton	0	18630	6	5	antiphase_hc_osi.wav	2	0	0			1				0	
6.6.1	and	2023-07-06	21:46:54	0	0	60f5917414ac7d222d22db64	1	1	stereocheck_testphase	8	stereocheck_test_collectResponse	3			0		stereocheck_left	1	685	6	5	antiphase_hc_osi.wav	2	1	1	noise_calib_stim_LEFT.wav	1	1				0	
6.6.1	and	2023-07-06	21:46:54	0	0	60f5917414ac7d222d22db64	1	1	stereocheck_testphase	8	stereocheck_test_collectResponse	6			0		stereocheck_left	1	478	6	5	antiphase_hc_osi.wav	2	2	2	noise_calib_stim_LEFT.wav	1	1				0	
6.6.1	and	2023-07-06	21:46:54	0	0	60f5917414ac7d222d22db64	1	1	stereocheck_testphase	8	stereocheck_test_collectResponse	9			0		stereocheck_right	1	442	6	5	antiphase_hc_osi.wav	2	3	6	noise_calib_stim_RIGHT.wav	2	1				0	
6.6.1	and	2023-07-06	21:46:54	0	0	60f5917414ac7d222d22db64	1	1	stereocheck_testphase	8	stereocheck_test_collectResponse	12			0		stereocheck_left	1	406	6	5	antiphase_hc_osi.wav	2	4	3	noise_calib_stim_LEFT.wav	1	1				0	
6.6.1	and	2023-07-06	21:46:54	0	0	60f5917414ac7d222d22db64	1	1	stereocheck_testphase	8	stereocheck_test_collectResponse	15			0		stereocheck_right	1	395	6	5	antiphase_hc_osi.wav	2	5	5	noise_calib_stim_RIGHT.wav	2	1				0	
6.6.1	and	2023-07-06	21:46:54	0	0	60f5917414ac7d222d22db64	1	1	stereocheck_testphase	8	stereocheck_test_collectResponse	18			0		stereocheck_right	1	399	6	5	antiphase_hc_osi.wav	2	6	4	noise_calib_stim_RIGHT.wav	2	1				0	
6.6.1	and	2023-07-06	21:46:54	0	0	60f5917414ac7d222d22db64	1	1	DL_practice	11	DL_practice	2			0		ka	0	1867	6	5	antiphase_hc_osi.wav	2	6	4	noise_calib_stim_RIGHT.wav	2	18	blb_dichoticlistening_ga-ta.mp3	ga	ta	1	other
6.6.1	and	2023-07-06	21:46:54	0	0	60f5917414ac7d222d22db64	1	1	DL_practice	11	DL_practice	3			0		da	1	1741	6	5	antiphase_hc_osi.wav	2	6	4	noise_calib_stim_RIGHT.wav	2	7	blb_dichoticlistening_da-ba.mp3	da	ba	1	left
6.6.1	and	2023-07-06	21:46:54	0	0	60f5917414ac7d222d22db64	1	1	DL_practice	11	DL_practice	4			0		ga	1	1312	6	5	antiphase_hc_osi.wav	2	6	4	noise_calib_stim_RIGHT.wav	2	15	blb_dichoticlistening_ga-ga.mp3	ga	ga	0	left
6.6.1	and	2023-07-06	21:46:54	0	0	60f5917414ac7d222d22db64	1	1	DL_practice	11	DL_practice	5			0		ta	1	1636	6	5	antiphase_hc_osi.wav	2	6	4	noise_calib_stim_RIGHT.wav	2	36	blb_dichoticlistening_ta-ta.mp3	ta	ta	0	left
6.6.1	and	2023-07-06	21:46:54	0	0	60f5917414ac7d222d22db64	1	1	DL_practice	11	DL_practice	6			0		da	1	1395	6	5	antiphase_hc_osi.wav	2	6	4	noise_calib_stim_RIGHT.wav	2	8	blb_dichoticlistening_da-da.mp3	da	da	0	left
6.6.1	and	2023-07-06	21:46:54	0	0	60f5917414ac7d222d22db64	1	1	DL_practice	11	DL_practice	7			0		ba	1	977	6	5	antiphase_hc_osi.wav	2	6	4	noise_calib_stim_RIGHT.wav	2	1	blb_dichoticlistening_ba-ba.mp3	ba	ba	0	left
6.6.1	and	2023-07-06	21:46:54	0	0	60f5917414ac7d222d22db64	1	1	DL_practice	11	DL_practice	8			0		ka	1	1011	6	5	antiphase_hc_osi.wav	2	6	4	noise_calib_stim_RIGHT.wav	2	22	blb_dichoticlistening_ka-ka.mp3	ka	ka	0	left
6.6.1	and	2023-07-06	21:46:54	0	0	60f5917414ac7d222d22db64	1	1	DL_practice	11	DL_practice	9			0		pa	1	938	6	5	antiphase_hc_osi.wav	2	6	4	noise_calib_stim_RIGHT.wav	2	29	blb_dichoticlistening_pa-pa.mp3	pa	pa	0	left
6.6.1	and	2023-07-06	21:46:54	0	0	60f5917414ac7d222d22db64	1	1	DL_practice	11	DL_practice	10			0		ka	1	1203	6	5	antiphase_hc_osi.wav	2	6	4	noise_calib_stim_RIGHT.wav	2	23	blb_dichoticlistening_ka-pa.mp3	ka	pa	1	left
6.6.1	and	2023-07-06	21:46:54	0	0	60f5917414ac7d222d22db64	1	1	DL_test	13	DL_test	1			0		ga	1	1234	6	5	antiphase_hc_osi.wav	2	6	4	noise_calib_stim_RIGHT.wav	2	15	blb_dichoticlistening_ga-ga.mp3	ga	ga	0	left
6.6.1	and	2023-07-06	21:46:54	0	0	60f5917414ac7d222d22db64	1	1	DL_test	13	DL_test	2			0		ka	1	1816	6	5	antiphase_hc_osi.wav	2	6	4	noise_calib_stim_RIGHT.wav	2	34	blb_dichoticlistening_ta-ka.mp3	ta	ka	1	right
6.6.1	and	2023-07-06	21:46:54	0	0	60f5917414ac7d222d22db64	1	1	DL_test	13	DL_test	3			0		ka	0	904	6	5	antiphase_hc_osi.wav	2	6	4	noise_calib_stim_RIGHT.wav	2	6	blb_dichoticlistening_ba-ta.mp3	ba	ta	1	other
6.6.1	and	2023-07-06	21:46:54	0	0	60f5917414ac7d222d22db64	1	1	DL_test	13	DL_test	4			0		ka	1	824	6	5	antiphase_hc_osi.wav	2	6	4	noise_calib_stim_RIGHT.wav	2	28	blb_dichoticlistening_pa-ka.mp3	pa	ka	1	right
6.6.1	and	2023-07-06	21:46:54	0	0	60f5917414ac7d222d22db64	1	1	DL_test	13	DL_test	5			0		ka	1	1306	6	5	antiphase_hc_osi.wav	2	6	4	noise_calib_stim_RIGHT.wav	2	19	blb_dichoticlistening_ka-ba.mp3	ka	ba	1	left
6.6.1	and	2023-07-06	21:46:54	0	0	60f5917414ac7d222d22db64	1	1	DL_test	13	DL_test	6			0		pa	1	1019	6	5	antiphase_hc_osi.wav	2	6	4	noise_calib_stim_RIGHT.wav	2	5	blb_dichoticlistening_ba-pa.mp3	ba	pa	1	right
6.6.1	and	2023-07-06	21:46:54	0	0	60f5917414ac7d222d22db64	1	1	DL_test	13	DL_test	7			0		da	0	2330	6	5	antiphase_hc_osi.wav	2	6	4	noise_calib_stim_RIGHT.wav	2	33	blb_dichoticlistening_ta-ga.mp3	ta	ga	1	other
6.6.1	and	2023-07-06	21:46:54	0	0	60f5917414ac7d222d22db64	1	1	DL_test	13	DL_test	8			0		ka	0	1148	6	5	antiphase_hc_osi.wav	2	6	4	noise_calib_stim_RIGHT.wav	2	31	blb_dichoticlistening_ta-ba.mp3	ta	ba	1	other
6.6.1	and	2023-07-06	21:46:54	0	0	60f5917414ac7d222d22db64	1	1	DL_test	13	DL_test	9			0		ka	0	963	6	5	antiphase_hc_osi.wav	2	6	4	noise_calib_stim_RIGHT.wav	2	26	blb_dichoticlistening_pa-da.mp3	pa	da	1	other
6.6.1	and	2023-07-06	21:46:54	0	0	60f5917414ac7d222d22db64	1	1	DL_test	13	DL_test	10			0		pa	0	1254	6	5	antiphase_hc_osi.wav	2	6	4	noise_calib_stim_RIGHT.wav	2	10	blb_dichoticlistening_da-ka.mp3	da	ka	1	other
6.6.1	and	2023-07-06	21:46:54	0	0	60f5917414ac7d222d22db64	1	1	DL_test	13	DL_test	11			0		pa	0	1180	6	5	antiphase_hc_osi.wav	2	6	4	noise_calib_stim_RIGHT.wav	2	21	blb_dichoticlistening_ka-ga.mp3	ka	ga	1	other
6.6.1	and	2023-07-06	21:46:54	0	0	60f5917414ac7d222d22db64	1	1	DL_test	13	DL_test	12			0		ka	1	1155	6	5	antiphase_hc_osi.wav	2	6	4	noise_calib_stim_RIGHT.wav	2	24	blb_dichoticlistening_ka-ta.mp3	ka	ta	1	left
6.6.1	and	2023-07-06	21:46:54	0	0	60f5917414ac7d222d22db64	1	1	DL_test	13	DL_test	13			0		da	1	1076	6	5	antiphase_hc_osi.wav	2	6	4	noise_calib_stim_RIGHT.wav	2	2	blb_dichoticlistening_ba-da.mp3	ba	da	1	right
6.6.1	and	2023-07-06	21:46:54	0	0	60f5917414ac7d222d22db64	1	1	DL_test	13	DL_test	14			0		ba	1	1362	6	5	antiphase_hc_osi.wav	2	6	4	noise_calib_stim_RIGHT.wav	2	1	blb_dichoticlistening_ba-ba.mp3	ba	ba	0	left
6.6.1	and	2023-07-06	21:46:54	0	0	60f5917414ac7d222d22db64	1	1	DL_test	13	DL_test	15			0		da	1	974	6	5	antiphase_hc_osi.wav	2	6	4	noise_calib_stim_RIGHT.wav	2	8	blb_dichoticlistening_da-da.mp3	da	da	0	left
6.6.1	and	2023-07-06	21:46:54	0	0	60f5917414ac7d222d22db64	1	1	DL_test	13	DL_test	16			0		ga	1	1050	6	5	antiphase_hc_osi.wav	2	6	4	noise_calib_stim_RIGHT.wav	2	27	blb_dichoticlistening_pa-ga.mp3	pa	ga	1	right
6.6.1	and	2023-07-06	21:46:54	0	0	60f5917414ac7d222d22db64	1	1	DL_test	13	DL_test	17			0		ka	1	1465	6	5	antiphase_hc_osi.wav	2	6	4	noise_calib_stim_RIGHT.wav	2	4	blb_dichoticlistening_ba-ka.mp3	ba	ka	1	right
6.6.1	and	2023-07-06	21:46:54	0	0	60f5917414ac7d222d22db64	1	1	DL_test	13	DL_test	18			0		ka	1	745	6	5	antiphase_hc_osi.wav	2	6	4	noise_calib_stim_RIGHT.wav	2	20	blb_dichoticlistening_ka-da.mp3	ka	da	1	left
6.6.1	and	2023-07-06	21:46:54	0	0	60f5917414ac7d222d22db64	1	1	DL_test	13	DL_test	19			0		pa	1	982	6	5	antiphase_hc_osi.wav	2	6	4	noise_calib_stim_RIGHT.wav	2	29	blb_dichoticlistening_pa-pa.mp3	pa	pa	0	left
6.6.1	and	2023-07-06	21:46:54	0	0	60f5917414ac7d222d22db64	1	1	DL_test	13	DL_test	20			0		da	1	1147	6	5	antiphase_hc_osi.wav	2	6	4	noise_calib_stim_RIGHT.wav	2	7	blb_dichoticlistening_da-ba.mp3	da	ba	1	left
6.6.1	and	2023-07-06	21:46:54	0	0	60f5917414ac7d222d22db64	1	1	DL_test	13	DL_test	21			0		ba	1	1407	6	5	antiphase_hc_osi.wav	2	6	4	noise_calib_stim_RIGHT.wav	2	13	blb_dichoticlistening_ga-ba.mp3	ga	ba	1	right
6.6.1	and	2023-07-06	21:46:54	0	0	60f5917414ac7d222d22db64	1	1	DL_test	13	DL_test	22			0		ta	1	1587	6	5	antiphase_hc_osi.wav	2	6	4	noise_calib_stim_RIGHT.wav	2	35	blb_dichoticlistening_ta-pa.mp3	ta	pa	1	left
6.6.1	and	2023-07-06	21:46:54	0	0	60f5917414ac7d222d22db64	1	1	DL_test	13	DL_test	23			0		pa	1	1043	6	5	antiphase_hc_osi.wav	2	6	4	noise_calib_stim_RIGHT.wav	2	11	blb_dichoticlistening_da-pa.mp3	da	pa	1	right
6.6.1	and	2023-07-06	21:46:54	0	0	60f5917414ac7d222d22db64	1	1	DL_test	13	DL_test	24			0		ka	1	1115	6	5	antiphase_hc_osi.wav	2	6	4	noise_calib_stim_RIGHT.wav	2	16	blb_dichoticlistening_ga-ka.mp3	ga	ka	1	right
6.6.1	and	2023-07-06	21:46:54	0	0	60f5917414ac7d222d22db64	1	1	DL_test	13	DL_test	25			0		ka	0	818	6	5	antiphase_hc_osi.wav	2	6	4	noise_calib_stim_RIGHT.wav	2	12	blb_dichoticlistening_da-ta.mp3	da	ta	1	other
6.6.1	and	2023-07-06	21:46:54	0	0	60f5917414ac7d222d22db64	1	1	DL_test	13	DL_test	26			0		ta	1	1269	6	5	antiphase_hc_osi.wav	2	6	4	noise_calib_stim_RIGHT.wav	2	30	blb_dichoticlistening_pa-ta.mp3	pa	ta	1	right
6.6.1	and	2023-07-06	21:46:54	0	0	60f5917414ac7d222d22db64	1	1	DL_test	13	DL_test	27			0		ka	1	978	6	5	antiphase_hc_osi.wav	2	6	4	noise_calib_stim_RIGHT.wav	2	22	blb_dichoticlistening_ka-ka.mp3	ka	ka	0	left
6.6.1	and	2023-07-06	21:46:54	0	0	60f5917414ac7d222d22db64	1	1	DL_test	13	DL_test	28			0		ga	1	920	6	5	antiphase_hc_osi.wav	2	6	4	noise_calib_stim_RIGHT.wav	2	9	blb_dichoticlistening_da-ga.mp3	da	ga	1	right
6.6.1	and	2023-07-06	21:46:54	0	0	60f5917414ac7d222d22db64	1	1	DL_test	13	DL_test	29			0		ka	0	1013	6	5	antiphase_hc_osi.wav	2	6	4	noise_calib_stim_RIGHT.wav	2	18	blb_dichoticlistening_ga-ta.mp3	ga	ta	1	other
6.6.1	and	2023-07-06	21:46:54	0	0	60f5917414ac7d222d22db64	1	1	DL_test	13	DL_test	30			0		ga	1	1100	6	5	antiphase_hc_osi.wav	2	6	4	noise_calib_stim_RIGHT.wav	2	3	blb_dichoticlistening_ba-ga.mp3	ba	ga	1	right
6.6.1	and	2023-07-06	21:46:54	0	0	60f5917414ac7d222d22db64	1	1	DL_test	13	DL_test	31			0		pa	1	1339	6	5	antiphase_hc_osi.wav	2	6	4	noise_calib_stim_RIGHT.wav	2	25	blb_dichoticlistening_pa-ba.mp3	pa	ba	1	left
6.6.1	and	2023-07-06	21:46:54	0	0	60f5917414ac7d222d22db64	1	1	DL_test	13	DL_test	32			0		pa	1	1428	6	5	antiphase_hc_osi.wav	2	6	4	noise_calib_stim_RIGHT.wav	2	23	blb_dichoticlistening_ka-pa.mp3	ka	pa	1	right
6.6.1	and	2023-07-06	21:46:54	0	0	60f5917414ac7d222d22db64	1	1	DL_test	13	DL_test	33			0		ga	1	1155	6	5	antiphase_hc_osi.wav	2	6	4	noise_calib_stim_RIGHT.wav	2	14	blb_dichoticlistening_ga-da.mp3	ga	da	1	left
6.6.1	and	2023-07-06	21:46:54	0	0	60f5917414ac7d222d22db64	1	1	DL_test	13	DL_test	34			0		pa	1	963	6	5	antiphase_hc_osi.wav	2	6	4	noise_calib_stim_RIGHT.wav	2	17	blb_dichoticlistening_ga-pa.mp3	ga	pa	1	right
6.6.1	and	2023-07-06	21:46:54	0	0	60f5917414ac7d222d22db64	1	1	DL_test	13	DL_test	35			0		ta	1	1177	6	5	antiphase_hc_osi.wav	2	6	4	noise_calib_stim_RIGHT.wav	2	36	blb_dichoticlistening_ta-ta.mp3	ta	ta	0	left
6.6.1	and	2023-07-06	21:46:54	0	0	60f5917414ac7d222d22db64	1	1	DL_test	13	DL_test	36			0		da	1	2413	6	5	antiphase_hc_osi.wav	2	6	4	noise_calib_stim_RIGHT.wav	2	32	blb_dichoticlistening_ta-da.mp3	ta	da	1	right
6.6.1	and	2023-07-06	21:46:54	0	0	60f5917414ac7d222d22db64	1	1	DL_test	14	DL_test	1			0		ga	1	1677	6	5	antiphase_hc_osi.wav	2	6	4	noise_calib_stim_RIGHT.wav	2	3	blb_dichoticlistening_ba-ga.mp3	ba	ga	1	right
6.6.1	and	2023-07-06	21:46:54	0	0	60f5917414ac7d222d22db64	1	1	DL_test	14	DL_test	2			0		da	1	1567	6	5	antiphase_hc_osi.wav	2	6	4	noise_calib_stim_RIGHT.wav	2	7	blb_dichoticlistening_da-ba.mp3	da	ba	1	left
6.6.1	and	2023-07-06	21:46:54	0	0	60f5917414ac7d222d22db64	1	1	DL_test	14	DL_test	3			0		ga	1	1245	6	5	antiphase_hc_osi.wav	2	6	4	noise_calib_stim_RIGHT.wav	2	9	blb_dichoticlistening_da-ga.mp3	da	ga	1	right
6.6.1	and	2023-07-06	21:46:54	0	0	60f5917414ac7d222d22db64	1	1	DL_test	14	DL_test	4			0		ka	0	1157	6	5	antiphase_hc_osi.wav	2	6	4	noise_calib_stim_RIGHT.wav	2	32	blb_dichoticlistening_ta-da.mp3	ta	da	1	other
6.6.1	and	2023-07-06	21:46:54	0	0	60f5917414ac7d222d22db64	1	1	DL_test	14	DL_test	5			0		ka	1	3366	6	5	antiphase_hc_osi.wav	2	6	4	noise_calib_stim_RIGHT.wav	2	19	blb_dichoticlistening_ka-ba.mp3	ka	ba	1	left
6.6.1	and	2023-07-06	21:46:54	0	0	60f5917414ac7d222d22db64	1	1	DL_test	14	DL_test	6			0		ba	1	1222	6	5	antiphase_hc_osi.wav	2	6	4	noise_calib_stim_RIGHT.wav	2	1	blb_dichoticlistening_ba-ba.mp3	ba	ba	0	left
6.6.1	and	2023-07-06	21:46:54	0	0	60f5917414ac7d222d22db64	1	1	DL_test	14	DL_test	7			0		ka	1	1275	6	5	antiphase_hc_osi.wav	2	6	4	noise_calib_stim_RIGHT.wav	2	4	blb_dichoticlistening_ba-ka.mp3	ba	ka	1	right
6.6.1	and	2023-07-06	21:46:54	0	0	60f5917414ac7d222d22db64	1	1	DL_test	14	DL_test	8			0		ka	0	873	6	5	antiphase_hc_osi.wav	2	6	4	noise_calib_stim_RIGHT.wav	2	6	blb_dichoticlistening_ba-ta.mp3	ba	ta	1	other
6.6.1	and	2023-07-06	21:46:54	0	0	60f5917414ac7d222d22db64	1	1	DL_test	14	DL_test	9			0		pa	1	1568	6	5	antiphase_hc_osi.wav	2	6	4	noise_calib_stim_RIGHT.wav	2	27	blb_dichoticlistening_pa-ga.mp3	pa	ga	1	left
6.6.1	and	2023-07-06	21:46:54	0	0	60f5917414ac7d222d22db64	1	1	DL_test	14	DL_test	10			0		ga	1	1102	6	5	antiphase_hc_osi.wav	2	6	4	noise_calib_stim_RIGHT.wav	2	14	blb_dichoticlistening_ga-da.mp3	ga	da	1	left
6.6.1	and	2023-07-06	21:46:54	0	0	60f5917414ac7d222d22db64	1	1	DL_test	14	DL_test	11			0		ka	0	1080	6	5	antiphase_hc_osi.wav	2	6	4	noise_calib_stim_RIGHT.wav	2	12	blb_dichoticlistening_da-ta.mp3	da	ta	1	other
6.6.1	and	2023-07-06	21:46:54	0	0	60f5917414ac7d222d22db64	1	1	DL_test	14	DL_test	12			0		ka	1	772	6	5	antiphase_hc_osi.wav	2	6	4	noise_calib_stim_RIGHT.wav	2	34	blb_dichoticlistening_ta-ka.mp3	ta	ka	1	right
6.6.1	and	2023-07-06	21:46:54	0	0	60f5917414ac7d222d22db64	1	1	DL_test	14	DL_test	13			0		ba	1	1102	6	5	antiphase_hc_osi.wav	2	6	4	noise_calib_stim_RIGHT.wav	2	13	blb_dichoticlistening_ga-ba.mp3	ga	ba	1	right
6.6.1	and	2023-07-06	21:46:54	0	0	60f5917414ac7d222d22db64	1	1	DL_test	14	DL_test	14			0		da	1	1947	6	5	antiphase_hc_osi.wav	2	6	4	noise_calib_stim_RIGHT.wav	2	26	blb_dichoticlistening_pa-da.mp3	pa	da	1	right
6.6.1	and	2023-07-06	21:46:54	0	0	60f5917414ac7d222d22db64	1	1	DL_test	14	DL_test	15			0		pa	1	1435	6	5	antiphase_hc_osi.wav	2	6	4	noise_calib_stim_RIGHT.wav	2	29	blb_dichoticlistening_pa-pa.mp3	pa	pa	0	left
6.6.1	and	2023-07-06	21:46:54	0	0	60f5917414ac7d222d22db64	1	1	DL_test	14	DL_test	16			0		pa	1	1060	6	5	antiphase_hc_osi.wav	2	6	4	noise_calib_stim_RIGHT.wav	2	25	blb_dichoticlistening_pa-ba.mp3	pa	ba	1	left
6.6.1	and	2023-07-06	21:46:54	0	0	60f5917414ac7d222d22db64	1	1	DL_test	14	DL_test	17			0		pa	1	777	6	5	antiphase_hc_osi.wav	2	6	4	noise_calib_stim_RIGHT.wav	2	5	blb_dichoticlistening_ba-pa.mp3	ba	pa	1	right
6.6.1	and	2023-07-06	21:46:54	0	0	60f5917414ac7d222d22db64	1	1	DL_test	14	DL_test	18			0		ga	1	984	6	5	antiphase_hc_osi.wav	2	6	4	noise_calib_stim_RIGHT.wav	2	33	blb_dichoticlistening_ta-ga.mp3	ta	ga	1	right
6.6.1	and	2023-07-06	21:46:54	0	0	60f5917414ac7d222d22db64	1	1	DL_test	14	DL_test	19			0		ta	1	1290	6	5	antiphase_hc_osi.wav	2	6	4	noise_calib_stim_RIGHT.wav	2	30	blb_dichoticlistening_pa-ta.mp3	pa	ta	1	right
6.6.1	and	2023-07-06	21:46:54	0	0	60f5917414ac7d222d22db64	1	1	DL_test	14	DL_test	20			0		ka	1	1110	6	5	antiphase_hc_osi.wav	2	6	4	noise_calib_stim_RIGHT.wav	2	22	blb_dichoticlistening_ka-ka.mp3	ka	ka	0	left
6.6.1	and	2023-07-06	21:46:54	0	0	60f5917414ac7d222d22db64	1	1	DL_test	14	DL_test	21			0		pa	1	1404	6	5	antiphase_hc_osi.wav	2	6	4	noise_calib_stim_RIGHT.wav	2	11	blb_dichoticlistening_da-pa.mp3	da	pa	1	right
6.6.1	and	2023-07-06	21:46:54	0	0	60f5917414ac7d222d22db64	1	1	DL_test	14	DL_test	22			0		da	1	1256	6	5	antiphase_hc_osi.wav	2	6	4	noise_calib_stim_RIGHT.wav	2	8	blb_dichoticlistening_da-da.mp3	da	da	0	left
6.6.1	and	2023-07-06	21:46:54	0	0	60f5917414ac7d222d22db64	1	1	DL_test	14	DL_test	23			0		da	1	983	6	5	antiphase_hc_osi.wav	2	6	4	noise_calib_stim_RIGHT.wav	2	2	blb_dichoticlistening_ba-da.mp3	ba	da	1	right
6.6.1	and	2023-07-06	21:46:54	0	0	60f5917414ac7d222d22db64	1	1	DL_test	14	DL_test	24			0		ka	1	1037	6	5	antiphase_hc_osi.wav	2	6	4	noise_calib_stim_RIGHT.wav	2	16	blb_dichoticlistening_ga-ka.mp3	ga	ka	1	right
6.6.1	and	2023-07-06	21:46:54	0	0	60f5917414ac7d222d22db64	1	1	DL_test	14	DL_test	25			0		ga	1	999	6	5	antiphase_hc_osi.wav	2	6	4	noise_calib_stim_RIGHT.wav	2	15	blb_dichoticlistening_ga-ga.mp3	ga	ga	0	left
6.6.1	and	2023-07-06	21:46:54	0	0	60f5917414ac7d222d22db64	1	1	DL_test	14	DL_test	26			0		ka	1	895	6	5	antiphase_hc_osi.wav	2	6	4	noise_calib_stim_RIGHT.wav	2	24	blb_dichoticlistening_ka-ta.mp3	ka	ta	1	left
6.6.1	and	2023-07-06	21:46:54	0	0	60f5917414ac7d222d22db64	1	1	DL_test	14	DL_test	27			0		ka	1	821	6	5	antiphase_hc_osi.wav	2	6	4	noise_calib_stim_RIGHT.wav	2	20	blb_dichoticlistening_ka-da.mp3	ka	da	1	left
6.6.1	and	2023-07-06	21:46:54	0	0	60f5917414ac7d222d22db64	1	1	DL_test	14	DL_test	28			0		ka	1	825	6	5	antiphase_hc_osi.wav	2	6	4	noise_calib_stim_RIGHT.wav	2	28	blb_dichoticlistening_pa-ka.mp3	pa	ka	1	right
6.6.1	and	2023-07-06	21:46:54	0	0	60f5917414ac7d222d22db64	1	1	DL_test	14	DL_test	29			0		pa	1	939	6	5	antiphase_hc_osi.wav	2	6	4	noise_calib_stim_RIGHT.wav	2	17	blb_dichoticlistening_ga-pa.mp3	ga	pa	1	right
6.6.1	and	2023-07-06	21:46:54	0	0	60f5917414ac7d222d22db64	1	1	DL_test	14	DL_test	30			0		ta	1	945	6	5	antiphase_hc_osi.wav	2	6	4	noise_calib_stim_RIGHT.wav	2	36	blb_dichoticlistening_ta-ta.mp3	ta	ta	0	left
6.6.1	and	2023-07-06	21:46:54	0	0	60f5917414ac7d222d22db64	1	1	DL_test	14	DL_test	31			0		ba	1	1951	6	5	antiphase_hc_osi.wav	2	6	4	noise_calib_stim_RIGHT.wav	2	31	blb_dichoticlistening_ta-ba.mp3	ta	ba	1	right
6.6.1	and	2023-07-06	21:46:54	0	0	60f5917414ac7d222d22db64	1	1	DL_test	14	DL_test	32			0		ka	1	1335	6	5	antiphase_hc_osi.wav	2	6	4	noise_calib_stim_RIGHT.wav	2	21	blb_dichoticlistening_ka-ga.mp3	ka	ga	1	left
6.6.1	and	2023-07-06	21:46:54	0	0	60f5917414ac7d222d22db64	1	1	DL_test	14	DL_test	33			0		ka	0	799	6	5	antiphase_hc_osi.wav	2	6	4	noise_calib_stim_RIGHT.wav	2	18	blb_dichoticlistening_ga-ta.mp3	ga	ta	1	other
6.6.1	and	2023-07-06	21:46:54	0	0	60f5917414ac7d222d22db64	1	1	DL_test	14	DL_test	34			0		pa	1	1162	6	5	antiphase_hc_osi.wav	2	6	4	noise_calib_stim_RIGHT.wav	2	35	blb_dichoticlistening_ta-pa.mp3	ta	pa	1	right
6.6.1	and	2023-07-06	21:46:54	0	0	60f5917414ac7d222d22db64	1	1	DL_test	14	DL_test	35			0		pa	0	1136	6	5	antiphase_hc_osi.wav	2	6	4	noise_calib_stim_RIGHT.wav	2	10	blb_dichoticlistening_da-ka.mp3	da	ka	1	other
6.6.1	and	2023-07-06	21:46:54	0	0	60f5917414ac7d222d22db64	1	1	DL_test	14	DL_test	36			0		pa	1	872	6	5	antiphase_hc_osi.wav	2	6	4	noise_calib_stim_RIGHT.wav	2	23	blb_dichoticlistening_ka-pa.mp3	ka	pa	1	right
6.6.1	and	2023-07-06	21:46:54	0	0	60f5917414ac7d222d22db64	1	1	DL_test	15	DL_test	1			0		ga	1	923	6	5	antiphase_hc_osi.wav	2	6	4	noise_calib_stim_RIGHT.wav	2	15	blb_dichoticlistening_ga-ga.mp3	ga	ga	0	left
6.6.1	and	2023-07-06	21:46:54	0	0	60f5917414ac7d222d22db64	1	1	DL_test	15	DL_test	2			0		ka	1	989	6	5	antiphase_hc_osi.wav	2	6	4	noise_calib_stim_RIGHT.wav	2	34	blb_dichoticlistening_ta-ka.mp3	ta	ka	1	right
6.6.1	and	2023-07-06	21:46:54	0	0	60f5917414ac7d222d22db64	1	1	DL_test	15	DL_test	3			0		ka	1	636	6	5	antiphase_hc_osi.wav	2	6	4	noise_calib_stim_RIGHT.wav	2	24	blb_dichoticlistening_ka-ta.mp3	ka	ta	1	left
6.6.1	and	2023-07-06	21:46:54	0	0	60f5917414ac7d222d22db64	1	1	DL_test	15	DL_test	4			0		da	1	1577	6	5	antiphase_hc_osi.wav	2	6	4	noise_calib_stim_RIGHT.wav	2	2	blb_dichoticlistening_ba-da.mp3	ba	da	1	right
6.6.1	and	2023-07-06	21:46:54	0	0	60f5917414ac7d222d22db64	1	1	DL_test	15	DL_test	5			0		ga	1	1561	6	5	antiphase_hc_osi.wav	2	6	4	noise_calib_stim_RIGHT.wav	2	33	blb_dichoticlistening_ta-ga.mp3	ta	ga	1	right
6.6.1	and	2023-07-06	21:46:54	0	0	60f5917414ac7d222d22db64	1	1	DL_test	15	DL_test	6			0		ka	1	1058	6	5	antiphase_hc_osi.wav	2	6	4	noise_calib_stim_RIGHT.wav	2	28	blb_dichoticlistening_pa-ka.mp3	pa	ka	1	right
6.6.1	and	2023-07-06	21:46:54	0	0	60f5917414ac7d222d22db64	1	1	DL_test	15	DL_test	7			0		pa	1	1236	6	5	antiphase_hc_osi.wav	2	6	4	noise_calib_stim_RIGHT.wav	2	11	blb_dichoticlistening_da-pa.mp3	da	pa	1	right
6.6.1	and	2023-07-06	21:46:54	0	0	60f5917414ac7d222d22db64	1	1	DL_test	15	DL_test	8			0		pa	1	626	6	5	antiphase_hc_osi.wav	2	6	4	noise_calib_stim_RIGHT.wav	2	17	blb_dichoticlistening_ga-pa.mp3	ga	pa	1	right
6.6.1	and	2023-07-06	21:46:54	0	0	60f5917414ac7d222d22db64	1	1	DL_test	15	DL_test	9			0		ga	0	1265	6	5	antiphase_hc_osi.wav	2	6	4	noise_calib_stim_RIGHT.wav	2	20	blb_dichoticlistening_ka-da.mp3	ka	da	1	other
6.6.1	and	2023-07-06	21:46:54	0	0	60f5917414ac7d222d22db64	1	1	DL_test	15	DL_test	10			0		ba	1	1718	6	5	antiphase_hc_osi.wav	2	6	4	noise_calib_stim_RIGHT.wav	2	1	blb_dichoticlistening_ba-ba.mp3	ba	ba	0	left
6.6.1	and	2023-07-06	21:46:54	0	0	60f5917414ac7d222d22db64	1	1	DL_test	15	DL_test	11			0		da	1	1099	6	5	antiphase_hc_osi.wav	2	6	4	noise_calib_stim_RIGHT.wav	2	8	blb_dichoticlistening_da-da.mp3	da	da	0	left
6.6.1	and	2023-07-06	21:46:54	0	0	60f5917414ac7d222d22db64	1	1	DL_test	15	DL_test	12			0		ga	1	1289	6	5	antiphase_hc_osi.wav	2	6	4	noise_calib_stim_RIGHT.wav	2	14	blb_dichoticlistening_ga-da.mp3	ga	da	1	left
6.6.1	and	2023-07-06	21:46:54	0	0	60f5917414ac7d222d22db64	1	1	DL_test	15	DL_test	13			0		ka	0	1318	6	5	antiphase_hc_osi.wav	2	6	4	noise_calib_stim_RIGHT.wav	2	6	blb_dichoticlistening_ba-ta.mp3	ba	ta	1	other
6.6.1	and	2023-07-06	21:46:54	0	0	60f5917414ac7d222d22db64	1	1	DL_test	15	DL_test	14			0		ka	1	1045	6	5	antiphase_hc_osi.wav	2	6	4	noise_calib_stim_RIGHT.wav	2	22	blb_dichoticlistening_ka-ka.mp3	ka	ka	0	left
6.6.1	and	2023-07-06	21:46:54	0	0	60f5917414ac7d222d22db64	1	1	DL_test	15	DL_test	15			0		ka	0	1465	6	5	antiphase_hc_osi.wav	2	6	4	noise_calib_stim_RIGHT.wav	2	18	blb_dichoticlistening_ga-ta.mp3	ga	ta	1	other
6.6.1	and	2023-07-06	21:46:54	0	0	60f5917414ac7d222d22db64	1	1	DL_test	15	DL_test	16			0		pa	0	1054	6	5	antiphase_hc_osi.wav	2	6	4	noise_calib_stim_RIGHT.wav	2	10	blb_dichoticlistening_da-ka.mp3	da	ka	1	other
6.6.1	and	2023-07-06	21:46:54	0	0	60f5917414ac7d222d22db64	1	1	DL_test	15	DL_test	17			0		pa	1	777	6	5	antiphase_hc_osi.wav	2	6	4	noise_calib_stim_RIGHT.wav	2	35	blb_dichoticlistening_ta-pa.mp3	ta	pa	1	right
6.6.1	and	2023-07-06	21:46:54	0	0	60f5917414ac7d222d22db64	1	1	DL_test	15	DL_test	18			0		ka	0	1395	6	5	antiphase_hc_osi.wav	2	6	4	noise_calib_stim_RIGHT.wav	2	12	blb_dichoticlistening_da-ta.mp3	da	ta	1	other
6.6.1	and	2023-07-06	21:46:54	0	0	60f5917414ac7d222d22db64	1	1	DL_test	15	DL_test	19			0		da	1	1533	6	5	antiphase_hc_osi.wav	2	6	4	noise_calib_stim_RIGHT.wav	2	32	blb_dichoticlistening_ta-da.mp3	ta	da	1	right
6.6.1	and	2023-07-06	21:46:54	0	0	60f5917414ac7d222d22db64	1	1	DL_test	15	DL_test	20			0		ga	1	1773	6	5	antiphase_hc_osi.wav	2	6	4	noise_calib_stim_RIGHT.wav	2	21	blb_dichoticlistening_ka-ga.mp3	ka	ga	1	right
6.6.1	and	2023-07-06	21:46:54	0	0	60f5917414ac7d222d22db64	1	1	DL_test	15	DL_test	21			0		ka	1	938	6	5	antiphase_hc_osi.wav	2	6	4	noise_calib_stim_RIGHT.wav	2	4	blb_dichoticlistening_ba-ka.mp3	ba	ka	1	right
6.6.1	and	2023-07-06	21:46:54	0	0	60f5917414ac7d222d22db64	1	1	DL_test	15	DL_test	22			0		pa	1	1055	6	5	antiphase_hc_osi.wav	2	6	4	noise_calib_stim_RIGHT.wav	2	29	blb_dichoticlistening_pa-pa.mp3	pa	pa	0	left
6.6.1	and	2023-07-06	21:46:54	0	0	60f5917414ac7d222d22db64	1	1	DL_test	15	DL_test	23			0		ga	1	1277	6	5	antiphase_hc_osi.wav	2	6	4	noise_calib_stim_RIGHT.wav	2	3	blb_dichoticlistening_ba-ga.mp3	ba	ga	1	right
6.6.1	and	2023-07-06	21:46:54	0	0	60f5917414ac7d222d22db64	1	1	DL_test	15	DL_test	24			0		ba	1	1310	6	5	antiphase_hc_osi.wav	2	6	4	noise_calib_stim_RIGHT.wav	2	31	blb_dichoticlistening_ta-ba.mp3	ta	ba	1	right
6.6.1	and	2023-07-06	21:46:54	0	0	60f5917414ac7d222d22db64	1	1	DL_test	15	DL_test	25			0		pa	1	1379	6	5	antiphase_hc_osi.wav	2	6	4	noise_calib_stim_RIGHT.wav	2	25	blb_dichoticlistening_pa-ba.mp3	pa	ba	1	left
6.6.1	and	2023-07-06	21:46:54	0	0	60f5917414ac7d222d22db64	1	1	DL_test	15	DL_test	26			0		ta	1	1185	6	5	antiphase_hc_osi.wav	2	6	4	noise_calib_stim_RIGHT.wav	2	36	blb_dichoticlistening_ta-ta.mp3	ta	ta	0	left
6.6.1	and	2023-07-06	21:46:54	0	0	60f5917414ac7d222d22db64	1	1	DL_test	15	DL_test	27			0		ba	1	1484	6	5	antiphase_hc_osi.wav	2	6	4	noise_calib_stim_RIGHT.wav	2	13	blb_dichoticlistening_ga-ba.mp3	ga	ba	1	right
6.6.1	and	2023-07-06	21:46:54	0	0	60f5917414ac7d222d22db64	1	1	DL_test	15	DL_test	28			0		da	1	1318	6	5	antiphase_hc_osi.wav	2	6	4	noise_calib_stim_RIGHT.wav	2	26	blb_dichoticlistening_pa-da.mp3	pa	da	1	right
6.6.1	and	2023-07-06	21:46:54	0	0	60f5917414ac7d222d22db64	1	1	DL_test	15	DL_test	29			0		ta	1	1487	6	5	antiphase_hc_osi.wav	2	6	4	noise_calib_stim_RIGHT.wav	2	30	blb_dichoticlistening_pa-ta.mp3	pa	ta	1	right
6.6.1	and	2023-07-06	21:46:54	0	0	60f5917414ac7d222d22db64	1	1	DL_test	15	DL_test	30			0		pa	1	1949	6	5	antiphase_hc_osi.wav	2	6	4	noise_calib_stim_RIGHT.wav	2	27	blb_dichoticlistening_pa-ga.mp3	pa	ga	1	left
6.6.1	and	2023-07-06	21:46:54	0	0	60f5917414ac7d222d22db64	1	1	DL_test	15	DL_test	31			0		ka	1	981	6	5	antiphase_hc_osi.wav	2	6	4	noise_calib_stim_RIGHT.wav	2	19	blb_dichoticlistening_ka-ba.mp3	ka	ba	1	left
6.6.1	and	2023-07-06	21:46:54	0	0	60f5917414ac7d222d22db64	1	1	DL_test	15	DL_test	32			0		ka	1	1741	6	5	antiphase_hc_osi.wav	2	6	4	noise_calib_stim_RIGHT.wav	2	16	blb_dichoticlistening_ga-ka.mp3	ga	ka	1	right
6.6.1	and	2023-07-06	21:46:54	0	0	60f5917414ac7d222d22db64	1	1	DL_test	15	DL_test	33			0		ba	1	1368	6	5	antiphase_hc_osi.wav	2	6	4	noise_calib_stim_RIGHT.wav	2	7	blb_dichoticlistening_da-ba.mp3	da	ba	1	right
6.6.1	and	2023-07-06	21:46:54	0	0	60f5917414ac7d222d22db64	1	1	DL_test	15	DL_test	34			0		ga	1	1204	6	5	antiphase_hc_osi.wav	2	6	4	noise_calib_stim_RIGHT.wav	2	9	blb_dichoticlistening_da-ga.mp3	da	ga	1	right
6.6.1	and	2023-07-06	21:46:54	0	0	60f5917414ac7d222d22db64	1	1	DL_test	15	DL_test	35			0		pa	1	1276	6	5	antiphase_hc_osi.wav	2	6	4	noise_calib_stim_RIGHT.wav	2	23	blb_dichoticlistening_ka-pa.mp3	ka	pa	1	right
6.6.1	and	2023-07-06	21:46:54	0	0	60f5917414ac7d222d22db64	1	1	DL_test	15	DL_test	36			0		pa	1	922	6	5	antiphase_hc_osi.wav	2	6	4	noise_calib_stim_RIGHT.wav	2	5	blb_dichoticlistening_ba-pa.mp3	ba	pa	1	right
6.6.1	and	2023-07-06	21:46:54	0	0	60f5917414ac7d222d22db64	1	1	DL_test	16	DL_test	1			0		ka	1	1637	6	5	antiphase_hc_osi.wav	2	6	4	noise_calib_stim_RIGHT.wav	2	28	blb_dichoticlistening_pa-ka.mp3	pa	ka	1	right
6.6.1	and	2023-07-06	21:46:54	0	0	60f5917414ac7d222d22db64	1	1	DL_test	16	DL_test	2			0		ka	1	802	6	5	antiphase_hc_osi.wav	2	6	4	noise_calib_stim_RIGHT.wav	2	4	blb_dichoticlistening_ba-ka.mp3	ba	ka	1	right
6.6.1	and	2023-07-06	21:46:54	0	0	60f5917414ac7d222d22db64	1	1	DL_test	16	DL_test	3			0		pa	1	1240	6	5	antiphase_hc_osi.wav	2	6	4	noise_calib_stim_RIGHT.wav	2	5	blb_dichoticlistening_ba-pa.mp3	ba	pa	1	right
6.6.1	and	2023-07-06	21:46:54	0	0	60f5917414ac7d222d22db64	1	1	DL_test	16	DL_test	4			0		ga	1	1250	6	5	antiphase_hc_osi.wav	2	6	4	noise_calib_stim_RIGHT.wav	2	27	blb_dichoticlistening_pa-ga.mp3	pa	ga	1	right
6.6.1	and	2023-07-06	21:46:54	0	0	60f5917414ac7d222d22db64	1	1	DL_test	16	DL_test	5			0		ga	1	1011	6	5	antiphase_hc_osi.wav	2	6	4	noise_calib_stim_RIGHT.wav	2	15	blb_dichoticlistening_ga-ga.mp3	ga	ga	0	left
6.6.1	and	2023-07-06	21:46:54	0	0	60f5917414ac7d222d22db64	1	1	DL_test	16	DL_test	6			0		pa	1	1113	6	5	antiphase_hc_osi.wav	2	6	4	noise_calib_stim_RIGHT.wav	2	11	blb_dichoticlistening_da-pa.mp3	da	pa	1	right
6.6.1	and	2023-07-06	21:46:54	0	0	60f5917414ac7d222d22db64	1	1	DL_test	16	DL_test	7			0		da	1	1101	6	5	antiphase_hc_osi.wav	2	6	4	noise_calib_stim_RIGHT.wav	2	2	blb_dichoticlistening_ba-da.mp3	ba	da	1	right
6.6.1	and	2023-07-06	21:46:54	0	0	60f5917414ac7d222d22db64	1	1	DL_test	16	DL_test	8			0		ka	1	1104	6	5	antiphase_hc_osi.wav	2	6	4	noise_calib_stim_RIGHT.wav	2	20	blb_dichoticlistening_ka-da.mp3	ka	da	1	left
6.6.1	and	2023-07-06	21:46:54	0	0	60f5917414ac7d222d22db64	1	1	DL_test	16	DL_test	9			0		ga	1	986	6	5	antiphase_hc_osi.wav	2	6	4	noise_calib_stim_RIGHT.wav	2	9	blb_dichoticlistening_da-ga.mp3	da	ga	1	right
6.6.1	and	2023-07-06	21:46:54	0	0	60f5917414ac7d222d22db64	1	1	DL_test	16	DL_test	10			0		pa	1	1479	6	5	antiphase_hc_osi.wav	2	6	4	noise_calib_stim_RIGHT.wav	2	26	blb_dichoticlistening_pa-da.mp3	pa	da	1	left
6.6.1	and	2023-07-06	21:46:54	0	0	60f5917414ac7d222d22db64	1	1	DL_test	16	DL_test	11			0		ta	1	1100	6	5	antiphase_hc_osi.wav	2	6	4	noise_calib_stim_RIGHT.wav	2	36	blb_dichoticlistening_ta-ta.mp3	ta	ta	0	left
6.6.1	and	2023-07-06	21:46:54	0	0	60f5917414ac7d222d22db64	1	1	DL_test	16	DL_test	12			0		pa	1	1382	6	5	antiphase_hc_osi.wav	2	6	4	noise_calib_stim_RIGHT.wav	2	29	blb_dichoticlistening_pa-pa.mp3	pa	pa	0	left
6.6.1	and	2023-07-06	21:46:54	0	0	60f5917414ac7d222d22db64	1	1	DL_test	16	DL_test	13			0		ka	0	1005	6	5	antiphase_hc_osi.wav	2	6	4	noise_calib_stim_RIGHT.wav	2	6	blb_dichoticlistening_ba-ta.mp3	ba	ta	1	other
6.6.1	and	2023-07-06	21:46:54	0	0	60f5917414ac7d222d22db64	1	1	DL_test	16	DL_test	14			0		ta	1	1209	6	5	antiphase_hc_osi.wav	2	6	4	noise_calib_stim_RIGHT.wav	2	30	blb_dichoticlistening_pa-ta.mp3	pa	ta	1	right
6.6.1	and	2023-07-06	21:46:54	0	0	60f5917414ac7d222d22db64	1	1	DL_test	16	DL_test	15			0		ba	1	1742	6	5	antiphase_hc_osi.wav	2	6	4	noise_calib_stim_RIGHT.wav	2	7	blb_dichoticlistening_da-ba.mp3	da	ba	1	right
6.6.1	and	2023-07-06	21:46:54	0	0	60f5917414ac7d222d22db64	1	1	DL_test	16	DL_test	16			0		pa	1	1187	6	5	antiphase_hc_osi.wav	2	6	4	noise_calib_stim_RIGHT.wav	2	25	blb_dichoticlistening_pa-ba.mp3	pa	ba	1	left
6.6.1	and	2023-07-06	21:46:54	0	0	60f5917414ac7d222d22db64	1	1	DL_test	16	DL_test	17			0		ka	1	1147	6	5	antiphase_hc_osi.wav	2	6	4	noise_calib_stim_RIGHT.wav	2	21	blb_dichoticlistening_ka-ga.mp3	ka	ga	1	left
6.6.1	and	2023-07-06	21:46:54	0	0	60f5917414ac7d222d22db64	1	1	DL_test	16	DL_test	18			0		ga	1	959	6	5	antiphase_hc_osi.wav	2	6	4	noise_calib_stim_RIGHT.wav	2	3	blb_dichoticlistening_ba-ga.mp3	ba	ga	1	right
6.6.1	and	2023-07-06	21:46:54	0	0	60f5917414ac7d222d22db64	1	1	DL_test	16	DL_test	19			0		ka	1	1492	6	5	antiphase_hc_osi.wav	2	6	4	noise_calib_stim_RIGHT.wav	2	24	blb_dichoticlistening_ka-ta.mp3	ka	ta	1	left
6.6.1	and	2023-07-06	21:46:54	0	0	60f5917414ac7d222d22db64	1	1	DL_test	16	DL_test	20			0		ba	1	1756	6	5	antiphase_hc_osi.wav	2	6	4	noise_calib_stim_RIGHT.wav	2	31	blb_dichoticlistening_ta-ba.mp3	ta	ba	1	right
6.6.1	and	2023-07-06	21:46:54	0	0	60f5917414ac7d222d22db64	1	1	DL_test	16	DL_test	21			0		da	1	1202	6	5	antiphase_hc_osi.wav	2	6	4	noise_calib_stim_RIGHT.wav	2	8	blb_dichoticlistening_da-da.mp3	da	da	0	left
6.6.1	and	2023-07-06	21:46:54	0	0	60f5917414ac7d222d22db64	1	1	DL_test	16	DL_test	22			0		pa	1	1085	6	5	antiphase_hc_osi.wav	2	6	4	noise_calib_stim_RIGHT.wav	2	23	blb_dichoticlistening_ka-pa.mp3	ka	pa	1	right
6.6.1	and	2023-07-06	21:46:54	0	0	60f5917414ac7d222d22db64	1	1	DL_test	16	DL_test	23			0		ka	1	1048	6	5	antiphase_hc_osi.wav	2	6	4	noise_calib_stim_RIGHT.wav	2	19	blb_dichoticlistening_ka-ba.mp3	ka	ba	1	left
6.6.1	and	2023-07-06	21:46:54	0	0	60f5917414ac7d222d22db64	1	1	DL_test	16	DL_test	24			0		ba	1	1715	6	5	antiphase_hc_osi.wav	2	6	4	noise_calib_stim_RIGHT.wav	2	1	blb_dichoticlistening_ba-ba.mp3	ba	ba	0	left
6.6.1	and	2023-07-06	21:46:54	0	0	60f5917414ac7d222d22db64	1	1	DL_test	16	DL_test	25			0		ba	1	1143	6	5	antiphase_hc_osi.wav	2	6	4	noise_calib_stim_RIGHT.wav	2	13	blb_dichoticlistening_ga-ba.mp3	ga	ba	1	right
6.6.1	and	2023-07-06	21:46:54	0	0	60f5917414ac7d222d22db64	1	1	DL_test	16	DL_test	26			0		da	1	1900	6	5	antiphase_hc_osi.wav	2	6	4	noise_calib_stim_RIGHT.wav	2	32	blb_dichoticlistening_ta-da.mp3	ta	da	1	right
6.6.1	and	2023-07-06	21:46:54	0	0	60f5917414ac7d222d22db64	1	1	DL_test	16	DL_test	27			0		pa	1	1236	6	5	antiphase_hc_osi.wav	2	6	4	noise_calib_stim_RIGHT.wav	2	17	blb_dichoticlistening_ga-pa.mp3	ga	pa	1	right
6.6.1	and	2023-07-06	21:46:54	0	0	60f5917414ac7d222d22db64	1	1	DL_test	16	DL_test	28			0		ta	1	1880	6	5	antiphase_hc_osi.wav	2	6	4	noise_calib_stim_RIGHT.wav	2	18	blb_dichoticlistening_ga-ta.mp3	ga	ta	1	right
6.6.1	and	2023-07-06	21:46:54	0	0	60f5917414ac7d222d22db64	1	1	DL_test	16	DL_test	29			0		ga	1	1203	6	5	antiphase_hc_osi.wav	2	6	4	noise_calib_stim_RIGHT.wav	2	33	blb_dichoticlistening_ta-ga.mp3	ta	ga	1	right
6.6.1	and	2023-07-06	21:46:54	0	0	60f5917414ac7d222d22db64	1	1	DL_test	16	DL_test	30			0		ka	1	1111	6	5	antiphase_hc_osi.wav	2	6	4	noise_calib_stim_RIGHT.wav	2	16	blb_dichoticlistening_ga-ka.mp3	ga	ka	1	right
6.6.1	and	2023-07-06	21:46:54	0	0	60f5917414ac7d222d22db64	1	1	DL_test	16	DL_test	31			0		ka	0	778	6	5	antiphase_hc_osi.wav	2	6	4	noise_calib_stim_RIGHT.wav	2	12	blb_dichoticlistening_da-ta.mp3	da	ta	1	other
6.6.1	and	2023-07-06	21:46:54	0	0	60f5917414ac7d222d22db64	1	1	DL_test	16	DL_test	32			0		pa	0	1120	6	5	antiphase_hc_osi.wav	2	6	4	noise_calib_stim_RIGHT.wav	2	10	blb_dichoticlistening_da-ka.mp3	da	ka	1	other
6.6.1	and	2023-07-06	21:46:54	0	0	60f5917414ac7d222d22db64	1	1	DL_test	16	DL_test	33			0		ka	1	943	6	5	antiphase_hc_osi.wav	2	6	4	noise_calib_stim_RIGHT.wav	2	34	blb_dichoticlistening_ta-ka.mp3	ta	ka	1	right
6.6.1	and	2023-07-06	21:46:54	0	0	60f5917414ac7d222d22db64	1	1	DL_test	16	DL_test	34			0		da	1	1342	6	5	antiphase_hc_osi.wav	2	6	4	noise_calib_stim_RIGHT.wav	2	14	blb_dichoticlistening_ga-da.mp3	ga	da	1	right
6.6.1	and	2023-07-06	21:46:54	0	0	60f5917414ac7d222d22db64	1	1	DL_test	16	DL_test	35			0		pa	1	1540	6	5	antiphase_hc_osi.wav	2	6	4	noise_calib_stim_RIGHT.wav	2	35	blb_dichoticlistening_ta-pa.mp3	ta	pa	1	right
6.6.1	and	2023-07-06	21:46:54	0	0	60f5917414ac7d222d22db64	1	1	DL_test	16	DL_test	36			0		ka	1	900	6	5	antiphase_hc_osi.wav	2	6	4	noise_calib_stim_RIGHT.wav	2	22	blb_dichoticlistening_ka-ka.mp3	ka	ka	0	left
6.6.1	and	2023-07-06	21:46:54	21:58:32	662855	60f5917414ac7d222d22db64	1	1	practice_slash	22	practice_slash	1	stimuli_target_diamondsquares.svg	stimuli_distractor_trianglediamonds.svg	6	yes	53	1	983	6	5	antiphase_hc_osi.wav	2	6	4	noise_calib_stim_RIGHT.wav	2	22	blb_dichoticlistening_ka-ka.mp3	ka	ka	0	left
6.6.1	and	2023-07-06	21:46:54	21:58:32	662855	60f5917414ac7d222d22db64	1	1	practice_slash	22	advance_on_keypress_SLASH	2	stimuli_target_diamondsquares.svg	stimuli_distractor_trianglediamonds.svg	6	yes	57	0	2949	6	5	antiphase_hc_osi.wav	2	6	4	noise_calib_stim_RIGHT.wav	2	22	blb_dichoticlistening_ka-ka.mp3	ka	ka	0	left
6.6.1	and	2023-07-06	21:46:54	21:58:37	668006	60f5917414ac7d222d22db64	1	1	practice_slash	22	practice_slash	3	stimuli_distractor_diamondtriangles.svg	stimuli_target_rectangletriangles.svg	7	yes	53	1	532	6	5	antiphase_hc_osi.wav	2	6	4	noise_calib_stim_RIGHT.wav	2	22	blb_dichoticlistening_ka-ka.mp3	ka	ka	0	left
6.6.1	and	2023-07-06	21:46:54	21:58:37	668006	60f5917414ac7d222d22db64	1	1	practice_slash	22	advance_on_keypress_SLASH	4	stimuli_distractor_diamondtriangles.svg	stimuli_target_rectangletriangles.svg	7	yes	57	0	983	6	5	antiphase_hc_osi.wav	2	6	4	noise_calib_stim_RIGHT.wav	2	22	blb_dichoticlistening_ka-ka.mp3	ka	ka	0	left
6.6.1	and	2023-07-06	21:46:54	21:58:42	672621	60f5917414ac7d222d22db64	1	1	practice_slash	22	practice_slash	5	stimuli_distractor_diamondtriangles.svg	stimuli_distractor_diamondtriangles.svg	13	no	0	1	2000	6	5	antiphase_hc_osi.wav	2	6	4	noise_calib_stim_RIGHT.wav	2	22	blb_dichoticlistening_ka-ka.mp3	ka	ka	0	left
6.6.1	and	2023-07-06	21:46:54	21:58:42	672621	60f5917414ac7d222d22db64	1	1	practice_slash	22	advance_on_keypress_SLASH	6	stimuli_distractor_diamondtriangles.svg	stimuli_distractor_diamondtriangles.svg	13	no	57	0	914	6	5	antiphase_hc_osi.wav	2	6	4	noise_calib_stim_RIGHT.wav	2	22	blb_dichoticlistening_ka-ka.mp3	ka	ka	0	left
6.6.1	and	2023-07-06	21:46:54	21:58:45	675709	60f5917414ac7d222d22db64	1	1	practice_slash	22	practice_slash	7	stimuli_distractor_trianglediamonds.svg	stimuli_target_squarediamonds.svg	11	yes	53	1	525	6	5	antiphase_hc_osi.wav	2	6	4	noise_calib_stim_RIGHT.wav	2	22	blb_dichoticlistening_ka-ka.mp3	ka	ka	0	left
6.6.1	and	2023-07-06	21:46:54	21:58:45	675709	60f5917414ac7d222d22db64	1	1	practice_slash	22	advance_on_keypress_SLASH	8	stimuli_distractor_trianglediamonds.svg	stimuli_target_squarediamonds.svg	11	yes	57	0	546	6	5	antiphase_hc_osi.wav	2	6	4	noise_calib_stim_RIGHT.wav	2	22	blb_dichoticlistening_ka-ka.mp3	ka	ka	0	left
6.6.1	and	2023-07-06	21:46:54	21:58:48	678612	60f5917414ac7d222d22db64	1	1	practice_slash	22	practice_slash	9	stimuli_distractor_diamondtriangles.svg	stimuli_target_trianglerectangles.svg	9	yes	53	1	691	6	5	antiphase_hc_osi.wav	2	6	4	noise_calib_stim_RIGHT.wav	2	22	blb_dichoticlistening_ka-ka.mp3	ka	ka	0	left
6.6.1	and	2023-07-06	21:46:54	21:58:48	678612	60f5917414ac7d222d22db64	1	1	practice_slash	22	advance_on_keypress_SLASH	10	stimuli_distractor_diamondtriangles.svg	stimuli_target_trianglerectangles.svg	9	yes	57	0	531	6	5	antiphase_hc_osi.wav	2	6	4	noise_calib_stim_RIGHT.wav	2	22	blb_dichoticlistening_ka-ka.mp3	ka	ka	0	left
6.6.1	and	2023-07-06	21:46:54	21:58:52	682784	60f5917414ac7d222d22db64	1	1	practice_slash	22	practice_slash	11	stimuli_distractor_diamondtriangles.svg	stimuli_distractor_trianglediamonds.svg	14	no	0	1	2000	6	5	antiphase_hc_osi.wav	2	6	4	noise_calib_stim_RIGHT.wav	2	22	blb_dichoticlistening_ka-ka.mp3	ka	ka	0	left
6.6.1	and	2023-07-06	21:46:54	21:58:52	682784	60f5917414ac7d222d22db64	1	1	practice_slash	22	advance_on_keypress_SLASH	12	stimuli_distractor_diamondtriangles.svg	stimuli_distractor_trianglediamonds.svg	14	no	57	0	540	6	5	antiphase_hc_osi.wav	2	6	4	noise_calib_stim_RIGHT.wav	2	22	blb_dichoticlistening_ka-ka.mp3	ka	ka	0	left
6.6.1	and	2023-07-06	21:46:54	21:58:54	685407	60f5917414ac7d222d22db64	1	1	practice_slash	22	practice_slash	13	stimuli_distractor_trianglediamonds.svg	stimuli_target_rectanglediamonds.svg	10	yes	53	1	436	6	5	antiphase_hc_osi.wav	2	6	4	noise_calib_stim_RIGHT.wav	2	22	blb_dichoticlistening_ka-ka.mp3	ka	ka	0	left
6.6.1	and	2023-07-06	21:46:54	21:58:54	685407	60f5917414ac7d222d22db64	1	1	practice_slash	22	advance_on_keypress_SLASH	14	stimuli_distractor_trianglediamonds.svg	stimuli_target_rectanglediamonds.svg	10	yes	57	0	406	6	5	antiphase_hc_osi.wav	2	6	4	noise_calib_stim_RIGHT.wav	2	22	blb_dichoticlistening_ka-ka.mp3	ka	ka	0	left
6.6.1	and	2023-07-06	21:46:54	21:58:57	687949	60f5917414ac7d222d22db64	1	1	practice_slash	22	practice_slash	15	stimuli_target_rectanglediamonds.svg	stimuli_distractor_diamondtriangles.svg	1	yes	53	1	493	6	5	antiphase_hc_osi.wav	2	6	4	noise_calib_stim_RIGHT.wav	2	22	blb_dichoticlistening_ka-ka.mp3	ka	ka	0	left
6.6.1	and	2023-07-06	21:46:54	21:58:57	687949	60f5917414ac7d222d22db64	1	1	practice_slash	22	advance_on_keypress_SLASH	16	stimuli_target_rectanglediamonds.svg	stimuli_distractor_diamondtriangles.svg	1	yes	57	0	618	6	5	antiphase_hc_osi.wav	2	6	4	noise_calib_stim_RIGHT.wav	2	22	blb_dichoticlistening_ka-ka.mp3	ka	ka	0	left
6.6.1	and	2023-07-06	21:46:54	21:59:01	692220	60f5917414ac7d222d22db64	1	1	practice_slash	22	practice_slash	17	stimuli_distractor_trianglediamonds.svg	stimuli_target_diamondrectangles.svg	12	yes	0	0	2000	6	5	antiphase_hc_osi.wav	2	6	4	noise_calib_stim_RIGHT.wav	2	22	blb_dichoticlistening_ka-ka.mp3	ka	ka	0	left
6.6.1	and	2023-07-06	21:46:54	21:59:01	692220	60f5917414ac7d222d22db64	1	1	practice_slash	22	advance_on_keypress_SLASH	18	stimuli_distractor_trianglediamonds.svg	stimuli_target_diamondrectangles.svg	12	yes	57	0	999	6	5	antiphase_hc_osi.wav	2	6	4	noise_calib_stim_RIGHT.wav	2	22	blb_dichoticlistening_ka-ka.mp3	ka	ka	0	left
6.6.1	and	2023-07-06	21:46:54	21:59:04	695341	60f5917414ac7d222d22db64	1	1	practice_slash	22	practice_slash	19	stimuli_target_rectanglediamonds.svg	stimuli_distractor_trianglediamonds.svg	4	yes	53	1	490	6	5	antiphase_hc_osi.wav	2	6	4	noise_calib_stim_RIGHT.wav	2	22	blb_dichoticlistening_ka-ka.mp3	ka	ka	0	left
6.6.1	and	2023-07-06	21:46:54	21:59:04	695341	60f5917414ac7d222d22db64	1	1	practice_slash	22	advance_on_keypress_SLASH	20	stimuli_target_rectanglediamonds.svg	stimuli_distractor_trianglediamonds.svg	4	yes	57	0	514	6	5	antiphase_hc_osi.wav	2	6	4	noise_calib_stim_RIGHT.wav	2	22	blb_dichoticlistening_ka-ka.mp3	ka	ka	0	left
6.6.1	and	2023-07-06	21:46:54	21:59:08	699504	60f5917414ac7d222d22db64	1	1	practice_slash	22	practice_slash	21	stimuli_distractor_trianglediamonds.svg	stimuli_distractor_trianglediamonds.svg	15	no	0	1	2000	6	5	antiphase_hc_osi.wav	2	6	4	noise_calib_stim_RIGHT.wav	2	22	blb_dichoticlistening_ka-ka.mp3	ka	ka	0	left
6.6.1	and	2023-07-06	21:46:54	21:59:08	699504	60f5917414ac7d222d22db64	1	1	practice_slash	22	advance_on_keypress_SLASH	22	stimuli_distractor_trianglediamonds.svg	stimuli_distractor_trianglediamonds.svg	15	no	57	0	502	6	5	antiphase_hc_osi.wav	2	6	4	noise_calib_stim_RIGHT.wav	2	22	blb_dichoticlistening_ka-ka.mp3	ka	ka	0	left
6.6.1	and	2023-07-06	21:46:54	21:59:13	703635	60f5917414ac7d222d22db64	1	1	practice_slash	22	practice_slash	23	stimuli_distractor_trianglediamonds.svg	stimuli_distractor_diamondtriangles.svg	16	no	0	1	2000	6	5	antiphase_hc_osi.wav	2	6	4	noise_calib_stim_RIGHT.wav	2	22	blb_dichoticlistening_ka-ka.mp3	ka	ka	0	left
6.6.1	and	2023-07-06	21:46:54	21:59:13	703635	60f5917414ac7d222d22db64	1	1	practice_slash	22	advance_on_keypress_SLASH	24	stimuli_distractor_trianglediamonds.svg	stimuli_distractor_diamondtriangles.svg	16	no	57	0	398	6	5	antiphase_hc_osi.wav	2	6	4	noise_calib_stim_RIGHT.wav	2	22	blb_dichoticlistening_ka-ka.mp3	ka	ka	0	left
6.6.1	and	2023-07-06	21:46:54	21:59:15	706208	60f5917414ac7d222d22db64	1	1	practice_slash	22	practice_slash	25	stimuli_distractor_diamondtriangles.svg	stimuli_target_diamondrectangles.svg	8	yes	53	1	541	6	5	antiphase_hc_osi.wav	2	6	4	noise_calib_stim_RIGHT.wav	2	22	blb_dichoticlistening_ka-ka.mp3	ka	ka	0	left
6.6.1	and	2023-07-06	21:46:54	21:59:15	706208	60f5917414ac7d222d22db64	1	1	practice_slash	22	advance_on_keypress_SLASH	26	stimuli_distractor_diamondtriangles.svg	stimuli_target_diamondrectangles.svg	8	yes	57	0	2324	6	5	antiphase_hc_osi.wav	2	6	4	noise_calib_stim_RIGHT.wav	2	22	blb_dichoticlistening_ka-ka.mp3	ka	ka	0	left
6.6.1	and	2023-07-06	21:46:54	21:59:20	710686	60f5917414ac7d222d22db64	1	1	practice_slash	22	practice_slash	27	stimuli_target_squarediamonds.svg	stimuli_distractor_trianglediamonds.svg	5	yes	53	1	502	6	5	antiphase_hc_osi.wav	2	6	4	noise_calib_stim_RIGHT.wav	2	22	blb_dichoticlistening_ka-ka.mp3	ka	ka	0	left
6.6.1	and	2023-07-06	21:46:54	21:59:20	710686	60f5917414ac7d222d22db64	1	1	practice_slash	22	advance_on_keypress_SLASH	28	stimuli_target_squarediamonds.svg	stimuli_distractor_trianglediamonds.svg	5	yes	57	0	518	6	5	antiphase_hc_osi.wav	2	6	4	noise_calib_stim_RIGHT.wav	2	22	blb_dichoticlistening_ka-ka.mp3	ka	ka	0	left
6.6.1	and	2023-07-06	21:46:54	21:59:22	713233	60f5917414ac7d222d22db64	1	1	practice_slash	22	practice_slash	29	stimuli_target_squarediamonds.svg	stimuli_distractor_diamondtriangles.svg	2	yes	53	1	400	6	5	antiphase_hc_osi.wav	2	6	4	noise_calib_stim_RIGHT.wav	2	22	blb_dichoticlistening_ka-ka.mp3	ka	ka	0	left
6.6.1	and	2023-07-06	21:46:54	21:59:22	713233	60f5917414ac7d222d22db64	1	1	practice_slash	22	advance_on_keypress_SLASH	30	stimuli_target_squarediamonds.svg	stimuli_distractor_diamondtriangles.svg	2	yes	57	0	555	6	5	antiphase_hc_osi.wav	2	6	4	noise_calib_stim_RIGHT.wav	2	22	blb_dichoticlistening_ka-ka.mp3	ka	ka	0	left
6.6.1	and	2023-07-06	21:46:54	21:59:25	716235	60f5917414ac7d222d22db64	1	1	practice_slash	22	practice_slash	31	stimuli_target_diamondsquares.svg	stimuli_distractor_diamondtriangles.svg	3	yes	53	1	800	6	5	antiphase_hc_osi.wav	2	6	4	noise_calib_stim_RIGHT.wav	2	22	blb_dichoticlistening_ka-ka.mp3	ka	ka	0	left
6.6.1	and	2023-07-06	21:46:54	21:59:25	716235	60f5917414ac7d222d22db64	1	1	practice_slash	22	advance_on_keypress_SLASH	32	stimuli_target_diamondsquares.svg	stimuli_distractor_diamondtriangles.svg	3	yes	57	0	296	6	5	antiphase_hc_osi.wav	2	6	4	noise_calib_stim_RIGHT.wav	2	22	blb_dichoticlistening_ka-ka.mp3	ka	ka	0	left
6.6.1	and	2023-07-06	21:46:54	21:59:31	721921	60f5917414ac7d222d22db64	1	1	main_slash	24	main_slash	1	stimuli_distractor_trianglediamonds.svg	stimuli_distractor_diamondtriangles.svg	35	no	53	0	747	6	5	antiphase_hc_osi.wav	2	6	4	noise_calib_stim_RIGHT.wav	2	22	blb_dichoticlistening_ka-ka.mp3	ka	ka	0	left
6.6.1	and	2023-07-06	21:46:54	21:59:31	721921	60f5917414ac7d222d22db64	1	1	main_slash	24	advance_on_keypress_SLASH	2	stimuli_distractor_trianglediamonds.svg	stimuli_distractor_diamondtriangles.svg	35	no	57	0	937	6	5	antiphase_hc_osi.wav	2	6	4	noise_calib_stim_RIGHT.wav	2	22	blb_dichoticlistening_ka-ka.mp3	ka	ka	0	left
6.6.1	and	2023-07-06	21:46:54	21:59:34	725500	60f5917414ac7d222d22db64	1	1	main_slash	24	main_slash	3	stimuli_distractor_diamondtriangles.svg	stimuli_distractor_diamondtriangles.svg	39	no	0	1	2000	6	5	antiphase_hc_osi.wav	2	6	4	noise_calib_stim_RIGHT.wav	2	22	blb_dichoticlistening_ka-ka.mp3	ka	ka	0	left
6.6.1	and	2023-07-06	21:46:54	21:59:34	725500	60f5917414ac7d222d22db64	1	1	main_slash	24	advance_on_keypress_SLASH	4	stimuli_distractor_diamondtriangles.svg	stimuli_distractor_diamondtriangles.svg	39	no	57	0	524	6	5	antiphase_hc_osi.wav	2	6	4	noise_calib_stim_RIGHT.wav	2	22	blb_dichoticlistening_ka-ka.mp3	ka	ka	0	left
6.6.1	and	2023-07-06	21:46:54	21:59:36	727161	60f5917414ac7d222d22db64	1	1	main_slash	24	main_slash	5	stimuli_distractor_diamondtriangles.svg	stimuli_target_squarediamonds.svg	16	yes	53	1	510	6	5	antiphase_hc_osi.wav	2	6	4	noise_calib_stim_RIGHT.wav	2	22	blb_dichoticlistening_ka-ka.mp3	ka	ka	0	left
6.6.1	and	2023-07-06	21:46:54	21:59:36	727161	60f5917414ac7d222d22db64	1	1	main_slash	24	advance_on_keypress_SLASH	6	stimuli_distractor_diamondtriangles.svg	stimuli_target_squarediamonds.svg	16	yes	57	0	584	6	5	antiphase_hc_osi.wav	2	6	4	noise_calib_stim_RIGHT.wav	2	22	blb_dichoticlistening_ka-ka.mp3	ka	ka	0	left
6.6.1	and	2023-07-06	21:46:54	21:59:39	730383	60f5917414ac7d222d22db64	1	1	main_slash	24	main_slash	7	stimuli_distractor_trianglediamonds.svg	stimuli_distractor_trianglediamonds.svg	34	no	0	1	2000	6	5	antiphase_hc_osi.wav	2	6	4	noise_calib_stim_RIGHT.wav	2	22	blb_dichoticlistening_ka-ka.mp3	ka	ka	0	left
6.6.1	and	2023-07-06	21:46:54	21:59:39	730383	60f5917414ac7d222d22db64	1	1	main_slash	24	advance_on_keypress_SLASH	8	stimuli_distractor_trianglediamonds.svg	stimuli_distractor_trianglediamonds.svg	34	no	57	0	357	6	5	antiphase_hc_osi.wav	2	6	4	noise_calib_stim_RIGHT.wav	2	22	blb_dichoticlistening_ka-ka.mp3	ka	ka	0	left
6.6.1	and	2023-07-06	21:46:54	21:59:41	731946	60f5917414ac7d222d22db64	1	1	main_slash	24	main_slash	9	stimuli_target_diamondrectangles.svg	stimuli_distractor_diamondtriangles.svg	23	yes	53	1	581	6	5	antiphase_hc_osi.wav	2	6	4	noise_calib_stim_RIGHT.wav	2	22	blb_dichoticlistening_ka-ka.mp3	ka	ka	0	left
6.6.1	and	2023-07-06	21:46:54	21:59:41	731946	60f5917414ac7d222d22db64	1	1	main_slash	24	advance_on_keypress_SLASH	10	stimuli_target_diamondrectangles.svg	stimuli_distractor_diamondtriangles.svg	23	yes	57	0	687	6	5	antiphase_hc_osi.wav	2	6	4	noise_calib_stim_RIGHT.wav	2	22	blb_dichoticlistening_ka-ka.mp3	ka	ka	0	left
6.6.1	and	2023-07-06	21:46:54	21:59:43	733859	60f5917414ac7d222d22db64	1	1	main_slash	24	main_slash	11	stimuli_distractor_trianglediamonds.svg	stimuli_target_trianglesquares.svg	26	yes	53	1	596	6	5	antiphase_hc_osi.wav	2	6	4	noise_calib_stim_RIGHT.wav	2	22	blb_dichoticlistening_ka-ka.mp3	ka	ka	0	left
6.6.1	and	2023-07-06	21:46:54	21:59:43	733859	60f5917414ac7d222d22db64	1	1	main_slash	24	advance_on_keypress_SLASH	12	stimuli_distractor_trianglediamonds.svg	stimuli_target_trianglesquares.svg	26	yes	57	0	408	6	5	antiphase_hc_osi.wav	2	6	4	noise_calib_stim_RIGHT.wav	2	22	blb_dichoticlistening_ka-ka.mp3	ka	ka	0	left
6.6.1	and	2023-07-06	21:46:54	21:59:45	735664	60f5917414ac7d222d22db64	1	1	main_slash	24	main_slash	13	stimuli_distractor_trianglediamonds.svg	stimuli_target_rectanglediamonds.svg	10	yes	53	1	766	6	5	antiphase_hc_osi.wav	2	6	4	noise_calib_stim_RIGHT.wav	2	22	blb_dichoticlistening_ka-ka.mp3	ka	ka	0	left
6.6.1	and	2023-07-06	21:46:54	21:59:45	735664	60f5917414ac7d222d22db64	1	1	main_slash	24	advance_on_keypress_SLASH	14	stimuli_distractor_trianglediamonds.svg	stimuli_target_rectanglediamonds.svg	10	yes	57	0	400	6	5	antiphase_hc_osi.wav	2	6	4	noise_calib_stim_RIGHT.wav	2	22	blb_dichoticlistening_ka-ka.mp3	ka	ka	0	left
6.6.1	and	2023-07-06	21:46:54	21:59:46	737328	60f5917414ac7d222d22db64	1	1	main_slash	24	main_slash	15	stimuli_distractor_diamondtriangles.svg	stimuli_target_diamondrectangles.svg	31	yes	53	1	630	6	5	antiphase_hc_osi.wav	2	6	4	noise_calib_stim_RIGHT.wav	2	22	blb_dichoticlistening_ka-ka.mp3	ka	ka	0	left
6.6.1	and	2023-07-06	21:46:54	21:59:46	737328	60f5917414ac7d222d22db64	1	1	main_slash	24	advance_on_keypress_SLASH	16	stimuli_distractor_diamondtriangles.svg	stimuli_target_diamondrectangles.svg	31	yes	57	0	382	6	5	antiphase_hc_osi.wav	2	6	4	noise_calib_stim_RIGHT.wav	2	22	blb_dichoticlistening_ka-ka.mp3	ka	ka	0	left
6.6.1	and	2023-07-06	21:46:54	21:59:48	739005	60f5917414ac7d222d22db64	1	1	main_slash	24	main_slash	17	stimuli_distractor_trianglediamonds.svg	stimuli_target_squarediamonds.svg	12	yes	53	1	656	6	5	antiphase_hc_osi.wav	2	6	4	noise_calib_stim_RIGHT.wav	2	22	blb_dichoticlistening_ka-ka.mp3	ka	ka	0	left
6.6.1	and	2023-07-06	21:46:54	21:59:48	739005	60f5917414ac7d222d22db64	1	1	main_slash	24	advance_on_keypress_SLASH	18	stimuli_distractor_trianglediamonds.svg	stimuli_target_squarediamonds.svg	12	yes	57	0	431	6	5	antiphase_hc_osi.wav	2	6	4	noise_calib_stim_RIGHT.wav	2	22	blb_dichoticlistening_ka-ka.mp3	ka	ka	0	left
6.6.1	and	2023-07-06	21:46:54	21:59:50	740612	60f5917414ac7d222d22db64	1	1	main_slash	24	main_slash	19	stimuli_target_rectangletriangles.svg	stimuli_distractor_trianglediamonds.svg	1	yes	53	1	547	6	5	antiphase_hc_osi.wav	2	6	4	noise_calib_stim_RIGHT.wav	2	22	blb_dichoticlistening_ka-ka.mp3	ka	ka	0	left
6.6.1	and	2023-07-06	21:46:54	21:59:50	740612	60f5917414ac7d222d22db64	1	1	main_slash	24	advance_on_keypress_SLASH	20	stimuli_target_rectangletriangles.svg	stimuli_distractor_trianglediamonds.svg	1	yes	57	0	380	6	5	antiphase_hc_osi.wav	2	6	4	noise_calib_stim_RIGHT.wav	2	22	blb_dichoticlistening_ka-ka.mp3	ka	ka	0	left
6.6.1	and	2023-07-06	21:46:54	21:59:52	742563	60f5917414ac7d222d22db64	1	1	main_slash	24	main_slash	21	stimuli_distractor_diamondtriangles.svg	stimuli_target_diamondsquares.svg	32	yes	53	1	930	6	5	antiphase_hc_osi.wav	2	6	4	noise_calib_stim_RIGHT.wav	2	22	blb_dichoticlistening_ka-ka.mp3	ka	ka	0	left
6.6.1	and	2023-07-06	21:46:54	21:59:52	742563	60f5917414ac7d222d22db64	1	1	main_slash	24	advance_on_keypress_SLASH	22	stimuli_distractor_diamondtriangles.svg	stimuli_target_diamondsquares.svg	32	yes	57	0	395	6	5	antiphase_hc_osi.wav	2	6	4	noise_calib_stim_RIGHT.wav	2	22	blb_dichoticlistening_ka-ka.mp3	ka	ka	0	left
6.6.1	and	2023-07-06	21:46:54	21:59:54	744704	60f5917414ac7d222d22db64	1	1	main_slash	24	main_slash	23	stimuli_distractor_diamondtriangles.svg	stimuli_target_rectanglediamonds.svg	14	yes	53	1	1107	6	5	antiphase_hc_osi.wav	2	6	4	noise_calib_stim_RIGHT.wav	2	22	blb_dichoticlistening_ka-ka.mp3	ka	ka	0	left
6.6.1	and	2023-07-06	21:46:54	21:59:54	744704	60f5917414ac7d222d22db64	1	1	main_slash	24	advance_on_keypress_SLASH	24	stimuli_distractor_diamondtriangles.svg	stimuli_target_rectanglediamonds.svg	14	yes	57	0	364	6	5	antiphase_hc_osi.wav	2	6	4	noise_calib_stim_RIGHT.wav	2	22	blb_dichoticlistening_ka-ka.mp3	ka	ka	0	left
6.6.1	and	2023-07-06	21:46:54	21:59:57	747700	60f5917414ac7d222d22db64	1	1	main_slash	24	main_slash	25	stimuli_distractor_trianglediamonds.svg	stimuli_target_diamondrectangles.svg	27	yes	0	0	2000	6	5	antiphase_hc_osi.wav	2	6	4	noise_calib_stim_RIGHT.wav	2	22	blb_dichoticlistening_ka-ka.mp3	ka	ka	0	left
6.6.1	and	2023-07-06	21:46:54	21:59:57	747700	60f5917414ac7d222d22db64	1	1	main_slash	24	advance_on_keypress_SLASH	26	stimuli_distractor_trianglediamonds.svg	stimuli_target_diamondrectangles.svg	27	yes	57	0	607	6	5	antiphase_hc_osi.wav	2	6	4	noise_calib_stim_RIGHT.wav	2	22	blb_dichoticlistening_ka-ka.mp3	ka	ka	0	left
6.6.1	and	2023-07-06	21:46:54	21:59:59	750258	60f5917414ac7d222d22db64	1	1	main_slash	24	main_slash	27	stimuli_target_trianglerectangles.svg	stimuli_distractor_trianglediamonds.svg	17	yes	53	1	1329	6	5	antiphase_hc_osi.wav	2	6	4	noise_calib_stim_RIGHT.wav	2	22	blb_dichoticlistening_ka-ka.mp3	ka	ka	0	left
6.6.1	and	2023-07-06	21:46:54	21:59:59	750258	60f5917414ac7d222d22db64	1	1	main_slash	24	advance_on_keypress_SLASH	28	stimuli_target_trianglerectangles.svg	stimuli_distractor_trianglediamonds.svg	17	yes	57	0	487	6	5	antiphase_hc_osi.wav	2	6	4	noise_calib_stim_RIGHT.wav	2	22	blb_dichoticlistening_ka-ka.mp3	ka	ka	0	left
6.6.1	and	2023-07-06	21:46:54	22:00:02	753380	60f5917414ac7d222d22db64	1	1	main_slash	24	main_slash	29	stimuli_distractor_diamondtriangles.svg	stimuli_distractor_trianglediamonds.svg	38	no	0	1	2000	6	5	antiphase_hc_osi.wav	2	6	4	noise_calib_stim_RIGHT.wav	2	22	blb_dichoticlistening_ka-ka.mp3	ka	ka	0	left
6.6.1	and	2023-07-06	21:46:54	22:00:02	753380	60f5917414ac7d222d22db64	1	1	main_slash	24	advance_on_keypress_SLASH	30	stimuli_distractor_diamondtriangles.svg	stimuli_distractor_trianglediamonds.svg	38	no	57	0	623	6	5	antiphase_hc_osi.wav	2	6	4	noise_calib_stim_RIGHT.wav	2	22	blb_dichoticlistening_ka-ka.mp3	ka	ka	0	left
6.6.1	and	2023-07-06	21:46:54	22:00:04	755239	60f5917414ac7d222d22db64	1	1	main_slash	24	main_slash	31	stimuli_target_trianglesquares.svg	stimuli_distractor_trianglediamonds.svg	18	yes	53	1	609	6	5	antiphase_hc_osi.wav	2	6	4	noise_calib_stim_RIGHT.wav	2	22	blb_dichoticlistening_ka-ka.mp3	ka	ka	0	left
6.6.1	and	2023-07-06	21:46:54	22:00:04	755239	60f5917414ac7d222d22db64	1	1	main_slash	24	advance_on_keypress_SLASH	32	stimuli_target_trianglesquares.svg	stimuli_distractor_trianglediamonds.svg	18	yes	57	0	411	6	5	antiphase_hc_osi.wav	2	6	4	noise_calib_stim_RIGHT.wav	2	22	blb_dichoticlistening_ka-ka.mp3	ka	ka	0	left
6.6.1	and	2023-07-06	21:46:54	22:00:06	756975	60f5917414ac7d222d22db64	1	1	main_slash	24	main_slash	33	stimuli_target_diamondrectangles.svg	stimuli_distractor_trianglediamonds.svg	19	yes	53	1	678	6	5	antiphase_hc_osi.wav	2	6	4	noise_calib_stim_RIGHT.wav	2	22	blb_dichoticlistening_ka-ka.mp3	ka	ka	0	left
6.6.1	and	2023-07-06	21:46:54	22:00:06	756975	60f5917414ac7d222d22db64	1	1	main_slash	24	advance_on_keypress_SLASH	34	stimuli_target_diamondrectangles.svg	stimuli_distractor_trianglediamonds.svg	19	yes	57	0	456	6	5	antiphase_hc_osi.wav	2	6	4	noise_calib_stim_RIGHT.wav	2	22	blb_dichoticlistening_ka-ka.mp3	ka	ka	0	left
6.6.1	and	2023-07-06	21:46:54	22:00:09	760082	60f5917414ac7d222d22db64	1	1	main_slash	24	main_slash	35	stimuli_target_squaretriangles.svg	stimuli_distractor_diamondtriangles.svg	7	yes	0	0	2000	6	5	antiphase_hc_osi.wav	2	6	4	noise_calib_stim_RIGHT.wav	2	22	blb_dichoticlistening_ka-ka.mp3	ka	ka	0	left
6.6.1	and	2023-07-06	21:46:54	22:00:09	760082	60f5917414ac7d222d22db64	1	1	main_slash	24	advance_on_keypress_SLASH	36	stimuli_target_squaretriangles.svg	stimuli_distractor_diamondtriangles.svg	7	yes	57	0	659	6	5	antiphase_hc_osi.wav	2	6	4	noise_calib_stim_RIGHT.wav	2	22	blb_dichoticlistening_ka-ka.mp3	ka	ka	0	left
6.6.1	and	2023-07-06	21:46:54	22:00:12	763380	60f5917414ac7d222d22db64	1	1	main_slash	24	main_slash	37	stimuli_distractor_trianglediamonds.svg	stimuli_target_diamondsquares.svg	28	yes	0	0	2000	6	5	antiphase_hc_osi.wav	2	6	4	noise_calib_stim_RIGHT.wav	2	22	blb_dichoticlistening_ka-ka.mp3	ka	ka	0	left
6.6.1	and	2023-07-06	21:46:54	22:00:12	763380	60f5917414ac7d222d22db64	1	1	main_slash	24	advance_on_keypress_SLASH	38	stimuli_distractor_trianglediamonds.svg	stimuli_target_diamondsquares.svg	28	yes	57	0	571	6	5	antiphase_hc_osi.wav	2	6	4	noise_calib_stim_RIGHT.wav	2	22	blb_dichoticlistening_ka-ka.mp3	ka	ka	0	left
6.6.1	and	2023-07-06	21:46:54	22:00:14	765464	60f5917414ac7d222d22db64	1	1	main_slash	24	main_slash	39	stimuli_target_trianglerectangles.svg	stimuli_distractor_diamondtriangles.svg	21	yes	53	1	885	6	5	antiphase_hc_osi.wav	2	6	4	noise_calib_stim_RIGHT.wav	2	22	blb_dichoticlistening_ka-ka.mp3	ka	ka	0	left
6.6.1	and	2023-07-06	21:46:54	22:00:14	765464	60f5917414ac7d222d22db64	1	1	main_slash	24	advance_on_keypress_SLASH	40	stimuli_target_trianglerectangles.svg	stimuli_distractor_diamondtriangles.svg	21	yes	57	0	588	6	5	antiphase_hc_osi.wav	2	6	4	noise_calib_stim_RIGHT.wav	2	22	blb_dichoticlistening_ka-ka.mp3	ka	ka	0	left
6.6.1	and	2023-07-06	21:46:54	22:00:16	767482	60f5917414ac7d222d22db64	1	1	main_slash	24	main_slash	41	stimuli_distractor_trianglediamonds.svg	stimuli_target_trianglerectangles.svg	25	yes	53	1	799	6	5	antiphase_hc_osi.wav	2	6	4	noise_calib_stim_RIGHT.wav	2	22	blb_dichoticlistening_ka-ka.mp3	ka	ka	0	left
6.6.1	and	2023-07-06	21:46:54	22:00:16	767482	60f5917414ac7d222d22db64	1	1	main_slash	24	advance_on_keypress_SLASH	42	stimuli_distractor_trianglediamonds.svg	stimuli_target_trianglerectangles.svg	25	yes	57	0	415	6	5	antiphase_hc_osi.wav	2	6	4	noise_calib_stim_RIGHT.wav	2	22	blb_dichoticlistening_ka-ka.mp3	ka	ka	0	left
6.6.1	and	2023-07-06	21:46:54	22:00:18	769312	60f5917414ac7d222d22db64	1	1	main_slash	24	main_slash	43	stimuli_distractor_diamondtriangles.svg	stimuli_target_trianglerectangles.svg	29	yes	53	1	781	6	5	antiphase_hc_osi.wav	2	6	4	noise_calib_stim_RIGHT.wav	2	22	blb_dichoticlistening_ka-ka.mp3	ka	ka	0	left
6.6.1	and	2023-07-06	21:46:54	22:00:18	769312	60f5917414ac7d222d22db64	1	1	main_slash	24	advance_on_keypress_SLASH	44	stimuli_distractor_diamondtriangles.svg	stimuli_target_trianglerectangles.svg	29	yes	57	0	462	6	5	antiphase_hc_osi.wav	2	6	4	noise_calib_stim_RIGHT.wav	2	22	blb_dichoticlistening_ka-ka.mp3	ka	ka	0	left
6.6.1	and	2023-07-06	21:46:54	22:00:20	771338	60f5917414ac7d222d22db64	1	1	main_slash	24	main_slash	45	stimuli_target_squarediamonds.svg	stimuli_distractor_diamondtriangles.svg	8	yes	53	1	923	6	5	antiphase_hc_osi.wav	2	6	4	noise_calib_stim_RIGHT.wav	2	22	blb_dichoticlistening_ka-ka.mp3	ka	ka	0	left
6.6.1	and	2023-07-06	21:46:54	22:00:20	771338	60f5917414ac7d222d22db64	1	1	main_slash	24	advance_on_keypress_SLASH	46	stimuli_target_squarediamonds.svg	stimuli_distractor_diamondtriangles.svg	8	yes	57	0	376	6	5	antiphase_hc_osi.wav	2	6	4	noise_calib_stim_RIGHT.wav	2	22	blb_dichoticlistening_ka-ka.mp3	ka	ka	0	left
6.6.1	and	2023-07-06	21:46:54	22:00:23	773658	60f5917414ac7d222d22db64	1	1	main_slash	24	main_slash	47	stimuli_target_rectanglediamonds.svg	stimuli_distractor_diamondtriangles.svg	6	yes	53	1	1295	6	5	antiphase_hc_osi.wav	2	6	4	noise_calib_stim_RIGHT.wav	2	22	blb_dichoticlistening_ka-ka.mp3	ka	ka	0	left
6.6.1	and	2023-07-06	21:46:54	22:00:23	773658	60f5917414ac7d222d22db64	1	1	main_slash	24	advance_on_keypress_SLASH	48	stimuli_target_rectanglediamonds.svg	stimuli_distractor_diamondtriangles.svg	6	yes	57	0	353	6	5	antiphase_hc_osi.wav	2	6	4	noise_calib_stim_RIGHT.wav	2	22	blb_dichoticlistening_ka-ka.mp3	ka	ka	0	left
6.6.1	and	2023-07-06	21:46:54	22:00:24	775379	60f5917414ac7d222d22db64	1	1	main_slash	24	main_slash	49	stimuli_target_rectangletriangles.svg	stimuli_distractor_diamondtriangles.svg	5	yes	53	1	732	6	5	antiphase_hc_osi.wav	2	6	4	noise_calib_stim_RIGHT.wav	2	22	blb_dichoticlistening_ka-ka.mp3	ka	ka	0	left
6.6.1	and	2023-07-06	21:46:54	22:00:24	775379	60f5917414ac7d222d22db64	1	1	main_slash	24	advance_on_keypress_SLASH	50	stimuli_target_rectangletriangles.svg	stimuli_distractor_diamondtriangles.svg	5	yes	57	0	408	6	5	antiphase_hc_osi.wav	2	6	4	noise_calib_stim_RIGHT.wav	2	22	blb_dichoticlistening_ka-ka.mp3	ka	ka	0	left
6.6.1	and	2023-07-06	21:46:54	22:00:27	778429	60f5917414ac7d222d22db64	1	1	main_slash	24	main_slash	51	stimuli_target_diamondsquares.svg	stimuli_distractor_trianglediamonds.svg	20	yes	0	0	2000	6	5	antiphase_hc_osi.wav	2	6	4	noise_calib_stim_RIGHT.wav	2	22	blb_dichoticlistening_ka-ka.mp3	ka	ka	0	left
6.6.1	and	2023-07-06	21:46:54	22:00:27	778429	60f5917414ac7d222d22db64	1	1	main_slash	24	advance_on_keypress_SLASH	52	stimuli_target_diamondsquares.svg	stimuli_distractor_trianglediamonds.svg	20	yes	57	0	530	6	5	antiphase_hc_osi.wav	2	6	4	noise_calib_stim_RIGHT.wav	2	22	blb_dichoticlistening_ka-ka.mp3	ka	ka	0	left
6.6.1	and	2023-07-06	21:46:54	22:00:29	780105	60f5917414ac7d222d22db64	1	1	main_slash	24	main_slash	53	stimuli_target_squarediamonds.svg	stimuli_distractor_trianglediamonds.svg	4	yes	53	1	509	6	5	antiphase_hc_osi.wav	2	6	4	noise_calib_stim_RIGHT.wav	2	22	blb_dichoticlistening_ka-ka.mp3	ka	ka	0	left
6.6.1	and	2023-07-06	21:46:54	22:00:29	780105	60f5917414ac7d222d22db64	1	1	main_slash	24	advance_on_keypress_SLASH	54	stimuli_target_squarediamonds.svg	stimuli_distractor_trianglediamonds.svg	4	yes	57	0	375	6	5	antiphase_hc_osi.wav	2	6	4	noise_calib_stim_RIGHT.wav	2	22	blb_dichoticlistening_ka-ka.mp3	ka	ka	0	left
6.6.1	and	2023-07-06	21:46:54	22:00:31	781825	60f5917414ac7d222d22db64	1	1	main_slash	24	main_slash	55	stimuli_distractor_diamondtriangles.svg	stimuli_target_squaretriangles.svg	15	yes	53	1	695	6	5	antiphase_hc_osi.wav	2	6	4	noise_calib_stim_RIGHT.wav	2	22	blb_dichoticlistening_ka-ka.mp3	ka	ka	0	left
6.6.1	and	2023-07-06	21:46:54	22:00:31	781825	60f5917414ac7d222d22db64	1	1	main_slash	24	advance_on_keypress_SLASH	56	stimuli_distractor_diamondtriangles.svg	stimuli_target_squaretriangles.svg	15	yes	57	0	376	6	5	antiphase_hc_osi.wav	2	6	4	noise_calib_stim_RIGHT.wav	2	22	blb_dichoticlistening_ka-ka.mp3	ka	ka	0	left
6.6.1	and	2023-07-06	21:46:54	22:00:32	783397	60f5917414ac7d222d22db64	1	1	main_slash	24	main_slash	57	stimuli_target_squaretriangles.svg	stimuli_distractor_trianglediamonds.svg	3	yes	53	1	552	6	5	antiphase_hc_osi.wav	2	6	4	noise_calib_stim_RIGHT.wav	2	22	blb_dichoticlistening_ka-ka.mp3	ka	ka	0	left
6.6.1	and	2023-07-06	21:46:54	22:00:32	783397	60f5917414ac7d222d22db64	1	1	main_slash	24	advance_on_keypress_SLASH	58	stimuli_target_squaretriangles.svg	stimuli_distractor_trianglediamonds.svg	3	yes	57	0	423	6	5	antiphase_hc_osi.wav	2	6	4	noise_calib_stim_RIGHT.wav	2	22	blb_dichoticlistening_ka-ka.mp3	ka	ka	0	left
6.6.1	and	2023-07-06	21:46:54	22:00:34	785347	60f5917414ac7d222d22db64	1	1	main_slash	24	main_slash	59	stimuli_distractor_trianglediamonds.svg	stimuli_target_squaretriangles.svg	11	yes	53	1	902	6	5	antiphase_hc_osi.wav	2	6	4	noise_calib_stim_RIGHT.wav	2	22	blb_dichoticlistening_ka-ka.mp3	ka	ka	0	left
6.6.1	and	2023-07-06	21:46:54	22:00:34	785347	60f5917414ac7d222d22db64	1	1	main_slash	24	advance_on_keypress_SLASH	60	stimuli_distractor_trianglediamonds.svg	stimuli_target_squaretriangles.svg	11	yes	57	0	359	6	5	antiphase_hc_osi.wav	2	6	4	noise_calib_stim_RIGHT.wav	2	22	blb_dichoticlistening_ka-ka.mp3	ka	ka	0	left
6.6.1	and	2023-07-06	21:46:54	22:00:37	788346	60f5917414ac7d222d22db64	1	1	main_slash	24	main_slash	61	stimuli_distractor_diamondtriangles.svg	stimuli_distractor_trianglediamonds.svg	37	no	0	1	2000	6	5	antiphase_hc_osi.wav	2	6	4	noise_calib_stim_RIGHT.wav	2	22	blb_dichoticlistening_ka-ka.mp3	ka	ka	0	left
6.6.1	and	2023-07-06	21:46:54	22:00:37	788346	60f5917414ac7d222d22db64	1	1	main_slash	24	advance_on_keypress_SLASH	62	stimuli_distractor_diamondtriangles.svg	stimuli_distractor_trianglediamonds.svg	37	no	57	0	387	6	5	antiphase_hc_osi.wav	2	6	4	noise_calib_stim_RIGHT.wav	2	22	blb_dichoticlistening_ka-ka.mp3	ka	ka	0	left
6.6.1	and	2023-07-06	21:46:54	22:00:39	789876	60f5917414ac7d222d22db64	1	1	main_slash	24	main_slash	63	stimuli_distractor_diamondtriangles.svg	stimuli_target_trianglesquares.svg	30	yes	53	1	515	6	5	antiphase_hc_osi.wav	2	6	4	noise_calib_stim_RIGHT.wav	2	22	blb_dichoticlistening_ka-ka.mp3	ka	ka	0	left
6.6.1	and	2023-07-06	21:46:54	22:00:39	789876	60f5917414ac7d222d22db64	1	1	main_slash	24	advance_on_keypress_SLASH	64	stimuli_distractor_diamondtriangles.svg	stimuli_target_trianglesquares.svg	30	yes	57	0	349	6	5	antiphase_hc_osi.wav	2	6	4	noise_calib_stim_RIGHT.wav	2	22	blb_dichoticlistening_ka-ka.mp3	ka	ka	0	left
6.6.1	and	2023-07-06	21:46:54	22:00:42	792865	60f5917414ac7d222d22db64	1	1	main_slash	24	main_slash	65	stimuli_distractor_trianglediamonds.svg	stimuli_distractor_trianglediamonds.svg	33	no	0	1	2000	6	5	antiphase_hc_osi.wav	2	6	4	noise_calib_stim_RIGHT.wav	2	22	blb_dichoticlistening_ka-ka.mp3	ka	ka	0	left
6.6.1	and	2023-07-06	21:46:54	22:00:42	792865	60f5917414ac7d222d22db64	1	1	main_slash	24	advance_on_keypress_SLASH	66	stimuli_distractor_trianglediamonds.svg	stimuli_distractor_trianglediamonds.svg	33	no	57	0	458	6	5	antiphase_hc_osi.wav	2	6	4	noise_calib_stim_RIGHT.wav	2	22	blb_dichoticlistening_ka-ka.mp3	ka	ka	0	left
6.6.1	and	2023-07-06	21:46:54	22:00:44	794683	60f5917414ac7d222d22db64	1	1	main_slash	24	main_slash	67	stimuli_distractor_trianglediamonds.svg	stimuli_target_rectangletriangles.svg	9	yes	53	1	721	6	5	antiphase_hc_osi.wav	2	6	4	noise_calib_stim_RIGHT.wav	2	22	blb_dichoticlistening_ka-ka.mp3	ka	ka	0	left
6.6.1	and	2023-07-06	21:46:54	22:00:44	794683	60f5917414ac7d222d22db64	1	1	main_slash	24	advance_on_keypress_SLASH	68	stimuli_distractor_trianglediamonds.svg	stimuli_target_rectangletriangles.svg	9	yes	57	0	367	6	5	antiphase_hc_osi.wav	2	6	4	noise_calib_stim_RIGHT.wav	2	22	blb_dichoticlistening_ka-ka.mp3	ka	ka	0	left
6.6.1	and	2023-07-06	21:46:54	22:00:47	797680	60f5917414ac7d222d22db64	1	1	main_slash	24	main_slash	69	stimuli_distractor_diamondtriangles.svg	stimuli_distractor_diamondtriangles.svg	40	no	0	1	2000	6	5	antiphase_hc_osi.wav	2	6	4	noise_calib_stim_RIGHT.wav	2	22	blb_dichoticlistening_ka-ka.mp3	ka	ka	0	left
6.6.1	and	2023-07-06	21:46:54	22:00:47	797680	60f5917414ac7d222d22db64	1	1	main_slash	24	advance_on_keypress_SLASH	70	stimuli_distractor_diamondtriangles.svg	stimuli_distractor_diamondtriangles.svg	40	no	57	0	553	6	5	antiphase_hc_osi.wav	2	6	4	noise_calib_stim_RIGHT.wav	2	22	blb_dichoticlistening_ka-ka.mp3	ka	ka	0	left
6.6.1	and	2023-07-06	21:46:54	22:00:48	799379	60f5917414ac7d222d22db64	1	1	main_slash	24	main_slash	71	stimuli_distractor_diamondtriangles.svg	stimuli_target_rectangletriangles.svg	13	yes	53	1	520	6	5	antiphase_hc_osi.wav	2	6	4	noise_calib_stim_RIGHT.wav	2	22	blb_dichoticlistening_ka-ka.mp3	ka	ka	0	left
6.6.1	and	2023-07-06	21:46:54	22:00:48	799379	60f5917414ac7d222d22db64	1	1	main_slash	24	advance_on_keypress_SLASH	72	stimuli_distractor_diamondtriangles.svg	stimuli_target_rectangletriangles.svg	13	yes	57	0	388	6	5	antiphase_hc_osi.wav	2	6	4	noise_calib_stim_RIGHT.wav	2	22	blb_dichoticlistening_ka-ka.mp3	ka	ka	0	left
6.6.1	and	2023-07-06	21:46:54	22:00:50	801138	60f5917414ac7d222d22db64	1	1	main_slash	24	main_slash	73	stimuli_target_diamondsquares.svg	stimuli_distractor_diamondtriangles.svg	24	yes	53	1	727	6	5	antiphase_hc_osi.wav	2	6	4	noise_calib_stim_RIGHT.wav	2	22	blb_dichoticlistening_ka-ka.mp3	ka	ka	0	left
6.6.1	and	2023-07-06	21:46:54	22:00:50	801138	60f5917414ac7d222d22db64	1	1	main_slash	24	advance_on_keypress_SLASH	74	stimuli_target_diamondsquares.svg	stimuli_distractor_diamondtriangles.svg	24	yes	57	0	349	6	5	antiphase_hc_osi.wav	2	6	4	noise_calib_stim_RIGHT.wav	2	22	blb_dichoticlistening_ka-ka.mp3	ka	ka	0	left
6.6.1	and	2023-07-06	21:46:54	22:00:52	802901	60f5917414ac7d222d22db64	1	1	main_slash	24	main_slash	75	stimuli_distractor_trianglediamonds.svg	stimuli_distractor_diamondtriangles.svg	36	no	53	0	770	6	5	antiphase_hc_osi.wav	2	6	4	noise_calib_stim_RIGHT.wav	2	22	blb_dichoticlistening_ka-ka.mp3	ka	ka	0	left
6.6.1	and	2023-07-06	21:46:54	22:00:52	802901	60f5917414ac7d222d22db64	1	1	main_slash	24	advance_on_keypress_SLASH	76	stimuli_distractor_trianglediamonds.svg	stimuli_distractor_diamondtriangles.svg	36	no	57	0	386	6	5	antiphase_hc_osi.wav	2	6	4	noise_calib_stim_RIGHT.wav	2	22	blb_dichoticlistening_ka-ka.mp3	ka	ka	0	left
6.6.1	and	2023-07-06	21:46:54	22:00:54	804586	60f5917414ac7d222d22db64	1	1	main_slash	24	main_slash	77	stimuli_target_trianglesquares.svg	stimuli_distractor_diamondtriangles.svg	22	yes	53	1	674	6	5	antiphase_hc_osi.wav	2	6	4	noise_calib_stim_RIGHT.wav	2	22	blb_dichoticlistening_ka-ka.mp3	ka	ka	0	left
6.6.1	and	2023-07-06	21:46:54	22:00:54	804586	60f5917414ac7d222d22db64	1	1	main_slash	24	advance_on_keypress_SLASH	78	stimuli_target_trianglesquares.svg	stimuli_distractor_diamondtriangles.svg	22	yes	57	0	336	6	5	antiphase_hc_osi.wav	2	6	4	noise_calib_stim_RIGHT.wav	2	22	blb_dichoticlistening_ka-ka.mp3	ka	ka	0	left
6.6.1	and	2023-07-06	21:46:54	22:00:56	806886	60f5917414ac7d222d22db64	1	1	main_slash	24	main_slash	79	stimuli_target_rectanglediamonds.svg	stimuli_distractor_trianglediamonds.svg	2	yes	53	1	1324	6	5	antiphase_hc_osi.wav	2	6	4	noise_calib_stim_RIGHT.wav	2	22	blb_dichoticlistening_ka-ka.mp3	ka	ka	0	left
6.6.1	and	2023-07-06	21:46:54	22:00:56	806886	60f5917414ac7d222d22db64	1	1	main_slash	24	advance_on_keypress_SLASH	80	stimuli_target_rectanglediamonds.svg	stimuli_distractor_trianglediamonds.svg	2	yes	57	0	313	6	5	antiphase_hc_osi.wav	2	6	4	noise_calib_stim_RIGHT.wav	2	22	blb_dichoticlistening_ka-ka.mp3	ka	ka	0	left
6.6.1	and	2023-07-06	21:46:54	22:00:59	809847	60f5917414ac7d222d22db64	1	1	main_slash	24	main_slash	81	stimuli_distractor_diamondtriangles.svg	stimuli_distractor_diamondtriangles.svg	40	no	0	1	2000	6	5	antiphase_hc_osi.wav	2	6	4	noise_calib_stim_RIGHT.wav	2	22	blb_dichoticlistening_ka-ka.mp3	ka	ka	0	left
6.6.1	and	2023-07-06	21:46:54	22:00:59	809847	60f5917414ac7d222d22db64	1	1	main_slash	24	advance_on_keypress_SLASH	82	stimuli_distractor_diamondtriangles.svg	stimuli_distractor_diamondtriangles.svg	40	no	57	0	430	6	5	antiphase_hc_osi.wav	2	6	4	noise_calib_stim_RIGHT.wav	2	22	blb_dichoticlistening_ka-ka.mp3	ka	ka	0	left
6.6.1	and	2023-07-06	21:46:54	22:01:00	811359	60f5917414ac7d222d22db64	1	1	main_slash	24	main_slash	83	stimuli_distractor_trianglediamonds.svg	stimuli_target_squaretriangles.svg	11	yes	53	1	448	6	5	antiphase_hc_osi.wav	2	6	4	noise_calib_stim_RIGHT.wav	2	22	blb_dichoticlistening_ka-ka.mp3	ka	ka	0	left
6.6.1	and	2023-07-06	21:46:54	22:01:00	811359	60f5917414ac7d222d22db64	1	1	main_slash	24	advance_on_keypress_SLASH	84	stimuli_distractor_trianglediamonds.svg	stimuli_target_squaretriangles.svg	11	yes	57	0	381	6	5	antiphase_hc_osi.wav	2	6	4	noise_calib_stim_RIGHT.wav	2	22	blb_dichoticlistening_ka-ka.mp3	ka	ka	0	left
6.6.1	and	2023-07-06	21:46:54	22:01:02	813021	60f5917414ac7d222d22db64	1	1	main_slash	24	main_slash	85	stimuli_target_diamondsquares.svg	stimuli_distractor_diamondtriangles.svg	24	yes	53	1	643	6	5	antiphase_hc_osi.wav	2	6	4	noise_calib_stim_RIGHT.wav	2	22	blb_dichoticlistening_ka-ka.mp3	ka	ka	0	left
6.6.1	and	2023-07-06	21:46:54	22:01:02	813021	60f5917414ac7d222d22db64	1	1	main_slash	24	advance_on_keypress_SLASH	86	stimuli_target_diamondsquares.svg	stimuli_distractor_diamondtriangles.svg	24	yes	57	0	372	6	5	antiphase_hc_osi.wav	2	6	4	noise_calib_stim_RIGHT.wav	2	22	blb_dichoticlistening_ka-ka.mp3	ka	ka	0	left
6.6.1	and	2023-07-06	21:46:54	22:01:05	816028	60f5917414ac7d222d22db64	1	1	main_slash	24	main_slash	87	stimuli_distractor_diamondtriangles.svg	stimuli_distractor_diamondtriangles.svg	39	no	0	1	2000	6	5	antiphase_hc_osi.wav	2	6	4	noise_calib_stim_RIGHT.wav	2	22	blb_dichoticlistening_ka-ka.mp3	ka	ka	0	left
6.6.1	and	2023-07-06	21:46:54	22:01:05	816028	60f5917414ac7d222d22db64	1	1	main_slash	24	advance_on_keypress_SLASH	88	stimuli_distractor_diamondtriangles.svg	stimuli_distractor_diamondtriangles.svg	39	no	57	0	518	6	5	antiphase_hc_osi.wav	2	6	4	noise_calib_stim_RIGHT.wav	2	22	blb_dichoticlistening_ka-ka.mp3	ka	ka	0	left
6.6.1	and	2023-07-06	21:46:54	22:01:07	817676	60f5917414ac7d222d22db64	1	1	main_slash	24	main_slash	89	stimuli_distractor_diamondtriangles.svg	stimuli_target_squarediamonds.svg	16	yes	53	1	495	6	5	antiphase_hc_osi.wav	2	6	4	noise_calib_stim_RIGHT.wav	2	22	blb_dichoticlistening_ka-ka.mp3	ka	ka	0	left
6.6.1	and	2023-07-06	21:46:54	22:01:07	817676	60f5917414ac7d222d22db64	1	1	main_slash	24	advance_on_keypress_SLASH	90	stimuli_distractor_diamondtriangles.svg	stimuli_target_squarediamonds.svg	16	yes	57	0	356	6	5	antiphase_hc_osi.wav	2	6	4	noise_calib_stim_RIGHT.wav	2	22	blb_dichoticlistening_ka-ka.mp3	ka	ka	0	left
6.6.1	and	2023-07-06	21:46:54	22:01:08	819505	60f5917414ac7d222d22db64	1	1	main_slash	24	main_slash	91	stimuli_distractor_trianglediamonds.svg	stimuli_target_diamondsquares.svg	28	yes	53	1	844	6	5	antiphase_hc_osi.wav	2	6	4	noise_calib_stim_RIGHT.wav	2	22	blb_dichoticlistening_ka-ka.mp3	ka	ka	0	left
6.6.1	and	2023-07-06	21:46:54	22:01:08	819505	60f5917414ac7d222d22db64	1	1	main_slash	24	advance_on_keypress_SLASH	92	stimuli_distractor_trianglediamonds.svg	stimuli_target_diamondsquares.svg	28	yes	57	0	331	6	5	antiphase_hc_osi.wav	2	6	4	noise_calib_stim_RIGHT.wav	2	22	blb_dichoticlistening_ka-ka.mp3	ka	ka	0	left
6.6.1	and	2023-07-06	21:46:54	22:01:10	820976	60f5917414ac7d222d22db64	1	1	main_slash	24	main_slash	93	stimuli_distractor_diamondtriangles.svg	stimuli_target_diamondsquares.svg	32	yes	53	1	497	6	5	antiphase_hc_osi.wav	2	6	4	noise_calib_stim_RIGHT.wav	2	22	blb_dichoticlistening_ka-ka.mp3	ka	ka	0	left
6.6.1	and	2023-07-06	21:46:54	22:01:10	820976	60f5917414ac7d222d22db64	1	1	main_slash	24	advance_on_keypress_SLASH	94	stimuli_distractor_diamondtriangles.svg	stimuli_target_diamondsquares.svg	32	yes	57	0	391	6	5	antiphase_hc_osi.wav	2	6	4	noise_calib_stim_RIGHT.wav	2	22	blb_dichoticlistening_ka-ka.mp3	ka	ka	0	left
6.6.1	and	2023-07-06	21:46:54	22:01:11	822495	60f5917414ac7d222d22db64	1	1	main_slash	24	main_slash	95	stimuli_target_trianglesquares.svg	stimuli_distractor_diamondtriangles.svg	22	yes	53	1	501	6	5	antiphase_hc_osi.wav	2	6	4	noise_calib_stim_RIGHT.wav	2	22	blb_dichoticlistening_ka-ka.mp3	ka	ka	0	left
6.6.1	and	2023-07-06	21:46:54	22:01:11	822495	60f5917414ac7d222d22db64	1	1	main_slash	24	advance_on_keypress_SLASH	96	stimuli_target_trianglesquares.svg	stimuli_distractor_diamondtriangles.svg	22	yes	57	0	386	6	5	antiphase_hc_osi.wav	2	6	4	noise_calib_stim_RIGHT.wav	2	22	blb_dichoticlistening_ka-ka.mp3	ka	ka	0	left
6.6.1	and	2023-07-06	21:46:54	22:01:13	824025	60f5917414ac7d222d22db64	1	1	main_slash	24	main_slash	97	stimuli_target_trianglesquares.svg	stimuli_distractor_trianglediamonds.svg	18	yes	53	1	517	6	5	antiphase_hc_osi.wav	2	6	4	noise_calib_stim_RIGHT.wav	2	22	blb_dichoticlistening_ka-ka.mp3	ka	ka	0	left
6.6.1	and	2023-07-06	21:46:54	22:01:13	824025	60f5917414ac7d222d22db64	1	1	main_slash	24	advance_on_keypress_SLASH	98	stimuli_target_trianglesquares.svg	stimuli_distractor_trianglediamonds.svg	18	yes	57	0	383	6	5	antiphase_hc_osi.wav	2	6	4	noise_calib_stim_RIGHT.wav	2	22	blb_dichoticlistening_ka-ka.mp3	ka	ka	0	left
6.6.1	and	2023-07-06	21:46:54	22:01:16	827048	60f5917414ac7d222d22db64	1	1	main_slash	24	main_slash	99	stimuli_distractor_trianglediamonds.svg	stimuli_distractor_diamondtriangles.svg	35	no	0	1	2000	6	5	antiphase_hc_osi.wav	2	6	4	noise_calib_stim_RIGHT.wav	2	22	blb_dichoticlistening_ka-ka.mp3	ka	ka	0	left
6.6.1	and	2023-07-06	21:46:54	22:01:16	827048	60f5917414ac7d222d22db64	1	1	main_slash	24	advance_on_keypress_SLASH	100	stimuli_distractor_trianglediamonds.svg	stimuli_distractor_diamondtriangles.svg	35	no	57	0	1088	6	5	antiphase_hc_osi.wav	2	6	4	noise_calib_stim_RIGHT.wav	2	22	blb_dichoticlistening_ka-ka.mp3	ka	ka	0	left
6.6.1	and	2023-07-06	21:46:54	22:01:18	829462	60f5917414ac7d222d22db64	1	1	main_slash	24	main_slash	101	stimuli_distractor_trianglediamonds.svg	stimuli_target_rectangletriangles.svg	9	yes	53	1	685	6	5	antiphase_hc_osi.wav	2	6	4	noise_calib_stim_RIGHT.wav	2	22	blb_dichoticlistening_ka-ka.mp3	ka	ka	0	left
6.6.1	and	2023-07-06	21:46:54	22:01:18	829462	60f5917414ac7d222d22db64	1	1	main_slash	24	advance_on_keypress_SLASH	102	stimuli_distractor_trianglediamonds.svg	stimuli_target_rectangletriangles.svg	9	yes	57	0	316	6	5	antiphase_hc_osi.wav	2	6	4	noise_calib_stim_RIGHT.wav	2	22	blb_dichoticlistening_ka-ka.mp3	ka	ka	0	left
6.6.1	and	2023-07-06	21:46:54	22:01:20	830960	60f5917414ac7d222d22db64	1	1	main_slash	24	main_slash	103	stimuli_distractor_trianglediamonds.svg	stimuli_target_squarediamonds.svg	12	yes	53	1	549	6	5	antiphase_hc_osi.wav	2	6	4	noise_calib_stim_RIGHT.wav	2	22	blb_dichoticlistening_ka-ka.mp3	ka	ka	0	left
6.6.1	and	2023-07-06	21:46:54	22:01:20	830960	60f5917414ac7d222d22db64	1	1	main_slash	24	advance_on_keypress_SLASH	104	stimuli_distractor_trianglediamonds.svg	stimuli_target_squarediamonds.svg	12	yes	57	0	301	6	5	antiphase_hc_osi.wav	2	6	4	noise_calib_stim_RIGHT.wav	2	22	blb_dichoticlistening_ka-ka.mp3	ka	ka	0	left
6.6.1	and	2023-07-06	21:46:54	22:01:23	833895	60f5917414ac7d222d22db64	1	1	main_slash	24	main_slash	105	stimuli_distractor_trianglediamonds.svg	stimuli_distractor_trianglediamonds.svg	33	no	0	1	2000	6	5	antiphase_hc_osi.wav	2	6	4	noise_calib_stim_RIGHT.wav	2	22	blb_dichoticlistening_ka-ka.mp3	ka	ka	0	left
6.6.1	and	2023-07-06	21:46:54	22:01:23	833895	60f5917414ac7d222d22db64	1	1	main_slash	24	advance_on_keypress_SLASH	106	stimuli_distractor_trianglediamonds.svg	stimuli_distractor_trianglediamonds.svg	33	no	57	0	313	6	5	antiphase_hc_osi.wav	2	6	4	noise_calib_stim_RIGHT.wav	2	22	blb_dichoticlistening_ka-ka.mp3	ka	ka	0	left
6.6.1	and	2023-07-06	21:46:54	22:01:26	836844	60f5917414ac7d222d22db64	1	1	main_slash	24	main_slash	107	stimuli_target_trianglerectangles.svg	stimuli_distractor_diamondtriangles.svg	21	yes	0	0	2000	6	5	antiphase_hc_osi.wav	2	6	4	noise_calib_stim_RIGHT.wav	2	22	blb_dichoticlistening_ka-ka.mp3	ka	ka	0	left
6.6.1	and	2023-07-06	21:46:54	22:01:26	836844	60f5917414ac7d222d22db64	1	1	main_slash	24	advance_on_keypress_SLASH	108	stimuli_target_trianglerectangles.svg	stimuli_distractor_diamondtriangles.svg	21	yes	57	0	293	6	5	antiphase_hc_osi.wav	2	6	4	noise_calib_stim_RIGHT.wav	2	22	blb_dichoticlistening_ka-ka.mp3	ka	ka	0	left
6.6.1	and	2023-07-06	21:46:54	22:01:27	838389	60f5917414ac7d222d22db64	1	1	main_slash	24	main_slash	109	stimuli_target_rectangletriangles.svg	stimuli_distractor_trianglediamonds.svg	1	yes	53	1	612	6	5	antiphase_hc_osi.wav	2	6	4	noise_calib_stim_RIGHT.wav	2	22	blb_dichoticlistening_ka-ka.mp3	ka	ka	0	left
6.6.1	and	2023-07-06	21:46:54	22:01:27	838389	60f5917414ac7d222d22db64	1	1	main_slash	24	advance_on_keypress_SLASH	110	stimuli_target_rectangletriangles.svg	stimuli_distractor_trianglediamonds.svg	1	yes	57	0	316	6	5	antiphase_hc_osi.wav	2	6	4	noise_calib_stim_RIGHT.wav	2	22	blb_dichoticlistening_ka-ka.mp3	ka	ka	0	left
6.6.1	and	2023-07-06	21:46:54	22:01:29	840163	60f5917414ac7d222d22db64	1	1	main_slash	24	main_slash	111	stimuli_target_diamondrectangles.svg	stimuli_distractor_diamondtriangles.svg	23	yes	53	1	820	6	5	antiphase_hc_osi.wav	2	6	4	noise_calib_stim_RIGHT.wav	2	22	blb_dichoticlistening_ka-ka.mp3	ka	ka	0	left
6.6.1	and	2023-07-06	21:46:54	22:01:29	840163	60f5917414ac7d222d22db64	1	1	main_slash	24	advance_on_keypress_SLASH	112	stimuli_target_diamondrectangles.svg	stimuli_distractor_diamondtriangles.svg	23	yes	57	0	303	6	5	antiphase_hc_osi.wav	2	6	4	noise_calib_stim_RIGHT.wav	2	22	blb_dichoticlistening_ka-ka.mp3	ka	ka	0	left
6.6.1	and	2023-07-06	21:46:54	22:01:31	841731	60f5917414ac7d222d22db64	1	1	main_slash	24	main_slash	113	stimuli_distractor_diamondtriangles.svg	stimuli_target_diamondrectangles.svg	31	yes	53	1	638	6	5	antiphase_hc_osi.wav	2	6	4	noise_calib_stim_RIGHT.wav	2	22	blb_dichoticlistening_ka-ka.mp3	ka	ka	0	left
6.6.1	and	2023-07-06	21:46:54	22:01:31	841731	60f5917414ac7d222d22db64	1	1	main_slash	24	advance_on_keypress_SLASH	114	stimuli_distractor_diamondtriangles.svg	stimuli_target_diamondrectangles.svg	31	yes	57	0	369	6	5	antiphase_hc_osi.wav	2	6	4	noise_calib_stim_RIGHT.wav	2	22	blb_dichoticlistening_ka-ka.mp3	ka	ka	0	left
6.6.1	and	2023-07-06	21:46:54	22:01:32	843237	60f5917414ac7d222d22db64	1	1	main_slash	24	main_slash	115	stimuli_distractor_diamondtriangles.svg	stimuli_target_trianglerectangles.svg	29	yes	53	1	509	6	5	antiphase_hc_osi.wav	2	6	4	noise_calib_stim_RIGHT.wav	2	22	blb_dichoticlistening_ka-ka.mp3	ka	ka	0	left
6.6.1	and	2023-07-06	21:46:54	22:01:32	843237	60f5917414ac7d222d22db64	1	1	main_slash	24	advance_on_keypress_SLASH	116	stimuli_distractor_diamondtriangles.svg	stimuli_target_trianglerectangles.svg	29	yes	57	0	346	6	5	antiphase_hc_osi.wav	2	6	4	noise_calib_stim_RIGHT.wav	2	22	blb_dichoticlistening_ka-ka.mp3	ka	ka	0	left
6.6.1	and	2023-07-06	21:46:54	22:01:34	844792	60f5917414ac7d222d22db64	1	1	main_slash	24	main_slash	117	stimuli_target_squarediamonds.svg	stimuli_distractor_diamondtriangles.svg	8	yes	53	1	566	6	5	antiphase_hc_osi.wav	2	6	4	noise_calib_stim_RIGHT.wav	2	22	blb_dichoticlistening_ka-ka.mp3	ka	ka	0	left
6.6.1	and	2023-07-06	21:46:54	22:01:34	844792	60f5917414ac7d222d22db64	1	1	main_slash	24	advance_on_keypress_SLASH	118	stimuli_target_squarediamonds.svg	stimuli_distractor_diamondtriangles.svg	8	yes	57	0	402	6	5	antiphase_hc_osi.wav	2	6	4	noise_calib_stim_RIGHT.wav	2	22	blb_dichoticlistening_ka-ka.mp3	ka	ka	0	left
6.6.1	and	2023-07-06	21:46:54	22:01:36	846999	60f5917414ac7d222d22db64	1	1	main_slash	24	main_slash	119	stimuli_target_diamondsquares.svg	stimuli_distractor_trianglediamonds.svg	20	yes	53	1	1173	6	5	antiphase_hc_osi.wav	2	6	4	noise_calib_stim_RIGHT.wav	2	22	blb_dichoticlistening_ka-ka.mp3	ka	ka	0	left
6.6.1	and	2023-07-06	21:46:54	22:01:36	846999	60f5917414ac7d222d22db64	1	1	main_slash	24	advance_on_keypress_SLASH	120	stimuli_target_diamondsquares.svg	stimuli_distractor_trianglediamonds.svg	20	yes	57	0	354	6	5	antiphase_hc_osi.wav	2	6	4	noise_calib_stim_RIGHT.wav	2	22	blb_dichoticlistening_ka-ka.mp3	ka	ka	0	left
6.6.1	and	2023-07-06	21:46:54	22:01:39	849977	60f5917414ac7d222d22db64	1	1	main_slash	24	main_slash	121	stimuli_target_squaretriangles.svg	stimuli_distractor_trianglediamonds.svg	3	yes	0	0	2000	6	5	antiphase_hc_osi.wav	2	6	4	noise_calib_stim_RIGHT.wav	2	22	blb_dichoticlistening_ka-ka.mp3	ka	ka	0	left
6.6.1	and	2023-07-06	21:46:54	22:01:39	849977	60f5917414ac7d222d22db64	1	1	main_slash	24	advance_on_keypress_SLASH	122	stimuli_target_squaretriangles.svg	stimuli_distractor_trianglediamonds.svg	3	yes	57	0	600	6	5	antiphase_hc_osi.wav	2	6	4	noise_calib_stim_RIGHT.wav	2	22	blb_dichoticlistening_ka-ka.mp3	ka	ka	0	left
6.6.1	and	2023-07-06	21:46:54	22:01:41	852044	60f5917414ac7d222d22db64	1	1	main_slash	24	main_slash	123	stimuli_target_rectangletriangles.svg	stimuli_distractor_diamondtriangles.svg	5	yes	53	1	835	6	5	antiphase_hc_osi.wav	2	6	4	noise_calib_stim_RIGHT.wav	2	22	blb_dichoticlistening_ka-ka.mp3	ka	ka	0	left
6.6.1	and	2023-07-06	21:46:54	22:01:41	852044	60f5917414ac7d222d22db64	1	1	main_slash	24	advance_on_keypress_SLASH	124	stimuli_target_rectangletriangles.svg	stimuli_distractor_diamondtriangles.svg	5	yes	57	0	368	6	5	antiphase_hc_osi.wav	2	6	4	noise_calib_stim_RIGHT.wav	2	22	blb_dichoticlistening_ka-ka.mp3	ka	ka	0	left
6.6.1	and	2023-07-06	21:46:54	22:01:42	853526	60f5917414ac7d222d22db64	1	1	main_slash	24	main_slash	125	stimuli_target_squarediamonds.svg	stimuli_distractor_trianglediamonds.svg	4	yes	53	1	483	6	5	antiphase_hc_osi.wav	2	6	4	noise_calib_stim_RIGHT.wav	2	22	blb_dichoticlistening_ka-ka.mp3	ka	ka	0	left
6.6.1	and	2023-07-06	21:46:54	22:01:42	853526	60f5917414ac7d222d22db64	1	1	main_slash	24	advance_on_keypress_SLASH	126	stimuli_target_squarediamonds.svg	stimuli_distractor_trianglediamonds.svg	4	yes	57	0	422	6	5	antiphase_hc_osi.wav	2	6	4	noise_calib_stim_RIGHT.wav	2	22	blb_dichoticlistening_ka-ka.mp3	ka	ka	0	left
6.6.1	and	2023-07-06	21:46:54	22:01:44	855084	60f5917414ac7d222d22db64	1	1	main_slash	24	main_slash	127	stimuli_target_squaretriangles.svg	stimuli_distractor_diamondtriangles.svg	7	yes	53	1	509	6	5	antiphase_hc_osi.wav	2	6	4	noise_calib_stim_RIGHT.wav	2	22	blb_dichoticlistening_ka-ka.mp3	ka	ka	0	left
6.6.1	and	2023-07-06	21:46:54	22:01:44	855084	60f5917414ac7d222d22db64	1	1	main_slash	24	advance_on_keypress_SLASH	128	stimuli_target_squaretriangles.svg	stimuli_distractor_diamondtriangles.svg	7	yes	57	0	379	6	5	antiphase_hc_osi.wav	2	6	4	noise_calib_stim_RIGHT.wav	2	22	blb_dichoticlistening_ka-ka.mp3	ka	ka	0	left
6.6.1	and	2023-07-06	21:46:54	22:01:46	857191	60f5917414ac7d222d22db64	1	1	main_slash	24	main_slash	129	stimuli_distractor_diamondtriangles.svg	stimuli_target_trianglesquares.svg	30	yes	53	1	1082	6	5	antiphase_hc_osi.wav	2	6	4	noise_calib_stim_RIGHT.wav	2	22	blb_dichoticlistening_ka-ka.mp3	ka	ka	0	left
6.6.1	and	2023-07-06	21:46:54	22:01:46	857191	60f5917414ac7d222d22db64	1	1	main_slash	24	advance_on_keypress_SLASH	130	stimuli_distractor_diamondtriangles.svg	stimuli_target_trianglesquares.svg	30	yes	57	0	361	6	5	antiphase_hc_osi.wav	2	6	4	noise_calib_stim_RIGHT.wav	2	22	blb_dichoticlistening_ka-ka.mp3	ka	ka	0	left
6.6.1	and	2023-07-06	21:46:54	22:01:48	858864	60f5917414ac7d222d22db64	1	1	main_slash	24	main_slash	131	stimuli_target_trianglerectangles.svg	stimuli_distractor_trianglediamonds.svg	17	yes	53	1	673	6	5	antiphase_hc_osi.wav	2	6	4	noise_calib_stim_RIGHT.wav	2	22	blb_dichoticlistening_ka-ka.mp3	ka	ka	0	left
6.6.1	and	2023-07-06	21:46:54	22:01:48	858864	60f5917414ac7d222d22db64	1	1	main_slash	24	advance_on_keypress_SLASH	132	stimuli_target_trianglerectangles.svg	stimuli_distractor_trianglediamonds.svg	17	yes	57	0	385	6	5	antiphase_hc_osi.wav	2	6	4	noise_calib_stim_RIGHT.wav	2	22	blb_dichoticlistening_ka-ka.mp3	ka	ka	0	left
6.6.1	and	2023-07-06	21:46:54	22:01:51	861877	60f5917414ac7d222d22db64	1	1	main_slash	24	main_slash	133	stimuli_target_rectanglediamonds.svg	stimuli_distractor_diamondtriangles.svg	6	yes	0	0	2000	6	5	antiphase_hc_osi.wav	2	6	4	noise_calib_stim_RIGHT.wav	2	22	blb_dichoticlistening_ka-ka.mp3	ka	ka	0	left
6.6.1	and	2023-07-06	21:46:54	22:01:51	861877	60f5917414ac7d222d22db64	1	1	main_slash	24	advance_on_keypress_SLASH	134	stimuli_target_rectanglediamonds.svg	stimuli_distractor_diamondtriangles.svg	6	yes	57	0	425	6	5	antiphase_hc_osi.wav	2	6	4	noise_calib_stim_RIGHT.wav	2	22	blb_dichoticlistening_ka-ka.mp3	ka	ka	0	left
6.6.1	and	2023-07-06	21:46:54	22:01:53	863560	60f5917414ac7d222d22db64	1	1	main_slash	24	main_slash	135	stimuli_target_rectanglediamonds.svg	stimuli_distractor_trianglediamonds.svg	2	yes	53	1	618	6	5	antiphase_hc_osi.wav	2	6	4	noise_calib_stim_RIGHT.wav	2	22	blb_dichoticlistening_ka-ka.mp3	ka	ka	0	left
6.6.1	and	2023-07-06	21:46:54	22:01:53	863560	60f5917414ac7d222d22db64	1	1	main_slash	24	advance_on_keypress_SLASH	136	stimuli_target_rectanglediamonds.svg	stimuli_distractor_trianglediamonds.svg	2	yes	57	0	373	6	5	antiphase_hc_osi.wav	2	6	4	noise_calib_stim_RIGHT.wav	2	22	blb_dichoticlistening_ka-ka.mp3	ka	ka	0	left
6.6.1	and	2023-07-06	21:46:54	22:01:54	864973	60f5917414ac7d222d22db64	1	1	main_slash	24	main_slash	137	stimuli_distractor_diamondtriangles.svg	stimuli_target_rectanglediamonds.svg	14	yes	53	1	414	6	5	antiphase_hc_osi.wav	2	6	4	noise_calib_stim_RIGHT.wav	2	22	blb_dichoticlistening_ka-ka.mp3	ka	ka	0	left
6.6.1	and	2023-07-06	21:46:54	22:01:54	864973	60f5917414ac7d222d22db64	1	1	main_slash	24	advance_on_keypress_SLASH	138	stimuli_distractor_diamondtriangles.svg	stimuli_target_rectanglediamonds.svg	14	yes	57	0	372	6	5	antiphase_hc_osi.wav	2	6	4	noise_calib_stim_RIGHT.wav	2	22	blb_dichoticlistening_ka-ka.mp3	ka	ka	0	left
6.6.1	and	2023-07-06	21:46:54	22:01:57	867976	60f5917414ac7d222d22db64	1	1	main_slash	24	main_slash	139	stimuli_distractor_trianglediamonds.svg	stimuli_distractor_trianglediamonds.svg	34	no	0	1	2000	6	5	antiphase_hc_osi.wav	2	6	4	noise_calib_stim_RIGHT.wav	2	22	blb_dichoticlistening_ka-ka.mp3	ka	ka	0	left
6.6.1	and	2023-07-06	21:46:54	22:01:57	867976	60f5917414ac7d222d22db64	1	1	main_slash	24	advance_on_keypress_SLASH	140	stimuli_distractor_trianglediamonds.svg	stimuli_distractor_trianglediamonds.svg	34	no	57	0	285	6	5	antiphase_hc_osi.wav	2	6	4	noise_calib_stim_RIGHT.wav	2	22	blb_dichoticlistening_ka-ka.mp3	ka	ka	0	left
6.6.1	and	2023-07-06	21:46:54	22:01:59	869857	60f5917414ac7d222d22db64	1	1	main_slash	24	main_slash	141	stimuli_target_diamondrectangles.svg	stimuli_distractor_trianglediamonds.svg	19	yes	53	1	964	6	5	antiphase_hc_osi.wav	2	6	4	noise_calib_stim_RIGHT.wav	2	22	blb_dichoticlistening_ka-ka.mp3	ka	ka	0	left
6.6.1	and	2023-07-06	21:46:54	22:01:59	869857	60f5917414ac7d222d22db64	1	1	main_slash	24	advance_on_keypress_SLASH	142	stimuli_target_diamondrectangles.svg	stimuli_distractor_trianglediamonds.svg	19	yes	57	0	359	6	5	antiphase_hc_osi.wav	2	6	4	noise_calib_stim_RIGHT.wav	2	22	blb_dichoticlistening_ka-ka.mp3	ka	ka	0	left
6.6.1	and	2023-07-06	21:46:54	22:02:00	871481	60f5917414ac7d222d22db64	1	1	main_slash	24	main_slash	143	stimuli_distractor_trianglediamonds.svg	stimuli_target_rectanglediamonds.svg	10	yes	53	1	622	6	5	antiphase_hc_osi.wav	2	6	4	noise_calib_stim_RIGHT.wav	2	22	blb_dichoticlistening_ka-ka.mp3	ka	ka	0	left
6.6.1	and	2023-07-06	21:46:54	22:02:00	871481	60f5917414ac7d222d22db64	1	1	main_slash	24	advance_on_keypress_SLASH	144	stimuli_distractor_trianglediamonds.svg	stimuli_target_rectanglediamonds.svg	10	yes	57	0	346	6	5	antiphase_hc_osi.wav	2	6	4	noise_calib_stim_RIGHT.wav	2	22	blb_dichoticlistening_ka-ka.mp3	ka	ka	0	left
6.6.1	and	2023-07-06	21:46:54	22:02:02	873166	60f5917414ac7d222d22db64	1	1	main_slash	24	main_slash	145	stimuli_distractor_trianglediamonds.svg	stimuli_target_trianglesquares.svg	26	yes	53	1	706	6	5	antiphase_hc_osi.wav	2	6	4	noise_calib_stim_RIGHT.wav	2	22	blb_dichoticlistening_ka-ka.mp3	ka	ka	0	left
6.6.1	and	2023-07-06	21:46:54	22:02:02	873166	60f5917414ac7d222d22db64	1	1	main_slash	24	advance_on_keypress_SLASH	146	stimuli_distractor_trianglediamonds.svg	stimuli_target_trianglesquares.svg	26	yes	57	0	326	6	5	antiphase_hc_osi.wav	2	6	4	noise_calib_stim_RIGHT.wav	2	22	blb_dichoticlistening_ka-ka.mp3	ka	ka	0	left
6.6.1	and	2023-07-06	21:46:54	22:02:04	874726	60f5917414ac7d222d22db64	1	1	main_slash	24	main_slash	147	stimuli_distractor_trianglediamonds.svg	stimuli_distractor_diamondtriangles.svg	36	no	53	0	584	6	5	antiphase_hc_osi.wav	2	6	4	noise_calib_stim_RIGHT.wav	2	22	blb_dichoticlistening_ka-ka.mp3	ka	ka	0	left
6.6.1	and	2023-07-06	21:46:54	22:02:04	874726	60f5917414ac7d222d22db64	1	1	main_slash	24	advance_on_keypress_SLASH	148	stimuli_distractor_trianglediamonds.svg	stimuli_distractor_diamondtriangles.svg	36	no	57	0	374	6	5	antiphase_hc_osi.wav	2	6	4	noise_calib_stim_RIGHT.wav	2	22	blb_dichoticlistening_ka-ka.mp3	ka	ka	0	left
6.6.1	and	2023-07-06	21:46:54	22:02:06	876559	60f5917414ac7d222d22db64	1	1	main_slash	24	main_slash	149	stimuli_distractor_diamondtriangles.svg	stimuli_target_rectangletriangles.svg	13	yes	53	1	832	6	5	antiphase_hc_osi.wav	2	6	4	noise_calib_stim_RIGHT.wav	2	22	blb_dichoticlistening_ka-ka.mp3	ka	ka	0	left
6.6.1	and	2023-07-06	21:46:54	22:02:06	876559	60f5917414ac7d222d22db64	1	1	main_slash	24	advance_on_keypress_SLASH	150	stimuli_distractor_diamondtriangles.svg	stimuli_target_rectangletriangles.svg	13	yes	57	0	373	6	5	antiphase_hc_osi.wav	2	6	4	noise_calib_stim_RIGHT.wav	2	22	blb_dichoticlistening_ka-ka.mp3	ka	ka	0	left
6.6.1	and	2023-07-06	21:46:54	22:02:09	879559	60f5917414ac7d222d22db64	1	1	main_slash	24	main_slash	151	stimuli_distractor_diamondtriangles.svg	stimuli_distractor_trianglediamonds.svg	38	no	0	1	2000	6	5	antiphase_hc_osi.wav	2	6	4	noise_calib_stim_RIGHT.wav	2	22	blb_dichoticlistening_ka-ka.mp3	ka	ka	0	left
6.6.1	and	2023-07-06	21:46:54	22:02:09	879559	60f5917414ac7d222d22db64	1	1	main_slash	24	advance_on_keypress_SLASH	152	stimuli_distractor_diamondtriangles.svg	stimuli_distractor_trianglediamonds.svg	38	no	57	0	272	6	5	antiphase_hc_osi.wav	2	6	4	noise_calib_stim_RIGHT.wav	2	22	blb_dichoticlistening_ka-ka.mp3	ka	ka	0	left
6.6.1	and	2023-07-06	21:46:54	22:02:10	880989	60f5917414ac7d222d22db64	1	1	main_slash	24	main_slash	153	stimuli_distractor_diamondtriangles.svg	stimuli_target_squaretriangles.svg	15	yes	53	1	532	6	5	antiphase_hc_osi.wav	2	6	4	noise_calib_stim_RIGHT.wav	2	22	blb_dichoticlistening_ka-ka.mp3	ka	ka	0	left
6.6.1	and	2023-07-06	21:46:54	22:02:10	880989	60f5917414ac7d222d22db64	1	1	main_slash	24	advance_on_keypress_SLASH	154	stimuli_distractor_diamondtriangles.svg	stimuli_target_squaretriangles.svg	15	yes	57	0	381	6	5	antiphase_hc_osi.wav	2	6	4	noise_calib_stim_RIGHT.wav	2	22	blb_dichoticlistening_ka-ka.mp3	ka	ka	0	left
6.6.1	and	2023-07-06	21:46:54	22:02:12	882557	60f5917414ac7d222d22db64	1	1	main_slash	24	main_slash	155	stimuli_distractor_trianglediamonds.svg	stimuli_target_diamondrectangles.svg	27	yes	53	1	548	6	5	antiphase_hc_osi.wav	2	6	4	noise_calib_stim_RIGHT.wav	2	22	blb_dichoticlistening_ka-ka.mp3	ka	ka	0	left
6.6.1	and	2023-07-06	21:46:54	22:02:12	882557	60f5917414ac7d222d22db64	1	1	main_slash	24	advance_on_keypress_SLASH	156	stimuli_distractor_trianglediamonds.svg	stimuli_target_diamondrectangles.svg	27	yes	57	0	347	6	5	antiphase_hc_osi.wav	2	6	4	noise_calib_stim_RIGHT.wav	2	22	blb_dichoticlistening_ka-ka.mp3	ka	ka	0	left
6.6.1	and	2023-07-06	21:46:54	22:02:13	884115	60f5917414ac7d222d22db64	1	1	main_slash	24	main_slash	157	stimuli_distractor_diamondtriangles.svg	stimuli_distractor_trianglediamonds.svg	37	no	53	0	574	6	5	antiphase_hc_osi.wav	2	6	4	noise_calib_stim_RIGHT.wav	2	22	blb_dichoticlistening_ka-ka.mp3	ka	ka	0	left
6.6.1	and	2023-07-06	21:46:54	22:02:13	884115	60f5917414ac7d222d22db64	1	1	main_slash	24	advance_on_keypress_SLASH	158	stimuli_distractor_diamondtriangles.svg	stimuli_distractor_trianglediamonds.svg	37	no	57	0	843	6	5	antiphase_hc_osi.wav	2	6	4	noise_calib_stim_RIGHT.wav	2	22	blb_dichoticlistening_ka-ka.mp3	ka	ka	0	left
6.6.1	and	2023-07-06	21:46:54	22:02:15	886213	60f5917414ac7d222d22db64	1	1	main_slash	24	main_slash	159	stimuli_distractor_trianglediamonds.svg	stimuli_target_trianglerectangles.svg	25	yes	53	1	622	6	5	antiphase_hc_osi.wav	2	6	4	noise_calib_stim_RIGHT.wav	2	22	blb_dichoticlistening_ka-ka.mp3	ka	ka	0	left
6.6.1	and	2023-07-06	21:46:54	22:02:15	886213	60f5917414ac7d222d22db64	1	1	main_slash	24	advance_on_keypress_SLASH	160	stimuli_distractor_trianglediamonds.svg	stimuli_target_trianglerectangles.svg	25	yes	57	0	387	6	5	antiphase_hc_osi.wav	2	6	4	noise_calib_stim_RIGHT.wav	2	22	blb_dichoticlistening_ka-ka.mp3	ka	ka	0	left
6.6.1	and	2023-07-06	21:46:54	22:02:54	924813	60f5917414ac7d222d22db64	1	1	practice_z	26	practice_z	1	stimuli_distractor_trianglediamonds.svg	stimuli_distractor_trianglediamonds.svg	15	no	0	1	2000	6	5	antiphase_hc_osi.wav	2	6	4	noise_calib_stim_RIGHT.wav	2	22	blb_dichoticlistening_ka-ka.mp3	ka	ka	0	left
6.6.1	and	2023-07-06	21:46:54	22:02:54	924813	60f5917414ac7d222d22db64	1	1	practice_z	26	advance_on_keypress_ZEE	2	stimuli_distractor_trianglediamonds.svg	stimuli_distractor_trianglediamonds.svg	15	no	57	0	369	6	5	antiphase_hc_osi.wav	2	6	4	noise_calib_stim_RIGHT.wav	2	22	blb_dichoticlistening_ka-ka.mp3	ka	ka	0	left
6.6.1	and	2023-07-06	21:46:54	22:02:56	927364	60f5917414ac7d222d22db64	1	1	practice_z	26	practice_z	3	stimuli_target_diamondsquares.svg	stimuli_distractor_trianglediamonds.svg	6	yes	44	1	539	6	5	antiphase_hc_osi.wav	2	6	4	noise_calib_stim_RIGHT.wav	2	22	blb_dichoticlistening_ka-ka.mp3	ka	ka	0	left
6.6.1	and	2023-07-06	21:46:54	22:02:56	927364	60f5917414ac7d222d22db64	1	1	practice_z	26	advance_on_keypress_ZEE	4	stimuli_target_diamondsquares.svg	stimuli_distractor_trianglediamonds.svg	6	yes	57	0	303	6	5	antiphase_hc_osi.wav	2	6	4	noise_calib_stim_RIGHT.wav	2	22	blb_dichoticlistening_ka-ka.mp3	ka	ka	0	left
6.6.1	and	2023-07-06	21:46:54	22:02:59	929830	60f5917414ac7d222d22db64	1	1	practice_z	26	practice_z	5	stimuli_distractor_diamondtriangles.svg	stimuli_target_trianglerectangles.svg	9	yes	44	1	524	6	5	antiphase_hc_osi.wav	2	6	4	noise_calib_stim_RIGHT.wav	2	22	blb_dichoticlistening_ka-ka.mp3	ka	ka	0	left
6.6.1	and	2023-07-06	21:46:54	22:02:59	929830	60f5917414ac7d222d22db64	1	1	practice_z	26	advance_on_keypress_ZEE	6	stimuli_distractor_diamondtriangles.svg	stimuli_target_trianglerectangles.svg	9	yes	57	0	69	6	5	antiphase_hc_osi.wav	2	6	4	noise_calib_stim_RIGHT.wav	2	22	blb_dichoticlistening_ka-ka.mp3	ka	ka	0	left
6.6.1	and	2023-07-06	21:46:54	22:03:01	932146	60f5917414ac7d222d22db64	1	1	practice_z	26	practice_z	7	stimuli_distractor_trianglediamonds.svg	stimuli_target_rectanglediamonds.svg	10	yes	44	1	605	6	5	antiphase_hc_osi.wav	2	6	4	noise_calib_stim_RIGHT.wav	2	22	blb_dichoticlistening_ka-ka.mp3	ka	ka	0	left
6.6.1	and	2023-07-06	21:46:54	22:03:01	932146	60f5917414ac7d222d22db64	1	1	practice_z	26	advance_on_keypress_ZEE	8	stimuli_distractor_trianglediamonds.svg	stimuli_target_rectanglediamonds.svg	10	yes	57	0	277	6	5	antiphase_hc_osi.wav	2	6	4	noise_calib_stim_RIGHT.wav	2	22	blb_dichoticlistening_ka-ka.mp3	ka	ka	0	left
6.6.1	and	2023-07-06	21:46:54	22:03:05	936060	60f5917414ac7d222d22db64	1	1	practice_z	26	practice_z	9	stimuli_distractor_diamondtriangles.svg	stimuli_distractor_trianglediamonds.svg	14	no	0	1	2000	6	5	antiphase_hc_osi.wav	2	6	4	noise_calib_stim_RIGHT.wav	2	22	blb_dichoticlistening_ka-ka.mp3	ka	ka	0	left
6.6.1	and	2023-07-06	21:46:54	22:03:05	936060	60f5917414ac7d222d22db64	1	1	practice_z	26	advance_on_keypress_ZEE	10	stimuli_distractor_diamondtriangles.svg	stimuli_distractor_trianglediamonds.svg	14	no	57	0	499	6	5	antiphase_hc_osi.wav	2	6	4	noise_calib_stim_RIGHT.wav	2	22	blb_dichoticlistening_ka-ka.mp3	ka	ka	0	left
6.6.1	and	2023-07-06	21:46:54	22:03:08	938704	60f5917414ac7d222d22db64	1	1	practice_z	26	practice_z	11	stimuli_target_squarediamonds.svg	stimuli_distractor_trianglediamonds.svg	5	yes	44	1	511	6	5	antiphase_hc_osi.wav	2	6	4	noise_calib_stim_RIGHT.wav	2	22	blb_dichoticlistening_ka-ka.mp3	ka	ka	0	left
6.6.1	and	2023-07-06	21:46:54	22:03:08	938704	60f5917414ac7d222d22db64	1	1	practice_z	26	advance_on_keypress_ZEE	12	stimuli_target_squarediamonds.svg	stimuli_distractor_trianglediamonds.svg	5	yes	57	0	416	6	5	antiphase_hc_osi.wav	2	6	4	noise_calib_stim_RIGHT.wav	2	22	blb_dichoticlistening_ka-ka.mp3	ka	ka	0	left
6.6.1	and	2023-07-06	21:46:54	22:03:12	942760	60f5917414ac7d222d22db64	1	1	practice_z	26	practice_z	13	stimuli_distractor_trianglediamonds.svg	stimuli_distractor_diamondtriangles.svg	16	no	0	1	2000	6	5	antiphase_hc_osi.wav	2	6	4	noise_calib_stim_RIGHT.wav	2	22	blb_dichoticlistening_ka-ka.mp3	ka	ka	0	left
6.6.1	and	2023-07-06	21:46:54	22:03:12	942760	60f5917414ac7d222d22db64	1	1	practice_z	26	advance_on_keypress_ZEE	14	stimuli_distractor_trianglediamonds.svg	stimuli_distractor_diamondtriangles.svg	16	no	57	0	348	6	5	antiphase_hc_osi.wav	2	6	4	noise_calib_stim_RIGHT.wav	2	22	blb_dichoticlistening_ka-ka.mp3	ka	ka	0	left
