build	computer.platform	date	time	timestamp	time_elapsed_ms	subject	group	session	blockcode	blocknum	trialcode	trialnum	stimulus_left	stimulus_right	stim_index	target_present	response	correct	latency	headphonecheck_countTestTrials	headphonecheck_index	headphonecheck_testSound	headphonecheck_correctResponse	stereocheck_countTestTrials	stereocheck_index	stereocheck_testSound	stereocheck_correctResponse	DL_index	DL_soundfile	DL_leftSound	DL_rightSound	DL_dualSound	DL_choice
6.6.1	win	2023-07-06	23:34:41	23:37:15	150900	5809006b2a296e0001005451	3	1	practice_slash	5	practice_slash	1	stimuli_distractor_trianglediamonds.svg	stimuli_distractor_diamondtriangles.svg	16	no	0	1	2000	0	0			0	0			1				0	
6.6.1	win	2023-07-06	23:34:41	23:37:15	150900	5809006b2a296e0001005451	3	1	practice_slash	5	advance_on_keypress_SLASH	2	stimuli_distractor_trianglediamonds.svg	stimuli_distractor_diamondtriangles.svg	16	no	57	0	1452	0	0			0	0			1				0	
6.6.1	win	2023-07-06	23:34:41	23:37:19	154544	5809006b2a296e0001005451	3	1	practice_slash	5	practice_slash	3	stimuli_distractor_trianglediamonds.svg	stimuli_target_squarediamonds.svg	11	yes	53	1	545	0	0			0	0			1				0	
6.6.1	win	2023-07-06	23:34:41	23:37:19	154544	5809006b2a296e0001005451	3	1	practice_slash	5	advance_on_keypress_SLASH	4	stimuli_distractor_trianglediamonds.svg	stimuli_target_squarediamonds.svg	11	yes	57	0	1051	0	0			0	0			1				0	
6.6.1	win	2023-07-06	23:34:41	23:37:22	157961	5809006b2a296e0001005451	3	1	practice_slash	5	practice_slash	5	stimuli_distractor_diamondtriangles.svg	stimuli_target_diamondrectangles.svg	8	yes	53	1	728	0	0			0	0			1				0	
6.6.1	win	2023-07-06	23:34:41	23:37:22	157961	5809006b2a296e0001005451	3	1	practice_slash	5	advance_on_keypress_SLASH	6	stimuli_distractor_diamondtriangles.svg	stimuli_target_diamondrectangles.svg	8	yes	57	0	450	0	0			0	0			1				0	
6.6.1	win	2023-07-06	23:34:41	23:37:25	160599	5809006b2a296e0001005451	3	1	practice_slash	5	practice_slash	7	stimuli_target_squarediamonds.svg	stimuli_distractor_diamondtriangles.svg	2	yes	53	1	551	0	0			0	0			1				0	
6.6.1	win	2023-07-06	23:34:41	23:37:25	160599	5809006b2a296e0001005451	3	1	practice_slash	5	advance_on_keypress_SLASH	8	stimuli_target_squarediamonds.svg	stimuli_distractor_diamondtriangles.svg	2	yes	57	0	440	0	0			0	0			1				0	
6.6.1	win	2023-07-06	23:34:41	23:37:28	163416	5809006b2a296e0001005451	3	1	practice_slash	5	practice_slash	9	stimuli_target_rectanglediamonds.svg	stimuli_distractor_trianglediamonds.svg	4	yes	53	1	734	0	0			0	0			1				0	
6.6.1	win	2023-07-06	23:34:41	23:37:28	163416	5809006b2a296e0001005451	3	1	practice_slash	5	advance_on_keypress_SLASH	10	stimuli_target_rectanglediamonds.svg	stimuli_distractor_trianglediamonds.svg	4	yes	57	0	519	0	0			0	0			1				0	
6.6.1	win	2023-07-06	23:34:41	23:37:32	167582	5809006b2a296e0001005451	3	1	practice_slash	5	practice_slash	11	stimuli_distractor_diamondtriangles.svg	stimuli_distractor_trianglediamonds.svg	14	no	0	1	2000	0	0			0	0			1				0	
6.6.1	win	2023-07-06	23:34:41	23:37:32	167582	5809006b2a296e0001005451	3	1	practice_slash	5	advance_on_keypress_SLASH	12	stimuli_distractor_diamondtriangles.svg	stimuli_distractor_trianglediamonds.svg	14	no	57	0	449	0	0			0	0			1				0	
6.6.1	win	2023-07-06	23:34:41	23:37:35	170503	5809006b2a296e0001005451	3	1	practice_slash	5	practice_slash	13	stimuli_target_diamondsquares.svg	stimuli_distractor_trianglediamonds.svg	6	yes	53	1	823	0	0			0	0			1				0	
6.6.1	win	2023-07-06	23:34:41	23:37:35	170503	5809006b2a296e0001005451	3	1	practice_slash	5	advance_on_keypress_SLASH	14	stimuli_target_diamondsquares.svg	stimuli_distractor_trianglediamonds.svg	6	yes	57	0	548	0	0			0	0			1				0	
6.6.1	win	2023-07-06	23:34:41	23:37:38	173560	5809006b2a296e0001005451	3	1	practice_slash	5	practice_slash	15	stimuli_distractor_diamondtriangles.svg	stimuli_target_rectangletriangles.svg	7	yes	53	1	862	0	0			0	0			1				0	
6.6.1	win	2023-07-06	23:34:41	23:37:38	173560	5809006b2a296e0001005451	3	1	practice_slash	5	advance_on_keypress_SLASH	16	stimuli_distractor_diamondtriangles.svg	stimuli_target_rectangletriangles.svg	7	yes	57	0	330	0	0			0	0			1				0	
6.6.1	win	2023-07-06	23:34:41	23:37:40	176112	5809006b2a296e0001005451	3	1	practice_slash	5	practice_slash	17	stimuli_target_rectanglediamonds.svg	stimuli_distractor_diamondtriangles.svg	1	yes	53	1	581	0	0			0	0			1				0	
6.6.1	win	2023-07-06	23:34:41	23:37:40	176112	5809006b2a296e0001005451	3	1	practice_slash	5	advance_on_keypress_SLASH	18	stimuli_target_rectanglediamonds.svg	stimuli_distractor_diamondtriangles.svg	1	yes	57	0	524	0	0			0	0			1				0	
6.6.1	win	2023-07-06	23:34:41	23:37:43	179128	5809006b2a296e0001005451	3	1	practice_slash	5	practice_slash	19	stimuli_target_diamondsquares.svg	stimuli_distractor_diamondtriangles.svg	3	yes	53	1	847	0	0			0	0			1				0	
6.6.1	win	2023-07-06	23:34:41	23:37:43	179128	5809006b2a296e0001005451	3	1	practice_slash	5	advance_on_keypress_SLASH	20	stimuli_target_diamondsquares.svg	stimuli_distractor_diamondtriangles.svg	3	yes	57	0	444	0	0			0	0			1				0	
6.6.1	win	2023-07-06	23:34:41	23:37:46	182152	5809006b2a296e0001005451	3	1	practice_slash	5	practice_slash	21	stimuli_distractor_diamondtriangles.svg	stimuli_target_trianglerectangles.svg	9	yes	53	1	953	0	0			0	0			1				0	
6.6.1	win	2023-07-06	23:34:41	23:37:46	182152	5809006b2a296e0001005451	3	1	practice_slash	5	advance_on_keypress_SLASH	22	stimuli_distractor_diamondtriangles.svg	stimuli_target_trianglerectangles.svg	9	yes	57	0	323	0	0			0	0			1				0	
6.6.1	win	2023-07-06	23:34:41	23:37:49	184855	5809006b2a296e0001005451	3	1	practice_slash	5	practice_slash	23	stimuli_distractor_trianglediamonds.svg	stimuli_target_rectanglediamonds.svg	10	yes	53	1	741	0	0			0	0			1				0	
6.6.1	win	2023-07-06	23:34:41	23:37:49	184855	5809006b2a296e0001005451	3	1	practice_slash	5	advance_on_keypress_SLASH	24	stimuli_distractor_trianglediamonds.svg	stimuli_target_rectanglediamonds.svg	10	yes	57	0	319	0	0			0	0			1				0	
6.6.1	win	2023-07-06	23:34:41	23:37:52	187367	5809006b2a296e0001005451	3	1	practice_slash	5	practice_slash	25	stimuli_target_squarediamonds.svg	stimuli_distractor_trianglediamonds.svg	5	yes	53	1	553	0	0			0	0			1				0	
6.6.1	win	2023-07-06	23:34:41	23:37:52	187367	5809006b2a296e0001005451	3	1	practice_slash	5	advance_on_keypress_SLASH	26	stimuli_target_squarediamonds.svg	stimuli_distractor_trianglediamonds.svg	5	yes	57	0	427	0	0			0	0			1				0	
6.6.1	win	2023-07-06	23:34:41	23:37:56	191431	5809006b2a296e0001005451	3	1	practice_slash	5	practice_slash	27	stimuli_distractor_diamondtriangles.svg	stimuli_distractor_diamondtriangles.svg	13	no	0	1	2000	0	0			0	0			1				0	
6.6.1	win	2023-07-06	23:34:41	23:37:56	191431	5809006b2a296e0001005451	3	1	practice_slash	5	advance_on_keypress_SLASH	28	stimuli_distractor_diamondtriangles.svg	stimuli_distractor_diamondtriangles.svg	13	no	57	0	352	0	0			0	0			1				0	
6.6.1	win	2023-07-06	23:34:41	23:38:00	195431	5809006b2a296e0001005451	3	1	practice_slash	5	practice_slash	29	stimuli_distractor_trianglediamonds.svg	stimuli_distractor_trianglediamonds.svg	15	no	0	1	2000	0	0			0	0			1				0	
6.6.1	win	2023-07-06	23:34:41	23:38:00	195431	5809006b2a296e0001005451	3	1	practice_slash	5	advance_on_keypress_SLASH	30	stimuli_distractor_trianglediamonds.svg	stimuli_distractor_trianglediamonds.svg	15	no	57	0	320	0	0			0	0			1				0	
6.6.1	win	2023-07-06	23:34:41	23:38:03	198295	5809006b2a296e0001005451	3	1	practice_slash	5	practice_slash	31	stimuli_distractor_trianglediamonds.svg	stimuli_target_diamondrectangles.svg	12	yes	53	1	898	0	0			0	0			1				0	
6.6.1	win	2023-07-06	23:34:41	23:38:03	198295	5809006b2a296e0001005451	3	1	practice_slash	5	advance_on_keypress_SLASH	32	stimuli_distractor_trianglediamonds.svg	stimuli_target_diamondrectangles.svg	12	yes	57	0	461	0	0			0	0			1				0	
6.6.1	win	2023-07-06	23:34:41	23:38:45	241183	5809006b2a296e0001005451	3	1	main_slash	7	main_slash	1	stimuli_target_trianglerectangles.svg	stimuli_distractor_trianglediamonds.svg	17	yes	53	1	754	0	0			0	0			1				0	
6.6.1	win	2023-07-06	23:34:41	23:38:45	241183	5809006b2a296e0001005451	3	1	main_slash	7	advance_on_keypress_SLASH	2	stimuli_target_trianglerectangles.svg	stimuli_distractor_trianglediamonds.svg	17	yes	57	0	851	0	0			0	0			1				0	
6.6.1	win	2023-07-06	23:34:41	23:38:48	243487	5809006b2a296e0001005451	3	1	main_slash	7	main_slash	3	stimuli_target_trianglesquares.svg	stimuli_distractor_trianglediamonds.svg	18	yes	53	1	808	0	0			0	0			1				0	
6.6.1	win	2023-07-06	23:34:41	23:38:48	243487	5809006b2a296e0001005451	3	1	main_slash	7	advance_on_keypress_SLASH	4	stimuli_target_trianglesquares.svg	stimuli_distractor_trianglediamonds.svg	18	yes	57	0	319	0	0			0	0			1				0	
6.6.1	win	2023-07-06	23:34:41	23:38:49	245159	5809006b2a296e0001005451	3	1	main_slash	7	main_slash	5	stimuli_distractor_diamondtriangles.svg	stimuli_target_trianglesquares.svg	30	yes	53	1	713	0	0			0	0			1				0	
6.6.1	win	2023-07-06	23:34:41	23:38:49	245159	5809006b2a296e0001005451	3	1	main_slash	7	advance_on_keypress_SLASH	6	stimuli_distractor_diamondtriangles.svg	stimuli_target_trianglesquares.svg	30	yes	57	0	373	0	0			0	0			1				0	
6.6.1	win	2023-07-06	23:34:41	23:38:51	247087	5809006b2a296e0001005451	3	1	main_slash	7	main_slash	7	stimuli_distractor_diamondtriangles.svg	stimuli_target_rectanglediamonds.svg	14	yes	53	1	925	0	0			0	0			1				0	
6.6.1	win	2023-07-06	23:34:41	23:38:51	247087	5809006b2a296e0001005451	3	1	main_slash	7	advance_on_keypress_SLASH	8	stimuli_distractor_diamondtriangles.svg	stimuli_target_rectanglediamonds.svg	14	yes	57	0	455	0	0			0	0			1				0	
6.6.1	win	2023-07-06	23:34:41	23:38:54	250179	5809006b2a296e0001005451	3	1	main_slash	7	main_slash	9	stimuli_distractor_diamondtriangles.svg	stimuli_distractor_trianglediamonds.svg	37	no	0	1	2000	0	0			0	0			1				0	
6.6.1	win	2023-07-06	23:34:41	23:38:54	250179	5809006b2a296e0001005451	3	1	main_slash	7	advance_on_keypress_SLASH	10	stimuli_distractor_diamondtriangles.svg	stimuli_distractor_trianglediamonds.svg	37	no	57	0	372	0	0			0	0			1				0	
6.6.1	win	2023-07-06	23:34:41	23:38:56	252039	5809006b2a296e0001005451	3	1	main_slash	7	main_slash	11	stimuli_target_squarediamonds.svg	stimuli_distractor_trianglediamonds.svg	4	yes	53	1	844	0	0			0	0			1				0	
6.6.1	win	2023-07-06	23:34:41	23:38:56	252039	5809006b2a296e0001005451	3	1	main_slash	7	advance_on_keypress_SLASH	12	stimuli_target_squarediamonds.svg	stimuli_distractor_trianglediamonds.svg	4	yes	57	0	498	0	0			0	0			1				0	
6.6.1	win	2023-07-06	23:34:41	23:38:58	253991	5809006b2a296e0001005451	3	1	main_slash	7	main_slash	13	stimuli_target_rectanglediamonds.svg	stimuli_distractor_diamondtriangles.svg	6	yes	53	1	812	0	0			0	0			1				0	
6.6.1	win	2023-07-06	23:34:41	23:38:58	253991	5809006b2a296e0001005451	3	1	main_slash	7	advance_on_keypress_SLASH	14	stimuli_target_rectanglediamonds.svg	stimuli_distractor_diamondtriangles.svg	6	yes	57	0	452	0	0			0	0			1				0	
6.6.1	win	2023-07-06	23:34:41	23:39:01	257078	5809006b2a296e0001005451	3	1	main_slash	7	main_slash	15	stimuli_distractor_trianglediamonds.svg	stimuli_distractor_trianglediamonds.svg	33	no	0	1	2000	0	0			0	0			1				0	
6.6.1	win	2023-07-06	23:34:41	23:39:01	257078	5809006b2a296e0001005451	3	1	main_slash	7	advance_on_keypress_SLASH	16	stimuli_distractor_trianglediamonds.svg	stimuli_distractor_trianglediamonds.svg	33	no	57	0	384	0	0			0	0			1				0	
6.6.1	win	2023-07-06	23:34:41	23:39:04	260112	5809006b2a296e0001005451	3	1	main_slash	7	main_slash	17	stimuli_distractor_trianglediamonds.svg	stimuli_distractor_diamondtriangles.svg	35	no	0	1	2000	0	0			0	0			1				0	
6.6.1	win	2023-07-06	23:34:41	23:39:04	260112	5809006b2a296e0001005451	3	1	main_slash	7	advance_on_keypress_SLASH	18	stimuli_distractor_trianglediamonds.svg	stimuli_distractor_diamondtriangles.svg	35	no	57	0	310	0	0			0	0			1				0	
6.6.1	win	2023-07-06	23:34:41	23:39:06	262104	5809006b2a296e0001005451	3	1	main_slash	7	main_slash	19	stimuli_target_trianglerectangles.svg	stimuli_distractor_diamondtriangles.svg	21	yes	53	1	1042	0	0			0	0			1				0	
6.6.1	win	2023-07-06	23:34:41	23:39:06	262104	5809006b2a296e0001005451	3	1	main_slash	7	advance_on_keypress_SLASH	20	stimuli_target_trianglerectangles.svg	stimuli_distractor_diamondtriangles.svg	21	yes	57	0	583	0	0			0	0			1				0	
6.6.1	win	2023-07-06	23:34:41	23:39:08	264271	5809006b2a296e0001005451	3	1	main_slash	7	main_slash	21	stimuli_distractor_trianglediamonds.svg	stimuli_target_diamondsquares.svg	28	yes	53	1	944	0	0			0	0			1				0	
6.6.1	win	2023-07-06	23:34:41	23:39:08	264271	5809006b2a296e0001005451	3	1	main_slash	7	advance_on_keypress_SLASH	22	stimuli_distractor_trianglediamonds.svg	stimuli_target_diamondsquares.svg	28	yes	57	0	505	0	0			0	0			1				0	
6.6.1	win	2023-07-06	23:34:41	23:39:11	266535	5809006b2a296e0001005451	3	1	main_slash	7	main_slash	23	stimuli_distractor_trianglediamonds.svg	stimuli_target_diamondrectangles.svg	27	yes	53	1	1124	0	0			0	0			1				0	
6.6.1	win	2023-07-06	23:34:41	23:39:11	266535	5809006b2a296e0001005451	3	1	main_slash	7	advance_on_keypress_SLASH	24	stimuli_distractor_trianglediamonds.svg	stimuli_target_diamondrectangles.svg	27	yes	57	0	518	0	0			0	0			1				0	
6.6.1	win	2023-07-06	23:34:41	23:39:13	268639	5809006b2a296e0001005451	3	1	main_slash	7	main_slash	25	stimuli_distractor_diamondtriangles.svg	stimuli_target_diamondrectangles.svg	31	yes	53	1	945	0	0			0	0			1				0	
6.6.1	win	2023-07-06	23:34:41	23:39:13	268639	5809006b2a296e0001005451	3	1	main_slash	7	advance_on_keypress_SLASH	26	stimuli_distractor_diamondtriangles.svg	stimuli_target_diamondrectangles.svg	31	yes	57	0	370	0	0			0	0			1				0	
6.6.1	win	2023-07-06	23:34:41	23:39:15	270728	5809006b2a296e0001005451	3	1	main_slash	7	main_slash	27	stimuli_distractor_trianglediamonds.svg	stimuli_target_squaretriangles.svg	11	yes	53	1	1082	0	0			0	0			1				0	
6.6.1	win	2023-07-06	23:34:41	23:39:15	270728	5809006b2a296e0001005451	3	1	main_slash	7	advance_on_keypress_SLASH	28	stimuli_distractor_trianglediamonds.svg	stimuli_target_squaretriangles.svg	11	yes	57	0	1374	0	0			0	0			1				0	
6.6.1	win	2023-07-06	23:34:41	23:39:18	273623	5809006b2a296e0001005451	3	1	main_slash	7	main_slash	29	stimuli_distractor_diamondtriangles.svg	stimuli_target_diamondsquares.svg	32	yes	53	1	878	0	0			0	0			1				0	
6.6.1	win	2023-07-06	23:34:41	23:39:18	273623	5809006b2a296e0001005451	3	1	main_slash	7	advance_on_keypress_SLASH	30	stimuli_distractor_diamondtriangles.svg	stimuli_target_diamondsquares.svg	32	yes	57	0	667	0	0			0	0			1				0	
6.6.1	win	2023-07-06	23:34:41	23:39:20	275631	5809006b2a296e0001005451	3	1	main_slash	7	main_slash	31	stimuli_distractor_diamondtriangles.svg	stimuli_target_squarediamonds.svg	16	yes	53	1	703	0	0			0	0			1				0	
6.6.1	win	2023-07-06	23:34:41	23:39:20	275631	5809006b2a296e0001005451	3	1	main_slash	7	advance_on_keypress_SLASH	32	stimuli_distractor_diamondtriangles.svg	stimuli_target_squarediamonds.svg	16	yes	57	0	562	0	0			0	0			1				0	
6.6.1	win	2023-07-06	23:34:41	23:39:22	277575	5809006b2a296e0001005451	3	1	main_slash	7	main_slash	33	stimuli_target_squarediamonds.svg	stimuli_distractor_diamondtriangles.svg	8	yes	53	1	747	0	0			0	0			1				0	
6.6.1	win	2023-07-06	23:34:41	23:39:22	277575	5809006b2a296e0001005451	3	1	main_slash	7	advance_on_keypress_SLASH	34	stimuli_target_squarediamonds.svg	stimuli_distractor_diamondtriangles.svg	8	yes	57	0	653	0	0			0	0			1				0	
6.6.1	win	2023-07-06	23:34:41	23:39:24	279655	5809006b2a296e0001005451	3	1	main_slash	7	main_slash	35	stimuli_target_diamondsquares.svg	stimuli_distractor_diamondtriangles.svg	24	yes	53	1	794	0	0			0	0			1				0	
6.6.1	win	2023-07-06	23:34:41	23:39:24	279655	5809006b2a296e0001005451	3	1	main_slash	7	advance_on_keypress_SLASH	36	stimuli_target_diamondsquares.svg	stimuli_distractor_diamondtriangles.svg	24	yes	57	0	530	0	0			0	0			1				0	
6.6.1	win	2023-07-06	23:34:41	23:39:26	281671	5809006b2a296e0001005451	3	1	main_slash	7	main_slash	37	stimuli_target_squaretriangles.svg	stimuli_distractor_trianglediamonds.svg	3	yes	53	1	860	0	0			0	0			1				0	
6.6.1	win	2023-07-06	23:34:41	23:39:26	281671	5809006b2a296e0001005451	3	1	main_slash	7	advance_on_keypress_SLASH	38	stimuli_target_squaretriangles.svg	stimuli_distractor_trianglediamonds.svg	3	yes	57	0	465	0	0			0	0			1				0	
6.6.1	win	2023-07-06	23:34:41	23:39:28	283687	5809006b2a296e0001005451	3	1	main_slash	7	main_slash	39	stimuli_target_rectangletriangles.svg	stimuli_distractor_diamondtriangles.svg	5	yes	53	1	909	0	0			0	0			1				0	
6.6.1	win	2023-07-06	23:34:41	23:39:28	283687	5809006b2a296e0001005451	3	1	main_slash	7	advance_on_keypress_SLASH	40	stimuli_target_rectangletriangles.svg	stimuli_distractor_diamondtriangles.svg	5	yes	57	0	449	0	0			0	0			1				0	
6.6.1	win	2023-07-06	23:34:41	23:39:31	286778	5809006b2a296e0001005451	3	1	main_slash	7	main_slash	41	stimuli_distractor_trianglediamonds.svg	stimuli_distractor_trianglediamonds.svg	34	no	0	1	2000	0	0			0	0			1				0	
6.6.1	win	2023-07-06	23:34:41	23:39:31	286778	5809006b2a296e0001005451	3	1	main_slash	7	advance_on_keypress_SLASH	42	stimuli_distractor_trianglediamonds.svg	stimuli_distractor_trianglediamonds.svg	34	no	57	0	398	0	0			0	0			1				0	
6.6.1	win	2023-07-06	23:34:41	23:39:33	288663	5809006b2a296e0001005451	3	1	main_slash	7	main_slash	43	stimuli_distractor_diamondtriangles.svg	stimuli_target_trianglerectangles.svg	29	yes	53	1	852	0	0			0	0			1				0	
6.6.1	win	2023-07-06	23:34:41	23:39:33	288663	5809006b2a296e0001005451	3	1	main_slash	7	advance_on_keypress_SLASH	44	stimuli_distractor_diamondtriangles.svg	stimuli_target_trianglerectangles.svg	29	yes	57	0	593	0	0			0	0			1				0	
6.6.1	win	2023-07-06	23:34:41	23:39:35	290767	5809006b2a296e0001005451	3	1	main_slash	7	main_slash	45	stimuli_target_diamondrectangles.svg	stimuli_distractor_diamondtriangles.svg	23	yes	53	1	873	0	0			0	0			1				0	
6.6.1	win	2023-07-06	23:34:41	23:39:35	290767	5809006b2a296e0001005451	3	1	main_slash	7	advance_on_keypress_SLASH	46	stimuli_target_diamondrectangles.svg	stimuli_distractor_diamondtriangles.svg	23	yes	57	0	629	0	0			0	0			1				0	
6.6.1	win	2023-07-06	23:34:41	23:39:37	292927	5809006b2a296e0001005451	3	1	main_slash	7	main_slash	47	stimuli_distractor_diamondtriangles.svg	stimuli_target_rectangletriangles.svg	13	yes	53	1	900	0	0			0	0			1				0	
6.6.1	win	2023-07-06	23:34:41	23:39:37	292927	5809006b2a296e0001005451	3	1	main_slash	7	advance_on_keypress_SLASH	48	stimuli_distractor_diamondtriangles.svg	stimuli_target_rectangletriangles.svg	13	yes	57	0	407	0	0			0	0			1				0	
6.6.1	win	2023-07-06	23:34:41	23:39:40	295978	5809006b2a296e0001005451	3	1	main_slash	7	main_slash	49	stimuli_distractor_diamondtriangles.svg	stimuli_distractor_trianglediamonds.svg	38	no	0	1	2000	0	0			0	0			1				0	
6.6.1	win	2023-07-06	23:34:41	23:39:40	295978	5809006b2a296e0001005451	3	1	main_slash	7	advance_on_keypress_SLASH	50	stimuli_distractor_diamondtriangles.svg	stimuli_distractor_trianglediamonds.svg	38	no	57	0	421	0	0			0	0			1				0	
6.6.1	win	2023-07-06	23:34:41	23:39:42	297759	5809006b2a296e0001005451	3	1	main_slash	7	main_slash	51	stimuli_distractor_diamondtriangles.svg	stimuli_target_squaretriangles.svg	15	yes	53	1	715	0	0			0	0			1				0	
6.6.1	win	2023-07-06	23:34:41	23:39:42	297759	5809006b2a296e0001005451	3	1	main_slash	7	advance_on_keypress_SLASH	52	stimuli_distractor_diamondtriangles.svg	stimuli_target_squaretriangles.svg	15	yes	57	0	678	0	0			0	0			1				0	
6.6.1	win	2023-07-06	23:34:41	23:39:44	299847	5809006b2a296e0001005451	3	1	main_slash	7	main_slash	53	stimuli_target_rectanglediamonds.svg	stimuli_distractor_trianglediamonds.svg	2	yes	53	1	770	0	0			0	0			1				0	
6.6.1	win	2023-07-06	23:34:41	23:39:44	299847	5809006b2a296e0001005451	3	1	main_slash	7	advance_on_keypress_SLASH	54	stimuli_target_rectanglediamonds.svg	stimuli_distractor_trianglediamonds.svg	2	yes	57	0	498	0	0			0	0			1				0	
6.6.1	win	2023-07-06	23:34:41	23:39:46	301799	5809006b2a296e0001005451	3	1	main_slash	7	main_slash	55	stimuli_distractor_trianglediamonds.svg	stimuli_target_rectangletriangles.svg	9	yes	53	1	805	0	0			0	0			1				0	
6.6.1	win	2023-07-06	23:34:41	23:39:46	301799	5809006b2a296e0001005451	3	1	main_slash	7	advance_on_keypress_SLASH	56	stimuli_distractor_trianglediamonds.svg	stimuli_target_rectangletriangles.svg	9	yes	57	0	381	0	0			0	0			1				0	
6.6.1	win	2023-07-06	23:34:41	23:39:48	303503	5809006b2a296e0001005451	3	1	main_slash	7	main_slash	57	stimuli_target_rectangletriangles.svg	stimuli_distractor_trianglediamonds.svg	1	yes	53	1	693	0	0			0	0			1				0	
6.6.1	win	2023-07-06	23:34:41	23:39:48	303503	5809006b2a296e0001005451	3	1	main_slash	7	advance_on_keypress_SLASH	58	stimuli_target_rectangletriangles.svg	stimuli_distractor_trianglediamonds.svg	1	yes	57	0	394	0	0			0	0			1				0	
6.6.1	win	2023-07-06	23:34:41	23:39:50	305815	5809006b2a296e0001005451	3	1	main_slash	7	main_slash	59	stimuli_distractor_trianglediamonds.svg	stimuli_target_trianglesquares.svg	26	yes	53	1	1288	0	0			0	0			1				0	
6.6.1	win	2023-07-06	23:34:41	23:39:50	305815	5809006b2a296e0001005451	3	1	main_slash	7	advance_on_keypress_SLASH	60	stimuli_distractor_trianglediamonds.svg	stimuli_target_trianglesquares.svg	26	yes	57	0	532	0	0			0	0			1				0	
6.6.1	win	2023-07-06	23:34:41	23:39:52	307671	5809006b2a296e0001005451	3	1	main_slash	7	main_slash	61	stimuli_distractor_trianglediamonds.svg	stimuli_target_rectanglediamonds.svg	10	yes	53	1	677	0	0			0	0			1				0	
6.6.1	win	2023-07-06	23:34:41	23:39:52	307671	5809006b2a296e0001005451	3	1	main_slash	7	advance_on_keypress_SLASH	62	stimuli_distractor_trianglediamonds.svg	stimuli_target_rectanglediamonds.svg	10	yes	57	0	402	0	0			0	0			1				0	
6.6.1	win	2023-07-06	23:34:41	23:39:54	309639	5809006b2a296e0001005451	3	1	main_slash	7	main_slash	63	stimuli_target_diamondsquares.svg	stimuli_distractor_trianglediamonds.svg	20	yes	53	1	929	0	0			0	0			1				0	
6.6.1	win	2023-07-06	23:34:41	23:39:54	309639	5809006b2a296e0001005451	3	1	main_slash	7	advance_on_keypress_SLASH	64	stimuli_target_diamondsquares.svg	stimuli_distractor_trianglediamonds.svg	20	yes	57	0	427	0	0			0	0			1				0	
6.6.1	win	2023-07-06	23:34:41	23:39:57	312693	5809006b2a296e0001005451	3	1	main_slash	7	main_slash	65	stimuli_distractor_trianglediamonds.svg	stimuli_distractor_diamondtriangles.svg	36	no	0	1	2000	0	0			0	0			1				0	
6.6.1	win	2023-07-06	23:34:41	23:39:57	312693	5809006b2a296e0001005451	3	1	main_slash	7	advance_on_keypress_SLASH	66	stimuli_distractor_trianglediamonds.svg	stimuli_distractor_diamondtriangles.svg	36	no	57	0	369	0	0			0	0			1				0	
6.6.1	win	2023-07-06	23:34:41	23:39:59	314359	5809006b2a296e0001005451	3	1	main_slash	7	main_slash	67	stimuli_distractor_trianglediamonds.svg	stimuli_target_squarediamonds.svg	12	yes	53	1	649	0	0			0	0			1				0	
6.6.1	win	2023-07-06	23:34:41	23:39:59	314359	5809006b2a296e0001005451	3	1	main_slash	7	advance_on_keypress_SLASH	68	stimuli_distractor_trianglediamonds.svg	stimuli_target_squarediamonds.svg	12	yes	57	0	598	0	0			0	0			1				0	
6.6.1	win	2023-07-06	23:34:41	23:40:02	317610	5809006b2a296e0001005451	3	1	main_slash	7	main_slash	69	stimuli_target_diamondrectangles.svg	stimuli_distractor_trianglediamonds.svg	19	yes	0	0	2000	0	0			0	0			1				0	
6.6.1	win	2023-07-06	23:34:41	23:40:02	317610	5809006b2a296e0001005451	3	1	main_slash	7	advance_on_keypress_SLASH	70	stimuli_target_diamondrectangles.svg	stimuli_distractor_trianglediamonds.svg	19	yes	57	0	356	0	0			0	0			1				0	
6.6.1	win	2023-07-06	23:34:41	23:40:05	320610	5809006b2a296e0001005451	3	1	main_slash	7	main_slash	71	stimuli_distractor_diamondtriangles.svg	stimuli_distractor_diamondtriangles.svg	40	no	0	1	2000	0	0			0	0			1				0	
6.6.1	win	2023-07-06	23:34:41	23:40:05	320610	5809006b2a296e0001005451	3	1	main_slash	7	advance_on_keypress_SLASH	72	stimuli_distractor_diamondtriangles.svg	stimuli_distractor_diamondtriangles.svg	40	no	57	0	301	0	0			0	0			1				0	
6.6.1	win	2023-07-06	23:34:41	23:40:08	323560	5809006b2a296e0001005451	3	1	main_slash	7	main_slash	73	stimuli_distractor_diamondtriangles.svg	stimuli_distractor_diamondtriangles.svg	39	no	0	1	2000	0	0			0	0			1				0	
6.6.1	win	2023-07-06	23:34:41	23:40:08	323560	5809006b2a296e0001005451	3	1	main_slash	7	advance_on_keypress_SLASH	74	stimuli_distractor_diamondtriangles.svg	stimuli_distractor_diamondtriangles.svg	39	no	57	0	303	0	0			0	0			1				0	
6.6.1	win	2023-07-06	23:34:41	23:40:10	325599	5809006b2a296e0001005451	3	1	main_slash	7	main_slash	75	stimuli_distractor_trianglediamonds.svg	stimuli_target_trianglerectangles.svg	25	yes	53	1	1089	0	0			0	0			1				0	
6.6.1	win	2023-07-06	23:34:41	23:40:10	325599	5809006b2a296e0001005451	3	1	main_slash	7	advance_on_keypress_SLASH	76	stimuli_distractor_trianglediamonds.svg	stimuli_target_trianglerectangles.svg	25	yes	57	0	525	0	0			0	0			1				0	
6.6.1	win	2023-07-06	23:34:41	23:40:12	327751	5809006b2a296e0001005451	3	1	main_slash	7	main_slash	77	stimuli_target_trianglesquares.svg	stimuli_distractor_diamondtriangles.svg	22	yes	53	1	991	0	0			0	0			1				0	
6.6.1	win	2023-07-06	23:34:41	23:40:12	327751	5809006b2a296e0001005451	3	1	main_slash	7	advance_on_keypress_SLASH	78	stimuli_target_trianglesquares.svg	stimuli_distractor_diamondtriangles.svg	22	yes	57	0	335	0	0			0	0			1				0	
6.6.1	win	2023-07-06	23:34:41	23:40:15	330726	5809006b2a296e0001005451	3	1	main_slash	7	main_slash	79	stimuli_target_squaretriangles.svg	stimuli_distractor_diamondtriangles.svg	7	yes	0	0	2000	0	0			0	0			1				0	
6.6.1	win	2023-07-06	23:34:41	23:40:15	330726	5809006b2a296e0001005451	3	1	main_slash	7	advance_on_keypress_SLASH	80	stimuli_target_squaretriangles.svg	stimuli_distractor_diamondtriangles.svg	7	yes	57	0	336	0	0			0	0			1				0	
6.6.1	win	2023-07-06	23:34:41	23:40:17	332599	5809006b2a296e0001005451	3	1	main_slash	7	main_slash	81	stimuli_distractor_diamondtriangles.svg	stimuli_target_trianglerectangles.svg	29	yes	53	1	889	0	0			0	0			1				0	
6.6.1	win	2023-07-06	23:34:41	23:40:17	332599	5809006b2a296e0001005451	3	1	main_slash	7	advance_on_keypress_SLASH	82	stimuli_distractor_diamondtriangles.svg	stimuli_target_trianglerectangles.svg	29	yes	57	0	614	0	0			0	0			1				0	
6.6.1	win	2023-07-06	23:34:41	23:40:19	335071	5809006b2a296e0001005451	3	1	main_slash	7	main_slash	83	stimuli_distractor_trianglediamonds.svg	stimuli_target_rectanglediamonds.svg	10	yes	53	1	1228	0	0			0	0			1				0	
6.6.1	win	2023-07-06	23:34:41	23:40:19	335071	5809006b2a296e0001005451	3	1	main_slash	7	advance_on_keypress_SLASH	84	stimuli_distractor_trianglediamonds.svg	stimuli_target_rectanglediamonds.svg	10	yes	57	0	483	0	0			0	0			1				0	
6.6.1	win	2023-07-06	23:34:41	23:40:21	337160	5809006b2a296e0001005451	3	1	main_slash	7	main_slash	85	stimuli_target_squaretriangles.svg	stimuli_distractor_diamondtriangles.svg	7	yes	53	1	966	0	0			0	0			1				0	
6.6.1	win	2023-07-06	23:34:41	23:40:21	337160	5809006b2a296e0001005451	3	1	main_slash	7	advance_on_keypress_SLASH	86	stimuli_target_squaretriangles.svg	stimuli_distractor_diamondtriangles.svg	7	yes	57	0	535	0	0			0	0			1				0	
6.6.1	win	2023-07-06	23:34:41	23:40:24	339352	5809006b2a296e0001005451	3	1	main_slash	7	main_slash	87	stimuli_target_rectangletriangles.svg	stimuli_distractor_trianglediamonds.svg	1	yes	53	1	1010	0	0			0	0			1				0	
6.6.1	win	2023-07-06	23:34:41	23:40:24	339352	5809006b2a296e0001005451	3	1	main_slash	7	advance_on_keypress_SLASH	88	stimuli_target_rectangletriangles.svg	stimuli_distractor_trianglediamonds.svg	1	yes	57	0	608	0	0			0	0			1				0	
6.6.1	win	2023-07-06	23:34:41	23:40:26	341551	5809006b2a296e0001005451	3	1	main_slash	7	main_slash	89	stimuli_distractor_trianglediamonds.svg	stimuli_target_squarediamonds.svg	12	yes	53	1	958	0	0			0	0			1				0	
6.6.1	win	2023-07-06	23:34:41	23:40:26	341551	5809006b2a296e0001005451	3	1	main_slash	7	advance_on_keypress_SLASH	90	stimuli_distractor_trianglediamonds.svg	stimuli_target_squarediamonds.svg	12	yes	57	0	577	0	0			0	0			1				0	
6.6.1	win	2023-07-06	23:34:41	23:40:29	344759	5809006b2a296e0001005451	3	1	main_slash	7	main_slash	91	stimuli_distractor_trianglediamonds.svg	stimuli_target_diamondrectangles.svg	27	yes	0	0	2000	0	0			0	0			1				0	
6.6.1	win	2023-07-06	23:34:41	23:40:29	344759	5809006b2a296e0001005451	3	1	main_slash	7	advance_on_keypress_SLASH	92	stimuli_distractor_trianglediamonds.svg	stimuli_target_diamondrectangles.svg	27	yes	57	0	567	0	0			0	0			1				0	
6.6.1	win	2023-07-06	23:34:41	23:40:32	347976	5809006b2a296e0001005451	3	1	main_slash	7	main_slash	93	stimuli_distractor_trianglediamonds.svg	stimuli_distractor_trianglediamonds.svg	34	no	0	1	2000	0	0			0	0			1				0	
6.6.1	win	2023-07-06	23:34:41	23:40:32	347976	5809006b2a296e0001005451	3	1	main_slash	7	advance_on_keypress_SLASH	94	stimuli_distractor_trianglediamonds.svg	stimuli_distractor_trianglediamonds.svg	34	no	57	0	382	0	0			0	0			1				0	
6.6.1	win	2023-07-06	23:34:41	23:40:34	349879	5809006b2a296e0001005451	3	1	main_slash	7	main_slash	95	stimuli_target_rectanglediamonds.svg	stimuli_distractor_diamondtriangles.svg	6	yes	53	1	870	0	0			0	0			1				0	
6.6.1	win	2023-07-06	23:34:41	23:40:34	349879	5809006b2a296e0001005451	3	1	main_slash	7	advance_on_keypress_SLASH	96	stimuli_target_rectanglediamonds.svg	stimuli_distractor_diamondtriangles.svg	6	yes	57	0	523	0	0			0	0			1				0	
6.6.1	win	2023-07-06	23:34:41	23:40:36	351879	5809006b2a296e0001005451	3	1	main_slash	7	main_slash	97	stimuli_distractor_diamondtriangles.svg	stimuli_target_diamondsquares.svg	32	yes	53	1	837	0	0			0	0			1				0	
6.6.1	win	2023-07-06	23:34:41	23:40:36	351879	5809006b2a296e0001005451	3	1	main_slash	7	advance_on_keypress_SLASH	98	stimuli_distractor_diamondtriangles.svg	stimuli_target_diamondsquares.svg	32	yes	57	0	363	0	0			0	0			1				0	
6.6.1	win	2023-07-06	23:34:41	23:40:38	353759	5809006b2a296e0001005451	3	1	main_slash	7	main_slash	99	stimuli_target_diamondsquares.svg	stimuli_distractor_trianglediamonds.svg	20	yes	53	1	883	0	0			0	0			1				0	
6.6.1	win	2023-07-06	23:34:41	23:40:38	353759	5809006b2a296e0001005451	3	1	main_slash	7	advance_on_keypress_SLASH	100	stimuli_target_diamondsquares.svg	stimuli_distractor_trianglediamonds.svg	20	yes	57	0	352	0	0			0	0			1				0	
6.6.1	win	2023-07-06	23:34:41	23:40:41	356759	5809006b2a296e0001005451	3	1	main_slash	7	main_slash	101	stimuli_distractor_trianglediamonds.svg	stimuli_distractor_diamondtriangles.svg	35	no	0	1	2000	0	0			0	0			1				0	
6.6.1	win	2023-07-06	23:34:41	23:40:41	356759	5809006b2a296e0001005451	3	1	main_slash	7	advance_on_keypress_SLASH	102	stimuli_distractor_trianglediamonds.svg	stimuli_distractor_diamondtriangles.svg	35	no	57	0	336	0	0			0	0			1				0	
6.6.1	win	2023-07-06	23:34:41	23:40:43	358727	5809006b2a296e0001005451	3	1	main_slash	7	main_slash	103	stimuli_target_trianglerectangles.svg	stimuli_distractor_diamondtriangles.svg	21	yes	53	1	986	0	0			0	0			1				0	
6.6.1	win	2023-07-06	23:34:41	23:40:43	358727	5809006b2a296e0001005451	3	1	main_slash	7	advance_on_keypress_SLASH	104	stimuli_target_trianglerectangles.svg	stimuli_distractor_diamondtriangles.svg	21	yes	57	0	337	0	0			0	0			1				0	
6.6.1	win	2023-07-06	23:34:41	23:40:45	360680	5809006b2a296e0001005451	3	1	main_slash	7	main_slash	105	stimuli_distractor_diamondtriangles.svg	stimuli_target_trianglesquares.svg	30	yes	53	1	971	0	0			0	0			1				0	
6.6.1	win	2023-07-06	23:34:41	23:40:45	360680	5809006b2a296e0001005451	3	1	main_slash	7	advance_on_keypress_SLASH	106	stimuli_distractor_diamondtriangles.svg	stimuli_target_trianglesquares.svg	30	yes	57	0	388	0	0			0	0			1				0	
6.6.1	win	2023-07-06	23:34:41	23:40:47	362575	5809006b2a296e0001005451	3	1	main_slash	7	main_slash	107	stimuli_distractor_diamondtriangles.svg	stimuli_target_squarediamonds.svg	16	yes	53	1	866	0	0			0	0			1				0	
6.6.1	win	2023-07-06	23:34:41	23:40:47	362575	5809006b2a296e0001005451	3	1	main_slash	7	advance_on_keypress_SLASH	108	stimuli_distractor_diamondtriangles.svg	stimuli_target_squarediamonds.svg	16	yes	57	0	471	0	0			0	0			1				0	
6.6.1	win	2023-07-06	23:34:41	23:40:50	365692	5809006b2a296e0001005451	3	1	main_slash	7	main_slash	109	stimuli_distractor_trianglediamonds.svg	stimuli_distractor_diamondtriangles.svg	36	no	0	1	2000	0	0			0	0			1				0	
6.6.1	win	2023-07-06	23:34:41	23:40:50	365692	5809006b2a296e0001005451	3	1	main_slash	7	advance_on_keypress_SLASH	110	stimuli_distractor_trianglediamonds.svg	stimuli_distractor_diamondtriangles.svg	36	no	57	0	387	0	0			0	0			1				0	
6.6.1	win	2023-07-06	23:34:41	23:40:53	368725	5809006b2a296e0001005451	3	1	main_slash	7	main_slash	111	stimuli_distractor_diamondtriangles.svg	stimuli_distractor_diamondtriangles.svg	40	no	0	1	2000	0	0			0	0			1				0	
6.6.1	win	2023-07-06	23:34:41	23:40:53	368725	5809006b2a296e0001005451	3	1	main_slash	7	advance_on_keypress_SLASH	112	stimuli_distractor_diamondtriangles.svg	stimuli_distractor_diamondtriangles.svg	40	no	57	0	313	0	0			0	0			1				0	
6.6.1	win	2023-07-06	23:34:41	23:40:55	370511	5809006b2a296e0001005451	3	1	main_slash	7	main_slash	113	stimuli_target_squaretriangles.svg	stimuli_distractor_trianglediamonds.svg	3	yes	53	1	836	0	0			0	0			1				0	
6.6.1	win	2023-07-06	23:34:41	23:40:55	370511	5809006b2a296e0001005451	3	1	main_slash	7	advance_on_keypress_SLASH	114	stimuli_target_squaretriangles.svg	stimuli_distractor_trianglediamonds.svg	3	yes	57	0	378	0	0			0	0			1				0	
6.6.1	win	2023-07-06	23:34:41	23:40:57	372439	5809006b2a296e0001005451	3	1	main_slash	7	main_slash	115	stimuli_distractor_trianglediamonds.svg	stimuli_target_diamondsquares.svg	28	yes	53	1	914	0	0			0	0			1				0	
6.6.1	win	2023-07-06	23:34:41	23:40:57	372439	5809006b2a296e0001005451	3	1	main_slash	7	advance_on_keypress_SLASH	116	stimuli_distractor_trianglediamonds.svg	stimuli_target_diamondsquares.svg	28	yes	57	0	461	0	0			0	0			1				0	
6.6.1	win	2023-07-06	23:34:41	23:40:59	374495	5809006b2a296e0001005451	3	1	main_slash	7	main_slash	117	stimuli_target_trianglesquares.svg	stimuli_distractor_trianglediamonds.svg	18	yes	53	1	970	0	0			0	0			1				0	
6.6.1	win	2023-07-06	23:34:41	23:40:59	374495	5809006b2a296e0001005451	3	1	main_slash	7	advance_on_keypress_SLASH	118	stimuli_target_trianglesquares.svg	stimuli_distractor_trianglediamonds.svg	18	yes	57	0	427	0	0			0	0			1				0	
6.6.1	win	2023-07-06	23:34:41	23:41:02	377558	5809006b2a296e0001005451	3	1	main_slash	7	main_slash	119	stimuli_distractor_diamondtriangles.svg	stimuli_distractor_diamondtriangles.svg	39	no	0	1	2000	0	0			0	0			1				0	
6.6.1	win	2023-07-06	23:34:41	23:41:02	377558	5809006b2a296e0001005451	3	1	main_slash	7	advance_on_keypress_SLASH	120	stimuli_distractor_diamondtriangles.svg	stimuli_distractor_diamondtriangles.svg	39	no	57	0	369	0	0			0	0			1				0	
6.6.1	win	2023-07-06	23:34:41	23:41:04	379336	5809006b2a296e0001005451	3	1	main_slash	7	main_slash	121	stimuli_distractor_diamondtriangles.svg	stimuli_target_rectanglediamonds.svg	14	yes	53	1	761	0	0			0	0			1				0	
6.6.1	win	2023-07-06	23:34:41	23:41:04	379336	5809006b2a296e0001005451	3	1	main_slash	7	advance_on_keypress_SLASH	122	stimuli_distractor_diamondtriangles.svg	stimuli_target_rectanglediamonds.svg	14	yes	57	0	442	0	0			0	0			1				0	
6.6.1	win	2023-07-06	23:34:41	23:41:07	382408	5809006b2a296e0001005451	3	1	main_slash	7	main_slash	123	stimuli_target_diamondrectangles.svg	stimuli_distractor_diamondtriangles.svg	23	yes	0	0	2000	0	0			0	0			1				0	
6.6.1	win	2023-07-06	23:34:41	23:41:07	382408	5809006b2a296e0001005451	3	1	main_slash	7	advance_on_keypress_SLASH	124	stimuli_target_diamondrectangles.svg	stimuli_distractor_diamondtriangles.svg	23	yes	57	0	470	0	0			0	0			1				0	
6.6.1	win	2023-07-06	23:34:41	23:41:08	384175	5809006b2a296e0001005451	3	1	main_slash	7	main_slash	125	stimuli_target_diamondsquares.svg	stimuli_distractor_diamondtriangles.svg	24	yes	53	1	651	0	0			0	0			1				0	
6.6.1	win	2023-07-06	23:34:41	23:41:08	384175	5809006b2a296e0001005451	3	1	main_slash	7	advance_on_keypress_SLASH	126	stimuli_target_diamondsquares.svg	stimuli_distractor_diamondtriangles.svg	24	yes	57	0	360	0	0			0	0			1				0	
6.6.1	win	2023-07-06	23:34:41	23:41:11	387174	5809006b2a296e0001005451	3	1	main_slash	7	main_slash	127	stimuli_distractor_trianglediamonds.svg	stimuli_distractor_trianglediamonds.svg	33	no	0	1	2000	0	0			0	0			1				0	
6.6.1	win	2023-07-06	23:34:41	23:41:11	387174	5809006b2a296e0001005451	3	1	main_slash	7	advance_on_keypress_SLASH	128	stimuli_distractor_trianglediamonds.svg	stimuli_distractor_trianglediamonds.svg	33	no	57	0	304	0	0			0	0			1				0	
6.6.1	win	2023-07-06	23:34:41	23:41:13	388823	5809006b2a296e0001005451	3	1	main_slash	7	main_slash	129	stimuli_target_trianglesquares.svg	stimuli_distractor_diamondtriangles.svg	22	yes	53	1	699	0	0			0	0			1				0	
6.6.1	win	2023-07-06	23:34:41	23:41:13	388823	5809006b2a296e0001005451	3	1	main_slash	7	advance_on_keypress_SLASH	130	stimuli_target_trianglesquares.svg	stimuli_distractor_diamondtriangles.svg	22	yes	57	0	414	0	0			0	0			1				0	
6.6.1	win	2023-07-06	23:34:41	23:41:15	390583	5809006b2a296e0001005451	3	1	main_slash	7	main_slash	131	stimuli_target_rectanglediamonds.svg	stimuli_distractor_trianglediamonds.svg	2	yes	53	1	709	0	0			0	0			1				0	
6.6.1	win	2023-07-06	23:34:41	23:41:15	390583	5809006b2a296e0001005451	3	1	main_slash	7	advance_on_keypress_SLASH	132	stimuli_target_rectanglediamonds.svg	stimuli_distractor_trianglediamonds.svg	2	yes	57	0	424	0	0			0	0			1				0	
6.6.1	win	2023-07-06	23:34:41	23:41:17	392696	5809006b2a296e0001005451	3	1	main_slash	7	main_slash	133	stimuli_distractor_diamondtriangles.svg	stimuli_target_rectangletriangles.svg	13	yes	53	1	1054	0	0			0	0			1				0	
6.6.1	win	2023-07-06	23:34:41	23:41:17	392696	5809006b2a296e0001005451	3	1	main_slash	7	advance_on_keypress_SLASH	134	stimuli_distractor_diamondtriangles.svg	stimuli_target_rectangletriangles.svg	13	yes	57	0	388	0	0			0	0			1				0	
6.6.1	win	2023-07-06	23:34:41	23:41:20	395724	5809006b2a296e0001005451	3	1	main_slash	7	main_slash	135	stimuli_distractor_diamondtriangles.svg	stimuli_distractor_trianglediamonds.svg	37	no	0	1	2000	0	0			0	0			1				0	
6.6.1	win	2023-07-06	23:34:41	23:41:20	395724	5809006b2a296e0001005451	3	1	main_slash	7	advance_on_keypress_SLASH	136	stimuli_distractor_diamondtriangles.svg	stimuli_distractor_trianglediamonds.svg	37	no	57	0	762	0	0			0	0			1				0	
6.6.1	win	2023-07-06	23:34:41	23:41:22	397871	5809006b2a296e0001005451	3	1	main_slash	7	main_slash	137	stimuli_target_diamondrectangles.svg	stimuli_distractor_trianglediamonds.svg	19	yes	53	1	747	0	0			0	0			1				0	
6.6.1	win	2023-07-06	23:34:41	23:41:22	397871	5809006b2a296e0001005451	3	1	main_slash	7	advance_on_keypress_SLASH	138	stimuli_target_diamondrectangles.svg	stimuli_distractor_trianglediamonds.svg	19	yes	57	0	430	0	0			0	0			1				0	
6.6.1	win	2023-07-06	23:34:41	23:41:24	400095	5809006b2a296e0001005451	3	1	main_slash	7	main_slash	139	stimuli_distractor_diamondtriangles.svg	stimuli_target_squaretriangles.svg	15	yes	53	1	1171	0	0			0	0			1				0	
6.6.1	win	2023-07-06	23:34:41	23:41:24	400095	5809006b2a296e0001005451	3	1	main_slash	7	advance_on_keypress_SLASH	140	stimuli_distractor_diamondtriangles.svg	stimuli_target_squaretriangles.svg	15	yes	57	0	364	0	0			0	0			1				0	
6.6.1	win	2023-07-06	23:34:41	23:41:26	402080	5809006b2a296e0001005451	3	1	main_slash	7	main_slash	141	stimuli_distractor_diamondtriangles.svg	stimuli_target_diamondrectangles.svg	31	yes	53	1	988	0	0			0	0			1				0	
6.6.1	win	2023-07-06	23:34:41	23:41:26	402080	5809006b2a296e0001005451	3	1	main_slash	7	advance_on_keypress_SLASH	142	stimuli_distractor_diamondtriangles.svg	stimuli_target_diamondrectangles.svg	31	yes	57	0	452	0	0			0	0			1				0	
6.6.1	win	2023-07-06	23:34:41	23:41:28	404263	5809006b2a296e0001005451	3	1	main_slash	7	main_slash	143	stimuli_distractor_trianglediamonds.svg	stimuli_target_trianglerectangles.svg	25	yes	53	1	1089	0	0			0	0			1				0	
6.6.1	win	2023-07-06	23:34:41	23:41:28	404263	5809006b2a296e0001005451	3	1	main_slash	7	advance_on_keypress_SLASH	144	stimuli_distractor_trianglediamonds.svg	stimuli_target_trianglerectangles.svg	25	yes	57	0	478	0	0			0	0			1				0	
6.6.1	win	2023-07-06	23:34:41	23:41:31	406312	5809006b2a296e0001005451	3	1	main_slash	7	main_slash	145	stimuli_distractor_trianglediamonds.svg	stimuli_target_trianglesquares.svg	26	yes	53	1	938	0	0			0	0			1				0	
6.6.1	win	2023-07-06	23:34:41	23:41:31	406312	5809006b2a296e0001005451	3	1	main_slash	7	advance_on_keypress_SLASH	146	stimuli_distractor_trianglediamonds.svg	stimuli_target_trianglesquares.svg	26	yes	57	0	459	0	0			0	0			1				0	
6.6.1	win	2023-07-06	23:34:41	23:41:34	409408	5809006b2a296e0001005451	3	1	main_slash	7	main_slash	147	stimuli_distractor_diamondtriangles.svg	stimuli_distractor_trianglediamonds.svg	38	no	0	1	2000	0	0			0	0			1				0	
6.6.1	win	2023-07-06	23:34:41	23:41:34	409408	5809006b2a296e0001005451	3	1	main_slash	7	advance_on_keypress_SLASH	148	stimuli_distractor_diamondtriangles.svg	stimuli_distractor_trianglediamonds.svg	38	no	57	0	792	0	0			0	0			1				0	
6.6.1	win	2023-07-06	23:34:41	23:41:37	412840	5809006b2a296e0001005451	3	1	main_slash	7	main_slash	149	stimuli_distractor_trianglediamonds.svg	stimuli_target_squaretriangles.svg	11	yes	0	0	2000	0	0			0	0			1				0	
6.6.1	win	2023-07-06	23:34:41	23:41:37	412840	5809006b2a296e0001005451	3	1	main_slash	7	advance_on_keypress_SLASH	150	stimuli_distractor_trianglediamonds.svg	stimuli_target_squaretriangles.svg	11	yes	57	0	558	0	0			0	0			1				0	
6.6.1	win	2023-07-06	23:34:41	23:41:39	415039	5809006b2a296e0001005451	3	1	main_slash	7	main_slash	151	stimuli_target_trianglerectangles.svg	stimuli_distractor_trianglediamonds.svg	17	yes	53	1	999	0	0			0	0			1				0	
6.6.1	win	2023-07-06	23:34:41	23:41:39	415039	5809006b2a296e0001005451	3	1	main_slash	7	advance_on_keypress_SLASH	152	stimuli_target_trianglerectangles.svg	stimuli_distractor_trianglediamonds.svg	17	yes	57	0	487	0	0			0	0			1				0	
6.6.1	win	2023-07-06	23:34:41	23:41:42	417376	5809006b2a296e0001005451	3	1	main_slash	7	main_slash	153	stimuli_target_rectangletriangles.svg	stimuli_distractor_diamondtriangles.svg	5	yes	53	1	1202	0	0			0	0			1				0	
6.6.1	win	2023-07-06	23:34:41	23:41:42	417376	5809006b2a296e0001005451	3	1	main_slash	7	advance_on_keypress_SLASH	154	stimuli_target_rectangletriangles.svg	stimuli_distractor_diamondtriangles.svg	5	yes	57	0	377	0	0			0	0			1				0	
6.6.1	win	2023-07-06	23:34:41	23:41:43	419279	5809006b2a296e0001005451	3	1	main_slash	7	main_slash	155	stimuli_target_squarediamonds.svg	stimuli_distractor_trianglediamonds.svg	4	yes	53	1	889	0	0			0	0			1				0	
6.6.1	win	2023-07-06	23:34:41	23:41:43	419279	5809006b2a296e0001005451	3	1	main_slash	7	advance_on_keypress_SLASH	156	stimuli_target_squarediamonds.svg	stimuli_distractor_trianglediamonds.svg	4	yes	57	0	445	0	0			0	0			1				0	
6.6.1	win	2023-07-06	23:34:41	23:41:45	421159	5809006b2a296e0001005451	3	1	main_slash	7	main_slash	157	stimuli_target_squarediamonds.svg	stimuli_distractor_diamondtriangles.svg	8	yes	53	1	802	0	0			0	0			1				0	
6.6.1	win	2023-07-06	23:34:41	23:41:45	421159	5809006b2a296e0001005451	3	1	main_slash	7	advance_on_keypress_SLASH	158	stimuli_target_squarediamonds.svg	stimuli_distractor_diamondtriangles.svg	8	yes	57	0	410	0	0			0	0			1				0	
6.6.1	win	2023-07-06	23:34:41	23:41:47	423087	5809006b2a296e0001005451	3	1	main_slash	7	main_slash	159	stimuli_distractor_trianglediamonds.svg	stimuli_target_rectangletriangles.svg	9	yes	53	1	880	0	0			0	0			1				0	
6.6.1	win	2023-07-06	23:34:41	23:41:47	423087	5809006b2a296e0001005451	3	1	main_slash	7	advance_on_keypress_SLASH	160	stimuli_distractor_trianglediamonds.svg	stimuli_target_rectangletriangles.svg	9	yes	57	0	373	0	0			0	0			1				0	
6.6.1	win	2023-07-06	23:34:41	23:42:44	479407	5809006b2a296e0001005451	3	1	practice_z	9	practice_z	1	stimuli_distractor_trianglediamonds.svg	stimuli_target_diamondrectangles.svg	12	yes	44	1	602	0	0			0	0			1				0	
6.6.1	win	2023-07-06	23:34:41	23:42:44	479407	5809006b2a296e0001005451	3	1	practice_z	9	advance_on_keypress_ZEE	2	stimuli_distractor_trianglediamonds.svg	stimuli_target_diamondrectangles.svg	12	yes	57	0	682	0	0			0	0			1				0	
6.6.1	win	2023-07-06	23:34:41	23:42:46	482263	5809006b2a296e0001005451	3	1	practice_z	9	practice_z	3	stimuli_distractor_diamondtriangles.svg	stimuli_target_rectangletriangles.svg	7	yes	44	1	525	0	0			0	0			1				0	
6.6.1	win	2023-07-06	23:34:41	23:42:46	482263	5809006b2a296e0001005451	3	1	practice_z	9	advance_on_keypress_ZEE	4	stimuli_distractor_diamondtriangles.svg	stimuli_target_rectangletriangles.svg	7	yes	57	0	312	0	0			0	0			1				0	
6.6.1	win	2023-07-06	23:34:41	23:42:49	484856	5809006b2a296e0001005451	3	1	practice_z	9	practice_z	5	stimuli_distractor_diamondtriangles.svg	stimuli_target_diamondrectangles.svg	8	yes	44	1	650	0	0			0	0			1				0	
6.6.1	win	2023-07-06	23:34:41	23:42:49	484856	5809006b2a296e0001005451	3	1	practice_z	9	advance_on_keypress_ZEE	6	stimuli_distractor_diamondtriangles.svg	stimuli_target_diamondrectangles.svg	8	yes	57	0	496	0	0			0	0			1				0	
6.6.1	win	2023-07-06	23:34:41	23:42:53	488988	5809006b2a296e0001005451	3	1	practice_z	9	practice_z	7	stimuli_distractor_diamondtriangles.svg	stimuli_distractor_diamondtriangles.svg	13	no	0	1	2000	0	0			0	0			1				0	
6.6.1	win	2023-07-06	23:34:41	23:42:53	488988	5809006b2a296e0001005451	3	1	practice_z	9	advance_on_keypress_ZEE	8	stimuli_distractor_diamondtriangles.svg	stimuli_distractor_diamondtriangles.svg	13	no	57	0	307	0	0			0	0			1				0	
6.6.1	win	2023-07-06	23:34:41	23:42:57	492938	5809006b2a296e0001005451	3	1	practice_z	9	practice_z	9	stimuli_distractor_trianglediamonds.svg	stimuli_distractor_diamondtriangles.svg	16	no	0	1	2000	0	0			0	0			1				0	
6.6.1	win	2023-07-06	23:34:41	23:42:57	492938	5809006b2a296e0001005451	3	1	practice_z	9	advance_on_keypress_ZEE	10	stimuli_distractor_trianglediamonds.svg	stimuli_distractor_diamondtriangles.svg	16	no	57	0	301	0	0			0	0			1				0	
6.6.1	win	2023-07-06	23:34:41	23:43:01	496888	5809006b2a296e0001005451	3	1	practice_z	9	practice_z	11	stimuli_distractor_trianglediamonds.svg	stimuli_target_squarediamonds.svg	11	yes	0	0	2000	0	0			0	0			1				0	
6.6.1	win	2023-07-06	23:34:41	23:43:01	496888	5809006b2a296e0001005451	3	1	practice_z	9	advance_on_keypress_ZEE	12	stimuli_distractor_trianglediamonds.svg	stimuli_target_squarediamonds.svg	11	yes	57	0	351	0	0			0	0			1				0	
6.6.1	win	2023-07-06	23:34:41	23:43:04	499568	5809006b2a296e0001005451	3	1	practice_z	9	practice_z	13	stimuli_target_rectanglediamonds.svg	stimuli_distractor_diamondtriangles.svg	1	yes	44	1	680	0	0			0	0			1				0	
6.6.1	win	2023-07-06	23:34:41	23:43:04	499568	5809006b2a296e0001005451	3	1	practice_z	9	advance_on_keypress_ZEE	14	stimuli_target_rectanglediamonds.svg	stimuli_distractor_diamondtriangles.svg	1	yes	57	0	309	0	0			0	0			1				0	
6.6.1	win	2023-07-06	23:34:41	23:43:06	502151	5809006b2a296e0001005451	3	1	practice_z	9	practice_z	15	stimuli_target_squarediamonds.svg	stimuli_distractor_diamondtriangles.svg	2	yes	44	1	647	0	0			0	0			1				0	
6.6.1	win	2023-07-06	23:34:41	23:43:06	502151	5809006b2a296e0001005451	3	1	practice_z	9	advance_on_keypress_ZEE	16	stimuli_target_squarediamonds.svg	stimuli_distractor_diamondtriangles.svg	2	yes	57	0	454	0	0			0	0			1				0	
6.6.1	win	2023-07-06	23:34:41	23:43:09	504792	5809006b2a296e0001005451	3	1	practice_z	9	practice_z	17	stimuli_distractor_trianglediamonds.svg	stimuli_target_rectanglediamonds.svg	10	yes	44	1	555	0	0			0	0			1				0	
6.6.1	win	2023-07-06	23:34:41	23:43:09	504792	5809006b2a296e0001005451	3	1	practice_z	9	advance_on_keypress_ZEE	18	stimuli_distractor_trianglediamonds.svg	stimuli_target_rectanglediamonds.svg	10	yes	57	0	475	0	0			0	0			1				0	
6.6.1	win	2023-07-06	23:34:41	23:43:12	507455	5809006b2a296e0001005451	3	1	practice_z	9	practice_z	19	stimuli_target_rectanglediamonds.svg	stimuli_distractor_trianglediamonds.svg	4	yes	44	1	551	0	0			0	0			1				0	
6.6.1	win	2023-07-06	23:34:41	23:43:12	507455	5809006b2a296e0001005451	3	1	practice_z	9	advance_on_keypress_ZEE	20	stimuli_target_rectanglediamonds.svg	stimuli_distractor_trianglediamonds.svg	4	yes	57	0	344	0	0			0	0			1				0	
6.6.1	win	2023-07-06	23:34:41	23:43:14	510192	5809006b2a296e0001005451	3	1	practice_z	9	practice_z	21	stimuli_target_diamondsquares.svg	stimuli_distractor_diamondtriangles.svg	3	yes	44	1	755	0	0			0	0			1				0	
6.6.1	win	2023-07-06	23:34:41	23:43:14	510192	5809006b2a296e0001005451	3	1	practice_z	9	advance_on_keypress_ZEE	22	stimuli_target_diamondsquares.svg	stimuli_distractor_diamondtriangles.svg	3	yes	57	0	571	0	0			0	0			1				0	
6.6.1	win	2023-07-06	23:34:41	23:43:17	513272	5809006b2a296e0001005451	3	1	practice_z	9	practice_z	23	stimuli_distractor_diamondtriangles.svg	stimuli_distractor_trianglediamonds.svg	14	no	44	0	867	0	0			0	0			1				0	
6.6.1	win	2023-07-06	23:34:41	23:43:17	513272	5809006b2a296e0001005451	3	1	practice_z	9	advance_on_keypress_ZEE	24	stimuli_distractor_diamondtriangles.svg	stimuli_distractor_trianglediamonds.svg	14	no	57	0	336	0	0			0	0			1				0	
6.6.1	win	2023-07-06	23:34:41	23:43:20	516016	5809006b2a296e0001005451	3	1	practice_z	9	practice_z	25	stimuli_distractor_diamondtriangles.svg	stimuli_target_trianglerectangles.svg	9	yes	44	1	761	0	0			0	0			1				0	
6.6.1	win	2023-07-06	23:34:41	23:43:20	516016	5809006b2a296e0001005451	3	1	practice_z	9	advance_on_keypress_ZEE	26	stimuli_distractor_diamondtriangles.svg	stimuli_target_trianglerectangles.svg	9	yes	57	0	307	0	0			0	0			1				0	
6.6.1	win	2023-07-06	23:34:41	23:43:24	519955	5809006b2a296e0001005451	3	1	practice_z	9	practice_z	27	stimuli_distractor_trianglediamonds.svg	stimuli_distractor_trianglediamonds.svg	15	no	0	1	2000	0	0			0	0			1				0	
6.6.1	win	2023-07-06	23:34:41	23:43:24	519955	5809006b2a296e0001005451	3	1	practice_z	9	advance_on_keypress_ZEE	28	stimuli_distractor_trianglediamonds.svg	stimuli_distractor_trianglediamonds.svg	15	no	57	0	301	0	0			0	0			1				0	
6.6.1	win	2023-07-06	23:34:41	23:43:27	522583	5809006b2a296e0001005451	3	1	practice_z	9	practice_z	29	stimuli_target_diamondsquares.svg	stimuli_distractor_trianglediamonds.svg	6	yes	44	1	679	0	0			0	0			1				0	
6.6.1	win	2023-07-06	23:34:41	23:43:27	522583	5809006b2a296e0001005451	3	1	practice_z	9	advance_on_keypress_ZEE	30	stimuli_target_diamondsquares.svg	stimuli_distractor_trianglediamonds.svg	6	yes	57	0	332	0	0			0	0			1				0	
6.6.1	win	2023-07-06	23:34:41	23:43:29	525070	5809006b2a296e0001005451	3	1	practice_z	9	practice_z	31	stimuli_target_squarediamonds.svg	stimuli_distractor_trianglediamonds.svg	5	yes	44	1	502	0	0			0	0			1				0	
6.6.1	win	2023-07-06	23:34:41	23:43:29	525070	5809006b2a296e0001005451	3	1	practice_z	9	advance_on_keypress_ZEE	32	stimuli_target_squarediamonds.svg	stimuli_distractor_trianglediamonds.svg	5	yes	57	0	344	0	0			0	0			1				0	
6.6.1	win	2023-07-06	23:34:41	23:44:15	570959	5809006b2a296e0001005451	3	1	main_z	11	main_z	1	stimuli_target_squarediamonds.svg	stimuli_distractor_diamondtriangles.svg	8	yes	44	1	591	0	0			0	0			1				0	
6.6.1	win	2023-07-06	23:34:41	23:44:15	570959	5809006b2a296e0001005451	3	1	main_z	11	advance_on_keypress_ZEE	2	stimuli_target_squarediamonds.svg	stimuli_distractor_diamondtriangles.svg	8	yes	57	0	766	0	0			0	0			1				0	
6.6.1	win	2023-07-06	23:34:41	23:44:17	573047	5809006b2a296e0001005451	3	1	main_z	11	main_z	3	stimuli_target_trianglesquares.svg	stimuli_distractor_trianglediamonds.svg	18	yes	44	1	678	0	0			0	0			1				0	
6.6.1	win	2023-07-06	23:34:41	23:44:17	573047	5809006b2a296e0001005451	3	1	main_z	11	advance_on_keypress_ZEE	4	stimuli_target_trianglesquares.svg	stimuli_distractor_trianglediamonds.svg	18	yes	57	0	467	0	0			0	0			1				0	
6.6.1	win	2023-07-06	23:34:41	23:44:19	574903	5809006b2a296e0001005451	3	1	main_z	11	main_z	5	stimuli_distractor_diamondtriangles.svg	stimuli_target_trianglerectangles.svg	29	yes	44	1	752	0	0			0	0			1				0	
6.6.1	win	2023-07-06	23:34:41	23:44:19	574903	5809006b2a296e0001005451	3	1	main_z	11	advance_on_keypress_ZEE	6	stimuli_distractor_diamondtriangles.svg	stimuli_target_trianglerectangles.svg	29	yes	57	0	329	0	0			0	0			1				0	
6.6.1	win	2023-07-06	23:34:41	23:44:21	576591	5809006b2a296e0001005451	3	1	main_z	11	main_z	7	stimuli_target_rectangletriangles.svg	stimuli_distractor_trianglediamonds.svg	1	yes	44	1	724	0	0			0	0			1				0	
6.6.1	win	2023-07-06	23:34:41	23:44:21	576591	5809006b2a296e0001005451	3	1	main_z	11	advance_on_keypress_ZEE	8	stimuli_target_rectangletriangles.svg	stimuli_distractor_trianglediamonds.svg	1	yes	57	0	2101	0	0			0	0			1				0	
6.6.1	win	2023-07-06	23:34:41	23:44:24	579976	5809006b2a296e0001005451	3	1	main_z	11	main_z	9	stimuli_target_diamondsquares.svg	stimuli_distractor_trianglediamonds.svg	20	yes	44	1	641	0	0			0	0			1				0	
6.6.1	win	2023-07-06	23:34:41	23:44:24	579976	5809006b2a296e0001005451	3	1	main_z	11	advance_on_keypress_ZEE	10	stimuli_target_diamondsquares.svg	stimuli_distractor_trianglediamonds.svg	20	yes	57	0	311	0	0			0	0			1				0	
6.6.1	win	2023-07-06	23:34:41	23:44:26	581575	5809006b2a296e0001005451	3	1	main_z	11	main_z	11	stimuli_distractor_diamondtriangles.svg	stimuli_target_squaretriangles.svg	15	yes	44	1	657	0	0			0	0			1				0	
6.6.1	win	2023-07-06	23:34:41	23:44:26	581575	5809006b2a296e0001005451	3	1	main_z	11	advance_on_keypress_ZEE	12	stimuli_distractor_diamondtriangles.svg	stimuli_target_squaretriangles.svg	15	yes	57	0	326	0	0			0	0			1				0	
6.6.1	win	2023-07-06	23:34:41	23:44:27	583143	5809006b2a296e0001005451	3	1	main_z	11	main_z	13	stimuli_target_squarediamonds.svg	stimuli_distractor_trianglediamonds.svg	4	yes	44	1	608	0	0			0	0			1				0	
6.6.1	win	2023-07-06	23:34:41	23:44:27	583143	5809006b2a296e0001005451	3	1	main_z	11	advance_on_keypress_ZEE	14	stimuli_target_squarediamonds.svg	stimuli_distractor_trianglediamonds.svg	4	yes	57	0	449	0	0			0	0			1				0	
6.6.1	win	2023-07-06	23:34:41	23:44:30	586235	5809006b2a296e0001005451	3	1	main_z	11	main_z	15	stimuli_distractor_trianglediamonds.svg	stimuli_distractor_trianglediamonds.svg	34	no	0	1	2000	0	0			0	0			1				0	
6.6.1	win	2023-07-06	23:34:41	23:44:30	586235	5809006b2a296e0001005451	3	1	main_z	11	advance_on_keypress_ZEE	16	stimuli_distractor_trianglediamonds.svg	stimuli_distractor_trianglediamonds.svg	34	no	57	0	413	0	0			0	0			1				0	
6.6.1	win	2023-07-06	23:34:41	23:44:32	587903	5809006b2a296e0001005451	3	1	main_z	11	main_z	17	stimuli_distractor_trianglediamonds.svg	stimuli_target_diamondsquares.svg	28	yes	44	1	618	0	0			0	0			1				0	
6.6.1	win	2023-07-06	23:34:41	23:44:32	587903	5809006b2a296e0001005451	3	1	main_z	11	advance_on_keypress_ZEE	18	stimuli_distractor_trianglediamonds.svg	stimuli_target_diamondsquares.svg	28	yes	57	0	321	0	0			0	0			1				0	
6.6.1	win	2023-07-06	23:34:41	23:44:34	589575	5809006b2a296e0001005451	3	1	main_z	11	main_z	19	stimuli_target_trianglesquares.svg	stimuli_distractor_diamondtriangles.svg	22	yes	44	1	707	0	0			0	0			1				0	
6.6.1	win	2023-07-06	23:34:41	23:44:34	589575	5809006b2a296e0001005451	3	1	main_z	11	advance_on_keypress_ZEE	20	stimuli_target_trianglesquares.svg	stimuli_distractor_diamondtriangles.svg	22	yes	57	0	286	0	0			0	0			1				0	
6.6.1	win	2023-07-06	23:34:41	23:44:36	591527	5809006b2a296e0001005451	3	1	main_z	11	main_z	21	stimuli_distractor_diamondtriangles.svg	stimuli_distractor_trianglediamonds.svg	37	no	44	0	1027	0	0			0	0			1				0	
6.6.1	win	2023-07-06	23:34:41	23:44:36	591527	5809006b2a296e0001005451	3	1	main_z	11	advance_on_keypress_ZEE	22	stimuli_distractor_diamondtriangles.svg	stimuli_distractor_trianglediamonds.svg	37	no	57	0	448	0	0			0	0			1				0	
6.6.1	win	2023-07-06	23:34:41	23:44:38	593384	5809006b2a296e0001005451	3	1	main_z	11	main_z	23	stimuli_target_rectanglediamonds.svg	stimuli_distractor_trianglediamonds.svg	2	yes	44	1	766	0	0			0	0			1				0	
6.6.1	win	2023-07-06	23:34:41	23:44:38	593384	5809006b2a296e0001005451	3	1	main_z	11	advance_on_keypress_ZEE	24	stimuli_target_rectanglediamonds.svg	stimuli_distractor_trianglediamonds.svg	2	yes	57	0	294	0	0			0	0			1				0	
6.6.1	win	2023-07-06	23:34:41	23:44:39	595008	5809006b2a296e0001005451	3	1	main_z	11	main_z	25	stimuli_distractor_trianglediamonds.svg	stimuli_target_trianglesquares.svg	26	yes	44	1	690	0	0			0	0			1				0	
6.6.1	win	2023-07-06	23:34:41	23:44:39	595008	5809006b2a296e0001005451	3	1	main_z	11	advance_on_keypress_ZEE	26	stimuli_distractor_trianglediamonds.svg	stimuli_target_trianglesquares.svg	26	yes	57	0	277	0	0			0	0			1				0	
6.6.1	win	2023-07-06	23:34:41	23:44:42	597918	5809006b2a296e0001005451	3	1	main_z	11	main_z	27	stimuli_distractor_trianglediamonds.svg	stimuli_distractor_trianglediamonds.svg	33	no	0	1	2000	0	0			0	0			1				0	
6.6.1	win	2023-07-06	23:34:41	23:44:42	597918	5809006b2a296e0001005451	3	1	main_z	11	advance_on_keypress_ZEE	28	stimuli_distractor_trianglediamonds.svg	stimuli_distractor_trianglediamonds.svg	33	no	57	0	505	0	0			0	0			1				0	
6.6.1	win	2023-07-06	23:34:41	23:44:44	599847	5809006b2a296e0001005451	3	1	main_z	11	main_z	29	stimuli_distractor_trianglediamonds.svg	stimuli_target_trianglerectangles.svg	25	yes	44	1	779	0	0			0	0			1				0	
6.6.1	win	2023-07-06	23:34:41	23:44:44	599847	5809006b2a296e0001005451	3	1	main_z	11	advance_on_keypress_ZEE	30	stimuli_distractor_trianglediamonds.svg	stimuli_target_trianglerectangles.svg	25	yes	57	0	277	0	0			0	0			1				0	
6.6.1	win	2023-07-06	23:34:41	23:44:46	601376	5809006b2a296e0001005451	3	1	main_z	11	main_z	31	stimuli_distractor_diamondtriangles.svg	stimuli_target_trianglesquares.svg	30	yes	44	1	625	0	0			0	0			1				0	
6.6.1	win	2023-07-06	23:34:41	23:44:46	601376	5809006b2a296e0001005451	3	1	main_z	11	advance_on_keypress_ZEE	32	stimuli_distractor_diamondtriangles.svg	stimuli_target_trianglesquares.svg	30	yes	57	0	296	0	0			0	0			1				0	
6.6.1	win	2023-07-06	23:34:41	23:44:49	604301	5809006b2a296e0001005451	3	1	main_z	11	main_z	33	stimuli_distractor_diamondtriangles.svg	stimuli_distractor_diamondtriangles.svg	40	no	0	1	2000	0	0			0	0			1				0	
6.6.1	win	2023-07-06	23:34:41	23:44:49	604301	5809006b2a296e0001005451	3	1	main_z	11	advance_on_keypress_ZEE	34	stimuli_distractor_diamondtriangles.svg	stimuli_distractor_diamondtriangles.svg	40	no	57	0	337	0	0			0	0			1				0	
6.6.1	win	2023-07-06	23:34:41	23:44:50	605895	5809006b2a296e0001005451	3	1	main_z	11	main_z	35	stimuli_distractor_diamondtriangles.svg	stimuli_target_squarediamonds.svg	16	yes	44	1	611	0	0			0	0			1				0	
6.6.1	win	2023-07-06	23:34:41	23:44:50	605895	5809006b2a296e0001005451	3	1	main_z	11	advance_on_keypress_ZEE	36	stimuli_distractor_diamondtriangles.svg	stimuli_target_squarediamonds.svg	16	yes	57	0	298	0	0			0	0			1				0	
6.6.1	win	2023-07-06	23:34:41	23:44:52	607463	5809006b2a296e0001005451	3	1	main_z	11	main_z	37	stimuli_distractor_trianglediamonds.svg	stimuli_target_rectangletriangles.svg	9	yes	44	1	629	0	0			0	0			1				0	
6.6.1	win	2023-07-06	23:34:41	23:44:52	607463	5809006b2a296e0001005451	3	1	main_z	11	advance_on_keypress_ZEE	38	stimuli_distractor_trianglediamonds.svg	stimuli_target_rectangletriangles.svg	9	yes	57	0	284	0	0			0	0			1				0	
6.6.1	win	2023-07-06	23:34:41	23:44:55	610384	5809006b2a296e0001005451	3	1	main_z	11	main_z	39	stimuli_distractor_diamondtriangles.svg	stimuli_distractor_trianglediamonds.svg	38	no	0	1	2000	0	0			0	0			1				0	
6.6.1	win	2023-07-06	23:34:41	23:44:55	610384	5809006b2a296e0001005451	3	1	main_z	11	advance_on_keypress_ZEE	40	stimuli_distractor_diamondtriangles.svg	stimuli_distractor_trianglediamonds.svg	38	no	57	0	366	0	0			0	0			1				0	
6.6.1	win	2023-07-06	23:34:41	23:44:56	611935	5809006b2a296e0001005451	3	1	main_z	11	main_z	41	stimuli_target_trianglerectangles.svg	stimuli_distractor_diamondtriangles.svg	21	yes	44	1	534	0	0			0	0			1				0	
6.6.1	win	2023-07-06	23:34:41	23:44:56	611935	5809006b2a296e0001005451	3	1	main_z	11	advance_on_keypress_ZEE	42	stimuli_target_trianglerectangles.svg	stimuli_distractor_diamondtriangles.svg	21	yes	57	0	336	0	0			0	0			1				0	
6.6.1	win	2023-07-06	23:34:41	23:44:58	614023	5809006b2a296e0001005451	3	1	main_z	11	main_z	43	stimuli_target_squaretriangles.svg	stimuli_distractor_diamondtriangles.svg	7	yes	44	1	1106	0	0			0	0			1				0	
6.6.1	win	2023-07-06	23:34:41	23:44:58	614023	5809006b2a296e0001005451	3	1	main_z	11	advance_on_keypress_ZEE	44	stimuli_target_squaretriangles.svg	stimuli_distractor_diamondtriangles.svg	7	yes	57	0	502	0	0			0	0			1				0	
6.6.1	win	2023-07-06	23:34:41	23:45:00	615655	5809006b2a296e0001005451	3	1	main_z	11	main_z	45	stimuli_target_rectanglediamonds.svg	stimuli_distractor_diamondtriangles.svg	6	yes	44	1	488	0	0			0	0			1				0	
6.6.1	win	2023-07-06	23:34:41	23:45:00	615655	5809006b2a296e0001005451	3	1	main_z	11	advance_on_keypress_ZEE	46	stimuli_target_rectanglediamonds.svg	stimuli_distractor_diamondtriangles.svg	6	yes	57	0	332	0	0			0	0			1				0	
6.6.1	win	2023-07-06	23:34:41	23:45:02	617295	5809006b2a296e0001005451	3	1	main_z	11	main_z	47	stimuli_target_diamondrectangles.svg	stimuli_distractor_diamondtriangles.svg	23	yes	44	1	662	0	0			0	0			1				0	
6.6.1	win	2023-07-06	23:34:41	23:45:02	617295	5809006b2a296e0001005451	3	1	main_z	11	advance_on_keypress_ZEE	48	stimuli_target_diamondrectangles.svg	stimuli_distractor_diamondtriangles.svg	23	yes	57	0	308	0	0			0	0			1				0	
6.6.1	win	2023-07-06	23:34:41	23:45:03	618879	5809006b2a296e0001005451	3	1	main_z	11	main_z	49	stimuli_distractor_trianglediamonds.svg	stimuli_target_diamondrectangles.svg	27	yes	44	1	646	0	0			0	0			1				0	
6.6.1	win	2023-07-06	23:34:41	23:45:03	618879	5809006b2a296e0001005451	3	1	main_z	11	advance_on_keypress_ZEE	50	stimuli_distractor_trianglediamonds.svg	stimuli_target_diamondrectangles.svg	27	yes	57	0	323	0	0			0	0			1				0	
6.6.1	win	2023-07-06	23:34:41	23:45:05	620350	5809006b2a296e0001005451	3	1	main_z	11	main_z	51	stimuli_distractor_trianglediamonds.svg	stimuli_target_squarediamonds.svg	12	yes	44	1	509	0	0			0	0			1				0	
6.6.1	win	2023-07-06	23:34:41	23:45:05	620350	5809006b2a296e0001005451	3	1	main_z	11	advance_on_keypress_ZEE	52	stimuli_distractor_trianglediamonds.svg	stimuli_target_squarediamonds.svg	12	yes	57	0	256	0	0			0	0			1				0	
6.6.1	win	2023-07-06	23:34:41	23:45:07	623250	5809006b2a296e0001005451	3	1	main_z	11	main_z	53	stimuli_distractor_trianglediamonds.svg	stimuli_distractor_diamondtriangles.svg	36	no	0	1	2000	0	0			0	0			1				0	
6.6.1	win	2023-07-06	23:34:41	23:45:07	623250	5809006b2a296e0001005451	3	1	main_z	11	advance_on_keypress_ZEE	54	stimuli_distractor_trianglediamonds.svg	stimuli_distractor_diamondtriangles.svg	36	no	57	0	357	0	0			0	0			1				0	
6.6.1	win	2023-07-06	23:34:41	23:45:09	624879	5809006b2a296e0001005451	3	1	main_z	11	main_z	55	stimuli_distractor_diamondtriangles.svg	stimuli_target_diamondrectangles.svg	31	yes	44	1	630	0	0			0	0			1				0	
6.6.1	win	2023-07-06	23:34:41	23:45:09	624879	5809006b2a296e0001005451	3	1	main_z	11	advance_on_keypress_ZEE	56	stimuli_distractor_diamondtriangles.svg	stimuli_target_diamondrectangles.svg	31	yes	57	0	275	0	0			0	0			1				0	
6.6.1	win	2023-07-06	23:34:41	23:45:11	626343	5809006b2a296e0001005451	3	1	main_z	11	main_z	57	stimuli_distractor_diamondtriangles.svg	stimuli_target_rectanglediamonds.svg	14	yes	44	1	560	0	0			0	0			1				0	
6.6.1	win	2023-07-06	23:34:41	23:45:11	626343	5809006b2a296e0001005451	3	1	main_z	11	advance_on_keypress_ZEE	58	stimuli_distractor_diamondtriangles.svg	stimuli_target_rectanglediamonds.svg	14	yes	57	0	298	0	0			0	0			1				0	
6.6.1	win	2023-07-06	23:34:41	23:45:12	627783	5809006b2a296e0001005451	3	1	main_z	11	main_z	59	stimuli_target_squaretriangles.svg	stimuli_distractor_trianglediamonds.svg	3	yes	44	1	517	0	0			0	0			1				0	
6.6.1	win	2023-07-06	23:34:41	23:45:12	627783	5809006b2a296e0001005451	3	1	main_z	11	advance_on_keypress_ZEE	60	stimuli_target_squaretriangles.svg	stimuli_distractor_trianglediamonds.svg	3	yes	57	0	256	0	0			0	0			1				0	
6.6.1	win	2023-07-06	23:34:41	23:45:13	629127	5809006b2a296e0001005451	3	1	main_z	11	main_z	61	stimuli_distractor_diamondtriangles.svg	stimuli_target_rectangletriangles.svg	13	yes	44	1	444	0	0			0	0			1				0	
6.6.1	win	2023-07-06	23:34:41	23:45:13	629127	5809006b2a296e0001005451	3	1	main_z	11	advance_on_keypress_ZEE	62	stimuli_distractor_diamondtriangles.svg	stimuli_target_rectangletriangles.svg	13	yes	57	0	307	0	0			0	0			1				0	
6.6.1	win	2023-07-06	23:34:41	23:45:15	630783	5809006b2a296e0001005451	3	1	main_z	11	main_z	63	stimuli_target_trianglerectangles.svg	stimuli_distractor_trianglediamonds.svg	17	yes	44	1	717	0	0			0	0			1				0	
6.6.1	win	2023-07-06	23:34:41	23:45:15	630783	5809006b2a296e0001005451	3	1	main_z	11	advance_on_keypress_ZEE	64	stimuli_target_trianglerectangles.svg	stimuli_distractor_trianglediamonds.svg	17	yes	57	0	392	0	0			0	0			1				0	
6.6.1	win	2023-07-06	23:34:41	23:45:17	632399	5809006b2a296e0001005451	3	1	main_z	11	main_z	65	stimuli_target_rectangletriangles.svg	stimuli_distractor_diamondtriangles.svg	5	yes	44	1	582	0	0			0	0			1				0	
6.6.1	win	2023-07-06	23:34:41	23:45:17	632399	5809006b2a296e0001005451	3	1	main_z	11	advance_on_keypress_ZEE	66	stimuli_target_rectangletriangles.svg	stimuli_distractor_diamondtriangles.svg	5	yes	57	0	199	0	0			0	0			1				0	
6.6.1	win	2023-07-06	23:34:41	23:45:18	633775	5809006b2a296e0001005451	3	1	main_z	11	main_z	67	stimuli_distractor_trianglediamonds.svg	stimuli_target_rectanglediamonds.svg	10	yes	44	1	526	0	0			0	0			1				0	
6.6.1	win	2023-07-06	23:34:41	23:45:18	633775	5809006b2a296e0001005451	3	1	main_z	11	advance_on_keypress_ZEE	68	stimuli_distractor_trianglediamonds.svg	stimuli_target_rectanglediamonds.svg	10	yes	57	0	336	0	0			0	0			1				0	
6.6.1	win	2023-07-06	23:34:41	23:45:21	636750	5809006b2a296e0001005451	3	1	main_z	11	main_z	69	stimuli_distractor_diamondtriangles.svg	stimuli_distractor_diamondtriangles.svg	39	no	0	1	2000	0	0			0	0			1				0	
6.6.1	win	2023-07-06	23:34:41	23:45:21	636750	5809006b2a296e0001005451	3	1	main_z	11	advance_on_keypress_ZEE	70	stimuli_distractor_diamondtriangles.svg	stimuli_distractor_diamondtriangles.svg	39	no	57	0	433	0	0			0	0			1				0	
6.6.1	win	2023-07-06	23:34:41	23:45:22	638288	5809006b2a296e0001005451	3	1	main_z	11	main_z	71	stimuli_distractor_diamondtriangles.svg	stimuli_target_diamondsquares.svg	32	yes	44	1	455	0	0			0	0			1				0	
6.6.1	win	2023-07-06	23:34:41	23:45:22	638288	5809006b2a296e0001005451	3	1	main_z	11	advance_on_keypress_ZEE	72	stimuli_distractor_diamondtriangles.svg	stimuli_target_diamondsquares.svg	32	yes	57	0	244	0	0			0	0			1				0	
6.6.1	win	2023-07-06	23:34:41	23:45:24	639647	5809006b2a296e0001005451	3	1	main_z	11	main_z	73	stimuli_target_diamondrectangles.svg	stimuli_distractor_trianglediamonds.svg	19	yes	44	1	482	0	0			0	0			1				0	
6.6.1	win	2023-07-06	23:34:41	23:45:24	639647	5809006b2a296e0001005451	3	1	main_z	11	advance_on_keypress_ZEE	74	stimuli_target_diamondrectangles.svg	stimuli_distractor_trianglediamonds.svg	19	yes	57	0	358	0	0			0	0			1				0	
6.6.1	win	2023-07-06	23:34:41	23:45:25	641263	5809006b2a296e0001005451	3	1	main_z	11	main_z	75	stimuli_target_diamondsquares.svg	stimuli_distractor_diamondtriangles.svg	24	yes	44	1	613	0	0			0	0			1				0	
6.6.1	win	2023-07-06	23:34:41	23:45:25	641263	5809006b2a296e0001005451	3	1	main_z	11	advance_on_keypress_ZEE	76	stimuli_target_diamondsquares.svg	stimuli_distractor_diamondtriangles.svg	24	yes	57	0	294	0	0			0	0			1				0	
6.6.1	win	2023-07-06	23:34:41	23:45:27	642639	5809006b2a296e0001005451	3	1	main_z	11	main_z	77	stimuli_distractor_trianglediamonds.svg	stimuli_target_squaretriangles.svg	11	yes	44	1	456	0	0			0	0			1				0	
6.6.1	win	2023-07-06	23:34:41	23:45:27	642639	5809006b2a296e0001005451	3	1	main_z	11	advance_on_keypress_ZEE	78	stimuli_distractor_trianglediamonds.svg	stimuli_target_squaretriangles.svg	11	yes	57	0	326	0	0			0	0			1				0	
6.6.1	win	2023-07-06	23:34:41	23:45:28	644159	5809006b2a296e0001005451	3	1	main_z	11	main_z	79	stimuli_distractor_trianglediamonds.svg	stimuli_distractor_diamondtriangles.svg	35	no	44	0	560	0	0			0	0			1				0	
6.6.1	win	2023-07-06	23:34:41	23:45:28	644159	5809006b2a296e0001005451	3	1	main_z	11	advance_on_keypress_ZEE	80	stimuli_distractor_trianglediamonds.svg	stimuli_distractor_diamondtriangles.svg	35	no	57	0	338	0	0			0	0			1				0	
6.6.1	win	2023-07-06	23:34:41	23:45:31	647133	5809006b2a296e0001005451	3	1	main_z	11	main_z	81	stimuli_distractor_diamondtriangles.svg	stimuli_distractor_diamondtriangles.svg	39	no	0	1	2000	0	0			0	0			1				0	
6.6.1	win	2023-07-06	23:34:41	23:45:31	647133	5809006b2a296e0001005451	3	1	main_z	11	advance_on_keypress_ZEE	82	stimuli_distractor_diamondtriangles.svg	stimuli_distractor_diamondtriangles.svg	39	no	57	0	497	0	0			0	0			1				0	
6.6.1	win	2023-07-06	23:34:41	23:45:34	650283	5809006b2a296e0001005451	3	1	main_z	11	main_z	83	stimuli_distractor_trianglediamonds.svg	stimuli_distractor_diamondtriangles.svg	36	no	0	1	2000	0	0			0	0			1				0	
6.6.1	win	2023-07-06	23:34:41	23:45:34	650283	5809006b2a296e0001005451	3	1	main_z	11	advance_on_keypress_ZEE	84	stimuli_distractor_trianglediamonds.svg	stimuli_distractor_diamondtriangles.svg	36	no	57	0	349	0	0			0	0			1				0	
6.6.1	win	2023-07-06	23:34:41	23:45:36	651751	5809006b2a296e0001005451	3	1	main_z	11	main_z	85	stimuli_target_rectanglediamonds.svg	stimuli_distractor_diamondtriangles.svg	6	yes	44	1	468	0	0			0	0			1				0	
6.6.1	win	2023-07-06	23:34:41	23:45:36	651751	5809006b2a296e0001005451	3	1	main_z	11	advance_on_keypress_ZEE	86	stimuli_target_rectanglediamonds.svg	stimuli_distractor_diamondtriangles.svg	6	yes	57	0	202	0	0			0	0			1				0	
6.6.1	win	2023-07-06	23:34:41	23:45:37	653023	5809006b2a296e0001005451	3	1	main_z	11	main_z	87	stimuli_target_squarediamonds.svg	stimuli_distractor_diamondtriangles.svg	8	yes	44	1	424	0	0			0	0			1				0	
6.6.1	win	2023-07-06	23:34:41	23:45:37	653023	5809006b2a296e0001005451	3	1	main_z	11	advance_on_keypress_ZEE	88	stimuli_target_squarediamonds.svg	stimuli_distractor_diamondtriangles.svg	8	yes	57	0	191	0	0			0	0			1				0	
6.6.1	win	2023-07-06	23:34:41	23:45:38	654215	5809006b2a296e0001005451	3	1	main_z	11	main_z	89	stimuli_distractor_trianglediamonds.svg	stimuli_target_squarediamonds.svg	12	yes	44	1	367	0	0			0	0			1				0	
6.6.1	win	2023-07-06	23:34:41	23:45:38	654215	5809006b2a296e0001005451	3	1	main_z	11	advance_on_keypress_ZEE	90	stimuli_distractor_trianglediamonds.svg	stimuli_target_squarediamonds.svg	12	yes	57	0	223	0	0			0	0			1				0	
6.6.1	win	2023-07-06	23:34:41	23:45:40	655466	5809006b2a296e0001005451	3	1	main_z	11	main_z	91	stimuli_distractor_trianglediamonds.svg	stimuli_target_rectangletriangles.svg	9	yes	44	1	380	0	0			0	0			1				0	
6.6.1	win	2023-07-06	23:34:41	23:45:40	655466	5809006b2a296e0001005451	3	1	main_z	11	advance_on_keypress_ZEE	92	stimuli_distractor_trianglediamonds.svg	stimuli_target_rectangletriangles.svg	9	yes	57	0	301	0	0			0	0			1				0	
6.6.1	win	2023-07-06	23:34:41	23:45:41	656799	5809006b2a296e0001005451	3	1	main_z	11	main_z	93	stimuli_target_squarediamonds.svg	stimuli_distractor_trianglediamonds.svg	4	yes	44	1	368	0	0			0	0			1				0	
6.6.1	win	2023-07-06	23:34:41	23:45:41	656799	5809006b2a296e0001005451	3	1	main_z	11	advance_on_keypress_ZEE	94	stimuli_target_squarediamonds.svg	stimuli_distractor_trianglediamonds.svg	4	yes	57	0	247	0	0			0	0			1				0	
6.6.1	win	2023-07-06	23:34:41	23:45:42	658066	5809006b2a296e0001005451	3	1	main_z	11	main_z	95	stimuli_distractor_diamondtriangles.svg	stimuli_target_squarediamonds.svg	16	yes	44	1	380	0	0			0	0			1				0	
6.6.1	win	2023-07-06	23:34:41	23:45:42	658066	5809006b2a296e0001005451	3	1	main_z	11	advance_on_keypress_ZEE	96	stimuli_distractor_diamondtriangles.svg	stimuli_target_squarediamonds.svg	16	yes	57	0	317	0	0			0	0			1				0	
6.6.1	win	2023-07-06	23:34:41	23:45:44	659583	5809006b2a296e0001005451	3	1	main_z	11	main_z	97	stimuli_distractor_diamondtriangles.svg	stimuli_target_trianglesquares.svg	30	yes	44	1	551	0	0			0	0			1				0	
6.6.1	win	2023-07-06	23:34:41	23:45:44	659583	5809006b2a296e0001005451	3	1	main_z	11	advance_on_keypress_ZEE	98	stimuli_distractor_diamondtriangles.svg	stimuli_target_trianglesquares.svg	30	yes	57	0	304	0	0			0	0			1				0	
6.6.1	win	2023-07-06	23:34:41	23:45:45	660895	5809006b2a296e0001005451	3	1	main_z	11	main_z	99	stimuli_distractor_trianglediamonds.svg	stimuli_target_squaretriangles.svg	11	yes	44	1	364	0	0			0	0			1				0	
6.6.1	win	2023-07-06	23:34:41	23:45:45	660895	5809006b2a296e0001005451	3	1	main_z	11	advance_on_keypress_ZEE	100	stimuli_distractor_trianglediamonds.svg	stimuli_target_squaretriangles.svg	11	yes	57	0	317	0	0			0	0			1				0	
6.6.1	win	2023-07-06	23:34:41	23:45:47	662320	5809006b2a296e0001005451	3	1	main_z	11	main_z	101	stimuli_distractor_diamondtriangles.svg	stimuli_target_diamondrectangles.svg	31	yes	44	1	471	0	0			0	0			1				0	
6.6.1	win	2023-07-06	23:34:41	23:45:47	662320	5809006b2a296e0001005451	3	1	main_z	11	advance_on_keypress_ZEE	102	stimuli_distractor_diamondtriangles.svg	stimuli_target_diamondrectangles.svg	31	yes	57	0	292	0	0			0	0			1				0	
6.6.1	win	2023-07-06	23:34:41	23:45:48	663584	5809006b2a296e0001005451	3	1	main_z	11	main_z	103	stimuli_distractor_trianglediamonds.svg	stimuli_target_rectanglediamonds.svg	10	yes	44	1	335	0	0			0	0			1				0	
6.6.1	win	2023-07-06	23:34:41	23:45:48	663584	5809006b2a296e0001005451	3	1	main_z	11	advance_on_keypress_ZEE	104	stimuli_distractor_trianglediamonds.svg	stimuli_target_rectanglediamonds.svg	10	yes	57	0	336	0	0			0	0			1				0	
6.6.1	win	2023-07-06	23:34:41	23:45:49	664992	5809006b2a296e0001005451	3	1	main_z	11	main_z	105	stimuli_distractor_diamondtriangles.svg	stimuli_distractor_trianglediamonds.svg	38	no	44	0	426	0	0			0	0			1				0	
6.6.1	win	2023-07-06	23:34:41	23:45:49	664992	5809006b2a296e0001005451	3	1	main_z	11	advance_on_keypress_ZEE	106	stimuli_distractor_diamondtriangles.svg	stimuli_distractor_trianglediamonds.svg	38	no	57	0	401	0	0			0	0			1				0	
6.6.1	win	2023-07-06	23:34:41	23:45:51	666471	5809006b2a296e0001005451	3	1	main_z	11	main_z	107	stimuli_distractor_diamondtriangles.svg	stimuli_target_rectanglediamonds.svg	14	yes	44	1	440	0	0			0	0			1				0	
6.6.1	win	2023-07-06	23:34:41	23:45:51	666471	5809006b2a296e0001005451	3	1	main_z	11	advance_on_keypress_ZEE	108	stimuli_distractor_diamondtriangles.svg	stimuli_target_rectanglediamonds.svg	14	yes	57	0	302	0	0			0	0			1				0	
6.6.1	win	2023-07-06	23:34:41	23:45:52	667976	5809006b2a296e0001005451	3	1	main_z	11	main_z	109	stimuli_distractor_trianglediamonds.svg	stimuli_target_diamondrectangles.svg	27	yes	44	1	560	0	0			0	0			1				0	
6.6.1	win	2023-07-06	23:34:41	23:45:52	667976	5809006b2a296e0001005451	3	1	main_z	11	advance_on_keypress_ZEE	110	stimuli_distractor_trianglediamonds.svg	stimuli_target_diamondrectangles.svg	27	yes	57	0	282	0	0			0	0			1				0	
6.6.1	win	2023-07-06	23:34:41	23:45:55	670899	5809006b2a296e0001005451	3	1	main_z	11	main_z	111	stimuli_distractor_diamondtriangles.svg	stimuli_distractor_diamondtriangles.svg	40	no	0	1	2000	0	0			0	0			1				0	
6.6.1	win	2023-07-06	23:34:41	23:45:55	670899	5809006b2a296e0001005451	3	1	main_z	11	advance_on_keypress_ZEE	112	stimuli_distractor_diamondtriangles.svg	stimuli_distractor_diamondtriangles.svg	40	no	57	0	277	0	0			0	0			1				0	
6.6.1	win	2023-07-06	23:34:41	23:45:57	672543	5809006b2a296e0001005451	3	1	main_z	11	main_z	113	stimuli_distractor_diamondtriangles.svg	stimuli_distractor_trianglediamonds.svg	37	no	44	0	729	0	0			0	0			1				0	
6.6.1	win	2023-07-06	23:34:41	23:45:57	672543	5809006b2a296e0001005451	3	1	main_z	11	advance_on_keypress_ZEE	114	stimuli_distractor_diamondtriangles.svg	stimuli_distractor_trianglediamonds.svg	37	no	57	0	379	0	0			0	0			1				0	
6.6.1	win	2023-07-06	23:34:41	23:45:58	674079	5809006b2a296e0001005451	3	1	main_z	11	main_z	115	stimuli_target_rectanglediamonds.svg	stimuli_distractor_trianglediamonds.svg	2	yes	44	1	531	0	0			0	0			1				0	
6.6.1	win	2023-07-06	23:34:41	23:45:58	674079	5809006b2a296e0001005451	3	1	main_z	11	advance_on_keypress_ZEE	116	stimuli_target_rectanglediamonds.svg	stimuli_distractor_trianglediamonds.svg	2	yes	57	0	318	0	0			0	0			1				0	
6.6.1	win	2023-07-06	23:34:41	23:46:00	675719	5809006b2a296e0001005451	3	1	main_z	11	main_z	117	stimuli_target_diamondrectangles.svg	stimuli_distractor_trianglediamonds.svg	19	yes	44	1	687	0	0			0	0			1				0	
6.6.1	win	2023-07-06	23:34:41	23:46:00	675719	5809006b2a296e0001005451	3	1	main_z	11	advance_on_keypress_ZEE	118	stimuli_target_diamondrectangles.svg	stimuli_distractor_trianglediamonds.svg	19	yes	57	0	308	0	0			0	0			1				0	
6.6.1	win	2023-07-06	23:34:41	23:46:02	677391	5809006b2a296e0001005451	3	1	main_z	11	main_z	119	stimuli_distractor_diamondtriangles.svg	stimuli_target_squaretriangles.svg	15	yes	44	1	726	0	0			0	0			1				0	
6.6.1	win	2023-07-06	23:34:41	23:46:02	677391	5809006b2a296e0001005451	3	1	main_z	11	advance_on_keypress_ZEE	120	stimuli_distractor_diamondtriangles.svg	stimuli_target_squaretriangles.svg	15	yes	57	0	273	0	0			0	0			1				0	
6.6.1	win	2023-07-06	23:34:41	23:46:03	678831	5809006b2a296e0001005451	3	1	main_z	11	main_z	121	stimuli_distractor_trianglediamonds.svg	stimuli_target_diamondsquares.svg	28	yes	44	1	532	0	0			0	0			1				0	
6.6.1	win	2023-07-06	23:34:41	23:46:03	678831	5809006b2a296e0001005451	3	1	main_z	11	advance_on_keypress_ZEE	122	stimuli_distractor_trianglediamonds.svg	stimuli_target_diamondsquares.svg	28	yes	57	0	311	0	0			0	0			1				0	
6.6.1	win	2023-07-06	23:34:41	23:46:05	680424	5809006b2a296e0001005451	3	1	main_z	11	main_z	123	stimuli_target_trianglesquares.svg	stimuli_distractor_trianglediamonds.svg	18	yes	44	1	642	0	0			0	0			1				0	
6.6.1	win	2023-07-06	23:34:41	23:46:05	680424	5809006b2a296e0001005451	3	1	main_z	11	advance_on_keypress_ZEE	124	stimuli_target_trianglesquares.svg	stimuli_distractor_trianglediamonds.svg	18	yes	57	0	312	0	0			0	0			1				0	
6.6.1	win	2023-07-06	23:34:41	23:46:06	681912	5809006b2a296e0001005451	3	1	main_z	11	main_z	125	stimuli_distractor_trianglediamonds.svg	stimuli_target_trianglesquares.svg	26	yes	44	1	547	0	0			0	0			1				0	
6.6.1	win	2023-07-06	23:34:41	23:46:06	681912	5809006b2a296e0001005451	3	1	main_z	11	advance_on_keypress_ZEE	126	stimuli_distractor_trianglediamonds.svg	stimuli_target_trianglesquares.svg	26	yes	57	0	357	0	0			0	0			1				0	
6.6.1	win	2023-07-06	23:34:41	23:46:08	683352	5809006b2a296e0001005451	3	1	main_z	11	main_z	127	stimuli_distractor_diamondtriangles.svg	stimuli_target_rectangletriangles.svg	13	yes	44	1	454	0	0			0	0			1				0	
6.6.1	win	2023-07-06	23:34:41	23:46:08	683352	5809006b2a296e0001005451	3	1	main_z	11	advance_on_keypress_ZEE	128	stimuli_distractor_diamondtriangles.svg	stimuli_target_rectangletriangles.svg	13	yes	57	0	419	0	0			0	0			1				0	
6.6.1	win	2023-07-06	23:34:41	23:46:11	686415	5809006b2a296e0001005451	3	1	main_z	11	main_z	129	stimuli_distractor_trianglediamonds.svg	stimuli_distractor_trianglediamonds.svg	33	no	0	1	2000	0	0			0	0			1				0	
6.6.1	win	2023-07-06	23:34:41	23:46:11	686415	5809006b2a296e0001005451	3	1	main_z	11	advance_on_keypress_ZEE	130	stimuli_distractor_trianglediamonds.svg	stimuli_distractor_trianglediamonds.svg	33	no	57	0	1215	0	0			0	0			1				0	
6.6.1	win	2023-07-06	23:34:41	23:46:13	688624	5809006b2a296e0001005451	3	1	main_z	11	main_z	131	stimuli_distractor_diamondtriangles.svg	stimuli_target_trianglerectangles.svg	29	yes	44	1	342	0	0			0	0			1				0	
6.6.1	win	2023-07-06	23:34:41	23:46:13	688624	5809006b2a296e0001005451	3	1	main_z	11	advance_on_keypress_ZEE	132	stimuli_distractor_diamondtriangles.svg	stimuli_target_trianglerectangles.svg	29	yes	57	0	232	0	0			0	0			1				0	
6.6.1	win	2023-07-06	23:34:41	23:46:14	689863	5809006b2a296e0001005451	3	1	main_z	11	main_z	133	stimuli_target_trianglerectangles.svg	stimuli_distractor_trianglediamonds.svg	17	yes	44	1	366	0	0			0	0			1				0	
6.6.1	win	2023-07-06	23:34:41	23:46:14	689863	5809006b2a296e0001005451	3	1	main_z	11	advance_on_keypress_ZEE	134	stimuli_target_trianglerectangles.svg	stimuli_distractor_trianglediamonds.svg	17	yes	57	0	278	0	0			0	0			1				0	
6.6.1	win	2023-07-06	23:34:41	23:46:15	691200	5809006b2a296e0001005451	3	1	main_z	11	main_z	135	stimuli_target_diamondsquares.svg	stimuli_distractor_diamondtriangles.svg	24	yes	44	1	419	0	0			0	0			1				0	
6.6.1	win	2023-07-06	23:34:41	23:46:15	691200	5809006b2a296e0001005451	3	1	main_z	11	advance_on_keypress_ZEE	136	stimuli_target_diamondsquares.svg	stimuli_distractor_diamondtriangles.svg	24	yes	57	0	272	0	0			0	0			1				0	
6.6.1	win	2023-07-06	23:34:41	23:46:17	692498	5809006b2a296e0001005451	3	1	main_z	11	main_z	137	stimuli_target_rectangletriangles.svg	stimuli_distractor_diamondtriangles.svg	5	yes	44	1	373	0	0			0	0			1				0	
6.6.1	win	2023-07-06	23:34:41	23:46:17	692498	5809006b2a296e0001005451	3	1	main_z	11	advance_on_keypress_ZEE	138	stimuli_target_rectangletriangles.svg	stimuli_distractor_diamondtriangles.svg	5	yes	57	0	308	0	0			0	0			1				0	
6.6.1	win	2023-07-06	23:34:41	23:46:18	693831	5809006b2a296e0001005451	3	1	main_z	11	main_z	139	stimuli_target_squaretriangles.svg	stimuli_distractor_diamondtriangles.svg	7	yes	44	1	368	0	0			0	0			1				0	
6.6.1	win	2023-07-06	23:34:41	23:46:18	693831	5809006b2a296e0001005451	3	1	main_z	11	advance_on_keypress_ZEE	140	stimuli_target_squaretriangles.svg	stimuli_distractor_diamondtriangles.svg	7	yes	57	0	288	0	0			0	0			1				0	
6.6.1	win	2023-07-06	23:34:41	23:46:19	695103	5809006b2a296e0001005451	3	1	main_z	11	main_z	141	stimuli_target_rectangletriangles.svg	stimuli_distractor_trianglediamonds.svg	1	yes	44	1	339	0	0			0	0			1				0	
6.6.1	win	2023-07-06	23:34:41	23:46:19	695103	5809006b2a296e0001005451	3	1	main_z	11	advance_on_keypress_ZEE	142	stimuli_target_rectangletriangles.svg	stimuli_distractor_trianglediamonds.svg	1	yes	57	0	332	0	0			0	0			1				0	
6.6.1	win	2023-07-06	23:34:41	23:46:21	696719	5809006b2a296e0001005451	3	1	main_z	11	main_z	143	stimuli_distractor_trianglediamonds.svg	stimuli_target_trianglerectangles.svg	25	yes	44	1	638	0	0			0	0			1				0	
6.6.1	win	2023-07-06	23:34:41	23:46:21	696719	5809006b2a296e0001005451	3	1	main_z	11	advance_on_keypress_ZEE	144	stimuli_distractor_trianglediamonds.svg	stimuli_target_trianglerectangles.svg	25	yes	57	0	301	0	0			0	0			1				0	
6.6.1	win	2023-07-06	23:34:41	23:46:23	698319	5809006b2a296e0001005451	3	1	main_z	11	main_z	145	stimuli_target_diamondrectangles.svg	stimuli_distractor_diamondtriangles.svg	23	yes	44	1	654	0	0			0	0			1				0	
6.6.1	win	2023-07-06	23:34:41	23:46:23	698319	5809006b2a296e0001005451	3	1	main_z	11	advance_on_keypress_ZEE	146	stimuli_target_diamondrectangles.svg	stimuli_distractor_diamondtriangles.svg	23	yes	57	0	285	0	0			0	0			1				0	
6.6.1	win	2023-07-06	23:34:41	23:46:24	699656	5809006b2a296e0001005451	3	1	main_z	11	main_z	147	stimuli_target_squaretriangles.svg	stimuli_distractor_trianglediamonds.svg	3	yes	44	1	408	0	0			0	0			1				0	
6.6.1	win	2023-07-06	23:34:41	23:46:24	699656	5809006b2a296e0001005451	3	1	main_z	11	advance_on_keypress_ZEE	148	stimuli_target_squaretriangles.svg	stimuli_distractor_trianglediamonds.svg	3	yes	57	0	295	0	0			0	0			1				0	
6.6.1	win	2023-07-06	23:34:41	23:46:25	700964	5809006b2a296e0001005451	3	1	main_z	11	main_z	149	stimuli_target_trianglesquares.svg	stimuli_distractor_diamondtriangles.svg	22	yes	44	1	379	0	0			0	0			1				0	
6.6.1	win	2023-07-06	23:34:41	23:46:25	700964	5809006b2a296e0001005451	3	1	main_z	11	advance_on_keypress_ZEE	150	stimuli_target_trianglesquares.svg	stimuli_distractor_diamondtriangles.svg	22	yes	57	0	251	0	0			0	0			1				0	
6.6.1	win	2023-07-06	23:34:41	23:46:26	702272	5809006b2a296e0001005451	3	1	main_z	11	main_z	151	stimuli_target_trianglerectangles.svg	stimuli_distractor_diamondtriangles.svg	21	yes	44	1	408	0	0			0	0			1				0	
6.6.1	win	2023-07-06	23:34:41	23:46:26	702272	5809006b2a296e0001005451	3	1	main_z	11	advance_on_keypress_ZEE	152	stimuli_target_trianglerectangles.svg	stimuli_distractor_diamondtriangles.svg	21	yes	57	0	263	0	0			0	0			1				0	
6.6.1	win	2023-07-06	23:34:41	23:46:29	705164	5809006b2a296e0001005451	3	1	main_z	11	main_z	153	stimuli_distractor_trianglediamonds.svg	stimuli_distractor_trianglediamonds.svg	34	no	0	1	2000	0	0			0	0			1				0	
6.6.1	win	2023-07-06	23:34:41	23:46:29	705164	5809006b2a296e0001005451	3	1	main_z	11	advance_on_keypress_ZEE	154	stimuli_distractor_trianglediamonds.svg	stimuli_distractor_trianglediamonds.svg	34	no	57	0	322	0	0			0	0			1				0	
6.6.1	win	2023-07-06	23:34:41	23:46:31	706559	5809006b2a296e0001005451	3	1	main_z	11	main_z	155	stimuli_distractor_diamondtriangles.svg	stimuli_target_diamondsquares.svg	32	yes	44	1	429	0	0			0	0			1				0	
6.6.1	win	2023-07-06	23:34:41	23:46:31	706559	5809006b2a296e0001005451	3	1	main_z	11	advance_on_keypress_ZEE	156	stimuli_distractor_diamondtriangles.svg	stimuli_target_diamondsquares.svg	32	yes	57	0	236	0	0			0	0			1				0	
6.6.1	win	2023-07-06	23:34:41	23:46:32	707855	5809006b2a296e0001005451	3	1	main_z	11	main_z	157	stimuli_target_diamondsquares.svg	stimuli_distractor_trianglediamonds.svg	20	yes	44	1	425	0	0			0	0			1				0	
6.6.1	win	2023-07-06	23:34:41	23:46:32	707855	5809006b2a296e0001005451	3	1	main_z	11	advance_on_keypress_ZEE	158	stimuli_target_diamondsquares.svg	stimuli_distractor_trianglediamonds.svg	20	yes	57	0	264	0	0			0	0			1				0	
6.6.1	win	2023-07-06	23:34:41	23:46:34	709472	5809006b2a296e0001005451	3	1	main_z	11	main_z	159	stimuli_distractor_trianglediamonds.svg	stimuli_distractor_diamondtriangles.svg	35	no	44	0	724	0	0			0	0			1				0	
6.6.1	win	2023-07-06	23:34:41	23:46:34	709472	5809006b2a296e0001005451	3	1	main_z	11	advance_on_keypress_ZEE	160	stimuli_distractor_trianglediamonds.svg	stimuli_distractor_diamondtriangles.svg	35	no	57	0	246	0	0			0	0			1				0	
6.6.1	win	2023-07-06	23:34:41	23:46:34	709472	5809006b2a296e0001005451	3	1	headphonecheck_calibration	14	headphonecheck_calibrationIntro	1	stimuli_distractor_trianglediamonds.svg	stimuli_distractor_diamondtriangles.svg	35	no	calibrationButton	0	3903	0	0			0	0			1				0	
6.6.1	win	2023-07-06	23:34:41	23:46:34	709472	5809006b2a296e0001005451	3	1	headphonecheck_testphase	15	test_collectResponse	3	stimuli_distractor_trianglediamonds.svg	stimuli_distractor_diamondtriangles.svg	35	no	first	0	14207	1	2	antiphase_hc_ios.wav	3	0	0			1				0	
6.6.1	win	2023-07-06	23:34:41	23:46:34	709472	5809006b2a296e0001005451	3	1	headphonecheck_testphase	15	test_collectResponse	6	stimuli_distractor_trianglediamonds.svg	stimuli_distractor_diamondtriangles.svg	35	no	third	0	17303	2	5	antiphase_hc_osi.wav	2	0	0			1				0	
6.6.1	win	2023-07-06	23:34:41	23:46:34	709472	5809006b2a296e0001005451	3	1	headphonecheck_testphase	15	test_collectResponse	9	stimuli_distractor_trianglediamonds.svg	stimuli_distractor_diamondtriangles.svg	35	no	second	0	787	3	3	antiphase_hc_soi.wav	1	0	0			1				0	
6.6.1	win	2023-07-06	23:34:41	23:46:34	709472	5809006b2a296e0001005451	3	1	headphonecheck_testphase	15	test_collectResponse	12	stimuli_distractor_trianglediamonds.svg	stimuli_distractor_diamondtriangles.svg	35	no	first	0	8475	4	6	antiphase_hc_ois.wav	3	0	0			1				0	
6.6.1	win	2023-07-06	23:34:41	23:46:34	709472	5809006b2a296e0001005451	3	1	headphonecheck_testphase	15	test_collectResponse	15	stimuli_distractor_trianglediamonds.svg	stimuli_distractor_diamondtriangles.svg	35	no	third	0	1635	5	1	antiphase_hc_iso.wav	2	0	0			1				0	
6.6.1	win	2023-07-06	23:34:41	23:46:34	709472	5809006b2a296e0001005451	3	1	headphonecheck_testphase	15	test_collectResponse	18	stimuli_distractor_trianglediamonds.svg	stimuli_distractor_diamondtriangles.svg	35	no	first	1	3529	6	4	antiphase_hc_sio.wav	1	0	0			1				0	
6.6.1	win	2023-07-06	23:34:41	23:46:34	709472	5809006b2a296e0001005451	3	1	stereocheck_calibration	17	stereocheck_calibrationIntro	1	stimuli_distractor_trianglediamonds.svg	stimuli_distractor_diamondtriangles.svg	35	no	stereocheck_calibrationButton	0	237000	6	4	antiphase_hc_sio.wav	1	0	0			1				0	
6.6.1	win	2023-07-06	23:34:41	23:46:34	709472	5809006b2a296e0001005451	3	1	stereocheck_testphase	18	stereocheck_test_collectResponse	3	stimuli_distractor_trianglediamonds.svg	stimuli_distractor_diamondtriangles.svg	35	no	stereocheck_left	0	1288	6	4	antiphase_hc_sio.wav	1	1	6	noise_calib_stim_RIGHT.wav	2	1				0	
6.6.1	win	2023-07-06	23:34:41	23:46:34	709472	5809006b2a296e0001005451	3	1	stereocheck_testphase	18	stereocheck_test_collectResponse	6	stimuli_distractor_trianglediamonds.svg	stimuli_distractor_diamondtriangles.svg	35	no	stereocheck_left	1	774	6	4	antiphase_hc_sio.wav	1	2	2	noise_calib_stim_LEFT.wav	1	1				0	
6.6.1	win	2023-07-06	23:34:41	23:46:34	709472	5809006b2a296e0001005451	3	1	stereocheck_testphase	18	stereocheck_test_collectResponse	9	stimuli_distractor_trianglediamonds.svg	stimuli_distractor_diamondtriangles.svg	35	no	stereocheck_right	1	35680	6	4	antiphase_hc_sio.wav	1	3	5	noise_calib_stim_RIGHT.wav	2	1				0	
6.6.1	win	2023-07-06	23:34:41	23:46:34	709472	5809006b2a296e0001005451	3	1	stereocheck_testphase	18	stereocheck_test_collectResponse	12	stimuli_distractor_trianglediamonds.svg	stimuli_distractor_diamondtriangles.svg	35	no	stereocheck_left	1	474	6	4	antiphase_hc_sio.wav	1	4	3	noise_calib_stim_LEFT.wav	1	1				0	
6.6.1	win	2023-07-06	23:34:41	23:46:34	709472	5809006b2a296e0001005451	3	1	stereocheck_testphase	18	stereocheck_test_collectResponse	15	stimuli_distractor_trianglediamonds.svg	stimuli_distractor_diamondtriangles.svg	35	no	stereocheck_right	1	2842	6	4	antiphase_hc_sio.wav	1	5	4	noise_calib_stim_RIGHT.wav	2	1				0	
6.6.1	win	2023-07-06	23:34:41	23:46:34	709472	5809006b2a296e0001005451	3	1	stereocheck_testphase	18	stereocheck_test_collectResponse	18	stimuli_distractor_trianglediamonds.svg	stimuli_distractor_diamondtriangles.svg	35	no	stereocheck_left	1	948	6	4	antiphase_hc_sio.wav	1	6	1	noise_calib_stim_LEFT.wav	1	1				0	
6.6.1	win	2023-07-06	23:34:41	23:46:34	709472	5809006b2a296e0001005451	3	1	DL_practice	21	DL_practice	2	stimuli_distractor_trianglediamonds.svg	stimuli_distractor_diamondtriangles.svg	35	no	da	1	1173	6	4	antiphase_hc_sio.wav	1	6	1	noise_calib_stim_LEFT.wav	1	8	blb_dichoticlistening_da-da.mp3	da	da	0	left
6.6.1	win	2023-07-06	23:34:41	23:46:34	709472	5809006b2a296e0001005451	3	1	DL_practice	21	DL_practice	3	stimuli_distractor_trianglediamonds.svg	stimuli_distractor_diamondtriangles.svg	35	no	da	1	844	6	4	antiphase_hc_sio.wav	1	6	1	noise_calib_stim_LEFT.wav	1	7	blb_dichoticlistening_da-ba.mp3	da	ba	1	left
6.6.1	win	2023-07-06	23:34:41	23:46:34	709472	5809006b2a296e0001005451	3	1	DL_practice	21	DL_practice	4	stimuli_distractor_trianglediamonds.svg	stimuli_distractor_diamondtriangles.svg	35	no	ga	1	793	6	4	antiphase_hc_sio.wav	1	6	1	noise_calib_stim_LEFT.wav	1	15	blb_dichoticlistening_ga-ga.mp3	ga	ga	0	left
6.6.1	win	2023-07-06	23:34:41	23:46:34	709472	5809006b2a296e0001005451	3	1	DL_practice	21	DL_practice	5	stimuli_distractor_trianglediamonds.svg	stimuli_distractor_diamondtriangles.svg	35	no	ga	1	766	6	4	antiphase_hc_sio.wav	1	6	1	noise_calib_stim_LEFT.wav	1	18	blb_dichoticlistening_ga-ta.mp3	ga	ta	1	left
6.6.1	win	2023-07-06	23:34:41	23:46:34	709472	5809006b2a296e0001005451	3	1	DL_practice	21	DL_practice	6	stimuli_distractor_trianglediamonds.svg	stimuli_distractor_diamondtriangles.svg	35	no	ka	1	1237	6	4	antiphase_hc_sio.wav	1	6	1	noise_calib_stim_LEFT.wav	1	23	blb_dichoticlistening_ka-pa.mp3	ka	pa	1	left
6.6.1	win	2023-07-06	23:34:41	23:46:34	709472	5809006b2a296e0001005451	3	1	DL_practice	21	DL_practice	7	stimuli_distractor_trianglediamonds.svg	stimuli_distractor_diamondtriangles.svg	35	no	ba	1	1524	6	4	antiphase_hc_sio.wav	1	6	1	noise_calib_stim_LEFT.wav	1	1	blb_dichoticlistening_ba-ba.mp3	ba	ba	0	left
6.6.1	win	2023-07-06	23:34:41	23:46:34	709472	5809006b2a296e0001005451	3	1	DL_practice	21	DL_practice	8	stimuli_distractor_trianglediamonds.svg	stimuli_distractor_diamondtriangles.svg	35	no	ka	1	1044	6	4	antiphase_hc_sio.wav	1	6	1	noise_calib_stim_LEFT.wav	1	22	blb_dichoticlistening_ka-ka.mp3	ka	ka	0	left
6.6.1	win	2023-07-06	23:34:41	23:46:34	709472	5809006b2a296e0001005451	3	1	DL_practice	21	DL_practice	9	stimuli_distractor_trianglediamonds.svg	stimuli_distractor_diamondtriangles.svg	35	no	ta	1	1489	6	4	antiphase_hc_sio.wav	1	6	1	noise_calib_stim_LEFT.wav	1	36	blb_dichoticlistening_ta-ta.mp3	ta	ta	0	left
6.6.1	win	2023-07-06	23:34:41	23:46:34	709472	5809006b2a296e0001005451	3	1	DL_practice	21	DL_practice	10	stimuli_distractor_trianglediamonds.svg	stimuli_distractor_diamondtriangles.svg	35	no	pa	1	1482	6	4	antiphase_hc_sio.wav	1	6	1	noise_calib_stim_LEFT.wav	1	29	blb_dichoticlistening_pa-pa.mp3	pa	pa	0	left
6.6.1	win	2023-07-06	23:34:41	23:46:34	709472	5809006b2a296e0001005451	3	1	DL_test	23	DL_test	1	stimuli_distractor_trianglediamonds.svg	stimuli_distractor_diamondtriangles.svg	35	no	ta	1	1310	6	4	antiphase_hc_sio.wav	1	6	1	noise_calib_stim_LEFT.wav	1	32	blb_dichoticlistening_ta-da.mp3	ta	da	1	left
6.6.1	win	2023-07-06	23:34:41	23:46:34	709472	5809006b2a296e0001005451	3	1	DL_test	23	DL_test	2	stimuli_distractor_trianglediamonds.svg	stimuli_distractor_diamondtriangles.svg	35	no	pa	1	1551	6	4	antiphase_hc_sio.wav	1	6	1	noise_calib_stim_LEFT.wav	1	30	blb_dichoticlistening_pa-ta.mp3	pa	ta	1	left
6.6.1	win	2023-07-06	23:34:41	23:46:34	709472	5809006b2a296e0001005451	3	1	DL_test	23	DL_test	3	stimuli_distractor_trianglediamonds.svg	stimuli_distractor_diamondtriangles.svg	35	no	ka	1	536	6	4	antiphase_hc_sio.wav	1	6	1	noise_calib_stim_LEFT.wav	1	20	blb_dichoticlistening_ka-da.mp3	ka	da	1	left
6.6.1	win	2023-07-06	23:34:41	23:46:34	709472	5809006b2a296e0001005451	3	1	DL_test	23	DL_test	4	stimuli_distractor_trianglediamonds.svg	stimuli_distractor_diamondtriangles.svg	35	no	ba	1	926	6	4	antiphase_hc_sio.wav	1	6	1	noise_calib_stim_LEFT.wav	1	3	blb_dichoticlistening_ba-ga.mp3	ba	ga	1	left
6.6.1	win	2023-07-06	23:34:41	23:46:34	709472	5809006b2a296e0001005451	3	1	DL_test	23	DL_test	5	stimuli_distractor_trianglediamonds.svg	stimuli_distractor_diamondtriangles.svg	35	no	ka	1	1255	6	4	antiphase_hc_sio.wav	1	6	1	noise_calib_stim_LEFT.wav	1	21	blb_dichoticlistening_ka-ga.mp3	ka	ga	1	left
6.6.1	win	2023-07-06	23:34:41	23:46:34	709472	5809006b2a296e0001005451	3	1	DL_test	23	DL_test	6	stimuli_distractor_trianglediamonds.svg	stimuli_distractor_diamondtriangles.svg	35	no	ta	1	1093	6	4	antiphase_hc_sio.wav	1	6	1	noise_calib_stim_LEFT.wav	1	33	blb_dichoticlistening_ta-ga.mp3	ta	ga	1	left
6.6.1	win	2023-07-06	23:34:41	23:46:34	709472	5809006b2a296e0001005451	3	1	DL_test	23	DL_test	7	stimuli_distractor_trianglediamonds.svg	stimuli_distractor_diamondtriangles.svg	35	no	da	1	829	6	4	antiphase_hc_sio.wav	1	6	1	noise_calib_stim_LEFT.wav	1	9	blb_dichoticlistening_da-ga.mp3	da	ga	1	left
6.6.1	win	2023-07-06	23:34:41	23:46:34	709472	5809006b2a296e0001005451	3	1	DL_test	23	DL_test	8	stimuli_distractor_trianglediamonds.svg	stimuli_distractor_diamondtriangles.svg	35	no	pa	1	1011	6	4	antiphase_hc_sio.wav	1	6	1	noise_calib_stim_LEFT.wav	1	27	blb_dichoticlistening_pa-ga.mp3	pa	ga	1	left
6.6.1	win	2023-07-06	23:34:41	23:46:34	709472	5809006b2a296e0001005451	3	1	DL_test	23	DL_test	9	stimuli_distractor_trianglediamonds.svg	stimuli_distractor_diamondtriangles.svg	35	no	ta	1	1136	6	4	antiphase_hc_sio.wav	1	6	1	noise_calib_stim_LEFT.wav	1	36	blb_dichoticlistening_ta-ta.mp3	ta	ta	0	left
6.6.1	win	2023-07-06	23:34:41	23:46:34	709472	5809006b2a296e0001005451	3	1	DL_test	23	DL_test	10	stimuli_distractor_trianglediamonds.svg	stimuli_distractor_diamondtriangles.svg	35	no	da	1	1085	6	4	antiphase_hc_sio.wav	1	6	1	noise_calib_stim_LEFT.wav	1	12	blb_dichoticlistening_da-ta.mp3	da	ta	1	left
6.6.1	win	2023-07-06	23:34:41	23:46:34	709472	5809006b2a296e0001005451	3	1	DL_test	23	DL_test	11	stimuli_distractor_trianglediamonds.svg	stimuli_distractor_diamondtriangles.svg	35	no	ba	1	1304	6	4	antiphase_hc_sio.wav	1	6	1	noise_calib_stim_LEFT.wav	1	5	blb_dichoticlistening_ba-pa.mp3	ba	pa	1	left
6.6.1	win	2023-07-06	23:34:41	23:46:34	709472	5809006b2a296e0001005451	3	1	DL_test	23	DL_test	12	stimuli_distractor_trianglediamonds.svg	stimuli_distractor_diamondtriangles.svg	35	no	da	1	1009	6	4	antiphase_hc_sio.wav	1	6	1	noise_calib_stim_LEFT.wav	1	11	blb_dichoticlistening_da-pa.mp3	da	pa	1	left
6.6.1	win	2023-07-06	23:34:41	23:46:34	709472	5809006b2a296e0001005451	3	1	DL_test	23	DL_test	13	stimuli_distractor_trianglediamonds.svg	stimuli_distractor_diamondtriangles.svg	35	no	da	1	926	6	4	antiphase_hc_sio.wav	1	6	1	noise_calib_stim_LEFT.wav	1	8	blb_dichoticlistening_da-da.mp3	da	da	0	left
6.6.1	win	2023-07-06	23:34:41	23:46:34	709472	5809006b2a296e0001005451	3	1	DL_test	23	DL_test	14	stimuli_distractor_trianglediamonds.svg	stimuli_distractor_diamondtriangles.svg	35	no	pa	1	1472	6	4	antiphase_hc_sio.wav	1	6	1	noise_calib_stim_LEFT.wav	1	26	blb_dichoticlistening_pa-da.mp3	pa	da	1	left
6.6.1	win	2023-07-06	23:34:41	23:46:34	709472	5809006b2a296e0001005451	3	1	DL_test	23	DL_test	15	stimuli_distractor_trianglediamonds.svg	stimuli_distractor_diamondtriangles.svg	35	no	ta	1	1118	6	4	antiphase_hc_sio.wav	1	6	1	noise_calib_stim_LEFT.wav	1	35	blb_dichoticlistening_ta-pa.mp3	ta	pa	1	left
6.6.1	win	2023-07-06	23:34:41	23:46:34	709472	5809006b2a296e0001005451	3	1	DL_test	23	DL_test	16	stimuli_distractor_trianglediamonds.svg	stimuli_distractor_diamondtriangles.svg	35	no	ga	1	1735	6	4	antiphase_hc_sio.wav	1	6	1	noise_calib_stim_LEFT.wav	1	17	blb_dichoticlistening_ga-pa.mp3	ga	pa	1	left
6.6.1	win	2023-07-06	23:34:41	23:46:34	709472	5809006b2a296e0001005451	3	1	DL_test	23	DL_test	17	stimuli_distractor_trianglediamonds.svg	stimuli_distractor_diamondtriangles.svg	35	no	ta	1	961	6	4	antiphase_hc_sio.wav	1	6	1	noise_calib_stim_LEFT.wav	1	34	blb_dichoticlistening_ta-ka.mp3	ta	ka	1	left
6.6.1	win	2023-07-06	23:34:41	23:46:34	709472	5809006b2a296e0001005451	3	1	DL_test	23	DL_test	18	stimuli_distractor_trianglediamonds.svg	stimuli_distractor_diamondtriangles.svg	35	no	ka	1	1072	6	4	antiphase_hc_sio.wav	1	6	1	noise_calib_stim_LEFT.wav	1	22	blb_dichoticlistening_ka-ka.mp3	ka	ka	0	left
6.6.1	win	2023-07-06	23:34:41	23:46:34	709472	5809006b2a296e0001005451	3	1	DL_test	23	DL_test	19	stimuli_distractor_trianglediamonds.svg	stimuli_distractor_diamondtriangles.svg	35	no	da	1	891	6	4	antiphase_hc_sio.wav	1	6	1	noise_calib_stim_LEFT.wav	1	7	blb_dichoticlistening_da-ba.mp3	da	ba	1	left
6.6.1	win	2023-07-06	23:34:41	23:46:34	709472	5809006b2a296e0001005451	3	1	DL_test	23	DL_test	20	stimuli_distractor_trianglediamonds.svg	stimuli_distractor_diamondtriangles.svg	35	no	ka	1	1100	6	4	antiphase_hc_sio.wav	1	6	1	noise_calib_stim_LEFT.wav	1	23	blb_dichoticlistening_ka-pa.mp3	ka	pa	1	left
6.6.1	win	2023-07-06	23:34:41	23:46:34	709472	5809006b2a296e0001005451	3	1	DL_test	23	DL_test	21	stimuli_distractor_trianglediamonds.svg	stimuli_distractor_diamondtriangles.svg	35	no	ka	1	669	6	4	antiphase_hc_sio.wav	1	6	1	noise_calib_stim_LEFT.wav	1	24	blb_dichoticlistening_ka-ta.mp3	ka	ta	1	left
6.6.1	win	2023-07-06	23:34:41	23:46:34	709472	5809006b2a296e0001005451	3	1	DL_test	23	DL_test	22	stimuli_distractor_trianglediamonds.svg	stimuli_distractor_diamondtriangles.svg	35	no	pa	1	1351	6	4	antiphase_hc_sio.wav	1	6	1	noise_calib_stim_LEFT.wav	1	29	blb_dichoticlistening_pa-pa.mp3	pa	pa	0	left
6.6.1	win	2023-07-06	23:34:41	23:46:34	709472	5809006b2a296e0001005451	3	1	DL_test	23	DL_test	23	stimuli_distractor_trianglediamonds.svg	stimuli_distractor_diamondtriangles.svg	35	no	ga	1	1752	6	4	antiphase_hc_sio.wav	1	6	1	noise_calib_stim_LEFT.wav	1	15	blb_dichoticlistening_ga-ga.mp3	ga	ga	0	left
6.6.1	win	2023-07-06	23:34:41	23:46:34	709472	5809006b2a296e0001005451	3	1	DL_test	23	DL_test	24	stimuli_distractor_trianglediamonds.svg	stimuli_distractor_diamondtriangles.svg	35	no	ba	1	1249	6	4	antiphase_hc_sio.wav	1	6	1	noise_calib_stim_LEFT.wav	1	1	blb_dichoticlistening_ba-ba.mp3	ba	ba	0	left
6.6.1	win	2023-07-06	23:34:41	23:46:34	709472	5809006b2a296e0001005451	3	1	DL_test	23	DL_test	25	stimuli_distractor_trianglediamonds.svg	stimuli_distractor_diamondtriangles.svg	35	no	ba	1	693	6	4	antiphase_hc_sio.wav	1	6	1	noise_calib_stim_LEFT.wav	1	6	blb_dichoticlistening_ba-ta.mp3	ba	ta	1	left
6.6.1	win	2023-07-06	23:34:41	23:46:34	709472	5809006b2a296e0001005451	3	1	DL_test	23	DL_test	26	stimuli_distractor_trianglediamonds.svg	stimuli_distractor_diamondtriangles.svg	35	no	pa	1	1695	6	4	antiphase_hc_sio.wav	1	6	1	noise_calib_stim_LEFT.wav	1	25	blb_dichoticlistening_pa-ba.mp3	pa	ba	1	left
