build	computer.platform	date	time	timestamp	time_elapsed_ms	subject	group	session	blockcode	blocknum	trialcode	trialnum	stimulus_left	stimulus_right	stim_index	target_present	response	correct	latency	headphonecheck_countTestTrials	headphonecheck_index	headphonecheck_testSound	headphonecheck_correctResponse	stereocheck_countTestTrials	stereocheck_index	stereocheck_testSound	stereocheck_correctResponse	DL_index	DL_soundfile	DL_leftSound	DL_rightSound	DL_dualSound	DL_choice
6.6.1	win	2023-07-16	22:06:59	22:09:17	129297	5e9f31ca9b0a040704ee0bad	3	1	practice_slash	5	practice_slash	1	stimuli_target_squarediamonds.svg	stimuli_distractor_trianglediamonds.svg	5	yes	0	0	2000	0	0			0	0			1				0	
6.6.1	win	2023-07-16	22:06:59	22:09:17	129297	5e9f31ca9b0a040704ee0bad	3	1	practice_slash	5	advance_on_keypress_SLASH	2	stimuli_target_squarediamonds.svg	stimuli_distractor_trianglediamonds.svg	5	yes	57	0	1583	0	0			0	0			1				0	
6.6.1	win	2023-07-16	22:06:59	22:09:21	133358	5e9f31ca9b0a040704ee0bad	3	1	practice_slash	5	practice_slash	3	stimuli_distractor_diamondtriangles.svg	stimuli_target_rectangletriangles.svg	7	yes	53	1	816	0	0			0	0			1				0	
6.6.1	win	2023-07-16	22:06:59	22:09:21	133358	5e9f31ca9b0a040704ee0bad	3	1	practice_slash	5	advance_on_keypress_SLASH	4	stimuli_distractor_diamondtriangles.svg	stimuli_target_rectangletriangles.svg	7	yes	57	0	543	0	0			0	0			1				0	
6.6.1	win	2023-07-16	22:06:59	22:09:26	137557	5e9f31ca9b0a040704ee0bad	3	1	practice_slash	5	practice_slash	5	stimuli_distractor_diamondtriangles.svg	stimuli_distractor_diamondtriangles.svg	13	no	0	1	2000	0	0			0	0			1				0	
6.6.1	win	2023-07-16	22:06:59	22:09:26	137557	5e9f31ca9b0a040704ee0bad	3	1	practice_slash	5	advance_on_keypress_SLASH	6	stimuli_distractor_diamondtriangles.svg	stimuli_distractor_diamondtriangles.svg	13	no	57	0	612	0	0			0	0			1				0	
6.6.1	win	2023-07-16	22:06:59	22:09:29	140647	5e9f31ca9b0a040704ee0bad	3	1	practice_slash	5	practice_slash	7	stimuli_distractor_trianglediamonds.svg	stimuli_target_rectanglediamonds.svg	10	yes	53	1	825	0	0			0	0			1				0	
6.6.1	win	2023-07-16	22:06:59	22:09:29	140647	5e9f31ca9b0a040704ee0bad	3	1	practice_slash	5	advance_on_keypress_SLASH	8	stimuli_distractor_trianglediamonds.svg	stimuli_target_rectanglediamonds.svg	10	yes	57	0	532	0	0			0	0			1				0	
6.6.1	win	2023-07-16	22:06:59	22:09:32	143829	5e9f31ca9b0a040704ee0bad	3	1	practice_slash	5	practice_slash	9	stimuli_distractor_diamondtriangles.svg	stimuli_target_diamondrectangles.svg	8	yes	53	1	977	0	0			0	0			1				0	
6.6.1	win	2023-07-16	22:06:59	22:09:32	143829	5e9f31ca9b0a040704ee0bad	3	1	practice_slash	5	advance_on_keypress_SLASH	10	stimuli_distractor_diamondtriangles.svg	stimuli_target_diamondrectangles.svg	8	yes	57	0	819	0	0			0	0			1				0	
6.6.1	win	2023-07-16	22:06:59	22:09:36	148300	5e9f31ca9b0a040704ee0bad	3	1	practice_slash	5	practice_slash	11	stimuli_target_rectanglediamonds.svg	stimuli_distractor_diamondtriangles.svg	1	yes	0	0	2000	0	0			0	0			1				0	
6.6.1	win	2023-07-16	22:06:59	22:09:36	148300	5e9f31ca9b0a040704ee0bad	3	1	practice_slash	5	advance_on_keypress_SLASH	12	stimuli_target_rectanglediamonds.svg	stimuli_distractor_diamondtriangles.svg	1	yes	57	0	887	0	0			0	0			1				0	
6.6.1	win	2023-07-16	22:06:59	22:09:41	152829	5e9f31ca9b0a040704ee0bad	3	1	practice_slash	5	practice_slash	13	stimuli_distractor_diamondtriangles.svg	stimuli_distractor_trianglediamonds.svg	14	no	0	1	2000	0	0			0	0			1				0	
6.6.1	win	2023-07-16	22:06:59	22:09:41	152829	5e9f31ca9b0a040704ee0bad	3	1	practice_slash	5	advance_on_keypress_SLASH	14	stimuli_distractor_diamondtriangles.svg	stimuli_distractor_trianglediamonds.svg	14	no	57	0	552	0	0			0	0			1				0	
6.6.1	win	2023-07-16	22:06:59	22:09:45	157027	5e9f31ca9b0a040704ee0bad	3	1	practice_slash	5	practice_slash	15	stimuli_target_rectanglediamonds.svg	stimuli_distractor_trianglediamonds.svg	4	yes	0	0	2000	0	0			0	0			1				0	
6.6.1	win	2023-07-16	22:06:59	22:09:45	157027	5e9f31ca9b0a040704ee0bad	3	1	practice_slash	5	advance_on_keypress_SLASH	16	stimuli_target_rectanglediamonds.svg	stimuli_distractor_trianglediamonds.svg	4	yes	57	0	532	0	0			0	0			1				0	
6.6.1	win	2023-07-16	22:06:59	22:09:48	159965	5e9f31ca9b0a040704ee0bad	3	1	practice_slash	5	practice_slash	17	stimuli_distractor_diamondtriangles.svg	stimuli_target_trianglerectangles.svg	9	yes	53	1	741	0	0			0	0			1				0	
6.6.1	win	2023-07-16	22:06:59	22:09:48	159965	5e9f31ca9b0a040704ee0bad	3	1	practice_slash	5	advance_on_keypress_SLASH	18	stimuli_distractor_diamondtriangles.svg	stimuli_target_trianglerectangles.svg	9	yes	57	0	756	0	0			0	0			1				0	
6.6.1	win	2023-07-16	22:06:59	22:09:51	163079	5e9f31ca9b0a040704ee0bad	3	1	practice_slash	5	practice_slash	19	stimuli_distractor_trianglediamonds.svg	stimuli_target_diamondrectangles.svg	12	yes	53	1	690	0	0			0	0			1				0	
6.6.1	win	2023-07-16	22:06:59	22:09:51	163079	5e9f31ca9b0a040704ee0bad	3	1	practice_slash	5	advance_on_keypress_SLASH	20	stimuli_distractor_trianglediamonds.svg	stimuli_target_diamondrectangles.svg	12	yes	57	0	373	0	0			0	0			1				0	
6.6.1	win	2023-07-16	22:06:59	22:09:55	167119	5e9f31ca9b0a040704ee0bad	3	1	practice_slash	5	practice_slash	21	stimuli_distractor_trianglediamonds.svg	stimuli_distractor_diamondtriangles.svg	16	no	0	1	2000	0	0			0	0			1				0	
6.6.1	win	2023-07-16	22:06:59	22:09:55	167119	5e9f31ca9b0a040704ee0bad	3	1	practice_slash	5	advance_on_keypress_SLASH	22	stimuli_distractor_trianglediamonds.svg	stimuli_distractor_diamondtriangles.svg	16	no	57	0	784	0	0			0	0			1				0	
6.6.1	win	2023-07-16	22:06:59	22:10:00	171550	5e9f31ca9b0a040704ee0bad	3	1	practice_slash	5	practice_slash	23	stimuli_target_squarediamonds.svg	stimuli_distractor_diamondtriangles.svg	2	yes	0	0	2000	0	0			0	0			1				0	
6.6.1	win	2023-07-16	22:06:59	22:10:00	171550	5e9f31ca9b0a040704ee0bad	3	1	practice_slash	5	advance_on_keypress_SLASH	24	stimuli_target_squarediamonds.svg	stimuli_distractor_diamondtriangles.svg	2	yes	57	0	460	0	0			0	0			1				0	
6.6.1	win	2023-07-16	22:06:59	22:10:03	174553	5e9f31ca9b0a040704ee0bad	3	1	practice_slash	5	practice_slash	25	stimuli_distractor_trianglediamonds.svg	stimuli_target_squarediamonds.svg	11	yes	53	1	889	0	0			0	0			1				0	
6.6.1	win	2023-07-16	22:06:59	22:10:03	174553	5e9f31ca9b0a040704ee0bad	3	1	practice_slash	5	advance_on_keypress_SLASH	26	stimuli_distractor_trianglediamonds.svg	stimuli_target_squarediamonds.svg	11	yes	57	0	688	0	0			0	0			1				0	
6.6.1	win	2023-07-16	22:06:59	22:10:05	177426	5e9f31ca9b0a040704ee0bad	3	1	practice_slash	5	practice_slash	27	stimuli_target_diamondsquares.svg	stimuli_distractor_trianglediamonds.svg	6	yes	53	1	513	0	0			0	0			1				0	
6.6.1	win	2023-07-16	22:06:59	22:10:05	177426	5e9f31ca9b0a040704ee0bad	3	1	practice_slash	5	advance_on_keypress_SLASH	28	stimuli_target_diamondsquares.svg	stimuli_distractor_trianglediamonds.svg	6	yes	57	0	304	0	0			0	0			1				0	
6.6.1	win	2023-07-16	22:06:59	22:10:08	179773	5e9f31ca9b0a040704ee0bad	3	1	practice_slash	5	practice_slash	29	stimuli_target_diamondsquares.svg	stimuli_distractor_diamondtriangles.svg	3	yes	53	1	371	0	0			0	0			1				0	
6.6.1	win	2023-07-16	22:06:59	22:10:08	179773	5e9f31ca9b0a040704ee0bad	3	1	practice_slash	5	advance_on_keypress_SLASH	30	stimuli_target_diamondsquares.svg	stimuli_distractor_diamondtriangles.svg	3	yes	57	0	332	0	0			0	0			1				0	
6.6.1	win	2023-07-16	22:06:59	22:10:10	182352	5e9f31ca9b0a040704ee0bad	3	1	practice_slash	5	practice_slash	31	stimuli_distractor_trianglediamonds.svg	stimuli_distractor_trianglediamonds.svg	15	no	53	0	594	0	0			0	0			1				0	
6.6.1	win	2023-07-16	22:06:59	22:10:10	182352	5e9f31ca9b0a040704ee0bad	3	1	practice_slash	5	advance_on_keypress_SLASH	32	stimuli_distractor_trianglediamonds.svg	stimuli_distractor_trianglediamonds.svg	15	no	57	0	477	0	0			0	0			1				0	
6.6.1	win	2023-07-16	22:06:59	22:10:17	188603	5e9f31ca9b0a040704ee0bad	3	1	main_slash	7	main_slash	1	stimuli_distractor_trianglediamonds.svg	stimuli_distractor_trianglediamonds.svg	34	no	53	0	736	0	0			0	0			1				0	
6.6.1	win	2023-07-16	22:06:59	22:10:17	188603	5e9f31ca9b0a040704ee0bad	3	1	main_slash	7	advance_on_keypress_SLASH	2	stimuli_distractor_trianglediamonds.svg	stimuli_distractor_trianglediamonds.svg	34	no	57	0	1240	0	0			0	0			1				0	
6.6.1	win	2023-07-16	22:06:59	22:10:19	191019	5e9f31ca9b0a040704ee0bad	3	1	main_slash	7	main_slash	3	stimuli_distractor_trianglediamonds.svg	stimuli_target_trianglerectangles.svg	25	yes	53	1	522	0	0			0	0			1				0	
6.6.1	win	2023-07-16	22:06:59	22:10:19	191019	5e9f31ca9b0a040704ee0bad	3	1	main_slash	7	advance_on_keypress_SLASH	4	stimuli_distractor_trianglediamonds.svg	stimuli_target_trianglerectangles.svg	25	yes	57	0	1382	0	0			0	0			1				0	
6.6.1	win	2023-07-16	22:06:59	22:10:22	193567	5e9f31ca9b0a040704ee0bad	3	1	main_slash	7	main_slash	5	stimuli_distractor_diamondtriangles.svg	stimuli_target_trianglerectangles.svg	29	yes	53	1	520	0	0			0	0			1				0	
6.6.1	win	2023-07-16	22:06:59	22:10:22	193567	5e9f31ca9b0a040704ee0bad	3	1	main_slash	7	advance_on_keypress_SLASH	6	stimuli_distractor_diamondtriangles.svg	stimuli_target_trianglerectangles.svg	29	yes	57	0	805	0	0			0	0			1				0	
6.6.1	win	2023-07-16	22:06:59	22:10:23	195421	5e9f31ca9b0a040704ee0bad	3	1	main_slash	7	main_slash	7	stimuli_target_trianglerectangles.svg	stimuli_distractor_trianglediamonds.svg	17	yes	53	1	409	0	0			0	0			1				0	
6.6.1	win	2023-07-16	22:06:59	22:10:23	195421	5e9f31ca9b0a040704ee0bad	3	1	main_slash	7	advance_on_keypress_SLASH	8	stimuli_target_trianglerectangles.svg	stimuli_distractor_trianglediamonds.svg	17	yes	57	0	420	0	0			0	0			1				0	
6.6.1	win	2023-07-16	22:06:59	22:10:25	196819	5e9f31ca9b0a040704ee0bad	3	1	main_slash	7	main_slash	9	stimuli_target_diamondsquares.svg	stimuli_distractor_trianglediamonds.svg	20	yes	53	1	342	0	0			0	0			1				0	
6.6.1	win	2023-07-16	22:06:59	22:10:25	196819	5e9f31ca9b0a040704ee0bad	3	1	main_slash	7	advance_on_keypress_SLASH	10	stimuli_target_diamondsquares.svg	stimuli_distractor_trianglediamonds.svg	20	yes	57	0	328	0	0			0	0			1				0	
6.6.1	win	2023-07-16	22:06:59	22:10:26	198098	5e9f31ca9b0a040704ee0bad	3	1	main_slash	7	main_slash	11	stimuli_target_trianglerectangles.svg	stimuli_distractor_diamondtriangles.svg	21	yes	53	1	305	0	0			0	0			1				0	
6.6.1	win	2023-07-16	22:06:59	22:10:26	198098	5e9f31ca9b0a040704ee0bad	3	1	main_slash	7	advance_on_keypress_SLASH	12	stimuli_target_trianglerectangles.svg	stimuli_distractor_diamondtriangles.svg	21	yes	57	0	184	0	0			0	0			1				0	
6.6.1	win	2023-07-16	22:06:59	22:10:29	200464	5e9f31ca9b0a040704ee0bad	3	1	main_slash	7	main_slash	13	stimuli_target_diamondrectangles.svg	stimuli_distractor_trianglediamonds.svg	19	yes	53	1	1538	0	0			0	0			1				0	
6.6.1	win	2023-07-16	22:06:59	22:10:29	200464	5e9f31ca9b0a040704ee0bad	3	1	main_slash	7	advance_on_keypress_SLASH	14	stimuli_target_diamondrectangles.svg	stimuli_distractor_trianglediamonds.svg	19	yes	57	0	1223	0	0			0	0			1				0	
6.6.1	win	2023-07-16	22:06:59	22:10:31	202719	5e9f31ca9b0a040704ee0bad	3	1	main_slash	7	main_slash	15	stimuli_distractor_trianglediamonds.svg	stimuli_target_diamondsquares.svg	28	yes	53	1	396	0	0			0	0			1				0	
6.6.1	win	2023-07-16	22:06:59	22:10:31	202719	5e9f31ca9b0a040704ee0bad	3	1	main_slash	7	advance_on_keypress_SLASH	16	stimuli_distractor_trianglediamonds.svg	stimuli_target_diamondsquares.svg	28	yes	57	0	592	0	0			0	0			1				0	
6.6.1	win	2023-07-16	22:06:59	22:10:33	204470	5e9f31ca9b0a040704ee0bad	3	1	main_slash	7	main_slash	17	stimuli_distractor_trianglediamonds.svg	stimuli_target_trianglesquares.svg	26	yes	53	1	510	0	0			0	0			1				0	
6.6.1	win	2023-07-16	22:06:59	22:10:33	204470	5e9f31ca9b0a040704ee0bad	3	1	main_slash	7	advance_on_keypress_SLASH	18	stimuli_distractor_trianglediamonds.svg	stimuli_target_trianglesquares.svg	26	yes	57	0	607	0	0			0	0			1				0	
6.6.1	win	2023-07-16	22:06:59	22:10:34	206197	5e9f31ca9b0a040704ee0bad	3	1	main_slash	7	main_slash	19	stimuli_distractor_trianglediamonds.svg	stimuli_target_diamondrectangles.svg	27	yes	53	1	477	0	0			0	0			1				0	
6.6.1	win	2023-07-16	22:06:59	22:10:34	206197	5e9f31ca9b0a040704ee0bad	3	1	main_slash	7	advance_on_keypress_SLASH	20	stimuli_distractor_trianglediamonds.svg	stimuli_target_diamondrectangles.svg	27	yes	57	0	394	0	0			0	0			1				0	
6.6.1	win	2023-07-16	22:06:59	22:10:36	207589	5e9f31ca9b0a040704ee0bad	3	1	main_slash	7	main_slash	21	stimuli_target_squaretriangles.svg	stimuli_distractor_trianglediamonds.svg	3	yes	53	1	335	0	0			0	0			1				0	
6.6.1	win	2023-07-16	22:06:59	22:10:36	207589	5e9f31ca9b0a040704ee0bad	3	1	main_slash	7	advance_on_keypress_SLASH	22	stimuli_target_squaretriangles.svg	stimuli_distractor_trianglediamonds.svg	3	yes	57	0	661	0	0			0	0			1				0	
6.6.1	win	2023-07-16	22:06:59	22:10:39	210902	5e9f31ca9b0a040704ee0bad	3	1	main_slash	7	main_slash	23	stimuli_distractor_diamondtriangles.svg	stimuli_distractor_trianglediamonds.svg	38	no	0	1	2000	0	0			0	0			1				0	
6.6.1	win	2023-07-16	22:06:59	22:10:39	210902	5e9f31ca9b0a040704ee0bad	3	1	main_slash	7	advance_on_keypress_SLASH	24	stimuli_distractor_diamondtriangles.svg	stimuli_distractor_trianglediamonds.svg	38	no	57	0	7	0	0			0	0			1				0	
6.6.1	win	2023-07-16	22:06:59	22:10:42	213566	5e9f31ca9b0a040704ee0bad	3	1	main_slash	7	main_slash	25	stimuli_distractor_trianglediamonds.svg	stimuli_distractor_diamondtriangles.svg	35	no	0	1	2000	0	0			0	0			1				0	
6.6.1	win	2023-07-16	22:06:59	22:10:42	213566	5e9f31ca9b0a040704ee0bad	3	1	main_slash	7	advance_on_keypress_SLASH	26	stimuli_distractor_trianglediamonds.svg	stimuli_distractor_diamondtriangles.svg	35	no	57	0	948	0	0			0	0			1				0	
6.6.1	win	2023-07-16	22:06:59	22:10:44	215691	5e9f31ca9b0a040704ee0bad	3	1	main_slash	7	main_slash	27	stimuli_target_diamondsquares.svg	stimuli_distractor_diamondtriangles.svg	24	yes	53	1	527	0	0			0	0			1				0	
6.6.1	win	2023-07-16	22:06:59	22:10:44	215691	5e9f31ca9b0a040704ee0bad	3	1	main_slash	7	advance_on_keypress_SLASH	28	stimuli_target_diamondsquares.svg	stimuli_distractor_diamondtriangles.svg	24	yes	57	0	506	0	0			0	0			1				0	
6.6.1	win	2023-07-16	22:06:59	22:10:46	217612	5e9f31ca9b0a040704ee0bad	3	1	main_slash	7	main_slash	29	stimuli_distractor_diamondtriangles.svg	stimuli_target_diamondsquares.svg	32	yes	53	1	765	0	0			0	0			1				0	
6.6.1	win	2023-07-16	22:06:59	22:10:46	217612	5e9f31ca9b0a040704ee0bad	3	1	main_slash	7	advance_on_keypress_SLASH	30	stimuli_distractor_diamondtriangles.svg	stimuli_target_diamondsquares.svg	32	yes	57	0	669	0	0			0	0			1				0	
6.6.1	win	2023-07-16	22:06:59	22:10:49	220928	5e9f31ca9b0a040704ee0bad	3	1	main_slash	7	main_slash	31	stimuli_distractor_trianglediamonds.svg	stimuli_target_squarediamonds.svg	12	yes	0	0	2000	0	0			0	0			1				0	
6.6.1	win	2023-07-16	22:06:59	22:10:49	220928	5e9f31ca9b0a040704ee0bad	3	1	main_slash	7	advance_on_keypress_SLASH	32	stimuli_distractor_trianglediamonds.svg	stimuli_target_squarediamonds.svg	12	yes	57	0	137	0	0			0	0			1				0	
6.6.1	win	2023-07-16	22:06:59	22:10:50	222413	5e9f31ca9b0a040704ee0bad	3	1	main_slash	7	main_slash	33	stimuli_target_squarediamonds.svg	stimuli_distractor_diamondtriangles.svg	8	yes	53	1	704	0	0			0	0			1				0	
6.6.1	win	2023-07-16	22:06:59	22:10:50	222413	5e9f31ca9b0a040704ee0bad	3	1	main_slash	7	advance_on_keypress_SLASH	34	stimuli_target_squarediamonds.svg	stimuli_distractor_diamondtriangles.svg	8	yes	57	0	595	0	0			0	0			1				0	
6.6.1	win	2023-07-16	22:06:59	22:10:54	225658	5e9f31ca9b0a040704ee0bad	3	1	main_slash	7	main_slash	35	stimuli_distractor_trianglediamonds.svg	stimuli_distractor_diamondtriangles.svg	36	no	0	1	2000	0	0			0	0			1				0	
6.6.1	win	2023-07-16	22:06:59	22:10:54	225658	5e9f31ca9b0a040704ee0bad	3	1	main_slash	7	advance_on_keypress_SLASH	36	stimuli_distractor_trianglediamonds.svg	stimuli_distractor_diamondtriangles.svg	36	no	57	0	742	0	0			0	0			1				0	
6.6.1	win	2023-07-16	22:06:59	22:10:57	229039	5e9f31ca9b0a040704ee0bad	3	1	main_slash	7	main_slash	37	stimuli_target_rectanglediamonds.svg	stimuli_distractor_diamondtriangles.svg	6	yes	0	0	2000	0	0			0	0			1				0	
6.6.1	win	2023-07-16	22:06:59	22:10:57	229039	5e9f31ca9b0a040704ee0bad	3	1	main_slash	7	advance_on_keypress_SLASH	38	stimuli_target_rectanglediamonds.svg	stimuli_distractor_diamondtriangles.svg	6	yes	57	0	728	0	0			0	0			1				0	
6.6.1	win	2023-07-16	22:06:59	22:10:59	230955	5e9f31ca9b0a040704ee0bad	3	1	main_slash	7	main_slash	39	stimuli_distractor_diamondtriangles.svg	stimuli_target_diamondrectangles.svg	31	yes	53	1	535	0	0			0	0			1				0	
6.6.1	win	2023-07-16	22:06:59	22:10:59	230955	5e9f31ca9b0a040704ee0bad	3	1	main_slash	7	advance_on_keypress_SLASH	40	stimuli_distractor_diamondtriangles.svg	stimuli_target_diamondrectangles.svg	31	yes	57	0	547	0	0			0	0			1				0	
6.6.1	win	2023-07-16	22:06:59	22:11:02	234152	5e9f31ca9b0a040704ee0bad	3	1	main_slash	7	main_slash	41	stimuli_distractor_diamondtriangles.svg	stimuli_distractor_diamondtriangles.svg	40	no	0	1	2000	0	0			0	0			1				0	
6.6.1	win	2023-07-16	22:06:59	22:11:02	234152	5e9f31ca9b0a040704ee0bad	3	1	main_slash	7	advance_on_keypress_SLASH	42	stimuli_distractor_diamondtriangles.svg	stimuli_distractor_diamondtriangles.svg	40	no	57	0	583	0	0			0	0			1				0	
6.6.1	win	2023-07-16	22:06:59	22:11:05	237383	5e9f31ca9b0a040704ee0bad	3	1	main_slash	7	main_slash	43	stimuli_distractor_diamondtriangles.svg	stimuli_distractor_trianglediamonds.svg	37	no	0	1	2000	0	0			0	0			1				0	
6.6.1	win	2023-07-16	22:06:59	22:11:05	237383	5e9f31ca9b0a040704ee0bad	3	1	main_slash	7	advance_on_keypress_SLASH	44	stimuli_distractor_diamondtriangles.svg	stimuli_distractor_trianglediamonds.svg	37	no	57	0	610	0	0			0	0			1				0	
6.6.1	win	2023-07-16	22:06:59	22:11:08	239791	5e9f31ca9b0a040704ee0bad	3	1	main_slash	7	main_slash	45	stimuli_target_squarediamonds.svg	stimuli_distractor_trianglediamonds.svg	4	yes	53	1	1161	0	0			0	0			1				0	
6.6.1	win	2023-07-16	22:06:59	22:11:08	239791	5e9f31ca9b0a040704ee0bad	3	1	main_slash	7	advance_on_keypress_SLASH	46	stimuli_target_squarediamonds.svg	stimuli_distractor_trianglediamonds.svg	4	yes	57	0	655	0	0			0	0			1				0	
6.6.1	win	2023-07-16	22:06:59	22:11:11	243096	5e9f31ca9b0a040704ee0bad	3	1	main_slash	7	main_slash	47	stimuli_distractor_diamondtriangles.svg	stimuli_distractor_diamondtriangles.svg	39	no	0	1	2000	0	0			0	0			1				0	
6.6.1	win	2023-07-16	22:06:59	22:11:11	243096	5e9f31ca9b0a040704ee0bad	3	1	main_slash	7	advance_on_keypress_SLASH	48	stimuli_distractor_diamondtriangles.svg	stimuli_distractor_diamondtriangles.svg	39	no	57	0	543	0	0			0	0			1				0	
6.6.1	win	2023-07-16	22:06:59	22:11:13	244911	5e9f31ca9b0a040704ee0bad	3	1	main_slash	7	main_slash	49	stimuli_target_diamondrectangles.svg	stimuli_distractor_diamondtriangles.svg	23	yes	53	1	617	0	0			0	0			1				0	
6.6.1	win	2023-07-16	22:06:59	22:11:13	244911	5e9f31ca9b0a040704ee0bad	3	1	main_slash	7	advance_on_keypress_SLASH	50	stimuli_target_diamondrectangles.svg	stimuli_distractor_diamondtriangles.svg	23	yes	57	0	851	0	0			0	0			1				0	
6.6.1	win	2023-07-16	22:06:59	22:11:16	248408	5e9f31ca9b0a040704ee0bad	3	1	main_slash	7	main_slash	51	stimuli_target_rectangletriangles.svg	stimuli_distractor_diamondtriangles.svg	5	yes	0	0	2000	0	0			0	0			1				0	
6.6.1	win	2023-07-16	22:06:59	22:11:16	248408	5e9f31ca9b0a040704ee0bad	3	1	main_slash	7	advance_on_keypress_SLASH	52	stimuli_target_rectangletriangles.svg	stimuli_distractor_diamondtriangles.svg	5	yes	57	0	1481	0	0			0	0			1				0	
6.6.1	win	2023-07-16	22:06:59	22:11:21	252539	5e9f31ca9b0a040704ee0bad	3	1	main_slash	7	main_slash	53	stimuli_distractor_trianglediamonds.svg	stimuli_distractor_trianglediamonds.svg	33	no	0	1	2000	0	0			0	0			1				0	
6.6.1	win	2023-07-16	22:06:59	22:11:21	252539	5e9f31ca9b0a040704ee0bad	3	1	main_slash	7	advance_on_keypress_SLASH	54	stimuli_distractor_trianglediamonds.svg	stimuli_distractor_trianglediamonds.svg	33	no	57	0	352	0	0			0	0			1				0	
6.6.1	win	2023-07-16	22:06:59	22:11:22	254169	5e9f31ca9b0a040704ee0bad	3	1	main_slash	7	main_slash	55	stimuli_target_trianglesquares.svg	stimuli_distractor_trianglediamonds.svg	18	yes	53	1	633	0	0			0	0			1				0	
6.6.1	win	2023-07-16	22:06:59	22:11:22	254169	5e9f31ca9b0a040704ee0bad	3	1	main_slash	7	advance_on_keypress_SLASH	56	stimuli_target_trianglesquares.svg	stimuli_distractor_trianglediamonds.svg	18	yes	57	0	469	0	0			0	0			1				0	
6.6.1	win	2023-07-16	22:06:59	22:11:25	257286	5e9f31ca9b0a040704ee0bad	3	1	main_slash	7	main_slash	57	stimuli_distractor_diamondtriangles.svg	stimuli_target_squaretriangles.svg	15	yes	0	0	2000	0	0			0	0			1				0	
6.6.1	win	2023-07-16	22:06:59	22:11:25	257286	5e9f31ca9b0a040704ee0bad	3	1	main_slash	7	advance_on_keypress_SLASH	58	stimuli_distractor_diamondtriangles.svg	stimuli_target_squaretriangles.svg	15	yes	57	0	384	0	0			0	0			1				0	
6.6.1	win	2023-07-16	22:06:59	22:11:27	259172	5e9f31ca9b0a040704ee0bad	3	1	main_slash	7	main_slash	59	stimuli_distractor_diamondtriangles.svg	stimuli_target_trianglesquares.svg	30	yes	53	1	855	0	0			0	0			1				0	
6.6.1	win	2023-07-16	22:06:59	22:11:27	259172	5e9f31ca9b0a040704ee0bad	3	1	main_slash	7	advance_on_keypress_SLASH	60	stimuli_distractor_diamondtriangles.svg	stimuli_target_trianglesquares.svg	30	yes	57	0	596	0	0			0	0			1				0	
6.6.1	win	2023-07-16	22:06:59	22:11:30	261955	5e9f31ca9b0a040704ee0bad	3	1	main_slash	7	main_slash	61	stimuli_distractor_trianglediamonds.svg	stimuli_target_rectanglediamonds.svg	10	yes	53	1	1540	0	0			0	0			1				0	
6.6.1	win	2023-07-16	22:06:59	22:11:30	261955	5e9f31ca9b0a040704ee0bad	3	1	main_slash	7	advance_on_keypress_SLASH	62	stimuli_distractor_trianglediamonds.svg	stimuli_target_rectanglediamonds.svg	10	yes	57	0	693	0	0			0	0			1				0	
6.6.1	win	2023-07-16	22:06:59	22:11:32	264166	5e9f31ca9b0a040704ee0bad	3	1	main_slash	7	main_slash	63	stimuli_distractor_trianglediamonds.svg	stimuli_target_rectangletriangles.svg	9	yes	53	1	887	0	0			0	0			1				0	
6.6.1	win	2023-07-16	22:06:59	22:11:32	264166	5e9f31ca9b0a040704ee0bad	3	1	main_slash	7	advance_on_keypress_SLASH	64	stimuli_distractor_trianglediamonds.svg	stimuli_target_rectangletriangles.svg	9	yes	57	0	423	0	0			0	0			1				0	
6.6.1	win	2023-07-16	22:06:59	22:11:34	266456	5e9f31ca9b0a040704ee0bad	3	1	main_slash	7	main_slash	65	stimuli_distractor_diamondtriangles.svg	stimuli_target_rectangletriangles.svg	13	yes	53	1	1228	0	0			0	0			1				0	
6.6.1	win	2023-07-16	22:06:59	22:11:34	266456	5e9f31ca9b0a040704ee0bad	3	1	main_slash	7	advance_on_keypress_SLASH	66	stimuli_distractor_diamondtriangles.svg	stimuli_target_rectangletriangles.svg	13	yes	57	0	922	0	0			0	0			1				0	
6.6.1	win	2023-07-16	22:06:59	22:11:37	268978	5e9f31ca9b0a040704ee0bad	3	1	main_slash	7	main_slash	67	stimuli_target_rectangletriangles.svg	stimuli_distractor_trianglediamonds.svg	1	yes	53	1	935	0	0			0	0			1				0	
6.6.1	win	2023-07-16	22:06:59	22:11:37	268978	5e9f31ca9b0a040704ee0bad	3	1	main_slash	7	advance_on_keypress_SLASH	68	stimuli_target_rectangletriangles.svg	stimuli_distractor_trianglediamonds.svg	1	yes	57	0	382	0	0			0	0			1				0	
6.6.1	win	2023-07-16	22:06:59	22:11:40	272008	5e9f31ca9b0a040704ee0bad	3	1	main_slash	7	main_slash	69	stimuli_target_trianglesquares.svg	stimuli_distractor_diamondtriangles.svg	22	yes	0	0	2000	0	0			0	0			1				0	
6.6.1	win	2023-07-16	22:06:59	22:11:40	272008	5e9f31ca9b0a040704ee0bad	3	1	main_slash	7	advance_on_keypress_SLASH	70	stimuli_target_trianglesquares.svg	stimuli_distractor_diamondtriangles.svg	22	yes	57	0	374	0	0			0	0			1				0	
6.6.1	win	2023-07-16	22:06:59	22:11:43	275022	5e9f31ca9b0a040704ee0bad	3	1	main_slash	7	main_slash	71	stimuli_target_squaretriangles.svg	stimuli_distractor_diamondtriangles.svg	7	yes	0	0	2000	0	0			0	0			1				0	
6.6.1	win	2023-07-16	22:06:59	22:11:43	275022	5e9f31ca9b0a040704ee0bad	3	1	main_slash	7	advance_on_keypress_SLASH	72	stimuli_target_squaretriangles.svg	stimuli_distractor_diamondtriangles.svg	7	yes	57	0	678	0	0			0	0			1				0	
6.6.1	win	2023-07-16	22:06:59	22:11:45	277284	5e9f31ca9b0a040704ee0bad	3	1	main_slash	7	main_slash	73	stimuli_distractor_diamondtriangles.svg	stimuli_target_rectanglediamonds.svg	14	yes	53	1	932	0	0			0	0			1				0	
6.6.1	win	2023-07-16	22:06:59	22:11:45	277284	5e9f31ca9b0a040704ee0bad	3	1	main_slash	7	advance_on_keypress_SLASH	74	stimuli_distractor_diamondtriangles.svg	stimuli_target_rectanglediamonds.svg	14	yes	57	0	375	0	0			0	0			1				0	
6.6.1	win	2023-07-16	22:06:59	22:11:47	278985	5e9f31ca9b0a040704ee0bad	3	1	main_slash	7	main_slash	75	stimuli_distractor_diamondtriangles.svg	stimuli_target_squarediamonds.svg	16	yes	53	1	683	0	0			0	0			1				0	
6.6.1	win	2023-07-16	22:06:59	22:11:47	278985	5e9f31ca9b0a040704ee0bad	3	1	main_slash	7	advance_on_keypress_SLASH	76	stimuli_distractor_diamondtriangles.svg	stimuli_target_squarediamonds.svg	16	yes	57	0	315	0	0			0	0			1				0	
6.6.1	win	2023-07-16	22:06:59	22:11:48	280349	5e9f31ca9b0a040704ee0bad	3	1	main_slash	7	main_slash	77	stimuli_target_rectanglediamonds.svg	stimuli_distractor_trianglediamonds.svg	2	yes	53	1	398	0	0			0	0			1				0	
6.6.1	win	2023-07-16	22:06:59	22:11:48	280349	5e9f31ca9b0a040704ee0bad	3	1	main_slash	7	advance_on_keypress_SLASH	78	stimuli_target_rectanglediamonds.svg	stimuli_distractor_trianglediamonds.svg	2	yes	57	0	192	0	0			0	0			1				0	
6.6.1	win	2023-07-16	22:06:59	22:11:50	281537	5e9f31ca9b0a040704ee0bad	3	1	main_slash	7	main_slash	79	stimuli_distractor_trianglediamonds.svg	stimuli_target_squaretriangles.svg	11	yes	53	1	337	0	0			0	0			1				0	
6.6.1	win	2023-07-16	22:06:59	22:11:50	281537	5e9f31ca9b0a040704ee0bad	3	1	main_slash	7	advance_on_keypress_SLASH	80	stimuli_distractor_trianglediamonds.svg	stimuli_target_squaretriangles.svg	11	yes	57	0	124	0	0			0	0			1				0	
6.6.1	win	2023-07-16	22:06:59	22:11:51	282561	5e9f31ca9b0a040704ee0bad	3	1	main_slash	7	main_slash	81	stimuli_distractor_trianglediamonds.svg	stimuli_target_rectanglediamonds.svg	10	yes	53	1	261	0	0			0	0			1				0	
6.6.1	win	2023-07-16	22:06:59	22:11:51	282561	5e9f31ca9b0a040704ee0bad	3	1	main_slash	7	advance_on_keypress_SLASH	82	stimuli_distractor_trianglediamonds.svg	stimuli_target_rectanglediamonds.svg	10	yes	57	0	82	0	0			0	0			1				0	
6.6.1	win	2023-07-16	22:06:59	22:11:53	285300	5e9f31ca9b0a040704ee0bad	3	1	main_slash	7	main_slash	83	stimuli_distractor_trianglediamonds.svg	stimuli_distractor_trianglediamonds.svg	34	no	0	1	2000	0	0			0	0			1				0	
6.6.1	win	2023-07-16	22:06:59	22:11:53	285300	5e9f31ca9b0a040704ee0bad	3	1	main_slash	7	advance_on_keypress_SLASH	84	stimuli_distractor_trianglediamonds.svg	stimuli_distractor_trianglediamonds.svg	34	no	57	0	490	0	0			0	0			1				0	
6.6.1	win	2023-07-16	22:06:59	22:11:56	288430	5e9f31ca9b0a040704ee0bad	3	1	main_slash	7	main_slash	85	stimuli_distractor_diamondtriangles.svg	stimuli_distractor_diamondtriangles.svg	39	no	0	1	2000	0	0			0	0			1				0	
6.6.1	win	2023-07-16	22:06:59	22:11:56	288430	5e9f31ca9b0a040704ee0bad	3	1	main_slash	7	advance_on_keypress_SLASH	86	stimuli_distractor_diamondtriangles.svg	stimuli_distractor_diamondtriangles.svg	39	no	57	0	722	0	0			0	0			1				0	
6.6.1	win	2023-07-16	22:06:59	22:11:58	290334	5e9f31ca9b0a040704ee0bad	3	1	main_slash	7	main_slash	87	stimuli_distractor_trianglediamonds.svg	stimuli_target_rectangletriangles.svg	9	yes	53	1	540	0	0			0	0			1				0	
6.6.1	win	2023-07-16	22:06:59	22:11:58	290334	5e9f31ca9b0a040704ee0bad	3	1	main_slash	7	advance_on_keypress_SLASH	88	stimuli_distractor_trianglediamonds.svg	stimuli_target_rectangletriangles.svg	9	yes	57	0	232	0	0			0	0			1				0	
6.6.1	win	2023-07-16	22:06:59	22:12:00	291803	5e9f31ca9b0a040704ee0bad	3	1	main_slash	7	main_slash	89	stimuli_distractor_trianglediamonds.svg	stimuli_target_diamondrectangles.svg	27	yes	53	1	594	0	0			0	0			1				0	
6.6.1	win	2023-07-16	22:06:59	22:12:00	291803	5e9f31ca9b0a040704ee0bad	3	1	main_slash	7	advance_on_keypress_SLASH	90	stimuli_distractor_trianglediamonds.svg	stimuli_target_diamondrectangles.svg	27	yes	57	0	214	0	0			0	0			1				0	
6.6.1	win	2023-07-16	22:06:59	22:12:01	293066	5e9f31ca9b0a040704ee0bad	3	1	main_slash	7	main_slash	91	stimuli_target_squarediamonds.svg	stimuli_distractor_diamondtriangles.svg	8	yes	53	1	391	0	0			0	0			1				0	
6.6.1	win	2023-07-16	22:06:59	22:12:01	293066	5e9f31ca9b0a040704ee0bad	3	1	main_slash	7	advance_on_keypress_SLASH	92	stimuli_target_squarediamonds.svg	stimuli_distractor_diamondtriangles.svg	8	yes	57	0	162	0	0			0	0			1				0	
6.6.1	win	2023-07-16	22:06:59	22:12:02	294155	5e9f31ca9b0a040704ee0bad	3	1	main_slash	7	main_slash	93	stimuli_distractor_diamondtriangles.svg	stimuli_target_rectangletriangles.svg	13	yes	53	1	281	0	0			0	0			1				0	
6.6.1	win	2023-07-16	22:06:59	22:12:02	294155	5e9f31ca9b0a040704ee0bad	3	1	main_slash	7	advance_on_keypress_SLASH	94	stimuli_distractor_diamondtriangles.svg	stimuli_target_rectangletriangles.svg	13	yes	57	0	91	0	0			0	0			1				0	
6.6.1	win	2023-07-16	22:06:59	22:12:03	295217	5e9f31ca9b0a040704ee0bad	3	1	main_slash	7	main_slash	95	stimuli_distractor_trianglediamonds.svg	stimuli_distractor_diamondtriangles.svg	36	no	53	0	310	0	0			0	0			1				0	
6.6.1	win	2023-07-16	22:06:59	22:12:03	295217	5e9f31ca9b0a040704ee0bad	3	1	main_slash	7	advance_on_keypress_SLASH	96	stimuli_distractor_trianglediamonds.svg	stimuli_distractor_diamondtriangles.svg	36	no	57	0	800	0	0			0	0			1				0	
6.6.1	win	2023-07-16	22:06:59	22:12:05	297186	5e9f31ca9b0a040704ee0bad	3	1	main_slash	7	main_slash	97	stimuli_target_rectanglediamonds.svg	stimuli_distractor_diamondtriangles.svg	6	yes	53	1	506	0	0			0	0			1				0	
6.6.1	win	2023-07-16	22:06:59	22:12:05	297186	5e9f31ca9b0a040704ee0bad	3	1	main_slash	7	advance_on_keypress_SLASH	98	stimuli_target_rectanglediamonds.svg	stimuli_distractor_diamondtriangles.svg	6	yes	57	0	159	0	0			0	0			1				0	
6.6.1	win	2023-07-16	22:06:59	22:12:07	298812	5e9f31ca9b0a040704ee0bad	3	1	main_slash	7	main_slash	99	stimuli_distractor_diamondtriangles.svg	stimuli_target_trianglesquares.svg	30	yes	53	1	824	0	0			0	0			1				0	
6.6.1	win	2023-07-16	22:06:59	22:12:07	298812	5e9f31ca9b0a040704ee0bad	3	1	main_slash	7	advance_on_keypress_SLASH	100	stimuli_distractor_diamondtriangles.svg	stimuli_target_trianglesquares.svg	30	yes	57	0	313	0	0			0	0			1				0	
6.6.1	win	2023-07-16	22:06:59	22:12:08	300246	5e9f31ca9b0a040704ee0bad	3	1	main_slash	7	main_slash	101	stimuli_distractor_trianglediamonds.svg	stimuli_target_trianglesquares.svg	26	yes	53	1	475	0	0			0	0			1				0	
6.6.1	win	2023-07-16	22:06:59	22:12:08	300246	5e9f31ca9b0a040704ee0bad	3	1	main_slash	7	advance_on_keypress_SLASH	102	stimuli_distractor_trianglediamonds.svg	stimuli_target_trianglesquares.svg	26	yes	57	0	212	0	0			0	0			1				0	
6.6.1	win	2023-07-16	22:06:59	22:12:10	301895	5e9f31ca9b0a040704ee0bad	3	1	main_slash	7	main_slash	103	stimuli_target_squarediamonds.svg	stimuli_distractor_trianglediamonds.svg	4	yes	53	1	776	0	0			0	0			1				0	
6.6.1	win	2023-07-16	22:06:59	22:12:10	301895	5e9f31ca9b0a040704ee0bad	3	1	main_slash	7	advance_on_keypress_SLASH	104	stimuli_target_squarediamonds.svg	stimuli_distractor_trianglediamonds.svg	4	yes	57	0	200	0	0			0	0			1				0	
6.6.1	win	2023-07-16	22:06:59	22:12:11	303203	5e9f31ca9b0a040704ee0bad	3	1	main_slash	7	main_slash	105	stimuli_target_rectanglediamonds.svg	stimuli_distractor_trianglediamonds.svg	2	yes	53	1	469	0	0			0	0			1				0	
6.6.1	win	2023-07-16	22:06:59	22:12:11	303203	5e9f31ca9b0a040704ee0bad	3	1	main_slash	7	advance_on_keypress_SLASH	106	stimuli_target_rectanglediamonds.svg	stimuli_distractor_trianglediamonds.svg	2	yes	57	0	152	0	0			0	0			1				0	
6.6.1	win	2023-07-16	22:06:59	22:12:14	306000	5e9f31ca9b0a040704ee0bad	3	1	main_slash	7	main_slash	107	stimuli_distractor_trianglediamonds.svg	stimuli_target_diamondsquares.svg	28	yes	0	0	2000	0	0			0	0			1				0	
6.6.1	win	2023-07-16	22:06:59	22:12:14	306000	5e9f31ca9b0a040704ee0bad	3	1	main_slash	7	advance_on_keypress_SLASH	108	stimuli_distractor_trianglediamonds.svg	stimuli_target_diamondsquares.svg	28	yes	57	0	543	0	0			0	0			1				0	
6.6.1	win	2023-07-16	22:06:59	22:12:16	307732	5e9f31ca9b0a040704ee0bad	3	1	main_slash	7	main_slash	109	stimuli_distractor_diamondtriangles.svg	stimuli_target_squaretriangles.svg	15	yes	53	1	549	0	0			0	0			1				0	
6.6.1	win	2023-07-16	22:06:59	22:12:16	307732	5e9f31ca9b0a040704ee0bad	3	1	main_slash	7	advance_on_keypress_SLASH	110	stimuli_distractor_diamondtriangles.svg	stimuli_target_squaretriangles.svg	15	yes	57	0	150	0	0			0	0			1				0	
6.6.1	win	2023-07-16	22:06:59	22:12:17	308948	5e9f31ca9b0a040704ee0bad	3	1	main_slash	7	main_slash	111	stimuli_target_rectangletriangles.svg	stimuli_distractor_trianglediamonds.svg	1	yes	53	1	418	0	0			0	0			1				0	
6.6.1	win	2023-07-16	22:06:59	22:12:17	308948	5e9f31ca9b0a040704ee0bad	3	1	main_slash	7	advance_on_keypress_SLASH	112	stimuli_target_rectangletriangles.svg	stimuli_distractor_trianglediamonds.svg	1	yes	57	0	171	0	0			0	0			1				0	
6.6.1	win	2023-07-16	22:06:59	22:12:20	311763	5e9f31ca9b0a040704ee0bad	3	1	main_slash	7	main_slash	113	stimuli_distractor_diamondtriangles.svg	stimuli_distractor_trianglediamonds.svg	37	no	0	1	2000	0	0			0	0			1				0	
6.6.1	win	2023-07-16	22:06:59	22:12:20	311763	5e9f31ca9b0a040704ee0bad	3	1	main_slash	7	advance_on_keypress_SLASH	114	stimuli_distractor_diamondtriangles.svg	stimuli_distractor_trianglediamonds.svg	37	no	57	0	530	0	0			0	0			1				0	
6.6.1	win	2023-07-16	22:06:59	22:12:23	314944	5e9f31ca9b0a040704ee0bad	3	1	main_slash	7	main_slash	115	stimuli_distractor_diamondtriangles.svg	stimuli_distractor_diamondtriangles.svg	40	no	0	1	2000	0	0			0	0			1				0	
6.6.1	win	2023-07-16	22:06:59	22:12:23	314944	5e9f31ca9b0a040704ee0bad	3	1	main_slash	7	advance_on_keypress_SLASH	116	stimuli_distractor_diamondtriangles.svg	stimuli_distractor_diamondtriangles.svg	40	no	57	0	547	0	0			0	0			1				0	
6.6.1	win	2023-07-16	22:06:59	22:12:26	318142	5e9f31ca9b0a040704ee0bad	3	1	main_slash	7	main_slash	117	stimuli_distractor_diamondtriangles.svg	stimuli_distractor_trianglediamonds.svg	38	no	0	1	2000	0	0			0	0			1				0	
6.6.1	win	2023-07-16	22:06:59	22:12:26	318142	5e9f31ca9b0a040704ee0bad	3	1	main_slash	7	advance_on_keypress_SLASH	118	stimuli_distractor_diamondtriangles.svg	stimuli_distractor_trianglediamonds.svg	38	no	57	0	378	0	0			0	0			1				0	
6.6.1	win	2023-07-16	22:06:59	22:12:28	319692	5e9f31ca9b0a040704ee0bad	3	1	main_slash	7	main_slash	119	stimuli_distractor_trianglediamonds.svg	stimuli_target_squaretriangles.svg	11	yes	53	1	519	0	0			0	0			1				0	
6.6.1	win	2023-07-16	22:06:59	22:12:28	319692	5e9f31ca9b0a040704ee0bad	3	1	main_slash	7	advance_on_keypress_SLASH	120	stimuli_distractor_trianglediamonds.svg	stimuli_target_squaretriangles.svg	11	yes	57	0	288	0	0			0	0			1				0	
6.6.1	win	2023-07-16	22:06:59	22:12:29	321341	5e9f31ca9b0a040704ee0bad	3	1	main_slash	7	main_slash	121	stimuli_target_diamondrectangles.svg	stimuli_distractor_trianglediamonds.svg	19	yes	53	1	720	0	0			0	0			1				0	
6.6.1	win	2023-07-16	22:06:59	22:12:29	321341	5e9f31ca9b0a040704ee0bad	3	1	main_slash	7	advance_on_keypress_SLASH	122	stimuli_target_diamondrectangles.svg	stimuli_distractor_trianglediamonds.svg	19	yes	57	0	274	0	0			0	0			1				0	
6.6.1	win	2023-07-16	22:06:59	22:12:31	322715	5e9f31ca9b0a040704ee0bad	3	1	main_slash	7	main_slash	123	stimuli_target_rectangletriangles.svg	stimuli_distractor_diamondtriangles.svg	5	yes	53	1	461	0	0			0	0			1				0	
6.6.1	win	2023-07-16	22:06:59	22:12:31	322715	5e9f31ca9b0a040704ee0bad	3	1	main_slash	7	advance_on_keypress_SLASH	124	stimuli_target_rectangletriangles.svg	stimuli_distractor_diamondtriangles.svg	5	yes	57	0	369	0	0			0	0			1				0	
6.6.1	win	2023-07-16	22:06:59	22:12:34	325736	5e9f31ca9b0a040704ee0bad	3	1	main_slash	7	main_slash	125	stimuli_target_trianglerectangles.svg	stimuli_distractor_trianglediamonds.svg	17	yes	0	0	2000	0	0			0	0			1				0	
6.6.1	win	2023-07-16	22:06:59	22:12:34	325736	5e9f31ca9b0a040704ee0bad	3	1	main_slash	7	advance_on_keypress_SLASH	126	stimuli_target_trianglerectangles.svg	stimuli_distractor_trianglediamonds.svg	17	yes	57	0	498	0	0			0	0			1				0	
6.6.1	win	2023-07-16	22:06:59	22:12:36	327575	5e9f31ca9b0a040704ee0bad	3	1	main_slash	7	main_slash	127	stimuli_distractor_trianglediamonds.svg	stimuli_target_squarediamonds.svg	12	yes	53	1	691	0	0			0	0			1				0	
6.6.1	win	2023-07-16	22:06:59	22:12:36	327575	5e9f31ca9b0a040704ee0bad	3	1	main_slash	7	advance_on_keypress_SLASH	128	stimuli_distractor_trianglediamonds.svg	stimuli_target_squarediamonds.svg	12	yes	57	0	153	0	0			0	0			1				0	
6.6.1	win	2023-07-16	22:06:59	22:12:38	330370	5e9f31ca9b0a040704ee0bad	3	1	main_slash	7	main_slash	129	stimuli_distractor_diamondtriangles.svg	stimuli_target_diamondsquares.svg	32	yes	53	1	1987	0	0			0	0			1				0	
6.6.1	win	2023-07-16	22:06:59	22:12:38	330370	5e9f31ca9b0a040704ee0bad	3	1	main_slash	7	advance_on_keypress_SLASH	130	stimuli_distractor_diamondtriangles.svg	stimuli_target_diamondsquares.svg	32	yes	57	0	236	0	0			0	0			1				0	
6.6.1	win	2023-07-16	22:06:59	22:12:40	331884	5e9f31ca9b0a040704ee0bad	3	1	main_slash	7	main_slash	131	stimuli_distractor_trianglediamonds.svg	stimuli_target_trianglerectangles.svg	25	yes	53	1	637	0	0			0	0			1				0	
6.6.1	win	2023-07-16	22:06:59	22:12:40	331884	5e9f31ca9b0a040704ee0bad	3	1	main_slash	7	advance_on_keypress_SLASH	132	stimuli_distractor_trianglediamonds.svg	stimuli_target_trianglerectangles.svg	25	yes	57	0	178	0	0			0	0			1				0	
6.6.1	win	2023-07-16	22:06:59	22:12:41	333100	5e9f31ca9b0a040704ee0bad	3	1	main_slash	7	main_slash	133	stimuli_target_trianglesquares.svg	stimuli_distractor_diamondtriangles.svg	22	yes	53	1	386	0	0			0	0			1				0	
6.6.1	win	2023-07-16	22:06:59	22:12:41	333100	5e9f31ca9b0a040704ee0bad	3	1	main_slash	7	advance_on_keypress_SLASH	134	stimuli_target_trianglesquares.svg	stimuli_distractor_diamondtriangles.svg	22	yes	57	0	136	0	0			0	0			1				0	
6.6.1	win	2023-07-16	22:06:59	22:12:42	334341	5e9f31ca9b0a040704ee0bad	3	1	main_slash	7	main_slash	135	stimuli_target_squaretriangles.svg	stimuli_distractor_trianglediamonds.svg	3	yes	53	1	462	0	0			0	0			1				0	
6.6.1	win	2023-07-16	22:06:59	22:12:42	334341	5e9f31ca9b0a040704ee0bad	3	1	main_slash	7	advance_on_keypress_SLASH	136	stimuli_target_squaretriangles.svg	stimuli_distractor_trianglediamonds.svg	3	yes	57	0	149	0	0			0	0			1				0	
6.6.1	win	2023-07-16	22:06:59	22:12:45	337144	5e9f31ca9b0a040704ee0bad	3	1	main_slash	7	main_slash	137	stimuli_distractor_trianglediamonds.svg	stimuli_distractor_diamondtriangles.svg	35	no	0	1	2000	0	0			0	0			1				0	
6.6.1	win	2023-07-16	22:06:59	22:12:45	337144	5e9f31ca9b0a040704ee0bad	3	1	main_slash	7	advance_on_keypress_SLASH	138	stimuli_distractor_trianglediamonds.svg	stimuli_distractor_diamondtriangles.svg	35	no	57	0	680	0	0			0	0			1				0	
6.6.1	win	2023-07-16	22:06:59	22:12:47	338990	5e9f31ca9b0a040704ee0bad	3	1	main_slash	7	main_slash	139	stimuli_target_diamondsquares.svg	stimuli_distractor_trianglediamonds.svg	20	yes	53	1	512	0	0			0	0			1				0	
6.6.1	win	2023-07-16	22:06:59	22:12:47	338990	5e9f31ca9b0a040704ee0bad	3	1	main_slash	7	advance_on_keypress_SLASH	140	stimuli_target_diamondsquares.svg	stimuli_distractor_trianglediamonds.svg	20	yes	57	0	171	0	0			0	0			1				0	
6.6.1	win	2023-07-16	22:06:59	22:12:48	340166	5e9f31ca9b0a040704ee0bad	3	1	main_slash	7	main_slash	141	stimuli_distractor_diamondtriangles.svg	stimuli_target_trianglerectangles.svg	29	yes	53	1	358	0	0			0	0			1				0	
6.6.1	win	2023-07-16	22:06:59	22:12:48	340166	5e9f31ca9b0a040704ee0bad	3	1	main_slash	7	advance_on_keypress_SLASH	142	stimuli_distractor_diamondtriangles.svg	stimuli_target_trianglerectangles.svg	29	yes	57	0	172	0	0			0	0			1				0	
6.6.1	win	2023-07-16	22:06:59	22:12:49	341419	5e9f31ca9b0a040704ee0bad	3	1	main_slash	7	main_slash	143	stimuli_distractor_diamondtriangles.svg	stimuli_target_diamondrectangles.svg	31	yes	53	1	428	0	0			0	0			1				0	
6.6.1	win	2023-07-16	22:06:59	22:12:49	341419	5e9f31ca9b0a040704ee0bad	3	1	main_slash	7	advance_on_keypress_SLASH	144	stimuli_distractor_diamondtriangles.svg	stimuli_target_diamondrectangles.svg	31	yes	57	0	130	0	0			0	0			1				0	
6.6.1	win	2023-07-16	22:06:59	22:12:51	342602	5e9f31ca9b0a040704ee0bad	3	1	main_slash	7	main_slash	145	stimuli_target_squaretriangles.svg	stimuli_distractor_diamondtriangles.svg	7	yes	53	1	396	0	0			0	0			1				0	
6.6.1	win	2023-07-16	22:06:59	22:12:51	342602	5e9f31ca9b0a040704ee0bad	3	1	main_slash	7	advance_on_keypress_SLASH	146	stimuli_target_squaretriangles.svg	stimuli_distractor_diamondtriangles.svg	7	yes	57	0	211	0	0			0	0			1				0	
6.6.1	win	2023-07-16	22:06:59	22:12:54	345472	5e9f31ca9b0a040704ee0bad	3	1	main_slash	7	main_slash	147	stimuli_target_trianglerectangles.svg	stimuli_distractor_diamondtriangles.svg	21	yes	0	0	2000	0	0			0	0			1				0	
6.6.1	win	2023-07-16	22:06:59	22:12:54	345472	5e9f31ca9b0a040704ee0bad	3	1	main_slash	7	advance_on_keypress_SLASH	148	stimuli_target_trianglerectangles.svg	stimuli_distractor_diamondtriangles.svg	21	yes	57	0	484	0	0			0	0			1				0	
6.6.1	win	2023-07-16	22:06:59	22:12:55	347061	5e9f31ca9b0a040704ee0bad	3	1	main_slash	7	main_slash	149	stimuli_target_trianglesquares.svg	stimuli_distractor_trianglediamonds.svg	18	yes	53	1	458	0	0			0	0			1				0	
6.6.1	win	2023-07-16	22:06:59	22:12:55	347061	5e9f31ca9b0a040704ee0bad	3	1	main_slash	7	advance_on_keypress_SLASH	150	stimuli_target_trianglesquares.svg	stimuli_distractor_trianglediamonds.svg	18	yes	57	0	186	0	0			0	0			1				0	
6.6.1	win	2023-07-16	22:06:59	22:12:56	348323	5e9f31ca9b0a040704ee0bad	3	1	main_slash	7	main_slash	151	stimuli_distractor_diamondtriangles.svg	stimuli_target_squarediamonds.svg	16	yes	53	1	437	0	0			0	0			1				0	
6.6.1	win	2023-07-16	22:06:59	22:12:56	348323	5e9f31ca9b0a040704ee0bad	3	1	main_slash	7	advance_on_keypress_SLASH	152	stimuli_distractor_diamondtriangles.svg	stimuli_target_squarediamonds.svg	16	yes	57	0	153	0	0			0	0			1				0	
6.6.1	win	2023-07-16	22:06:59	22:12:58	349633	5e9f31ca9b0a040704ee0bad	3	1	main_slash	7	main_slash	153	stimuli_target_diamondsquares.svg	stimuli_distractor_diamondtriangles.svg	24	yes	53	1	513	0	0			0	0			1				0	
6.6.1	win	2023-07-16	22:06:59	22:12:58	349633	5e9f31ca9b0a040704ee0bad	3	1	main_slash	7	advance_on_keypress_SLASH	154	stimuli_target_diamondsquares.svg	stimuli_distractor_diamondtriangles.svg	24	yes	57	0	131	0	0			0	0			1				0	
6.6.1	win	2023-07-16	22:06:59	22:12:59	350709	5e9f31ca9b0a040704ee0bad	3	1	main_slash	7	main_slash	155	stimuli_target_diamondrectangles.svg	stimuli_distractor_diamondtriangles.svg	23	yes	53	1	293	0	0			0	0			1				0	
6.6.1	win	2023-07-16	22:06:59	22:12:59	350709	5e9f31ca9b0a040704ee0bad	3	1	main_slash	7	advance_on_keypress_SLASH	156	stimuli_target_diamondrectangles.svg	stimuli_distractor_diamondtriangles.svg	23	yes	57	0	132	0	0			0	0			1				0	
6.6.1	win	2023-07-16	22:06:59	22:13:00	351864	5e9f31ca9b0a040704ee0bad	3	1	main_slash	7	main_slash	157	stimuli_distractor_diamondtriangles.svg	stimuli_target_rectanglediamonds.svg	14	yes	53	1	369	0	0			0	0			1				0	
6.6.1	win	2023-07-16	22:06:59	22:13:00	351864	5e9f31ca9b0a040704ee0bad	3	1	main_slash	7	advance_on_keypress_SLASH	158	stimuli_distractor_diamondtriangles.svg	stimuli_target_rectanglediamonds.svg	14	yes	57	0	135	0	0			0	0			1				0	
6.6.1	win	2023-07-16	22:06:59	22:13:01	352920	5e9f31ca9b0a040704ee0bad	3	1	main_slash	7	main_slash	159	stimuli_distractor_trianglediamonds.svg	stimuli_distractor_trianglediamonds.svg	33	no	53	0	271	0	0			0	0			1				0	
6.6.1	win	2023-07-16	22:06:59	22:13:01	352920	5e9f31ca9b0a040704ee0bad	3	1	main_slash	7	advance_on_keypress_SLASH	160	stimuli_distractor_trianglediamonds.svg	stimuli_distractor_trianglediamonds.svg	33	no	57	0	135	0	0			0	0			1				0	
6.6.1	win	2023-07-16	22:06:59	22:13:17	368651	5e9f31ca9b0a040704ee0bad	3	1	practice_z	9	practice_z	1	stimuli_distractor_trianglediamonds.svg	stimuli_distractor_diamondtriangles.svg	16	no	44	0	361	0	0			0	0			1				0	
6.6.1	win	2023-07-16	22:06:59	22:13:17	368651	5e9f31ca9b0a040704ee0bad	3	1	practice_z	9	advance_on_keypress_ZEE	2	stimuli_distractor_trianglediamonds.svg	stimuli_distractor_diamondtriangles.svg	16	no	57	0	587	0	0			0	0			1				0	
6.6.1	win	2023-07-16	22:06:59	22:13:19	371333	5e9f31ca9b0a040704ee0bad	3	1	practice_z	9	practice_z	3	stimuli_target_rectanglediamonds.svg	stimuli_distractor_diamondtriangles.svg	1	yes	44	1	443	0	0			0	0			1				0	
6.6.1	win	2023-07-16	22:06:59	22:13:19	371333	5e9f31ca9b0a040704ee0bad	3	1	practice_z	9	advance_on_keypress_ZEE	4	stimuli_target_rectanglediamonds.svg	stimuli_distractor_diamondtriangles.svg	1	yes	57	0	567	0	0			0	0			1				0	
6.6.1	win	2023-07-16	22:06:59	22:13:22	374177	5e9f31ca9b0a040704ee0bad	3	1	practice_z	9	practice_z	5	stimuli_distractor_trianglediamonds.svg	stimuli_target_diamondrectangles.svg	12	yes	44	1	622	0	0			0	0			1				0	
6.6.1	win	2023-07-16	22:06:59	22:13:22	374177	5e9f31ca9b0a040704ee0bad	3	1	practice_z	9	advance_on_keypress_ZEE	6	stimuli_distractor_trianglediamonds.svg	stimuli_target_diamondrectangles.svg	12	yes	57	0	411	0	0			0	0			1				0	
6.6.1	win	2023-07-16	22:06:59	22:13:25	376681	5e9f31ca9b0a040704ee0bad	3	1	practice_z	9	practice_z	7	stimuli_distractor_diamondtriangles.svg	stimuli_target_rectangletriangles.svg	7	yes	44	1	429	0	0			0	0			1				0	
6.6.1	win	2023-07-16	22:06:59	22:13:25	376681	5e9f31ca9b0a040704ee0bad	3	1	practice_z	9	advance_on_keypress_ZEE	8	stimuli_distractor_diamondtriangles.svg	stimuli_target_rectangletriangles.svg	7	yes	57	0	349	0	0			0	0			1				0	
6.6.1	win	2023-07-16	22:06:59	22:13:27	379065	5e9f31ca9b0a040704ee0bad	3	1	practice_z	9	practice_z	9	stimuli_distractor_trianglediamonds.svg	stimuli_target_squarediamonds.svg	11	yes	44	1	371	0	0			0	0			1				0	
6.6.1	win	2023-07-16	22:06:59	22:13:27	379065	5e9f31ca9b0a040704ee0bad	3	1	practice_z	9	advance_on_keypress_ZEE	10	stimuli_distractor_trianglediamonds.svg	stimuli_target_squarediamonds.svg	11	yes	57	0	369	0	0			0	0			1				0	
6.6.1	win	2023-07-16	22:06:59	22:13:30	381483	5e9f31ca9b0a040704ee0bad	3	1	practice_z	9	practice_z	11	stimuli_target_squarediamonds.svg	stimuli_distractor_trianglediamonds.svg	5	yes	44	1	402	0	0			0	0			1				0	
6.6.1	win	2023-07-16	22:06:59	22:13:30	381483	5e9f31ca9b0a040704ee0bad	3	1	practice_z	9	advance_on_keypress_ZEE	12	stimuli_target_squarediamonds.svg	stimuli_distractor_trianglediamonds.svg	5	yes	57	0	425	0	0			0	0			1				0	
6.6.1	win	2023-07-16	22:06:59	22:13:32	383964	5e9f31ca9b0a040704ee0bad	3	1	practice_z	9	practice_z	13	stimuli_distractor_diamondtriangles.svg	stimuli_target_trianglerectangles.svg	9	yes	44	1	400	0	0			0	0			1				0	
6.6.1	win	2023-07-16	22:06:59	22:13:32	383964	5e9f31ca9b0a040704ee0bad	3	1	practice_z	9	advance_on_keypress_ZEE	14	stimuli_distractor_diamondtriangles.svg	stimuli_target_trianglerectangles.svg	9	yes	57	0	410	0	0			0	0			1				0	
6.6.1	win	2023-07-16	22:06:59	22:13:35	386501	5e9f31ca9b0a040704ee0bad	3	1	practice_z	9	practice_z	15	stimuli_distractor_diamondtriangles.svg	stimuli_target_diamondrectangles.svg	8	yes	44	1	472	0	0			0	0			1				0	
6.6.1	win	2023-07-16	22:06:59	22:13:35	386501	5e9f31ca9b0a040704ee0bad	3	1	practice_z	9	advance_on_keypress_ZEE	16	stimuli_distractor_diamondtriangles.svg	stimuli_target_diamondrectangles.svg	8	yes	57	0	398	0	0			0	0			1				0	
6.6.1	win	2023-07-16	22:06:59	22:13:39	390543	5e9f31ca9b0a040704ee0bad	3	1	practice_z	9	practice_z	17	stimuli_distractor_diamondtriangles.svg	stimuli_distractor_diamondtriangles.svg	13	no	0	1	2000	0	0			0	0			1				0	
6.6.1	win	2023-07-16	22:06:59	22:13:39	390543	5e9f31ca9b0a040704ee0bad	3	1	practice_z	9	advance_on_keypress_ZEE	18	stimuli_distractor_diamondtriangles.svg	stimuli_distractor_diamondtriangles.svg	13	no	57	0	572	0	0			0	0			1				0	
6.6.1	win	2023-07-16	22:06:59	22:13:41	393193	5e9f31ca9b0a040704ee0bad	3	1	practice_z	9	practice_z	19	stimuli_target_diamondsquares.svg	stimuli_distractor_diamondtriangles.svg	3	yes	44	1	419	0	0			0	0			1				0	
6.6.1	win	2023-07-16	22:06:59	22:13:41	393193	5e9f31ca9b0a040704ee0bad	3	1	practice_z	9	advance_on_keypress_ZEE	20	stimuli_target_diamondsquares.svg	stimuli_distractor_diamondtriangles.svg	3	yes	57	0	371	0	0			0	0			1				0	
6.6.1	win	2023-07-16	22:06:59	22:13:44	395579	5e9f31ca9b0a040704ee0bad	3	1	practice_z	9	practice_z	21	stimuli_target_rectanglediamonds.svg	stimuli_distractor_trianglediamonds.svg	4	yes	44	1	358	0	0			0	0			1				0	
6.6.1	win	2023-07-16	22:06:59	22:13:44	395579	5e9f31ca9b0a040704ee0bad	3	1	practice_z	9	advance_on_keypress_ZEE	22	stimuli_target_rectanglediamonds.svg	stimuli_distractor_trianglediamonds.svg	4	yes	57	0	408	0	0			0	0			1				0	
6.6.1	win	2023-07-16	22:06:59	22:13:46	398054	5e9f31ca9b0a040704ee0bad	3	1	practice_z	9	practice_z	23	stimuli_target_squarediamonds.svg	stimuli_distractor_diamondtriangles.svg	2	yes	44	1	401	0	0			0	0			1				0	
6.6.1	win	2023-07-16	22:06:59	22:13:46	398054	5e9f31ca9b0a040704ee0bad	3	1	practice_z	9	advance_on_keypress_ZEE	24	stimuli_target_squarediamonds.svg	stimuli_distractor_diamondtriangles.svg	2	yes	57	0	399	0	0			0	0			1				0	
6.6.1	win	2023-07-16	22:06:59	22:13:49	400482	5e9f31ca9b0a040704ee0bad	3	1	practice_z	9	practice_z	25	stimuli_distractor_trianglediamonds.svg	stimuli_target_rectanglediamonds.svg	10	yes	44	1	376	0	0			0	0			1				0	
6.6.1	win	2023-07-16	22:06:59	22:13:49	400482	5e9f31ca9b0a040704ee0bad	3	1	practice_z	9	advance_on_keypress_ZEE	26	stimuli_distractor_trianglediamonds.svg	stimuli_target_rectanglediamonds.svg	10	yes	57	0	359	0	0			0	0			1				0	
6.6.1	win	2023-07-16	22:06:59	22:13:51	402822	5e9f31ca9b0a040704ee0bad	3	1	practice_z	9	practice_z	27	stimuli_target_diamondsquares.svg	stimuli_distractor_trianglediamonds.svg	6	yes	44	1	322	0	0			0	0			1				0	
6.6.1	win	2023-07-16	22:06:59	22:13:51	402822	5e9f31ca9b0a040704ee0bad	3	1	practice_z	9	advance_on_keypress_ZEE	28	stimuli_target_diamondsquares.svg	stimuli_distractor_trianglediamonds.svg	6	yes	57	0	432	0	0			0	0			1				0	
6.6.1	win	2023-07-16	22:06:59	22:13:55	406915	5e9f31ca9b0a040704ee0bad	3	1	practice_z	9	practice_z	29	stimuli_distractor_diamondtriangles.svg	stimuli_distractor_trianglediamonds.svg	14	no	0	1	2000	0	0			0	0			1				0	
6.6.1	win	2023-07-16	22:06:59	22:13:55	406915	5e9f31ca9b0a040704ee0bad	3	1	practice_z	9	advance_on_keypress_ZEE	30	stimuli_distractor_diamondtriangles.svg	stimuli_distractor_trianglediamonds.svg	14	no	57	0	547	0	0			0	0			1				0	
6.6.1	win	2023-07-16	22:06:59	22:13:58	410079	5e9f31ca9b0a040704ee0bad	3	1	practice_z	9	practice_z	31	stimuli_distractor_trianglediamonds.svg	stimuli_distractor_trianglediamonds.svg	15	no	44	0	968	0	0			0	0			1				0	
6.6.1	win	2023-07-16	22:06:59	22:13:58	410079	5e9f31ca9b0a040704ee0bad	3	1	practice_z	9	advance_on_keypress_ZEE	32	stimuli_distractor_trianglediamonds.svg	stimuli_distractor_trianglediamonds.svg	15	no	57	0	575	0	0			0	0			1				0	
6.6.1	win	2023-07-16	22:06:59	22:14:03	414576	5e9f31ca9b0a040704ee0bad	3	1	main_z	11	main_z	1	stimuli_target_squaretriangles.svg	stimuli_distractor_diamondtriangles.svg	7	yes	44	1	339	0	0			0	0			1				0	
6.6.1	win	2023-07-16	22:06:59	22:14:03	414576	5e9f31ca9b0a040704ee0bad	3	1	main_z	11	advance_on_keypress_ZEE	2	stimuli_target_squaretriangles.svg	stimuli_distractor_diamondtriangles.svg	7	yes	57	0	1039	0	0			0	0			1				0	
6.6.1	win	2023-07-16	22:06:59	22:14:05	416992	5e9f31ca9b0a040704ee0bad	3	1	main_z	11	main_z	3	stimuli_distractor_diamondtriangles.svg	stimuli_target_trianglerectangles.svg	29	yes	44	1	722	0	0			0	0			1				0	
6.6.1	win	2023-07-16	22:06:59	22:14:05	416992	5e9f31ca9b0a040704ee0bad	3	1	main_z	11	advance_on_keypress_ZEE	4	stimuli_distractor_diamondtriangles.svg	stimuli_target_trianglerectangles.svg	29	yes	57	0	817	0	0			0	0			1				0	
6.6.1	win	2023-07-16	22:06:59	22:14:07	419080	5e9f31ca9b0a040704ee0bad	3	1	main_z	11	main_z	5	stimuli_target_trianglesquares.svg	stimuli_distractor_diamondtriangles.svg	22	yes	44	1	629	0	0			0	0			1				0	
6.6.1	win	2023-07-16	22:06:59	22:14:07	419080	5e9f31ca9b0a040704ee0bad	3	1	main_z	11	advance_on_keypress_ZEE	6	stimuli_target_trianglesquares.svg	stimuli_distractor_diamondtriangles.svg	22	yes	57	0	758	0	0			0	0			1				0	
6.6.1	win	2023-07-16	22:06:59	22:14:09	420926	5e9f31ca9b0a040704ee0bad	3	1	main_z	11	main_z	7	stimuli_target_rectangletriangles.svg	stimuli_distractor_trianglediamonds.svg	1	yes	44	1	426	0	0			0	0			1				0	
6.6.1	win	2023-07-16	22:06:59	22:14:09	420926	5e9f31ca9b0a040704ee0bad	3	1	main_z	11	advance_on_keypress_ZEE	8	stimuli_target_rectangletriangles.svg	stimuli_distractor_trianglediamonds.svg	1	yes	57	0	595	0	0			0	0			1				0	
6.6.1	win	2023-07-16	22:06:59	22:14:11	422566	5e9f31ca9b0a040704ee0bad	3	1	main_z	11	main_z	9	stimuli_distractor_trianglediamonds.svg	stimuli_target_rectanglediamonds.svg	10	yes	44	1	400	0	0			0	0			1				0	
6.6.1	win	2023-07-16	22:06:59	22:14:11	422566	5e9f31ca9b0a040704ee0bad	3	1	main_z	11	advance_on_keypress_ZEE	10	stimuli_distractor_trianglediamonds.svg	stimuli_target_rectanglediamonds.svg	10	yes	57	0	555	0	0			0	0			1				0	
6.6.1	win	2023-07-16	22:06:59	22:14:13	424576	5e9f31ca9b0a040704ee0bad	3	1	main_z	11	main_z	11	stimuli_distractor_trianglediamonds.svg	stimuli_target_trianglerectangles.svg	25	yes	44	1	811	0	0			0	0			1				0	
6.6.1	win	2023-07-16	22:06:59	22:14:13	424576	5e9f31ca9b0a040704ee0bad	3	1	main_z	11	advance_on_keypress_ZEE	12	stimuli_distractor_trianglediamonds.svg	stimuli_target_trianglerectangles.svg	25	yes	57	0	737	0	0			0	0			1				0	
6.6.1	win	2023-07-16	22:06:59	22:14:15	426521	5e9f31ca9b0a040704ee0bad	3	1	main_z	11	main_z	13	stimuli_distractor_trianglediamonds.svg	stimuli_distractor_diamondtriangles.svg	35	no	44	0	558	0	0			0	0			1				0	
6.6.1	win	2023-07-16	22:06:59	22:14:15	426521	5e9f31ca9b0a040704ee0bad	3	1	main_z	11	advance_on_keypress_ZEE	14	stimuli_distractor_trianglediamonds.svg	stimuli_distractor_diamondtriangles.svg	35	no	57	0	639	0	0			0	0			1				0	
6.6.1	win	2023-07-16	22:06:59	22:14:16	428411	5e9f31ca9b0a040704ee0bad	3	1	main_z	11	main_z	15	stimuli_distractor_trianglediamonds.svg	stimuli_target_squarediamonds.svg	12	yes	44	1	616	0	0			0	0			1				0	
6.6.1	win	2023-07-16	22:06:59	22:14:16	428411	5e9f31ca9b0a040704ee0bad	3	1	main_z	11	advance_on_keypress_ZEE	16	stimuli_distractor_trianglediamonds.svg	stimuli_target_squarediamonds.svg	12	yes	57	0	579	0	0			0	0			1				0	
6.6.1	win	2023-07-16	22:06:59	22:14:18	430105	5e9f31ca9b0a040704ee0bad	3	1	main_z	11	main_z	17	stimuli_target_diamondrectangles.svg	stimuli_distractor_trianglediamonds.svg	19	yes	44	1	462	0	0			0	0			1				0	
6.6.1	win	2023-07-16	22:06:59	22:14:18	430105	5e9f31ca9b0a040704ee0bad	3	1	main_z	11	advance_on_keypress_ZEE	18	stimuli_target_diamondrectangles.svg	stimuli_distractor_trianglediamonds.svg	19	yes	57	0	415	0	0			0	0			1				0	
6.6.1	win	2023-07-16	22:06:59	22:14:20	431780	5e9f31ca9b0a040704ee0bad	3	1	main_z	11	main_z	19	stimuli_distractor_diamondtriangles.svg	stimuli_target_diamondrectangles.svg	31	yes	44	1	604	0	0			0	0			1				0	
6.6.1	win	2023-07-16	22:06:59	22:14:20	431780	5e9f31ca9b0a040704ee0bad	3	1	main_z	11	advance_on_keypress_ZEE	20	stimuli_distractor_diamondtriangles.svg	stimuli_target_diamondrectangles.svg	31	yes	57	0	438	0	0			0	0			1				0	
6.6.1	win	2023-07-16	22:06:59	22:14:21	433219	5e9f31ca9b0a040704ee0bad	3	1	main_z	11	main_z	21	stimuli_target_rectangletriangles.svg	stimuli_distractor_diamondtriangles.svg	5	yes	44	1	361	0	0			0	0			1				0	
6.6.1	win	2023-07-16	22:06:59	22:14:21	433219	5e9f31ca9b0a040704ee0bad	3	1	main_z	11	advance_on_keypress_ZEE	22	stimuli_target_rectangletriangles.svg	stimuli_distractor_diamondtriangles.svg	5	yes	57	0	328	0	0			0	0			1				0	
6.6.1	win	2023-07-16	22:06:59	22:14:23	434588	5e9f31ca9b0a040704ee0bad	3	1	main_z	11	main_z	23	stimuli_target_squarediamonds.svg	stimuli_distractor_diamondtriangles.svg	8	yes	44	1	371	0	0			0	0			1				0	
6.6.1	win	2023-07-16	22:06:59	22:14:23	434588	5e9f31ca9b0a040704ee0bad	3	1	main_z	11	advance_on_keypress_ZEE	24	stimuli_target_squarediamonds.svg	stimuli_distractor_diamondtriangles.svg	8	yes	57	0	358	0	0			0	0			1				0	
6.6.1	win	2023-07-16	22:06:59	22:14:24	435950	5e9f31ca9b0a040704ee0bad	3	1	main_z	11	main_z	25	stimuli_target_diamondsquares.svg	stimuli_distractor_diamondtriangles.svg	24	yes	44	1	360	0	0			0	0			1				0	
6.6.1	win	2023-07-16	22:06:59	22:14:24	435950	5e9f31ca9b0a040704ee0bad	3	1	main_z	11	advance_on_keypress_ZEE	26	stimuli_target_diamondsquares.svg	stimuli_distractor_diamondtriangles.svg	24	yes	57	0	329	0	0			0	0			1				0	
6.6.1	win	2023-07-16	22:06:59	22:14:25	437284	5e9f31ca9b0a040704ee0bad	3	1	main_z	11	main_z	27	stimuli_distractor_trianglediamonds.svg	stimuli_distractor_trianglediamonds.svg	34	no	44	0	346	0	0			0	0			1				0	
6.6.1	win	2023-07-16	22:06:59	22:14:25	437284	5e9f31ca9b0a040704ee0bad	3	1	main_z	11	advance_on_keypress_ZEE	28	stimuli_distractor_trianglediamonds.svg	stimuli_distractor_trianglediamonds.svg	34	no	57	0	1153	0	0			0	0			1				0	
6.6.1	win	2023-07-16	22:06:59	22:14:28	439534	5e9f31ca9b0a040704ee0bad	3	1	main_z	11	main_z	29	stimuli_target_squarediamonds.svg	stimuli_distractor_trianglediamonds.svg	4	yes	44	1	447	0	0			0	0			1				0	
6.6.1	win	2023-07-16	22:06:59	22:14:28	439534	5e9f31ca9b0a040704ee0bad	3	1	main_z	11	advance_on_keypress_ZEE	30	stimuli_target_squarediamonds.svg	stimuli_distractor_trianglediamonds.svg	4	yes	57	0	317	0	0			0	0			1				0	
6.6.1	win	2023-07-16	22:06:59	22:14:29	441034	5e9f31ca9b0a040704ee0bad	3	1	main_z	11	main_z	31	stimuli_target_trianglesquares.svg	stimuli_distractor_trianglediamonds.svg	18	yes	44	1	532	0	0			0	0			1				0	
6.6.1	win	2023-07-16	22:06:59	22:14:29	441034	5e9f31ca9b0a040704ee0bad	3	1	main_z	11	advance_on_keypress_ZEE	32	stimuli_target_trianglesquares.svg	stimuli_distractor_trianglediamonds.svg	18	yes	57	0	272	0	0			0	0			1				0	
6.6.1	win	2023-07-16	22:06:59	22:14:30	442382	5e9f31ca9b0a040704ee0bad	3	1	main_z	11	main_z	33	stimuli_target_diamondsquares.svg	stimuli_distractor_trianglediamonds.svg	20	yes	44	1	431	0	0			0	0			1				0	
6.6.1	win	2023-07-16	22:06:59	22:14:30	442382	5e9f31ca9b0a040704ee0bad	3	1	main_z	11	advance_on_keypress_ZEE	34	stimuli_target_diamondsquares.svg	stimuli_distractor_trianglediamonds.svg	20	yes	57	0	307	0	0			0	0			1				0	
6.6.1	win	2023-07-16	22:06:59	22:14:33	445341	5e9f31ca9b0a040704ee0bad	3	1	main_z	11	main_z	35	stimuli_distractor_diamondtriangles.svg	stimuli_distractor_trianglediamonds.svg	37	no	0	1	2000	0	0			0	0			1				0	
6.6.1	win	2023-07-16	22:06:59	22:14:33	445341	5e9f31ca9b0a040704ee0bad	3	1	main_z	11	advance_on_keypress_ZEE	36	stimuli_distractor_diamondtriangles.svg	stimuli_distractor_trianglediamonds.svg	37	no	57	0	671	0	0			0	0			1				0	
6.6.1	win	2023-07-16	22:06:59	22:14:37	448669	5e9f31ca9b0a040704ee0bad	3	1	main_z	11	main_z	37	stimuli_distractor_trianglediamonds.svg	stimuli_distractor_trianglediamonds.svg	33	no	0	1	2000	0	0			0	0			1				0	
6.6.1	win	2023-07-16	22:06:59	22:14:37	448669	5e9f31ca9b0a040704ee0bad	3	1	main_z	11	advance_on_keypress_ZEE	38	stimuli_distractor_trianglediamonds.svg	stimuli_distractor_trianglediamonds.svg	33	no	57	0	443	0	0			0	0			1				0	
6.6.1	win	2023-07-16	22:06:59	22:14:38	450312	5e9f31ca9b0a040704ee0bad	3	1	main_z	11	main_z	39	stimuli_target_squaretriangles.svg	stimuli_distractor_trianglediamonds.svg	3	yes	44	1	549	0	0			0	0			1				0	
6.6.1	win	2023-07-16	22:06:59	22:14:38	450312	5e9f31ca9b0a040704ee0bad	3	1	main_z	11	advance_on_keypress_ZEE	40	stimuli_target_squaretriangles.svg	stimuli_distractor_trianglediamonds.svg	3	yes	57	0	268	0	0			0	0			1				0	
6.6.1	win	2023-07-16	22:06:59	22:14:40	451726	5e9f31ca9b0a040704ee0bad	3	1	main_z	11	main_z	41	stimuli_distractor_diamondtriangles.svg	stimuli_target_squaretriangles.svg	15	yes	44	1	498	0	0			0	0			1				0	
6.6.1	win	2023-07-16	22:06:59	22:14:40	451726	5e9f31ca9b0a040704ee0bad	3	1	main_z	11	advance_on_keypress_ZEE	42	stimuli_distractor_diamondtriangles.svg	stimuli_target_squaretriangles.svg	15	yes	57	0	267	0	0			0	0			1				0	
6.6.1	win	2023-07-16	22:06:59	22:14:41	453034	5e9f31ca9b0a040704ee0bad	3	1	main_z	11	main_z	43	stimuli_distractor_diamondtriangles.svg	stimuli_target_rectanglediamonds.svg	14	yes	44	1	390	0	0			0	0			1				0	
6.6.1	win	2023-07-16	22:06:59	22:14:41	453034	5e9f31ca9b0a040704ee0bad	3	1	main_z	11	advance_on_keypress_ZEE	44	stimuli_distractor_diamondtriangles.svg	stimuli_target_rectanglediamonds.svg	14	yes	57	0	312	0	0			0	0			1				0	
6.6.1	win	2023-07-16	22:06:59	22:14:43	454608	5e9f31ca9b0a040704ee0bad	3	1	main_z	11	main_z	45	stimuli_distractor_trianglediamonds.svg	stimuli_target_trianglesquares.svg	26	yes	44	1	615	0	0			0	0			1				0	
6.6.1	win	2023-07-16	22:06:59	22:14:43	454608	5e9f31ca9b0a040704ee0bad	3	1	main_z	11	advance_on_keypress_ZEE	46	stimuli_distractor_trianglediamonds.svg	stimuli_target_trianglesquares.svg	26	yes	57	0	295	0	0			0	0			1				0	
6.6.1	win	2023-07-16	22:06:59	22:14:44	455961	5e9f31ca9b0a040704ee0bad	3	1	main_z	11	main_z	47	stimuli_distractor_trianglediamonds.svg	stimuli_target_diamondrectangles.svg	27	yes	44	1	403	0	0			0	0			1				0	
6.6.1	win	2023-07-16	22:06:59	22:14:44	455961	5e9f31ca9b0a040704ee0bad	3	1	main_z	11	advance_on_keypress_ZEE	48	stimuli_distractor_trianglediamonds.svg	stimuli_target_diamondrectangles.svg	27	yes	57	0	514	0	0			0	0			1				0	
6.6.1	win	2023-07-16	22:06:59	22:14:45	457457	5e9f31ca9b0a040704ee0bad	3	1	main_z	11	main_z	49	stimuli_distractor_diamondtriangles.svg	stimuli_target_diamondsquares.svg	32	yes	44	1	332	0	0			0	0			1				0	
6.6.1	win	2023-07-16	22:06:59	22:14:45	457457	5e9f31ca9b0a040704ee0bad	3	1	main_z	11	advance_on_keypress_ZEE	50	stimuli_distractor_diamondtriangles.svg	stimuli_target_diamondsquares.svg	32	yes	57	0	279	0	0			0	0			1				0	
6.6.1	win	2023-07-16	22:06:59	22:14:47	458750	5e9f31ca9b0a040704ee0bad	3	1	main_z	11	main_z	51	stimuli_target_trianglerectangles.svg	stimuli_distractor_diamondtriangles.svg	21	yes	44	1	360	0	0			0	0			1				0	
6.6.1	win	2023-07-16	22:06:59	22:14:47	458750	5e9f31ca9b0a040704ee0bad	3	1	main_z	11	advance_on_keypress_ZEE	52	stimuli_target_trianglerectangles.svg	stimuli_distractor_diamondtriangles.svg	21	yes	57	0	318	0	0			0	0			1				0	
6.6.1	win	2023-07-16	22:06:59	22:14:48	460028	5e9f31ca9b0a040704ee0bad	3	1	main_z	11	main_z	53	stimuli_target_diamondrectangles.svg	stimuli_distractor_diamondtriangles.svg	23	yes	44	1	306	0	0			0	0			1				0	
6.6.1	win	2023-07-16	22:06:59	22:14:48	460028	5e9f31ca9b0a040704ee0bad	3	1	main_z	11	advance_on_keypress_ZEE	54	stimuli_target_diamondrectangles.svg	stimuli_distractor_diamondtriangles.svg	23	yes	57	0	240	0	0			0	0			1				0	
6.6.1	win	2023-07-16	22:06:59	22:14:49	461206	5e9f31ca9b0a040704ee0bad	3	1	main_z	11	main_z	55	stimuli_target_trianglerectangles.svg	stimuli_distractor_trianglediamonds.svg	17	yes	44	1	284	0	0			0	0			1				0	
6.6.1	win	2023-07-16	22:06:59	22:14:49	461206	5e9f31ca9b0a040704ee0bad	3	1	main_z	11	advance_on_keypress_ZEE	56	stimuli_target_trianglerectangles.svg	stimuli_distractor_trianglediamonds.svg	17	yes	57	0	245	0	0			0	0			1				0	
6.6.1	win	2023-07-16	22:06:59	22:14:50	462399	5e9f31ca9b0a040704ee0bad	3	1	main_z	11	main_z	57	stimuli_distractor_trianglediamonds.svg	stimuli_target_diamondsquares.svg	28	yes	44	1	295	0	0			0	0			1				0	
6.6.1	win	2023-07-16	22:06:59	22:14:50	462399	5e9f31ca9b0a040704ee0bad	3	1	main_z	11	advance_on_keypress_ZEE	58	stimuli_distractor_trianglediamonds.svg	stimuli_target_diamondsquares.svg	28	yes	57	0	300	0	0			0	0			1				0	
6.6.1	win	2023-07-16	22:06:59	22:14:52	463577	5e9f31ca9b0a040704ee0bad	3	1	main_z	11	main_z	59	stimuli_distractor_diamondtriangles.svg	stimuli_distractor_diamondtriangles.svg	39	no	44	0	224	0	0			0	0			1				0	
6.6.1	win	2023-07-16	22:06:59	22:14:52	463577	5e9f31ca9b0a040704ee0bad	3	1	main_z	11	advance_on_keypress_ZEE	60	stimuli_distractor_diamondtriangles.svg	stimuli_distractor_diamondtriangles.svg	39	no	57	0	648	0	0			0	0			1				0	
6.6.1	win	2023-07-16	22:06:59	22:14:53	465441	5e9f31ca9b0a040704ee0bad	3	1	main_z	11	main_z	61	stimuli_distractor_diamondtriangles.svg	stimuli_target_rectangletriangles.svg	13	yes	44	1	574	0	0			0	0			1				0	
6.6.1	win	2023-07-16	22:06:59	22:14:53	465441	5e9f31ca9b0a040704ee0bad	3	1	main_z	11	advance_on_keypress_ZEE	62	stimuli_distractor_diamondtriangles.svg	stimuli_target_rectangletriangles.svg	13	yes	57	0	392	0	0			0	0			1				0	
6.6.1	win	2023-07-16	22:06:59	22:14:55	466911	5e9f31ca9b0a040704ee0bad	3	1	main_z	11	main_z	63	stimuli_distractor_trianglediamonds.svg	stimuli_target_rectangletriangles.svg	9	yes	44	1	444	0	0			0	0			1				0	
6.6.1	win	2023-07-16	22:06:59	22:14:55	466911	5e9f31ca9b0a040704ee0bad	3	1	main_z	11	advance_on_keypress_ZEE	64	stimuli_distractor_trianglediamonds.svg	stimuli_target_rectangletriangles.svg	9	yes	57	0	288	0	0			0	0			1				0	
6.6.1	win	2023-07-16	22:06:59	22:14:56	468158	5e9f31ca9b0a040704ee0bad	3	1	main_z	11	main_z	65	stimuli_distractor_diamondtriangles.svg	stimuli_target_trianglesquares.svg	30	yes	44	1	309	0	0			0	0			1				0	
6.6.1	win	2023-07-16	22:06:59	22:14:56	468158	5e9f31ca9b0a040704ee0bad	3	1	main_z	11	advance_on_keypress_ZEE	66	stimuli_distractor_diamondtriangles.svg	stimuli_target_trianglesquares.svg	30	yes	57	0	394	0	0			0	0			1				0	
6.6.1	win	2023-07-16	22:06:59	22:14:58	469542	5e9f31ca9b0a040704ee0bad	3	1	main_z	11	main_z	67	stimuli_target_rectanglediamonds.svg	stimuli_distractor_diamondtriangles.svg	6	yes	44	1	343	0	0			0	0			1				0	
6.6.1	win	2023-07-16	22:06:59	22:14:58	469542	5e9f31ca9b0a040704ee0bad	3	1	main_z	11	advance_on_keypress_ZEE	68	stimuli_target_rectanglediamonds.svg	stimuli_distractor_diamondtriangles.svg	6	yes	57	0	294	0	0			0	0			1				0	
6.6.1	win	2023-07-16	22:06:59	22:14:59	471026	5e9f31ca9b0a040704ee0bad	3	1	main_z	11	main_z	69	stimuli_distractor_diamondtriangles.svg	stimuli_distractor_trianglediamonds.svg	38	no	44	0	528	0	0			0	0			1				0	
6.6.1	win	2023-07-16	22:06:59	22:14:59	471026	5e9f31ca9b0a040704ee0bad	3	1	main_z	11	advance_on_keypress_ZEE	70	stimuli_distractor_diamondtriangles.svg	stimuli_distractor_trianglediamonds.svg	38	no	57	0	641	0	0			0	0			1				0	
6.6.1	win	2023-07-16	22:06:59	22:15:01	472665	5e9f31ca9b0a040704ee0bad	3	1	main_z	11	main_z	71	stimuli_target_rectanglediamonds.svg	stimuli_distractor_trianglediamonds.svg	2	yes	44	1	352	0	0			0	0			1				0	
6.6.1	win	2023-07-16	22:06:59	22:15:01	472665	5e9f31ca9b0a040704ee0bad	3	1	main_z	11	advance_on_keypress_ZEE	72	stimuli_target_rectanglediamonds.svg	stimuli_distractor_trianglediamonds.svg	2	yes	57	0	297	0	0			0	0			1				0	
6.6.1	win	2023-07-16	22:06:59	22:15:04	475614	5e9f31ca9b0a040704ee0bad	3	1	main_z	11	main_z	73	stimuli_distractor_diamondtriangles.svg	stimuli_distractor_diamondtriangles.svg	40	no	0	1	2000	0	0			0	0			1				0	
6.6.1	win	2023-07-16	22:06:59	22:15:04	475614	5e9f31ca9b0a040704ee0bad	3	1	main_z	11	advance_on_keypress_ZEE	74	stimuli_distractor_diamondtriangles.svg	stimuli_distractor_diamondtriangles.svg	40	no	57	0	517	0	0			0	0			1				0	
6.6.1	win	2023-07-16	22:06:59	22:15:05	477302	5e9f31ca9b0a040704ee0bad	3	1	main_z	11	main_z	75	stimuli_distractor_diamondtriangles.svg	stimuli_target_squarediamonds.svg	16	yes	44	1	525	0	0			0	0			1				0	
6.6.1	win	2023-07-16	22:06:59	22:15:05	477302	5e9f31ca9b0a040704ee0bad	3	1	main_z	11	advance_on_keypress_ZEE	76	stimuli_distractor_diamondtriangles.svg	stimuli_target_squarediamonds.svg	16	yes	57	0	223	0	0			0	0			1				0	
6.6.1	win	2023-07-16	22:06:59	22:15:08	480176	5e9f31ca9b0a040704ee0bad	3	1	main_z	11	main_z	77	stimuli_distractor_trianglediamonds.svg	stimuli_distractor_diamondtriangles.svg	36	no	0	1	2000	0	0			0	0			1				0	
6.6.1	win	2023-07-16	22:06:59	22:15:08	480176	5e9f31ca9b0a040704ee0bad	3	1	main_z	11	advance_on_keypress_ZEE	78	stimuli_distractor_trianglediamonds.svg	stimuli_distractor_diamondtriangles.svg	36	no	57	0	486	0	0			0	0			1				0	
6.6.1	win	2023-07-16	22:06:59	22:15:10	481805	5e9f31ca9b0a040704ee0bad	3	1	main_z	11	main_z	79	stimuli_distractor_trianglediamonds.svg	stimuli_target_squaretriangles.svg	11	yes	44	1	498	0	0			0	0			1				0	
6.6.1	win	2023-07-16	22:06:59	22:15:10	481805	5e9f31ca9b0a040704ee0bad	3	1	main_z	11	advance_on_keypress_ZEE	80	stimuli_distractor_trianglediamonds.svg	stimuli_target_squaretriangles.svg	11	yes	57	0	237	0	0			0	0			1				0	
6.6.1	win	2023-07-16	22:06:59	22:15:11	483123	5e9f31ca9b0a040704ee0bad	3	1	main_z	11	main_z	81	stimuli_distractor_trianglediamonds.svg	stimuli_target_rectanglediamonds.svg	10	yes	44	1	416	0	0			0	0			1				0	
6.6.1	win	2023-07-16	22:06:59	22:15:11	483123	5e9f31ca9b0a040704ee0bad	3	1	main_z	11	advance_on_keypress_ZEE	82	stimuli_distractor_trianglediamonds.svg	stimuli_target_rectanglediamonds.svg	10	yes	57	0	285	0	0			0	0			1				0	
6.6.1	win	2023-07-16	22:06:59	22:15:13	484527	5e9f31ca9b0a040704ee0bad	3	1	main_z	11	main_z	83	stimuli_target_trianglesquares.svg	stimuli_distractor_diamondtriangles.svg	22	yes	44	1	471	0	0			0	0			1				0	
6.6.1	win	2023-07-16	22:06:59	22:15:13	484527	5e9f31ca9b0a040704ee0bad	3	1	main_z	11	advance_on_keypress_ZEE	84	stimuli_target_trianglesquares.svg	stimuli_distractor_diamondtriangles.svg	22	yes	57	0	330	0	0			0	0			1				0	
6.6.1	win	2023-07-16	22:06:59	22:15:16	487504	5e9f31ca9b0a040704ee0bad	3	1	main_z	11	main_z	85	stimuli_distractor_diamondtriangles.svg	stimuli_distractor_diamondtriangles.svg	39	no	0	1	2000	0	0			0	0			1				0	
6.6.1	win	2023-07-16	22:06:59	22:15:16	487504	5e9f31ca9b0a040704ee0bad	3	1	main_z	11	advance_on_keypress_ZEE	86	stimuli_distractor_diamondtriangles.svg	stimuli_distractor_diamondtriangles.svg	39	no	57	0	402	0	0			0	0			1				0	
6.6.1	win	2023-07-16	22:06:59	22:15:17	489073	5e9f31ca9b0a040704ee0bad	3	1	main_z	11	main_z	87	stimuli_distractor_trianglediamonds.svg	stimuli_target_trianglesquares.svg	26	yes	44	1	521	0	0			0	0			1				0	
6.6.1	win	2023-07-16	22:06:59	22:15:17	489073	5e9f31ca9b0a040704ee0bad	3	1	main_z	11	advance_on_keypress_ZEE	88	stimuli_distractor_trianglediamonds.svg	stimuli_target_trianglesquares.svg	26	yes	57	0	330	0	0			0	0			1				0	
6.6.1	win	2023-07-16	22:06:59	22:15:19	490538	5e9f31ca9b0a040704ee0bad	3	1	main_z	11	main_z	89	stimuli_target_trianglerectangles.svg	stimuli_distractor_trianglediamonds.svg	17	yes	44	1	488	0	0			0	0			1				0	
6.6.1	win	2023-07-16	22:06:59	22:15:19	490538	5e9f31ca9b0a040704ee0bad	3	1	main_z	11	advance_on_keypress_ZEE	90	stimuli_target_trianglerectangles.svg	stimuli_distractor_trianglediamonds.svg	17	yes	57	0	348	0	0			0	0			1				0	
6.6.1	win	2023-07-16	22:06:59	22:15:22	493533	5e9f31ca9b0a040704ee0bad	3	1	main_z	11	main_z	91	stimuli_distractor_diamondtriangles.svg	stimuli_distractor_diamondtriangles.svg	40	no	0	1	2000	0	0			0	0			1				0	
6.6.1	win	2023-07-16	22:06:59	22:15:22	493533	5e9f31ca9b0a040704ee0bad	3	1	main_z	11	advance_on_keypress_ZEE	92	stimuli_distractor_diamondtriangles.svg	stimuli_distractor_diamondtriangles.svg	40	no	57	0	333	0	0			0	0			1				0	
6.6.1	win	2023-07-16	22:06:59	22:15:23	494870	5e9f31ca9b0a040704ee0bad	3	1	main_z	11	main_z	93	stimuli_target_rectangletriangles.svg	stimuli_distractor_trianglediamonds.svg	1	yes	44	1	356	0	0			0	0			1				0	
6.6.1	win	2023-07-16	22:06:59	22:15:23	494870	5e9f31ca9b0a040704ee0bad	3	1	main_z	11	advance_on_keypress_ZEE	94	stimuli_target_rectangletriangles.svg	stimuli_distractor_trianglediamonds.svg	1	yes	57	0	299	0	0			0	0			1				0	
6.6.1	win	2023-07-16	22:06:59	22:15:26	497813	5e9f31ca9b0a040704ee0bad	3	1	main_z	11	main_z	95	stimuli_distractor_trianglediamonds.svg	stimuli_distractor_trianglediamonds.svg	34	no	0	1	2000	0	0			0	0			1				0	
6.6.1	win	2023-07-16	22:06:59	22:15:26	497813	5e9f31ca9b0a040704ee0bad	3	1	main_z	11	advance_on_keypress_ZEE	96	stimuli_distractor_trianglediamonds.svg	stimuli_distractor_trianglediamonds.svg	34	no	57	0	138	0	0			0	0			1				0	
6.6.1	win	2023-07-16	22:06:59	22:15:27	499109	5e9f31ca9b0a040704ee0bad	3	1	main_z	11	main_z	97	stimuli_target_diamondsquares.svg	stimuli_distractor_diamondtriangles.svg	24	yes	44	1	505	0	0			0	0			1				0	
6.6.1	win	2023-07-16	22:06:59	22:15:27	499109	5e9f31ca9b0a040704ee0bad	3	1	main_z	11	advance_on_keypress_ZEE	98	stimuli_target_diamondsquares.svg	stimuli_distractor_diamondtriangles.svg	24	yes	57	0	285	0	0			0	0			1				0	
6.6.1	win	2023-07-16	22:06:59	22:15:29	500764	5e9f31ca9b0a040704ee0bad	3	1	main_z	11	main_z	99	stimuli_distractor_diamondtriangles.svg	stimuli_target_squarediamonds.svg	16	yes	44	1	721	0	0			0	0			1				0	
6.6.1	win	2023-07-16	22:06:59	22:15:29	500764	5e9f31ca9b0a040704ee0bad	3	1	main_z	11	advance_on_keypress_ZEE	100	stimuli_distractor_diamondtriangles.svg	stimuli_target_squarediamonds.svg	16	yes	57	0	354	0	0			0	0			1				0	
6.6.1	win	2023-07-16	22:06:59	22:15:32	503759	5e9f31ca9b0a040704ee0bad	3	1	main_z	11	main_z	101	stimuli_distractor_trianglediamonds.svg	stimuli_distractor_diamondtriangles.svg	36	no	0	1	2000	0	0			0	0			1				0	
6.6.1	win	2023-07-16	22:06:59	22:15:32	503759	5e9f31ca9b0a040704ee0bad	3	1	main_z	11	advance_on_keypress_ZEE	102	stimuli_distractor_trianglediamonds.svg	stimuli_distractor_diamondtriangles.svg	36	no	57	0	344	0	0			0	0			1				0	
6.6.1	win	2023-07-16	22:06:59	22:15:33	505376	5e9f31ca9b0a040704ee0bad	3	1	main_z	11	main_z	103	stimuli_distractor_diamondtriangles.svg	stimuli_target_diamondrectangles.svg	31	yes	44	1	619	0	0			0	0			1				0	
6.6.1	win	2023-07-16	22:06:59	22:15:33	505376	5e9f31ca9b0a040704ee0bad	3	1	main_z	11	advance_on_keypress_ZEE	104	stimuli_distractor_diamondtriangles.svg	stimuli_target_diamondrectangles.svg	31	yes	57	0	283	0	0			0	0			1				0	
6.6.1	win	2023-07-16	22:06:59	22:15:35	506700	5e9f31ca9b0a040704ee0bad	3	1	main_z	11	main_z	105	stimuli_target_squaretriangles.svg	stimuli_distractor_trianglediamonds.svg	3	yes	44	1	395	0	0			0	0			1				0	
6.6.1	win	2023-07-16	22:06:59	22:15:35	506700	5e9f31ca9b0a040704ee0bad	3	1	main_z	11	advance_on_keypress_ZEE	106	stimuli_target_squaretriangles.svg	stimuli_distractor_trianglediamonds.svg	3	yes	57	0	340	0	0			0	0			1				0	
6.6.1	win	2023-07-16	22:06:59	22:15:36	508160	5e9f31ca9b0a040704ee0bad	3	1	main_z	11	main_z	107	stimuli_target_trianglerectangles.svg	stimuli_distractor_diamondtriangles.svg	21	yes	44	1	472	0	0			0	0			1				0	
6.6.1	win	2023-07-16	22:06:59	22:15:36	508160	5e9f31ca9b0a040704ee0bad	3	1	main_z	11	advance_on_keypress_ZEE	108	stimuli_target_trianglerectangles.svg	stimuli_distractor_diamondtriangles.svg	21	yes	57	0	556	0	0			0	0			1				0	
6.6.1	win	2023-07-16	22:06:59	22:15:38	509734	5e9f31ca9b0a040704ee0bad	3	1	main_z	11	main_z	109	stimuli_distractor_trianglediamonds.svg	stimuli_target_diamondsquares.svg	28	yes	44	1	371	0	0			0	0			1				0	
6.6.1	win	2023-07-16	22:06:59	22:15:38	509734	5e9f31ca9b0a040704ee0bad	3	1	main_z	11	advance_on_keypress_ZEE	110	stimuli_distractor_trianglediamonds.svg	stimuli_target_diamondsquares.svg	28	yes	57	0	581	0	0			0	0			1				0	
6.6.1	win	2023-07-16	22:06:59	22:15:39	511288	5e9f31ca9b0a040704ee0bad	3	1	main_z	11	main_z	111	stimuli_target_trianglesquares.svg	stimuli_distractor_trianglediamonds.svg	18	yes	44	1	319	0	0			0	0			1				0	
6.6.1	win	2023-07-16	22:06:59	22:15:39	511288	5e9f31ca9b0a040704ee0bad	3	1	main_z	11	advance_on_keypress_ZEE	112	stimuli_target_trianglesquares.svg	stimuli_distractor_trianglediamonds.svg	18	yes	57	0	307	0	0			0	0			1				0	
6.6.1	win	2023-07-16	22:06:59	22:15:41	512561	5e9f31ca9b0a040704ee0bad	3	1	main_z	11	main_z	113	stimuli_distractor_trianglediamonds.svg	stimuli_target_squaretriangles.svg	11	yes	44	1	326	0	0			0	0			1				0	
6.6.1	win	2023-07-16	22:06:59	22:15:41	512561	5e9f31ca9b0a040704ee0bad	3	1	main_z	11	advance_on_keypress_ZEE	114	stimuli_distractor_trianglediamonds.svg	stimuli_target_squaretriangles.svg	11	yes	57	0	267	0	0			0	0			1				0	
6.6.1	win	2023-07-16	22:06:59	22:15:42	513879	5e9f31ca9b0a040704ee0bad	3	1	main_z	11	main_z	115	stimuli_distractor_trianglediamonds.svg	stimuli_target_rectangletriangles.svg	9	yes	44	1	395	0	0			0	0			1				0	
6.6.1	win	2023-07-16	22:06:59	22:15:42	513879	5e9f31ca9b0a040704ee0bad	3	1	main_z	11	advance_on_keypress_ZEE	116	stimuli_distractor_trianglediamonds.svg	stimuli_target_rectangletriangles.svg	9	yes	57	0	259	0	0			0	0			1				0	
6.6.1	win	2023-07-16	22:06:59	22:15:43	515328	5e9f31ca9b0a040704ee0bad	3	1	main_z	11	main_z	117	stimuli_distractor_trianglediamonds.svg	stimuli_target_diamondrectangles.svg	27	yes	44	1	545	0	0			0	0			1				0	
6.6.1	win	2023-07-16	22:06:59	22:15:43	515328	5e9f31ca9b0a040704ee0bad	3	1	main_z	11	advance_on_keypress_ZEE	118	stimuli_distractor_trianglediamonds.svg	stimuli_target_diamondrectangles.svg	27	yes	57	0	294	0	0			0	0			1				0	
6.6.1	win	2023-07-16	22:06:59	22:15:45	516702	5e9f31ca9b0a040704ee0bad	3	1	main_z	11	main_z	119	stimuli_distractor_diamondtriangles.svg	stimuli_target_rectanglediamonds.svg	14	yes	44	1	420	0	0			0	0			1				0	
6.6.1	win	2023-07-16	22:06:59	22:15:45	516702	5e9f31ca9b0a040704ee0bad	3	1	main_z	11	advance_on_keypress_ZEE	120	stimuli_distractor_diamondtriangles.svg	stimuli_target_rectanglediamonds.svg	14	yes	57	0	308	0	0			0	0			1				0	
6.6.1	win	2023-07-16	22:06:59	22:15:46	517974	5e9f31ca9b0a040704ee0bad	3	1	main_z	11	main_z	121	stimuli_target_squarediamonds.svg	stimuli_distractor_diamondtriangles.svg	8	yes	44	1	327	0	0			0	0			1				0	
6.6.1	win	2023-07-16	22:06:59	22:15:46	517974	5e9f31ca9b0a040704ee0bad	3	1	main_z	11	advance_on_keypress_ZEE	122	stimuli_target_squarediamonds.svg	stimuli_distractor_diamondtriangles.svg	8	yes	57	0	298	0	0			0	0			1				0	
6.6.1	win	2023-07-16	22:06:59	22:15:47	519311	5e9f31ca9b0a040704ee0bad	3	1	main_z	11	main_z	123	stimuli_distractor_diamondtriangles.svg	stimuli_target_trianglesquares.svg	30	yes	44	1	371	0	0			0	0			1				0	
6.6.1	win	2023-07-16	22:06:59	22:15:47	519311	5e9f31ca9b0a040704ee0bad	3	1	main_z	11	advance_on_keypress_ZEE	124	stimuli_distractor_diamondtriangles.svg	stimuli_target_trianglesquares.svg	30	yes	57	0	345	0	0			0	0			1				0	
6.6.1	win	2023-07-16	22:06:59	22:15:49	520831	5e9f31ca9b0a040704ee0bad	3	1	main_z	11	main_z	125	stimuli_target_diamondrectangles.svg	stimuli_distractor_diamondtriangles.svg	23	yes	44	1	520	0	0			0	0			1				0	
6.6.1	win	2023-07-16	22:06:59	22:15:49	520831	5e9f31ca9b0a040704ee0bad	3	1	main_z	11	advance_on_keypress_ZEE	126	stimuli_target_diamondrectangles.svg	stimuli_distractor_diamondtriangles.svg	23	yes	57	0	343	0	0			0	0			1				0	
6.6.1	win	2023-07-16	22:06:59	22:15:50	522171	5e9f31ca9b0a040704ee0bad	3	1	main_z	11	main_z	127	stimuli_target_rectanglediamonds.svg	stimuli_distractor_trianglediamonds.svg	2	yes	44	1	360	0	0			0	0			1				0	
6.6.1	win	2023-07-16	22:06:59	22:15:50	522171	5e9f31ca9b0a040704ee0bad	3	1	main_z	11	advance_on_keypress_ZEE	128	stimuli_target_rectanglediamonds.svg	stimuli_distractor_trianglediamonds.svg	2	yes	57	0	309	0	0			0	0			1				0	
6.6.1	win	2023-07-16	22:06:59	22:15:52	523554	5e9f31ca9b0a040704ee0bad	3	1	main_z	11	main_z	129	stimuli_distractor_trianglediamonds.svg	stimuli_distractor_trianglediamonds.svg	33	no	44	0	444	0	0			0	0			1				0	
6.6.1	win	2023-07-16	22:06:59	22:15:52	523554	5e9f31ca9b0a040704ee0bad	3	1	main_z	11	advance_on_keypress_ZEE	130	stimuli_distractor_trianglediamonds.svg	stimuli_distractor_trianglediamonds.svg	33	no	57	0	655	0	0			0	0			1				0	
6.6.1	win	2023-07-16	22:06:59	22:15:55	526858	5e9f31ca9b0a040704ee0bad	3	1	main_z	11	main_z	131	stimuli_distractor_diamondtriangles.svg	stimuli_distractor_trianglediamonds.svg	37	no	0	1	2000	0	0			0	0			1				0	
6.6.1	win	2023-07-16	22:06:59	22:15:55	526858	5e9f31ca9b0a040704ee0bad	3	1	main_z	11	advance_on_keypress_ZEE	132	stimuli_distractor_diamondtriangles.svg	stimuli_distractor_trianglediamonds.svg	37	no	57	0	435	0	0			0	0			1				0	
6.6.1	win	2023-07-16	22:06:59	22:15:56	528377	5e9f31ca9b0a040704ee0bad	3	1	main_z	11	main_z	133	stimuli_target_diamondsquares.svg	stimuli_distractor_trianglediamonds.svg	20	yes	44	1	437	0	0			0	0			1				0	
6.6.1	win	2023-07-16	22:06:59	22:15:56	528377	5e9f31ca9b0a040704ee0bad	3	1	main_z	11	advance_on_keypress_ZEE	134	stimuli_target_diamondsquares.svg	stimuli_distractor_trianglediamonds.svg	20	yes	57	0	504	0	0			0	0			1				0	
6.6.1	win	2023-07-16	22:06:59	22:16:00	531523	5e9f31ca9b0a040704ee0bad	3	1	main_z	11	main_z	135	stimuli_distractor_diamondtriangles.svg	stimuli_target_trianglerectangles.svg	29	yes	0	0	2000	0	0			0	0			1				0	
6.6.1	win	2023-07-16	22:06:59	22:16:00	531523	5e9f31ca9b0a040704ee0bad	3	1	main_z	11	advance_on_keypress_ZEE	136	stimuli_distractor_diamondtriangles.svg	stimuli_target_trianglerectangles.svg	29	yes	57	0	404	0	0			0	0			1				0	
6.6.1	win	2023-07-16	22:06:59	22:16:01	533049	5e9f31ca9b0a040704ee0bad	3	1	main_z	11	main_z	137	stimuli_target_rectanglediamonds.svg	stimuli_distractor_diamondtriangles.svg	6	yes	44	1	479	0	0			0	0			1				0	
6.6.1	win	2023-07-16	22:06:59	22:16:01	533049	5e9f31ca9b0a040704ee0bad	3	1	main_z	11	advance_on_keypress_ZEE	138	stimuli_target_rectanglediamonds.svg	stimuli_distractor_diamondtriangles.svg	6	yes	57	0	347	0	0			0	0			1				0	
6.6.1	win	2023-07-16	22:06:59	22:16:04	536053	5e9f31ca9b0a040704ee0bad	3	1	main_z	11	main_z	139	stimuli_distractor_diamondtriangles.svg	stimuli_target_rectangletriangles.svg	13	yes	0	0	2000	0	0			0	0			1				0	
6.6.1	win	2023-07-16	22:06:59	22:16:04	536053	5e9f31ca9b0a040704ee0bad	3	1	main_z	11	advance_on_keypress_ZEE	140	stimuli_distractor_diamondtriangles.svg	stimuli_target_rectangletriangles.svg	13	yes	57	0	491	0	0			0	0			1				0	
6.6.1	win	2023-07-16	22:06:59	22:16:05	537435	5e9f31ca9b0a040704ee0bad	3	1	main_z	11	main_z	141	stimuli_distractor_trianglediamonds.svg	stimuli_distractor_diamondtriangles.svg	35	no	44	0	252	0	0			0	0			1				0	
6.6.1	win	2023-07-16	22:06:59	22:16:05	537435	5e9f31ca9b0a040704ee0bad	3	1	main_z	11	advance_on_keypress_ZEE	142	stimuli_distractor_trianglediamonds.svg	stimuli_distractor_diamondtriangles.svg	35	no	57	0	512	0	0			0	0			1				0	
6.6.1	win	2023-07-16	22:06:59	22:16:07	539050	5e9f31ca9b0a040704ee0bad	3	1	main_z	11	main_z	143	stimuli_target_squaretriangles.svg	stimuli_distractor_diamondtriangles.svg	7	yes	44	1	451	0	0			0	0			1				0	
6.6.1	win	2023-07-16	22:06:59	22:16:07	539050	5e9f31ca9b0a040704ee0bad	3	1	main_z	11	advance_on_keypress_ZEE	144	stimuli_target_squaretriangles.svg	stimuli_distractor_diamondtriangles.svg	7	yes	57	0	377	0	0			0	0			1				0	
6.6.1	win	2023-07-16	22:06:59	22:16:08	540383	5e9f31ca9b0a040704ee0bad	3	1	main_z	11	main_z	145	stimuli_distractor_diamondtriangles.svg	stimuli_distractor_trianglediamonds.svg	38	no	44	0	302	0	0			0	0			1				0	
6.6.1	win	2023-07-16	22:06:59	22:16:08	540383	5e9f31ca9b0a040704ee0bad	3	1	main_z	11	advance_on_keypress_ZEE	146	stimuli_distractor_diamondtriangles.svg	stimuli_distractor_trianglediamonds.svg	38	no	57	0	463	0	0			0	0			1				0	
6.6.1	win	2023-07-16	22:06:59	22:16:10	541928	5e9f31ca9b0a040704ee0bad	3	1	main_z	11	main_z	147	stimuli_target_squarediamonds.svg	stimuli_distractor_trianglediamonds.svg	4	yes	44	1	431	0	0			0	0			1				0	
6.6.1	win	2023-07-16	22:06:59	22:16:10	541928	5e9f31ca9b0a040704ee0bad	3	1	main_z	11	advance_on_keypress_ZEE	148	stimuli_target_squarediamonds.svg	stimuli_distractor_trianglediamonds.svg	4	yes	57	0	588	0	0			0	0			1				0	
6.6.1	win	2023-07-16	22:06:59	22:16:12	543646	5e9f31ca9b0a040704ee0bad	3	1	main_z	11	main_z	149	stimuli_target_diamondrectangles.svg	stimuli_distractor_trianglediamonds.svg	19	yes	44	1	484	0	0			0	0			1				0	
6.6.1	win	2023-07-16	22:06:59	22:16:12	543646	5e9f31ca9b0a040704ee0bad	3	1	main_z	11	advance_on_keypress_ZEE	150	stimuli_target_diamondrectangles.svg	stimuli_distractor_trianglediamonds.svg	19	yes	57	0	331	0	0			0	0			1				0	
6.6.1	win	2023-07-16	22:06:59	22:16:13	545055	5e9f31ca9b0a040704ee0bad	3	1	main_z	11	main_z	151	stimuli_target_rectangletriangles.svg	stimuli_distractor_diamondtriangles.svg	5	yes	44	1	427	0	0			0	0			1				0	
6.6.1	win	2023-07-16	22:06:59	22:16:13	545055	5e9f31ca9b0a040704ee0bad	3	1	main_z	11	advance_on_keypress_ZEE	152	stimuli_target_rectangletriangles.svg	stimuli_distractor_diamondtriangles.svg	5	yes	57	0	325	0	0			0	0			1				0	
6.6.1	win	2023-07-16	22:06:59	22:16:16	548027	5e9f31ca9b0a040704ee0bad	3	1	main_z	11	main_z	153	stimuli_distractor_trianglediamonds.svg	stimuli_target_trianglerectangles.svg	25	yes	0	0	2000	0	0			0	0			1				0	
6.6.1	win	2023-07-16	22:06:59	22:16:16	548027	5e9f31ca9b0a040704ee0bad	3	1	main_z	11	advance_on_keypress_ZEE	154	stimuli_distractor_trianglediamonds.svg	stimuli_target_trianglerectangles.svg	25	yes	57	0	417	0	0			0	0			1				0	
6.6.1	win	2023-07-16	22:06:59	22:16:19	551091	5e9f31ca9b0a040704ee0bad	3	1	main_z	11	main_z	155	stimuli_distractor_diamondtriangles.svg	stimuli_target_diamondsquares.svg	32	yes	0	0	2000	0	0			0	0			1				0	
6.6.1	win	2023-07-16	22:06:59	22:16:19	551091	5e9f31ca9b0a040704ee0bad	3	1	main_z	11	advance_on_keypress_ZEE	156	stimuli_distractor_diamondtriangles.svg	stimuli_target_diamondsquares.svg	32	yes	57	0	637	0	0			0	0			1				0	
6.6.1	win	2023-07-16	22:06:59	22:16:21	552932	5e9f31ca9b0a040704ee0bad	3	1	main_z	11	main_z	157	stimuli_distractor_diamondtriangles.svg	stimuli_target_squaretriangles.svg	15	yes	44	1	560	0	0			0	0			1				0	
6.6.1	win	2023-07-16	22:06:59	22:16:21	552932	5e9f31ca9b0a040704ee0bad	3	1	main_z	11	advance_on_keypress_ZEE	158	stimuli_distractor_diamondtriangles.svg	stimuli_target_squaretriangles.svg	15	yes	57	0	352	0	0			0	0			1				0	
6.6.1	win	2023-07-16	22:06:59	22:16:22	554451	5e9f31ca9b0a040704ee0bad	3	1	main_z	11	main_z	159	stimuli_distractor_trianglediamonds.svg	stimuli_target_squarediamonds.svg	12	yes	44	1	505	0	0			0	0			1				0	
6.6.1	win	2023-07-16	22:06:59	22:16:22	554451	5e9f31ca9b0a040704ee0bad	3	1	main_z	11	advance_on_keypress_ZEE	160	stimuli_distractor_trianglediamonds.svg	stimuli_target_squarediamonds.svg	12	yes	57	0	290	0	0			0	0			1				0	
6.6.1	win	2023-07-16	22:06:59	22:16:22	554451	5e9f31ca9b0a040704ee0bad	3	1	headphonecheck_calibration	14	headphonecheck_calibrationIntro	1	stimuli_distractor_trianglediamonds.svg	stimuli_target_squarediamonds.svg	12	yes	calibrationButton	0	4090	0	0			0	0			1				0	
6.6.1	win	2023-07-16	22:06:59	22:16:22	554451	5e9f31ca9b0a040704ee0bad	3	1	headphonecheck_testphase	15	test_collectResponse	3	stimuli_distractor_trianglediamonds.svg	stimuli_target_squarediamonds.svg	12	yes	third	1	3627	1	6	antiphase_hc_ois.wav	3	0	0			1				0	
6.6.1	win	2023-07-16	22:06:59	22:16:22	554451	5e9f31ca9b0a040704ee0bad	3	1	headphonecheck_testphase	15	test_collectResponse	6	stimuli_distractor_trianglediamonds.svg	stimuli_target_squarediamonds.svg	12	yes	second	1	5031	2	5	antiphase_hc_osi.wav	2	0	0			1				0	
6.6.1	win	2023-07-16	22:06:59	22:16:22	554451	5e9f31ca9b0a040704ee0bad	3	1	headphonecheck_testphase	15	test_collectResponse	9	stimuli_distractor_trianglediamonds.svg	stimuli_target_squarediamonds.svg	12	yes	first	1	446	3	4	antiphase_hc_sio.wav	1	0	0			1				0	
6.6.1	win	2023-07-16	22:06:59	22:16:22	554451	5e9f31ca9b0a040704ee0bad	3	1	headphonecheck_testphase	15	test_collectResponse	12	stimuli_distractor_trianglediamonds.svg	stimuli_target_squarediamonds.svg	12	yes	first	1	438	4	3	antiphase_hc_soi.wav	1	0	0			1				0	
6.6.1	win	2023-07-16	22:06:59	22:16:22	554451	5e9f31ca9b0a040704ee0bad	3	1	headphonecheck_testphase	15	test_collectResponse	15	stimuli_distractor_trianglediamonds.svg	stimuli_target_squarediamonds.svg	12	yes	third	1	419	5	2	antiphase_hc_ios.wav	3	0	0			1				0	
6.6.1	win	2023-07-16	22:06:59	22:16:22	554451	5e9f31ca9b0a040704ee0bad	3	1	headphonecheck_testphase	15	test_collectResponse	18	stimuli_distractor_trianglediamonds.svg	stimuli_target_squarediamonds.svg	12	yes	second	1	435	6	1	antiphase_hc_iso.wav	2	0	0			1				0	
6.6.1	win	2023-07-16	22:06:59	22:16:22	554451	5e9f31ca9b0a040704ee0bad	3	1	stereocheck_calibration	17	stereocheck_calibrationIntro	1	stimuli_distractor_trianglediamonds.svg	stimuli_target_squarediamonds.svg	12	yes	stereocheck_calibrationButton	0	4281	6	1	antiphase_hc_iso.wav	2	0	0			1				0	
6.6.1	win	2023-07-16	22:06:59	22:16:22	554451	5e9f31ca9b0a040704ee0bad	3	1	stereocheck_testphase	18	stereocheck_test_collectResponse	3	stimuli_distractor_trianglediamonds.svg	stimuli_target_squarediamonds.svg	12	yes	stereocheck_left	1	657	6	1	antiphase_hc_iso.wav	2	1	2	noise_calib_stim_LEFT.wav	1	1				0	
6.6.1	win	2023-07-16	22:06:59	22:16:22	554451	5e9f31ca9b0a040704ee0bad	3	1	stereocheck_testphase	18	stereocheck_test_collectResponse	6	stimuli_distractor_trianglediamonds.svg	stimuli_target_squarediamonds.svg	12	yes	stereocheck_right	1	269	6	1	antiphase_hc_iso.wav	2	2	4	noise_calib_stim_RIGHT.wav	2	1				0	
6.6.1	win	2023-07-16	22:06:59	22:16:22	554451	5e9f31ca9b0a040704ee0bad	3	1	stereocheck_testphase	18	stereocheck_test_collectResponse	9	stimuli_distractor_trianglediamonds.svg	stimuli_target_squarediamonds.svg	12	yes	stereocheck_right	1	224	6	1	antiphase_hc_iso.wav	2	3	6	noise_calib_stim_RIGHT.wav	2	1				0	
6.6.1	win	2023-07-16	22:06:59	22:16:22	554451	5e9f31ca9b0a040704ee0bad	3	1	stereocheck_testphase	18	stereocheck_test_collectResponse	12	stimuli_distractor_trianglediamonds.svg	stimuli_target_squarediamonds.svg	12	yes	stereocheck_left	1	223	6	1	antiphase_hc_iso.wav	2	4	1	noise_calib_stim_LEFT.wav	1	1				0	
6.6.1	win	2023-07-16	22:06:59	22:16:22	554451	5e9f31ca9b0a040704ee0bad	3	1	stereocheck_testphase	18	stereocheck_test_collectResponse	15	stimuli_distractor_trianglediamonds.svg	stimuli_target_squarediamonds.svg	12	yes	stereocheck_left	1	249	6	1	antiphase_hc_iso.wav	2	5	3	noise_calib_stim_LEFT.wav	1	1				0	
6.6.1	win	2023-07-16	22:06:59	22:16:22	554451	5e9f31ca9b0a040704ee0bad	3	1	stereocheck_testphase	18	stereocheck_test_collectResponse	18	stimuli_distractor_trianglediamonds.svg	stimuli_target_squarediamonds.svg	12	yes	stereocheck_right	1	247	6	1	antiphase_hc_iso.wav	2	6	5	noise_calib_stim_RIGHT.wav	2	1				0	
6.6.1	win	2023-07-16	22:06:59	22:16:22	554451	5e9f31ca9b0a040704ee0bad	3	1	DL_practice	21	DL_practice	2	stimuli_distractor_trianglediamonds.svg	stimuli_target_squarediamonds.svg	12	yes	pa	1	1548	6	1	antiphase_hc_iso.wav	2	6	5	noise_calib_stim_RIGHT.wav	2	29	blb_dichoticlistening_pa-pa.mp3	pa	pa	0	left
6.6.1	win	2023-07-16	22:06:59	22:16:22	554451	5e9f31ca9b0a040704ee0bad	3	1	DL_practice	21	DL_practice	3	stimuli_distractor_trianglediamonds.svg	stimuli_target_squarediamonds.svg	12	yes	ta	1	1566	6	1	antiphase_hc_iso.wav	2	6	5	noise_calib_stim_RIGHT.wav	2	36	blb_dichoticlistening_ta-ta.mp3	ta	ta	0	left
6.6.1	win	2023-07-16	22:06:59	22:16:22	554451	5e9f31ca9b0a040704ee0bad	3	1	DL_practice	21	DL_practice	4	stimuli_distractor_trianglediamonds.svg	stimuli_target_squarediamonds.svg	12	yes	ga	1	709	6	1	antiphase_hc_iso.wav	2	6	5	noise_calib_stim_RIGHT.wav	2	15	blb_dichoticlistening_ga-ga.mp3	ga	ga	0	left
6.6.1	win	2023-07-16	22:06:59	22:16:22	554451	5e9f31ca9b0a040704ee0bad	3	1	DL_practice	21	DL_practice	5	stimuli_distractor_trianglediamonds.svg	stimuli_target_squarediamonds.svg	12	yes	da	1	609	6	1	antiphase_hc_iso.wav	2	6	5	noise_calib_stim_RIGHT.wav	2	8	blb_dichoticlistening_da-da.mp3	da	da	0	left
6.6.1	win	2023-07-16	22:06:59	22:16:22	554451	5e9f31ca9b0a040704ee0bad	3	1	DL_practice	21	DL_practice	6	stimuli_distractor_trianglediamonds.svg	stimuli_target_squarediamonds.svg	12	yes	ka	0	1377	6	1	antiphase_hc_iso.wav	2	6	5	noise_calib_stim_RIGHT.wav	2	18	blb_dichoticlistening_ga-ta.mp3	ga	ta	1	other
6.6.1	win	2023-07-16	22:06:59	22:16:22	554451	5e9f31ca9b0a040704ee0bad	3	1	DL_practice	21	DL_practice	7	stimuli_distractor_trianglediamonds.svg	stimuli_target_squarediamonds.svg	12	yes	da	1	1393	6	1	antiphase_hc_iso.wav	2	6	5	noise_calib_stim_RIGHT.wav	2	7	blb_dichoticlistening_da-ba.mp3	da	ba	1	left
6.6.1	win	2023-07-16	22:06:59	22:16:22	554451	5e9f31ca9b0a040704ee0bad	3	1	DL_practice	21	DL_practice	8	stimuli_distractor_trianglediamonds.svg	stimuli_target_squarediamonds.svg	12	yes	ka	1	1776	6	1	antiphase_hc_iso.wav	2	6	5	noise_calib_stim_RIGHT.wav	2	22	blb_dichoticlistening_ka-ka.mp3	ka	ka	0	left
6.6.1	win	2023-07-16	22:06:59	22:16:22	554451	5e9f31ca9b0a040704ee0bad	3	1	DL_practice	21	DL_practice	9	stimuli_distractor_trianglediamonds.svg	stimuli_target_squarediamonds.svg	12	yes	ba	1	1382	6	1	antiphase_hc_iso.wav	2	6	5	noise_calib_stim_RIGHT.wav	2	1	blb_dichoticlistening_ba-ba.mp3	ba	ba	0	left
6.6.1	win	2023-07-16	22:06:59	22:16:22	554451	5e9f31ca9b0a040704ee0bad	3	1	DL_practice	21	DL_practice	10	stimuli_distractor_trianglediamonds.svg	stimuli_target_squarediamonds.svg	12	yes	pa	1	1253	6	1	antiphase_hc_iso.wav	2	6	5	noise_calib_stim_RIGHT.wav	2	23	blb_dichoticlistening_ka-pa.mp3	ka	pa	1	right
6.6.1	win	2023-07-16	22:06:59	22:16:22	554451	5e9f31ca9b0a040704ee0bad	3	1	DL_test	23	DL_test	1	stimuli_distractor_trianglediamonds.svg	stimuli_target_squarediamonds.svg	12	yes	pa	1	1153	6	1	antiphase_hc_iso.wav	2	6	5	noise_calib_stim_RIGHT.wav	2	25	blb_dichoticlistening_pa-ba.mp3	pa	ba	1	left
6.6.1	win	2023-07-16	22:06:59	22:16:22	554451	5e9f31ca9b0a040704ee0bad	3	1	DL_test	23	DL_test	2	stimuli_distractor_trianglediamonds.svg	stimuli_target_squarediamonds.svg	12	yes	ba	1	1164	6	1	antiphase_hc_iso.wav	2	6	5	noise_calib_stim_RIGHT.wav	2	1	blb_dichoticlistening_ba-ba.mp3	ba	ba	0	left
6.6.1	win	2023-07-16	22:06:59	22:16:22	554451	5e9f31ca9b0a040704ee0bad	3	1	DL_test	23	DL_test	3	stimuli_distractor_trianglediamonds.svg	stimuli_target_squarediamonds.svg	12	yes	ka	1	1049	6	1	antiphase_hc_iso.wav	2	6	5	noise_calib_stim_RIGHT.wav	2	4	blb_dichoticlistening_ba-ka.mp3	ba	ka	1	right
6.6.1	win	2023-07-16	22:06:59	22:16:22	554451	5e9f31ca9b0a040704ee0bad	3	1	DL_test	23	DL_test	4	stimuli_distractor_trianglediamonds.svg	stimuli_target_squarediamonds.svg	12	yes	ga	1	999	6	1	antiphase_hc_iso.wav	2	6	5	noise_calib_stim_RIGHT.wav	2	17	blb_dichoticlistening_ga-pa.mp3	ga	pa	1	left
6.6.1	win	2023-07-16	22:06:59	22:16:22	554451	5e9f31ca9b0a040704ee0bad	3	1	DL_test	23	DL_test	5	stimuli_distractor_trianglediamonds.svg	stimuli_target_squarediamonds.svg	12	yes	da	1	734	6	1	antiphase_hc_iso.wav	2	6	5	noise_calib_stim_RIGHT.wav	2	2	blb_dichoticlistening_ba-da.mp3	ba	da	1	right
6.6.1	win	2023-07-16	22:06:59	22:16:22	554451	5e9f31ca9b0a040704ee0bad	3	1	DL_test	23	DL_test	6	stimuli_distractor_trianglediamonds.svg	stimuli_target_squarediamonds.svg	12	yes	ta	1	1362	6	1	antiphase_hc_iso.wav	2	6	5	noise_calib_stim_RIGHT.wav	2	32	blb_dichoticlistening_ta-da.mp3	ta	da	1	left
6.6.1	win	2023-07-16	22:06:59	22:16:22	554451	5e9f31ca9b0a040704ee0bad	3	1	DL_test	23	DL_test	7	stimuli_distractor_trianglediamonds.svg	stimuli_target_squarediamonds.svg	12	yes	ka	1	1183	6	1	antiphase_hc_iso.wav	2	6	5	noise_calib_stim_RIGHT.wav	2	28	blb_dichoticlistening_pa-ka.mp3	pa	ka	1	right
6.6.1	win	2023-07-16	22:06:59	22:16:22	554451	5e9f31ca9b0a040704ee0bad	3	1	DL_test	23	DL_test	8	stimuli_distractor_trianglediamonds.svg	stimuli_target_squarediamonds.svg	12	yes	ta	0	1428	6	1	antiphase_hc_iso.wav	2	6	5	noise_calib_stim_RIGHT.wav	2	26	blb_dichoticlistening_pa-da.mp3	pa	da	1	other
6.6.1	win	2023-07-16	22:06:59	22:16:22	554451	5e9f31ca9b0a040704ee0bad	3	1	DL_test	23	DL_test	9	stimuli_distractor_trianglediamonds.svg	stimuli_target_squarediamonds.svg	12	yes	ka	0	2124	6	1	antiphase_hc_iso.wav	2	6	5	noise_calib_stim_RIGHT.wav	2	18	blb_dichoticlistening_ga-ta.mp3	ga	ta	1	other
6.6.1	win	2023-07-16	22:06:59	22:16:22	554451	5e9f31ca9b0a040704ee0bad	3	1	DL_test	23	DL_test	10	stimuli_distractor_trianglediamonds.svg	stimuli_target_squarediamonds.svg	12	yes	ba	1	878	6	1	antiphase_hc_iso.wav	2	6	5	noise_calib_stim_RIGHT.wav	2	5	blb_dichoticlistening_ba-pa.mp3	ba	pa	1	left
6.6.1	win	2023-07-16	22:06:59	22:16:22	554451	5e9f31ca9b0a040704ee0bad	3	1	DL_test	23	DL_test	11	stimuli_distractor_trianglediamonds.svg	stimuli_target_squarediamonds.svg	12	yes	ka	1	1564	6	1	antiphase_hc_iso.wav	2	6	5	noise_calib_stim_RIGHT.wav	2	21	blb_dichoticlistening_ka-ga.mp3	ka	ga	1	left
6.6.1	win	2023-07-16	22:06:59	22:16:22	554451	5e9f31ca9b0a040704ee0bad	3	1	DL_test	23	DL_test	12	stimuli_distractor_trianglediamonds.svg	stimuli_target_squarediamonds.svg	12	yes	ka	1	722	6	1	antiphase_hc_iso.wav	2	6	5	noise_calib_stim_RIGHT.wav	2	24	blb_dichoticlistening_ka-ta.mp3	ka	ta	1	left
6.6.1	win	2023-07-16	22:06:59	22:16:22	554451	5e9f31ca9b0a040704ee0bad	3	1	DL_test	23	DL_test	13	stimuli_distractor_trianglediamonds.svg	stimuli_target_squarediamonds.svg	12	yes	da	1	761	6	1	antiphase_hc_iso.wav	2	6	5	noise_calib_stim_RIGHT.wav	2	14	blb_dichoticlistening_ga-da.mp3	ga	da	1	right
6.6.1	win	2023-07-16	22:06:59	22:16:22	554451	5e9f31ca9b0a040704ee0bad	3	1	DL_test	23	DL_test	14	stimuli_distractor_trianglediamonds.svg	stimuli_target_squarediamonds.svg	12	yes	ga	1	857	6	1	antiphase_hc_iso.wav	2	6	5	noise_calib_stim_RIGHT.wav	2	3	blb_dichoticlistening_ba-ga.mp3	ba	ga	1	right
6.6.1	win	2023-07-16	22:06:59	22:16:22	554451	5e9f31ca9b0a040704ee0bad	3	1	DL_test	23	DL_test	15	stimuli_distractor_trianglediamonds.svg	stimuli_target_squarediamonds.svg	12	yes	pa	1	1021	6	1	antiphase_hc_iso.wav	2	6	5	noise_calib_stim_RIGHT.wav	2	29	blb_dichoticlistening_pa-pa.mp3	pa	pa	0	left
6.6.1	win	2023-07-16	22:06:59	22:16:22	554451	5e9f31ca9b0a040704ee0bad	3	1	DL_test	23	DL_test	16	stimuli_distractor_trianglediamonds.svg	stimuli_target_squarediamonds.svg	12	yes	ta	1	1426	6	1	antiphase_hc_iso.wav	2	6	5	noise_calib_stim_RIGHT.wav	2	31	blb_dichoticlistening_ta-ba.mp3	ta	ba	1	left
6.6.1	win	2023-07-16	22:06:59	22:16:22	554451	5e9f31ca9b0a040704ee0bad	3	1	DL_test	23	DL_test	17	stimuli_distractor_trianglediamonds.svg	stimuli_target_squarediamonds.svg	12	yes	ta	1	1066	6	1	antiphase_hc_iso.wav	2	6	5	noise_calib_stim_RIGHT.wav	2	6	blb_dichoticlistening_ba-ta.mp3	ba	ta	1	right
6.6.1	win	2023-07-16	22:06:59	22:16:22	554451	5e9f31ca9b0a040704ee0bad	3	1	DL_test	23	DL_test	18	stimuli_distractor_trianglediamonds.svg	stimuli_target_squarediamonds.svg	12	yes	da	1	652	6	1	antiphase_hc_iso.wav	2	6	5	noise_calib_stim_RIGHT.wav	2	9	blb_dichoticlistening_da-ga.mp3	da	ga	1	left
6.6.1	win	2023-07-16	22:06:59	22:16:22	554451	5e9f31ca9b0a040704ee0bad	3	1	DL_test	23	DL_test	19	stimuli_distractor_trianglediamonds.svg	stimuli_target_squarediamonds.svg	12	yes	pa	1	1234	6	1	antiphase_hc_iso.wav	2	6	5	noise_calib_stim_RIGHT.wav	2	27	blb_dichoticlistening_pa-ga.mp3	pa	ga	1	left
6.6.1	win	2023-07-16	22:06:59	22:16:22	554451	5e9f31ca9b0a040704ee0bad	3	1	DL_test	23	DL_test	20	stimuli_distractor_trianglediamonds.svg	stimuli_target_squarediamonds.svg	12	yes	da	1	1470	6	1	antiphase_hc_iso.wav	2	6	5	noise_calib_stim_RIGHT.wav	2	11	blb_dichoticlistening_da-pa.mp3	da	pa	1	left
6.6.1	win	2023-07-16	22:06:59	22:16:22	554451	5e9f31ca9b0a040704ee0bad	3	1	DL_test	23	DL_test	21	stimuli_distractor_trianglediamonds.svg	stimuli_target_squarediamonds.svg	12	yes	da	1	1301	6	1	antiphase_hc_iso.wav	2	6	5	noise_calib_stim_RIGHT.wav	2	10	blb_dichoticlistening_da-ka.mp3	da	ka	1	left
6.6.1	win	2023-07-16	22:06:59	22:16:22	554451	5e9f31ca9b0a040704ee0bad	3	1	DL_test	23	DL_test	22	stimuli_distractor_trianglediamonds.svg	stimuli_target_squarediamonds.svg	12	yes	ga	1	802	6	1	antiphase_hc_iso.wav	2	6	5	noise_calib_stim_RIGHT.wav	2	13	blb_dichoticlistening_ga-ba.mp3	ga	ba	1	left
6.6.1	win	2023-07-16	22:06:59	22:16:22	554451	5e9f31ca9b0a040704ee0bad	3	1	DL_test	23	DL_test	23	stimuli_distractor_trianglediamonds.svg	stimuli_target_squarediamonds.svg	12	yes	ka	0	1489	6	1	antiphase_hc_iso.wav	2	6	5	noise_calib_stim_RIGHT.wav	2	12	blb_dichoticlistening_da-ta.mp3	da	ta	1	other
6.6.1	win	2023-07-16	22:06:59	22:16:22	554451	5e9f31ca9b0a040704ee0bad	3	1	DL_test	23	DL_test	24	stimuli_distractor_trianglediamonds.svg	stimuli_target_squarediamonds.svg	12	yes	da	1	698	6	1	antiphase_hc_iso.wav	2	6	5	noise_calib_stim_RIGHT.wav	2	8	blb_dichoticlistening_da-da.mp3	da	da	0	left
6.6.1	win	2023-07-16	22:06:59	22:16:22	554451	5e9f31ca9b0a040704ee0bad	3	1	DL_test	23	DL_test	25	stimuli_distractor_trianglediamonds.svg	stimuli_target_squarediamonds.svg	12	yes	ka	1	737	6	1	antiphase_hc_iso.wav	2	6	5	noise_calib_stim_RIGHT.wav	2	34	blb_dichoticlistening_ta-ka.mp3	ta	ka	1	right
6.6.1	win	2023-07-16	22:06:59	22:16:22	554451	5e9f31ca9b0a040704ee0bad	3	1	DL_test	23	DL_test	26	stimuli_distractor_trianglediamonds.svg	stimuli_target_squarediamonds.svg	12	yes	ka	1	1003	6	1	antiphase_hc_iso.wav	2	6	5	noise_calib_stim_RIGHT.wav	2	23	blb_dichoticlistening_ka-pa.mp3	ka	pa	1	left
