build	computer.platform	date	time	timestamp	time_elapsed_ms	subject	group	session	blockcode	blocknum	trialcode	trialnum	stimulus_left	stimulus_right	stim_index	target_present	response	correct	latency	headphonecheck_countTestTrials	headphonecheck_index	headphonecheck_testSound	headphonecheck_correctResponse	stereocheck_countTestTrials	stereocheck_index	stereocheck_testSound	stereocheck_correctResponse	DL_index	DL_soundfile	DL_leftSound	DL_rightSound	DL_dualSound	DL_choice
6.6.1	win	2023-06-27	21:45:40	0	0	6346da4e7ac002d7383bd243	2	1	headphonecheck_calibration	4	headphonecheck_calibrationIntro	1			0		calibrationButton	0	5298	0	0			0	0			1				0	
6.6.1	win	2023-06-27	21:45:40	0	0	6346da4e7ac002d7383bd243	2	1	headphonecheck_testphase	5	test_collectResponse	3			0		third	1	2247	1	2	antiphase_hc_ios.wav	3	0	0			1				0	
6.6.1	win	2023-06-27	21:45:40	0	0	6346da4e7ac002d7383bd243	2	1	headphonecheck_testphase	5	test_collectResponse	6			0		first	1	1414	2	3	antiphase_hc_soi.wav	1	0	0			1				0	
6.6.1	win	2023-06-27	21:45:40	0	0	6346da4e7ac002d7383bd243	2	1	headphonecheck_testphase	5	test_collectResponse	9			0		third	1	717	3	6	antiphase_hc_ois.wav	3	0	0			1				0	
6.6.1	win	2023-06-27	21:45:40	0	0	6346da4e7ac002d7383bd243	2	1	headphonecheck_testphase	5	test_collectResponse	12			0		first	1	529	4	4	antiphase_hc_sio.wav	1	0	0			1				0	
6.6.1	win	2023-06-27	21:45:40	0	0	6346da4e7ac002d7383bd243	2	1	headphonecheck_testphase	5	test_collectResponse	15			0		second	1	495	5	5	antiphase_hc_osi.wav	2	0	0			1				0	
6.6.1	win	2023-06-27	21:45:40	0	0	6346da4e7ac002d7383bd243	2	1	headphonecheck_testphase	5	test_collectResponse	18			0		second	1	465	6	1	antiphase_hc_iso.wav	2	0	0			1				0	
6.6.1	win	2023-06-27	21:45:40	0	0	6346da4e7ac002d7383bd243	2	1	stereocheck_calibration	7	stereocheck_calibrationIntro	1			0		stereocheck_calibrationButton	0	47321	6	1	antiphase_hc_iso.wav	2	0	0			1				0	
6.6.1	win	2023-06-27	21:45:40	0	0	6346da4e7ac002d7383bd243	2	1	stereocheck_testphase	8	stereocheck_test_collectResponse	3			0		stereocheck_left	1	495	6	1	antiphase_hc_iso.wav	2	1	1	noise_calib_stim_LEFT.wav	1	1				0	
6.6.1	win	2023-06-27	21:45:40	0	0	6346da4e7ac002d7383bd243	2	1	stereocheck_testphase	8	stereocheck_test_collectResponse	6			0		stereocheck_left	1	330	6	1	antiphase_hc_iso.wav	2	2	2	noise_calib_stim_LEFT.wav	1	1				0	
6.6.1	win	2023-06-27	21:45:40	0	0	6346da4e7ac002d7383bd243	2	1	stereocheck_testphase	8	stereocheck_test_collectResponse	9			0		stereocheck_right	1	335	6	1	antiphase_hc_iso.wav	2	3	4	noise_calib_stim_RIGHT.wav	2	1				0	
6.6.1	win	2023-06-27	21:45:40	0	0	6346da4e7ac002d7383bd243	2	1	stereocheck_testphase	8	stereocheck_test_collectResponse	12			0		stereocheck_right	1	396	6	1	antiphase_hc_iso.wav	2	4	6	noise_calib_stim_RIGHT.wav	2	1				0	
6.6.1	win	2023-06-27	21:45:40	0	0	6346da4e7ac002d7383bd243	2	1	stereocheck_testphase	8	stereocheck_test_collectResponse	15			0		stereocheck_right	1	352	6	1	antiphase_hc_iso.wav	2	5	5	noise_calib_stim_RIGHT.wav	2	1				0	
6.6.1	win	2023-06-27	21:45:40	0	0	6346da4e7ac002d7383bd243	2	1	stereocheck_testphase	8	stereocheck_test_collectResponse	18			0		stereocheck_left	1	359	6	1	antiphase_hc_iso.wav	2	6	3	noise_calib_stim_LEFT.wav	1	1				0	
6.6.1	win	2023-06-27	21:45:40	0	0	6346da4e7ac002d7383bd243	2	1	DL_practice	11	DL_practice	2			0		ka	1	1594	6	1	antiphase_hc_iso.wav	2	6	3	noise_calib_stim_LEFT.wav	1	22	blb_dichoticlistening_ka-ka.mp3	ka	ka	0	left
6.6.1	win	2023-06-27	21:45:40	0	0	6346da4e7ac002d7383bd243	2	1	DL_practice	11	DL_practice	3			0		ga	1	1992	6	1	antiphase_hc_iso.wav	2	6	3	noise_calib_stim_LEFT.wav	1	15	blb_dichoticlistening_ga-ga.mp3	ga	ga	0	left
6.6.1	win	2023-06-27	21:45:40	0	0	6346da4e7ac002d7383bd243	2	1	DL_practice	11	DL_practice	4			0		da	1	3713	6	1	antiphase_hc_iso.wav	2	6	3	noise_calib_stim_LEFT.wav	1	7	blb_dichoticlistening_da-ba.mp3	da	ba	1	left
6.6.1	win	2023-06-27	21:45:40	0	0	6346da4e7ac002d7383bd243	2	1	DL_practice	11	DL_practice	5			0		da	1	1514	6	1	antiphase_hc_iso.wav	2	6	3	noise_calib_stim_LEFT.wav	1	8	blb_dichoticlistening_da-da.mp3	da	da	0	left
6.6.1	win	2023-06-27	21:45:40	0	0	6346da4e7ac002d7383bd243	2	1	DL_practice	11	DL_practice	6			0		ka	0	2958	6	1	antiphase_hc_iso.wav	2	6	3	noise_calib_stim_LEFT.wav	1	18	blb_dichoticlistening_ga-ta.mp3	ga	ta	1	other
6.6.1	win	2023-06-27	21:45:40	0	0	6346da4e7ac002d7383bd243	2	1	DL_practice	11	DL_practice	7			0		ba	1	2133	6	1	antiphase_hc_iso.wav	2	6	3	noise_calib_stim_LEFT.wav	1	1	blb_dichoticlistening_ba-ba.mp3	ba	ba	0	left
6.6.1	win	2023-06-27	21:45:40	0	0	6346da4e7ac002d7383bd243	2	1	DL_practice	11	DL_practice	8			0		ka	1	3037	6	1	antiphase_hc_iso.wav	2	6	3	noise_calib_stim_LEFT.wav	1	23	blb_dichoticlistening_ka-pa.mp3	ka	pa	1	left
6.6.1	win	2023-06-27	21:45:40	0	0	6346da4e7ac002d7383bd243	2	1	DL_practice	11	DL_practice	9			0		ba	0	1938	6	1	antiphase_hc_iso.wav	2	6	3	noise_calib_stim_LEFT.wav	1	29	blb_dichoticlistening_pa-pa.mp3	pa	pa	0	other
6.6.1	win	2023-06-27	21:45:40	0	0	6346da4e7ac002d7383bd243	2	1	DL_practice	11	DL_practice	10			0		ta	1	2050	6	1	antiphase_hc_iso.wav	2	6	3	noise_calib_stim_LEFT.wav	1	36	blb_dichoticlistening_ta-ta.mp3	ta	ta	0	left
6.6.1	win	2023-06-27	21:45:40	0	0	6346da4e7ac002d7383bd243	2	1	DL_test	13	DL_test	1			0		ka	1	2041	6	1	antiphase_hc_iso.wav	2	6	3	noise_calib_stim_LEFT.wav	1	16	blb_dichoticlistening_ga-ka.mp3	ga	ka	1	right
6.6.1	win	2023-06-27	21:45:40	0	0	6346da4e7ac002d7383bd243	2	1	DL_test	13	DL_test	2			0		ka	1	1828	6	1	antiphase_hc_iso.wav	2	6	3	noise_calib_stim_LEFT.wav	1	21	blb_dichoticlistening_ka-ga.mp3	ka	ga	1	left
6.6.1	win	2023-06-27	21:45:40	0	0	6346da4e7ac002d7383bd243	2	1	DL_test	13	DL_test	3			0		pa	1	2137	6	1	antiphase_hc_iso.wav	2	6	3	noise_calib_stim_LEFT.wav	1	28	blb_dichoticlistening_pa-ka.mp3	pa	ka	1	left
6.6.1	win	2023-06-27	21:45:40	0	0	6346da4e7ac002d7383bd243	2	1	DL_test	13	DL_test	4			0		pa	1	1653	6	1	antiphase_hc_iso.wav	2	6	3	noise_calib_stim_LEFT.wav	1	29	blb_dichoticlistening_pa-pa.mp3	pa	pa	0	left
6.6.1	win	2023-06-27	21:45:40	0	0	6346da4e7ac002d7383bd243	2	1	DL_test	13	DL_test	5			0		ta	1	2086	6	1	antiphase_hc_iso.wav	2	6	3	noise_calib_stim_LEFT.wav	1	35	blb_dichoticlistening_ta-pa.mp3	ta	pa	1	left
6.6.1	win	2023-06-27	21:45:40	0	0	6346da4e7ac002d7383bd243	2	1	DL_test	13	DL_test	6			0		pa	1	2871	6	1	antiphase_hc_iso.wav	2	6	3	noise_calib_stim_LEFT.wav	1	26	blb_dichoticlistening_pa-da.mp3	pa	da	1	left
6.6.1	win	2023-06-27	21:45:40	0	0	6346da4e7ac002d7383bd243	2	1	DL_test	13	DL_test	7			0		ga	1	4213	6	1	antiphase_hc_iso.wav	2	6	3	noise_calib_stim_LEFT.wav	1	33	blb_dichoticlistening_ta-ga.mp3	ta	ga	1	right
6.6.1	win	2023-06-27	21:45:40	0	0	6346da4e7ac002d7383bd243	2	1	DL_test	13	DL_test	8			0		da	1	1876	6	1	antiphase_hc_iso.wav	2	6	3	noise_calib_stim_LEFT.wav	1	8	blb_dichoticlistening_da-da.mp3	da	da	0	left
6.6.1	win	2023-06-27	21:45:40	0	0	6346da4e7ac002d7383bd243	2	1	DL_test	13	DL_test	9			0		ka	0	2954	6	1	antiphase_hc_iso.wav	2	6	3	noise_calib_stim_LEFT.wav	1	12	blb_dichoticlistening_da-ta.mp3	da	ta	1	other
6.6.1	win	2023-06-27	21:45:40	0	0	6346da4e7ac002d7383bd243	2	1	DL_test	13	DL_test	10			0		da	0	4782	6	1	antiphase_hc_iso.wav	2	6	3	noise_calib_stim_LEFT.wav	1	27	blb_dichoticlistening_pa-ga.mp3	pa	ga	1	other
6.6.1	win	2023-06-27	21:45:40	0	0	6346da4e7ac002d7383bd243	2	1	DL_test	13	DL_test	11			0		ba	1	2074	6	1	antiphase_hc_iso.wav	2	6	3	noise_calib_stim_LEFT.wav	1	3	blb_dichoticlistening_ba-ga.mp3	ba	ga	1	left
6.6.1	win	2023-06-27	21:45:40	0	0	6346da4e7ac002d7383bd243	2	1	DL_test	13	DL_test	12			0		ka	1	1519	6	1	antiphase_hc_iso.wav	2	6	3	noise_calib_stim_LEFT.wav	1	22	blb_dichoticlistening_ka-ka.mp3	ka	ka	0	left
6.6.1	win	2023-06-27	21:45:40	0	0	6346da4e7ac002d7383bd243	2	1	DL_test	13	DL_test	13			0		ka	1	2652	6	1	antiphase_hc_iso.wav	2	6	3	noise_calib_stim_LEFT.wav	1	4	blb_dichoticlistening_ba-ka.mp3	ba	ka	1	right
6.6.1	win	2023-06-27	21:45:40	0	0	6346da4e7ac002d7383bd243	2	1	DL_test	13	DL_test	14			0		da	1	2683	6	1	antiphase_hc_iso.wav	2	6	3	noise_calib_stim_LEFT.wav	1	10	blb_dichoticlistening_da-ka.mp3	da	ka	1	left
6.6.1	win	2023-06-27	21:45:40	0	0	6346da4e7ac002d7383bd243	2	1	DL_test	13	DL_test	15			0		da	1	1442	6	1	antiphase_hc_iso.wav	2	6	3	noise_calib_stim_LEFT.wav	1	9	blb_dichoticlistening_da-ga.mp3	da	ga	1	left
6.6.1	win	2023-06-27	21:45:40	0	0	6346da4e7ac002d7383bd243	2	1	DL_test	13	DL_test	16			0		ga	1	1504	6	1	antiphase_hc_iso.wav	2	6	3	noise_calib_stim_LEFT.wav	1	17	blb_dichoticlistening_ga-pa.mp3	ga	pa	1	left
6.6.1	win	2023-06-27	21:45:40	0	0	6346da4e7ac002d7383bd243	2	1	DL_test	13	DL_test	17			0		da	1	2731	6	1	antiphase_hc_iso.wav	2	6	3	noise_calib_stim_LEFT.wav	1	11	blb_dichoticlistening_da-pa.mp3	da	pa	1	left
6.6.1	win	2023-06-27	21:45:40	0	0	6346da4e7ac002d7383bd243	2	1	DL_test	13	DL_test	18			0		ka	1	2944	6	1	antiphase_hc_iso.wav	2	6	3	noise_calib_stim_LEFT.wav	1	34	blb_dichoticlistening_ta-ka.mp3	ta	ka	1	right
6.6.1	win	2023-06-27	21:45:40	0	0	6346da4e7ac002d7383bd243	2	1	DL_test	13	DL_test	19			0		da	1	2452	6	1	antiphase_hc_iso.wav	2	6	3	noise_calib_stim_LEFT.wav	1	7	blb_dichoticlistening_da-ba.mp3	da	ba	1	left
6.6.1	win	2023-06-27	21:45:40	0	0	6346da4e7ac002d7383bd243	2	1	DL_test	13	DL_test	20			0		da	0	1278	6	1	antiphase_hc_iso.wav	2	6	3	noise_calib_stim_LEFT.wav	1	13	blb_dichoticlistening_ga-ba.mp3	ga	ba	1	other
6.6.1	win	2023-06-27	21:45:40	0	0	6346da4e7ac002d7383bd243	2	1	DL_test	13	DL_test	21			0		da	1	2685	6	1	antiphase_hc_iso.wav	2	6	3	noise_calib_stim_LEFT.wav	1	2	blb_dichoticlistening_ba-da.mp3	ba	da	1	right
6.6.1	win	2023-06-27	21:45:40	0	0	6346da4e7ac002d7383bd243	2	1	DL_test	13	DL_test	22			0		ta	1	3051	6	1	antiphase_hc_iso.wav	2	6	3	noise_calib_stim_LEFT.wav	1	32	blb_dichoticlistening_ta-da.mp3	ta	da	1	left
6.6.1	win	2023-06-27	21:45:40	0	0	6346da4e7ac002d7383bd243	2	1	DL_test	13	DL_test	23			0		ga	1	1667	6	1	antiphase_hc_iso.wav	2	6	3	noise_calib_stim_LEFT.wav	1	15	blb_dichoticlistening_ga-ga.mp3	ga	ga	0	left
6.6.1	win	2023-06-27	21:45:40	0	0	6346da4e7ac002d7383bd243	2	1	DL_test	13	DL_test	24			0		ka	0	1743	6	1	antiphase_hc_iso.wav	2	6	3	noise_calib_stim_LEFT.wav	1	6	blb_dichoticlistening_ba-ta.mp3	ba	ta	1	other
6.6.1	win	2023-06-27	21:45:40	0	0	6346da4e7ac002d7383bd243	2	1	DL_test	13	DL_test	25			0		ta	1	1837	6	1	antiphase_hc_iso.wav	2	6	3	noise_calib_stim_LEFT.wav	1	36	blb_dichoticlistening_ta-ta.mp3	ta	ta	0	left
6.6.1	win	2023-06-27	21:45:40	0	0	6346da4e7ac002d7383bd243	2	1	DL_test	13	DL_test	26			0		pa	1	2915	6	1	antiphase_hc_iso.wav	2	6	3	noise_calib_stim_LEFT.wav	1	5	blb_dichoticlistening_ba-pa.mp3	ba	pa	1	right
6.6.1	win	2023-06-27	21:45:40	0	0	6346da4e7ac002d7383bd243	2	1	DL_test	13	DL_test	27			0		ka	1	1992	6	1	antiphase_hc_iso.wav	2	6	3	noise_calib_stim_LEFT.wav	1	19	blb_dichoticlistening_ka-ba.mp3	ka	ba	1	left
6.6.1	win	2023-06-27	21:45:40	0	0	6346da4e7ac002d7383bd243	2	1	DL_test	13	DL_test	28			0		ka	0	2810	6	1	antiphase_hc_iso.wav	2	6	3	noise_calib_stim_LEFT.wav	1	31	blb_dichoticlistening_ta-ba.mp3	ta	ba	1	other
6.6.1	win	2023-06-27	21:45:40	0	0	6346da4e7ac002d7383bd243	2	1	DL_test	13	DL_test	29			0		pa	1	1759	6	1	antiphase_hc_iso.wav	2	6	3	noise_calib_stim_LEFT.wav	1	25	blb_dichoticlistening_pa-ba.mp3	pa	ba	1	left
6.6.1	win	2023-06-27	21:45:40	0	0	6346da4e7ac002d7383bd243	2	1	DL_test	13	DL_test	30			0		ta	0	2473	6	1	antiphase_hc_iso.wav	2	6	3	noise_calib_stim_LEFT.wav	1	23	blb_dichoticlistening_ka-pa.mp3	ka	pa	1	other
6.6.1	win	2023-06-27	21:45:40	0	0	6346da4e7ac002d7383bd243	2	1	DL_test	13	DL_test	31			0		ba	1	2530	6	1	antiphase_hc_iso.wav	2	6	3	noise_calib_stim_LEFT.wav	1	1	blb_dichoticlistening_ba-ba.mp3	ba	ba	0	left
6.6.1	win	2023-06-27	21:45:40	0	0	6346da4e7ac002d7383bd243	2	1	DL_test	13	DL_test	32			0		da	1	2447	6	1	antiphase_hc_iso.wav	2	6	3	noise_calib_stim_LEFT.wav	1	14	blb_dichoticlistening_ga-da.mp3	ga	da	1	right
6.6.1	win	2023-06-27	21:45:40	0	0	6346da4e7ac002d7383bd243	2	1	DL_test	13	DL_test	33			0		ka	1	1781	6	1	antiphase_hc_iso.wav	2	6	3	noise_calib_stim_LEFT.wav	1	24	blb_dichoticlistening_ka-ta.mp3	ka	ta	1	left
6.6.1	win	2023-06-27	21:45:40	0	0	6346da4e7ac002d7383bd243	2	1	DL_test	13	DL_test	34			0		ta	1	9256	6	1	antiphase_hc_iso.wav	2	6	3	noise_calib_stim_LEFT.wav	1	30	blb_dichoticlistening_pa-ta.mp3	pa	ta	1	right
6.6.1	win	2023-06-27	21:45:40	0	0	6346da4e7ac002d7383bd243	2	1	DL_test	13	DL_test	35			0		ga	1	1881	6	1	antiphase_hc_iso.wav	2	6	3	noise_calib_stim_LEFT.wav	1	18	blb_dichoticlistening_ga-ta.mp3	ga	ta	1	left
6.6.1	win	2023-06-27	21:45:40	0	0	6346da4e7ac002d7383bd243	2	1	DL_test	13	DL_test	36			0		ka	1	2459	6	1	antiphase_hc_iso.wav	2	6	3	noise_calib_stim_LEFT.wav	1	20	blb_dichoticlistening_ka-da.mp3	ka	da	1	left
6.6.1	win	2023-06-27	21:45:40	0	0	6346da4e7ac002d7383bd243	2	1	DL_test	14	DL_test	1			0		da	1	2964	6	1	antiphase_hc_iso.wav	2	6	3	noise_calib_stim_LEFT.wav	1	9	blb_dichoticlistening_da-ga.mp3	da	ga	1	left
6.6.1	win	2023-06-27	21:45:40	0	0	6346da4e7ac002d7383bd243	2	1	DL_test	14	DL_test	2			0		ka	1	1880	6	1	antiphase_hc_iso.wav	2	6	3	noise_calib_stim_LEFT.wav	1	21	blb_dichoticlistening_ka-ga.mp3	ka	ga	1	left
6.6.1	win	2023-06-27	21:45:40	0	0	6346da4e7ac002d7383bd243	2	1	DL_test	14	DL_test	3			0		pa	1	1583	6	1	antiphase_hc_iso.wav	2	6	3	noise_calib_stim_LEFT.wav	1	5	blb_dichoticlistening_ba-pa.mp3	ba	pa	1	right
6.6.1	win	2023-06-27	21:45:40	0	0	6346da4e7ac002d7383bd243	2	1	DL_test	14	DL_test	4			0		ga	1	3013	6	1	antiphase_hc_iso.wav	2	6	3	noise_calib_stim_LEFT.wav	1	27	blb_dichoticlistening_pa-ga.mp3	pa	ga	1	right
6.6.1	win	2023-06-27	21:45:40	0	0	6346da4e7ac002d7383bd243	2	1	DL_test	14	DL_test	5			0		ka	0	1488	6	1	antiphase_hc_iso.wav	2	6	3	noise_calib_stim_LEFT.wav	1	18	blb_dichoticlistening_ga-ta.mp3	ga	ta	1	other
6.6.1	win	2023-06-27	21:45:40	0	0	6346da4e7ac002d7383bd243	2	1	DL_test	14	DL_test	6			0		ka	1	1604	6	1	antiphase_hc_iso.wav	2	6	3	noise_calib_stim_LEFT.wav	1	19	blb_dichoticlistening_ka-ba.mp3	ka	ba	1	left
6.6.1	win	2023-06-27	21:45:40	0	0	6346da4e7ac002d7383bd243	2	1	DL_test	14	DL_test	7			0		ka	0	1297	6	1	antiphase_hc_iso.wav	2	6	3	noise_calib_stim_LEFT.wav	1	32	blb_dichoticlistening_ta-da.mp3	ta	da	1	other
6.6.1	win	2023-06-27	21:45:40	0	0	6346da4e7ac002d7383bd243	2	1	DL_test	14	DL_test	8			0		pa	1	2957	6	1	antiphase_hc_iso.wav	2	6	3	noise_calib_stim_LEFT.wav	1	28	blb_dichoticlistening_pa-ka.mp3	pa	ka	1	left
6.6.1	win	2023-06-27	21:45:40	0	0	6346da4e7ac002d7383bd243	2	1	DL_test	14	DL_test	9			0		ka	1	1634	6	1	antiphase_hc_iso.wav	2	6	3	noise_calib_stim_LEFT.wav	1	24	blb_dichoticlistening_ka-ta.mp3	ka	ta	1	left
6.6.1	win	2023-06-27	21:45:40	0	0	6346da4e7ac002d7383bd243	2	1	DL_test	14	DL_test	10			0		ka	1	2024	6	1	antiphase_hc_iso.wav	2	6	3	noise_calib_stim_LEFT.wav	1	16	blb_dichoticlistening_ga-ka.mp3	ga	ka	1	right
6.6.1	win	2023-06-27	21:45:40	0	0	6346da4e7ac002d7383bd243	2	1	DL_test	14	DL_test	11			0		ta	1	1718	6	1	antiphase_hc_iso.wav	2	6	3	noise_calib_stim_LEFT.wav	1	35	blb_dichoticlistening_ta-pa.mp3	ta	pa	1	left
6.6.1	win	2023-06-27	21:45:40	0	0	6346da4e7ac002d7383bd243	2	1	DL_test	14	DL_test	12			0		ba	1	2138	6	1	antiphase_hc_iso.wav	2	6	3	noise_calib_stim_LEFT.wav	1	13	blb_dichoticlistening_ga-ba.mp3	ga	ba	1	right
6.6.1	win	2023-06-27	21:45:40	0	0	6346da4e7ac002d7383bd243	2	1	DL_test	14	DL_test	13			0		da	1	4170	6	1	antiphase_hc_iso.wav	2	6	3	noise_calib_stim_LEFT.wav	1	12	blb_dichoticlistening_da-ta.mp3	da	ta	1	left
6.6.1	win	2023-06-27	21:45:40	0	0	6346da4e7ac002d7383bd243	2	1	DL_test	14	DL_test	14			0		ka	1	1742	6	1	antiphase_hc_iso.wav	2	6	3	noise_calib_stim_LEFT.wav	1	22	blb_dichoticlistening_ka-ka.mp3	ka	ka	0	left
6.6.1	win	2023-06-27	21:45:40	0	0	6346da4e7ac002d7383bd243	2	1	DL_test	14	DL_test	15			0		ba	1	1991	6	1	antiphase_hc_iso.wav	2	6	3	noise_calib_stim_LEFT.wav	1	1	blb_dichoticlistening_ba-ba.mp3	ba	ba	0	left
6.6.1	win	2023-06-27	21:45:40	0	0	6346da4e7ac002d7383bd243	2	1	DL_test	14	DL_test	16			0		ba	1	2100	6	1	antiphase_hc_iso.wav	2	6	3	noise_calib_stim_LEFT.wav	1	2	blb_dichoticlistening_ba-da.mp3	ba	da	1	left
6.6.1	win	2023-06-27	21:45:40	0	0	6346da4e7ac002d7383bd243	2	1	DL_test	14	DL_test	17			0		ta	0	2151	6	1	antiphase_hc_iso.wav	2	6	3	noise_calib_stim_LEFT.wav	1	11	blb_dichoticlistening_da-pa.mp3	da	pa	1	other
6.6.1	win	2023-06-27	21:45:40	0	0	6346da4e7ac002d7383bd243	2	1	DL_test	14	DL_test	18			0		ba	1	2746	6	1	antiphase_hc_iso.wav	2	6	3	noise_calib_stim_LEFT.wav	1	3	blb_dichoticlistening_ba-ga.mp3	ba	ga	1	left
6.6.1	win	2023-06-27	21:45:40	0	0	6346da4e7ac002d7383bd243	2	1	DL_test	14	DL_test	19			0		ga	1	2955	6	1	antiphase_hc_iso.wav	2	6	3	noise_calib_stim_LEFT.wav	1	17	blb_dichoticlistening_ga-pa.mp3	ga	pa	1	left
6.6.1	win	2023-06-27	21:45:40	0	0	6346da4e7ac002d7383bd243	2	1	DL_test	14	DL_test	20			0		pa	1	2447	6	1	antiphase_hc_iso.wav	2	6	3	noise_calib_stim_LEFT.wav	1	29	blb_dichoticlistening_pa-pa.mp3	pa	pa	0	left
6.6.1	win	2023-06-27	21:45:40	0	0	6346da4e7ac002d7383bd243	2	1	DL_test	14	DL_test	21			0		ta	1	1921	6	1	antiphase_hc_iso.wav	2	6	3	noise_calib_stim_LEFT.wav	1	34	blb_dichoticlistening_ta-ka.mp3	ta	ka	1	left
6.6.1	win	2023-06-27	21:45:40	0	0	6346da4e7ac002d7383bd243	2	1	DL_test	14	DL_test	22			0		ta	1	1179	6	1	antiphase_hc_iso.wav	2	6	3	noise_calib_stim_LEFT.wav	1	31	blb_dichoticlistening_ta-ba.mp3	ta	ba	1	left
6.6.1	win	2023-06-27	21:45:40	0	0	6346da4e7ac002d7383bd243	2	1	DL_test	14	DL_test	23			0		pa	1	1837	6	1	antiphase_hc_iso.wav	2	6	3	noise_calib_stim_LEFT.wav	1	30	blb_dichoticlistening_pa-ta.mp3	pa	ta	1	left
6.6.1	win	2023-06-27	21:45:40	0	0	6346da4e7ac002d7383bd243	2	1	DL_test	14	DL_test	24			0		da	1	1716	6	1	antiphase_hc_iso.wav	2	6	3	noise_calib_stim_LEFT.wav	1	7	blb_dichoticlistening_da-ba.mp3	da	ba	1	left
6.6.1	win	2023-06-27	21:45:40	0	0	6346da4e7ac002d7383bd243	2	1	DL_test	14	DL_test	25			0		ka	1	1774	6	1	antiphase_hc_iso.wav	2	6	3	noise_calib_stim_LEFT.wav	1	4	blb_dichoticlistening_ba-ka.mp3	ba	ka	1	right
6.6.1	win	2023-06-27	21:45:40	0	0	6346da4e7ac002d7383bd243	2	1	DL_test	14	DL_test	26			0		pa	1	3105	6	1	antiphase_hc_iso.wav	2	6	3	noise_calib_stim_LEFT.wav	1	26	blb_dichoticlistening_pa-da.mp3	pa	da	1	left
6.6.1	win	2023-06-27	21:45:40	0	0	6346da4e7ac002d7383bd243	2	1	DL_test	14	DL_test	27			0		ka	0	1793	6	1	antiphase_hc_iso.wav	2	6	3	noise_calib_stim_LEFT.wav	1	6	blb_dichoticlistening_ba-ta.mp3	ba	ta	1	other
6.6.1	win	2023-06-27	21:45:40	0	0	6346da4e7ac002d7383bd243	2	1	DL_test	14	DL_test	28			0		ga	1	1490	6	1	antiphase_hc_iso.wav	2	6	3	noise_calib_stim_LEFT.wav	1	15	blb_dichoticlistening_ga-ga.mp3	ga	ga	0	left
6.6.1	win	2023-06-27	21:45:40	0	0	6346da4e7ac002d7383bd243	2	1	DL_test	14	DL_test	29			0		ta	1	1465	6	1	antiphase_hc_iso.wav	2	6	3	noise_calib_stim_LEFT.wav	1	36	blb_dichoticlistening_ta-ta.mp3	ta	ta	0	left
6.6.1	win	2023-06-27	21:45:40	0	0	6346da4e7ac002d7383bd243	2	1	DL_test	14	DL_test	30			0		ta	0	2214	6	1	antiphase_hc_iso.wav	2	6	3	noise_calib_stim_LEFT.wav	1	23	blb_dichoticlistening_ka-pa.mp3	ka	pa	1	other
6.6.1	win	2023-06-27	21:45:40	0	0	6346da4e7ac002d7383bd243	2	1	DL_test	14	DL_test	31			0		pa	1	1907	6	1	antiphase_hc_iso.wav	2	6	3	noise_calib_stim_LEFT.wav	1	25	blb_dichoticlistening_pa-ba.mp3	pa	ba	1	left
6.6.1	win	2023-06-27	21:45:40	0	0	6346da4e7ac002d7383bd243	2	1	DL_test	14	DL_test	32			0		ga	1	2288	6	1	antiphase_hc_iso.wav	2	6	3	noise_calib_stim_LEFT.wav	1	33	blb_dichoticlistening_ta-ga.mp3	ta	ga	1	right
6.6.1	win	2023-06-27	21:45:40	0	0	6346da4e7ac002d7383bd243	2	1	DL_test	14	DL_test	33			0		ga	1	1128	6	1	antiphase_hc_iso.wav	2	6	3	noise_calib_stim_LEFT.wav	1	14	blb_dichoticlistening_ga-da.mp3	ga	da	1	left
6.6.1	win	2023-06-27	21:45:40	0	0	6346da4e7ac002d7383bd243	2	1	DL_test	14	DL_test	34			0		ba	0	4506	6	1	antiphase_hc_iso.wav	2	6	3	noise_calib_stim_LEFT.wav	1	10	blb_dichoticlistening_da-ka.mp3	da	ka	1	other
6.6.1	win	2023-06-27	21:45:40	0	0	6346da4e7ac002d7383bd243	2	1	DL_test	14	DL_test	35			0		da	1	1589	6	1	antiphase_hc_iso.wav	2	6	3	noise_calib_stim_LEFT.wav	1	8	blb_dichoticlistening_da-da.mp3	da	da	0	left
6.6.1	win	2023-06-27	21:45:40	0	0	6346da4e7ac002d7383bd243	2	1	DL_test	14	DL_test	36			0		ka	1	1577	6	1	antiphase_hc_iso.wav	2	6	3	noise_calib_stim_LEFT.wav	1	20	blb_dichoticlistening_ka-da.mp3	ka	da	1	left
6.6.1	win	2023-06-27	21:45:40	0	0	6346da4e7ac002d7383bd243	2	1	DL_test	15	DL_test	1			0		da	1	2612	6	1	antiphase_hc_iso.wav	2	6	3	noise_calib_stim_LEFT.wav	1	10	blb_dichoticlistening_da-ka.mp3	da	ka	1	left
6.6.1	win	2023-06-27	21:45:40	0	0	6346da4e7ac002d7383bd243	2	1	DL_test	15	DL_test	2			0		ga	1	1213	6	1	antiphase_hc_iso.wav	2	6	3	noise_calib_stim_LEFT.wav	1	3	blb_dichoticlistening_ba-ga.mp3	ba	ga	1	right
6.6.1	win	2023-06-27	21:45:40	0	0	6346da4e7ac002d7383bd243	2	1	DL_test	15	DL_test	3			0		ga	1	1010	6	1	antiphase_hc_iso.wav	2	6	3	noise_calib_stim_LEFT.wav	1	14	blb_dichoticlistening_ga-da.mp3	ga	da	1	left
6.6.1	win	2023-06-27	21:45:40	0	0	6346da4e7ac002d7383bd243	2	1	DL_test	15	DL_test	4			0		ga	1	889	6	1	antiphase_hc_iso.wav	2	6	3	noise_calib_stim_LEFT.wav	1	15	blb_dichoticlistening_ga-ga.mp3	ga	ga	0	left
6.6.1	win	2023-06-27	21:45:40	0	0	6346da4e7ac002d7383bd243	2	1	DL_test	15	DL_test	5			0		ga	1	2072	6	1	antiphase_hc_iso.wav	2	6	3	noise_calib_stim_LEFT.wav	1	27	blb_dichoticlistening_pa-ga.mp3	pa	ga	1	right
6.6.1	win	2023-06-27	21:45:40	0	0	6346da4e7ac002d7383bd243	2	1	DL_test	15	DL_test	6			0		ta	1	1636	6	1	antiphase_hc_iso.wav	2	6	3	noise_calib_stim_LEFT.wav	1	36	blb_dichoticlistening_ta-ta.mp3	ta	ta	0	left
6.6.1	win	2023-06-27	21:45:40	0	0	6346da4e7ac002d7383bd243	2	1	DL_test	15	DL_test	7			0		ba	1	2158	6	1	antiphase_hc_iso.wav	2	6	3	noise_calib_stim_LEFT.wav	1	7	blb_dichoticlistening_da-ba.mp3	da	ba	1	right
6.6.1	win	2023-06-27	21:45:40	0	0	6346da4e7ac002d7383bd243	2	1	DL_test	15	DL_test	8			0		ka	1	1788	6	1	antiphase_hc_iso.wav	2	6	3	noise_calib_stim_LEFT.wav	1	19	blb_dichoticlistening_ka-ba.mp3	ka	ba	1	left
6.6.1	win	2023-06-27	21:45:40	0	0	6346da4e7ac002d7383bd243	2	1	DL_test	15	DL_test	9			0		pa	1	1527	6	1	antiphase_hc_iso.wav	2	6	3	noise_calib_stim_LEFT.wav	1	26	blb_dichoticlistening_pa-da.mp3	pa	da	1	left
6.6.1	win	2023-06-27	21:45:40	0	0	6346da4e7ac002d7383bd243	2	1	DL_test	15	DL_test	10			0		da	1	1770	6	1	antiphase_hc_iso.wav	2	6	3	noise_calib_stim_LEFT.wav	1	2	blb_dichoticlistening_ba-da.mp3	ba	da	1	right
6.6.1	win	2023-06-27	21:45:40	0	0	6346da4e7ac002d7383bd243	2	1	DL_test	15	DL_test	11			0		ga	1	1289	6	1	antiphase_hc_iso.wav	2	6	3	noise_calib_stim_LEFT.wav	1	13	blb_dichoticlistening_ga-ba.mp3	ga	ba	1	left
6.6.1	win	2023-06-27	21:45:40	0	0	6346da4e7ac002d7383bd243	2	1	DL_test	15	DL_test	12			0		ka	0	2093	6	1	antiphase_hc_iso.wav	2	6	3	noise_calib_stim_LEFT.wav	1	18	blb_dichoticlistening_ga-ta.mp3	ga	ta	1	other
6.6.1	win	2023-06-27	21:45:40	0	0	6346da4e7ac002d7383bd243	2	1	DL_test	15	DL_test	13			0		pa	1	1951	6	1	antiphase_hc_iso.wav	2	6	3	noise_calib_stim_LEFT.wav	1	30	blb_dichoticlistening_pa-ta.mp3	pa	ta	1	left
6.6.1	win	2023-06-27	21:45:40	0	0	6346da4e7ac002d7383bd243	2	1	DL_test	15	DL_test	14			0		da	1	1612	6	1	antiphase_hc_iso.wav	2	6	3	noise_calib_stim_LEFT.wav	1	8	blb_dichoticlistening_da-da.mp3	da	da	0	left
6.6.1	win	2023-06-27	21:45:40	0	0	6346da4e7ac002d7383bd243	2	1	DL_test	15	DL_test	15			0		ka	1	1650	6	1	antiphase_hc_iso.wav	2	6	3	noise_calib_stim_LEFT.wav	1	20	blb_dichoticlistening_ka-da.mp3	ka	da	1	left
6.6.1	win	2023-06-27	21:45:40	0	0	6346da4e7ac002d7383bd243	2	1	DL_test	15	DL_test	16			0		ta	0	2350	6	1	antiphase_hc_iso.wav	2	6	3	noise_calib_stim_LEFT.wav	1	23	blb_dichoticlistening_ka-pa.mp3	ka	pa	1	other
6.6.1	win	2023-06-27	21:45:40	0	0	6346da4e7ac002d7383bd243	2	1	DL_test	15	DL_test	17			0		ka	1	1915	6	1	antiphase_hc_iso.wav	2	6	3	noise_calib_stim_LEFT.wav	1	24	blb_dichoticlistening_ka-ta.mp3	ka	ta	1	left
6.6.1	win	2023-06-27	21:45:40	0	0	6346da4e7ac002d7383bd243	2	1	DL_test	15	DL_test	18			0		ba	0	4176	6	1	antiphase_hc_iso.wav	2	6	3	noise_calib_stim_LEFT.wav	1	12	blb_dichoticlistening_da-ta.mp3	da	ta	1	other
6.6.1	win	2023-06-27	21:45:40	0	0	6346da4e7ac002d7383bd243	2	1	DL_test	15	DL_test	19			0		ba	1	855	6	1	antiphase_hc_iso.wav	2	6	3	noise_calib_stim_LEFT.wav	1	1	blb_dichoticlistening_ba-ba.mp3	ba	ba	0	left
6.6.1	win	2023-06-27	21:45:40	0	0	6346da4e7ac002d7383bd243	2	1	DL_test	15	DL_test	20			0		ka	0	1901	6	1	antiphase_hc_iso.wav	2	6	3	noise_calib_stim_LEFT.wav	1	6	blb_dichoticlistening_ba-ta.mp3	ba	ta	1	other
6.6.1	win	2023-06-27	21:45:40	0	0	6346da4e7ac002d7383bd243	2	1	DL_test	15	DL_test	21			0		ta	1	1471	6	1	antiphase_hc_iso.wav	2	6	3	noise_calib_stim_LEFT.wav	1	35	blb_dichoticlistening_ta-pa.mp3	ta	pa	1	left
6.6.1	win	2023-06-27	21:45:40	0	0	6346da4e7ac002d7383bd243	2	1	DL_test	15	DL_test	22			0		da	1	2139	6	1	antiphase_hc_iso.wav	2	6	3	noise_calib_stim_LEFT.wav	1	11	blb_dichoticlistening_da-pa.mp3	da	pa	1	left
6.6.1	win	2023-06-27	21:45:40	0	0	6346da4e7ac002d7383bd243	2	1	DL_test	15	DL_test	23			0		ka	1	1413	6	1	antiphase_hc_iso.wav	2	6	3	noise_calib_stim_LEFT.wav	1	21	blb_dichoticlistening_ka-ga.mp3	ka	ga	1	left
6.6.1	win	2023-06-27	21:45:40	0	0	6346da4e7ac002d7383bd243	2	1	DL_test	15	DL_test	24			0		ka	1	1187	6	1	antiphase_hc_iso.wav	2	6	3	noise_calib_stim_LEFT.wav	1	22	blb_dichoticlistening_ka-ka.mp3	ka	ka	0	left
6.6.1	win	2023-06-27	21:45:40	0	0	6346da4e7ac002d7383bd243	2	1	DL_test	15	DL_test	25			0		ba	1	2601	6	1	antiphase_hc_iso.wav	2	6	3	noise_calib_stim_LEFT.wav	1	4	blb_dichoticlistening_ba-ka.mp3	ba	ka	1	left
6.6.1	win	2023-06-27	21:45:40	0	0	6346da4e7ac002d7383bd243	2	1	DL_test	15	DL_test	26			0		pa	1	2030	6	1	antiphase_hc_iso.wav	2	6	3	noise_calib_stim_LEFT.wav	1	5	blb_dichoticlistening_ba-pa.mp3	ba	pa	1	right
6.6.1	win	2023-06-27	21:45:40	0	0	6346da4e7ac002d7383bd243	2	1	DL_test	15	DL_test	27			0		ta	1	1786	6	1	antiphase_hc_iso.wav	2	6	3	noise_calib_stim_LEFT.wav	1	34	blb_dichoticlistening_ta-ka.mp3	ta	ka	1	left
6.6.1	win	2023-06-27	21:45:40	0	0	6346da4e7ac002d7383bd243	2	1	DL_test	15	DL_test	28			0		pa	1	1523	6	1	antiphase_hc_iso.wav	2	6	3	noise_calib_stim_LEFT.wav	1	25	blb_dichoticlistening_pa-ba.mp3	pa	ba	1	left
6.6.1	win	2023-06-27	21:45:40	0	0	6346da4e7ac002d7383bd243	2	1	DL_test	15	DL_test	29			0		ta	1	1687	6	1	antiphase_hc_iso.wav	2	6	3	noise_calib_stim_LEFT.wav	1	32	blb_dichoticlistening_ta-da.mp3	ta	da	1	left
6.6.1	win	2023-06-27	21:45:40	0	0	6346da4e7ac002d7383bd243	2	1	DL_test	15	DL_test	30			0		ta	1	970	6	1	antiphase_hc_iso.wav	2	6	3	noise_calib_stim_LEFT.wav	1	31	blb_dichoticlistening_ta-ba.mp3	ta	ba	1	left
6.6.1	win	2023-06-27	21:45:40	0	0	6346da4e7ac002d7383bd243	2	1	DL_test	15	DL_test	31			0		ka	1	1815	6	1	antiphase_hc_iso.wav	2	6	3	noise_calib_stim_LEFT.wav	1	16	blb_dichoticlistening_ga-ka.mp3	ga	ka	1	right
6.6.1	win	2023-06-27	21:45:40	0	0	6346da4e7ac002d7383bd243	2	1	DL_test	15	DL_test	32			0		da	0	2191	6	1	antiphase_hc_iso.wav	2	6	3	noise_calib_stim_LEFT.wav	1	17	blb_dichoticlistening_ga-pa.mp3	ga	pa	1	other
6.6.1	win	2023-06-27	21:45:40	0	0	6346da4e7ac002d7383bd243	2	1	DL_test	15	DL_test	33			0		da	1	975	6	1	antiphase_hc_iso.wav	2	6	3	noise_calib_stim_LEFT.wav	1	9	blb_dichoticlistening_da-ga.mp3	da	ga	1	left
6.6.1	win	2023-06-27	21:45:40	0	0	6346da4e7ac002d7383bd243	2	1	DL_test	15	DL_test	34			0		pa	1	1489	6	1	antiphase_hc_iso.wav	2	6	3	noise_calib_stim_LEFT.wav	1	29	blb_dichoticlistening_pa-pa.mp3	pa	pa	0	left
6.6.1	win	2023-06-27	21:45:40	0	0	6346da4e7ac002d7383bd243	2	1	DL_test	15	DL_test	35			0		ka	1	1741	6	1	antiphase_hc_iso.wav	2	6	3	noise_calib_stim_LEFT.wav	1	28	blb_dichoticlistening_pa-ka.mp3	pa	ka	1	right
6.6.1	win	2023-06-27	21:45:40	0	0	6346da4e7ac002d7383bd243	2	1	DL_test	15	DL_test	36			0		ta	1	2267	6	1	antiphase_hc_iso.wav	2	6	3	noise_calib_stim_LEFT.wav	1	33	blb_dichoticlistening_ta-ga.mp3	ta	ga	1	left
6.6.1	win	2023-06-27	21:45:40	0	0	6346da4e7ac002d7383bd243	2	1	DL_test	16	DL_test	1			0		pa	1	1583	6	1	antiphase_hc_iso.wav	2	6	3	noise_calib_stim_LEFT.wav	1	30	blb_dichoticlistening_pa-ta.mp3	pa	ta	1	left
6.6.1	win	2023-06-27	21:45:40	0	0	6346da4e7ac002d7383bd243	2	1	DL_test	16	DL_test	2			0		ta	1	1286	6	1	antiphase_hc_iso.wav	2	6	3	noise_calib_stim_LEFT.wav	1	35	blb_dichoticlistening_ta-pa.mp3	ta	pa	1	left
6.6.1	win	2023-06-27	21:45:40	0	0	6346da4e7ac002d7383bd243	2	1	DL_test	16	DL_test	3			0		da	1	1566	6	1	antiphase_hc_iso.wav	2	6	3	noise_calib_stim_LEFT.wav	1	7	blb_dichoticlistening_da-ba.mp3	da	ba	1	left
6.6.1	win	2023-06-27	21:45:40	0	0	6346da4e7ac002d7383bd243	2	1	DL_test	16	DL_test	4			0		ka	1	1759	6	1	antiphase_hc_iso.wav	2	6	3	noise_calib_stim_LEFT.wav	1	28	blb_dichoticlistening_pa-ka.mp3	pa	ka	1	right
6.6.1	win	2023-06-27	21:45:40	0	0	6346da4e7ac002d7383bd243	2	1	DL_test	16	DL_test	5			0		pa	1	1249	6	1	antiphase_hc_iso.wav	2	6	3	noise_calib_stim_LEFT.wav	1	25	blb_dichoticlistening_pa-ba.mp3	pa	ba	1	left
6.6.1	win	2023-06-27	21:45:40	0	0	6346da4e7ac002d7383bd243	2	1	DL_test	16	DL_test	6			0		ka	1	1629	6	1	antiphase_hc_iso.wav	2	6	3	noise_calib_stim_LEFT.wav	1	21	blb_dichoticlistening_ka-ga.mp3	ka	ga	1	left
6.6.1	win	2023-06-27	21:45:40	0	0	6346da4e7ac002d7383bd243	2	1	DL_test	16	DL_test	7			0		da	1	2006	6	1	antiphase_hc_iso.wav	2	6	3	noise_calib_stim_LEFT.wav	1	12	blb_dichoticlistening_da-ta.mp3	da	ta	1	left
6.6.1	win	2023-06-27	21:45:40	0	0	6346da4e7ac002d7383bd243	2	1	DL_test	16	DL_test	8			0		ga	1	1587	6	1	antiphase_hc_iso.wav	2	6	3	noise_calib_stim_LEFT.wav	1	3	blb_dichoticlistening_ba-ga.mp3	ba	ga	1	right
6.6.1	win	2023-06-27	21:45:40	0	0	6346da4e7ac002d7383bd243	2	1	DL_test	16	DL_test	9			0		ka	1	1063	6	1	antiphase_hc_iso.wav	2	6	3	noise_calib_stim_LEFT.wav	1	24	blb_dichoticlistening_ka-ta.mp3	ka	ta	1	left
6.6.1	win	2023-06-27	21:45:40	0	0	6346da4e7ac002d7383bd243	2	1	DL_test	16	DL_test	10			0		da	1	1998	6	1	antiphase_hc_iso.wav	2	6	3	noise_calib_stim_LEFT.wav	1	11	blb_dichoticlistening_da-pa.mp3	da	pa	1	left
6.6.1	win	2023-06-27	21:45:40	0	0	6346da4e7ac002d7383bd243	2	1	DL_test	16	DL_test	11			0		ta	1	1849	6	1	antiphase_hc_iso.wav	2	6	3	noise_calib_stim_LEFT.wav	1	31	blb_dichoticlistening_ta-ba.mp3	ta	ba	1	left
6.6.1	win	2023-06-27	21:45:40	0	0	6346da4e7ac002d7383bd243	2	1	DL_test	16	DL_test	12			0		ka	1	1433	6	1	antiphase_hc_iso.wav	2	6	3	noise_calib_stim_LEFT.wav	1	20	blb_dichoticlistening_ka-da.mp3	ka	da	1	left
6.6.1	win	2023-06-27	21:45:40	0	0	6346da4e7ac002d7383bd243	2	1	DL_test	16	DL_test	13			0		pa	1	1372	6	1	antiphase_hc_iso.wav	2	6	3	noise_calib_stim_LEFT.wav	1	29	blb_dichoticlistening_pa-pa.mp3	pa	pa	0	left
6.6.1	win	2023-06-27	21:45:40	0	0	6346da4e7ac002d7383bd243	2	1	DL_test	16	DL_test	14			0		ta	0	1458	6	1	antiphase_hc_iso.wav	2	6	3	noise_calib_stim_LEFT.wav	1	23	blb_dichoticlistening_ka-pa.mp3	ka	pa	1	other
6.6.1	win	2023-06-27	21:45:40	0	0	6346da4e7ac002d7383bd243	2	1	DL_test	16	DL_test	15			0		ga	1	1296	6	1	antiphase_hc_iso.wav	2	6	3	noise_calib_stim_LEFT.wav	1	13	blb_dichoticlistening_ga-ba.mp3	ga	ba	1	left
6.6.1	win	2023-06-27	21:45:40	0	0	6346da4e7ac002d7383bd243	2	1	DL_test	16	DL_test	16			0		pa	1	2290	6	1	antiphase_hc_iso.wav	2	6	3	noise_calib_stim_LEFT.wav	1	26	blb_dichoticlistening_pa-da.mp3	pa	da	1	left
6.6.1	win	2023-06-27	21:45:40	0	0	6346da4e7ac002d7383bd243	2	1	DL_test	16	DL_test	17			0		ba	1	1832	6	1	antiphase_hc_iso.wav	2	6	3	noise_calib_stim_LEFT.wav	1	1	blb_dichoticlistening_ba-ba.mp3	ba	ba	0	left
6.6.1	win	2023-06-27	21:45:40	0	0	6346da4e7ac002d7383bd243	2	1	DL_test	16	DL_test	18			0		da	1	1309	6	1	antiphase_hc_iso.wav	2	6	3	noise_calib_stim_LEFT.wav	1	8	blb_dichoticlistening_da-da.mp3	da	da	0	left
6.6.1	win	2023-06-27	21:45:40	0	0	6346da4e7ac002d7383bd243	2	1	DL_test	16	DL_test	19			0		ta	1	1741	6	1	antiphase_hc_iso.wav	2	6	3	noise_calib_stim_LEFT.wav	1	32	blb_dichoticlistening_ta-da.mp3	ta	da	1	left
6.6.1	win	2023-06-27	21:45:40	0	0	6346da4e7ac002d7383bd243	2	1	DL_test	16	DL_test	20			0		ta	1	2413	6	1	antiphase_hc_iso.wav	2	6	3	noise_calib_stim_LEFT.wav	1	36	blb_dichoticlistening_ta-ta.mp3	ta	ta	0	left
6.6.1	win	2023-06-27	21:45:40	0	0	6346da4e7ac002d7383bd243	2	1	DL_test	16	DL_test	21			0		ga	1	1687	6	1	antiphase_hc_iso.wav	2	6	3	noise_calib_stim_LEFT.wav	1	14	blb_dichoticlistening_ga-da.mp3	ga	da	1	left
6.6.1	win	2023-06-27	21:45:40	0	0	6346da4e7ac002d7383bd243	2	1	DL_test	16	DL_test	22			0		ga	1	2029	6	1	antiphase_hc_iso.wav	2	6	3	noise_calib_stim_LEFT.wav	1	27	blb_dichoticlistening_pa-ga.mp3	pa	ga	1	right
6.6.1	win	2023-06-27	21:45:40	0	0	6346da4e7ac002d7383bd243	2	1	DL_test	16	DL_test	23			0		ga	1	844	6	1	antiphase_hc_iso.wav	2	6	3	noise_calib_stim_LEFT.wav	1	15	blb_dichoticlistening_ga-ga.mp3	ga	ga	0	left
6.6.1	win	2023-06-27	21:45:40	0	0	6346da4e7ac002d7383bd243	2	1	DL_test	16	DL_test	24			0		da	1	1927	6	1	antiphase_hc_iso.wav	2	6	3	noise_calib_stim_LEFT.wav	1	9	blb_dichoticlistening_da-ga.mp3	da	ga	1	left
6.6.1	win	2023-06-27	21:45:40	0	0	6346da4e7ac002d7383bd243	2	1	DL_test	16	DL_test	25			0		ka	1	1344	6	1	antiphase_hc_iso.wav	2	6	3	noise_calib_stim_LEFT.wav	1	16	blb_dichoticlistening_ga-ka.mp3	ga	ka	1	right
6.6.1	win	2023-06-27	21:45:40	0	0	6346da4e7ac002d7383bd243	2	1	DL_test	16	DL_test	26			0		ka	1	4113	6	1	antiphase_hc_iso.wav	2	6	3	noise_calib_stim_LEFT.wav	1	4	blb_dichoticlistening_ba-ka.mp3	ba	ka	1	right
6.6.1	win	2023-06-27	21:45:40	0	0	6346da4e7ac002d7383bd243	2	1	DL_test	16	DL_test	27			0		da	1	3579	6	1	antiphase_hc_iso.wav	2	6	3	noise_calib_stim_LEFT.wav	1	10	blb_dichoticlistening_da-ka.mp3	da	ka	1	left
6.6.1	win	2023-06-27	21:45:40	0	0	6346da4e7ac002d7383bd243	2	1	DL_test	16	DL_test	28			0		ka	1	1590	6	1	antiphase_hc_iso.wav	2	6	3	noise_calib_stim_LEFT.wav	1	22	blb_dichoticlistening_ka-ka.mp3	ka	ka	0	left
6.6.1	win	2023-06-27	21:45:40	0	0	6346da4e7ac002d7383bd243	2	1	DL_test	16	DL_test	29			0		da	1	2120	6	1	antiphase_hc_iso.wav	2	6	3	noise_calib_stim_LEFT.wav	1	2	blb_dichoticlistening_ba-da.mp3	ba	da	1	right
6.6.1	win	2023-06-27	21:45:40	0	0	6346da4e7ac002d7383bd243	2	1	DL_test	16	DL_test	30			0		ta	1	1991	6	1	antiphase_hc_iso.wav	2	6	3	noise_calib_stim_LEFT.wav	1	33	blb_dichoticlistening_ta-ga.mp3	ta	ga	1	left
6.6.1	win	2023-06-27	21:45:40	0	0	6346da4e7ac002d7383bd243	2	1	DL_test	16	DL_test	31			0		ka	0	1352	6	1	antiphase_hc_iso.wav	2	6	3	noise_calib_stim_LEFT.wav	1	18	blb_dichoticlistening_ga-ta.mp3	ga	ta	1	other
6.6.1	win	2023-06-27	21:45:40	0	0	6346da4e7ac002d7383bd243	2	1	DL_test	16	DL_test	32			0		ka	0	2156	6	1	antiphase_hc_iso.wav	2	6	3	noise_calib_stim_LEFT.wav	1	17	blb_dichoticlistening_ga-pa.mp3	ga	pa	1	other
6.6.1	win	2023-06-27	21:45:40	0	0	6346da4e7ac002d7383bd243	2	1	DL_test	16	DL_test	33			0		ka	1	1380	6	1	antiphase_hc_iso.wav	2	6	3	noise_calib_stim_LEFT.wav	1	19	blb_dichoticlistening_ka-ba.mp3	ka	ba	1	left
6.6.1	win	2023-06-27	21:45:40	0	0	6346da4e7ac002d7383bd243	2	1	DL_test	16	DL_test	34			0		ba	1	2289	6	1	antiphase_hc_iso.wav	2	6	3	noise_calib_stim_LEFT.wav	1	6	blb_dichoticlistening_ba-ta.mp3	ba	ta	1	left
6.6.1	win	2023-06-27	21:45:40	0	0	6346da4e7ac002d7383bd243	2	1	DL_test	16	DL_test	35			0		pa	1	2271	6	1	antiphase_hc_iso.wav	2	6	3	noise_calib_stim_LEFT.wav	1	5	blb_dichoticlistening_ba-pa.mp3	ba	pa	1	right
6.6.1	win	2023-06-27	21:45:40	0	0	6346da4e7ac002d7383bd243	2	1	DL_test	16	DL_test	36			0		ta	1	1464	6	1	antiphase_hc_iso.wav	2	6	3	noise_calib_stim_LEFT.wav	1	34	blb_dichoticlistening_ta-ka.mp3	ta	ka	1	left
6.6.1	win	2023-06-27	21:45:40	22:00:03	853207	6346da4e7ac002d7383bd243	2	1	practice_z	22	practice_z	1	stimuli_distractor_diamondtriangles.svg	stimuli_target_rectangletriangles.svg	7	yes	44	1	1336	6	1	antiphase_hc_iso.wav	2	6	3	noise_calib_stim_LEFT.wav	1	34	blb_dichoticlistening_ta-ka.mp3	ta	ka	1	left
6.6.1	win	2023-06-27	21:45:40	22:00:03	853207	6346da4e7ac002d7383bd243	2	1	practice_z	22	advance_on_keypress_ZEE	2	stimuli_distractor_diamondtriangles.svg	stimuli_target_rectangletriangles.svg	7	yes	57	0	1139	6	1	antiphase_hc_iso.wav	2	6	3	noise_calib_stim_LEFT.wav	1	34	blb_dichoticlistening_ta-ka.mp3	ta	ka	1	left
6.6.1	win	2023-06-27	21:45:40	22:00:07	858019	6346da4e7ac002d7383bd243	2	1	practice_z	22	practice_z	3	stimuli_distractor_trianglediamonds.svg	stimuli_distractor_diamondtriangles.svg	16	no	0	1	2000	6	1	antiphase_hc_iso.wav	2	6	3	noise_calib_stim_LEFT.wav	1	34	blb_dichoticlistening_ta-ka.mp3	ta	ka	1	left
6.6.1	win	2023-06-27	21:45:40	22:00:07	858019	6346da4e7ac002d7383bd243	2	1	practice_z	22	advance_on_keypress_ZEE	4	stimuli_distractor_trianglediamonds.svg	stimuli_distractor_diamondtriangles.svg	16	no	57	0	1059	6	1	antiphase_hc_iso.wav	2	6	3	noise_calib_stim_LEFT.wav	1	34	blb_dichoticlistening_ta-ka.mp3	ta	ka	1	left
6.6.1	win	2023-06-27	21:45:40	22:00:11	861693	6346da4e7ac002d7383bd243	2	1	practice_z	22	practice_z	5	stimuli_distractor_trianglediamonds.svg	stimuli_target_rectanglediamonds.svg	10	yes	44	1	958	6	1	antiphase_hc_iso.wav	2	6	3	noise_calib_stim_LEFT.wav	1	34	blb_dichoticlistening_ta-ka.mp3	ta	ka	1	left
6.6.1	win	2023-06-27	21:45:40	22:00:11	861693	6346da4e7ac002d7383bd243	2	1	practice_z	22	advance_on_keypress_ZEE	6	stimuli_distractor_trianglediamonds.svg	stimuli_target_rectanglediamonds.svg	10	yes	57	0	807	6	1	antiphase_hc_iso.wav	2	6	3	noise_calib_stim_LEFT.wav	1	34	blb_dichoticlistening_ta-ka.mp3	ta	ka	1	left
6.6.1	win	2023-06-27	21:45:40	22:00:14	865053	6346da4e7ac002d7383bd243	2	1	practice_z	22	practice_z	7	stimuli_distractor_diamondtriangles.svg	stimuli_target_trianglerectangles.svg	9	yes	44	1	884	6	1	antiphase_hc_iso.wav	2	6	3	noise_calib_stim_LEFT.wav	1	34	blb_dichoticlistening_ta-ka.mp3	ta	ka	1	left
6.6.1	win	2023-06-27	21:45:40	22:00:14	865053	6346da4e7ac002d7383bd243	2	1	practice_z	22	advance_on_keypress_ZEE	8	stimuli_distractor_diamondtriangles.svg	stimuli_target_trianglerectangles.svg	9	yes	57	0	796	6	1	antiphase_hc_iso.wav	2	6	3	noise_calib_stim_LEFT.wav	1	34	blb_dichoticlistening_ta-ka.mp3	ta	ka	1	left
6.6.1	win	2023-06-27	21:45:40	22:00:18	868271	6346da4e7ac002d7383bd243	2	1	practice_z	22	practice_z	9	stimuli_target_rectanglediamonds.svg	stimuli_distractor_trianglediamonds.svg	4	yes	44	1	771	6	1	antiphase_hc_iso.wav	2	6	3	noise_calib_stim_LEFT.wav	1	34	blb_dichoticlistening_ta-ka.mp3	ta	ka	1	left
6.6.1	win	2023-06-27	21:45:40	22:00:18	868271	6346da4e7ac002d7383bd243	2	1	practice_z	22	advance_on_keypress_ZEE	10	stimuli_target_rectanglediamonds.svg	stimuli_distractor_trianglediamonds.svg	4	yes	57	0	636	6	1	antiphase_hc_iso.wav	2	6	3	noise_calib_stim_LEFT.wav	1	34	blb_dichoticlistening_ta-ka.mp3	ta	ka	1	left
6.6.1	win	2023-06-27	21:45:40	22:00:21	871734	6346da4e7ac002d7383bd243	2	1	practice_z	22	practice_z	11	stimuli_target_squarediamonds.svg	stimuli_distractor_trianglediamonds.svg	5	yes	44	1	1149	6	1	antiphase_hc_iso.wav	2	6	3	noise_calib_stim_LEFT.wav	1	34	blb_dichoticlistening_ta-ka.mp3	ta	ka	1	left
6.6.1	win	2023-06-27	21:45:40	22:00:21	871734	6346da4e7ac002d7383bd243	2	1	practice_z	22	advance_on_keypress_ZEE	12	stimuli_target_squarediamonds.svg	stimuli_distractor_trianglediamonds.svg	5	yes	57	0	983	6	1	antiphase_hc_iso.wav	2	6	3	noise_calib_stim_LEFT.wav	1	34	blb_dichoticlistening_ta-ka.mp3	ta	ka	1	left
6.6.1	win	2023-06-27	21:45:40	22:00:24	875117	6346da4e7ac002d7383bd243	2	1	practice_z	22	practice_z	13	stimuli_target_diamondsquares.svg	stimuli_distractor_diamondtriangles.svg	3	yes	44	1	734	6	1	antiphase_hc_iso.wav	2	6	3	noise_calib_stim_LEFT.wav	1	34	blb_dichoticlistening_ta-ka.mp3	ta	ka	1	left
6.6.1	win	2023-06-27	21:45:40	22:00:24	875117	6346da4e7ac002d7383bd243	2	1	practice_z	22	advance_on_keypress_ZEE	14	stimuli_target_diamondsquares.svg	stimuli_distractor_diamondtriangles.svg	3	yes	57	0	514	6	1	antiphase_hc_iso.wav	2	6	3	noise_calib_stim_LEFT.wav	1	34	blb_dichoticlistening_ta-ka.mp3	ta	ka	1	left
6.6.1	win	2023-06-27	21:45:40	22:00:29	879283	6346da4e7ac002d7383bd243	2	1	practice_z	22	practice_z	15	stimuli_distractor_diamondtriangles.svg	stimuli_distractor_diamondtriangles.svg	13	no	0	1	2000	6	1	antiphase_hc_iso.wav	2	6	3	noise_calib_stim_LEFT.wav	1	34	blb_dichoticlistening_ta-ka.mp3	ta	ka	1	left
6.6.1	win	2023-06-27	21:45:40	22:00:29	879283	6346da4e7ac002d7383bd243	2	1	practice_z	22	advance_on_keypress_ZEE	16	stimuli_distractor_diamondtriangles.svg	stimuli_distractor_diamondtriangles.svg	13	no	57	0	589	6	1	antiphase_hc_iso.wav	2	6	3	noise_calib_stim_LEFT.wav	1	34	blb_dichoticlistening_ta-ka.mp3	ta	ka	1	left
6.6.1	win	2023-06-27	21:45:40	22:00:32	882389	6346da4e7ac002d7383bd243	2	1	practice_z	22	practice_z	17	stimuli_distractor_diamondtriangles.svg	stimuli_target_diamondrectangles.svg	8	yes	44	1	856	6	1	antiphase_hc_iso.wav	2	6	3	noise_calib_stim_LEFT.wav	1	34	blb_dichoticlistening_ta-ka.mp3	ta	ka	1	left
6.6.1	win	2023-06-27	21:45:40	22:00:32	882389	6346da4e7ac002d7383bd243	2	1	practice_z	22	advance_on_keypress_ZEE	18	stimuli_distractor_diamondtriangles.svg	stimuli_target_diamondrectangles.svg	8	yes	57	0	577	6	1	antiphase_hc_iso.wav	2	6	3	noise_calib_stim_LEFT.wav	1	34	blb_dichoticlistening_ta-ka.mp3	ta	ka	1	left
6.6.1	win	2023-06-27	21:45:40	22:00:35	885378	6346da4e7ac002d7383bd243	2	1	practice_z	22	practice_z	19	stimuli_distractor_trianglediamonds.svg	stimuli_target_squarediamonds.svg	11	yes	44	1	745	6	1	antiphase_hc_iso.wav	2	6	3	noise_calib_stim_LEFT.wav	1	34	blb_dichoticlistening_ta-ka.mp3	ta	ka	1	left
6.6.1	win	2023-06-27	21:45:40	22:00:35	885378	6346da4e7ac002d7383bd243	2	1	practice_z	22	advance_on_keypress_ZEE	20	stimuli_distractor_trianglediamonds.svg	stimuli_target_squarediamonds.svg	11	yes	57	0	376	6	1	antiphase_hc_iso.wav	2	6	3	noise_calib_stim_LEFT.wav	1	34	blb_dichoticlistening_ta-ka.mp3	ta	ka	1	left
6.6.1	win	2023-06-27	21:45:40	22:00:38	888308	6346da4e7ac002d7383bd243	2	1	practice_z	22	practice_z	21	stimuli_target_squarediamonds.svg	stimuli_distractor_diamondtriangles.svg	2	yes	44	1	892	6	1	antiphase_hc_iso.wav	2	6	3	noise_calib_stim_LEFT.wav	1	34	blb_dichoticlistening_ta-ka.mp3	ta	ka	1	left
6.6.1	win	2023-06-27	21:45:40	22:00:38	888308	6346da4e7ac002d7383bd243	2	1	practice_z	22	advance_on_keypress_ZEE	22	stimuli_target_squarediamonds.svg	stimuli_distractor_diamondtriangles.svg	2	yes	57	0	396	6	1	antiphase_hc_iso.wav	2	6	3	noise_calib_stim_LEFT.wav	1	34	blb_dichoticlistening_ta-ka.mp3	ta	ka	1	left
6.6.1	win	2023-06-27	21:45:40	22:00:42	892364	6346da4e7ac002d7383bd243	2	1	practice_z	22	practice_z	23	stimuli_distractor_diamondtriangles.svg	stimuli_distractor_trianglediamonds.svg	14	no	0	1	2000	6	1	antiphase_hc_iso.wav	2	6	3	noise_calib_stim_LEFT.wav	1	34	blb_dichoticlistening_ta-ka.mp3	ta	ka	1	left
6.6.1	win	2023-06-27	21:45:40	22:00:42	892364	6346da4e7ac002d7383bd243	2	1	practice_z	22	advance_on_keypress_ZEE	24	stimuli_distractor_diamondtriangles.svg	stimuli_distractor_trianglediamonds.svg	14	no	57	0	523	6	1	antiphase_hc_iso.wav	2	6	3	noise_calib_stim_LEFT.wav	1	34	blb_dichoticlistening_ta-ka.mp3	ta	ka	1	left
6.6.1	win	2023-06-27	21:45:40	22:00:45	895476	6346da4e7ac002d7383bd243	2	1	practice_z	22	practice_z	25	stimuli_target_rectanglediamonds.svg	stimuli_distractor_diamondtriangles.svg	1	yes	44	1	929	6	1	antiphase_hc_iso.wav	2	6	3	noise_calib_stim_LEFT.wav	1	34	blb_dichoticlistening_ta-ka.mp3	ta	ka	1	left
6.6.1	win	2023-06-27	21:45:40	22:00:45	895476	6346da4e7ac002d7383bd243	2	1	practice_z	22	advance_on_keypress_ZEE	26	stimuli_target_rectanglediamonds.svg	stimuli_distractor_diamondtriangles.svg	1	yes	57	0	382	6	1	antiphase_hc_iso.wav	2	6	3	noise_calib_stim_LEFT.wav	1	34	blb_dichoticlistening_ta-ka.mp3	ta	ka	1	left
6.6.1	win	2023-06-27	21:45:40	22:00:48	898358	6346da4e7ac002d7383bd243	2	1	practice_z	22	practice_z	27	stimuli_target_diamondsquares.svg	stimuli_distractor_trianglediamonds.svg	6	yes	44	1	845	6	1	antiphase_hc_iso.wav	2	6	3	noise_calib_stim_LEFT.wav	1	34	blb_dichoticlistening_ta-ka.mp3	ta	ka	1	left
6.6.1	win	2023-06-27	21:45:40	22:00:48	898358	6346da4e7ac002d7383bd243	2	1	practice_z	22	advance_on_keypress_ZEE	28	stimuli_target_diamondsquares.svg	stimuli_distractor_trianglediamonds.svg	6	yes	57	0	419	6	1	antiphase_hc_iso.wav	2	6	3	noise_calib_stim_LEFT.wav	1	34	blb_dichoticlistening_ta-ka.mp3	ta	ka	1	left
6.6.1	win	2023-06-27	21:45:40	22:00:52	902430	6346da4e7ac002d7383bd243	2	1	practice_z	22	practice_z	29	stimuli_distractor_trianglediamonds.svg	stimuli_distractor_trianglediamonds.svg	15	no	0	1	2000	6	1	antiphase_hc_iso.wav	2	6	3	noise_calib_stim_LEFT.wav	1	34	blb_dichoticlistening_ta-ka.mp3	ta	ka	1	left
6.6.1	win	2023-06-27	21:45:40	22:00:52	902430	6346da4e7ac002d7383bd243	2	1	practice_z	22	advance_on_keypress_ZEE	30	stimuli_distractor_trianglediamonds.svg	stimuli_distractor_trianglediamonds.svg	15	no	57	0	459	6	1	antiphase_hc_iso.wav	2	6	3	noise_calib_stim_LEFT.wav	1	34	blb_dichoticlistening_ta-ka.mp3	ta	ka	1	left
6.6.1	win	2023-06-27	21:45:40	22:00:55	905223	6346da4e7ac002d7383bd243	2	1	practice_z	22	practice_z	31	stimuli_distractor_trianglediamonds.svg	stimuli_target_diamondrectangles.svg	12	yes	44	1	677	6	1	antiphase_hc_iso.wav	2	6	3	noise_calib_stim_LEFT.wav	1	34	blb_dichoticlistening_ta-ka.mp3	ta	ka	1	left
6.6.1	win	2023-06-27	21:45:40	22:00:55	905223	6346da4e7ac002d7383bd243	2	1	practice_z	22	advance_on_keypress_ZEE	32	stimuli_distractor_trianglediamonds.svg	stimuli_target_diamondrectangles.svg	12	yes	57	0	372	6	1	antiphase_hc_iso.wav	2	6	3	noise_calib_stim_LEFT.wav	1	34	blb_dichoticlistening_ta-ka.mp3	ta	ka	1	left
6.6.1	win	2023-06-27	21:45:40	22:01:03	914032	6346da4e7ac002d7383bd243	2	1	main_z	24	main_z	1	stimuli_distractor_diamondtriangles.svg	stimuli_target_trianglerectangles.svg	29	yes	44	1	742	6	1	antiphase_hc_iso.wav	2	6	3	noise_calib_stim_LEFT.wav	1	34	blb_dichoticlistening_ta-ka.mp3	ta	ka	1	left
6.6.1	win	2023-06-27	21:45:40	22:01:03	914032	6346da4e7ac002d7383bd243	2	1	main_z	24	advance_on_keypress_ZEE	2	stimuli_distractor_diamondtriangles.svg	stimuli_target_trianglerectangles.svg	29	yes	57	0	1017	6	1	antiphase_hc_iso.wav	2	6	3	noise_calib_stim_LEFT.wav	1	34	blb_dichoticlistening_ta-ka.mp3	ta	ka	1	left
6.6.1	win	2023-06-27	21:45:40	22:01:06	916797	6346da4e7ac002d7383bd243	2	1	main_z	24	main_z	3	stimuli_distractor_trianglediamonds.svg	stimuli_distractor_trianglediamonds.svg	33	no	44	0	1089	6	1	antiphase_hc_iso.wav	2	6	3	noise_calib_stim_LEFT.wav	1	34	blb_dichoticlistening_ta-ka.mp3	ta	ka	1	left
6.6.1	win	2023-06-27	21:45:40	22:01:06	916797	6346da4e7ac002d7383bd243	2	1	main_z	24	advance_on_keypress_ZEE	4	stimuli_distractor_trianglediamonds.svg	stimuli_distractor_trianglediamonds.svg	33	no	57	0	1092	6	1	antiphase_hc_iso.wav	2	6	3	noise_calib_stim_LEFT.wav	1	34	blb_dichoticlistening_ta-ka.mp3	ta	ka	1	left
6.6.1	win	2023-06-27	21:45:40	22:01:09	919453	6346da4e7ac002d7383bd243	2	1	main_z	24	main_z	5	stimuli_target_trianglesquares.svg	stimuli_distractor_diamondtriangles.svg	22	yes	44	1	897	6	1	antiphase_hc_iso.wav	2	6	3	noise_calib_stim_LEFT.wav	1	34	blb_dichoticlistening_ta-ka.mp3	ta	ka	1	left
6.6.1	win	2023-06-27	21:45:40	22:01:09	919453	6346da4e7ac002d7383bd243	2	1	main_z	24	advance_on_keypress_ZEE	6	stimuli_target_trianglesquares.svg	stimuli_distractor_diamondtriangles.svg	22	yes	57	0	822	6	1	antiphase_hc_iso.wav	2	6	3	noise_calib_stim_LEFT.wav	1	34	blb_dichoticlistening_ta-ka.mp3	ta	ka	1	left
6.6.1	win	2023-06-27	21:45:40	22:01:11	921793	6346da4e7ac002d7383bd243	2	1	main_z	24	main_z	7	stimuli_target_diamondrectangles.svg	stimuli_distractor_diamondtriangles.svg	23	yes	44	1	870	6	1	antiphase_hc_iso.wav	2	6	3	noise_calib_stim_LEFT.wav	1	34	blb_dichoticlistening_ta-ka.mp3	ta	ka	1	left
6.6.1	win	2023-06-27	21:45:40	22:01:11	921793	6346da4e7ac002d7383bd243	2	1	main_z	24	advance_on_keypress_ZEE	8	stimuli_target_diamondrectangles.svg	stimuli_distractor_diamondtriangles.svg	23	yes	57	0	1025	6	1	antiphase_hc_iso.wav	2	6	3	noise_calib_stim_LEFT.wav	1	34	blb_dichoticlistening_ta-ka.mp3	ta	ka	1	left
6.6.1	win	2023-06-27	21:45:40	22:01:15	925472	6346da4e7ac002d7383bd243	2	1	main_z	24	main_z	9	stimuli_distractor_trianglediamonds.svg	stimuli_target_squarediamonds.svg	12	yes	0	0	2000	6	1	antiphase_hc_iso.wav	2	6	3	noise_calib_stim_LEFT.wav	1	34	blb_dichoticlistening_ta-ka.mp3	ta	ka	1	left
6.6.1	win	2023-06-27	21:45:40	22:01:15	925472	6346da4e7ac002d7383bd243	2	1	main_z	24	advance_on_keypress_ZEE	10	stimuli_distractor_trianglediamonds.svg	stimuli_target_squarediamonds.svg	12	yes	57	0	592	6	1	antiphase_hc_iso.wav	2	6	3	noise_calib_stim_LEFT.wav	1	34	blb_dichoticlistening_ta-ka.mp3	ta	ka	1	left
6.6.1	win	2023-06-27	21:45:40	22:01:17	927839	6346da4e7ac002d7383bd243	2	1	main_z	24	main_z	11	stimuli_distractor_trianglediamonds.svg	stimuli_target_rectanglediamonds.svg	10	yes	44	1	1117	6	1	antiphase_hc_iso.wav	2	6	3	noise_calib_stim_LEFT.wav	1	34	blb_dichoticlistening_ta-ka.mp3	ta	ka	1	left
6.6.1	win	2023-06-27	21:45:40	22:01:17	927839	6346da4e7ac002d7383bd243	2	1	main_z	24	advance_on_keypress_ZEE	12	stimuli_distractor_trianglediamonds.svg	stimuli_target_rectanglediamonds.svg	10	yes	57	0	710	6	1	antiphase_hc_iso.wav	2	6	3	noise_calib_stim_LEFT.wav	1	34	blb_dichoticlistening_ta-ka.mp3	ta	ka	1	left
6.6.1	win	2023-06-27	21:45:40	22:01:19	930011	6346da4e7ac002d7383bd243	2	1	main_z	24	main_z	13	stimuli_target_trianglerectangles.svg	stimuli_distractor_trianglediamonds.svg	17	yes	44	1	807	6	1	antiphase_hc_iso.wav	2	6	3	noise_calib_stim_LEFT.wav	1	34	blb_dichoticlistening_ta-ka.mp3	ta	ka	1	left
6.6.1	win	2023-06-27	21:45:40	22:01:19	930011	6346da4e7ac002d7383bd243	2	1	main_z	24	advance_on_keypress_ZEE	14	stimuli_target_trianglerectangles.svg	stimuli_distractor_trianglediamonds.svg	17	yes	57	0	680	6	1	antiphase_hc_iso.wav	2	6	3	noise_calib_stim_LEFT.wav	1	34	blb_dichoticlistening_ta-ka.mp3	ta	ka	1	left
6.6.1	win	2023-06-27	21:45:40	22:01:22	932376	6346da4e7ac002d7383bd243	2	1	main_z	24	main_z	15	stimuli_target_rectanglediamonds.svg	stimuli_distractor_trianglediamonds.svg	2	yes	44	1	1022	6	1	antiphase_hc_iso.wav	2	6	3	noise_calib_stim_LEFT.wav	1	34	blb_dichoticlistening_ta-ka.mp3	ta	ka	1	left
6.6.1	win	2023-06-27	21:45:40	22:01:22	932376	6346da4e7ac002d7383bd243	2	1	main_z	24	advance_on_keypress_ZEE	16	stimuli_target_rectanglediamonds.svg	stimuli_distractor_trianglediamonds.svg	2	yes	57	0	1069	6	1	antiphase_hc_iso.wav	2	6	3	noise_calib_stim_LEFT.wav	1	34	blb_dichoticlistening_ta-ka.mp3	ta	ka	1	left
6.6.1	win	2023-06-27	21:45:40	22:01:24	934988	6346da4e7ac002d7383bd243	2	1	main_z	24	main_z	17	stimuli_target_diamondrectangles.svg	stimuli_distractor_trianglediamonds.svg	19	yes	44	1	901	6	1	antiphase_hc_iso.wav	2	6	3	noise_calib_stim_LEFT.wav	1	34	blb_dichoticlistening_ta-ka.mp3	ta	ka	1	left
6.6.1	win	2023-06-27	21:45:40	22:01:24	934988	6346da4e7ac002d7383bd243	2	1	main_z	24	advance_on_keypress_ZEE	18	stimuli_target_diamondrectangles.svg	stimuli_distractor_trianglediamonds.svg	19	yes	57	0	718	6	1	antiphase_hc_iso.wav	2	6	3	noise_calib_stim_LEFT.wav	1	34	blb_dichoticlistening_ta-ka.mp3	ta	ka	1	left
6.6.1	win	2023-06-27	21:45:40	22:01:27	937921	6346da4e7ac002d7383bd243	2	1	main_z	24	main_z	19	stimuli_target_squaretriangles.svg	stimuli_distractor_diamondtriangles.svg	7	yes	44	1	1552	6	1	antiphase_hc_iso.wav	2	6	3	noise_calib_stim_LEFT.wav	1	34	blb_dichoticlistening_ta-ka.mp3	ta	ka	1	left
6.6.1	win	2023-06-27	21:45:40	22:01:27	937921	6346da4e7ac002d7383bd243	2	1	main_z	24	advance_on_keypress_ZEE	20	stimuli_target_squaretriangles.svg	stimuli_distractor_diamondtriangles.svg	7	yes	57	0	808	6	1	antiphase_hc_iso.wav	2	6	3	noise_calib_stim_LEFT.wav	1	34	blb_dichoticlistening_ta-ka.mp3	ta	ka	1	left
6.6.1	win	2023-06-27	21:45:40	22:01:29	940145	6346da4e7ac002d7383bd243	2	1	main_z	24	main_z	21	stimuli_target_rectangletriangles.svg	stimuli_distractor_trianglediamonds.svg	1	yes	44	1	758	6	1	antiphase_hc_iso.wav	2	6	3	noise_calib_stim_LEFT.wav	1	34	blb_dichoticlistening_ta-ka.mp3	ta	ka	1	left
6.6.1	win	2023-06-27	21:45:40	22:01:29	940145	6346da4e7ac002d7383bd243	2	1	main_z	24	advance_on_keypress_ZEE	22	stimuli_target_rectangletriangles.svg	stimuli_distractor_trianglediamonds.svg	1	yes	57	0	877	6	1	antiphase_hc_iso.wav	2	6	3	noise_calib_stim_LEFT.wav	1	34	blb_dichoticlistening_ta-ka.mp3	ta	ka	1	left
6.6.1	win	2023-06-27	21:45:40	22:01:33	943688	6346da4e7ac002d7383bd243	2	1	main_z	24	main_z	23	stimuli_distractor_trianglediamonds.svg	stimuli_distractor_diamondtriangles.svg	36	no	0	1	2000	6	1	antiphase_hc_iso.wav	2	6	3	noise_calib_stim_LEFT.wav	1	34	blb_dichoticlistening_ta-ka.mp3	ta	ka	1	left
6.6.1	win	2023-06-27	21:45:40	22:01:33	943688	6346da4e7ac002d7383bd243	2	1	main_z	24	advance_on_keypress_ZEE	24	stimuli_distractor_trianglediamonds.svg	stimuli_distractor_diamondtriangles.svg	36	no	57	0	454	6	1	antiphase_hc_iso.wav	2	6	3	noise_calib_stim_LEFT.wav	1	34	blb_dichoticlistening_ta-ka.mp3	ta	ka	1	left
6.6.1	win	2023-06-27	21:45:40	22:01:36	946785	6346da4e7ac002d7383bd243	2	1	main_z	24	main_z	25	stimuli_distractor_trianglediamonds.svg	stimuli_distractor_trianglediamonds.svg	34	no	0	1	2000	6	1	antiphase_hc_iso.wav	2	6	3	noise_calib_stim_LEFT.wav	1	34	blb_dichoticlistening_ta-ka.mp3	ta	ka	1	left
6.6.1	win	2023-06-27	21:45:40	22:01:36	946785	6346da4e7ac002d7383bd243	2	1	main_z	24	advance_on_keypress_ZEE	26	stimuli_distractor_trianglediamonds.svg	stimuli_distractor_trianglediamonds.svg	34	no	57	0	517	6	1	antiphase_hc_iso.wav	2	6	3	noise_calib_stim_LEFT.wav	1	34	blb_dichoticlistening_ta-ka.mp3	ta	ka	1	left
6.6.1	win	2023-06-27	21:45:40	22:01:38	948832	6346da4e7ac002d7383bd243	2	1	main_z	24	main_z	27	stimuli_distractor_trianglediamonds.svg	stimuli_target_squaretriangles.svg	11	yes	44	1	880	6	1	antiphase_hc_iso.wav	2	6	3	noise_calib_stim_LEFT.wav	1	34	blb_dichoticlistening_ta-ka.mp3	ta	ka	1	left
6.6.1	win	2023-06-27	21:45:40	22:01:38	948832	6346da4e7ac002d7383bd243	2	1	main_z	24	advance_on_keypress_ZEE	28	stimuli_distractor_trianglediamonds.svg	stimuli_target_squaretriangles.svg	11	yes	57	0	600	6	1	antiphase_hc_iso.wav	2	6	3	noise_calib_stim_LEFT.wav	1	34	blb_dichoticlistening_ta-ka.mp3	ta	ka	1	left
6.6.1	win	2023-06-27	21:45:40	22:01:40	950955	6346da4e7ac002d7383bd243	2	1	main_z	24	main_z	29	stimuli_target_diamondsquares.svg	stimuli_distractor_diamondtriangles.svg	24	yes	44	1	870	6	1	antiphase_hc_iso.wav	2	6	3	noise_calib_stim_LEFT.wav	1	34	blb_dichoticlistening_ta-ka.mp3	ta	ka	1	left
6.6.1	win	2023-06-27	21:45:40	22:01:40	950955	6346da4e7ac002d7383bd243	2	1	main_z	24	advance_on_keypress_ZEE	30	stimuli_target_diamondsquares.svg	stimuli_distractor_diamondtriangles.svg	24	yes	57	0	815	6	1	antiphase_hc_iso.wav	2	6	3	noise_calib_stim_LEFT.wav	1	34	blb_dichoticlistening_ta-ka.mp3	ta	ka	1	left
6.6.1	win	2023-06-27	21:45:40	22:01:43	953739	6346da4e7ac002d7383bd243	2	1	main_z	24	main_z	31	stimuli_target_squarediamonds.svg	stimuli_distractor_diamondtriangles.svg	8	yes	44	1	1321	6	1	antiphase_hc_iso.wav	2	6	3	noise_calib_stim_LEFT.wav	1	34	blb_dichoticlistening_ta-ka.mp3	ta	ka	1	left
6.6.1	win	2023-06-27	21:45:40	22:01:43	953739	6346da4e7ac002d7383bd243	2	1	main_z	24	advance_on_keypress_ZEE	32	stimuli_target_squarediamonds.svg	stimuli_distractor_diamondtriangles.svg	8	yes	57	0	669	6	1	antiphase_hc_iso.wav	2	6	3	noise_calib_stim_LEFT.wav	1	34	blb_dichoticlistening_ta-ka.mp3	ta	ka	1	left
6.6.1	win	2023-06-27	21:45:40	22:01:45	956001	6346da4e7ac002d7383bd243	2	1	main_z	24	main_z	33	stimuli_distractor_trianglediamonds.svg	stimuli_target_diamondsquares.svg	28	yes	44	1	950	6	1	antiphase_hc_iso.wav	2	6	3	noise_calib_stim_LEFT.wav	1	34	blb_dichoticlistening_ta-ka.mp3	ta	ka	1	left
6.6.1	win	2023-06-27	21:45:40	22:01:45	956001	6346da4e7ac002d7383bd243	2	1	main_z	24	advance_on_keypress_ZEE	34	stimuli_distractor_trianglediamonds.svg	stimuli_target_diamondsquares.svg	28	yes	57	0	547	6	1	antiphase_hc_iso.wav	2	6	3	noise_calib_stim_LEFT.wav	1	34	blb_dichoticlistening_ta-ka.mp3	ta	ka	1	left
6.6.1	win	2023-06-27	21:45:40	22:01:47	958023	6346da4e7ac002d7383bd243	2	1	main_z	24	main_z	35	stimuli_target_trianglesquares.svg	stimuli_distractor_trianglediamonds.svg	18	yes	44	1	823	6	1	antiphase_hc_iso.wav	2	6	3	noise_calib_stim_LEFT.wav	1	34	blb_dichoticlistening_ta-ka.mp3	ta	ka	1	left
6.6.1	win	2023-06-27	21:45:40	22:01:47	958023	6346da4e7ac002d7383bd243	2	1	main_z	24	advance_on_keypress_ZEE	36	stimuli_target_trianglesquares.svg	stimuli_distractor_trianglediamonds.svg	18	yes	57	0	646	6	1	antiphase_hc_iso.wav	2	6	3	noise_calib_stim_LEFT.wav	1	34	blb_dichoticlistening_ta-ka.mp3	ta	ka	1	left
6.6.1	win	2023-06-27	21:45:40	22:01:50	960228	6346da4e7ac002d7383bd243	2	1	main_z	24	main_z	37	stimuli_target_diamondsquares.svg	stimuli_distractor_trianglediamonds.svg	20	yes	44	1	895	6	1	antiphase_hc_iso.wav	2	6	3	noise_calib_stim_LEFT.wav	1	34	blb_dichoticlistening_ta-ka.mp3	ta	ka	1	left
6.6.1	win	2023-06-27	21:45:40	22:01:50	960228	6346da4e7ac002d7383bd243	2	1	main_z	24	advance_on_keypress_ZEE	38	stimuli_target_diamondsquares.svg	stimuli_distractor_trianglediamonds.svg	20	yes	57	0	628	6	1	antiphase_hc_iso.wav	2	6	3	noise_calib_stim_LEFT.wav	1	34	blb_dichoticlistening_ta-ka.mp3	ta	ka	1	left
6.6.1	win	2023-06-27	21:45:40	22:01:53	963516	6346da4e7ac002d7383bd243	2	1	main_z	24	main_z	39	stimuli_distractor_diamondtriangles.svg	stimuli_distractor_diamondtriangles.svg	39	no	0	1	2000	6	1	antiphase_hc_iso.wav	2	6	3	noise_calib_stim_LEFT.wav	1	34	blb_dichoticlistening_ta-ka.mp3	ta	ka	1	left
6.6.1	win	2023-06-27	21:45:40	22:01:53	963516	6346da4e7ac002d7383bd243	2	1	main_z	24	advance_on_keypress_ZEE	40	stimuli_distractor_diamondtriangles.svg	stimuli_distractor_diamondtriangles.svg	39	no	57	0	546	6	1	antiphase_hc_iso.wav	2	6	3	noise_calib_stim_LEFT.wav	1	34	blb_dichoticlistening_ta-ka.mp3	ta	ka	1	left
6.6.1	win	2023-06-27	21:45:40	22:01:55	965545	6346da4e7ac002d7383bd243	2	1	main_z	24	main_z	41	stimuli_distractor_diamondtriangles.svg	stimuli_target_diamondrectangles.svg	31	yes	44	1	829	6	1	antiphase_hc_iso.wav	2	6	3	noise_calib_stim_LEFT.wav	1	34	blb_dichoticlistening_ta-ka.mp3	ta	ka	1	left
6.6.1	win	2023-06-27	21:45:40	22:01:55	965545	6346da4e7ac002d7383bd243	2	1	main_z	24	advance_on_keypress_ZEE	42	stimuli_distractor_diamondtriangles.svg	stimuli_target_diamondrectangles.svg	31	yes	57	0	685	6	1	antiphase_hc_iso.wav	2	6	3	noise_calib_stim_LEFT.wav	1	34	blb_dichoticlistening_ta-ka.mp3	ta	ka	1	left
6.6.1	win	2023-06-27	21:45:40	22:01:57	967815	6346da4e7ac002d7383bd243	2	1	main_z	24	main_z	43	stimuli_target_squarediamonds.svg	stimuli_distractor_trianglediamonds.svg	4	yes	44	1	933	6	1	antiphase_hc_iso.wav	2	6	3	noise_calib_stim_LEFT.wav	1	34	blb_dichoticlistening_ta-ka.mp3	ta	ka	1	left
6.6.1	win	2023-06-27	21:45:40	22:01:57	967815	6346da4e7ac002d7383bd243	2	1	main_z	24	advance_on_keypress_ZEE	44	stimuli_target_squarediamonds.svg	stimuli_distractor_trianglediamonds.svg	4	yes	57	0	783	6	1	antiphase_hc_iso.wav	2	6	3	noise_calib_stim_LEFT.wav	1	34	blb_dichoticlistening_ta-ka.mp3	ta	ka	1	left
6.6.1	win	2023-06-27	21:45:40	22:02:00	970214	6346da4e7ac002d7383bd243	2	1	main_z	24	main_z	45	stimuli_distractor_diamondtriangles.svg	stimuli_distractor_trianglediamonds.svg	38	no	44	0	966	6	1	antiphase_hc_iso.wav	2	6	3	noise_calib_stim_LEFT.wav	1	34	blb_dichoticlistening_ta-ka.mp3	ta	ka	1	left
6.6.1	win	2023-06-27	21:45:40	22:02:00	970214	6346da4e7ac002d7383bd243	2	1	main_z	24	advance_on_keypress_ZEE	46	stimuli_distractor_diamondtriangles.svg	stimuli_distractor_trianglediamonds.svg	38	no	57	0	510	6	1	antiphase_hc_iso.wav	2	6	3	noise_calib_stim_LEFT.wav	1	34	blb_dichoticlistening_ta-ka.mp3	ta	ka	1	left
6.6.1	win	2023-06-27	21:45:40	22:02:03	973381	6346da4e7ac002d7383bd243	2	1	main_z	24	main_z	47	stimuli_distractor_diamondtriangles.svg	stimuli_distractor_trianglediamonds.svg	37	no	0	1	2000	6	1	antiphase_hc_iso.wav	2	6	3	noise_calib_stim_LEFT.wav	1	34	blb_dichoticlistening_ta-ka.mp3	ta	ka	1	left
6.6.1	win	2023-06-27	21:45:40	22:02:03	973381	6346da4e7ac002d7383bd243	2	1	main_z	24	advance_on_keypress_ZEE	48	stimuli_distractor_diamondtriangles.svg	stimuli_distractor_trianglediamonds.svg	37	no	57	0	581	6	1	antiphase_hc_iso.wav	2	6	3	noise_calib_stim_LEFT.wav	1	34	blb_dichoticlistening_ta-ka.mp3	ta	ka	1	left
6.6.1	win	2023-06-27	21:45:40	22:02:06	976614	6346da4e7ac002d7383bd243	2	1	main_z	24	main_z	49	stimuli_distractor_trianglediamonds.svg	stimuli_distractor_diamondtriangles.svg	35	no	0	1	2000	6	1	antiphase_hc_iso.wav	2	6	3	noise_calib_stim_LEFT.wav	1	34	blb_dichoticlistening_ta-ka.mp3	ta	ka	1	left
6.6.1	win	2023-06-27	21:45:40	22:02:06	976614	6346da4e7ac002d7383bd243	2	1	main_z	24	advance_on_keypress_ZEE	50	stimuli_distractor_trianglediamonds.svg	stimuli_distractor_diamondtriangles.svg	35	no	57	0	341	6	1	antiphase_hc_iso.wav	2	6	3	noise_calib_stim_LEFT.wav	1	34	blb_dichoticlistening_ta-ka.mp3	ta	ka	1	left
6.6.1	win	2023-06-27	21:45:40	22:02:08	978396	6346da4e7ac002d7383bd243	2	1	main_z	24	main_z	51	stimuli_distractor_diamondtriangles.svg	stimuli_target_rectangletriangles.svg	13	yes	44	1	782	6	1	antiphase_hc_iso.wav	2	6	3	noise_calib_stim_LEFT.wav	1	34	blb_dichoticlistening_ta-ka.mp3	ta	ka	1	left
6.6.1	win	2023-06-27	21:45:40	22:02:08	978396	6346da4e7ac002d7383bd243	2	1	main_z	24	advance_on_keypress_ZEE	52	stimuli_distractor_diamondtriangles.svg	stimuli_target_rectangletriangles.svg	13	yes	57	0	609	6	1	antiphase_hc_iso.wav	2	6	3	noise_calib_stim_LEFT.wav	1	34	blb_dichoticlistening_ta-ka.mp3	ta	ka	1	left
6.6.1	win	2023-06-27	21:45:40	22:02:10	980603	6346da4e7ac002d7383bd243	2	1	main_z	24	main_z	53	stimuli_distractor_diamondtriangles.svg	stimuli_target_rectanglediamonds.svg	14	yes	44	1	940	6	1	antiphase_hc_iso.wav	2	6	3	noise_calib_stim_LEFT.wav	1	34	blb_dichoticlistening_ta-ka.mp3	ta	ka	1	left
6.6.1	win	2023-06-27	21:45:40	22:02:10	980603	6346da4e7ac002d7383bd243	2	1	main_z	24	advance_on_keypress_ZEE	54	stimuli_distractor_diamondtriangles.svg	stimuli_target_rectanglediamonds.svg	14	yes	57	0	465	6	1	antiphase_hc_iso.wav	2	6	3	noise_calib_stim_LEFT.wav	1	34	blb_dichoticlistening_ta-ka.mp3	ta	ka	1	left
6.6.1	win	2023-06-27	21:45:40	22:02:12	982627	6346da4e7ac002d7383bd243	2	1	main_z	24	main_z	55	stimuli_target_squaretriangles.svg	stimuli_distractor_trianglediamonds.svg	3	yes	44	1	897	6	1	antiphase_hc_iso.wav	2	6	3	noise_calib_stim_LEFT.wav	1	34	blb_dichoticlistening_ta-ka.mp3	ta	ka	1	left
6.6.1	win	2023-06-27	21:45:40	22:02:12	982627	6346da4e7ac002d7383bd243	2	1	main_z	24	advance_on_keypress_ZEE	56	stimuli_target_squaretriangles.svg	stimuli_distractor_trianglediamonds.svg	3	yes	57	0	473	6	1	antiphase_hc_iso.wav	2	6	3	noise_calib_stim_LEFT.wav	1	34	blb_dichoticlistening_ta-ka.mp3	ta	ka	1	left
6.6.1	win	2023-06-27	21:45:40	22:02:15	985762	6346da4e7ac002d7383bd243	2	1	main_z	24	main_z	57	stimuli_distractor_diamondtriangles.svg	stimuli_target_trianglesquares.svg	30	yes	0	0	2000	6	1	antiphase_hc_iso.wav	2	6	3	noise_calib_stim_LEFT.wav	1	34	blb_dichoticlistening_ta-ka.mp3	ta	ka	1	left
6.6.1	win	2023-06-27	21:45:40	22:02:15	985762	6346da4e7ac002d7383bd243	2	1	main_z	24	advance_on_keypress_ZEE	58	stimuli_distractor_diamondtriangles.svg	stimuli_target_trianglesquares.svg	30	yes	57	0	366	6	1	antiphase_hc_iso.wav	2	6	3	noise_calib_stim_LEFT.wav	1	34	blb_dichoticlistening_ta-ka.mp3	ta	ka	1	left
6.6.1	win	2023-06-27	21:45:40	22:02:18	988779	6346da4e7ac002d7383bd243	2	1	main_z	24	main_z	59	stimuli_distractor_trianglediamonds.svg	stimuli_target_diamondrectangles.svg	27	yes	0	0	2000	6	1	antiphase_hc_iso.wav	2	6	3	noise_calib_stim_LEFT.wav	1	34	blb_dichoticlistening_ta-ka.mp3	ta	ka	1	left
6.6.1	win	2023-06-27	21:45:40	22:02:18	988779	6346da4e7ac002d7383bd243	2	1	main_z	24	advance_on_keypress_ZEE	60	stimuli_distractor_trianglediamonds.svg	stimuli_target_diamondrectangles.svg	27	yes	57	0	427	6	1	antiphase_hc_iso.wav	2	6	3	noise_calib_stim_LEFT.wav	1	34	blb_dichoticlistening_ta-ka.mp3	ta	ka	1	left
6.6.1	win	2023-06-27	21:45:40	22:02:20	990733	6346da4e7ac002d7383bd243	2	1	main_z	24	main_z	61	stimuli_distractor_trianglediamonds.svg	stimuli_target_rectangletriangles.svg	9	yes	44	1	871	6	1	antiphase_hc_iso.wav	2	6	3	noise_calib_stim_LEFT.wav	1	34	blb_dichoticlistening_ta-ka.mp3	ta	ka	1	left
6.6.1	win	2023-06-27	21:45:40	22:02:20	990733	6346da4e7ac002d7383bd243	2	1	main_z	24	advance_on_keypress_ZEE	62	stimuli_distractor_trianglediamonds.svg	stimuli_target_rectangletriangles.svg	9	yes	57	0	578	6	1	antiphase_hc_iso.wav	2	6	3	noise_calib_stim_LEFT.wav	1	34	blb_dichoticlistening_ta-ka.mp3	ta	ka	1	left
6.6.1	win	2023-06-27	21:45:40	22:02:22	992905	6346da4e7ac002d7383bd243	2	1	main_z	24	main_z	63	stimuli_target_trianglerectangles.svg	stimuli_distractor_diamondtriangles.svg	21	yes	44	1	944	6	1	antiphase_hc_iso.wav	2	6	3	noise_calib_stim_LEFT.wav	1	34	blb_dichoticlistening_ta-ka.mp3	ta	ka	1	left
6.6.1	win	2023-06-27	21:45:40	22:02:22	992905	6346da4e7ac002d7383bd243	2	1	main_z	24	advance_on_keypress_ZEE	64	stimuli_target_trianglerectangles.svg	stimuli_distractor_diamondtriangles.svg	21	yes	57	0	428	6	1	antiphase_hc_iso.wav	2	6	3	noise_calib_stim_LEFT.wav	1	34	blb_dichoticlistening_ta-ka.mp3	ta	ka	1	left
6.6.1	win	2023-06-27	21:45:40	22:02:25	995995	6346da4e7ac002d7383bd243	2	1	main_z	24	main_z	65	stimuli_distractor_diamondtriangles.svg	stimuli_distractor_diamondtriangles.svg	40	no	0	1	2000	6	1	antiphase_hc_iso.wav	2	6	3	noise_calib_stim_LEFT.wav	1	34	blb_dichoticlistening_ta-ka.mp3	ta	ka	1	left
6.6.1	win	2023-06-27	21:45:40	22:02:25	995995	6346da4e7ac002d7383bd243	2	1	main_z	24	advance_on_keypress_ZEE	66	stimuli_distractor_diamondtriangles.svg	stimuli_distractor_diamondtriangles.svg	40	no	57	0	324	6	1	antiphase_hc_iso.wav	2	6	3	noise_calib_stim_LEFT.wav	1	34	blb_dichoticlistening_ta-ka.mp3	ta	ka	1	left
6.6.1	win	2023-06-27	21:45:40	22:02:27	997861	6346da4e7ac002d7383bd243	2	1	main_z	24	main_z	67	stimuli_distractor_diamondtriangles.svg	stimuli_target_squarediamonds.svg	16	yes	44	1	884	6	1	antiphase_hc_iso.wav	2	6	3	noise_calib_stim_LEFT.wav	1	34	blb_dichoticlistening_ta-ka.mp3	ta	ka	1	left
6.6.1	win	2023-06-27	21:45:40	22:02:27	997861	6346da4e7ac002d7383bd243	2	1	main_z	24	advance_on_keypress_ZEE	68	stimuli_distractor_diamondtriangles.svg	stimuli_target_squarediamonds.svg	16	yes	57	0	540	6	1	antiphase_hc_iso.wav	2	6	3	noise_calib_stim_LEFT.wav	1	34	blb_dichoticlistening_ta-ka.mp3	ta	ka	1	left
6.6.1	win	2023-06-27	21:45:40	22:02:29	999973	6346da4e7ac002d7383bd243	2	1	main_z	24	main_z	69	stimuli_distractor_diamondtriangles.svg	stimuli_target_diamondsquares.svg	32	yes	44	1	900	6	1	antiphase_hc_iso.wav	2	6	3	noise_calib_stim_LEFT.wav	1	34	blb_dichoticlistening_ta-ka.mp3	ta	ka	1	left
6.6.1	win	2023-06-27	21:45:40	22:02:29	999973	6346da4e7ac002d7383bd243	2	1	main_z	24	advance_on_keypress_ZEE	70	stimuli_distractor_diamondtriangles.svg	stimuli_target_diamondsquares.svg	32	yes	57	0	407	6	1	antiphase_hc_iso.wav	2	6	3	noise_calib_stim_LEFT.wav	1	34	blb_dichoticlistening_ta-ka.mp3	ta	ka	1	left
6.6.1	win	2023-06-27	21:45:40	22:02:32	1002630	6346da4e7ac002d7383bd243	2	1	main_z	24	main_z	71	stimuli_distractor_diamondtriangles.svg	stimuli_target_squaretriangles.svg	15	yes	44	1	1602	6	1	antiphase_hc_iso.wav	2	6	3	noise_calib_stim_LEFT.wav	1	34	blb_dichoticlistening_ta-ka.mp3	ta	ka	1	left
6.6.1	win	2023-06-27	21:45:40	22:02:32	1002630	6346da4e7ac002d7383bd243	2	1	main_z	24	advance_on_keypress_ZEE	72	stimuli_distractor_diamondtriangles.svg	stimuli_target_squaretriangles.svg	15	yes	57	0	371	6	1	antiphase_hc_iso.wav	2	6	3	noise_calib_stim_LEFT.wav	1	34	blb_dichoticlistening_ta-ka.mp3	ta	ka	1	left
6.6.1	win	2023-06-27	21:45:40	22:02:34	1004599	6346da4e7ac002d7383bd243	2	1	main_z	24	main_z	73	stimuli_distractor_trianglediamonds.svg	stimuli_target_trianglerectangles.svg	25	yes	44	1	956	6	1	antiphase_hc_iso.wav	2	6	3	noise_calib_stim_LEFT.wav	1	34	blb_dichoticlistening_ta-ka.mp3	ta	ka	1	left
6.6.1	win	2023-06-27	21:45:40	22:02:34	1004599	6346da4e7ac002d7383bd243	2	1	main_z	24	advance_on_keypress_ZEE	74	stimuli_distractor_trianglediamonds.svg	stimuli_target_trianglerectangles.svg	25	yes	57	0	381	6	1	antiphase_hc_iso.wav	2	6	3	noise_calib_stim_LEFT.wav	1	34	blb_dichoticlistening_ta-ka.mp3	ta	ka	1	left
6.6.1	win	2023-06-27	21:45:40	22:02:36	1006522	6346da4e7ac002d7383bd243	2	1	main_z	24	main_z	75	stimuli_distractor_trianglediamonds.svg	stimuli_target_trianglesquares.svg	26	yes	44	1	880	6	1	antiphase_hc_iso.wav	2	6	3	noise_calib_stim_LEFT.wav	1	34	blb_dichoticlistening_ta-ka.mp3	ta	ka	1	left
6.6.1	win	2023-06-27	21:45:40	22:02:36	1006522	6346da4e7ac002d7383bd243	2	1	main_z	24	advance_on_keypress_ZEE	76	stimuli_distractor_trianglediamonds.svg	stimuli_target_trianglesquares.svg	26	yes	57	0	397	6	1	antiphase_hc_iso.wav	2	6	3	noise_calib_stim_LEFT.wav	1	34	blb_dichoticlistening_ta-ka.mp3	ta	ka	1	left
6.6.1	win	2023-06-27	21:45:40	22:02:38	1008743	6346da4e7ac002d7383bd243	2	1	main_z	24	main_z	77	stimuli_target_rectangletriangles.svg	stimuli_distractor_diamondtriangles.svg	5	yes	44	1	1167	6	1	antiphase_hc_iso.wav	2	6	3	noise_calib_stim_LEFT.wav	1	34	blb_dichoticlistening_ta-ka.mp3	ta	ka	1	left
6.6.1	win	2023-06-27	21:45:40	22:02:38	1008743	6346da4e7ac002d7383bd243	2	1	main_z	24	advance_on_keypress_ZEE	78	stimuli_target_rectangletriangles.svg	stimuli_distractor_diamondtriangles.svg	5	yes	57	0	334	6	1	antiphase_hc_iso.wav	2	6	3	noise_calib_stim_LEFT.wav	1	34	blb_dichoticlistening_ta-ka.mp3	ta	ka	1	left
6.6.1	win	2023-06-27	21:45:40	22:02:40	1010585	6346da4e7ac002d7383bd243	2	1	main_z	24	main_z	79	stimuli_target_rectanglediamonds.svg	stimuli_distractor_diamondtriangles.svg	6	yes	44	1	861	6	1	antiphase_hc_iso.wav	2	6	3	noise_calib_stim_LEFT.wav	1	34	blb_dichoticlistening_ta-ka.mp3	ta	ka	1	left
6.6.1	win	2023-06-27	21:45:40	22:02:40	1010585	6346da4e7ac002d7383bd243	2	1	main_z	24	advance_on_keypress_ZEE	80	stimuli_target_rectanglediamonds.svg	stimuli_distractor_diamondtriangles.svg	6	yes	57	0	359	6	1	antiphase_hc_iso.wav	2	6	3	noise_calib_stim_LEFT.wav	1	34	blb_dichoticlistening_ta-ka.mp3	ta	ka	1	left
6.6.1	win	2023-06-27	21:45:40	22:02:42	1012505	6346da4e7ac002d7383bd243	2	1	main_z	24	main_z	81	stimuli_distractor_trianglediamonds.svg	stimuli_target_diamondrectangles.svg	27	yes	44	1	897	6	1	antiphase_hc_iso.wav	2	6	3	noise_calib_stim_LEFT.wav	1	34	blb_dichoticlistening_ta-ka.mp3	ta	ka	1	left
6.6.1	win	2023-06-27	21:45:40	22:02:42	1012505	6346da4e7ac002d7383bd243	2	1	main_z	24	advance_on_keypress_ZEE	82	stimuli_distractor_trianglediamonds.svg	stimuli_target_diamondrectangles.svg	27	yes	57	0	352	6	1	antiphase_hc_iso.wav	2	6	3	noise_calib_stim_LEFT.wav	1	34	blb_dichoticlistening_ta-ka.mp3	ta	ka	1	left
6.6.1	win	2023-06-27	21:45:40	22:02:44	1014996	6346da4e7ac002d7383bd243	2	1	main_z	24	main_z	83	stimuli_distractor_diamondtriangles.svg	stimuli_distractor_trianglediamonds.svg	38	no	44	0	1489	6	1	antiphase_hc_iso.wav	2	6	3	noise_calib_stim_LEFT.wav	1	34	blb_dichoticlistening_ta-ka.mp3	ta	ka	1	left
6.6.1	win	2023-06-27	21:45:40	22:02:44	1014996	6346da4e7ac002d7383bd243	2	1	main_z	24	advance_on_keypress_ZEE	84	stimuli_distractor_diamondtriangles.svg	stimuli_distractor_trianglediamonds.svg	38	no	57	0	278	6	1	antiphase_hc_iso.wav	2	6	3	noise_calib_stim_LEFT.wav	1	34	blb_dichoticlistening_ta-ka.mp3	ta	ka	1	left
6.6.1	win	2023-06-27	21:45:40	22:02:46	1016850	6346da4e7ac002d7383bd243	2	1	main_z	24	main_z	85	stimuli_target_squaretriangles.svg	stimuli_distractor_diamondtriangles.svg	7	yes	44	1	924	6	1	antiphase_hc_iso.wav	2	6	3	noise_calib_stim_LEFT.wav	1	34	blb_dichoticlistening_ta-ka.mp3	ta	ka	1	left
6.6.1	win	2023-06-27	21:45:40	22:02:46	1016850	6346da4e7ac002d7383bd243	2	1	main_z	24	advance_on_keypress_ZEE	86	stimuli_target_squaretriangles.svg	stimuli_distractor_diamondtriangles.svg	7	yes	57	0	348	6	1	antiphase_hc_iso.wav	2	6	3	noise_calib_stim_LEFT.wav	1	34	blb_dichoticlistening_ta-ka.mp3	ta	ka	1	left
6.6.1	win	2023-06-27	21:45:40	22:02:48	1018751	6346da4e7ac002d7383bd243	2	1	main_z	24	main_z	87	stimuli_target_rectangletriangles.svg	stimuli_distractor_trianglediamonds.svg	1	yes	44	1	894	6	1	antiphase_hc_iso.wav	2	6	3	noise_calib_stim_LEFT.wav	1	34	blb_dichoticlistening_ta-ka.mp3	ta	ka	1	left
6.6.1	win	2023-06-27	21:45:40	22:02:48	1018751	6346da4e7ac002d7383bd243	2	1	main_z	24	advance_on_keypress_ZEE	88	stimuli_target_rectangletriangles.svg	stimuli_distractor_trianglediamonds.svg	1	yes	57	0	328	6	1	antiphase_hc_iso.wav	2	6	3	noise_calib_stim_LEFT.wav	1	34	blb_dichoticlistening_ta-ka.mp3	ta	ka	1	left
6.6.1	win	2023-06-27	21:45:40	22:02:50	1020703	6346da4e7ac002d7383bd243	2	1	main_z	24	main_z	89	stimuli_distractor_diamondtriangles.svg	stimuli_target_diamondrectangles.svg	31	yes	44	1	963	6	1	antiphase_hc_iso.wav	2	6	3	noise_calib_stim_LEFT.wav	1	34	blb_dichoticlistening_ta-ka.mp3	ta	ka	1	left
6.6.1	win	2023-06-27	21:45:40	22:02:50	1020703	6346da4e7ac002d7383bd243	2	1	main_z	24	advance_on_keypress_ZEE	90	stimuli_distractor_diamondtriangles.svg	stimuli_target_diamondrectangles.svg	31	yes	57	0	310	6	1	antiphase_hc_iso.wav	2	6	3	noise_calib_stim_LEFT.wav	1	34	blb_dichoticlistening_ta-ka.mp3	ta	ka	1	left
6.6.1	win	2023-06-27	21:45:40	22:02:52	1022574	6346da4e7ac002d7383bd243	2	1	main_z	24	main_z	91	stimuli_target_squarediamonds.svg	stimuli_distractor_trianglediamonds.svg	4	yes	44	1	901	6	1	antiphase_hc_iso.wav	2	6	3	noise_calib_stim_LEFT.wav	1	34	blb_dichoticlistening_ta-ka.mp3	ta	ka	1	left
6.6.1	win	2023-06-27	21:45:40	22:02:52	1022574	6346da4e7ac002d7383bd243	2	1	main_z	24	advance_on_keypress_ZEE	92	stimuli_target_squarediamonds.svg	stimuli_distractor_trianglediamonds.svg	4	yes	57	0	354	6	1	antiphase_hc_iso.wav	2	6	3	noise_calib_stim_LEFT.wav	1	34	blb_dichoticlistening_ta-ka.mp3	ta	ka	1	left
6.6.1	win	2023-06-27	21:45:40	22:02:54	1024444	6346da4e7ac002d7383bd243	2	1	main_z	24	main_z	93	stimuli_target_trianglesquares.svg	stimuli_distractor_diamondtriangles.svg	22	yes	44	1	871	6	1	antiphase_hc_iso.wav	2	6	3	noise_calib_stim_LEFT.wav	1	34	blb_dichoticlistening_ta-ka.mp3	ta	ka	1	left
6.6.1	win	2023-06-27	21:45:40	22:02:54	1024444	6346da4e7ac002d7383bd243	2	1	main_z	24	advance_on_keypress_ZEE	94	stimuli_target_trianglesquares.svg	stimuli_distractor_diamondtriangles.svg	22	yes	57	0	329	6	1	antiphase_hc_iso.wav	2	6	3	noise_calib_stim_LEFT.wav	1	34	blb_dichoticlistening_ta-ka.mp3	ta	ka	1	left
6.6.1	win	2023-06-27	21:45:40	22:02:56	1026193	6346da4e7ac002d7383bd243	2	1	main_z	24	main_z	95	stimuli_distractor_diamondtriangles.svg	stimuli_target_diamondsquares.svg	32	yes	44	1	767	6	1	antiphase_hc_iso.wav	2	6	3	noise_calib_stim_LEFT.wav	1	34	blb_dichoticlistening_ta-ka.mp3	ta	ka	1	left
6.6.1	win	2023-06-27	21:45:40	22:02:56	1026193	6346da4e7ac002d7383bd243	2	1	main_z	24	advance_on_keypress_ZEE	96	stimuli_distractor_diamondtriangles.svg	stimuli_target_diamondsquares.svg	32	yes	57	0	311	6	1	antiphase_hc_iso.wav	2	6	3	noise_calib_stim_LEFT.wav	1	34	blb_dichoticlistening_ta-ka.mp3	ta	ka	1	left
6.6.1	win	2023-06-27	21:45:40	22:02:57	1028012	6346da4e7ac002d7383bd243	2	1	main_z	24	main_z	97	stimuli_target_diamondrectangles.svg	stimuli_distractor_trianglediamonds.svg	19	yes	44	1	839	6	1	antiphase_hc_iso.wav	2	6	3	noise_calib_stim_LEFT.wav	1	34	blb_dichoticlistening_ta-ka.mp3	ta	ka	1	left
6.6.1	win	2023-06-27	21:45:40	22:02:57	1028012	6346da4e7ac002d7383bd243	2	1	main_z	24	advance_on_keypress_ZEE	98	stimuli_target_diamondrectangles.svg	stimuli_distractor_trianglediamonds.svg	19	yes	57	0	303	6	1	antiphase_hc_iso.wav	2	6	3	noise_calib_stim_LEFT.wav	1	34	blb_dichoticlistening_ta-ka.mp3	ta	ka	1	left
6.6.1	win	2023-06-27	21:45:40	22:02:59	1029847	6346da4e7ac002d7383bd243	2	1	main_z	24	main_z	99	stimuli_target_squaretriangles.svg	stimuli_distractor_trianglediamonds.svg	3	yes	44	1	857	6	1	antiphase_hc_iso.wav	2	6	3	noise_calib_stim_LEFT.wav	1	34	blb_dichoticlistening_ta-ka.mp3	ta	ka	1	left
6.6.1	win	2023-06-27	21:45:40	22:02:59	1029847	6346da4e7ac002d7383bd243	2	1	main_z	24	advance_on_keypress_ZEE	100	stimuli_target_squaretriangles.svg	stimuli_distractor_trianglediamonds.svg	3	yes	57	0	340	6	1	antiphase_hc_iso.wav	2	6	3	noise_calib_stim_LEFT.wav	1	34	blb_dichoticlistening_ta-ka.mp3	ta	ka	1	left
6.6.1	win	2023-06-27	21:45:40	22:03:01	1031674	6346da4e7ac002d7383bd243	2	1	main_z	24	main_z	101	stimuli_distractor_trianglediamonds.svg	stimuli_target_trianglesquares.svg	26	yes	44	1	819	6	1	antiphase_hc_iso.wav	2	6	3	noise_calib_stim_LEFT.wav	1	34	blb_dichoticlistening_ta-ka.mp3	ta	ka	1	left
6.6.1	win	2023-06-27	21:45:40	22:03:01	1031674	6346da4e7ac002d7383bd243	2	1	main_z	24	advance_on_keypress_ZEE	102	stimuli_distractor_trianglediamonds.svg	stimuli_target_trianglesquares.svg	26	yes	57	0	329	6	1	antiphase_hc_iso.wav	2	6	3	noise_calib_stim_LEFT.wav	1	34	blb_dichoticlistening_ta-ka.mp3	ta	ka	1	left
6.6.1	win	2023-06-27	21:45:40	22:03:04	1034655	6346da4e7ac002d7383bd243	2	1	main_z	24	main_z	103	stimuli_distractor_trianglediamonds.svg	stimuli_target_diamondsquares.svg	28	yes	0	0	2000	6	1	antiphase_hc_iso.wav	2	6	3	noise_calib_stim_LEFT.wav	1	34	blb_dichoticlistening_ta-ka.mp3	ta	ka	1	left
6.6.1	win	2023-06-27	21:45:40	22:03:04	1034655	6346da4e7ac002d7383bd243	2	1	main_z	24	advance_on_keypress_ZEE	104	stimuli_distractor_trianglediamonds.svg	stimuli_target_diamondsquares.svg	28	yes	57	0	498	6	1	antiphase_hc_iso.wav	2	6	3	noise_calib_stim_LEFT.wav	1	34	blb_dichoticlistening_ta-ka.mp3	ta	ka	1	left
6.6.1	win	2023-06-27	21:45:40	22:03:06	1036682	6346da4e7ac002d7383bd243	2	1	main_z	24	main_z	105	stimuli_target_trianglerectangles.svg	stimuli_distractor_trianglediamonds.svg	17	yes	44	1	878	6	1	antiphase_hc_iso.wav	2	6	3	noise_calib_stim_LEFT.wav	1	34	blb_dichoticlistening_ta-ka.mp3	ta	ka	1	left
6.6.1	win	2023-06-27	21:45:40	22:03:06	1036682	6346da4e7ac002d7383bd243	2	1	main_z	24	advance_on_keypress_ZEE	106	stimuli_target_trianglerectangles.svg	stimuli_distractor_trianglediamonds.svg	17	yes	57	0	350	6	1	antiphase_hc_iso.wav	2	6	3	noise_calib_stim_LEFT.wav	1	34	blb_dichoticlistening_ta-ka.mp3	ta	ka	1	left
6.6.1	win	2023-06-27	21:45:40	22:03:08	1038598	6346da4e7ac002d7383bd243	2	1	main_z	24	main_z	107	stimuli_target_diamondrectangles.svg	stimuli_distractor_diamondtriangles.svg	23	yes	44	1	910	6	1	antiphase_hc_iso.wav	2	6	3	noise_calib_stim_LEFT.wav	1	34	blb_dichoticlistening_ta-ka.mp3	ta	ka	1	left
6.6.1	win	2023-06-27	21:45:40	22:03:08	1038598	6346da4e7ac002d7383bd243	2	1	main_z	24	advance_on_keypress_ZEE	108	stimuli_target_diamondrectangles.svg	stimuli_distractor_diamondtriangles.svg	23	yes	57	0	323	6	1	antiphase_hc_iso.wav	2	6	3	noise_calib_stim_LEFT.wav	1	34	blb_dichoticlistening_ta-ka.mp3	ta	ka	1	left
6.6.1	win	2023-06-27	21:45:40	22:03:11	1041587	6346da4e7ac002d7383bd243	2	1	main_z	24	main_z	109	stimuli_distractor_diamondtriangles.svg	stimuli_target_squarediamonds.svg	16	yes	0	0	2000	6	1	antiphase_hc_iso.wav	2	6	3	noise_calib_stim_LEFT.wav	1	34	blb_dichoticlistening_ta-ka.mp3	ta	ka	1	left
6.6.1	win	2023-06-27	21:45:40	22:03:11	1041587	6346da4e7ac002d7383bd243	2	1	main_z	24	advance_on_keypress_ZEE	110	stimuli_distractor_diamondtriangles.svg	stimuli_target_squarediamonds.svg	16	yes	57	0	439	6	1	antiphase_hc_iso.wav	2	6	3	noise_calib_stim_LEFT.wav	1	34	blb_dichoticlistening_ta-ka.mp3	ta	ka	1	left
6.6.1	win	2023-06-27	21:45:40	22:03:13	1043391	6346da4e7ac002d7383bd243	2	1	main_z	24	main_z	111	stimuli_target_diamondsquares.svg	stimuli_distractor_trianglediamonds.svg	20	yes	44	1	721	6	1	antiphase_hc_iso.wav	2	6	3	noise_calib_stim_LEFT.wav	1	34	blb_dichoticlistening_ta-ka.mp3	ta	ka	1	left
6.6.1	win	2023-06-27	21:45:40	22:03:13	1043391	6346da4e7ac002d7383bd243	2	1	main_z	24	advance_on_keypress_ZEE	112	stimuli_target_diamondsquares.svg	stimuli_distractor_trianglediamonds.svg	20	yes	57	0	368	6	1	antiphase_hc_iso.wav	2	6	3	noise_calib_stim_LEFT.wav	1	34	blb_dichoticlistening_ta-ka.mp3	ta	ka	1	left
6.6.1	win	2023-06-27	21:45:40	22:03:15	1045275	6346da4e7ac002d7383bd243	2	1	main_z	24	main_z	113	stimuli_distractor_trianglediamonds.svg	stimuli_distractor_trianglediamonds.svg	33	no	44	0	872	6	1	antiphase_hc_iso.wav	2	6	3	noise_calib_stim_LEFT.wav	1	34	blb_dichoticlistening_ta-ka.mp3	ta	ka	1	left
6.6.1	win	2023-06-27	21:45:40	22:03:15	1045275	6346da4e7ac002d7383bd243	2	1	main_z	24	advance_on_keypress_ZEE	114	stimuli_distractor_trianglediamonds.svg	stimuli_distractor_trianglediamonds.svg	33	no	57	0	307	6	1	antiphase_hc_iso.wav	2	6	3	noise_calib_stim_LEFT.wav	1	34	blb_dichoticlistening_ta-ka.mp3	ta	ka	1	left
6.6.1	win	2023-06-27	21:45:40	22:03:16	1047101	6346da4e7ac002d7383bd243	2	1	main_z	24	main_z	115	stimuli_distractor_diamondtriangles.svg	stimuli_target_trianglesquares.svg	30	yes	44	1	865	6	1	antiphase_hc_iso.wav	2	6	3	noise_calib_stim_LEFT.wav	1	34	blb_dichoticlistening_ta-ka.mp3	ta	ka	1	left
6.6.1	win	2023-06-27	21:45:40	22:03:16	1047101	6346da4e7ac002d7383bd243	2	1	main_z	24	advance_on_keypress_ZEE	116	stimuli_distractor_diamondtriangles.svg	stimuli_target_trianglesquares.svg	30	yes	57	0	318	6	1	antiphase_hc_iso.wav	2	6	3	noise_calib_stim_LEFT.wav	1	34	blb_dichoticlistening_ta-ka.mp3	ta	ka	1	left
6.6.1	win	2023-06-27	21:45:40	22:03:19	1050069	6346da4e7ac002d7383bd243	2	1	main_z	24	main_z	117	stimuli_target_trianglerectangles.svg	stimuli_distractor_diamondtriangles.svg	21	yes	0	0	2000	6	1	antiphase_hc_iso.wav	2	6	3	noise_calib_stim_LEFT.wav	1	34	blb_dichoticlistening_ta-ka.mp3	ta	ka	1	left
6.6.1	win	2023-06-27	21:45:40	22:03:19	1050069	6346da4e7ac002d7383bd243	2	1	main_z	24	advance_on_keypress_ZEE	118	stimuli_target_trianglerectangles.svg	stimuli_distractor_diamondtriangles.svg	21	yes	57	0	316	6	1	antiphase_hc_iso.wav	2	6	3	noise_calib_stim_LEFT.wav	1	34	blb_dichoticlistening_ta-ka.mp3	ta	ka	1	left
6.6.1	win	2023-06-27	21:45:40	22:03:22	1053035	6346da4e7ac002d7383bd243	2	1	main_z	24	main_z	119	stimuli_distractor_diamondtriangles.svg	stimuli_distractor_diamondtriangles.svg	40	no	0	1	2000	6	1	antiphase_hc_iso.wav	2	6	3	noise_calib_stim_LEFT.wav	1	34	blb_dichoticlistening_ta-ka.mp3	ta	ka	1	left
6.6.1	win	2023-06-27	21:45:40	22:03:22	1053035	6346da4e7ac002d7383bd243	2	1	main_z	24	advance_on_keypress_ZEE	120	stimuli_distractor_diamondtriangles.svg	stimuli_distractor_diamondtriangles.svg	40	no	57	0	325	6	1	antiphase_hc_iso.wav	2	6	3	noise_calib_stim_LEFT.wav	1	34	blb_dichoticlistening_ta-ka.mp3	ta	ka	1	left
6.6.1	win	2023-06-27	21:45:40	22:03:24	1054755	6346da4e7ac002d7383bd243	2	1	main_z	24	main_z	121	stimuli_target_rectanglediamonds.svg	stimuli_distractor_diamondtriangles.svg	6	yes	44	1	737	6	1	antiphase_hc_iso.wav	2	6	3	noise_calib_stim_LEFT.wav	1	34	blb_dichoticlistening_ta-ka.mp3	ta	ka	1	left
6.6.1	win	2023-06-27	21:45:40	22:03:24	1054755	6346da4e7ac002d7383bd243	2	1	main_z	24	advance_on_keypress_ZEE	122	stimuli_target_rectanglediamonds.svg	stimuli_distractor_diamondtriangles.svg	6	yes	57	0	410	6	1	antiphase_hc_iso.wav	2	6	3	noise_calib_stim_LEFT.wav	1	34	blb_dichoticlistening_ta-ka.mp3	ta	ka	1	left
6.6.1	win	2023-06-27	21:45:40	22:03:26	1056718	6346da4e7ac002d7383bd243	2	1	main_z	24	main_z	123	stimuli_distractor_trianglediamonds.svg	stimuli_target_squarediamonds.svg	12	yes	44	1	900	6	1	antiphase_hc_iso.wav	2	6	3	noise_calib_stim_LEFT.wav	1	34	blb_dichoticlistening_ta-ka.mp3	ta	ka	1	left
6.6.1	win	2023-06-27	21:45:40	22:03:26	1056718	6346da4e7ac002d7383bd243	2	1	main_z	24	advance_on_keypress_ZEE	124	stimuli_distractor_trianglediamonds.svg	stimuli_target_squarediamonds.svg	12	yes	57	0	345	6	1	antiphase_hc_iso.wav	2	6	3	noise_calib_stim_LEFT.wav	1	34	blb_dichoticlistening_ta-ka.mp3	ta	ka	1	left
6.6.1	win	2023-06-27	21:45:40	22:03:28	1058588	6346da4e7ac002d7383bd243	2	1	main_z	24	main_z	125	stimuli_target_rectangletriangles.svg	stimuli_distractor_diamondtriangles.svg	5	yes	44	1	870	6	1	antiphase_hc_iso.wav	2	6	3	noise_calib_stim_LEFT.wav	1	34	blb_dichoticlistening_ta-ka.mp3	ta	ka	1	left
6.6.1	win	2023-06-27	21:45:40	22:03:28	1058588	6346da4e7ac002d7383bd243	2	1	main_z	24	advance_on_keypress_ZEE	126	stimuli_target_rectangletriangles.svg	stimuli_distractor_diamondtriangles.svg	5	yes	57	0	543	6	1	antiphase_hc_iso.wav	2	6	3	noise_calib_stim_LEFT.wav	1	34	blb_dichoticlistening_ta-ka.mp3	ta	ka	1	left
6.6.1	win	2023-06-27	21:45:40	22:03:31	1061785	6346da4e7ac002d7383bd243	2	1	main_z	24	main_z	127	stimuli_distractor_diamondtriangles.svg	stimuli_distractor_diamondtriangles.svg	39	no	0	1	2000	6	1	antiphase_hc_iso.wav	2	6	3	noise_calib_stim_LEFT.wav	1	34	blb_dichoticlistening_ta-ka.mp3	ta	ka	1	left
6.6.1	win	2023-06-27	21:45:40	22:03:31	1061785	6346da4e7ac002d7383bd243	2	1	main_z	24	advance_on_keypress_ZEE	128	stimuli_distractor_diamondtriangles.svg	stimuli_distractor_diamondtriangles.svg	39	no	57	0	320	6	1	antiphase_hc_iso.wav	2	6	3	noise_calib_stim_LEFT.wav	1	34	blb_dichoticlistening_ta-ka.mp3	ta	ka	1	left
6.6.1	win	2023-06-27	21:45:40	22:03:33	1063489	6346da4e7ac002d7383bd243	2	1	main_z	24	main_z	129	stimuli_target_trianglesquares.svg	stimuli_distractor_trianglediamonds.svg	18	yes	44	1	738	6	1	antiphase_hc_iso.wav	2	6	3	noise_calib_stim_LEFT.wav	1	34	blb_dichoticlistening_ta-ka.mp3	ta	ka	1	left
6.6.1	win	2023-06-27	21:45:40	22:03:33	1063489	6346da4e7ac002d7383bd243	2	1	main_z	24	advance_on_keypress_ZEE	130	stimuli_target_trianglesquares.svg	stimuli_distractor_trianglediamonds.svg	18	yes	57	0	355	6	1	antiphase_hc_iso.wav	2	6	3	noise_calib_stim_LEFT.wav	1	34	blb_dichoticlistening_ta-ka.mp3	ta	ka	1	left
6.6.1	win	2023-06-27	21:45:40	22:03:35	1065673	6346da4e7ac002d7383bd243	2	1	main_z	24	main_z	131	stimuli_distractor_diamondtriangles.svg	stimuli_distractor_trianglediamonds.svg	37	no	44	0	1191	6	1	antiphase_hc_iso.wav	2	6	3	noise_calib_stim_LEFT.wav	1	34	blb_dichoticlistening_ta-ka.mp3	ta	ka	1	left
6.6.1	win	2023-06-27	21:45:40	22:03:35	1065673	6346da4e7ac002d7383bd243	2	1	main_z	24	advance_on_keypress_ZEE	132	stimuli_distractor_diamondtriangles.svg	stimuli_distractor_trianglediamonds.svg	37	no	57	0	296	6	1	antiphase_hc_iso.wav	2	6	3	noise_calib_stim_LEFT.wav	1	34	blb_dichoticlistening_ta-ka.mp3	ta	ka	1	left
6.6.1	win	2023-06-27	21:45:40	22:03:37	1067425	6346da4e7ac002d7383bd243	2	1	main_z	24	main_z	133	stimuli_target_rectanglediamonds.svg	stimuli_distractor_trianglediamonds.svg	2	yes	44	1	810	6	1	antiphase_hc_iso.wav	2	6	3	noise_calib_stim_LEFT.wav	1	34	blb_dichoticlistening_ta-ka.mp3	ta	ka	1	left
6.6.1	win	2023-06-27	21:45:40	22:03:37	1067425	6346da4e7ac002d7383bd243	2	1	main_z	24	advance_on_keypress_ZEE	134	stimuli_target_rectanglediamonds.svg	stimuli_distractor_trianglediamonds.svg	2	yes	57	0	473	6	1	antiphase_hc_iso.wav	2	6	3	noise_calib_stim_LEFT.wav	1	34	blb_dichoticlistening_ta-ka.mp3	ta	ka	1	left
6.6.1	win	2023-06-27	21:45:40	22:03:39	1069374	6346da4e7ac002d7383bd243	2	1	main_z	24	main_z	135	stimuli_target_squarediamonds.svg	stimuli_distractor_diamondtriangles.svg	8	yes	44	1	826	6	1	antiphase_hc_iso.wav	2	6	3	noise_calib_stim_LEFT.wav	1	34	blb_dichoticlistening_ta-ka.mp3	ta	ka	1	left
6.6.1	win	2023-06-27	21:45:40	22:03:39	1069374	6346da4e7ac002d7383bd243	2	1	main_z	24	advance_on_keypress_ZEE	136	stimuli_target_squarediamonds.svg	stimuli_distractor_diamondtriangles.svg	8	yes	57	0	404	6	1	antiphase_hc_iso.wav	2	6	3	noise_calib_stim_LEFT.wav	1	34	blb_dichoticlistening_ta-ka.mp3	ta	ka	1	left
6.6.1	win	2023-06-27	21:45:40	22:03:41	1071219	6346da4e7ac002d7383bd243	2	1	main_z	24	main_z	137	stimuli_distractor_trianglediamonds.svg	stimuli_target_rectanglediamonds.svg	10	yes	44	1	787	6	1	antiphase_hc_iso.wav	2	6	3	noise_calib_stim_LEFT.wav	1	34	blb_dichoticlistening_ta-ka.mp3	ta	ka	1	left
6.6.1	win	2023-06-27	21:45:40	22:03:41	1071219	6346da4e7ac002d7383bd243	2	1	main_z	24	advance_on_keypress_ZEE	138	stimuli_distractor_trianglediamonds.svg	stimuli_target_rectanglediamonds.svg	10	yes	57	0	348	6	1	antiphase_hc_iso.wav	2	6	3	noise_calib_stim_LEFT.wav	1	34	blb_dichoticlistening_ta-ka.mp3	ta	ka	1	left
6.6.1	win	2023-06-27	21:45:40	22:03:43	1073369	6346da4e7ac002d7383bd243	2	1	main_z	24	main_z	139	stimuli_distractor_trianglediamonds.svg	stimuli_distractor_diamondtriangles.svg	36	no	44	0	1154	6	1	antiphase_hc_iso.wav	2	6	3	noise_calib_stim_LEFT.wav	1	34	blb_dichoticlistening_ta-ka.mp3	ta	ka	1	left
6.6.1	win	2023-06-27	21:45:40	22:03:43	1073369	6346da4e7ac002d7383bd243	2	1	main_z	24	advance_on_keypress_ZEE	140	stimuli_distractor_trianglediamonds.svg	stimuli_distractor_diamondtriangles.svg	36	no	57	0	273	6	1	antiphase_hc_iso.wav	2	6	3	noise_calib_stim_LEFT.wav	1	34	blb_dichoticlistening_ta-ka.mp3	ta	ka	1	left
6.6.1	win	2023-06-27	21:45:40	22:03:44	1075088	6346da4e7ac002d7383bd243	2	1	main_z	24	main_z	141	stimuli_target_diamondsquares.svg	stimuli_distractor_diamondtriangles.svg	24	yes	44	1	806	6	1	antiphase_hc_iso.wav	2	6	3	noise_calib_stim_LEFT.wav	1	34	blb_dichoticlistening_ta-ka.mp3	ta	ka	1	left
6.6.1	win	2023-06-27	21:45:40	22:03:44	1075088	6346da4e7ac002d7383bd243	2	1	main_z	24	advance_on_keypress_ZEE	142	stimuli_target_diamondsquares.svg	stimuli_distractor_diamondtriangles.svg	24	yes	57	0	308	6	1	antiphase_hc_iso.wav	2	6	3	noise_calib_stim_LEFT.wav	1	34	blb_dichoticlistening_ta-ka.mp3	ta	ka	1	left
6.6.1	win	2023-06-27	21:45:40	22:03:47	1078065	6346da4e7ac002d7383bd243	2	1	main_z	24	main_z	143	stimuli_distractor_trianglediamonds.svg	stimuli_distractor_trianglediamonds.svg	34	no	0	1	2000	6	1	antiphase_hc_iso.wav	2	6	3	noise_calib_stim_LEFT.wav	1	34	blb_dichoticlistening_ta-ka.mp3	ta	ka	1	left
6.6.1	win	2023-06-27	21:45:40	22:03:47	1078065	6346da4e7ac002d7383bd243	2	1	main_z	24	advance_on_keypress_ZEE	144	stimuli_distractor_trianglediamonds.svg	stimuli_distractor_trianglediamonds.svg	34	no	57	0	298	6	1	antiphase_hc_iso.wav	2	6	3	noise_calib_stim_LEFT.wav	1	34	blb_dichoticlistening_ta-ka.mp3	ta	ka	1	left
6.6.1	win	2023-06-27	21:45:40	22:03:49	1079767	6346da4e7ac002d7383bd243	2	1	main_z	24	main_z	145	stimuli_distractor_trianglediamonds.svg	stimuli_target_trianglerectangles.svg	25	yes	44	1	753	6	1	antiphase_hc_iso.wav	2	6	3	noise_calib_stim_LEFT.wav	1	34	blb_dichoticlistening_ta-ka.mp3	ta	ka	1	left
6.6.1	win	2023-06-27	21:45:40	22:03:49	1079767	6346da4e7ac002d7383bd243	2	1	main_z	24	advance_on_keypress_ZEE	146	stimuli_distractor_trianglediamonds.svg	stimuli_target_trianglerectangles.svg	25	yes	57	0	342	6	1	antiphase_hc_iso.wav	2	6	3	noise_calib_stim_LEFT.wav	1	34	blb_dichoticlistening_ta-ka.mp3	ta	ka	1	left
6.6.1	win	2023-06-27	21:45:40	22:03:51	1081595	6346da4e7ac002d7383bd243	2	1	main_z	24	main_z	147	stimuli_distractor_diamondtriangles.svg	stimuli_target_rectangletriangles.svg	13	yes	44	1	831	6	1	antiphase_hc_iso.wav	2	6	3	noise_calib_stim_LEFT.wav	1	34	blb_dichoticlistening_ta-ka.mp3	ta	ka	1	left
6.6.1	win	2023-06-27	21:45:40	22:03:51	1081595	6346da4e7ac002d7383bd243	2	1	main_z	24	advance_on_keypress_ZEE	148	stimuli_distractor_diamondtriangles.svg	stimuli_target_rectangletriangles.svg	13	yes	57	0	322	6	1	antiphase_hc_iso.wav	2	6	3	noise_calib_stim_LEFT.wav	1	34	blb_dichoticlistening_ta-ka.mp3	ta	ka	1	left
6.6.1	win	2023-06-27	21:45:40	22:03:53	1083412	6346da4e7ac002d7383bd243	2	1	main_z	24	main_z	149	stimuli_distractor_diamondtriangles.svg	stimuli_target_trianglerectangles.svg	29	yes	44	1	849	6	1	antiphase_hc_iso.wav	2	6	3	noise_calib_stim_LEFT.wav	1	34	blb_dichoticlistening_ta-ka.mp3	ta	ka	1	left
6.6.1	win	2023-06-27	21:45:40	22:03:53	1083412	6346da4e7ac002d7383bd243	2	1	main_z	24	advance_on_keypress_ZEE	150	stimuli_distractor_diamondtriangles.svg	stimuli_target_trianglerectangles.svg	29	yes	57	0	299	6	1	antiphase_hc_iso.wav	2	6	3	noise_calib_stim_LEFT.wav	1	34	blb_dichoticlistening_ta-ka.mp3	ta	ka	1	left
6.6.1	win	2023-06-27	21:45:40	22:03:55	1086016	6346da4e7ac002d7383bd243	2	1	main_z	24	main_z	151	stimuli_distractor_diamondtriangles.svg	stimuli_target_squaretriangles.svg	15	yes	44	1	1653	6	1	antiphase_hc_iso.wav	2	6	3	noise_calib_stim_LEFT.wav	1	34	blb_dichoticlistening_ta-ka.mp3	ta	ka	1	left
6.6.1	win	2023-06-27	21:45:40	22:03:55	1086016	6346da4e7ac002d7383bd243	2	1	main_z	24	advance_on_keypress_ZEE	152	stimuli_distractor_diamondtriangles.svg	stimuli_target_squaretriangles.svg	15	yes	57	0	289	6	1	antiphase_hc_iso.wav	2	6	3	noise_calib_stim_LEFT.wav	1	34	blb_dichoticlistening_ta-ka.mp3	ta	ka	1	left
6.6.1	win	2023-06-27	21:45:40	22:03:57	1087798	6346da4e7ac002d7383bd243	2	1	main_z	24	main_z	153	stimuli_distractor_diamondtriangles.svg	stimuli_target_rectanglediamonds.svg	14	yes	44	1	852	6	1	antiphase_hc_iso.wav	2	6	3	noise_calib_stim_LEFT.wav	1	34	blb_dichoticlistening_ta-ka.mp3	ta	ka	1	left
6.6.1	win	2023-06-27	21:45:40	22:03:57	1087798	6346da4e7ac002d7383bd243	2	1	main_z	24	advance_on_keypress_ZEE	154	stimuli_distractor_diamondtriangles.svg	stimuli_target_rectanglediamonds.svg	14	yes	57	0	339	6	1	antiphase_hc_iso.wav	2	6	3	noise_calib_stim_LEFT.wav	1	34	blb_dichoticlistening_ta-ka.mp3	ta	ka	1	left
6.6.1	win	2023-06-27	21:45:40	22:03:59	1089617	6346da4e7ac002d7383bd243	2	1	main_z	24	main_z	155	stimuli_distractor_trianglediamonds.svg	stimuli_target_rectangletriangles.svg	9	yes	44	1	821	6	1	antiphase_hc_iso.wav	2	6	3	noise_calib_stim_LEFT.wav	1	34	blb_dichoticlistening_ta-ka.mp3	ta	ka	1	left
6.6.1	win	2023-06-27	21:45:40	22:03:59	1089617	6346da4e7ac002d7383bd243	2	1	main_z	24	advance_on_keypress_ZEE	156	stimuli_distractor_trianglediamonds.svg	stimuli_target_rectangletriangles.svg	9	yes	57	0	354	6	1	antiphase_hc_iso.wav	2	6	3	noise_calib_stim_LEFT.wav	1	34	blb_dichoticlistening_ta-ka.mp3	ta	ka	1	left
6.6.1	win	2023-06-27	21:45:40	22:04:01	1091406	6346da4e7ac002d7383bd243	2	1	main_z	24	main_z	157	stimuli_distractor_trianglediamonds.svg	stimuli_target_squaretriangles.svg	11	yes	44	1	795	6	1	antiphase_hc_iso.wav	2	6	3	noise_calib_stim_LEFT.wav	1	34	blb_dichoticlistening_ta-ka.mp3	ta	ka	1	left
6.6.1	win	2023-06-27	21:45:40	22:04:01	1091406	6346da4e7ac002d7383bd243	2	1	main_z	24	advance_on_keypress_ZEE	158	stimuli_distractor_trianglediamonds.svg	stimuli_target_squaretriangles.svg	11	yes	57	0	327	6	1	antiphase_hc_iso.wav	2	6	3	noise_calib_stim_LEFT.wav	1	34	blb_dichoticlistening_ta-ka.mp3	ta	ka	1	left
6.6.1	win	2023-06-27	21:45:40	22:04:04	1094395	6346da4e7ac002d7383bd243	2	1	main_z	24	main_z	159	stimuli_distractor_trianglediamonds.svg	stimuli_distractor_diamondtriangles.svg	35	no	0	1	2000	6	1	antiphase_hc_iso.wav	2	6	3	noise_calib_stim_LEFT.wav	1	34	blb_dichoticlistening_ta-ka.mp3	ta	ka	1	left
6.6.1	win	2023-06-27	21:45:40	22:04:04	1094395	6346da4e7ac002d7383bd243	2	1	main_z	24	advance_on_keypress_ZEE	160	stimuli_distractor_trianglediamonds.svg	stimuli_distractor_diamondtriangles.svg	35	no	57	0	280	6	1	antiphase_hc_iso.wav	2	6	3	noise_calib_stim_LEFT.wav	1	34	blb_dichoticlistening_ta-ka.mp3	ta	ka	1	left
6.6.1	win	2023-06-27	21:45:40	22:04:28	1118611	6346da4e7ac002d7383bd243	2	1	practice_slash	26	practice_slash	1	stimuli_target_squarediamonds.svg	stimuli_distractor_diamondtriangles.svg	2	yes	53	1	666	6	1	antiphase_hc_iso.wav	2	6	3	noise_calib_stim_LEFT.wav	1	34	blb_dichoticlistening_ta-ka.mp3	ta	ka	1	left
6.6.1	win	2023-06-27	21:45:40	22:04:28	1118611	6346da4e7ac002d7383bd243	2	1	practice_slash	26	advance_on_keypress_SLASH	2	stimuli_target_squarediamonds.svg	stimuli_distractor_diamondtriangles.svg	2	yes	57	0	562	6	1	antiphase_hc_iso.wav	2	6	3	noise_calib_stim_LEFT.wav	1	34	blb_dichoticlistening_ta-ka.mp3	ta	ka	1	left
6.6.1	win	2023-06-27	21:45:40	22:04:31	1121549	6346da4e7ac002d7383bd243	2	1	practice_slash	26	practice_slash	3	stimuli_target_rectanglediamonds.svg	stimuli_distractor_trianglediamonds.svg	4	yes	53	1	704	6	1	antiphase_hc_iso.wav	2	6	3	noise_calib_stim_LEFT.wav	1	34	blb_dichoticlistening_ta-ka.mp3	ta	ka	1	left
6.6.1	win	2023-06-27	21:45:40	22:04:31	1121549	6346da4e7ac002d7383bd243	2	1	practice_slash	26	advance_on_keypress_SLASH	4	stimuli_target_rectanglediamonds.svg	stimuli_distractor_trianglediamonds.svg	4	yes	57	0	482	6	1	antiphase_hc_iso.wav	2	6	3	noise_calib_stim_LEFT.wav	1	34	blb_dichoticlistening_ta-ka.mp3	ta	ka	1	left
6.6.1	win	2023-06-27	21:45:40	22:04:34	1124415	6346da4e7ac002d7383bd243	2	1	practice_slash	26	practice_slash	5	stimuli_target_diamondsquares.svg	stimuli_distractor_diamondtriangles.svg	3	yes	53	1	721	6	1	antiphase_hc_iso.wav	2	6	3	noise_calib_stim_LEFT.wav	1	34	blb_dichoticlistening_ta-ka.mp3	ta	ka	1	left
6.6.1	win	2023-06-27	21:45:40	22:04:34	1124415	6346da4e7ac002d7383bd243	2	1	practice_slash	26	advance_on_keypress_SLASH	6	stimuli_target_diamondsquares.svg	stimuli_distractor_diamondtriangles.svg	3	yes	57	0	321	6	1	antiphase_hc_iso.wav	2	6	3	noise_calib_stim_LEFT.wav	1	34	blb_dichoticlistening_ta-ka.mp3	ta	ka	1	left
6.6.1	win	2023-06-27	21:45:40	22:04:37	1127229	6346da4e7ac002d7383bd243	2	1	practice_slash	26	practice_slash	7	stimuli_distractor_trianglediamonds.svg	stimuli_target_rectanglediamonds.svg	10	yes	53	1	818	6	1	antiphase_hc_iso.wav	2	6	3	noise_calib_stim_LEFT.wav	1	34	blb_dichoticlistening_ta-ka.mp3	ta	ka	1	left
6.6.1	win	2023-06-27	21:45:40	22:04:37	1127229	6346da4e7ac002d7383bd243	2	1	practice_slash	26	advance_on_keypress_SLASH	8	stimuli_distractor_trianglediamonds.svg	stimuli_target_rectanglediamonds.svg	10	yes	57	0	247	6	1	antiphase_hc_iso.wav	2	6	3	noise_calib_stim_LEFT.wav	1	34	blb_dichoticlistening_ta-ka.mp3	ta	ka	1	left
6.6.1	win	2023-06-27	21:45:40	22:04:39	1130018	6346da4e7ac002d7383bd243	2	1	practice_slash	26	practice_slash	9	stimuli_target_rectanglediamonds.svg	stimuli_distractor_diamondtriangles.svg	1	yes	53	1	874	6	1	antiphase_hc_iso.wav	2	6	3	noise_calib_stim_LEFT.wav	1	34	blb_dichoticlistening_ta-ka.mp3	ta	ka	1	left
6.6.1	win	2023-06-27	21:45:40	22:04:39	1130018	6346da4e7ac002d7383bd243	2	1	practice_slash	26	advance_on_keypress_SLASH	10	stimuli_target_rectanglediamonds.svg	stimuli_distractor_diamondtriangles.svg	1	yes	57	0	340	6	1	antiphase_hc_iso.wav	2	6	3	noise_calib_stim_LEFT.wav	1	34	blb_dichoticlistening_ta-ka.mp3	ta	ka	1	left
6.6.1	win	2023-06-27	21:45:40	22:04:42	1132851	6346da4e7ac002d7383bd243	2	1	practice_slash	26	practice_slash	11	stimuli_distractor_diamondtriangles.svg	stimuli_distractor_trianglediamonds.svg	14	no	53	0	824	6	1	antiphase_hc_iso.wav	2	6	3	noise_calib_stim_LEFT.wav	1	34	blb_dichoticlistening_ta-ka.mp3	ta	ka	1	left
6.6.1	win	2023-06-27	21:45:40	22:04:42	1132851	6346da4e7ac002d7383bd243	2	1	practice_slash	26	advance_on_keypress_SLASH	12	stimuli_distractor_diamondtriangles.svg	stimuli_distractor_trianglediamonds.svg	14	no	57	0	453	6	1	antiphase_hc_iso.wav	2	6	3	noise_calib_stim_LEFT.wav	1	34	blb_dichoticlistening_ta-ka.mp3	ta	ka	1	left
6.6.1	win	2023-06-27	21:45:40	22:04:45	1135782	6346da4e7ac002d7383bd243	2	1	practice_slash	26	practice_slash	13	stimuli_distractor_trianglediamonds.svg	stimuli_target_diamondrectangles.svg	12	yes	53	1	806	6	1	antiphase_hc_iso.wav	2	6	3	noise_calib_stim_LEFT.wav	1	34	blb_dichoticlistening_ta-ka.mp3	ta	ka	1	left
6.6.1	win	2023-06-27	21:45:40	22:04:45	1135782	6346da4e7ac002d7383bd243	2	1	practice_slash	26	advance_on_keypress_SLASH	14	stimuli_distractor_trianglediamonds.svg	stimuli_target_diamondrectangles.svg	12	yes	57	0	262	6	1	antiphase_hc_iso.wav	2	6	3	noise_calib_stim_LEFT.wav	1	34	blb_dichoticlistening_ta-ka.mp3	ta	ka	1	left
6.6.1	win	2023-06-27	21:45:40	22:04:48	1138452	6346da4e7ac002d7383bd243	2	1	practice_slash	26	practice_slash	15	stimuli_distractor_diamondtriangles.svg	stimuli_target_diamondrectangles.svg	8	yes	53	1	743	6	1	antiphase_hc_iso.wav	2	6	3	noise_calib_stim_LEFT.wav	1	34	blb_dichoticlistening_ta-ka.mp3	ta	ka	1	left
6.6.1	win	2023-06-27	21:45:40	22:04:48	1138452	6346da4e7ac002d7383bd243	2	1	practice_slash	26	advance_on_keypress_SLASH	16	stimuli_distractor_diamondtriangles.svg	stimuli_target_diamondrectangles.svg	8	yes	57	0	302	6	1	antiphase_hc_iso.wav	2	6	3	noise_calib_stim_LEFT.wav	1	34	blb_dichoticlistening_ta-ka.mp3	ta	ka	1	left
6.6.1	win	2023-06-27	21:45:40	22:04:52	1142408	6346da4e7ac002d7383bd243	2	1	practice_slash	26	practice_slash	17	stimuli_distractor_diamondtriangles.svg	stimuli_target_trianglerectangles.svg	9	yes	0	0	2000	6	1	antiphase_hc_iso.wav	2	6	3	noise_calib_stim_LEFT.wav	1	34	blb_dichoticlistening_ta-ka.mp3	ta	ka	1	left
6.6.1	win	2023-06-27	21:45:40	22:04:52	1142408	6346da4e7ac002d7383bd243	2	1	practice_slash	26	advance_on_keypress_SLASH	18	stimuli_distractor_diamondtriangles.svg	stimuli_target_trianglerectangles.svg	9	yes	57	0	306	6	1	antiphase_hc_iso.wav	2	6	3	noise_calib_stim_LEFT.wav	1	34	blb_dichoticlistening_ta-ka.mp3	ta	ka	1	left
6.6.1	win	2023-06-27	21:45:40	22:04:55	1145240	6346da4e7ac002d7383bd243	2	1	practice_slash	26	practice_slash	19	stimuli_target_diamondsquares.svg	stimuli_distractor_trianglediamonds.svg	6	yes	53	1	866	6	1	antiphase_hc_iso.wav	2	6	3	noise_calib_stim_LEFT.wav	1	34	blb_dichoticlistening_ta-ka.mp3	ta	ka	1	left
