build	computer.platform	date	time	timestamp	time_elapsed_ms	subject	group	session	blockcode	blocknum	trialcode	trialnum	stimulus_left	stimulus_right	stim_index	target_present	response	correct	latency	headphonecheck_countTestTrials	headphonecheck_index	headphonecheck_testSound	headphonecheck_correctResponse	stereocheck_countTestTrials	stereocheck_index	stereocheck_testSound	stereocheck_correctResponse	DL_index	DL_soundfile	DL_leftSound	DL_rightSound	DL_dualSound	DL_choice
6.6.1	win	2023-06-02	00:29:13	00:31:50	152961	5f579cc797c3ee2607f6e344	3	1	practice_slash	5	practice_slash	1	stimuli_distractor_diamondtriangles.svg	stimuli_distractor_diamondtriangles.svg	13	no	0	1	2000	0	0			0	0			1				0	
6.6.1	win	2023-06-02	00:29:13	00:31:50	152961	5f579cc797c3ee2607f6e344	3	1	practice_slash	5	advance_on_keypress_SLASH	2	stimuli_distractor_diamondtriangles.svg	stimuli_distractor_diamondtriangles.svg	13	no	57	0	1463	0	0			0	0			1				0	
6.6.1	win	2023-06-02	00:29:13	00:31:55	158072	5f579cc797c3ee2607f6e344	3	1	practice_slash	5	practice_slash	3	stimuli_distractor_trianglediamonds.svg	stimuli_distractor_trianglediamonds.svg	15	no	0	1	2000	0	0			0	0			1				0	
6.6.1	win	2023-06-02	00:29:13	00:31:55	158072	5f579cc797c3ee2607f6e344	3	1	practice_slash	5	advance_on_keypress_SLASH	4	stimuli_distractor_trianglediamonds.svg	stimuli_distractor_trianglediamonds.svg	15	no	57	0	3312	0	0			0	0			1				0	
6.6.1	win	2023-06-02	00:29:13	00:32:01	163547	5f579cc797c3ee2607f6e344	3	1	practice_slash	5	practice_slash	5	stimuli_distractor_trianglediamonds.svg	stimuli_target_squarediamonds.svg	11	yes	53	1	512	0	0			0	0			1				0	
6.6.1	win	2023-06-02	00:29:13	00:32:01	163547	5f579cc797c3ee2607f6e344	3	1	practice_slash	5	advance_on_keypress_SLASH	6	stimuli_distractor_trianglediamonds.svg	stimuli_target_squarediamonds.svg	11	yes	57	0	1021	0	0			0	0			1				0	
6.6.1	win	2023-06-02	00:29:13	00:32:04	166880	5f579cc797c3ee2607f6e344	3	1	practice_slash	5	practice_slash	7	stimuli_distractor_trianglediamonds.svg	stimuli_target_rectanglediamonds.svg	10	yes	53	1	668	0	0			0	0			1				0	
6.6.1	win	2023-06-02	00:29:13	00:32:04	166880	5f579cc797c3ee2607f6e344	3	1	practice_slash	5	advance_on_keypress_SLASH	8	stimuli_distractor_trianglediamonds.svg	stimuli_target_rectanglediamonds.svg	10	yes	57	0	992	0	0			0	0			1				0	
6.6.1	win	2023-06-02	00:29:13	00:32:09	171509	5f579cc797c3ee2607f6e344	3	1	practice_slash	5	practice_slash	9	stimuli_distractor_diamondtriangles.svg	stimuli_distractor_trianglediamonds.svg	14	no	0	1	2000	0	0			0	0			1				0	
6.6.1	win	2023-06-02	00:29:13	00:32:09	171509	5f579cc797c3ee2607f6e344	3	1	practice_slash	5	advance_on_keypress_SLASH	10	stimuli_distractor_diamondtriangles.svg	stimuli_distractor_trianglediamonds.svg	14	no	57	0	616	0	0			0	0			1				0	
6.6.1	win	2023-06-02	00:29:13	00:32:12	174247	5f579cc797c3ee2607f6e344	3	1	practice_slash	5	practice_slash	11	stimuli_target_squarediamonds.svg	stimuli_distractor_trianglediamonds.svg	5	yes	53	1	475	0	0			0	0			1				0	
6.6.1	win	2023-06-02	00:29:13	00:32:12	174247	5f579cc797c3ee2607f6e344	3	1	practice_slash	5	advance_on_keypress_SLASH	12	stimuli_target_squarediamonds.svg	stimuli_distractor_trianglediamonds.svg	5	yes	57	0	634	0	0			0	0			1				0	
6.6.1	win	2023-06-02	00:29:13	00:32:16	178519	5f579cc797c3ee2607f6e344	3	1	practice_slash	5	practice_slash	13	stimuli_distractor_trianglediamonds.svg	stimuli_distractor_diamondtriangles.svg	16	no	0	1	2000	0	0			0	0			1				0	
6.6.1	win	2023-06-02	00:29:13	00:32:16	178519	5f579cc797c3ee2607f6e344	3	1	practice_slash	5	advance_on_keypress_SLASH	14	stimuli_distractor_trianglediamonds.svg	stimuli_distractor_diamondtriangles.svg	16	no	57	0	1043	0	0			0	0			1				0	
6.6.1	win	2023-06-02	00:29:13	00:32:19	181737	5f579cc797c3ee2607f6e344	3	1	practice_slash	5	practice_slash	15	stimuli_target_rectanglediamonds.svg	stimuli_distractor_trianglediamonds.svg	4	yes	53	1	539	0	0			0	0			1				0	
6.6.1	win	2023-06-02	00:29:13	00:32:19	181737	5f579cc797c3ee2607f6e344	3	1	practice_slash	5	advance_on_keypress_SLASH	16	stimuli_target_rectanglediamonds.svg	stimuli_distractor_trianglediamonds.svg	4	yes	57	0	809	0	0			0	0			1				0	
6.6.1	win	2023-06-02	00:29:13	00:32:22	184686	5f579cc797c3ee2607f6e344	3	1	practice_slash	5	practice_slash	17	stimuli_target_rectanglediamonds.svg	stimuli_distractor_diamondtriangles.svg	1	yes	53	1	491	0	0			0	0			1				0	
6.6.1	win	2023-06-02	00:29:13	00:32:22	184686	5f579cc797c3ee2607f6e344	3	1	practice_slash	5	advance_on_keypress_SLASH	18	stimuli_target_rectanglediamonds.svg	stimuli_distractor_diamondtriangles.svg	1	yes	57	0	717	0	0			0	0			1				0	
6.6.1	win	2023-06-02	00:29:13	00:32:26	189042	5f579cc797c3ee2607f6e344	3	1	practice_slash	5	practice_slash	19	stimuli_target_diamondsquares.svg	stimuli_distractor_trianglediamonds.svg	6	yes	0	0	2000	0	0			0	0			1				0	
6.6.1	win	2023-06-02	00:29:13	00:32:26	189042	5f579cc797c3ee2607f6e344	3	1	practice_slash	5	advance_on_keypress_SLASH	20	stimuli_target_diamondsquares.svg	stimuli_distractor_trianglediamonds.svg	6	yes	57	0	75	0	0			0	0			1				0	
6.6.1	win	2023-06-02	00:29:13	00:32:29	191232	5f579cc797c3ee2607f6e344	3	1	practice_slash	5	practice_slash	21	stimuli_target_squarediamonds.svg	stimuli_distractor_diamondtriangles.svg	2	yes	53	1	477	0	0			0	0			1				0	
6.6.1	win	2023-06-02	00:29:13	00:32:29	191232	5f579cc797c3ee2607f6e344	3	1	practice_slash	5	advance_on_keypress_SLASH	22	stimuli_target_squarediamonds.svg	stimuli_distractor_diamondtriangles.svg	2	yes	57	0	624	0	0			0	0			1				0	
6.6.1	win	2023-06-02	00:29:13	00:32:32	194231	5f579cc797c3ee2607f6e344	3	1	practice_slash	5	practice_slash	23	stimuli_target_diamondsquares.svg	stimuli_distractor_diamondtriangles.svg	3	yes	53	1	729	0	0			0	0			1				0	
6.6.1	win	2023-06-02	00:29:13	00:32:32	194231	5f579cc797c3ee2607f6e344	3	1	practice_slash	5	advance_on_keypress_SLASH	24	stimuli_target_diamondsquares.svg	stimuli_distractor_diamondtriangles.svg	3	yes	57	0	555	0	0			0	0			1				0	
6.6.1	win	2023-06-02	00:29:13	00:32:34	197067	5f579cc797c3ee2607f6e344	3	1	practice_slash	5	practice_slash	25	stimuli_distractor_diamondtriangles.svg	stimuli_target_diamondrectangles.svg	8	yes	53	1	634	0	0			0	0			1				0	
6.6.1	win	2023-06-02	00:29:13	00:32:34	197067	5f579cc797c3ee2607f6e344	3	1	practice_slash	5	advance_on_keypress_SLASH	26	stimuli_distractor_diamondtriangles.svg	stimuli_target_diamondrectangles.svg	8	yes	57	0	327	0	0			0	0			1				0	
6.6.1	win	2023-06-02	00:29:13	00:32:37	199613	5f579cc797c3ee2607f6e344	3	1	practice_slash	5	practice_slash	27	stimuli_distractor_diamondtriangles.svg	stimuli_target_rectangletriangles.svg	7	yes	53	1	566	0	0			0	0			1				0	
6.6.1	win	2023-06-02	00:29:13	00:32:37	199613	5f579cc797c3ee2607f6e344	3	1	practice_slash	5	advance_on_keypress_SLASH	28	stimuli_distractor_diamondtriangles.svg	stimuli_target_rectangletriangles.svg	7	yes	57	0	545	0	0			0	0			1				0	
6.6.1	win	2023-06-02	00:29:13	00:32:41	203811	5f579cc797c3ee2607f6e344	3	1	practice_slash	5	practice_slash	29	stimuli_distractor_trianglediamonds.svg	stimuli_target_diamondrectangles.svg	12	yes	0	0	2000	0	0			0	0			1				0	
6.6.1	win	2023-06-02	00:29:13	00:32:41	203811	5f579cc797c3ee2607f6e344	3	1	practice_slash	5	advance_on_keypress_SLASH	30	stimuli_distractor_trianglediamonds.svg	stimuli_target_diamondrectangles.svg	12	yes	57	0	540	0	0			0	0			1				0	
6.6.1	win	2023-06-02	00:29:13	00:32:44	206737	5f579cc797c3ee2607f6e344	3	1	practice_slash	5	practice_slash	31	stimuli_distractor_diamondtriangles.svg	stimuli_target_trianglerectangles.svg	9	yes	53	1	747	0	0			0	0			1				0	
6.6.1	win	2023-06-02	00:29:13	00:32:44	206737	5f579cc797c3ee2607f6e344	3	1	practice_slash	5	advance_on_keypress_SLASH	32	stimuli_distractor_diamondtriangles.svg	stimuli_target_trianglerectangles.svg	9	yes	57	0	119	0	0			0	0			1				0	
6.6.1	win	2023-06-02	00:29:13	00:32:58	220309	5f579cc797c3ee2607f6e344	3	1	main_slash	7	main_slash	1	stimuli_distractor_diamondtriangles.svg	stimuli_distractor_trianglediamonds.svg	37	no	0	1	2000	0	0			0	0			1				0	
6.6.1	win	2023-06-02	00:29:13	00:32:58	220309	5f579cc797c3ee2607f6e344	3	1	main_slash	7	advance_on_keypress_SLASH	2	stimuli_distractor_diamondtriangles.svg	stimuli_distractor_trianglediamonds.svg	37	no	57	0	615	0	0			0	0			1				0	
6.6.1	win	2023-06-02	00:29:13	00:33:00	222170	5f579cc797c3ee2607f6e344	3	1	main_slash	7	main_slash	3	stimuli_distractor_trianglediamonds.svg	stimuli_target_trianglerectangles.svg	25	yes	53	1	597	0	0			0	0			1				0	
6.6.1	win	2023-06-02	00:29:13	00:33:00	222170	5f579cc797c3ee2607f6e344	3	1	main_slash	7	advance_on_keypress_SLASH	4	stimuli_distractor_trianglediamonds.svg	stimuli_target_trianglerectangles.svg	25	yes	57	0	1627	0	0			0	0			1				0	
6.6.1	win	2023-06-02	00:29:13	00:33:02	224885	5f579cc797c3ee2607f6e344	3	1	main_slash	7	main_slash	5	stimuli_distractor_trianglediamonds.svg	stimuli_target_squarediamonds.svg	12	yes	53	1	449	0	0			0	0			1				0	
6.6.1	win	2023-06-02	00:29:13	00:33:02	224885	5f579cc797c3ee2607f6e344	3	1	main_slash	7	advance_on_keypress_SLASH	6	stimuli_distractor_trianglediamonds.svg	stimuli_target_squarediamonds.svg	12	yes	57	0	641	0	0			0	0			1				0	
6.6.1	win	2023-06-02	00:29:13	00:33:06	228168	5f579cc797c3ee2607f6e344	3	1	main_slash	7	main_slash	7	stimuli_distractor_trianglediamonds.svg	stimuli_distractor_trianglediamonds.svg	34	no	0	1	2000	0	0			0	0			1				0	
6.6.1	win	2023-06-02	00:29:13	00:33:06	228168	5f579cc797c3ee2607f6e344	3	1	main_slash	7	advance_on_keypress_SLASH	8	stimuli_distractor_trianglediamonds.svg	stimuli_distractor_trianglediamonds.svg	34	no	57	0	523	0	0			0	0			1				0	
6.6.1	win	2023-06-02	00:29:13	00:33:07	229753	5f579cc797c3ee2607f6e344	3	1	main_slash	7	main_slash	9	stimuli_target_squarediamonds.svg	stimuli_distractor_diamondtriangles.svg	8	yes	53	1	421	0	0			0	0			1				0	
6.6.1	win	2023-06-02	00:29:13	00:33:07	229753	5f579cc797c3ee2607f6e344	3	1	main_slash	7	advance_on_keypress_SLASH	10	stimuli_target_squarediamonds.svg	stimuli_distractor_diamondtriangles.svg	8	yes	57	0	548	0	0			0	0			1				0	
6.6.1	win	2023-06-02	00:29:13	00:33:09	231495	5f579cc797c3ee2607f6e344	3	1	main_slash	7	main_slash	11	stimuli_target_trianglesquares.svg	stimuli_distractor_diamondtriangles.svg	22	yes	53	1	547	0	0			0	0			1				0	
6.6.1	win	2023-06-02	00:29:13	00:33:09	231495	5f579cc797c3ee2607f6e344	3	1	main_slash	7	advance_on_keypress_SLASH	12	stimuli_target_trianglesquares.svg	stimuli_distractor_diamondtriangles.svg	22	yes	57	0	454	0	0			0	0			1				0	
6.6.1	win	2023-06-02	00:29:13	00:33:10	233125	5f579cc797c3ee2607f6e344	3	1	main_slash	7	main_slash	13	stimuli_distractor_diamondtriangles.svg	stimuli_target_rectangletriangles.svg	13	yes	53	1	529	0	0			0	0			1				0	
6.6.1	win	2023-06-02	00:29:13	00:33:10	233125	5f579cc797c3ee2607f6e344	3	1	main_slash	7	advance_on_keypress_SLASH	14	stimuli_distractor_diamondtriangles.svg	stimuli_target_rectangletriangles.svg	13	yes	57	0	398	0	0			0	0			1				0	
6.6.1	win	2023-06-02	00:29:13	00:33:12	234559	5f579cc797c3ee2607f6e344	3	1	main_slash	7	main_slash	15	stimuli_distractor_diamondtriangles.svg	stimuli_target_squaretriangles.svg	15	yes	53	1	372	0	0			0	0			1				0	
6.6.1	win	2023-06-02	00:29:13	00:33:12	234559	5f579cc797c3ee2607f6e344	3	1	main_slash	7	advance_on_keypress_SLASH	16	stimuli_distractor_diamondtriangles.svg	stimuli_target_squaretriangles.svg	15	yes	57	0	350	0	0			0	0			1				0	
6.6.1	win	2023-06-02	00:29:13	00:33:13	235981	5f579cc797c3ee2607f6e344	3	1	main_slash	7	main_slash	17	stimuli_target_rectanglediamonds.svg	stimuli_distractor_trianglediamonds.svg	2	yes	53	1	423	0	0			0	0			1				0	
6.6.1	win	2023-06-02	00:29:13	00:33:13	235981	5f579cc797c3ee2607f6e344	3	1	main_slash	7	advance_on_keypress_SLASH	18	stimuli_target_rectanglediamonds.svg	stimuli_distractor_trianglediamonds.svg	2	yes	57	0	392	0	0			0	0			1				0	
6.6.1	win	2023-06-02	00:29:13	00:33:16	239008	5f579cc797c3ee2607f6e344	3	1	main_slash	7	main_slash	19	stimuli_target_trianglerectangles.svg	stimuli_distractor_diamondtriangles.svg	21	yes	0	0	2000	0	0			0	0			1				0	
6.6.1	win	2023-06-02	00:29:13	00:33:16	239008	5f579cc797c3ee2607f6e344	3	1	main_slash	7	advance_on_keypress_SLASH	20	stimuli_target_trianglerectangles.svg	stimuli_distractor_diamondtriangles.svg	21	yes	57	0	323	0	0			0	0			1				0	
6.6.1	win	2023-06-02	00:29:13	00:33:18	240463	5f579cc797c3ee2607f6e344	3	1	main_slash	7	main_slash	21	stimuli_distractor_trianglediamonds.svg	stimuli_target_diamondsquares.svg	28	yes	53	1	491	0	0			0	0			1				0	
6.6.1	win	2023-06-02	00:29:13	00:33:18	240463	5f579cc797c3ee2607f6e344	3	1	main_slash	7	advance_on_keypress_SLASH	22	stimuli_distractor_trianglediamonds.svg	stimuli_target_diamondsquares.svg	28	yes	57	0	598	0	0			0	0			1				0	
6.6.1	win	2023-06-02	00:29:13	00:33:20	242220	5f579cc797c3ee2607f6e344	3	1	main_slash	7	main_slash	23	stimuli_distractor_trianglediamonds.svg	stimuli_target_rectanglediamonds.svg	10	yes	53	1	515	0	0			0	0			1				0	
6.6.1	win	2023-06-02	00:29:13	00:33:20	242220	5f579cc797c3ee2607f6e344	3	1	main_slash	7	advance_on_keypress_SLASH	24	stimuli_distractor_trianglediamonds.svg	stimuli_target_rectanglediamonds.svg	10	yes	57	0	387	0	0			0	0			1				0	
6.6.1	win	2023-06-02	00:29:13	00:33:21	244032	5f579cc797c3ee2607f6e344	3	1	main_slash	7	main_slash	25	stimuli_target_diamondsquares.svg	stimuli_distractor_diamondtriangles.svg	24	yes	53	1	780	0	0			0	0			1				0	
6.6.1	win	2023-06-02	00:29:13	00:33:21	244032	5f579cc797c3ee2607f6e344	3	1	main_slash	7	advance_on_keypress_SLASH	26	stimuli_target_diamondsquares.svg	stimuli_distractor_diamondtriangles.svg	24	yes	57	0	469	0	0			0	0			1				0	
6.6.1	win	2023-06-02	00:29:13	00:33:24	247150	5f579cc797c3ee2607f6e344	3	1	main_slash	7	main_slash	27	stimuli_distractor_trianglediamonds.svg	stimuli_distractor_diamondtriangles.svg	35	no	0	1	2000	0	0			0	0			1				0	
6.6.1	win	2023-06-02	00:29:13	00:33:24	247150	5f579cc797c3ee2607f6e344	3	1	main_slash	7	advance_on_keypress_SLASH	28	stimuli_distractor_trianglediamonds.svg	stimuli_distractor_diamondtriangles.svg	35	no	57	0	488	0	0			0	0			1				0	
6.6.1	win	2023-06-02	00:29:13	00:33:26	248856	5f579cc797c3ee2607f6e344	3	1	main_slash	7	main_slash	29	stimuli_target_diamondrectangles.svg	stimuli_distractor_trianglediamonds.svg	19	yes	53	1	576	0	0			0	0			1				0	
6.6.1	win	2023-06-02	00:29:13	00:33:26	248856	5f579cc797c3ee2607f6e344	3	1	main_slash	7	advance_on_keypress_SLASH	30	stimuli_target_diamondrectangles.svg	stimuli_distractor_trianglediamonds.svg	19	yes	57	0	828	0	0			0	0			1				0	
6.6.1	win	2023-06-02	00:29:13	00:33:28	251016	5f579cc797c3ee2607f6e344	3	1	main_slash	7	main_slash	31	stimuli_distractor_diamondtriangles.svg	stimuli_target_diamondsquares.svg	32	yes	53	1	705	0	0			0	0			1				0	
6.6.1	win	2023-06-02	00:29:13	00:33:28	251016	5f579cc797c3ee2607f6e344	3	1	main_slash	7	advance_on_keypress_SLASH	32	stimuli_distractor_diamondtriangles.svg	stimuli_target_diamondsquares.svg	32	yes	57	0	665	0	0			0	0			1				0	
6.6.1	win	2023-06-02	00:29:13	00:33:30	253019	5f579cc797c3ee2607f6e344	3	1	main_slash	7	main_slash	33	stimuli_distractor_diamondtriangles.svg	stimuli_target_diamondrectangles.svg	31	yes	53	1	693	0	0			0	0			1				0	
6.6.1	win	2023-06-02	00:29:13	00:33:30	253019	5f579cc797c3ee2607f6e344	3	1	main_slash	7	advance_on_keypress_SLASH	34	stimuli_distractor_diamondtriangles.svg	stimuli_target_diamondrectangles.svg	31	yes	57	0	621	0	0			0	0			1				0	
6.6.1	win	2023-06-02	00:29:13	00:33:33	255197	5f579cc797c3ee2607f6e344	3	1	main_slash	7	main_slash	35	stimuli_distractor_trianglediamonds.svg	stimuli_target_squaretriangles.svg	11	yes	53	1	922	0	0			0	0			1				0	
6.6.1	win	2023-06-02	00:29:13	00:33:33	255197	5f579cc797c3ee2607f6e344	3	1	main_slash	7	advance_on_keypress_SLASH	36	stimuli_distractor_trianglediamonds.svg	stimuli_target_squaretriangles.svg	11	yes	57	0	650	0	0			0	0			1				0	
6.6.1	win	2023-06-02	00:29:13	00:33:35	257251	5f579cc797c3ee2607f6e344	3	1	main_slash	7	main_slash	37	stimuli_distractor_trianglediamonds.svg	stimuli_target_trianglesquares.svg	26	yes	53	1	763	0	0			0	0			1				0	
6.6.1	win	2023-06-02	00:29:13	00:33:35	257251	5f579cc797c3ee2607f6e344	3	1	main_slash	7	advance_on_keypress_SLASH	38	stimuli_distractor_trianglediamonds.svg	stimuli_target_trianglesquares.svg	26	yes	57	0	623	0	0			0	0			1				0	
6.6.1	win	2023-06-02	00:29:13	00:33:37	259286	5f579cc797c3ee2607f6e344	3	1	main_slash	7	main_slash	39	stimuli_distractor_diamondtriangles.svg	stimuli_target_trianglerectangles.svg	29	yes	53	1	765	0	0			0	0			1				0	
6.6.1	win	2023-06-02	00:29:13	00:33:37	259286	5f579cc797c3ee2607f6e344	3	1	main_slash	7	advance_on_keypress_SLASH	40	stimuli_distractor_diamondtriangles.svg	stimuli_target_trianglerectangles.svg	29	yes	57	0	471	0	0			0	0			1				0	
6.6.1	win	2023-06-02	00:29:13	00:33:38	261068	5f579cc797c3ee2607f6e344	3	1	main_slash	7	main_slash	41	stimuli_target_rectangletriangles.svg	stimuli_distractor_trianglediamonds.svg	1	yes	53	1	666	0	0			0	0			1				0	
6.6.1	win	2023-06-02	00:29:13	00:33:38	261068	5f579cc797c3ee2607f6e344	3	1	main_slash	7	advance_on_keypress_SLASH	42	stimuli_target_rectangletriangles.svg	stimuli_distractor_trianglediamonds.svg	1	yes	57	0	413	0	0			0	0			1				0	
6.6.1	win	2023-06-02	00:29:13	00:33:40	262891	5f579cc797c3ee2607f6e344	3	1	main_slash	7	main_slash	43	stimuli_target_squaretriangles.svg	stimuli_distractor_diamondtriangles.svg	7	yes	53	1	774	0	0			0	0			1				0	
6.6.1	win	2023-06-02	00:29:13	00:33:40	262891	5f579cc797c3ee2607f6e344	3	1	main_slash	7	advance_on_keypress_SLASH	44	stimuli_target_squaretriangles.svg	stimuli_distractor_diamondtriangles.svg	7	yes	57	0	398	0	0			0	0			1				0	
6.6.1	win	2023-06-02	00:29:13	00:33:43	265932	5f579cc797c3ee2607f6e344	3	1	main_slash	7	main_slash	45	stimuli_distractor_diamondtriangles.svg	stimuli_distractor_diamondtriangles.svg	39	no	0	1	2000	0	0			0	0			1				0	
6.6.1	win	2023-06-02	00:29:13	00:33:43	265932	5f579cc797c3ee2607f6e344	3	1	main_slash	7	advance_on_keypress_SLASH	46	stimuli_distractor_diamondtriangles.svg	stimuli_distractor_diamondtriangles.svg	39	no	57	0	931	0	0			0	0			1				0	
6.6.1	win	2023-06-02	00:29:13	00:33:45	268089	5f579cc797c3ee2607f6e344	3	1	main_slash	7	main_slash	47	stimuli_distractor_trianglediamonds.svg	stimuli_target_diamondrectangles.svg	27	yes	53	1	577	0	0			0	0			1				0	
6.6.1	win	2023-06-02	00:29:13	00:33:45	268089	5f579cc797c3ee2607f6e344	3	1	main_slash	7	advance_on_keypress_SLASH	48	stimuli_distractor_trianglediamonds.svg	stimuli_target_diamondrectangles.svg	27	yes	57	0	436	0	0			0	0			1				0	
6.6.1	win	2023-06-02	00:29:13	00:33:49	271160	5f579cc797c3ee2607f6e344	3	1	main_slash	7	main_slash	49	stimuli_distractor_diamondtriangles.svg	stimuli_distractor_diamondtriangles.svg	40	no	0	1	2000	0	0			0	0			1				0	
6.6.1	win	2023-06-02	00:29:13	00:33:49	271160	5f579cc797c3ee2607f6e344	3	1	main_slash	7	advance_on_keypress_SLASH	50	stimuli_distractor_diamondtriangles.svg	stimuli_distractor_diamondtriangles.svg	40	no	57	0	661	0	0			0	0			1				0	
6.6.1	win	2023-06-02	00:29:13	00:33:50	273042	5f579cc797c3ee2607f6e344	3	1	main_slash	7	main_slash	51	stimuli_distractor_diamondtriangles.svg	stimuli_target_squarediamonds.svg	16	yes	53	1	585	0	0			0	0			1				0	
6.6.1	win	2023-06-02	00:29:13	00:33:50	273042	5f579cc797c3ee2607f6e344	3	1	main_slash	7	advance_on_keypress_SLASH	52	stimuli_distractor_diamondtriangles.svg	stimuli_target_squarediamonds.svg	16	yes	57	0	402	0	0			0	0			1				0	
6.6.1	win	2023-06-02	00:29:13	00:33:52	274740	5f579cc797c3ee2607f6e344	3	1	main_slash	7	main_slash	53	stimuli_target_squarediamonds.svg	stimuli_distractor_trianglediamonds.svg	4	yes	53	1	652	0	0			0	0			1				0	
6.6.1	win	2023-06-02	00:29:13	00:33:52	274740	5f579cc797c3ee2607f6e344	3	1	main_slash	7	advance_on_keypress_SLASH	54	stimuli_target_squarediamonds.svg	stimuli_distractor_trianglediamonds.svg	4	yes	57	0	333	0	0			0	0			1				0	
6.6.1	win	2023-06-02	00:29:13	00:33:54	276392	5f579cc797c3ee2607f6e344	3	1	main_slash	7	main_slash	55	stimuli_distractor_diamondtriangles.svg	stimuli_target_rectanglediamonds.svg	14	yes	53	1	672	0	0			0	0			1				0	
6.6.1	win	2023-06-02	00:29:13	00:33:54	276392	5f579cc797c3ee2607f6e344	3	1	main_slash	7	advance_on_keypress_SLASH	56	stimuli_distractor_diamondtriangles.svg	stimuli_target_rectanglediamonds.svg	14	yes	57	0	349	0	0			0	0			1				0	
6.6.1	win	2023-06-02	00:29:13	00:33:55	278040	5f579cc797c3ee2607f6e344	3	1	main_slash	7	main_slash	57	stimuli_target_squaretriangles.svg	stimuli_distractor_trianglediamonds.svg	3	yes	53	1	655	0	0			0	0			1				0	
6.6.1	win	2023-06-02	00:29:13	00:33:55	278040	5f579cc797c3ee2607f6e344	3	1	main_slash	7	advance_on_keypress_SLASH	58	stimuli_target_squaretriangles.svg	stimuli_distractor_trianglediamonds.svg	3	yes	57	0	231	0	0			0	0			1				0	
6.6.1	win	2023-06-02	00:29:13	00:33:57	279432	5f579cc797c3ee2607f6e344	3	1	main_slash	7	main_slash	59	stimuli_target_diamondsquares.svg	stimuli_distractor_trianglediamonds.svg	20	yes	53	1	504	0	0			0	0			1				0	
6.6.1	win	2023-06-02	00:29:13	00:33:57	279432	5f579cc797c3ee2607f6e344	3	1	main_slash	7	advance_on_keypress_SLASH	60	stimuli_target_diamondsquares.svg	stimuli_distractor_trianglediamonds.svg	20	yes	57	0	414	0	0			0	0			1				0	
6.6.1	win	2023-06-02	00:29:13	00:34:00	282499	5f579cc797c3ee2607f6e344	3	1	main_slash	7	main_slash	61	stimuli_distractor_trianglediamonds.svg	stimuli_distractor_trianglediamonds.svg	33	no	0	1	2000	0	0			0	0			1				0	
6.6.1	win	2023-06-02	00:29:13	00:34:00	282499	5f579cc797c3ee2607f6e344	3	1	main_slash	7	advance_on_keypress_SLASH	62	stimuli_distractor_trianglediamonds.svg	stimuli_distractor_trianglediamonds.svg	33	no	57	0	1314	0	0			0	0			1				0	
6.6.1	win	2023-06-02	00:29:13	00:34:03	285195	5f579cc797c3ee2607f6e344	3	1	main_slash	7	main_slash	63	stimuli_distractor_diamondtriangles.svg	stimuli_target_trianglesquares.svg	30	yes	53	1	733	0	0			0	0			1				0	
6.6.1	win	2023-06-02	00:29:13	00:34:03	285195	5f579cc797c3ee2607f6e344	3	1	main_slash	7	advance_on_keypress_SLASH	64	stimuli_distractor_diamondtriangles.svg	stimuli_target_trianglesquares.svg	30	yes	57	0	444	0	0			0	0			1				0	
6.6.1	win	2023-06-02	00:29:13	00:34:05	287303	5f579cc797c3ee2607f6e344	3	1	main_slash	7	main_slash	65	stimuli_target_diamondrectangles.svg	stimuli_distractor_diamondtriangles.svg	23	yes	53	1	1027	0	0			0	0			1				0	
6.6.1	win	2023-06-02	00:29:13	00:34:05	287303	5f579cc797c3ee2607f6e344	3	1	main_slash	7	advance_on_keypress_SLASH	66	stimuli_target_diamondrectangles.svg	stimuli_distractor_diamondtriangles.svg	23	yes	57	0	481	0	0			0	0			1				0	
6.6.1	win	2023-06-02	00:29:13	00:34:06	288966	5f579cc797c3ee2607f6e344	3	1	main_slash	7	main_slash	67	stimuli_target_rectangletriangles.svg	stimuli_distractor_diamondtriangles.svg	5	yes	53	1	542	0	0			0	0			1				0	
6.6.1	win	2023-06-02	00:29:13	00:34:06	288966	5f579cc797c3ee2607f6e344	3	1	main_slash	7	advance_on_keypress_SLASH	68	stimuli_target_rectangletriangles.svg	stimuli_distractor_diamondtriangles.svg	5	yes	57	0	390	0	0			0	0			1				0	
6.6.1	win	2023-06-02	00:29:13	00:34:08	290665	5f579cc797c3ee2607f6e344	3	1	main_slash	7	main_slash	69	stimuli_target_rectanglediamonds.svg	stimuli_distractor_diamondtriangles.svg	6	yes	53	1	677	0	0			0	0			1				0	
6.6.1	win	2023-06-02	00:29:13	00:34:08	290665	5f579cc797c3ee2607f6e344	3	1	main_slash	7	advance_on_keypress_SLASH	70	stimuli_target_rectanglediamonds.svg	stimuli_distractor_diamondtriangles.svg	6	yes	57	0	361	0	0			0	0			1				0	
6.6.1	win	2023-06-02	00:29:13	00:34:11	293654	5f579cc797c3ee2607f6e344	3	1	main_slash	7	main_slash	71	stimuli_distractor_diamondtriangles.svg	stimuli_distractor_trianglediamonds.svg	38	no	0	1	2000	0	0			0	0			1				0	
6.6.1	win	2023-06-02	00:29:13	00:34:11	293654	5f579cc797c3ee2607f6e344	3	1	main_slash	7	advance_on_keypress_SLASH	72	stimuli_distractor_diamondtriangles.svg	stimuli_distractor_trianglediamonds.svg	38	no	57	0	585	0	0			0	0			1				0	
6.6.1	win	2023-06-02	00:29:13	00:34:14	296884	5f579cc797c3ee2607f6e344	3	1	main_slash	7	main_slash	73	stimuli_distractor_trianglediamonds.svg	stimuli_distractor_diamondtriangles.svg	36	no	0	1	2000	0	0			0	0			1				0	
6.6.1	win	2023-06-02	00:29:13	00:34:14	296884	5f579cc797c3ee2607f6e344	3	1	main_slash	7	advance_on_keypress_SLASH	74	stimuli_distractor_trianglediamonds.svg	stimuli_distractor_diamondtriangles.svg	36	no	57	0	285	0	0			0	0			1				0	
6.6.1	win	2023-06-02	00:29:13	00:34:16	298411	5f579cc797c3ee2607f6e344	3	1	main_slash	7	main_slash	75	stimuli_distractor_trianglediamonds.svg	stimuli_target_rectangletriangles.svg	9	yes	53	1	596	0	0			0	0			1				0	
6.6.1	win	2023-06-02	00:29:13	00:34:16	298411	5f579cc797c3ee2607f6e344	3	1	main_slash	7	advance_on_keypress_SLASH	76	stimuli_distractor_trianglediamonds.svg	stimuli_target_rectangletriangles.svg	9	yes	57	0	378	0	0			0	0			1				0	
6.6.1	win	2023-06-02	00:29:13	00:34:17	300084	5f579cc797c3ee2607f6e344	3	1	main_slash	7	main_slash	77	stimuli_target_trianglerectangles.svg	stimuli_distractor_trianglediamonds.svg	17	yes	53	1	654	0	0			0	0			1				0	
6.6.1	win	2023-06-02	00:29:13	00:34:17	300084	5f579cc797c3ee2607f6e344	3	1	main_slash	7	advance_on_keypress_SLASH	78	stimuli_target_trianglerectangles.svg	stimuli_distractor_trianglediamonds.svg	17	yes	57	0	378	0	0			0	0			1				0	
6.6.1	win	2023-06-02	00:29:13	00:34:19	301764	5f579cc797c3ee2607f6e344	3	1	main_slash	7	main_slash	79	stimuli_target_trianglesquares.svg	stimuli_distractor_trianglediamonds.svg	18	yes	53	1	670	0	0			0	0			1				0	
6.6.1	win	2023-06-02	00:29:13	00:34:19	301764	5f579cc797c3ee2607f6e344	3	1	main_slash	7	advance_on_keypress_SLASH	80	stimuli_target_trianglesquares.svg	stimuli_distractor_trianglediamonds.svg	18	yes	57	0	301	0	0			0	0			1				0	
6.6.1	win	2023-06-02	00:29:13	00:34:21	303412	5f579cc797c3ee2607f6e344	3	1	main_slash	7	main_slash	81	stimuli_target_trianglerectangles.svg	stimuli_distractor_trianglediamonds.svg	17	yes	53	1	701	0	0			0	0			1				0	
6.6.1	win	2023-06-02	00:29:13	00:34:21	303412	5f579cc797c3ee2607f6e344	3	1	main_slash	7	advance_on_keypress_SLASH	82	stimuli_target_trianglerectangles.svg	stimuli_distractor_trianglediamonds.svg	17	yes	57	0	2483	0	0			0	0			1				0	
6.6.1	win	2023-06-02	00:29:13	00:34:24	307079	5f579cc797c3ee2607f6e344	3	1	main_slash	7	main_slash	83	stimuli_target_squarediamonds.svg	stimuli_distractor_trianglediamonds.svg	4	yes	53	1	539	0	0			0	0			1				0	
6.6.1	win	2023-06-02	00:29:13	00:34:24	307079	5f579cc797c3ee2607f6e344	3	1	main_slash	7	advance_on_keypress_SLASH	84	stimuli_target_squarediamonds.svg	stimuli_distractor_trianglediamonds.svg	4	yes	57	0	335	0	0			0	0			1				0	
6.6.1	win	2023-06-02	00:29:13	00:34:26	308555	5f579cc797c3ee2607f6e344	3	1	main_slash	7	main_slash	85	stimuli_distractor_diamondtriangles.svg	stimuli_target_rectangletriangles.svg	13	yes	53	1	500	0	0			0	0			1				0	
6.6.1	win	2023-06-02	00:29:13	00:34:26	308555	5f579cc797c3ee2607f6e344	3	1	main_slash	7	advance_on_keypress_SLASH	86	stimuli_distractor_diamondtriangles.svg	stimuli_target_rectangletriangles.svg	13	yes	57	0	812	0	0			0	0			1				0	
6.6.1	win	2023-06-02	00:29:13	00:34:28	310430	5f579cc797c3ee2607f6e344	3	1	main_slash	7	main_slash	87	stimuli_target_rectanglediamonds.svg	stimuli_distractor_trianglediamonds.svg	2	yes	53	1	428	0	0			0	0			1				0	
6.6.1	win	2023-06-02	00:29:13	00:34:28	310430	5f579cc797c3ee2607f6e344	3	1	main_slash	7	advance_on_keypress_SLASH	88	stimuli_target_rectanglediamonds.svg	stimuli_distractor_trianglediamonds.svg	2	yes	57	0	403	0	0			0	0			1				0	
6.6.1	win	2023-06-02	00:29:13	00:34:29	311931	5f579cc797c3ee2607f6e344	3	1	main_slash	7	main_slash	89	stimuli_distractor_diamondtriangles.svg	stimuli_target_diamondrectangles.svg	31	yes	53	1	463	0	0			0	0			1				0	
6.6.1	win	2023-06-02	00:29:13	00:34:29	311931	5f579cc797c3ee2607f6e344	3	1	main_slash	7	advance_on_keypress_SLASH	90	stimuli_distractor_diamondtriangles.svg	stimuli_target_diamondrectangles.svg	31	yes	57	0	360	0	0			0	0			1				0	
6.6.1	win	2023-06-02	00:29:13	00:34:32	314933	5f579cc797c3ee2607f6e344	3	1	main_slash	7	main_slash	91	stimuli_distractor_diamondtriangles.svg	stimuli_distractor_diamondtriangles.svg	40	no	0	1	2000	0	0			0	0			1				0	
6.6.1	win	2023-06-02	00:29:13	00:34:32	314933	5f579cc797c3ee2607f6e344	3	1	main_slash	7	advance_on_keypress_SLASH	92	stimuli_distractor_diamondtriangles.svg	stimuli_distractor_diamondtriangles.svg	40	no	57	0	961	0	0			0	0			1				0	
6.6.1	win	2023-06-02	00:29:13	00:34:34	316958	5f579cc797c3ee2607f6e344	3	1	main_slash	7	main_slash	93	stimuli_distractor_diamondtriangles.svg	stimuli_target_squaretriangles.svg	15	yes	53	1	428	0	0			0	0			1				0	
6.6.1	win	2023-06-02	00:29:13	00:34:34	316958	5f579cc797c3ee2607f6e344	3	1	main_slash	7	advance_on_keypress_SLASH	94	stimuli_distractor_diamondtriangles.svg	stimuli_target_squaretriangles.svg	15	yes	57	0	418	0	0			0	0			1				0	
6.6.1	win	2023-06-02	00:29:13	00:34:36	318496	5f579cc797c3ee2607f6e344	3	1	main_slash	7	main_slash	95	stimuli_target_squaretriangles.svg	stimuli_distractor_trianglediamonds.svg	3	yes	53	1	484	0	0			0	0			1				0	
6.6.1	win	2023-06-02	00:29:13	00:34:36	318496	5f579cc797c3ee2607f6e344	3	1	main_slash	7	advance_on_keypress_SLASH	96	stimuli_target_squaretriangles.svg	stimuli_distractor_trianglediamonds.svg	3	yes	57	0	266	0	0			0	0			1				0	
6.6.1	win	2023-06-02	00:29:13	00:34:37	319892	5f579cc797c3ee2607f6e344	3	1	main_slash	7	main_slash	97	stimuli_target_rectangletriangles.svg	stimuli_distractor_trianglediamonds.svg	1	yes	53	1	482	0	0			0	0			1				0	
6.6.1	win	2023-06-02	00:29:13	00:34:37	319892	5f579cc797c3ee2607f6e344	3	1	main_slash	7	advance_on_keypress_SLASH	98	stimuli_target_rectangletriangles.svg	stimuli_distractor_trianglediamonds.svg	1	yes	57	0	271	0	0			0	0			1				0	
6.6.1	win	2023-06-02	00:29:13	00:34:40	322809	5f579cc797c3ee2607f6e344	3	1	main_slash	7	main_slash	99	stimuli_distractor_trianglediamonds.svg	stimuli_distractor_trianglediamonds.svg	33	no	0	1	2000	0	0			0	0			1				0	
6.6.1	win	2023-06-02	00:29:13	00:34:40	322809	5f579cc797c3ee2607f6e344	3	1	main_slash	7	advance_on_keypress_SLASH	100	stimuli_distractor_trianglediamonds.svg	stimuli_distractor_trianglediamonds.svg	33	no	57	0	493	0	0			0	0			1				0	
6.6.1	win	2023-06-02	00:29:13	00:34:42	324459	5f579cc797c3ee2607f6e344	3	1	main_slash	7	main_slash	101	stimuli_target_trianglerectangles.svg	stimuli_distractor_diamondtriangles.svg	21	yes	53	1	520	0	0			0	0			1				0	
6.6.1	win	2023-06-02	00:29:13	00:34:42	324459	5f579cc797c3ee2607f6e344	3	1	main_slash	7	advance_on_keypress_SLASH	102	stimuli_target_trianglerectangles.svg	stimuli_distractor_diamondtriangles.svg	21	yes	57	0	373	0	0			0	0			1				0	
6.6.1	win	2023-06-02	00:29:13	00:34:43	325950	5f579cc797c3ee2607f6e344	3	1	main_slash	7	main_slash	103	stimuli_distractor_diamondtriangles.svg	stimuli_target_trianglerectangles.svg	29	yes	53	1	478	0	0			0	0			1				0	
6.6.1	win	2023-06-02	00:29:13	00:34:43	325950	5f579cc797c3ee2607f6e344	3	1	main_slash	7	advance_on_keypress_SLASH	104	stimuli_distractor_diamondtriangles.svg	stimuli_target_trianglerectangles.svg	29	yes	57	0	383	0	0			0	0			1				0	
6.6.1	win	2023-06-02	00:29:13	00:34:45	327581	5f579cc797c3ee2607f6e344	3	1	main_slash	7	main_slash	105	stimuli_target_diamondrectangles.svg	stimuli_distractor_diamondtriangles.svg	23	yes	53	1	594	0	0			0	0			1				0	
6.6.1	win	2023-06-02	00:29:13	00:34:45	327581	5f579cc797c3ee2607f6e344	3	1	main_slash	7	advance_on_keypress_SLASH	106	stimuli_target_diamondrectangles.svg	stimuli_distractor_diamondtriangles.svg	23	yes	57	0	370	0	0			0	0			1				0	
6.6.1	win	2023-06-02	00:29:13	00:34:46	328972	5f579cc797c3ee2607f6e344	3	1	main_slash	7	main_slash	107	stimuli_target_diamondrectangles.svg	stimuli_distractor_trianglediamonds.svg	19	yes	53	1	388	0	0			0	0			1				0	
6.6.1	win	2023-06-02	00:29:13	00:34:46	328972	5f579cc797c3ee2607f6e344	3	1	main_slash	7	advance_on_keypress_SLASH	108	stimuli_target_diamondrectangles.svg	stimuli_distractor_trianglediamonds.svg	19	yes	57	0	453	0	0			0	0			1				0	
6.6.1	win	2023-06-02	00:29:13	00:34:49	332067	5f579cc797c3ee2607f6e344	3	1	main_slash	7	main_slash	109	stimuli_distractor_diamondtriangles.svg	stimuli_distractor_trianglediamonds.svg	38	no	0	1	2000	0	0			0	0			1				0	
6.6.1	win	2023-06-02	00:29:13	00:34:49	332067	5f579cc797c3ee2607f6e344	3	1	main_slash	7	advance_on_keypress_SLASH	110	stimuli_distractor_diamondtriangles.svg	stimuli_distractor_trianglediamonds.svg	38	no	57	0	1246	0	0			0	0			1				0	
6.6.1	win	2023-06-02	00:29:13	00:34:52	334462	5f579cc797c3ee2607f6e344	3	1	main_slash	7	main_slash	111	stimuli_distractor_diamondtriangles.svg	stimuli_target_diamondsquares.svg	32	yes	53	1	505	0	0			0	0			1				0	
6.6.1	win	2023-06-02	00:29:13	00:34:52	334462	5f579cc797c3ee2607f6e344	3	1	main_slash	7	advance_on_keypress_SLASH	112	stimuli_distractor_diamondtriangles.svg	stimuli_target_diamondsquares.svg	32	yes	57	0	382	0	0			0	0			1				0	
6.6.1	win	2023-06-02	00:29:13	00:34:54	336155	5f579cc797c3ee2607f6e344	3	1	main_slash	7	main_slash	113	stimuli_distractor_trianglediamonds.svg	stimuli_target_diamondsquares.svg	28	yes	53	1	661	0	0			0	0			1				0	
6.6.1	win	2023-06-02	00:29:13	00:34:54	336155	5f579cc797c3ee2607f6e344	3	1	main_slash	7	advance_on_keypress_SLASH	114	stimuli_distractor_trianglediamonds.svg	stimuli_target_diamondsquares.svg	28	yes	57	0	360	0	0			0	0			1				0	
6.6.1	win	2023-06-02	00:29:13	00:34:55	337785	5f579cc797c3ee2607f6e344	3	1	main_slash	7	main_slash	115	stimuli_target_trianglesquares.svg	stimuli_distractor_diamondtriangles.svg	22	yes	53	1	642	0	0			0	0			1				0	
6.6.1	win	2023-06-02	00:29:13	00:34:55	337785	5f579cc797c3ee2607f6e344	3	1	main_slash	7	advance_on_keypress_SLASH	116	stimuli_target_trianglesquares.svg	stimuli_distractor_diamondtriangles.svg	22	yes	57	0	344	0	0			0	0			1				0	
6.6.1	win	2023-06-02	00:29:13	00:34:57	339285	5f579cc797c3ee2607f6e344	3	1	main_slash	7	main_slash	117	stimuli_distractor_trianglediamonds.svg	stimuli_target_rectangletriangles.svg	9	yes	53	1	526	0	0			0	0			1				0	
6.6.1	win	2023-06-02	00:29:13	00:34:57	339285	5f579cc797c3ee2607f6e344	3	1	main_slash	7	advance_on_keypress_SLASH	118	stimuli_distractor_trianglediamonds.svg	stimuli_target_rectangletriangles.svg	9	yes	57	0	390	0	0			0	0			1				0	
6.6.1	win	2023-06-02	00:29:13	00:34:58	340792	5f579cc797c3ee2607f6e344	3	1	main_slash	7	main_slash	119	stimuli_target_rectanglediamonds.svg	stimuli_distractor_diamondtriangles.svg	6	yes	53	1	485	0	0			0	0			1				0	
6.6.1	win	2023-06-02	00:29:13	00:34:58	340792	5f579cc797c3ee2607f6e344	3	1	main_slash	7	advance_on_keypress_SLASH	120	stimuli_target_rectanglediamonds.svg	stimuli_distractor_diamondtriangles.svg	6	yes	57	0	374	0	0			0	0			1				0	
6.6.1	win	2023-06-02	00:29:13	00:35:00	342371	5f579cc797c3ee2607f6e344	3	1	main_slash	7	main_slash	121	stimuli_distractor_diamondtriangles.svg	stimuli_target_squarediamonds.svg	16	yes	53	1	565	0	0			0	0			1				0	
6.6.1	win	2023-06-02	00:29:13	00:35:00	342371	5f579cc797c3ee2607f6e344	3	1	main_slash	7	advance_on_keypress_SLASH	122	stimuli_distractor_diamondtriangles.svg	stimuli_target_squarediamonds.svg	16	yes	57	0	493	0	0			0	0			1				0	
6.6.1	win	2023-06-02	00:29:13	00:35:01	344114	5f579cc797c3ee2607f6e344	3	1	main_slash	7	main_slash	123	stimuli_target_rectangletriangles.svg	stimuli_distractor_diamondtriangles.svg	5	yes	53	1	610	0	0			0	0			1				0	
6.6.1	win	2023-06-02	00:29:13	00:35:01	344114	5f579cc797c3ee2607f6e344	3	1	main_slash	7	advance_on_keypress_SLASH	124	stimuli_target_rectangletriangles.svg	stimuli_distractor_diamondtriangles.svg	5	yes	57	0	472	0	0			0	0			1				0	
6.6.1	win	2023-06-02	00:29:13	00:35:03	345773	5f579cc797c3ee2607f6e344	3	1	main_slash	7	main_slash	125	stimuli_distractor_diamondtriangles.svg	stimuli_target_rectanglediamonds.svg	14	yes	53	1	554	0	0			0	0			1				0	
6.6.1	win	2023-06-02	00:29:13	00:35:03	345773	5f579cc797c3ee2607f6e344	3	1	main_slash	7	advance_on_keypress_SLASH	126	stimuli_distractor_diamondtriangles.svg	stimuli_target_rectanglediamonds.svg	14	yes	57	0	365	0	0			0	0			1				0	
6.6.1	win	2023-06-02	00:29:13	00:35:06	348784	5f579cc797c3ee2607f6e344	3	1	main_slash	7	main_slash	127	stimuli_distractor_diamondtriangles.svg	stimuli_distractor_diamondtriangles.svg	39	no	0	1	2000	0	0			0	0			1				0	
6.6.1	win	2023-06-02	00:29:13	00:35:06	348784	5f579cc797c3ee2607f6e344	3	1	main_slash	7	advance_on_keypress_SLASH	128	stimuli_distractor_diamondtriangles.svg	stimuli_distractor_diamondtriangles.svg	39	no	57	0	930	0	0			0	0			1				0	
6.6.1	win	2023-06-02	00:29:13	00:35:08	350848	5f579cc797c3ee2607f6e344	3	1	main_slash	7	main_slash	129	stimuli_distractor_trianglediamonds.svg	stimuli_target_squaretriangles.svg	11	yes	53	1	485	0	0			0	0			1				0	
6.6.1	win	2023-06-02	00:29:13	00:35:08	350848	5f579cc797c3ee2607f6e344	3	1	main_slash	7	advance_on_keypress_SLASH	130	stimuli_distractor_trianglediamonds.svg	stimuli_target_squaretriangles.svg	11	yes	57	0	463	0	0			0	0			1				0	
6.6.1	win	2023-06-02	00:29:13	00:35:11	353962	5f579cc797c3ee2607f6e344	3	1	main_slash	7	main_slash	131	stimuli_distractor_trianglediamonds.svg	stimuli_distractor_diamondtriangles.svg	36	no	0	1	2000	0	0			0	0			1				0	
6.6.1	win	2023-06-02	00:29:13	00:35:11	353962	5f579cc797c3ee2607f6e344	3	1	main_slash	7	advance_on_keypress_SLASH	132	stimuli_distractor_trianglediamonds.svg	stimuli_distractor_diamondtriangles.svg	36	no	57	0	394	0	0			0	0			1				0	
6.6.1	win	2023-06-02	00:29:13	00:35:13	355513	5f579cc797c3ee2607f6e344	3	1	main_slash	7	main_slash	133	stimuli_distractor_trianglediamonds.svg	stimuli_target_trianglesquares.svg	26	yes	53	1	520	0	0			0	0			1				0	
6.6.1	win	2023-06-02	00:29:13	00:35:13	355513	5f579cc797c3ee2607f6e344	3	1	main_slash	7	advance_on_keypress_SLASH	134	stimuli_distractor_trianglediamonds.svg	stimuli_target_trianglesquares.svg	26	yes	57	0	398	0	0			0	0			1				0	
6.6.1	win	2023-06-02	00:29:13	00:35:16	358557	5f579cc797c3ee2607f6e344	3	1	main_slash	7	main_slash	135	stimuli_target_trianglesquares.svg	stimuli_distractor_trianglediamonds.svg	18	yes	0	0	2000	0	0			0	0			1				0	
6.6.1	win	2023-06-02	00:29:13	00:35:16	358557	5f579cc797c3ee2607f6e344	3	1	main_slash	7	advance_on_keypress_SLASH	136	stimuli_target_trianglesquares.svg	stimuli_distractor_trianglediamonds.svg	18	yes	57	0	3075	0	0			0	0			1				0	
6.6.1	win	2023-06-02	00:29:13	00:35:22	364268	5f579cc797c3ee2607f6e344	3	1	main_slash	7	main_slash	137	stimuli_distractor_trianglediamonds.svg	stimuli_distractor_trianglediamonds.svg	34	no	0	1	2000	0	0			0	0			1				0	
6.6.1	win	2023-06-02	00:29:13	00:35:22	364268	5f579cc797c3ee2607f6e344	3	1	main_slash	7	advance_on_keypress_SLASH	138	stimuli_distractor_trianglediamonds.svg	stimuli_distractor_trianglediamonds.svg	34	no	57	0	707	0	0			0	0			1				0	
6.6.1	win	2023-06-02	00:29:13	00:35:24	366190	5f579cc797c3ee2607f6e344	3	1	main_slash	7	main_slash	139	stimuli_distractor_trianglediamonds.svg	stimuli_target_diamondrectangles.svg	27	yes	53	1	574	0	0			0	0			1				0	
6.6.1	win	2023-06-02	00:29:13	00:35:24	366190	5f579cc797c3ee2607f6e344	3	1	main_slash	7	advance_on_keypress_SLASH	140	stimuli_distractor_trianglediamonds.svg	stimuli_target_diamondrectangles.svg	27	yes	57	0	381	0	0			0	0			1				0	
6.6.1	win	2023-06-02	00:29:13	00:35:25	367766	5f579cc797c3ee2607f6e344	3	1	main_slash	7	main_slash	141	stimuli_distractor_trianglediamonds.svg	stimuli_target_trianglerectangles.svg	25	yes	53	1	553	0	0			0	0			1				0	
6.6.1	win	2023-06-02	00:29:13	00:35:25	367766	5f579cc797c3ee2607f6e344	3	1	main_slash	7	advance_on_keypress_SLASH	142	stimuli_distractor_trianglediamonds.svg	stimuli_target_trianglerectangles.svg	25	yes	57	0	377	0	0			0	0			1				0	
6.6.1	win	2023-06-02	00:29:13	00:35:28	370779	5f579cc797c3ee2607f6e344	3	1	main_slash	7	main_slash	143	stimuli_distractor_trianglediamonds.svg	stimuli_distractor_diamondtriangles.svg	35	no	0	1	2000	0	0			0	0			1				0	
6.6.1	win	2023-06-02	00:29:13	00:35:28	370779	5f579cc797c3ee2607f6e344	3	1	main_slash	7	advance_on_keypress_SLASH	144	stimuli_distractor_trianglediamonds.svg	stimuli_distractor_diamondtriangles.svg	35	no	57	0	505	0	0			0	0			1				0	
6.6.1	win	2023-06-02	00:29:13	00:35:30	372471	5f579cc797c3ee2607f6e344	3	1	main_slash	7	main_slash	145	stimuli_target_diamondsquares.svg	stimuli_distractor_diamondtriangles.svg	24	yes	53	1	546	0	0			0	0			1				0	
6.6.1	win	2023-06-02	00:29:13	00:35:30	372471	5f579cc797c3ee2607f6e344	3	1	main_slash	7	advance_on_keypress_SLASH	146	stimuli_target_diamondsquares.svg	stimuli_distractor_diamondtriangles.svg	24	yes	57	0	278	0	0			0	0			1				0	
6.6.1	win	2023-06-02	00:29:13	00:35:32	374350	5f579cc797c3ee2607f6e344	3	1	main_slash	7	main_slash	147	stimuli_distractor_trianglediamonds.svg	stimuli_target_squarediamonds.svg	12	yes	53	1	960	0	0			0	0			1				0	
6.6.1	win	2023-06-02	00:29:13	00:35:32	374350	5f579cc797c3ee2607f6e344	3	1	main_slash	7	advance_on_keypress_SLASH	148	stimuli_distractor_trianglediamonds.svg	stimuli_target_squarediamonds.svg	12	yes	57	0	557	0	0			0	0			1				0	
6.6.1	win	2023-06-02	00:29:13	00:35:33	376138	5f579cc797c3ee2607f6e344	3	1	main_slash	7	main_slash	149	stimuli_target_diamondsquares.svg	stimuli_distractor_trianglediamonds.svg	20	yes	53	1	599	0	0			0	0			1				0	
6.6.1	win	2023-06-02	00:29:13	00:35:33	376138	5f579cc797c3ee2607f6e344	3	1	main_slash	7	advance_on_keypress_SLASH	150	stimuli_target_diamondsquares.svg	stimuli_distractor_trianglediamonds.svg	20	yes	57	0	238	0	0			0	0			1				0	
6.6.1	win	2023-06-02	00:29:13	00:35:35	377511	5f579cc797c3ee2607f6e344	3	1	main_slash	7	main_slash	151	stimuli_target_squarediamonds.svg	stimuli_distractor_diamondtriangles.svg	8	yes	53	1	490	0	0			0	0			1				0	
6.6.1	win	2023-06-02	00:29:13	00:35:35	377511	5f579cc797c3ee2607f6e344	3	1	main_slash	7	advance_on_keypress_SLASH	152	stimuli_target_squarediamonds.svg	stimuli_distractor_diamondtriangles.svg	8	yes	57	0	325	0	0			0	0			1				0	
6.6.1	win	2023-06-02	00:29:13	00:35:36	378962	5f579cc797c3ee2607f6e344	3	1	main_slash	7	main_slash	153	stimuli_target_squaretriangles.svg	stimuli_distractor_diamondtriangles.svg	7	yes	53	1	493	0	0			0	0			1				0	
6.6.1	win	2023-06-02	00:29:13	00:35:36	378962	5f579cc797c3ee2607f6e344	3	1	main_slash	7	advance_on_keypress_SLASH	154	stimuli_target_squaretriangles.svg	stimuli_distractor_diamondtriangles.svg	7	yes	57	0	376	0	0			0	0			1				0	
6.6.1	win	2023-06-02	00:29:13	00:35:38	380483	5f579cc797c3ee2607f6e344	3	1	main_slash	7	main_slash	155	stimuli_distractor_trianglediamonds.svg	stimuli_target_rectanglediamonds.svg	10	yes	53	1	505	0	0			0	0			1				0	
6.6.1	win	2023-06-02	00:29:13	00:35:38	380483	5f579cc797c3ee2607f6e344	3	1	main_slash	7	advance_on_keypress_SLASH	156	stimuli_distractor_trianglediamonds.svg	stimuli_target_rectanglediamonds.svg	10	yes	57	0	636	0	0			0	0			1				0	
6.6.1	win	2023-06-02	00:29:13	00:35:40	382456	5f579cc797c3ee2607f6e344	3	1	main_slash	7	main_slash	157	stimuli_distractor_diamondtriangles.svg	stimuli_target_trianglesquares.svg	30	yes	53	1	690	0	0			0	0			1				0	
6.6.1	win	2023-06-02	00:29:13	00:35:40	382456	5f579cc797c3ee2607f6e344	3	1	main_slash	7	advance_on_keypress_SLASH	158	stimuli_distractor_diamondtriangles.svg	stimuli_target_trianglesquares.svg	30	yes	57	0	431	0	0			0	0			1				0	
6.6.1	win	2023-06-02	00:29:13	00:35:43	385531	5f579cc797c3ee2607f6e344	3	1	main_slash	7	main_slash	159	stimuli_distractor_diamondtriangles.svg	stimuli_distractor_trianglediamonds.svg	37	no	0	1	2000	0	0			0	0			1				0	
6.6.1	win	2023-06-02	00:29:13	00:35:43	385531	5f579cc797c3ee2607f6e344	3	1	main_slash	7	advance_on_keypress_SLASH	160	stimuli_distractor_diamondtriangles.svg	stimuli_distractor_trianglediamonds.svg	37	no	57	0	7086	0	0			0	0			1				0	
6.6.1	win	2023-06-02	00:29:13	00:36:10	412656	5f579cc797c3ee2607f6e344	3	1	practice_z	9	practice_z	1	stimuli_distractor_diamondtriangles.svg	stimuli_target_rectangletriangles.svg	7	yes	44	1	518	0	0			0	0			1				0	
6.6.1	win	2023-06-02	00:29:13	00:36:10	412656	5f579cc797c3ee2607f6e344	3	1	practice_z	9	advance_on_keypress_ZEE	2	stimuli_distractor_diamondtriangles.svg	stimuli_target_rectangletriangles.svg	7	yes	57	0	1102	0	0			0	0			1				0	
6.6.1	win	2023-06-02	00:29:13	00:36:13	415811	5f579cc797c3ee2607f6e344	3	1	practice_z	9	practice_z	3	stimuli_target_rectanglediamonds.svg	stimuli_distractor_trianglediamonds.svg	4	yes	44	1	410	0	0			0	0			1				0	
6.6.1	win	2023-06-02	00:29:13	00:36:13	415811	5f579cc797c3ee2607f6e344	3	1	practice_z	9	advance_on_keypress_ZEE	4	stimuli_target_rectanglediamonds.svg	stimuli_distractor_trianglediamonds.svg	4	yes	57	0	502	0	0			0	0			1				0	
6.6.1	win	2023-06-02	00:29:13	00:36:16	418331	5f579cc797c3ee2607f6e344	3	1	practice_z	9	practice_z	5	stimuli_target_rectanglediamonds.svg	stimuli_distractor_diamondtriangles.svg	1	yes	44	1	370	0	0			0	0			1				0	
6.6.1	win	2023-06-02	00:29:13	00:36:16	418331	5f579cc797c3ee2607f6e344	3	1	practice_z	9	advance_on_keypress_ZEE	6	stimuli_target_rectanglediamonds.svg	stimuli_distractor_diamondtriangles.svg	1	yes	57	0	294	0	0			0	0			1				0	
6.6.1	win	2023-06-02	00:29:13	00:36:20	422264	5f579cc797c3ee2607f6e344	3	1	practice_z	9	practice_z	7	stimuli_distractor_trianglediamonds.svg	stimuli_distractor_trianglediamonds.svg	15	no	0	1	2000	0	0			0	0			1				0	
6.6.1	win	2023-06-02	00:29:13	00:36:20	422264	5f579cc797c3ee2607f6e344	3	1	practice_z	9	advance_on_keypress_ZEE	8	stimuli_distractor_trianglediamonds.svg	stimuli_distractor_trianglediamonds.svg	15	no	57	0	577	0	0			0	0			1				0	
6.6.1	win	2023-06-02	00:29:13	00:36:22	424954	5f579cc797c3ee2607f6e344	3	1	practice_z	9	practice_z	9	stimuli_distractor_trianglediamonds.svg	stimuli_target_squarediamonds.svg	11	yes	44	1	477	0	0			0	0			1				0	
6.6.1	win	2023-06-02	00:29:13	00:36:22	424954	5f579cc797c3ee2607f6e344	3	1	practice_z	9	advance_on_keypress_ZEE	10	stimuli_distractor_trianglediamonds.svg	stimuli_target_squarediamonds.svg	11	yes	57	0	437	0	0			0	0			1				0	
6.6.1	win	2023-06-02	00:29:13	00:36:25	427555	5f579cc797c3ee2607f6e344	3	1	practice_z	9	practice_z	11	stimuli_distractor_trianglediamonds.svg	stimuli_target_diamondrectangles.svg	12	yes	44	1	504	0	0			0	0			1				0	
6.6.1	win	2023-06-02	00:29:13	00:36:25	427555	5f579cc797c3ee2607f6e344	3	1	practice_z	9	advance_on_keypress_ZEE	12	stimuli_distractor_trianglediamonds.svg	stimuli_target_diamondrectangles.svg	12	yes	57	0	367	0	0			0	0			1				0	
6.6.1	win	2023-06-02	00:29:13	00:36:28	430324	5f579cc797c3ee2607f6e344	3	1	practice_z	9	practice_z	13	stimuli_distractor_diamondtriangles.svg	stimuli_distractor_trianglediamonds.svg	14	no	44	0	753	0	0			0	0			1				0	
6.6.1	win	2023-06-02	00:29:13	00:36:28	430324	5f579cc797c3ee2607f6e344	3	1	practice_z	9	advance_on_keypress_ZEE	14	stimuli_distractor_diamondtriangles.svg	stimuli_distractor_trianglediamonds.svg	14	no	57	0	497	0	0			0	0			1				0	
6.6.1	win	2023-06-02	00:29:13	00:36:30	432964	5f579cc797c3ee2607f6e344	3	1	practice_z	9	practice_z	15	stimuli_target_diamondsquares.svg	stimuli_distractor_trianglediamonds.svg	6	yes	44	1	495	0	0			0	0			1				0	
6.6.1	win	2023-06-02	00:29:13	00:36:30	432964	5f579cc797c3ee2607f6e344	3	1	practice_z	9	advance_on_keypress_ZEE	16	stimuli_target_diamondsquares.svg	stimuli_distractor_trianglediamonds.svg	6	yes	57	0	424	0	0			0	0			1				0	
6.6.1	win	2023-06-02	00:29:13	00:36:34	437033	5f579cc797c3ee2607f6e344	3	1	practice_z	9	practice_z	17	stimuli_distractor_trianglediamonds.svg	stimuli_distractor_diamondtriangles.svg	16	no	0	1	2000	0	0			0	0			1				0	
6.6.1	win	2023-06-02	00:29:13	00:36:34	437033	5f579cc797c3ee2607f6e344	3	1	practice_z	9	advance_on_keypress_ZEE	18	stimuli_distractor_trianglediamonds.svg	stimuli_distractor_diamondtriangles.svg	16	no	57	0	496	0	0			0	0			1				0	
6.6.1	win	2023-06-02	00:29:13	00:36:37	439717	5f579cc797c3ee2607f6e344	3	1	practice_z	9	practice_z	19	stimuli_distractor_diamondtriangles.svg	stimuli_target_trianglerectangles.svg	9	yes	44	1	525	0	0			0	0			1				0	
6.6.1	win	2023-06-02	00:29:13	00:36:37	439717	5f579cc797c3ee2607f6e344	3	1	practice_z	9	advance_on_keypress_ZEE	20	stimuli_distractor_diamondtriangles.svg	stimuli_target_trianglerectangles.svg	9	yes	57	0	456	0	0			0	0			1				0	
6.6.1	win	2023-06-02	00:29:13	00:36:41	443809	5f579cc797c3ee2607f6e344	3	1	practice_z	9	practice_z	21	stimuli_distractor_diamondtriangles.svg	stimuli_distractor_diamondtriangles.svg	13	no	0	1	2000	0	0			0	0			1				0	
6.6.1	win	2023-06-02	00:29:13	00:36:41	443809	5f579cc797c3ee2607f6e344	3	1	practice_z	9	advance_on_keypress_ZEE	22	stimuli_distractor_diamondtriangles.svg	stimuli_distractor_diamondtriangles.svg	13	no	57	0	493	0	0			0	0			1				0	
6.6.1	win	2023-06-02	00:29:13	00:36:44	446362	5f579cc797c3ee2607f6e344	3	1	practice_z	9	practice_z	23	stimuli_distractor_diamondtriangles.svg	stimuli_target_diamondrectangles.svg	8	yes	44	1	423	0	0			0	0			1				0	
6.6.1	win	2023-06-02	00:29:13	00:36:44	446362	5f579cc797c3ee2607f6e344	3	1	practice_z	9	advance_on_keypress_ZEE	24	stimuli_distractor_diamondtriangles.svg	stimuli_target_diamondrectangles.svg	8	yes	57	0	587	0	0			0	0			1				0	
6.6.1	win	2023-06-02	00:29:13	00:36:46	449052	5f579cc797c3ee2607f6e344	3	1	practice_z	9	practice_z	25	stimuli_target_squarediamonds.svg	stimuli_distractor_trianglediamonds.svg	5	yes	44	1	466	0	0			0	0			1				0	
6.6.1	win	2023-06-02	00:29:13	00:36:46	449052	5f579cc797c3ee2607f6e344	3	1	practice_z	9	advance_on_keypress_ZEE	26	stimuli_target_squarediamonds.svg	stimuli_distractor_trianglediamonds.svg	5	yes	57	0	460	0	0			0	0			1				0	
6.6.1	win	2023-06-02	00:29:13	00:36:49	451692	5f579cc797c3ee2607f6e344	3	1	practice_z	9	practice_z	27	stimuli_target_diamondsquares.svg	stimuli_distractor_diamondtriangles.svg	3	yes	44	1	542	0	0			0	0			1				0	
6.6.1	win	2023-06-02	00:29:13	00:36:49	451692	5f579cc797c3ee2607f6e344	3	1	practice_z	9	advance_on_keypress_ZEE	28	stimuli_target_diamondsquares.svg	stimuli_distractor_diamondtriangles.svg	3	yes	57	0	410	0	0			0	0			1				0	
6.6.1	win	2023-06-02	00:29:13	00:36:52	454369	5f579cc797c3ee2607f6e344	3	1	practice_z	9	practice_z	29	stimuli_distractor_trianglediamonds.svg	stimuli_target_rectanglediamonds.svg	10	yes	44	1	639	0	0			0	0			1				0	
6.6.1	win	2023-06-02	00:29:13	00:36:52	454369	5f579cc797c3ee2607f6e344	3	1	practice_z	9	advance_on_keypress_ZEE	30	stimuli_distractor_trianglediamonds.svg	stimuli_target_rectanglediamonds.svg	10	yes	57	0	375	0	0			0	0			1				0	
6.6.1	win	2023-06-02	00:29:13	00:36:54	456863	5f579cc797c3ee2607f6e344	3	1	practice_z	9	practice_z	31	stimuli_target_squarediamonds.svg	stimuli_distractor_diamondtriangles.svg	2	yes	44	1	484	0	0			0	0			1				0	
6.6.1	win	2023-06-02	00:29:13	00:36:54	456863	5f579cc797c3ee2607f6e344	3	1	practice_z	9	advance_on_keypress_ZEE	32	stimuli_target_squarediamonds.svg	stimuli_distractor_diamondtriangles.svg	2	yes	57	0	434	0	0			0	0			1				0	
6.6.1	win	2023-06-02	00:29:13	00:36:59	462144	5f579cc797c3ee2607f6e344	3	1	main_z	11	main_z	1	stimuli_target_squarediamonds.svg	stimuli_distractor_trianglediamonds.svg	4	yes	44	1	421	0	0			0	0			1				0	
6.6.1	win	2023-06-02	00:29:13	00:36:59	462144	5f579cc797c3ee2607f6e344	3	1	main_z	11	advance_on_keypress_ZEE	2	stimuli_target_squarediamonds.svg	stimuli_distractor_trianglediamonds.svg	4	yes	57	0	718	0	0			0	0			1				0	
6.6.1	win	2023-06-02	00:29:13	00:37:03	465503	5f579cc797c3ee2607f6e344	3	1	main_z	11	main_z	3	stimuli_distractor_trianglediamonds.svg	stimuli_distractor_trianglediamonds.svg	33	no	0	1	2000	0	0			0	0			1				0	
6.6.1	win	2023-06-02	00:29:13	00:37:03	465503	5f579cc797c3ee2607f6e344	3	1	main_z	11	advance_on_keypress_ZEE	4	stimuli_distractor_trianglediamonds.svg	stimuli_distractor_trianglediamonds.svg	33	no	57	0	634	0	0			0	0			1				0	
6.6.1	win	2023-06-02	00:29:13	00:37:05	467351	5f579cc797c3ee2607f6e344	3	1	main_z	11	main_z	5	stimuli_distractor_trianglediamonds.svg	stimuli_target_trianglesquares.svg	26	yes	44	1	568	0	0			0	0			1				0	
6.6.1	win	2023-06-02	00:29:13	00:37:05	467351	5f579cc797c3ee2607f6e344	3	1	main_z	11	advance_on_keypress_ZEE	6	stimuli_distractor_trianglediamonds.svg	stimuli_target_trianglesquares.svg	26	yes	57	0	600	0	0			0	0			1				0	
6.6.1	win	2023-06-02	00:29:13	00:37:07	469220	5f579cc797c3ee2607f6e344	3	1	main_z	11	main_z	7	stimuli_target_diamondrectangles.svg	stimuli_distractor_diamondtriangles.svg	23	yes	44	1	622	0	0			0	0			1				0	
6.6.1	win	2023-06-02	00:29:13	00:37:07	469220	5f579cc797c3ee2607f6e344	3	1	main_z	11	advance_on_keypress_ZEE	8	stimuli_target_diamondrectangles.svg	stimuli_distractor_diamondtriangles.svg	23	yes	57	0	788	0	0			0	0			1				0	
6.6.1	win	2023-06-02	00:29:13	00:37:09	471334	5f579cc797c3ee2607f6e344	3	1	main_z	11	main_z	9	stimuli_distractor_diamondtriangles.svg	stimuli_target_squarediamonds.svg	16	yes	44	1	689	0	0			0	0			1				0	
6.6.1	win	2023-06-02	00:29:13	00:37:09	471334	5f579cc797c3ee2607f6e344	3	1	main_z	11	advance_on_keypress_ZEE	10	stimuli_distractor_diamondtriangles.svg	stimuli_target_squarediamonds.svg	16	yes	57	0	1759	0	0			0	0			1				0	
6.6.1	win	2023-06-02	00:29:13	00:37:13	475726	5f579cc797c3ee2607f6e344	3	1	main_z	11	main_z	11	stimuli_distractor_trianglediamonds.svg	stimuli_distractor_diamondtriangles.svg	35	no	0	1	2000	0	0			0	0			1				0	
6.6.1	win	2023-06-02	00:29:13	00:37:13	475726	5f579cc797c3ee2607f6e344	3	1	main_z	11	advance_on_keypress_ZEE	12	stimuli_distractor_trianglediamonds.svg	stimuli_distractor_diamondtriangles.svg	35	no	57	0	2021	0	0			0	0			1				0	
6.6.1	win	2023-06-02	00:29:13	00:37:16	478852	5f579cc797c3ee2607f6e344	3	1	main_z	11	main_z	13	stimuli_target_rectangletriangles.svg	stimuli_distractor_diamondtriangles.svg	5	yes	44	1	463	0	0			0	0			1				0	
6.6.1	win	2023-06-02	00:29:13	00:37:16	478852	5f579cc797c3ee2607f6e344	3	1	main_z	11	advance_on_keypress_ZEE	14	stimuli_target_rectangletriangles.svg	stimuli_distractor_diamondtriangles.svg	5	yes	57	0	579	0	0			0	0			1				0	
6.6.1	win	2023-06-02	00:29:13	00:37:18	480458	5f579cc797c3ee2607f6e344	3	1	main_z	11	main_z	15	stimuli_distractor_trianglediamonds.svg	stimuli_target_squaretriangles.svg	11	yes	44	1	389	0	0			0	0			1				0	
6.6.1	win	2023-06-02	00:29:13	00:37:18	480458	5f579cc797c3ee2607f6e344	3	1	main_z	11	advance_on_keypress_ZEE	16	stimuli_distractor_trianglediamonds.svg	stimuli_target_squaretriangles.svg	11	yes	57	0	399	0	0			0	0			1				0	
6.6.1	win	2023-06-02	00:29:13	00:37:19	481986	5f579cc797c3ee2607f6e344	3	1	main_z	11	main_z	17	stimuli_target_trianglesquares.svg	stimuli_distractor_diamondtriangles.svg	22	yes	44	1	484	0	0			0	0			1				0	
6.6.1	win	2023-06-02	00:29:13	00:37:19	481986	5f579cc797c3ee2607f6e344	3	1	main_z	11	advance_on_keypress_ZEE	18	stimuli_target_trianglesquares.svg	stimuli_distractor_diamondtriangles.svg	22	yes	57	0	469	0	0			0	0			1				0	
6.6.1	win	2023-06-02	00:29:13	00:37:21	483552	5f579cc797c3ee2607f6e344	3	1	main_z	11	main_z	19	stimuli_target_trianglerectangles.svg	stimuli_distractor_diamondtriangles.svg	21	yes	44	1	451	0	0			0	0			1				0	
6.6.1	win	2023-06-02	00:29:13	00:37:21	483552	5f579cc797c3ee2607f6e344	3	1	main_z	11	advance_on_keypress_ZEE	20	stimuli_target_trianglerectangles.svg	stimuli_distractor_diamondtriangles.svg	21	yes	57	0	527	0	0			0	0			1				0	
6.6.1	win	2023-06-02	00:29:13	00:37:23	485212	5f579cc797c3ee2607f6e344	3	1	main_z	11	main_z	21	stimuli_target_squarediamonds.svg	stimuli_distractor_diamondtriangles.svg	8	yes	44	1	497	0	0			0	0			1				0	
6.6.1	win	2023-06-02	00:29:13	00:37:23	485212	5f579cc797c3ee2607f6e344	3	1	main_z	11	advance_on_keypress_ZEE	22	stimuli_target_squarediamonds.svg	stimuli_distractor_diamondtriangles.svg	8	yes	57	0	362	0	0			0	0			1				0	
6.6.1	win	2023-06-02	00:29:13	00:37:26	488214	5f579cc797c3ee2607f6e344	3	1	main_z	11	main_z	23	stimuli_distractor_trianglediamonds.svg	stimuli_target_trianglerectangles.svg	25	yes	0	0	2000	0	0			0	0			1				0	
6.6.1	win	2023-06-02	00:29:13	00:37:26	488214	5f579cc797c3ee2607f6e344	3	1	main_z	11	advance_on_keypress_ZEE	24	stimuli_distractor_trianglediamonds.svg	stimuli_target_trianglerectangles.svg	25	yes	57	0	661	0	0			0	0			1				0	
6.6.1	win	2023-06-02	00:29:13	00:37:29	491511	5f579cc797c3ee2607f6e344	3	1	main_z	11	main_z	25	stimuli_distractor_diamondtriangles.svg	stimuli_distractor_trianglediamonds.svg	37	no	0	1	2000	0	0			0	0			1				0	
6.6.1	win	2023-06-02	00:29:13	00:37:29	491511	5f579cc797c3ee2607f6e344	3	1	main_z	11	advance_on_keypress_ZEE	26	stimuli_distractor_diamondtriangles.svg	stimuli_distractor_trianglediamonds.svg	37	no	57	0	1035	0	0			0	0			1				0	
6.6.1	win	2023-06-02	00:29:13	00:37:31	493831	5f579cc797c3ee2607f6e344	3	1	main_z	11	main_z	27	stimuli_distractor_diamondtriangles.svg	stimuli_target_rectangletriangles.svg	13	yes	44	1	640	0	0			0	0			1				0	
6.6.1	win	2023-06-02	00:29:13	00:37:31	493831	5f579cc797c3ee2607f6e344	3	1	main_z	11	advance_on_keypress_ZEE	28	stimuli_distractor_diamondtriangles.svg	stimuli_target_rectangletriangles.svg	13	yes	57	0	689	0	0			0	0			1				0	
6.6.1	win	2023-06-02	00:29:13	00:37:33	495901	5f579cc797c3ee2607f6e344	3	1	main_z	11	main_z	29	stimuli_distractor_diamondtriangles.svg	stimuli_target_rectanglediamonds.svg	14	yes	44	1	745	0	0			0	0			1				0	
6.6.1	win	2023-06-02	00:29:13	00:37:33	495901	5f579cc797c3ee2607f6e344	3	1	main_z	11	advance_on_keypress_ZEE	30	stimuli_distractor_diamondtriangles.svg	stimuli_target_rectanglediamonds.svg	14	yes	57	0	344	0	0			0	0			1				0	
6.6.1	win	2023-06-02	00:29:13	00:37:35	497469	5f579cc797c3ee2607f6e344	3	1	main_z	11	main_z	31	stimuli_target_diamondsquares.svg	stimuli_distractor_diamondtriangles.svg	24	yes	44	1	583	0	0			0	0			1				0	
6.6.1	win	2023-06-02	00:29:13	00:37:35	497469	5f579cc797c3ee2607f6e344	3	1	main_z	11	advance_on_keypress_ZEE	32	stimuli_target_diamondsquares.svg	stimuli_distractor_diamondtriangles.svg	24	yes	57	0	318	0	0			0	0			1				0	
6.6.1	win	2023-06-02	00:29:13	00:37:37	499492	5f579cc797c3ee2607f6e344	3	1	main_z	11	main_z	33	stimuli_distractor_diamondtriangles.svg	stimuli_target_trianglerectangles.svg	29	yes	44	1	1057	0	0			0	0			1				0	
6.6.1	win	2023-06-02	00:29:13	00:37:37	499492	5f579cc797c3ee2607f6e344	3	1	main_z	11	advance_on_keypress_ZEE	34	stimuli_distractor_diamondtriangles.svg	stimuli_target_trianglerectangles.svg	29	yes	57	0	308	0	0			0	0			1				0	
6.6.1	win	2023-06-02	00:29:13	00:37:38	501065	5f579cc797c3ee2607f6e344	3	1	main_z	11	main_z	35	stimuli_distractor_diamondtriangles.svg	stimuli_target_squaretriangles.svg	15	yes	44	1	631	0	0			0	0			1				0	
6.6.1	win	2023-06-02	00:29:13	00:37:38	501065	5f579cc797c3ee2607f6e344	3	1	main_z	11	advance_on_keypress_ZEE	36	stimuli_distractor_diamondtriangles.svg	stimuli_target_squaretriangles.svg	15	yes	57	0	297	0	0			0	0			1				0	
6.6.1	win	2023-06-02	00:29:13	00:37:40	502558	5f579cc797c3ee2607f6e344	3	1	main_z	11	main_z	37	stimuli_distractor_diamondtriangles.svg	stimuli_target_diamondrectangles.svg	31	yes	44	1	543	0	0			0	0			1				0	
6.6.1	win	2023-06-02	00:29:13	00:37:40	502558	5f579cc797c3ee2607f6e344	3	1	main_z	11	advance_on_keypress_ZEE	38	stimuli_distractor_diamondtriangles.svg	stimuli_target_diamondrectangles.svg	31	yes	57	0	221	0	0			0	0			1				0	
6.6.1	win	2023-06-02	00:29:13	00:37:41	503899	5f579cc797c3ee2607f6e344	3	1	main_z	11	main_z	39	stimuli_target_trianglerectangles.svg	stimuli_distractor_trianglediamonds.svg	17	yes	44	1	468	0	0			0	0			1				0	
6.6.1	win	2023-06-02	00:29:13	00:37:41	503899	5f579cc797c3ee2607f6e344	3	1	main_z	11	advance_on_keypress_ZEE	40	stimuli_target_trianglerectangles.svg	stimuli_distractor_trianglediamonds.svg	17	yes	57	0	215	0	0			0	0			1				0	
6.6.1	win	2023-06-02	00:29:13	00:37:43	505170	5f579cc797c3ee2607f6e344	3	1	main_z	11	main_z	41	stimuli_target_diamondsquares.svg	stimuli_distractor_trianglediamonds.svg	20	yes	44	1	407	0	0			0	0			1				0	
6.6.1	win	2023-06-02	00:29:13	00:37:43	505170	5f579cc797c3ee2607f6e344	3	1	main_z	11	advance_on_keypress_ZEE	42	stimuli_target_diamondsquares.svg	stimuli_distractor_trianglediamonds.svg	20	yes	57	0	246	0	0			0	0			1				0	
6.6.1	win	2023-06-02	00:29:13	00:37:44	506527	5f579cc797c3ee2607f6e344	3	1	main_z	11	main_z	43	stimuli_distractor_trianglediamonds.svg	stimuli_target_diamondsquares.svg	28	yes	44	1	465	0	0			0	0			1				0	
6.6.1	win	2023-06-02	00:29:13	00:37:44	506527	5f579cc797c3ee2607f6e344	3	1	main_z	11	advance_on_keypress_ZEE	44	stimuli_distractor_trianglediamonds.svg	stimuli_target_diamondsquares.svg	28	yes	57	0	225	0	0			0	0			1				0	
6.6.1	win	2023-06-02	00:29:13	00:37:45	508119	5f579cc797c3ee2607f6e344	3	1	main_z	11	main_z	45	stimuli_distractor_diamondtriangles.svg	stimuli_distractor_trianglediamonds.svg	38	no	44	0	710	0	0			0	0			1				0	
6.6.1	win	2023-06-02	00:29:13	00:37:45	508119	5f579cc797c3ee2607f6e344	3	1	main_z	11	advance_on_keypress_ZEE	46	stimuli_distractor_diamondtriangles.svg	stimuli_distractor_trianglediamonds.svg	38	no	57	0	615	0	0			0	0			1				0	
6.6.1	win	2023-06-02	00:29:13	00:37:49	511375	5f579cc797c3ee2607f6e344	3	1	main_z	11	main_z	47	stimuli_distractor_trianglediamonds.svg	stimuli_distractor_trianglediamonds.svg	34	no	0	1	2000	0	0			0	0			1				0	
6.6.1	win	2023-06-02	00:29:13	00:37:49	511375	5f579cc797c3ee2607f6e344	3	1	main_z	11	advance_on_keypress_ZEE	48	stimuli_distractor_trianglediamonds.svg	stimuli_distractor_trianglediamonds.svg	34	no	57	0	455	0	0			0	0			1				0	
6.6.1	win	2023-06-02	00:29:13	00:37:50	512963	5f579cc797c3ee2607f6e344	3	1	main_z	11	main_z	49	stimuli_target_trianglesquares.svg	stimuli_distractor_trianglediamonds.svg	18	yes	44	1	491	0	0			0	0			1				0	
6.6.1	win	2023-06-02	00:29:13	00:37:50	512963	5f579cc797c3ee2607f6e344	3	1	main_z	11	advance_on_keypress_ZEE	50	stimuli_target_trianglesquares.svg	stimuli_distractor_trianglediamonds.svg	18	yes	57	0	332	0	0			0	0			1				0	
6.6.1	win	2023-06-02	00:29:13	00:37:52	514640	5f579cc797c3ee2607f6e344	3	1	main_z	11	main_z	51	stimuli_target_squaretriangles.svg	stimuli_distractor_trianglediamonds.svg	3	yes	44	1	703	0	0			0	0			1				0	
6.6.1	win	2023-06-02	00:29:13	00:37:52	514640	5f579cc797c3ee2607f6e344	3	1	main_z	11	advance_on_keypress_ZEE	52	stimuli_target_squaretriangles.svg	stimuli_distractor_trianglediamonds.svg	3	yes	57	0	499	0	0			0	0			1				0	
6.6.1	win	2023-06-02	00:29:13	00:37:54	516487	5f579cc797c3ee2607f6e344	3	1	main_z	11	main_z	53	stimuli_target_diamondrectangles.svg	stimuli_distractor_trianglediamonds.svg	19	yes	44	1	702	0	0			0	0			1				0	
6.6.1	win	2023-06-02	00:29:13	00:37:54	516487	5f579cc797c3ee2607f6e344	3	1	main_z	11	advance_on_keypress_ZEE	54	stimuli_target_diamondrectangles.svg	stimuli_distractor_trianglediamonds.svg	19	yes	57	0	413	0	0			0	0			1				0	
6.6.1	win	2023-06-02	00:29:13	00:37:55	517934	5f579cc797c3ee2607f6e344	3	1	main_z	11	main_z	55	stimuli_distractor_diamondtriangles.svg	stimuli_target_trianglesquares.svg	30	yes	44	1	401	0	0			0	0			1				0	
6.6.1	win	2023-06-02	00:29:13	00:37:55	517934	5f579cc797c3ee2607f6e344	3	1	main_z	11	advance_on_keypress_ZEE	56	stimuli_distractor_diamondtriangles.svg	stimuli_target_trianglesquares.svg	30	yes	57	0	309	0	0			0	0			1				0	
6.6.1	win	2023-06-02	00:29:13	00:37:58	520882	5f579cc797c3ee2607f6e344	3	1	main_z	11	main_z	57	stimuli_distractor_diamondtriangles.svg	stimuli_distractor_diamondtriangles.svg	40	no	0	1	2000	0	0			0	0			1				0	
6.6.1	win	2023-06-02	00:29:13	00:37:58	520882	5f579cc797c3ee2607f6e344	3	1	main_z	11	advance_on_keypress_ZEE	58	stimuli_distractor_diamondtriangles.svg	stimuli_distractor_diamondtriangles.svg	40	no	57	0	2899	0	0			0	0			1				0	
6.6.1	win	2023-06-02	00:29:13	00:38:02	524852	5f579cc797c3ee2607f6e344	3	1	main_z	11	main_z	59	stimuli_distractor_trianglediamonds.svg	stimuli_target_rectanglediamonds.svg	10	yes	44	1	426	0	0			0	0			1				0	
6.6.1	win	2023-06-02	00:29:13	00:38:02	524852	5f579cc797c3ee2607f6e344	3	1	main_z	11	advance_on_keypress_ZEE	60	stimuli_distractor_trianglediamonds.svg	stimuli_target_rectanglediamonds.svg	10	yes	57	0	419	0	0			0	0			1				0	
6.6.1	win	2023-06-02	00:29:13	00:38:05	527909	5f579cc797c3ee2607f6e344	3	1	main_z	11	main_z	61	stimuli_distractor_diamondtriangles.svg	stimuli_distractor_diamondtriangles.svg	39	no	0	1	2000	0	0			0	0			1				0	
6.6.1	win	2023-06-02	00:29:13	00:38:05	527909	5f579cc797c3ee2607f6e344	3	1	main_z	11	advance_on_keypress_ZEE	62	stimuli_distractor_diamondtriangles.svg	stimuli_distractor_diamondtriangles.svg	39	no	57	0	664	0	0			0	0			1				0	
6.6.1	win	2023-06-02	00:29:13	00:38:07	529617	5f579cc797c3ee2607f6e344	3	1	main_z	11	main_z	63	stimuli_distractor_diamondtriangles.svg	stimuli_target_diamondsquares.svg	32	yes	44	1	395	0	0			0	0			1				0	
6.6.1	win	2023-06-02	00:29:13	00:38:07	529617	5f579cc797c3ee2607f6e344	3	1	main_z	11	advance_on_keypress_ZEE	64	stimuli_distractor_diamondtriangles.svg	stimuli_target_diamondsquares.svg	32	yes	57	0	381	0	0			0	0			1				0	
6.6.1	win	2023-06-02	00:29:13	00:38:09	531228	5f579cc797c3ee2607f6e344	3	1	main_z	11	main_z	65	stimuli_distractor_trianglediamonds.svg	stimuli_target_rectangletriangles.svg	9	yes	44	1	591	0	0			0	0			1				0	
6.6.1	win	2023-06-02	00:29:13	00:38:09	531228	5f579cc797c3ee2607f6e344	3	1	main_z	11	advance_on_keypress_ZEE	66	stimuli_distractor_trianglediamonds.svg	stimuli_target_rectangletriangles.svg	9	yes	57	0	392	0	0			0	0			1				0	
6.6.1	win	2023-06-02	00:29:13	00:38:10	532576	5f579cc797c3ee2607f6e344	3	1	main_z	11	main_z	67	stimuli_target_rectangletriangles.svg	stimuli_distractor_trianglediamonds.svg	1	yes	44	1	324	0	0			0	0			1				0	
6.6.1	win	2023-06-02	00:29:13	00:38:10	532576	5f579cc797c3ee2607f6e344	3	1	main_z	11	advance_on_keypress_ZEE	68	stimuli_target_rectangletriangles.svg	stimuli_distractor_trianglediamonds.svg	1	yes	57	0	410	0	0			0	0			1				0	
6.6.1	win	2023-06-02	00:29:13	00:38:11	533918	5f579cc797c3ee2607f6e344	3	1	main_z	11	main_z	69	stimuli_target_rectanglediamonds.svg	stimuli_distractor_trianglediamonds.svg	2	yes	44	1	301	0	0			0	0			1				0	
6.6.1	win	2023-06-02	00:29:13	00:38:11	533918	5f579cc797c3ee2607f6e344	3	1	main_z	11	advance_on_keypress_ZEE	70	stimuli_target_rectanglediamonds.svg	stimuli_distractor_trianglediamonds.svg	2	yes	57	0	390	0	0			0	0			1				0	
6.6.1	win	2023-06-02	00:29:13	00:38:13	535239	5f579cc797c3ee2607f6e344	3	1	main_z	11	main_z	71	stimuli_target_rectanglediamonds.svg	stimuli_distractor_diamondtriangles.svg	6	yes	44	1	289	0	0			0	0			1				0	
6.6.1	win	2023-06-02	00:29:13	00:38:13	535239	5f579cc797c3ee2607f6e344	3	1	main_z	11	advance_on_keypress_ZEE	72	stimuli_target_rectanglediamonds.svg	stimuli_distractor_diamondtriangles.svg	6	yes	57	0	402	0	0			0	0			1				0	
6.6.1	win	2023-06-02	00:29:13	00:38:14	536780	5f579cc797c3ee2607f6e344	3	1	main_z	11	main_z	73	stimuli_distractor_trianglediamonds.svg	stimuli_target_diamondrectangles.svg	27	yes	44	1	499	0	0			0	0			1				0	
6.6.1	win	2023-06-02	00:29:13	00:38:14	536780	5f579cc797c3ee2607f6e344	3	1	main_z	11	advance_on_keypress_ZEE	74	stimuli_distractor_trianglediamonds.svg	stimuli_target_diamondrectangles.svg	27	yes	57	0	346	0	0			0	0			1				0	
6.6.1	win	2023-06-02	00:29:13	00:38:15	538115	5f579cc797c3ee2607f6e344	3	1	main_z	11	main_z	75	stimuli_target_squaretriangles.svg	stimuli_distractor_diamondtriangles.svg	7	yes	44	1	334	0	0			0	0			1				0	
6.6.1	win	2023-06-02	00:29:13	00:38:15	538115	5f579cc797c3ee2607f6e344	3	1	main_z	11	advance_on_keypress_ZEE	76	stimuli_target_squaretriangles.svg	stimuli_distractor_diamondtriangles.svg	7	yes	57	0	343	0	0			0	0			1				0	
6.6.1	win	2023-06-02	00:29:13	00:38:18	541095	5f579cc797c3ee2607f6e344	3	1	main_z	11	main_z	77	stimuli_distractor_trianglediamonds.svg	stimuli_distractor_diamondtriangles.svg	36	no	0	1	2000	0	0			0	0			1				0	
6.6.1	win	2023-06-02	00:29:13	00:38:18	541095	5f579cc797c3ee2607f6e344	3	1	main_z	11	advance_on_keypress_ZEE	78	stimuli_distractor_trianglediamonds.svg	stimuli_distractor_diamondtriangles.svg	36	no	57	0	650	0	0			0	0			1				0	
6.6.1	win	2023-06-02	00:29:13	00:38:20	542892	5f579cc797c3ee2607f6e344	3	1	main_z	11	main_z	79	stimuli_distractor_trianglediamonds.svg	stimuli_target_squarediamonds.svg	12	yes	44	1	500	0	0			0	0			1				0	
6.6.1	win	2023-06-02	00:29:13	00:38:20	542892	5f579cc797c3ee2607f6e344	3	1	main_z	11	advance_on_keypress_ZEE	80	stimuli_distractor_trianglediamonds.svg	stimuli_target_squarediamonds.svg	12	yes	57	0	369	0	0			0	0			1				0	
6.6.1	win	2023-06-02	00:29:13	00:38:22	544322	5f579cc797c3ee2607f6e344	3	1	main_z	11	main_z	81	stimuli_target_diamondsquares.svg	stimuli_distractor_trianglediamonds.svg	20	yes	44	1	414	0	0			0	0			1				0	
6.6.1	win	2023-06-02	00:29:13	00:38:22	544322	5f579cc797c3ee2607f6e344	3	1	main_z	11	advance_on_keypress_ZEE	82	stimuli_target_diamondsquares.svg	stimuli_distractor_trianglediamonds.svg	20	yes	57	0	419	0	0			0	0			1				0	
6.6.1	win	2023-06-02	00:29:13	00:38:23	545941	5f579cc797c3ee2607f6e344	3	1	main_z	11	main_z	83	stimuli_distractor_trianglediamonds.svg	stimuli_target_diamondsquares.svg	28	yes	44	1	552	0	0			0	0			1				0	
6.6.1	win	2023-06-02	00:29:13	00:38:23	545941	5f579cc797c3ee2607f6e344	3	1	main_z	11	advance_on_keypress_ZEE	84	stimuli_distractor_trianglediamonds.svg	stimuli_target_diamondsquares.svg	28	yes	57	0	330	0	0			0	0			1				0	
6.6.1	win	2023-06-02	00:29:13	00:38:25	547420	5f579cc797c3ee2607f6e344	3	1	main_z	11	main_z	85	stimuli_distractor_trianglediamonds.svg	stimuli_target_rectangletriangles.svg	9	yes	44	1	502	0	0			0	0			1				0	
6.6.1	win	2023-06-02	00:29:13	00:38:25	547420	5f579cc797c3ee2607f6e344	3	1	main_z	11	advance_on_keypress_ZEE	86	stimuli_distractor_trianglediamonds.svg	stimuli_target_rectangletriangles.svg	9	yes	57	0	288	0	0			0	0			1				0	
6.6.1	win	2023-06-02	00:29:13	00:38:26	548787	5f579cc797c3ee2607f6e344	3	1	main_z	11	main_z	87	stimuli_target_trianglerectangles.svg	stimuli_distractor_trianglediamonds.svg	17	yes	44	1	433	0	0			0	0			1				0	
6.6.1	win	2023-06-02	00:29:13	00:38:26	548787	5f579cc797c3ee2607f6e344	3	1	main_z	11	advance_on_keypress_ZEE	88	stimuli_target_trianglerectangles.svg	stimuli_distractor_trianglediamonds.svg	17	yes	57	0	331	0	0			0	0			1				0	
6.6.1	win	2023-06-02	00:29:13	00:38:28	550291	5f579cc797c3ee2607f6e344	3	1	main_z	11	main_z	89	stimuli_target_rectanglediamonds.svg	stimuli_distractor_trianglediamonds.svg	2	yes	44	1	523	0	0			0	0			1				0	
6.6.1	win	2023-06-02	00:29:13	00:38:28	550291	5f579cc797c3ee2607f6e344	3	1	main_z	11	advance_on_keypress_ZEE	90	stimuli_target_rectanglediamonds.svg	stimuli_distractor_trianglediamonds.svg	2	yes	57	0	310	0	0			0	0			1				0	
6.6.1	win	2023-06-02	00:29:13	00:38:29	551627	5f579cc797c3ee2607f6e344	3	1	main_z	11	main_z	91	stimuli_target_squarediamonds.svg	stimuli_distractor_diamondtriangles.svg	8	yes	44	1	394	0	0			0	0			1				0	
6.6.1	win	2023-06-02	00:29:13	00:38:29	551627	5f579cc797c3ee2607f6e344	3	1	main_z	11	advance_on_keypress_ZEE	92	stimuli_target_squarediamonds.svg	stimuli_distractor_diamondtriangles.svg	8	yes	57	0	282	0	0			0	0			1				0	
6.6.1	win	2023-06-02	00:29:13	00:38:30	553065	5f579cc797c3ee2607f6e344	3	1	main_z	11	main_z	93	stimuli_distractor_trianglediamonds.svg	stimuli_target_squaretriangles.svg	11	yes	44	1	510	0	0			0	0			1				0	
6.6.1	win	2023-06-02	00:29:13	00:38:30	553065	5f579cc797c3ee2607f6e344	3	1	main_z	11	advance_on_keypress_ZEE	94	stimuli_distractor_trianglediamonds.svg	stimuli_target_squaretriangles.svg	11	yes	57	0	753	0	0			0	0			1				0	
6.6.1	win	2023-06-02	00:29:13	00:38:32	554846	5f579cc797c3ee2607f6e344	3	1	main_z	11	main_z	95	stimuli_target_trianglesquares.svg	stimuli_distractor_trianglediamonds.svg	18	yes	44	1	382	0	0			0	0			1				0	
6.6.1	win	2023-06-02	00:29:13	00:38:32	554846	5f579cc797c3ee2607f6e344	3	1	main_z	11	advance_on_keypress_ZEE	96	stimuli_target_trianglesquares.svg	stimuli_distractor_trianglediamonds.svg	18	yes	57	0	328	0	0			0	0			1				0	
6.6.1	win	2023-06-02	00:29:13	00:38:33	556122	5f579cc797c3ee2607f6e344	3	1	main_z	11	main_z	97	stimuli_distractor_diamondtriangles.svg	stimuli_distractor_diamondtriangles.svg	39	no	44	0	310	0	0			0	0			1				0	
6.6.1	win	2023-06-02	00:29:13	00:38:33	556122	5f579cc797c3ee2607f6e344	3	1	main_z	11	advance_on_keypress_ZEE	98	stimuli_distractor_diamondtriangles.svg	stimuli_distractor_diamondtriangles.svg	39	no	57	0	1046	0	0			0	0			1				0	
6.6.1	win	2023-06-02	00:29:13	00:38:36	558292	5f579cc797c3ee2607f6e344	3	1	main_z	11	main_z	99	stimuli_distractor_trianglediamonds.svg	stimuli_target_diamondrectangles.svg	27	yes	44	1	481	0	0			0	0			1				0	
6.6.1	win	2023-06-02	00:29:13	00:38:36	558292	5f579cc797c3ee2607f6e344	3	1	main_z	11	advance_on_keypress_ZEE	100	stimuli_distractor_trianglediamonds.svg	stimuli_target_diamondrectangles.svg	27	yes	57	0	427	0	0			0	0			1				0	
6.6.1	win	2023-06-02	00:29:13	00:38:39	561359	5f579cc797c3ee2607f6e344	3	1	main_z	11	main_z	101	stimuli_distractor_trianglediamonds.svg	stimuli_distractor_diamondtriangles.svg	35	no	0	1	2000	0	0			0	0			1				0	
6.6.1	win	2023-06-02	00:29:13	00:38:39	561359	5f579cc797c3ee2607f6e344	3	1	main_z	11	advance_on_keypress_ZEE	102	stimuli_distractor_trianglediamonds.svg	stimuli_distractor_diamondtriangles.svg	35	no	57	0	908	0	0			0	0			1				0	
6.6.1	win	2023-06-02	00:29:13	00:38:41	563332	5f579cc797c3ee2607f6e344	3	1	main_z	11	main_z	103	stimuli_target_diamondrectangles.svg	stimuli_distractor_diamondtriangles.svg	23	yes	44	1	427	0	0			0	0			1				0	
6.6.1	win	2023-06-02	00:29:13	00:38:41	563332	5f579cc797c3ee2607f6e344	3	1	main_z	11	advance_on_keypress_ZEE	104	stimuli_target_diamondrectangles.svg	stimuli_distractor_diamondtriangles.svg	23	yes	57	0	366	0	0			0	0			1				0	
6.6.1	win	2023-06-02	00:29:13	00:38:42	564882	5f579cc797c3ee2607f6e344	3	1	main_z	11	main_z	105	stimuli_distractor_diamondtriangles.svg	stimuli_target_trianglerectangles.svg	29	yes	44	1	544	0	0			0	0			1				0	
6.6.1	win	2023-06-02	00:29:13	00:38:42	564882	5f579cc797c3ee2607f6e344	3	1	main_z	11	advance_on_keypress_ZEE	106	stimuli_distractor_diamondtriangles.svg	stimuli_target_trianglerectangles.svg	29	yes	57	0	323	0	0			0	0			1				0	
6.6.1	win	2023-06-02	00:29:13	00:38:44	566309	5f579cc797c3ee2607f6e344	3	1	main_z	11	main_z	107	stimuli_distractor_trianglediamonds.svg	stimuli_target_squarediamonds.svg	12	yes	44	1	472	0	0			0	0			1				0	
6.6.1	win	2023-06-02	00:29:13	00:38:44	566309	5f579cc797c3ee2607f6e344	3	1	main_z	11	advance_on_keypress_ZEE	108	stimuli_distractor_trianglediamonds.svg	stimuli_target_squarediamonds.svg	12	yes	57	0	353	0	0			0	0			1				0	
6.6.1	win	2023-06-02	00:29:13	00:38:45	567684	5f579cc797c3ee2607f6e344	3	1	main_z	11	main_z	109	stimuli_target_rectangletriangles.svg	stimuli_distractor_trianglediamonds.svg	1	yes	44	1	374	0	0			0	0			1				0	
6.6.1	win	2023-06-02	00:29:13	00:38:45	567684	5f579cc797c3ee2607f6e344	3	1	main_z	11	advance_on_keypress_ZEE	110	stimuli_target_rectangletriangles.svg	stimuli_distractor_trianglediamonds.svg	1	yes	57	0	283	0	0			0	0			1				0	
6.6.1	win	2023-06-02	00:29:13	00:38:48	570617	5f579cc797c3ee2607f6e344	3	1	main_z	11	main_z	111	stimuli_distractor_diamondtriangles.svg	stimuli_distractor_trianglediamonds.svg	38	no	0	1	2000	0	0			0	0			1				0	
6.6.1	win	2023-06-02	00:29:13	00:38:48	570617	5f579cc797c3ee2607f6e344	3	1	main_z	11	advance_on_keypress_ZEE	112	stimuli_distractor_diamondtriangles.svg	stimuli_distractor_trianglediamonds.svg	38	no	57	0	972	0	0			0	0			1				0	
6.6.1	win	2023-06-02	00:29:13	00:38:50	572634	5f579cc797c3ee2607f6e344	3	1	main_z	11	main_z	113	stimuli_target_diamondsquares.svg	stimuli_distractor_diamondtriangles.svg	24	yes	44	1	404	0	0			0	0			1				0	
6.6.1	win	2023-06-02	00:29:13	00:38:50	572634	5f579cc797c3ee2607f6e344	3	1	main_z	11	advance_on_keypress_ZEE	114	stimuli_target_diamondsquares.svg	stimuli_distractor_diamondtriangles.svg	24	yes	57	0	377	0	0			0	0			1				0	
6.6.1	win	2023-06-02	00:29:13	00:38:53	575645	5f579cc797c3ee2607f6e344	3	1	main_z	11	main_z	115	stimuli_distractor_diamondtriangles.svg	stimuli_distractor_diamondtriangles.svg	40	no	0	1	2000	0	0			0	0			1				0	
6.6.1	win	2023-06-02	00:29:13	00:38:53	575645	5f579cc797c3ee2607f6e344	3	1	main_z	11	advance_on_keypress_ZEE	116	stimuli_distractor_diamondtriangles.svg	stimuli_distractor_diamondtriangles.svg	40	no	57	0	323	0	0			0	0			1				0	
6.6.1	win	2023-06-02	00:29:13	00:38:54	577056	5f579cc797c3ee2607f6e344	3	1	main_z	11	main_z	117	stimuli_distractor_trianglediamonds.svg	stimuli_target_trianglerectangles.svg	25	yes	44	1	447	0	0			0	0			1				0	
6.6.1	win	2023-06-02	00:29:13	00:38:54	577056	5f579cc797c3ee2607f6e344	3	1	main_z	11	advance_on_keypress_ZEE	118	stimuli_distractor_trianglediamonds.svg	stimuli_target_trianglerectangles.svg	25	yes	57	0	371	0	0			0	0			1				0	
6.6.1	win	2023-06-02	00:29:13	00:38:56	578459	5f579cc797c3ee2607f6e344	3	1	main_z	11	main_z	119	stimuli_target_rectangletriangles.svg	stimuli_distractor_diamondtriangles.svg	5	yes	44	1	385	0	0			0	0			1				0	
6.6.1	win	2023-06-02	00:29:13	00:38:56	578459	5f579cc797c3ee2607f6e344	3	1	main_z	11	advance_on_keypress_ZEE	120	stimuli_target_rectangletriangles.svg	stimuli_distractor_diamondtriangles.svg	5	yes	57	0	312	0	0			0	0			1				0	
6.6.1	win	2023-06-02	00:29:13	00:38:57	579762	5f579cc797c3ee2607f6e344	3	1	main_z	11	main_z	121	stimuli_distractor_diamondtriangles.svg	stimuli_target_rectanglediamonds.svg	14	yes	44	1	356	0	0			0	0			1				0	
6.6.1	win	2023-06-02	00:29:13	00:38:57	579762	5f579cc797c3ee2607f6e344	3	1	main_z	11	advance_on_keypress_ZEE	122	stimuli_distractor_diamondtriangles.svg	stimuli_target_rectanglediamonds.svg	14	yes	57	0	337	0	0			0	0			1				0	
6.6.1	win	2023-06-02	00:29:13	00:38:58	581151	5f579cc797c3ee2607f6e344	3	1	main_z	11	main_z	123	stimuli_distractor_diamondtriangles.svg	stimuli_target_diamondrectangles.svg	31	yes	44	1	414	0	0			0	0			1				0	
6.6.1	win	2023-06-02	00:29:13	00:38:58	581151	5f579cc797c3ee2607f6e344	3	1	main_z	11	advance_on_keypress_ZEE	124	stimuli_distractor_diamondtriangles.svg	stimuli_target_diamondrectangles.svg	31	yes	57	0	327	0	0			0	0			1				0	
6.6.1	win	2023-06-02	00:29:13	00:39:00	582584	5f579cc797c3ee2607f6e344	3	1	main_z	11	main_z	125	stimuli_distractor_diamondtriangles.svg	stimuli_target_squarediamonds.svg	16	yes	44	1	464	0	0			0	0			1				0	
6.6.1	win	2023-06-02	00:29:13	00:39:00	582584	5f579cc797c3ee2607f6e344	3	1	main_z	11	advance_on_keypress_ZEE	126	stimuli_distractor_diamondtriangles.svg	stimuli_target_squarediamonds.svg	16	yes	57	0	365	0	0			0	0			1				0	
6.6.1	win	2023-06-02	00:29:13	00:39:02	584198	5f579cc797c3ee2607f6e344	3	1	main_z	11	main_z	127	stimuli_distractor_trianglediamonds.svg	stimuli_target_rectanglediamonds.svg	10	yes	44	1	596	0	0			0	0			1				0	
6.6.1	win	2023-06-02	00:29:13	00:39:02	584198	5f579cc797c3ee2607f6e344	3	1	main_z	11	advance_on_keypress_ZEE	128	stimuli_distractor_trianglediamonds.svg	stimuli_target_rectanglediamonds.svg	10	yes	57	0	318	0	0			0	0			1				0	
6.6.1	win	2023-06-02	00:29:13	00:39:03	585635	5f579cc797c3ee2607f6e344	3	1	main_z	11	main_z	129	stimuli_distractor_trianglediamonds.svg	stimuli_target_trianglesquares.svg	26	yes	44	1	467	0	0			0	0			1				0	
6.6.1	win	2023-06-02	00:29:13	00:39:03	585635	5f579cc797c3ee2607f6e344	3	1	main_z	11	advance_on_keypress_ZEE	130	stimuli_distractor_trianglediamonds.svg	stimuli_target_trianglesquares.svg	26	yes	57	0	315	0	0			0	0			1				0	
6.6.1	win	2023-06-02	00:29:13	00:39:05	587237	5f579cc797c3ee2607f6e344	3	1	main_z	11	main_z	131	stimuli_distractor_diamondtriangles.svg	stimuli_target_rectangletriangles.svg	13	yes	44	1	638	0	0			0	0			1				0	
6.6.1	win	2023-06-02	00:29:13	00:39:05	587237	5f579cc797c3ee2607f6e344	3	1	main_z	11	advance_on_keypress_ZEE	132	stimuli_distractor_diamondtriangles.svg	stimuli_target_rectangletriangles.svg	13	yes	57	0	349	0	0			0	0			1				0	
6.6.1	win	2023-06-02	00:29:13	00:39:06	588577	5f579cc797c3ee2607f6e344	3	1	main_z	11	main_z	133	stimuli_target_squaretriangles.svg	stimuli_distractor_trianglediamonds.svg	3	yes	44	1	346	0	0			0	0			1				0	
6.6.1	win	2023-06-02	00:29:13	00:39:06	588577	5f579cc797c3ee2607f6e344	3	1	main_z	11	advance_on_keypress_ZEE	134	stimuli_target_squaretriangles.svg	stimuli_distractor_trianglediamonds.svg	3	yes	57	0	318	0	0			0	0			1				0	
6.6.1	win	2023-06-02	00:29:13	00:39:09	591546	5f579cc797c3ee2607f6e344	3	1	main_z	11	main_z	135	stimuli_distractor_trianglediamonds.svg	stimuli_distractor_trianglediamonds.svg	34	no	0	1	2000	0	0			0	0			1				0	
6.6.1	win	2023-06-02	00:29:13	00:39:09	591546	5f579cc797c3ee2607f6e344	3	1	main_z	11	advance_on_keypress_ZEE	136	stimuli_distractor_trianglediamonds.svg	stimuli_distractor_trianglediamonds.svg	34	no	57	0	738	0	0			0	0			1				0	
6.6.1	win	2023-06-02	00:29:13	00:39:11	593674	5f579cc797c3ee2607f6e344	3	1	main_z	11	main_z	137	stimuli_distractor_diamondtriangles.svg	stimuli_distractor_trianglediamonds.svg	37	no	44	0	747	0	0			0	0			1				0	
6.6.1	win	2023-06-02	00:29:13	00:39:11	593674	5f579cc797c3ee2607f6e344	3	1	main_z	11	advance_on_keypress_ZEE	138	stimuli_distractor_diamondtriangles.svg	stimuli_distractor_trianglediamonds.svg	37	no	57	0	360	0	0			0	0			1				0	
6.6.1	win	2023-06-02	00:29:13	00:39:12	595118	5f579cc797c3ee2607f6e344	3	1	main_z	11	main_z	139	stimuli_distractor_diamondtriangles.svg	stimuli_target_trianglesquares.svg	30	yes	44	1	444	0	0			0	0			1				0	
6.6.1	win	2023-06-02	00:29:13	00:39:12	595118	5f579cc797c3ee2607f6e344	3	1	main_z	11	advance_on_keypress_ZEE	140	stimuli_distractor_diamondtriangles.svg	stimuli_target_trianglesquares.svg	30	yes	57	0	295	0	0			0	0			1				0	
6.6.1	win	2023-06-02	00:29:13	00:39:14	596452	5f579cc797c3ee2607f6e344	3	1	main_z	11	main_z	141	stimuli_target_diamondrectangles.svg	stimuli_distractor_trianglediamonds.svg	19	yes	44	1	412	0	0			0	0			1				0	
6.6.1	win	2023-06-02	00:29:13	00:39:14	596452	5f579cc797c3ee2607f6e344	3	1	main_z	11	advance_on_keypress_ZEE	142	stimuli_target_diamondrectangles.svg	stimuli_distractor_trianglediamonds.svg	19	yes	57	0	289	0	0			0	0			1				0	
6.6.1	win	2023-06-02	00:29:13	00:39:15	597905	5f579cc797c3ee2607f6e344	3	1	main_z	11	main_z	143	stimuli_target_trianglesquares.svg	stimuli_distractor_diamondtriangles.svg	22	yes	44	1	534	0	0			0	0			1				0	
6.6.1	win	2023-06-02	00:29:13	00:39:15	597905	5f579cc797c3ee2607f6e344	3	1	main_z	11	advance_on_keypress_ZEE	144	stimuli_target_trianglesquares.svg	stimuli_distractor_diamondtriangles.svg	22	yes	57	0	240	0	0			0	0			1				0	
6.6.1	win	2023-06-02	00:29:13	00:39:17	599387	5f579cc797c3ee2607f6e344	3	1	main_z	11	main_z	145	stimuli_distractor_diamondtriangles.svg	stimuli_target_diamondsquares.svg	32	yes	44	1	599	0	0			0	0			1				0	
6.6.1	win	2023-06-02	00:29:13	00:39:17	599387	5f579cc797c3ee2607f6e344	3	1	main_z	11	advance_on_keypress_ZEE	146	stimuli_distractor_diamondtriangles.svg	stimuli_target_diamondsquares.svg	32	yes	57	0	246	0	0			0	0			1				0	
6.6.1	win	2023-06-02	00:29:13	00:39:18	600669	5f579cc797c3ee2607f6e344	3	1	main_z	11	main_z	147	stimuli_target_rectanglediamonds.svg	stimuli_distractor_diamondtriangles.svg	6	yes	44	1	401	0	0			0	0			1				0	
6.6.1	win	2023-06-02	00:29:13	00:39:18	600669	5f579cc797c3ee2607f6e344	3	1	main_z	11	advance_on_keypress_ZEE	148	stimuli_target_rectanglediamonds.svg	stimuli_distractor_diamondtriangles.svg	6	yes	57	0	321	0	0			0	0			1				0	
6.6.1	win	2023-06-02	00:29:13	00:39:21	603634	5f579cc797c3ee2607f6e344	3	1	main_z	11	main_z	149	stimuli_distractor_trianglediamonds.svg	stimuli_distractor_trianglediamonds.svg	33	no	0	1	2000	0	0			0	0			1				0	
6.6.1	win	2023-06-02	00:29:13	00:39:21	603634	5f579cc797c3ee2607f6e344	3	1	main_z	11	advance_on_keypress_ZEE	150	stimuli_distractor_trianglediamonds.svg	stimuli_distractor_trianglediamonds.svg	33	no	57	0	313	0	0			0	0			1				0	
6.6.1	win	2023-06-02	00:29:13	00:39:22	605064	5f579cc797c3ee2607f6e344	3	1	main_z	11	main_z	151	stimuli_target_squaretriangles.svg	stimuli_distractor_diamondtriangles.svg	7	yes	44	1	467	0	0			0	0			1				0	
6.6.1	win	2023-06-02	00:29:13	00:39:22	605064	5f579cc797c3ee2607f6e344	3	1	main_z	11	advance_on_keypress_ZEE	152	stimuli_target_squaretriangles.svg	stimuli_distractor_diamondtriangles.svg	7	yes	57	0	254	0	0			0	0			1				0	
6.6.1	win	2023-06-02	00:29:13	00:39:24	606368	5f579cc797c3ee2607f6e344	3	1	main_z	11	main_z	153	stimuli_target_trianglerectangles.svg	stimuli_distractor_diamondtriangles.svg	21	yes	44	1	404	0	0			0	0			1				0	
6.6.1	win	2023-06-02	00:29:13	00:39:24	606368	5f579cc797c3ee2607f6e344	3	1	main_z	11	advance_on_keypress_ZEE	154	stimuli_target_trianglerectangles.svg	stimuli_distractor_diamondtriangles.svg	21	yes	57	0	230	0	0			0	0			1				0	
6.6.1	win	2023-06-02	00:29:13	00:39:25	607629	5f579cc797c3ee2607f6e344	3	1	main_z	11	main_z	155	stimuli_distractor_diamondtriangles.svg	stimuli_target_squaretriangles.svg	15	yes	44	1	400	0	0			0	0			1				0	
6.6.1	win	2023-06-02	00:29:13	00:39:25	607629	5f579cc797c3ee2607f6e344	3	1	main_z	11	advance_on_keypress_ZEE	156	stimuli_distractor_diamondtriangles.svg	stimuli_target_squaretriangles.svg	15	yes	57	0	379	0	0			0	0			1				0	
6.6.1	win	2023-06-02	00:29:13	00:39:26	609035	5f579cc797c3ee2607f6e344	3	1	main_z	11	main_z	157	stimuli_target_squarediamonds.svg	stimuli_distractor_trianglediamonds.svg	4	yes	44	1	391	0	0			0	0			1				0	
6.6.1	win	2023-06-02	00:29:13	00:39:26	609035	5f579cc797c3ee2607f6e344	3	1	main_z	11	advance_on_keypress_ZEE	158	stimuli_target_squarediamonds.svg	stimuli_distractor_trianglediamonds.svg	4	yes	57	0	276	0	0			0	0			1				0	
6.6.1	win	2023-06-02	00:29:13	00:39:29	611943	5f579cc797c3ee2607f6e344	3	1	main_z	11	main_z	159	stimuli_distractor_trianglediamonds.svg	stimuli_distractor_diamondtriangles.svg	36	no	0	1	2000	0	0			0	0			1				0	
6.6.1	win	2023-06-02	00:29:13	00:39:29	611943	5f579cc797c3ee2607f6e344	3	1	main_z	11	advance_on_keypress_ZEE	160	stimuli_distractor_trianglediamonds.svg	stimuli_distractor_diamondtriangles.svg	36	no	57	0	297	0	0			0	0			1				0	
6.6.1	win	2023-06-02	00:29:13	00:39:29	611943	5f579cc797c3ee2607f6e344	3	1	headphonecheck_calibration	14	headphonecheck_calibrationIntro	1	stimuli_distractor_trianglediamonds.svg	stimuli_distractor_diamondtriangles.svg	36	no	calibrationButton	0	1576	0	0			0	0			1				0	
6.6.1	win	2023-06-02	00:29:13	00:39:29	611943	5f579cc797c3ee2607f6e344	3	1	headphonecheck_testphase	15	test_collectResponse	3	stimuli_distractor_trianglediamonds.svg	stimuli_distractor_diamondtriangles.svg	36	no	second	1	315	1	5	antiphase_hc_osi.wav	2	0	0			1				0	
6.6.1	win	2023-06-02	00:29:13	00:39:29	611943	5f579cc797c3ee2607f6e344	3	1	headphonecheck_testphase	15	test_collectResponse	6	stimuli_distractor_trianglediamonds.svg	stimuli_distractor_diamondtriangles.svg	36	no	second	1	587	2	1	antiphase_hc_iso.wav	2	0	0			1				0	
6.6.1	win	2023-06-02	00:29:13	00:39:29	611943	5f579cc797c3ee2607f6e344	3	1	headphonecheck_testphase	15	test_collectResponse	9	stimuli_distractor_trianglediamonds.svg	stimuli_distractor_diamondtriangles.svg	36	no	third	1	474	3	2	antiphase_hc_ios.wav	3	0	0			1				0	
6.6.1	win	2023-06-02	00:29:13	00:39:29	611943	5f579cc797c3ee2607f6e344	3	1	headphonecheck_testphase	15	test_collectResponse	12	stimuli_distractor_trianglediamonds.svg	stimuli_distractor_diamondtriangles.svg	36	no	first	1	357	4	3	antiphase_hc_soi.wav	1	0	0			1				0	
6.6.1	win	2023-06-02	00:29:13	00:39:29	611943	5f579cc797c3ee2607f6e344	3	1	headphonecheck_testphase	15	test_collectResponse	15	stimuli_distractor_trianglediamonds.svg	stimuli_distractor_diamondtriangles.svg	36	no	third	1	278	5	6	antiphase_hc_ois.wav	3	0	0			1				0	
6.6.1	win	2023-06-02	00:29:13	00:39:29	611943	5f579cc797c3ee2607f6e344	3	1	headphonecheck_testphase	15	test_collectResponse	18	stimuli_distractor_trianglediamonds.svg	stimuli_distractor_diamondtriangles.svg	36	no	first	1	218	6	4	antiphase_hc_sio.wav	1	0	0			1				0	
6.6.1	win	2023-06-02	00:29:13	00:39:29	611943	5f579cc797c3ee2607f6e344	3	1	stereocheck_calibration	17	stereocheck_calibrationIntro	1	stimuli_distractor_trianglediamonds.svg	stimuli_distractor_diamondtriangles.svg	36	no	stereocheck_calibrationButton	0	4971	6	4	antiphase_hc_sio.wav	1	0	0			1				0	
6.6.1	win	2023-06-02	00:29:13	00:39:29	611943	5f579cc797c3ee2607f6e344	3	1	stereocheck_testphase	18	stereocheck_test_collectResponse	3	stimuli_distractor_trianglediamonds.svg	stimuli_distractor_diamondtriangles.svg	36	no	stereocheck_left	1	556	6	4	antiphase_hc_sio.wav	1	1	2	noise_calib_stim_LEFT.wav	1	1				0	
6.6.1	win	2023-06-02	00:29:13	00:39:29	611943	5f579cc797c3ee2607f6e344	3	1	stereocheck_testphase	18	stereocheck_test_collectResponse	6	stimuli_distractor_trianglediamonds.svg	stimuli_distractor_diamondtriangles.svg	36	no	stereocheck_right	1	441	6	4	antiphase_hc_sio.wav	1	2	5	noise_calib_stim_RIGHT.wav	2	1				0	
6.6.1	win	2023-06-02	00:29:13	00:39:29	611943	5f579cc797c3ee2607f6e344	3	1	stereocheck_testphase	18	stereocheck_test_collectResponse	9	stimuli_distractor_trianglediamonds.svg	stimuli_distractor_diamondtriangles.svg	36	no	stereocheck_right	1	388	6	4	antiphase_hc_sio.wav	1	3	6	noise_calib_stim_RIGHT.wav	2	1				0	
6.6.1	win	2023-06-02	00:29:13	00:39:29	611943	5f579cc797c3ee2607f6e344	3	1	stereocheck_testphase	18	stereocheck_test_collectResponse	12	stimuli_distractor_trianglediamonds.svg	stimuli_distractor_diamondtriangles.svg	36	no	stereocheck_right	1	342	6	4	antiphase_hc_sio.wav	1	4	4	noise_calib_stim_RIGHT.wav	2	1				0	
6.6.1	win	2023-06-02	00:29:13	00:39:29	611943	5f579cc797c3ee2607f6e344	3	1	stereocheck_testphase	18	stereocheck_test_collectResponse	15	stimuli_distractor_trianglediamonds.svg	stimuli_distractor_diamondtriangles.svg	36	no	stereocheck_left	1	311	6	4	antiphase_hc_sio.wav	1	5	1	noise_calib_stim_LEFT.wav	1	1				0	
6.6.1	win	2023-06-02	00:29:13	00:39:29	611943	5f579cc797c3ee2607f6e344	3	1	stereocheck_testphase	18	stereocheck_test_collectResponse	18	stimuli_distractor_trianglediamonds.svg	stimuli_distractor_diamondtriangles.svg	36	no	stereocheck_left	1	193	6	4	antiphase_hc_sio.wav	1	6	3	noise_calib_stim_LEFT.wav	1	1				0	
6.6.1	win	2023-06-02	00:29:13	00:39:29	611943	5f579cc797c3ee2607f6e344	3	1	DL_practice	21	DL_practice	2	stimuli_distractor_trianglediamonds.svg	stimuli_distractor_diamondtriangles.svg	36	no	ba	1	1177	6	4	antiphase_hc_sio.wav	1	6	3	noise_calib_stim_LEFT.wav	1	1	blb_dichoticlistening_ba-ba.mp3	ba	ba	0	left
6.6.1	win	2023-06-02	00:29:13	00:39:29	611943	5f579cc797c3ee2607f6e344	3	1	DL_practice	21	DL_practice	3	stimuli_distractor_trianglediamonds.svg	stimuli_distractor_diamondtriangles.svg	36	no	ta	1	1139	6	4	antiphase_hc_sio.wav	1	6	3	noise_calib_stim_LEFT.wav	1	36	blb_dichoticlistening_ta-ta.mp3	ta	ta	0	left
6.6.1	win	2023-06-02	00:29:13	00:39:29	611943	5f579cc797c3ee2607f6e344	3	1	DL_practice	21	DL_practice	4	stimuli_distractor_trianglediamonds.svg	stimuli_distractor_diamondtriangles.svg	36	no	ga	1	944	6	4	antiphase_hc_sio.wav	1	6	3	noise_calib_stim_LEFT.wav	1	15	blb_dichoticlistening_ga-ga.mp3	ga	ga	0	left
6.6.1	win	2023-06-02	00:29:13	00:39:29	611943	5f579cc797c3ee2607f6e344	3	1	DL_practice	21	DL_practice	5	stimuli_distractor_trianglediamonds.svg	stimuli_distractor_diamondtriangles.svg	36	no	pa	1	904	6	4	antiphase_hc_sio.wav	1	6	3	noise_calib_stim_LEFT.wav	1	29	blb_dichoticlistening_pa-pa.mp3	pa	pa	0	left
6.6.1	win	2023-06-02	00:29:13	00:39:29	611943	5f579cc797c3ee2607f6e344	3	1	DL_practice	21	DL_practice	6	stimuli_distractor_trianglediamonds.svg	stimuli_distractor_diamondtriangles.svg	36	no	ba	1	2412	6	4	antiphase_hc_sio.wav	1	6	3	noise_calib_stim_LEFT.wav	1	7	blb_dichoticlistening_da-ba.mp3	da	ba	1	right
6.6.1	win	2023-06-02	00:29:13	00:39:29	611943	5f579cc797c3ee2607f6e344	3	1	DL_practice	21	DL_practice	7	stimuli_distractor_trianglediamonds.svg	stimuli_distractor_diamondtriangles.svg	36	no	ka	1	1062	6	4	antiphase_hc_sio.wav	1	6	3	noise_calib_stim_LEFT.wav	1	22	blb_dichoticlistening_ka-ka.mp3	ka	ka	0	left
6.6.1	win	2023-06-02	00:29:13	00:39:29	611943	5f579cc797c3ee2607f6e344	3	1	DL_practice	21	DL_practice	8	stimuli_distractor_trianglediamonds.svg	stimuli_distractor_diamondtriangles.svg	36	no	ka	1	1061	6	4	antiphase_hc_sio.wav	1	6	3	noise_calib_stim_LEFT.wav	1	23	blb_dichoticlistening_ka-pa.mp3	ka	pa	1	left
6.6.1	win	2023-06-02	00:29:13	00:39:29	611943	5f579cc797c3ee2607f6e344	3	1	DL_practice	21	DL_practice	9	stimuli_distractor_trianglediamonds.svg	stimuli_distractor_diamondtriangles.svg	36	no	da	1	1047	6	4	antiphase_hc_sio.wav	1	6	3	noise_calib_stim_LEFT.wav	1	8	blb_dichoticlistening_da-da.mp3	da	da	0	left
6.6.1	win	2023-06-02	00:29:13	00:39:29	611943	5f579cc797c3ee2607f6e344	3	1	DL_practice	21	DL_practice	10	stimuli_distractor_trianglediamonds.svg	stimuli_distractor_diamondtriangles.svg	36	no	da	0	3075	6	4	antiphase_hc_sio.wav	1	6	3	noise_calib_stim_LEFT.wav	1	18	blb_dichoticlistening_ga-ta.mp3	ga	ta	1	other
6.6.1	win	2023-06-02	00:29:13	00:39:29	611943	5f579cc797c3ee2607f6e344	3	1	DL_test	23	DL_test	1	stimuli_distractor_trianglediamonds.svg	stimuli_distractor_diamondtriangles.svg	36	no	da	1	5176	6	4	antiphase_hc_sio.wav	1	6	3	noise_calib_stim_LEFT.wav	1	11	blb_dichoticlistening_da-pa.mp3	da	pa	1	left
6.6.1	win	2023-06-02	00:29:13	00:39:29	611943	5f579cc797c3ee2607f6e344	3	1	DL_test	23	DL_test	2	stimuli_distractor_trianglediamonds.svg	stimuli_distractor_diamondtriangles.svg	36	no	ka	1	1058	6	4	antiphase_hc_sio.wav	1	6	3	noise_calib_stim_LEFT.wav	1	21	blb_dichoticlistening_ka-ga.mp3	ka	ga	1	left
6.6.1	win	2023-06-02	00:29:13	00:39:29	611943	5f579cc797c3ee2607f6e344	3	1	DL_test	23	DL_test	3	stimuli_distractor_trianglediamonds.svg	stimuli_distractor_diamondtriangles.svg	36	no	pa	1	2219	6	4	antiphase_hc_sio.wav	1	6	3	noise_calib_stim_LEFT.wav	1	17	blb_dichoticlistening_ga-pa.mp3	ga	pa	1	right
6.6.1	win	2023-06-02	00:29:13	00:39:29	611943	5f579cc797c3ee2607f6e344	3	1	DL_test	23	DL_test	4	stimuli_distractor_trianglediamonds.svg	stimuli_distractor_diamondtriangles.svg	36	no	ka	0	2145	6	4	antiphase_hc_sio.wav	1	6	3	noise_calib_stim_LEFT.wav	1	35	blb_dichoticlistening_ta-pa.mp3	ta	pa	1	other
6.6.1	win	2023-06-02	00:29:13	00:39:29	611943	5f579cc797c3ee2607f6e344	3	1	DL_test	23	DL_test	5	stimuli_distractor_trianglediamonds.svg	stimuli_distractor_diamondtriangles.svg	36	no	ka	1	1392	6	4	antiphase_hc_sio.wav	1	6	3	noise_calib_stim_LEFT.wav	1	19	blb_dichoticlistening_ka-ba.mp3	ka	ba	1	left
6.6.1	win	2023-06-02	00:29:13	00:39:29	611943	5f579cc797c3ee2607f6e344	3	1	DL_test	23	DL_test	6	stimuli_distractor_trianglediamonds.svg	stimuli_distractor_diamondtriangles.svg	36	no	da	1	1133	6	4	antiphase_hc_sio.wav	1	6	3	noise_calib_stim_LEFT.wav	1	9	blb_dichoticlistening_da-ga.mp3	da	ga	1	left
6.6.1	win	2023-06-02	00:29:13	00:39:29	611943	5f579cc797c3ee2607f6e344	3	1	DL_test	23	DL_test	7	stimuli_distractor_trianglediamonds.svg	stimuli_distractor_diamondtriangles.svg	36	no	pa	1	3603	6	4	antiphase_hc_sio.wav	1	6	3	noise_calib_stim_LEFT.wav	1	27	blb_dichoticlistening_pa-ga.mp3	pa	ga	1	left
6.6.1	win	2023-06-02	00:29:13	00:39:29	611943	5f579cc797c3ee2607f6e344	3	1	DL_test	23	DL_test	8	stimuli_distractor_trianglediamonds.svg	stimuli_distractor_diamondtriangles.svg	36	no	ga	1	708	6	4	antiphase_hc_sio.wav	1	6	3	noise_calib_stim_LEFT.wav	1	15	blb_dichoticlistening_ga-ga.mp3	ga	ga	0	left
6.6.1	win	2023-06-02	00:29:13	00:39:29	611943	5f579cc797c3ee2607f6e344	3	1	DL_test	23	DL_test	9	stimuli_distractor_trianglediamonds.svg	stimuli_distractor_diamondtriangles.svg	36	no	ta	0	1342	6	4	antiphase_hc_sio.wav	1	6	3	noise_calib_stim_LEFT.wav	1	10	blb_dichoticlistening_da-ka.mp3	da	ka	1	other
6.6.1	win	2023-06-02	00:29:13	00:39:29	611943	5f579cc797c3ee2607f6e344	3	1	DL_test	23	DL_test	10	stimuli_distractor_trianglediamonds.svg	stimuli_distractor_diamondtriangles.svg	36	no	ba	1	1728	6	4	antiphase_hc_sio.wav	1	6	3	noise_calib_stim_LEFT.wav	1	5	blb_dichoticlistening_ba-pa.mp3	ba	pa	1	left
6.6.1	win	2023-06-02	00:29:13	00:39:29	611943	5f579cc797c3ee2607f6e344	3	1	DL_test	23	DL_test	11	stimuli_distractor_trianglediamonds.svg	stimuli_distractor_diamondtriangles.svg	36	no	ta	1	2044	6	4	antiphase_hc_sio.wav	1	6	3	noise_calib_stim_LEFT.wav	1	31	blb_dichoticlistening_ta-ba.mp3	ta	ba	1	left
6.6.1	win	2023-06-02	00:29:13	00:39:29	611943	5f579cc797c3ee2607f6e344	3	1	DL_test	23	DL_test	12	stimuli_distractor_trianglediamonds.svg	stimuli_distractor_diamondtriangles.svg	36	no	pa	1	1350	6	4	antiphase_hc_sio.wav	1	6	3	noise_calib_stim_LEFT.wav	1	25	blb_dichoticlistening_pa-ba.mp3	pa	ba	1	left
6.6.1	win	2023-06-02	00:29:13	00:39:29	611943	5f579cc797c3ee2607f6e344	3	1	DL_test	23	DL_test	13	stimuli_distractor_trianglediamonds.svg	stimuli_distractor_diamondtriangles.svg	36	no	ga	0	1383	6	4	antiphase_hc_sio.wav	1	6	3	noise_calib_stim_LEFT.wav	1	6	blb_dichoticlistening_ba-ta.mp3	ba	ta	1	other
6.6.1	win	2023-06-02	00:29:13	00:39:29	611943	5f579cc797c3ee2607f6e344	3	1	DL_test	23	DL_test	14	stimuli_distractor_trianglediamonds.svg	stimuli_distractor_diamondtriangles.svg	36	no	ta	1	842	6	4	antiphase_hc_sio.wav	1	6	3	noise_calib_stim_LEFT.wav	1	30	blb_dichoticlistening_pa-ta.mp3	pa	ta	1	right
6.6.1	win	2023-06-02	00:29:13	00:39:29	611943	5f579cc797c3ee2607f6e344	3	1	DL_test	23	DL_test	15	stimuli_distractor_trianglediamonds.svg	stimuli_distractor_diamondtriangles.svg	36	no	da	1	1212	6	4	antiphase_hc_sio.wav	1	6	3	noise_calib_stim_LEFT.wav	1	12	blb_dichoticlistening_da-ta.mp3	da	ta	1	left
6.6.1	win	2023-06-02	00:29:13	00:39:29	611943	5f579cc797c3ee2607f6e344	3	1	DL_test	23	DL_test	16	stimuli_distractor_trianglediamonds.svg	stimuli_distractor_diamondtriangles.svg	36	no	ka	1	955	6	4	antiphase_hc_sio.wav	1	6	3	noise_calib_stim_LEFT.wav	1	34	blb_dichoticlistening_ta-ka.mp3	ta	ka	1	right
6.6.1	win	2023-06-02	00:29:13	00:39:29	611943	5f579cc797c3ee2607f6e344	3	1	DL_test	23	DL_test	17	stimuli_distractor_trianglediamonds.svg	stimuli_distractor_diamondtriangles.svg	36	no	da	1	1999	6	4	antiphase_hc_sio.wav	1	6	3	noise_calib_stim_LEFT.wav	1	26	blb_dichoticlistening_pa-da.mp3	pa	da	1	right
6.6.1	win	2023-06-02	00:29:13	00:39:29	611943	5f579cc797c3ee2607f6e344	3	1	DL_test	23	DL_test	18	stimuli_distractor_trianglediamonds.svg	stimuli_distractor_diamondtriangles.svg	36	no	ba	1	1190	6	4	antiphase_hc_sio.wav	1	6	3	noise_calib_stim_LEFT.wav	1	13	blb_dichoticlistening_ga-ba.mp3	ga	ba	1	right
6.6.1	win	2023-06-02	00:29:13	00:39:29	611943	5f579cc797c3ee2607f6e344	3	1	DL_test	23	DL_test	19	stimuli_distractor_trianglediamonds.svg	stimuli_distractor_diamondtriangles.svg	36	no	ga	1	1328	6	4	antiphase_hc_sio.wav	1	6	3	noise_calib_stim_LEFT.wav	1	18	blb_dichoticlistening_ga-ta.mp3	ga	ta	1	left
6.6.1	win	2023-06-02	00:29:13	00:39:29	611943	5f579cc797c3ee2607f6e344	3	1	DL_test	23	DL_test	20	stimuli_distractor_trianglediamonds.svg	stimuli_distractor_diamondtriangles.svg	36	no	ka	1	796	6	4	antiphase_hc_sio.wav	1	6	3	noise_calib_stim_LEFT.wav	1	4	blb_dichoticlistening_ba-ka.mp3	ba	ka	1	right
6.6.1	win	2023-06-02	00:29:13	00:39:29	611943	5f579cc797c3ee2607f6e344	3	1	DL_test	23	DL_test	21	stimuli_distractor_trianglediamonds.svg	stimuli_distractor_diamondtriangles.svg	36	no	ka	1	797	6	4	antiphase_hc_sio.wav	1	6	3	noise_calib_stim_LEFT.wav	1	22	blb_dichoticlistening_ka-ka.mp3	ka	ka	0	left
6.6.1	win	2023-06-02	00:29:13	00:39:29	611943	5f579cc797c3ee2607f6e344	3	1	DL_test	23	DL_test	22	stimuli_distractor_trianglediamonds.svg	stimuli_distractor_diamondtriangles.svg	36	no	da	0	1775	6	4	antiphase_hc_sio.wav	1	6	3	noise_calib_stim_LEFT.wav	1	3	blb_dichoticlistening_ba-ga.mp3	ba	ga	1	other
6.6.1	win	2023-06-02	00:29:13	00:39:29	611943	5f579cc797c3ee2607f6e344	3	1	DL_test	23	DL_test	23	stimuli_distractor_trianglediamonds.svg	stimuli_distractor_diamondtriangles.svg	36	no	ka	1	1450	6	4	antiphase_hc_sio.wav	1	6	3	noise_calib_stim_LEFT.wav	1	24	blb_dichoticlistening_ka-ta.mp3	ka	ta	1	left
6.6.1	win	2023-06-02	00:29:13	00:39:29	611943	5f579cc797c3ee2607f6e344	3	1	DL_test	23	DL_test	24	stimuli_distractor_trianglediamonds.svg	stimuli_distractor_diamondtriangles.svg	36	no	ga	1	1264	6	4	antiphase_hc_sio.wav	1	6	3	noise_calib_stim_LEFT.wav	1	33	blb_dichoticlistening_ta-ga.mp3	ta	ga	1	right
6.6.1	win	2023-06-02	00:29:13	00:39:29	611943	5f579cc797c3ee2607f6e344	3	1	DL_test	23	DL_test	25	stimuli_distractor_trianglediamonds.svg	stimuli_distractor_diamondtriangles.svg	36	no	ba	1	1304	6	4	antiphase_hc_sio.wav	1	6	3	noise_calib_stim_LEFT.wav	1	1	blb_dichoticlistening_ba-ba.mp3	ba	ba	0	left
6.6.1	win	2023-06-02	00:29:13	00:39:29	611943	5f579cc797c3ee2607f6e344	3	1	DL_test	23	DL_test	26	stimuli_distractor_trianglediamonds.svg	stimuli_distractor_diamondtriangles.svg	36	no	da	1	1101	6	4	antiphase_hc_sio.wav	1	6	3	noise_calib_stim_LEFT.wav	1	2	blb_dichoticlistening_ba-da.mp3	ba	da	1	right
