build	computer.platform	date	time	timestamp	time_elapsed_ms	subject	group	session	blockcode	blocknum	trialcode	trialnum	stimulus_left	stimulus_right	stim_index	target_present	response	correct	latency	headphonecheck_countTestTrials	headphonecheck_index	headphonecheck_testSound	headphonecheck_correctResponse	stereocheck_countTestTrials	stereocheck_index	stereocheck_testSound	stereocheck_correctResponse	DL_index	DL_soundfile	DL_leftSound	DL_rightSound	DL_dualSound	DL_choice
6.6.1	and	2023-06-02	02:21:44	02:26:46	279947	5cbe04b4f429ff00159de30e	4	1	practice_z	5	practice_z	1	stimuli_distractor_diamondtriangles.svg	stimuli_target_trianglerectangles.svg	9	yes	0	0	2000	0	0			0	0			1				0	
6.6.1	and	2023-06-02	02:21:44	02:26:46	279947	5cbe04b4f429ff00159de30e	4	1	practice_z	5	advance_on_keypress_ZEE	2	stimuli_distractor_diamondtriangles.svg	stimuli_target_trianglerectangles.svg	9	yes	57	0	4532	0	0			0	0			1				0	
6.6.1	and	2023-06-02	02:21:44	02:26:54	287271	5cbe04b4f429ff00159de30e	4	1	practice_z	5	practice_z	3	stimuli_distractor_diamondtriangles.svg	stimuli_target_rectangletriangles.svg	7	yes	44	1	1048	0	0			0	0			1				0	
6.6.1	and	2023-06-02	02:21:44	02:26:54	287271	5cbe04b4f429ff00159de30e	4	1	practice_z	5	advance_on_keypress_ZEE	4	stimuli_distractor_diamondtriangles.svg	stimuli_target_rectangletriangles.svg	7	yes	57	0	1064	0	0			0	0			1				0	
6.6.1	and	2023-06-02	02:21:44	02:26:58	291169	5cbe04b4f429ff00159de30e	4	1	practice_z	5	practice_z	5	stimuli_target_squarediamonds.svg	stimuli_distractor_diamondtriangles.svg	2	yes	44	1	1170	0	0			0	0			1				0	
6.6.1	and	2023-06-02	02:21:44	02:26:58	291169	5cbe04b4f429ff00159de30e	4	1	practice_z	5	advance_on_keypress_ZEE	6	stimuli_target_squarediamonds.svg	stimuli_distractor_diamondtriangles.svg	2	yes	57	0	2625	0	0			0	0			1				0	
6.6.1	and	2023-06-02	02:21:44	02:27:03	296595	5cbe04b4f429ff00159de30e	4	1	practice_z	5	practice_z	7	stimuli_target_squarediamonds.svg	stimuli_distractor_trianglediamonds.svg	5	yes	44	1	1137	0	0			0	0			1				0	
6.6.1	and	2023-06-02	02:21:44	02:27:03	296595	5cbe04b4f429ff00159de30e	4	1	practice_z	5	advance_on_keypress_ZEE	8	stimuli_target_squarediamonds.svg	stimuli_distractor_trianglediamonds.svg	5	yes	57	0	596	0	0			0	0			1				0	
6.6.1	and	2023-06-02	02:21:44	02:27:07	299966	5cbe04b4f429ff00159de30e	4	1	practice_z	5	practice_z	9	stimuli_target_rectanglediamonds.svg	stimuli_distractor_diamondtriangles.svg	1	yes	44	1	1116	0	0			0	0			1				0	
6.6.1	and	2023-06-02	02:21:44	02:27:07	299966	5cbe04b4f429ff00159de30e	4	1	practice_z	5	advance_on_keypress_ZEE	10	stimuli_target_rectanglediamonds.svg	stimuli_distractor_diamondtriangles.svg	1	yes	57	0	770	0	0			0	0			1				0	
6.6.1	and	2023-06-02	02:21:44	02:27:11	303994	5cbe04b4f429ff00159de30e	4	1	practice_z	5	practice_z	11	stimuli_distractor_trianglediamonds.svg	stimuli_target_rectanglediamonds.svg	10	yes	44	1	1600	0	0			0	0			1				0	
6.6.1	and	2023-06-02	02:21:44	02:27:11	303994	5cbe04b4f429ff00159de30e	4	1	practice_z	5	advance_on_keypress_ZEE	12	stimuli_distractor_trianglediamonds.svg	stimuli_target_rectanglediamonds.svg	10	yes	57	0	1372	0	0			0	0			1				0	
6.6.1	and	2023-06-02	02:21:44	02:27:16	309019	5cbe04b4f429ff00159de30e	4	1	practice_z	5	practice_z	13	stimuli_target_diamondsquares.svg	stimuli_distractor_trianglediamonds.svg	6	yes	0	0	2000	0	0			0	0			1				0	
6.6.1	and	2023-06-02	02:21:44	02:27:16	309019	5cbe04b4f429ff00159de30e	4	1	practice_z	5	advance_on_keypress_ZEE	14	stimuli_target_diamondsquares.svg	stimuli_distractor_trianglediamonds.svg	6	yes	57	0	1463	0	0			0	0			1				0	
6.6.1	and	2023-06-02	02:21:44	02:27:21	314141	5cbe04b4f429ff00159de30e	4	1	practice_z	5	practice_z	15	stimuli_distractor_trianglediamonds.svg	stimuli_target_diamondrectangles.svg	12	yes	0	0	2000	0	0			0	0			1				0	
6.6.1	and	2023-06-02	02:21:44	02:27:21	314141	5cbe04b4f429ff00159de30e	4	1	practice_z	5	advance_on_keypress_ZEE	16	stimuli_distractor_trianglediamonds.svg	stimuli_target_diamondrectangles.svg	12	yes	57	0	916	0	0			0	0			1				0	
6.6.1	and	2023-06-02	02:21:44	02:27:25	318610	5cbe04b4f429ff00159de30e	4	1	practice_z	5	practice_z	17	stimuli_target_diamondsquares.svg	stimuli_distractor_diamondtriangles.svg	3	yes	44	1	1893	0	0			0	0			1				0	
6.6.1	and	2023-06-02	02:21:44	02:27:25	318610	5cbe04b4f429ff00159de30e	4	1	practice_z	5	advance_on_keypress_ZEE	18	stimuli_target_diamondsquares.svg	stimuli_distractor_diamondtriangles.svg	3	yes	57	0	793	0	0			0	0			1				0	
6.6.1	and	2023-06-02	02:21:44	02:27:30	323074	5cbe04b4f429ff00159de30e	4	1	practice_z	5	practice_z	19	stimuli_distractor_diamondtriangles.svg	stimuli_target_diamondrectangles.svg	8	yes	0	0	2000	0	0			0	0			1				0	
6.6.1	and	2023-06-02	02:21:44	02:27:30	323074	5cbe04b4f429ff00159de30e	4	1	practice_z	5	advance_on_keypress_ZEE	20	stimuli_distractor_diamondtriangles.svg	stimuli_target_diamondrectangles.svg	8	yes	57	0	129	0	0			0	0			1				0	
6.6.1	and	2023-06-02	02:21:44	02:27:33	326037	5cbe04b4f429ff00159de30e	4	1	practice_z	5	practice_z	21	stimuli_distractor_diamondtriangles.svg	stimuli_distractor_trianglediamonds.svg	14	no	44	0	1169	0	0			0	0			1				0	
6.6.1	and	2023-06-02	02:21:44	02:27:33	326037	5cbe04b4f429ff00159de30e	4	1	practice_z	5	advance_on_keypress_ZEE	22	stimuli_distractor_diamondtriangles.svg	stimuli_distractor_trianglediamonds.svg	14	no	57	0	1109	0	0			0	0			1				0	
6.6.1	and	2023-06-02	02:21:44	02:27:36	329911	5cbe04b4f429ff00159de30e	4	1	practice_z	5	practice_z	23	stimuli_target_rectanglediamonds.svg	stimuli_distractor_trianglediamonds.svg	4	yes	44	1	1113	0	0			0	0			1				0	
6.6.1	and	2023-06-02	02:21:44	02:27:36	329911	5cbe04b4f429ff00159de30e	4	1	practice_z	5	advance_on_keypress_ZEE	24	stimuli_target_rectanglediamonds.svg	stimuli_distractor_trianglediamonds.svg	4	yes	57	0	1094	0	0			0	0			1				0	
6.6.1	and	2023-06-02	02:21:44	02:27:41	334656	5cbe04b4f429ff00159de30e	4	1	practice_z	5	practice_z	25	stimuli_distractor_diamondtriangles.svg	stimuli_distractor_diamondtriangles.svg	13	no	0	1	2000	0	0			0	0			1				0	
6.6.1	and	2023-06-02	02:21:44	02:27:41	334656	5cbe04b4f429ff00159de30e	4	1	practice_z	5	advance_on_keypress_ZEE	26	stimuli_distractor_diamondtriangles.svg	stimuli_distractor_diamondtriangles.svg	13	no	57	0	499	0	0			0	0			1				0	
6.6.1	and	2023-06-02	02:21:44	02:27:44	337820	5cbe04b4f429ff00159de30e	4	1	practice_z	5	practice_z	27	stimuli_distractor_trianglediamonds.svg	stimuli_target_squarediamonds.svg	11	yes	44	1	1005	0	0			0	0			1				0	
6.6.1	and	2023-06-02	02:21:44	02:27:44	337820	5cbe04b4f429ff00159de30e	4	1	practice_z	5	advance_on_keypress_ZEE	28	stimuli_distractor_trianglediamonds.svg	stimuli_target_squarediamonds.svg	11	yes	57	0	119	0	0			0	0			1				0	
6.6.1	and	2023-06-02	02:21:44	02:27:48	341593	5cbe04b4f429ff00159de30e	4	1	practice_z	5	practice_z	29	stimuli_distractor_trianglediamonds.svg	stimuli_distractor_diamondtriangles.svg	16	no	0	1	2000	0	0			0	0			1				0	
6.6.1	and	2023-06-02	02:21:44	02:27:48	341593	5cbe04b4f429ff00159de30e	4	1	practice_z	5	advance_on_keypress_ZEE	30	stimuli_distractor_trianglediamonds.svg	stimuli_distractor_diamondtriangles.svg	16	no	57	0	433	0	0			0	0			1				0	
6.6.1	and	2023-06-02	02:21:44	02:27:52	345686	5cbe04b4f429ff00159de30e	4	1	practice_z	5	practice_z	31	stimuli_distractor_trianglediamonds.svg	stimuli_distractor_trianglediamonds.svg	15	no	0	1	2000	0	0			0	0			1				0	
6.6.1	and	2023-06-02	02:21:44	02:27:52	345686	5cbe04b4f429ff00159de30e	4	1	practice_z	5	advance_on_keypress_ZEE	32	stimuli_distractor_trianglediamonds.svg	stimuli_distractor_trianglediamonds.svg	15	no	57	0	4	0	0			0	0			1				0	
6.6.1	and	2023-06-02	02:21:44	02:28:10	363194	5cbe04b4f429ff00159de30e	4	1	main_z	7	main_z	1	stimuli_target_squaretriangles.svg	stimuli_distractor_diamondtriangles.svg	7	yes	44	1	596	0	0			0	0			1				0	
6.6.1	and	2023-06-02	02:21:44	02:28:10	363194	5cbe04b4f429ff00159de30e	4	1	main_z	7	advance_on_keypress_ZEE	2	stimuli_target_squaretriangles.svg	stimuli_distractor_diamondtriangles.svg	7	yes	57	0	1205	0	0			0	0			1				0	
6.6.1	and	2023-06-02	02:21:44	02:28:13	366021	5cbe04b4f429ff00159de30e	4	1	main_z	7	main_z	3	stimuli_target_rectanglediamonds.svg	stimuli_distractor_trianglediamonds.svg	2	yes	44	1	965	0	0			0	0			1				0	
6.6.1	and	2023-06-02	02:21:44	02:28:13	366021	5cbe04b4f429ff00159de30e	4	1	main_z	7	advance_on_keypress_ZEE	4	stimuli_target_rectanglediamonds.svg	stimuli_distractor_trianglediamonds.svg	2	yes	57	0	1089	0	0			0	0			1				0	
6.6.1	and	2023-06-02	02:21:44	02:28:16	369750	5cbe04b4f429ff00159de30e	4	1	main_z	7	main_z	5	stimuli_distractor_trianglediamonds.svg	stimuli_distractor_diamondtriangles.svg	35	no	0	1	2000	0	0			0	0			1				0	
6.6.1	and	2023-06-02	02:21:44	02:28:16	369750	5cbe04b4f429ff00159de30e	4	1	main_z	7	advance_on_keypress_ZEE	6	stimuli_distractor_trianglediamonds.svg	stimuli_distractor_diamondtriangles.svg	35	no	57	0	854	0	0			0	0			1				0	
6.6.1	and	2023-06-02	02:21:44	02:28:20	373263	5cbe04b4f429ff00159de30e	4	1	main_z	7	main_z	7	stimuli_target_diamondrectangles.svg	stimuli_distractor_trianglediamonds.svg	19	yes	0	0	2000	0	0			0	0			1				0	
6.6.1	and	2023-06-02	02:21:44	02:28:20	373263	5cbe04b4f429ff00159de30e	4	1	main_z	7	advance_on_keypress_ZEE	8	stimuli_target_diamondrectangles.svg	stimuli_distractor_trianglediamonds.svg	19	yes	57	0	650	0	0			0	0			1				0	
6.6.1	and	2023-06-02	02:21:44	02:28:23	376571	5cbe04b4f429ff00159de30e	4	1	main_z	7	main_z	9	stimuli_distractor_diamondtriangles.svg	stimuli_distractor_diamondtriangles.svg	40	no	0	1	2000	0	0			0	0			1				0	
6.6.1	and	2023-06-02	02:21:44	02:28:23	376571	5cbe04b4f429ff00159de30e	4	1	main_z	7	advance_on_keypress_ZEE	10	stimuli_distractor_diamondtriangles.svg	stimuli_distractor_diamondtriangles.svg	40	no	57	0	8	0	0			0	0			1				0	
6.6.1	and	2023-06-02	02:21:44	02:28:26	379233	5cbe04b4f429ff00159de30e	4	1	main_z	7	main_z	11	stimuli_target_trianglerectangles.svg	stimuli_distractor_diamondtriangles.svg	21	yes	0	0	2000	0	0			0	0			1				0	
6.6.1	and	2023-06-02	02:21:44	02:28:26	379233	5cbe04b4f429ff00159de30e	4	1	main_z	7	advance_on_keypress_ZEE	12	stimuli_target_trianglerectangles.svg	stimuli_distractor_diamondtriangles.svg	21	yes	57	0	2009	0	0			0	0			1				0	
6.6.1	and	2023-06-02	02:21:44	02:28:30	383892	5cbe04b4f429ff00159de30e	4	1	main_z	7	main_z	13	stimuli_distractor_diamondtriangles.svg	stimuli_target_trianglerectangles.svg	29	yes	0	0	2000	0	0			0	0			1				0	
6.6.1	and	2023-06-02	02:21:44	02:28:30	383892	5cbe04b4f429ff00159de30e	4	1	main_z	7	advance_on_keypress_ZEE	14	stimuli_distractor_diamondtriangles.svg	stimuli_target_trianglerectangles.svg	29	yes	57	0	623	0	0			0	0			1				0	
6.6.1	and	2023-06-02	02:21:44	02:28:34	387168	5cbe04b4f429ff00159de30e	4	1	main_z	7	main_z	15	stimuli_distractor_trianglediamonds.svg	stimuli_target_trianglerectangles.svg	25	yes	0	0	2000	0	0			0	0			1				0	
6.6.1	and	2023-06-02	02:21:44	02:28:34	387168	5cbe04b4f429ff00159de30e	4	1	main_z	7	advance_on_keypress_ZEE	16	stimuli_distractor_trianglediamonds.svg	stimuli_target_trianglerectangles.svg	25	yes	57	0	1460	0	0			0	0			1				0	
6.6.1	and	2023-06-02	02:21:44	02:28:37	390320	5cbe04b4f429ff00159de30e	4	1	main_z	7	main_z	17	stimuli_target_squarediamonds.svg	stimuli_distractor_trianglediamonds.svg	4	yes	44	1	1042	0	0			0	0			1				0	
6.6.1	and	2023-06-02	02:21:44	02:28:37	390320	5cbe04b4f429ff00159de30e	4	1	main_z	7	advance_on_keypress_ZEE	18	stimuli_target_squarediamonds.svg	stimuli_distractor_trianglediamonds.svg	4	yes	57	0	915	0	0			0	0			1				0	
6.6.1	and	2023-06-02	02:21:44	02:28:39	392950	5cbe04b4f429ff00159de30e	4	1	main_z	7	main_z	19	stimuli_distractor_trianglediamonds.svg	stimuli_target_squaretriangles.svg	11	yes	44	1	1061	0	0			0	0			1				0	
6.6.1	and	2023-06-02	02:21:44	02:28:39	392950	5cbe04b4f429ff00159de30e	4	1	main_z	7	advance_on_keypress_ZEE	20	stimuli_distractor_trianglediamonds.svg	stimuli_target_squaretriangles.svg	11	yes	57	0	748	0	0			0	0			1				0	
6.6.1	and	2023-06-02	02:21:44	02:28:43	396335	5cbe04b4f429ff00159de30e	4	1	main_z	7	main_z	21	stimuli_distractor_diamondtriangles.svg	stimuli_target_diamondsquares.svg	32	yes	0	0	2000	0	0			0	0			1				0	
6.6.1	and	2023-06-02	02:21:44	02:28:43	396335	5cbe04b4f429ff00159de30e	4	1	main_z	7	advance_on_keypress_ZEE	22	stimuli_distractor_diamondtriangles.svg	stimuli_target_diamondsquares.svg	32	yes	57	0	1226	0	0			0	0			1				0	
6.6.1	and	2023-06-02	02:21:44	02:28:47	400213	5cbe04b4f429ff00159de30e	4	1	main_z	7	main_z	23	stimuli_distractor_diamondtriangles.svg	stimuli_distractor_trianglediamonds.svg	37	no	0	1	2000	0	0			0	0			1				0	
6.6.1	and	2023-06-02	02:21:44	02:28:47	400213	5cbe04b4f429ff00159de30e	4	1	main_z	7	advance_on_keypress_ZEE	24	stimuli_distractor_diamondtriangles.svg	stimuli_distractor_trianglediamonds.svg	37	no	57	0	626	0	0			0	0			1				0	
6.6.1	and	2023-06-02	02:21:44	02:28:49	402584	5cbe04b4f429ff00159de30e	4	1	main_z	7	main_z	25	stimuli_distractor_diamondtriangles.svg	stimuli_target_rectangletriangles.svg	13	yes	44	1	1094	0	0			0	0			1				0	
6.6.1	and	2023-06-02	02:21:44	02:28:49	402584	5cbe04b4f429ff00159de30e	4	1	main_z	7	advance_on_keypress_ZEE	26	stimuli_distractor_diamondtriangles.svg	stimuli_target_rectangletriangles.svg	13	yes	57	0	808	0	0			0	0			1				0	
6.6.1	and	2023-06-02	02:21:44	02:28:52	405292	5cbe04b4f429ff00159de30e	4	1	main_z	7	main_z	27	stimuli_target_rectangletriangles.svg	stimuli_distractor_diamondtriangles.svg	5	yes	44	1	1259	0	0			0	0			1				0	
6.6.1	and	2023-06-02	02:21:44	02:28:52	405292	5cbe04b4f429ff00159de30e	4	1	main_z	7	advance_on_keypress_ZEE	28	stimuli_target_rectangletriangles.svg	stimuli_distractor_diamondtriangles.svg	5	yes	57	0	1588	0	0			0	0			1				0	
6.6.1	and	2023-06-02	02:21:44	02:28:55	408605	5cbe04b4f429ff00159de30e	4	1	main_z	7	main_z	29	stimuli_target_squarediamonds.svg	stimuli_distractor_diamondtriangles.svg	8	yes	44	1	1076	0	0			0	0			1				0	
6.6.1	and	2023-06-02	02:21:44	02:28:55	408605	5cbe04b4f429ff00159de30e	4	1	main_z	7	advance_on_keypress_ZEE	30	stimuli_target_squarediamonds.svg	stimuli_distractor_diamondtriangles.svg	8	yes	57	0	747	0	0			0	0			1				0	
6.6.1	and	2023-06-02	02:21:44	02:28:59	411989	5cbe04b4f429ff00159de30e	4	1	main_z	7	main_z	31	stimuli_target_diamondrectangles.svg	stimuli_distractor_diamondtriangles.svg	23	yes	0	0	2000	0	0			0	0			1				0	
6.6.1	and	2023-06-02	02:21:44	02:28:59	411989	5cbe04b4f429ff00159de30e	4	1	main_z	7	advance_on_keypress_ZEE	32	stimuli_target_diamondrectangles.svg	stimuli_distractor_diamondtriangles.svg	23	yes	57	0	641	0	0			0	0			1				0	
6.6.1	and	2023-06-02	02:21:44	02:29:02	415283	5cbe04b4f429ff00159de30e	4	1	main_z	7	main_z	33	stimuli_distractor_trianglediamonds.svg	stimuli_distractor_trianglediamonds.svg	34	no	0	1	2000	0	0			0	0			1				0	
6.6.1	and	2023-06-02	02:21:44	02:29:02	415283	5cbe04b4f429ff00159de30e	4	1	main_z	7	advance_on_keypress_ZEE	34	stimuli_distractor_trianglediamonds.svg	stimuli_distractor_trianglediamonds.svg	34	no	57	0	131	0	0			0	0			1				0	
6.6.1	and	2023-06-02	02:21:44	02:29:05	418063	5cbe04b4f429ff00159de30e	4	1	main_z	7	main_z	35	stimuli_distractor_trianglediamonds.svg	stimuli_target_diamondsquares.svg	28	yes	0	0	2000	0	0			0	0			1				0	
6.6.1	and	2023-06-02	02:21:44	02:29:05	418063	5cbe04b4f429ff00159de30e	4	1	main_z	7	advance_on_keypress_ZEE	36	stimuli_distractor_trianglediamonds.svg	stimuli_target_diamondsquares.svg	28	yes	57	0	186	0	0			0	0			1				0	
6.6.1	and	2023-06-02	02:21:44	02:29:07	420122	5cbe04b4f429ff00159de30e	4	1	main_z	7	main_z	37	stimuli_target_diamondsquares.svg	stimuli_distractor_trianglediamonds.svg	20	yes	44	1	1216	0	0			0	0			1				0	
6.6.1	and	2023-06-02	02:21:44	02:29:07	420122	5cbe04b4f429ff00159de30e	4	1	main_z	7	advance_on_keypress_ZEE	38	stimuli_target_diamondsquares.svg	stimuli_distractor_trianglediamonds.svg	20	yes	57	0	794	0	0			0	0			1				0	
6.6.1	and	2023-06-02	02:21:44	02:29:10	423553	5cbe04b4f429ff00159de30e	4	1	main_z	7	main_z	39	stimuli_distractor_trianglediamonds.svg	stimuli_target_trianglesquares.svg	26	yes	0	0	2000	0	0			0	0			1				0	
6.6.1	and	2023-06-02	02:21:44	02:29:10	423553	5cbe04b4f429ff00159de30e	4	1	main_z	7	advance_on_keypress_ZEE	40	stimuli_distractor_trianglediamonds.svg	stimuli_target_trianglesquares.svg	26	yes	57	0	819	0	0			0	0			1				0	
6.6.1	and	2023-06-02	02:21:44	02:29:13	426892	5cbe04b4f429ff00159de30e	4	1	main_z	7	main_z	41	stimuli_distractor_trianglediamonds.svg	stimuli_target_diamondrectangles.svg	27	yes	44	1	1862	0	0			0	0			1				0	
6.6.1	and	2023-06-02	02:21:44	02:29:13	426892	5cbe04b4f429ff00159de30e	4	1	main_z	7	advance_on_keypress_ZEE	42	stimuli_distractor_trianglediamonds.svg	stimuli_target_diamondrectangles.svg	27	yes	57	0	489	0	0			0	0			1				0	
6.6.1	and	2023-06-02	02:21:44	02:29:17	430024	5cbe04b4f429ff00159de30e	4	1	main_z	7	main_z	43	stimuli_distractor_trianglediamonds.svg	stimuli_distractor_trianglediamonds.svg	33	no	0	1	2000	0	0			0	0			1				0	
6.6.1	and	2023-06-02	02:21:44	02:29:17	430024	5cbe04b4f429ff00159de30e	4	1	main_z	7	advance_on_keypress_ZEE	44	stimuli_distractor_trianglediamonds.svg	stimuli_distractor_trianglediamonds.svg	33	no	57	0	886	0	0			0	0			1				0	
6.6.1	and	2023-06-02	02:21:44	02:29:20	433567	5cbe04b4f429ff00159de30e	4	1	main_z	7	main_z	45	stimuli_distractor_diamondtriangles.svg	stimuli_distractor_diamondtriangles.svg	39	no	0	1	2000	0	0			0	0			1				0	
6.6.1	and	2023-06-02	02:21:44	02:29:20	433567	5cbe04b4f429ff00159de30e	4	1	main_z	7	advance_on_keypress_ZEE	46	stimuli_distractor_diamondtriangles.svg	stimuli_distractor_diamondtriangles.svg	39	no	57	0	696	0	0			0	0			1				0	
6.6.1	and	2023-06-02	02:21:44	02:29:23	436550	5cbe04b4f429ff00159de30e	4	1	main_z	7	main_z	47	stimuli_target_trianglerectangles.svg	stimuli_distractor_trianglediamonds.svg	17	yes	44	1	1656	0	0			0	0			1				0	
6.6.1	and	2023-06-02	02:21:44	02:29:23	436550	5cbe04b4f429ff00159de30e	4	1	main_z	7	advance_on_keypress_ZEE	48	stimuli_target_trianglerectangles.svg	stimuli_distractor_trianglediamonds.svg	17	yes	57	0	403	0	0			0	0			1				0	
6.6.1	and	2023-06-02	02:21:44	02:29:26	439200	5cbe04b4f429ff00159de30e	4	1	main_z	7	main_z	49	stimuli_distractor_diamondtriangles.svg	stimuli_distractor_trianglediamonds.svg	38	no	44	0	1593	0	0			0	0			1				0	
6.6.1	and	2023-06-02	02:21:44	02:29:26	439200	5cbe04b4f429ff00159de30e	4	1	main_z	7	advance_on_keypress_ZEE	50	stimuli_distractor_diamondtriangles.svg	stimuli_distractor_trianglediamonds.svg	38	no	57	0	512	0	0			0	0			1				0	
6.6.1	and	2023-06-02	02:21:44	02:29:29	442351	5cbe04b4f429ff00159de30e	4	1	main_z	7	main_z	51	stimuli_distractor_diamondtriangles.svg	stimuli_target_trianglesquares.svg	30	yes	0	0	2000	0	0			0	0			1				0	
6.6.1	and	2023-06-02	02:21:44	02:29:29	442351	5cbe04b4f429ff00159de30e	4	1	main_z	7	advance_on_keypress_ZEE	52	stimuli_distractor_diamondtriangles.svg	stimuli_target_trianglesquares.svg	30	yes	57	0	536	0	0			0	0			1				0	
6.6.1	and	2023-06-02	02:21:44	02:29:31	444613	5cbe04b4f429ff00159de30e	4	1	main_z	7	main_z	53	stimuli_distractor_diamondtriangles.svg	stimuli_target_squarediamonds.svg	16	yes	44	1	1069	0	0			0	0			1				0	
6.6.1	and	2023-06-02	02:21:44	02:29:31	444613	5cbe04b4f429ff00159de30e	4	1	main_z	7	advance_on_keypress_ZEE	54	stimuli_distractor_diamondtriangles.svg	stimuli_target_squarediamonds.svg	16	yes	57	0	1909	0	0			0	0			1				0	
6.6.1	and	2023-06-02	02:21:44	02:29:36	449172	5cbe04b4f429ff00159de30e	4	1	main_z	7	main_z	55	stimuli_target_trianglesquares.svg	stimuli_distractor_diamondtriangles.svg	22	yes	0	0	2000	0	0			0	0			1				0	
6.6.1	and	2023-06-02	02:21:44	02:29:36	449172	5cbe04b4f429ff00159de30e	4	1	main_z	7	advance_on_keypress_ZEE	56	stimuli_target_trianglesquares.svg	stimuli_distractor_diamondtriangles.svg	22	yes	57	0	105	0	0			0	0			1				0	
6.6.1	and	2023-06-02	02:21:44	02:29:38	451447	5cbe04b4f429ff00159de30e	4	1	main_z	7	main_z	57	stimuli_target_trianglesquares.svg	stimuli_distractor_trianglediamonds.svg	18	yes	44	1	1514	0	0			0	0			1				0	
6.6.1	and	2023-06-02	02:21:44	02:29:38	451447	5cbe04b4f429ff00159de30e	4	1	main_z	7	advance_on_keypress_ZEE	58	stimuli_target_trianglesquares.svg	stimuli_distractor_trianglediamonds.svg	18	yes	57	0	663	0	0			0	0			1				0	
6.6.1	and	2023-06-02	02:21:44	02:29:40	453931	5cbe04b4f429ff00159de30e	4	1	main_z	7	main_z	59	stimuli_distractor_trianglediamonds.svg	stimuli_target_squarediamonds.svg	12	yes	44	1	1186	0	0			0	0			1				0	
6.6.1	and	2023-06-02	02:21:44	02:29:40	453931	5cbe04b4f429ff00159de30e	4	1	main_z	7	advance_on_keypress_ZEE	60	stimuli_distractor_trianglediamonds.svg	stimuli_target_squarediamonds.svg	12	yes	57	0	923	0	0			0	0			1				0	
6.6.1	and	2023-06-02	02:21:44	02:29:44	457508	5cbe04b4f429ff00159de30e	4	1	main_z	7	main_z	61	stimuli_distractor_diamondtriangles.svg	stimuli_target_diamondrectangles.svg	31	yes	0	0	2000	0	0			0	0			1				0	
6.6.1	and	2023-06-02	02:21:44	02:29:44	457508	5cbe04b4f429ff00159de30e	4	1	main_z	7	advance_on_keypress_ZEE	62	stimuli_distractor_diamondtriangles.svg	stimuli_target_diamondrectangles.svg	31	yes	57	0	242	0	0			0	0			1				0	
6.6.1	and	2023-06-02	02:21:44	02:29:46	459418	5cbe04b4f429ff00159de30e	4	1	main_z	7	main_z	63	stimuli_distractor_trianglediamonds.svg	stimuli_target_rectanglediamonds.svg	10	yes	44	1	1016	0	0			0	0			1				0	
6.6.1	and	2023-06-02	02:21:44	02:29:46	459418	5cbe04b4f429ff00159de30e	4	1	main_z	7	advance_on_keypress_ZEE	64	stimuli_distractor_trianglediamonds.svg	stimuli_target_rectanglediamonds.svg	10	yes	57	0	799	0	0			0	0			1				0	
6.6.1	and	2023-06-02	02:21:44	02:29:49	462187	5cbe04b4f429ff00159de30e	4	1	main_z	7	main_z	65	stimuli_target_diamondsquares.svg	stimuli_distractor_diamondtriangles.svg	24	yes	44	1	1339	0	0			0	0			1				0	
6.6.1	and	2023-06-02	02:21:44	02:29:49	462187	5cbe04b4f429ff00159de30e	4	1	main_z	7	advance_on_keypress_ZEE	66	stimuli_target_diamondsquares.svg	stimuli_distractor_diamondtriangles.svg	24	yes	57	0	577	0	0			0	0			1				0	
6.6.1	and	2023-06-02	02:21:44	02:29:51	464618	5cbe04b4f429ff00159de30e	4	1	main_z	7	main_z	67	stimuli_target_squaretriangles.svg	stimuli_distractor_trianglediamonds.svg	3	yes	44	1	1209	0	0			0	0			1				0	
6.6.1	and	2023-06-02	02:21:44	02:29:51	464618	5cbe04b4f429ff00159de30e	4	1	main_z	7	advance_on_keypress_ZEE	68	stimuli_target_squaretriangles.svg	stimuli_distractor_trianglediamonds.svg	3	yes	57	0	575	0	0			0	0			1				0	
6.6.1	and	2023-06-02	02:21:44	02:29:53	466963	5cbe04b4f429ff00159de30e	4	1	main_z	7	main_z	69	stimuli_distractor_diamondtriangles.svg	stimuli_target_rectanglediamonds.svg	14	yes	44	1	1124	0	0			0	0			1				0	
6.6.1	and	2023-06-02	02:21:44	02:29:53	466963	5cbe04b4f429ff00159de30e	4	1	main_z	7	advance_on_keypress_ZEE	70	stimuli_distractor_diamondtriangles.svg	stimuli_target_rectanglediamonds.svg	14	yes	57	0	497	0	0			0	0			1				0	
6.6.1	and	2023-06-02	02:21:44	02:29:56	469180	5cbe04b4f429ff00159de30e	4	1	main_z	7	main_z	71	stimuli_target_rectanglediamonds.svg	stimuli_distractor_diamondtriangles.svg	6	yes	44	1	1079	0	0			0	0			1				0	
6.6.1	and	2023-06-02	02:21:44	02:29:56	469180	5cbe04b4f429ff00159de30e	4	1	main_z	7	advance_on_keypress_ZEE	72	stimuli_target_rectanglediamonds.svg	stimuli_distractor_diamondtriangles.svg	6	yes	57	0	537	0	0			0	0			1				0	
6.6.1	and	2023-06-02	02:21:44	02:29:58	471354	5cbe04b4f429ff00159de30e	4	1	main_z	7	main_z	73	stimuli_target_rectangletriangles.svg	stimuli_distractor_trianglediamonds.svg	1	yes	44	1	989	0	0			0	0			1				0	
6.6.1	and	2023-06-02	02:21:44	02:29:58	471354	5cbe04b4f429ff00159de30e	4	1	main_z	7	advance_on_keypress_ZEE	74	stimuli_target_rectangletriangles.svg	stimuli_distractor_trianglediamonds.svg	1	yes	57	0	483	0	0			0	0			1				0	
6.6.1	and	2023-06-02	02:21:44	02:30:01	474493	5cbe04b4f429ff00159de30e	4	1	main_z	7	main_z	75	stimuli_distractor_trianglediamonds.svg	stimuli_distractor_diamondtriangles.svg	36	no	0	1	2000	0	0			0	0			1				0	
6.6.1	and	2023-06-02	02:21:44	02:30:01	474493	5cbe04b4f429ff00159de30e	4	1	main_z	7	advance_on_keypress_ZEE	76	stimuli_distractor_trianglediamonds.svg	stimuli_distractor_diamondtriangles.svg	36	no	57	0	537	0	0			0	0			1				0	
6.6.1	and	2023-06-02	02:21:44	02:30:03	476652	5cbe04b4f429ff00159de30e	4	1	main_z	7	main_z	77	stimuli_distractor_diamondtriangles.svg	stimuli_target_squaretriangles.svg	15	yes	44	1	966	0	0			0	0			1				0	
6.6.1	and	2023-06-02	02:21:44	02:30:03	476652	5cbe04b4f429ff00159de30e	4	1	main_z	7	advance_on_keypress_ZEE	78	stimuli_distractor_diamondtriangles.svg	stimuli_target_squaretriangles.svg	15	yes	57	0	1253	0	0			0	0			1				0	
6.6.1	and	2023-06-02	02:21:44	02:30:06	479326	5cbe04b4f429ff00159de30e	4	1	main_z	7	main_z	79	stimuli_distractor_trianglediamonds.svg	stimuli_target_rectangletriangles.svg	9	yes	44	1	778	0	0			0	0			1				0	
6.6.1	and	2023-06-02	02:21:44	02:30:06	479326	5cbe04b4f429ff00159de30e	4	1	main_z	7	advance_on_keypress_ZEE	80	stimuli_distractor_trianglediamonds.svg	stimuli_target_rectangletriangles.svg	9	yes	57	0	572	0	0			0	0			1				0	
6.6.1	and	2023-06-02	02:21:44	02:30:09	482545	5cbe04b4f429ff00159de30e	4	1	main_z	7	main_z	81	stimuli_target_trianglesquares.svg	stimuli_distractor_diamondtriangles.svg	22	yes	0	0	2000	0	0			0	0			1				0	
6.6.1	and	2023-06-02	02:21:44	02:30:09	482545	5cbe04b4f429ff00159de30e	4	1	main_z	7	advance_on_keypress_ZEE	82	stimuli_target_trianglesquares.svg	stimuli_distractor_diamondtriangles.svg	22	yes	57	0	408	0	0			0	0			1				0	
6.6.1	and	2023-06-02	02:21:44	02:30:12	485605	5cbe04b4f429ff00159de30e	4	1	main_z	7	main_z	83	stimuli_distractor_diamondtriangles.svg	stimuli_distractor_diamondtriangles.svg	40	no	0	1	2000	0	0			0	0			1				0	
6.6.1	and	2023-06-02	02:21:44	02:30:12	485605	5cbe04b4f429ff00159de30e	4	1	main_z	7	advance_on_keypress_ZEE	84	stimuli_distractor_diamondtriangles.svg	stimuli_distractor_diamondtriangles.svg	40	no	57	0	763	0	0			0	0			1				0	
6.6.1	and	2023-06-02	02:21:44	02:30:15	488426	5cbe04b4f429ff00159de30e	4	1	main_z	7	main_z	85	stimuli_distractor_trianglediamonds.svg	stimuli_target_trianglesquares.svg	26	yes	44	1	1408	0	0			0	0			1				0	
6.6.1	and	2023-06-02	02:21:44	02:30:15	488426	5cbe04b4f429ff00159de30e	4	1	main_z	7	advance_on_keypress_ZEE	86	stimuli_distractor_trianglediamonds.svg	stimuli_target_trianglesquares.svg	26	yes	57	0	593	0	0			0	0			1				0	
6.6.1	and	2023-06-02	02:21:44	02:30:18	491034	5cbe04b4f429ff00159de30e	4	1	main_z	7	main_z	87	stimuli_distractor_diamondtriangles.svg	stimuli_target_trianglesquares.svg	30	yes	44	1	1373	0	0			0	0			1				0	
6.6.1	and	2023-06-02	02:21:44	02:30:18	491034	5cbe04b4f429ff00159de30e	4	1	main_z	7	advance_on_keypress_ZEE	88	stimuli_distractor_diamondtriangles.svg	stimuli_target_trianglesquares.svg	30	yes	57	0	297	0	0			0	0			1				0	
6.6.1	and	2023-06-02	02:21:44	02:30:21	493973	5cbe04b4f429ff00159de30e	4	1	main_z	7	main_z	89	stimuli_target_diamondsquares.svg	stimuli_distractor_trianglediamonds.svg	20	yes	0	0	2000	0	0			0	0			1				0	
6.6.1	and	2023-06-02	02:21:44	02:30:21	493973	5cbe04b4f429ff00159de30e	4	1	main_z	7	advance_on_keypress_ZEE	90	stimuli_target_diamondsquares.svg	stimuli_distractor_trianglediamonds.svg	20	yes	57	0	350	0	0			0	0			1				0	
6.6.1	and	2023-06-02	02:21:44	02:30:24	496985	5cbe04b4f429ff00159de30e	4	1	main_z	7	main_z	91	stimuli_distractor_diamondtriangles.svg	stimuli_target_diamondsquares.svg	32	yes	0	0	2000	0	0			0	0			1				0	
6.6.1	and	2023-06-02	02:21:44	02:30:24	496985	5cbe04b4f429ff00159de30e	4	1	main_z	7	advance_on_keypress_ZEE	92	stimuli_distractor_diamondtriangles.svg	stimuli_target_diamondsquares.svg	32	yes	57	0	767	0	0			0	0			1				0	
6.6.1	and	2023-06-02	02:21:44	02:30:26	499445	5cbe04b4f429ff00159de30e	4	1	main_z	7	main_z	93	stimuli_target_rectanglediamonds.svg	stimuli_distractor_trianglediamonds.svg	2	yes	44	1	1032	0	0			0	0			1				0	
6.6.1	and	2023-06-02	02:21:44	02:30:26	499445	5cbe04b4f429ff00159de30e	4	1	main_z	7	advance_on_keypress_ZEE	94	stimuli_target_rectanglediamonds.svg	stimuli_distractor_trianglediamonds.svg	2	yes	57	0	1679	0	0			0	0			1				0	
6.6.1	and	2023-06-02	02:21:44	02:30:30	503758	5cbe04b4f429ff00159de30e	4	1	main_z	7	main_z	95	stimuli_distractor_trianglediamonds.svg	stimuli_distractor_diamondtriangles.svg	36	no	0	1	2000	0	0			0	0			1				0	
6.6.1	and	2023-06-02	02:21:44	02:30:30	503758	5cbe04b4f429ff00159de30e	4	1	main_z	7	advance_on_keypress_ZEE	96	stimuli_distractor_trianglediamonds.svg	stimuli_distractor_diamondtriangles.svg	36	no	57	0	926	0	0			0	0			1				0	
6.6.1	and	2023-06-02	02:21:44	02:30:33	506613	5cbe04b4f429ff00159de30e	4	1	main_z	7	main_z	97	stimuli_target_squaretriangles.svg	stimuli_distractor_trianglediamonds.svg	3	yes	44	1	1280	0	0			0	0			1				0	
6.6.1	and	2023-06-02	02:21:44	02:30:33	506613	5cbe04b4f429ff00159de30e	4	1	main_z	7	advance_on_keypress_ZEE	98	stimuli_target_squaretriangles.svg	stimuli_distractor_trianglediamonds.svg	3	yes	57	0	536	0	0			0	0			1				0	
6.6.1	and	2023-06-02	02:21:44	02:30:36	508980	5cbe04b4f429ff00159de30e	4	1	main_z	7	main_z	99	stimuli_distractor_diamondtriangles.svg	stimuli_target_rectanglediamonds.svg	14	yes	44	1	1185	0	0			0	0			1				0	
6.6.1	and	2023-06-02	02:21:44	02:30:36	508980	5cbe04b4f429ff00159de30e	4	1	main_z	7	advance_on_keypress_ZEE	100	stimuli_distractor_diamondtriangles.svg	stimuli_target_rectanglediamonds.svg	14	yes	57	0	432	0	0			0	0			1				0	
6.6.1	and	2023-06-02	02:21:44	02:30:39	512073	5cbe04b4f429ff00159de30e	4	1	main_z	7	main_z	101	stimuli_target_diamondrectangles.svg	stimuli_distractor_trianglediamonds.svg	19	yes	0	0	2000	0	0			0	0			1				0	
6.6.1	and	2023-06-02	02:21:44	02:30:39	512073	5cbe04b4f429ff00159de30e	4	1	main_z	7	advance_on_keypress_ZEE	102	stimuli_target_diamondrectangles.svg	stimuli_distractor_trianglediamonds.svg	19	yes	57	0	945	0	0			0	0			1				0	
6.6.1	and	2023-06-02	02:21:44	02:30:42	515667	5cbe04b4f429ff00159de30e	4	1	main_z	7	main_z	103	stimuli_distractor_diamondtriangles.svg	stimuli_target_diamondrectangles.svg	31	yes	0	0	2000	0	0			0	0			1				0	
6.6.1	and	2023-06-02	02:21:44	02:30:42	515667	5cbe04b4f429ff00159de30e	4	1	main_z	7	advance_on_keypress_ZEE	104	stimuli_distractor_diamondtriangles.svg	stimuli_target_diamondrectangles.svg	31	yes	57	0	360	0	0			0	0			1				0	
6.6.1	and	2023-06-02	02:21:44	02:30:44	517645	5cbe04b4f429ff00159de30e	4	1	main_z	7	main_z	105	stimuli_distractor_trianglediamonds.svg	stimuli_target_rectanglediamonds.svg	10	yes	44	1	966	0	0			0	0			1				0	
6.6.1	and	2023-06-02	02:21:44	02:30:44	517645	5cbe04b4f429ff00159de30e	4	1	main_z	7	advance_on_keypress_ZEE	106	stimuli_distractor_trianglediamonds.svg	stimuli_target_rectanglediamonds.svg	10	yes	57	0	1852	0	0			0	0			1				0	
6.6.1	and	2023-06-02	02:21:44	02:30:49	522156	5cbe04b4f429ff00159de30e	4	1	main_z	7	main_z	107	stimuli_distractor_diamondtriangles.svg	stimuli_target_trianglerectangles.svg	29	yes	0	0	2000	0	0			0	0			1				0	
6.6.1	and	2023-06-02	02:21:44	02:30:49	522156	5cbe04b4f429ff00159de30e	4	1	main_z	7	advance_on_keypress_ZEE	108	stimuli_distractor_diamondtriangles.svg	stimuli_target_trianglerectangles.svg	29	yes	57	0	427	0	0			0	0			1				0	
6.6.1	and	2023-06-02	02:21:44	02:30:51	524299	5cbe04b4f429ff00159de30e	4	1	main_z	7	main_z	109	stimuli_distractor_diamondtriangles.svg	stimuli_target_squaretriangles.svg	15	yes	44	1	1067	0	0			0	0			1				0	
6.6.1	and	2023-06-02	02:21:44	02:30:51	524299	5cbe04b4f429ff00159de30e	4	1	main_z	7	advance_on_keypress_ZEE	110	stimuli_distractor_diamondtriangles.svg	stimuli_target_squaretriangles.svg	15	yes	57	0	1835	0	0			0	0			1				0	
6.6.1	and	2023-06-02	02:21:44	02:30:55	528794	5cbe04b4f429ff00159de30e	4	1	main_z	7	main_z	111	stimuli_target_rectangletriangles.svg	stimuli_distractor_trianglediamonds.svg	1	yes	0	0	2000	0	0			0	0			1				0	
6.6.1	and	2023-06-02	02:21:44	02:30:55	528794	5cbe04b4f429ff00159de30e	4	1	main_z	7	advance_on_keypress_ZEE	112	stimuli_target_rectangletriangles.svg	stimuli_distractor_trianglediamonds.svg	1	yes	57	0	370	0	0			0	0			1				0	
6.6.1	and	2023-06-02	02:21:44	02:30:58	531828	5cbe04b4f429ff00159de30e	4	1	main_z	7	main_z	113	stimuli_distractor_trianglediamonds.svg	stimuli_target_diamondsquares.svg	28	yes	0	0	2000	0	0			0	0			1				0	
6.6.1	and	2023-06-02	02:21:44	02:30:58	531828	5cbe04b4f429ff00159de30e	4	1	main_z	7	advance_on_keypress_ZEE	114	stimuli_distractor_trianglediamonds.svg	stimuli_target_diamondsquares.svg	28	yes	57	0	560	0	0			0	0			1				0	
6.6.1	and	2023-06-02	02:21:44	02:31:01	534164	5cbe04b4f429ff00159de30e	4	1	main_z	7	main_z	115	stimuli_target_squarediamonds.svg	stimuli_distractor_diamondtriangles.svg	8	yes	44	1	1132	0	0			0	0			1				0	
6.6.1	and	2023-06-02	02:21:44	02:31:01	534164	5cbe04b4f429ff00159de30e	4	1	main_z	7	advance_on_keypress_ZEE	116	stimuli_target_squarediamonds.svg	stimuli_distractor_diamondtriangles.svg	8	yes	57	0	1299	0	0			0	0			1				0	
6.6.1	and	2023-06-02	02:21:44	02:31:04	537245	5cbe04b4f429ff00159de30e	4	1	main_z	7	main_z	117	stimuli_distractor_diamondtriangles.svg	stimuli_target_rectangletriangles.svg	13	yes	44	1	1152	0	0			0	0			1				0	
6.6.1	and	2023-06-02	02:21:44	02:31:04	537245	5cbe04b4f429ff00159de30e	4	1	main_z	7	advance_on_keypress_ZEE	118	stimuli_distractor_diamondtriangles.svg	stimuli_target_rectangletriangles.svg	13	yes	57	0	460	0	0			0	0			1				0	
6.6.1	and	2023-06-02	02:21:44	02:31:07	540356	5cbe04b4f429ff00159de30e	4	1	main_z	7	main_z	119	stimuli_distractor_diamondtriangles.svg	stimuli_distractor_diamondtriangles.svg	39	no	0	1	2000	0	0			0	0			1				0	
6.6.1	and	2023-06-02	02:21:44	02:31:07	540356	5cbe04b4f429ff00159de30e	4	1	main_z	7	advance_on_keypress_ZEE	120	stimuli_distractor_diamondtriangles.svg	stimuli_distractor_diamondtriangles.svg	39	no	57	0	665	0	0			0	0			1				0	
6.6.1	and	2023-06-02	02:21:44	02:31:09	542775	5cbe04b4f429ff00159de30e	4	1	main_z	7	main_z	121	stimuli_distractor_trianglediamonds.svg	stimuli_target_rectangletriangles.svg	9	yes	44	1	1091	0	0			0	0			1				0	
6.6.1	and	2023-06-02	02:21:44	02:31:09	542775	5cbe04b4f429ff00159de30e	4	1	main_z	7	advance_on_keypress_ZEE	122	stimuli_distractor_trianglediamonds.svg	stimuli_target_rectangletriangles.svg	9	yes	57	0	591	0	0			0	0			1				0	
6.6.1	and	2023-06-02	02:21:44	02:31:13	546011	5cbe04b4f429ff00159de30e	4	1	main_z	7	main_z	123	stimuli_distractor_diamondtriangles.svg	stimuli_distractor_trianglediamonds.svg	37	no	0	1	2000	0	0			0	0			1				0	
6.6.1	and	2023-06-02	02:21:44	02:31:13	546011	5cbe04b4f429ff00159de30e	4	1	main_z	7	advance_on_keypress_ZEE	124	stimuli_distractor_diamondtriangles.svg	stimuli_distractor_trianglediamonds.svg	37	no	57	0	661	0	0			0	0			1				0	
6.6.1	and	2023-06-02	02:21:44	02:31:16	549323	5cbe04b4f429ff00159de30e	4	1	main_z	7	main_z	125	stimuli_distractor_trianglediamonds.svg	stimuli_distractor_trianglediamonds.svg	34	no	0	1	2000	0	0			0	0			1				0	
6.6.1	and	2023-06-02	02:21:44	02:31:16	549323	5cbe04b4f429ff00159de30e	4	1	main_z	7	advance_on_keypress_ZEE	126	stimuli_distractor_trianglediamonds.svg	stimuli_distractor_trianglediamonds.svg	34	no	57	0	338	0	0			0	0			1				0	
6.6.1	and	2023-06-02	02:21:44	02:31:18	551807	5cbe04b4f429ff00159de30e	4	1	main_z	7	main_z	127	stimuli_target_squaretriangles.svg	stimuli_distractor_diamondtriangles.svg	7	yes	44	1	1486	0	0			0	0			1				0	
6.6.1	and	2023-06-02	02:21:44	02:31:18	551807	5cbe04b4f429ff00159de30e	4	1	main_z	7	advance_on_keypress_ZEE	128	stimuli_target_squaretriangles.svg	stimuli_distractor_diamondtriangles.svg	7	yes	57	0	912	0	0			0	0			1				0	
6.6.1	and	2023-06-02	02:21:44	02:31:22	555362	5cbe04b4f429ff00159de30e	4	1	main_z	7	main_z	129	stimuli_distractor_trianglediamonds.svg	stimuli_distractor_trianglediamonds.svg	33	no	0	1	2000	0	0			0	0			1				0	
6.6.1	and	2023-06-02	02:21:44	02:31:22	555362	5cbe04b4f429ff00159de30e	4	1	main_z	7	advance_on_keypress_ZEE	130	stimuli_distractor_trianglediamonds.svg	stimuli_distractor_trianglediamonds.svg	33	no	57	0	454	0	0			0	0			1				0	
6.6.1	and	2023-06-02	02:21:44	02:31:25	558161	5cbe04b4f429ff00159de30e	4	1	main_z	7	main_z	131	stimuli_target_rectanglediamonds.svg	stimuli_distractor_diamondtriangles.svg	6	yes	44	1	1689	0	0			0	0			1				0	
6.6.1	and	2023-06-02	02:21:44	02:31:25	558161	5cbe04b4f429ff00159de30e	4	1	main_z	7	advance_on_keypress_ZEE	132	stimuli_target_rectanglediamonds.svg	stimuli_distractor_diamondtriangles.svg	6	yes	57	0	977	0	0			0	0			1				0	
6.6.1	and	2023-06-02	02:21:44	02:31:28	561783	5cbe04b4f429ff00159de30e	4	1	main_z	7	main_z	133	stimuli_distractor_trianglediamonds.svg	stimuli_target_trianglerectangles.svg	25	yes	0	0	2000	0	0			0	0			1				0	
6.6.1	and	2023-06-02	02:21:44	02:31:28	561783	5cbe04b4f429ff00159de30e	4	1	main_z	7	advance_on_keypress_ZEE	134	stimuli_distractor_trianglediamonds.svg	stimuli_target_trianglerectangles.svg	25	yes	57	0	501	0	0			0	0			1				0	
6.6.1	and	2023-06-02	02:21:44	02:31:31	564292	5cbe04b4f429ff00159de30e	4	1	main_z	7	main_z	135	stimuli_distractor_trianglediamonds.svg	stimuli_target_squaretriangles.svg	11	yes	44	1	1346	0	0			0	0			1				0	
6.6.1	and	2023-06-02	02:21:44	02:31:31	564292	5cbe04b4f429ff00159de30e	4	1	main_z	7	advance_on_keypress_ZEE	136	stimuli_distractor_trianglediamonds.svg	stimuli_target_squaretriangles.svg	11	yes	57	0	598	0	0			0	0			1				0	
6.6.1	and	2023-06-02	02:21:44	02:31:34	567523	5cbe04b4f429ff00159de30e	4	1	main_z	7	main_z	137	stimuli_target_diamondrectangles.svg	stimuli_distractor_diamondtriangles.svg	23	yes	0	0	2000	0	0			0	0			1				0	
6.6.1	and	2023-06-02	02:21:44	02:31:34	567523	5cbe04b4f429ff00159de30e	4	1	main_z	7	advance_on_keypress_ZEE	138	stimuli_target_diamondrectangles.svg	stimuli_distractor_diamondtriangles.svg	23	yes	57	0	421	0	0			0	0			1				0	
6.6.1	and	2023-06-02	02:21:44	02:31:36	569767	5cbe04b4f429ff00159de30e	4	1	main_z	7	main_z	139	stimuli_distractor_trianglediamonds.svg	stimuli_target_squarediamonds.svg	12	yes	44	1	1165	0	0			0	0			1				0	
6.6.1	and	2023-06-02	02:21:44	02:31:36	569767	5cbe04b4f429ff00159de30e	4	1	main_z	7	advance_on_keypress_ZEE	140	stimuli_distractor_trianglediamonds.svg	stimuli_target_squarediamonds.svg	12	yes	57	0	620	0	0			0	0			1				0	
6.6.1	and	2023-06-02	02:21:44	02:31:39	572506	5cbe04b4f429ff00159de30e	4	1	main_z	7	main_z	141	stimuli_target_diamondsquares.svg	stimuli_distractor_diamondtriangles.svg	24	yes	44	1	1459	0	0			0	0			1				0	
6.6.1	and	2023-06-02	02:21:44	02:31:39	572506	5cbe04b4f429ff00159de30e	4	1	main_z	7	advance_on_keypress_ZEE	142	stimuli_target_diamondsquares.svg	stimuli_distractor_diamondtriangles.svg	24	yes	57	0	561	0	0			0	0			1				0	
6.6.1	and	2023-06-02	02:21:44	02:31:42	575708	5cbe04b4f429ff00159de30e	4	1	main_z	7	main_z	143	stimuli_distractor_trianglediamonds.svg	stimuli_distractor_diamondtriangles.svg	35	no	0	1	2000	0	0			0	0			1				0	
6.6.1	and	2023-06-02	02:21:44	02:31:42	575708	5cbe04b4f429ff00159de30e	4	1	main_z	7	advance_on_keypress_ZEE	144	stimuli_distractor_trianglediamonds.svg	stimuli_distractor_diamondtriangles.svg	35	no	57	0	839	0	0			0	0			1				0	
6.6.1	and	2023-06-02	02:21:44	02:31:45	578602	5cbe04b4f429ff00159de30e	4	1	main_z	7	main_z	145	stimuli_distractor_trianglediamonds.svg	stimuli_target_diamondrectangles.svg	27	yes	44	1	1400	0	0			0	0			1				0	
6.6.1	and	2023-06-02	02:21:44	02:31:45	578602	5cbe04b4f429ff00159de30e	4	1	main_z	7	advance_on_keypress_ZEE	146	stimuli_distractor_trianglediamonds.svg	stimuli_target_diamondrectangles.svg	27	yes	57	0	290	0	0			0	0			1				0	
6.6.1	and	2023-06-02	02:21:44	02:31:48	581162	5cbe04b4f429ff00159de30e	4	1	main_z	7	main_z	147	stimuli_target_squarediamonds.svg	stimuli_distractor_trianglediamonds.svg	4	yes	44	1	1614	0	0			0	0			1				0	
6.6.1	and	2023-06-02	02:21:44	02:31:48	581162	5cbe04b4f429ff00159de30e	4	1	main_z	7	advance_on_keypress_ZEE	148	stimuli_target_squarediamonds.svg	stimuli_distractor_trianglediamonds.svg	4	yes	57	0	1005	0	0			0	0			1				0	
6.6.1	and	2023-06-02	02:21:44	02:31:51	584320	5cbe04b4f429ff00159de30e	4	1	main_z	7	main_z	149	stimuli_target_rectangletriangles.svg	stimuli_distractor_diamondtriangles.svg	5	yes	44	1	1511	0	0			0	0			1				0	
6.6.1	and	2023-06-02	02:21:44	02:31:51	584320	5cbe04b4f429ff00159de30e	4	1	main_z	7	advance_on_keypress_ZEE	150	stimuli_target_rectangletriangles.svg	stimuli_distractor_diamondtriangles.svg	5	yes	57	0	401	0	0			0	0			1				0	
6.6.1	and	2023-06-02	02:21:44	02:31:53	586821	5cbe04b4f429ff00159de30e	4	1	main_z	7	main_z	151	stimuli_target_trianglerectangles.svg	stimuli_distractor_trianglediamonds.svg	17	yes	44	1	1466	0	0			0	0			1				0	
6.6.1	and	2023-06-02	02:21:44	02:31:53	586821	5cbe04b4f429ff00159de30e	4	1	main_z	7	advance_on_keypress_ZEE	152	stimuli_target_trianglerectangles.svg	stimuli_distractor_trianglediamonds.svg	17	yes	57	0	375	0	0			0	0			1				0	
6.6.1	and	2023-06-02	02:21:44	02:31:56	589851	5cbe04b4f429ff00159de30e	4	1	main_z	7	main_z	153	stimuli_distractor_diamondtriangles.svg	stimuli_distractor_trianglediamonds.svg	38	no	0	1	2000	0	0			0	0			1				0	
6.6.1	and	2023-06-02	02:21:44	02:31:56	589851	5cbe04b4f429ff00159de30e	4	1	main_z	7	advance_on_keypress_ZEE	154	stimuli_distractor_diamondtriangles.svg	stimuli_distractor_trianglediamonds.svg	38	no	57	0	1450	0	0			0	0			1				0	
6.6.1	and	2023-06-02	02:21:44	02:32:00	593369	5cbe04b4f429ff00159de30e	4	1	main_z	7	main_z	155	stimuli_target_trianglerectangles.svg	stimuli_distractor_diamondtriangles.svg	21	yes	44	1	1410	0	0			0	0			1				0	
6.6.1	and	2023-06-02	02:21:44	02:32:00	593369	5cbe04b4f429ff00159de30e	4	1	main_z	7	advance_on_keypress_ZEE	156	stimuli_target_trianglerectangles.svg	stimuli_distractor_diamondtriangles.svg	21	yes	57	0	568	0	0			0	0			1				0	
6.6.1	and	2023-06-02	02:21:44	02:32:02	595722	5cbe04b4f429ff00159de30e	4	1	main_z	7	main_z	157	stimuli_distractor_diamondtriangles.svg	stimuli_target_squarediamonds.svg	16	yes	44	1	1135	0	0			0	0			1				0	
6.6.1	and	2023-06-02	02:21:44	02:32:02	595722	5cbe04b4f429ff00159de30e	4	1	main_z	7	advance_on_keypress_ZEE	158	stimuli_distractor_diamondtriangles.svg	stimuli_target_squarediamonds.svg	16	yes	57	0	373	0	0			0	0			1				0	
6.6.1	and	2023-06-02	02:21:44	02:32:04	597957	5cbe04b4f429ff00159de30e	4	1	main_z	7	main_z	159	stimuli_target_trianglesquares.svg	stimuli_distractor_trianglediamonds.svg	18	yes	44	1	1190	0	0			0	0			1				0	
6.6.1	and	2023-06-02	02:21:44	02:32:04	597957	5cbe04b4f429ff00159de30e	4	1	main_z	7	advance_on_keypress_ZEE	160	stimuli_target_trianglesquares.svg	stimuli_distractor_trianglediamonds.svg	18	yes	57	0	356	0	0			0	0			1				0	
6.6.1	and	2023-06-02	02:21:44	02:32:51	644228	5cbe04b4f429ff00159de30e	4	1	practice_slash	9	practice_slash	1	stimuli_distractor_trianglediamonds.svg	stimuli_distractor_diamondtriangles.svg	16	no	0	1	2000	0	0			0	0			1				0	
6.6.1	and	2023-06-02	02:21:44	02:32:51	644228	5cbe04b4f429ff00159de30e	4	1	practice_slash	9	advance_on_keypress_SLASH	2	stimuli_distractor_trianglediamonds.svg	stimuli_distractor_diamondtriangles.svg	16	no	57	0	1116	0	0			0	0			1				0	
6.6.1	and	2023-06-02	02:21:44	02:32:56	649016	5cbe04b4f429ff00159de30e	4	1	practice_slash	9	practice_slash	3	stimuli_distractor_diamondtriangles.svg	stimuli_distractor_diamondtriangles.svg	13	no	0	1	2000	0	0			0	0			1				0	
6.6.1	and	2023-06-02	02:21:44	02:32:56	649016	5cbe04b4f429ff00159de30e	4	1	practice_slash	9	advance_on_keypress_SLASH	4	stimuli_distractor_diamondtriangles.svg	stimuli_distractor_diamondtriangles.svg	13	no	57	0	582	0	0			0	0			1				0	
6.6.1	and	2023-06-02	02:21:44	02:32:59	652321	5cbe04b4f429ff00159de30e	4	1	practice_slash	9	practice_slash	5	stimuli_distractor_trianglediamonds.svg	stimuli_target_diamondrectangles.svg	12	yes	53	1	1064	0	0			0	0			1				0	
6.6.1	and	2023-06-02	02:21:44	02:32:59	652321	5cbe04b4f429ff00159de30e	4	1	practice_slash	9	advance_on_keypress_SLASH	6	stimuli_distractor_trianglediamonds.svg	stimuli_target_diamondrectangles.svg	12	yes	57	0	532	0	0			0	0			1				0	
6.6.1	and	2023-06-02	02:21:44	02:33:02	655494	5cbe04b4f429ff00159de30e	4	1	practice_slash	9	practice_slash	7	stimuli_distractor_diamondtriangles.svg	stimuli_target_rectangletriangles.svg	7	yes	53	1	978	0	0			0	0			1				0	
6.6.1	and	2023-06-02	02:21:44	02:33:02	655494	5cbe04b4f429ff00159de30e	4	1	practice_slash	9	advance_on_keypress_SLASH	8	stimuli_distractor_diamondtriangles.svg	stimuli_target_rectangletriangles.svg	7	yes	57	0	1285	0	0			0	0			1				0	
6.6.1	and	2023-06-02	02:21:44	02:33:06	659201	5cbe04b4f429ff00159de30e	4	1	practice_slash	9	practice_slash	9	stimuli_distractor_trianglediamonds.svg	stimuli_target_squarediamonds.svg	11	yes	53	1	772	0	0			0	0			1				0	
6.6.1	and	2023-06-02	02:21:44	02:33:06	659201	5cbe04b4f429ff00159de30e	4	1	practice_slash	9	advance_on_keypress_SLASH	10	stimuli_distractor_trianglediamonds.svg	stimuli_target_squarediamonds.svg	11	yes	57	0	226	0	0			0	0			1				0	
6.6.1	and	2023-06-02	02:21:44	02:33:08	661888	5cbe04b4f429ff00159de30e	4	1	practice_slash	9	practice_slash	11	stimuli_target_rectanglediamonds.svg	stimuli_distractor_diamondtriangles.svg	1	yes	53	1	816	0	0			0	0			1				0	
6.6.1	and	2023-06-02	02:21:44	02:33:08	661888	5cbe04b4f429ff00159de30e	4	1	practice_slash	9	advance_on_keypress_SLASH	12	stimuli_target_rectanglediamonds.svg	stimuli_distractor_diamondtriangles.svg	1	yes	57	0	550	0	0			0	0			1				0	
6.6.1	and	2023-06-02	02:21:44	02:33:13	666099	5cbe04b4f429ff00159de30e	4	1	practice_slash	9	practice_slash	13	stimuli_distractor_diamondtriangles.svg	stimuli_target_trianglerectangles.svg	9	yes	0	0	2000	0	0			0	0			1				0	
6.6.1	and	2023-06-02	02:21:44	02:33:13	666099	5cbe04b4f429ff00159de30e	4	1	practice_slash	9	advance_on_keypress_SLASH	14	stimuli_distractor_diamondtriangles.svg	stimuli_target_trianglerectangles.svg	9	yes	57	0	728	0	0			0	0			1				0	
6.6.1	and	2023-06-02	02:21:44	02:33:16	669435	5cbe04b4f429ff00159de30e	4	1	practice_slash	9	practice_slash	15	stimuli_target_squarediamonds.svg	stimuli_distractor_trianglediamonds.svg	5	yes	53	1	943	0	0			0	0			1				0	
6.6.1	and	2023-06-02	02:21:44	02:33:16	669435	5cbe04b4f429ff00159de30e	4	1	practice_slash	9	advance_on_keypress_SLASH	16	stimuli_target_squarediamonds.svg	stimuli_distractor_trianglediamonds.svg	5	yes	57	0	909	0	0			0	0			1				0	
6.6.1	and	2023-06-02	02:21:44	02:33:21	673986	5cbe04b4f429ff00159de30e	4	1	practice_slash	9	practice_slash	17	stimuli_distractor_trianglediamonds.svg	stimuli_distractor_trianglediamonds.svg	15	no	0	1	2000	0	0			0	0			1				0	
6.6.1	and	2023-06-02	02:21:44	02:33:21	673986	5cbe04b4f429ff00159de30e	4	1	practice_slash	9	advance_on_keypress_SLASH	18	stimuli_distractor_trianglediamonds.svg	stimuli_distractor_trianglediamonds.svg	15	no	57	0	423	0	0			0	0			1				0	
6.6.1	and	2023-06-02	02:21:44	02:33:24	677199	5cbe04b4f429ff00159de30e	4	1	practice_slash	9	practice_slash	19	stimuli_target_squarediamonds.svg	stimuli_distractor_diamondtriangles.svg	2	yes	53	1	1137	0	0			0	0			1				0	
6.6.1	and	2023-06-02	02:21:44	02:33:24	677199	5cbe04b4f429ff00159de30e	4	1	practice_slash	9	advance_on_keypress_SLASH	20	stimuli_target_squarediamonds.svg	stimuli_distractor_diamondtriangles.svg	2	yes	57	0	1190	0	0			0	0			1				0	
6.6.1	and	2023-06-02	02:21:44	02:33:28	681241	5cbe04b4f429ff00159de30e	4	1	practice_slash	9	practice_slash	21	stimuli_target_diamondsquares.svg	stimuli_distractor_diamondtriangles.svg	3	yes	53	1	1202	0	0			0	0			1				0	
6.6.1	and	2023-06-02	02:21:44	02:33:28	681241	5cbe04b4f429ff00159de30e	4	1	practice_slash	9	advance_on_keypress_SLASH	22	stimuli_target_diamondsquares.svg	stimuli_distractor_diamondtriangles.svg	3	yes	57	0	738	0	0			0	0			1				0	
6.6.1	and	2023-06-02	02:21:44	02:33:32	685631	5cbe04b4f429ff00159de30e	4	1	practice_slash	9	practice_slash	23	stimuli_distractor_diamondtriangles.svg	stimuli_target_diamondrectangles.svg	8	yes	0	0	2000	0	0			0	0			1				0	
6.6.1	and	2023-06-02	02:21:44	02:33:32	685631	5cbe04b4f429ff00159de30e	4	1	practice_slash	9	advance_on_keypress_SLASH	24	stimuli_distractor_diamondtriangles.svg	stimuli_target_diamondrectangles.svg	8	yes	57	0	1183	0	0			0	0			1				0	
6.6.1	and	2023-06-02	02:21:44	02:33:36	689450	5cbe04b4f429ff00159de30e	4	1	practice_slash	9	practice_slash	25	stimuli_distractor_trianglediamonds.svg	stimuli_target_rectanglediamonds.svg	10	yes	53	1	979	0	0			0	0			1				0	
6.6.1	and	2023-06-02	02:21:44	02:33:36	689450	5cbe04b4f429ff00159de30e	4	1	practice_slash	9	advance_on_keypress_SLASH	26	stimuli_distractor_trianglediamonds.svg	stimuli_target_rectanglediamonds.svg	10	yes	57	0	541	0	0			0	0			1				0	
6.6.1	and	2023-06-02	02:21:44	02:33:39	692704	5cbe04b4f429ff00159de30e	4	1	practice_slash	9	practice_slash	27	stimuli_target_rectanglediamonds.svg	stimuli_distractor_trianglediamonds.svg	4	yes	53	1	1070	0	0			0	0			1				0	
6.6.1	and	2023-06-02	02:21:44	02:33:39	692704	5cbe04b4f429ff00159de30e	4	1	practice_slash	9	advance_on_keypress_SLASH	28	stimuli_target_rectanglediamonds.svg	stimuli_distractor_trianglediamonds.svg	4	yes	57	0	44	0	0			0	0			1				0	
6.6.1	and	2023-06-02	02:21:44	02:33:42	695890	5cbe04b4f429ff00159de30e	4	1	practice_slash	9	practice_slash	29	stimuli_target_diamondsquares.svg	stimuli_distractor_trianglediamonds.svg	6	yes	53	1	1495	0	0			0	0			1				0	
6.6.1	and	2023-06-02	02:21:44	02:33:42	695890	5cbe04b4f429ff00159de30e	4	1	practice_slash	9	advance_on_keypress_SLASH	30	stimuli_target_diamondsquares.svg	stimuli_distractor_trianglediamonds.svg	6	yes	57	0	627	0	0			0	0			1				0	
6.6.1	and	2023-06-02	02:21:44	02:33:47	700188	5cbe04b4f429ff00159de30e	4	1	practice_slash	9	practice_slash	31	stimuli_distractor_diamondtriangles.svg	stimuli_distractor_trianglediamonds.svg	14	no	0	1	2000	0	0			0	0			1				0	
6.6.1	and	2023-06-02	02:21:44	02:33:47	700188	5cbe04b4f429ff00159de30e	4	1	practice_slash	9	advance_on_keypress_SLASH	32	stimuli_distractor_diamondtriangles.svg	stimuli_distractor_trianglediamonds.svg	14	no	57	0	1022	0	0			0	0			1				0	
6.6.1	and	2023-06-02	02:21:44	02:33:51	704352	5cbe04b4f429ff00159de30e	4	1	main_slash	11	main_slash	1	stimuli_target_trianglesquares.svg	stimuli_distractor_trianglediamonds.svg	18	yes	53	1	993	0	0			0	0			1				0	
6.6.1	and	2023-06-02	02:21:44	02:33:51	704352	5cbe04b4f429ff00159de30e	4	1	main_slash	11	advance_on_keypress_SLASH	2	stimuli_target_trianglesquares.svg	stimuli_distractor_trianglediamonds.svg	18	yes	57	0	962	0	0			0	0			1				0	
6.6.1	and	2023-06-02	02:21:44	02:33:54	707109	5cbe04b4f429ff00159de30e	4	1	main_slash	11	main_slash	3	stimuli_target_diamondrectangles.svg	stimuli_distractor_diamondtriangles.svg	23	yes	53	1	1158	0	0			0	0			1				0	
6.6.1	and	2023-06-02	02:21:44	02:33:54	707109	5cbe04b4f429ff00159de30e	4	1	main_slash	11	advance_on_keypress_SLASH	4	stimuli_target_diamondrectangles.svg	stimuli_distractor_diamondtriangles.svg	23	yes	57	0	617	0	0			0	0			1				0	
6.6.1	and	2023-06-02	02:21:44	02:33:57	710380	5cbe04b4f429ff00159de30e	4	1	main_slash	11	main_slash	5	stimuli_distractor_diamondtriangles.svg	stimuli_target_diamondsquares.svg	32	yes	0	0	2000	0	0			0	0			1				0	
6.6.1	and	2023-06-02	02:21:44	02:33:57	710380	5cbe04b4f429ff00159de30e	4	1	main_slash	11	advance_on_keypress_SLASH	6	stimuli_distractor_diamondtriangles.svg	stimuli_target_diamondsquares.svg	32	yes	57	0	507	0	0			0	0			1				0	
6.6.1	and	2023-06-02	02:21:44	02:33:59	712660	5cbe04b4f429ff00159de30e	4	1	main_slash	11	main_slash	7	stimuli_distractor_trianglediamonds.svg	stimuli_target_trianglerectangles.svg	25	yes	53	1	1121	0	0			0	0			1				0	
6.6.1	and	2023-06-02	02:21:44	02:33:59	712660	5cbe04b4f429ff00159de30e	4	1	main_slash	11	advance_on_keypress_SLASH	8	stimuli_distractor_trianglediamonds.svg	stimuli_target_trianglerectangles.svg	25	yes	57	0	820	0	0			0	0			1				0	
6.6.1	and	2023-06-02	02:21:44	02:34:02	715212	5cbe04b4f429ff00159de30e	4	1	main_slash	11	main_slash	9	stimuli_target_rectanglediamonds.svg	stimuli_distractor_diamondtriangles.svg	6	yes	53	1	1077	0	0			0	0			1				0	
6.6.1	and	2023-06-02	02:21:44	02:34:02	715212	5cbe04b4f429ff00159de30e	4	1	main_slash	11	advance_on_keypress_SLASH	10	stimuli_target_rectanglediamonds.svg	stimuli_distractor_diamondtriangles.svg	6	yes	57	0	394	0	0			0	0			1				0	
6.6.1	and	2023-06-02	02:21:44	02:34:04	717220	5cbe04b4f429ff00159de30e	4	1	main_slash	11	main_slash	11	stimuli_target_trianglerectangles.svg	stimuli_distractor_diamondtriangles.svg	21	yes	53	1	970	0	0			0	0			1				0	
6.6.1	and	2023-06-02	02:21:44	02:34:04	717220	5cbe04b4f429ff00159de30e	4	1	main_slash	11	advance_on_keypress_SLASH	12	stimuli_target_trianglerectangles.svg	stimuli_distractor_diamondtriangles.svg	21	yes	57	0	464	0	0			0	0			1				0	
6.6.1	and	2023-06-02	02:21:44	02:34:06	719337	5cbe04b4f429ff00159de30e	4	1	main_slash	11	main_slash	13	stimuli_target_diamondrectangles.svg	stimuli_distractor_trianglediamonds.svg	19	yes	53	1	1010	0	0			0	0			1				0	
6.6.1	and	2023-06-02	02:21:44	02:34:06	719337	5cbe04b4f429ff00159de30e	4	1	main_slash	11	advance_on_keypress_SLASH	14	stimuli_target_diamondrectangles.svg	stimuli_distractor_trianglediamonds.svg	19	yes	57	0	1249	0	0			0	0			1				0	
6.6.1	and	2023-06-02	02:21:44	02:34:09	722693	5cbe04b4f429ff00159de30e	4	1	main_slash	11	main_slash	15	stimuli_distractor_trianglediamonds.svg	stimuli_distractor_trianglediamonds.svg	34	no	53	0	1452	0	0			0	0			1				0	
6.6.1	and	2023-06-02	02:21:44	02:34:09	722693	5cbe04b4f429ff00159de30e	4	1	main_slash	11	advance_on_keypress_SLASH	16	stimuli_distractor_trianglediamonds.svg	stimuli_distractor_trianglediamonds.svg	34	no	57	0	325	0	0			0	0			1				0	
6.6.1	and	2023-06-02	02:21:44	02:34:11	724704	5cbe04b4f429ff00159de30e	4	1	main_slash	11	main_slash	17	stimuli_target_squaretriangles.svg	stimuli_distractor_trianglediamonds.svg	3	yes	53	1	1035	0	0			0	0			1				0	
6.6.1	and	2023-06-02	02:21:44	02:34:11	724704	5cbe04b4f429ff00159de30e	4	1	main_slash	11	advance_on_keypress_SLASH	18	stimuli_target_squaretriangles.svg	stimuli_distractor_trianglediamonds.svg	3	yes	57	0	405	0	0			0	0			1				0	
6.6.1	and	2023-06-02	02:21:44	02:34:13	726827	5cbe04b4f429ff00159de30e	4	1	main_slash	11	main_slash	19	stimuli_target_rectangletriangles.svg	stimuli_distractor_trianglediamonds.svg	1	yes	53	1	1061	0	0			0	0			1				0	
6.6.1	and	2023-06-02	02:21:44	02:34:13	726827	5cbe04b4f429ff00159de30e	4	1	main_slash	11	advance_on_keypress_SLASH	20	stimuli_target_rectangletriangles.svg	stimuli_distractor_trianglediamonds.svg	1	yes	57	0	472	0	0			0	0			1				0	
6.6.1	and	2023-06-02	02:21:44	02:34:16	729944	5cbe04b4f429ff00159de30e	4	1	main_slash	11	main_slash	21	stimuli_distractor_trianglediamonds.svg	stimuli_distractor_diamondtriangles.svg	36	no	0	1	2000	0	0			0	0			1				0	
6.6.1	and	2023-06-02	02:21:44	02:34:16	729944	5cbe04b4f429ff00159de30e	4	1	main_slash	11	advance_on_keypress_SLASH	22	stimuli_distractor_trianglediamonds.svg	stimuli_distractor_diamondtriangles.svg	36	no	57	0	530	0	0			0	0			1				0	
6.6.1	and	2023-06-02	02:21:44	02:34:20	733120	5cbe04b4f429ff00159de30e	4	1	main_slash	11	main_slash	23	stimuli_distractor_diamondtriangles.svg	stimuli_target_trianglerectangles.svg	29	yes	0	0	2000	0	0			0	0			1				0	
6.6.1	and	2023-06-02	02:21:44	02:34:20	733120	5cbe04b4f429ff00159de30e	4	1	main_slash	11	advance_on_keypress_SLASH	24	stimuli_distractor_diamondtriangles.svg	stimuli_target_trianglerectangles.svg	29	yes	57	0	718	0	0			0	0			1				0	
6.6.1	and	2023-06-02	02:21:44	02:34:22	735529	5cbe04b4f429ff00159de30e	4	1	main_slash	11	main_slash	25	stimuli_target_trianglesquares.svg	stimuli_distractor_diamondtriangles.svg	22	yes	53	1	1047	0	0			0	0			1				0	
6.6.1	and	2023-06-02	02:21:44	02:34:22	735529	5cbe04b4f429ff00159de30e	4	1	main_slash	11	advance_on_keypress_SLASH	26	stimuli_target_trianglesquares.svg	stimuli_distractor_diamondtriangles.svg	22	yes	57	0	703	0	0			0	0			1				0	
6.6.1	and	2023-06-02	02:21:44	02:34:25	738669	5cbe04b4f429ff00159de30e	4	1	main_slash	11	main_slash	27	stimuli_distractor_trianglediamonds.svg	stimuli_distractor_diamondtriangles.svg	35	no	53	0	1792	0	0			0	0			1				0	
6.6.1	and	2023-06-02	02:21:44	02:34:25	738669	5cbe04b4f429ff00159de30e	4	1	main_slash	11	advance_on_keypress_SLASH	28	stimuli_distractor_trianglediamonds.svg	stimuli_distractor_diamondtriangles.svg	35	no	57	0	772	0	0			0	0			1				0	
6.6.1	and	2023-06-02	02:21:44	02:34:28	741130	5cbe04b4f429ff00159de30e	4	1	main_slash	11	main_slash	29	stimuli_target_rectanglediamonds.svg	stimuli_distractor_trianglediamonds.svg	2	yes	53	1	1042	0	0			0	0			1				0	
6.6.1	and	2023-06-02	02:21:44	02:34:28	741130	5cbe04b4f429ff00159de30e	4	1	main_slash	11	advance_on_keypress_SLASH	30	stimuli_target_rectanglediamonds.svg	stimuli_distractor_trianglediamonds.svg	2	yes	57	0	442	0	0			0	0			1				0	
6.6.1	and	2023-06-02	02:21:44	02:34:30	743381	5cbe04b4f429ff00159de30e	4	1	main_slash	11	main_slash	31	stimuli_target_trianglerectangles.svg	stimuli_distractor_trianglediamonds.svg	17	yes	53	1	1164	0	0			0	0			1				0	
6.6.1	and	2023-06-02	02:21:44	02:34:30	743381	5cbe04b4f429ff00159de30e	4	1	main_slash	11	advance_on_keypress_SLASH	32	stimuli_target_trianglerectangles.svg	stimuli_distractor_trianglediamonds.svg	17	yes	57	0	530	0	0			0	0			1				0	
6.6.1	and	2023-06-02	02:21:44	02:34:32	745734	5cbe04b4f429ff00159de30e	4	1	main_slash	11	main_slash	33	stimuli_distractor_diamondtriangles.svg	stimuli_target_trianglesquares.svg	30	yes	53	1	1188	0	0			0	0			1				0	
6.6.1	and	2023-06-02	02:21:44	02:34:32	745734	5cbe04b4f429ff00159de30e	4	1	main_slash	11	advance_on_keypress_SLASH	34	stimuli_distractor_diamondtriangles.svg	stimuli_target_trianglesquares.svg	30	yes	57	0	652	0	0			0	0			1				0	
6.6.1	and	2023-06-02	02:21:44	02:34:35	748353	5cbe04b4f429ff00159de30e	4	1	main_slash	11	main_slash	35	stimuli_distractor_trianglediamonds.svg	stimuli_target_squaretriangles.svg	11	yes	53	1	1311	0	0			0	0			1				0	
6.6.1	and	2023-06-02	02:21:44	02:34:35	748353	5cbe04b4f429ff00159de30e	4	1	main_slash	11	advance_on_keypress_SLASH	36	stimuli_distractor_trianglediamonds.svg	stimuli_target_squaretriangles.svg	11	yes	57	0	458	0	0			0	0			1				0	
6.6.1	and	2023-06-02	02:21:44	02:34:38	751455	5cbe04b4f429ff00159de30e	4	1	main_slash	11	main_slash	37	stimuli_target_diamondsquares.svg	stimuli_distractor_trianglediamonds.svg	20	yes	0	0	2000	0	0			0	0			1				0	
6.6.1	and	2023-06-02	02:21:44	02:34:38	751455	5cbe04b4f429ff00159de30e	4	1	main_slash	11	advance_on_keypress_SLASH	38	stimuli_target_diamondsquares.svg	stimuli_distractor_trianglediamonds.svg	20	yes	57	0	734	0	0			0	0			1				0	
6.6.1	and	2023-06-02	02:21:44	02:34:40	753844	5cbe04b4f429ff00159de30e	4	1	main_slash	11	main_slash	39	stimuli_distractor_trianglediamonds.svg	stimuli_target_rectangletriangles.svg	9	yes	53	1	995	0	0			0	0			1				0	
6.6.1	and	2023-06-02	02:21:44	02:34:40	753844	5cbe04b4f429ff00159de30e	4	1	main_slash	11	advance_on_keypress_SLASH	40	stimuli_distractor_trianglediamonds.svg	stimuli_target_rectangletriangles.svg	9	yes	57	0	384	0	0			0	0			1				0	
6.6.1	and	2023-06-02	02:21:44	02:34:43	756861	5cbe04b4f429ff00159de30e	4	1	main_slash	11	main_slash	41	stimuli_distractor_trianglediamonds.svg	stimuli_distractor_trianglediamonds.svg	33	no	0	1	2000	0	0			0	0			1				0	
6.6.1	and	2023-06-02	02:21:44	02:34:43	756861	5cbe04b4f429ff00159de30e	4	1	main_slash	11	advance_on_keypress_SLASH	42	stimuli_distractor_trianglediamonds.svg	stimuli_distractor_trianglediamonds.svg	33	no	57	0	625	0	0			0	0			1				0	
6.6.1	and	2023-06-02	02:21:44	02:34:46	759402	5cbe04b4f429ff00159de30e	4	1	main_slash	11	main_slash	43	stimuli_distractor_diamondtriangles.svg	stimuli_distractor_trianglediamonds.svg	38	no	53	0	1263	0	0			0	0			1				0	
6.6.1	and	2023-06-02	02:21:44	02:34:46	759402	5cbe04b4f429ff00159de30e	4	1	main_slash	11	advance_on_keypress_SLASH	44	stimuli_distractor_diamondtriangles.svg	stimuli_distractor_trianglediamonds.svg	38	no	57	0	466	0	0			0	0			1				0	
6.6.1	and	2023-06-02	02:21:44	02:34:48	761964	5cbe04b4f429ff00159de30e	4	1	main_slash	11	main_slash	45	stimuli_distractor_trianglediamonds.svg	stimuli_target_diamondsquares.svg	28	yes	53	1	1463	0	0			0	0			1				0	
6.6.1	and	2023-06-02	02:21:44	02:34:48	761964	5cbe04b4f429ff00159de30e	4	1	main_slash	11	advance_on_keypress_SLASH	46	stimuli_distractor_trianglediamonds.svg	stimuli_target_diamondsquares.svg	28	yes	57	0	620	0	0			0	0			1				0	
6.6.1	and	2023-06-02	02:21:44	02:34:51	764230	5cbe04b4f429ff00159de30e	4	1	main_slash	11	main_slash	47	stimuli_distractor_trianglediamonds.svg	stimuli_target_rectanglediamonds.svg	10	yes	53	1	1000	0	0			0	0			1				0	
6.6.1	and	2023-06-02	02:21:44	02:34:51	764230	5cbe04b4f429ff00159de30e	4	1	main_slash	11	advance_on_keypress_SLASH	48	stimuli_distractor_trianglediamonds.svg	stimuli_target_rectanglediamonds.svg	10	yes	57	0	296	0	0			0	0			1				0	
6.6.1	and	2023-06-02	02:21:44	02:34:52	765929	5cbe04b4f429ff00159de30e	4	1	main_slash	11	main_slash	49	stimuli_distractor_diamondtriangles.svg	stimuli_target_squarediamonds.svg	16	yes	53	1	754	0	0			0	0			1				0	
6.6.1	and	2023-06-02	02:21:44	02:34:52	765929	5cbe04b4f429ff00159de30e	4	1	main_slash	11	advance_on_keypress_SLASH	50	stimuli_distractor_diamondtriangles.svg	stimuli_target_squarediamonds.svg	16	yes	57	0	466	0	0			0	0			1				0	
6.6.1	and	2023-06-02	02:21:44	02:34:56	769056	5cbe04b4f429ff00159de30e	4	1	main_slash	11	main_slash	51	stimuli_distractor_diamondtriangles.svg	stimuli_distractor_diamondtriangles.svg	39	no	0	1	2000	0	0			0	0			1				0	
6.6.1	and	2023-06-02	02:21:44	02:34:56	769056	5cbe04b4f429ff00159de30e	4	1	main_slash	11	advance_on_keypress_SLASH	52	stimuli_distractor_diamondtriangles.svg	stimuli_distractor_diamondtriangles.svg	39	no	57	0	513	0	0			0	0			1				0	
6.6.1	and	2023-06-02	02:21:44	02:34:58	771008	5cbe04b4f429ff00159de30e	4	1	main_slash	11	main_slash	53	stimuli_target_rectangletriangles.svg	stimuli_distractor_diamondtriangles.svg	5	yes	53	1	790	0	0			0	0			1				0	
6.6.1	and	2023-06-02	02:21:44	02:34:58	771008	5cbe04b4f429ff00159de30e	4	1	main_slash	11	advance_on_keypress_SLASH	54	stimuli_target_rectangletriangles.svg	stimuli_distractor_diamondtriangles.svg	5	yes	57	0	419	0	0			0	0			1				0	
6.6.1	and	2023-06-02	02:21:44	02:34:59	772874	5cbe04b4f429ff00159de30e	4	1	main_slash	11	main_slash	55	stimuli_target_squaretriangles.svg	stimuli_distractor_diamondtriangles.svg	7	yes	53	1	793	0	0			0	0			1				0	
6.6.1	and	2023-06-02	02:21:44	02:34:59	772874	5cbe04b4f429ff00159de30e	4	1	main_slash	11	advance_on_keypress_SLASH	56	stimuli_target_squaretriangles.svg	stimuli_distractor_diamondtriangles.svg	7	yes	57	0	396	0	0			0	0			1				0	
6.6.1	and	2023-06-02	02:21:44	02:35:02	775909	5cbe04b4f429ff00159de30e	4	1	main_slash	11	main_slash	57	stimuli_distractor_diamondtriangles.svg	stimuli_distractor_diamondtriangles.svg	40	no	0	1	2000	0	0			0	0			1				0	
6.6.1	and	2023-06-02	02:21:44	02:35:02	775909	5cbe04b4f429ff00159de30e	4	1	main_slash	11	advance_on_keypress_SLASH	58	stimuli_distractor_diamondtriangles.svg	stimuli_distractor_diamondtriangles.svg	40	no	57	0	1118	0	0			0	0			1				0	
6.6.1	and	2023-06-02	02:21:44	02:35:05	778721	5cbe04b4f429ff00159de30e	4	1	main_slash	11	main_slash	59	stimuli_distractor_diamondtriangles.svg	stimuli_target_squaretriangles.svg	15	yes	53	1	1034	0	0			0	0			1				0	
6.6.1	and	2023-06-02	02:21:44	02:35:05	778721	5cbe04b4f429ff00159de30e	4	1	main_slash	11	advance_on_keypress_SLASH	60	stimuli_distractor_diamondtriangles.svg	stimuli_target_squaretriangles.svg	15	yes	57	0	319	0	0			0	0			1				0	
6.6.1	and	2023-06-02	02:21:44	02:35:08	781271	5cbe04b4f429ff00159de30e	4	1	main_slash	11	main_slash	61	stimuli_distractor_trianglediamonds.svg	stimuli_target_diamondrectangles.svg	27	yes	53	1	1573	0	0			0	0			1				0	
6.6.1	and	2023-06-02	02:21:44	02:35:08	781271	5cbe04b4f429ff00159de30e	4	1	main_slash	11	advance_on_keypress_SLASH	62	stimuli_distractor_trianglediamonds.svg	stimuli_target_diamondrectangles.svg	27	yes	57	0	481	0	0			0	0			1				0	
6.6.1	and	2023-06-02	02:21:44	02:35:10	783519	5cbe04b4f429ff00159de30e	4	1	main_slash	11	main_slash	63	stimuli_target_squarediamonds.svg	stimuli_distractor_trianglediamonds.svg	4	yes	53	1	1125	0	0			0	0			1				0	
6.6.1	and	2023-06-02	02:21:44	02:35:10	783519	5cbe04b4f429ff00159de30e	4	1	main_slash	11	advance_on_keypress_SLASH	64	stimuli_target_squarediamonds.svg	stimuli_distractor_trianglediamonds.svg	4	yes	57	0	388	0	0			0	0			1				0	
6.6.1	and	2023-06-02	02:21:44	02:35:12	785655	5cbe04b4f429ff00159de30e	4	1	main_slash	11	main_slash	65	stimuli_distractor_diamondtriangles.svg	stimuli_target_rectanglediamonds.svg	14	yes	53	1	1099	0	0			0	0			1				0	
6.6.1	and	2023-06-02	02:21:44	02:35:12	785655	5cbe04b4f429ff00159de30e	4	1	main_slash	11	advance_on_keypress_SLASH	66	stimuli_distractor_diamondtriangles.svg	stimuli_target_rectanglediamonds.svg	14	yes	57	0	350	0	0			0	0			1				0	
6.6.1	and	2023-06-02	02:21:44	02:35:14	787716	5cbe04b4f429ff00159de30e	4	1	main_slash	11	main_slash	67	stimuli_distractor_trianglediamonds.svg	stimuli_target_squarediamonds.svg	12	yes	53	1	1081	0	0			0	0			1				0	
6.6.1	and	2023-06-02	02:21:44	02:35:14	787716	5cbe04b4f429ff00159de30e	4	1	main_slash	11	advance_on_keypress_SLASH	68	stimuli_distractor_trianglediamonds.svg	stimuli_target_squarediamonds.svg	12	yes	57	0	362	0	0			0	0			1				0	
6.6.1	and	2023-06-02	02:21:44	02:35:16	789502	5cbe04b4f429ff00159de30e	4	1	main_slash	11	main_slash	69	stimuli_distractor_diamondtriangles.svg	stimuli_target_rectangletriangles.svg	13	yes	53	1	786	0	0			0	0			1				0	
6.6.1	and	2023-06-02	02:21:44	02:35:16	789502	5cbe04b4f429ff00159de30e	4	1	main_slash	11	advance_on_keypress_SLASH	70	stimuli_distractor_diamondtriangles.svg	stimuli_target_rectangletriangles.svg	13	yes	57	0	493	0	0			0	0			1				0	
6.6.1	and	2023-06-02	02:21:44	02:35:19	792645	5cbe04b4f429ff00159de30e	4	1	main_slash	11	main_slash	71	stimuli_distractor_diamondtriangles.svg	stimuli_distractor_trianglediamonds.svg	37	no	0	1	2000	0	0			0	0			1				0	
6.6.1	and	2023-06-02	02:21:44	02:35:19	792645	5cbe04b4f429ff00159de30e	4	1	main_slash	11	advance_on_keypress_SLASH	72	stimuli_distractor_diamondtriangles.svg	stimuli_distractor_trianglediamonds.svg	37	no	57	0	875	0	0			0	0			1				0	
6.6.1	and	2023-06-02	02:21:44	02:35:22	795305	5cbe04b4f429ff00159de30e	4	1	main_slash	11	main_slash	73	stimuli_distractor_trianglediamonds.svg	stimuli_target_trianglesquares.svg	26	yes	53	1	1112	0	0			0	0			1				0	
6.6.1	and	2023-06-02	02:21:44	02:35:22	795305	5cbe04b4f429ff00159de30e	4	1	main_slash	11	advance_on_keypress_SLASH	74	stimuli_distractor_trianglediamonds.svg	stimuli_target_trianglesquares.svg	26	yes	57	0	319	0	0			0	0			1				0	
6.6.1	and	2023-06-02	02:21:44	02:35:24	797364	5cbe04b4f429ff00159de30e	4	1	main_slash	11	main_slash	75	stimuli_target_squarediamonds.svg	stimuli_distractor_diamondtriangles.svg	8	yes	53	1	1079	0	0			0	0			1				0	
6.6.1	and	2023-06-02	02:21:44	02:35:24	797364	5cbe04b4f429ff00159de30e	4	1	main_slash	11	advance_on_keypress_SLASH	76	stimuli_target_squarediamonds.svg	stimuli_distractor_diamondtriangles.svg	8	yes	57	0	413	0	0			0	0			1				0	
6.6.1	and	2023-06-02	02:21:44	02:35:26	799595	5cbe04b4f429ff00159de30e	4	1	main_slash	11	main_slash	77	stimuli_target_diamondsquares.svg	stimuli_distractor_diamondtriangles.svg	24	yes	53	1	1179	0	0			0	0			1				0	
6.6.1	and	2023-06-02	02:21:44	02:35:26	799595	5cbe04b4f429ff00159de30e	4	1	main_slash	11	advance_on_keypress_SLASH	78	stimuli_target_diamondsquares.svg	stimuli_distractor_diamondtriangles.svg	24	yes	57	0	518	0	0			0	0			1				0	
6.6.1	and	2023-06-02	02:21:44	02:35:29	802745	5cbe04b4f429ff00159de30e	4	1	main_slash	11	main_slash	79	stimuli_distractor_diamondtriangles.svg	stimuli_target_diamondrectangles.svg	31	yes	0	0	2000	0	0			0	0			1				0	
6.6.1	and	2023-06-02	02:21:44	02:35:29	802745	5cbe04b4f429ff00159de30e	4	1	main_slash	11	advance_on_keypress_SLASH	80	stimuli_distractor_diamondtriangles.svg	stimuli_target_diamondrectangles.svg	31	yes	57	0	342	0	0			0	0			1				0	
6.6.1	and	2023-06-02	02:21:44	02:35:31	804759	5cbe04b4f429ff00159de30e	4	1	main_slash	11	main_slash	81	stimuli_distractor_diamondtriangles.svg	stimuli_target_squarediamonds.svg	16	yes	53	1	1021	0	0			0	0			1				0	
6.6.1	and	2023-06-02	02:21:44	02:35:31	804759	5cbe04b4f429ff00159de30e	4	1	main_slash	11	advance_on_keypress_SLASH	82	stimuli_distractor_diamondtriangles.svg	stimuli_target_squarediamonds.svg	16	yes	57	0	330	0	0			0	0			1				0	
6.6.1	and	2023-06-02	02:21:44	02:35:34	807751	5cbe04b4f429ff00159de30e	4	1	main_slash	11	main_slash	83	stimuli_target_diamondrectangles.svg	stimuli_distractor_diamondtriangles.svg	23	yes	0	0	2000	0	0			0	0			1				0	
6.6.1	and	2023-06-02	02:21:44	02:35:34	807751	5cbe04b4f429ff00159de30e	4	1	main_slash	11	advance_on_keypress_SLASH	84	stimuli_target_diamondrectangles.svg	stimuli_distractor_diamondtriangles.svg	23	yes	57	0	729	0	0			0	0			1				0	
6.6.1	and	2023-06-02	02:21:44	02:35:36	809955	5cbe04b4f429ff00159de30e	4	1	main_slash	11	main_slash	85	stimuli_target_trianglerectangles.svg	stimuli_distractor_diamondtriangles.svg	21	yes	53	1	822	0	0			0	0			1				0	
6.6.1	and	2023-06-02	02:21:44	02:35:36	809955	5cbe04b4f429ff00159de30e	4	1	main_slash	11	advance_on_keypress_SLASH	86	stimuli_target_trianglerectangles.svg	stimuli_distractor_diamondtriangles.svg	21	yes	57	0	497	0	0			0	0			1				0	
6.6.1	and	2023-06-02	02:21:44	02:35:39	812262	5cbe04b4f429ff00159de30e	4	1	main_slash	11	main_slash	87	stimuli_target_diamondsquares.svg	stimuli_distractor_diamondtriangles.svg	24	yes	53	1	1171	0	0			0	0			1				0	
6.6.1	and	2023-06-02	02:21:44	02:35:39	812262	5cbe04b4f429ff00159de30e	4	1	main_slash	11	advance_on_keypress_SLASH	88	stimuli_target_diamondsquares.svg	stimuli_distractor_diamondtriangles.svg	24	yes	57	0	319	0	0			0	0			1				0	
6.6.1	and	2023-06-02	02:21:44	02:35:42	815238	5cbe04b4f429ff00159de30e	4	1	main_slash	11	main_slash	89	stimuli_distractor_trianglediamonds.svg	stimuli_distractor_trianglediamonds.svg	34	no	0	1	2000	0	0			0	0			1				0	
6.6.1	and	2023-06-02	02:21:44	02:35:42	815238	5cbe04b4f429ff00159de30e	4	1	main_slash	11	advance_on_keypress_SLASH	90	stimuli_distractor_trianglediamonds.svg	stimuli_distractor_trianglediamonds.svg	34	no	57	0	598	0	0			0	0			1				0	
6.6.1	and	2023-06-02	02:21:44	02:35:45	818483	5cbe04b4f429ff00159de30e	4	1	main_slash	11	main_slash	91	stimuli_distractor_trianglediamonds.svg	stimuli_distractor_trianglediamonds.svg	33	no	0	1	2000	0	0			0	0			1				0	
6.6.1	and	2023-06-02	02:21:44	02:35:45	818483	5cbe04b4f429ff00159de30e	4	1	main_slash	11	advance_on_keypress_SLASH	92	stimuli_distractor_trianglediamonds.svg	stimuli_distractor_trianglediamonds.svg	33	no	57	0	398	0	0			0	0			1				0	
6.6.1	and	2023-06-02	02:21:44	02:35:48	821543	5cbe04b4f429ff00159de30e	4	1	main_slash	11	main_slash	93	stimuli_distractor_diamondtriangles.svg	stimuli_distractor_trianglediamonds.svg	37	no	0	1	2000	0	0			0	0			1				0	
6.6.1	and	2023-06-02	02:21:44	02:35:48	821543	5cbe04b4f429ff00159de30e	4	1	main_slash	11	advance_on_keypress_SLASH	94	stimuli_distractor_diamondtriangles.svg	stimuli_distractor_trianglediamonds.svg	37	no	57	0	566	0	0			0	0			1				0	
6.6.1	and	2023-06-02	02:21:44	02:35:51	824771	5cbe04b4f429ff00159de30e	4	1	main_slash	11	main_slash	95	stimuli_distractor_trianglediamonds.svg	stimuli_distractor_diamondtriangles.svg	36	no	0	1	2000	0	0			0	0			1				0	
6.6.1	and	2023-06-02	02:21:44	02:35:51	824771	5cbe04b4f429ff00159de30e	4	1	main_slash	11	advance_on_keypress_SLASH	96	stimuli_distractor_trianglediamonds.svg	stimuli_distractor_diamondtriangles.svg	36	no	57	0	1667	0	0			0	0			1				0	
6.6.1	and	2023-06-02	02:21:44	02:35:55	828155	5cbe04b4f429ff00159de30e	4	1	main_slash	11	main_slash	97	stimuli_target_trianglerectangles.svg	stimuli_distractor_trianglediamonds.svg	17	yes	53	1	1058	0	0			0	0			1				0	
6.6.1	and	2023-06-02	02:21:44	02:35:55	828155	5cbe04b4f429ff00159de30e	4	1	main_slash	11	advance_on_keypress_SLASH	98	stimuli_target_trianglerectangles.svg	stimuli_distractor_trianglediamonds.svg	17	yes	57	0	293	0	0			0	0			1				0	
6.6.1	and	2023-06-02	02:21:44	02:35:57	830186	5cbe04b4f429ff00159de30e	4	1	main_slash	11	main_slash	99	stimuli_distractor_trianglediamonds.svg	stimuli_target_diamondsquares.svg	28	yes	53	1	1094	0	0			0	0			1				0	
6.6.1	and	2023-06-02	02:21:44	02:35:57	830186	5cbe04b4f429ff00159de30e	4	1	main_slash	11	advance_on_keypress_SLASH	100	stimuli_distractor_trianglediamonds.svg	stimuli_target_diamondsquares.svg	28	yes	57	0	1085	0	0			0	0			1				0	
6.6.1	and	2023-06-02	02:21:44	02:36:00	833395	5cbe04b4f429ff00159de30e	4	1	main_slash	11	main_slash	101	stimuli_target_rectanglediamonds.svg	stimuli_distractor_diamondtriangles.svg	6	yes	53	1	1474	0	0			0	0			1				0	
6.6.1	and	2023-06-02	02:21:44	02:36:00	833395	5cbe04b4f429ff00159de30e	4	1	main_slash	11	advance_on_keypress_SLASH	102	stimuli_target_rectanglediamonds.svg	stimuli_distractor_diamondtriangles.svg	6	yes	57	0	382	0	0			0	0			1				0	
6.6.1	and	2023-06-02	02:21:44	02:36:03	836432	5cbe04b4f429ff00159de30e	4	1	main_slash	11	main_slash	103	stimuli_distractor_diamondtriangles.svg	stimuli_distractor_diamondtriangles.svg	39	no	0	1	2000	0	0			0	0			1				0	
6.6.1	and	2023-06-02	02:21:44	02:36:03	836432	5cbe04b4f429ff00159de30e	4	1	main_slash	11	advance_on_keypress_SLASH	104	stimuli_distractor_diamondtriangles.svg	stimuli_distractor_diamondtriangles.svg	39	no	57	0	886	0	0			0	0			1				0	
6.6.1	and	2023-06-02	02:21:44	02:36:05	838852	5cbe04b4f429ff00159de30e	4	1	main_slash	11	main_slash	105	stimuli_distractor_trianglediamonds.svg	stimuli_target_diamondrectangles.svg	27	yes	53	1	874	0	0			0	0			1				0	
6.6.1	and	2023-06-02	02:21:44	02:36:05	838852	5cbe04b4f429ff00159de30e	4	1	main_slash	11	advance_on_keypress_SLASH	106	stimuli_distractor_trianglediamonds.svg	stimuli_target_diamondrectangles.svg	27	yes	57	0	348	0	0			0	0			1				0	
6.6.1	and	2023-06-02	02:21:44	02:36:07	840746	5cbe04b4f429ff00159de30e	4	1	main_slash	11	main_slash	107	stimuli_target_squarediamonds.svg	stimuli_distractor_diamondtriangles.svg	8	yes	53	1	890	0	0			0	0			1				0	
6.6.1	and	2023-06-02	02:21:44	02:36:07	840746	5cbe04b4f429ff00159de30e	4	1	main_slash	11	advance_on_keypress_SLASH	108	stimuli_target_squarediamonds.svg	stimuli_distractor_diamondtriangles.svg	8	yes	57	0	341	0	0			0	0			1				0	
6.6.1	and	2023-06-02	02:21:44	02:36:09	842847	5cbe04b4f429ff00159de30e	4	1	main_slash	11	main_slash	109	stimuli_distractor_trianglediamonds.svg	stimuli_target_trianglerectangles.svg	25	yes	53	1	1109	0	0			0	0			1				0	
6.6.1	and	2023-06-02	02:21:44	02:36:09	842847	5cbe04b4f429ff00159de30e	4	1	main_slash	11	advance_on_keypress_SLASH	110	stimuli_distractor_trianglediamonds.svg	stimuli_target_trianglerectangles.svg	25	yes	57	0	347	0	0			0	0			1				0	
6.6.1	and	2023-06-02	02:21:44	02:36:11	844927	5cbe04b4f429ff00159de30e	4	1	main_slash	11	main_slash	111	stimuli_distractor_diamondtriangles.svg	stimuli_target_rectangletriangles.svg	13	yes	53	1	1078	0	0			0	0			1				0	
6.6.1	and	2023-06-02	02:21:44	02:36:11	844927	5cbe04b4f429ff00159de30e	4	1	main_slash	11	advance_on_keypress_SLASH	112	stimuli_distractor_diamondtriangles.svg	stimuli_target_rectangletriangles.svg	13	yes	57	0	380	0	0			0	0			1				0	
6.6.1	and	2023-06-02	02:21:44	02:36:13	846921	5cbe04b4f429ff00159de30e	4	1	main_slash	11	main_slash	113	stimuli_distractor_diamondtriangles.svg	stimuli_target_diamondrectangles.svg	31	yes	53	1	976	0	0			0	0			1				0	
6.6.1	and	2023-06-02	02:21:44	02:36:13	846921	5cbe04b4f429ff00159de30e	4	1	main_slash	11	advance_on_keypress_SLASH	114	stimuli_distractor_diamondtriangles.svg	stimuli_target_diamondrectangles.svg	31	yes	57	0	925	0	0			0	0			1				0	
6.6.1	and	2023-06-02	02:21:44	02:36:16	849862	5cbe04b4f429ff00159de30e	4	1	main_slash	11	main_slash	115	stimuli_distractor_trianglediamonds.svg	stimuli_target_squarediamonds.svg	12	yes	53	1	1370	0	0			0	0			1				0	
6.6.1	and	2023-06-02	02:21:44	02:36:16	849862	5cbe04b4f429ff00159de30e	4	1	main_slash	11	advance_on_keypress_SLASH	116	stimuli_distractor_trianglediamonds.svg	stimuli_target_squarediamonds.svg	12	yes	57	0	264	0	0			0	0			1				0	
6.6.1	and	2023-06-02	02:21:44	02:36:19	852785	5cbe04b4f429ff00159de30e	4	1	main_slash	11	main_slash	117	stimuli_distractor_diamondtriangles.svg	stimuli_distractor_diamondtriangles.svg	40	no	0	1	2000	0	0			0	0			1				0	
6.6.1	and	2023-06-02	02:21:44	02:36:19	852785	5cbe04b4f429ff00159de30e	4	1	main_slash	11	advance_on_keypress_SLASH	118	stimuli_distractor_diamondtriangles.svg	stimuli_distractor_diamondtriangles.svg	40	no	57	0	895	0	0			0	0			1				0	
6.6.1	and	2023-06-02	02:21:44	02:36:22	855077	5cbe04b4f429ff00159de30e	4	1	main_slash	11	main_slash	119	stimuli_distractor_diamondtriangles.svg	stimuli_target_rectanglediamonds.svg	14	yes	53	1	731	0	0			0	0			1				0	
6.6.1	and	2023-06-02	02:21:44	02:36:22	855077	5cbe04b4f429ff00159de30e	4	1	main_slash	11	advance_on_keypress_SLASH	120	stimuli_distractor_diamondtriangles.svg	stimuli_target_rectanglediamonds.svg	14	yes	57	0	485	0	0			0	0			1				0	
6.6.1	and	2023-06-02	02:21:44	02:36:24	857740	5cbe04b4f429ff00159de30e	4	1	main_slash	11	main_slash	121	stimuli_target_diamondrectangles.svg	stimuli_distractor_trianglediamonds.svg	19	yes	53	1	1548	0	0			0	0			1				0	
6.6.1	and	2023-06-02	02:21:44	02:36:24	857740	5cbe04b4f429ff00159de30e	4	1	main_slash	11	advance_on_keypress_SLASH	122	stimuli_target_diamondrectangles.svg	stimuli_distractor_trianglediamonds.svg	19	yes	57	0	297	0	0			0	0			1				0	
6.6.1	and	2023-06-02	02:21:44	02:36:26	859761	5cbe04b4f429ff00159de30e	4	1	main_slash	11	main_slash	123	stimuli_target_rectanglediamonds.svg	stimuli_distractor_trianglediamonds.svg	2	yes	53	1	1088	0	0			0	0			1				0	
6.6.1	and	2023-06-02	02:21:44	02:36:26	859761	5cbe04b4f429ff00159de30e	4	1	main_slash	11	advance_on_keypress_SLASH	124	stimuli_target_rectanglediamonds.svg	stimuli_distractor_trianglediamonds.svg	2	yes	57	0	369	0	0			0	0			1				0	
6.6.1	and	2023-06-02	02:21:44	02:36:28	861881	5cbe04b4f429ff00159de30e	4	1	main_slash	11	main_slash	125	stimuli_target_squarediamonds.svg	stimuli_distractor_trianglediamonds.svg	4	yes	53	1	1096	0	0			0	0			1				0	
6.6.1	and	2023-06-02	02:21:44	02:36:28	861881	5cbe04b4f429ff00159de30e	4	1	main_slash	11	advance_on_keypress_SLASH	126	stimuli_target_squarediamonds.svg	stimuli_distractor_trianglediamonds.svg	4	yes	57	0	374	0	0			0	0			1				0	
6.6.1	and	2023-06-02	02:21:44	02:36:30	863952	5cbe04b4f429ff00159de30e	4	1	main_slash	11	main_slash	127	stimuli_distractor_diamondtriangles.svg	stimuli_target_squaretriangles.svg	15	yes	53	1	1055	0	0			0	0			1				0	
6.6.1	and	2023-06-02	02:21:44	02:36:30	863952	5cbe04b4f429ff00159de30e	4	1	main_slash	11	advance_on_keypress_SLASH	128	stimuli_distractor_diamondtriangles.svg	stimuli_target_squaretriangles.svg	15	yes	57	0	369	0	0			0	0			1				0	
6.6.1	and	2023-06-02	02:21:44	02:36:33	866365	5cbe04b4f429ff00159de30e	4	1	main_slash	11	main_slash	129	stimuli_distractor_trianglediamonds.svg	stimuli_target_trianglesquares.svg	26	yes	53	1	1387	0	0			0	0			1				0	
6.6.1	and	2023-06-02	02:21:44	02:36:33	866365	5cbe04b4f429ff00159de30e	4	1	main_slash	11	advance_on_keypress_SLASH	130	stimuli_distractor_trianglediamonds.svg	stimuli_target_trianglesquares.svg	26	yes	57	0	347	0	0			0	0			1				0	
6.6.1	and	2023-06-02	02:21:44	02:36:35	868493	5cbe04b4f429ff00159de30e	4	1	main_slash	11	main_slash	131	stimuli_target_squaretriangles.svg	stimuli_distractor_trianglediamonds.svg	3	yes	53	1	1137	0	0			0	0			1				0	
6.6.1	and	2023-06-02	02:21:44	02:36:35	868493	5cbe04b4f429ff00159de30e	4	1	main_slash	11	advance_on_keypress_SLASH	132	stimuli_target_squaretriangles.svg	stimuli_distractor_trianglediamonds.svg	3	yes	57	0	352	0	0			0	0			1				0	
6.6.1	and	2023-06-02	02:21:44	02:36:37	870682	5cbe04b4f429ff00159de30e	4	1	main_slash	11	main_slash	133	stimuli_distractor_diamondtriangles.svg	stimuli_target_trianglesquares.svg	30	yes	53	1	1180	0	0			0	0			1				0	
6.6.1	and	2023-06-02	02:21:44	02:36:37	870682	5cbe04b4f429ff00159de30e	4	1	main_slash	11	advance_on_keypress_SLASH	134	stimuli_distractor_diamondtriangles.svg	stimuli_target_trianglesquares.svg	30	yes	57	0	360	0	0			0	0			1				0	
6.6.1	and	2023-06-02	02:21:44	02:36:40	873381	5cbe04b4f429ff00159de30e	4	1	main_slash	11	main_slash	135	stimuli_distractor_trianglediamonds.svg	stimuli_distractor_diamondtriangles.svg	35	no	53	0	1699	0	0			0	0			1				0	
6.6.1	and	2023-06-02	02:21:44	02:36:40	873381	5cbe04b4f429ff00159de30e	4	1	main_slash	11	advance_on_keypress_SLASH	136	stimuli_distractor_trianglediamonds.svg	stimuli_distractor_diamondtriangles.svg	35	no	57	0	259	0	0			0	0			1				0	
6.6.1	and	2023-06-02	02:21:44	02:36:42	875418	5cbe04b4f429ff00159de30e	4	1	main_slash	11	main_slash	137	stimuli_distractor_trianglediamonds.svg	stimuli_target_rectangletriangles.svg	9	yes	53	1	1125	0	0			0	0			1				0	
6.6.1	and	2023-06-02	02:21:44	02:36:42	875418	5cbe04b4f429ff00159de30e	4	1	main_slash	11	advance_on_keypress_SLASH	138	stimuli_distractor_trianglediamonds.svg	stimuli_target_rectangletriangles.svg	9	yes	57	0	331	0	0			0	0			1				0	
6.6.1	and	2023-06-02	02:21:44	02:36:44	877548	5cbe04b4f429ff00159de30e	4	1	main_slash	11	main_slash	139	stimuli_distractor_diamondtriangles.svg	stimuli_target_trianglerectangles.svg	29	yes	53	1	1158	0	0			0	0			1				0	
6.6.1	and	2023-06-02	02:21:44	02:36:44	877548	5cbe04b4f429ff00159de30e	4	1	main_slash	11	advance_on_keypress_SLASH	140	stimuli_distractor_diamondtriangles.svg	stimuli_target_trianglerectangles.svg	29	yes	57	0	299	0	0			0	0			1				0	
6.6.1	and	2023-06-02	02:21:44	02:36:46	879609	5cbe04b4f429ff00159de30e	4	1	main_slash	11	main_slash	141	stimuli_target_rectangletriangles.svg	stimuli_distractor_trianglediamonds.svg	1	yes	53	1	1124	0	0			0	0			1				0	
6.6.1	and	2023-06-02	02:21:44	02:36:46	879609	5cbe04b4f429ff00159de30e	4	1	main_slash	11	advance_on_keypress_SLASH	142	stimuli_target_rectangletriangles.svg	stimuli_distractor_trianglediamonds.svg	1	yes	57	0	304	0	0			0	0			1				0	
6.6.1	and	2023-06-02	02:21:44	02:36:48	881817	5cbe04b4f429ff00159de30e	4	1	main_slash	11	main_slash	143	stimuli_target_squaretriangles.svg	stimuli_distractor_diamondtriangles.svg	7	yes	53	1	1248	0	0			0	0			1				0	
6.6.1	and	2023-06-02	02:21:44	02:36:48	881817	5cbe04b4f429ff00159de30e	4	1	main_slash	11	advance_on_keypress_SLASH	144	stimuli_target_squaretriangles.svg	stimuli_distractor_diamondtriangles.svg	7	yes	57	0	575	0	0			0	0			1				0	
6.6.1	and	2023-06-02	02:21:44	02:36:51	884110	5cbe04b4f429ff00159de30e	4	1	main_slash	11	main_slash	145	stimuli_distractor_trianglediamonds.svg	stimuli_target_rectanglediamonds.svg	10	yes	53	1	1083	0	0			0	0			1				0	
6.6.1	and	2023-06-02	02:21:44	02:36:51	884110	5cbe04b4f429ff00159de30e	4	1	main_slash	11	advance_on_keypress_SLASH	146	stimuli_distractor_trianglediamonds.svg	stimuli_target_rectanglediamonds.svg	10	yes	57	0	390	0	0			0	0			1				0	
6.6.1	and	2023-06-02	02:21:44	02:36:52	885962	5cbe04b4f429ff00159de30e	4	1	main_slash	11	main_slash	147	stimuli_distractor_trianglediamonds.svg	stimuli_target_squaretriangles.svg	11	yes	53	1	822	0	0			0	0			1				0	
6.6.1	and	2023-06-02	02:21:44	02:36:52	885962	5cbe04b4f429ff00159de30e	4	1	main_slash	11	advance_on_keypress_SLASH	148	stimuli_distractor_trianglediamonds.svg	stimuli_target_squaretriangles.svg	11	yes	57	0	397	0	0			0	0			1				0	
6.6.1	and	2023-06-02	02:21:44	02:36:56	889003	5cbe04b4f429ff00159de30e	4	1	main_slash	11	main_slash	149	stimuli_distractor_diamondtriangles.svg	stimuli_distractor_trianglediamonds.svg	38	no	0	1	2000	0	0			0	0			1				0	
6.6.1	and	2023-06-02	02:21:44	02:36:56	889003	5cbe04b4f429ff00159de30e	4	1	main_slash	11	advance_on_keypress_SLASH	150	stimuli_distractor_diamondtriangles.svg	stimuli_distractor_trianglediamonds.svg	38	no	57	0	446	0	0			0	0			1				0	
6.6.1	and	2023-06-02	02:21:44	02:36:58	891131	5cbe04b4f429ff00159de30e	4	1	main_slash	11	main_slash	151	stimuli_target_trianglesquares.svg	stimuli_distractor_trianglediamonds.svg	18	yes	53	1	1033	0	0			0	0			1				0	
6.6.1	and	2023-06-02	02:21:44	02:36:58	891131	5cbe04b4f429ff00159de30e	4	1	main_slash	11	advance_on_keypress_SLASH	152	stimuli_target_trianglesquares.svg	stimuli_distractor_trianglediamonds.svg	18	yes	57	0	299	0	0			0	0			1				0	
6.6.1	and	2023-06-02	02:21:44	02:37:00	892967	5cbe04b4f429ff00159de30e	4	1	main_slash	11	main_slash	153	stimuli_target_trianglesquares.svg	stimuli_distractor_diamondtriangles.svg	22	yes	53	1	907	0	0			0	0			1				0	
6.6.1	and	2023-06-02	02:21:44	02:37:00	892967	5cbe04b4f429ff00159de30e	4	1	main_slash	11	advance_on_keypress_SLASH	154	stimuli_target_trianglesquares.svg	stimuli_distractor_diamondtriangles.svg	22	yes	57	0	513	0	0			0	0			1				0	
6.6.1	and	2023-06-02	02:21:44	02:37:02	895130	5cbe04b4f429ff00159de30e	4	1	main_slash	11	main_slash	155	stimuli_target_rectangletriangles.svg	stimuli_distractor_diamondtriangles.svg	5	yes	53	1	1006	0	0			0	0			1				0	
6.6.1	and	2023-06-02	02:21:44	02:37:02	895130	5cbe04b4f429ff00159de30e	4	1	main_slash	11	advance_on_keypress_SLASH	156	stimuli_target_rectangletriangles.svg	stimuli_distractor_diamondtriangles.svg	5	yes	57	0	308	0	0			0	0			1				0	
6.6.1	and	2023-06-02	02:21:44	02:37:04	897121	5cbe04b4f429ff00159de30e	4	1	main_slash	11	main_slash	157	stimuli_target_diamondsquares.svg	stimuli_distractor_trianglediamonds.svg	20	yes	53	1	1035	0	0			0	0			1				0	
6.6.1	and	2023-06-02	02:21:44	02:37:04	897121	5cbe04b4f429ff00159de30e	4	1	main_slash	11	advance_on_keypress_SLASH	158	stimuli_target_diamondsquares.svg	stimuli_distractor_trianglediamonds.svg	20	yes	57	0	317	0	0			0	0			1				0	
6.6.1	and	2023-06-02	02:21:44	02:37:06	899449	5cbe04b4f429ff00159de30e	4	1	main_slash	11	main_slash	159	stimuli_distractor_diamondtriangles.svg	stimuli_target_diamondsquares.svg	32	yes	53	1	1348	0	0			0	0			1				0	
6.6.1	and	2023-06-02	02:21:44	02:37:06	899449	5cbe04b4f429ff00159de30e	4	1	main_slash	11	advance_on_keypress_SLASH	160	stimuli_distractor_diamondtriangles.svg	stimuli_target_diamondsquares.svg	32	yes	57	0	346	0	0			0	0			1				0	
6.6.1	and	2023-06-02	02:21:44	02:37:06	899449	5cbe04b4f429ff00159de30e	4	1	headphonecheck_calibration	14	headphonecheck_calibrationIntro	1	stimuli_distractor_diamondtriangles.svg	stimuli_target_diamondsquares.svg	32	yes	calibrationButton	0	2268	0	0			0	0			1				0	
6.6.1	and	2023-06-02	02:21:44	02:37:06	899449	5cbe04b4f429ff00159de30e	4	1	headphonecheck_testphase	15	test_collectResponse	3	stimuli_distractor_diamondtriangles.svg	stimuli_target_diamondsquares.svg	32	yes	first	1	5193	1	3	antiphase_hc_soi.wav	1	0	0			1				0	
6.6.1	and	2023-06-02	02:21:44	02:37:06	899449	5cbe04b4f429ff00159de30e	4	1	headphonecheck_testphase	15	test_collectResponse	6	stimuli_distractor_diamondtriangles.svg	stimuli_target_diamondsquares.svg	32	yes	third	1	806	2	2	antiphase_hc_ios.wav	3	0	0			1				0	
6.6.1	and	2023-06-02	02:21:44	02:37:06	899449	5cbe04b4f429ff00159de30e	4	1	headphonecheck_testphase	15	test_collectResponse	9	stimuli_distractor_diamondtriangles.svg	stimuli_target_diamondsquares.svg	32	yes	second	1	626	3	5	antiphase_hc_osi.wav	2	0	0			1				0	
6.6.1	and	2023-06-02	02:21:44	02:37:06	899449	5cbe04b4f429ff00159de30e	4	1	headphonecheck_testphase	15	test_collectResponse	12	stimuli_distractor_diamondtriangles.svg	stimuli_target_diamondsquares.svg	32	yes	second	1	577	4	1	antiphase_hc_iso.wav	2	0	0			1				0	
6.6.1	and	2023-06-02	02:21:44	02:37:06	899449	5cbe04b4f429ff00159de30e	4	1	headphonecheck_testphase	15	test_collectResponse	15	stimuli_distractor_diamondtriangles.svg	stimuli_target_diamondsquares.svg	32	yes	third	1	512	5	6	antiphase_hc_ois.wav	3	0	0			1				0	
6.6.1	and	2023-06-02	02:21:44	02:37:06	899449	5cbe04b4f429ff00159de30e	4	1	headphonecheck_testphase	15	test_collectResponse	18	stimuli_distractor_diamondtriangles.svg	stimuli_target_diamondsquares.svg	32	yes	first	1	666	6	4	antiphase_hc_sio.wav	1	0	0			1				0	
6.6.1	and	2023-06-02	02:21:44	02:37:06	899449	5cbe04b4f429ff00159de30e	4	1	stereocheck_calibration	17	stereocheck_calibrationIntro	1	stimuli_distractor_diamondtriangles.svg	stimuli_target_diamondsquares.svg	32	yes	stereocheck_calibrationButton	0	3489	6	4	antiphase_hc_sio.wav	1	0	0			1				0	
6.6.1	and	2023-06-02	02:21:44	02:37:06	899449	5cbe04b4f429ff00159de30e	4	1	stereocheck_testphase	18	stereocheck_test_collectResponse	3	stimuli_distractor_diamondtriangles.svg	stimuli_target_diamondsquares.svg	32	yes	stereocheck_left	1	698	6	4	antiphase_hc_sio.wav	1	1	2	noise_calib_stim_LEFT.wav	1	1				0	
6.6.1	and	2023-06-02	02:21:44	02:37:06	899449	5cbe04b4f429ff00159de30e	4	1	stereocheck_testphase	18	stereocheck_test_collectResponse	6	stimuli_distractor_diamondtriangles.svg	stimuli_target_diamondsquares.svg	32	yes	stereocheck_left	1	1460	6	4	antiphase_hc_sio.wav	1	2	3	noise_calib_stim_LEFT.wav	1	1				0	
6.6.1	and	2023-06-02	02:21:44	02:37:06	899449	5cbe04b4f429ff00159de30e	4	1	stereocheck_testphase	18	stereocheck_test_collectResponse	9	stimuli_distractor_diamondtriangles.svg	stimuli_target_diamondsquares.svg	32	yes	stereocheck_right	1	669	6	4	antiphase_hc_sio.wav	1	3	5	noise_calib_stim_RIGHT.wav	2	1				0	
6.6.1	and	2023-06-02	02:21:44	02:37:06	899449	5cbe04b4f429ff00159de30e	4	1	stereocheck_testphase	18	stereocheck_test_collectResponse	12	stimuli_distractor_diamondtriangles.svg	stimuli_target_diamondsquares.svg	32	yes	stereocheck_right	1	572	6	4	antiphase_hc_sio.wav	1	4	4	noise_calib_stim_RIGHT.wav	2	1				0	
6.6.1	and	2023-06-02	02:21:44	02:37:06	899449	5cbe04b4f429ff00159de30e	4	1	stereocheck_testphase	18	stereocheck_test_collectResponse	15	stimuli_distractor_diamondtriangles.svg	stimuli_target_diamondsquares.svg	32	yes	stereocheck_left	1	659	6	4	antiphase_hc_sio.wav	1	5	1	noise_calib_stim_LEFT.wav	1	1				0	
6.6.1	and	2023-06-02	02:21:44	02:37:06	899449	5cbe04b4f429ff00159de30e	4	1	stereocheck_testphase	18	stereocheck_test_collectResponse	18	stimuli_distractor_diamondtriangles.svg	stimuli_target_diamondsquares.svg	32	yes	stereocheck_right	1	621	6	4	antiphase_hc_sio.wav	1	6	6	noise_calib_stim_RIGHT.wav	2	1				0	
6.6.1	and	2023-06-02	02:21:44	02:37:06	899449	5cbe04b4f429ff00159de30e	4	1	DL_practice	21	DL_practice	2	stimuli_distractor_diamondtriangles.svg	stimuli_target_diamondsquares.svg	32	yes	ba	1	2054	6	4	antiphase_hc_sio.wav	1	6	6	noise_calib_stim_RIGHT.wav	2	1	blb_dichoticlistening_ba-ba.mp3	ba	ba	0	left
6.6.1	and	2023-06-02	02:21:44	02:37:06	899449	5cbe04b4f429ff00159de30e	4	1	DL_practice	21	DL_practice	3	stimuli_distractor_diamondtriangles.svg	stimuli_target_diamondsquares.svg	32	yes	ka	1	1690	6	4	antiphase_hc_sio.wav	1	6	6	noise_calib_stim_RIGHT.wav	2	22	blb_dichoticlistening_ka-ka.mp3	ka	ka	0	left
6.6.1	and	2023-06-02	02:21:44	02:37:06	899449	5cbe04b4f429ff00159de30e	4	1	DL_practice	21	DL_practice	4	stimuli_distractor_diamondtriangles.svg	stimuli_target_diamondsquares.svg	32	yes	pa	1	1569	6	4	antiphase_hc_sio.wav	1	6	6	noise_calib_stim_RIGHT.wav	2	23	blb_dichoticlistening_ka-pa.mp3	ka	pa	1	right
6.6.1	and	2023-06-02	02:21:44	02:37:06	899449	5cbe04b4f429ff00159de30e	4	1	DL_practice	21	DL_practice	5	stimuli_distractor_diamondtriangles.svg	stimuli_target_diamondsquares.svg	32	yes	pa	1	1150	6	4	antiphase_hc_sio.wav	1	6	6	noise_calib_stim_RIGHT.wav	2	29	blb_dichoticlistening_pa-pa.mp3	pa	pa	0	left
6.6.1	and	2023-06-02	02:21:44	02:37:06	899449	5cbe04b4f429ff00159de30e	4	1	DL_practice	21	DL_practice	6	stimuli_distractor_diamondtriangles.svg	stimuli_target_diamondsquares.svg	32	yes	ta	1	1711	6	4	antiphase_hc_sio.wav	1	6	6	noise_calib_stim_RIGHT.wav	2	36	blb_dichoticlistening_ta-ta.mp3	ta	ta	0	left
6.6.1	and	2023-06-02	02:21:44	02:37:06	899449	5cbe04b4f429ff00159de30e	4	1	DL_practice	21	DL_practice	7	stimuli_distractor_diamondtriangles.svg	stimuli_target_diamondsquares.svg	32	yes	da	1	1592	6	4	antiphase_hc_sio.wav	1	6	6	noise_calib_stim_RIGHT.wav	2	8	blb_dichoticlistening_da-da.mp3	da	da	0	left
6.6.1	and	2023-06-02	02:21:44	02:37:06	899449	5cbe04b4f429ff00159de30e	4	1	DL_practice	21	DL_practice	8	stimuli_distractor_diamondtriangles.svg	stimuli_target_diamondsquares.svg	32	yes	ka	0	2242	6	4	antiphase_hc_sio.wav	1	6	6	noise_calib_stim_RIGHT.wav	2	18	blb_dichoticlistening_ga-ta.mp3	ga	ta	1	other
6.6.1	and	2023-06-02	02:21:44	02:37:06	899449	5cbe04b4f429ff00159de30e	4	1	DL_practice	21	DL_practice	9	stimuli_distractor_diamondtriangles.svg	stimuli_target_diamondsquares.svg	32	yes	ga	1	1509	6	4	antiphase_hc_sio.wav	1	6	6	noise_calib_stim_RIGHT.wav	2	15	blb_dichoticlistening_ga-ga.mp3	ga	ga	0	left
6.6.1	and	2023-06-02	02:21:44	02:37:06	899449	5cbe04b4f429ff00159de30e	4	1	DL_practice	21	DL_practice	10	stimuli_distractor_diamondtriangles.svg	stimuli_target_diamondsquares.svg	32	yes	da	1	1785	6	4	antiphase_hc_sio.wav	1	6	6	noise_calib_stim_RIGHT.wav	2	7	blb_dichoticlistening_da-ba.mp3	da	ba	1	left
6.6.1	and	2023-06-02	02:21:44	02:37:06	899449	5cbe04b4f429ff00159de30e	4	1	DL_test	23	DL_test	1	stimuli_distractor_diamondtriangles.svg	stimuli_target_diamondsquares.svg	32	yes	ka	1	1594	6	4	antiphase_hc_sio.wav	1	6	6	noise_calib_stim_RIGHT.wav	2	21	blb_dichoticlistening_ka-ga.mp3	ka	ga	1	left
6.6.1	and	2023-06-02	02:21:44	02:37:06	899449	5cbe04b4f429ff00159de30e	4	1	DL_test	23	DL_test	2	stimuli_distractor_diamondtriangles.svg	stimuli_target_diamondsquares.svg	32	yes	pa	1	1611	6	4	antiphase_hc_sio.wav	1	6	6	noise_calib_stim_RIGHT.wav	2	23	blb_dichoticlistening_ka-pa.mp3	ka	pa	1	right
6.6.1	and	2023-06-02	02:21:44	02:37:06	899449	5cbe04b4f429ff00159de30e	4	1	DL_test	23	DL_test	3	stimuli_distractor_diamondtriangles.svg	stimuli_target_diamondsquares.svg	32	yes	pa	1	1101	6	4	antiphase_hc_sio.wav	1	6	6	noise_calib_stim_RIGHT.wav	2	29	blb_dichoticlistening_pa-pa.mp3	pa	pa	0	left
6.6.1	and	2023-06-02	02:21:44	02:37:06	899449	5cbe04b4f429ff00159de30e	4	1	DL_test	23	DL_test	4	stimuli_distractor_diamondtriangles.svg	stimuli_target_diamondsquares.svg	32	yes	pa	1	1269	6	4	antiphase_hc_sio.wav	1	6	6	noise_calib_stim_RIGHT.wav	2	5	blb_dichoticlistening_ba-pa.mp3	ba	pa	1	right
6.6.1	and	2023-06-02	02:21:44	02:37:06	899449	5cbe04b4f429ff00159de30e	4	1	DL_test	23	DL_test	5	stimuli_distractor_diamondtriangles.svg	stimuli_target_diamondsquares.svg	32	yes	ka	1	1419	6	4	antiphase_hc_sio.wav	1	6	6	noise_calib_stim_RIGHT.wav	2	22	blb_dichoticlistening_ka-ka.mp3	ka	ka	0	left
6.6.1	and	2023-06-02	02:21:44	02:37:06	899449	5cbe04b4f429ff00159de30e	4	1	DL_test	23	DL_test	6	stimuli_distractor_diamondtriangles.svg	stimuli_target_diamondsquares.svg	32	yes	ka	1	1595	6	4	antiphase_hc_sio.wav	1	6	6	noise_calib_stim_RIGHT.wav	2	19	blb_dichoticlistening_ka-ba.mp3	ka	ba	1	left
6.6.1	and	2023-06-02	02:21:44	02:37:06	899449	5cbe04b4f429ff00159de30e	4	1	DL_test	23	DL_test	7	stimuli_distractor_diamondtriangles.svg	stimuli_target_diamondsquares.svg	32	yes	ka	0	2471	6	4	antiphase_hc_sio.wav	1	6	6	noise_calib_stim_RIGHT.wav	2	26	blb_dichoticlistening_pa-da.mp3	pa	da	1	other
6.6.1	and	2023-06-02	02:21:44	02:37:06	899449	5cbe04b4f429ff00159de30e	4	1	DL_test	23	DL_test	8	stimuli_distractor_diamondtriangles.svg	stimuli_target_diamondsquares.svg	32	yes	da	0	1661	6	4	antiphase_hc_sio.wav	1	6	6	noise_calib_stim_RIGHT.wav	2	33	blb_dichoticlistening_ta-ga.mp3	ta	ga	1	other
6.6.1	and	2023-06-02	02:21:44	02:37:06	899449	5cbe04b4f429ff00159de30e	4	1	DL_test	23	DL_test	9	stimuli_distractor_diamondtriangles.svg	stimuli_target_diamondsquares.svg	32	yes	da	0	1613	6	4	antiphase_hc_sio.wav	1	6	6	noise_calib_stim_RIGHT.wav	2	13	blb_dichoticlistening_ga-ba.mp3	ga	ba	1	other
6.6.1	and	2023-06-02	02:21:44	02:37:06	899449	5cbe04b4f429ff00159de30e	4	1	DL_test	23	DL_test	10	stimuli_distractor_diamondtriangles.svg	stimuli_target_diamondsquares.svg	32	yes	ka	0	1827	6	4	antiphase_hc_sio.wav	1	6	6	noise_calib_stim_RIGHT.wav	2	27	blb_dichoticlistening_pa-ga.mp3	pa	ga	1	other
6.6.1	and	2023-06-02	02:21:44	02:37:06	899449	5cbe04b4f429ff00159de30e	4	1	DL_test	23	DL_test	11	stimuli_distractor_diamondtriangles.svg	stimuli_target_diamondsquares.svg	32	yes	ta	1	1503	6	4	antiphase_hc_sio.wav	1	6	6	noise_calib_stim_RIGHT.wav	2	32	blb_dichoticlistening_ta-da.mp3	ta	da	1	left
6.6.1	and	2023-06-02	02:21:44	02:37:06	899449	5cbe04b4f429ff00159de30e	4	1	DL_test	23	DL_test	12	stimuli_distractor_diamondtriangles.svg	stimuli_target_diamondsquares.svg	32	yes	ka	1	1569	6	4	antiphase_hc_sio.wav	1	6	6	noise_calib_stim_RIGHT.wav	2	28	blb_dichoticlistening_pa-ka.mp3	pa	ka	1	right
6.6.1	and	2023-06-02	02:21:44	02:37:06	899449	5cbe04b4f429ff00159de30e	4	1	DL_test	23	DL_test	13	stimuli_distractor_diamondtriangles.svg	stimuli_target_diamondsquares.svg	32	yes	pa	0	1857	6	4	antiphase_hc_sio.wav	1	6	6	noise_calib_stim_RIGHT.wav	2	10	blb_dichoticlistening_da-ka.mp3	da	ka	1	other
6.6.1	and	2023-06-02	02:21:44	02:37:06	899449	5cbe04b4f429ff00159de30e	4	1	DL_test	23	DL_test	14	stimuli_distractor_diamondtriangles.svg	stimuli_target_diamondsquares.svg	32	yes	ta	1	1753	6	4	antiphase_hc_sio.wav	1	6	6	noise_calib_stim_RIGHT.wav	2	36	blb_dichoticlistening_ta-ta.mp3	ta	ta	0	left
6.6.1	and	2023-06-02	02:21:44	02:37:06	899449	5cbe04b4f429ff00159de30e	4	1	DL_test	23	DL_test	15	stimuli_distractor_diamondtriangles.svg	stimuli_target_diamondsquares.svg	32	yes	da	1	1698	6	4	antiphase_hc_sio.wav	1	6	6	noise_calib_stim_RIGHT.wav	2	8	blb_dichoticlistening_da-da.mp3	da	da	0	left
6.6.1	and	2023-06-02	02:21:44	02:37:06	899449	5cbe04b4f429ff00159de30e	4	1	DL_test	23	DL_test	16	stimuli_distractor_diamondtriangles.svg	stimuli_target_diamondsquares.svg	32	yes	ka	1	1639	6	4	antiphase_hc_sio.wav	1	6	6	noise_calib_stim_RIGHT.wav	2	4	blb_dichoticlistening_ba-ka.mp3	ba	ka	1	right
6.6.1	and	2023-06-02	02:21:44	02:37:06	899449	5cbe04b4f429ff00159de30e	4	1	DL_test	23	DL_test	17	stimuli_distractor_diamondtriangles.svg	stimuli_target_diamondsquares.svg	32	yes	ka	1	1002	6	4	antiphase_hc_sio.wav	1	6	6	noise_calib_stim_RIGHT.wav	2	16	blb_dichoticlistening_ga-ka.mp3	ga	ka	1	right
6.6.1	and	2023-06-02	02:21:44	02:37:06	899449	5cbe04b4f429ff00159de30e	4	1	DL_test	23	DL_test	18	stimuli_distractor_diamondtriangles.svg	stimuli_target_diamondsquares.svg	32	yes	ta	1	1473	6	4	antiphase_hc_sio.wav	1	6	6	noise_calib_stim_RIGHT.wav	2	12	blb_dichoticlistening_da-ta.mp3	da	ta	1	right
6.6.1	and	2023-06-02	02:21:44	02:37:06	899449	5cbe04b4f429ff00159de30e	4	1	DL_test	23	DL_test	19	stimuli_distractor_diamondtriangles.svg	stimuli_target_diamondsquares.svg	32	yes	da	1	1953	6	4	antiphase_hc_sio.wav	1	6	6	noise_calib_stim_RIGHT.wav	2	14	blb_dichoticlistening_ga-da.mp3	ga	da	1	right
6.6.1	and	2023-06-02	02:21:44	02:37:06	899449	5cbe04b4f429ff00159de30e	4	1	DL_test	23	DL_test	20	stimuli_distractor_diamondtriangles.svg	stimuli_target_diamondsquares.svg	32	yes	ga	1	1479	6	4	antiphase_hc_sio.wav	1	6	6	noise_calib_stim_RIGHT.wav	2	3	blb_dichoticlistening_ba-ga.mp3	ba	ga	1	right
6.6.1	and	2023-06-02	02:21:44	02:37:06	899449	5cbe04b4f429ff00159de30e	4	1	DL_test	23	DL_test	21	stimuli_distractor_diamondtriangles.svg	stimuli_target_diamondsquares.svg	32	yes	pa	1	1719	6	4	antiphase_hc_sio.wav	1	6	6	noise_calib_stim_RIGHT.wav	2	25	blb_dichoticlistening_pa-ba.mp3	pa	ba	1	left
6.6.1	and	2023-06-02	02:21:44	02:37:06	899449	5cbe04b4f429ff00159de30e	4	1	DL_test	23	DL_test	22	stimuli_distractor_diamondtriangles.svg	stimuli_target_diamondsquares.svg	32	yes	ta	1	1450	6	4	antiphase_hc_sio.wav	1	6	6	noise_calib_stim_RIGHT.wav	2	18	blb_dichoticlistening_ga-ta.mp3	ga	ta	1	right
6.6.1	and	2023-06-02	02:21:44	02:37:06	899449	5cbe04b4f429ff00159de30e	4	1	DL_test	23	DL_test	23	stimuli_distractor_diamondtriangles.svg	stimuli_target_diamondsquares.svg	32	yes	da	1	1770	6	4	antiphase_hc_sio.wav	1	6	6	noise_calib_stim_RIGHT.wav	2	7	blb_dichoticlistening_da-ba.mp3	da	ba	1	left
6.6.1	and	2023-06-02	02:21:44	02:37:06	899449	5cbe04b4f429ff00159de30e	4	1	DL_test	23	DL_test	24	stimuli_distractor_diamondtriangles.svg	stimuli_target_diamondsquares.svg	32	yes	da	1	2214	6	4	antiphase_hc_sio.wav	1	6	6	noise_calib_stim_RIGHT.wav	2	2	blb_dichoticlistening_ba-da.mp3	ba	da	1	right
6.6.1	and	2023-06-02	02:21:44	02:37:06	899449	5cbe04b4f429ff00159de30e	4	1	DL_test	23	DL_test	25	stimuli_distractor_diamondtriangles.svg	stimuli_target_diamondsquares.svg	32	yes	ta	1	1850	6	4	antiphase_hc_sio.wav	1	6	6	noise_calib_stim_RIGHT.wav	2	30	blb_dichoticlistening_pa-ta.mp3	pa	ta	1	right
6.6.1	and	2023-06-02	02:21:44	02:37:06	899449	5cbe04b4f429ff00159de30e	4	1	DL_test	23	DL_test	26	stimuli_distractor_diamondtriangles.svg	stimuli_target_diamondsquares.svg	32	yes	ka	1	1587	6	4	antiphase_hc_sio.wav	1	6	6	noise_calib_stim_RIGHT.wav	2	34	blb_dichoticlistening_ta-ka.mp3	ta	ka	1	right
