build	computer.platform	date	time	timestamp	time_elapsed_ms	subject	group	session	blockcode	blocknum	trialcode	trialnum	stimulus_left	stimulus_right	stim_index	target_present	response	correct	latency	headphonecheck_countTestTrials	headphonecheck_index	headphonecheck_testSound	headphonecheck_correctResponse	stereocheck_countTestTrials	stereocheck_index	stereocheck_testSound	stereocheck_correctResponse	DL_index	DL_soundfile	DL_leftSound	DL_rightSound	DL_dualSound	DL_choice
6.6.1	win	2023-07-07	08:52:56	0	0	615dd1eb2702a672f7db49f1	2	1	headphonecheck_calibration	4	headphonecheck_calibrationIntro	1			0		calibrationButton	0	3622	0	0			0	0			1				0	
6.6.1	win	2023-07-07	08:52:56	0	0	615dd1eb2702a672f7db49f1	2	1	headphonecheck_testphase	5	test_collectResponse	3			0		third	1	390	1	6	antiphase_hc_ois.wav	3	0	0			1				0	
6.6.1	win	2023-07-07	08:52:56	0	0	615dd1eb2702a672f7db49f1	2	1	headphonecheck_testphase	5	test_collectResponse	6			0		second	1	484	2	1	antiphase_hc_iso.wav	2	0	0			1				0	
6.6.1	win	2023-07-07	08:52:56	0	0	615dd1eb2702a672f7db49f1	2	1	headphonecheck_testphase	5	test_collectResponse	9			0		third	1	409	3	2	antiphase_hc_ios.wav	3	0	0			1				0	
6.6.1	win	2023-07-07	08:52:56	0	0	615dd1eb2702a672f7db49f1	2	1	headphonecheck_testphase	5	test_collectResponse	12			0		second	1	297	4	5	antiphase_hc_osi.wav	2	0	0			1				0	
6.6.1	win	2023-07-07	08:52:56	0	0	615dd1eb2702a672f7db49f1	2	1	headphonecheck_testphase	5	test_collectResponse	15			0		first	1	421	5	3	antiphase_hc_soi.wav	1	0	0			1				0	
6.6.1	win	2023-07-07	08:52:56	0	0	615dd1eb2702a672f7db49f1	2	1	headphonecheck_testphase	5	test_collectResponse	18			0		first	1	215	6	4	antiphase_hc_sio.wav	1	0	0			1				0	
6.6.1	win	2023-07-07	08:52:56	0	0	615dd1eb2702a672f7db49f1	2	1	stereocheck_calibration	7	stereocheck_calibrationIntro	1			0		stereocheck_calibrationButton	0	5427	6	4	antiphase_hc_sio.wav	1	0	0			1				0	
6.6.1	win	2023-07-07	08:52:56	0	0	615dd1eb2702a672f7db49f1	2	1	stereocheck_testphase	8	stereocheck_test_collectResponse	3			0		stereocheck_left	1	8150	6	4	antiphase_hc_sio.wav	1	1	2	noise_calib_stim_LEFT.wav	1	1				0	
6.6.1	win	2023-07-07	08:52:56	0	0	615dd1eb2702a672f7db49f1	2	1	stereocheck_testphase	8	stereocheck_test_collectResponse	6			0		stereocheck_right	1	156	6	4	antiphase_hc_sio.wav	1	2	4	noise_calib_stim_RIGHT.wav	2	1				0	
6.6.1	win	2023-07-07	08:52:56	0	0	615dd1eb2702a672f7db49f1	2	1	stereocheck_testphase	8	stereocheck_test_collectResponse	9			0		stereocheck_right	1	285	6	4	antiphase_hc_sio.wav	1	3	6	noise_calib_stim_RIGHT.wav	2	1				0	
6.6.1	win	2023-07-07	08:52:56	0	0	615dd1eb2702a672f7db49f1	2	1	stereocheck_testphase	8	stereocheck_test_collectResponse	12			0		stereocheck_right	1	323	6	4	antiphase_hc_sio.wav	1	4	5	noise_calib_stim_RIGHT.wav	2	1				0	
6.6.1	win	2023-07-07	08:52:56	0	0	615dd1eb2702a672f7db49f1	2	1	stereocheck_testphase	8	stereocheck_test_collectResponse	15			0		stereocheck_left	1	378	6	4	antiphase_hc_sio.wav	1	5	1	noise_calib_stim_LEFT.wav	1	1				0	
6.6.1	win	2023-07-07	08:52:56	0	0	615dd1eb2702a672f7db49f1	2	1	stereocheck_testphase	8	stereocheck_test_collectResponse	18			0		stereocheck_left	1	476	6	4	antiphase_hc_sio.wav	1	6	3	noise_calib_stim_LEFT.wav	1	1				0	
6.6.1	win	2023-07-07	08:52:56	0	0	615dd1eb2702a672f7db49f1	2	1	DL_practice	11	DL_practice	2			0		ka	1	1548	6	4	antiphase_hc_sio.wav	1	6	3	noise_calib_stim_LEFT.wav	1	23	blb_dichoticlistening_ka-pa.mp3	ka	pa	1	left
6.6.1	win	2023-07-07	08:52:56	0	0	615dd1eb2702a672f7db49f1	2	1	DL_practice	11	DL_practice	3			0		ga	1	1081	6	4	antiphase_hc_sio.wav	1	6	3	noise_calib_stim_LEFT.wav	1	15	blb_dichoticlistening_ga-ga.mp3	ga	ga	0	left
6.6.1	win	2023-07-07	08:52:56	0	0	615dd1eb2702a672f7db49f1	2	1	DL_practice	11	DL_practice	4			0		ba	1	1640	6	4	antiphase_hc_sio.wav	1	6	3	noise_calib_stim_LEFT.wav	1	7	blb_dichoticlistening_da-ba.mp3	da	ba	1	right
6.6.1	win	2023-07-07	08:52:56	0	0	615dd1eb2702a672f7db49f1	2	1	DL_practice	11	DL_practice	5			0		ba	1	733	6	4	antiphase_hc_sio.wav	1	6	3	noise_calib_stim_LEFT.wav	1	1	blb_dichoticlistening_ba-ba.mp3	ba	ba	0	left
6.6.1	win	2023-07-07	08:52:56	0	0	615dd1eb2702a672f7db49f1	2	1	DL_practice	11	DL_practice	6			0		pa	1	2271	6	4	antiphase_hc_sio.wav	1	6	3	noise_calib_stim_LEFT.wav	1	29	blb_dichoticlistening_pa-pa.mp3	pa	pa	0	left
6.6.1	win	2023-07-07	08:52:56	0	0	615dd1eb2702a672f7db49f1	2	1	DL_practice	11	DL_practice	7			0		da	1	1552	6	4	antiphase_hc_sio.wav	1	6	3	noise_calib_stim_LEFT.wav	1	8	blb_dichoticlistening_da-da.mp3	da	da	0	left
6.6.1	win	2023-07-07	08:52:56	0	0	615dd1eb2702a672f7db49f1	2	1	DL_practice	11	DL_practice	8			0		ta	1	1377	6	4	antiphase_hc_sio.wav	1	6	3	noise_calib_stim_LEFT.wav	1	36	blb_dichoticlistening_ta-ta.mp3	ta	ta	0	left
6.6.1	win	2023-07-07	08:52:56	0	0	615dd1eb2702a672f7db49f1	2	1	DL_practice	11	DL_practice	9			0		ka	1	1486	6	4	antiphase_hc_sio.wav	1	6	3	noise_calib_stim_LEFT.wav	1	22	blb_dichoticlistening_ka-ka.mp3	ka	ka	0	left
6.6.1	win	2023-07-07	08:52:56	0	0	615dd1eb2702a672f7db49f1	2	1	DL_practice	11	DL_practice	10			0		ga	1	1128	6	4	antiphase_hc_sio.wav	1	6	3	noise_calib_stim_LEFT.wav	1	18	blb_dichoticlistening_ga-ta.mp3	ga	ta	1	left
6.6.1	win	2023-07-07	08:52:56	0	0	615dd1eb2702a672f7db49f1	2	1	DL_test	13	DL_test	1			0		ga	1	807	6	4	antiphase_hc_sio.wav	1	6	3	noise_calib_stim_LEFT.wav	1	14	blb_dichoticlistening_ga-da.mp3	ga	da	1	left
6.6.1	win	2023-07-07	08:52:56	0	0	615dd1eb2702a672f7db49f1	2	1	DL_test	13	DL_test	2			0		ba	1	2810	6	4	antiphase_hc_sio.wav	1	6	3	noise_calib_stim_LEFT.wav	1	7	blb_dichoticlistening_da-ba.mp3	da	ba	1	right
6.6.1	win	2023-07-07	08:52:56	0	0	615dd1eb2702a672f7db49f1	2	1	DL_test	13	DL_test	3			0		ba	1	668	6	4	antiphase_hc_sio.wav	1	6	3	noise_calib_stim_LEFT.wav	1	13	blb_dichoticlistening_ga-ba.mp3	ga	ba	1	right
6.6.1	win	2023-07-07	08:52:56	0	0	615dd1eb2702a672f7db49f1	2	1	DL_test	13	DL_test	4			0		ka	0	1236	6	4	antiphase_hc_sio.wav	1	6	3	noise_calib_stim_LEFT.wav	1	30	blb_dichoticlistening_pa-ta.mp3	pa	ta	1	other
6.6.1	win	2023-07-07	08:52:56	0	0	615dd1eb2702a672f7db49f1	2	1	DL_test	13	DL_test	5			0		ka	1	3404	6	4	antiphase_hc_sio.wav	1	6	3	noise_calib_stim_LEFT.wav	1	20	blb_dichoticlistening_ka-da.mp3	ka	da	1	left
6.6.1	win	2023-07-07	08:52:56	0	0	615dd1eb2702a672f7db49f1	2	1	DL_test	13	DL_test	6			0		ga	1	1261	6	4	antiphase_hc_sio.wav	1	6	3	noise_calib_stim_LEFT.wav	1	16	blb_dichoticlistening_ga-ka.mp3	ga	ka	1	left
6.6.1	win	2023-07-07	08:52:56	0	0	615dd1eb2702a672f7db49f1	2	1	DL_test	13	DL_test	7			0		ga	1	1315	6	4	antiphase_hc_sio.wav	1	6	3	noise_calib_stim_LEFT.wav	1	9	blb_dichoticlistening_da-ga.mp3	da	ga	1	right
6.6.1	win	2023-07-07	08:52:56	0	0	615dd1eb2702a672f7db49f1	2	1	DL_test	13	DL_test	8			0		ta	1	2137	6	4	antiphase_hc_sio.wav	1	6	3	noise_calib_stim_LEFT.wav	1	35	blb_dichoticlistening_ta-pa.mp3	ta	pa	1	left
6.6.1	win	2023-07-07	08:52:56	0	0	615dd1eb2702a672f7db49f1	2	1	DL_test	13	DL_test	9			0		da	1	1485	6	4	antiphase_hc_sio.wav	1	6	3	noise_calib_stim_LEFT.wav	1	32	blb_dichoticlistening_ta-da.mp3	ta	da	1	right
6.6.1	win	2023-07-07	08:52:56	0	0	615dd1eb2702a672f7db49f1	2	1	DL_test	13	DL_test	10			0		da	1	1147	6	4	antiphase_hc_sio.wav	1	6	3	noise_calib_stim_LEFT.wav	1	26	blb_dichoticlistening_pa-da.mp3	pa	da	1	right
6.6.1	win	2023-07-07	08:52:56	0	0	615dd1eb2702a672f7db49f1	2	1	DL_test	13	DL_test	11			0		da	1	931	6	4	antiphase_hc_sio.wav	1	6	3	noise_calib_stim_LEFT.wav	1	8	blb_dichoticlistening_da-da.mp3	da	da	0	left
6.6.1	win	2023-07-07	08:52:56	0	0	615dd1eb2702a672f7db49f1	2	1	DL_test	13	DL_test	12			0		ka	1	1587	6	4	antiphase_hc_sio.wav	1	6	3	noise_calib_stim_LEFT.wav	1	23	blb_dichoticlistening_ka-pa.mp3	ka	pa	1	left
6.6.1	win	2023-07-07	08:52:56	0	0	615dd1eb2702a672f7db49f1	2	1	DL_test	13	DL_test	13			0		ka	1	1104	6	4	antiphase_hc_sio.wav	1	6	3	noise_calib_stim_LEFT.wav	1	22	blb_dichoticlistening_ka-ka.mp3	ka	ka	0	left
6.6.1	win	2023-07-07	08:52:56	0	0	615dd1eb2702a672f7db49f1	2	1	DL_test	13	DL_test	14			0		ka	1	2506	6	4	antiphase_hc_sio.wav	1	6	3	noise_calib_stim_LEFT.wav	1	21	blb_dichoticlistening_ka-ga.mp3	ka	ga	1	left
6.6.1	win	2023-07-07	08:52:56	0	0	615dd1eb2702a672f7db49f1	2	1	DL_test	13	DL_test	15			0		ga	1	1024	6	4	antiphase_hc_sio.wav	1	6	3	noise_calib_stim_LEFT.wav	1	17	blb_dichoticlistening_ga-pa.mp3	ga	pa	1	left
6.6.1	win	2023-07-07	08:52:56	0	0	615dd1eb2702a672f7db49f1	2	1	DL_test	13	DL_test	16			0		ba	1	4047	6	4	antiphase_hc_sio.wav	1	6	3	noise_calib_stim_LEFT.wav	1	31	blb_dichoticlistening_ta-ba.mp3	ta	ba	1	right
6.6.1	win	2023-07-07	08:52:56	0	0	615dd1eb2702a672f7db49f1	2	1	DL_test	13	DL_test	17			0		ka	1	1362	6	4	antiphase_hc_sio.wav	1	6	3	noise_calib_stim_LEFT.wav	1	34	blb_dichoticlistening_ta-ka.mp3	ta	ka	1	right
6.6.1	win	2023-07-07	08:52:56	0	0	615dd1eb2702a672f7db49f1	2	1	DL_test	13	DL_test	18			0		ka	1	1576	6	4	antiphase_hc_sio.wav	1	6	3	noise_calib_stim_LEFT.wav	1	19	blb_dichoticlistening_ka-ba.mp3	ka	ba	1	left
6.6.1	win	2023-07-07	08:52:56	0	0	615dd1eb2702a672f7db49f1	2	1	DL_test	13	DL_test	19			0		ba	1	1708	6	4	antiphase_hc_sio.wav	1	6	3	noise_calib_stim_LEFT.wav	1	3	blb_dichoticlistening_ba-ga.mp3	ba	ga	1	left
6.6.1	win	2023-07-07	08:52:56	0	0	615dd1eb2702a672f7db49f1	2	1	DL_test	13	DL_test	20			0		ba	1	814	6	4	antiphase_hc_sio.wav	1	6	3	noise_calib_stim_LEFT.wav	1	2	blb_dichoticlistening_ba-da.mp3	ba	da	1	left
6.6.1	win	2023-07-07	08:52:56	0	0	615dd1eb2702a672f7db49f1	2	1	DL_test	13	DL_test	21			0		ba	1	1270	6	4	antiphase_hc_sio.wav	1	6	3	noise_calib_stim_LEFT.wav	1	4	blb_dichoticlistening_ba-ka.mp3	ba	ka	1	left
6.6.1	win	2023-07-07	08:52:56	0	0	615dd1eb2702a672f7db49f1	2	1	DL_test	13	DL_test	22			0		ka	1	1154	6	4	antiphase_hc_sio.wav	1	6	3	noise_calib_stim_LEFT.wav	1	28	blb_dichoticlistening_pa-ka.mp3	pa	ka	1	right
6.6.1	win	2023-07-07	08:52:56	0	0	615dd1eb2702a672f7db49f1	2	1	DL_test	13	DL_test	23			0		da	1	1208	6	4	antiphase_hc_sio.wav	1	6	3	noise_calib_stim_LEFT.wav	1	11	blb_dichoticlistening_da-pa.mp3	da	pa	1	left
6.6.1	win	2023-07-07	08:52:56	0	0	615dd1eb2702a672f7db49f1	2	1	DL_test	13	DL_test	24			0		ga	1	1045	6	4	antiphase_hc_sio.wav	1	6	3	noise_calib_stim_LEFT.wav	1	15	blb_dichoticlistening_ga-ga.mp3	ga	ga	0	left
6.6.1	win	2023-07-07	08:52:56	0	0	615dd1eb2702a672f7db49f1	2	1	DL_test	13	DL_test	25			0		ba	1	1746	6	4	antiphase_hc_sio.wav	1	6	3	noise_calib_stim_LEFT.wav	1	1	blb_dichoticlistening_ba-ba.mp3	ba	ba	0	left
6.6.1	win	2023-07-07	08:52:56	0	0	615dd1eb2702a672f7db49f1	2	1	DL_test	13	DL_test	26			0		da	1	1542	6	4	antiphase_hc_sio.wav	1	6	3	noise_calib_stim_LEFT.wav	1	12	blb_dichoticlistening_da-ta.mp3	da	ta	1	left
6.6.1	win	2023-07-07	08:52:56	0	0	615dd1eb2702a672f7db49f1	2	1	DL_test	13	DL_test	27			0		ga	1	2074	6	4	antiphase_hc_sio.wav	1	6	3	noise_calib_stim_LEFT.wav	1	27	blb_dichoticlistening_pa-ga.mp3	pa	ga	1	right
6.6.1	win	2023-07-07	08:52:56	0	0	615dd1eb2702a672f7db49f1	2	1	DL_test	13	DL_test	28			0		ka	1	1076	6	4	antiphase_hc_sio.wav	1	6	3	noise_calib_stim_LEFT.wav	1	24	blb_dichoticlistening_ka-ta.mp3	ka	ta	1	left
6.6.1	win	2023-07-07	08:52:56	0	0	615dd1eb2702a672f7db49f1	2	1	DL_test	13	DL_test	29			0		ba	1	1388	6	4	antiphase_hc_sio.wav	1	6	3	noise_calib_stim_LEFT.wav	1	25	blb_dichoticlistening_pa-ba.mp3	pa	ba	1	right
6.6.1	win	2023-07-07	08:52:56	0	0	615dd1eb2702a672f7db49f1	2	1	DL_test	13	DL_test	30			0		ta	1	1967	6	4	antiphase_hc_sio.wav	1	6	3	noise_calib_stim_LEFT.wav	1	6	blb_dichoticlistening_ba-ta.mp3	ba	ta	1	right
6.6.1	win	2023-07-07	08:52:56	0	0	615dd1eb2702a672f7db49f1	2	1	DL_test	13	DL_test	31			0		ba	1	2025	6	4	antiphase_hc_sio.wav	1	6	3	noise_calib_stim_LEFT.wav	1	5	blb_dichoticlistening_ba-pa.mp3	ba	pa	1	left
6.6.1	win	2023-07-07	08:52:56	0	0	615dd1eb2702a672f7db49f1	2	1	DL_test	13	DL_test	32			0		ga	1	1923	6	4	antiphase_hc_sio.wav	1	6	3	noise_calib_stim_LEFT.wav	1	33	blb_dichoticlistening_ta-ga.mp3	ta	ga	1	right
6.6.1	win	2023-07-07	08:52:56	0	0	615dd1eb2702a672f7db49f1	2	1	DL_test	13	DL_test	33			0		da	1	1012	6	4	antiphase_hc_sio.wav	1	6	3	noise_calib_stim_LEFT.wav	1	10	blb_dichoticlistening_da-ka.mp3	da	ka	1	left
6.6.1	win	2023-07-07	08:52:56	0	0	615dd1eb2702a672f7db49f1	2	1	DL_test	13	DL_test	34			0		ta	1	1468	6	4	antiphase_hc_sio.wav	1	6	3	noise_calib_stim_LEFT.wav	1	36	blb_dichoticlistening_ta-ta.mp3	ta	ta	0	left
6.6.1	win	2023-07-07	08:52:56	0	0	615dd1eb2702a672f7db49f1	2	1	DL_test	13	DL_test	35			0		pa	1	1131	6	4	antiphase_hc_sio.wav	1	6	3	noise_calib_stim_LEFT.wav	1	29	blb_dichoticlistening_pa-pa.mp3	pa	pa	0	left
6.6.1	win	2023-07-07	08:52:56	0	0	615dd1eb2702a672f7db49f1	2	1	DL_test	13	DL_test	36			0		ga	1	1662	6	4	antiphase_hc_sio.wav	1	6	3	noise_calib_stim_LEFT.wav	1	18	blb_dichoticlistening_ga-ta.mp3	ga	ta	1	left
6.6.1	win	2023-07-07	08:52:56	0	0	615dd1eb2702a672f7db49f1	2	1	DL_test	14	DL_test	1			0		ga	1	1331	6	4	antiphase_hc_sio.wav	1	6	3	noise_calib_stim_LEFT.wav	1	16	blb_dichoticlistening_ga-ka.mp3	ga	ka	1	left
6.6.1	win	2023-07-07	08:52:56	0	0	615dd1eb2702a672f7db49f1	2	1	DL_test	14	DL_test	2			0		ka	1	1442	6	4	antiphase_hc_sio.wav	1	6	3	noise_calib_stim_LEFT.wav	1	4	blb_dichoticlistening_ba-ka.mp3	ba	ka	1	right
6.6.1	win	2023-07-07	08:52:56	0	0	615dd1eb2702a672f7db49f1	2	1	DL_test	14	DL_test	3			0		da	1	1005	6	4	antiphase_hc_sio.wav	1	6	3	noise_calib_stim_LEFT.wav	1	11	blb_dichoticlistening_da-pa.mp3	da	pa	1	left
6.6.1	win	2023-07-07	08:52:56	0	0	615dd1eb2702a672f7db49f1	2	1	DL_test	14	DL_test	4			0		ka	1	959	6	4	antiphase_hc_sio.wav	1	6	3	noise_calib_stim_LEFT.wav	1	28	blb_dichoticlistening_pa-ka.mp3	pa	ka	1	right
6.6.1	win	2023-07-07	08:52:56	0	0	615dd1eb2702a672f7db49f1	2	1	DL_test	14	DL_test	5			0		da	1	964	6	4	antiphase_hc_sio.wav	1	6	3	noise_calib_stim_LEFT.wav	1	12	blb_dichoticlistening_da-ta.mp3	da	ta	1	left
6.6.1	win	2023-07-07	08:52:56	0	0	615dd1eb2702a672f7db49f1	2	1	DL_test	14	DL_test	6			0		da	0	840	6	4	antiphase_hc_sio.wav	1	6	3	noise_calib_stim_LEFT.wav	1	18	blb_dichoticlistening_ga-ta.mp3	ga	ta	1	other
6.6.1	win	2023-07-07	08:52:56	0	0	615dd1eb2702a672f7db49f1	2	1	DL_test	14	DL_test	7			0		pa	1	1935	6	4	antiphase_hc_sio.wav	1	6	3	noise_calib_stim_LEFT.wav	1	35	blb_dichoticlistening_ta-pa.mp3	ta	pa	1	right
6.6.1	win	2023-07-07	08:52:56	0	0	615dd1eb2702a672f7db49f1	2	1	DL_test	14	DL_test	8			0		ba	1	1782	6	4	antiphase_hc_sio.wav	1	6	3	noise_calib_stim_LEFT.wav	1	3	blb_dichoticlistening_ba-ga.mp3	ba	ga	1	left
6.6.1	win	2023-07-07	08:52:56	0	0	615dd1eb2702a672f7db49f1	2	1	DL_test	14	DL_test	9			0		ta	1	1646	6	4	antiphase_hc_sio.wav	1	6	3	noise_calib_stim_LEFT.wav	1	30	blb_dichoticlistening_pa-ta.mp3	pa	ta	1	right
6.6.1	win	2023-07-07	08:52:56	0	0	615dd1eb2702a672f7db49f1	2	1	DL_test	14	DL_test	10			0		ba	1	1722	6	4	antiphase_hc_sio.wav	1	6	3	noise_calib_stim_LEFT.wav	1	7	blb_dichoticlistening_da-ba.mp3	da	ba	1	right
6.6.1	win	2023-07-07	08:52:56	0	0	615dd1eb2702a672f7db49f1	2	1	DL_test	14	DL_test	11			0		da	1	1280	6	4	antiphase_hc_sio.wav	1	6	3	noise_calib_stim_LEFT.wav	1	8	blb_dichoticlistening_da-da.mp3	da	da	0	left
6.6.1	win	2023-07-07	08:52:56	0	0	615dd1eb2702a672f7db49f1	2	1	DL_test	14	DL_test	12			0		ka	1	1263	6	4	antiphase_hc_sio.wav	1	6	3	noise_calib_stim_LEFT.wav	1	24	blb_dichoticlistening_ka-ta.mp3	ka	ta	1	left
6.6.1	win	2023-07-07	08:52:56	0	0	615dd1eb2702a672f7db49f1	2	1	DL_test	14	DL_test	13			0		da	1	1161	6	4	antiphase_hc_sio.wav	1	6	3	noise_calib_stim_LEFT.wav	1	10	blb_dichoticlistening_da-ka.mp3	da	ka	1	left
6.6.1	win	2023-07-07	08:52:56	0	0	615dd1eb2702a672f7db49f1	2	1	DL_test	14	DL_test	14			0		ta	1	1308	6	4	antiphase_hc_sio.wav	1	6	3	noise_calib_stim_LEFT.wav	1	31	blb_dichoticlistening_ta-ba.mp3	ta	ba	1	left
6.6.1	win	2023-07-07	08:52:56	0	0	615dd1eb2702a672f7db49f1	2	1	DL_test	14	DL_test	15			0		ba	1	2390	6	4	antiphase_hc_sio.wav	1	6	3	noise_calib_stim_LEFT.wav	1	13	blb_dichoticlistening_ga-ba.mp3	ga	ba	1	right
6.6.1	win	2023-07-07	08:52:56	0	0	615dd1eb2702a672f7db49f1	2	1	DL_test	14	DL_test	16			0		ba	1	1732	6	4	antiphase_hc_sio.wav	1	6	3	noise_calib_stim_LEFT.wav	1	6	blb_dichoticlistening_ba-ta.mp3	ba	ta	1	left
6.6.1	win	2023-07-07	08:52:56	0	0	615dd1eb2702a672f7db49f1	2	1	DL_test	14	DL_test	17			0		da	1	1015	6	4	antiphase_hc_sio.wav	1	6	3	noise_calib_stim_LEFT.wav	1	9	blb_dichoticlistening_da-ga.mp3	da	ga	1	left
6.6.1	win	2023-07-07	08:52:56	0	0	615dd1eb2702a672f7db49f1	2	1	DL_test	14	DL_test	18			0		ga	1	2080	6	4	antiphase_hc_sio.wav	1	6	3	noise_calib_stim_LEFT.wav	1	33	blb_dichoticlistening_ta-ga.mp3	ta	ga	1	right
6.6.1	win	2023-07-07	08:52:56	0	0	615dd1eb2702a672f7db49f1	2	1	DL_test	14	DL_test	19			0		ta	0	1850	6	4	antiphase_hc_sio.wav	1	6	3	noise_calib_stim_LEFT.wav	1	26	blb_dichoticlistening_pa-da.mp3	pa	da	1	other
6.6.1	win	2023-07-07	08:52:56	0	0	615dd1eb2702a672f7db49f1	2	1	DL_test	14	DL_test	20			0		ka	1	1177	6	4	antiphase_hc_sio.wav	1	6	3	noise_calib_stim_LEFT.wav	1	34	blb_dichoticlistening_ta-ka.mp3	ta	ka	1	right
6.6.1	win	2023-07-07	08:52:56	0	0	615dd1eb2702a672f7db49f1	2	1	DL_test	14	DL_test	21			0		ga	1	1197	6	4	antiphase_hc_sio.wav	1	6	3	noise_calib_stim_LEFT.wav	1	14	blb_dichoticlistening_ga-da.mp3	ga	da	1	left
6.6.1	win	2023-07-07	08:52:56	0	0	615dd1eb2702a672f7db49f1	2	1	DL_test	14	DL_test	22			0		ka	1	1178	6	4	antiphase_hc_sio.wav	1	6	3	noise_calib_stim_LEFT.wav	1	21	blb_dichoticlistening_ka-ga.mp3	ka	ga	1	left
6.6.1	win	2023-07-07	08:52:56	0	0	615dd1eb2702a672f7db49f1	2	1	DL_test	14	DL_test	23			0		ka	1	848	6	4	antiphase_hc_sio.wav	1	6	3	noise_calib_stim_LEFT.wav	1	19	blb_dichoticlistening_ka-ba.mp3	ka	ba	1	left
6.6.1	win	2023-07-07	08:52:56	0	0	615dd1eb2702a672f7db49f1	2	1	DL_test	14	DL_test	24			0		ka	1	684	6	4	antiphase_hc_sio.wav	1	6	3	noise_calib_stim_LEFT.wav	1	23	blb_dichoticlistening_ka-pa.mp3	ka	pa	1	left
6.6.1	win	2023-07-07	08:52:56	0	0	615dd1eb2702a672f7db49f1	2	1	DL_test	14	DL_test	25			0		ga	1	905	6	4	antiphase_hc_sio.wav	1	6	3	noise_calib_stim_LEFT.wav	1	15	blb_dichoticlistening_ga-ga.mp3	ga	ga	0	left
6.6.1	win	2023-07-07	08:52:56	0	0	615dd1eb2702a672f7db49f1	2	1	DL_test	14	DL_test	26			0		ba	1	1300	6	4	antiphase_hc_sio.wav	1	6	3	noise_calib_stim_LEFT.wav	1	2	blb_dichoticlistening_ba-da.mp3	ba	da	1	left
6.6.1	win	2023-07-07	08:52:56	0	0	615dd1eb2702a672f7db49f1	2	1	DL_test	14	DL_test	27			0		ta	1	2021	6	4	antiphase_hc_sio.wav	1	6	3	noise_calib_stim_LEFT.wav	1	36	blb_dichoticlistening_ta-ta.mp3	ta	ta	0	left
6.6.1	win	2023-07-07	08:52:56	0	0	615dd1eb2702a672f7db49f1	2	1	DL_test	14	DL_test	28			0		ka	1	1460	6	4	antiphase_hc_sio.wav	1	6	3	noise_calib_stim_LEFT.wav	1	20	blb_dichoticlistening_ka-da.mp3	ka	da	1	left
6.6.1	win	2023-07-07	08:52:56	0	0	615dd1eb2702a672f7db49f1	2	1	DL_test	14	DL_test	29			0		ga	1	1176	6	4	antiphase_hc_sio.wav	1	6	3	noise_calib_stim_LEFT.wav	1	27	blb_dichoticlistening_pa-ga.mp3	pa	ga	1	right
6.6.1	win	2023-07-07	08:52:56	0	0	615dd1eb2702a672f7db49f1	2	1	DL_test	14	DL_test	30			0		ba	1	1456	6	4	antiphase_hc_sio.wav	1	6	3	noise_calib_stim_LEFT.wav	1	25	blb_dichoticlistening_pa-ba.mp3	pa	ba	1	right
6.6.1	win	2023-07-07	08:52:56	0	0	615dd1eb2702a672f7db49f1	2	1	DL_test	14	DL_test	31			0		da	1	1080	6	4	antiphase_hc_sio.wav	1	6	3	noise_calib_stim_LEFT.wav	1	32	blb_dichoticlistening_ta-da.mp3	ta	da	1	right
6.6.1	win	2023-07-07	08:52:56	0	0	615dd1eb2702a672f7db49f1	2	1	DL_test	14	DL_test	32			0		ba	1	1289	6	4	antiphase_hc_sio.wav	1	6	3	noise_calib_stim_LEFT.wav	1	1	blb_dichoticlistening_ba-ba.mp3	ba	ba	0	left
6.6.1	win	2023-07-07	08:52:56	0	0	615dd1eb2702a672f7db49f1	2	1	DL_test	14	DL_test	33			0		pa	1	1021	6	4	antiphase_hc_sio.wav	1	6	3	noise_calib_stim_LEFT.wav	1	29	blb_dichoticlistening_pa-pa.mp3	pa	pa	0	left
6.6.1	win	2023-07-07	08:52:56	0	0	615dd1eb2702a672f7db49f1	2	1	DL_test	14	DL_test	34			0		ka	1	730	6	4	antiphase_hc_sio.wav	1	6	3	noise_calib_stim_LEFT.wav	1	22	blb_dichoticlistening_ka-ka.mp3	ka	ka	0	left
6.6.1	win	2023-07-07	08:52:56	0	0	615dd1eb2702a672f7db49f1	2	1	DL_test	14	DL_test	35			0		ga	1	821	6	4	antiphase_hc_sio.wav	1	6	3	noise_calib_stim_LEFT.wav	1	17	blb_dichoticlistening_ga-pa.mp3	ga	pa	1	left
6.6.1	win	2023-07-07	08:52:56	0	0	615dd1eb2702a672f7db49f1	2	1	DL_test	14	DL_test	36			0		ba	1	2498	6	4	antiphase_hc_sio.wav	1	6	3	noise_calib_stim_LEFT.wav	1	5	blb_dichoticlistening_ba-pa.mp3	ba	pa	1	left
6.6.1	win	2023-07-07	08:52:56	0	0	615dd1eb2702a672f7db49f1	2	1	DL_test	15	DL_test	1			0		pa	1	1525	6	4	antiphase_hc_sio.wav	1	6	3	noise_calib_stim_LEFT.wav	1	29	blb_dichoticlistening_pa-pa.mp3	pa	pa	0	left
6.6.1	win	2023-07-07	08:52:56	0	0	615dd1eb2702a672f7db49f1	2	1	DL_test	15	DL_test	2			0		da	1	1425	6	4	antiphase_hc_sio.wav	1	6	3	noise_calib_stim_LEFT.wav	1	32	blb_dichoticlistening_ta-da.mp3	ta	da	1	right
6.6.1	win	2023-07-07	08:52:56	0	0	615dd1eb2702a672f7db49f1	2	1	DL_test	15	DL_test	3			0		ka	1	1324	6	4	antiphase_hc_sio.wav	1	6	3	noise_calib_stim_LEFT.wav	1	28	blb_dichoticlistening_pa-ka.mp3	pa	ka	1	right
6.6.1	win	2023-07-07	08:52:56	0	0	615dd1eb2702a672f7db49f1	2	1	DL_test	15	DL_test	4			0		ta	1	1901	6	4	antiphase_hc_sio.wav	1	6	3	noise_calib_stim_LEFT.wav	1	31	blb_dichoticlistening_ta-ba.mp3	ta	ba	1	left
6.6.1	win	2023-07-07	08:52:56	0	0	615dd1eb2702a672f7db49f1	2	1	DL_test	15	DL_test	5			0		ga	1	1358	6	4	antiphase_hc_sio.wav	1	6	3	noise_calib_stim_LEFT.wav	1	15	blb_dichoticlistening_ga-ga.mp3	ga	ga	0	left
6.6.1	win	2023-07-07	08:52:56	0	0	615dd1eb2702a672f7db49f1	2	1	DL_test	15	DL_test	6			0		ta	1	2331	6	4	antiphase_hc_sio.wav	1	6	3	noise_calib_stim_LEFT.wav	1	6	blb_dichoticlistening_ba-ta.mp3	ba	ta	1	right
6.6.1	win	2023-07-07	08:52:56	0	0	615dd1eb2702a672f7db49f1	2	1	DL_test	15	DL_test	7			0		ba	1	2120	6	4	antiphase_hc_sio.wav	1	6	3	noise_calib_stim_LEFT.wav	1	7	blb_dichoticlistening_da-ba.mp3	da	ba	1	right
6.6.1	win	2023-07-07	08:52:56	0	0	615dd1eb2702a672f7db49f1	2	1	DL_test	15	DL_test	8			0		ba	1	817	6	4	antiphase_hc_sio.wav	1	6	3	noise_calib_stim_LEFT.wav	1	25	blb_dichoticlistening_pa-ba.mp3	pa	ba	1	right
6.6.1	win	2023-07-07	08:52:56	0	0	615dd1eb2702a672f7db49f1	2	1	DL_test	15	DL_test	9			0		da	1	1165	6	4	antiphase_hc_sio.wav	1	6	3	noise_calib_stim_LEFT.wav	1	11	blb_dichoticlistening_da-pa.mp3	da	pa	1	left
6.6.1	win	2023-07-07	08:52:56	0	0	615dd1eb2702a672f7db49f1	2	1	DL_test	15	DL_test	10			0		ta	1	1603	6	4	antiphase_hc_sio.wav	1	6	3	noise_calib_stim_LEFT.wav	1	30	blb_dichoticlistening_pa-ta.mp3	pa	ta	1	right
6.6.1	win	2023-07-07	08:52:56	0	0	615dd1eb2702a672f7db49f1	2	1	DL_test	15	DL_test	11			0		ga	1	1248	6	4	antiphase_hc_sio.wav	1	6	3	noise_calib_stim_LEFT.wav	1	33	blb_dichoticlistening_ta-ga.mp3	ta	ga	1	right
6.6.1	win	2023-07-07	08:52:56	0	0	615dd1eb2702a672f7db49f1	2	1	DL_test	15	DL_test	12			0		da	1	1120	6	4	antiphase_hc_sio.wav	1	6	3	noise_calib_stim_LEFT.wav	1	12	blb_dichoticlistening_da-ta.mp3	da	ta	1	left
6.6.1	win	2023-07-07	08:52:56	0	0	615dd1eb2702a672f7db49f1	2	1	DL_test	15	DL_test	13			0		ga	1	1668	6	4	antiphase_hc_sio.wav	1	6	3	noise_calib_stim_LEFT.wav	1	14	blb_dichoticlistening_ga-da.mp3	ga	da	1	left
6.6.1	win	2023-07-07	08:52:56	0	0	615dd1eb2702a672f7db49f1	2	1	DL_test	15	DL_test	14			0		ta	1	1467	6	4	antiphase_hc_sio.wav	1	6	3	noise_calib_stim_LEFT.wav	1	35	blb_dichoticlistening_ta-pa.mp3	ta	pa	1	left
6.6.1	win	2023-07-07	08:52:56	0	0	615dd1eb2702a672f7db49f1	2	1	DL_test	15	DL_test	15			0		ta	1	2793	6	4	antiphase_hc_sio.wav	1	6	3	noise_calib_stim_LEFT.wav	1	36	blb_dichoticlistening_ta-ta.mp3	ta	ta	0	left
6.6.1	win	2023-07-07	08:52:56	0	0	615dd1eb2702a672f7db49f1	2	1	DL_test	15	DL_test	16			0		ba	1	1346	6	4	antiphase_hc_sio.wav	1	6	3	noise_calib_stim_LEFT.wav	1	5	blb_dichoticlistening_ba-pa.mp3	ba	pa	1	left
6.6.1	win	2023-07-07	08:52:56	0	0	615dd1eb2702a672f7db49f1	2	1	DL_test	15	DL_test	17			0		ka	1	1408	6	4	antiphase_hc_sio.wav	1	6	3	noise_calib_stim_LEFT.wav	1	21	blb_dichoticlistening_ka-ga.mp3	ka	ga	1	left
6.6.1	win	2023-07-07	08:52:56	0	0	615dd1eb2702a672f7db49f1	2	1	DL_test	15	DL_test	18			0		ba	1	1593	6	4	antiphase_hc_sio.wav	1	6	3	noise_calib_stim_LEFT.wav	1	1	blb_dichoticlistening_ba-ba.mp3	ba	ba	0	left
6.6.1	win	2023-07-07	08:52:56	0	0	615dd1eb2702a672f7db49f1	2	1	DL_test	15	DL_test	19			0		ka	1	1219	6	4	antiphase_hc_sio.wav	1	6	3	noise_calib_stim_LEFT.wav	1	19	blb_dichoticlistening_ka-ba.mp3	ka	ba	1	left
6.6.1	win	2023-07-07	08:52:56	0	0	615dd1eb2702a672f7db49f1	2	1	DL_test	15	DL_test	20			0		ga	1	1272	6	4	antiphase_hc_sio.wav	1	6	3	noise_calib_stim_LEFT.wav	1	16	blb_dichoticlistening_ga-ka.mp3	ga	ka	1	left
6.6.1	win	2023-07-07	08:52:56	0	0	615dd1eb2702a672f7db49f1	2	1	DL_test	15	DL_test	21			0		ga	1	1018	6	4	antiphase_hc_sio.wav	1	6	3	noise_calib_stim_LEFT.wav	1	17	blb_dichoticlistening_ga-pa.mp3	ga	pa	1	left
6.6.1	win	2023-07-07	08:52:56	0	0	615dd1eb2702a672f7db49f1	2	1	DL_test	15	DL_test	22			0		ka	1	1738	6	4	antiphase_hc_sio.wav	1	6	3	noise_calib_stim_LEFT.wav	1	24	blb_dichoticlistening_ka-ta.mp3	ka	ta	1	left
6.6.1	win	2023-07-07	08:52:56	0	0	615dd1eb2702a672f7db49f1	2	1	DL_test	15	DL_test	23			0		ga	1	937	6	4	antiphase_hc_sio.wav	1	6	3	noise_calib_stim_LEFT.wav	1	27	blb_dichoticlistening_pa-ga.mp3	pa	ga	1	right
6.6.1	win	2023-07-07	08:52:56	0	0	615dd1eb2702a672f7db49f1	2	1	DL_test	15	DL_test	24			0		ga	0	1117	6	4	antiphase_hc_sio.wav	1	6	3	noise_calib_stim_LEFT.wav	1	20	blb_dichoticlistening_ka-da.mp3	ka	da	1	other
6.6.1	win	2023-07-07	08:52:56	0	0	615dd1eb2702a672f7db49f1	2	1	DL_test	15	DL_test	25			0		da	1	971	6	4	antiphase_hc_sio.wav	1	6	3	noise_calib_stim_LEFT.wav	1	8	blb_dichoticlistening_da-da.mp3	da	da	0	left
6.6.1	win	2023-07-07	08:52:56	0	0	615dd1eb2702a672f7db49f1	2	1	DL_test	15	DL_test	26			0		ba	1	1470	6	4	antiphase_hc_sio.wav	1	6	3	noise_calib_stim_LEFT.wav	1	3	blb_dichoticlistening_ba-ga.mp3	ba	ga	1	left
6.6.1	win	2023-07-07	08:52:56	0	0	615dd1eb2702a672f7db49f1	2	1	DL_test	15	DL_test	27			0		ka	1	1209	6	4	antiphase_hc_sio.wav	1	6	3	noise_calib_stim_LEFT.wav	1	34	blb_dichoticlistening_ta-ka.mp3	ta	ka	1	right
6.6.1	win	2023-07-07	08:52:56	0	0	615dd1eb2702a672f7db49f1	2	1	DL_test	15	DL_test	28			0		ga	1	2187	6	4	antiphase_hc_sio.wav	1	6	3	noise_calib_stim_LEFT.wav	1	18	blb_dichoticlistening_ga-ta.mp3	ga	ta	1	left
6.6.1	win	2023-07-07	08:52:56	0	0	615dd1eb2702a672f7db49f1	2	1	DL_test	15	DL_test	29			0		da	1	1040	6	4	antiphase_hc_sio.wav	1	6	3	noise_calib_stim_LEFT.wav	1	9	blb_dichoticlistening_da-ga.mp3	da	ga	1	left
6.6.1	win	2023-07-07	08:52:56	0	0	615dd1eb2702a672f7db49f1	2	1	DL_test	15	DL_test	30			0		ba	1	1113	6	4	antiphase_hc_sio.wav	1	6	3	noise_calib_stim_LEFT.wav	1	4	blb_dichoticlistening_ba-ka.mp3	ba	ka	1	left
6.6.1	win	2023-07-07	08:52:56	0	0	615dd1eb2702a672f7db49f1	2	1	DL_test	15	DL_test	31			0		ka	1	1140	6	4	antiphase_hc_sio.wav	1	6	3	noise_calib_stim_LEFT.wav	1	22	blb_dichoticlistening_ka-ka.mp3	ka	ka	0	left
6.6.1	win	2023-07-07	08:52:56	0	0	615dd1eb2702a672f7db49f1	2	1	DL_test	15	DL_test	32			0		da	1	1233	6	4	antiphase_hc_sio.wav	1	6	3	noise_calib_stim_LEFT.wav	1	10	blb_dichoticlistening_da-ka.mp3	da	ka	1	left
6.6.1	win	2023-07-07	08:52:56	0	0	615dd1eb2702a672f7db49f1	2	1	DL_test	15	DL_test	33			0		ga	1	1583	6	4	antiphase_hc_sio.wav	1	6	3	noise_calib_stim_LEFT.wav	1	13	blb_dichoticlistening_ga-ba.mp3	ga	ba	1	left
6.6.1	win	2023-07-07	08:52:56	0	0	615dd1eb2702a672f7db49f1	2	1	DL_test	15	DL_test	34			0		ka	1	1225	6	4	antiphase_hc_sio.wav	1	6	3	noise_calib_stim_LEFT.wav	1	23	blb_dichoticlistening_ka-pa.mp3	ka	pa	1	left
6.6.1	win	2023-07-07	08:52:56	0	0	615dd1eb2702a672f7db49f1	2	1	DL_test	15	DL_test	35			0		ba	1	1663	6	4	antiphase_hc_sio.wav	1	6	3	noise_calib_stim_LEFT.wav	1	2	blb_dichoticlistening_ba-da.mp3	ba	da	1	left
6.6.1	win	2023-07-07	08:52:56	0	0	615dd1eb2702a672f7db49f1	2	1	DL_test	15	DL_test	36			0		da	1	990	6	4	antiphase_hc_sio.wav	1	6	3	noise_calib_stim_LEFT.wav	1	26	blb_dichoticlistening_pa-da.mp3	pa	da	1	right
6.6.1	win	2023-07-07	08:52:56	0	0	615dd1eb2702a672f7db49f1	2	1	DL_test	16	DL_test	1			0		pa	1	2173	6	4	antiphase_hc_sio.wav	1	6	3	noise_calib_stim_LEFT.wav	1	29	blb_dichoticlistening_pa-pa.mp3	pa	pa	0	left
6.6.1	win	2023-07-07	08:52:56	0	0	615dd1eb2702a672f7db49f1	2	1	DL_test	16	DL_test	2			0		ga	1	1193	6	4	antiphase_hc_sio.wav	1	6	3	noise_calib_stim_LEFT.wav	1	18	blb_dichoticlistening_ga-ta.mp3	ga	ta	1	left
6.6.1	win	2023-07-07	08:52:56	0	0	615dd1eb2702a672f7db49f1	2	1	DL_test	16	DL_test	3			0		da	1	1045	6	4	antiphase_hc_sio.wav	1	6	3	noise_calib_stim_LEFT.wav	1	12	blb_dichoticlistening_da-ta.mp3	da	ta	1	left
6.6.1	win	2023-07-07	08:52:56	0	0	615dd1eb2702a672f7db49f1	2	1	DL_test	16	DL_test	4			0		ka	1	2065	6	4	antiphase_hc_sio.wav	1	6	3	noise_calib_stim_LEFT.wav	1	21	blb_dichoticlistening_ka-ga.mp3	ka	ga	1	left
6.6.1	win	2023-07-07	08:52:56	0	0	615dd1eb2702a672f7db49f1	2	1	DL_test	16	DL_test	5			0		ba	1	1394	6	4	antiphase_hc_sio.wav	1	6	3	noise_calib_stim_LEFT.wav	1	13	blb_dichoticlistening_ga-ba.mp3	ga	ba	1	right
6.6.1	win	2023-07-07	08:52:56	0	0	615dd1eb2702a672f7db49f1	2	1	DL_test	16	DL_test	6			0		da	1	796	6	4	antiphase_hc_sio.wav	1	6	3	noise_calib_stim_LEFT.wav	1	11	blb_dichoticlistening_da-pa.mp3	da	pa	1	left
6.6.1	win	2023-07-07	08:52:56	0	0	615dd1eb2702a672f7db49f1	2	1	DL_test	16	DL_test	7			0		ga	1	1241	6	4	antiphase_hc_sio.wav	1	6	3	noise_calib_stim_LEFT.wav	1	14	blb_dichoticlistening_ga-da.mp3	ga	da	1	left
6.6.1	win	2023-07-07	08:52:56	0	0	615dd1eb2702a672f7db49f1	2	1	DL_test	16	DL_test	8			0		ba	1	1403	6	4	antiphase_hc_sio.wav	1	6	3	noise_calib_stim_LEFT.wav	1	25	blb_dichoticlistening_pa-ba.mp3	pa	ba	1	right
6.6.1	win	2023-07-07	08:52:56	0	0	615dd1eb2702a672f7db49f1	2	1	DL_test	16	DL_test	9			0		ka	0	1885	6	4	antiphase_hc_sio.wav	1	6	3	noise_calib_stim_LEFT.wav	1	5	blb_dichoticlistening_ba-pa.mp3	ba	pa	1	other
6.6.1	win	2023-07-07	08:52:56	0	0	615dd1eb2702a672f7db49f1	2	1	DL_test	16	DL_test	10			0		ta	1	1516	6	4	antiphase_hc_sio.wav	1	6	3	noise_calib_stim_LEFT.wav	1	35	blb_dichoticlistening_ta-pa.mp3	ta	pa	1	left
6.6.1	win	2023-07-07	08:52:56	0	0	615dd1eb2702a672f7db49f1	2	1	DL_test	16	DL_test	11			0		ka	1	1815	6	4	antiphase_hc_sio.wav	1	6	3	noise_calib_stim_LEFT.wav	1	28	blb_dichoticlistening_pa-ka.mp3	pa	ka	1	right
6.6.1	win	2023-07-07	08:52:56	0	0	615dd1eb2702a672f7db49f1	2	1	DL_test	16	DL_test	12			0		ba	1	1734	6	4	antiphase_hc_sio.wav	1	6	3	noise_calib_stim_LEFT.wav	1	19	blb_dichoticlistening_ka-ba.mp3	ka	ba	1	right
6.6.1	win	2023-07-07	08:52:56	0	0	615dd1eb2702a672f7db49f1	2	1	DL_test	16	DL_test	13			0		ba	1	1390	6	4	antiphase_hc_sio.wav	1	6	3	noise_calib_stim_LEFT.wav	1	4	blb_dichoticlistening_ba-ka.mp3	ba	ka	1	left
6.6.1	win	2023-07-07	08:52:56	0	0	615dd1eb2702a672f7db49f1	2	1	DL_test	16	DL_test	14			0		ga	1	1424	6	4	antiphase_hc_sio.wav	1	6	3	noise_calib_stim_LEFT.wav	1	33	blb_dichoticlistening_ta-ga.mp3	ta	ga	1	right
6.6.1	win	2023-07-07	08:52:56	0	0	615dd1eb2702a672f7db49f1	2	1	DL_test	16	DL_test	15			0		ka	1	984	6	4	antiphase_hc_sio.wav	1	6	3	noise_calib_stim_LEFT.wav	1	22	blb_dichoticlistening_ka-ka.mp3	ka	ka	0	left
6.6.1	win	2023-07-07	08:52:56	0	0	615dd1eb2702a672f7db49f1	2	1	DL_test	16	DL_test	16			0		ta	1	1251	6	4	antiphase_hc_sio.wav	1	6	3	noise_calib_stim_LEFT.wav	1	30	blb_dichoticlistening_pa-ta.mp3	pa	ta	1	right
6.6.1	win	2023-07-07	08:52:56	0	0	615dd1eb2702a672f7db49f1	2	1	DL_test	16	DL_test	17			0		ba	1	1437	6	4	antiphase_hc_sio.wav	1	6	3	noise_calib_stim_LEFT.wav	1	2	blb_dichoticlistening_ba-da.mp3	ba	da	1	left
6.6.1	win	2023-07-07	08:52:56	0	0	615dd1eb2702a672f7db49f1	2	1	DL_test	16	DL_test	18			0		ba	1	618	6	4	antiphase_hc_sio.wav	1	6	3	noise_calib_stim_LEFT.wav	1	3	blb_dichoticlistening_ba-ga.mp3	ba	ga	1	left
6.6.1	win	2023-07-07	08:52:56	0	0	615dd1eb2702a672f7db49f1	2	1	DL_test	16	DL_test	19			0		da	1	938	6	4	antiphase_hc_sio.wav	1	6	3	noise_calib_stim_LEFT.wav	1	8	blb_dichoticlistening_da-da.mp3	da	da	0	left
6.6.1	win	2023-07-07	08:52:56	0	0	615dd1eb2702a672f7db49f1	2	1	DL_test	16	DL_test	20			0		da	1	1296	6	4	antiphase_hc_sio.wav	1	6	3	noise_calib_stim_LEFT.wav	1	9	blb_dichoticlistening_da-ga.mp3	da	ga	1	left
6.6.1	win	2023-07-07	08:52:56	0	0	615dd1eb2702a672f7db49f1	2	1	DL_test	16	DL_test	21			0		ga	1	967	6	4	antiphase_hc_sio.wav	1	6	3	noise_calib_stim_LEFT.wav	1	15	blb_dichoticlistening_ga-ga.mp3	ga	ga	0	left
6.6.1	win	2023-07-07	08:52:56	0	0	615dd1eb2702a672f7db49f1	2	1	DL_test	16	DL_test	22			0		ka	1	1139	6	4	antiphase_hc_sio.wav	1	6	3	noise_calib_stim_LEFT.wav	1	24	blb_dichoticlistening_ka-ta.mp3	ka	ta	1	left
6.6.1	win	2023-07-07	08:52:56	0	0	615dd1eb2702a672f7db49f1	2	1	DL_test	16	DL_test	23			0		ga	1	1461	6	4	antiphase_hc_sio.wav	1	6	3	noise_calib_stim_LEFT.wav	1	17	blb_dichoticlistening_ga-pa.mp3	ga	pa	1	left
6.6.1	win	2023-07-07	08:52:56	0	0	615dd1eb2702a672f7db49f1	2	1	DL_test	16	DL_test	24			0		ba	1	1236	6	4	antiphase_hc_sio.wav	1	6	3	noise_calib_stim_LEFT.wav	1	1	blb_dichoticlistening_ba-ba.mp3	ba	ba	0	left
6.6.1	win	2023-07-07	08:52:56	0	0	615dd1eb2702a672f7db49f1	2	1	DL_test	16	DL_test	25			0		ka	1	1376	6	4	antiphase_hc_sio.wav	1	6	3	noise_calib_stim_LEFT.wav	1	34	blb_dichoticlistening_ta-ka.mp3	ta	ka	1	right
6.6.1	win	2023-07-07	08:52:56	0	0	615dd1eb2702a672f7db49f1	2	1	DL_test	16	DL_test	26			0		ka	1	808	6	4	antiphase_hc_sio.wav	1	6	3	noise_calib_stim_LEFT.wav	1	23	blb_dichoticlistening_ka-pa.mp3	ka	pa	1	left
6.6.1	win	2023-07-07	08:52:56	0	0	615dd1eb2702a672f7db49f1	2	1	DL_test	16	DL_test	27			0		ba	1	1315	6	4	antiphase_hc_sio.wav	1	6	3	noise_calib_stim_LEFT.wav	1	31	blb_dichoticlistening_ta-ba.mp3	ta	ba	1	right
6.6.1	win	2023-07-07	08:52:56	0	0	615dd1eb2702a672f7db49f1	2	1	DL_test	16	DL_test	28			0		ta	1	2110	6	4	antiphase_hc_sio.wav	1	6	3	noise_calib_stim_LEFT.wav	1	6	blb_dichoticlistening_ba-ta.mp3	ba	ta	1	right
6.6.1	win	2023-07-07	08:52:56	0	0	615dd1eb2702a672f7db49f1	2	1	DL_test	16	DL_test	29			0		da	1	2899	6	4	antiphase_hc_sio.wav	1	6	3	noise_calib_stim_LEFT.wav	1	10	blb_dichoticlistening_da-ka.mp3	da	ka	1	left
6.6.1	win	2023-07-07	08:52:56	0	0	615dd1eb2702a672f7db49f1	2	1	DL_test	16	DL_test	30			0		da	1	801	6	4	antiphase_hc_sio.wav	1	6	3	noise_calib_stim_LEFT.wav	1	26	blb_dichoticlistening_pa-da.mp3	pa	da	1	right
6.6.1	win	2023-07-07	08:52:56	0	0	615dd1eb2702a672f7db49f1	2	1	DL_test	16	DL_test	31			0		ka	1	1239	6	4	antiphase_hc_sio.wav	1	6	3	noise_calib_stim_LEFT.wav	1	16	blb_dichoticlistening_ga-ka.mp3	ga	ka	1	right
6.6.1	win	2023-07-07	08:52:56	0	0	615dd1eb2702a672f7db49f1	2	1	DL_test	16	DL_test	32			0		ga	1	1062	6	4	antiphase_hc_sio.wav	1	6	3	noise_calib_stim_LEFT.wav	1	27	blb_dichoticlistening_pa-ga.mp3	pa	ga	1	right
6.6.1	win	2023-07-07	08:52:56	0	0	615dd1eb2702a672f7db49f1	2	1	DL_test	16	DL_test	33			0		ta	1	2166	6	4	antiphase_hc_sio.wav	1	6	3	noise_calib_stim_LEFT.wav	1	36	blb_dichoticlistening_ta-ta.mp3	ta	ta	0	left
6.6.1	win	2023-07-07	08:52:56	0	0	615dd1eb2702a672f7db49f1	2	1	DL_test	16	DL_test	34			0		ba	1	1243	6	4	antiphase_hc_sio.wav	1	6	3	noise_calib_stim_LEFT.wav	1	7	blb_dichoticlistening_da-ba.mp3	da	ba	1	right
6.6.1	win	2023-07-07	08:52:56	0	0	615dd1eb2702a672f7db49f1	2	1	DL_test	16	DL_test	35			0		da	1	1199	6	4	antiphase_hc_sio.wav	1	6	3	noise_calib_stim_LEFT.wav	1	32	blb_dichoticlistening_ta-da.mp3	ta	da	1	right
6.6.1	win	2023-07-07	08:52:56	0	0	615dd1eb2702a672f7db49f1	2	1	DL_test	16	DL_test	36			0		ga	0	2568	6	4	antiphase_hc_sio.wav	1	6	3	noise_calib_stim_LEFT.wav	1	20	blb_dichoticlistening_ka-da.mp3	ka	da	1	other
6.6.1	win	2023-07-07	08:52:56	09:04:51	710830	615dd1eb2702a672f7db49f1	2	1	practice_z	22	practice_z	1	stimuli_distractor_diamondtriangles.svg	stimuli_target_diamondrectangles.svg	8	yes	0	0	2000	6	4	antiphase_hc_sio.wav	1	6	3	noise_calib_stim_LEFT.wav	1	20	blb_dichoticlistening_ka-da.mp3	ka	da	1	other
6.6.1	win	2023-07-07	08:52:56	09:04:51	710830	615dd1eb2702a672f7db49f1	2	1	practice_z	22	advance_on_keypress_ZEE	2	stimuli_distractor_diamondtriangles.svg	stimuli_target_diamondrectangles.svg	8	yes	57	0	2801	6	4	antiphase_hc_sio.wav	1	6	3	noise_calib_stim_LEFT.wav	1	20	blb_dichoticlistening_ka-da.mp3	ka	da	1	other
6.6.1	win	2023-07-07	08:52:56	09:04:57	717291	615dd1eb2702a672f7db49f1	2	1	practice_z	22	practice_z	3	stimuli_distractor_diamondtriangles.svg	stimuli_distractor_trianglediamonds.svg	14	no	0	1	2000	6	4	antiphase_hc_sio.wav	1	6	3	noise_calib_stim_LEFT.wav	1	20	blb_dichoticlistening_ka-da.mp3	ka	da	1	other
6.6.1	win	2023-07-07	08:52:56	09:04:57	717291	615dd1eb2702a672f7db49f1	2	1	practice_z	22	advance_on_keypress_ZEE	4	stimuli_distractor_diamondtriangles.svg	stimuli_distractor_trianglediamonds.svg	14	no	57	0	631	6	4	antiphase_hc_sio.wav	1	6	3	noise_calib_stim_LEFT.wav	1	20	blb_dichoticlistening_ka-da.mp3	ka	da	1	other
6.6.1	win	2023-07-07	08:52:56	09:05:02	721570	615dd1eb2702a672f7db49f1	2	1	practice_z	22	practice_z	5	stimuli_distractor_trianglediamonds.svg	stimuli_distractor_diamondtriangles.svg	16	no	0	1	2000	6	4	antiphase_hc_sio.wav	1	6	3	noise_calib_stim_LEFT.wav	1	20	blb_dichoticlistening_ka-da.mp3	ka	da	1	other
6.6.1	win	2023-07-07	08:52:56	09:05:02	721570	615dd1eb2702a672f7db49f1	2	1	practice_z	22	advance_on_keypress_ZEE	6	stimuli_distractor_trianglediamonds.svg	stimuli_distractor_diamondtriangles.svg	16	no	57	0	880	6	4	antiphase_hc_sio.wav	1	6	3	noise_calib_stim_LEFT.wav	1	20	blb_dichoticlistening_ka-da.mp3	ka	da	1	other
6.6.1	win	2023-07-07	08:52:56	09:05:05	724512	615dd1eb2702a672f7db49f1	2	1	practice_z	22	practice_z	7	stimuli_target_rectanglediamonds.svg	stimuli_distractor_diamondtriangles.svg	1	yes	44	1	413	6	4	antiphase_hc_sio.wav	1	6	3	noise_calib_stim_LEFT.wav	1	20	blb_dichoticlistening_ka-da.mp3	ka	da	1	other
6.6.1	win	2023-07-07	08:52:56	09:05:05	724512	615dd1eb2702a672f7db49f1	2	1	practice_z	22	advance_on_keypress_ZEE	8	stimuli_target_rectanglediamonds.svg	stimuli_distractor_diamondtriangles.svg	1	yes	57	0	894	6	4	antiphase_hc_sio.wav	1	6	3	noise_calib_stim_LEFT.wav	1	20	blb_dichoticlistening_ka-da.mp3	ka	da	1	other
6.6.1	win	2023-07-07	08:52:56	09:05:07	727472	615dd1eb2702a672f7db49f1	2	1	practice_z	22	practice_z	9	stimuli_target_rectanglediamonds.svg	stimuli_distractor_trianglediamonds.svg	4	yes	44	1	408	6	4	antiphase_hc_sio.wav	1	6	3	noise_calib_stim_LEFT.wav	1	20	blb_dichoticlistening_ka-da.mp3	ka	da	1	other
6.6.1	win	2023-07-07	08:52:56	09:05:07	727472	615dd1eb2702a672f7db49f1	2	1	practice_z	22	advance_on_keypress_ZEE	10	stimuli_target_rectanglediamonds.svg	stimuli_distractor_trianglediamonds.svg	4	yes	57	0	550	6	4	antiphase_hc_sio.wav	1	6	3	noise_calib_stim_LEFT.wav	1	20	blb_dichoticlistening_ka-da.mp3	ka	da	1	other
6.6.1	win	2023-07-07	08:52:56	09:05:10	730131	615dd1eb2702a672f7db49f1	2	1	practice_z	22	practice_z	11	stimuli_distractor_trianglediamonds.svg	stimuli_target_rectanglediamonds.svg	10	yes	44	1	454	6	4	antiphase_hc_sio.wav	1	6	3	noise_calib_stim_LEFT.wav	1	20	blb_dichoticlistening_ka-da.mp3	ka	da	1	other
6.6.1	win	2023-07-07	08:52:56	09:05:10	730131	615dd1eb2702a672f7db49f1	2	1	practice_z	22	advance_on_keypress_ZEE	12	stimuli_distractor_trianglediamonds.svg	stimuli_target_rectanglediamonds.svg	10	yes	57	0	622	6	4	antiphase_hc_sio.wav	1	6	3	noise_calib_stim_LEFT.wav	1	20	blb_dichoticlistening_ka-da.mp3	ka	da	1	other
6.6.1	win	2023-07-07	08:52:56	09:05:13	732809	615dd1eb2702a672f7db49f1	2	1	practice_z	22	practice_z	13	stimuli_distractor_trianglediamonds.svg	stimuli_target_squarediamonds.svg	11	yes	44	1	417	6	4	antiphase_hc_sio.wav	1	6	3	noise_calib_stim_LEFT.wav	1	20	blb_dichoticlistening_ka-da.mp3	ka	da	1	other
6.6.1	win	2023-07-07	08:52:56	09:05:13	732809	615dd1eb2702a672f7db49f1	2	1	practice_z	22	advance_on_keypress_ZEE	14	stimuli_distractor_trianglediamonds.svg	stimuli_target_squarediamonds.svg	11	yes	57	0	537	6	4	antiphase_hc_sio.wav	1	6	3	noise_calib_stim_LEFT.wav	1	20	blb_dichoticlistening_ka-da.mp3	ka	da	1	other
6.6.1	win	2023-07-07	08:52:56	09:05:17	736990	615dd1eb2702a672f7db49f1	2	1	practice_z	22	practice_z	15	stimuli_target_diamondsquares.svg	stimuli_distractor_diamondtriangles.svg	3	yes	0	0	2000	6	4	antiphase_hc_sio.wav	1	6	3	noise_calib_stim_LEFT.wav	1	20	blb_dichoticlistening_ka-da.mp3	ka	da	1	other
6.6.1	win	2023-07-07	08:52:56	09:05:17	736990	615dd1eb2702a672f7db49f1	2	1	practice_z	22	advance_on_keypress_ZEE	16	stimuli_target_diamondsquares.svg	stimuli_distractor_diamondtriangles.svg	3	yes	57	0	731	6	4	antiphase_hc_sio.wav	1	6	3	noise_calib_stim_LEFT.wav	1	20	blb_dichoticlistening_ka-da.mp3	ka	da	1	other
6.6.1	win	2023-07-07	08:52:56	09:05:20	740486	615dd1eb2702a672f7db49f1	2	1	practice_z	22	practice_z	17	stimuli_target_diamondsquares.svg	stimuli_distractor_trianglediamonds.svg	6	yes	44	1	1118	6	4	antiphase_hc_sio.wav	1	6	3	noise_calib_stim_LEFT.wav	1	20	blb_dichoticlistening_ka-da.mp3	ka	da	1	other
6.6.1	win	2023-07-07	08:52:56	09:05:20	740486	615dd1eb2702a672f7db49f1	2	1	practice_z	22	advance_on_keypress_ZEE	18	stimuli_target_diamondsquares.svg	stimuli_distractor_trianglediamonds.svg	6	yes	57	0	673	6	4	antiphase_hc_sio.wav	1	6	3	noise_calib_stim_LEFT.wav	1	20	blb_dichoticlistening_ka-da.mp3	ka	da	1	other
6.6.1	win	2023-07-07	08:52:56	09:05:23	743368	615dd1eb2702a672f7db49f1	2	1	practice_z	22	practice_z	19	stimuli_target_squarediamonds.svg	stimuli_distractor_diamondtriangles.svg	2	yes	44	1	568	6	4	antiphase_hc_sio.wav	1	6	3	noise_calib_stim_LEFT.wav	1	20	blb_dichoticlistening_ka-da.mp3	ka	da	1	other
6.6.1	win	2023-07-07	08:52:56	09:05:23	743368	615dd1eb2702a672f7db49f1	2	1	practice_z	22	advance_on_keypress_ZEE	20	stimuli_target_squarediamonds.svg	stimuli_distractor_diamondtriangles.svg	2	yes	57	0	2717	6	4	antiphase_hc_sio.wav	1	6	3	noise_calib_stim_LEFT.wav	1	20	blb_dichoticlistening_ka-da.mp3	ka	da	1	other
6.6.1	win	2023-07-07	08:52:56	09:05:30	749728	615dd1eb2702a672f7db49f1	2	1	practice_z	22	practice_z	21	stimuli_distractor_diamondtriangles.svg	stimuli_distractor_diamondtriangles.svg	13	no	0	1	2000	6	4	antiphase_hc_sio.wav	1	6	3	noise_calib_stim_LEFT.wav	1	20	blb_dichoticlistening_ka-da.mp3	ka	da	1	other
6.6.1	win	2023-07-07	08:52:56	09:05:30	749728	615dd1eb2702a672f7db49f1	2	1	practice_z	22	advance_on_keypress_ZEE	22	stimuli_distractor_diamondtriangles.svg	stimuli_distractor_diamondtriangles.svg	13	no	57	0	956	6	4	antiphase_hc_sio.wav	1	6	3	noise_calib_stim_LEFT.wav	1	20	blb_dichoticlistening_ka-da.mp3	ka	da	1	other
6.6.1	win	2023-07-07	08:52:56	09:05:33	752903	615dd1eb2702a672f7db49f1	2	1	practice_z	22	practice_z	23	stimuli_target_squarediamonds.svg	stimuli_distractor_trianglediamonds.svg	5	yes	44	1	578	6	4	antiphase_hc_sio.wav	1	6	3	noise_calib_stim_LEFT.wav	1	20	blb_dichoticlistening_ka-da.mp3	ka	da	1	other
6.6.1	win	2023-07-07	08:52:56	09:05:33	752903	615dd1eb2702a672f7db49f1	2	1	practice_z	22	advance_on_keypress_ZEE	24	stimuli_target_squarediamonds.svg	stimuli_distractor_trianglediamonds.svg	5	yes	57	0	651	6	4	antiphase_hc_sio.wav	1	6	3	noise_calib_stim_LEFT.wav	1	20	blb_dichoticlistening_ka-da.mp3	ka	da	1	other
6.6.1	win	2023-07-07	08:52:56	09:05:37	757206	615dd1eb2702a672f7db49f1	2	1	practice_z	22	practice_z	25	stimuli_distractor_diamondtriangles.svg	stimuli_target_rectangletriangles.svg	7	yes	0	0	2000	6	4	antiphase_hc_sio.wav	1	6	3	noise_calib_stim_LEFT.wav	1	20	blb_dichoticlistening_ka-da.mp3	ka	da	1	other
6.6.1	win	2023-07-07	08:52:56	09:05:37	757206	615dd1eb2702a672f7db49f1	2	1	practice_z	22	advance_on_keypress_ZEE	26	stimuli_distractor_diamondtriangles.svg	stimuli_target_rectangletriangles.svg	7	yes	57	0	2441	6	4	antiphase_hc_sio.wav	1	6	3	noise_calib_stim_LEFT.wav	1	20	blb_dichoticlistening_ka-da.mp3	ka	da	1	other
6.6.1	win	2023-07-07	08:52:56	09:05:42	761821	615dd1eb2702a672f7db49f1	2	1	practice_z	22	practice_z	27	stimuli_distractor_trianglediamonds.svg	stimuli_target_diamondrectangles.svg	12	yes	44	1	538	6	4	antiphase_hc_sio.wav	1	6	3	noise_calib_stim_LEFT.wav	1	20	blb_dichoticlistening_ka-da.mp3	ka	da	1	other
6.6.1	win	2023-07-07	08:52:56	09:05:42	761821	615dd1eb2702a672f7db49f1	2	1	practice_z	22	advance_on_keypress_ZEE	28	stimuli_distractor_trianglediamonds.svg	stimuli_target_diamondrectangles.svg	12	yes	57	0	882	6	4	antiphase_hc_sio.wav	1	6	3	noise_calib_stim_LEFT.wav	1	20	blb_dichoticlistening_ka-da.mp3	ka	da	1	other
6.6.1	win	2023-07-07	08:52:56	09:05:45	765364	615dd1eb2702a672f7db49f1	2	1	practice_z	22	practice_z	29	stimuli_distractor_diamondtriangles.svg	stimuli_target_trianglerectangles.svg	9	yes	44	1	1016	6	4	antiphase_hc_sio.wav	1	6	3	noise_calib_stim_LEFT.wav	1	20	blb_dichoticlistening_ka-da.mp3	ka	da	1	other
6.6.1	win	2023-07-07	08:52:56	09:05:45	765364	615dd1eb2702a672f7db49f1	2	1	practice_z	22	advance_on_keypress_ZEE	30	stimuli_distractor_diamondtriangles.svg	stimuli_target_trianglerectangles.svg	9	yes	57	0	556	6	4	antiphase_hc_sio.wav	1	6	3	noise_calib_stim_LEFT.wav	1	20	blb_dichoticlistening_ka-da.mp3	ka	da	1	other
6.6.1	win	2023-07-07	08:52:56	09:05:49	768567	615dd1eb2702a672f7db49f1	2	1	practice_z	22	practice_z	31	stimuli_distractor_trianglediamonds.svg	stimuli_distractor_trianglediamonds.svg	15	no	44	0	1006	6	4	antiphase_hc_sio.wav	1	6	3	noise_calib_stim_LEFT.wav	1	20	blb_dichoticlistening_ka-da.mp3	ka	da	1	other
6.6.1	win	2023-07-07	08:52:56	09:05:49	768567	615dd1eb2702a672f7db49f1	2	1	practice_z	22	advance_on_keypress_ZEE	32	stimuli_distractor_trianglediamonds.svg	stimuli_distractor_trianglediamonds.svg	15	no	57	0	508	6	4	antiphase_hc_sio.wav	1	6	3	noise_calib_stim_LEFT.wav	1	20	blb_dichoticlistening_ka-da.mp3	ka	da	1	other
6.6.1	win	2023-07-07	08:52:56	09:05:54	773915	615dd1eb2702a672f7db49f1	2	1	main_z	24	main_z	1	stimuli_distractor_diamondtriangles.svg	stimuli_distractor_trianglediamonds.svg	37	no	44	0	745	6	4	antiphase_hc_sio.wav	1	6	3	noise_calib_stim_LEFT.wav	1	20	blb_dichoticlistening_ka-da.mp3	ka	da	1	other
6.6.1	win	2023-07-07	08:52:56	09:05:54	773915	615dd1eb2702a672f7db49f1	2	1	main_z	24	advance_on_keypress_ZEE	2	stimuli_distractor_diamondtriangles.svg	stimuli_distractor_trianglediamonds.svg	37	no	57	0	823	6	4	antiphase_hc_sio.wav	1	6	3	noise_calib_stim_LEFT.wav	1	20	blb_dichoticlistening_ka-da.mp3	ka	da	1	other
6.6.1	win	2023-07-07	08:52:56	09:05:56	776236	615dd1eb2702a672f7db49f1	2	1	main_z	24	main_z	3	stimuli_distractor_diamondtriangles.svg	stimuli_target_squaretriangles.svg	15	yes	44	1	851	6	4	antiphase_hc_sio.wav	1	6	3	noise_calib_stim_LEFT.wav	1	20	blb_dichoticlistening_ka-da.mp3	ka	da	1	other
6.6.1	win	2023-07-07	08:52:56	09:05:56	776236	615dd1eb2702a672f7db49f1	2	1	main_z	24	advance_on_keypress_ZEE	4	stimuli_distractor_diamondtriangles.svg	stimuli_target_squaretriangles.svg	15	yes	57	0	639	6	4	antiphase_hc_sio.wav	1	6	3	noise_calib_stim_LEFT.wav	1	20	blb_dichoticlistening_ka-da.mp3	ka	da	1	other
6.6.1	win	2023-07-07	08:52:56	09:05:58	778102	615dd1eb2702a672f7db49f1	2	1	main_z	24	main_z	5	stimuli_distractor_trianglediamonds.svg	stimuli_target_trianglerectangles.svg	25	yes	44	1	587	6	4	antiphase_hc_sio.wav	1	6	3	noise_calib_stim_LEFT.wav	1	20	blb_dichoticlistening_ka-da.mp3	ka	da	1	other
6.6.1	win	2023-07-07	08:52:56	09:05:58	778102	615dd1eb2702a672f7db49f1	2	1	main_z	24	advance_on_keypress_ZEE	6	stimuli_distractor_trianglediamonds.svg	stimuli_target_trianglerectangles.svg	25	yes	57	0	511	6	4	antiphase_hc_sio.wav	1	6	3	noise_calib_stim_LEFT.wav	1	20	blb_dichoticlistening_ka-da.mp3	ka	da	1	other
6.6.1	win	2023-07-07	08:52:56	09:06:00	780140	615dd1eb2702a672f7db49f1	2	1	main_z	24	main_z	7	stimuli_target_rectanglediamonds.svg	stimuli_distractor_trianglediamonds.svg	2	yes	44	1	875	6	4	antiphase_hc_sio.wav	1	6	3	noise_calib_stim_LEFT.wav	1	20	blb_dichoticlistening_ka-da.mp3	ka	da	1	other
6.6.1	win	2023-07-07	08:52:56	09:06:00	780140	615dd1eb2702a672f7db49f1	2	1	main_z	24	advance_on_keypress_ZEE	8	stimuli_target_rectanglediamonds.svg	stimuli_distractor_trianglediamonds.svg	2	yes	57	0	483	6	4	antiphase_hc_sio.wav	1	6	3	noise_calib_stim_LEFT.wav	1	20	blb_dichoticlistening_ka-da.mp3	ka	da	1	other
6.6.1	win	2023-07-07	08:52:56	09:06:02	781795	615dd1eb2702a672f7db49f1	2	1	main_z	24	main_z	9	stimuli_distractor_diamondtriangles.svg	stimuli_target_trianglesquares.svg	30	yes	44	1	532	6	4	antiphase_hc_sio.wav	1	6	3	noise_calib_stim_LEFT.wav	1	20	blb_dichoticlistening_ka-da.mp3	ka	da	1	other
6.6.1	win	2023-07-07	08:52:56	09:06:02	781795	615dd1eb2702a672f7db49f1	2	1	main_z	24	advance_on_keypress_ZEE	10	stimuli_distractor_diamondtriangles.svg	stimuli_target_trianglesquares.svg	30	yes	57	0	383	6	4	antiphase_hc_sio.wav	1	6	3	noise_calib_stim_LEFT.wav	1	20	blb_dichoticlistening_ka-da.mp3	ka	da	1	other
6.6.1	win	2023-07-07	08:52:56	09:06:05	784828	615dd1eb2702a672f7db49f1	2	1	main_z	24	main_z	11	stimuli_distractor_diamondtriangles.svg	stimuli_distractor_diamondtriangles.svg	40	no	0	1	2000	6	4	antiphase_hc_sio.wav	1	6	3	noise_calib_stim_LEFT.wav	1	20	blb_dichoticlistening_ka-da.mp3	ka	da	1	other
6.6.1	win	2023-07-07	08:52:56	09:06:05	784828	615dd1eb2702a672f7db49f1	2	1	main_z	24	advance_on_keypress_ZEE	12	stimuli_distractor_diamondtriangles.svg	stimuli_distractor_diamondtriangles.svg	40	no	57	0	612	6	4	antiphase_hc_sio.wav	1	6	3	noise_calib_stim_LEFT.wav	1	20	blb_dichoticlistening_ka-da.mp3	ka	da	1	other
6.6.1	win	2023-07-07	08:52:56	09:06:08	788074	615dd1eb2702a672f7db49f1	2	1	main_z	24	main_z	13	stimuli_distractor_diamondtriangles.svg	stimuli_distractor_diamondtriangles.svg	39	no	0	1	2000	6	4	antiphase_hc_sio.wav	1	6	3	noise_calib_stim_LEFT.wav	1	20	blb_dichoticlistening_ka-da.mp3	ka	da	1	other
6.6.1	win	2023-07-07	08:52:56	09:06:08	788074	615dd1eb2702a672f7db49f1	2	1	main_z	24	advance_on_keypress_ZEE	14	stimuli_distractor_diamondtriangles.svg	stimuli_distractor_diamondtriangles.svg	39	no	57	0	558	6	4	antiphase_hc_sio.wav	1	6	3	noise_calib_stim_LEFT.wav	1	20	blb_dichoticlistening_ka-da.mp3	ka	da	1	other
6.6.1	win	2023-07-07	08:52:56	09:06:10	789994	615dd1eb2702a672f7db49f1	2	1	main_z	24	main_z	15	stimuli_target_diamondsquares.svg	stimuli_distractor_diamondtriangles.svg	24	yes	44	1	723	6	4	antiphase_hc_sio.wav	1	6	3	noise_calib_stim_LEFT.wav	1	20	blb_dichoticlistening_ka-da.mp3	ka	da	1	other
6.6.1	win	2023-07-07	08:52:56	09:06:10	789994	615dd1eb2702a672f7db49f1	2	1	main_z	24	advance_on_keypress_ZEE	16	stimuli_target_diamondsquares.svg	stimuli_distractor_diamondtriangles.svg	24	yes	57	0	481	6	4	antiphase_hc_sio.wav	1	6	3	noise_calib_stim_LEFT.wav	1	20	blb_dichoticlistening_ka-da.mp3	ka	da	1	other
6.6.1	win	2023-07-07	08:52:56	09:06:12	791911	615dd1eb2702a672f7db49f1	2	1	main_z	24	main_z	17	stimuli_distractor_trianglediamonds.svg	stimuli_target_squaretriangles.svg	11	yes	44	1	790	6	4	antiphase_hc_sio.wav	1	6	3	noise_calib_stim_LEFT.wav	1	20	blb_dichoticlistening_ka-da.mp3	ka	da	1	other
6.6.1	win	2023-07-07	08:52:56	09:06:12	791911	615dd1eb2702a672f7db49f1	2	1	main_z	24	advance_on_keypress_ZEE	18	stimuli_distractor_trianglediamonds.svg	stimuli_target_squaretriangles.svg	11	yes	57	0	469	6	4	antiphase_hc_sio.wav	1	6	3	noise_calib_stim_LEFT.wav	1	20	blb_dichoticlistening_ka-da.mp3	ka	da	1	other
6.6.1	win	2023-07-07	08:52:56	09:06:15	795019	615dd1eb2702a672f7db49f1	2	1	main_z	24	main_z	19	stimuli_distractor_diamondtriangles.svg	stimuli_distractor_trianglediamonds.svg	38	no	0	1	2000	6	4	antiphase_hc_sio.wav	1	6	3	noise_calib_stim_LEFT.wav	1	20	blb_dichoticlistening_ka-da.mp3	ka	da	1	other
6.6.1	win	2023-07-07	08:52:56	09:06:15	795019	615dd1eb2702a672f7db49f1	2	1	main_z	24	advance_on_keypress_ZEE	20	stimuli_distractor_diamondtriangles.svg	stimuli_distractor_trianglediamonds.svg	38	no	57	0	548	6	4	antiphase_hc_sio.wav	1	6	3	noise_calib_stim_LEFT.wav	1	20	blb_dichoticlistening_ka-da.mp3	ka	da	1	other
6.6.1	win	2023-07-07	08:52:56	09:06:17	796704	615dd1eb2702a672f7db49f1	2	1	main_z	24	main_z	21	stimuli_target_rectanglediamonds.svg	stimuli_distractor_diamondtriangles.svg	6	yes	44	1	488	6	4	antiphase_hc_sio.wav	1	6	3	noise_calib_stim_LEFT.wav	1	20	blb_dichoticlistening_ka-da.mp3	ka	da	1	other
6.6.1	win	2023-07-07	08:52:56	09:06:17	796704	615dd1eb2702a672f7db49f1	2	1	main_z	24	advance_on_keypress_ZEE	22	stimuli_target_rectanglediamonds.svg	stimuli_distractor_diamondtriangles.svg	6	yes	57	0	511	6	4	antiphase_hc_sio.wav	1	6	3	noise_calib_stim_LEFT.wav	1	20	blb_dichoticlistening_ka-da.mp3	ka	da	1	other
6.6.1	win	2023-07-07	08:52:56	09:06:18	798276	615dd1eb2702a672f7db49f1	2	1	main_z	24	main_z	23	stimuli_target_rectangletriangles.svg	stimuli_distractor_diamondtriangles.svg	5	yes	44	1	427	6	4	antiphase_hc_sio.wav	1	6	3	noise_calib_stim_LEFT.wav	1	20	blb_dichoticlistening_ka-da.mp3	ka	da	1	other
6.6.1	win	2023-07-07	08:52:56	09:06:18	798276	615dd1eb2702a672f7db49f1	2	1	main_z	24	advance_on_keypress_ZEE	24	stimuli_target_rectangletriangles.svg	stimuli_distractor_diamondtriangles.svg	5	yes	57	0	379	6	4	antiphase_hc_sio.wav	1	6	3	noise_calib_stim_LEFT.wav	1	20	blb_dichoticlistening_ka-da.mp3	ka	da	1	other
6.6.1	win	2023-07-07	08:52:56	09:06:20	799854	615dd1eb2702a672f7db49f1	2	1	main_z	24	main_z	25	stimuli_distractor_trianglediamonds.svg	stimuli_target_diamondrectangles.svg	27	yes	44	1	541	6	4	antiphase_hc_sio.wav	1	6	3	noise_calib_stim_LEFT.wav	1	20	blb_dichoticlistening_ka-da.mp3	ka	da	1	other
6.6.1	win	2023-07-07	08:52:56	09:06:20	799854	615dd1eb2702a672f7db49f1	2	1	main_z	24	advance_on_keypress_ZEE	26	stimuli_distractor_trianglediamonds.svg	stimuli_target_diamondrectangles.svg	27	yes	57	0	391	6	4	antiphase_hc_sio.wav	1	6	3	noise_calib_stim_LEFT.wav	1	20	blb_dichoticlistening_ka-da.mp3	ka	da	1	other
6.6.1	win	2023-07-07	08:52:56	09:06:21	801346	615dd1eb2702a672f7db49f1	2	1	main_z	24	main_z	27	stimuli_target_rectangletriangles.svg	stimuli_distractor_trianglediamonds.svg	1	yes	44	1	467	6	4	antiphase_hc_sio.wav	1	6	3	noise_calib_stim_LEFT.wav	1	20	blb_dichoticlistening_ka-da.mp3	ka	da	1	other
6.6.1	win	2023-07-07	08:52:56	09:06:21	801346	615dd1eb2702a672f7db49f1	2	1	main_z	24	advance_on_keypress_ZEE	28	stimuli_target_rectangletriangles.svg	stimuli_distractor_trianglediamonds.svg	1	yes	57	0	562	6	4	antiphase_hc_sio.wav	1	6	3	noise_calib_stim_LEFT.wav	1	20	blb_dichoticlistening_ka-da.mp3	ka	da	1	other
6.6.1	win	2023-07-07	08:52:56	09:06:23	803052	615dd1eb2702a672f7db49f1	2	1	main_z	24	main_z	29	stimuli_distractor_trianglediamonds.svg	stimuli_target_rectangletriangles.svg	9	yes	44	1	491	6	4	antiphase_hc_sio.wav	1	6	3	noise_calib_stim_LEFT.wav	1	20	blb_dichoticlistening_ka-da.mp3	ka	da	1	other
6.6.1	win	2023-07-07	08:52:56	09:06:23	803052	615dd1eb2702a672f7db49f1	2	1	main_z	24	advance_on_keypress_ZEE	30	stimuli_distractor_trianglediamonds.svg	stimuli_target_rectangletriangles.svg	9	yes	57	0	374	6	4	antiphase_hc_sio.wav	1	6	3	noise_calib_stim_LEFT.wav	1	20	blb_dichoticlistening_ka-da.mp3	ka	da	1	other
6.6.1	win	2023-07-07	08:52:56	09:06:25	804587	615dd1eb2702a672f7db49f1	2	1	main_z	24	main_z	31	stimuli_distractor_diamondtriangles.svg	stimuli_target_squarediamonds.svg	16	yes	44	1	529	6	4	antiphase_hc_sio.wav	1	6	3	noise_calib_stim_LEFT.wav	1	20	blb_dichoticlistening_ka-da.mp3	ka	da	1	other
6.6.1	win	2023-07-07	08:52:56	09:06:25	804587	615dd1eb2702a672f7db49f1	2	1	main_z	24	advance_on_keypress_ZEE	32	stimuli_distractor_diamondtriangles.svg	stimuli_target_squarediamonds.svg	16	yes	57	0	277	6	4	antiphase_hc_sio.wav	1	6	3	noise_calib_stim_LEFT.wav	1	20	blb_dichoticlistening_ka-da.mp3	ka	da	1	other
6.6.1	win	2023-07-07	08:52:56	09:06:26	806069	615dd1eb2702a672f7db49f1	2	1	main_z	24	main_z	33	stimuli_target_squarediamonds.svg	stimuli_distractor_diamondtriangles.svg	8	yes	44	1	561	6	4	antiphase_hc_sio.wav	1	6	3	noise_calib_stim_LEFT.wav	1	20	blb_dichoticlistening_ka-da.mp3	ka	da	1	other
6.6.1	win	2023-07-07	08:52:56	09:06:26	806069	615dd1eb2702a672f7db49f1	2	1	main_z	24	advance_on_keypress_ZEE	34	stimuli_target_squarediamonds.svg	stimuli_distractor_diamondtriangles.svg	8	yes	57	0	304	6	4	antiphase_hc_sio.wav	1	6	3	noise_calib_stim_LEFT.wav	1	20	blb_dichoticlistening_ka-da.mp3	ka	da	1	other
6.6.1	win	2023-07-07	08:52:56	09:06:27	807485	615dd1eb2702a672f7db49f1	2	1	main_z	24	main_z	35	stimuli_distractor_trianglediamonds.svg	stimuli_target_squarediamonds.svg	12	yes	44	1	462	6	4	antiphase_hc_sio.wav	1	6	3	noise_calib_stim_LEFT.wav	1	20	blb_dichoticlistening_ka-da.mp3	ka	da	1	other
6.6.1	win	2023-07-07	08:52:56	09:06:27	807485	615dd1eb2702a672f7db49f1	2	1	main_z	24	advance_on_keypress_ZEE	36	stimuli_distractor_trianglediamonds.svg	stimuli_target_squarediamonds.svg	12	yes	57	0	356	6	4	antiphase_hc_sio.wav	1	6	3	noise_calib_stim_LEFT.wav	1	20	blb_dichoticlistening_ka-da.mp3	ka	da	1	other
6.6.1	win	2023-07-07	08:52:56	09:06:29	809192	615dd1eb2702a672f7db49f1	2	1	main_z	24	main_z	37	stimuli_distractor_diamondtriangles.svg	stimuli_target_trianglerectangles.svg	29	yes	44	1	703	6	4	antiphase_hc_sio.wav	1	6	3	noise_calib_stim_LEFT.wav	1	20	blb_dichoticlistening_ka-da.mp3	ka	da	1	other
6.6.1	win	2023-07-07	08:52:56	09:06:29	809192	615dd1eb2702a672f7db49f1	2	1	main_z	24	advance_on_keypress_ZEE	38	stimuli_distractor_diamondtriangles.svg	stimuli_target_trianglerectangles.svg	29	yes	57	0	535	6	4	antiphase_hc_sio.wav	1	6	3	noise_calib_stim_LEFT.wav	1	20	blb_dichoticlistening_ka-da.mp3	ka	da	1	other
6.6.1	win	2023-07-07	08:52:56	09:06:32	812370	615dd1eb2702a672f7db49f1	2	1	main_z	24	main_z	39	stimuli_distractor_trianglediamonds.svg	stimuli_distractor_diamondtriangles.svg	35	no	0	1	2000	6	4	antiphase_hc_sio.wav	1	6	3	noise_calib_stim_LEFT.wav	1	20	blb_dichoticlistening_ka-da.mp3	ka	da	1	other
6.6.1	win	2023-07-07	08:52:56	09:06:32	812370	615dd1eb2702a672f7db49f1	2	1	main_z	24	advance_on_keypress_ZEE	40	stimuli_distractor_trianglediamonds.svg	stimuli_distractor_diamondtriangles.svg	35	no	57	0	568	6	4	antiphase_hc_sio.wav	1	6	3	noise_calib_stim_LEFT.wav	1	20	blb_dichoticlistening_ka-da.mp3	ka	da	1	other
6.6.1	win	2023-07-07	08:52:56	09:06:36	815584	615dd1eb2702a672f7db49f1	2	1	main_z	24	main_z	41	stimuli_distractor_trianglediamonds.svg	stimuli_distractor_trianglediamonds.svg	34	no	0	1	2000	6	4	antiphase_hc_sio.wav	1	6	3	noise_calib_stim_LEFT.wav	1	20	blb_dichoticlistening_ka-da.mp3	ka	da	1	other
6.6.1	win	2023-07-07	08:52:56	09:06:36	815584	615dd1eb2702a672f7db49f1	2	1	main_z	24	advance_on_keypress_ZEE	42	stimuli_distractor_trianglediamonds.svg	stimuli_distractor_trianglediamonds.svg	34	no	57	0	640	6	4	antiphase_hc_sio.wav	1	6	3	noise_calib_stim_LEFT.wav	1	20	blb_dichoticlistening_ka-da.mp3	ka	da	1	other
6.6.1	win	2023-07-07	08:52:56	09:06:38	817511	615dd1eb2702a672f7db49f1	2	1	main_z	24	main_z	43	stimuli_target_diamondrectangles.svg	stimuli_distractor_trianglediamonds.svg	19	yes	44	1	646	6	4	antiphase_hc_sio.wav	1	6	3	noise_calib_stim_LEFT.wav	1	20	blb_dichoticlistening_ka-da.mp3	ka	da	1	other
6.6.1	win	2023-07-07	08:52:56	09:06:38	817511	615dd1eb2702a672f7db49f1	2	1	main_z	24	advance_on_keypress_ZEE	44	stimuli_target_diamondrectangles.svg	stimuli_distractor_trianglediamonds.svg	19	yes	57	0	543	6	4	antiphase_hc_sio.wav	1	6	3	noise_calib_stim_LEFT.wav	1	20	blb_dichoticlistening_ka-da.mp3	ka	da	1	other
6.6.1	win	2023-07-07	08:52:56	09:06:40	819617	615dd1eb2702a672f7db49f1	2	1	main_z	24	main_z	45	stimuli_target_trianglerectangles.svg	stimuli_distractor_trianglediamonds.svg	17	yes	44	1	921	6	4	antiphase_hc_sio.wav	1	6	3	noise_calib_stim_LEFT.wav	1	20	blb_dichoticlistening_ka-da.mp3	ka	da	1	other
6.6.1	win	2023-07-07	08:52:56	09:06:40	819617	615dd1eb2702a672f7db49f1	2	1	main_z	24	advance_on_keypress_ZEE	46	stimuli_target_trianglerectangles.svg	stimuli_distractor_trianglediamonds.svg	17	yes	57	0	437	6	4	antiphase_hc_sio.wav	1	6	3	noise_calib_stim_LEFT.wav	1	20	blb_dichoticlistening_ka-da.mp3	ka	da	1	other
6.6.1	win	2023-07-07	08:52:56	09:06:41	821211	615dd1eb2702a672f7db49f1	2	1	main_z	24	main_z	47	stimuli_target_diamondsquares.svg	stimuli_distractor_trianglediamonds.svg	20	yes	44	1	516	6	4	antiphase_hc_sio.wav	1	6	3	noise_calib_stim_LEFT.wav	1	20	blb_dichoticlistening_ka-da.mp3	ka	da	1	other
6.6.1	win	2023-07-07	08:52:56	09:06:41	821211	615dd1eb2702a672f7db49f1	2	1	main_z	24	advance_on_keypress_ZEE	48	stimuli_target_diamondsquares.svg	stimuli_distractor_trianglediamonds.svg	20	yes	57	0	372	6	4	antiphase_hc_sio.wav	1	6	3	noise_calib_stim_LEFT.wav	1	20	blb_dichoticlistening_ka-da.mp3	ka	da	1	other
6.6.1	win	2023-07-07	08:52:56	09:06:43	822778	615dd1eb2702a672f7db49f1	2	1	main_z	24	main_z	49	stimuli_distractor_trianglediamonds.svg	stimuli_target_diamondsquares.svg	28	yes	44	1	551	6	4	antiphase_hc_sio.wav	1	6	3	noise_calib_stim_LEFT.wav	1	20	blb_dichoticlistening_ka-da.mp3	ka	da	1	other
6.6.1	win	2023-07-07	08:52:56	09:06:43	822778	615dd1eb2702a672f7db49f1	2	1	main_z	24	advance_on_keypress_ZEE	50	stimuli_distractor_trianglediamonds.svg	stimuli_target_diamondsquares.svg	28	yes	57	0	364	6	4	antiphase_hc_sio.wav	1	6	3	noise_calib_stim_LEFT.wav	1	20	blb_dichoticlistening_ka-da.mp3	ka	da	1	other
6.6.1	win	2023-07-07	08:52:56	09:06:44	824276	615dd1eb2702a672f7db49f1	2	1	main_z	24	main_z	51	stimuli_distractor_diamondtriangles.svg	stimuli_target_diamondrectangles.svg	31	yes	44	1	485	6	4	antiphase_hc_sio.wav	1	6	3	noise_calib_stim_LEFT.wav	1	20	blb_dichoticlistening_ka-da.mp3	ka	da	1	other
6.6.1	win	2023-07-07	08:52:56	09:06:44	824276	615dd1eb2702a672f7db49f1	2	1	main_z	24	advance_on_keypress_ZEE	52	stimuli_distractor_diamondtriangles.svg	stimuli_target_diamondrectangles.svg	31	yes	57	0	361	6	4	antiphase_hc_sio.wav	1	6	3	noise_calib_stim_LEFT.wav	1	20	blb_dichoticlistening_ka-da.mp3	ka	da	1	other
6.6.1	win	2023-07-07	08:52:56	09:06:46	825690	615dd1eb2702a672f7db49f1	2	1	main_z	24	main_z	53	stimuli_distractor_trianglediamonds.svg	stimuli_target_rectanglediamonds.svg	10	yes	44	1	417	6	4	antiphase_hc_sio.wav	1	6	3	noise_calib_stim_LEFT.wav	1	20	blb_dichoticlistening_ka-da.mp3	ka	da	1	other
6.6.1	win	2023-07-07	08:52:56	09:06:46	825690	615dd1eb2702a672f7db49f1	2	1	main_z	24	advance_on_keypress_ZEE	54	stimuli_distractor_trianglediamonds.svg	stimuli_target_rectanglediamonds.svg	10	yes	57	0	325	6	4	antiphase_hc_sio.wav	1	6	3	noise_calib_stim_LEFT.wav	1	20	blb_dichoticlistening_ka-da.mp3	ka	da	1	other
6.6.1	win	2023-07-07	08:52:56	09:06:47	827244	615dd1eb2702a672f7db49f1	2	1	main_z	24	main_z	55	stimuli_distractor_diamondtriangles.svg	stimuli_target_rectangletriangles.svg	13	yes	44	1	588	6	4	antiphase_hc_sio.wav	1	6	3	noise_calib_stim_LEFT.wav	1	20	blb_dichoticlistening_ka-da.mp3	ka	da	1	other
6.6.1	win	2023-07-07	08:52:56	09:06:47	827244	615dd1eb2702a672f7db49f1	2	1	main_z	24	advance_on_keypress_ZEE	56	stimuli_distractor_diamondtriangles.svg	stimuli_target_rectangletriangles.svg	13	yes	57	0	304	6	4	antiphase_hc_sio.wav	1	6	3	noise_calib_stim_LEFT.wav	1	20	blb_dichoticlistening_ka-da.mp3	ka	da	1	other
6.6.1	win	2023-07-07	08:52:56	09:06:50	829554	615dd1eb2702a672f7db49f1	2	1	main_z	24	main_z	57	stimuli_distractor_trianglediamonds.svg	stimuli_distractor_trianglediamonds.svg	33	no	44	0	1367	6	4	antiphase_hc_sio.wav	1	6	3	noise_calib_stim_LEFT.wav	1	20	blb_dichoticlistening_ka-da.mp3	ka	da	1	other
6.6.1	win	2023-07-07	08:52:56	09:06:50	829554	615dd1eb2702a672f7db49f1	2	1	main_z	24	advance_on_keypress_ZEE	58	stimuli_distractor_trianglediamonds.svg	stimuli_distractor_trianglediamonds.svg	33	no	57	0	507	6	4	antiphase_hc_sio.wav	1	6	3	noise_calib_stim_LEFT.wav	1	20	blb_dichoticlistening_ka-da.mp3	ka	da	1	other
6.6.1	win	2023-07-07	08:52:56	09:06:52	831607	615dd1eb2702a672f7db49f1	2	1	main_z	24	main_z	59	stimuli_target_squaretriangles.svg	stimuli_distractor_diamondtriangles.svg	7	yes	44	1	905	6	4	antiphase_hc_sio.wav	1	6	3	noise_calib_stim_LEFT.wav	1	20	blb_dichoticlistening_ka-da.mp3	ka	da	1	other
6.6.1	win	2023-07-07	08:52:56	09:06:52	831607	615dd1eb2702a672f7db49f1	2	1	main_z	24	advance_on_keypress_ZEE	60	stimuli_target_squaretriangles.svg	stimuli_distractor_diamondtriangles.svg	7	yes	57	0	332	6	4	antiphase_hc_sio.wav	1	6	3	noise_calib_stim_LEFT.wav	1	20	blb_dichoticlistening_ka-da.mp3	ka	da	1	other
6.6.1	win	2023-07-07	08:52:56	09:06:53	833074	615dd1eb2702a672f7db49f1	2	1	main_z	24	main_z	61	stimuli_target_squarediamonds.svg	stimuli_distractor_trianglediamonds.svg	4	yes	44	1	490	6	4	antiphase_hc_sio.wav	1	6	3	noise_calib_stim_LEFT.wav	1	20	blb_dichoticlistening_ka-da.mp3	ka	da	1	other
6.6.1	win	2023-07-07	08:52:56	09:06:53	833074	615dd1eb2702a672f7db49f1	2	1	main_z	24	advance_on_keypress_ZEE	62	stimuli_target_squarediamonds.svg	stimuli_distractor_trianglediamonds.svg	4	yes	57	0	340	6	4	antiphase_hc_sio.wav	1	6	3	noise_calib_stim_LEFT.wav	1	20	blb_dichoticlistening_ka-da.mp3	ka	da	1	other
6.6.1	win	2023-07-07	08:52:56	09:06:55	834940	615dd1eb2702a672f7db49f1	2	1	main_z	24	main_z	63	stimuli_target_trianglerectangles.svg	stimuli_distractor_diamondtriangles.svg	21	yes	44	1	891	6	4	antiphase_hc_sio.wav	1	6	3	noise_calib_stim_LEFT.wav	1	20	blb_dichoticlistening_ka-da.mp3	ka	da	1	other
6.6.1	win	2023-07-07	08:52:56	09:06:55	834940	615dd1eb2702a672f7db49f1	2	1	main_z	24	advance_on_keypress_ZEE	64	stimuli_target_trianglerectangles.svg	stimuli_distractor_diamondtriangles.svg	21	yes	57	0	359	6	4	antiphase_hc_sio.wav	1	6	3	noise_calib_stim_LEFT.wav	1	20	blb_dichoticlistening_ka-da.mp3	ka	da	1	other
6.6.1	win	2023-07-07	08:52:56	09:06:56	836493	615dd1eb2702a672f7db49f1	2	1	main_z	24	main_z	65	stimuli_target_trianglesquares.svg	stimuli_distractor_trianglediamonds.svg	18	yes	44	1	562	6	4	antiphase_hc_sio.wav	1	6	3	noise_calib_stim_LEFT.wav	1	20	blb_dichoticlistening_ka-da.mp3	ka	da	1	other
6.6.1	win	2023-07-07	08:52:56	09:06:56	836493	615dd1eb2702a672f7db49f1	2	1	main_z	24	advance_on_keypress_ZEE	66	stimuli_target_trianglesquares.svg	stimuli_distractor_trianglediamonds.svg	18	yes	57	0	314	6	4	antiphase_hc_sio.wav	1	6	3	noise_calib_stim_LEFT.wav	1	20	blb_dichoticlistening_ka-da.mp3	ka	da	1	other
6.6.1	win	2023-07-07	08:52:56	09:06:58	838089	615dd1eb2702a672f7db49f1	2	1	main_z	24	main_z	67	stimuli_distractor_diamondtriangles.svg	stimuli_target_rectanglediamonds.svg	14	yes	44	1	626	6	4	antiphase_hc_sio.wav	1	6	3	noise_calib_stim_LEFT.wav	1	20	blb_dichoticlistening_ka-da.mp3	ka	da	1	other
6.6.1	win	2023-07-07	08:52:56	09:06:58	838089	615dd1eb2702a672f7db49f1	2	1	main_z	24	advance_on_keypress_ZEE	68	stimuli_distractor_diamondtriangles.svg	stimuli_target_rectanglediamonds.svg	14	yes	57	0	360	6	4	antiphase_hc_sio.wav	1	6	3	noise_calib_stim_LEFT.wav	1	20	blb_dichoticlistening_ka-da.mp3	ka	da	1	other
6.6.1	win	2023-07-07	08:52:56	09:07:00	839568	615dd1eb2702a672f7db49f1	2	1	main_z	24	main_z	69	stimuli_distractor_trianglediamonds.svg	stimuli_target_trianglesquares.svg	26	yes	44	1	489	6	4	antiphase_hc_sio.wav	1	6	3	noise_calib_stim_LEFT.wav	1	20	blb_dichoticlistening_ka-da.mp3	ka	da	1	other
6.6.1	win	2023-07-07	08:52:56	09:07:00	839568	615dd1eb2702a672f7db49f1	2	1	main_z	24	advance_on_keypress_ZEE	70	stimuli_distractor_trianglediamonds.svg	stimuli_target_trianglesquares.svg	26	yes	57	0	271	6	4	antiphase_hc_sio.wav	1	6	3	noise_calib_stim_LEFT.wav	1	20	blb_dichoticlistening_ka-da.mp3	ka	da	1	other
6.6.1	win	2023-07-07	08:52:56	09:07:02	842477	615dd1eb2702a672f7db49f1	2	1	main_z	24	main_z	71	stimuli_distractor_trianglediamonds.svg	stimuli_distractor_diamondtriangles.svg	36	no	0	1	2000	6	4	antiphase_hc_sio.wav	1	6	3	noise_calib_stim_LEFT.wav	1	20	blb_dichoticlistening_ka-da.mp3	ka	da	1	other
6.6.1	win	2023-07-07	08:52:56	09:07:02	842477	615dd1eb2702a672f7db49f1	2	1	main_z	24	advance_on_keypress_ZEE	72	stimuli_distractor_trianglediamonds.svg	stimuli_distractor_diamondtriangles.svg	36	no	57	0	644	6	4	antiphase_hc_sio.wav	1	6	3	noise_calib_stim_LEFT.wav	1	20	blb_dichoticlistening_ka-da.mp3	ka	da	1	other
6.6.1	win	2023-07-07	08:52:56	09:07:04	844370	615dd1eb2702a672f7db49f1	2	1	main_z	24	main_z	73	stimuli_distractor_diamondtriangles.svg	stimuli_target_diamondsquares.svg	32	yes	44	1	595	6	4	antiphase_hc_sio.wav	1	6	3	noise_calib_stim_LEFT.wav	1	20	blb_dichoticlistening_ka-da.mp3	ka	da	1	other
6.6.1	win	2023-07-07	08:52:56	09:07:04	844370	615dd1eb2702a672f7db49f1	2	1	main_z	24	advance_on_keypress_ZEE	74	stimuli_distractor_diamondtriangles.svg	stimuli_target_diamondsquares.svg	32	yes	57	0	472	6	4	antiphase_hc_sio.wav	1	6	3	noise_calib_stim_LEFT.wav	1	20	blb_dichoticlistening_ka-da.mp3	ka	da	1	other
6.6.1	win	2023-07-07	08:52:56	09:07:06	846003	615dd1eb2702a672f7db49f1	2	1	main_z	24	main_z	75	stimuli_target_squaretriangles.svg	stimuli_distractor_trianglediamonds.svg	3	yes	44	1	506	6	4	antiphase_hc_sio.wav	1	6	3	noise_calib_stim_LEFT.wav	1	20	blb_dichoticlistening_ka-da.mp3	ka	da	1	other
6.6.1	win	2023-07-07	08:52:56	09:07:06	846003	615dd1eb2702a672f7db49f1	2	1	main_z	24	advance_on_keypress_ZEE	76	stimuli_target_squaretriangles.svg	stimuli_distractor_trianglediamonds.svg	3	yes	57	0	324	6	4	antiphase_hc_sio.wav	1	6	3	noise_calib_stim_LEFT.wav	1	20	blb_dichoticlistening_ka-da.mp3	ka	da	1	other
6.6.1	win	2023-07-07	08:52:56	09:07:08	847670	615dd1eb2702a672f7db49f1	2	1	main_z	24	main_z	77	stimuli_target_diamondrectangles.svg	stimuli_distractor_diamondtriangles.svg	23	yes	44	1	699	6	4	antiphase_hc_sio.wav	1	6	3	noise_calib_stim_LEFT.wav	1	20	blb_dichoticlistening_ka-da.mp3	ka	da	1	other
6.6.1	win	2023-07-07	08:52:56	09:07:08	847670	615dd1eb2702a672f7db49f1	2	1	main_z	24	advance_on_keypress_ZEE	78	stimuli_target_diamondrectangles.svg	stimuli_distractor_diamondtriangles.svg	23	yes	57	0	357	6	4	antiphase_hc_sio.wav	1	6	3	noise_calib_stim_LEFT.wav	1	20	blb_dichoticlistening_ka-da.mp3	ka	da	1	other
6.6.1	win	2023-07-07	08:52:56	09:07:09	849217	615dd1eb2702a672f7db49f1	2	1	main_z	24	main_z	79	stimuli_target_trianglesquares.svg	stimuli_distractor_diamondtriangles.svg	22	yes	44	1	546	6	4	antiphase_hc_sio.wav	1	6	3	noise_calib_stim_LEFT.wav	1	20	blb_dichoticlistening_ka-da.mp3	ka	da	1	other
6.6.1	win	2023-07-07	08:52:56	09:07:09	849217	615dd1eb2702a672f7db49f1	2	1	main_z	24	advance_on_keypress_ZEE	80	stimuli_target_trianglesquares.svg	stimuli_distractor_diamondtriangles.svg	22	yes	57	0	411	6	4	antiphase_hc_sio.wav	1	6	3	noise_calib_stim_LEFT.wav	1	20	blb_dichoticlistening_ka-da.mp3	ka	da	1	other
6.6.1	win	2023-07-07	08:52:56	09:07:12	852286	615dd1eb2702a672f7db49f1	2	1	main_z	24	main_z	81	stimuli_distractor_trianglediamonds.svg	stimuli_distractor_trianglediamonds.svg	34	no	0	1	2000	6	4	antiphase_hc_sio.wav	1	6	3	noise_calib_stim_LEFT.wav	1	20	blb_dichoticlistening_ka-da.mp3	ka	da	1	other
6.6.1	win	2023-07-07	08:52:56	09:07:12	852286	615dd1eb2702a672f7db49f1	2	1	main_z	24	advance_on_keypress_ZEE	82	stimuli_distractor_trianglediamonds.svg	stimuli_distractor_trianglediamonds.svg	34	no	57	0	590	6	4	antiphase_hc_sio.wav	1	6	3	noise_calib_stim_LEFT.wav	1	20	blb_dichoticlistening_ka-da.mp3	ka	da	1	other
6.6.1	win	2023-07-07	08:52:56	09:07:16	855516	615dd1eb2702a672f7db49f1	2	1	main_z	24	main_z	83	stimuli_distractor_trianglediamonds.svg	stimuli_distractor_trianglediamonds.svg	33	no	0	1	2000	6	4	antiphase_hc_sio.wav	1	6	3	noise_calib_stim_LEFT.wav	1	20	blb_dichoticlistening_ka-da.mp3	ka	da	1	other
6.6.1	win	2023-07-07	08:52:56	09:07:16	855516	615dd1eb2702a672f7db49f1	2	1	main_z	24	advance_on_keypress_ZEE	84	stimuli_distractor_trianglediamonds.svg	stimuli_distractor_trianglediamonds.svg	33	no	57	0	556	6	4	antiphase_hc_sio.wav	1	6	3	noise_calib_stim_LEFT.wav	1	20	blb_dichoticlistening_ka-da.mp3	ka	da	1	other
6.6.1	win	2023-07-07	08:52:56	09:07:17	857168	615dd1eb2702a672f7db49f1	2	1	main_z	24	main_z	85	stimuli_distractor_trianglediamonds.svg	stimuli_target_diamondsquares.svg	28	yes	44	1	456	6	4	antiphase_hc_sio.wav	1	6	3	noise_calib_stim_LEFT.wav	1	20	blb_dichoticlistening_ka-da.mp3	ka	da	1	other
6.6.1	win	2023-07-07	08:52:56	09:07:17	857168	615dd1eb2702a672f7db49f1	2	1	main_z	24	advance_on_keypress_ZEE	86	stimuli_distractor_trianglediamonds.svg	stimuli_target_diamondsquares.svg	28	yes	57	0	270	6	4	antiphase_hc_sio.wav	1	6	3	noise_calib_stim_LEFT.wav	1	20	blb_dichoticlistening_ka-da.mp3	ka	da	1	other
6.6.1	win	2023-07-07	08:52:56	09:07:19	859041	615dd1eb2702a672f7db49f1	2	1	main_z	24	main_z	87	stimuli_distractor_trianglediamonds.svg	stimuli_distractor_diamondtriangles.svg	35	no	44	0	963	6	4	antiphase_hc_sio.wav	1	6	3	noise_calib_stim_LEFT.wav	1	20	blb_dichoticlistening_ka-da.mp3	ka	da	1	other
6.6.1	win	2023-07-07	08:52:56	09:07:19	859041	615dd1eb2702a672f7db49f1	2	1	main_z	24	advance_on_keypress_ZEE	88	stimuli_distractor_trianglediamonds.svg	stimuli_distractor_diamondtriangles.svg	35	no	57	0	240	6	4	antiphase_hc_sio.wav	1	6	3	noise_calib_stim_LEFT.wav	1	20	blb_dichoticlistening_ka-da.mp3	ka	da	1	other
6.6.1	win	2023-07-07	08:52:56	09:07:21	860562	615dd1eb2702a672f7db49f1	2	1	main_z	24	main_z	89	stimuli_target_rectangletriangles.svg	stimuli_distractor_diamondtriangles.svg	5	yes	44	1	634	6	4	antiphase_hc_sio.wav	1	6	3	noise_calib_stim_LEFT.wav	1	20	blb_dichoticlistening_ka-da.mp3	ka	da	1	other
6.6.1	win	2023-07-07	08:52:56	09:07:21	860562	615dd1eb2702a672f7db49f1	2	1	main_z	24	advance_on_keypress_ZEE	90	stimuli_target_rectangletriangles.svg	stimuli_distractor_diamondtriangles.svg	5	yes	57	0	453	6	4	antiphase_hc_sio.wav	1	6	3	noise_calib_stim_LEFT.wav	1	20	blb_dichoticlistening_ka-da.mp3	ka	da	1	other
6.6.1	win	2023-07-07	08:52:56	09:07:24	863659	615dd1eb2702a672f7db49f1	2	1	main_z	24	main_z	91	stimuli_distractor_trianglediamonds.svg	stimuli_distractor_diamondtriangles.svg	36	no	0	1	2000	6	4	antiphase_hc_sio.wav	1	6	3	noise_calib_stim_LEFT.wav	1	20	blb_dichoticlistening_ka-da.mp3	ka	da	1	other
6.6.1	win	2023-07-07	08:52:56	09:07:24	863659	615dd1eb2702a672f7db49f1	2	1	main_z	24	advance_on_keypress_ZEE	92	stimuli_distractor_trianglediamonds.svg	stimuli_distractor_diamondtriangles.svg	36	no	57	0	1720	6	4	antiphase_hc_sio.wav	1	6	3	noise_calib_stim_LEFT.wav	1	20	blb_dichoticlistening_ka-da.mp3	ka	da	1	other
6.6.1	win	2023-07-07	08:52:56	09:07:27	866580	615dd1eb2702a672f7db49f1	2	1	main_z	24	main_z	93	stimuli_distractor_trianglediamonds.svg	stimuli_target_trianglerectangles.svg	25	yes	44	1	559	6	4	antiphase_hc_sio.wav	1	6	3	noise_calib_stim_LEFT.wav	1	20	blb_dichoticlistening_ka-da.mp3	ka	da	1	other
6.6.1	win	2023-07-07	08:52:56	09:07:27	866580	615dd1eb2702a672f7db49f1	2	1	main_z	24	advance_on_keypress_ZEE	94	stimuli_distractor_trianglediamonds.svg	stimuli_target_trianglerectangles.svg	25	yes	57	0	562	6	4	antiphase_hc_sio.wav	1	6	3	noise_calib_stim_LEFT.wav	1	20	blb_dichoticlistening_ka-da.mp3	ka	da	1	other
6.6.1	win	2023-07-07	08:52:56	09:07:28	868366	615dd1eb2702a672f7db49f1	2	1	main_z	24	main_z	95	stimuli_distractor_trianglediamonds.svg	stimuli_target_rectangletriangles.svg	9	yes	44	1	580	6	4	antiphase_hc_sio.wav	1	6	3	noise_calib_stim_LEFT.wav	1	20	blb_dichoticlistening_ka-da.mp3	ka	da	1	other
6.6.1	win	2023-07-07	08:52:56	09:07:28	868366	615dd1eb2702a672f7db49f1	2	1	main_z	24	advance_on_keypress_ZEE	96	stimuli_distractor_trianglediamonds.svg	stimuli_target_rectangletriangles.svg	9	yes	57	0	482	6	4	antiphase_hc_sio.wav	1	6	3	noise_calib_stim_LEFT.wav	1	20	blb_dichoticlistening_ka-da.mp3	ka	da	1	other
6.6.1	win	2023-07-07	08:52:56	09:07:30	869929	615dd1eb2702a672f7db49f1	2	1	main_z	24	main_z	97	stimuli_distractor_diamondtriangles.svg	stimuli_target_trianglerectangles.svg	29	yes	44	1	427	6	4	antiphase_hc_sio.wav	1	6	3	noise_calib_stim_LEFT.wav	1	20	blb_dichoticlistening_ka-da.mp3	ka	da	1	other
6.6.1	win	2023-07-07	08:52:56	09:07:30	869929	615dd1eb2702a672f7db49f1	2	1	main_z	24	advance_on_keypress_ZEE	98	stimuli_distractor_diamondtriangles.svg	stimuli_target_trianglerectangles.svg	29	yes	57	0	451	6	4	antiphase_hc_sio.wav	1	6	3	noise_calib_stim_LEFT.wav	1	20	blb_dichoticlistening_ka-da.mp3	ka	da	1	other
6.6.1	win	2023-07-07	08:52:56	09:07:31	871490	615dd1eb2702a672f7db49f1	2	1	main_z	24	main_z	99	stimuli_distractor_trianglediamonds.svg	stimuli_target_trianglesquares.svg	26	yes	44	1	473	6	4	antiphase_hc_sio.wav	1	6	3	noise_calib_stim_LEFT.wav	1	20	blb_dichoticlistening_ka-da.mp3	ka	da	1	other
6.6.1	win	2023-07-07	08:52:56	09:07:31	871490	615dd1eb2702a672f7db49f1	2	1	main_z	24	advance_on_keypress_ZEE	100	stimuli_distractor_trianglediamonds.svg	stimuli_target_trianglesquares.svg	26	yes	57	0	411	6	4	antiphase_hc_sio.wav	1	6	3	noise_calib_stim_LEFT.wav	1	20	blb_dichoticlistening_ka-da.mp3	ka	da	1	other
6.6.1	win	2023-07-07	08:52:56	09:07:35	874533	615dd1eb2702a672f7db49f1	2	1	main_z	24	main_z	101	stimuli_distractor_diamondtriangles.svg	stimuli_distractor_diamondtriangles.svg	40	no	0	1	2000	6	4	antiphase_hc_sio.wav	1	6	3	noise_calib_stim_LEFT.wav	1	20	blb_dichoticlistening_ka-da.mp3	ka	da	1	other
6.6.1	win	2023-07-07	08:52:56	09:07:35	874533	615dd1eb2702a672f7db49f1	2	1	main_z	24	advance_on_keypress_ZEE	102	stimuli_distractor_diamondtriangles.svg	stimuli_distractor_diamondtriangles.svg	40	no	57	0	577	6	4	antiphase_hc_sio.wav	1	6	3	noise_calib_stim_LEFT.wav	1	20	blb_dichoticlistening_ka-da.mp3	ka	da	1	other
6.6.1	win	2023-07-07	08:52:56	09:07:36	876174	615dd1eb2702a672f7db49f1	2	1	main_z	24	main_z	103	stimuli_target_squarediamonds.svg	stimuli_distractor_diamondtriangles.svg	8	yes	44	1	428	6	4	antiphase_hc_sio.wav	1	6	3	noise_calib_stim_LEFT.wav	1	20	blb_dichoticlistening_ka-da.mp3	ka	da	1	other
6.6.1	win	2023-07-07	08:52:56	09:07:36	876174	615dd1eb2702a672f7db49f1	2	1	main_z	24	advance_on_keypress_ZEE	104	stimuli_target_squarediamonds.svg	stimuli_distractor_diamondtriangles.svg	8	yes	57	0	442	6	4	antiphase_hc_sio.wav	1	6	3	noise_calib_stim_LEFT.wav	1	20	blb_dichoticlistening_ka-da.mp3	ka	da	1	other
6.6.1	win	2023-07-07	08:52:56	09:07:38	877698	615dd1eb2702a672f7db49f1	2	1	main_z	24	main_z	105	stimuli_distractor_diamondtriangles.svg	stimuli_target_squaretriangles.svg	15	yes	44	1	436	6	4	antiphase_hc_sio.wav	1	6	3	noise_calib_stim_LEFT.wav	1	20	blb_dichoticlistening_ka-da.mp3	ka	da	1	other
6.6.1	win	2023-07-07	08:52:56	09:07:38	877698	615dd1eb2702a672f7db49f1	2	1	main_z	24	advance_on_keypress_ZEE	106	stimuli_distractor_diamondtriangles.svg	stimuli_target_squaretriangles.svg	15	yes	57	0	375	6	4	antiphase_hc_sio.wav	1	6	3	noise_calib_stim_LEFT.wav	1	20	blb_dichoticlistening_ka-da.mp3	ka	da	1	other
6.6.1	win	2023-07-07	08:52:56	09:07:39	879186	615dd1eb2702a672f7db49f1	2	1	main_z	24	main_z	107	stimuli_target_trianglesquares.svg	stimuli_distractor_diamondtriangles.svg	22	yes	44	1	475	6	4	antiphase_hc_sio.wav	1	6	3	noise_calib_stim_LEFT.wav	1	20	blb_dichoticlistening_ka-da.mp3	ka	da	1	other
6.6.1	win	2023-07-07	08:52:56	09:07:39	879186	615dd1eb2702a672f7db49f1	2	1	main_z	24	advance_on_keypress_ZEE	108	stimuli_target_trianglesquares.svg	stimuli_distractor_diamondtriangles.svg	22	yes	57	0	725	6	4	antiphase_hc_sio.wav	1	6	3	noise_calib_stim_LEFT.wav	1	20	blb_dichoticlistening_ka-da.mp3	ka	da	1	other
6.6.1	win	2023-07-07	08:52:56	09:07:41	881110	615dd1eb2702a672f7db49f1	2	1	main_z	24	main_z	109	stimuli_target_trianglesquares.svg	stimuli_distractor_trianglediamonds.svg	18	yes	44	1	567	6	4	antiphase_hc_sio.wav	1	6	3	noise_calib_stim_LEFT.wav	1	20	blb_dichoticlistening_ka-da.mp3	ka	da	1	other
6.6.1	win	2023-07-07	08:52:56	09:07:41	881110	615dd1eb2702a672f7db49f1	2	1	main_z	24	advance_on_keypress_ZEE	110	stimuli_target_trianglesquares.svg	stimuli_distractor_trianglediamonds.svg	18	yes	57	0	439	6	4	antiphase_hc_sio.wav	1	6	3	noise_calib_stim_LEFT.wav	1	20	blb_dichoticlistening_ka-da.mp3	ka	da	1	other
6.6.1	win	2023-07-07	08:52:56	09:07:43	883195	615dd1eb2702a672f7db49f1	2	1	main_z	24	main_z	111	stimuli_distractor_diamondtriangles.svg	stimuli_distractor_trianglediamonds.svg	38	no	44	0	1005	6	4	antiphase_hc_sio.wav	1	6	3	noise_calib_stim_LEFT.wav	1	20	blb_dichoticlistening_ka-da.mp3	ka	da	1	other
6.6.1	win	2023-07-07	08:52:56	09:07:43	883195	615dd1eb2702a672f7db49f1	2	1	main_z	24	advance_on_keypress_ZEE	112	stimuli_distractor_diamondtriangles.svg	stimuli_distractor_trianglediamonds.svg	38	no	57	0	298	6	4	antiphase_hc_sio.wav	1	6	3	noise_calib_stim_LEFT.wav	1	20	blb_dichoticlistening_ka-da.mp3	ka	da	1	other
6.6.1	win	2023-07-07	08:52:56	09:07:45	884580	615dd1eb2702a672f7db49f1	2	1	main_z	24	main_z	113	stimuli_distractor_diamondtriangles.svg	stimuli_target_squarediamonds.svg	16	yes	44	1	440	6	4	antiphase_hc_sio.wav	1	6	3	noise_calib_stim_LEFT.wav	1	20	blb_dichoticlistening_ka-da.mp3	ka	da	1	other
6.6.1	win	2023-07-07	08:52:56	09:07:45	884580	615dd1eb2702a672f7db49f1	2	1	main_z	24	advance_on_keypress_ZEE	114	stimuli_distractor_diamondtriangles.svg	stimuli_target_squarediamonds.svg	16	yes	57	0	301	6	4	antiphase_hc_sio.wav	1	6	3	noise_calib_stim_LEFT.wav	1	20	blb_dichoticlistening_ka-da.mp3	ka	da	1	other
6.6.1	win	2023-07-07	08:52:56	09:07:46	885984	615dd1eb2702a672f7db49f1	2	1	main_z	24	main_z	115	stimuli_distractor_diamondtriangles.svg	stimuli_target_rectangletriangles.svg	13	yes	44	1	463	6	4	antiphase_hc_sio.wav	1	6	3	noise_calib_stim_LEFT.wav	1	20	blb_dichoticlistening_ka-da.mp3	ka	da	1	other
6.6.1	win	2023-07-07	08:52:56	09:07:46	885984	615dd1eb2702a672f7db49f1	2	1	main_z	24	advance_on_keypress_ZEE	116	stimuli_distractor_diamondtriangles.svg	stimuli_target_rectangletriangles.svg	13	yes	57	0	234	6	4	antiphase_hc_sio.wav	1	6	3	noise_calib_stim_LEFT.wav	1	20	blb_dichoticlistening_ka-da.mp3	ka	da	1	other
6.6.1	win	2023-07-07	08:52:56	09:07:49	888870	615dd1eb2702a672f7db49f1	2	1	main_z	24	main_z	117	stimuli_target_diamondrectangles.svg	stimuli_distractor_trianglediamonds.svg	19	yes	0	0	2000	6	4	antiphase_hc_sio.wav	1	6	3	noise_calib_stim_LEFT.wav	1	20	blb_dichoticlistening_ka-da.mp3	ka	da	1	other
6.6.1	win	2023-07-07	08:52:56	09:07:49	888870	615dd1eb2702a672f7db49f1	2	1	main_z	24	advance_on_keypress_ZEE	118	stimuli_target_diamondrectangles.svg	stimuli_distractor_trianglediamonds.svg	19	yes	57	0	3061	6	4	antiphase_hc_sio.wav	1	6	3	noise_calib_stim_LEFT.wav	1	20	blb_dichoticlistening_ka-da.mp3	ka	da	1	other
6.6.1	win	2023-07-07	08:52:56	09:07:54	893726	615dd1eb2702a672f7db49f1	2	1	main_z	24	main_z	119	stimuli_target_trianglerectangles.svg	stimuli_distractor_diamondtriangles.svg	21	yes	44	1	1145	6	4	antiphase_hc_sio.wav	1	6	3	noise_calib_stim_LEFT.wav	1	20	blb_dichoticlistening_ka-da.mp3	ka	da	1	other
6.6.1	win	2023-07-07	08:52:56	09:07:54	893726	615dd1eb2702a672f7db49f1	2	1	main_z	24	advance_on_keypress_ZEE	120	stimuli_target_trianglerectangles.svg	stimuli_distractor_diamondtriangles.svg	21	yes	57	0	340	6	4	antiphase_hc_sio.wav	1	6	3	noise_calib_stim_LEFT.wav	1	20	blb_dichoticlistening_ka-da.mp3	ka	da	1	other
6.6.1	win	2023-07-07	08:52:56	09:07:55	895242	615dd1eb2702a672f7db49f1	2	1	main_z	24	main_z	121	stimuli_target_diamondsquares.svg	stimuli_distractor_diamondtriangles.svg	24	yes	44	1	528	6	4	antiphase_hc_sio.wav	1	6	3	noise_calib_stim_LEFT.wav	1	20	blb_dichoticlistening_ka-da.mp3	ka	da	1	other
6.6.1	win	2023-07-07	08:52:56	09:07:55	895242	615dd1eb2702a672f7db49f1	2	1	main_z	24	advance_on_keypress_ZEE	122	stimuli_target_diamondsquares.svg	stimuli_distractor_diamondtriangles.svg	24	yes	57	0	335	6	4	antiphase_hc_sio.wav	1	6	3	noise_calib_stim_LEFT.wav	1	20	blb_dichoticlistening_ka-da.mp3	ka	da	1	other
6.6.1	win	2023-07-07	08:52:56	09:07:57	896680	615dd1eb2702a672f7db49f1	2	1	main_z	24	main_z	123	stimuli_target_rectanglediamonds.svg	stimuli_distractor_diamondtriangles.svg	6	yes	44	1	452	6	4	antiphase_hc_sio.wav	1	6	3	noise_calib_stim_LEFT.wav	1	20	blb_dichoticlistening_ka-da.mp3	ka	da	1	other
6.6.1	win	2023-07-07	08:52:56	09:07:57	896680	615dd1eb2702a672f7db49f1	2	1	main_z	24	advance_on_keypress_ZEE	124	stimuli_target_rectanglediamonds.svg	stimuli_distractor_diamondtriangles.svg	6	yes	57	0	295	6	4	antiphase_hc_sio.wav	1	6	3	noise_calib_stim_LEFT.wav	1	20	blb_dichoticlistening_ka-da.mp3	ka	da	1	other
6.6.1	win	2023-07-07	08:52:56	09:08:00	899627	615dd1eb2702a672f7db49f1	2	1	main_z	24	main_z	125	stimuli_distractor_diamondtriangles.svg	stimuli_distractor_trianglediamonds.svg	37	no	0	1	2000	6	4	antiphase_hc_sio.wav	1	6	3	noise_calib_stim_LEFT.wav	1	20	blb_dichoticlistening_ka-da.mp3	ka	da	1	other
6.6.1	win	2023-07-07	08:52:56	09:08:00	899627	615dd1eb2702a672f7db49f1	2	1	main_z	24	advance_on_keypress_ZEE	126	stimuli_distractor_diamondtriangles.svg	stimuli_distractor_trianglediamonds.svg	37	no	57	0	633	6	4	antiphase_hc_sio.wav	1	6	3	noise_calib_stim_LEFT.wav	1	20	blb_dichoticlistening_ka-da.mp3	ka	da	1	other
6.6.1	win	2023-07-07	08:52:56	09:08:01	901292	615dd1eb2702a672f7db49f1	2	1	main_z	24	main_z	127	stimuli_distractor_trianglediamonds.svg	stimuli_target_rectanglediamonds.svg	10	yes	44	1	385	6	4	antiphase_hc_sio.wav	1	6	3	noise_calib_stim_LEFT.wav	1	20	blb_dichoticlistening_ka-da.mp3	ka	da	1	other
6.6.1	win	2023-07-07	08:52:56	09:08:01	901292	615dd1eb2702a672f7db49f1	2	1	main_z	24	advance_on_keypress_ZEE	128	stimuli_distractor_trianglediamonds.svg	stimuli_target_rectanglediamonds.svg	10	yes	57	0	253	6	4	antiphase_hc_sio.wav	1	6	3	noise_calib_stim_LEFT.wav	1	20	blb_dichoticlistening_ka-da.mp3	ka	da	1	other
6.6.1	win	2023-07-07	08:52:56	09:08:03	902555	615dd1eb2702a672f7db49f1	2	1	main_z	24	main_z	129	stimuli_distractor_trianglediamonds.svg	stimuli_target_squarediamonds.svg	12	yes	44	1	366	6	4	antiphase_hc_sio.wav	1	6	3	noise_calib_stim_LEFT.wav	1	20	blb_dichoticlistening_ka-da.mp3	ka	da	1	other
6.6.1	win	2023-07-07	08:52:56	09:08:03	902555	615dd1eb2702a672f7db49f1	2	1	main_z	24	advance_on_keypress_ZEE	130	stimuli_distractor_trianglediamonds.svg	stimuli_target_squarediamonds.svg	12	yes	57	0	238	6	4	antiphase_hc_sio.wav	1	6	3	noise_calib_stim_LEFT.wav	1	20	blb_dichoticlistening_ka-da.mp3	ka	da	1	other
6.6.1	win	2023-07-07	08:52:56	09:08:04	903869	615dd1eb2702a672f7db49f1	2	1	main_z	24	main_z	131	stimuli_target_rectangletriangles.svg	stimuli_distractor_trianglediamonds.svg	1	yes	44	1	430	6	4	antiphase_hc_sio.wav	1	6	3	noise_calib_stim_LEFT.wav	1	20	blb_dichoticlistening_ka-da.mp3	ka	da	1	other
6.6.1	win	2023-07-07	08:52:56	09:08:04	903869	615dd1eb2702a672f7db49f1	2	1	main_z	24	advance_on_keypress_ZEE	132	stimuli_target_rectangletriangles.svg	stimuli_distractor_trianglediamonds.svg	1	yes	57	0	187	6	4	antiphase_hc_sio.wav	1	6	3	noise_calib_stim_LEFT.wav	1	20	blb_dichoticlistening_ka-da.mp3	ka	da	1	other
6.6.1	win	2023-07-07	08:52:56	09:08:05	905060	615dd1eb2702a672f7db49f1	2	1	main_z	24	main_z	133	stimuli_target_squaretriangles.svg	stimuli_distractor_diamondtriangles.svg	7	yes	44	1	355	6	4	antiphase_hc_sio.wav	1	6	3	noise_calib_stim_LEFT.wav	1	20	blb_dichoticlistening_ka-da.mp3	ka	da	1	other
6.6.1	win	2023-07-07	08:52:56	09:08:05	905060	615dd1eb2702a672f7db49f1	2	1	main_z	24	advance_on_keypress_ZEE	134	stimuli_target_squaretriangles.svg	stimuli_distractor_diamondtriangles.svg	7	yes	57	0	203	6	4	antiphase_hc_sio.wav	1	6	3	noise_calib_stim_LEFT.wav	1	20	blb_dichoticlistening_ka-da.mp3	ka	da	1	other
6.6.1	win	2023-07-07	08:52:56	09:08:06	906263	615dd1eb2702a672f7db49f1	2	1	main_z	24	main_z	135	stimuli_distractor_diamondtriangles.svg	stimuli_target_rectanglediamonds.svg	14	yes	44	1	359	6	4	antiphase_hc_sio.wav	1	6	3	noise_calib_stim_LEFT.wav	1	20	blb_dichoticlistening_ka-da.mp3	ka	da	1	other
6.6.1	win	2023-07-07	08:52:56	09:08:06	906263	615dd1eb2702a672f7db49f1	2	1	main_z	24	advance_on_keypress_ZEE	136	stimuli_distractor_diamondtriangles.svg	stimuli_target_rectanglediamonds.svg	14	yes	57	0	236	6	4	antiphase_hc_sio.wav	1	6	3	noise_calib_stim_LEFT.wav	1	20	blb_dichoticlistening_ka-da.mp3	ka	da	1	other
6.6.1	win	2023-07-07	08:52:56	09:08:08	907554	615dd1eb2702a672f7db49f1	2	1	main_z	24	main_z	137	stimuli_distractor_diamondtriangles.svg	stimuli_target_diamondsquares.svg	32	yes	44	1	419	6	4	antiphase_hc_sio.wav	1	6	3	noise_calib_stim_LEFT.wav	1	20	blb_dichoticlistening_ka-da.mp3	ka	da	1	other
6.6.1	win	2023-07-07	08:52:56	09:08:08	907554	615dd1eb2702a672f7db49f1	2	1	main_z	24	advance_on_keypress_ZEE	138	stimuli_distractor_diamondtriangles.svg	stimuli_target_diamondsquares.svg	32	yes	57	0	669	6	4	antiphase_hc_sio.wav	1	6	3	noise_calib_stim_LEFT.wav	1	20	blb_dichoticlistening_ka-da.mp3	ka	da	1	other
6.6.1	win	2023-07-07	08:52:56	09:08:09	909300	615dd1eb2702a672f7db49f1	2	1	main_z	24	main_z	139	stimuli_target_rectanglediamonds.svg	stimuli_distractor_trianglediamonds.svg	2	yes	44	1	432	6	4	antiphase_hc_sio.wav	1	6	3	noise_calib_stim_LEFT.wav	1	20	blb_dichoticlistening_ka-da.mp3	ka	da	1	other
6.6.1	win	2023-07-07	08:52:56	09:08:09	909300	615dd1eb2702a672f7db49f1	2	1	main_z	24	advance_on_keypress_ZEE	140	stimuli_target_rectanglediamonds.svg	stimuli_distractor_trianglediamonds.svg	2	yes	57	0	246	6	4	antiphase_hc_sio.wav	1	6	3	noise_calib_stim_LEFT.wav	1	20	blb_dichoticlistening_ka-da.mp3	ka	da	1	other
6.6.1	win	2023-07-07	08:52:56	09:08:11	910636	615dd1eb2702a672f7db49f1	2	1	main_z	24	main_z	141	stimuli_target_squaretriangles.svg	stimuli_distractor_trianglediamonds.svg	3	yes	44	1	436	6	4	antiphase_hc_sio.wav	1	6	3	noise_calib_stim_LEFT.wav	1	20	blb_dichoticlistening_ka-da.mp3	ka	da	1	other
6.6.1	win	2023-07-07	08:52:56	09:08:11	910636	615dd1eb2702a672f7db49f1	2	1	main_z	24	advance_on_keypress_ZEE	142	stimuli_target_squaretriangles.svg	stimuli_distractor_trianglediamonds.svg	3	yes	57	0	249	6	4	antiphase_hc_sio.wav	1	6	3	noise_calib_stim_LEFT.wav	1	20	blb_dichoticlistening_ka-da.mp3	ka	da	1	other
6.6.1	win	2023-07-07	08:52:56	09:08:12	912211	615dd1eb2702a672f7db49f1	2	1	main_z	24	main_z	143	stimuli_distractor_diamondtriangles.svg	stimuli_target_diamondrectangles.svg	31	yes	44	1	679	6	4	antiphase_hc_sio.wav	1	6	3	noise_calib_stim_LEFT.wav	1	20	blb_dichoticlistening_ka-da.mp3	ka	da	1	other
6.6.1	win	2023-07-07	08:52:56	09:08:12	912211	615dd1eb2702a672f7db49f1	2	1	main_z	24	advance_on_keypress_ZEE	144	stimuli_distractor_diamondtriangles.svg	stimuli_target_diamondrectangles.svg	31	yes	57	0	265	6	4	antiphase_hc_sio.wav	1	6	3	noise_calib_stim_LEFT.wav	1	20	blb_dichoticlistening_ka-da.mp3	ka	da	1	other
6.6.1	win	2023-07-07	08:52:56	09:08:14	913743	615dd1eb2702a672f7db49f1	2	1	main_z	24	main_z	145	stimuli_target_diamondrectangles.svg	stimuli_distractor_diamondtriangles.svg	23	yes	44	1	612	6	4	antiphase_hc_sio.wav	1	6	3	noise_calib_stim_LEFT.wav	1	20	blb_dichoticlistening_ka-da.mp3	ka	da	1	other
6.6.1	win	2023-07-07	08:52:56	09:08:14	913743	615dd1eb2702a672f7db49f1	2	1	main_z	24	advance_on_keypress_ZEE	146	stimuli_target_diamondrectangles.svg	stimuli_distractor_diamondtriangles.svg	23	yes	57	0	185	6	4	antiphase_hc_sio.wav	1	6	3	noise_calib_stim_LEFT.wav	1	20	blb_dichoticlistening_ka-da.mp3	ka	da	1	other
6.6.1	win	2023-07-07	08:52:56	09:08:17	916580	615dd1eb2702a672f7db49f1	2	1	main_z	24	main_z	147	stimuli_distractor_diamondtriangles.svg	stimuli_distractor_diamondtriangles.svg	39	no	0	1	2000	6	4	antiphase_hc_sio.wav	1	6	3	noise_calib_stim_LEFT.wav	1	20	blb_dichoticlistening_ka-da.mp3	ka	da	1	other
6.6.1	win	2023-07-07	08:52:56	09:08:17	916580	615dd1eb2702a672f7db49f1	2	1	main_z	24	advance_on_keypress_ZEE	148	stimuli_distractor_diamondtriangles.svg	stimuli_distractor_diamondtriangles.svg	39	no	57	0	1310	6	4	antiphase_hc_sio.wav	1	6	3	noise_calib_stim_LEFT.wav	1	20	blb_dichoticlistening_ka-da.mp3	ka	da	1	other
6.6.1	win	2023-07-07	08:52:56	09:08:19	919025	615dd1eb2702a672f7db49f1	2	1	main_z	24	main_z	149	stimuli_distractor_diamondtriangles.svg	stimuli_target_trianglesquares.svg	30	yes	44	1	499	6	4	antiphase_hc_sio.wav	1	6	3	noise_calib_stim_LEFT.wav	1	20	blb_dichoticlistening_ka-da.mp3	ka	da	1	other
6.6.1	win	2023-07-07	08:52:56	09:08:19	919025	615dd1eb2702a672f7db49f1	2	1	main_z	24	advance_on_keypress_ZEE	150	stimuli_distractor_diamondtriangles.svg	stimuli_target_trianglesquares.svg	30	yes	57	0	1052	6	4	antiphase_hc_sio.wav	1	6	3	noise_calib_stim_LEFT.wav	1	20	blb_dichoticlistening_ka-da.mp3	ka	da	1	other
6.6.1	win	2023-07-07	08:52:56	09:08:23	922724	615dd1eb2702a672f7db49f1	2	1	main_z	24	main_z	151	stimuli_distractor_trianglediamonds.svg	stimuli_target_squaretriangles.svg	11	yes	0	0	2000	6	4	antiphase_hc_sio.wav	1	6	3	noise_calib_stim_LEFT.wav	1	20	blb_dichoticlistening_ka-da.mp3	ka	da	1	other
6.6.1	win	2023-07-07	08:52:56	09:08:23	922724	615dd1eb2702a672f7db49f1	2	1	main_z	24	advance_on_keypress_ZEE	152	stimuli_distractor_trianglediamonds.svg	stimuli_target_squaretriangles.svg	11	yes	57	0	511	6	4	antiphase_hc_sio.wav	1	6	3	noise_calib_stim_LEFT.wav	1	20	blb_dichoticlistening_ka-da.mp3	ka	da	1	other
6.6.1	win	2023-07-07	08:52:56	09:08:24	924324	615dd1eb2702a672f7db49f1	2	1	main_z	24	main_z	153	stimuli_distractor_trianglediamonds.svg	stimuli_target_diamondrectangles.svg	27	yes	44	1	436	6	4	antiphase_hc_sio.wav	1	6	3	noise_calib_stim_LEFT.wav	1	20	blb_dichoticlistening_ka-da.mp3	ka	da	1	other
6.6.1	win	2023-07-07	08:52:56	09:08:24	924324	615dd1eb2702a672f7db49f1	2	1	main_z	24	advance_on_keypress_ZEE	154	stimuli_distractor_trianglediamonds.svg	stimuli_target_diamondrectangles.svg	27	yes	57	0	817	6	4	antiphase_hc_sio.wav	1	6	3	noise_calib_stim_LEFT.wav	1	20	blb_dichoticlistening_ka-da.mp3	ka	da	1	other
6.6.1	win	2023-07-07	08:52:56	09:08:26	926278	615dd1eb2702a672f7db49f1	2	1	main_z	24	main_z	155	stimuli_target_trianglerectangles.svg	stimuli_distractor_trianglediamonds.svg	17	yes	44	1	491	6	4	antiphase_hc_sio.wav	1	6	3	noise_calib_stim_LEFT.wav	1	20	blb_dichoticlistening_ka-da.mp3	ka	da	1	other
6.6.1	win	2023-07-07	08:52:56	09:08:26	926278	615dd1eb2702a672f7db49f1	2	1	main_z	24	advance_on_keypress_ZEE	156	stimuli_target_trianglerectangles.svg	stimuli_distractor_trianglediamonds.svg	17	yes	57	0	863	6	4	antiphase_hc_sio.wav	1	6	3	noise_calib_stim_LEFT.wav	1	20	blb_dichoticlistening_ka-da.mp3	ka	da	1	other
6.6.1	win	2023-07-07	08:52:56	09:08:28	928328	615dd1eb2702a672f7db49f1	2	1	main_z	24	main_z	157	stimuli_target_squarediamonds.svg	stimuli_distractor_trianglediamonds.svg	4	yes	44	1	543	6	4	antiphase_hc_sio.wav	1	6	3	noise_calib_stim_LEFT.wav	1	20	blb_dichoticlistening_ka-da.mp3	ka	da	1	other
6.6.1	win	2023-07-07	08:52:56	09:08:28	928328	615dd1eb2702a672f7db49f1	2	1	main_z	24	advance_on_keypress_ZEE	158	stimuli_target_squarediamonds.svg	stimuli_distractor_trianglediamonds.svg	4	yes	57	0	531	6	4	antiphase_hc_sio.wav	1	6	3	noise_calib_stim_LEFT.wav	1	20	blb_dichoticlistening_ka-da.mp3	ka	da	1	other
6.6.1	win	2023-07-07	08:52:56	09:08:30	930340	615dd1eb2702a672f7db49f1	2	1	main_z	24	main_z	159	stimuli_target_diamondsquares.svg	stimuli_distractor_trianglediamonds.svg	20	yes	44	1	840	6	4	antiphase_hc_sio.wav	1	6	3	noise_calib_stim_LEFT.wav	1	20	blb_dichoticlistening_ka-da.mp3	ka	da	1	other
6.6.1	win	2023-07-07	08:52:56	09:08:30	930340	615dd1eb2702a672f7db49f1	2	1	main_z	24	advance_on_keypress_ZEE	160	stimuli_target_diamondsquares.svg	stimuli_distractor_trianglediamonds.svg	20	yes	57	0	387	6	4	antiphase_hc_sio.wav	1	6	3	noise_calib_stim_LEFT.wav	1	20	blb_dichoticlistening_ka-da.mp3	ka	da	1	other
6.6.1	win	2023-07-07	08:52:56	09:09:08	967605	615dd1eb2702a672f7db49f1	2	1	practice_slash	26	practice_slash	1	stimuli_distractor_diamondtriangles.svg	stimuli_distractor_diamondtriangles.svg	13	no	0	1	2000	6	4	antiphase_hc_sio.wav	1	6	3	noise_calib_stim_LEFT.wav	1	20	blb_dichoticlistening_ka-da.mp3	ka	da	1	other
6.6.1	win	2023-07-07	08:52:56	09:09:08	967605	615dd1eb2702a672f7db49f1	2	1	practice_slash	26	advance_on_keypress_SLASH	2	stimuli_distractor_diamondtriangles.svg	stimuli_distractor_diamondtriangles.svg	13	no	57	0	1054	6	4	antiphase_hc_sio.wav	1	6	3	noise_calib_stim_LEFT.wav	1	20	blb_dichoticlistening_ka-da.mp3	ka	da	1	other
6.6.1	win	2023-07-07	08:52:56	09:09:11	970731	615dd1eb2702a672f7db49f1	2	1	practice_slash	26	practice_slash	3	stimuli_target_squarediamonds.svg	stimuli_distractor_diamondtriangles.svg	2	yes	53	1	431	6	4	antiphase_hc_sio.wav	1	6	3	noise_calib_stim_LEFT.wav	1	20	blb_dichoticlistening_ka-da.mp3	ka	da	1	other
6.6.1	win	2023-07-07	08:52:56	09:09:11	970731	615dd1eb2702a672f7db49f1	2	1	practice_slash	26	advance_on_keypress_SLASH	4	stimuli_target_squarediamonds.svg	stimuli_distractor_diamondtriangles.svg	2	yes	57	0	117	6	4	antiphase_hc_sio.wav	1	6	3	noise_calib_stim_LEFT.wav	1	20	blb_dichoticlistening_ka-da.mp3	ka	da	1	other
6.6.1	win	2023-07-07	08:52:56	09:09:15	974499	615dd1eb2702a672f7db49f1	2	1	practice_slash	26	practice_slash	5	stimuli_distractor_trianglediamonds.svg	stimuli_distractor_trianglediamonds.svg	15	no	0	1	2000	6	4	antiphase_hc_sio.wav	1	6	3	noise_calib_stim_LEFT.wav	1	20	blb_dichoticlistening_ka-da.mp3	ka	da	1	other
6.6.1	win	2023-07-07	08:52:56	09:09:15	974499	615dd1eb2702a672f7db49f1	2	1	practice_slash	26	advance_on_keypress_SLASH	6	stimuli_distractor_trianglediamonds.svg	stimuli_distractor_trianglediamonds.svg	15	no	57	0	970	6	4	antiphase_hc_sio.wav	1	6	3	noise_calib_stim_LEFT.wav	1	20	blb_dichoticlistening_ka-da.mp3	ka	da	1	other
6.6.1	win	2023-07-07	08:52:56	09:09:19	979111	615dd1eb2702a672f7db49f1	2	1	practice_slash	26	practice_slash	7	stimuli_distractor_diamondtriangles.svg	stimuli_distractor_trianglediamonds.svg	14	no	0	1	2000	6	4	antiphase_hc_sio.wav	1	6	3	noise_calib_stim_LEFT.wav	1	20	blb_dichoticlistening_ka-da.mp3	ka	da	1	other
6.6.1	win	2023-07-07	08:52:56	09:09:19	979111	615dd1eb2702a672f7db49f1	2	1	practice_slash	26	advance_on_keypress_SLASH	8	stimuli_distractor_diamondtriangles.svg	stimuli_distractor_trianglediamonds.svg	14	no	57	0	663	6	4	antiphase_hc_sio.wav	1	6	3	noise_calib_stim_LEFT.wav	1	20	blb_dichoticlistening_ka-da.mp3	ka	da	1	other
6.6.1	win	2023-07-07	08:52:56	09:09:22	982254	615dd1eb2702a672f7db49f1	2	1	practice_slash	26	practice_slash	9	stimuli_distractor_trianglediamonds.svg	stimuli_target_diamondrectangles.svg	12	yes	53	1	829	6	4	antiphase_hc_sio.wav	1	6	3	noise_calib_stim_LEFT.wav	1	20	blb_dichoticlistening_ka-da.mp3	ka	da	1	other
6.6.1	win	2023-07-07	08:52:56	09:09:22	982254	615dd1eb2702a672f7db49f1	2	1	practice_slash	26	advance_on_keypress_SLASH	10	stimuli_distractor_trianglediamonds.svg	stimuli_target_diamondrectangles.svg	12	yes	57	0	492	6	4	antiphase_hc_sio.wav	1	6	3	noise_calib_stim_LEFT.wav	1	20	blb_dichoticlistening_ka-da.mp3	ka	da	1	other
6.6.1	win	2023-07-07	08:52:56	09:09:25	984769	615dd1eb2702a672f7db49f1	2	1	practice_slash	26	practice_slash	11	stimuli_target_rectanglediamonds.svg	stimuli_distractor_trianglediamonds.svg	4	yes	53	1	375	6	4	antiphase_hc_sio.wav	1	6	3	noise_calib_stim_LEFT.wav	1	20	blb_dichoticlistening_ka-da.mp3	ka	da	1	other
6.6.1	win	2023-07-07	08:52:56	09:09:25	984769	615dd1eb2702a672f7db49f1	2	1	practice_slash	26	advance_on_keypress_SLASH	12	stimuli_target_rectanglediamonds.svg	stimuli_distractor_trianglediamonds.svg	4	yes	57	0	724	6	4	antiphase_hc_sio.wav	1	6	3	noise_calib_stim_LEFT.wav	1	20	blb_dichoticlistening_ka-da.mp3	ka	da	1	other
6.6.1	win	2023-07-07	08:52:56	09:09:28	987617	615dd1eb2702a672f7db49f1	2	1	practice_slash	26	practice_slash	13	stimuli_target_squarediamonds.svg	stimuli_distractor_trianglediamonds.svg	5	yes	53	1	482	6	4	antiphase_hc_sio.wav	1	6	3	noise_calib_stim_LEFT.wav	1	20	blb_dichoticlistening_ka-da.mp3	ka	da	1	other
6.6.1	win	2023-07-07	08:52:56	09:09:28	987617	615dd1eb2702a672f7db49f1	2	1	practice_slash	26	advance_on_keypress_SLASH	14	stimuli_target_squarediamonds.svg	stimuli_distractor_trianglediamonds.svg	5	yes	57	0	164	6	4	antiphase_hc_sio.wav	1	6	3	noise_calib_stim_LEFT.wav	1	20	blb_dichoticlistening_ka-da.mp3	ka	da	1	other
6.6.1	win	2023-07-07	08:52:56	09:09:30	990161	615dd1eb2702a672f7db49f1	2	1	practice_slash	26	practice_slash	15	stimuli_target_diamondsquares.svg	stimuli_distractor_diamondtriangles.svg	3	yes	53	1	727	6	4	antiphase_hc_sio.wav	1	6	3	noise_calib_stim_LEFT.wav	1	20	blb_dichoticlistening_ka-da.mp3	ka	da	1	other
6.6.1	win	2023-07-07	08:52:56	09:09:30	990161	615dd1eb2702a672f7db49f1	2	1	practice_slash	26	advance_on_keypress_SLASH	16	stimuli_target_diamondsquares.svg	stimuli_distractor_diamondtriangles.svg	3	yes	57	0	462	6	4	antiphase_hc_sio.wav	1	6	3	noise_calib_stim_LEFT.wav	1	20	blb_dichoticlistening_ka-da.mp3	ka	da	1	other
6.6.1	win	2023-07-07	08:52:56	09:09:33	992763	615dd1eb2702a672f7db49f1	2	1	practice_slash	26	practice_slash	17	stimuli_distractor_diamondtriangles.svg	stimuli_target_diamondrectangles.svg	8	yes	53	1	482	6	4	antiphase_hc_sio.wav	1	6	3	noise_calib_stim_LEFT.wav	1	20	blb_dichoticlistening_ka-da.mp3	ka	da	1	other
6.6.1	win	2023-07-07	08:52:56	09:09:33	992763	615dd1eb2702a672f7db49f1	2	1	practice_slash	26	advance_on_keypress_SLASH	18	stimuli_distractor_diamondtriangles.svg	stimuli_target_diamondrectangles.svg	8	yes	57	0	485	6	4	antiphase_hc_sio.wav	1	6	3	noise_calib_stim_LEFT.wav	1	20	blb_dichoticlistening_ka-da.mp3	ka	da	1	other
6.6.1	win	2023-07-07	08:52:56	09:09:35	995334	615dd1eb2702a672f7db49f1	2	1	practice_slash	26	practice_slash	19	stimuli_distractor_trianglediamonds.svg	stimuli_target_squarediamonds.svg	11	yes	53	1	438	6	4	antiphase_hc_sio.wav	1	6	3	noise_calib_stim_LEFT.wav	1	20	blb_dichoticlistening_ka-da.mp3	ka	da	1	other
