build	computer.platform	date	time	timestamp	time_elapsed_ms	subject	group	session	blockcode	blocknum	trialcode	trialnum	stimulus_left	stimulus_right	stim_index	target_present	response	correct	latency	headphonecheck_countTestTrials	headphonecheck_index	headphonecheck_testSound	headphonecheck_correctResponse	stereocheck_countTestTrials	stereocheck_index	stereocheck_testSound	stereocheck_correctResponse	DL_index	DL_soundfile	DL_leftSound	DL_rightSound	DL_dualSound	DL_choice
6.6.1	win	2023-06-27	09:39:42	09:46:10	381931	5c5cb3bf6a946500015a3411	3	1	practice_slash	5	practice_slash	1	stimuli_distractor_diamondtriangles.svg	stimuli_distractor_diamondtriangles.svg	13	no	0	1	2000	0	0			0	0			1				0	
6.6.1	win	2023-06-27	09:39:42	09:46:10	381931	5c5cb3bf6a946500015a3411	3	1	practice_slash	5	advance_on_keypress_SLASH	2	stimuli_distractor_diamondtriangles.svg	stimuli_distractor_diamondtriangles.svg	13	no	57	0	2066	0	0			0	0			1				0	
6.6.1	win	2023-06-27	09:39:42	09:46:15	386277	5c5cb3bf6a946500015a3411	3	1	practice_slash	5	practice_slash	3	stimuli_target_diamondsquares.svg	stimuli_distractor_diamondtriangles.svg	3	yes	53	1	632	0	0			0	0			1				0	
6.6.1	win	2023-06-27	09:39:42	09:46:15	386277	5c5cb3bf6a946500015a3411	3	1	practice_slash	5	advance_on_keypress_SLASH	4	stimuli_target_diamondsquares.svg	stimuli_distractor_diamondtriangles.svg	3	yes	57	0	1431	0	0			0	0			1				0	
6.6.1	win	2023-06-27	09:39:42	09:46:18	389755	5c5cb3bf6a946500015a3411	3	1	practice_slash	5	practice_slash	5	stimuli_target_squarediamonds.svg	stimuli_distractor_diamondtriangles.svg	2	yes	53	1	403	0	0			0	0			1				0	
6.6.1	win	2023-06-27	09:39:42	09:46:18	389755	5c5cb3bf6a946500015a3411	3	1	practice_slash	5	advance_on_keypress_SLASH	6	stimuli_target_squarediamonds.svg	stimuli_distractor_diamondtriangles.svg	2	yes	57	0	1119	0	0			0	0			1				0	
6.6.1	win	2023-06-27	09:39:42	09:46:21	392905	5c5cb3bf6a946500015a3411	3	1	practice_slash	5	practice_slash	7	stimuli_distractor_trianglediamonds.svg	stimuli_target_squarediamonds.svg	11	yes	53	1	395	0	0			0	0			1				0	
6.6.1	win	2023-06-27	09:39:42	09:46:21	392905	5c5cb3bf6a946500015a3411	3	1	practice_slash	5	advance_on_keypress_SLASH	8	stimuli_distractor_trianglediamonds.svg	stimuli_target_squarediamonds.svg	11	yes	57	0	707	0	0			0	0			1				0	
6.6.1	win	2023-06-27	09:39:42	09:46:24	395658	5c5cb3bf6a946500015a3411	3	1	practice_slash	5	practice_slash	9	stimuli_target_diamondsquares.svg	stimuli_distractor_trianglediamonds.svg	6	yes	53	1	389	0	0			0	0			1				0	
6.6.1	win	2023-06-27	09:39:42	09:46:24	395658	5c5cb3bf6a946500015a3411	3	1	practice_slash	5	advance_on_keypress_SLASH	10	stimuli_target_diamondsquares.svg	stimuli_distractor_trianglediamonds.svg	6	yes	57	0	1642	0	0			0	0			1				0	
6.6.1	win	2023-06-27	09:39:42	09:46:28	399387	5c5cb3bf6a946500015a3411	3	1	practice_slash	5	practice_slash	11	stimuli_target_squarediamonds.svg	stimuli_distractor_trianglediamonds.svg	5	yes	53	1	425	0	0			0	0			1				0	
6.6.1	win	2023-06-27	09:39:42	09:46:28	399387	5c5cb3bf6a946500015a3411	3	1	practice_slash	5	advance_on_keypress_SLASH	12	stimuli_target_squarediamonds.svg	stimuli_distractor_trianglediamonds.svg	5	yes	57	0	734	0	0			0	0			1				0	
6.6.1	win	2023-06-27	09:39:42	09:46:31	402345	5c5cb3bf6a946500015a3411	3	1	practice_slash	5	practice_slash	13	stimuli_distractor_diamondtriangles.svg	stimuli_target_diamondrectangles.svg	8	yes	53	1	575	0	0			0	0			1				0	
6.6.1	win	2023-06-27	09:39:42	09:46:31	402345	5c5cb3bf6a946500015a3411	3	1	practice_slash	5	advance_on_keypress_SLASH	14	stimuli_distractor_diamondtriangles.svg	stimuli_target_diamondrectangles.svg	8	yes	57	0	1187	0	0			0	0			1				0	
6.6.1	win	2023-06-27	09:39:42	09:46:34	405665	5c5cb3bf6a946500015a3411	3	1	practice_slash	5	practice_slash	15	stimuli_distractor_trianglediamonds.svg	stimuli_distractor_trianglediamonds.svg	15	no	53	0	488	0	0			0	0			1				0	
6.6.1	win	2023-06-27	09:39:42	09:46:34	405665	5c5cb3bf6a946500015a3411	3	1	practice_slash	5	advance_on_keypress_SLASH	16	stimuli_distractor_trianglediamonds.svg	stimuli_distractor_trianglediamonds.svg	15	no	57	0	798	0	0			0	0			1				0	
6.6.1	win	2023-06-27	09:39:42	09:46:37	408749	5c5cb3bf6a946500015a3411	3	1	practice_slash	5	practice_slash	17	stimuli_distractor_diamondtriangles.svg	stimuli_target_trianglerectangles.svg	9	yes	53	1	631	0	0			0	0			1				0	
6.6.1	win	2023-06-27	09:39:42	09:46:37	408749	5c5cb3bf6a946500015a3411	3	1	practice_slash	5	advance_on_keypress_SLASH	18	stimuli_distractor_diamondtriangles.svg	stimuli_target_trianglerectangles.svg	9	yes	57	0	493	0	0			0	0			1				0	
6.6.1	win	2023-06-27	09:39:42	09:46:40	411324	5c5cb3bf6a946500015a3411	3	1	practice_slash	5	practice_slash	19	stimuli_target_rectanglediamonds.svg	stimuli_distractor_trianglediamonds.svg	4	yes	53	1	432	0	0			0	0			1				0	
6.6.1	win	2023-06-27	09:39:42	09:46:40	411324	5c5cb3bf6a946500015a3411	3	1	practice_slash	5	advance_on_keypress_SLASH	20	stimuli_target_rectanglediamonds.svg	stimuli_distractor_trianglediamonds.svg	4	yes	57	0	859	0	0			0	0			1				0	
6.6.1	win	2023-06-27	09:39:42	09:46:44	415836	5c5cb3bf6a946500015a3411	3	1	practice_slash	5	practice_slash	21	stimuli_distractor_trianglediamonds.svg	stimuli_distractor_diamondtriangles.svg	16	no	0	1	2000	0	0			0	0			1				0	
6.6.1	win	2023-06-27	09:39:42	09:46:44	415836	5c5cb3bf6a946500015a3411	3	1	practice_slash	5	advance_on_keypress_SLASH	22	stimuli_distractor_trianglediamonds.svg	stimuli_distractor_diamondtriangles.svg	16	no	57	0	636	0	0			0	0			1				0	
6.6.1	win	2023-06-27	09:39:42	09:46:47	418647	5c5cb3bf6a946500015a3411	3	1	practice_slash	5	practice_slash	23	stimuli_distractor_trianglediamonds.svg	stimuli_target_diamondrectangles.svg	12	yes	53	1	524	0	0			0	0			1				0	
6.6.1	win	2023-06-27	09:39:42	09:46:47	418647	5c5cb3bf6a946500015a3411	3	1	practice_slash	5	advance_on_keypress_SLASH	24	stimuli_distractor_trianglediamonds.svg	stimuli_target_diamondrectangles.svg	12	yes	57	0	753	0	0			0	0			1				0	
6.6.1	win	2023-06-27	09:39:42	09:46:50	421810	5c5cb3bf6a946500015a3411	3	1	practice_slash	5	practice_slash	25	stimuli_distractor_trianglediamonds.svg	stimuli_target_rectanglediamonds.svg	10	yes	53	1	761	0	0			0	0			1				0	
6.6.1	win	2023-06-27	09:39:42	09:46:50	421810	5c5cb3bf6a946500015a3411	3	1	practice_slash	5	advance_on_keypress_SLASH	26	stimuli_distractor_trianglediamonds.svg	stimuli_target_rectanglediamonds.svg	10	yes	57	0	540	0	0			0	0			1				0	
6.6.1	win	2023-06-27	09:39:42	09:46:53	424623	5c5cb3bf6a946500015a3411	3	1	practice_slash	5	practice_slash	27	stimuli_distractor_diamondtriangles.svg	stimuli_distractor_trianglediamonds.svg	14	no	53	0	632	0	0			0	0			1				0	
6.6.1	win	2023-06-27	09:39:42	09:46:53	424623	5c5cb3bf6a946500015a3411	3	1	practice_slash	5	advance_on_keypress_SLASH	28	stimuli_distractor_diamondtriangles.svg	stimuli_distractor_trianglediamonds.svg	14	no	57	0	1435	0	0			0	0			1				0	
6.6.1	win	2023-06-27	09:39:42	09:46:57	428129	5c5cb3bf6a946500015a3411	3	1	practice_slash	5	practice_slash	29	stimuli_distractor_diamondtriangles.svg	stimuli_target_rectangletriangles.svg	7	yes	53	1	413	0	0			0	0			1				0	
6.6.1	win	2023-06-27	09:39:42	09:46:57	428129	5c5cb3bf6a946500015a3411	3	1	practice_slash	5	advance_on_keypress_SLASH	30	stimuli_distractor_diamondtriangles.svg	stimuli_target_rectangletriangles.svg	7	yes	57	0	707	0	0			0	0			1				0	
6.6.1	win	2023-06-27	09:39:42	09:46:59	431014	5c5cb3bf6a946500015a3411	3	1	practice_slash	5	practice_slash	31	stimuli_target_rectanglediamonds.svg	stimuli_distractor_diamondtriangles.svg	1	yes	53	1	540	0	0			0	0			1				0	
6.6.1	win	2023-06-27	09:39:42	09:46:59	431014	5c5cb3bf6a946500015a3411	3	1	practice_slash	5	advance_on_keypress_SLASH	32	stimuli_target_rectanglediamonds.svg	stimuli_distractor_diamondtriangles.svg	1	yes	57	0	624	0	0			0	0			1				0	
6.6.1	win	2023-06-27	09:39:42	09:47:13	444603	5c5cb3bf6a946500015a3411	3	1	main_slash	7	main_slash	1	stimuli_distractor_diamondtriangles.svg	stimuli_distractor_diamondtriangles.svg	40	no	0	1	2000	0	0			0	0			1				0	
6.6.1	win	2023-06-27	09:39:42	09:47:13	444603	5c5cb3bf6a946500015a3411	3	1	main_slash	7	advance_on_keypress_SLASH	2	stimuli_distractor_diamondtriangles.svg	stimuli_distractor_diamondtriangles.svg	40	no	57	0	1674	0	0			0	0			1				0	
6.6.1	win	2023-06-27	09:39:42	09:47:16	447290	5c5cb3bf6a946500015a3411	3	1	main_slash	7	main_slash	3	stimuli_distractor_diamondtriangles.svg	stimuli_target_diamondsquares.svg	32	yes	53	1	366	0	0			0	0			1				0	
6.6.1	win	2023-06-27	09:39:42	09:47:16	447290	5c5cb3bf6a946500015a3411	3	1	main_slash	7	advance_on_keypress_SLASH	4	stimuli_distractor_diamondtriangles.svg	stimuli_target_diamondsquares.svg	32	yes	57	0	1691	0	0			0	0			1				0	
6.6.1	win	2023-06-27	09:39:42	09:47:18	449982	5c5cb3bf6a946500015a3411	3	1	main_slash	7	main_slash	5	stimuli_distractor_diamondtriangles.svg	stimuli_target_squaretriangles.svg	15	yes	53	1	348	0	0			0	0			1				0	
6.6.1	win	2023-06-27	09:39:42	09:47:18	449982	5c5cb3bf6a946500015a3411	3	1	main_slash	7	advance_on_keypress_SLASH	6	stimuli_distractor_diamondtriangles.svg	stimuli_target_squaretriangles.svg	15	yes	57	0	1469	0	0			0	0			1				0	
6.6.1	win	2023-06-27	09:39:42	09:47:21	452494	5c5cb3bf6a946500015a3411	3	1	main_slash	7	main_slash	7	stimuli_distractor_diamondtriangles.svg	stimuli_target_diamondrectangles.svg	31	yes	53	1	402	0	0			0	0			1				0	
6.6.1	win	2023-06-27	09:39:42	09:47:21	452494	5c5cb3bf6a946500015a3411	3	1	main_slash	7	advance_on_keypress_SLASH	8	stimuli_distractor_diamondtriangles.svg	stimuli_target_diamondrectangles.svg	31	yes	57	0	1105	0	0			0	0			1				0	
6.6.1	win	2023-06-27	09:39:42	09:47:23	454582	5c5cb3bf6a946500015a3411	3	1	main_slash	7	main_slash	9	stimuli_distractor_trianglediamonds.svg	stimuli_target_trianglesquares.svg	26	yes	53	1	346	0	0			0	0			1				0	
6.6.1	win	2023-06-27	09:39:42	09:47:23	454582	5c5cb3bf6a946500015a3411	3	1	main_slash	7	advance_on_keypress_SLASH	10	stimuli_distractor_trianglediamonds.svg	stimuli_target_trianglesquares.svg	26	yes	57	0	1015	0	0			0	0			1				0	
6.6.1	win	2023-06-27	09:39:42	09:47:25	456611	5c5cb3bf6a946500015a3411	3	1	main_slash	7	main_slash	11	stimuli_distractor_diamondtriangles.svg	stimuli_target_trianglesquares.svg	30	yes	53	1	361	0	0			0	0			1				0	
6.6.1	win	2023-06-27	09:39:42	09:47:25	456611	5c5cb3bf6a946500015a3411	3	1	main_slash	7	advance_on_keypress_SLASH	12	stimuli_distractor_diamondtriangles.svg	stimuli_target_trianglesquares.svg	30	yes	57	0	1148	0	0			0	0			1				0	
6.6.1	win	2023-06-27	09:39:42	09:47:27	458807	5c5cb3bf6a946500015a3411	3	1	main_slash	7	main_slash	13	stimuli_target_diamondrectangles.svg	stimuli_distractor_trianglediamonds.svg	19	yes	53	1	398	0	0			0	0			1				0	
6.6.1	win	2023-06-27	09:39:42	09:47:27	458807	5c5cb3bf6a946500015a3411	3	1	main_slash	7	advance_on_keypress_SLASH	14	stimuli_target_diamondrectangles.svg	stimuli_distractor_trianglediamonds.svg	19	yes	57	0	1135	0	0			0	0			1				0	
6.6.1	win	2023-06-27	09:39:42	09:47:30	461101	5c5cb3bf6a946500015a3411	3	1	main_slash	7	main_slash	15	stimuli_distractor_trianglediamonds.svg	stimuli_distractor_diamondtriangles.svg	35	no	53	0	515	0	0			0	0			1				0	
6.6.1	win	2023-06-27	09:39:42	09:47:30	461101	5c5cb3bf6a946500015a3411	3	1	main_slash	7	advance_on_keypress_SLASH	16	stimuli_distractor_trianglediamonds.svg	stimuli_distractor_diamondtriangles.svg	35	no	57	0	1071	0	0			0	0			1				0	
6.6.1	win	2023-06-27	09:39:42	09:47:32	463588	5c5cb3bf6a946500015a3411	3	1	main_slash	7	main_slash	17	stimuli_distractor_diamondtriangles.svg	stimuli_distractor_diamondtriangles.svg	39	no	53	0	775	0	0			0	0			1				0	
6.6.1	win	2023-06-27	09:39:42	09:47:32	463588	5c5cb3bf6a946500015a3411	3	1	main_slash	7	advance_on_keypress_SLASH	18	stimuli_distractor_diamondtriangles.svg	stimuli_distractor_diamondtriangles.svg	39	no	57	0	1472	0	0			0	0			1				0	
6.6.1	win	2023-06-27	09:39:42	09:47:36	467689	5c5cb3bf6a946500015a3411	3	1	main_slash	7	main_slash	19	stimuli_distractor_diamondtriangles.svg	stimuli_distractor_trianglediamonds.svg	37	no	0	1	2000	0	0			0	0			1				0	
6.6.1	win	2023-06-27	09:39:42	09:47:36	467689	5c5cb3bf6a946500015a3411	3	1	main_slash	7	advance_on_keypress_SLASH	20	stimuli_distractor_diamondtriangles.svg	stimuli_distractor_trianglediamonds.svg	37	no	57	0	16	0	0			0	0			1				0	
6.6.1	win	2023-06-27	09:39:42	09:47:37	468955	5c5cb3bf6a946500015a3411	3	1	main_slash	7	main_slash	21	stimuli_target_squaretriangles.svg	stimuli_distractor_diamondtriangles.svg	7	yes	53	1	606	0	0			0	0			1				0	
6.6.1	win	2023-06-27	09:39:42	09:47:37	468955	5c5cb3bf6a946500015a3411	3	1	main_slash	7	advance_on_keypress_SLASH	22	stimuli_target_squaretriangles.svg	stimuli_distractor_diamondtriangles.svg	7	yes	57	0	902	0	0			0	0			1				0	
6.6.1	win	2023-06-27	09:39:42	09:47:39	471006	5c5cb3bf6a946500015a3411	3	1	main_slash	7	main_slash	23	stimuli_target_trianglesquares.svg	stimuli_distractor_trianglediamonds.svg	18	yes	53	1	505	0	0			0	0			1				0	
6.6.1	win	2023-06-27	09:39:42	09:47:39	471006	5c5cb3bf6a946500015a3411	3	1	main_slash	7	advance_on_keypress_SLASH	24	stimuli_target_trianglesquares.svg	stimuli_distractor_trianglediamonds.svg	18	yes	57	0	955	0	0			0	0			1				0	
6.6.1	win	2023-06-27	09:39:42	09:47:42	473069	5c5cb3bf6a946500015a3411	3	1	main_slash	7	main_slash	25	stimuli_target_diamondsquares.svg	stimuli_distractor_diamondtriangles.svg	24	yes	53	1	466	0	0			0	0			1				0	
6.6.1	win	2023-06-27	09:39:42	09:47:42	473069	5c5cb3bf6a946500015a3411	3	1	main_slash	7	advance_on_keypress_SLASH	26	stimuli_target_diamondsquares.svg	stimuli_distractor_diamondtriangles.svg	24	yes	57	0	935	0	0			0	0			1				0	
6.6.1	win	2023-06-27	09:39:42	09:47:45	476648	5c5cb3bf6a946500015a3411	3	1	main_slash	7	main_slash	27	stimuli_distractor_trianglediamonds.svg	stimuli_target_squaretriangles.svg	11	yes	0	0	2000	0	0			0	0			1				0	
6.6.1	win	2023-06-27	09:39:42	09:47:45	476648	5c5cb3bf6a946500015a3411	3	1	main_slash	7	advance_on_keypress_SLASH	28	stimuli_distractor_trianglediamonds.svg	stimuli_target_squaretriangles.svg	11	yes	57	0	734	0	0			0	0			1				0	
6.6.1	win	2023-06-27	09:39:42	09:47:48	480022	5c5cb3bf6a946500015a3411	3	1	main_slash	7	main_slash	29	stimuli_distractor_trianglediamonds.svg	stimuli_distractor_trianglediamonds.svg	33	no	0	1	2000	0	0			0	0			1				0	
6.6.1	win	2023-06-27	09:39:42	09:47:48	480022	5c5cb3bf6a946500015a3411	3	1	main_slash	7	advance_on_keypress_SLASH	30	stimuli_distractor_trianglediamonds.svg	stimuli_distractor_trianglediamonds.svg	33	no	57	0	880	0	0			0	0			1				0	
6.6.1	win	2023-06-27	09:39:42	09:47:51	482563	5c5cb3bf6a946500015a3411	3	1	main_slash	7	main_slash	31	stimuli_distractor_trianglediamonds.svg	stimuli_target_rectangletriangles.svg	9	yes	53	1	1017	0	0			0	0			1				0	
6.6.1	win	2023-06-27	09:39:42	09:47:51	482563	5c5cb3bf6a946500015a3411	3	1	main_slash	7	advance_on_keypress_SLASH	32	stimuli_distractor_trianglediamonds.svg	stimuli_target_rectangletriangles.svg	9	yes	57	0	1839	0	0			0	0			1				0	
6.6.1	win	2023-06-27	09:39:42	09:47:55	487036	5c5cb3bf6a946500015a3411	3	1	main_slash	7	main_slash	33	stimuli_distractor_trianglediamonds.svg	stimuli_distractor_trianglediamonds.svg	34	no	0	1	2000	0	0			0	0			1				0	
6.6.1	win	2023-06-27	09:39:42	09:47:55	487036	5c5cb3bf6a946500015a3411	3	1	main_slash	7	advance_on_keypress_SLASH	34	stimuli_distractor_trianglediamonds.svg	stimuli_distractor_trianglediamonds.svg	34	no	57	0	572	0	0			0	0			1				0	
6.6.1	win	2023-06-27	09:39:42	09:47:57	488831	5c5cb3bf6a946500015a3411	3	1	main_slash	7	main_slash	35	stimuli_target_trianglesquares.svg	stimuli_distractor_diamondtriangles.svg	22	yes	53	1	588	0	0			0	0			1				0	
6.6.1	win	2023-06-27	09:39:42	09:47:57	488831	5c5cb3bf6a946500015a3411	3	1	main_slash	7	advance_on_keypress_SLASH	36	stimuli_target_trianglesquares.svg	stimuli_distractor_diamondtriangles.svg	22	yes	57	0	867	0	0			0	0			1				0	
6.6.1	win	2023-06-27	09:39:42	09:47:59	490730	5c5cb3bf6a946500015a3411	3	1	main_slash	7	main_slash	37	stimuli_target_diamondsquares.svg	stimuli_distractor_trianglediamonds.svg	20	yes	53	1	393	0	0			0	0			1				0	
6.6.1	win	2023-06-27	09:39:42	09:47:59	490730	5c5cb3bf6a946500015a3411	3	1	main_slash	7	advance_on_keypress_SLASH	38	stimuli_target_diamondsquares.svg	stimuli_distractor_trianglediamonds.svg	20	yes	57	0	683	0	0			0	0			1				0	
6.6.1	win	2023-06-27	09:39:42	09:48:03	494066	5c5cb3bf6a946500015a3411	3	1	main_slash	7	main_slash	39	stimuli_distractor_trianglediamonds.svg	stimuli_target_diamondrectangles.svg	27	yes	0	0	2000	0	0			0	0			1				0	
6.6.1	win	2023-06-27	09:39:42	09:48:03	494066	5c5cb3bf6a946500015a3411	3	1	main_slash	7	advance_on_keypress_SLASH	40	stimuli_distractor_trianglediamonds.svg	stimuli_target_diamondrectangles.svg	27	yes	57	0	78	0	0			0	0			1				0	
6.6.1	win	2023-06-27	09:39:42	09:48:04	495560	5c5cb3bf6a946500015a3411	3	1	main_slash	7	main_slash	41	stimuli_target_rectangletriangles.svg	stimuli_distractor_diamondtriangles.svg	5	yes	53	1	784	0	0			0	0			1				0	
6.6.1	win	2023-06-27	09:39:42	09:48:04	495560	5c5cb3bf6a946500015a3411	3	1	main_slash	7	advance_on_keypress_SLASH	42	stimuli_target_rectangletriangles.svg	stimuli_distractor_diamondtriangles.svg	5	yes	57	0	853	0	0			0	0			1				0	
6.6.1	win	2023-06-27	09:39:42	09:48:06	497492	5c5cb3bf6a946500015a3411	3	1	main_slash	7	main_slash	43	stimuli_target_rectangletriangles.svg	stimuli_distractor_trianglediamonds.svg	1	yes	53	1	438	0	0			0	0			1				0	
6.6.1	win	2023-06-27	09:39:42	09:48:06	497492	5c5cb3bf6a946500015a3411	3	1	main_slash	7	advance_on_keypress_SLASH	44	stimuli_target_rectangletriangles.svg	stimuli_distractor_trianglediamonds.svg	1	yes	57	0	709	0	0			0	0			1				0	
6.6.1	win	2023-06-27	09:39:42	09:48:08	499802	5c5cb3bf6a946500015a3411	3	1	main_slash	7	main_slash	45	stimuli_distractor_diamondtriangles.svg	stimuli_distractor_trianglediamonds.svg	38	no	53	0	970	0	0			0	0			1				0	
6.6.1	win	2023-06-27	09:39:42	09:48:08	499802	5c5cb3bf6a946500015a3411	3	1	main_slash	7	advance_on_keypress_SLASH	46	stimuli_distractor_diamondtriangles.svg	stimuli_distractor_trianglediamonds.svg	38	no	57	0	580	0	0			0	0			1				0	
6.6.1	win	2023-06-27	09:39:42	09:48:10	501753	5c5cb3bf6a946500015a3411	3	1	main_slash	7	main_slash	47	stimuli_distractor_diamondtriangles.svg	stimuli_target_rectanglediamonds.svg	14	yes	53	1	727	0	0			0	0			1				0	
6.6.1	win	2023-06-27	09:39:42	09:48:10	501753	5c5cb3bf6a946500015a3411	3	1	main_slash	7	advance_on_keypress_SLASH	48	stimuli_distractor_diamondtriangles.svg	stimuli_target_rectanglediamonds.svg	14	yes	57	0	620	0	0			0	0			1				0	
6.6.1	win	2023-06-27	09:39:42	09:48:12	503379	5c5cb3bf6a946500015a3411	3	1	main_slash	7	main_slash	49	stimuli_distractor_trianglediamonds.svg	stimuli_target_rectanglediamonds.svg	10	yes	53	1	359	0	0			0	0			1				0	
6.6.1	win	2023-06-27	09:39:42	09:48:12	503379	5c5cb3bf6a946500015a3411	3	1	main_slash	7	advance_on_keypress_SLASH	50	stimuli_distractor_trianglediamonds.svg	stimuli_target_rectanglediamonds.svg	10	yes	57	0	549	0	0			0	0			1				0	
6.6.1	win	2023-06-27	09:39:42	09:48:14	505125	5c5cb3bf6a946500015a3411	3	1	main_slash	7	main_slash	51	stimuli_distractor_diamondtriangles.svg	stimuli_target_squarediamonds.svg	16	yes	53	1	543	0	0			0	0			1				0	
6.6.1	win	2023-06-27	09:39:42	09:48:14	505125	5c5cb3bf6a946500015a3411	3	1	main_slash	7	advance_on_keypress_SLASH	52	stimuli_distractor_diamondtriangles.svg	stimuli_target_squarediamonds.svg	16	yes	57	0	509	0	0			0	0			1				0	
6.6.1	win	2023-06-27	09:39:42	09:48:15	507029	5c5cb3bf6a946500015a3411	3	1	main_slash	7	main_slash	53	stimuli_distractor_diamondtriangles.svg	stimuli_target_rectangletriangles.svg	13	yes	53	1	752	0	0			0	0			1				0	
6.6.1	win	2023-06-27	09:39:42	09:48:15	507029	5c5cb3bf6a946500015a3411	3	1	main_slash	7	advance_on_keypress_SLASH	54	stimuli_distractor_diamondtriangles.svg	stimuli_target_rectangletriangles.svg	13	yes	57	0	482	0	0			0	0			1				0	
6.6.1	win	2023-06-27	09:39:42	09:48:17	509052	5c5cb3bf6a946500015a3411	3	1	main_slash	7	main_slash	55	stimuli_target_trianglerectangles.svg	stimuli_distractor_diamondtriangles.svg	21	yes	53	1	896	0	0			0	0			1				0	
6.6.1	win	2023-06-27	09:39:42	09:48:17	509052	5c5cb3bf6a946500015a3411	3	1	main_slash	7	advance_on_keypress_SLASH	56	stimuli_target_trianglerectangles.svg	stimuli_distractor_diamondtriangles.svg	21	yes	57	0	338	0	0			0	0			1				0	
6.6.1	win	2023-06-27	09:39:42	09:48:20	512034	5c5cb3bf6a946500015a3411	3	1	main_slash	7	main_slash	57	stimuli_distractor_trianglediamonds.svg	stimuli_distractor_diamondtriangles.svg	36	no	0	1	2000	0	0			0	0			1				0	
6.6.1	win	2023-06-27	09:39:42	09:48:20	512034	5c5cb3bf6a946500015a3411	3	1	main_slash	7	advance_on_keypress_SLASH	58	stimuli_distractor_trianglediamonds.svg	stimuli_distractor_diamondtriangles.svg	36	no	57	0	624	0	0			0	0			1				0	
6.6.1	win	2023-06-27	09:39:42	09:48:23	514073	5c5cb3bf6a946500015a3411	3	1	main_slash	7	main_slash	59	stimuli_target_diamondrectangles.svg	stimuli_distractor_diamondtriangles.svg	23	yes	53	1	781	0	0			0	0			1				0	
6.6.1	win	2023-06-27	09:39:42	09:48:23	514073	5c5cb3bf6a946500015a3411	3	1	main_slash	7	advance_on_keypress_SLASH	60	stimuli_target_diamondrectangles.svg	stimuli_distractor_diamondtriangles.svg	23	yes	57	0	473	0	0			0	0			1				0	
6.6.1	win	2023-06-27	09:39:42	09:48:25	516149	5c5cb3bf6a946500015a3411	3	1	main_slash	7	main_slash	61	stimuli_distractor_diamondtriangles.svg	stimuli_target_trianglerectangles.svg	29	yes	53	1	962	0	0			0	0			1				0	
6.6.1	win	2023-06-27	09:39:42	09:48:25	516149	5c5cb3bf6a946500015a3411	3	1	main_slash	7	advance_on_keypress_SLASH	62	stimuli_distractor_diamondtriangles.svg	stimuli_target_trianglerectangles.svg	29	yes	57	0	259	0	0			0	0			1				0	
6.6.1	win	2023-06-27	09:39:42	09:48:26	517560	5c5cb3bf6a946500015a3411	3	1	main_slash	7	main_slash	63	stimuli_target_squarediamonds.svg	stimuli_distractor_diamondtriangles.svg	8	yes	53	1	510	0	0			0	0			1				0	
6.6.1	win	2023-06-27	09:39:42	09:48:26	517560	5c5cb3bf6a946500015a3411	3	1	main_slash	7	advance_on_keypress_SLASH	64	stimuli_target_squarediamonds.svg	stimuli_distractor_diamondtriangles.svg	8	yes	57	0	370	0	0			0	0			1				0	
6.6.1	win	2023-06-27	09:39:42	09:48:28	519135	5c5cb3bf6a946500015a3411	3	1	main_slash	7	main_slash	65	stimuli_distractor_trianglediamonds.svg	stimuli_target_squarediamonds.svg	12	yes	53	1	558	0	0			0	0			1				0	
6.6.1	win	2023-06-27	09:39:42	09:48:28	519135	5c5cb3bf6a946500015a3411	3	1	main_slash	7	advance_on_keypress_SLASH	66	stimuli_distractor_trianglediamonds.svg	stimuli_target_squarediamonds.svg	12	yes	57	0	352	0	0			0	0			1				0	
6.6.1	win	2023-06-27	09:39:42	09:48:29	520678	5c5cb3bf6a946500015a3411	3	1	main_slash	7	main_slash	67	stimuli_target_rectanglediamonds.svg	stimuli_distractor_diamondtriangles.svg	6	yes	53	1	554	0	0			0	0			1				0	
6.6.1	win	2023-06-27	09:39:42	09:48:29	520678	5c5cb3bf6a946500015a3411	3	1	main_slash	7	advance_on_keypress_SLASH	68	stimuli_target_rectanglediamonds.svg	stimuli_distractor_diamondtriangles.svg	6	yes	57	0	559	0	0			0	0			1				0	
6.6.1	win	2023-06-27	09:39:42	09:48:31	522381	5c5cb3bf6a946500015a3411	3	1	main_slash	7	main_slash	69	stimuli_target_trianglerectangles.svg	stimuli_distractor_trianglediamonds.svg	17	yes	53	1	509	0	0			0	0			1				0	
6.6.1	win	2023-06-27	09:39:42	09:48:31	522381	5c5cb3bf6a946500015a3411	3	1	main_slash	7	advance_on_keypress_SLASH	70	stimuli_target_trianglerectangles.svg	stimuli_distractor_trianglediamonds.svg	17	yes	57	0	440	0	0			0	0			1				0	
6.6.1	win	2023-06-27	09:39:42	09:48:32	523864	5c5cb3bf6a946500015a3411	3	1	main_slash	7	main_slash	71	stimuli_target_squaretriangles.svg	stimuli_distractor_trianglediamonds.svg	3	yes	53	1	401	0	0			0	0			1				0	
6.6.1	win	2023-06-27	09:39:42	09:48:32	523864	5c5cb3bf6a946500015a3411	3	1	main_slash	7	advance_on_keypress_SLASH	72	stimuli_target_squaretriangles.svg	stimuli_distractor_trianglediamonds.svg	3	yes	57	0	354	0	0			0	0			1				0	
6.6.1	win	2023-06-27	09:39:42	09:48:34	525239	5c5cb3bf6a946500015a3411	3	1	main_slash	7	main_slash	73	stimuli_target_squarediamonds.svg	stimuli_distractor_trianglediamonds.svg	4	yes	53	1	377	0	0			0	0			1				0	
6.6.1	win	2023-06-27	09:39:42	09:48:34	525239	5c5cb3bf6a946500015a3411	3	1	main_slash	7	advance_on_keypress_SLASH	74	stimuli_target_squarediamonds.svg	stimuli_distractor_trianglediamonds.svg	4	yes	57	0	283	0	0			0	0			1				0	
6.6.1	win	2023-06-27	09:39:42	09:48:35	526659	5c5cb3bf6a946500015a3411	3	1	main_slash	7	main_slash	75	stimuli_distractor_trianglediamonds.svg	stimuli_target_trianglerectangles.svg	25	yes	53	1	485	0	0			0	0			1				0	
6.6.1	win	2023-06-27	09:39:42	09:48:35	526659	5c5cb3bf6a946500015a3411	3	1	main_slash	7	advance_on_keypress_SLASH	76	stimuli_distractor_trianglediamonds.svg	stimuli_target_trianglerectangles.svg	25	yes	57	0	451	0	0			0	0			1				0	
6.6.1	win	2023-06-27	09:39:42	09:48:37	528393	5c5cb3bf6a946500015a3411	3	1	main_slash	7	main_slash	77	stimuli_distractor_trianglediamonds.svg	stimuli_target_diamondsquares.svg	28	yes	53	1	640	0	0			0	0			1				0	
6.6.1	win	2023-06-27	09:39:42	09:48:37	528393	5c5cb3bf6a946500015a3411	3	1	main_slash	7	advance_on_keypress_SLASH	78	stimuli_distractor_trianglediamonds.svg	stimuli_target_diamondsquares.svg	28	yes	57	0	424	0	0			0	0			1				0	
6.6.1	win	2023-06-27	09:39:42	09:48:38	529876	5c5cb3bf6a946500015a3411	3	1	main_slash	7	main_slash	79	stimuli_target_rectanglediamonds.svg	stimuli_distractor_trianglediamonds.svg	2	yes	53	1	428	0	0			0	0			1				0	
6.6.1	win	2023-06-27	09:39:42	09:48:38	529876	5c5cb3bf6a946500015a3411	3	1	main_slash	7	advance_on_keypress_SLASH	80	stimuli_target_rectanglediamonds.svg	stimuli_distractor_trianglediamonds.svg	2	yes	57	0	271	0	0			0	0			1				0	
6.6.1	win	2023-06-27	09:39:42	09:48:41	532794	5c5cb3bf6a946500015a3411	3	1	main_slash	7	main_slash	81	stimuli_distractor_diamondtriangles.svg	stimuli_distractor_diamondtriangles.svg	40	no	0	1	2000	0	0			0	0			1				0	
6.6.1	win	2023-06-27	09:39:42	09:48:41	532794	5c5cb3bf6a946500015a3411	3	1	main_slash	7	advance_on_keypress_SLASH	82	stimuli_distractor_diamondtriangles.svg	stimuli_distractor_diamondtriangles.svg	40	no	57	0	1998	0	0			0	0			1				0	
6.6.1	win	2023-06-27	09:39:42	09:48:45	536099	5c5cb3bf6a946500015a3411	3	1	main_slash	7	main_slash	83	stimuli_distractor_trianglediamonds.svg	stimuli_target_diamondrectangles.svg	27	yes	53	1	667	0	0			0	0			1				0	
6.6.1	win	2023-06-27	09:39:42	09:48:45	536099	5c5cb3bf6a946500015a3411	3	1	main_slash	7	advance_on_keypress_SLASH	84	stimuli_distractor_trianglediamonds.svg	stimuli_target_diamondrectangles.svg	27	yes	57	0	278	0	0			0	0			1				0	
6.6.1	win	2023-06-27	09:39:42	09:48:46	537885	5c5cb3bf6a946500015a3411	3	1	main_slash	7	main_slash	85	stimuli_target_diamondsquares.svg	stimuli_distractor_trianglediamonds.svg	20	yes	53	1	858	0	0			0	0			1				0	
6.6.1	win	2023-06-27	09:39:42	09:48:46	537885	5c5cb3bf6a946500015a3411	3	1	main_slash	7	advance_on_keypress_SLASH	86	stimuli_target_diamondsquares.svg	stimuli_distractor_trianglediamonds.svg	20	yes	57	0	194	0	0			0	0			1				0	
6.6.1	win	2023-06-27	09:39:42	09:48:48	539304	5c5cb3bf6a946500015a3411	3	1	main_slash	7	main_slash	87	stimuli_distractor_trianglediamonds.svg	stimuli_target_rectangletriangles.svg	9	yes	53	1	599	0	0			0	0			1				0	
6.6.1	win	2023-06-27	09:39:42	09:48:48	539304	5c5cb3bf6a946500015a3411	3	1	main_slash	7	advance_on_keypress_SLASH	88	stimuli_distractor_trianglediamonds.svg	stimuli_target_rectangletriangles.svg	9	yes	57	0	235	0	0			0	0			1				0	
6.6.1	win	2023-06-27	09:39:42	09:48:49	540840	5c5cb3bf6a946500015a3411	3	1	main_slash	7	main_slash	89	stimuli_distractor_diamondtriangles.svg	stimuli_target_trianglesquares.svg	30	yes	53	1	656	0	0			0	0			1				0	
6.6.1	win	2023-06-27	09:39:42	09:48:49	540840	5c5cb3bf6a946500015a3411	3	1	main_slash	7	advance_on_keypress_SLASH	90	stimuli_distractor_diamondtriangles.svg	stimuli_target_trianglesquares.svg	30	yes	57	0	262	0	0			0	0			1				0	
6.6.1	win	2023-06-27	09:39:42	09:48:51	542445	5c5cb3bf6a946500015a3411	3	1	main_slash	7	main_slash	91	stimuli_distractor_trianglediamonds.svg	stimuli_target_rectanglediamonds.svg	10	yes	53	1	698	0	0			0	0			1				0	
6.6.1	win	2023-06-27	09:39:42	09:48:51	542445	5c5cb3bf6a946500015a3411	3	1	main_slash	7	advance_on_keypress_SLASH	92	stimuli_distractor_trianglediamonds.svg	stimuli_target_rectanglediamonds.svg	10	yes	57	0	282	0	0			0	0			1				0	
6.6.1	win	2023-06-27	09:39:42	09:48:54	545376	5c5cb3bf6a946500015a3411	3	1	main_slash	7	main_slash	93	stimuli_distractor_trianglediamonds.svg	stimuli_distractor_trianglediamonds.svg	34	no	0	1	2000	0	0			0	0			1				0	
6.6.1	win	2023-06-27	09:39:42	09:48:54	545376	5c5cb3bf6a946500015a3411	3	1	main_slash	7	advance_on_keypress_SLASH	94	stimuli_distractor_trianglediamonds.svg	stimuli_distractor_trianglediamonds.svg	34	no	57	0	1094	0	0			0	0			1				0	
6.6.1	win	2023-06-27	09:39:42	09:48:56	547815	5c5cb3bf6a946500015a3411	3	1	main_slash	7	main_slash	95	stimuli_distractor_diamondtriangles.svg	stimuli_target_diamondrectangles.svg	31	yes	53	1	699	0	0			0	0			1				0	
6.6.1	win	2023-06-27	09:39:42	09:48:56	547815	5c5cb3bf6a946500015a3411	3	1	main_slash	7	advance_on_keypress_SLASH	96	stimuli_distractor_diamondtriangles.svg	stimuli_target_diamondrectangles.svg	31	yes	57	0	341	0	0			0	0			1				0	
6.6.1	win	2023-06-27	09:39:42	09:48:58	549485	5c5cb3bf6a946500015a3411	3	1	main_slash	7	main_slash	97	stimuli_distractor_trianglediamonds.svg	stimuli_target_diamondsquares.svg	28	yes	53	1	690	0	0			0	0			1				0	
6.6.1	win	2023-06-27	09:39:42	09:48:58	549485	5c5cb3bf6a946500015a3411	3	1	main_slash	7	advance_on_keypress_SLASH	98	stimuli_distractor_trianglediamonds.svg	stimuli_target_diamondsquares.svg	28	yes	57	0	376	0	0			0	0			1				0	
6.6.1	win	2023-06-27	09:39:42	09:49:00	551401	5c5cb3bf6a946500015a3411	3	1	main_slash	7	main_slash	99	stimuli_distractor_trianglediamonds.svg	stimuli_distractor_diamondtriangles.svg	35	no	53	0	911	0	0			0	0			1				0	
6.6.1	win	2023-06-27	09:39:42	09:49:00	551401	5c5cb3bf6a946500015a3411	3	1	main_slash	7	advance_on_keypress_SLASH	100	stimuli_distractor_trianglediamonds.svg	stimuli_distractor_diamondtriangles.svg	35	no	57	0	415	0	0			0	0			1				0	
6.6.1	win	2023-06-27	09:39:42	09:49:02	553304	5c5cb3bf6a946500015a3411	3	1	main_slash	7	main_slash	101	stimuli_distractor_diamondtriangles.svg	stimuli_target_trianglerectangles.svg	29	yes	53	1	835	0	0			0	0			1				0	
6.6.1	win	2023-06-27	09:39:42	09:49:02	553304	5c5cb3bf6a946500015a3411	3	1	main_slash	7	advance_on_keypress_SLASH	102	stimuli_distractor_diamondtriangles.svg	stimuli_target_trianglerectangles.svg	29	yes	57	0	307	0	0			0	0			1				0	
6.6.1	win	2023-06-27	09:39:42	09:49:04	555111	5c5cb3bf6a946500015a3411	3	1	main_slash	7	main_slash	103	stimuli_target_squaretriangles.svg	stimuli_distractor_trianglediamonds.svg	3	yes	53	1	864	0	0			0	0			1				0	
6.6.1	win	2023-06-27	09:39:42	09:49:04	555111	5c5cb3bf6a946500015a3411	3	1	main_slash	7	advance_on_keypress_SLASH	104	stimuli_target_squaretriangles.svg	stimuli_distractor_trianglediamonds.svg	3	yes	57	0	297	0	0			0	0			1				0	
6.6.1	win	2023-06-27	09:39:42	09:49:05	556765	5c5cb3bf6a946500015a3411	3	1	main_slash	7	main_slash	105	stimuli_target_rectanglediamonds.svg	stimuli_distractor_trianglediamonds.svg	2	yes	53	1	706	0	0			0	0			1				0	
6.6.1	win	2023-06-27	09:39:42	09:49:05	556765	5c5cb3bf6a946500015a3411	3	1	main_slash	7	advance_on_keypress_SLASH	106	stimuli_target_rectanglediamonds.svg	stimuli_distractor_trianglediamonds.svg	2	yes	57	0	271	0	0			0	0			1				0	
6.6.1	win	2023-06-27	09:39:42	09:49:07	558714	5c5cb3bf6a946500015a3411	3	1	main_slash	7	main_slash	107	stimuli_distractor_trianglediamonds.svg	stimuli_target_squarediamonds.svg	12	yes	53	1	1044	0	0			0	0			1				0	
6.6.1	win	2023-06-27	09:39:42	09:49:07	558714	5c5cb3bf6a946500015a3411	3	1	main_slash	7	advance_on_keypress_SLASH	108	stimuli_distractor_trianglediamonds.svg	stimuli_target_squarediamonds.svg	12	yes	57	0	585	0	0			0	0			1				0	
6.6.1	win	2023-06-27	09:39:42	09:49:09	560752	5c5cb3bf6a946500015a3411	3	1	main_slash	7	main_slash	109	stimuli_target_trianglesquares.svg	stimuli_distractor_trianglediamonds.svg	18	yes	53	1	804	0	0			0	0			1				0	
6.6.1	win	2023-06-27	09:39:42	09:49:09	560752	5c5cb3bf6a946500015a3411	3	1	main_slash	7	advance_on_keypress_SLASH	110	stimuli_target_trianglesquares.svg	stimuli_distractor_trianglediamonds.svg	18	yes	57	0	339	0	0			0	0			1				0	
6.6.1	win	2023-06-27	09:39:42	09:49:11	562402	5c5cb3bf6a946500015a3411	3	1	main_slash	7	main_slash	111	stimuli_distractor_diamondtriangles.svg	stimuli_target_squarediamonds.svg	16	yes	53	1	675	0	0			0	0			1				0	
6.6.1	win	2023-06-27	09:39:42	09:49:11	562402	5c5cb3bf6a946500015a3411	3	1	main_slash	7	advance_on_keypress_SLASH	112	stimuli_distractor_diamondtriangles.svg	stimuli_target_squarediamonds.svg	16	yes	57	0	286	0	0			0	0			1				0	
6.6.1	win	2023-06-27	09:39:42	09:49:12	563903	5c5cb3bf6a946500015a3411	3	1	main_slash	7	main_slash	113	stimuli_distractor_diamondtriangles.svg	stimuli_target_rectanglediamonds.svg	14	yes	53	1	565	0	0			0	0			1				0	
6.6.1	win	2023-06-27	09:39:42	09:49:12	563903	5c5cb3bf6a946500015a3411	3	1	main_slash	7	advance_on_keypress_SLASH	114	stimuli_distractor_diamondtriangles.svg	stimuli_target_rectanglediamonds.svg	14	yes	57	0	308	0	0			0	0			1				0	
6.6.1	win	2023-06-27	09:39:42	09:49:14	565576	5c5cb3bf6a946500015a3411	3	1	main_slash	7	main_slash	115	stimuli_target_trianglerectangles.svg	stimuli_distractor_diamondtriangles.svg	21	yes	53	1	725	0	0			0	0			1				0	
6.6.1	win	2023-06-27	09:39:42	09:49:14	565576	5c5cb3bf6a946500015a3411	3	1	main_slash	7	advance_on_keypress_SLASH	116	stimuli_target_trianglerectangles.svg	stimuli_distractor_diamondtriangles.svg	21	yes	57	0	319	0	0			0	0			1				0	
6.6.1	win	2023-06-27	09:39:42	09:49:16	567243	5c5cb3bf6a946500015a3411	3	1	main_slash	7	main_slash	117	stimuli_target_diamondsquares.svg	stimuli_distractor_diamondtriangles.svg	24	yes	53	1	696	0	0			0	0			1				0	
6.6.1	win	2023-06-27	09:39:42	09:49:16	567243	5c5cb3bf6a946500015a3411	3	1	main_slash	7	advance_on_keypress_SLASH	118	stimuli_target_diamondsquares.svg	stimuli_distractor_diamondtriangles.svg	24	yes	57	0	349	0	0			0	0			1				0	
6.6.1	win	2023-06-27	09:39:42	09:49:17	568910	5c5cb3bf6a946500015a3411	3	1	main_slash	7	main_slash	119	stimuli_target_rectangletriangles.svg	stimuli_distractor_diamondtriangles.svg	5	yes	53	1	667	0	0			0	0			1				0	
6.6.1	win	2023-06-27	09:39:42	09:49:17	568910	5c5cb3bf6a946500015a3411	3	1	main_slash	7	advance_on_keypress_SLASH	120	stimuli_target_rectangletriangles.svg	stimuli_distractor_diamondtriangles.svg	5	yes	57	0	1220	0	0			0	0			1				0	
6.6.1	win	2023-06-27	09:39:42	09:49:20	571356	5c5cb3bf6a946500015a3411	3	1	main_slash	7	main_slash	121	stimuli_distractor_diamondtriangles.svg	stimuli_target_rectangletriangles.svg	13	yes	53	1	588	0	0			0	0			1				0	
6.6.1	win	2023-06-27	09:39:42	09:49:20	571356	5c5cb3bf6a946500015a3411	3	1	main_slash	7	advance_on_keypress_SLASH	122	stimuli_distractor_diamondtriangles.svg	stimuli_target_rectangletriangles.svg	13	yes	57	0	245	0	0			0	0			1				0	
6.6.1	win	2023-06-27	09:39:42	09:49:21	572717	5c5cb3bf6a946500015a3411	3	1	main_slash	7	main_slash	123	stimuli_target_squaretriangles.svg	stimuli_distractor_diamondtriangles.svg	7	yes	53	1	471	0	0			0	0			1				0	
6.6.1	win	2023-06-27	09:39:42	09:49:21	572717	5c5cb3bf6a946500015a3411	3	1	main_slash	7	advance_on_keypress_SLASH	124	stimuli_target_squaretriangles.svg	stimuli_distractor_diamondtriangles.svg	7	yes	57	0	302	0	0			0	0			1				0	
6.6.1	win	2023-06-27	09:39:42	09:49:23	574668	5c5cb3bf6a946500015a3411	3	1	main_slash	7	main_slash	125	stimuli_distractor_diamondtriangles.svg	stimuli_target_diamondsquares.svg	32	yes	53	1	1008	0	0			0	0			1				0	
6.6.1	win	2023-06-27	09:39:42	09:49:23	574668	5c5cb3bf6a946500015a3411	3	1	main_slash	7	advance_on_keypress_SLASH	126	stimuli_distractor_diamondtriangles.svg	stimuli_target_diamondsquares.svg	32	yes	57	0	257	0	0			0	0			1				0	
6.6.1	win	2023-06-27	09:39:42	09:49:25	576237	5c5cb3bf6a946500015a3411	3	1	main_slash	7	main_slash	127	stimuli_distractor_diamondtriangles.svg	stimuli_target_squaretriangles.svg	15	yes	53	1	665	0	0			0	0			1				0	
6.6.1	win	2023-06-27	09:39:42	09:49:25	576237	5c5cb3bf6a946500015a3411	3	1	main_slash	7	advance_on_keypress_SLASH	128	stimuli_distractor_diamondtriangles.svg	stimuli_target_squaretriangles.svg	15	yes	57	0	239	0	0			0	0			1				0	
6.6.1	win	2023-06-27	09:39:42	09:49:26	577672	5c5cb3bf6a946500015a3411	3	1	main_slash	7	main_slash	129	stimuli_target_squarediamonds.svg	stimuli_distractor_trianglediamonds.svg	4	yes	53	1	556	0	0			0	0			1				0	
6.6.1	win	2023-06-27	09:39:42	09:49:26	577672	5c5cb3bf6a946500015a3411	3	1	main_slash	7	advance_on_keypress_SLASH	130	stimuli_target_squarediamonds.svg	stimuli_distractor_trianglediamonds.svg	4	yes	57	0	201	0	0			0	0			1				0	
6.6.1	win	2023-06-27	09:39:42	09:49:28	579066	5c5cb3bf6a946500015a3411	3	1	main_slash	7	main_slash	131	stimuli_distractor_trianglediamonds.svg	stimuli_target_squaretriangles.svg	11	yes	53	1	553	0	0			0	0			1				0	
6.6.1	win	2023-06-27	09:39:42	09:49:28	579066	5c5cb3bf6a946500015a3411	3	1	main_slash	7	advance_on_keypress_SLASH	132	stimuli_distractor_trianglediamonds.svg	stimuli_target_squaretriangles.svg	11	yes	57	0	250	0	0			0	0			1				0	
6.6.1	win	2023-06-27	09:39:42	09:49:29	580681	5c5cb3bf6a946500015a3411	3	1	main_slash	7	main_slash	133	stimuli_target_diamondrectangles.svg	stimuli_distractor_trianglediamonds.svg	19	yes	53	1	721	0	0			0	0			1				0	
6.6.1	win	2023-06-27	09:39:42	09:49:29	580681	5c5cb3bf6a946500015a3411	3	1	main_slash	7	advance_on_keypress_SLASH	134	stimuli_target_diamondrectangles.svg	stimuli_distractor_trianglediamonds.svg	19	yes	57	0	241	0	0			0	0			1				0	
6.6.1	win	2023-06-27	09:39:42	09:49:31	582344	5c5cb3bf6a946500015a3411	3	1	main_slash	7	main_slash	135	stimuli_distractor_trianglediamonds.svg	stimuli_target_trianglerectangles.svg	25	yes	53	1	789	0	0			0	0			1				0	
6.6.1	win	2023-06-27	09:39:42	09:49:31	582344	5c5cb3bf6a946500015a3411	3	1	main_slash	7	advance_on_keypress_SLASH	136	stimuli_distractor_trianglediamonds.svg	stimuli_target_trianglerectangles.svg	25	yes	57	0	281	0	0			0	0			1				0	
6.6.1	win	2023-06-27	09:39:42	09:49:32	583878	5c5cb3bf6a946500015a3411	3	1	main_slash	7	main_slash	137	stimuli_target_trianglesquares.svg	stimuli_distractor_diamondtriangles.svg	22	yes	53	1	610	0	0			0	0			1				0	
6.6.1	win	2023-06-27	09:39:42	09:49:32	583878	5c5cb3bf6a946500015a3411	3	1	main_slash	7	advance_on_keypress_SLASH	138	stimuli_target_trianglesquares.svg	stimuli_distractor_diamondtriangles.svg	22	yes	57	0	250	0	0			0	0			1				0	
6.6.1	win	2023-06-27	09:39:42	09:49:34	585400	5c5cb3bf6a946500015a3411	3	1	main_slash	7	main_slash	139	stimuli_target_diamondrectangles.svg	stimuli_distractor_diamondtriangles.svg	23	yes	53	1	620	0	0			0	0			1				0	
6.6.1	win	2023-06-27	09:39:42	09:49:34	585400	5c5cb3bf6a946500015a3411	3	1	main_slash	7	advance_on_keypress_SLASH	140	stimuli_target_diamondrectangles.svg	stimuli_distractor_diamondtriangles.svg	23	yes	57	0	261	0	0			0	0			1				0	
6.6.1	win	2023-06-27	09:39:42	09:49:37	588309	5c5cb3bf6a946500015a3411	3	1	main_slash	7	main_slash	141	stimuli_distractor_diamondtriangles.svg	stimuli_distractor_trianglediamonds.svg	38	no	0	1	2000	0	0			0	0			1				0	
6.6.1	win	2023-06-27	09:39:42	09:49:37	588309	5c5cb3bf6a946500015a3411	3	1	main_slash	7	advance_on_keypress_SLASH	142	stimuli_distractor_diamondtriangles.svg	stimuli_distractor_trianglediamonds.svg	38	no	57	0	684	0	0			0	0			1				0	
6.6.1	win	2023-06-27	09:39:42	09:49:39	590297	5c5cb3bf6a946500015a3411	3	1	main_slash	7	main_slash	143	stimuli_distractor_trianglediamonds.svg	stimuli_target_trianglesquares.svg	26	yes	53	1	664	0	0			0	0			1				0	
6.6.1	win	2023-06-27	09:39:42	09:49:39	590297	5c5cb3bf6a946500015a3411	3	1	main_slash	7	advance_on_keypress_SLASH	144	stimuli_distractor_trianglediamonds.svg	stimuli_target_trianglesquares.svg	26	yes	57	0	298	0	0			0	0			1				0	
6.6.1	win	2023-06-27	09:39:42	09:49:42	593246	5c5cb3bf6a946500015a3411	3	1	main_slash	7	main_slash	145	stimuli_distractor_trianglediamonds.svg	stimuli_distractor_diamondtriangles.svg	36	no	0	1	2000	0	0			0	0			1				0	
6.6.1	win	2023-06-27	09:39:42	09:49:42	593246	5c5cb3bf6a946500015a3411	3	1	main_slash	7	advance_on_keypress_SLASH	146	stimuli_distractor_trianglediamonds.svg	stimuli_distractor_diamondtriangles.svg	36	no	57	0	612	0	0			0	0			1				0	
6.6.1	win	2023-06-27	09:39:42	09:49:43	594963	5c5cb3bf6a946500015a3411	3	1	main_slash	7	main_slash	147	stimuli_target_rectanglediamonds.svg	stimuli_distractor_diamondtriangles.svg	6	yes	53	1	460	0	0			0	0			1				0	
6.6.1	win	2023-06-27	09:39:42	09:49:43	594963	5c5cb3bf6a946500015a3411	3	1	main_slash	7	advance_on_keypress_SLASH	148	stimuli_target_rectanglediamonds.svg	stimuli_distractor_diamondtriangles.svg	6	yes	57	0	251	0	0			0	0			1				0	
6.6.1	win	2023-06-27	09:39:42	09:49:46	597867	5c5cb3bf6a946500015a3411	3	1	main_slash	7	main_slash	149	stimuli_distractor_diamondtriangles.svg	stimuli_distractor_diamondtriangles.svg	39	no	0	1	2000	0	0			0	0			1				0	
6.6.1	win	2023-06-27	09:39:42	09:49:46	597867	5c5cb3bf6a946500015a3411	3	1	main_slash	7	advance_on_keypress_SLASH	150	stimuli_distractor_diamondtriangles.svg	stimuli_distractor_diamondtriangles.svg	39	no	57	0	569	0	0			0	0			1				0	
6.6.1	win	2023-06-27	09:39:42	09:49:50	601074	5c5cb3bf6a946500015a3411	3	1	main_slash	7	main_slash	151	stimuli_distractor_diamondtriangles.svg	stimuli_distractor_trianglediamonds.svg	37	no	0	1	2000	0	0			0	0			1				0	
6.6.1	win	2023-06-27	09:39:42	09:49:50	601074	5c5cb3bf6a946500015a3411	3	1	main_slash	7	advance_on_keypress_SLASH	152	stimuli_distractor_diamondtriangles.svg	stimuli_distractor_trianglediamonds.svg	37	no	57	0	206	0	0			0	0			1				0	
6.6.1	win	2023-06-27	09:39:42	09:49:51	602397	5c5cb3bf6a946500015a3411	3	1	main_slash	7	main_slash	153	stimuli_target_squarediamonds.svg	stimuli_distractor_diamondtriangles.svg	8	yes	53	1	480	0	0			0	0			1				0	
6.6.1	win	2023-06-27	09:39:42	09:49:51	602397	5c5cb3bf6a946500015a3411	3	1	main_slash	7	advance_on_keypress_SLASH	154	stimuli_target_squarediamonds.svg	stimuli_distractor_diamondtriangles.svg	8	yes	57	0	266	0	0			0	0			1				0	
6.6.1	win	2023-06-27	09:39:42	09:49:52	604017	5c5cb3bf6a946500015a3411	3	1	main_slash	7	main_slash	155	stimuli_target_trianglerectangles.svg	stimuli_distractor_trianglediamonds.svg	17	yes	53	1	706	0	0			0	0			1				0	
6.6.1	win	2023-06-27	09:39:42	09:49:52	604017	5c5cb3bf6a946500015a3411	3	1	main_slash	7	advance_on_keypress_SLASH	156	stimuli_target_trianglerectangles.svg	stimuli_distractor_trianglediamonds.svg	17	yes	57	0	313	0	0			0	0			1				0	
6.6.1	win	2023-06-27	09:39:42	09:49:54	605813	5c5cb3bf6a946500015a3411	3	1	main_slash	7	main_slash	157	stimuli_target_rectangletriangles.svg	stimuli_distractor_trianglediamonds.svg	1	yes	53	1	839	0	0			0	0			1				0	
6.6.1	win	2023-06-27	09:39:42	09:49:54	605813	5c5cb3bf6a946500015a3411	3	1	main_slash	7	advance_on_keypress_SLASH	158	stimuli_target_rectangletriangles.svg	stimuli_distractor_trianglediamonds.svg	1	yes	57	0	353	0	0			0	0			1				0	
6.6.1	win	2023-06-27	09:39:42	09:49:57	608804	5c5cb3bf6a946500015a3411	3	1	main_slash	7	main_slash	159	stimuli_distractor_trianglediamonds.svg	stimuli_distractor_trianglediamonds.svg	33	no	0	1	2000	0	0			0	0			1				0	
6.6.1	win	2023-06-27	09:39:42	09:49:57	608804	5c5cb3bf6a946500015a3411	3	1	main_slash	7	advance_on_keypress_SLASH	160	stimuli_distractor_trianglediamonds.svg	stimuli_distractor_trianglediamonds.svg	33	no	57	0	71	0	0			0	0			1				0	
6.6.1	win	2023-06-27	09:39:42	09:50:20	631921	5c5cb3bf6a946500015a3411	3	1	practice_z	9	practice_z	1	stimuli_distractor_trianglediamonds.svg	stimuli_target_rectanglediamonds.svg	10	yes	44	1	631	0	0			0	0			1				0	
6.6.1	win	2023-06-27	09:39:42	09:50:20	631921	5c5cb3bf6a946500015a3411	3	1	practice_z	9	advance_on_keypress_ZEE	2	stimuli_distractor_trianglediamonds.svg	stimuli_target_rectanglediamonds.svg	10	yes	57	0	547	0	0			0	0			1				0	
6.6.1	win	2023-06-27	09:39:42	09:50:23	634524	5c5cb3bf6a946500015a3411	3	1	practice_z	9	practice_z	3	stimuli_target_squarediamonds.svg	stimuli_distractor_trianglediamonds.svg	5	yes	44	1	408	0	0			0	0			1				0	
6.6.1	win	2023-06-27	09:39:42	09:50:23	634524	5c5cb3bf6a946500015a3411	3	1	practice_z	9	advance_on_keypress_ZEE	4	stimuli_target_squarediamonds.svg	stimuli_distractor_trianglediamonds.svg	5	yes	57	0	667	0	0			0	0			1				0	
6.6.1	win	2023-06-27	09:39:42	09:50:26	637397	5c5cb3bf6a946500015a3411	3	1	practice_z	9	practice_z	5	stimuli_distractor_diamondtriangles.svg	stimuli_target_trianglerectangles.svg	9	yes	44	1	555	0	0			0	0			1				0	
6.6.1	win	2023-06-27	09:39:42	09:50:26	637397	5c5cb3bf6a946500015a3411	3	1	practice_z	9	advance_on_keypress_ZEE	6	stimuli_distractor_diamondtriangles.svg	stimuli_target_trianglerectangles.svg	9	yes	57	0	515	0	0			0	0			1				0	
6.6.1	win	2023-06-27	09:39:42	09:50:28	640027	5c5cb3bf6a946500015a3411	3	1	practice_z	9	practice_z	7	stimuli_target_diamondsquares.svg	stimuli_distractor_diamondtriangles.svg	3	yes	44	1	458	0	0			0	0			1				0	
6.6.1	win	2023-06-27	09:39:42	09:50:28	640027	5c5cb3bf6a946500015a3411	3	1	practice_z	9	advance_on_keypress_ZEE	8	stimuli_target_diamondsquares.svg	stimuli_distractor_diamondtriangles.svg	3	yes	57	0	705	0	0			0	0			1				0	
6.6.1	win	2023-06-27	09:39:42	09:50:31	642911	5c5cb3bf6a946500015a3411	3	1	practice_z	9	practice_z	9	stimuli_distractor_trianglediamonds.svg	stimuli_target_squarediamonds.svg	11	yes	44	1	518	0	0			0	0			1				0	
6.6.1	win	2023-06-27	09:39:42	09:50:31	642911	5c5cb3bf6a946500015a3411	3	1	practice_z	9	advance_on_keypress_ZEE	10	stimuli_distractor_trianglediamonds.svg	stimuli_target_squarediamonds.svg	11	yes	57	0	534	0	0			0	0			1				0	
6.6.1	win	2023-06-27	09:39:42	09:50:34	645534	5c5cb3bf6a946500015a3411	3	1	practice_z	9	practice_z	11	stimuli_target_rectanglediamonds.svg	stimuli_distractor_diamondtriangles.svg	1	yes	44	1	448	0	0			0	0			1				0	
6.6.1	win	2023-06-27	09:39:42	09:50:34	645534	5c5cb3bf6a946500015a3411	3	1	practice_z	9	advance_on_keypress_ZEE	12	stimuli_target_rectanglediamonds.svg	stimuli_distractor_diamondtriangles.svg	1	yes	57	0	2419	0	0			0	0			1				0	
6.6.1	win	2023-06-27	09:39:42	09:50:38	650017	5c5cb3bf6a946500015a3411	3	1	practice_z	9	practice_z	13	stimuli_target_squarediamonds.svg	stimuli_distractor_diamondtriangles.svg	2	yes	44	1	428	0	0			0	0			1				0	
6.6.1	win	2023-06-27	09:39:42	09:50:38	650017	5c5cb3bf6a946500015a3411	3	1	practice_z	9	advance_on_keypress_ZEE	14	stimuli_target_squarediamonds.svg	stimuli_distractor_diamondtriangles.svg	2	yes	57	0	445	0	0			0	0			1				0	
6.6.1	win	2023-06-27	09:39:42	09:50:41	652638	5c5cb3bf6a946500015a3411	3	1	practice_z	9	practice_z	15	stimuli_target_diamondsquares.svg	stimuli_distractor_trianglediamonds.svg	6	yes	44	1	522	0	0			0	0			1				0	
6.6.1	win	2023-06-27	09:39:42	09:50:41	652638	5c5cb3bf6a946500015a3411	3	1	practice_z	9	advance_on_keypress_ZEE	16	stimuli_target_diamondsquares.svg	stimuli_distractor_trianglediamonds.svg	6	yes	57	0	442	0	0			0	0			1				0	
6.6.1	win	2023-06-27	09:39:42	09:50:45	656744	5c5cb3bf6a946500015a3411	3	1	practice_z	9	practice_z	17	stimuli_distractor_trianglediamonds.svg	stimuli_distractor_trianglediamonds.svg	15	no	0	1	2000	0	0			0	0			1				0	
6.6.1	win	2023-06-27	09:39:42	09:50:45	656744	5c5cb3bf6a946500015a3411	3	1	practice_z	9	advance_on_keypress_ZEE	18	stimuli_distractor_trianglediamonds.svg	stimuli_distractor_trianglediamonds.svg	15	no	57	0	582	0	0			0	0			1				0	
6.6.1	win	2023-06-27	09:39:42	09:50:48	659782	5c5cb3bf6a946500015a3411	3	1	practice_z	9	practice_z	19	stimuli_distractor_diamondtriangles.svg	stimuli_target_rectangletriangles.svg	7	yes	44	1	801	0	0			0	0			1				0	
6.6.1	win	2023-06-27	09:39:42	09:50:48	659782	5c5cb3bf6a946500015a3411	3	1	practice_z	9	advance_on_keypress_ZEE	20	stimuli_distractor_diamondtriangles.svg	stimuli_target_rectangletriangles.svg	7	yes	57	0	469	0	0			0	0			1				0	
6.6.1	win	2023-06-27	09:39:42	09:50:52	663891	5c5cb3bf6a946500015a3411	3	1	practice_z	9	practice_z	21	stimuli_distractor_trianglediamonds.svg	stimuli_distractor_diamondtriangles.svg	16	no	0	1	2000	0	0			0	0			1				0	
6.6.1	win	2023-06-27	09:39:42	09:50:52	663891	5c5cb3bf6a946500015a3411	3	1	practice_z	9	advance_on_keypress_ZEE	22	stimuli_distractor_trianglediamonds.svg	stimuli_distractor_diamondtriangles.svg	16	no	57	0	455	0	0			0	0			1				0	
6.6.1	win	2023-06-27	09:39:42	09:50:56	667995	5c5cb3bf6a946500015a3411	3	1	practice_z	9	practice_z	23	stimuli_distractor_diamondtriangles.svg	stimuli_distractor_diamondtriangles.svg	13	no	0	1	2000	0	0			0	0			1				0	
6.6.1	win	2023-06-27	09:39:42	09:50:56	667995	5c5cb3bf6a946500015a3411	3	1	practice_z	9	advance_on_keypress_ZEE	24	stimuli_distractor_diamondtriangles.svg	stimuli_distractor_diamondtriangles.svg	13	no	57	0	810	0	0			0	0			1				0	
6.6.1	win	2023-06-27	09:39:42	09:51:00	671829	5c5cb3bf6a946500015a3411	3	1	practice_z	9	practice_z	25	stimuli_distractor_diamondtriangles.svg	stimuli_distractor_trianglediamonds.svg	14	no	44	0	1362	0	0			0	0			1				0	
6.6.1	win	2023-06-27	09:39:42	09:51:00	671829	5c5cb3bf6a946500015a3411	3	1	practice_z	9	advance_on_keypress_ZEE	26	stimuli_distractor_diamondtriangles.svg	stimuli_distractor_trianglediamonds.svg	14	no	57	0	987	0	0			0	0			1				0	
6.6.1	win	2023-06-27	09:39:42	09:51:04	675297	5c5cb3bf6a946500015a3411	3	1	practice_z	9	practice_z	27	stimuli_target_rectanglediamonds.svg	stimuli_distractor_trianglediamonds.svg	4	yes	44	1	840	0	0			0	0			1				0	
6.6.1	win	2023-06-27	09:39:42	09:51:04	675297	5c5cb3bf6a946500015a3411	3	1	practice_z	9	advance_on_keypress_ZEE	28	stimuli_target_rectanglediamonds.svg	stimuli_distractor_trianglediamonds.svg	4	yes	57	0	2403	0	0			0	0			1				0	
6.6.1	win	2023-06-27	09:39:42	09:51:08	679942	5c5cb3bf6a946500015a3411	3	1	practice_z	9	practice_z	29	stimuli_distractor_trianglediamonds.svg	stimuli_target_diamondrectangles.svg	12	yes	44	1	601	0	0			0	0			1				0	
6.6.1	win	2023-06-27	09:39:42	09:51:08	679942	5c5cb3bf6a946500015a3411	3	1	practice_z	9	advance_on_keypress_ZEE	30	stimuli_distractor_trianglediamonds.svg	stimuli_target_diamondrectangles.svg	12	yes	57	0	695	0	0			0	0			1				0	
6.6.1	win	2023-06-27	09:39:42	09:51:11	682830	5c5cb3bf6a946500015a3411	3	1	practice_z	9	practice_z	31	stimuli_distractor_diamondtriangles.svg	stimuli_target_diamondrectangles.svg	8	yes	44	1	547	0	0			0	0			1				0	
6.6.1	win	2023-06-27	09:39:42	09:51:11	682830	5c5cb3bf6a946500015a3411	3	1	practice_z	9	advance_on_keypress_ZEE	32	stimuli_distractor_diamondtriangles.svg	stimuli_target_diamondrectangles.svg	8	yes	57	0	660	0	0			0	0			1				0	
6.6.1	win	2023-06-27	09:39:42	09:51:18	689349	5c5cb3bf6a946500015a3411	3	1	main_z	11	main_z	1	stimuli_target_squaretriangles.svg	stimuli_distractor_trianglediamonds.svg	3	yes	0	0	2000	0	0			0	0			1				0	
6.6.1	win	2023-06-27	09:39:42	09:51:18	689349	5c5cb3bf6a946500015a3411	3	1	main_z	11	advance_on_keypress_ZEE	2	stimuli_target_squaretriangles.svg	stimuli_distractor_trianglediamonds.svg	3	yes	57	0	725	0	0			0	0			1				0	
6.6.1	win	2023-06-27	09:39:42	09:51:20	691203	5c5cb3bf6a946500015a3411	3	1	main_z	11	main_z	3	stimuli_distractor_trianglediamonds.svg	stimuli_target_squarediamonds.svg	12	yes	44	1	480	0	0			0	0			1				0	
6.6.1	win	2023-06-27	09:39:42	09:51:20	691203	5c5cb3bf6a946500015a3411	3	1	main_z	11	advance_on_keypress_ZEE	4	stimuli_distractor_trianglediamonds.svg	stimuli_target_squarediamonds.svg	12	yes	57	0	1287	0	0			0	0			1				0	
6.6.1	win	2023-06-27	09:39:42	09:51:22	693553	5c5cb3bf6a946500015a3411	3	1	main_z	11	main_z	5	stimuli_distractor_diamondtriangles.svg	stimuli_target_rectanglediamonds.svg	14	yes	44	1	421	0	0			0	0			1				0	
6.6.1	win	2023-06-27	09:39:42	09:51:22	693553	5c5cb3bf6a946500015a3411	3	1	main_z	11	advance_on_keypress_ZEE	6	stimuli_distractor_diamondtriangles.svg	stimuli_target_rectanglediamonds.svg	14	yes	57	0	296	0	0			0	0			1				0	
6.6.1	win	2023-06-27	09:39:42	09:51:23	695055	5c5cb3bf6a946500015a3411	3	1	main_z	11	main_z	7	stimuli_distractor_diamondtriangles.svg	stimuli_target_diamondrectangles.svg	31	yes	44	1	559	0	0			0	0			1				0	
6.6.1	win	2023-06-27	09:39:42	09:51:23	695055	5c5cb3bf6a946500015a3411	3	1	main_z	11	advance_on_keypress_ZEE	8	stimuli_distractor_diamondtriangles.svg	stimuli_target_diamondrectangles.svg	31	yes	57	0	594	0	0			0	0			1				0	
6.6.1	win	2023-06-27	09:39:42	09:51:25	696728	5c5cb3bf6a946500015a3411	3	1	main_z	11	main_z	9	stimuli_distractor_diamondtriangles.svg	stimuli_distractor_trianglediamonds.svg	38	no	44	0	438	0	0			0	0			1				0	
6.6.1	win	2023-06-27	09:39:42	09:51:25	696728	5c5cb3bf6a946500015a3411	3	1	main_z	11	advance_on_keypress_ZEE	10	stimuli_distractor_diamondtriangles.svg	stimuli_distractor_trianglediamonds.svg	38	no	57	0	869	0	0			0	0			1				0	
6.6.1	win	2023-06-27	09:39:42	09:51:27	698957	5c5cb3bf6a946500015a3411	3	1	main_z	11	main_z	11	stimuli_distractor_trianglediamonds.svg	stimuli_target_diamondsquares.svg	28	yes	44	1	721	0	0			0	0			1				0	
6.6.1	win	2023-06-27	09:39:42	09:51:27	698957	5c5cb3bf6a946500015a3411	3	1	main_z	11	advance_on_keypress_ZEE	12	stimuli_distractor_trianglediamonds.svg	stimuli_target_diamondsquares.svg	28	yes	57	0	500	0	0			0	0			1				0	
6.6.1	win	2023-06-27	09:39:42	09:51:29	700818	5c5cb3bf6a946500015a3411	3	1	main_z	11	main_z	13	stimuli_target_diamondsquares.svg	stimuli_distractor_trianglediamonds.svg	20	yes	44	1	721	0	0			0	0			1				0	
6.6.1	win	2023-06-27	09:39:42	09:51:29	700818	5c5cb3bf6a946500015a3411	3	1	main_z	11	advance_on_keypress_ZEE	14	stimuli_target_diamondsquares.svg	stimuli_distractor_trianglediamonds.svg	20	yes	57	0	462	0	0			0	0			1				0	
6.6.1	win	2023-06-27	09:39:42	09:51:31	702339	5c5cb3bf6a946500015a3411	3	1	main_z	11	main_z	15	stimuli_target_rectanglediamonds.svg	stimuli_distractor_trianglediamonds.svg	2	yes	44	1	412	0	0			0	0			1				0	
6.6.1	win	2023-06-27	09:39:42	09:51:31	702339	5c5cb3bf6a946500015a3411	3	1	main_z	11	advance_on_keypress_ZEE	16	stimuli_target_rectanglediamonds.svg	stimuli_distractor_trianglediamonds.svg	2	yes	57	0	340	0	0			0	0			1				0	
6.6.1	win	2023-06-27	09:39:42	09:51:32	703976	5c5cb3bf6a946500015a3411	3	1	main_z	11	main_z	17	stimuli_distractor_diamondtriangles.svg	stimuli_distractor_trianglediamonds.svg	37	no	44	0	654	0	0			0	0			1				0	
6.6.1	win	2023-06-27	09:39:42	09:51:32	703976	5c5cb3bf6a946500015a3411	3	1	main_z	11	advance_on_keypress_ZEE	18	stimuli_distractor_diamondtriangles.svg	stimuli_distractor_trianglediamonds.svg	37	no	57	0	367	0	0			0	0			1				0	
6.6.1	win	2023-06-27	09:39:42	09:51:34	705886	5c5cb3bf6a946500015a3411	3	1	main_z	11	main_z	19	stimuli_distractor_diamondtriangles.svg	stimuli_target_rectangletriangles.svg	13	yes	44	1	902	0	0			0	0			1				0	
6.6.1	win	2023-06-27	09:39:42	09:51:34	705886	5c5cb3bf6a946500015a3411	3	1	main_z	11	advance_on_keypress_ZEE	20	stimuli_distractor_diamondtriangles.svg	stimuli_target_rectangletriangles.svg	13	yes	57	0	352	0	0			0	0			1				0	
6.6.1	win	2023-06-27	09:39:42	09:51:36	707597	5c5cb3bf6a946500015a3411	3	1	main_z	11	main_z	21	stimuli_target_trianglesquares.svg	stimuli_distractor_trianglediamonds.svg	18	yes	44	1	718	0	0			0	0			1				0	
6.6.1	win	2023-06-27	09:39:42	09:51:36	707597	5c5cb3bf6a946500015a3411	3	1	main_z	11	advance_on_keypress_ZEE	22	stimuli_target_trianglesquares.svg	stimuli_distractor_trianglediamonds.svg	18	yes	57	0	308	0	0			0	0			1				0	
6.6.1	win	2023-06-27	09:39:42	09:51:38	709786	5c5cb3bf6a946500015a3411	3	1	main_z	11	main_z	23	stimuli_distractor_trianglediamonds.svg	stimuli_target_trianglerectangles.svg	25	yes	44	1	1246	0	0			0	0			1				0	
6.6.1	win	2023-06-27	09:39:42	09:51:38	709786	5c5cb3bf6a946500015a3411	3	1	main_z	11	advance_on_keypress_ZEE	24	stimuli_distractor_trianglediamonds.svg	stimuli_target_trianglerectangles.svg	25	yes	57	0	1680	0	0			0	0			1				0	
6.6.1	win	2023-06-27	09:39:42	09:51:41	712632	5c5cb3bf6a946500015a3411	3	1	main_z	11	main_z	25	stimuli_distractor_trianglediamonds.svg	stimuli_target_trianglesquares.svg	26	yes	44	1	519	0	0			0	0			1				0	
6.6.1	win	2023-06-27	09:39:42	09:51:41	712632	5c5cb3bf6a946500015a3411	3	1	main_z	11	advance_on_keypress_ZEE	26	stimuli_distractor_trianglediamonds.svg	stimuli_target_trianglesquares.svg	26	yes	57	0	351	0	0			0	0			1				0	
6.6.1	win	2023-06-27	09:39:42	09:51:43	714094	5c5cb3bf6a946500015a3411	3	1	main_z	11	main_z	27	stimuli_distractor_trianglediamonds.svg	stimuli_target_rectangletriangles.svg	9	yes	44	1	468	0	0			0	0			1				0	
6.6.1	win	2023-06-27	09:39:42	09:51:43	714094	5c5cb3bf6a946500015a3411	3	1	main_z	11	advance_on_keypress_ZEE	28	stimuli_distractor_trianglediamonds.svg	stimuli_target_rectangletriangles.svg	9	yes	57	0	351	0	0			0	0			1				0	
6.6.1	win	2023-06-27	09:39:42	09:51:44	715576	5c5cb3bf6a946500015a3411	3	1	main_z	11	main_z	29	stimuli_target_trianglesquares.svg	stimuli_distractor_diamondtriangles.svg	22	yes	44	1	487	0	0			0	0			1				0	
6.6.1	win	2023-06-27	09:39:42	09:51:44	715576	5c5cb3bf6a946500015a3411	3	1	main_z	11	advance_on_keypress_ZEE	30	stimuli_target_trianglesquares.svg	stimuli_distractor_diamondtriangles.svg	22	yes	57	0	292	0	0			0	0			1				0	
6.6.1	win	2023-06-27	09:39:42	09:51:45	716966	5c5cb3bf6a946500015a3411	3	1	main_z	11	main_z	31	stimuli_target_rectanglediamonds.svg	stimuli_distractor_diamondtriangles.svg	6	yes	44	1	463	0	0			0	0			1				0	
6.6.1	win	2023-06-27	09:39:42	09:51:45	716966	5c5cb3bf6a946500015a3411	3	1	main_z	11	advance_on_keypress_ZEE	32	stimuli_target_rectanglediamonds.svg	stimuli_distractor_diamondtriangles.svg	6	yes	57	0	278	0	0			0	0			1				0	
6.6.1	win	2023-06-27	09:39:42	09:51:47	718586	5c5cb3bf6a946500015a3411	3	1	main_z	11	main_z	33	stimuli_target_trianglerectangles.svg	stimuli_distractor_diamondtriangles.svg	21	yes	44	1	705	0	0			0	0			1				0	
6.6.1	win	2023-06-27	09:39:42	09:51:47	718586	5c5cb3bf6a946500015a3411	3	1	main_z	11	advance_on_keypress_ZEE	34	stimuli_target_trianglerectangles.svg	stimuli_distractor_diamondtriangles.svg	21	yes	57	0	297	0	0			0	0			1				0	
6.6.1	win	2023-06-27	09:39:42	09:51:50	721527	5c5cb3bf6a946500015a3411	3	1	main_z	11	main_z	35	stimuli_distractor_trianglediamonds.svg	stimuli_distractor_diamondtriangles.svg	35	no	0	1	2000	0	0			0	0			1				0	
6.6.1	win	2023-06-27	09:39:42	09:51:50	721527	5c5cb3bf6a946500015a3411	3	1	main_z	11	advance_on_keypress_ZEE	36	stimuli_distractor_trianglediamonds.svg	stimuli_distractor_diamondtriangles.svg	35	no	57	0	568	0	0			0	0			1				0	
6.6.1	win	2023-06-27	09:39:42	09:51:52	723234	5c5cb3bf6a946500015a3411	3	1	main_z	11	main_z	37	stimuli_target_squaretriangles.svg	stimuli_distractor_diamondtriangles.svg	7	yes	44	1	499	0	0			0	0			1				0	
6.6.1	win	2023-06-27	09:39:42	09:51:52	723234	5c5cb3bf6a946500015a3411	3	1	main_z	11	advance_on_keypress_ZEE	38	stimuli_target_squaretriangles.svg	stimuli_distractor_diamondtriangles.svg	7	yes	57	0	392	0	0			0	0			1				0	
6.6.1	win	2023-06-27	09:39:42	09:51:54	725527	5c5cb3bf6a946500015a3411	3	1	main_z	11	main_z	39	stimuli_target_rectangletriangles.svg	stimuli_distractor_diamondtriangles.svg	5	yes	44	1	1262	0	0			0	0			1				0	
6.6.1	win	2023-06-27	09:39:42	09:51:54	725527	5c5cb3bf6a946500015a3411	3	1	main_z	11	advance_on_keypress_ZEE	40	stimuli_target_rectangletriangles.svg	stimuli_distractor_diamondtriangles.svg	5	yes	57	0	1091	0	0			0	0			1				0	
6.6.1	win	2023-06-27	09:39:42	09:51:56	727986	5c5cb3bf6a946500015a3411	3	1	main_z	11	main_z	41	stimuli_distractor_diamondtriangles.svg	stimuli_target_squarediamonds.svg	16	yes	44	1	730	0	0			0	0			1				0	
6.6.1	win	2023-06-27	09:39:42	09:51:56	727986	5c5cb3bf6a946500015a3411	3	1	main_z	11	advance_on_keypress_ZEE	42	stimuli_distractor_diamondtriangles.svg	stimuli_target_squarediamonds.svg	16	yes	57	0	336	0	0			0	0			1				0	
6.6.1	win	2023-06-27	09:39:42	09:51:59	730968	5c5cb3bf6a946500015a3411	3	1	main_z	11	main_z	43	stimuli_distractor_diamondtriangles.svg	stimuli_distractor_diamondtriangles.svg	39	no	0	1	2000	0	0			0	0			1				0	
6.6.1	win	2023-06-27	09:39:42	09:51:59	730968	5c5cb3bf6a946500015a3411	3	1	main_z	11	advance_on_keypress_ZEE	44	stimuli_distractor_diamondtriangles.svg	stimuli_distractor_diamondtriangles.svg	39	no	57	0	610	0	0			0	0			1				0	
6.6.1	win	2023-06-27	09:39:42	09:52:01	732925	5c5cb3bf6a946500015a3411	3	1	main_z	11	main_z	45	stimuli_target_diamondrectangles.svg	stimuli_distractor_trianglediamonds.svg	19	yes	44	1	716	0	0			0	0			1				0	
6.6.1	win	2023-06-27	09:39:42	09:52:01	732925	5c5cb3bf6a946500015a3411	3	1	main_z	11	advance_on_keypress_ZEE	46	stimuli_target_diamondrectangles.svg	stimuli_distractor_trianglediamonds.svg	19	yes	57	0	354	0	0			0	0			1				0	
6.6.1	win	2023-06-27	09:39:42	09:52:04	735548	5c5cb3bf6a946500015a3411	3	1	main_z	11	main_z	47	stimuli_distractor_trianglediamonds.svg	stimuli_target_rectanglediamonds.svg	10	yes	44	1	1626	0	0			0	0			1				0	
6.6.1	win	2023-06-27	09:39:42	09:52:04	735548	5c5cb3bf6a946500015a3411	3	1	main_z	11	advance_on_keypress_ZEE	48	stimuli_distractor_trianglediamonds.svg	stimuli_target_rectanglediamonds.svg	10	yes	57	0	300	0	0			0	0			1				0	
6.6.1	win	2023-06-27	09:39:42	09:52:07	738499	5c5cb3bf6a946500015a3411	3	1	main_z	11	main_z	49	stimuli_distractor_trianglediamonds.svg	stimuli_distractor_trianglediamonds.svg	33	no	0	1	2000	0	0			0	0			1				0	
6.6.1	win	2023-06-27	09:39:42	09:52:07	738499	5c5cb3bf6a946500015a3411	3	1	main_z	11	advance_on_keypress_ZEE	50	stimuli_distractor_trianglediamonds.svg	stimuli_distractor_trianglediamonds.svg	33	no	57	0	622	0	0			0	0			1				0	
6.6.1	win	2023-06-27	09:39:42	09:52:09	740442	5c5cb3bf6a946500015a3411	3	1	main_z	11	main_z	51	stimuli_target_squarediamonds.svg	stimuli_distractor_trianglediamonds.svg	4	yes	44	1	687	0	0			0	0			1				0	
6.6.1	win	2023-06-27	09:39:42	09:52:09	740442	5c5cb3bf6a946500015a3411	3	1	main_z	11	advance_on_keypress_ZEE	52	stimuli_target_squarediamonds.svg	stimuli_distractor_trianglediamonds.svg	4	yes	57	0	260	0	0			0	0			1				0	
6.6.1	win	2023-06-27	09:39:42	09:52:11	742146	5c5cb3bf6a946500015a3411	3	1	main_z	11	main_z	53	stimuli_distractor_diamondtriangles.svg	stimuli_target_trianglesquares.svg	30	yes	44	1	813	0	0			0	0			1				0	
6.6.1	win	2023-06-27	09:39:42	09:52:11	742146	5c5cb3bf6a946500015a3411	3	1	main_z	11	advance_on_keypress_ZEE	54	stimuli_distractor_diamondtriangles.svg	stimuli_target_trianglesquares.svg	30	yes	57	0	296	0	0			0	0			1				0	
6.6.1	win	2023-06-27	09:39:42	09:52:12	743786	5c5cb3bf6a946500015a3411	3	1	main_z	11	main_z	55	stimuli_target_rectangletriangles.svg	stimuli_distractor_trianglediamonds.svg	1	yes	44	1	689	0	0			0	0			1				0	
6.6.1	win	2023-06-27	09:39:42	09:52:12	743786	5c5cb3bf6a946500015a3411	3	1	main_z	11	advance_on_keypress_ZEE	56	stimuli_target_rectangletriangles.svg	stimuli_distractor_trianglediamonds.svg	1	yes	57	0	296	0	0			0	0			1				0	
6.6.1	win	2023-06-27	09:39:42	09:52:14	745861	5c5cb3bf6a946500015a3411	3	1	main_z	11	main_z	57	stimuli_target_diamondrectangles.svg	stimuli_distractor_diamondtriangles.svg	23	yes	44	1	1137	0	0			0	0			1				0	
6.6.1	win	2023-06-27	09:39:42	09:52:14	745861	5c5cb3bf6a946500015a3411	3	1	main_z	11	advance_on_keypress_ZEE	58	stimuli_target_diamondrectangles.svg	stimuli_distractor_diamondtriangles.svg	23	yes	57	0	243	0	0			0	0			1				0	
6.6.1	win	2023-06-27	09:39:42	09:52:17	748736	5c5cb3bf6a946500015a3411	3	1	main_z	11	main_z	59	stimuli_distractor_trianglediamonds.svg	stimuli_distractor_diamondtriangles.svg	36	no	0	1	2000	0	0			0	0			1				0	
6.6.1	win	2023-06-27	09:39:42	09:52:17	748736	5c5cb3bf6a946500015a3411	3	1	main_z	11	advance_on_keypress_ZEE	60	stimuli_distractor_trianglediamonds.svg	stimuli_distractor_diamondtriangles.svg	36	no	57	0	526	0	0			0	0			1				0	
6.6.1	win	2023-06-27	09:39:42	09:52:20	751894	5c5cb3bf6a946500015a3411	3	1	main_z	11	main_z	61	stimuli_distractor_diamondtriangles.svg	stimuli_distractor_diamondtriangles.svg	40	no	0	1	2000	0	0			0	0			1				0	
6.6.1	win	2023-06-27	09:39:42	09:52:20	751894	5c5cb3bf6a946500015a3411	3	1	main_z	11	advance_on_keypress_ZEE	62	stimuli_distractor_diamondtriangles.svg	stimuli_distractor_diamondtriangles.svg	40	no	57	0	569	0	0			0	0			1				0	
6.6.1	win	2023-06-27	09:39:42	09:52:22	754014	5c5cb3bf6a946500015a3411	3	1	main_z	11	main_z	63	stimuli_distractor_diamondtriangles.svg	stimuli_target_squaretriangles.svg	15	yes	44	1	911	0	0			0	0			1				0	
6.6.1	win	2023-06-27	09:39:42	09:52:22	754014	5c5cb3bf6a946500015a3411	3	1	main_z	11	advance_on_keypress_ZEE	64	stimuli_distractor_diamondtriangles.svg	stimuli_target_squaretriangles.svg	15	yes	57	0	282	0	0			0	0			1				0	
6.6.1	win	2023-06-27	09:39:42	09:52:24	755988	5c5cb3bf6a946500015a3411	3	1	main_z	11	main_z	65	stimuli_distractor_diamondtriangles.svg	stimuli_target_diamondsquares.svg	32	yes	44	1	1042	0	0			0	0			1				0	
6.6.1	win	2023-06-27	09:39:42	09:52:24	755988	5c5cb3bf6a946500015a3411	3	1	main_z	11	advance_on_keypress_ZEE	66	stimuli_distractor_diamondtriangles.svg	stimuli_target_diamondsquares.svg	32	yes	57	0	300	0	0			0	0			1				0	
6.6.1	win	2023-06-27	09:39:42	09:52:26	757686	5c5cb3bf6a946500015a3411	3	1	main_z	11	main_z	67	stimuli_distractor_trianglediamonds.svg	stimuli_target_diamondrectangles.svg	27	yes	44	1	744	0	0			0	0			1				0	
6.6.1	win	2023-06-27	09:39:42	09:52:26	757686	5c5cb3bf6a946500015a3411	3	1	main_z	11	advance_on_keypress_ZEE	68	stimuli_distractor_trianglediamonds.svg	stimuli_target_diamondrectangles.svg	27	yes	57	0	254	0	0			0	0			1				0	
6.6.1	win	2023-06-27	09:39:42	09:52:28	759692	5c5cb3bf6a946500015a3411	3	1	main_z	11	main_z	69	stimuli_distractor_trianglediamonds.svg	stimuli_target_squaretriangles.svg	11	yes	44	1	1105	0	0			0	0			1				0	
6.6.1	win	2023-06-27	09:39:42	09:52:28	759692	5c5cb3bf6a946500015a3411	3	1	main_z	11	advance_on_keypress_ZEE	70	stimuli_distractor_trianglediamonds.svg	stimuli_target_squaretriangles.svg	11	yes	57	0	235	0	0			0	0			1				0	
6.6.1	win	2023-06-27	09:39:42	09:52:30	761691	5c5cb3bf6a946500015a3411	3	1	main_z	11	main_z	71	stimuli_distractor_diamondtriangles.svg	stimuli_target_trianglerectangles.svg	29	yes	44	1	1126	0	0			0	0			1				0	
6.6.1	win	2023-06-27	09:39:42	09:52:30	761691	5c5cb3bf6a946500015a3411	3	1	main_z	11	advance_on_keypress_ZEE	72	stimuli_distractor_diamondtriangles.svg	stimuli_target_trianglerectangles.svg	29	yes	57	0	261	0	0			0	0			1				0	
6.6.1	win	2023-06-27	09:39:42	09:52:33	764610	5c5cb3bf6a946500015a3411	3	1	main_z	11	main_z	73	stimuli_distractor_trianglediamonds.svg	stimuli_distractor_trianglediamonds.svg	34	no	0	1	2000	0	0			0	0			1				0	
6.6.1	win	2023-06-27	09:39:42	09:52:33	764610	5c5cb3bf6a946500015a3411	3	1	main_z	11	advance_on_keypress_ZEE	74	stimuli_distractor_trianglediamonds.svg	stimuli_distractor_trianglediamonds.svg	34	no	57	0	566	0	0			0	0			1				0	
6.6.1	win	2023-06-27	09:39:42	09:52:35	766948	5c5cb3bf6a946500015a3411	3	1	main_z	11	main_z	75	stimuli_target_trianglerectangles.svg	stimuli_distractor_trianglediamonds.svg	17	yes	44	1	1131	0	0			0	0			1				0	
6.6.1	win	2023-06-27	09:39:42	09:52:35	766948	5c5cb3bf6a946500015a3411	3	1	main_z	11	advance_on_keypress_ZEE	76	stimuli_target_trianglerectangles.svg	stimuli_distractor_trianglediamonds.svg	17	yes	57	0	268	0	0			0	0			1				0	
6.6.1	win	2023-06-27	09:39:42	09:52:37	768972	5c5cb3bf6a946500015a3411	3	1	main_z	11	main_z	77	stimuli_target_diamondsquares.svg	stimuli_distractor_diamondtriangles.svg	24	yes	44	1	1110	0	0			0	0			1				0	
6.6.1	win	2023-06-27	09:39:42	09:52:37	768972	5c5cb3bf6a946500015a3411	3	1	main_z	11	advance_on_keypress_ZEE	78	stimuli_target_diamondsquares.svg	stimuli_distractor_diamondtriangles.svg	24	yes	57	0	271	0	0			0	0			1				0	
6.6.1	win	2023-06-27	09:39:42	09:52:39	770957	5c5cb3bf6a946500015a3411	3	1	main_z	11	main_z	79	stimuli_target_squarediamonds.svg	stimuli_distractor_diamondtriangles.svg	8	yes	44	1	1068	0	0			0	0			1				0	
6.6.1	win	2023-06-27	09:39:42	09:52:39	770957	5c5cb3bf6a946500015a3411	3	1	main_z	11	advance_on_keypress_ZEE	80	stimuli_target_squarediamonds.svg	stimuli_distractor_diamondtriangles.svg	8	yes	57	0	285	0	0			0	0			1				0	
6.6.1	win	2023-06-27	09:39:42	09:52:42	773884	5c5cb3bf6a946500015a3411	3	1	main_z	11	main_z	81	stimuli_distractor_diamondtriangles.svg	stimuli_distractor_diamondtriangles.svg	39	no	0	1	2000	0	0			0	0			1				0	
6.6.1	win	2023-06-27	09:39:42	09:52:42	773884	5c5cb3bf6a946500015a3411	3	1	main_z	11	advance_on_keypress_ZEE	82	stimuli_distractor_diamondtriangles.svg	stimuli_distractor_diamondtriangles.svg	39	no	57	0	607	0	0			0	0			1				0	
6.6.1	win	2023-06-27	09:39:42	09:52:44	775895	5c5cb3bf6a946500015a3411	3	1	main_z	11	main_z	83	stimuli_target_squaretriangles.svg	stimuli_distractor_trianglediamonds.svg	3	yes	44	1	770	0	0			0	0			1				0	
6.6.1	win	2023-06-27	09:39:42	09:52:44	775895	5c5cb3bf6a946500015a3411	3	1	main_z	11	advance_on_keypress_ZEE	84	stimuli_target_squaretriangles.svg	stimuli_distractor_trianglediamonds.svg	3	yes	57	0	242	0	0			0	0			1				0	
6.6.1	win	2023-06-27	09:39:42	09:52:47	778771	5c5cb3bf6a946500015a3411	3	1	main_z	11	main_z	85	stimuli_distractor_trianglediamonds.svg	stimuli_distractor_diamondtriangles.svg	36	no	0	1	2000	0	0			0	0			1				0	
6.6.1	win	2023-06-27	09:39:42	09:52:47	778771	5c5cb3bf6a946500015a3411	3	1	main_z	11	advance_on_keypress_ZEE	86	stimuli_distractor_trianglediamonds.svg	stimuli_distractor_diamondtriangles.svg	36	no	57	0	571	0	0			0	0			1				0	
6.6.1	win	2023-06-27	09:39:42	09:52:49	780925	5c5cb3bf6a946500015a3411	3	1	main_z	11	main_z	87	stimuli_distractor_diamondtriangles.svg	stimuli_distractor_trianglediamonds.svg	37	no	44	0	947	0	0			0	0			1				0	
6.6.1	win	2023-06-27	09:39:42	09:52:49	780925	5c5cb3bf6a946500015a3411	3	1	main_z	11	advance_on_keypress_ZEE	88	stimuli_distractor_diamondtriangles.svg	stimuli_distractor_trianglediamonds.svg	37	no	57	0	206	0	0			0	0			1				0	
6.6.1	win	2023-06-27	09:39:42	09:52:51	782426	5c5cb3bf6a946500015a3411	3	1	main_z	11	main_z	89	stimuli_target_trianglerectangles.svg	stimuli_distractor_trianglediamonds.svg	17	yes	44	1	653	0	0			0	0			1				0	
6.6.1	win	2023-06-27	09:39:42	09:52:51	782426	5c5cb3bf6a946500015a3411	3	1	main_z	11	advance_on_keypress_ZEE	90	stimuli_target_trianglerectangles.svg	stimuli_distractor_trianglediamonds.svg	17	yes	57	0	237	0	0			0	0			1				0	
6.6.1	win	2023-06-27	09:39:42	09:52:53	784263	5c5cb3bf6a946500015a3411	3	1	main_z	11	main_z	91	stimuli_distractor_trianglediamonds.svg	stimuli_target_diamondsquares.svg	28	yes	44	1	961	0	0			0	0			1				0	
6.6.1	win	2023-06-27	09:39:42	09:52:53	784263	5c5cb3bf6a946500015a3411	3	1	main_z	11	advance_on_keypress_ZEE	92	stimuli_distractor_trianglediamonds.svg	stimuli_target_diamondsquares.svg	28	yes	57	0	240	0	0			0	0			1				0	
6.6.1	win	2023-06-27	09:39:42	09:52:55	786166	5c5cb3bf6a946500015a3411	3	1	main_z	11	main_z	93	stimuli_target_diamondsquares.svg	stimuli_distractor_trianglediamonds.svg	20	yes	44	1	1018	0	0			0	0			1				0	
6.6.1	win	2023-06-27	09:39:42	09:52:55	786166	5c5cb3bf6a946500015a3411	3	1	main_z	11	advance_on_keypress_ZEE	94	stimuli_target_diamondsquares.svg	stimuli_distractor_trianglediamonds.svg	20	yes	57	0	250	0	0			0	0			1				0	
6.6.1	win	2023-06-27	09:39:42	09:52:57	789059	5c5cb3bf6a946500015a3411	3	1	main_z	11	main_z	95	stimuli_distractor_trianglediamonds.svg	stimuli_distractor_trianglediamonds.svg	34	no	0	1	2000	0	0			0	0			1				0	
6.6.1	win	2023-06-27	09:39:42	09:52:57	789059	5c5cb3bf6a946500015a3411	3	1	main_z	11	advance_on_keypress_ZEE	96	stimuli_distractor_trianglediamonds.svg	stimuli_distractor_trianglediamonds.svg	34	no	57	0	537	0	0			0	0			1				0	
6.6.1	win	2023-06-27	09:39:42	09:53:00	791277	5c5cb3bf6a946500015a3411	3	1	main_z	11	main_z	97	stimuli_distractor_diamondtriangles.svg	stimuli_target_squaretriangles.svg	15	yes	44	1	1043	0	0			0	0			1				0	
6.6.1	win	2023-06-27	09:39:42	09:53:00	791277	5c5cb3bf6a946500015a3411	3	1	main_z	11	advance_on_keypress_ZEE	98	stimuli_distractor_diamondtriangles.svg	stimuli_target_squaretriangles.svg	15	yes	57	0	215	0	0			0	0			1				0	
6.6.1	win	2023-06-27	09:39:42	09:53:02	793203	5c5cb3bf6a946500015a3411	3	1	main_z	11	main_z	99	stimuli_distractor_diamondtriangles.svg	stimuli_target_diamondsquares.svg	32	yes	44	1	1057	0	0			0	0			1				0	
6.6.1	win	2023-06-27	09:39:42	09:53:02	793203	5c5cb3bf6a946500015a3411	3	1	main_z	11	advance_on_keypress_ZEE	100	stimuli_distractor_diamondtriangles.svg	stimuli_target_diamondsquares.svg	32	yes	57	0	243	0	0			0	0			1				0	
6.6.1	win	2023-06-27	09:39:42	09:53:03	795037	5c5cb3bf6a946500015a3411	3	1	main_z	11	main_z	101	stimuli_target_squarediamonds.svg	stimuli_distractor_diamondtriangles.svg	8	yes	44	1	964	0	0			0	0			1				0	
6.6.1	win	2023-06-27	09:39:42	09:53:03	795037	5c5cb3bf6a946500015a3411	3	1	main_z	11	advance_on_keypress_ZEE	102	stimuli_target_squarediamonds.svg	stimuli_distractor_diamondtriangles.svg	8	yes	57	0	239	0	0			0	0			1				0	
6.6.1	win	2023-06-27	09:39:42	09:53:05	796803	5c5cb3bf6a946500015a3411	3	1	main_z	11	main_z	103	stimuli_distractor_trianglediamonds.svg	stimuli_target_trianglesquares.svg	26	yes	44	1	885	0	0			0	0			1				0	
6.6.1	win	2023-06-27	09:39:42	09:53:05	796803	5c5cb3bf6a946500015a3411	3	1	main_z	11	advance_on_keypress_ZEE	104	stimuli_distractor_trianglediamonds.svg	stimuli_target_trianglesquares.svg	26	yes	57	0	264	0	0			0	0			1				0	
6.6.1	win	2023-06-27	09:39:42	09:53:07	798318	5c5cb3bf6a946500015a3411	3	1	main_z	11	main_z	105	stimuli_distractor_diamondtriangles.svg	stimuli_target_trianglerectangles.svg	29	yes	44	1	606	0	0			0	0			1				0	
6.6.1	win	2023-06-27	09:39:42	09:53:07	798318	5c5cb3bf6a946500015a3411	3	1	main_z	11	advance_on_keypress_ZEE	106	stimuli_distractor_diamondtriangles.svg	stimuli_target_trianglerectangles.svg	29	yes	57	0	447	0	0			0	0			1				0	
6.6.1	win	2023-06-27	09:39:42	09:53:10	801409	5c5cb3bf6a946500015a3411	3	1	main_z	11	main_z	107	stimuli_target_squaretriangles.svg	stimuli_distractor_diamondtriangles.svg	7	yes	0	0	2000	0	0			0	0			1				0	
6.6.1	win	2023-06-27	09:39:42	09:53:10	801409	5c5cb3bf6a946500015a3411	3	1	main_z	11	advance_on_keypress_ZEE	108	stimuli_target_squaretriangles.svg	stimuli_distractor_diamondtriangles.svg	7	yes	57	0	812	0	0			0	0			1				0	
6.6.1	win	2023-06-27	09:39:42	09:53:12	803624	5c5cb3bf6a946500015a3411	3	1	main_z	11	main_z	109	stimuli_target_trianglesquares.svg	stimuli_distractor_trianglediamonds.svg	18	yes	44	1	758	0	0			0	0			1				0	
6.6.1	win	2023-06-27	09:39:42	09:53:12	803624	5c5cb3bf6a946500015a3411	3	1	main_z	11	advance_on_keypress_ZEE	110	stimuli_target_trianglesquares.svg	stimuli_distractor_trianglediamonds.svg	18	yes	57	0	240	0	0			0	0			1				0	
6.6.1	win	2023-06-27	09:39:42	09:53:14	805353	5c5cb3bf6a946500015a3411	3	1	main_z	11	main_z	111	stimuli_target_diamondrectangles.svg	stimuli_distractor_diamondtriangles.svg	23	yes	44	1	858	0	0			0	0			1				0	
6.6.1	win	2023-06-27	09:39:42	09:53:14	805353	5c5cb3bf6a946500015a3411	3	1	main_z	11	advance_on_keypress_ZEE	112	stimuli_target_diamondrectangles.svg	stimuli_distractor_diamondtriangles.svg	23	yes	57	0	263	0	0			0	0			1				0	
6.6.1	win	2023-06-27	09:39:42	09:53:16	807097	5c5cb3bf6a946500015a3411	3	1	main_z	11	main_z	113	stimuli_target_trianglerectangles.svg	stimuli_distractor_diamondtriangles.svg	21	yes	44	1	840	0	0			0	0			1				0	
6.6.1	win	2023-06-27	09:39:42	09:53:16	807097	5c5cb3bf6a946500015a3411	3	1	main_z	11	advance_on_keypress_ZEE	114	stimuli_target_trianglerectangles.svg	stimuli_distractor_diamondtriangles.svg	21	yes	57	0	307	0	0			0	0			1				0	
6.6.1	win	2023-06-27	09:39:42	09:53:17	809030	5c5cb3bf6a946500015a3411	3	1	main_z	11	main_z	115	stimuli_distractor_trianglediamonds.svg	stimuli_target_squarediamonds.svg	12	yes	44	1	995	0	0			0	0			1				0	
6.6.1	win	2023-06-27	09:39:42	09:53:17	809030	5c5cb3bf6a946500015a3411	3	1	main_z	11	advance_on_keypress_ZEE	116	stimuli_distractor_trianglediamonds.svg	stimuli_target_squarediamonds.svg	12	yes	57	0	262	0	0			0	0			1				0	
6.6.1	win	2023-06-27	09:39:42	09:53:20	811929	5c5cb3bf6a946500015a3411	3	1	main_z	11	main_z	117	stimuli_distractor_diamondtriangles.svg	stimuli_distractor_trianglediamonds.svg	38	no	0	1	2000	0	0			0	0			1				0	
6.6.1	win	2023-06-27	09:39:42	09:53:20	811929	5c5cb3bf6a946500015a3411	3	1	main_z	11	advance_on_keypress_ZEE	118	stimuli_distractor_diamondtriangles.svg	stimuli_distractor_trianglediamonds.svg	38	no	57	0	496	0	0			0	0			1				0	
6.6.1	win	2023-06-27	09:39:42	09:53:22	814015	5c5cb3bf6a946500015a3411	3	1	main_z	11	main_z	119	stimuli_distractor_diamondtriangles.svg	stimuli_target_diamondrectangles.svg	31	yes	44	1	944	0	0			0	0			1				0	
6.6.1	win	2023-06-27	09:39:42	09:53:22	814015	5c5cb3bf6a946500015a3411	3	1	main_z	11	advance_on_keypress_ZEE	120	stimuli_distractor_diamondtriangles.svg	stimuli_target_diamondrectangles.svg	31	yes	57	0	218	0	0			0	0			1				0	
6.6.1	win	2023-06-27	09:39:42	09:53:24	815840	5c5cb3bf6a946500015a3411	3	1	main_z	11	main_z	121	stimuli_target_diamondsquares.svg	stimuli_distractor_diamondtriangles.svg	24	yes	44	1	958	0	0			0	0			1				0	
6.6.1	win	2023-06-27	09:39:42	09:53:24	815840	5c5cb3bf6a946500015a3411	3	1	main_z	11	advance_on_keypress_ZEE	122	stimuli_target_diamondsquares.svg	stimuli_distractor_diamondtriangles.svg	24	yes	57	0	287	0	0			0	0			1				0	
6.6.1	win	2023-06-27	09:39:42	09:53:26	817731	5c5cb3bf6a946500015a3411	3	1	main_z	11	main_z	123	stimuli_target_diamondrectangles.svg	stimuli_distractor_trianglediamonds.svg	19	yes	44	1	969	0	0			0	0			1				0	
6.6.1	win	2023-06-27	09:39:42	09:53:26	817731	5c5cb3bf6a946500015a3411	3	1	main_z	11	advance_on_keypress_ZEE	124	stimuli_target_diamondrectangles.svg	stimuli_distractor_trianglediamonds.svg	19	yes	57	0	273	0	0			0	0			1				0	
6.6.1	win	2023-06-27	09:39:42	09:53:28	819552	5c5cb3bf6a946500015a3411	3	1	main_z	11	main_z	125	stimuli_target_rectanglediamonds.svg	stimuli_distractor_trianglediamonds.svg	2	yes	44	1	914	0	0			0	0			1				0	
6.6.1	win	2023-06-27	09:39:42	09:53:28	819552	5c5cb3bf6a946500015a3411	3	1	main_z	11	advance_on_keypress_ZEE	126	stimuli_target_rectanglediamonds.svg	stimuli_distractor_trianglediamonds.svg	2	yes	57	0	268	0	0			0	0			1				0	
6.6.1	win	2023-06-27	09:39:42	09:53:30	821295	5c5cb3bf6a946500015a3411	3	1	main_z	11	main_z	127	stimuli_target_trianglesquares.svg	stimuli_distractor_diamondtriangles.svg	22	yes	44	1	827	0	0			0	0			1				0	
6.6.1	win	2023-06-27	09:39:42	09:53:30	821295	5c5cb3bf6a946500015a3411	3	1	main_z	11	advance_on_keypress_ZEE	128	stimuli_target_trianglesquares.svg	stimuli_distractor_diamondtriangles.svg	22	yes	57	0	242	0	0			0	0			1				0	
6.6.1	win	2023-06-27	09:39:42	09:53:33	824179	5c5cb3bf6a946500015a3411	3	1	main_z	11	main_z	129	stimuli_distractor_diamondtriangles.svg	stimuli_distractor_diamondtriangles.svg	40	no	0	1	2000	0	0			0	0			1				0	
6.6.1	win	2023-06-27	09:39:42	09:53:33	824179	5c5cb3bf6a946500015a3411	3	1	main_z	11	advance_on_keypress_ZEE	130	stimuli_distractor_diamondtriangles.svg	stimuli_distractor_diamondtriangles.svg	40	no	57	0	760	0	0			0	0			1				0	
6.6.1	win	2023-06-27	09:39:42	09:53:35	826413	5c5cb3bf6a946500015a3411	3	1	main_z	11	main_z	131	stimuli_distractor_diamondtriangles.svg	stimuli_target_squarediamonds.svg	16	yes	44	1	843	0	0			0	0			1				0	
6.6.1	win	2023-06-27	09:39:42	09:53:35	826413	5c5cb3bf6a946500015a3411	3	1	main_z	11	advance_on_keypress_ZEE	132	stimuli_distractor_diamondtriangles.svg	stimuli_target_squarediamonds.svg	16	yes	57	0	225	0	0			0	0			1				0	
6.6.1	win	2023-06-27	09:39:42	09:53:37	828168	5c5cb3bf6a946500015a3411	3	1	main_z	11	main_z	133	stimuli_target_rectangletriangles.svg	stimuli_distractor_diamondtriangles.svg	5	yes	44	1	886	0	0			0	0			1				0	
6.6.1	win	2023-06-27	09:39:42	09:53:37	828168	5c5cb3bf6a946500015a3411	3	1	main_z	11	advance_on_keypress_ZEE	134	stimuli_target_rectangletriangles.svg	stimuli_distractor_diamondtriangles.svg	5	yes	57	0	232	0	0			0	0			1				0	
6.6.1	win	2023-06-27	09:39:42	09:53:39	830213	5c5cb3bf6a946500015a3411	3	1	main_z	11	main_z	135	stimuli_distractor_trianglediamonds.svg	stimuli_distractor_diamondtriangles.svg	35	no	44	0	1169	0	0			0	0			1				0	
6.6.1	win	2023-06-27	09:39:42	09:53:39	830213	5c5cb3bf6a946500015a3411	3	1	main_z	11	advance_on_keypress_ZEE	136	stimuli_distractor_trianglediamonds.svg	stimuli_distractor_diamondtriangles.svg	35	no	57	0	303	0	0			0	0			1				0	
6.6.1	win	2023-06-27	09:39:42	09:53:41	832083	5c5cb3bf6a946500015a3411	3	1	main_z	11	main_z	137	stimuli_distractor_diamondtriangles.svg	stimuli_target_rectangletriangles.svg	13	yes	44	1	928	0	0			0	0			1				0	
6.6.1	win	2023-06-27	09:39:42	09:53:41	832083	5c5cb3bf6a946500015a3411	3	1	main_z	11	advance_on_keypress_ZEE	138	stimuli_distractor_diamondtriangles.svg	stimuli_target_rectangletriangles.svg	13	yes	57	0	239	0	0			0	0			1				0	
6.6.1	win	2023-06-27	09:39:42	09:53:42	833818	5c5cb3bf6a946500015a3411	3	1	main_z	11	main_z	139	stimuli_target_rectangletriangles.svg	stimuli_distractor_trianglediamonds.svg	1	yes	44	1	852	0	0			0	0			1				0	
6.6.1	win	2023-06-27	09:39:42	09:53:42	833818	5c5cb3bf6a946500015a3411	3	1	main_z	11	advance_on_keypress_ZEE	140	stimuli_target_rectangletriangles.svg	stimuli_distractor_trianglediamonds.svg	1	yes	57	0	276	0	0			0	0			1				0	
6.6.1	win	2023-06-27	09:39:42	09:53:44	835680	5c5cb3bf6a946500015a3411	3	1	main_z	11	main_z	141	stimuli_distractor_trianglediamonds.svg	stimuli_target_trianglerectangles.svg	25	yes	44	1	951	0	0			0	0			1				0	
6.6.1	win	2023-06-27	09:39:42	09:53:44	835680	5c5cb3bf6a946500015a3411	3	1	main_z	11	advance_on_keypress_ZEE	142	stimuli_distractor_trianglediamonds.svg	stimuli_target_trianglerectangles.svg	25	yes	57	0	269	0	0			0	0			1				0	
6.6.1	win	2023-06-27	09:39:42	09:53:46	837475	5c5cb3bf6a946500015a3411	3	1	main_z	11	main_z	143	stimuli_distractor_diamondtriangles.svg	stimuli_target_rectanglediamonds.svg	14	yes	44	1	883	0	0			0	0			1				0	
6.6.1	win	2023-06-27	09:39:42	09:53:46	837475	5c5cb3bf6a946500015a3411	3	1	main_z	11	advance_on_keypress_ZEE	144	stimuli_distractor_diamondtriangles.svg	stimuli_target_rectanglediamonds.svg	14	yes	57	0	252	0	0			0	0			1				0	
6.6.1	win	2023-06-27	09:39:42	09:53:48	839224	5c5cb3bf6a946500015a3411	3	1	main_z	11	main_z	145	stimuli_distractor_trianglediamonds.svg	stimuli_target_rectanglediamonds.svg	10	yes	44	1	856	0	0			0	0			1				0	
6.6.1	win	2023-06-27	09:39:42	09:53:48	839224	5c5cb3bf6a946500015a3411	3	1	main_z	11	advance_on_keypress_ZEE	146	stimuli_distractor_trianglediamonds.svg	stimuli_target_rectanglediamonds.svg	10	yes	57	0	257	0	0			0	0			1				0	
6.6.1	win	2023-06-27	09:39:42	09:53:49	841006	5c5cb3bf6a946500015a3411	3	1	main_z	11	main_z	147	stimuli_distractor_trianglediamonds.svg	stimuli_target_rectangletriangles.svg	9	yes	44	1	892	0	0			0	0			1				0	
6.6.1	win	2023-06-27	09:39:42	09:53:49	841006	5c5cb3bf6a946500015a3411	3	1	main_z	11	advance_on_keypress_ZEE	148	stimuli_distractor_trianglediamonds.svg	stimuli_target_rectangletriangles.svg	9	yes	57	0	238	0	0			0	0			1				0	
6.6.1	win	2023-06-27	09:39:42	09:53:51	842765	5c5cb3bf6a946500015a3411	3	1	main_z	11	main_z	149	stimuli_distractor_trianglediamonds.svg	stimuli_target_squaretriangles.svg	11	yes	44	1	873	0	0			0	0			1				0	
6.6.1	win	2023-06-27	09:39:42	09:53:51	842765	5c5cb3bf6a946500015a3411	3	1	main_z	11	advance_on_keypress_ZEE	150	stimuli_distractor_trianglediamonds.svg	stimuli_target_squaretriangles.svg	11	yes	57	0	236	0	0			0	0			1				0	
6.6.1	win	2023-06-27	09:39:42	09:53:53	844494	5c5cb3bf6a946500015a3411	3	1	main_z	11	main_z	151	stimuli_distractor_diamondtriangles.svg	stimuli_target_trianglesquares.svg	30	yes	44	1	857	0	0			0	0			1				0	
6.6.1	win	2023-06-27	09:39:42	09:53:53	844494	5c5cb3bf6a946500015a3411	3	1	main_z	11	advance_on_keypress_ZEE	152	stimuli_distractor_diamondtriangles.svg	stimuli_target_trianglesquares.svg	30	yes	57	0	262	0	0			0	0			1				0	
6.6.1	win	2023-06-27	09:39:42	09:53:55	846583	5c5cb3bf6a946500015a3411	3	1	main_z	11	main_z	153	stimuli_target_squarediamonds.svg	stimuli_distractor_trianglediamonds.svg	4	yes	44	1	1201	0	0			0	0			1				0	
6.6.1	win	2023-06-27	09:39:42	09:53:55	846583	5c5cb3bf6a946500015a3411	3	1	main_z	11	advance_on_keypress_ZEE	154	stimuli_target_squarediamonds.svg	stimuli_distractor_trianglediamonds.svg	4	yes	57	0	266	0	0			0	0			1				0	
6.6.1	win	2023-06-27	09:39:42	09:53:57	848325	5c5cb3bf6a946500015a3411	3	1	main_z	11	main_z	155	stimuli_target_rectanglediamonds.svg	stimuli_distractor_diamondtriangles.svg	6	yes	44	1	832	0	0			0	0			1				0	
6.6.1	win	2023-06-27	09:39:42	09:53:57	848325	5c5cb3bf6a946500015a3411	3	1	main_z	11	advance_on_keypress_ZEE	156	stimuli_target_rectanglediamonds.svg	stimuli_distractor_diamondtriangles.svg	6	yes	57	0	237	0	0			0	0			1				0	
6.6.1	win	2023-06-27	09:39:42	09:53:59	850097	5c5cb3bf6a946500015a3411	3	1	main_z	11	main_z	157	stimuli_distractor_trianglediamonds.svg	stimuli_target_diamondrectangles.svg	27	yes	44	1	892	0	0			0	0			1				0	
6.6.1	win	2023-06-27	09:39:42	09:53:59	850097	5c5cb3bf6a946500015a3411	3	1	main_z	11	advance_on_keypress_ZEE	158	stimuli_distractor_trianglediamonds.svg	stimuli_target_diamondrectangles.svg	27	yes	57	0	256	0	0			0	0			1				0	
6.6.1	win	2023-06-27	09:39:42	09:54:01	853001	5c5cb3bf6a946500015a3411	3	1	main_z	11	main_z	159	stimuli_distractor_trianglediamonds.svg	stimuli_distractor_trianglediamonds.svg	33	no	0	1	2000	0	0			0	0			1				0	
6.6.1	win	2023-06-27	09:39:42	09:54:01	853001	5c5cb3bf6a946500015a3411	3	1	main_z	11	advance_on_keypress_ZEE	160	stimuli_distractor_trianglediamonds.svg	stimuli_distractor_trianglediamonds.svg	33	no	57	0	562	0	0			0	0			1				0	
6.6.1	win	2023-06-27	09:39:42	09:54:01	853001	5c5cb3bf6a946500015a3411	3	1	headphonecheck_calibration	14	headphonecheck_calibrationIntro	1	stimuli_distractor_trianglediamonds.svg	stimuli_distractor_trianglediamonds.svg	33	no	calibrationButton	0	3585	0	0			0	0			1				0	
6.6.1	win	2023-06-27	09:39:42	09:54:01	853001	5c5cb3bf6a946500015a3411	3	1	headphonecheck_testphase	15	test_collectResponse	3	stimuli_distractor_trianglediamonds.svg	stimuli_distractor_trianglediamonds.svg	33	no	first	0	6273	1	5	antiphase_hc_osi.wav	2	0	0			1				0	
6.6.1	win	2023-06-27	09:39:42	09:54:01	853001	5c5cb3bf6a946500015a3411	3	1	headphonecheck_testphase	15	test_collectResponse	6	stimuli_distractor_trianglediamonds.svg	stimuli_distractor_trianglediamonds.svg	33	no	second	1	2752	2	1	antiphase_hc_iso.wav	2	0	0			1				0	
6.6.1	win	2023-06-27	09:39:42	09:54:01	853001	5c5cb3bf6a946500015a3411	3	1	headphonecheck_testphase	15	test_collectResponse	9	stimuli_distractor_trianglediamonds.svg	stimuli_distractor_trianglediamonds.svg	33	no	third	1	601	3	6	antiphase_hc_ois.wav	3	0	0			1				0	
6.6.1	win	2023-06-27	09:39:42	09:54:01	853001	5c5cb3bf6a946500015a3411	3	1	headphonecheck_testphase	15	test_collectResponse	12	stimuli_distractor_trianglediamonds.svg	stimuli_distractor_trianglediamonds.svg	33	no	third	0	830	4	4	antiphase_hc_sio.wav	1	0	0			1				0	
6.6.1	win	2023-06-27	09:39:42	09:54:01	853001	5c5cb3bf6a946500015a3411	3	1	headphonecheck_testphase	15	test_collectResponse	15	stimuli_distractor_trianglediamonds.svg	stimuli_distractor_trianglediamonds.svg	33	no	third	1	531	5	2	antiphase_hc_ios.wav	3	0	0			1				0	
6.6.1	win	2023-06-27	09:39:42	09:54:01	853001	5c5cb3bf6a946500015a3411	3	1	headphonecheck_testphase	15	test_collectResponse	18	stimuli_distractor_trianglediamonds.svg	stimuli_distractor_trianglediamonds.svg	33	no	first	1	1807	6	3	antiphase_hc_soi.wav	1	0	0			1				0	
6.6.1	win	2023-06-27	09:39:42	09:54:01	853001	5c5cb3bf6a946500015a3411	3	1	stereocheck_calibration	17	stereocheck_calibrationIntro	1	stimuli_distractor_trianglediamonds.svg	stimuli_distractor_trianglediamonds.svg	33	no	stereocheck_calibrationButton	0	4366	6	3	antiphase_hc_soi.wav	1	0	0			1				0	
6.6.1	win	2023-06-27	09:39:42	09:54:01	853001	5c5cb3bf6a946500015a3411	3	1	stereocheck_testphase	18	stereocheck_test_collectResponse	3	stimuli_distractor_trianglediamonds.svg	stimuli_distractor_trianglediamonds.svg	33	no	stereocheck_right	1	7275	6	3	antiphase_hc_soi.wav	1	1	6	noise_calib_stim_RIGHT.wav	2	1				0	
6.6.1	win	2023-06-27	09:39:42	09:54:01	853001	5c5cb3bf6a946500015a3411	3	1	stereocheck_testphase	18	stereocheck_test_collectResponse	6	stimuli_distractor_trianglediamonds.svg	stimuli_distractor_trianglediamonds.svg	33	no	stereocheck_right	1	509	6	3	antiphase_hc_soi.wav	1	2	5	noise_calib_stim_RIGHT.wav	2	1				0	
6.6.1	win	2023-06-27	09:39:42	09:54:01	853001	5c5cb3bf6a946500015a3411	3	1	stereocheck_testphase	18	stereocheck_test_collectResponse	9	stimuli_distractor_trianglediamonds.svg	stimuli_distractor_trianglediamonds.svg	33	no	stereocheck_left	1	4222	6	3	antiphase_hc_soi.wav	1	3	3	noise_calib_stim_LEFT.wav	1	1				0	
6.6.1	win	2023-06-27	09:39:42	09:54:01	853001	5c5cb3bf6a946500015a3411	3	1	stereocheck_testphase	18	stereocheck_test_collectResponse	12	stimuli_distractor_trianglediamonds.svg	stimuli_distractor_trianglediamonds.svg	33	no	stereocheck_right	1	508	6	3	antiphase_hc_soi.wav	1	4	4	noise_calib_stim_RIGHT.wav	2	1				0	
6.6.1	win	2023-06-27	09:39:42	09:54:01	853001	5c5cb3bf6a946500015a3411	3	1	stereocheck_testphase	18	stereocheck_test_collectResponse	15	stimuli_distractor_trianglediamonds.svg	stimuli_distractor_trianglediamonds.svg	33	no	stereocheck_left	1	646	6	3	antiphase_hc_soi.wav	1	5	2	noise_calib_stim_LEFT.wav	1	1				0	
6.6.1	win	2023-06-27	09:39:42	09:54:01	853001	5c5cb3bf6a946500015a3411	3	1	stereocheck_testphase	18	stereocheck_test_collectResponse	18	stimuli_distractor_trianglediamonds.svg	stimuli_distractor_trianglediamonds.svg	33	no	stereocheck_left	1	936	6	3	antiphase_hc_soi.wav	1	6	1	noise_calib_stim_LEFT.wav	1	1				0	
6.6.1	win	2023-06-27	09:39:42	09:54:01	853001	5c5cb3bf6a946500015a3411	3	1	DL_practice	21	DL_practice	2	stimuli_distractor_trianglediamonds.svg	stimuli_distractor_trianglediamonds.svg	33	no	da	1	1362	6	3	antiphase_hc_soi.wav	1	6	1	noise_calib_stim_LEFT.wav	1	8	blb_dichoticlistening_da-da.mp3	da	da	0	left
6.6.1	win	2023-06-27	09:39:42	09:54:01	853001	5c5cb3bf6a946500015a3411	3	1	DL_practice	21	DL_practice	3	stimuli_distractor_trianglediamonds.svg	stimuli_distractor_trianglediamonds.svg	33	no	ba	1	1401	6	3	antiphase_hc_soi.wav	1	6	1	noise_calib_stim_LEFT.wav	1	1	blb_dichoticlistening_ba-ba.mp3	ba	ba	0	left
6.6.1	win	2023-06-27	09:39:42	09:54:01	853001	5c5cb3bf6a946500015a3411	3	1	DL_practice	21	DL_practice	4	stimuli_distractor_trianglediamonds.svg	stimuli_distractor_trianglediamonds.svg	33	no	da	1	1436	6	3	antiphase_hc_soi.wav	1	6	1	noise_calib_stim_LEFT.wav	1	7	blb_dichoticlistening_da-ba.mp3	da	ba	1	left
6.6.1	win	2023-06-27	09:39:42	09:54:01	853001	5c5cb3bf6a946500015a3411	3	1	DL_practice	21	DL_practice	5	stimuli_distractor_trianglediamonds.svg	stimuli_distractor_trianglediamonds.svg	33	no	ka	0	1564	6	3	antiphase_hc_soi.wav	1	6	1	noise_calib_stim_LEFT.wav	1	18	blb_dichoticlistening_ga-ta.mp3	ga	ta	1	other
6.6.1	win	2023-06-27	09:39:42	09:54:01	853001	5c5cb3bf6a946500015a3411	3	1	DL_practice	21	DL_practice	6	stimuli_distractor_trianglediamonds.svg	stimuli_distractor_trianglediamonds.svg	33	no	ta	1	2556	6	3	antiphase_hc_soi.wav	1	6	1	noise_calib_stim_LEFT.wav	1	36	blb_dichoticlistening_ta-ta.mp3	ta	ta	0	left
6.6.1	win	2023-06-27	09:39:42	09:54:01	853001	5c5cb3bf6a946500015a3411	3	1	DL_practice	21	DL_practice	7	stimuli_distractor_trianglediamonds.svg	stimuli_distractor_trianglediamonds.svg	33	no	pa	1	1388	6	3	antiphase_hc_soi.wav	1	6	1	noise_calib_stim_LEFT.wav	1	29	blb_dichoticlistening_pa-pa.mp3	pa	pa	0	left
6.6.1	win	2023-06-27	09:39:42	09:54:01	853001	5c5cb3bf6a946500015a3411	3	1	DL_practice	21	DL_practice	8	stimuli_distractor_trianglediamonds.svg	stimuli_distractor_trianglediamonds.svg	33	no	ka	1	1071	6	3	antiphase_hc_soi.wav	1	6	1	noise_calib_stim_LEFT.wav	1	23	blb_dichoticlistening_ka-pa.mp3	ka	pa	1	left
6.6.1	win	2023-06-27	09:39:42	09:54:01	853001	5c5cb3bf6a946500015a3411	3	1	DL_practice	21	DL_practice	9	stimuli_distractor_trianglediamonds.svg	stimuli_distractor_trianglediamonds.svg	33	no	ka	1	1152	6	3	antiphase_hc_soi.wav	1	6	1	noise_calib_stim_LEFT.wav	1	22	blb_dichoticlistening_ka-ka.mp3	ka	ka	0	left
6.6.1	win	2023-06-27	09:39:42	09:54:01	853001	5c5cb3bf6a946500015a3411	3	1	DL_practice	21	DL_practice	10	stimuli_distractor_trianglediamonds.svg	stimuli_distractor_trianglediamonds.svg	33	no	ga	1	1243	6	3	antiphase_hc_soi.wav	1	6	1	noise_calib_stim_LEFT.wav	1	15	blb_dichoticlistening_ga-ga.mp3	ga	ga	0	left
6.6.1	win	2023-06-27	09:39:42	09:54:01	853001	5c5cb3bf6a946500015a3411	3	1	DL_test	23	DL_test	1	stimuli_distractor_trianglediamonds.svg	stimuli_distractor_trianglediamonds.svg	33	no	ga	1	886	6	3	antiphase_hc_soi.wav	1	6	1	noise_calib_stim_LEFT.wav	1	15	blb_dichoticlistening_ga-ga.mp3	ga	ga	0	left
6.6.1	win	2023-06-27	09:39:42	09:54:01	853001	5c5cb3bf6a946500015a3411	3	1	DL_test	23	DL_test	2	stimuli_distractor_trianglediamonds.svg	stimuli_distractor_trianglediamonds.svg	33	no	ta	1	2264	6	3	antiphase_hc_soi.wav	1	6	1	noise_calib_stim_LEFT.wav	1	30	blb_dichoticlistening_pa-ta.mp3	pa	ta	1	right
6.6.1	win	2023-06-27	09:39:42	09:54:01	853001	5c5cb3bf6a946500015a3411	3	1	DL_test	23	DL_test	3	stimuli_distractor_trianglediamonds.svg	stimuli_distractor_trianglediamonds.svg	33	no	ka	1	1027	6	3	antiphase_hc_soi.wav	1	6	1	noise_calib_stim_LEFT.wav	1	23	blb_dichoticlistening_ka-pa.mp3	ka	pa	1	left
6.6.1	win	2023-06-27	09:39:42	09:54:01	853001	5c5cb3bf6a946500015a3411	3	1	DL_test	23	DL_test	4	stimuli_distractor_trianglediamonds.svg	stimuli_distractor_trianglediamonds.svg	33	no	da	0	2375	6	3	antiphase_hc_soi.wav	1	6	1	noise_calib_stim_LEFT.wav	1	13	blb_dichoticlistening_ga-ba.mp3	ga	ba	1	other
6.6.1	win	2023-06-27	09:39:42	09:54:01	853001	5c5cb3bf6a946500015a3411	3	1	DL_test	23	DL_test	5	stimuli_distractor_trianglediamonds.svg	stimuli_distractor_trianglediamonds.svg	33	no	ka	1	1347	6	3	antiphase_hc_soi.wav	1	6	1	noise_calib_stim_LEFT.wav	1	4	blb_dichoticlistening_ba-ka.mp3	ba	ka	1	right
6.6.1	win	2023-06-27	09:39:42	09:54:01	853001	5c5cb3bf6a946500015a3411	3	1	DL_test	23	DL_test	6	stimuli_distractor_trianglediamonds.svg	stimuli_distractor_trianglediamonds.svg	33	no	ta	1	1783	6	3	antiphase_hc_soi.wav	1	6	1	noise_calib_stim_LEFT.wav	1	36	blb_dichoticlistening_ta-ta.mp3	ta	ta	0	left
6.6.1	win	2023-06-27	09:39:42	09:54:01	853001	5c5cb3bf6a946500015a3411	3	1	DL_test	23	DL_test	7	stimuli_distractor_trianglediamonds.svg	stimuli_distractor_trianglediamonds.svg	33	no	da	1	1601	6	3	antiphase_hc_soi.wav	1	6	1	noise_calib_stim_LEFT.wav	1	7	blb_dichoticlistening_da-ba.mp3	da	ba	1	left
6.6.1	win	2023-06-27	09:39:42	09:54:01	853001	5c5cb3bf6a946500015a3411	3	1	DL_test	23	DL_test	8	stimuli_distractor_trianglediamonds.svg	stimuli_distractor_trianglediamonds.svg	33	no	da	1	1494	6	3	antiphase_hc_soi.wav	1	6	1	noise_calib_stim_LEFT.wav	1	11	blb_dichoticlistening_da-pa.mp3	da	pa	1	left
6.6.1	win	2023-06-27	09:39:42	09:54:01	853001	5c5cb3bf6a946500015a3411	3	1	DL_test	23	DL_test	9	stimuli_distractor_trianglediamonds.svg	stimuli_distractor_trianglediamonds.svg	33	no	ta	1	2510	6	3	antiphase_hc_soi.wav	1	6	1	noise_calib_stim_LEFT.wav	1	32	blb_dichoticlistening_ta-da.mp3	ta	da	1	left
6.6.1	win	2023-06-27	09:39:42	09:54:01	853001	5c5cb3bf6a946500015a3411	3	1	DL_test	23	DL_test	10	stimuli_distractor_trianglediamonds.svg	stimuli_distractor_trianglediamonds.svg	33	no	ka	0	1791	6	3	antiphase_hc_soi.wav	1	6	1	noise_calib_stim_LEFT.wav	1	17	blb_dichoticlistening_ga-pa.mp3	ga	pa	1	other
6.6.1	win	2023-06-27	09:39:42	09:54:01	853001	5c5cb3bf6a946500015a3411	3	1	DL_test	23	DL_test	11	stimuli_distractor_trianglediamonds.svg	stimuli_distractor_trianglediamonds.svg	33	no	ka	1	1749	6	3	antiphase_hc_soi.wav	1	6	1	noise_calib_stim_LEFT.wav	1	19	blb_dichoticlistening_ka-ba.mp3	ka	ba	1	left
6.6.1	win	2023-06-27	09:39:42	09:54:01	853001	5c5cb3bf6a946500015a3411	3	1	DL_test	23	DL_test	12	stimuli_distractor_trianglediamonds.svg	stimuli_distractor_trianglediamonds.svg	33	no	pa	1	2516	6	3	antiphase_hc_soi.wav	1	6	1	noise_calib_stim_LEFT.wav	1	25	blb_dichoticlistening_pa-ba.mp3	pa	ba	1	left
6.6.1	win	2023-06-27	09:39:42	09:54:01	853001	5c5cb3bf6a946500015a3411	3	1	DL_test	23	DL_test	13	stimuli_distractor_trianglediamonds.svg	stimuli_distractor_trianglediamonds.svg	33	no	ta	1	1807	6	3	antiphase_hc_soi.wav	1	6	1	noise_calib_stim_LEFT.wav	1	35	blb_dichoticlistening_ta-pa.mp3	ta	pa	1	left
6.6.1	win	2023-06-27	09:39:42	09:54:01	853001	5c5cb3bf6a946500015a3411	3	1	DL_test	23	DL_test	14	stimuli_distractor_trianglediamonds.svg	stimuli_distractor_trianglediamonds.svg	33	no	ka	1	1557	6	3	antiphase_hc_soi.wav	1	6	1	noise_calib_stim_LEFT.wav	1	16	blb_dichoticlistening_ga-ka.mp3	ga	ka	1	right
6.6.1	win	2023-06-27	09:39:42	09:54:01	853001	5c5cb3bf6a946500015a3411	3	1	DL_test	23	DL_test	15	stimuli_distractor_trianglediamonds.svg	stimuli_distractor_trianglediamonds.svg	33	no	ba	1	1912	6	3	antiphase_hc_soi.wav	1	6	1	noise_calib_stim_LEFT.wav	1	1	blb_dichoticlistening_ba-ba.mp3	ba	ba	0	left
6.6.1	win	2023-06-27	09:39:42	09:54:01	853001	5c5cb3bf6a946500015a3411	3	1	DL_test	23	DL_test	16	stimuli_distractor_trianglediamonds.svg	stimuli_distractor_trianglediamonds.svg	33	no	pa	1	1668	6	3	antiphase_hc_soi.wav	1	6	1	noise_calib_stim_LEFT.wav	1	5	blb_dichoticlistening_ba-pa.mp3	ba	pa	1	right
6.6.1	win	2023-06-27	09:39:42	09:54:01	853001	5c5cb3bf6a946500015a3411	3	1	DL_test	23	DL_test	17	stimuli_distractor_trianglediamonds.svg	stimuli_distractor_trianglediamonds.svg	33	no	da	1	1587	6	3	antiphase_hc_soi.wav	1	6	1	noise_calib_stim_LEFT.wav	1	8	blb_dichoticlistening_da-da.mp3	da	da	0	left
6.6.1	win	2023-06-27	09:39:42	09:54:01	853001	5c5cb3bf6a946500015a3411	3	1	DL_test	23	DL_test	18	stimuli_distractor_trianglediamonds.svg	stimuli_distractor_trianglediamonds.svg	33	no	ka	0	1458	6	3	antiphase_hc_soi.wav	1	6	1	noise_calib_stim_LEFT.wav	1	27	blb_dichoticlistening_pa-ga.mp3	pa	ga	1	other
6.6.1	win	2023-06-27	09:39:42	09:54:01	853001	5c5cb3bf6a946500015a3411	3	1	DL_test	23	DL_test	19	stimuli_distractor_trianglediamonds.svg	stimuli_distractor_trianglediamonds.svg	33	no	da	1	1472	6	3	antiphase_hc_soi.wav	1	6	1	noise_calib_stim_LEFT.wav	1	9	blb_dichoticlistening_da-ga.mp3	da	ga	1	left
6.6.1	win	2023-06-27	09:39:42	09:54:01	853001	5c5cb3bf6a946500015a3411	3	1	DL_test	23	DL_test	20	stimuli_distractor_trianglediamonds.svg	stimuli_distractor_trianglediamonds.svg	33	no	ka	1	1278	6	3	antiphase_hc_soi.wav	1	6	1	noise_calib_stim_LEFT.wav	1	21	blb_dichoticlistening_ka-ga.mp3	ka	ga	1	left
6.6.1	win	2023-06-27	09:39:42	09:54:01	853001	5c5cb3bf6a946500015a3411	3	1	DL_test	23	DL_test	21	stimuli_distractor_trianglediamonds.svg	stimuli_distractor_trianglediamonds.svg	33	no	ka	1	1349	6	3	antiphase_hc_soi.wav	1	6	1	noise_calib_stim_LEFT.wav	1	20	blb_dichoticlistening_ka-da.mp3	ka	da	1	left
6.6.1	win	2023-06-27	09:39:42	09:54:01	853001	5c5cb3bf6a946500015a3411	3	1	DL_test	23	DL_test	22	stimuli_distractor_trianglediamonds.svg	stimuli_distractor_trianglediamonds.svg	33	no	da	1	1530	6	3	antiphase_hc_soi.wav	1	6	1	noise_calib_stim_LEFT.wav	1	14	blb_dichoticlistening_ga-da.mp3	ga	da	1	right
6.6.1	win	2023-06-27	09:39:42	09:54:01	853001	5c5cb3bf6a946500015a3411	3	1	DL_test	23	DL_test	23	stimuli_distractor_trianglediamonds.svg	stimuli_distractor_trianglediamonds.svg	33	no	pa	1	1489	6	3	antiphase_hc_soi.wav	1	6	1	noise_calib_stim_LEFT.wav	1	29	blb_dichoticlistening_pa-pa.mp3	pa	pa	0	left
6.6.1	win	2023-06-27	09:39:42	09:54:01	853001	5c5cb3bf6a946500015a3411	3	1	DL_test	23	DL_test	24	stimuli_distractor_trianglediamonds.svg	stimuli_distractor_trianglediamonds.svg	33	no	ta	1	1907	6	3	antiphase_hc_soi.wav	1	6	1	noise_calib_stim_LEFT.wav	1	31	blb_dichoticlistening_ta-ba.mp3	ta	ba	1	left
6.6.1	win	2023-06-27	09:39:42	09:54:01	853001	5c5cb3bf6a946500015a3411	3	1	DL_test	23	DL_test	25	stimuli_distractor_trianglediamonds.svg	stimuli_distractor_trianglediamonds.svg	33	no	ka	1	1451	6	3	antiphase_hc_soi.wav	1	6	1	noise_calib_stim_LEFT.wav	1	34	blb_dichoticlistening_ta-ka.mp3	ta	ka	1	right
