build	computer.platform	date	time	timestamp	time_elapsed_ms	subject	group	session	blockcode	blocknum	trialcode	trialnum	stimulus_left	stimulus_right	stim_index	target_present	response	correct	latency	headphonecheck_countTestTrials	headphonecheck_index	headphonecheck_testSound	headphonecheck_correctResponse	stereocheck_countTestTrials	stereocheck_index	stereocheck_testSound	stereocheck_correctResponse	DL_index	DL_soundfile	DL_leftSound	DL_rightSound	DL_dualSound	DL_choice
6.6.1	win	2023-06-28	09:17:13	09:22:32	307065	5e4192083514ba02bc057574	4	1	practice_z	5	practice_z	1	stimuli_target_rectanglediamonds.svg	stimuli_distractor_diamondtriangles.svg	1	yes	0	0	2000	0	0			0	0			1				0	
6.6.1	win	2023-06-28	09:17:13	09:22:32	307065	5e4192083514ba02bc057574	4	1	practice_z	5	advance_on_keypress_ZEE	2	stimuli_target_rectanglediamonds.svg	stimuli_distractor_diamondtriangles.svg	1	yes	57	0	1316	0	0			0	0			1				0	
6.6.1	win	2023-06-28	09:17:13	09:22:37	312051	5e4192083514ba02bc057574	4	1	practice_z	5	practice_z	3	stimuli_distractor_diamondtriangles.svg	stimuli_distractor_trianglediamonds.svg	14	no	0	1	2000	0	0			0	0			1				0	
6.6.1	win	2023-06-28	09:17:13	09:22:37	312051	5e4192083514ba02bc057574	4	1	practice_z	5	advance_on_keypress_ZEE	4	stimuli_distractor_diamondtriangles.svg	stimuli_distractor_trianglediamonds.svg	14	no	57	0	1304	0	0			0	0			1				0	
6.6.1	win	2023-06-28	09:17:13	09:22:41	316258	5e4192083514ba02bc057574	4	1	practice_z	5	practice_z	5	stimuli_target_diamondsquares.svg	stimuli_distractor_diamondtriangles.svg	3	yes	44	1	1202	0	0			0	0			1				0	
6.6.1	win	2023-06-28	09:17:13	09:22:41	316258	5e4192083514ba02bc057574	4	1	practice_z	5	advance_on_keypress_ZEE	6	stimuli_target_diamondsquares.svg	stimuli_distractor_diamondtriangles.svg	3	yes	57	0	1985	0	0			0	0			1				0	
6.6.1	win	2023-06-28	09:17:13	09:22:46	320878	5e4192083514ba02bc057574	4	1	practice_z	5	practice_z	7	stimuli_distractor_diamondtriangles.svg	stimuli_target_diamondrectangles.svg	8	yes	44	1	967	0	0			0	0			1				0	
6.6.1	win	2023-06-28	09:17:13	09:22:46	320878	5e4192083514ba02bc057574	4	1	practice_z	5	advance_on_keypress_ZEE	8	stimuli_distractor_diamondtriangles.svg	stimuli_target_diamondrectangles.svg	8	yes	57	0	1028	0	0			0	0			1				0	
6.6.1	win	2023-06-28	09:17:13	09:22:51	325558	5e4192083514ba02bc057574	4	1	practice_z	5	practice_z	9	stimuli_distractor_trianglediamonds.svg	stimuli_target_diamondrectangles.svg	12	yes	0	0	2000	0	0			0	0			1				0	
6.6.1	win	2023-06-28	09:17:13	09:22:51	325558	5e4192083514ba02bc057574	4	1	practice_z	5	advance_on_keypress_ZEE	10	stimuli_distractor_trianglediamonds.svg	stimuli_target_diamondrectangles.svg	12	yes	57	0	1065	0	0			0	0			1				0	
6.6.1	win	2023-06-28	09:17:13	09:22:55	329421	5e4192083514ba02bc057574	4	1	practice_z	5	practice_z	11	stimuli_target_diamondsquares.svg	stimuli_distractor_trianglediamonds.svg	6	yes	44	1	1137	0	0			0	0			1				0	
6.6.1	win	2023-06-28	09:17:13	09:22:55	329421	5e4192083514ba02bc057574	4	1	practice_z	5	advance_on_keypress_ZEE	12	stimuli_target_diamondsquares.svg	stimuli_distractor_trianglediamonds.svg	6	yes	57	0	722	0	0			0	0			1				0	
6.6.1	win	2023-06-28	09:17:13	09:22:59	333817	5e4192083514ba02bc057574	4	1	practice_z	5	practice_z	13	stimuli_distractor_trianglediamonds.svg	stimuli_distractor_diamondtriangles.svg	16	no	0	1	2000	0	0			0	0			1				0	
6.6.1	win	2023-06-28	09:17:13	09:22:59	333817	5e4192083514ba02bc057574	4	1	practice_z	5	advance_on_keypress_ZEE	14	stimuli_distractor_trianglediamonds.svg	stimuli_distractor_diamondtriangles.svg	16	no	57	0	885	0	0			0	0			1				0	
6.6.1	win	2023-06-28	09:17:13	09:23:04	338371	5e4192083514ba02bc057574	4	1	practice_z	5	practice_z	15	stimuli_distractor_trianglediamonds.svg	stimuli_distractor_trianglediamonds.svg	15	no	0	1	2000	0	0			0	0			1				0	
6.6.1	win	2023-06-28	09:17:13	09:23:04	338371	5e4192083514ba02bc057574	4	1	practice_z	5	advance_on_keypress_ZEE	16	stimuli_distractor_trianglediamonds.svg	stimuli_distractor_trianglediamonds.svg	15	no	57	0	841	0	0			0	0			1				0	
6.6.1	win	2023-06-28	09:17:13	09:23:08	342869	5e4192083514ba02bc057574	4	1	practice_z	5	practice_z	17	stimuli_target_squarediamonds.svg	stimuli_distractor_diamondtriangles.svg	2	yes	0	0	2000	0	0			0	0			1				0	
6.6.1	win	2023-06-28	09:17:13	09:23:08	342869	5e4192083514ba02bc057574	4	1	practice_z	5	advance_on_keypress_ZEE	18	stimuli_target_squarediamonds.svg	stimuli_distractor_diamondtriangles.svg	2	yes	57	0	728	0	0			0	0			1				0	
6.6.1	win	2023-06-28	09:17:13	09:23:12	346652	5e4192083514ba02bc057574	4	1	practice_z	5	practice_z	19	stimuli_distractor_trianglediamonds.svg	stimuli_target_rectanglediamonds.svg	10	yes	44	1	1374	0	0			0	0			1				0	
6.6.1	win	2023-06-28	09:17:13	09:23:12	346652	5e4192083514ba02bc057574	4	1	practice_z	5	advance_on_keypress_ZEE	20	stimuli_distractor_trianglediamonds.svg	stimuli_target_rectanglediamonds.svg	10	yes	57	0	633	0	0			0	0			1				0	
6.6.1	win	2023-06-28	09:17:13	09:23:15	349974	5e4192083514ba02bc057574	4	1	practice_z	5	practice_z	21	stimuli_target_rectanglediamonds.svg	stimuli_distractor_trianglediamonds.svg	4	yes	44	1	997	0	0			0	0			1				0	
6.6.1	win	2023-06-28	09:17:13	09:23:15	349974	5e4192083514ba02bc057574	4	1	practice_z	5	advance_on_keypress_ZEE	22	stimuli_target_rectanglediamonds.svg	stimuli_distractor_trianglediamonds.svg	4	yes	57	0	614	0	0			0	0			1				0	
6.6.1	win	2023-06-28	09:17:13	09:23:18	353146	5e4192083514ba02bc057574	4	1	practice_z	5	practice_z	23	stimuli_distractor_diamondtriangles.svg	stimuli_target_trianglerectangles.svg	9	yes	44	1	880	0	0			0	0			1				0	
6.6.1	win	2023-06-28	09:17:13	09:23:18	353146	5e4192083514ba02bc057574	4	1	practice_z	5	advance_on_keypress_ZEE	24	stimuli_distractor_diamondtriangles.svg	stimuli_target_trianglerectangles.svg	9	yes	57	0	498	0	0			0	0			1				0	
6.6.1	win	2023-06-28	09:17:13	09:23:22	356827	5e4192083514ba02bc057574	4	1	practice_z	5	practice_z	25	stimuli_distractor_diamondtriangles.svg	stimuli_target_rectangletriangles.svg	7	yes	44	1	1529	0	0			0	0			1				0	
6.6.1	win	2023-06-28	09:17:13	09:23:22	356827	5e4192083514ba02bc057574	4	1	practice_z	5	advance_on_keypress_ZEE	26	stimuli_distractor_diamondtriangles.svg	stimuli_target_rectangletriangles.svg	7	yes	57	0	1576	0	0			0	0			1				0	
6.6.1	win	2023-06-28	09:17:13	09:23:26	361217	5e4192083514ba02bc057574	4	1	practice_z	5	practice_z	27	stimuli_distractor_diamondtriangles.svg	stimuli_distractor_diamondtriangles.svg	13	no	44	0	1143	0	0			0	0			1				0	
6.6.1	win	2023-06-28	09:17:13	09:23:26	361217	5e4192083514ba02bc057574	4	1	practice_z	5	advance_on_keypress_ZEE	28	stimuli_distractor_diamondtriangles.svg	stimuli_distractor_diamondtriangles.svg	13	no	57	0	656	0	0			0	0			1				0	
6.6.1	win	2023-06-28	09:17:13	09:23:30	364904	5e4192083514ba02bc057574	4	1	practice_z	5	practice_z	29	stimuli_distractor_trianglediamonds.svg	stimuli_target_squarediamonds.svg	11	yes	44	1	1348	0	0			0	0			1				0	
6.6.1	win	2023-06-28	09:17:13	09:23:30	364904	5e4192083514ba02bc057574	4	1	practice_z	5	advance_on_keypress_ZEE	30	stimuli_distractor_trianglediamonds.svg	stimuli_target_squarediamonds.svg	11	yes	57	0	728	0	0			0	0			1				0	
6.6.1	win	2023-06-28	09:17:13	09:23:34	368348	5e4192083514ba02bc057574	4	1	practice_z	5	practice_z	31	stimuli_target_squarediamonds.svg	stimuli_distractor_trianglediamonds.svg	5	yes	44	1	1037	0	0			0	0			1				0	
6.6.1	win	2023-06-28	09:17:13	09:23:34	368348	5e4192083514ba02bc057574	4	1	practice_z	5	advance_on_keypress_ZEE	32	stimuli_target_squarediamonds.svg	stimuli_distractor_trianglediamonds.svg	5	yes	57	0	525	0	0			0	0			1				0	
6.6.1	win	2023-06-28	09:17:13	09:25:11	465383	5e4192083514ba02bc057574	4	1	main_z	7	main_z	1	stimuli_distractor_diamondtriangles.svg	stimuli_target_rectangletriangles.svg	13	yes	44	1	1126	0	0			0	0			1				0	
6.6.1	win	2023-06-28	09:17:13	09:25:11	465383	5e4192083514ba02bc057574	4	1	main_z	7	advance_on_keypress_ZEE	2	stimuli_distractor_diamondtriangles.svg	stimuli_target_rectangletriangles.svg	13	yes	57	0	1575	0	0			0	0			1				0	
6.6.1	win	2023-06-28	09:17:13	09:25:13	467986	5e4192083514ba02bc057574	4	1	main_z	7	main_z	3	stimuli_target_squarediamonds.svg	stimuli_distractor_trianglediamonds.svg	4	yes	44	1	398	0	0			0	0			1				0	
6.6.1	win	2023-06-28	09:17:13	09:25:13	467986	5e4192083514ba02bc057574	4	1	main_z	7	advance_on_keypress_ZEE	4	stimuli_target_squarediamonds.svg	stimuli_distractor_trianglediamonds.svg	4	yes	57	0	1692	0	0			0	0			1				0	
6.6.1	win	2023-06-28	09:17:13	09:25:16	470867	5e4192083514ba02bc057574	4	1	main_z	7	main_z	5	stimuli_distractor_trianglediamonds.svg	stimuli_target_squarediamonds.svg	12	yes	44	1	546	0	0			0	0			1				0	
6.6.1	win	2023-06-28	09:17:13	09:25:16	470867	5e4192083514ba02bc057574	4	1	main_z	7	advance_on_keypress_ZEE	6	stimuli_distractor_trianglediamonds.svg	stimuli_target_squarediamonds.svg	12	yes	57	0	1137	0	0			0	0			1				0	
6.6.1	win	2023-06-28	09:17:13	09:25:20	474653	5e4192083514ba02bc057574	4	1	main_z	7	main_z	7	stimuli_distractor_diamondtriangles.svg	stimuli_target_diamondrectangles.svg	31	yes	0	0	2000	0	0			0	0			1				0	
6.6.1	win	2023-06-28	09:17:13	09:25:20	474653	5e4192083514ba02bc057574	4	1	main_z	7	advance_on_keypress_ZEE	8	stimuli_distractor_diamondtriangles.svg	stimuli_target_diamondrectangles.svg	31	yes	57	0	1020	0	0			0	0			1				0	
6.6.1	win	2023-06-28	09:17:13	09:25:22	476726	5e4192083514ba02bc057574	4	1	main_z	7	main_z	9	stimuli_target_rectangletriangles.svg	stimuli_distractor_trianglediamonds.svg	1	yes	44	1	408	0	0			0	0			1				0	
6.6.1	win	2023-06-28	09:17:13	09:25:22	476726	5e4192083514ba02bc057574	4	1	main_z	7	advance_on_keypress_ZEE	10	stimuli_target_rectangletriangles.svg	stimuli_distractor_trianglediamonds.svg	1	yes	57	0	1598	0	0			0	0			1				0	
6.6.1	win	2023-06-28	09:17:13	09:25:25	479364	5e4192083514ba02bc057574	4	1	main_z	7	main_z	11	stimuli_target_rectanglediamonds.svg	stimuli_distractor_trianglediamonds.svg	2	yes	44	1	396	0	0			0	0			1				0	
6.6.1	win	2023-06-28	09:17:13	09:25:25	479364	5e4192083514ba02bc057574	4	1	main_z	7	advance_on_keypress_ZEE	12	stimuli_target_rectanglediamonds.svg	stimuli_distractor_trianglediamonds.svg	2	yes	57	0	1197	0	0			0	0			1				0	
6.6.1	win	2023-06-28	09:17:13	09:25:27	481748	5e4192083514ba02bc057574	4	1	main_z	7	main_z	13	stimuli_distractor_trianglediamonds.svg	stimuli_target_rectangletriangles.svg	9	yes	44	1	532	0	0			0	0			1				0	
6.6.1	win	2023-06-28	09:17:13	09:25:27	481748	5e4192083514ba02bc057574	4	1	main_z	7	advance_on_keypress_ZEE	14	stimuli_distractor_trianglediamonds.svg	stimuli_target_rectangletriangles.svg	9	yes	57	0	1297	0	0			0	0			1				0	
6.6.1	win	2023-06-28	09:17:13	09:25:31	485699	5e4192083514ba02bc057574	4	1	main_z	7	main_z	15	stimuli_distractor_diamondtriangles.svg	stimuli_distractor_trianglediamonds.svg	37	no	0	1	2000	0	0			0	0			1				0	
6.6.1	win	2023-06-28	09:17:13	09:25:31	485699	5e4192083514ba02bc057574	4	1	main_z	7	advance_on_keypress_ZEE	16	stimuli_distractor_diamondtriangles.svg	stimuli_distractor_trianglediamonds.svg	37	no	57	0	840	0	0			0	0			1				0	
6.6.1	win	2023-06-28	09:17:13	09:25:33	487915	5e4192083514ba02bc057574	4	1	main_z	7	main_z	17	stimuli_distractor_diamondtriangles.svg	stimuli_target_diamondsquares.svg	32	yes	44	1	733	0	0			0	0			1				0	
6.6.1	win	2023-06-28	09:17:13	09:25:33	487915	5e4192083514ba02bc057574	4	1	main_z	7	advance_on_keypress_ZEE	18	stimuli_distractor_diamondtriangles.svg	stimuli_target_diamondsquares.svg	32	yes	57	0	977	0	0			0	0			1				0	
6.6.1	win	2023-06-28	09:17:13	09:25:35	490249	5e4192083514ba02bc057574	4	1	main_z	7	main_z	19	stimuli_distractor_trianglediamonds.svg	stimuli_target_squaretriangles.svg	11	yes	44	1	718	0	0			0	0			1				0	
6.6.1	win	2023-06-28	09:17:13	09:25:35	490249	5e4192083514ba02bc057574	4	1	main_z	7	advance_on_keypress_ZEE	20	stimuli_distractor_trianglediamonds.svg	stimuli_target_squaretriangles.svg	11	yes	57	0	1003	0	0			0	0			1				0	
6.6.1	win	2023-06-28	09:17:13	09:25:38	492632	5e4192083514ba02bc057574	4	1	main_z	7	main_z	21	stimuli_distractor_trianglediamonds.svg	stimuli_distractor_diamondtriangles.svg	35	no	44	0	735	0	0			0	0			1				0	
6.6.1	win	2023-06-28	09:17:13	09:25:38	492632	5e4192083514ba02bc057574	4	1	main_z	7	advance_on_keypress_ZEE	22	stimuli_distractor_trianglediamonds.svg	stimuli_distractor_diamondtriangles.svg	35	no	57	0	1078	0	0			0	0			1				0	
6.6.1	win	2023-06-28	09:17:13	09:25:40	494972	5e4192083514ba02bc057574	4	1	main_z	7	main_z	23	stimuli_target_rectanglediamonds.svg	stimuli_distractor_diamondtriangles.svg	6	yes	44	1	625	0	0			0	0			1				0	
6.6.1	win	2023-06-28	09:17:13	09:25:40	494972	5e4192083514ba02bc057574	4	1	main_z	7	advance_on_keypress_ZEE	24	stimuli_target_rectanglediamonds.svg	stimuli_distractor_diamondtriangles.svg	6	yes	57	0	1229	0	0			0	0			1				0	
6.6.1	win	2023-06-28	09:17:13	09:25:42	497230	5e4192083514ba02bc057574	4	1	main_z	7	main_z	25	stimuli_target_squarediamonds.svg	stimuli_distractor_diamondtriangles.svg	8	yes	44	1	386	0	0			0	0			1				0	
6.6.1	win	2023-06-28	09:17:13	09:25:42	497230	5e4192083514ba02bc057574	4	1	main_z	7	advance_on_keypress_ZEE	26	stimuli_target_squarediamonds.svg	stimuli_distractor_diamondtriangles.svg	8	yes	57	0	1117	0	0			0	0			1				0	
6.6.1	win	2023-06-28	09:17:13	09:25:45	499687	5e4192083514ba02bc057574	4	1	main_z	7	main_z	27	stimuli_distractor_trianglediamonds.svg	stimuli_target_diamondrectangles.svg	27	yes	44	1	693	0	0			0	0			1				0	
6.6.1	win	2023-06-28	09:17:13	09:25:45	499687	5e4192083514ba02bc057574	4	1	main_z	7	advance_on_keypress_ZEE	28	stimuli_distractor_trianglediamonds.svg	stimuli_target_diamondrectangles.svg	27	yes	57	0	832	0	0			0	0			1				0	
6.6.1	win	2023-06-28	09:17:13	09:25:48	503160	5e4192083514ba02bc057574	4	1	main_z	7	main_z	29	stimuli_target_diamondrectangles.svg	stimuli_distractor_trianglediamonds.svg	19	yes	0	0	2000	0	0			0	0			1				0	
6.6.1	win	2023-06-28	09:17:13	09:25:48	503160	5e4192083514ba02bc057574	4	1	main_z	7	advance_on_keypress_ZEE	30	stimuli_target_diamondrectangles.svg	stimuli_distractor_trianglediamonds.svg	19	yes	57	0	914	0	0			0	0			1				0	
6.6.1	win	2023-06-28	09:17:13	09:25:51	505444	5e4192083514ba02bc057574	4	1	main_z	7	main_z	31	stimuli_target_trianglesquares.svg	stimuli_distractor_diamondtriangles.svg	22	yes	44	1	717	0	0			0	0			1				0	
6.6.1	win	2023-06-28	09:17:13	09:25:51	505444	5e4192083514ba02bc057574	4	1	main_z	7	advance_on_keypress_ZEE	32	stimuli_target_trianglesquares.svg	stimuli_distractor_diamondtriangles.svg	22	yes	57	0	646	0	0			0	0			1				0	
6.6.1	win	2023-06-28	09:17:13	09:25:53	507676	5e4192083514ba02bc057574	4	1	main_z	7	main_z	33	stimuli_target_diamondsquares.svg	stimuli_distractor_diamondtriangles.svg	24	yes	44	1	935	0	0			0	0			1				0	
6.6.1	win	2023-06-28	09:17:13	09:25:53	507676	5e4192083514ba02bc057574	4	1	main_z	7	advance_on_keypress_ZEE	34	stimuli_target_diamondsquares.svg	stimuli_distractor_diamondtriangles.svg	24	yes	57	0	742	0	0			0	0			1				0	
6.6.1	win	2023-06-28	09:17:13	09:25:56	511057	5e4192083514ba02bc057574	4	1	main_z	7	main_z	35	stimuli_target_trianglerectangles.svg	stimuli_distractor_trianglediamonds.svg	17	yes	0	0	2000	0	0			0	0			1				0	
6.6.1	win	2023-06-28	09:17:13	09:25:56	511057	5e4192083514ba02bc057574	4	1	main_z	7	advance_on_keypress_ZEE	36	stimuli_target_trianglerectangles.svg	stimuli_distractor_trianglediamonds.svg	17	yes	57	0	657	0	0			0	0			1				0	
6.6.1	win	2023-06-28	09:17:13	09:25:58	513135	5e4192083514ba02bc057574	4	1	main_z	7	main_z	37	stimuli_target_diamondrectangles.svg	stimuli_distractor_diamondtriangles.svg	23	yes	44	1	779	0	0			0	0			1				0	
6.6.1	win	2023-06-28	09:17:13	09:25:58	513135	5e4192083514ba02bc057574	4	1	main_z	7	advance_on_keypress_ZEE	38	stimuli_target_diamondrectangles.svg	stimuli_distractor_diamondtriangles.svg	23	yes	57	0	617	0	0			0	0			1				0	
6.6.1	win	2023-06-28	09:17:13	09:26:00	515284	5e4192083514ba02bc057574	4	1	main_z	7	main_z	39	stimuli_target_diamondsquares.svg	stimuli_distractor_trianglediamonds.svg	20	yes	44	1	878	0	0			0	0			1				0	
6.6.1	win	2023-06-28	09:17:13	09:26:00	515284	5e4192083514ba02bc057574	4	1	main_z	7	advance_on_keypress_ZEE	40	stimuli_target_diamondsquares.svg	stimuli_distractor_trianglediamonds.svg	20	yes	57	0	726	0	0			0	0			1				0	
6.6.1	win	2023-06-28	09:17:13	09:26:03	517403	5e4192083514ba02bc057574	4	1	main_z	7	main_z	41	stimuli_distractor_diamondtriangles.svg	stimuli_target_squarediamonds.svg	16	yes	44	1	748	0	0			0	0			1				0	
6.6.1	win	2023-06-28	09:17:13	09:26:03	517403	5e4192083514ba02bc057574	4	1	main_z	7	advance_on_keypress_ZEE	42	stimuli_distractor_diamondtriangles.svg	stimuli_target_squarediamonds.svg	16	yes	57	0	824	0	0			0	0			1				0	
6.6.1	win	2023-06-28	09:17:13	09:26:05	519805	5e4192083514ba02bc057574	4	1	main_z	7	main_z	43	stimuli_distractor_diamondtriangles.svg	stimuli_target_trianglerectangles.svg	29	yes	44	1	935	0	0			0	0			1				0	
6.6.1	win	2023-06-28	09:17:13	09:26:05	519805	5e4192083514ba02bc057574	4	1	main_z	7	advance_on_keypress_ZEE	44	stimuli_distractor_diamondtriangles.svg	stimuli_target_trianglerectangles.svg	29	yes	57	0	695	0	0			0	0			1				0	
6.6.1	win	2023-06-28	09:17:13	09:26:08	523153	5e4192083514ba02bc057574	4	1	main_z	7	main_z	45	stimuli_target_trianglesquares.svg	stimuli_distractor_trianglediamonds.svg	18	yes	0	0	2000	0	0			0	0			1				0	
6.6.1	win	2023-06-28	09:17:13	09:26:08	523153	5e4192083514ba02bc057574	4	1	main_z	7	advance_on_keypress_ZEE	46	stimuli_target_trianglesquares.svg	stimuli_distractor_trianglediamonds.svg	18	yes	57	0	720	0	0			0	0			1				0	
6.6.1	win	2023-06-28	09:17:13	09:26:10	525010	5e4192083514ba02bc057574	4	1	main_z	7	main_z	47	stimuli_distractor_diamondtriangles.svg	stimuli_target_rectanglediamonds.svg	14	yes	44	1	482	0	0			0	0			1				0	
6.6.1	win	2023-06-28	09:17:13	09:26:10	525010	5e4192083514ba02bc057574	4	1	main_z	7	advance_on_keypress_ZEE	48	stimuli_distractor_diamondtriangles.svg	stimuli_target_rectanglediamonds.svg	14	yes	57	0	951	0	0			0	0			1				0	
6.6.1	win	2023-06-28	09:17:13	09:26:14	528601	5e4192083514ba02bc057574	4	1	main_z	7	main_z	49	stimuli_distractor_diamondtriangles.svg	stimuli_distractor_trianglediamonds.svg	38	no	0	1	2000	0	0			0	0			1				0	
6.6.1	win	2023-06-28	09:17:13	09:26:14	528601	5e4192083514ba02bc057574	4	1	main_z	7	advance_on_keypress_ZEE	50	stimuli_distractor_diamondtriangles.svg	stimuli_distractor_trianglediamonds.svg	38	no	57	0	1470	0	0			0	0			1				0	
6.6.1	win	2023-06-28	09:17:13	09:26:16	531210	5e4192083514ba02bc057574	4	1	main_z	7	main_z	51	stimuli_distractor_diamondtriangles.svg	stimuli_target_squaretriangles.svg	15	yes	44	1	493	0	0			0	0			1				0	
6.6.1	win	2023-06-28	09:17:13	09:26:16	531210	5e4192083514ba02bc057574	4	1	main_z	7	advance_on_keypress_ZEE	52	stimuli_distractor_diamondtriangles.svg	stimuli_target_squaretriangles.svg	15	yes	57	0	890	0	0			0	0			1				0	
6.6.1	win	2023-06-28	09:17:13	09:26:19	533518	5e4192083514ba02bc057574	4	1	main_z	7	main_z	53	stimuli_target_trianglerectangles.svg	stimuli_distractor_diamondtriangles.svg	21	yes	44	1	785	0	0			0	0			1				0	
6.6.1	win	2023-06-28	09:17:13	09:26:19	533518	5e4192083514ba02bc057574	4	1	main_z	7	advance_on_keypress_ZEE	54	stimuli_target_trianglerectangles.svg	stimuli_distractor_diamondtriangles.svg	21	yes	57	0	774	0	0			0	0			1				0	
6.6.1	win	2023-06-28	09:17:13	09:26:21	535586	5e4192083514ba02bc057574	4	1	main_z	7	main_z	55	stimuli_target_rectangletriangles.svg	stimuli_distractor_diamondtriangles.svg	5	yes	44	1	654	0	0			0	0			1				0	
6.6.1	win	2023-06-28	09:17:13	09:26:21	535586	5e4192083514ba02bc057574	4	1	main_z	7	advance_on_keypress_ZEE	56	stimuli_target_rectangletriangles.svg	stimuli_distractor_diamondtriangles.svg	5	yes	57	0	1066	0	0			0	0			1				0	
6.6.1	win	2023-06-28	09:17:13	09:26:23	538024	5e4192083514ba02bc057574	4	1	main_z	7	main_z	57	stimuli_distractor_diamondtriangles.svg	stimuli_target_trianglesquares.svg	30	yes	44	1	727	0	0			0	0			1				0	
6.6.1	win	2023-06-28	09:17:13	09:26:23	538024	5e4192083514ba02bc057574	4	1	main_z	7	advance_on_keypress_ZEE	58	stimuli_distractor_diamondtriangles.svg	stimuli_target_trianglesquares.svg	30	yes	57	0	817	0	0			0	0			1				0	
6.6.1	win	2023-06-28	09:17:13	09:26:27	541480	5e4192083514ba02bc057574	4	1	main_z	7	main_z	59	stimuli_distractor_trianglediamonds.svg	stimuli_distractor_trianglediamonds.svg	34	no	0	1	2000	0	0			0	0			1				0	
6.6.1	win	2023-06-28	09:17:13	09:26:27	541480	5e4192083514ba02bc057574	4	1	main_z	7	advance_on_keypress_ZEE	60	stimuli_distractor_trianglediamonds.svg	stimuli_distractor_trianglediamonds.svg	34	no	57	0	682	0	0			0	0			1				0	
6.6.1	win	2023-06-28	09:17:13	09:26:28	543239	5e4192083514ba02bc057574	4	1	main_z	7	main_z	61	stimuli_target_squaretriangles.svg	stimuli_distractor_diamondtriangles.svg	7	yes	44	1	427	0	0			0	0			1				0	
6.6.1	win	2023-06-28	09:17:13	09:26:28	543239	5e4192083514ba02bc057574	4	1	main_z	7	advance_on_keypress_ZEE	62	stimuli_target_squaretriangles.svg	stimuli_distractor_diamondtriangles.svg	7	yes	57	0	1131	0	0			0	0			1				0	
6.6.1	win	2023-06-28	09:17:13	09:26:31	545952	5e4192083514ba02bc057574	4	1	main_z	7	main_z	63	stimuli_distractor_trianglediamonds.svg	stimuli_target_trianglerectangles.svg	25	yes	44	1	940	0	0			0	0			1				0	
6.6.1	win	2023-06-28	09:17:13	09:26:31	545952	5e4192083514ba02bc057574	4	1	main_z	7	advance_on_keypress_ZEE	64	stimuli_distractor_trianglediamonds.svg	stimuli_target_trianglerectangles.svg	25	yes	57	0	729	0	0			0	0			1				0	
6.6.1	win	2023-06-28	09:17:13	09:26:33	547837	5e4192083514ba02bc057574	4	1	main_z	7	main_z	65	stimuli_target_squaretriangles.svg	stimuli_distractor_trianglediamonds.svg	3	yes	44	1	510	0	0			0	0			1				0	
6.6.1	win	2023-06-28	09:17:13	09:26:33	547837	5e4192083514ba02bc057574	4	1	main_z	7	advance_on_keypress_ZEE	66	stimuli_target_squaretriangles.svg	stimuli_distractor_trianglediamonds.svg	3	yes	57	0	1036	0	0			0	0			1				0	
6.6.1	win	2023-06-28	09:17:13	09:26:35	549975	5e4192083514ba02bc057574	4	1	main_z	7	main_z	67	stimuli_distractor_trianglediamonds.svg	stimuli_target_trianglesquares.svg	26	yes	44	1	448	0	0			0	0			1				0	
6.6.1	win	2023-06-28	09:17:13	09:26:35	549975	5e4192083514ba02bc057574	4	1	main_z	7	advance_on_keypress_ZEE	68	stimuli_distractor_trianglediamonds.svg	stimuli_target_trianglesquares.svg	26	yes	57	0	740	0	0			0	0			1				0	
6.6.1	win	2023-06-28	09:17:13	09:26:39	553359	5e4192083514ba02bc057574	4	1	main_z	7	main_z	69	stimuli_distractor_diamondtriangles.svg	stimuli_distractor_diamondtriangles.svg	40	no	0	1	2000	0	0			0	0			1				0	
6.6.1	win	2023-06-28	09:17:13	09:26:39	553359	5e4192083514ba02bc057574	4	1	main_z	7	advance_on_keypress_ZEE	70	stimuli_distractor_diamondtriangles.svg	stimuli_distractor_diamondtriangles.svg	40	no	57	0	1093	0	0			0	0			1				0	
6.6.1	win	2023-06-28	09:17:13	09:26:42	557091	5e4192083514ba02bc057574	4	1	main_z	7	main_z	71	stimuli_distractor_trianglediamonds.svg	stimuli_distractor_trianglediamonds.svg	33	no	0	1	2000	0	0			0	0			1				0	
6.6.1	win	2023-06-28	09:17:13	09:26:42	557091	5e4192083514ba02bc057574	4	1	main_z	7	advance_on_keypress_ZEE	72	stimuli_distractor_trianglediamonds.svg	stimuli_distractor_trianglediamonds.svg	33	no	57	0	1498	0	0			0	0			1				0	
6.6.1	win	2023-06-28	09:17:13	09:26:46	561240	5e4192083514ba02bc057574	4	1	main_z	7	main_z	73	stimuli_distractor_trianglediamonds.svg	stimuli_target_diamondsquares.svg	28	yes	0	0	2000	0	0			0	0			1				0	
6.6.1	win	2023-06-28	09:17:13	09:26:46	561240	5e4192083514ba02bc057574	4	1	main_z	7	advance_on_keypress_ZEE	74	stimuli_distractor_trianglediamonds.svg	stimuli_target_diamondsquares.svg	28	yes	57	0	380	0	0			0	0			1				0	
6.6.1	win	2023-06-28	09:17:13	09:26:49	564272	5e4192083514ba02bc057574	4	1	main_z	7	main_z	75	stimuli_distractor_trianglediamonds.svg	stimuli_distractor_diamondtriangles.svg	36	no	0	1	2000	0	0			0	0			1				0	
6.6.1	win	2023-06-28	09:17:13	09:26:49	564272	5e4192083514ba02bc057574	4	1	main_z	7	advance_on_keypress_ZEE	76	stimuli_distractor_trianglediamonds.svg	stimuli_distractor_diamondtriangles.svg	36	no	57	0	355	0	0			0	0			1				0	
6.6.1	win	2023-06-28	09:17:13	09:26:51	565939	5e4192083514ba02bc057574	4	1	main_z	7	main_z	77	stimuli_distractor_trianglediamonds.svg	stimuli_target_rectanglediamonds.svg	10	yes	44	1	668	0	0			0	0			1				0	
6.6.1	win	2023-06-28	09:17:13	09:26:51	565939	5e4192083514ba02bc057574	4	1	main_z	7	advance_on_keypress_ZEE	78	stimuli_distractor_trianglediamonds.svg	stimuli_target_rectanglediamonds.svg	10	yes	57	0	783	0	0			0	0			1				0	
6.6.1	win	2023-06-28	09:17:13	09:26:55	569370	5e4192083514ba02bc057574	4	1	main_z	7	main_z	79	stimuli_distractor_diamondtriangles.svg	stimuli_distractor_diamondtriangles.svg	39	no	0	1	2000	0	0			0	0			1				0	
6.6.1	win	2023-06-28	09:17:13	09:26:55	569370	5e4192083514ba02bc057574	4	1	main_z	7	advance_on_keypress_ZEE	80	stimuli_distractor_diamondtriangles.svg	stimuli_distractor_diamondtriangles.svg	39	no	57	0	618	0	0			0	0			1				0	
6.6.1	win	2023-06-28	09:17:13	09:26:57	571431	5e4192083514ba02bc057574	4	1	main_z	7	main_z	81	stimuli_distractor_trianglediamonds.svg	stimuli_target_trianglesquares.svg	26	yes	44	1	795	0	0			0	0			1				0	
6.6.1	win	2023-06-28	09:17:13	09:26:57	571431	5e4192083514ba02bc057574	4	1	main_z	7	advance_on_keypress_ZEE	82	stimuli_distractor_trianglediamonds.svg	stimuli_target_trianglesquares.svg	26	yes	57	0	1059	0	0			0	0			1				0	
6.6.1	win	2023-06-28	09:17:13	09:27:00	575135	5e4192083514ba02bc057574	4	1	main_z	7	main_z	83	stimuli_distractor_trianglediamonds.svg	stimuli_target_diamondrectangles.svg	27	yes	0	0	2000	0	0			0	0			1				0	
6.6.1	win	2023-06-28	09:17:13	09:27:00	575135	5e4192083514ba02bc057574	4	1	main_z	7	advance_on_keypress_ZEE	84	stimuli_distractor_trianglediamonds.svg	stimuli_target_diamondrectangles.svg	27	yes	57	0	640	0	0			0	0			1				0	
6.6.1	win	2023-06-28	09:17:13	09:27:02	577226	5e4192083514ba02bc057574	4	1	main_z	7	main_z	85	stimuli_distractor_diamondtriangles.svg	stimuli_target_trianglesquares.svg	30	yes	44	1	810	0	0			0	0			1				0	
6.6.1	win	2023-06-28	09:17:13	09:27:02	577226	5e4192083514ba02bc057574	4	1	main_z	7	advance_on_keypress_ZEE	86	stimuli_distractor_diamondtriangles.svg	stimuli_target_trianglesquares.svg	30	yes	57	0	926	0	0			0	0			1				0	
6.6.1	win	2023-06-28	09:17:13	09:27:05	579460	5e4192083514ba02bc057574	4	1	main_z	7	main_z	87	stimuli_target_diamondsquares.svg	stimuli_distractor_diamondtriangles.svg	24	yes	44	1	677	0	0			0	0			1				0	
6.6.1	win	2023-06-28	09:17:13	09:27:05	579460	5e4192083514ba02bc057574	4	1	main_z	7	advance_on_keypress_ZEE	88	stimuli_target_diamondsquares.svg	stimuli_distractor_diamondtriangles.svg	24	yes	57	0	1635	0	0			0	0			1				0	
6.6.1	win	2023-06-28	09:17:13	09:27:08	582647	5e4192083514ba02bc057574	4	1	main_z	7	main_z	89	stimuli_target_trianglerectangles.svg	stimuli_distractor_trianglediamonds.svg	17	yes	44	1	914	0	0			0	0			1				0	
6.6.1	win	2023-06-28	09:17:13	09:27:08	582647	5e4192083514ba02bc057574	4	1	main_z	7	advance_on_keypress_ZEE	90	stimuli_target_trianglerectangles.svg	stimuli_distractor_trianglediamonds.svg	17	yes	57	0	894	0	0			0	0			1				0	
6.6.1	win	2023-06-28	09:17:13	09:27:11	586197	5e4192083514ba02bc057574	4	1	main_z	7	main_z	91	stimuli_distractor_trianglediamonds.svg	stimuli_distractor_diamondtriangles.svg	36	no	0	1	2000	0	0			0	0			1				0	
6.6.1	win	2023-06-28	09:17:13	09:27:11	586197	5e4192083514ba02bc057574	4	1	main_z	7	advance_on_keypress_ZEE	92	stimuli_distractor_trianglediamonds.svg	stimuli_distractor_diamondtriangles.svg	36	no	57	0	1129	0	0			0	0			1				0	
6.6.1	win	2023-06-28	09:17:13	09:27:15	589980	5e4192083514ba02bc057574	4	1	main_z	7	main_z	93	stimuli_distractor_diamondtriangles.svg	stimuli_target_squaretriangles.svg	15	yes	0	0	2000	0	0			0	0			1				0	
6.6.1	win	2023-06-28	09:17:13	09:27:15	589980	5e4192083514ba02bc057574	4	1	main_z	7	advance_on_keypress_ZEE	94	stimuli_distractor_diamondtriangles.svg	stimuli_target_squaretriangles.svg	15	yes	57	0	459	0	0			0	0			1				0	
6.6.1	win	2023-06-28	09:17:13	09:27:17	591831	5e4192083514ba02bc057574	4	1	main_z	7	main_z	95	stimuli_distractor_trianglediamonds.svg	stimuli_target_squarediamonds.svg	12	yes	44	1	751	0	0			0	0			1				0	
6.6.1	win	2023-06-28	09:17:13	09:27:17	591831	5e4192083514ba02bc057574	4	1	main_z	7	advance_on_keypress_ZEE	96	stimuli_distractor_trianglediamonds.svg	stimuli_target_squarediamonds.svg	12	yes	57	0	842	0	0			0	0			1				0	
6.6.1	win	2023-06-28	09:17:13	09:27:20	594399	5e4192083514ba02bc057574	4	1	main_z	7	main_z	97	stimuli_distractor_trianglediamonds.svg	stimuli_distractor_diamondtriangles.svg	35	no	44	0	1088	0	0			0	0			1				0	
6.6.1	win	2023-06-28	09:17:13	09:27:20	594399	5e4192083514ba02bc057574	4	1	main_z	7	advance_on_keypress_ZEE	98	stimuli_distractor_trianglediamonds.svg	stimuli_distractor_diamondtriangles.svg	35	no	57	0	875	0	0			0	0			1				0	
6.6.1	win	2023-06-28	09:17:13	09:27:23	597468	5e4192083514ba02bc057574	4	1	main_z	7	main_z	99	stimuli_target_rectanglediamonds.svg	stimuli_distractor_trianglediamonds.svg	2	yes	44	1	1558	0	0			0	0			1				0	
6.6.1	win	2023-06-28	09:17:13	09:27:23	597468	5e4192083514ba02bc057574	4	1	main_z	7	advance_on_keypress_ZEE	100	stimuli_target_rectanglediamonds.svg	stimuli_distractor_trianglediamonds.svg	2	yes	57	0	1370	0	0			0	0			1				0	
6.6.1	win	2023-06-28	09:17:13	09:27:27	601476	5e4192083514ba02bc057574	4	1	main_z	7	main_z	101	stimuli_distractor_diamondtriangles.svg	stimuli_target_diamondsquares.svg	32	yes	0	0	2000	0	0			0	0			1				0	
6.6.1	win	2023-06-28	09:17:13	09:27:27	601476	5e4192083514ba02bc057574	4	1	main_z	7	advance_on_keypress_ZEE	102	stimuli_distractor_diamondtriangles.svg	stimuli_target_diamondsquares.svg	32	yes	57	0	932	0	0			0	0			1				0	
6.6.1	win	2023-06-28	09:17:13	09:27:29	603591	5e4192083514ba02bc057574	4	1	main_z	7	main_z	103	stimuli_target_trianglesquares.svg	stimuli_distractor_trianglediamonds.svg	18	yes	44	1	532	0	0			0	0			1				0	
6.6.1	win	2023-06-28	09:17:13	09:27:29	603591	5e4192083514ba02bc057574	4	1	main_z	7	advance_on_keypress_ZEE	104	stimuli_target_trianglesquares.svg	stimuli_distractor_trianglediamonds.svg	18	yes	57	0	1787	0	0			0	0			1				0	
6.6.1	win	2023-06-28	09:17:13	09:27:32	606407	5e4192083514ba02bc057574	4	1	main_z	7	main_z	105	stimuli_distractor_trianglediamonds.svg	stimuli_target_squaretriangles.svg	11	yes	44	1	383	0	0			0	0			1				0	
6.6.1	win	2023-06-28	09:17:13	09:27:32	606407	5e4192083514ba02bc057574	4	1	main_z	7	advance_on_keypress_ZEE	106	stimuli_distractor_trianglediamonds.svg	stimuli_target_squaretriangles.svg	11	yes	57	0	942	0	0			0	0			1				0	
6.6.1	win	2023-06-28	09:17:13	09:27:34	608441	5e4192083514ba02bc057574	4	1	main_z	7	main_z	107	stimuli_target_squaretriangles.svg	stimuli_distractor_trianglediamonds.svg	3	yes	44	1	452	0	0			0	0			1				0	
6.6.1	win	2023-06-28	09:17:13	09:27:34	608441	5e4192083514ba02bc057574	4	1	main_z	7	advance_on_keypress_ZEE	108	stimuli_target_squaretriangles.svg	stimuli_distractor_trianglediamonds.svg	3	yes	57	0	1133	0	0			0	0			1				0	
6.6.1	win	2023-06-28	09:17:13	09:27:36	610894	5e4192083514ba02bc057574	4	1	main_z	7	main_z	109	stimuli_distractor_diamondtriangles.svg	stimuli_distractor_trianglediamonds.svg	37	no	44	0	672	0	0			0	0			1				0	
6.6.1	win	2023-06-28	09:17:13	09:27:36	610894	5e4192083514ba02bc057574	4	1	main_z	7	advance_on_keypress_ZEE	110	stimuli_distractor_diamondtriangles.svg	stimuli_distractor_trianglediamonds.svg	37	no	57	0	719	0	0			0	0			1				0	
6.6.1	win	2023-06-28	09:17:13	09:27:39	614255	5e4192083514ba02bc057574	4	1	main_z	7	main_z	111	stimuli_distractor_diamondtriangles.svg	stimuli_distractor_trianglediamonds.svg	38	no	0	1	2000	0	0			0	0			1				0	
6.6.1	win	2023-06-28	09:17:13	09:27:39	614255	5e4192083514ba02bc057574	4	1	main_z	7	advance_on_keypress_ZEE	112	stimuli_distractor_diamondtriangles.svg	stimuli_distractor_trianglediamonds.svg	38	no	57	0	1011	0	0			0	0			1				0	
6.6.1	win	2023-06-28	09:17:13	09:27:42	616721	5e4192083514ba02bc057574	4	1	main_z	7	main_z	113	stimuli_distractor_trianglediamonds.svg	stimuli_distractor_trianglediamonds.svg	33	no	44	0	819	0	0			0	0			1				0	
6.6.1	win	2023-06-28	09:17:13	09:27:42	616721	5e4192083514ba02bc057574	4	1	main_z	7	advance_on_keypress_ZEE	114	stimuli_distractor_trianglediamonds.svg	stimuli_distractor_trianglediamonds.svg	33	no	57	0	783	0	0			0	0			1				0	
6.6.1	win	2023-06-28	09:17:13	09:27:45	620152	5e4192083514ba02bc057574	4	1	main_z	7	main_z	115	stimuli_distractor_diamondtriangles.svg	stimuli_target_squarediamonds.svg	16	yes	0	0	2000	0	0			0	0			1				0	
6.6.1	win	2023-06-28	09:17:13	09:27:45	620152	5e4192083514ba02bc057574	4	1	main_z	7	advance_on_keypress_ZEE	116	stimuli_distractor_diamondtriangles.svg	stimuli_target_squarediamonds.svg	16	yes	57	0	653	0	0			0	0			1				0	
6.6.1	win	2023-06-28	09:17:13	09:27:47	622140	5e4192083514ba02bc057574	4	1	main_z	7	main_z	117	stimuli_distractor_trianglediamonds.svg	stimuli_target_diamondsquares.svg	28	yes	44	1	690	0	0			0	0			1				0	
6.6.1	win	2023-06-28	09:17:13	09:27:47	622140	5e4192083514ba02bc057574	4	1	main_z	7	advance_on_keypress_ZEE	118	stimuli_distractor_trianglediamonds.svg	stimuli_target_diamondsquares.svg	28	yes	57	0	937	0	0			0	0			1				0	
6.6.1	win	2023-06-28	09:17:13	09:27:51	625717	5e4192083514ba02bc057574	4	1	main_z	7	main_z	119	stimuli_distractor_diamondtriangles.svg	stimuli_distractor_diamondtriangles.svg	40	no	0	1	2000	0	0			0	0			1				0	
6.6.1	win	2023-06-28	09:17:13	09:27:51	625717	5e4192083514ba02bc057574	4	1	main_z	7	advance_on_keypress_ZEE	120	stimuli_distractor_diamondtriangles.svg	stimuli_distractor_diamondtriangles.svg	40	no	57	0	800	0	0			0	0			1				0	
6.6.1	win	2023-06-28	09:17:13	09:27:53	627585	5e4192083514ba02bc057574	4	1	main_z	7	main_z	121	stimuli_target_rectangletriangles.svg	stimuli_distractor_diamondtriangles.svg	5	yes	44	1	419	0	0			0	0			1				0	
6.6.1	win	2023-06-28	09:17:13	09:27:53	627585	5e4192083514ba02bc057574	4	1	main_z	7	advance_on_keypress_ZEE	122	stimuli_target_rectangletriangles.svg	stimuli_distractor_diamondtriangles.svg	5	yes	57	0	943	0	0			0	0			1				0	
6.6.1	win	2023-06-28	09:17:13	09:27:55	629938	5e4192083514ba02bc057574	4	1	main_z	7	main_z	123	stimuli_distractor_diamondtriangles.svg	stimuli_target_trianglerectangles.svg	29	yes	44	1	773	0	0			0	0			1				0	
6.6.1	win	2023-06-28	09:17:13	09:27:55	629938	5e4192083514ba02bc057574	4	1	main_z	7	advance_on_keypress_ZEE	124	stimuli_distractor_diamondtriangles.svg	stimuli_target_trianglerectangles.svg	29	yes	57	0	812	0	0			0	0			1				0	
6.6.1	win	2023-06-28	09:17:13	09:27:57	632242	5e4192083514ba02bc057574	4	1	main_z	7	main_z	125	stimuli_target_diamondrectangles.svg	stimuli_distractor_trianglediamonds.svg	19	yes	44	1	844	0	0			0	0			1				0	
6.6.1	win	2023-06-28	09:17:13	09:27:57	632242	5e4192083514ba02bc057574	4	1	main_z	7	advance_on_keypress_ZEE	126	stimuli_target_diamondrectangles.svg	stimuli_distractor_trianglediamonds.svg	19	yes	57	0	1250	0	0			0	0			1				0	
6.6.1	win	2023-06-28	09:17:13	09:28:00	635182	5e4192083514ba02bc057574	4	1	main_z	7	main_z	127	stimuli_target_diamondsquares.svg	stimuli_distractor_trianglediamonds.svg	20	yes	44	1	1053	0	0			0	0			1				0	
6.6.1	win	2023-06-28	09:17:13	09:28:00	635182	5e4192083514ba02bc057574	4	1	main_z	7	advance_on_keypress_ZEE	128	stimuli_target_diamondsquares.svg	stimuli_distractor_trianglediamonds.svg	20	yes	57	0	1113	0	0			0	0			1				0	
6.6.1	win	2023-06-28	09:17:13	09:28:02	637286	5e4192083514ba02bc057574	4	1	main_z	7	main_z	129	stimuli_target_diamondrectangles.svg	stimuli_distractor_diamondtriangles.svg	23	yes	44	1	340	0	0			0	0			1				0	
6.6.1	win	2023-06-28	09:17:13	09:28:02	637286	5e4192083514ba02bc057574	4	1	main_z	7	advance_on_keypress_ZEE	130	stimuli_target_diamondrectangles.svg	stimuli_distractor_diamondtriangles.svg	23	yes	57	0	1188	0	0			0	0			1				0	
6.6.1	win	2023-06-28	09:17:13	09:28:06	640552	5e4192083514ba02bc057574	4	1	main_z	7	main_z	131	stimuli_distractor_trianglediamonds.svg	stimuli_target_rectanglediamonds.svg	10	yes	44	1	1441	0	0			0	0			1				0	
6.6.1	win	2023-06-28	09:17:13	09:28:06	640552	5e4192083514ba02bc057574	4	1	main_z	7	advance_on_keypress_ZEE	132	stimuli_distractor_trianglediamonds.svg	stimuli_target_rectanglediamonds.svg	10	yes	57	0	1083	0	0			0	0			1				0	
6.6.1	win	2023-06-28	09:17:13	09:28:08	643255	5e4192083514ba02bc057574	4	1	main_z	7	main_z	133	stimuli_distractor_trianglediamonds.svg	stimuli_target_trianglerectangles.svg	25	yes	44	1	977	0	0			0	0			1				0	
6.6.1	win	2023-06-28	09:17:13	09:28:08	643255	5e4192083514ba02bc057574	4	1	main_z	7	advance_on_keypress_ZEE	134	stimuli_distractor_trianglediamonds.svg	stimuli_target_trianglerectangles.svg	25	yes	57	0	829	0	0			0	0			1				0	
6.6.1	win	2023-06-28	09:17:13	09:28:12	646744	5e4192083514ba02bc057574	4	1	main_z	7	main_z	135	stimuli_distractor_diamondtriangles.svg	stimuli_distractor_diamondtriangles.svg	39	no	0	1	2000	0	0			0	0			1				0	
6.6.1	win	2023-06-28	09:17:13	09:28:12	646744	5e4192083514ba02bc057574	4	1	main_z	7	advance_on_keypress_ZEE	136	stimuli_distractor_diamondtriangles.svg	stimuli_distractor_diamondtriangles.svg	39	no	57	0	927	0	0			0	0			1				0	
6.6.1	win	2023-06-28	09:17:13	09:28:16	650309	5e4192083514ba02bc057574	4	1	main_z	7	main_z	137	stimuli_distractor_trianglediamonds.svg	stimuli_target_rectangletriangles.svg	9	yes	0	0	2000	0	0			0	0			1				0	
6.6.1	win	2023-06-28	09:17:13	09:28:16	650309	5e4192083514ba02bc057574	4	1	main_z	7	advance_on_keypress_ZEE	138	stimuli_distractor_trianglediamonds.svg	stimuli_target_rectangletriangles.svg	9	yes	57	0	1130	0	0			0	0			1				0	
6.6.1	win	2023-06-28	09:17:13	09:28:18	652892	5e4192083514ba02bc057574	4	1	main_z	7	main_z	139	stimuli_distractor_diamondtriangles.svg	stimuli_target_diamondrectangles.svg	31	yes	44	1	801	0	0			0	0			1				0	
6.6.1	win	2023-06-28	09:17:13	09:28:18	652892	5e4192083514ba02bc057574	4	1	main_z	7	advance_on_keypress_ZEE	140	stimuli_distractor_diamondtriangles.svg	stimuli_target_diamondrectangles.svg	31	yes	57	0	1031	0	0			0	0			1				0	
6.6.1	win	2023-06-28	09:17:13	09:28:21	655340	5e4192083514ba02bc057574	4	1	main_z	7	main_z	141	stimuli_target_squarediamonds.svg	stimuli_distractor_trianglediamonds.svg	4	yes	44	1	767	0	0			0	0			1				0	
6.6.1	win	2023-06-28	09:17:13	09:28:21	655340	5e4192083514ba02bc057574	4	1	main_z	7	advance_on_keypress_ZEE	142	stimuli_target_squarediamonds.svg	stimuli_distractor_trianglediamonds.svg	4	yes	57	0	851	0	0			0	0			1				0	
6.6.1	win	2023-06-28	09:17:13	09:28:23	657766	5e4192083514ba02bc057574	4	1	main_z	7	main_z	143	stimuli_target_squaretriangles.svg	stimuli_distractor_diamondtriangles.svg	7	yes	44	1	927	0	0			0	0			1				0	
6.6.1	win	2023-06-28	09:17:13	09:28:23	657766	5e4192083514ba02bc057574	4	1	main_z	7	advance_on_keypress_ZEE	144	stimuli_target_squaretriangles.svg	stimuli_distractor_diamondtriangles.svg	7	yes	57	0	1116	0	0			0	0			1				0	
6.6.1	win	2023-06-28	09:17:13	09:28:27	661521	5e4192083514ba02bc057574	4	1	main_z	7	main_z	145	stimuli_distractor_trianglediamonds.svg	stimuli_distractor_trianglediamonds.svg	34	no	0	1	2000	0	0			0	0			1				0	
6.6.1	win	2023-06-28	09:17:13	09:28:27	661521	5e4192083514ba02bc057574	4	1	main_z	7	advance_on_keypress_ZEE	146	stimuli_distractor_trianglediamonds.svg	stimuli_distractor_trianglediamonds.svg	34	no	57	0	1045	0	0			0	0			1				0	
6.6.1	win	2023-06-28	09:17:13	09:28:29	664074	5e4192083514ba02bc057574	4	1	main_z	7	main_z	147	stimuli_target_trianglesquares.svg	stimuli_distractor_diamondtriangles.svg	22	yes	44	1	854	0	0			0	0			1				0	
6.6.1	win	2023-06-28	09:17:13	09:28:29	664074	5e4192083514ba02bc057574	4	1	main_z	7	advance_on_keypress_ZEE	148	stimuli_target_trianglesquares.svg	stimuli_distractor_diamondtriangles.svg	22	yes	57	0	1195	0	0			0	0			1				0	
6.6.1	win	2023-06-28	09:17:13	09:28:33	667919	5e4192083514ba02bc057574	4	1	main_z	7	main_z	149	stimuli_distractor_diamondtriangles.svg	stimuli_target_rectangletriangles.svg	13	yes	0	0	2000	0	0			0	0			1				0	
6.6.1	win	2023-06-28	09:17:13	09:28:33	667919	5e4192083514ba02bc057574	4	1	main_z	7	advance_on_keypress_ZEE	150	stimuli_distractor_diamondtriangles.svg	stimuli_target_rectangletriangles.svg	13	yes	57	0	1408	0	0			0	0			1				0	
6.6.1	win	2023-06-28	09:17:13	09:28:36	670743	5e4192083514ba02bc057574	4	1	main_z	7	main_z	151	stimuli_target_rectanglediamonds.svg	stimuli_distractor_diamondtriangles.svg	6	yes	44	1	775	0	0			0	0			1				0	
6.6.1	win	2023-06-28	09:17:13	09:28:36	670743	5e4192083514ba02bc057574	4	1	main_z	7	advance_on_keypress_ZEE	152	stimuli_target_rectanglediamonds.svg	stimuli_distractor_diamondtriangles.svg	6	yes	57	0	1270	0	0			0	0			1				0	
6.6.1	win	2023-06-28	09:17:13	09:28:39	674125	5e4192083514ba02bc057574	4	1	main_z	7	main_z	153	stimuli_target_squarediamonds.svg	stimuli_distractor_diamondtriangles.svg	8	yes	44	1	1475	0	0			0	0			1				0	
6.6.1	win	2023-06-28	09:17:13	09:28:39	674125	5e4192083514ba02bc057574	4	1	main_z	7	advance_on_keypress_ZEE	154	stimuli_target_squarediamonds.svg	stimuli_distractor_diamondtriangles.svg	8	yes	57	0	1182	0	0			0	0			1				0	
6.6.1	win	2023-06-28	09:17:13	09:28:42	676831	5e4192083514ba02bc057574	4	1	main_z	7	main_z	155	stimuli_target_trianglerectangles.svg	stimuli_distractor_diamondtriangles.svg	21	yes	44	1	882	0	0			0	0			1				0	
6.6.1	win	2023-06-28	09:17:13	09:28:42	676831	5e4192083514ba02bc057574	4	1	main_z	7	advance_on_keypress_ZEE	156	stimuli_target_trianglerectangles.svg	stimuli_distractor_diamondtriangles.svg	21	yes	57	0	1025	0	0			0	0			1				0	
6.6.1	win	2023-06-28	09:17:13	09:28:45	679429	5e4192083514ba02bc057574	4	1	main_z	7	main_z	157	stimuli_distractor_diamondtriangles.svg	stimuli_target_rectanglediamonds.svg	14	yes	44	1	931	0	0			0	0			1				0	
6.6.1	win	2023-06-28	09:17:13	09:28:45	679429	5e4192083514ba02bc057574	4	1	main_z	7	advance_on_keypress_ZEE	158	stimuli_distractor_diamondtriangles.svg	stimuli_target_rectanglediamonds.svg	14	yes	57	0	793	0	0			0	0			1				0	
6.6.1	win	2023-06-28	09:17:13	09:28:47	681821	5e4192083514ba02bc057574	4	1	main_z	7	main_z	159	stimuli_target_rectangletriangles.svg	stimuli_distractor_trianglediamonds.svg	1	yes	44	1	957	0	0			0	0			1				0	
6.6.1	win	2023-06-28	09:17:13	09:28:47	681821	5e4192083514ba02bc057574	4	1	main_z	7	advance_on_keypress_ZEE	160	stimuli_target_rectangletriangles.svg	stimuli_distractor_trianglediamonds.svg	1	yes	57	0	774	0	0			0	0			1				0	
6.6.1	win	2023-06-28	09:17:13	09:29:32	726568	5e4192083514ba02bc057574	4	1	practice_slash	9	practice_slash	1	stimuli_distractor_trianglediamonds.svg	stimuli_target_squarediamonds.svg	11	yes	0	0	2000	0	0			0	0			1				0	
6.6.1	win	2023-06-28	09:17:13	09:29:32	726568	5e4192083514ba02bc057574	4	1	practice_slash	9	advance_on_keypress_SLASH	2	stimuli_distractor_trianglediamonds.svg	stimuli_target_squarediamonds.svg	11	yes	57	0	912	0	0			0	0			1				0	
6.6.1	win	2023-06-28	09:17:13	09:29:35	729646	5e4192083514ba02bc057574	4	1	practice_slash	9	practice_slash	3	stimuli_target_diamondsquares.svg	stimuli_distractor_trianglediamonds.svg	6	yes	53	1	513	0	0			0	0			1				0	
6.6.1	win	2023-06-28	09:17:13	09:29:35	729646	5e4192083514ba02bc057574	4	1	practice_slash	9	advance_on_keypress_SLASH	4	stimuli_target_diamondsquares.svg	stimuli_distractor_trianglediamonds.svg	6	yes	57	0	829	0	0			0	0			1				0	
6.6.1	win	2023-06-28	09:17:13	09:29:38	732734	5e4192083514ba02bc057574	4	1	practice_slash	9	practice_slash	5	stimuli_distractor_trianglediamonds.svg	stimuli_target_diamondrectangles.svg	12	yes	53	1	600	0	0			0	0			1				0	
6.6.1	win	2023-06-28	09:17:13	09:29:38	732734	5e4192083514ba02bc057574	4	1	practice_slash	9	advance_on_keypress_SLASH	6	stimuli_distractor_trianglediamonds.svg	stimuli_target_diamondrectangles.svg	12	yes	57	0	549	0	0			0	0			1				0	
6.6.1	win	2023-06-28	09:17:13	09:29:41	735872	5e4192083514ba02bc057574	4	1	practice_slash	9	practice_slash	7	stimuli_distractor_trianglediamonds.svg	stimuli_distractor_diamondtriangles.svg	16	no	53	0	941	0	0			0	0			1				0	
6.6.1	win	2023-06-28	09:17:13	09:29:41	735872	5e4192083514ba02bc057574	4	1	practice_slash	9	advance_on_keypress_SLASH	8	stimuli_distractor_trianglediamonds.svg	stimuli_distractor_diamondtriangles.svg	16	no	57	0	527	0	0			0	0			1				0	
6.6.1	win	2023-06-28	09:17:13	09:29:44	738680	5e4192083514ba02bc057574	4	1	practice_slash	9	practice_slash	9	stimuli_target_squarediamonds.svg	stimuli_distractor_trianglediamonds.svg	5	yes	53	1	649	0	0			0	0			1				0	
6.6.1	win	2023-06-28	09:17:13	09:29:44	738680	5e4192083514ba02bc057574	4	1	practice_slash	9	advance_on_keypress_SLASH	10	stimuli_target_squarediamonds.svg	stimuli_distractor_trianglediamonds.svg	5	yes	57	0	972	0	0			0	0			1				0	
6.6.1	win	2023-06-28	09:17:13	09:29:47	741923	5e4192083514ba02bc057574	4	1	practice_slash	9	practice_slash	11	stimuli_target_rectanglediamonds.svg	stimuli_distractor_diamondtriangles.svg	1	yes	53	1	626	0	0			0	0			1				0	
6.6.1	win	2023-06-28	09:17:13	09:29:47	741923	5e4192083514ba02bc057574	4	1	practice_slash	9	advance_on_keypress_SLASH	12	stimuli_target_rectanglediamonds.svg	stimuli_distractor_diamondtriangles.svg	1	yes	57	0	364	0	0			0	0			1				0	
6.6.1	win	2023-06-28	09:17:13	09:29:50	744626	5e4192083514ba02bc057574	4	1	practice_slash	9	practice_slash	13	stimuli_target_rectanglediamonds.svg	stimuli_distractor_trianglediamonds.svg	4	yes	53	1	681	0	0			0	0			1				0	
6.6.1	win	2023-06-28	09:17:13	09:29:50	744626	5e4192083514ba02bc057574	4	1	practice_slash	9	advance_on_keypress_SLASH	14	stimuli_target_rectanglediamonds.svg	stimuli_distractor_trianglediamonds.svg	4	yes	57	0	593	0	0			0	0			1				0	
6.6.1	win	2023-06-28	09:17:13	09:29:53	747608	5e4192083514ba02bc057574	4	1	practice_slash	9	practice_slash	15	stimuli_distractor_trianglediamonds.svg	stimuli_target_rectanglediamonds.svg	10	yes	53	1	747	0	0			0	0			1				0	
6.6.1	win	2023-06-28	09:17:13	09:29:53	747608	5e4192083514ba02bc057574	4	1	practice_slash	9	advance_on_keypress_SLASH	16	stimuli_distractor_trianglediamonds.svg	stimuli_target_rectanglediamonds.svg	10	yes	57	0	401	0	0			0	0			1				0	
6.6.1	win	2023-06-28	09:17:13	09:29:55	750115	5e4192083514ba02bc057574	4	1	practice_slash	9	practice_slash	17	stimuli_target_diamondsquares.svg	stimuli_distractor_diamondtriangles.svg	3	yes	53	1	455	0	0			0	0			1				0	
6.6.1	win	2023-06-28	09:17:13	09:29:55	750115	5e4192083514ba02bc057574	4	1	practice_slash	9	advance_on_keypress_SLASH	18	stimuli_target_diamondsquares.svg	stimuli_distractor_diamondtriangles.svg	3	yes	57	0	345	0	0			0	0			1				0	
6.6.1	win	2023-06-28	09:17:13	09:29:59	754109	5e4192083514ba02bc057574	4	1	practice_slash	9	practice_slash	19	stimuli_distractor_diamondtriangles.svg	stimuli_distractor_diamondtriangles.svg	13	no	0	1	2000	0	0			0	0			1				0	
6.6.1	win	2023-06-28	09:17:13	09:29:59	754109	5e4192083514ba02bc057574	4	1	practice_slash	9	advance_on_keypress_SLASH	20	stimuli_distractor_diamondtriangles.svg	stimuli_distractor_diamondtriangles.svg	13	no	57	0	589	0	0			0	0			1				0	
6.6.1	win	2023-06-28	09:17:13	09:30:02	756850	5e4192083514ba02bc057574	4	1	practice_slash	9	practice_slash	21	stimuli_distractor_diamondtriangles.svg	stimuli_target_rectangletriangles.svg	7	yes	53	1	510	0	0			0	0			1				0	
6.6.1	win	2023-06-28	09:17:13	09:30:02	756850	5e4192083514ba02bc057574	4	1	practice_slash	9	advance_on_keypress_SLASH	22	stimuli_distractor_diamondtriangles.svg	stimuli_target_rectangletriangles.svg	7	yes	57	0	367	0	0			0	0			1				0	
6.6.1	win	2023-06-28	09:17:13	09:30:05	759365	5e4192083514ba02bc057574	4	1	practice_slash	9	practice_slash	23	stimuli_target_squarediamonds.svg	stimuli_distractor_diamondtriangles.svg	2	yes	53	1	490	0	0			0	0			1				0	
6.6.1	win	2023-06-28	09:17:13	09:30:05	759365	5e4192083514ba02bc057574	4	1	practice_slash	9	advance_on_keypress_SLASH	24	stimuli_target_squarediamonds.svg	stimuli_distractor_diamondtriangles.svg	2	yes	57	0	296	0	0			0	0			1				0	
6.6.1	win	2023-06-28	09:17:13	09:30:09	763305	5e4192083514ba02bc057574	4	1	practice_slash	9	practice_slash	25	stimuli_distractor_trianglediamonds.svg	stimuli_distractor_trianglediamonds.svg	15	no	0	1	2000	0	0			0	0			1				0	
6.6.1	win	2023-06-28	09:17:13	09:30:09	763305	5e4192083514ba02bc057574	4	1	practice_slash	9	advance_on_keypress_SLASH	26	stimuli_distractor_trianglediamonds.svg	stimuli_distractor_trianglediamonds.svg	15	no	57	0	611	0	0			0	0			1				0	
6.6.1	win	2023-06-28	09:17:13	09:30:11	766277	5e4192083514ba02bc057574	4	1	practice_slash	9	practice_slash	27	stimuli_distractor_diamondtriangles.svg	stimuli_target_trianglerectangles.svg	9	yes	53	1	722	0	0			0	0			1				0	
6.6.1	win	2023-06-28	09:17:13	09:30:11	766277	5e4192083514ba02bc057574	4	1	practice_slash	9	advance_on_keypress_SLASH	28	stimuli_distractor_diamondtriangles.svg	stimuli_target_trianglerectangles.svg	9	yes	57	0	352	0	0			0	0			1				0	
6.6.1	win	2023-06-28	09:17:13	09:30:14	768924	5e4192083514ba02bc057574	4	1	practice_slash	9	practice_slash	29	stimuli_distractor_diamondtriangles.svg	stimuli_target_diamondrectangles.svg	8	yes	53	1	654	0	0			0	0			1				0	
6.6.1	win	2023-06-28	09:17:13	09:30:14	768924	5e4192083514ba02bc057574	4	1	practice_slash	9	advance_on_keypress_SLASH	30	stimuli_distractor_diamondtriangles.svg	stimuli_target_diamondrectangles.svg	8	yes	57	0	325	0	0			0	0			1				0	
6.6.1	win	2023-06-28	09:17:13	09:30:18	772885	5e4192083514ba02bc057574	4	1	practice_slash	9	practice_slash	31	stimuli_distractor_diamondtriangles.svg	stimuli_distractor_trianglediamonds.svg	14	no	0	1	2000	0	0			0	0			1				0	
6.6.1	win	2023-06-28	09:17:13	09:30:18	772885	5e4192083514ba02bc057574	4	1	practice_slash	9	advance_on_keypress_SLASH	32	stimuli_distractor_diamondtriangles.svg	stimuli_distractor_trianglediamonds.svg	14	no	57	0	382	0	0			0	0			1				0	
6.6.1	win	2023-06-28	09:17:13	09:30:24	778719	5e4192083514ba02bc057574	4	1	main_slash	11	main_slash	1	stimuli_distractor_diamondtriangles.svg	stimuli_target_diamondsquares.svg	32	yes	53	1	889	0	0			0	0			1				0	
6.6.1	win	2023-06-28	09:17:13	09:30:24	778719	5e4192083514ba02bc057574	4	1	main_slash	11	advance_on_keypress_SLASH	2	stimuli_distractor_diamondtriangles.svg	stimuli_target_diamondsquares.svg	32	yes	57	0	1017	0	0			0	0			1				0	
6.6.1	win	2023-06-28	09:17:13	09:30:26	780953	5e4192083514ba02bc057574	4	1	main_slash	11	main_slash	3	stimuli_target_squaretriangles.svg	stimuli_distractor_trianglediamonds.svg	3	yes	53	1	573	0	0			0	0			1				0	
6.6.1	win	2023-06-28	09:17:13	09:30:26	780953	5e4192083514ba02bc057574	4	1	main_slash	11	advance_on_keypress_SLASH	4	stimuli_target_squaretriangles.svg	stimuli_distractor_trianglediamonds.svg	3	yes	57	0	1625	0	0			0	0			1				0	
6.6.1	win	2023-06-28	09:17:13	09:30:29	783876	5e4192083514ba02bc057574	4	1	main_slash	11	main_slash	5	stimuli_distractor_trianglediamonds.svg	stimuli_target_rectangletriangles.svg	9	yes	53	1	663	0	0			0	0			1				0	
6.6.1	win	2023-06-28	09:17:13	09:30:29	783876	5e4192083514ba02bc057574	4	1	main_slash	11	advance_on_keypress_SLASH	6	stimuli_distractor_trianglediamonds.svg	stimuli_target_rectangletriangles.svg	9	yes	57	0	1036	0	0			0	0			1				0	
6.6.1	win	2023-06-28	09:17:13	09:30:31	785968	5e4192083514ba02bc057574	4	1	main_slash	11	main_slash	7	stimuli_distractor_diamondtriangles.svg	stimuli_target_squarediamonds.svg	16	yes	53	1	407	0	0			0	0			1				0	
6.6.1	win	2023-06-28	09:17:13	09:30:31	785968	5e4192083514ba02bc057574	4	1	main_slash	11	advance_on_keypress_SLASH	8	stimuli_distractor_diamondtriangles.svg	stimuli_target_squarediamonds.svg	16	yes	57	0	1307	0	0			0	0			1				0	
6.6.1	win	2023-06-28	09:17:13	09:30:33	788230	5e4192083514ba02bc057574	4	1	main_slash	11	main_slash	9	stimuli_distractor_diamondtriangles.svg	stimuli_target_squaretriangles.svg	15	yes	53	1	320	0	0			0	0			1				0	
6.6.1	win	2023-06-28	09:17:13	09:30:33	788230	5e4192083514ba02bc057574	4	1	main_slash	11	advance_on_keypress_SLASH	10	stimuli_distractor_diamondtriangles.svg	stimuli_target_squaretriangles.svg	15	yes	57	0	1025	0	0			0	0			1				0	
6.6.1	win	2023-06-28	09:17:13	09:30:36	790429	5e4192083514ba02bc057574	4	1	main_slash	11	main_slash	11	stimuli_target_trianglesquares.svg	stimuli_distractor_trianglediamonds.svg	18	yes	53	1	536	0	0			0	0			1				0	
6.6.1	win	2023-06-28	09:17:13	09:30:36	790429	5e4192083514ba02bc057574	4	1	main_slash	11	advance_on_keypress_SLASH	12	stimuli_target_trianglesquares.svg	stimuli_distractor_trianglediamonds.svg	18	yes	57	0	1258	0	0			0	0			1				0	
6.6.1	win	2023-06-28	09:17:13	09:30:38	792837	5e4192083514ba02bc057574	4	1	main_slash	11	main_slash	13	stimuli_distractor_trianglediamonds.svg	stimuli_target_rectanglediamonds.svg	10	yes	53	1	513	0	0			0	0			1				0	
6.6.1	win	2023-06-28	09:17:13	09:30:38	792837	5e4192083514ba02bc057574	4	1	main_slash	11	advance_on_keypress_SLASH	14	stimuli_distractor_trianglediamonds.svg	stimuli_target_rectanglediamonds.svg	10	yes	57	0	832	0	0			0	0			1				0	
6.6.1	win	2023-06-28	09:17:13	09:30:40	794845	5e4192083514ba02bc057574	4	1	main_slash	11	main_slash	15	stimuli_distractor_trianglediamonds.svg	stimuli_target_trianglerectangles.svg	25	yes	53	1	521	0	0			0	0			1				0	
6.6.1	win	2023-06-28	09:17:13	09:30:40	794845	5e4192083514ba02bc057574	4	1	main_slash	11	advance_on_keypress_SLASH	16	stimuli_distractor_trianglediamonds.svg	stimuli_target_trianglerectangles.svg	25	yes	57	0	1510	0	0			0	0			1				0	
6.6.1	win	2023-06-28	09:17:13	09:30:42	797265	5e4192083514ba02bc057574	4	1	main_slash	11	main_slash	17	stimuli_target_trianglerectangles.svg	stimuli_distractor_diamondtriangles.svg	21	yes	53	1	275	0	0			0	0			1				0	
6.6.1	win	2023-06-28	09:17:13	09:30:42	797265	5e4192083514ba02bc057574	4	1	main_slash	11	advance_on_keypress_SLASH	18	stimuli_target_trianglerectangles.svg	stimuli_distractor_diamondtriangles.svg	21	yes	57	0	1109	0	0			0	0			1				0	
6.6.1	win	2023-06-28	09:17:13	09:30:46	801007	5e4192083514ba02bc057574	4	1	main_slash	11	main_slash	19	stimuli_distractor_trianglediamonds.svg	stimuli_distractor_diamondtriangles.svg	35	no	0	1	2000	0	0			0	0			1				0	
6.6.1	win	2023-06-28	09:17:13	09:30:46	801007	5e4192083514ba02bc057574	4	1	main_slash	11	advance_on_keypress_SLASH	20	stimuli_distractor_trianglediamonds.svg	stimuli_distractor_diamondtriangles.svg	35	no	57	0	719	0	0			0	0			1				0	
6.6.1	win	2023-06-28	09:17:13	09:30:48	802723	5e4192083514ba02bc057574	4	1	main_slash	11	main_slash	21	stimuli_distractor_diamondtriangles.svg	stimuli_target_trianglerectangles.svg	29	yes	53	1	351	0	0			0	0			1				0	
6.6.1	win	2023-06-28	09:17:13	09:30:48	802723	5e4192083514ba02bc057574	4	1	main_slash	11	advance_on_keypress_SLASH	22	stimuli_distractor_diamondtriangles.svg	stimuli_target_trianglerectangles.svg	29	yes	57	0	858	0	0			0	0			1				0	
6.6.1	win	2023-06-28	09:17:13	09:30:50	804693	5e4192083514ba02bc057574	4	1	main_slash	11	main_slash	23	stimuli_target_squarediamonds.svg	stimuli_distractor_trianglediamonds.svg	4	yes	53	1	472	0	0			0	0			1				0	
6.6.1	win	2023-06-28	09:17:13	09:30:50	804693	5e4192083514ba02bc057574	4	1	main_slash	11	advance_on_keypress_SLASH	24	stimuli_target_squarediamonds.svg	stimuli_distractor_trianglediamonds.svg	4	yes	57	0	1056	0	0			0	0			1				0	
6.6.1	win	2023-06-28	09:17:13	09:30:52	806716	5e4192083514ba02bc057574	4	1	main_slash	11	main_slash	25	stimuli_distractor_trianglediamonds.svg	stimuli_distractor_trianglediamonds.svg	33	no	53	0	329	0	0			0	0			1				0	
6.6.1	win	2023-06-28	09:17:13	09:30:52	806716	5e4192083514ba02bc057574	4	1	main_slash	11	advance_on_keypress_SLASH	26	stimuli_distractor_trianglediamonds.svg	stimuli_distractor_trianglediamonds.svg	33	no	57	0	896	0	0			0	0			1				0	
6.6.1	win	2023-06-28	09:17:13	09:30:54	808695	5e4192083514ba02bc057574	4	1	main_slash	11	main_slash	27	stimuli_distractor_trianglediamonds.svg	stimuli_target_squaretriangles.svg	11	yes	53	1	425	0	0			0	0			1				0	
6.6.1	win	2023-06-28	09:17:13	09:30:54	808695	5e4192083514ba02bc057574	4	1	main_slash	11	advance_on_keypress_SLASH	28	stimuli_distractor_trianglediamonds.svg	stimuli_target_squaretriangles.svg	11	yes	57	0	1210	0	0			0	0			1				0	
6.6.1	win	2023-06-28	09:17:13	09:30:58	812535	5e4192083514ba02bc057574	4	1	main_slash	11	main_slash	29	stimuli_distractor_trianglediamonds.svg	stimuli_distractor_diamondtriangles.svg	36	no	0	1	2000	0	0			0	0			1				0	
6.6.1	win	2023-06-28	09:17:13	09:30:58	812535	5e4192083514ba02bc057574	4	1	main_slash	11	advance_on_keypress_SLASH	30	stimuli_distractor_trianglediamonds.svg	stimuli_distractor_diamondtriangles.svg	36	no	57	0	787	0	0			0	0			1				0	
6.6.1	win	2023-06-28	09:17:13	09:31:01	815968	5e4192083514ba02bc057574	4	1	main_slash	11	main_slash	31	stimuli_distractor_diamondtriangles.svg	stimuli_distractor_trianglediamonds.svg	38	no	0	1	2000	0	0			0	0			1				0	
6.6.1	win	2023-06-28	09:17:13	09:31:01	815968	5e4192083514ba02bc057574	4	1	main_slash	11	advance_on_keypress_SLASH	32	stimuli_distractor_diamondtriangles.svg	stimuli_distractor_trianglediamonds.svg	38	no	57	0	737	0	0			0	0			1				0	
6.6.1	win	2023-06-28	09:17:13	09:31:03	817803	5e4192083514ba02bc057574	4	1	main_slash	11	main_slash	33	stimuli_distractor_trianglediamonds.svg	stimuli_target_squarediamonds.svg	12	yes	53	1	453	0	0			0	0			1				0	
6.6.1	win	2023-06-28	09:17:13	09:31:03	817803	5e4192083514ba02bc057574	4	1	main_slash	11	advance_on_keypress_SLASH	34	stimuli_distractor_trianglediamonds.svg	stimuli_target_squarediamonds.svg	12	yes	57	0	1303	0	0			0	0			1				0	
6.6.1	win	2023-06-28	09:17:13	09:31:05	820270	5e4192083514ba02bc057574	4	1	main_slash	11	main_slash	35	stimuli_distractor_diamondtriangles.svg	stimuli_target_trianglesquares.svg	30	yes	53	1	521	0	0			0	0			1				0	
6.6.1	win	2023-06-28	09:17:13	09:31:05	820270	5e4192083514ba02bc057574	4	1	main_slash	11	advance_on_keypress_SLASH	36	stimuli_distractor_diamondtriangles.svg	stimuli_target_trianglesquares.svg	30	yes	57	0	916	0	0			0	0			1				0	
6.6.1	win	2023-06-28	09:17:13	09:31:09	823832	5e4192083514ba02bc057574	4	1	main_slash	11	main_slash	37	stimuli_distractor_trianglediamonds.svg	stimuli_distractor_trianglediamonds.svg	34	no	0	1	2000	0	0			0	0			1				0	
6.6.1	win	2023-06-28	09:17:13	09:31:09	823832	5e4192083514ba02bc057574	4	1	main_slash	11	advance_on_keypress_SLASH	38	stimuli_distractor_trianglediamonds.svg	stimuli_distractor_trianglediamonds.svg	34	no	57	0	630	0	0			0	0			1				0	
6.6.1	win	2023-06-28	09:17:13	09:31:11	825562	5e4192083514ba02bc057574	4	1	main_slash	11	main_slash	39	stimuli_target_rectangletriangles.svg	stimuli_distractor_trianglediamonds.svg	1	yes	53	1	446	0	0			0	0			1				0	
6.6.1	win	2023-06-28	09:17:13	09:31:11	825562	5e4192083514ba02bc057574	4	1	main_slash	11	advance_on_keypress_SLASH	40	stimuli_target_rectangletriangles.svg	stimuli_distractor_trianglediamonds.svg	1	yes	57	0	952	0	0			0	0			1				0	
6.6.1	win	2023-06-28	09:17:13	09:31:14	829163	5e4192083514ba02bc057574	4	1	main_slash	11	main_slash	41	stimuli_distractor_diamondtriangles.svg	stimuli_distractor_diamondtriangles.svg	40	no	0	1	2000	0	0			0	0			1				0	
6.6.1	win	2023-06-28	09:17:13	09:31:14	829163	5e4192083514ba02bc057574	4	1	main_slash	11	advance_on_keypress_SLASH	42	stimuli_distractor_diamondtriangles.svg	stimuli_distractor_diamondtriangles.svg	40	no	57	0	743	0	0			0	0			1				0	
6.6.1	win	2023-06-28	09:17:13	09:31:18	832545	5e4192083514ba02bc057574	4	1	main_slash	11	main_slash	43	stimuli_target_rectangletriangles.svg	stimuli_distractor_diamondtriangles.svg	5	yes	0	0	2000	0	0			0	0			1				0	
6.6.1	win	2023-06-28	09:17:13	09:31:18	832545	5e4192083514ba02bc057574	4	1	main_slash	11	advance_on_keypress_SLASH	44	stimuli_target_rectangletriangles.svg	stimuli_distractor_diamondtriangles.svg	5	yes	57	0	637	0	0			0	0			1				0	
6.6.1	win	2023-06-28	09:17:13	09:31:20	834358	5e4192083514ba02bc057574	4	1	main_slash	11	main_slash	45	stimuli_distractor_trianglediamonds.svg	stimuli_target_trianglesquares.svg	26	yes	53	1	532	0	0			0	0			1				0	
6.6.1	win	2023-06-28	09:17:13	09:31:20	834358	5e4192083514ba02bc057574	4	1	main_slash	11	advance_on_keypress_SLASH	46	stimuli_distractor_trianglediamonds.svg	stimuli_target_trianglesquares.svg	26	yes	57	0	754	0	0			0	0			1				0	
6.6.1	win	2023-06-28	09:17:13	09:31:22	836408	5e4192083514ba02bc057574	4	1	main_slash	11	main_slash	47	stimuli_target_squaretriangles.svg	stimuli_distractor_diamondtriangles.svg	7	yes	53	1	648	0	0			0	0			1				0	
6.6.1	win	2023-06-28	09:17:13	09:31:22	836408	5e4192083514ba02bc057574	4	1	main_slash	11	advance_on_keypress_SLASH	48	stimuli_target_squaretriangles.svg	stimuli_distractor_diamondtriangles.svg	7	yes	57	0	1113	0	0			0	0			1				0	
6.6.1	win	2023-06-28	09:17:13	09:31:24	838751	5e4192083514ba02bc057574	4	1	main_slash	11	main_slash	49	stimuli_target_rectanglediamonds.svg	stimuli_distractor_diamondtriangles.svg	6	yes	53	1	575	0	0			0	0			1				0	
6.6.1	win	2023-06-28	09:17:13	09:31:24	838751	5e4192083514ba02bc057574	4	1	main_slash	11	advance_on_keypress_SLASH	50	stimuli_target_rectanglediamonds.svg	stimuli_distractor_diamondtriangles.svg	6	yes	57	0	1189	0	0			0	0			1				0	
6.6.1	win	2023-06-28	09:17:13	09:31:26	841115	5e4192083514ba02bc057574	4	1	main_slash	11	main_slash	51	stimuli_distractor_trianglediamonds.svg	stimuli_target_diamondsquares.svg	28	yes	53	1	540	0	0			0	0			1				0	
6.6.1	win	2023-06-28	09:17:13	09:31:26	841115	5e4192083514ba02bc057574	4	1	main_slash	11	advance_on_keypress_SLASH	52	stimuli_distractor_trianglediamonds.svg	stimuli_target_diamondsquares.svg	28	yes	57	0	951	0	0			0	0			1				0	
6.6.1	win	2023-06-28	09:17:13	09:31:29	843354	5e4192083514ba02bc057574	4	1	main_slash	11	main_slash	53	stimuli_distractor_diamondtriangles.svg	stimuli_target_diamondrectangles.svg	31	yes	53	1	645	0	0			0	0			1				0	
6.6.1	win	2023-06-28	09:17:13	09:31:29	843354	5e4192083514ba02bc057574	4	1	main_slash	11	advance_on_keypress_SLASH	54	stimuli_distractor_diamondtriangles.svg	stimuli_target_diamondrectangles.svg	31	yes	57	0	1000	0	0			0	0			1				0	
6.6.1	win	2023-06-28	09:17:13	09:31:31	845541	5e4192083514ba02bc057574	4	1	main_slash	11	main_slash	55	stimuli_target_rectanglediamonds.svg	stimuli_distractor_trianglediamonds.svg	2	yes	53	1	534	0	0			0	0			1				0	
6.6.1	win	2023-06-28	09:17:13	09:31:31	845541	5e4192083514ba02bc057574	4	1	main_slash	11	advance_on_keypress_SLASH	56	stimuli_target_rectanglediamonds.svg	stimuli_distractor_trianglediamonds.svg	2	yes	57	0	916	0	0			0	0			1				0	
6.6.1	win	2023-06-28	09:17:13	09:31:33	847809	5e4192083514ba02bc057574	4	1	main_slash	11	main_slash	57	stimuli_distractor_diamondtriangles.svg	stimuli_distractor_trianglediamonds.svg	37	no	53	0	703	0	0			0	0			1				0	
6.6.1	win	2023-06-28	09:17:13	09:31:33	847809	5e4192083514ba02bc057574	4	1	main_slash	11	advance_on_keypress_SLASH	58	stimuli_distractor_diamondtriangles.svg	stimuli_distractor_trianglediamonds.svg	37	no	57	0	695	0	0			0	0			1				0	
6.6.1	win	2023-06-28	09:17:13	09:31:35	849893	5e4192083514ba02bc057574	4	1	main_slash	11	main_slash	59	stimuli_target_trianglerectangles.svg	stimuli_distractor_trianglediamonds.svg	17	yes	53	1	754	0	0			0	0			1				0	
6.6.1	win	2023-06-28	09:17:13	09:31:35	849893	5e4192083514ba02bc057574	4	1	main_slash	11	advance_on_keypress_SLASH	60	stimuli_target_trianglerectangles.svg	stimuli_distractor_trianglediamonds.svg	17	yes	57	0	581	0	0			0	0			1				0	
6.6.1	win	2023-06-28	09:17:13	09:31:37	851599	5e4192083514ba02bc057574	4	1	main_slash	11	main_slash	61	stimuli_target_diamondsquares.svg	stimuli_distractor_trianglediamonds.svg	20	yes	53	1	477	0	0			0	0			1				0	
6.6.1	win	2023-06-28	09:17:13	09:31:37	851599	5e4192083514ba02bc057574	4	1	main_slash	11	advance_on_keypress_SLASH	62	stimuli_target_diamondsquares.svg	stimuli_distractor_trianglediamonds.svg	20	yes	57	0	754	0	0			0	0			1				0	
6.6.1	win	2023-06-28	09:17:13	09:31:39	853382	5e4192083514ba02bc057574	4	1	main_slash	11	main_slash	63	stimuli_distractor_diamondtriangles.svg	stimuli_target_rectanglediamonds.svg	14	yes	53	1	379	0	0			0	0			1				0	
6.6.1	win	2023-06-28	09:17:13	09:31:39	853382	5e4192083514ba02bc057574	4	1	main_slash	11	advance_on_keypress_SLASH	64	stimuli_distractor_diamondtriangles.svg	stimuli_target_rectanglediamonds.svg	14	yes	57	0	753	0	0			0	0			1				0	
6.6.1	win	2023-06-28	09:17:13	09:31:40	855186	5e4192083514ba02bc057574	4	1	main_slash	11	main_slash	65	stimuli_distractor_diamondtriangles.svg	stimuli_target_rectangletriangles.svg	13	yes	53	1	417	0	0			0	0			1				0	
6.6.1	win	2023-06-28	09:17:13	09:31:40	855186	5e4192083514ba02bc057574	4	1	main_slash	11	advance_on_keypress_SLASH	66	stimuli_distractor_diamondtriangles.svg	stimuli_target_rectangletriangles.svg	13	yes	57	0	786	0	0			0	0			1				0	
6.6.1	win	2023-06-28	09:17:13	09:31:42	857026	5e4192083514ba02bc057574	4	1	main_slash	11	main_slash	67	stimuli_distractor_trianglediamonds.svg	stimuli_target_diamondrectangles.svg	27	yes	53	1	407	0	0			0	0			1				0	
6.6.1	win	2023-06-28	09:17:13	09:31:42	857026	5e4192083514ba02bc057574	4	1	main_slash	11	advance_on_keypress_SLASH	68	stimuli_distractor_trianglediamonds.svg	stimuli_target_diamondrectangles.svg	27	yes	57	0	1057	0	0			0	0			1				0	
6.6.1	win	2023-06-28	09:17:13	09:31:44	859093	5e4192083514ba02bc057574	4	1	main_slash	11	main_slash	69	stimuli_target_diamondsquares.svg	stimuli_distractor_diamondtriangles.svg	24	yes	53	1	371	0	0			0	0			1				0	
6.6.1	win	2023-06-28	09:17:13	09:31:44	859093	5e4192083514ba02bc057574	4	1	main_slash	11	advance_on_keypress_SLASH	70	stimuli_target_diamondsquares.svg	stimuli_distractor_diamondtriangles.svg	24	yes	57	0	960	0	0			0	0			1				0	
6.6.1	win	2023-06-28	09:17:13	09:31:46	861045	5e4192083514ba02bc057574	4	1	main_slash	11	main_slash	71	stimuli_target_diamondrectangles.svg	stimuli_distractor_trianglediamonds.svg	19	yes	53	1	360	0	0			0	0			1				0	
6.6.1	win	2023-06-28	09:17:13	09:31:46	861045	5e4192083514ba02bc057574	4	1	main_slash	11	advance_on_keypress_SLASH	72	stimuli_target_diamondrectangles.svg	stimuli_distractor_trianglediamonds.svg	19	yes	57	0	812	0	0			0	0			1				0	
6.6.1	win	2023-06-28	09:17:13	09:31:48	862913	5e4192083514ba02bc057574	4	1	main_slash	11	main_slash	73	stimuli_target_squarediamonds.svg	stimuli_distractor_diamondtriangles.svg	8	yes	53	1	413	0	0			0	0			1				0	
6.6.1	win	2023-06-28	09:17:13	09:31:48	862913	5e4192083514ba02bc057574	4	1	main_slash	11	advance_on_keypress_SLASH	74	stimuli_target_squarediamonds.svg	stimuli_distractor_diamondtriangles.svg	8	yes	57	0	1313	0	0			0	0			1				0	
6.6.1	win	2023-06-28	09:17:13	09:31:50	865203	5e4192083514ba02bc057574	4	1	main_slash	11	main_slash	75	stimuli_distractor_diamondtriangles.svg	stimuli_distractor_diamondtriangles.svg	39	no	53	0	336	0	0			0	0			1				0	
6.6.1	win	2023-06-28	09:17:13	09:31:50	865203	5e4192083514ba02bc057574	4	1	main_slash	11	advance_on_keypress_SLASH	76	stimuli_distractor_diamondtriangles.svg	stimuli_distractor_diamondtriangles.svg	39	no	57	0	775	0	0			0	0			1				0	
6.6.1	win	2023-06-28	09:17:13	09:31:52	867286	5e4192083514ba02bc057574	4	1	main_slash	11	main_slash	77	stimuli_target_diamondrectangles.svg	stimuli_distractor_diamondtriangles.svg	23	yes	53	1	670	0	0			0	0			1				0	
6.6.1	win	2023-06-28	09:17:13	09:31:52	867286	5e4192083514ba02bc057574	4	1	main_slash	11	advance_on_keypress_SLASH	78	stimuli_target_diamondrectangles.svg	stimuli_distractor_diamondtriangles.svg	23	yes	57	0	910	0	0			0	0			1				0	
6.6.1	win	2023-06-28	09:17:13	09:31:55	869320	5e4192083514ba02bc057574	4	1	main_slash	11	main_slash	79	stimuli_target_trianglesquares.svg	stimuli_distractor_diamondtriangles.svg	22	yes	53	1	488	0	0			0	0			1				0	
6.6.1	win	2023-06-28	09:17:13	09:31:55	869320	5e4192083514ba02bc057574	4	1	main_slash	11	advance_on_keypress_SLASH	80	stimuli_target_trianglesquares.svg	stimuli_distractor_diamondtriangles.svg	22	yes	57	0	576	0	0			0	0			1				0	
6.6.1	win	2023-06-28	09:17:13	09:31:56	871015	5e4192083514ba02bc057574	4	1	main_slash	11	main_slash	81	stimuli_distractor_diamondtriangles.svg	stimuli_target_trianglerectangles.svg	29	yes	53	1	484	0	0			0	0			1				0	
6.6.1	win	2023-06-28	09:17:13	09:31:56	871015	5e4192083514ba02bc057574	4	1	main_slash	11	advance_on_keypress_SLASH	82	stimuli_distractor_diamondtriangles.svg	stimuli_target_trianglerectangles.svg	29	yes	57	0	1758	0	0			0	0			1				0	
6.6.1	win	2023-06-28	09:17:13	09:31:59	873886	5e4192083514ba02bc057574	4	1	main_slash	11	main_slash	83	stimuli_distractor_trianglediamonds.svg	stimuli_target_squaretriangles.svg	11	yes	53	1	472	0	0			0	0			1				0	
6.6.1	win	2023-06-28	09:17:13	09:31:59	873886	5e4192083514ba02bc057574	4	1	main_slash	11	advance_on_keypress_SLASH	84	stimuli_distractor_trianglediamonds.svg	stimuli_target_squaretriangles.svg	11	yes	57	0	877	0	0			0	0			1				0	
6.6.1	win	2023-06-28	09:17:13	09:32:03	877397	5e4192083514ba02bc057574	4	1	main_slash	11	main_slash	85	stimuli_distractor_diamondtriangles.svg	stimuli_distractor_diamondtriangles.svg	39	no	0	1	2000	0	0			0	0			1				0	
6.6.1	win	2023-06-28	09:17:13	09:32:03	877397	5e4192083514ba02bc057574	4	1	main_slash	11	advance_on_keypress_SLASH	86	stimuli_distractor_diamondtriangles.svg	stimuli_distractor_diamondtriangles.svg	39	no	57	0	926	0	0			0	0			1				0	
6.6.1	win	2023-06-28	09:17:13	09:32:06	880962	5e4192083514ba02bc057574	4	1	main_slash	11	main_slash	87	stimuli_distractor_diamondtriangles.svg	stimuli_distractor_diamondtriangles.svg	40	no	0	1	2000	0	0			0	0			1				0	
6.6.1	win	2023-06-28	09:17:13	09:32:06	880962	5e4192083514ba02bc057574	4	1	main_slash	11	advance_on_keypress_SLASH	88	stimuli_distractor_diamondtriangles.svg	stimuli_distractor_diamondtriangles.svg	40	no	57	0	326	0	0			0	0			1				0	
6.6.1	win	2023-06-28	09:17:13	09:32:09	883927	5e4192083514ba02bc057574	4	1	main_slash	11	main_slash	89	stimuli_distractor_trianglediamonds.svg	stimuli_distractor_diamondtriangles.svg	36	no	0	1	2000	0	0			0	0			1				0	
6.6.1	win	2023-06-28	09:17:13	09:32:09	883927	5e4192083514ba02bc057574	4	1	main_slash	11	advance_on_keypress_SLASH	90	stimuli_distractor_trianglediamonds.svg	stimuli_distractor_diamondtriangles.svg	36	no	57	0	437	0	0			0	0			1				0	
6.6.1	win	2023-06-28	09:17:13	09:32:11	886090	5e4192083514ba02bc057574	4	1	main_slash	11	main_slash	91	stimuli_distractor_trianglediamonds.svg	stimuli_target_diamondrectangles.svg	27	yes	53	1	1080	0	0			0	0			1				0	
6.6.1	win	2023-06-28	09:17:13	09:32:11	886090	5e4192083514ba02bc057574	4	1	main_slash	11	advance_on_keypress_SLASH	92	stimuli_distractor_trianglediamonds.svg	stimuli_target_diamondrectangles.svg	27	yes	57	0	640	0	0			0	0			1				0	
6.6.1	win	2023-06-28	09:17:13	09:32:13	887759	5e4192083514ba02bc057574	4	1	main_slash	11	main_slash	93	stimuli_target_rectangletriangles.svg	stimuli_distractor_trianglediamonds.svg	1	yes	53	1	384	0	0			0	0			1				0	
6.6.1	win	2023-06-28	09:17:13	09:32:13	887759	5e4192083514ba02bc057574	4	1	main_slash	11	advance_on_keypress_SLASH	94	stimuli_target_rectangletriangles.svg	stimuli_distractor_trianglediamonds.svg	1	yes	57	0	891	0	0			0	0			1				0	
6.6.1	win	2023-06-28	09:17:13	09:32:15	890083	5e4192083514ba02bc057574	4	1	main_slash	11	main_slash	95	stimuli_distractor_diamondtriangles.svg	stimuli_distractor_trianglediamonds.svg	37	no	53	0	792	0	0			0	0			1				0	
6.6.1	win	2023-06-28	09:17:13	09:32:15	890083	5e4192083514ba02bc057574	4	1	main_slash	11	advance_on_keypress_SLASH	96	stimuli_distractor_diamondtriangles.svg	stimuli_distractor_trianglediamonds.svg	37	no	57	0	680	0	0			0	0			1				0	
6.6.1	win	2023-06-28	09:17:13	09:32:17	891959	5e4192083514ba02bc057574	4	1	main_slash	11	main_slash	97	stimuli_distractor_diamondtriangles.svg	stimuli_target_diamondsquares.svg	32	yes	53	1	552	0	0			0	0			1				0	
6.6.1	win	2023-06-28	09:17:13	09:32:17	891959	5e4192083514ba02bc057574	4	1	main_slash	11	advance_on_keypress_SLASH	98	stimuli_distractor_diamondtriangles.svg	stimuli_target_diamondsquares.svg	32	yes	57	0	672	0	0			0	0			1				0	
6.6.1	win	2023-06-28	09:17:13	09:32:19	894206	5e4192083514ba02bc057574	4	1	main_slash	11	main_slash	99	stimuli_distractor_trianglediamonds.svg	stimuli_distractor_diamondtriangles.svg	35	no	53	0	932	0	0			0	0			1				0	
6.6.1	win	2023-06-28	09:17:13	09:32:19	894206	5e4192083514ba02bc057574	4	1	main_slash	11	advance_on_keypress_SLASH	100	stimuli_distractor_trianglediamonds.svg	stimuli_distractor_diamondtriangles.svg	35	no	57	0	501	0	0			0	0			1				0	
6.6.1	win	2023-06-28	09:17:13	09:32:21	896210	5e4192083514ba02bc057574	4	1	main_slash	11	main_slash	101	stimuli_target_trianglesquares.svg	stimuli_distractor_trianglediamonds.svg	18	yes	53	1	854	0	0			0	0			1				0	
6.6.1	win	2023-06-28	09:17:13	09:32:21	896210	5e4192083514ba02bc057574	4	1	main_slash	11	advance_on_keypress_SLASH	102	stimuli_target_trianglesquares.svg	stimuli_distractor_trianglediamonds.svg	18	yes	57	0	686	0	0			0	0			1				0	
6.6.1	win	2023-06-28	09:17:13	09:32:23	898231	5e4192083514ba02bc057574	4	1	main_slash	11	main_slash	103	stimuli_target_diamondsquares.svg	stimuli_distractor_trianglediamonds.svg	20	yes	53	1	692	0	0			0	0			1				0	
6.6.1	win	2023-06-28	09:17:13	09:32:23	898231	5e4192083514ba02bc057574	4	1	main_slash	11	advance_on_keypress_SLASH	104	stimuli_target_diamondsquares.svg	stimuli_distractor_trianglediamonds.svg	20	yes	57	0	848	0	0			0	0			1				0	
6.6.1	win	2023-06-28	09:17:13	09:32:26	900557	5e4192083514ba02bc057574	4	1	main_slash	11	main_slash	105	stimuli_distractor_diamondtriangles.svg	stimuli_target_trianglesquares.svg	30	yes	53	1	836	0	0			0	0			1				0	
6.6.1	win	2023-06-28	09:17:13	09:32:26	900557	5e4192083514ba02bc057574	4	1	main_slash	11	advance_on_keypress_SLASH	106	stimuli_distractor_diamondtriangles.svg	stimuli_target_trianglesquares.svg	30	yes	57	0	525	0	0			0	0			1				0	
6.6.1	win	2023-06-28	09:17:13	09:32:28	902383	5e4192083514ba02bc057574	4	1	main_slash	11	main_slash	107	stimuli_target_diamondsquares.svg	stimuli_distractor_diamondtriangles.svg	24	yes	53	1	663	0	0			0	0			1				0	
6.6.1	win	2023-06-28	09:17:13	09:32:28	902383	5e4192083514ba02bc057574	4	1	main_slash	11	advance_on_keypress_SLASH	108	stimuli_target_diamondsquares.svg	stimuli_distractor_diamondtriangles.svg	24	yes	57	0	447	0	0			0	0			1				0	
6.6.1	win	2023-06-28	09:17:13	09:32:31	905486	5e4192083514ba02bc057574	4	1	main_slash	11	main_slash	109	stimuli_distractor_trianglediamonds.svg	stimuli_distractor_trianglediamonds.svg	34	no	0	1	2000	0	0			0	0			1				0	
6.6.1	win	2023-06-28	09:17:13	09:32:31	905486	5e4192083514ba02bc057574	4	1	main_slash	11	advance_on_keypress_SLASH	110	stimuli_distractor_trianglediamonds.svg	stimuli_distractor_trianglediamonds.svg	34	no	57	0	688	0	0			0	0			1				0	
6.6.1	win	2023-06-28	09:17:13	09:32:33	907477	5e4192083514ba02bc057574	4	1	main_slash	11	main_slash	111	stimuli_target_squarediamonds.svg	stimuli_distractor_diamondtriangles.svg	8	yes	53	1	658	0	0			0	0			1				0	
6.6.1	win	2023-06-28	09:17:13	09:32:33	907477	5e4192083514ba02bc057574	4	1	main_slash	11	advance_on_keypress_SLASH	112	stimuli_target_squarediamonds.svg	stimuli_distractor_diamondtriangles.svg	8	yes	57	0	994	0	0			0	0			1				0	
6.6.1	win	2023-06-28	09:17:13	09:32:36	911101	5e4192083514ba02bc057574	4	1	main_slash	11	main_slash	113	stimuli_distractor_trianglediamonds.svg	stimuli_target_diamondsquares.svg	28	yes	0	0	2000	0	0			0	0			1				0	
6.6.1	win	2023-06-28	09:17:13	09:32:36	911101	5e4192083514ba02bc057574	4	1	main_slash	11	advance_on_keypress_SLASH	114	stimuli_distractor_trianglediamonds.svg	stimuli_target_diamondsquares.svg	28	yes	57	0	617	0	0			0	0			1				0	
6.6.1	win	2023-06-28	09:17:13	09:32:38	912800	5e4192083514ba02bc057574	4	1	main_slash	11	main_slash	115	stimuli_target_squaretriangles.svg	stimuli_distractor_diamondtriangles.svg	7	yes	53	1	434	0	0			0	0			1				0	
6.6.1	win	2023-06-28	09:17:13	09:32:38	912800	5e4192083514ba02bc057574	4	1	main_slash	11	advance_on_keypress_SLASH	116	stimuli_target_squaretriangles.svg	stimuli_distractor_diamondtriangles.svg	7	yes	57	0	593	0	0			0	0			1				0	
6.6.1	win	2023-06-28	09:17:13	09:32:40	914410	5e4192083514ba02bc057574	4	1	main_slash	11	main_slash	117	stimuli_target_trianglesquares.svg	stimuli_distractor_diamondtriangles.svg	22	yes	53	1	378	0	0			0	0			1				0	
6.6.1	win	2023-06-28	09:17:13	09:32:40	914410	5e4192083514ba02bc057574	4	1	main_slash	11	advance_on_keypress_SLASH	118	stimuli_target_trianglesquares.svg	stimuli_distractor_diamondtriangles.svg	22	yes	57	0	852	0	0			0	0			1				0	
6.6.1	win	2023-06-28	09:17:13	09:32:41	916255	5e4192083514ba02bc057574	4	1	main_slash	11	main_slash	119	stimuli_target_squarediamonds.svg	stimuli_distractor_trianglediamonds.svg	4	yes	53	1	357	0	0			0	0			1				0	
6.6.1	win	2023-06-28	09:17:13	09:32:41	916255	5e4192083514ba02bc057574	4	1	main_slash	11	advance_on_keypress_SLASH	120	stimuli_target_squarediamonds.svg	stimuli_distractor_trianglediamonds.svg	4	yes	57	0	938	0	0			0	0			1				0	
6.6.1	win	2023-06-28	09:17:13	09:32:43	918180	5e4192083514ba02bc057574	4	1	main_slash	11	main_slash	121	stimuli_target_rectangletriangles.svg	stimuli_distractor_diamondtriangles.svg	5	yes	53	1	348	0	0			0	0			1				0	
6.6.1	win	2023-06-28	09:17:13	09:32:43	918180	5e4192083514ba02bc057574	4	1	main_slash	11	advance_on_keypress_SLASH	122	stimuli_target_rectangletriangles.svg	stimuli_distractor_diamondtriangles.svg	5	yes	57	0	1144	0	0			0	0			1				0	
6.6.1	win	2023-06-28	09:17:13	09:32:45	920293	5e4192083514ba02bc057574	4	1	main_slash	11	main_slash	123	stimuli_target_rectanglediamonds.svg	stimuli_distractor_trianglediamonds.svg	2	yes	53	1	329	0	0			0	0			1				0	
6.6.1	win	2023-06-28	09:17:13	09:32:45	920293	5e4192083514ba02bc057574	4	1	main_slash	11	advance_on_keypress_SLASH	124	stimuli_target_rectanglediamonds.svg	stimuli_distractor_trianglediamonds.svg	2	yes	57	0	746	0	0			0	0			1				0	
6.6.1	win	2023-06-28	09:17:13	09:32:47	921983	5e4192083514ba02bc057574	4	1	main_slash	11	main_slash	125	stimuli_distractor_diamondtriangles.svg	stimuli_target_diamondrectangles.svg	31	yes	53	1	286	0	0			0	0			1				0	
6.6.1	win	2023-06-28	09:17:13	09:32:47	921983	5e4192083514ba02bc057574	4	1	main_slash	11	advance_on_keypress_SLASH	126	stimuli_distractor_diamondtriangles.svg	stimuli_target_diamondrectangles.svg	31	yes	57	0	789	0	0			0	0			1				0	
6.6.1	win	2023-06-28	09:17:13	09:32:49	923858	5e4192083514ba02bc057574	4	1	main_slash	11	main_slash	127	stimuli_distractor_diamondtriangles.svg	stimuli_target_squarediamonds.svg	16	yes	53	1	445	0	0			0	0			1				0	
6.6.1	win	2023-06-28	09:17:13	09:32:49	923858	5e4192083514ba02bc057574	4	1	main_slash	11	advance_on_keypress_SLASH	128	stimuli_distractor_diamondtriangles.svg	stimuli_target_squarediamonds.svg	16	yes	57	0	561	0	0			0	0			1				0	
6.6.1	win	2023-06-28	09:17:13	09:32:51	925428	5e4192083514ba02bc057574	4	1	main_slash	11	main_slash	129	stimuli_target_squaretriangles.svg	stimuli_distractor_trianglediamonds.svg	3	yes	53	1	366	0	0			0	0			1				0	
6.6.1	win	2023-06-28	09:17:13	09:32:51	925428	5e4192083514ba02bc057574	4	1	main_slash	11	advance_on_keypress_SLASH	130	stimuli_target_squaretriangles.svg	stimuli_distractor_trianglediamonds.svg	3	yes	57	0	476	0	0			0	0			1				0	
6.6.1	win	2023-06-28	09:17:13	09:32:52	926928	5e4192083514ba02bc057574	4	1	main_slash	11	main_slash	131	stimuli_distractor_diamondtriangles.svg	stimuli_target_rectanglediamonds.svg	14	yes	53	1	384	0	0			0	0			1				0	
6.6.1	win	2023-06-28	09:17:13	09:32:52	926928	5e4192083514ba02bc057574	4	1	main_slash	11	advance_on_keypress_SLASH	132	stimuli_distractor_diamondtriangles.svg	stimuli_target_rectanglediamonds.svg	14	yes	57	0	706	0	0			0	0			1				0	
6.6.1	win	2023-06-28	09:17:13	09:32:54	928614	5e4192083514ba02bc057574	4	1	main_slash	11	main_slash	133	stimuli_distractor_diamondtriangles.svg	stimuli_distractor_trianglediamonds.svg	38	no	53	0	336	0	0			0	0			1				0	
6.6.1	win	2023-06-28	09:17:13	09:32:54	928614	5e4192083514ba02bc057574	4	1	main_slash	11	advance_on_keypress_SLASH	134	stimuli_distractor_diamondtriangles.svg	stimuli_distractor_trianglediamonds.svg	38	no	57	0	519	0	0			0	0			1				0	
6.6.1	win	2023-06-28	09:17:13	09:32:55	930197	5e4192083514ba02bc057574	4	1	main_slash	11	main_slash	135	stimuli_target_rectanglediamonds.svg	stimuli_distractor_diamondtriangles.svg	6	yes	53	1	421	0	0			0	0			1				0	
6.6.1	win	2023-06-28	09:17:13	09:32:55	930197	5e4192083514ba02bc057574	4	1	main_slash	11	advance_on_keypress_SLASH	136	stimuli_target_rectanglediamonds.svg	stimuli_distractor_diamondtriangles.svg	6	yes	57	0	735	0	0			0	0			1				0	
6.6.1	win	2023-06-28	09:17:13	09:32:58	932407	5e4192083514ba02bc057574	4	1	main_slash	11	main_slash	137	stimuli_distractor_trianglediamonds.svg	stimuli_target_trianglerectangles.svg	25	yes	53	1	830	0	0			0	0			1				0	
6.6.1	win	2023-06-28	09:17:13	09:32:58	932407	5e4192083514ba02bc057574	4	1	main_slash	11	advance_on_keypress_SLASH	138	stimuli_distractor_trianglediamonds.svg	stimuli_target_trianglerectangles.svg	25	yes	57	0	1521	0	0			0	0			1				0	
6.6.1	win	2023-06-28	09:17:13	09:33:00	935228	5e4192083514ba02bc057574	4	1	main_slash	11	main_slash	139	stimuli_distractor_diamondtriangles.svg	stimuli_target_rectangletriangles.svg	13	yes	53	1	653	0	0			0	0			1				0	
6.6.1	win	2023-06-28	09:17:13	09:33:00	935228	5e4192083514ba02bc057574	4	1	main_slash	11	advance_on_keypress_SLASH	140	stimuli_distractor_diamondtriangles.svg	stimuli_target_rectangletriangles.svg	13	yes	57	0	689	0	0			0	0			1				0	
6.6.1	win	2023-06-28	09:17:13	09:33:02	936947	5e4192083514ba02bc057574	4	1	main_slash	11	main_slash	141	stimuli_target_diamondrectangles.svg	stimuli_distractor_trianglediamonds.svg	19	yes	53	1	390	0	0			0	0			1				0	
6.6.1	win	2023-06-28	09:17:13	09:33:02	936947	5e4192083514ba02bc057574	4	1	main_slash	11	advance_on_keypress_SLASH	142	stimuli_target_diamondrectangles.svg	stimuli_distractor_trianglediamonds.svg	19	yes	57	0	489	0	0			0	0			1				0	
6.6.1	win	2023-06-28	09:17:13	09:33:05	940074	5e4192083514ba02bc057574	4	1	main_slash	11	main_slash	143	stimuli_distractor_trianglediamonds.svg	stimuli_distractor_trianglediamonds.svg	33	no	0	1	2000	0	0			0	0			1				0	
6.6.1	win	2023-06-28	09:17:13	09:33:05	940074	5e4192083514ba02bc057574	4	1	main_slash	11	advance_on_keypress_SLASH	144	stimuli_distractor_trianglediamonds.svg	stimuli_distractor_trianglediamonds.svg	33	no	57	0	736	0	0			0	0			1				0	
6.6.1	win	2023-06-28	09:17:13	09:33:07	942027	5e4192083514ba02bc057574	4	1	main_slash	11	main_slash	145	stimuli_distractor_trianglediamonds.svg	stimuli_target_trianglesquares.svg	26	yes	53	1	571	0	0			0	0			1				0	
6.6.1	win	2023-06-28	09:17:13	09:33:07	942027	5e4192083514ba02bc057574	4	1	main_slash	11	advance_on_keypress_SLASH	146	stimuli_distractor_trianglediamonds.svg	stimuli_target_trianglesquares.svg	26	yes	57	0	671	0	0			0	0			1				0	
6.6.1	win	2023-06-28	09:17:13	09:33:09	943754	5e4192083514ba02bc057574	4	1	main_slash	11	main_slash	147	stimuli_distractor_trianglediamonds.svg	stimuli_target_squarediamonds.svg	12	yes	53	1	415	0	0			0	0			1				0	
6.6.1	win	2023-06-28	09:17:13	09:33:09	943754	5e4192083514ba02bc057574	4	1	main_slash	11	advance_on_keypress_SLASH	148	stimuli_distractor_trianglediamonds.svg	stimuli_target_squarediamonds.svg	12	yes	57	0	803	0	0			0	0			1				0	
6.6.1	win	2023-06-28	09:17:13	09:33:11	945616	5e4192083514ba02bc057574	4	1	main_slash	11	main_slash	149	stimuli_distractor_trianglediamonds.svg	stimuli_target_rectangletriangles.svg	9	yes	53	1	411	0	0			0	0			1				0	
6.6.1	win	2023-06-28	09:17:13	09:33:11	945616	5e4192083514ba02bc057574	4	1	main_slash	11	advance_on_keypress_SLASH	150	stimuli_distractor_trianglediamonds.svg	stimuli_target_rectangletriangles.svg	9	yes	57	0	773	0	0			0	0			1				0	
6.6.1	win	2023-06-28	09:17:13	09:33:13	947446	5e4192083514ba02bc057574	4	1	main_slash	11	main_slash	151	stimuli_target_trianglerectangles.svg	stimuli_distractor_diamondtriangles.svg	21	yes	53	1	426	0	0			0	0			1				0	
6.6.1	win	2023-06-28	09:17:13	09:33:13	947446	5e4192083514ba02bc057574	4	1	main_slash	11	advance_on_keypress_SLASH	152	stimuli_target_trianglerectangles.svg	stimuli_distractor_diamondtriangles.svg	21	yes	57	0	491	0	0			0	0			1				0	
6.6.1	win	2023-06-28	09:17:13	09:33:14	949125	5e4192083514ba02bc057574	4	1	main_slash	11	main_slash	153	stimuli_distractor_trianglediamonds.svg	stimuli_target_rectanglediamonds.svg	10	yes	53	1	555	0	0			0	0			1				0	
6.6.1	win	2023-06-28	09:17:13	09:33:14	949125	5e4192083514ba02bc057574	4	1	main_slash	11	advance_on_keypress_SLASH	154	stimuli_distractor_trianglediamonds.svg	stimuli_target_rectanglediamonds.svg	10	yes	57	0	603	0	0			0	0			1				0	
6.6.1	win	2023-06-28	09:17:13	09:33:16	950936	5e4192083514ba02bc057574	4	1	main_slash	11	main_slash	155	stimuli_target_diamondrectangles.svg	stimuli_distractor_diamondtriangles.svg	23	yes	53	1	566	0	0			0	0			1				0	
6.6.1	win	2023-06-28	09:17:13	09:33:16	950936	5e4192083514ba02bc057574	4	1	main_slash	11	advance_on_keypress_SLASH	156	stimuli_target_diamondrectangles.svg	stimuli_distractor_diamondtriangles.svg	23	yes	57	0	583	0	0			0	0			1				0	
6.6.1	win	2023-06-28	09:17:13	09:33:19	954169	5e4192083514ba02bc057574	4	1	main_slash	11	main_slash	157	stimuli_target_trianglerectangles.svg	stimuli_distractor_trianglediamonds.svg	17	yes	0	0	2000	0	0			0	0			1				0	
6.6.1	win	2023-06-28	09:17:13	09:33:19	954169	5e4192083514ba02bc057574	4	1	main_slash	11	advance_on_keypress_SLASH	158	stimuli_target_trianglerectangles.svg	stimuli_distractor_trianglediamonds.svg	17	yes	57	0	435	0	0			0	0			1				0	
6.6.1	win	2023-06-28	09:17:13	09:33:21	955630	5e4192083514ba02bc057574	4	1	main_slash	11	main_slash	159	stimuli_distractor_diamondtriangles.svg	stimuli_target_squaretriangles.svg	15	yes	53	1	377	0	0			0	0			1				0	
6.6.1	win	2023-06-28	09:17:13	09:33:21	955630	5e4192083514ba02bc057574	4	1	main_slash	11	advance_on_keypress_SLASH	160	stimuli_distractor_diamondtriangles.svg	stimuli_target_squaretriangles.svg	15	yes	57	0	691	0	0			0	0			1				0	
6.6.1	win	2023-06-28	09:17:13	09:33:21	955630	5e4192083514ba02bc057574	4	1	headphonecheck_calibration	14	headphonecheck_calibrationIntro	1	stimuli_distractor_diamondtriangles.svg	stimuli_target_squaretriangles.svg	15	yes	calibrationButton	0	4034	0	0			0	0			1				0	
6.6.1	win	2023-06-28	09:17:13	09:33:21	955630	5e4192083514ba02bc057574	4	1	headphonecheck_testphase	15	test_collectResponse	3	stimuli_distractor_diamondtriangles.svg	stimuli_target_squaretriangles.svg	15	yes	first	0	1328	1	1	antiphase_hc_iso.wav	2	0	0			1				0	
6.6.1	win	2023-06-28	09:17:13	09:33:21	955630	5e4192083514ba02bc057574	4	1	headphonecheck_testphase	15	test_collectResponse	6	stimuli_distractor_diamondtriangles.svg	stimuli_target_squaretriangles.svg	15	yes	first	0	1488	2	5	antiphase_hc_osi.wav	2	0	0			1				0	
6.6.1	win	2023-06-28	09:17:13	09:33:21	955630	5e4192083514ba02bc057574	4	1	headphonecheck_testphase	15	test_collectResponse	9	stimuli_distractor_diamondtriangles.svg	stimuli_target_squaretriangles.svg	15	yes	first	1	1027	3	3	antiphase_hc_soi.wav	1	0	0			1				0	
6.6.1	win	2023-06-28	09:17:13	09:33:21	955630	5e4192083514ba02bc057574	4	1	headphonecheck_testphase	15	test_collectResponse	12	stimuli_distractor_diamondtriangles.svg	stimuli_target_squaretriangles.svg	15	yes	third	1	562	4	6	antiphase_hc_ois.wav	3	0	0			1				0	
6.6.1	win	2023-06-28	09:17:13	09:33:21	955630	5e4192083514ba02bc057574	4	1	headphonecheck_testphase	15	test_collectResponse	15	stimuli_distractor_diamondtriangles.svg	stimuli_target_squaretriangles.svg	15	yes	first	1	437	5	4	antiphase_hc_sio.wav	1	0	0			1				0	
6.6.1	win	2023-06-28	09:17:13	09:33:21	955630	5e4192083514ba02bc057574	4	1	headphonecheck_testphase	15	test_collectResponse	18	stimuli_distractor_diamondtriangles.svg	stimuli_target_squaretriangles.svg	15	yes	third	1	397	6	2	antiphase_hc_ios.wav	3	0	0			1				0	
6.6.1	win	2023-06-28	09:17:13	09:33:21	955630	5e4192083514ba02bc057574	4	1	stereocheck_calibration	17	stereocheck_calibrationIntro	1	stimuli_distractor_diamondtriangles.svg	stimuli_target_squaretriangles.svg	15	yes	stereocheck_calibrationButton	0	2749	6	2	antiphase_hc_ios.wav	3	0	0			1				0	
6.6.1	win	2023-06-28	09:17:13	09:33:21	955630	5e4192083514ba02bc057574	4	1	stereocheck_testphase	18	stereocheck_test_collectResponse	3	stimuli_distractor_diamondtriangles.svg	stimuli_target_squaretriangles.svg	15	yes	stereocheck_left	1	9028	6	2	antiphase_hc_ios.wav	3	1	2	noise_calib_stim_LEFT.wav	1	1				0	
6.6.1	win	2023-06-28	09:17:13	09:33:21	955630	5e4192083514ba02bc057574	4	1	stereocheck_testphase	18	stereocheck_test_collectResponse	6	stimuli_distractor_diamondtriangles.svg	stimuli_target_squaretriangles.svg	15	yes	stereocheck_right	1	2774	6	2	antiphase_hc_ios.wav	3	2	4	noise_calib_stim_RIGHT.wav	2	1				0	
6.6.1	win	2023-06-28	09:17:13	09:33:21	955630	5e4192083514ba02bc057574	4	1	stereocheck_testphase	18	stereocheck_test_collectResponse	9	stimuli_distractor_diamondtriangles.svg	stimuli_target_squaretriangles.svg	15	yes	stereocheck_left	1	694	6	2	antiphase_hc_ios.wav	3	3	3	noise_calib_stim_LEFT.wav	1	1				0	
6.6.1	win	2023-06-28	09:17:13	09:33:21	955630	5e4192083514ba02bc057574	4	1	stereocheck_testphase	18	stereocheck_test_collectResponse	12	stimuli_distractor_diamondtriangles.svg	stimuli_target_squaretriangles.svg	15	yes	stereocheck_right	1	399	6	2	antiphase_hc_ios.wav	3	4	6	noise_calib_stim_RIGHT.wav	2	1				0	
6.6.1	win	2023-06-28	09:17:13	09:33:21	955630	5e4192083514ba02bc057574	4	1	stereocheck_testphase	18	stereocheck_test_collectResponse	15	stimuli_distractor_diamondtriangles.svg	stimuli_target_squaretriangles.svg	15	yes	stereocheck_right	0	520	6	2	antiphase_hc_ios.wav	3	5	1	noise_calib_stim_LEFT.wav	1	1				0	
6.6.1	win	2023-06-28	09:17:13	09:33:21	955630	5e4192083514ba02bc057574	4	1	stereocheck_testphase	18	stereocheck_test_collectResponse	18	stimuli_distractor_diamondtriangles.svg	stimuli_target_squaretriangles.svg	15	yes	stereocheck_right	1	414	6	2	antiphase_hc_ios.wav	3	6	5	noise_calib_stim_RIGHT.wav	2	1				0	
6.6.1	win	2023-06-28	09:17:13	09:33:21	955630	5e4192083514ba02bc057574	4	1	DL_practice	21	DL_practice	2	stimuli_distractor_diamondtriangles.svg	stimuli_target_squaretriangles.svg	15	yes	ga	1	1187	6	2	antiphase_hc_ios.wav	3	6	5	noise_calib_stim_RIGHT.wav	2	18	blb_dichoticlistening_ga-ta.mp3	ga	ta	1	left
6.6.1	win	2023-06-28	09:17:13	09:33:21	955630	5e4192083514ba02bc057574	4	1	DL_practice	21	DL_practice	3	stimuli_distractor_diamondtriangles.svg	stimuli_target_squaretriangles.svg	15	yes	ka	1	1133	6	2	antiphase_hc_ios.wav	3	6	5	noise_calib_stim_RIGHT.wav	2	22	blb_dichoticlistening_ka-ka.mp3	ka	ka	0	left
6.6.1	win	2023-06-28	09:17:13	09:33:21	955630	5e4192083514ba02bc057574	4	1	DL_practice	21	DL_practice	4	stimuli_distractor_diamondtriangles.svg	stimuli_target_squaretriangles.svg	15	yes	ta	1	1849	6	2	antiphase_hc_ios.wav	3	6	5	noise_calib_stim_RIGHT.wav	2	36	blb_dichoticlistening_ta-ta.mp3	ta	ta	0	left
6.6.1	win	2023-06-28	09:17:13	09:33:21	955630	5e4192083514ba02bc057574	4	1	DL_practice	21	DL_practice	5	stimuli_distractor_diamondtriangles.svg	stimuli_target_squaretriangles.svg	15	yes	pa	1	1311	6	2	antiphase_hc_ios.wav	3	6	5	noise_calib_stim_RIGHT.wav	2	29	blb_dichoticlistening_pa-pa.mp3	pa	pa	0	left
6.6.1	win	2023-06-28	09:17:13	09:33:21	955630	5e4192083514ba02bc057574	4	1	DL_practice	21	DL_practice	6	stimuli_distractor_diamondtriangles.svg	stimuli_target_squaretriangles.svg	15	yes	pa	0	1218	6	2	antiphase_hc_ios.wav	3	6	5	noise_calib_stim_RIGHT.wav	2	7	blb_dichoticlistening_da-ba.mp3	da	ba	1	other
6.6.1	win	2023-06-28	09:17:13	09:33:21	955630	5e4192083514ba02bc057574	4	1	DL_practice	21	DL_practice	7	stimuli_distractor_diamondtriangles.svg	stimuli_target_squaretriangles.svg	15	yes	ka	1	1272	6	2	antiphase_hc_ios.wav	3	6	5	noise_calib_stim_RIGHT.wav	2	23	blb_dichoticlistening_ka-pa.mp3	ka	pa	1	left
6.6.1	win	2023-06-28	09:17:13	09:33:21	955630	5e4192083514ba02bc057574	4	1	DL_practice	21	DL_practice	8	stimuli_distractor_diamondtriangles.svg	stimuli_target_squaretriangles.svg	15	yes	ga	1	1040	6	2	antiphase_hc_ios.wav	3	6	5	noise_calib_stim_RIGHT.wav	2	15	blb_dichoticlistening_ga-ga.mp3	ga	ga	0	left
6.6.1	win	2023-06-28	09:17:13	09:33:21	955630	5e4192083514ba02bc057574	4	1	DL_practice	21	DL_practice	9	stimuli_distractor_diamondtriangles.svg	stimuli_target_squaretriangles.svg	15	yes	da	1	883	6	2	antiphase_hc_ios.wav	3	6	5	noise_calib_stim_RIGHT.wav	2	8	blb_dichoticlistening_da-da.mp3	da	da	0	left
6.6.1	win	2023-06-28	09:17:13	09:33:21	955630	5e4192083514ba02bc057574	4	1	DL_practice	21	DL_practice	10	stimuli_distractor_diamondtriangles.svg	stimuli_target_squaretriangles.svg	15	yes	ba	1	1010	6	2	antiphase_hc_ios.wav	3	6	5	noise_calib_stim_RIGHT.wav	2	1	blb_dichoticlistening_ba-ba.mp3	ba	ba	0	left
6.6.1	win	2023-06-28	09:17:13	09:33:21	955630	5e4192083514ba02bc057574	4	1	DL_test	23	DL_test	1	stimuli_distractor_diamondtriangles.svg	stimuli_target_squaretriangles.svg	15	yes	da	1	950	6	2	antiphase_hc_ios.wav	3	6	5	noise_calib_stim_RIGHT.wav	2	9	blb_dichoticlistening_da-ga.mp3	da	ga	1	left
6.6.1	win	2023-06-28	09:17:13	09:33:21	955630	5e4192083514ba02bc057574	4	1	DL_test	23	DL_test	2	stimuli_distractor_diamondtriangles.svg	stimuli_target_squaretriangles.svg	15	yes	ka	1	1428	6	2	antiphase_hc_ios.wav	3	6	5	noise_calib_stim_RIGHT.wav	2	4	blb_dichoticlistening_ba-ka.mp3	ba	ka	1	right
6.6.1	win	2023-06-28	09:17:13	09:33:21	955630	5e4192083514ba02bc057574	4	1	DL_test	23	DL_test	3	stimuli_distractor_diamondtriangles.svg	stimuli_target_squaretriangles.svg	15	yes	ga	1	1106	6	2	antiphase_hc_ios.wav	3	6	5	noise_calib_stim_RIGHT.wav	2	33	blb_dichoticlistening_ta-ga.mp3	ta	ga	1	right
6.6.1	win	2023-06-28	09:17:13	09:33:21	955630	5e4192083514ba02bc057574	4	1	DL_test	23	DL_test	4	stimuli_distractor_diamondtriangles.svg	stimuli_target_squaretriangles.svg	15	yes	da	1	1189	6	2	antiphase_hc_ios.wav	3	6	5	noise_calib_stim_RIGHT.wav	2	10	blb_dichoticlistening_da-ka.mp3	da	ka	1	left
6.6.1	win	2023-06-28	09:17:13	09:33:21	955630	5e4192083514ba02bc057574	4	1	DL_test	23	DL_test	5	stimuli_distractor_diamondtriangles.svg	stimuli_target_squaretriangles.svg	15	yes	ka	1	916	6	2	antiphase_hc_ios.wav	3	6	5	noise_calib_stim_RIGHT.wav	2	23	blb_dichoticlistening_ka-pa.mp3	ka	pa	1	left
6.6.1	win	2023-06-28	09:17:13	09:33:21	955630	5e4192083514ba02bc057574	4	1	DL_test	23	DL_test	6	stimuli_distractor_diamondtriangles.svg	stimuli_target_squaretriangles.svg	15	yes	ba	1	1642	6	2	antiphase_hc_ios.wav	3	6	5	noise_calib_stim_RIGHT.wav	2	5	blb_dichoticlistening_ba-pa.mp3	ba	pa	1	left
6.6.1	win	2023-06-28	09:17:13	09:33:21	955630	5e4192083514ba02bc057574	4	1	DL_test	23	DL_test	7	stimuli_distractor_diamondtriangles.svg	stimuli_target_squaretriangles.svg	15	yes	ga	1	803	6	2	antiphase_hc_ios.wav	3	6	5	noise_calib_stim_RIGHT.wav	2	18	blb_dichoticlistening_ga-ta.mp3	ga	ta	1	left
6.6.1	win	2023-06-28	09:17:13	09:33:21	955630	5e4192083514ba02bc057574	4	1	DL_test	23	DL_test	8	stimuli_distractor_diamondtriangles.svg	stimuli_target_squaretriangles.svg	15	yes	da	1	2467	6	2	antiphase_hc_ios.wav	3	6	5	noise_calib_stim_RIGHT.wav	2	11	blb_dichoticlistening_da-pa.mp3	da	pa	1	left
6.6.1	win	2023-06-28	09:17:13	09:33:21	955630	5e4192083514ba02bc057574	4	1	DL_test	23	DL_test	9	stimuli_distractor_diamondtriangles.svg	stimuli_target_squaretriangles.svg	15	yes	ka	1	1057	6	2	antiphase_hc_ios.wav	3	6	5	noise_calib_stim_RIGHT.wav	2	19	blb_dichoticlistening_ka-ba.mp3	ka	ba	1	left
6.6.1	win	2023-06-28	09:17:13	09:33:21	955630	5e4192083514ba02bc057574	4	1	DL_test	23	DL_test	10	stimuli_distractor_diamondtriangles.svg	stimuli_target_squaretriangles.svg	15	yes	da	1	1239	6	2	antiphase_hc_ios.wav	3	6	5	noise_calib_stim_RIGHT.wav	2	12	blb_dichoticlistening_da-ta.mp3	da	ta	1	left
6.6.1	win	2023-06-28	09:17:13	09:33:21	955630	5e4192083514ba02bc057574	4	1	DL_test	23	DL_test	11	stimuli_distractor_diamondtriangles.svg	stimuli_target_squaretriangles.svg	15	yes	ka	0	2213	6	2	antiphase_hc_ios.wav	3	6	5	noise_calib_stim_RIGHT.wav	2	6	blb_dichoticlistening_ba-ta.mp3	ba	ta	1	other
6.6.1	win	2023-06-28	09:17:13	09:33:21	955630	5e4192083514ba02bc057574	4	1	DL_test	23	DL_test	12	stimuli_distractor_diamondtriangles.svg	stimuli_target_squaretriangles.svg	15	yes	da	1	1287	6	2	antiphase_hc_ios.wav	3	6	5	noise_calib_stim_RIGHT.wav	2	32	blb_dichoticlistening_ta-da.mp3	ta	da	1	right
6.6.1	win	2023-06-28	09:17:13	09:33:21	955630	5e4192083514ba02bc057574	4	1	DL_test	23	DL_test	13	stimuli_distractor_diamondtriangles.svg	stimuli_target_squaretriangles.svg	15	yes	da	1	1751	6	2	antiphase_hc_ios.wav	3	6	5	noise_calib_stim_RIGHT.wav	2	26	blb_dichoticlistening_pa-da.mp3	pa	da	1	right
6.6.1	win	2023-06-28	09:17:13	09:33:21	955630	5e4192083514ba02bc057574	4	1	DL_test	23	DL_test	14	stimuli_distractor_diamondtriangles.svg	stimuli_target_squaretriangles.svg	15	yes	pa	0	1348	6	2	antiphase_hc_ios.wav	3	6	5	noise_calib_stim_RIGHT.wav	2	2	blb_dichoticlistening_ba-da.mp3	ba	da	1	other
6.6.1	win	2023-06-28	09:17:13	09:33:21	955630	5e4192083514ba02bc057574	4	1	DL_test	23	DL_test	15	stimuli_distractor_diamondtriangles.svg	stimuli_target_squaretriangles.svg	15	yes	ta	1	1317	6	2	antiphase_hc_ios.wav	3	6	5	noise_calib_stim_RIGHT.wav	2	30	blb_dichoticlistening_pa-ta.mp3	pa	ta	1	right
6.6.1	win	2023-06-28	09:17:13	09:33:21	955630	5e4192083514ba02bc057574	4	1	DL_test	23	DL_test	16	stimuli_distractor_diamondtriangles.svg	stimuli_target_squaretriangles.svg	15	yes	ka	1	1095	6	2	antiphase_hc_ios.wav	3	6	5	noise_calib_stim_RIGHT.wav	2	21	blb_dichoticlistening_ka-ga.mp3	ka	ga	1	left
6.6.1	win	2023-06-28	09:17:13	09:33:21	955630	5e4192083514ba02bc057574	4	1	DL_test	23	DL_test	17	stimuli_distractor_diamondtriangles.svg	stimuli_target_squaretriangles.svg	15	yes	ta	1	1244	6	2	antiphase_hc_ios.wav	3	6	5	noise_calib_stim_RIGHT.wav	2	35	blb_dichoticlistening_ta-pa.mp3	ta	pa	1	left
6.6.1	win	2023-06-28	09:17:13	09:33:21	955630	5e4192083514ba02bc057574	4	1	DL_test	23	DL_test	18	stimuli_distractor_diamondtriangles.svg	stimuli_target_squaretriangles.svg	15	yes	ga	1	971	6	2	antiphase_hc_ios.wav	3	6	5	noise_calib_stim_RIGHT.wav	2	15	blb_dichoticlistening_ga-ga.mp3	ga	ga	0	left
6.6.1	win	2023-06-28	09:17:13	09:33:21	955630	5e4192083514ba02bc057574	4	1	DL_test	23	DL_test	19	stimuli_distractor_diamondtriangles.svg	stimuli_target_squaretriangles.svg	15	yes	ka	1	1090	6	2	antiphase_hc_ios.wav	3	6	5	noise_calib_stim_RIGHT.wav	2	20	blb_dichoticlistening_ka-da.mp3	ka	da	1	left
6.6.1	win	2023-06-28	09:17:13	09:33:21	955630	5e4192083514ba02bc057574	4	1	DL_test	23	DL_test	20	stimuli_distractor_diamondtriangles.svg	stimuli_target_squaretriangles.svg	15	yes	ta	1	1765	6	2	antiphase_hc_ios.wav	3	6	5	noise_calib_stim_RIGHT.wav	2	36	blb_dichoticlistening_ta-ta.mp3	ta	ta	0	left
6.6.1	win	2023-06-28	09:17:13	09:33:21	955630	5e4192083514ba02bc057574	4	1	DL_test	23	DL_test	21	stimuli_distractor_diamondtriangles.svg	stimuli_target_squaretriangles.svg	15	yes	pa	0	1171	6	2	antiphase_hc_ios.wav	3	6	5	noise_calib_stim_RIGHT.wav	2	3	blb_dichoticlistening_ba-ga.mp3	ba	ga	1	other
6.6.1	win	2023-06-28	09:17:13	09:33:21	955630	5e4192083514ba02bc057574	4	1	DL_test	23	DL_test	22	stimuli_distractor_diamondtriangles.svg	stimuli_target_squaretriangles.svg	15	yes	da	1	2413	6	2	antiphase_hc_ios.wav	3	6	5	noise_calib_stim_RIGHT.wav	2	8	blb_dichoticlistening_da-da.mp3	da	da	0	left
6.6.1	win	2023-06-28	09:17:13	09:33:21	955630	5e4192083514ba02bc057574	4	1	DL_test	23	DL_test	23	stimuli_distractor_diamondtriangles.svg	stimuli_target_squaretriangles.svg	15	yes	ka	1	1349	6	2	antiphase_hc_ios.wav	3	6	5	noise_calib_stim_RIGHT.wav	2	16	blb_dichoticlistening_ga-ka.mp3	ga	ka	1	right
6.6.1	win	2023-06-28	09:17:13	09:33:21	955630	5e4192083514ba02bc057574	4	1	DL_test	23	DL_test	24	stimuli_distractor_diamondtriangles.svg	stimuli_target_squaretriangles.svg	15	yes	ga	1	1034	6	2	antiphase_hc_ios.wav	3	6	5	noise_calib_stim_RIGHT.wav	2	27	blb_dichoticlistening_pa-ga.mp3	pa	ga	1	right
6.6.1	win	2023-06-28	09:17:13	09:33:21	955630	5e4192083514ba02bc057574	4	1	DL_test	23	DL_test	25	stimuli_distractor_diamondtriangles.svg	stimuli_target_squaretriangles.svg	15	yes	ka	1	1354	6	2	antiphase_hc_ios.wav	3	6	5	noise_calib_stim_RIGHT.wav	2	22	blb_dichoticlistening_ka-ka.mp3	ka	ka	0	left
6.6.1	win	2023-06-28	09:17:13	09:33:21	955630	5e4192083514ba02bc057574	4	1	DL_test	23	DL_test	26	stimuli_distractor_diamondtriangles.svg	stimuli_target_squaretriangles.svg	15	yes	pa	1	979	6	2	antiphase_hc_ios.wav	3	6	5	noise_calib_stim_RIGHT.wav	2	29	blb_dichoticlistening_pa-pa.mp3	pa	pa	0	left
