build	computer.platform	date	time	timestamp	time_elapsed_ms	subject	group	session	blockcode	blocknum	trialcode	trialnum	stimulus_left	stimulus_right	stim_index	target_present	response	correct	latency	headphonecheck_countTestTrials	headphonecheck_index	headphonecheck_testSound	headphonecheck_correctResponse	stereocheck_countTestTrials	stereocheck_index	stereocheck_testSound	stereocheck_correctResponse	DL_index	DL_soundfile	DL_leftSound	DL_rightSound	DL_dualSound	DL_choice
6.6.1	win	2023-06-13	00:18:00	0	0	63d40b7d3c7f92ff15ef6b67	1	1	headphonecheck_calibration	4	headphonecheck_calibrationIntro	1			0		calibrationButton	0	3963	0	0			0	0			1				0	
6.6.1	win	2023-06-13	00:18:00	0	0	63d40b7d3c7f92ff15ef6b67	1	1	headphonecheck_testphase	5	test_collectResponse	3			0		third	1	627	1	6	antiphase_hc_ois.wav	3	0	0			1				0	
6.6.1	win	2023-06-13	00:18:00	0	0	63d40b7d3c7f92ff15ef6b67	1	1	headphonecheck_testphase	5	test_collectResponse	6			0		first	1	596	2	4	antiphase_hc_sio.wav	1	0	0			1				0	
6.6.1	win	2023-06-13	00:18:00	0	0	63d40b7d3c7f92ff15ef6b67	1	1	headphonecheck_testphase	5	test_collectResponse	9			0		third	1	412	3	2	antiphase_hc_ios.wav	3	0	0			1				0	
6.6.1	win	2023-06-13	00:18:00	0	0	63d40b7d3c7f92ff15ef6b67	1	1	headphonecheck_testphase	5	test_collectResponse	12			0		second	1	586	4	5	antiphase_hc_osi.wav	2	0	0			1				0	
6.6.1	win	2023-06-13	00:18:00	0	0	63d40b7d3c7f92ff15ef6b67	1	1	headphonecheck_testphase	5	test_collectResponse	15			0		second	1	579	5	1	antiphase_hc_iso.wav	2	0	0			1				0	
6.6.1	win	2023-06-13	00:18:00	0	0	63d40b7d3c7f92ff15ef6b67	1	1	headphonecheck_testphase	5	test_collectResponse	18			0		first	1	623	6	3	antiphase_hc_soi.wav	1	0	0			1				0	
6.6.1	win	2023-06-13	00:18:00	0	0	63d40b7d3c7f92ff15ef6b67	1	1	stereocheck_calibration	7	stereocheck_calibrationIntro	1			0		stereocheck_calibrationButton	0	2735	6	3	antiphase_hc_soi.wav	1	0	0			1				0	
6.6.1	win	2023-06-13	00:18:00	0	0	63d40b7d3c7f92ff15ef6b67	1	1	stereocheck_testphase	8	stereocheck_test_collectResponse	3			0		stereocheck_left	1	505	6	3	antiphase_hc_soi.wav	1	1	1	noise_calib_stim_LEFT.wav	1	1				0	
6.6.1	win	2023-06-13	00:18:00	0	0	63d40b7d3c7f92ff15ef6b67	1	1	stereocheck_testphase	8	stereocheck_test_collectResponse	6			0		stereocheck_left	1	506	6	3	antiphase_hc_soi.wav	1	2	2	noise_calib_stim_LEFT.wav	1	1				0	
6.6.1	win	2023-06-13	00:18:00	0	0	63d40b7d3c7f92ff15ef6b67	1	1	stereocheck_testphase	8	stereocheck_test_collectResponse	9			0		stereocheck_right	1	623	6	3	antiphase_hc_soi.wav	1	3	6	noise_calib_stim_RIGHT.wav	2	1				0	
6.6.1	win	2023-06-13	00:18:00	0	0	63d40b7d3c7f92ff15ef6b67	1	1	stereocheck_testphase	8	stereocheck_test_collectResponse	12			0		stereocheck_left	1	528	6	3	antiphase_hc_soi.wav	1	4	3	noise_calib_stim_LEFT.wav	1	1				0	
6.6.1	win	2023-06-13	00:18:00	0	0	63d40b7d3c7f92ff15ef6b67	1	1	stereocheck_testphase	8	stereocheck_test_collectResponse	15			0		stereocheck_right	1	819	6	3	antiphase_hc_soi.wav	1	5	5	noise_calib_stim_RIGHT.wav	2	1				0	
6.6.1	win	2023-06-13	00:18:00	0	0	63d40b7d3c7f92ff15ef6b67	1	1	stereocheck_testphase	8	stereocheck_test_collectResponse	18			0		stereocheck_right	1	657	6	3	antiphase_hc_soi.wav	1	6	4	noise_calib_stim_RIGHT.wav	2	1				0	
6.6.1	win	2023-06-13	00:18:00	0	0	63d40b7d3c7f92ff15ef6b67	1	1	DL_practice	11	DL_practice	2			0		pa	1	2095	6	3	antiphase_hc_soi.wav	1	6	4	noise_calib_stim_RIGHT.wav	2	29	blb_dichoticlistening_pa-pa.mp3	pa	pa	0	left
6.6.1	win	2023-06-13	00:18:00	0	0	63d40b7d3c7f92ff15ef6b67	1	1	DL_practice	11	DL_practice	3			0		ga	1	1289	6	3	antiphase_hc_soi.wav	1	6	4	noise_calib_stim_RIGHT.wav	2	18	blb_dichoticlistening_ga-ta.mp3	ga	ta	1	left
6.6.1	win	2023-06-13	00:18:00	0	0	63d40b7d3c7f92ff15ef6b67	1	1	DL_practice	11	DL_practice	4			0		ba	1	1845	6	3	antiphase_hc_soi.wav	1	6	4	noise_calib_stim_RIGHT.wav	2	1	blb_dichoticlistening_ba-ba.mp3	ba	ba	0	left
6.6.1	win	2023-06-13	00:18:00	0	0	63d40b7d3c7f92ff15ef6b67	1	1	DL_practice	11	DL_practice	5			0		ka	1	980	6	3	antiphase_hc_soi.wav	1	6	4	noise_calib_stim_RIGHT.wav	2	22	blb_dichoticlistening_ka-ka.mp3	ka	ka	0	left
6.6.1	win	2023-06-13	00:18:00	0	0	63d40b7d3c7f92ff15ef6b67	1	1	DL_practice	11	DL_practice	6			0		da	1	1380	6	3	antiphase_hc_soi.wav	1	6	4	noise_calib_stim_RIGHT.wav	2	7	blb_dichoticlistening_da-ba.mp3	da	ba	1	left
6.6.1	win	2023-06-13	00:18:00	0	0	63d40b7d3c7f92ff15ef6b67	1	1	DL_practice	11	DL_practice	7			0		ka	1	1052	6	3	antiphase_hc_soi.wav	1	6	4	noise_calib_stim_RIGHT.wav	2	23	blb_dichoticlistening_ka-pa.mp3	ka	pa	1	left
6.6.1	win	2023-06-13	00:18:00	0	0	63d40b7d3c7f92ff15ef6b67	1	1	DL_practice	11	DL_practice	8			0		ga	1	1012	6	3	antiphase_hc_soi.wav	1	6	4	noise_calib_stim_RIGHT.wav	2	15	blb_dichoticlistening_ga-ga.mp3	ga	ga	0	left
6.6.1	win	2023-06-13	00:18:00	0	0	63d40b7d3c7f92ff15ef6b67	1	1	DL_practice	11	DL_practice	9			0		da	1	1689	6	3	antiphase_hc_soi.wav	1	6	4	noise_calib_stim_RIGHT.wav	2	8	blb_dichoticlistening_da-da.mp3	da	da	0	left
6.6.1	win	2023-06-13	00:18:00	0	0	63d40b7d3c7f92ff15ef6b67	1	1	DL_practice	11	DL_practice	10			0		ta	1	1807	6	3	antiphase_hc_soi.wav	1	6	4	noise_calib_stim_RIGHT.wav	2	36	blb_dichoticlistening_ta-ta.mp3	ta	ta	0	left
6.6.1	win	2023-06-13	00:18:00	0	0	63d40b7d3c7f92ff15ef6b67	1	1	DL_test	13	DL_test	1			0		pa	1	1999	6	3	antiphase_hc_soi.wav	1	6	4	noise_calib_stim_RIGHT.wav	2	28	blb_dichoticlistening_pa-ka.mp3	pa	ka	1	left
6.6.1	win	2023-06-13	00:18:00	0	0	63d40b7d3c7f92ff15ef6b67	1	1	DL_test	13	DL_test	2			0		da	1	1011	6	3	antiphase_hc_soi.wav	1	6	4	noise_calib_stim_RIGHT.wav	2	8	blb_dichoticlistening_da-da.mp3	da	da	0	left
6.6.1	win	2023-06-13	00:18:00	0	0	63d40b7d3c7f92ff15ef6b67	1	1	DL_test	13	DL_test	3			0		ga	1	998	6	3	antiphase_hc_soi.wav	1	6	4	noise_calib_stim_RIGHT.wav	2	15	blb_dichoticlistening_ga-ga.mp3	ga	ga	0	left
6.6.1	win	2023-06-13	00:18:00	0	0	63d40b7d3c7f92ff15ef6b67	1	1	DL_test	13	DL_test	4			0		pa	0	2454	6	3	antiphase_hc_soi.wav	1	6	4	noise_calib_stim_RIGHT.wav	2	10	blb_dichoticlistening_da-ka.mp3	da	ka	1	other
6.6.1	win	2023-06-13	00:18:00	0	0	63d40b7d3c7f92ff15ef6b67	1	1	DL_test	13	DL_test	5			0		ga	1	1314	6	3	antiphase_hc_soi.wav	1	6	4	noise_calib_stim_RIGHT.wav	2	17	blb_dichoticlistening_ga-pa.mp3	ga	pa	1	left
6.6.1	win	2023-06-13	00:18:00	0	0	63d40b7d3c7f92ff15ef6b67	1	1	DL_test	13	DL_test	6			0		ga	1	971	6	3	antiphase_hc_soi.wav	1	6	4	noise_calib_stim_RIGHT.wav	2	18	blb_dichoticlistening_ga-ta.mp3	ga	ta	1	left
6.6.1	win	2023-06-13	00:18:00	0	0	63d40b7d3c7f92ff15ef6b67	1	1	DL_test	13	DL_test	7			0		ta	1	1592	6	3	antiphase_hc_soi.wav	1	6	4	noise_calib_stim_RIGHT.wav	2	31	blb_dichoticlistening_ta-ba.mp3	ta	ba	1	left
6.6.1	win	2023-06-13	00:18:00	0	0	63d40b7d3c7f92ff15ef6b67	1	1	DL_test	13	DL_test	8			0		pa	1	1441	6	3	antiphase_hc_soi.wav	1	6	4	noise_calib_stim_RIGHT.wav	2	25	blb_dichoticlistening_pa-ba.mp3	pa	ba	1	left
6.6.1	win	2023-06-13	00:18:00	0	0	63d40b7d3c7f92ff15ef6b67	1	1	DL_test	13	DL_test	9			0		ta	1	1653	6	3	antiphase_hc_soi.wav	1	6	4	noise_calib_stim_RIGHT.wav	2	35	blb_dichoticlistening_ta-pa.mp3	ta	pa	1	left
6.6.1	win	2023-06-13	00:18:00	0	0	63d40b7d3c7f92ff15ef6b67	1	1	DL_test	13	DL_test	10			0		ga	1	940	6	3	antiphase_hc_soi.wav	1	6	4	noise_calib_stim_RIGHT.wav	2	14	blb_dichoticlistening_ga-da.mp3	ga	da	1	left
6.6.1	win	2023-06-13	00:18:00	0	0	63d40b7d3c7f92ff15ef6b67	1	1	DL_test	13	DL_test	11			0		ka	1	1210	6	3	antiphase_hc_soi.wav	1	6	4	noise_calib_stim_RIGHT.wav	2	34	blb_dichoticlistening_ta-ka.mp3	ta	ka	1	right
6.6.1	win	2023-06-13	00:18:00	0	0	63d40b7d3c7f92ff15ef6b67	1	1	DL_test	13	DL_test	12			0		da	1	2034	6	3	antiphase_hc_soi.wav	1	6	4	noise_calib_stim_RIGHT.wav	2	9	blb_dichoticlistening_da-ga.mp3	da	ga	1	left
6.6.1	win	2023-06-13	00:18:00	0	0	63d40b7d3c7f92ff15ef6b67	1	1	DL_test	13	DL_test	13			0		pa	1	1311	6	3	antiphase_hc_soi.wav	1	6	4	noise_calib_stim_RIGHT.wav	2	29	blb_dichoticlistening_pa-pa.mp3	pa	pa	0	left
6.6.1	win	2023-06-13	00:18:00	0	0	63d40b7d3c7f92ff15ef6b67	1	1	DL_test	13	DL_test	14			0		ba	1	2097	6	3	antiphase_hc_soi.wav	1	6	4	noise_calib_stim_RIGHT.wav	2	2	blb_dichoticlistening_ba-da.mp3	ba	da	1	left
6.6.1	win	2023-06-13	00:18:00	0	0	63d40b7d3c7f92ff15ef6b67	1	1	DL_test	13	DL_test	15			0		ga	1	1244	6	3	antiphase_hc_soi.wav	1	6	4	noise_calib_stim_RIGHT.wav	2	16	blb_dichoticlistening_ga-ka.mp3	ga	ka	1	left
6.6.1	win	2023-06-13	00:18:00	0	0	63d40b7d3c7f92ff15ef6b67	1	1	DL_test	13	DL_test	16			0		ta	0	1454	6	3	antiphase_hc_soi.wav	1	6	4	noise_calib_stim_RIGHT.wav	2	26	blb_dichoticlistening_pa-da.mp3	pa	da	1	other
6.6.1	win	2023-06-13	00:18:00	0	0	63d40b7d3c7f92ff15ef6b67	1	1	DL_test	13	DL_test	17			0		ka	1	958	6	3	antiphase_hc_soi.wav	1	6	4	noise_calib_stim_RIGHT.wav	2	22	blb_dichoticlistening_ka-ka.mp3	ka	ka	0	left
6.6.1	win	2023-06-13	00:18:00	0	0	63d40b7d3c7f92ff15ef6b67	1	1	DL_test	13	DL_test	18			0		ka	1	1549	6	3	antiphase_hc_soi.wav	1	6	4	noise_calib_stim_RIGHT.wav	2	20	blb_dichoticlistening_ka-da.mp3	ka	da	1	left
6.6.1	win	2023-06-13	00:18:00	0	0	63d40b7d3c7f92ff15ef6b67	1	1	DL_test	13	DL_test	19			0		ba	1	2861	6	3	antiphase_hc_soi.wav	1	6	4	noise_calib_stim_RIGHT.wav	2	4	blb_dichoticlistening_ba-ka.mp3	ba	ka	1	left
6.6.1	win	2023-06-13	00:18:00	0	0	63d40b7d3c7f92ff15ef6b67	1	1	DL_test	13	DL_test	20			0		ka	1	786	6	3	antiphase_hc_soi.wav	1	6	4	noise_calib_stim_RIGHT.wav	2	23	blb_dichoticlistening_ka-pa.mp3	ka	pa	1	left
6.6.1	win	2023-06-13	00:18:00	0	0	63d40b7d3c7f92ff15ef6b67	1	1	DL_test	13	DL_test	21			0		ta	1	1534	6	3	antiphase_hc_soi.wav	1	6	4	noise_calib_stim_RIGHT.wav	2	32	blb_dichoticlistening_ta-da.mp3	ta	da	1	left
6.6.1	win	2023-06-13	00:18:00	0	0	63d40b7d3c7f92ff15ef6b67	1	1	DL_test	13	DL_test	22			0		da	1	1059	6	3	antiphase_hc_soi.wav	1	6	4	noise_calib_stim_RIGHT.wav	2	7	blb_dichoticlistening_da-ba.mp3	da	ba	1	left
6.6.1	win	2023-06-13	00:18:00	0	0	63d40b7d3c7f92ff15ef6b67	1	1	DL_test	13	DL_test	23			0		pa	1	1404	6	3	antiphase_hc_soi.wav	1	6	4	noise_calib_stim_RIGHT.wav	2	27	blb_dichoticlistening_pa-ga.mp3	pa	ga	1	left
6.6.1	win	2023-06-13	00:18:00	0	0	63d40b7d3c7f92ff15ef6b67	1	1	DL_test	13	DL_test	24			0		ba	1	1948	6	3	antiphase_hc_soi.wav	1	6	4	noise_calib_stim_RIGHT.wav	2	3	blb_dichoticlistening_ba-ga.mp3	ba	ga	1	left
6.6.1	win	2023-06-13	00:18:00	0	0	63d40b7d3c7f92ff15ef6b67	1	1	DL_test	13	DL_test	25			0		ta	1	1259	6	3	antiphase_hc_soi.wav	1	6	4	noise_calib_stim_RIGHT.wav	2	6	blb_dichoticlistening_ba-ta.mp3	ba	ta	1	right
6.6.1	win	2023-06-13	00:18:00	0	0	63d40b7d3c7f92ff15ef6b67	1	1	DL_test	13	DL_test	26			0		da	1	1145	6	3	antiphase_hc_soi.wav	1	6	4	noise_calib_stim_RIGHT.wav	2	11	blb_dichoticlistening_da-pa.mp3	da	pa	1	left
6.6.1	win	2023-06-13	00:18:00	0	0	63d40b7d3c7f92ff15ef6b67	1	1	DL_test	13	DL_test	27			0		ta	1	1432	6	3	antiphase_hc_soi.wav	1	6	4	noise_calib_stim_RIGHT.wav	2	30	blb_dichoticlistening_pa-ta.mp3	pa	ta	1	right
6.6.1	win	2023-06-13	00:18:00	0	0	63d40b7d3c7f92ff15ef6b67	1	1	DL_test	13	DL_test	28			0		da	1	1267	6	3	antiphase_hc_soi.wav	1	6	4	noise_calib_stim_RIGHT.wav	2	12	blb_dichoticlistening_da-ta.mp3	da	ta	1	left
6.6.1	win	2023-06-13	00:18:00	0	0	63d40b7d3c7f92ff15ef6b67	1	1	DL_test	13	DL_test	29			0		ka	1	1089	6	3	antiphase_hc_soi.wav	1	6	4	noise_calib_stim_RIGHT.wav	2	21	blb_dichoticlistening_ka-ga.mp3	ka	ga	1	left
6.6.1	win	2023-06-13	00:18:00	0	0	63d40b7d3c7f92ff15ef6b67	1	1	DL_test	13	DL_test	30			0		ka	1	1423	6	3	antiphase_hc_soi.wav	1	6	4	noise_calib_stim_RIGHT.wav	2	19	blb_dichoticlistening_ka-ba.mp3	ka	ba	1	left
6.6.1	win	2023-06-13	00:18:00	0	0	63d40b7d3c7f92ff15ef6b67	1	1	DL_test	13	DL_test	31			0		ta	1	1060	6	3	antiphase_hc_soi.wav	1	6	4	noise_calib_stim_RIGHT.wav	2	36	blb_dichoticlistening_ta-ta.mp3	ta	ta	0	left
6.6.1	win	2023-06-13	00:18:00	0	0	63d40b7d3c7f92ff15ef6b67	1	1	DL_test	13	DL_test	32			0		ba	1	2223	6	3	antiphase_hc_soi.wav	1	6	4	noise_calib_stim_RIGHT.wav	2	5	blb_dichoticlistening_ba-pa.mp3	ba	pa	1	left
6.6.1	win	2023-06-13	00:18:00	0	0	63d40b7d3c7f92ff15ef6b67	1	1	DL_test	13	DL_test	33			0		ta	1	2037	6	3	antiphase_hc_soi.wav	1	6	4	noise_calib_stim_RIGHT.wav	2	33	blb_dichoticlistening_ta-ga.mp3	ta	ga	1	left
6.6.1	win	2023-06-13	00:18:00	0	0	63d40b7d3c7f92ff15ef6b67	1	1	DL_test	13	DL_test	34			0		ba	1	1684	6	3	antiphase_hc_soi.wav	1	6	4	noise_calib_stim_RIGHT.wav	2	1	blb_dichoticlistening_ba-ba.mp3	ba	ba	0	left
6.6.1	win	2023-06-13	00:18:00	0	0	63d40b7d3c7f92ff15ef6b67	1	1	DL_test	13	DL_test	35			0		ga	1	974	6	3	antiphase_hc_soi.wav	1	6	4	noise_calib_stim_RIGHT.wav	2	13	blb_dichoticlistening_ga-ba.mp3	ga	ba	1	left
6.6.1	win	2023-06-13	00:18:00	0	0	63d40b7d3c7f92ff15ef6b67	1	1	DL_test	13	DL_test	36			0		ka	1	791	6	3	antiphase_hc_soi.wav	1	6	4	noise_calib_stim_RIGHT.wav	2	24	blb_dichoticlistening_ka-ta.mp3	ka	ta	1	left
6.6.1	win	2023-06-13	00:18:00	0	0	63d40b7d3c7f92ff15ef6b67	1	1	DL_test	14	DL_test	1			0		ba	1	2663	6	3	antiphase_hc_soi.wav	1	6	4	noise_calib_stim_RIGHT.wav	2	3	blb_dichoticlistening_ba-ga.mp3	ba	ga	1	left
6.6.1	win	2023-06-13	00:18:00	0	0	63d40b7d3c7f92ff15ef6b67	1	1	DL_test	14	DL_test	2			0		ba	1	1835	6	3	antiphase_hc_soi.wav	1	6	4	noise_calib_stim_RIGHT.wav	2	1	blb_dichoticlistening_ba-ba.mp3	ba	ba	0	left
6.6.1	win	2023-06-13	00:18:00	0	0	63d40b7d3c7f92ff15ef6b67	1	1	DL_test	14	DL_test	3			0		da	1	1228	6	3	antiphase_hc_soi.wav	1	6	4	noise_calib_stim_RIGHT.wav	2	8	blb_dichoticlistening_da-da.mp3	da	da	0	left
6.6.1	win	2023-06-13	00:18:00	0	0	63d40b7d3c7f92ff15ef6b67	1	1	DL_test	14	DL_test	4			0		ka	1	1071	6	3	antiphase_hc_soi.wav	1	6	4	noise_calib_stim_RIGHT.wav	2	19	blb_dichoticlistening_ka-ba.mp3	ka	ba	1	left
6.6.1	win	2023-06-13	00:18:00	0	0	63d40b7d3c7f92ff15ef6b67	1	1	DL_test	14	DL_test	5			0		ka	1	1075	6	3	antiphase_hc_soi.wav	1	6	4	noise_calib_stim_RIGHT.wav	2	22	blb_dichoticlistening_ka-ka.mp3	ka	ka	0	left
6.6.1	win	2023-06-13	00:18:00	0	0	63d40b7d3c7f92ff15ef6b67	1	1	DL_test	14	DL_test	6			0		ka	1	1181	6	3	antiphase_hc_soi.wav	1	6	4	noise_calib_stim_RIGHT.wav	2	23	blb_dichoticlistening_ka-pa.mp3	ka	pa	1	left
6.6.1	win	2023-06-13	00:18:00	0	0	63d40b7d3c7f92ff15ef6b67	1	1	DL_test	14	DL_test	7			0		ta	1	1223	6	3	antiphase_hc_soi.wav	1	6	4	noise_calib_stim_RIGHT.wav	2	33	blb_dichoticlistening_ta-ga.mp3	ta	ga	1	left
6.6.1	win	2023-06-13	00:18:00	0	0	63d40b7d3c7f92ff15ef6b67	1	1	DL_test	14	DL_test	8			0		ta	1	1089	6	3	antiphase_hc_soi.wav	1	6	4	noise_calib_stim_RIGHT.wav	2	36	blb_dichoticlistening_ta-ta.mp3	ta	ta	0	left
6.6.1	win	2023-06-13	00:18:00	0	0	63d40b7d3c7f92ff15ef6b67	1	1	DL_test	14	DL_test	9			0		ka	1	1128	6	3	antiphase_hc_soi.wav	1	6	4	noise_calib_stim_RIGHT.wav	2	4	blb_dichoticlistening_ba-ka.mp3	ba	ka	1	right
6.6.1	win	2023-06-13	00:18:00	0	0	63d40b7d3c7f92ff15ef6b67	1	1	DL_test	14	DL_test	10			0		pa	1	1174	6	3	antiphase_hc_soi.wav	1	6	4	noise_calib_stim_RIGHT.wav	2	26	blb_dichoticlistening_pa-da.mp3	pa	da	1	left
6.6.1	win	2023-06-13	00:18:00	0	0	63d40b7d3c7f92ff15ef6b67	1	1	DL_test	14	DL_test	11			0		da	1	1170	6	3	antiphase_hc_soi.wav	1	6	4	noise_calib_stim_RIGHT.wav	2	10	blb_dichoticlistening_da-ka.mp3	da	ka	1	left
6.6.1	win	2023-06-13	00:18:00	0	0	63d40b7d3c7f92ff15ef6b67	1	1	DL_test	14	DL_test	12			0		ka	1	886	6	3	antiphase_hc_soi.wav	1	6	4	noise_calib_stim_RIGHT.wav	2	20	blb_dichoticlistening_ka-da.mp3	ka	da	1	left
6.6.1	win	2023-06-13	00:18:00	0	0	63d40b7d3c7f92ff15ef6b67	1	1	DL_test	14	DL_test	13			0		ga	1	1179	6	3	antiphase_hc_soi.wav	1	6	4	noise_calib_stim_RIGHT.wav	2	18	blb_dichoticlistening_ga-ta.mp3	ga	ta	1	left
6.6.1	win	2023-06-13	00:18:00	0	0	63d40b7d3c7f92ff15ef6b67	1	1	DL_test	14	DL_test	14			0		ka	1	1408	6	3	antiphase_hc_soi.wav	1	6	4	noise_calib_stim_RIGHT.wav	2	34	blb_dichoticlistening_ta-ka.mp3	ta	ka	1	right
6.6.1	win	2023-06-13	00:18:00	0	0	63d40b7d3c7f92ff15ef6b67	1	1	DL_test	14	DL_test	15			0		ka	1	839	6	3	antiphase_hc_soi.wav	1	6	4	noise_calib_stim_RIGHT.wav	2	24	blb_dichoticlistening_ka-ta.mp3	ka	ta	1	left
6.6.1	win	2023-06-13	00:18:00	0	0	63d40b7d3c7f92ff15ef6b67	1	1	DL_test	14	DL_test	16			0		pa	1	1218	6	3	antiphase_hc_soi.wav	1	6	4	noise_calib_stim_RIGHT.wav	2	28	blb_dichoticlistening_pa-ka.mp3	pa	ka	1	left
6.6.1	win	2023-06-13	00:18:00	0	0	63d40b7d3c7f92ff15ef6b67	1	1	DL_test	14	DL_test	17			0		ga	1	918	6	3	antiphase_hc_soi.wav	1	6	4	noise_calib_stim_RIGHT.wav	2	17	blb_dichoticlistening_ga-pa.mp3	ga	pa	1	left
6.6.1	win	2023-06-13	00:18:00	0	0	63d40b7d3c7f92ff15ef6b67	1	1	DL_test	14	DL_test	18			0		ta	1	1331	6	3	antiphase_hc_soi.wav	1	6	4	noise_calib_stim_RIGHT.wav	2	32	blb_dichoticlistening_ta-da.mp3	ta	da	1	left
6.6.1	win	2023-06-13	00:18:00	0	0	63d40b7d3c7f92ff15ef6b67	1	1	DL_test	14	DL_test	19			0		da	1	1328	6	3	antiphase_hc_soi.wav	1	6	4	noise_calib_stim_RIGHT.wav	2	11	blb_dichoticlistening_da-pa.mp3	da	pa	1	left
6.6.1	win	2023-06-13	00:18:00	0	0	63d40b7d3c7f92ff15ef6b67	1	1	DL_test	14	DL_test	20			0		ga	1	1173	6	3	antiphase_hc_soi.wav	1	6	4	noise_calib_stim_RIGHT.wav	2	15	blb_dichoticlistening_ga-ga.mp3	ga	ga	0	left
6.6.1	win	2023-06-13	00:18:00	0	0	63d40b7d3c7f92ff15ef6b67	1	1	DL_test	14	DL_test	21			0		ga	1	1136	6	3	antiphase_hc_soi.wav	1	6	4	noise_calib_stim_RIGHT.wav	2	14	blb_dichoticlistening_ga-da.mp3	ga	da	1	left
6.6.1	win	2023-06-13	00:18:00	0	0	63d40b7d3c7f92ff15ef6b67	1	1	DL_test	14	DL_test	22			0		pa	1	1114	6	3	antiphase_hc_soi.wav	1	6	4	noise_calib_stim_RIGHT.wav	2	5	blb_dichoticlistening_ba-pa.mp3	ba	pa	1	right
6.6.1	win	2023-06-13	00:18:00	0	0	63d40b7d3c7f92ff15ef6b67	1	1	DL_test	14	DL_test	23			0		da	1	1364	6	3	antiphase_hc_soi.wav	1	6	4	noise_calib_stim_RIGHT.wav	2	2	blb_dichoticlistening_ba-da.mp3	ba	da	1	right
6.6.1	win	2023-06-13	00:18:00	0	0	63d40b7d3c7f92ff15ef6b67	1	1	DL_test	14	DL_test	24			0		ga	1	1122	6	3	antiphase_hc_soi.wav	1	6	4	noise_calib_stim_RIGHT.wav	2	9	blb_dichoticlistening_da-ga.mp3	da	ga	1	right
6.6.1	win	2023-06-13	00:18:00	0	0	63d40b7d3c7f92ff15ef6b67	1	1	DL_test	14	DL_test	25			0		ga	1	1009	6	3	antiphase_hc_soi.wav	1	6	4	noise_calib_stim_RIGHT.wav	2	13	blb_dichoticlistening_ga-ba.mp3	ga	ba	1	left
6.6.1	win	2023-06-13	00:18:00	0	0	63d40b7d3c7f92ff15ef6b67	1	1	DL_test	14	DL_test	26			0		ka	1	2042	6	3	antiphase_hc_soi.wav	1	6	4	noise_calib_stim_RIGHT.wav	2	21	blb_dichoticlistening_ka-ga.mp3	ka	ga	1	left
6.6.1	win	2023-06-13	00:18:00	0	0	63d40b7d3c7f92ff15ef6b67	1	1	DL_test	14	DL_test	27			0		ta	1	1508	6	3	antiphase_hc_soi.wav	1	6	4	noise_calib_stim_RIGHT.wav	2	6	blb_dichoticlistening_ba-ta.mp3	ba	ta	1	right
6.6.1	win	2023-06-13	00:18:00	0	0	63d40b7d3c7f92ff15ef6b67	1	1	DL_test	14	DL_test	28			0		ta	1	1819	6	3	antiphase_hc_soi.wav	1	6	4	noise_calib_stim_RIGHT.wav	2	35	blb_dichoticlistening_ta-pa.mp3	ta	pa	1	left
6.6.1	win	2023-06-13	00:18:00	0	0	63d40b7d3c7f92ff15ef6b67	1	1	DL_test	14	DL_test	29			0		ga	1	1317	6	3	antiphase_hc_soi.wav	1	6	4	noise_calib_stim_RIGHT.wav	2	16	blb_dichoticlistening_ga-ka.mp3	ga	ka	1	left
6.6.1	win	2023-06-13	00:18:00	0	0	63d40b7d3c7f92ff15ef6b67	1	1	DL_test	14	DL_test	30			0		pa	1	1646	6	3	antiphase_hc_soi.wav	1	6	4	noise_calib_stim_RIGHT.wav	2	29	blb_dichoticlistening_pa-pa.mp3	pa	pa	0	left
6.6.1	win	2023-06-13	00:18:00	0	0	63d40b7d3c7f92ff15ef6b67	1	1	DL_test	14	DL_test	31			0		pa	1	2753	6	3	antiphase_hc_soi.wav	1	6	4	noise_calib_stim_RIGHT.wav	2	25	blb_dichoticlistening_pa-ba.mp3	pa	ba	1	left
6.6.1	win	2023-06-13	00:18:00	0	0	63d40b7d3c7f92ff15ef6b67	1	1	DL_test	14	DL_test	32			0		ta	1	855	6	3	antiphase_hc_soi.wav	1	6	4	noise_calib_stim_RIGHT.wav	2	31	blb_dichoticlistening_ta-ba.mp3	ta	ba	1	left
6.6.1	win	2023-06-13	00:18:00	0	0	63d40b7d3c7f92ff15ef6b67	1	1	DL_test	14	DL_test	33			0		da	1	1357	6	3	antiphase_hc_soi.wav	1	6	4	noise_calib_stim_RIGHT.wav	2	12	blb_dichoticlistening_da-ta.mp3	da	ta	1	left
6.6.1	win	2023-06-13	00:18:00	0	0	63d40b7d3c7f92ff15ef6b67	1	1	DL_test	14	DL_test	34			0		pa	1	1198	6	3	antiphase_hc_soi.wav	1	6	4	noise_calib_stim_RIGHT.wav	2	27	blb_dichoticlistening_pa-ga.mp3	pa	ga	1	left
6.6.1	win	2023-06-13	00:18:00	0	0	63d40b7d3c7f92ff15ef6b67	1	1	DL_test	14	DL_test	35			0		ta	1	1553	6	3	antiphase_hc_soi.wav	1	6	4	noise_calib_stim_RIGHT.wav	2	30	blb_dichoticlistening_pa-ta.mp3	pa	ta	1	right
6.6.1	win	2023-06-13	00:18:00	0	0	63d40b7d3c7f92ff15ef6b67	1	1	DL_test	14	DL_test	36			0		da	1	1989	6	3	antiphase_hc_soi.wav	1	6	4	noise_calib_stim_RIGHT.wav	2	7	blb_dichoticlistening_da-ba.mp3	da	ba	1	left
6.6.1	win	2023-06-13	00:18:00	0	0	63d40b7d3c7f92ff15ef6b67	1	1	DL_test	15	DL_test	1			0		ga	1	1003	6	3	antiphase_hc_soi.wav	1	6	4	noise_calib_stim_RIGHT.wav	2	14	blb_dichoticlistening_ga-da.mp3	ga	da	1	left
6.6.1	win	2023-06-13	00:18:00	0	0	63d40b7d3c7f92ff15ef6b67	1	1	DL_test	15	DL_test	2			0		ka	0	1712	6	3	antiphase_hc_soi.wav	1	6	4	noise_calib_stim_RIGHT.wav	2	33	blb_dichoticlistening_ta-ga.mp3	ta	ga	1	other
6.6.1	win	2023-06-13	00:18:00	0	0	63d40b7d3c7f92ff15ef6b67	1	1	DL_test	15	DL_test	3			0		ka	1	928	6	3	antiphase_hc_soi.wav	1	6	4	noise_calib_stim_RIGHT.wav	2	22	blb_dichoticlistening_ka-ka.mp3	ka	ka	0	left
6.6.1	win	2023-06-13	00:18:00	0	0	63d40b7d3c7f92ff15ef6b67	1	1	DL_test	15	DL_test	4			0		pa	0	1548	6	3	antiphase_hc_soi.wav	1	6	4	noise_calib_stim_RIGHT.wav	2	4	blb_dichoticlistening_ba-ka.mp3	ba	ka	1	other
6.6.1	win	2023-06-13	00:18:00	0	0	63d40b7d3c7f92ff15ef6b67	1	1	DL_test	15	DL_test	5			0		ka	1	839	6	3	antiphase_hc_soi.wav	1	6	4	noise_calib_stim_RIGHT.wav	2	23	blb_dichoticlistening_ka-pa.mp3	ka	pa	1	left
6.6.1	win	2023-06-13	00:18:00	0	0	63d40b7d3c7f92ff15ef6b67	1	1	DL_test	15	DL_test	6			0		ta	1	1408	6	3	antiphase_hc_soi.wav	1	6	4	noise_calib_stim_RIGHT.wav	2	35	blb_dichoticlistening_ta-pa.mp3	ta	pa	1	left
6.6.1	win	2023-06-13	00:18:00	0	0	63d40b7d3c7f92ff15ef6b67	1	1	DL_test	15	DL_test	7			0		ba	1	2018	6	3	antiphase_hc_soi.wav	1	6	4	noise_calib_stim_RIGHT.wav	2	6	blb_dichoticlistening_ba-ta.mp3	ba	ta	1	left
6.6.1	win	2023-06-13	00:18:00	0	0	63d40b7d3c7f92ff15ef6b67	1	1	DL_test	15	DL_test	8			0		pa	1	1297	6	3	antiphase_hc_soi.wav	1	6	4	noise_calib_stim_RIGHT.wav	2	26	blb_dichoticlistening_pa-da.mp3	pa	da	1	left
6.6.1	win	2023-06-13	00:18:00	0	0	63d40b7d3c7f92ff15ef6b67	1	1	DL_test	15	DL_test	9			0		ka	1	885	6	3	antiphase_hc_soi.wav	1	6	4	noise_calib_stim_RIGHT.wav	2	21	blb_dichoticlistening_ka-ga.mp3	ka	ga	1	left
6.6.1	win	2023-06-13	00:18:00	0	0	63d40b7d3c7f92ff15ef6b67	1	1	DL_test	15	DL_test	10			0		pa	1	733	6	3	antiphase_hc_soi.wav	1	6	4	noise_calib_stim_RIGHT.wav	2	5	blb_dichoticlistening_ba-pa.mp3	ba	pa	1	right
6.6.1	win	2023-06-13	00:18:00	0	0	63d40b7d3c7f92ff15ef6b67	1	1	DL_test	15	DL_test	11			0		ga	1	1516	6	3	antiphase_hc_soi.wav	1	6	4	noise_calib_stim_RIGHT.wav	2	9	blb_dichoticlistening_da-ga.mp3	da	ga	1	right
6.6.1	win	2023-06-13	00:18:00	0	0	63d40b7d3c7f92ff15ef6b67	1	1	DL_test	15	DL_test	12			0		ka	1	795	6	3	antiphase_hc_soi.wav	1	6	4	noise_calib_stim_RIGHT.wav	2	24	blb_dichoticlistening_ka-ta.mp3	ka	ta	1	left
6.6.1	win	2023-06-13	00:18:00	0	0	63d40b7d3c7f92ff15ef6b67	1	1	DL_test	15	DL_test	13			0		pa	1	1428	6	3	antiphase_hc_soi.wav	1	6	4	noise_calib_stim_RIGHT.wav	2	28	blb_dichoticlistening_pa-ka.mp3	pa	ka	1	left
6.6.1	win	2023-06-13	00:18:00	0	0	63d40b7d3c7f92ff15ef6b67	1	1	DL_test	15	DL_test	14			0		ga	1	1135	6	3	antiphase_hc_soi.wav	1	6	4	noise_calib_stim_RIGHT.wav	2	16	blb_dichoticlistening_ga-ka.mp3	ga	ka	1	left
6.6.1	win	2023-06-13	00:18:00	0	0	63d40b7d3c7f92ff15ef6b67	1	1	DL_test	15	DL_test	15			0		ba	1	1811	6	3	antiphase_hc_soi.wav	1	6	4	noise_calib_stim_RIGHT.wav	2	1	blb_dichoticlistening_ba-ba.mp3	ba	ba	0	left
6.6.1	win	2023-06-13	00:18:00	0	0	63d40b7d3c7f92ff15ef6b67	1	1	DL_test	15	DL_test	16			0		da	1	1550	6	3	antiphase_hc_soi.wav	1	6	4	noise_calib_stim_RIGHT.wav	2	10	blb_dichoticlistening_da-ka.mp3	da	ka	1	left
6.6.1	win	2023-06-13	00:18:00	0	0	63d40b7d3c7f92ff15ef6b67	1	1	DL_test	15	DL_test	17			0		da	1	1625	6	3	antiphase_hc_soi.wav	1	6	4	noise_calib_stim_RIGHT.wav	2	7	blb_dichoticlistening_da-ba.mp3	da	ba	1	left
6.6.1	win	2023-06-13	00:18:00	0	0	63d40b7d3c7f92ff15ef6b67	1	1	DL_test	15	DL_test	18			0		ta	1	1460	6	3	antiphase_hc_soi.wav	1	6	4	noise_calib_stim_RIGHT.wav	2	32	blb_dichoticlistening_ta-da.mp3	ta	da	1	left
6.6.1	win	2023-06-13	00:18:00	0	0	63d40b7d3c7f92ff15ef6b67	1	1	DL_test	15	DL_test	19			0		da	1	1320	6	3	antiphase_hc_soi.wav	1	6	4	noise_calib_stim_RIGHT.wav	2	8	blb_dichoticlistening_da-da.mp3	da	da	0	left
6.6.1	win	2023-06-13	00:18:00	0	0	63d40b7d3c7f92ff15ef6b67	1	1	DL_test	15	DL_test	20			0		ka	1	1012	6	3	antiphase_hc_soi.wav	1	6	4	noise_calib_stim_RIGHT.wav	2	20	blb_dichoticlistening_ka-da.mp3	ka	da	1	left
6.6.1	win	2023-06-13	00:18:00	0	0	63d40b7d3c7f92ff15ef6b67	1	1	DL_test	15	DL_test	21			0		ga	1	993	6	3	antiphase_hc_soi.wav	1	6	4	noise_calib_stim_RIGHT.wav	2	15	blb_dichoticlistening_ga-ga.mp3	ga	ga	0	left
6.6.1	win	2023-06-13	00:18:00	0	0	63d40b7d3c7f92ff15ef6b67	1	1	DL_test	15	DL_test	22			0		ba	1	1627	6	3	antiphase_hc_soi.wav	1	6	4	noise_calib_stim_RIGHT.wav	2	3	blb_dichoticlistening_ba-ga.mp3	ba	ga	1	left
6.6.1	win	2023-06-13	00:18:00	0	0	63d40b7d3c7f92ff15ef6b67	1	1	DL_test	15	DL_test	23			0		pa	1	1554	6	3	antiphase_hc_soi.wav	1	6	4	noise_calib_stim_RIGHT.wav	2	30	blb_dichoticlistening_pa-ta.mp3	pa	ta	1	left
6.6.1	win	2023-06-13	00:18:00	0	0	63d40b7d3c7f92ff15ef6b67	1	1	DL_test	15	DL_test	24			0		da	1	1072	6	3	antiphase_hc_soi.wav	1	6	4	noise_calib_stim_RIGHT.wav	2	12	blb_dichoticlistening_da-ta.mp3	da	ta	1	left
6.6.1	win	2023-06-13	00:18:00	0	0	63d40b7d3c7f92ff15ef6b67	1	1	DL_test	15	DL_test	25			0		ga	1	1429	6	3	antiphase_hc_soi.wav	1	6	4	noise_calib_stim_RIGHT.wav	2	18	blb_dichoticlistening_ga-ta.mp3	ga	ta	1	left
6.6.1	win	2023-06-13	00:18:00	0	0	63d40b7d3c7f92ff15ef6b67	1	1	DL_test	15	DL_test	26			0		pa	1	806	6	3	antiphase_hc_soi.wav	1	6	4	noise_calib_stim_RIGHT.wav	2	27	blb_dichoticlistening_pa-ga.mp3	pa	ga	1	left
6.6.1	win	2023-06-13	00:18:00	0	0	63d40b7d3c7f92ff15ef6b67	1	1	DL_test	15	DL_test	27			0		pa	1	987	6	3	antiphase_hc_soi.wav	1	6	4	noise_calib_stim_RIGHT.wav	2	29	blb_dichoticlistening_pa-pa.mp3	pa	pa	0	left
6.6.1	win	2023-06-13	00:18:00	0	0	63d40b7d3c7f92ff15ef6b67	1	1	DL_test	15	DL_test	28			0		ka	1	1421	6	3	antiphase_hc_soi.wav	1	6	4	noise_calib_stim_RIGHT.wav	2	19	blb_dichoticlistening_ka-ba.mp3	ka	ba	1	left
6.6.1	win	2023-06-13	00:18:00	0	0	63d40b7d3c7f92ff15ef6b67	1	1	DL_test	15	DL_test	29			0		da	1	1243	6	3	antiphase_hc_soi.wav	1	6	4	noise_calib_stim_RIGHT.wav	2	11	blb_dichoticlistening_da-pa.mp3	da	pa	1	left
6.6.1	win	2023-06-13	00:18:00	0	0	63d40b7d3c7f92ff15ef6b67	1	1	DL_test	15	DL_test	30			0		ga	1	861	6	3	antiphase_hc_soi.wav	1	6	4	noise_calib_stim_RIGHT.wav	2	13	blb_dichoticlistening_ga-ba.mp3	ga	ba	1	left
6.6.1	win	2023-06-13	00:18:00	0	0	63d40b7d3c7f92ff15ef6b67	1	1	DL_test	15	DL_test	31			0		ka	1	1168	6	3	antiphase_hc_soi.wav	1	6	4	noise_calib_stim_RIGHT.wav	2	34	blb_dichoticlistening_ta-ka.mp3	ta	ka	1	right
6.6.1	win	2023-06-13	00:18:00	0	0	63d40b7d3c7f92ff15ef6b67	1	1	DL_test	15	DL_test	32			0		ta	1	1221	6	3	antiphase_hc_soi.wav	1	6	4	noise_calib_stim_RIGHT.wav	2	36	blb_dichoticlistening_ta-ta.mp3	ta	ta	0	left
6.6.1	win	2023-06-13	00:18:00	0	0	63d40b7d3c7f92ff15ef6b67	1	1	DL_test	15	DL_test	33			0		pa	1	1431	6	3	antiphase_hc_soi.wav	1	6	4	noise_calib_stim_RIGHT.wav	2	25	blb_dichoticlistening_pa-ba.mp3	pa	ba	1	left
6.6.1	win	2023-06-13	00:18:00	0	0	63d40b7d3c7f92ff15ef6b67	1	1	DL_test	15	DL_test	34			0		ba	1	1916	6	3	antiphase_hc_soi.wav	1	6	4	noise_calib_stim_RIGHT.wav	2	2	blb_dichoticlistening_ba-da.mp3	ba	da	1	left
6.6.1	win	2023-06-13	00:18:00	0	0	63d40b7d3c7f92ff15ef6b67	1	1	DL_test	15	DL_test	35			0		pa	0	1248	6	3	antiphase_hc_soi.wav	1	6	4	noise_calib_stim_RIGHT.wav	2	31	blb_dichoticlistening_ta-ba.mp3	ta	ba	1	other
6.6.1	win	2023-06-13	00:18:00	0	0	63d40b7d3c7f92ff15ef6b67	1	1	DL_test	15	DL_test	36			0		ga	1	1393	6	3	antiphase_hc_soi.wav	1	6	4	noise_calib_stim_RIGHT.wav	2	17	blb_dichoticlistening_ga-pa.mp3	ga	pa	1	left
6.6.1	win	2023-06-13	00:18:00	0	0	63d40b7d3c7f92ff15ef6b67	1	1	DL_test	16	DL_test	1			0		pa	1	1275	6	3	antiphase_hc_soi.wav	1	6	4	noise_calib_stim_RIGHT.wav	2	30	blb_dichoticlistening_pa-ta.mp3	pa	ta	1	left
6.6.1	win	2023-06-13	00:18:00	0	0	63d40b7d3c7f92ff15ef6b67	1	1	DL_test	16	DL_test	2			0		ka	1	1456	6	3	antiphase_hc_soi.wav	1	6	4	noise_calib_stim_RIGHT.wav	2	28	blb_dichoticlistening_pa-ka.mp3	pa	ka	1	right
6.6.1	win	2023-06-13	00:18:00	0	0	63d40b7d3c7f92ff15ef6b67	1	1	DL_test	16	DL_test	3			0		ta	1	1418	6	3	antiphase_hc_soi.wav	1	6	4	noise_calib_stim_RIGHT.wav	2	32	blb_dichoticlistening_ta-da.mp3	ta	da	1	left
6.6.1	win	2023-06-13	00:18:00	0	0	63d40b7d3c7f92ff15ef6b67	1	1	DL_test	16	DL_test	4			0		ta	1	1321	6	3	antiphase_hc_soi.wav	1	6	4	noise_calib_stim_RIGHT.wav	2	36	blb_dichoticlistening_ta-ta.mp3	ta	ta	0	left
6.6.1	win	2023-06-13	00:18:00	0	0	63d40b7d3c7f92ff15ef6b67	1	1	DL_test	16	DL_test	5			0		da	1	1563	6	3	antiphase_hc_soi.wav	1	6	4	noise_calib_stim_RIGHT.wav	2	12	blb_dichoticlistening_da-ta.mp3	da	ta	1	left
6.6.1	win	2023-06-13	00:18:00	0	0	63d40b7d3c7f92ff15ef6b67	1	1	DL_test	16	DL_test	6			0		ba	1	2707	6	3	antiphase_hc_soi.wav	1	6	4	noise_calib_stim_RIGHT.wav	2	5	blb_dichoticlistening_ba-pa.mp3	ba	pa	1	left
6.6.1	win	2023-06-13	00:18:00	0	0	63d40b7d3c7f92ff15ef6b67	1	1	DL_test	16	DL_test	7			0		ba	1	1874	6	3	antiphase_hc_soi.wav	1	6	4	noise_calib_stim_RIGHT.wav	2	1	blb_dichoticlistening_ba-ba.mp3	ba	ba	0	left
6.6.1	win	2023-06-13	00:18:00	0	0	63d40b7d3c7f92ff15ef6b67	1	1	DL_test	16	DL_test	8			0		ka	0	1874	6	3	antiphase_hc_soi.wav	1	6	4	noise_calib_stim_RIGHT.wav	2	6	blb_dichoticlistening_ba-ta.mp3	ba	ta	1	other
6.6.1	win	2023-06-13	00:18:00	0	0	63d40b7d3c7f92ff15ef6b67	1	1	DL_test	16	DL_test	9			0		ka	1	1305	6	3	antiphase_hc_soi.wav	1	6	4	noise_calib_stim_RIGHT.wav	2	4	blb_dichoticlistening_ba-ka.mp3	ba	ka	1	right
6.6.1	win	2023-06-13	00:18:00	0	0	63d40b7d3c7f92ff15ef6b67	1	1	DL_test	16	DL_test	10			0		da	1	1244	6	3	antiphase_hc_soi.wav	1	6	4	noise_calib_stim_RIGHT.wav	2	8	blb_dichoticlistening_da-da.mp3	da	da	0	left
6.6.1	win	2023-06-13	00:18:00	0	0	63d40b7d3c7f92ff15ef6b67	1	1	DL_test	16	DL_test	11			0		ga	1	1489	6	3	antiphase_hc_soi.wav	1	6	4	noise_calib_stim_RIGHT.wav	2	14	blb_dichoticlistening_ga-da.mp3	ga	da	1	left
6.6.1	win	2023-06-13	00:18:00	0	0	63d40b7d3c7f92ff15ef6b67	1	1	DL_test	16	DL_test	12			0		ka	1	751	6	3	antiphase_hc_soi.wav	1	6	4	noise_calib_stim_RIGHT.wav	2	21	blb_dichoticlistening_ka-ga.mp3	ka	ga	1	left
6.6.1	win	2023-06-13	00:18:00	0	0	63d40b7d3c7f92ff15ef6b67	1	1	DL_test	16	DL_test	13			0		ga	1	1099	6	3	antiphase_hc_soi.wav	1	6	4	noise_calib_stim_RIGHT.wav	2	15	blb_dichoticlistening_ga-ga.mp3	ga	ga	0	left
6.6.1	win	2023-06-13	00:18:00	0	0	63d40b7d3c7f92ff15ef6b67	1	1	DL_test	16	DL_test	14			0		ka	1	762	6	3	antiphase_hc_soi.wav	1	6	4	noise_calib_stim_RIGHT.wav	2	20	blb_dichoticlistening_ka-da.mp3	ka	da	1	left
6.6.1	win	2023-06-13	00:18:00	0	0	63d40b7d3c7f92ff15ef6b67	1	1	DL_test	16	DL_test	15			0		ka	1	970	6	3	antiphase_hc_soi.wav	1	6	4	noise_calib_stim_RIGHT.wav	2	19	blb_dichoticlistening_ka-ba.mp3	ka	ba	1	left
6.6.1	win	2023-06-13	00:18:00	0	0	63d40b7d3c7f92ff15ef6b67	1	1	DL_test	16	DL_test	16			0		ta	1	1242	6	3	antiphase_hc_soi.wav	1	6	4	noise_calib_stim_RIGHT.wav	2	35	blb_dichoticlistening_ta-pa.mp3	ta	pa	1	left
6.6.1	win	2023-06-13	00:18:00	0	0	63d40b7d3c7f92ff15ef6b67	1	1	DL_test	16	DL_test	17			0		ta	1	1292	6	3	antiphase_hc_soi.wav	1	6	4	noise_calib_stim_RIGHT.wav	2	31	blb_dichoticlistening_ta-ba.mp3	ta	ba	1	left
6.6.1	win	2023-06-13	00:18:00	0	0	63d40b7d3c7f92ff15ef6b67	1	1	DL_test	16	DL_test	18			0		da	1	1182	6	3	antiphase_hc_soi.wav	1	6	4	noise_calib_stim_RIGHT.wav	2	10	blb_dichoticlistening_da-ka.mp3	da	ka	1	left
6.6.1	win	2023-06-13	00:18:00	0	0	63d40b7d3c7f92ff15ef6b67	1	1	DL_test	16	DL_test	19			0		ka	1	1238	6	3	antiphase_hc_soi.wav	1	6	4	noise_calib_stim_RIGHT.wav	2	23	blb_dichoticlistening_ka-pa.mp3	ka	pa	1	left
6.6.1	win	2023-06-13	00:18:00	0	0	63d40b7d3c7f92ff15ef6b67	1	1	DL_test	16	DL_test	20			0		da	1	2207	6	3	antiphase_hc_soi.wav	1	6	4	noise_calib_stim_RIGHT.wav	2	11	blb_dichoticlistening_da-pa.mp3	da	pa	1	left
6.6.1	win	2023-06-13	00:18:00	0	0	63d40b7d3c7f92ff15ef6b67	1	1	DL_test	16	DL_test	21			0		ta	1	1662	6	3	antiphase_hc_soi.wav	1	6	4	noise_calib_stim_RIGHT.wav	2	34	blb_dichoticlistening_ta-ka.mp3	ta	ka	1	left
6.6.1	win	2023-06-13	00:18:00	0	0	63d40b7d3c7f92ff15ef6b67	1	1	DL_test	16	DL_test	22			0		pa	1	1362	6	3	antiphase_hc_soi.wav	1	6	4	noise_calib_stim_RIGHT.wav	2	26	blb_dichoticlistening_pa-da.mp3	pa	da	1	left
6.6.1	win	2023-06-13	00:18:00	0	0	63d40b7d3c7f92ff15ef6b67	1	1	DL_test	16	DL_test	23			0		pa	1	1779	6	3	antiphase_hc_soi.wav	1	6	4	noise_calib_stim_RIGHT.wav	2	29	blb_dichoticlistening_pa-pa.mp3	pa	pa	0	left
6.6.1	win	2023-06-13	00:18:00	0	0	63d40b7d3c7f92ff15ef6b67	1	1	DL_test	16	DL_test	24			0		ga	1	1708	6	3	antiphase_hc_soi.wav	1	6	4	noise_calib_stim_RIGHT.wav	2	13	blb_dichoticlistening_ga-ba.mp3	ga	ba	1	left
6.6.1	win	2023-06-13	00:18:00	0	0	63d40b7d3c7f92ff15ef6b67	1	1	DL_test	16	DL_test	25			0		ta	1	2267	6	3	antiphase_hc_soi.wav	1	6	4	noise_calib_stim_RIGHT.wav	2	33	blb_dichoticlistening_ta-ga.mp3	ta	ga	1	left
6.6.1	win	2023-06-13	00:18:00	0	0	63d40b7d3c7f92ff15ef6b67	1	1	DL_test	16	DL_test	26			0		ba	1	2296	6	3	antiphase_hc_soi.wav	1	6	4	noise_calib_stim_RIGHT.wav	2	2	blb_dichoticlistening_ba-da.mp3	ba	da	1	left
6.6.1	win	2023-06-13	00:18:00	0	0	63d40b7d3c7f92ff15ef6b67	1	1	DL_test	16	DL_test	27			0		da	1	2036	6	3	antiphase_hc_soi.wav	1	6	4	noise_calib_stim_RIGHT.wav	2	7	blb_dichoticlistening_da-ba.mp3	da	ba	1	left
6.6.1	win	2023-06-13	00:18:00	0	0	63d40b7d3c7f92ff15ef6b67	1	1	DL_test	16	DL_test	28			0		pa	1	1754	6	3	antiphase_hc_soi.wav	1	6	4	noise_calib_stim_RIGHT.wav	2	25	blb_dichoticlistening_pa-ba.mp3	pa	ba	1	left
6.6.1	win	2023-06-13	00:18:00	0	0	63d40b7d3c7f92ff15ef6b67	1	1	DL_test	16	DL_test	29			0		ka	1	1871	6	3	antiphase_hc_soi.wav	1	6	4	noise_calib_stim_RIGHT.wav	2	24	blb_dichoticlistening_ka-ta.mp3	ka	ta	1	left
6.6.1	win	2023-06-13	00:18:00	0	0	63d40b7d3c7f92ff15ef6b67	1	1	DL_test	16	DL_test	30			0		ga	1	1513	6	3	antiphase_hc_soi.wav	1	6	4	noise_calib_stim_RIGHT.wav	2	18	blb_dichoticlistening_ga-ta.mp3	ga	ta	1	left
6.6.1	win	2023-06-13	00:18:00	0	0	63d40b7d3c7f92ff15ef6b67	1	1	DL_test	16	DL_test	31			0		ka	1	6073	6	3	antiphase_hc_soi.wav	1	6	4	noise_calib_stim_RIGHT.wav	2	22	blb_dichoticlistening_ka-ka.mp3	ka	ka	0	left
6.6.1	win	2023-06-13	00:18:00	0	0	63d40b7d3c7f92ff15ef6b67	1	1	DL_test	16	DL_test	32			0		ga	1	1223	6	3	antiphase_hc_soi.wav	1	6	4	noise_calib_stim_RIGHT.wav	2	17	blb_dichoticlistening_ga-pa.mp3	ga	pa	1	left
6.6.1	win	2023-06-13	00:18:00	0	0	63d40b7d3c7f92ff15ef6b67	1	1	DL_test	16	DL_test	33			0		pa	1	1138	6	3	antiphase_hc_soi.wav	1	6	4	noise_calib_stim_RIGHT.wav	2	27	blb_dichoticlistening_pa-ga.mp3	pa	ga	1	left
6.6.1	win	2023-06-13	00:18:00	0	0	63d40b7d3c7f92ff15ef6b67	1	1	DL_test	16	DL_test	34			0		da	1	1241	6	3	antiphase_hc_soi.wav	1	6	4	noise_calib_stim_RIGHT.wav	2	9	blb_dichoticlistening_da-ga.mp3	da	ga	1	left
6.6.1	win	2023-06-13	00:18:00	0	0	63d40b7d3c7f92ff15ef6b67	1	1	DL_test	16	DL_test	35			0		ga	1	847	6	3	antiphase_hc_soi.wav	1	6	4	noise_calib_stim_RIGHT.wav	2	16	blb_dichoticlistening_ga-ka.mp3	ga	ka	1	left
6.6.1	win	2023-06-13	00:18:00	0	0	63d40b7d3c7f92ff15ef6b67	1	1	DL_test	16	DL_test	36			0		ba	1	2328	6	3	antiphase_hc_soi.wav	1	6	4	noise_calib_stim_RIGHT.wav	2	3	blb_dichoticlistening_ba-ga.mp3	ba	ga	1	left
6.6.1	win	2023-06-13	00:18:00	00:29:10	665074	63d40b7d3c7f92ff15ef6b67	1	1	practice_slash	22	practice_slash	1	stimuli_distractor_trianglediamonds.svg	stimuli_distractor_diamondtriangles.svg	16	no	53	0	1042	6	3	antiphase_hc_soi.wav	1	6	4	noise_calib_stim_RIGHT.wav	2	3	blb_dichoticlistening_ba-ga.mp3	ba	ga	1	left
6.6.1	win	2023-06-13	00:18:00	00:29:10	665074	63d40b7d3c7f92ff15ef6b67	1	1	practice_slash	22	advance_on_keypress_SLASH	2	stimuli_distractor_trianglediamonds.svg	stimuli_distractor_diamondtriangles.svg	16	no	57	0	1667	6	3	antiphase_hc_soi.wav	1	6	4	noise_calib_stim_RIGHT.wav	2	3	blb_dichoticlistening_ba-ga.mp3	ba	ga	1	left
6.6.1	win	2023-06-13	00:18:00	00:29:14	668869	63d40b7d3c7f92ff15ef6b67	1	1	practice_slash	22	practice_slash	3	stimuli_distractor_trianglediamonds.svg	stimuli_target_rectanglediamonds.svg	10	yes	53	1	488	6	3	antiphase_hc_soi.wav	1	6	4	noise_calib_stim_RIGHT.wav	2	3	blb_dichoticlistening_ba-ga.mp3	ba	ga	1	left
6.6.1	win	2023-06-13	00:18:00	00:29:14	668869	63d40b7d3c7f92ff15ef6b67	1	1	practice_slash	22	advance_on_keypress_SLASH	4	stimuli_distractor_trianglediamonds.svg	stimuli_target_rectanglediamonds.svg	10	yes	57	0	863	6	3	antiphase_hc_soi.wav	1	6	4	noise_calib_stim_RIGHT.wav	2	3	blb_dichoticlistening_ba-ga.mp3	ba	ga	1	left
6.6.1	win	2023-06-13	00:18:00	00:29:17	671669	63d40b7d3c7f92ff15ef6b67	1	1	practice_slash	22	practice_slash	5	stimuli_distractor_trianglediamonds.svg	stimuli_distractor_trianglediamonds.svg	15	no	53	0	290	6	3	antiphase_hc_soi.wav	1	6	4	noise_calib_stim_RIGHT.wav	2	3	blb_dichoticlistening_ba-ga.mp3	ba	ga	1	left
6.6.1	win	2023-06-13	00:18:00	00:29:17	671669	63d40b7d3c7f92ff15ef6b67	1	1	practice_slash	22	advance_on_keypress_SLASH	6	stimuli_distractor_trianglediamonds.svg	stimuli_distractor_trianglediamonds.svg	15	no	57	0	487	6	3	antiphase_hc_soi.wav	1	6	4	noise_calib_stim_RIGHT.wav	2	3	blb_dichoticlistening_ba-ga.mp3	ba	ga	1	left
6.6.1	win	2023-06-13	00:18:00	00:29:20	674459	63d40b7d3c7f92ff15ef6b67	1	1	practice_slash	22	practice_slash	7	stimuli_distractor_diamondtriangles.svg	stimuli_distractor_diamondtriangles.svg	13	no	53	0	662	6	3	antiphase_hc_soi.wav	1	6	4	noise_calib_stim_RIGHT.wav	2	3	blb_dichoticlistening_ba-ga.mp3	ba	ga	1	left
6.6.1	win	2023-06-13	00:18:00	00:29:20	674459	63d40b7d3c7f92ff15ef6b67	1	1	practice_slash	22	advance_on_keypress_SLASH	8	stimuli_distractor_diamondtriangles.svg	stimuli_distractor_diamondtriangles.svg	13	no	57	0	1086	6	3	antiphase_hc_soi.wav	1	6	4	noise_calib_stim_RIGHT.wav	2	3	blb_dichoticlistening_ba-ga.mp3	ba	ga	1	left
6.6.1	win	2023-06-13	00:18:00	00:29:23	677464	63d40b7d3c7f92ff15ef6b67	1	1	practice_slash	22	practice_slash	9	stimuli_distractor_diamondtriangles.svg	stimuli_target_diamondrectangles.svg	8	yes	53	1	284	6	3	antiphase_hc_soi.wav	1	6	4	noise_calib_stim_RIGHT.wav	2	3	blb_dichoticlistening_ba-ga.mp3	ba	ga	1	left
6.6.1	win	2023-06-13	00:18:00	00:29:23	677464	63d40b7d3c7f92ff15ef6b67	1	1	practice_slash	22	advance_on_keypress_SLASH	10	stimuli_distractor_diamondtriangles.svg	stimuli_target_diamondrectangles.svg	8	yes	57	0	480	6	3	antiphase_hc_soi.wav	1	6	4	noise_calib_stim_RIGHT.wav	2	3	blb_dichoticlistening_ba-ga.mp3	ba	ga	1	left
6.6.1	win	2023-06-13	00:18:00	00:29:25	680033	63d40b7d3c7f92ff15ef6b67	1	1	practice_slash	22	practice_slash	11	stimuli_distractor_trianglediamonds.svg	stimuli_target_squarediamonds.svg	11	yes	53	1	437	6	3	antiphase_hc_soi.wav	1	6	4	noise_calib_stim_RIGHT.wav	2	3	blb_dichoticlistening_ba-ga.mp3	ba	ga	1	left
6.6.1	win	2023-06-13	00:18:00	00:29:25	680033	63d40b7d3c7f92ff15ef6b67	1	1	practice_slash	22	advance_on_keypress_SLASH	12	stimuli_distractor_trianglediamonds.svg	stimuli_target_squarediamonds.svg	11	yes	57	0	799	6	3	antiphase_hc_soi.wav	1	6	4	noise_calib_stim_RIGHT.wav	2	3	blb_dichoticlistening_ba-ga.mp3	ba	ga	1	left
6.6.1	win	2023-06-13	00:18:00	00:29:28	682850	63d40b7d3c7f92ff15ef6b67	1	1	practice_slash	22	practice_slash	13	stimuli_target_rectanglediamonds.svg	stimuli_distractor_trianglediamonds.svg	4	yes	53	1	371	6	3	antiphase_hc_soi.wav	1	6	4	noise_calib_stim_RIGHT.wav	2	3	blb_dichoticlistening_ba-ga.mp3	ba	ga	1	left
6.6.1	win	2023-06-13	00:18:00	00:29:28	682850	63d40b7d3c7f92ff15ef6b67	1	1	practice_slash	22	advance_on_keypress_SLASH	14	stimuli_target_rectanglediamonds.svg	stimuli_distractor_trianglediamonds.svg	4	yes	57	0	403	6	3	antiphase_hc_soi.wav	1	6	4	noise_calib_stim_RIGHT.wav	2	3	blb_dichoticlistening_ba-ga.mp3	ba	ga	1	left
6.6.1	win	2023-06-13	00:18:00	00:29:31	685183	63d40b7d3c7f92ff15ef6b67	1	1	practice_slash	22	practice_slash	15	stimuli_target_squarediamonds.svg	stimuli_distractor_diamondtriangles.svg	2	yes	53	1	288	6	3	antiphase_hc_soi.wav	1	6	4	noise_calib_stim_RIGHT.wav	2	3	blb_dichoticlistening_ba-ga.mp3	ba	ga	1	left
6.6.1	win	2023-06-13	00:18:00	00:29:31	685183	63d40b7d3c7f92ff15ef6b67	1	1	practice_slash	22	advance_on_keypress_SLASH	16	stimuli_target_squarediamonds.svg	stimuli_distractor_diamondtriangles.svg	2	yes	57	0	630	6	3	antiphase_hc_soi.wav	1	6	4	noise_calib_stim_RIGHT.wav	2	3	blb_dichoticlistening_ba-ga.mp3	ba	ga	1	left
6.6.1	win	2023-06-13	00:18:00	00:29:33	687824	63d40b7d3c7f92ff15ef6b67	1	1	practice_slash	22	practice_slash	17	stimuli_target_diamondsquares.svg	stimuli_distractor_diamondtriangles.svg	3	yes	53	1	362	6	3	antiphase_hc_soi.wav	1	6	4	noise_calib_stim_RIGHT.wav	2	3	blb_dichoticlistening_ba-ga.mp3	ba	ga	1	left
6.6.1	win	2023-06-13	00:18:00	00:29:33	687824	63d40b7d3c7f92ff15ef6b67	1	1	practice_slash	22	advance_on_keypress_SLASH	18	stimuli_target_diamondsquares.svg	stimuli_distractor_diamondtriangles.svg	3	yes	57	0	999	6	3	antiphase_hc_soi.wav	1	6	4	noise_calib_stim_RIGHT.wav	2	3	blb_dichoticlistening_ba-ga.mp3	ba	ga	1	left
6.6.1	win	2023-06-13	00:18:00	00:29:36	690757	63d40b7d3c7f92ff15ef6b67	1	1	practice_slash	22	practice_slash	19	stimuli_distractor_diamondtriangles.svg	stimuli_distractor_trianglediamonds.svg	14	no	53	0	296	6	3	antiphase_hc_soi.wav	1	6	4	noise_calib_stim_RIGHT.wav	2	3	blb_dichoticlistening_ba-ga.mp3	ba	ga	1	left
6.6.1	win	2023-06-13	00:18:00	00:29:36	690757	63d40b7d3c7f92ff15ef6b67	1	1	practice_slash	22	advance_on_keypress_SLASH	20	stimuli_distractor_diamondtriangles.svg	stimuli_distractor_trianglediamonds.svg	14	no	57	0	442	6	3	antiphase_hc_soi.wav	1	6	4	noise_calib_stim_RIGHT.wav	2	3	blb_dichoticlistening_ba-ga.mp3	ba	ga	1	left
6.6.1	win	2023-06-13	00:18:00	00:29:39	693457	63d40b7d3c7f92ff15ef6b67	1	1	practice_slash	22	practice_slash	21	stimuli_target_diamondsquares.svg	stimuli_distractor_trianglediamonds.svg	6	yes	53	1	612	6	3	antiphase_hc_soi.wav	1	6	4	noise_calib_stim_RIGHT.wav	2	3	blb_dichoticlistening_ba-ga.mp3	ba	ga	1	left
6.6.1	win	2023-06-13	00:18:00	00:29:39	693457	63d40b7d3c7f92ff15ef6b67	1	1	practice_slash	22	advance_on_keypress_SLASH	22	stimuli_target_diamondsquares.svg	stimuli_distractor_trianglediamonds.svg	6	yes	57	0	588	6	3	antiphase_hc_soi.wav	1	6	4	noise_calib_stim_RIGHT.wav	2	3	blb_dichoticlistening_ba-ga.mp3	ba	ga	1	left
6.6.1	win	2023-06-13	00:18:00	00:29:42	696218	63d40b7d3c7f92ff15ef6b67	1	1	practice_slash	22	practice_slash	23	stimuli_distractor_diamondtriangles.svg	stimuli_target_rectangletriangles.svg	7	yes	53	1	524	6	3	antiphase_hc_soi.wav	1	6	4	noise_calib_stim_RIGHT.wav	2	3	blb_dichoticlistening_ba-ga.mp3	ba	ga	1	left
6.6.1	win	2023-06-13	00:18:00	00:29:42	696218	63d40b7d3c7f92ff15ef6b67	1	1	practice_slash	22	advance_on_keypress_SLASH	24	stimuli_distractor_diamondtriangles.svg	stimuli_target_rectangletriangles.svg	7	yes	57	0	407	6	3	antiphase_hc_soi.wav	1	6	4	noise_calib_stim_RIGHT.wav	2	3	blb_dichoticlistening_ba-ga.mp3	ba	ga	1	left
6.6.1	win	2023-06-13	00:18:00	00:29:44	698700	63d40b7d3c7f92ff15ef6b67	1	1	practice_slash	22	practice_slash	25	stimuli_distractor_trianglediamonds.svg	stimuli_target_diamondrectangles.svg	12	yes	53	1	441	6	3	antiphase_hc_soi.wav	1	6	4	noise_calib_stim_RIGHT.wav	2	3	blb_dichoticlistening_ba-ga.mp3	ba	ga	1	left
6.6.1	win	2023-06-13	00:18:00	00:29:44	698700	63d40b7d3c7f92ff15ef6b67	1	1	practice_slash	22	advance_on_keypress_SLASH	26	stimuli_distractor_trianglediamonds.svg	stimuli_target_diamondrectangles.svg	12	yes	57	0	272	6	3	antiphase_hc_soi.wav	1	6	4	noise_calib_stim_RIGHT.wav	2	3	blb_dichoticlistening_ba-ga.mp3	ba	ga	1	left
6.6.1	win	2023-06-13	00:18:00	00:29:47	701264	63d40b7d3c7f92ff15ef6b67	1	1	practice_slash	22	practice_slash	27	stimuli_distractor_diamondtriangles.svg	stimuli_target_trianglerectangles.svg	9	yes	53	1	654	6	3	antiphase_hc_soi.wav	1	6	4	noise_calib_stim_RIGHT.wav	2	3	blb_dichoticlistening_ba-ga.mp3	ba	ga	1	left
6.6.1	win	2023-06-13	00:18:00	00:29:47	701264	63d40b7d3c7f92ff15ef6b67	1	1	practice_slash	22	advance_on_keypress_SLASH	28	stimuli_distractor_diamondtriangles.svg	stimuli_target_trianglerectangles.svg	9	yes	57	0	380	6	3	antiphase_hc_soi.wav	1	6	4	noise_calib_stim_RIGHT.wav	2	3	blb_dichoticlistening_ba-ga.mp3	ba	ga	1	left
6.6.1	win	2023-06-13	00:18:00	00:29:49	703857	63d40b7d3c7f92ff15ef6b67	1	1	practice_slash	22	practice_slash	29	stimuli_target_rectanglediamonds.svg	stimuli_distractor_diamondtriangles.svg	1	yes	53	1	564	6	3	antiphase_hc_soi.wav	1	6	4	noise_calib_stim_RIGHT.wav	2	3	blb_dichoticlistening_ba-ga.mp3	ba	ga	1	left
6.6.1	win	2023-06-13	00:18:00	00:29:49	703857	63d40b7d3c7f92ff15ef6b67	1	1	practice_slash	22	advance_on_keypress_SLASH	30	stimuli_target_rectanglediamonds.svg	stimuli_distractor_diamondtriangles.svg	1	yes	57	0	423	6	3	antiphase_hc_soi.wav	1	6	4	noise_calib_stim_RIGHT.wav	2	3	blb_dichoticlistening_ba-ga.mp3	ba	ga	1	left
6.6.1	win	2023-06-13	00:18:00	00:29:52	706483	63d40b7d3c7f92ff15ef6b67	1	1	practice_slash	22	practice_slash	31	stimuli_target_squarediamonds.svg	stimuli_distractor_trianglediamonds.svg	5	yes	53	1	557	6	3	antiphase_hc_soi.wav	1	6	4	noise_calib_stim_RIGHT.wav	2	3	blb_dichoticlistening_ba-ga.mp3	ba	ga	1	left
6.6.1	win	2023-06-13	00:18:00	00:29:52	706483	63d40b7d3c7f92ff15ef6b67	1	1	practice_slash	22	advance_on_keypress_SLASH	32	stimuli_target_squarediamonds.svg	stimuli_distractor_trianglediamonds.svg	5	yes	57	0	306	6	3	antiphase_hc_soi.wav	1	6	4	noise_calib_stim_RIGHT.wav	2	3	blb_dichoticlistening_ba-ga.mp3	ba	ga	1	left
6.6.1	win	2023-06-13	00:18:00	00:30:00	715088	63d40b7d3c7f92ff15ef6b67	1	1	main_slash	24	main_slash	1	stimuli_target_diamondsquares.svg	stimuli_distractor_diamondtriangles.svg	24	yes	53	1	582	6	3	antiphase_hc_soi.wav	1	6	4	noise_calib_stim_RIGHT.wav	2	3	blb_dichoticlistening_ba-ga.mp3	ba	ga	1	left
6.6.1	win	2023-06-13	00:18:00	00:30:00	715088	63d40b7d3c7f92ff15ef6b67	1	1	main_slash	24	advance_on_keypress_SLASH	2	stimuli_target_diamondsquares.svg	stimuli_distractor_diamondtriangles.svg	24	yes	57	0	1352	6	3	antiphase_hc_soi.wav	1	6	4	noise_calib_stim_RIGHT.wav	2	3	blb_dichoticlistening_ba-ga.mp3	ba	ga	1	left
6.6.1	win	2023-06-13	00:18:00	00:30:03	717586	63d40b7d3c7f92ff15ef6b67	1	1	main_slash	24	main_slash	3	stimuli_distractor_trianglediamonds.svg	stimuli_target_squaretriangles.svg	11	yes	53	1	496	6	3	antiphase_hc_soi.wav	1	6	4	noise_calib_stim_RIGHT.wav	2	3	blb_dichoticlistening_ba-ga.mp3	ba	ga	1	left
6.6.1	win	2023-06-13	00:18:00	00:30:03	717586	63d40b7d3c7f92ff15ef6b67	1	1	main_slash	24	advance_on_keypress_SLASH	4	stimuli_distractor_trianglediamonds.svg	stimuli_target_squaretriangles.svg	11	yes	57	0	914	6	3	antiphase_hc_soi.wav	1	6	4	noise_calib_stim_RIGHT.wav	2	3	blb_dichoticlistening_ba-ga.mp3	ba	ga	1	left
6.6.1	win	2023-06-13	00:18:00	00:30:05	719644	63d40b7d3c7f92ff15ef6b67	1	1	main_slash	24	main_slash	5	stimuli_distractor_trianglediamonds.svg	stimuli_target_squarediamonds.svg	12	yes	53	1	504	6	3	antiphase_hc_soi.wav	1	6	4	noise_calib_stim_RIGHT.wav	2	3	blb_dichoticlistening_ba-ga.mp3	ba	ga	1	left
6.6.1	win	2023-06-13	00:18:00	00:30:05	719644	63d40b7d3c7f92ff15ef6b67	1	1	main_slash	24	advance_on_keypress_SLASH	6	stimuli_distractor_trianglediamonds.svg	stimuli_target_squarediamonds.svg	12	yes	57	0	1232	6	3	antiphase_hc_soi.wav	1	6	4	noise_calib_stim_RIGHT.wav	2	3	blb_dichoticlistening_ba-ga.mp3	ba	ga	1	left
6.6.1	win	2023-06-13	00:18:00	00:30:07	722010	63d40b7d3c7f92ff15ef6b67	1	1	main_slash	24	main_slash	7	stimuli_target_squaretriangles.svg	stimuli_distractor_diamondtriangles.svg	7	yes	53	1	487	6	3	antiphase_hc_soi.wav	1	6	4	noise_calib_stim_RIGHT.wav	2	3	blb_dichoticlistening_ba-ga.mp3	ba	ga	1	left
6.6.1	win	2023-06-13	00:18:00	00:30:07	722010	63d40b7d3c7f92ff15ef6b67	1	1	main_slash	24	advance_on_keypress_SLASH	8	stimuli_target_squaretriangles.svg	stimuli_distractor_diamondtriangles.svg	7	yes	57	0	1461	6	3	antiphase_hc_soi.wav	1	6	4	noise_calib_stim_RIGHT.wav	2	3	blb_dichoticlistening_ba-ga.mp3	ba	ga	1	left
6.6.1	win	2023-06-13	00:18:00	00:30:10	724785	63d40b7d3c7f92ff15ef6b67	1	1	main_slash	24	main_slash	9	stimuli_target_trianglesquares.svg	stimuli_distractor_diamondtriangles.svg	22	yes	53	1	679	6	3	antiphase_hc_soi.wav	1	6	4	noise_calib_stim_RIGHT.wav	2	3	blb_dichoticlistening_ba-ga.mp3	ba	ga	1	left
6.6.1	win	2023-06-13	00:18:00	00:30:10	724785	63d40b7d3c7f92ff15ef6b67	1	1	main_slash	24	advance_on_keypress_SLASH	10	stimuli_target_trianglesquares.svg	stimuli_distractor_diamondtriangles.svg	22	yes	57	0	1137	6	3	antiphase_hc_soi.wav	1	6	4	noise_calib_stim_RIGHT.wav	2	3	blb_dichoticlistening_ba-ga.mp3	ba	ga	1	left
6.6.1	win	2023-06-13	00:18:00	00:30:13	727192	63d40b7d3c7f92ff15ef6b67	1	1	main_slash	24	main_slash	11	stimuli_target_diamondsquares.svg	stimuli_distractor_trianglediamonds.svg	20	yes	53	1	636	6	3	antiphase_hc_soi.wav	1	6	4	noise_calib_stim_RIGHT.wav	2	3	blb_dichoticlistening_ba-ga.mp3	ba	ga	1	left
6.6.1	win	2023-06-13	00:18:00	00:30:13	727192	63d40b7d3c7f92ff15ef6b67	1	1	main_slash	24	advance_on_keypress_SLASH	12	stimuli_target_diamondsquares.svg	stimuli_distractor_trianglediamonds.svg	20	yes	57	0	1231	6	3	antiphase_hc_soi.wav	1	6	4	noise_calib_stim_RIGHT.wav	2	3	blb_dichoticlistening_ba-ga.mp3	ba	ga	1	left
6.6.1	win	2023-06-13	00:18:00	00:30:15	729585	63d40b7d3c7f92ff15ef6b67	1	1	main_slash	24	main_slash	13	stimuli_target_rectangletriangles.svg	stimuli_distractor_diamondtriangles.svg	5	yes	53	1	513	6	3	antiphase_hc_soi.wav	1	6	4	noise_calib_stim_RIGHT.wav	2	3	blb_dichoticlistening_ba-ga.mp3	ba	ga	1	left
6.6.1	win	2023-06-13	00:18:00	00:30:15	729585	63d40b7d3c7f92ff15ef6b67	1	1	main_slash	24	advance_on_keypress_SLASH	14	stimuli_target_rectangletriangles.svg	stimuli_distractor_diamondtriangles.svg	5	yes	57	0	1790	6	3	antiphase_hc_soi.wav	1	6	4	noise_calib_stim_RIGHT.wav	2	3	blb_dichoticlistening_ba-ga.mp3	ba	ga	1	left
6.6.1	win	2023-06-13	00:18:00	00:30:18	732602	63d40b7d3c7f92ff15ef6b67	1	1	main_slash	24	main_slash	15	stimuli_distractor_diamondtriangles.svg	stimuli_target_trianglesquares.svg	30	yes	53	1	597	6	3	antiphase_hc_soi.wav	1	6	4	noise_calib_stim_RIGHT.wav	2	3	blb_dichoticlistening_ba-ga.mp3	ba	ga	1	left
6.6.1	win	2023-06-13	00:18:00	00:30:18	732602	63d40b7d3c7f92ff15ef6b67	1	1	main_slash	24	advance_on_keypress_SLASH	16	stimuli_distractor_diamondtriangles.svg	stimuli_target_trianglesquares.svg	30	yes	57	0	985	6	3	antiphase_hc_soi.wav	1	6	4	noise_calib_stim_RIGHT.wav	2	3	blb_dichoticlistening_ba-ga.mp3	ba	ga	1	left
6.6.1	win	2023-06-13	00:18:00	00:30:20	734812	63d40b7d3c7f92ff15ef6b67	1	1	main_slash	24	main_slash	17	stimuli_distractor_trianglediamonds.svg	stimuli_distractor_diamondtriangles.svg	36	no	53	0	575	6	3	antiphase_hc_soi.wav	1	6	4	noise_calib_stim_RIGHT.wav	2	3	blb_dichoticlistening_ba-ga.mp3	ba	ga	1	left
6.6.1	win	2023-06-13	00:18:00	00:30:20	734812	63d40b7d3c7f92ff15ef6b67	1	1	main_slash	24	advance_on_keypress_SLASH	18	stimuli_distractor_trianglediamonds.svg	stimuli_distractor_diamondtriangles.svg	36	no	57	0	1878	6	3	antiphase_hc_soi.wav	1	6	4	noise_calib_stim_RIGHT.wav	2	3	blb_dichoticlistening_ba-ga.mp3	ba	ga	1	left
6.6.1	win	2023-06-13	00:18:00	00:30:23	737903	63d40b7d3c7f92ff15ef6b67	1	1	main_slash	24	main_slash	19	stimuli_target_squarediamonds.svg	stimuli_distractor_trianglediamonds.svg	4	yes	53	1	582	6	3	antiphase_hc_soi.wav	1	6	4	noise_calib_stim_RIGHT.wav	2	3	blb_dichoticlistening_ba-ga.mp3	ba	ga	1	left
6.6.1	win	2023-06-13	00:18:00	00:30:23	737903	63d40b7d3c7f92ff15ef6b67	1	1	main_slash	24	advance_on_keypress_SLASH	20	stimuli_target_squarediamonds.svg	stimuli_distractor_trianglediamonds.svg	4	yes	57	0	1587	6	3	antiphase_hc_soi.wav	1	6	4	noise_calib_stim_RIGHT.wav	2	3	blb_dichoticlistening_ba-ga.mp3	ba	ga	1	left
6.6.1	win	2023-06-13	00:18:00	00:30:26	740792	63d40b7d3c7f92ff15ef6b67	1	1	main_slash	24	main_slash	21	stimuli_target_squaretriangles.svg	stimuli_distractor_trianglediamonds.svg	3	yes	53	1	655	6	3	antiphase_hc_soi.wav	1	6	4	noise_calib_stim_RIGHT.wav	2	3	blb_dichoticlistening_ba-ga.mp3	ba	ga	1	left
6.6.1	win	2023-06-13	00:18:00	00:30:26	740792	63d40b7d3c7f92ff15ef6b67	1	1	main_slash	24	advance_on_keypress_SLASH	22	stimuli_target_squaretriangles.svg	stimuli_distractor_trianglediamonds.svg	3	yes	57	0	1570	6	3	antiphase_hc_soi.wav	1	6	4	noise_calib_stim_RIGHT.wav	2	3	blb_dichoticlistening_ba-ga.mp3	ba	ga	1	left
6.6.1	win	2023-06-13	00:18:00	00:30:29	743723	63d40b7d3c7f92ff15ef6b67	1	1	main_slash	24	main_slash	23	stimuli_target_rectanglediamonds.svg	stimuli_distractor_trianglediamonds.svg	2	yes	53	1	720	6	3	antiphase_hc_soi.wav	1	6	4	noise_calib_stim_RIGHT.wav	2	3	blb_dichoticlistening_ba-ga.mp3	ba	ga	1	left
6.6.1	win	2023-06-13	00:18:00	00:30:29	743723	63d40b7d3c7f92ff15ef6b67	1	1	main_slash	24	advance_on_keypress_SLASH	24	stimuli_target_rectanglediamonds.svg	stimuli_distractor_trianglediamonds.svg	2	yes	57	0	812	6	3	antiphase_hc_soi.wav	1	6	4	noise_calib_stim_RIGHT.wav	2	3	blb_dichoticlistening_ba-ga.mp3	ba	ga	1	left
6.6.1	win	2023-06-13	00:18:00	00:30:31	746132	63d40b7d3c7f92ff15ef6b67	1	1	main_slash	24	main_slash	25	stimuli_distractor_trianglediamonds.svg	stimuli_distractor_trianglediamonds.svg	33	no	53	0	963	6	3	antiphase_hc_soi.wav	1	6	4	noise_calib_stim_RIGHT.wav	2	3	blb_dichoticlistening_ba-ga.mp3	ba	ga	1	left
6.6.1	win	2023-06-13	00:18:00	00:30:31	746132	63d40b7d3c7f92ff15ef6b67	1	1	main_slash	24	advance_on_keypress_SLASH	26	stimuli_distractor_trianglediamonds.svg	stimuli_distractor_trianglediamonds.svg	33	no	57	0	876	6	3	antiphase_hc_soi.wav	1	6	4	noise_calib_stim_RIGHT.wav	2	3	blb_dichoticlistening_ba-ga.mp3	ba	ga	1	left
6.6.1	win	2023-06-13	00:18:00	00:30:34	748227	63d40b7d3c7f92ff15ef6b67	1	1	main_slash	24	main_slash	27	stimuli_distractor_diamondtriangles.svg	stimuli_distractor_trianglediamonds.svg	37	no	53	0	591	6	3	antiphase_hc_soi.wav	1	6	4	noise_calib_stim_RIGHT.wav	2	3	blb_dichoticlistening_ba-ga.mp3	ba	ga	1	left
6.6.1	win	2023-06-13	00:18:00	00:30:34	748227	63d40b7d3c7f92ff15ef6b67	1	1	main_slash	24	advance_on_keypress_SLASH	28	stimuli_distractor_diamondtriangles.svg	stimuli_distractor_trianglediamonds.svg	37	no	57	0	1052	6	3	antiphase_hc_soi.wav	1	6	4	noise_calib_stim_RIGHT.wav	2	3	blb_dichoticlistening_ba-ga.mp3	ba	ga	1	left
6.6.1	win	2023-06-13	00:18:00	00:30:36	750497	63d40b7d3c7f92ff15ef6b67	1	1	main_slash	24	main_slash	29	stimuli_distractor_diamondtriangles.svg	stimuli_target_rectanglediamonds.svg	14	yes	53	1	579	6	3	antiphase_hc_soi.wav	1	6	4	noise_calib_stim_RIGHT.wav	2	3	blb_dichoticlistening_ba-ga.mp3	ba	ga	1	left
6.6.1	win	2023-06-13	00:18:00	00:30:36	750497	63d40b7d3c7f92ff15ef6b67	1	1	main_slash	24	advance_on_keypress_SLASH	30	stimuli_distractor_diamondtriangles.svg	stimuli_target_rectanglediamonds.svg	14	yes	57	0	685	6	3	antiphase_hc_soi.wav	1	6	4	noise_calib_stim_RIGHT.wav	2	3	blb_dichoticlistening_ba-ga.mp3	ba	ga	1	left
6.6.1	win	2023-06-13	00:18:00	00:30:38	752663	63d40b7d3c7f92ff15ef6b67	1	1	main_slash	24	main_slash	31	stimuli_target_trianglesquares.svg	stimuli_distractor_trianglediamonds.svg	18	yes	53	1	844	6	3	antiphase_hc_soi.wav	1	6	4	noise_calib_stim_RIGHT.wav	2	3	blb_dichoticlistening_ba-ga.mp3	ba	ga	1	left
6.6.1	win	2023-06-13	00:18:00	00:30:38	752663	63d40b7d3c7f92ff15ef6b67	1	1	main_slash	24	advance_on_keypress_SLASH	32	stimuli_target_trianglesquares.svg	stimuli_distractor_trianglediamonds.svg	18	yes	57	0	816	6	3	antiphase_hc_soi.wav	1	6	4	noise_calib_stim_RIGHT.wav	2	3	blb_dichoticlistening_ba-ga.mp3	ba	ga	1	left
6.6.1	win	2023-06-13	00:18:00	00:30:41	756119	63d40b7d3c7f92ff15ef6b67	1	1	main_slash	24	main_slash	33	stimuli_distractor_diamondtriangles.svg	stimuli_distractor_trianglediamonds.svg	38	no	0	1	2000	6	3	antiphase_hc_soi.wav	1	6	4	noise_calib_stim_RIGHT.wav	2	3	blb_dichoticlistening_ba-ga.mp3	ba	ga	1	left
6.6.1	win	2023-06-13	00:18:00	00:30:41	756119	63d40b7d3c7f92ff15ef6b67	1	1	main_slash	24	advance_on_keypress_SLASH	34	stimuli_distractor_diamondtriangles.svg	stimuli_distractor_trianglediamonds.svg	38	no	57	0	1436	6	3	antiphase_hc_soi.wav	1	6	4	noise_calib_stim_RIGHT.wav	2	3	blb_dichoticlistening_ba-ga.mp3	ba	ga	1	left
6.6.1	win	2023-06-13	00:18:00	00:30:46	760202	63d40b7d3c7f92ff15ef6b67	1	1	main_slash	24	main_slash	35	stimuli_distractor_trianglediamonds.svg	stimuli_target_trianglerectangles.svg	25	yes	0	0	2000	6	3	antiphase_hc_soi.wav	1	6	4	noise_calib_stim_RIGHT.wav	2	3	blb_dichoticlistening_ba-ga.mp3	ba	ga	1	left
6.6.1	win	2023-06-13	00:18:00	00:30:46	760202	63d40b7d3c7f92ff15ef6b67	1	1	main_slash	24	advance_on_keypress_SLASH	36	stimuli_distractor_trianglediamonds.svg	stimuli_target_trianglerectangles.svg	25	yes	57	0	647	6	3	antiphase_hc_soi.wav	1	6	4	noise_calib_stim_RIGHT.wav	2	3	blb_dichoticlistening_ba-ga.mp3	ba	ga	1	left
6.6.1	win	2023-06-13	00:18:00	00:30:48	762386	63d40b7d3c7f92ff15ef6b67	1	1	main_slash	24	main_slash	37	stimuli_distractor_diamondtriangles.svg	stimuli_target_diamondrectangles.svg	31	yes	53	1	885	6	3	antiphase_hc_soi.wav	1	6	4	noise_calib_stim_RIGHT.wav	2	3	blb_dichoticlistening_ba-ga.mp3	ba	ga	1	left
6.6.1	win	2023-06-13	00:18:00	00:30:48	762386	63d40b7d3c7f92ff15ef6b67	1	1	main_slash	24	advance_on_keypress_SLASH	38	stimuli_distractor_diamondtriangles.svg	stimuli_target_diamondrectangles.svg	31	yes	57	0	769	6	3	antiphase_hc_soi.wav	1	6	4	noise_calib_stim_RIGHT.wav	2	3	blb_dichoticlistening_ba-ga.mp3	ba	ga	1	left
6.6.1	win	2023-06-13	00:18:00	00:30:50	764366	63d40b7d3c7f92ff15ef6b67	1	1	main_slash	24	main_slash	39	stimuli_distractor_trianglediamonds.svg	stimuli_distractor_diamondtriangles.svg	35	no	53	0	565	6	3	antiphase_hc_soi.wav	1	6	4	noise_calib_stim_RIGHT.wav	2	3	blb_dichoticlistening_ba-ga.mp3	ba	ga	1	left
6.6.1	win	2023-06-13	00:18:00	00:30:50	764366	63d40b7d3c7f92ff15ef6b67	1	1	main_slash	24	advance_on_keypress_SLASH	40	stimuli_distractor_trianglediamonds.svg	stimuli_distractor_diamondtriangles.svg	35	no	57	0	1015	6	3	antiphase_hc_soi.wav	1	6	4	noise_calib_stim_RIGHT.wav	2	3	blb_dichoticlistening_ba-ga.mp3	ba	ga	1	left
6.6.1	win	2023-06-13	00:18:00	00:30:52	766416	63d40b7d3c7f92ff15ef6b67	1	1	main_slash	24	main_slash	41	stimuli_target_rectangletriangles.svg	stimuli_distractor_trianglediamonds.svg	1	yes	53	1	370	6	3	antiphase_hc_soi.wav	1	6	4	noise_calib_stim_RIGHT.wav	2	3	blb_dichoticlistening_ba-ga.mp3	ba	ga	1	left
6.6.1	win	2023-06-13	00:18:00	00:30:52	766416	63d40b7d3c7f92ff15ef6b67	1	1	main_slash	24	advance_on_keypress_SLASH	42	stimuli_target_rectangletriangles.svg	stimuli_distractor_trianglediamonds.svg	1	yes	57	0	887	6	3	antiphase_hc_soi.wav	1	6	4	noise_calib_stim_RIGHT.wav	2	3	blb_dichoticlistening_ba-ga.mp3	ba	ga	1	left
6.6.1	win	2023-06-13	00:18:00	00:30:55	769950	63d40b7d3c7f92ff15ef6b67	1	1	main_slash	24	main_slash	43	stimuli_distractor_trianglediamonds.svg	stimuli_distractor_trianglediamonds.svg	34	no	0	1	2000	6	3	antiphase_hc_soi.wav	1	6	4	noise_calib_stim_RIGHT.wav	2	3	blb_dichoticlistening_ba-ga.mp3	ba	ga	1	left
6.6.1	win	2023-06-13	00:18:00	00:30:55	769950	63d40b7d3c7f92ff15ef6b67	1	1	main_slash	24	advance_on_keypress_SLASH	44	stimuli_distractor_trianglediamonds.svg	stimuli_distractor_trianglediamonds.svg	34	no	57	0	551	6	3	antiphase_hc_soi.wav	1	6	4	noise_calib_stim_RIGHT.wav	2	3	blb_dichoticlistening_ba-ga.mp3	ba	ga	1	left
6.6.1	win	2023-06-13	00:18:00	00:30:57	771609	63d40b7d3c7f92ff15ef6b67	1	1	main_slash	24	main_slash	45	stimuli_target_squarediamonds.svg	stimuli_distractor_diamondtriangles.svg	8	yes	53	1	459	6	3	antiphase_hc_soi.wav	1	6	4	noise_calib_stim_RIGHT.wav	2	3	blb_dichoticlistening_ba-ga.mp3	ba	ga	1	left
6.6.1	win	2023-06-13	00:18:00	00:30:57	771609	63d40b7d3c7f92ff15ef6b67	1	1	main_slash	24	advance_on_keypress_SLASH	46	stimuli_target_squarediamonds.svg	stimuli_distractor_diamondtriangles.svg	8	yes	57	0	990	6	3	antiphase_hc_soi.wav	1	6	4	noise_calib_stim_RIGHT.wav	2	3	blb_dichoticlistening_ba-ga.mp3	ba	ga	1	left
6.6.1	win	2023-06-13	00:18:00	00:31:01	775233	63d40b7d3c7f92ff15ef6b67	1	1	main_slash	24	main_slash	47	stimuli_target_trianglerectangles.svg	stimuli_distractor_diamondtriangles.svg	21	yes	0	0	2000	6	3	antiphase_hc_soi.wav	1	6	4	noise_calib_stim_RIGHT.wav	2	3	blb_dichoticlistening_ba-ga.mp3	ba	ga	1	left
6.6.1	win	2023-06-13	00:18:00	00:31:01	775233	63d40b7d3c7f92ff15ef6b67	1	1	main_slash	24	advance_on_keypress_SLASH	48	stimuli_target_trianglerectangles.svg	stimuli_distractor_diamondtriangles.svg	21	yes	57	0	522	6	3	antiphase_hc_soi.wav	1	6	4	noise_calib_stim_RIGHT.wav	2	3	blb_dichoticlistening_ba-ga.mp3	ba	ga	1	left
6.6.1	win	2023-06-13	00:18:00	00:31:04	778399	63d40b7d3c7f92ff15ef6b67	1	1	main_slash	24	main_slash	49	stimuli_distractor_trianglediamonds.svg	stimuli_target_trianglesquares.svg	26	yes	0	0	2000	6	3	antiphase_hc_soi.wav	1	6	4	noise_calib_stim_RIGHT.wav	2	3	blb_dichoticlistening_ba-ga.mp3	ba	ga	1	left
6.6.1	win	2023-06-13	00:18:00	00:31:04	778399	63d40b7d3c7f92ff15ef6b67	1	1	main_slash	24	advance_on_keypress_SLASH	50	stimuli_distractor_trianglediamonds.svg	stimuli_target_trianglesquares.svg	26	yes	57	0	389	6	3	antiphase_hc_soi.wav	1	6	4	noise_calib_stim_RIGHT.wav	2	3	blb_dichoticlistening_ba-ga.mp3	ba	ga	1	left
6.6.1	win	2023-06-13	00:18:00	00:31:05	779698	63d40b7d3c7f92ff15ef6b67	1	1	main_slash	24	main_slash	51	stimuli_distractor_diamondtriangles.svg	stimuli_target_rectangletriangles.svg	13	yes	53	1	266	6	3	antiphase_hc_soi.wav	1	6	4	noise_calib_stim_RIGHT.wav	2	3	blb_dichoticlistening_ba-ga.mp3	ba	ga	1	left
6.6.1	win	2023-06-13	00:18:00	00:31:05	779698	63d40b7d3c7f92ff15ef6b67	1	1	main_slash	24	advance_on_keypress_SLASH	52	stimuli_distractor_diamondtriangles.svg	stimuli_target_rectangletriangles.svg	13	yes	57	0	863	6	3	antiphase_hc_soi.wav	1	6	4	noise_calib_stim_RIGHT.wav	2	3	blb_dichoticlistening_ba-ga.mp3	ba	ga	1	left
6.6.1	win	2023-06-13	00:18:00	00:31:07	781471	63d40b7d3c7f92ff15ef6b67	1	1	main_slash	24	main_slash	53	stimuli_distractor_trianglediamonds.svg	stimuli_target_diamondsquares.svg	28	yes	53	1	273	6	3	antiphase_hc_soi.wav	1	6	4	noise_calib_stim_RIGHT.wav	2	3	blb_dichoticlistening_ba-ga.mp3	ba	ga	1	left
6.6.1	win	2023-06-13	00:18:00	00:31:07	781471	63d40b7d3c7f92ff15ef6b67	1	1	main_slash	24	advance_on_keypress_SLASH	54	stimuli_distractor_trianglediamonds.svg	stimuli_target_diamondsquares.svg	28	yes	57	0	2296	6	3	antiphase_hc_soi.wav	1	6	4	noise_calib_stim_RIGHT.wav	2	3	blb_dichoticlistening_ba-ga.mp3	ba	ga	1	left
6.6.1	win	2023-06-13	00:18:00	00:31:12	786415	63d40b7d3c7f92ff15ef6b67	1	1	main_slash	24	main_slash	55	stimuli_distractor_diamondtriangles.svg	stimuli_distractor_diamondtriangles.svg	39	no	0	1	2000	6	3	antiphase_hc_soi.wav	1	6	4	noise_calib_stim_RIGHT.wav	2	3	blb_dichoticlistening_ba-ga.mp3	ba	ga	1	left
6.6.1	win	2023-06-13	00:18:00	00:31:12	786415	63d40b7d3c7f92ff15ef6b67	1	1	main_slash	24	advance_on_keypress_SLASH	56	stimuli_distractor_diamondtriangles.svg	stimuli_distractor_diamondtriangles.svg	39	no	57	0	338	6	3	antiphase_hc_soi.wav	1	6	4	noise_calib_stim_RIGHT.wav	2	3	blb_dichoticlistening_ba-ga.mp3	ba	ga	1	left
6.6.1	win	2023-06-13	00:18:00	00:31:13	787909	63d40b7d3c7f92ff15ef6b67	1	1	main_slash	24	main_slash	57	stimuli_distractor_trianglediamonds.svg	stimuli_target_rectanglediamonds.svg	10	yes	53	1	511	6	3	antiphase_hc_soi.wav	1	6	4	noise_calib_stim_RIGHT.wav	2	3	blb_dichoticlistening_ba-ga.mp3	ba	ga	1	left
6.6.1	win	2023-06-13	00:18:00	00:31:13	787909	63d40b7d3c7f92ff15ef6b67	1	1	main_slash	24	advance_on_keypress_SLASH	58	stimuli_distractor_trianglediamonds.svg	stimuli_target_rectanglediamonds.svg	10	yes	57	0	726	6	3	antiphase_hc_soi.wav	1	6	4	noise_calib_stim_RIGHT.wav	2	3	blb_dichoticlistening_ba-ga.mp3	ba	ga	1	left
6.6.1	win	2023-06-13	00:18:00	00:31:15	789692	63d40b7d3c7f92ff15ef6b67	1	1	main_slash	24	main_slash	59	stimuli_distractor_diamondtriangles.svg	stimuli_target_diamondsquares.svg	32	yes	53	1	428	6	3	antiphase_hc_soi.wav	1	6	4	noise_calib_stim_RIGHT.wav	2	3	blb_dichoticlistening_ba-ga.mp3	ba	ga	1	left
6.6.1	win	2023-06-13	00:18:00	00:31:15	789692	63d40b7d3c7f92ff15ef6b67	1	1	main_slash	24	advance_on_keypress_SLASH	60	stimuli_distractor_diamondtriangles.svg	stimuli_target_diamondsquares.svg	32	yes	57	0	616	6	3	antiphase_hc_soi.wav	1	6	4	noise_calib_stim_RIGHT.wav	2	3	blb_dichoticlistening_ba-ga.mp3	ba	ga	1	left
6.6.1	win	2023-06-13	00:18:00	00:31:17	791436	63d40b7d3c7f92ff15ef6b67	1	1	main_slash	24	main_slash	61	stimuli_distractor_diamondtriangles.svg	stimuli_target_squarediamonds.svg	16	yes	53	1	490	6	3	antiphase_hc_soi.wav	1	6	4	noise_calib_stim_RIGHT.wav	2	3	blb_dichoticlistening_ba-ga.mp3	ba	ga	1	left
6.6.1	win	2023-06-13	00:18:00	00:31:17	791436	63d40b7d3c7f92ff15ef6b67	1	1	main_slash	24	advance_on_keypress_SLASH	62	stimuli_distractor_diamondtriangles.svg	stimuli_target_squarediamonds.svg	16	yes	57	0	613	6	3	antiphase_hc_soi.wav	1	6	4	noise_calib_stim_RIGHT.wav	2	3	blb_dichoticlistening_ba-ga.mp3	ba	ga	1	left
6.6.1	win	2023-06-13	00:18:00	00:31:20	794681	63d40b7d3c7f92ff15ef6b67	1	1	main_slash	24	main_slash	63	stimuli_target_diamondrectangles.svg	stimuli_distractor_trianglediamonds.svg	19	yes	0	0	2000	6	3	antiphase_hc_soi.wav	1	6	4	noise_calib_stim_RIGHT.wav	2	3	blb_dichoticlistening_ba-ga.mp3	ba	ga	1	left
6.6.1	win	2023-06-13	00:18:00	00:31:20	794681	63d40b7d3c7f92ff15ef6b67	1	1	main_slash	24	advance_on_keypress_SLASH	64	stimuli_target_diamondrectangles.svg	stimuli_distractor_trianglediamonds.svg	19	yes	57	0	647	6	3	antiphase_hc_soi.wav	1	6	4	noise_calib_stim_RIGHT.wav	2	3	blb_dichoticlistening_ba-ga.mp3	ba	ga	1	left
6.6.1	win	2023-06-13	00:18:00	00:31:22	796289	63d40b7d3c7f92ff15ef6b67	1	1	main_slash	24	main_slash	65	stimuli_distractor_trianglediamonds.svg	stimuli_target_rectangletriangles.svg	9	yes	53	1	309	6	3	antiphase_hc_soi.wav	1	6	4	noise_calib_stim_RIGHT.wav	2	3	blb_dichoticlistening_ba-ga.mp3	ba	ga	1	left
6.6.1	win	2023-06-13	00:18:00	00:31:22	796289	63d40b7d3c7f92ff15ef6b67	1	1	main_slash	24	advance_on_keypress_SLASH	66	stimuli_distractor_trianglediamonds.svg	stimuli_target_rectangletriangles.svg	9	yes	57	0	637	6	3	antiphase_hc_soi.wav	1	6	4	noise_calib_stim_RIGHT.wav	2	3	blb_dichoticlistening_ba-ga.mp3	ba	ga	1	left
6.6.1	win	2023-06-13	00:18:00	00:31:25	799563	63d40b7d3c7f92ff15ef6b67	1	1	main_slash	24	main_slash	67	stimuli_target_diamondrectangles.svg	stimuli_distractor_diamondtriangles.svg	23	yes	0	0	2000	6	3	antiphase_hc_soi.wav	1	6	4	noise_calib_stim_RIGHT.wav	2	3	blb_dichoticlistening_ba-ga.mp3	ba	ga	1	left
6.6.1	win	2023-06-13	00:18:00	00:31:25	799563	63d40b7d3c7f92ff15ef6b67	1	1	main_slash	24	advance_on_keypress_SLASH	68	stimuli_target_diamondrectangles.svg	stimuli_distractor_diamondtriangles.svg	23	yes	57	0	342	6	3	antiphase_hc_soi.wav	1	6	4	noise_calib_stim_RIGHT.wav	2	3	blb_dichoticlistening_ba-ga.mp3	ba	ga	1	left
6.6.1	win	2023-06-13	00:18:00	00:31:28	802546	63d40b7d3c7f92ff15ef6b67	1	1	main_slash	24	main_slash	69	stimuli_distractor_diamondtriangles.svg	stimuli_target_trianglerectangles.svg	29	yes	0	0	2000	6	3	antiphase_hc_soi.wav	1	6	4	noise_calib_stim_RIGHT.wav	2	3	blb_dichoticlistening_ba-ga.mp3	ba	ga	1	left
6.6.1	win	2023-06-13	00:18:00	00:31:28	802546	63d40b7d3c7f92ff15ef6b67	1	1	main_slash	24	advance_on_keypress_SLASH	70	stimuli_distractor_diamondtriangles.svg	stimuli_target_trianglerectangles.svg	29	yes	57	0	381	6	3	antiphase_hc_soi.wav	1	6	4	noise_calib_stim_RIGHT.wav	2	3	blb_dichoticlistening_ba-ga.mp3	ba	ga	1	left
6.6.1	win	2023-06-13	00:18:00	00:31:31	805579	63d40b7d3c7f92ff15ef6b67	1	1	main_slash	24	main_slash	71	stimuli_distractor_diamondtriangles.svg	stimuli_distractor_diamondtriangles.svg	40	no	0	1	2000	6	3	antiphase_hc_soi.wav	1	6	4	noise_calib_stim_RIGHT.wav	2	3	blb_dichoticlistening_ba-ga.mp3	ba	ga	1	left
6.6.1	win	2023-06-13	00:18:00	00:31:31	805579	63d40b7d3c7f92ff15ef6b67	1	1	main_slash	24	advance_on_keypress_SLASH	72	stimuli_distractor_diamondtriangles.svg	stimuli_distractor_diamondtriangles.svg	40	no	57	0	385	6	3	antiphase_hc_soi.wav	1	6	4	noise_calib_stim_RIGHT.wav	2	3	blb_dichoticlistening_ba-ga.mp3	ba	ga	1	left
6.6.1	win	2023-06-13	00:18:00	00:31:32	807107	63d40b7d3c7f92ff15ef6b67	1	1	main_slash	24	main_slash	73	stimuli_target_rectanglediamonds.svg	stimuli_distractor_diamondtriangles.svg	6	yes	53	1	495	6	3	antiphase_hc_soi.wav	1	6	4	noise_calib_stim_RIGHT.wav	2	3	blb_dichoticlistening_ba-ga.mp3	ba	ga	1	left
6.6.1	win	2023-06-13	00:18:00	00:31:32	807107	63d40b7d3c7f92ff15ef6b67	1	1	main_slash	24	advance_on_keypress_SLASH	74	stimuli_target_rectanglediamonds.svg	stimuli_distractor_diamondtriangles.svg	6	yes	57	0	535	6	3	antiphase_hc_soi.wav	1	6	4	noise_calib_stim_RIGHT.wav	2	3	blb_dichoticlistening_ba-ga.mp3	ba	ga	1	left
6.6.1	win	2023-06-13	00:18:00	00:31:36	810278	63d40b7d3c7f92ff15ef6b67	1	1	main_slash	24	main_slash	75	stimuli_target_trianglerectangles.svg	stimuli_distractor_trianglediamonds.svg	17	yes	0	0	2000	6	3	antiphase_hc_soi.wav	1	6	4	noise_calib_stim_RIGHT.wav	2	3	blb_dichoticlistening_ba-ga.mp3	ba	ga	1	left
6.6.1	win	2023-06-13	00:18:00	00:31:36	810278	63d40b7d3c7f92ff15ef6b67	1	1	main_slash	24	advance_on_keypress_SLASH	76	stimuli_target_trianglerectangles.svg	stimuli_distractor_trianglediamonds.svg	17	yes	57	0	593	6	3	antiphase_hc_soi.wav	1	6	4	noise_calib_stim_RIGHT.wav	2	3	blb_dichoticlistening_ba-ga.mp3	ba	ga	1	left
6.6.1	win	2023-06-13	00:18:00	00:31:37	812038	63d40b7d3c7f92ff15ef6b67	1	1	main_slash	24	main_slash	77	stimuli_distractor_trianglediamonds.svg	stimuli_target_diamondrectangles.svg	27	yes	53	1	528	6	3	antiphase_hc_soi.wav	1	6	4	noise_calib_stim_RIGHT.wav	2	3	blb_dichoticlistening_ba-ga.mp3	ba	ga	1	left
6.6.1	win	2023-06-13	00:18:00	00:31:37	812038	63d40b7d3c7f92ff15ef6b67	1	1	main_slash	24	advance_on_keypress_SLASH	78	stimuli_distractor_trianglediamonds.svg	stimuli_target_diamondrectangles.svg	27	yes	57	0	585	6	3	antiphase_hc_soi.wav	1	6	4	noise_calib_stim_RIGHT.wav	2	3	blb_dichoticlistening_ba-ga.mp3	ba	ga	1	left
6.6.1	win	2023-06-13	00:18:00	00:31:39	813778	63d40b7d3c7f92ff15ef6b67	1	1	main_slash	24	main_slash	79	stimuli_distractor_diamondtriangles.svg	stimuli_target_squaretriangles.svg	15	yes	53	1	517	6	3	antiphase_hc_soi.wav	1	6	4	noise_calib_stim_RIGHT.wav	2	3	blb_dichoticlistening_ba-ga.mp3	ba	ga	1	left
6.6.1	win	2023-06-13	00:18:00	00:31:39	813778	63d40b7d3c7f92ff15ef6b67	1	1	main_slash	24	advance_on_keypress_SLASH	80	stimuli_distractor_diamondtriangles.svg	stimuli_target_squaretriangles.svg	15	yes	57	0	490	6	3	antiphase_hc_soi.wav	1	6	4	noise_calib_stim_RIGHT.wav	2	3	blb_dichoticlistening_ba-ga.mp3	ba	ga	1	left
6.6.1	win	2023-06-13	00:18:00	00:31:42	816911	63d40b7d3c7f92ff15ef6b67	1	1	main_slash	24	main_slash	81	stimuli_distractor_trianglediamonds.svg	stimuli_target_trianglerectangles.svg	25	yes	0	0	2000	6	3	antiphase_hc_soi.wav	1	6	4	noise_calib_stim_RIGHT.wav	2	3	blb_dichoticlistening_ba-ga.mp3	ba	ga	1	left
6.6.1	win	2023-06-13	00:18:00	00:31:42	816911	63d40b7d3c7f92ff15ef6b67	1	1	main_slash	24	advance_on_keypress_SLASH	82	stimuli_distractor_trianglediamonds.svg	stimuli_target_trianglerectangles.svg	25	yes	57	0	605	6	3	antiphase_hc_soi.wav	1	6	4	noise_calib_stim_RIGHT.wav	2	3	blb_dichoticlistening_ba-ga.mp3	ba	ga	1	left
6.6.1	win	2023-06-13	00:18:00	00:31:45	820160	63d40b7d3c7f92ff15ef6b67	1	1	main_slash	24	main_slash	83	stimuli_distractor_diamondtriangles.svg	stimuli_target_diamondsquares.svg	32	yes	0	0	2000	6	3	antiphase_hc_soi.wav	1	6	4	noise_calib_stim_RIGHT.wav	2	3	blb_dichoticlistening_ba-ga.mp3	ba	ga	1	left
6.6.1	win	2023-06-13	00:18:00	00:31:45	820160	63d40b7d3c7f92ff15ef6b67	1	1	main_slash	24	advance_on_keypress_SLASH	84	stimuli_distractor_diamondtriangles.svg	stimuli_target_diamondsquares.svg	32	yes	57	0	432	6	3	antiphase_hc_soi.wav	1	6	4	noise_calib_stim_RIGHT.wav	2	3	blb_dichoticlistening_ba-ga.mp3	ba	ga	1	left
6.6.1	win	2023-06-13	00:18:00	00:31:47	821545	63d40b7d3c7f92ff15ef6b67	1	1	main_slash	24	main_slash	85	stimuli_target_diamondsquares.svg	stimuli_distractor_trianglediamonds.svg	20	yes	53	1	302	6	3	antiphase_hc_soi.wav	1	6	4	noise_calib_stim_RIGHT.wav	2	3	blb_dichoticlistening_ba-ga.mp3	ba	ga	1	left
6.6.1	win	2023-06-13	00:18:00	00:31:47	821545	63d40b7d3c7f92ff15ef6b67	1	1	main_slash	24	advance_on_keypress_SLASH	86	stimuli_target_diamondsquares.svg	stimuli_distractor_trianglediamonds.svg	20	yes	57	0	695	6	3	antiphase_hc_soi.wav	1	6	4	noise_calib_stim_RIGHT.wav	2	3	blb_dichoticlistening_ba-ga.mp3	ba	ga	1	left
6.6.1	win	2023-06-13	00:18:00	00:31:50	824877	63d40b7d3c7f92ff15ef6b67	1	1	main_slash	24	main_slash	87	stimuli_distractor_diamondtriangles.svg	stimuli_target_trianglesquares.svg	30	yes	0	0	2000	6	3	antiphase_hc_soi.wav	1	6	4	noise_calib_stim_RIGHT.wav	2	3	blb_dichoticlistening_ba-ga.mp3	ba	ga	1	left
6.6.1	win	2023-06-13	00:18:00	00:31:50	824877	63d40b7d3c7f92ff15ef6b67	1	1	main_slash	24	advance_on_keypress_SLASH	88	stimuli_distractor_diamondtriangles.svg	stimuli_target_trianglesquares.svg	30	yes	57	0	530	6	3	antiphase_hc_soi.wav	1	6	4	noise_calib_stim_RIGHT.wav	2	3	blb_dichoticlistening_ba-ga.mp3	ba	ga	1	left
6.6.1	win	2023-06-13	00:18:00	00:31:52	826420	63d40b7d3c7f92ff15ef6b67	1	1	main_slash	24	main_slash	89	stimuli_distractor_trianglediamonds.svg	stimuli_target_squaretriangles.svg	11	yes	53	1	361	6	3	antiphase_hc_soi.wav	1	6	4	noise_calib_stim_RIGHT.wav	2	3	blb_dichoticlistening_ba-ga.mp3	ba	ga	1	left
6.6.1	win	2023-06-13	00:18:00	00:31:52	826420	63d40b7d3c7f92ff15ef6b67	1	1	main_slash	24	advance_on_keypress_SLASH	90	stimuli_distractor_trianglediamonds.svg	stimuli_target_squaretriangles.svg	11	yes	57	0	480	6	3	antiphase_hc_soi.wav	1	6	4	noise_calib_stim_RIGHT.wav	2	3	blb_dichoticlistening_ba-ga.mp3	ba	ga	1	left
6.6.1	win	2023-06-13	00:18:00	00:31:55	829526	63d40b7d3c7f92ff15ef6b67	1	1	main_slash	24	main_slash	91	stimuli_distractor_diamondtriangles.svg	stimuli_target_diamondrectangles.svg	31	yes	0	0	2000	6	3	antiphase_hc_soi.wav	1	6	4	noise_calib_stim_RIGHT.wav	2	3	blb_dichoticlistening_ba-ga.mp3	ba	ga	1	left
6.6.1	win	2023-06-13	00:18:00	00:31:55	829526	63d40b7d3c7f92ff15ef6b67	1	1	main_slash	24	advance_on_keypress_SLASH	92	stimuli_distractor_diamondtriangles.svg	stimuli_target_diamondrectangles.svg	31	yes	57	0	294	6	3	antiphase_hc_soi.wav	1	6	4	noise_calib_stim_RIGHT.wav	2	3	blb_dichoticlistening_ba-ga.mp3	ba	ga	1	left
6.6.1	win	2023-06-13	00:18:00	00:31:56	830935	63d40b7d3c7f92ff15ef6b67	1	1	main_slash	24	main_slash	93	stimuli_distractor_trianglediamonds.svg	stimuli_target_diamondsquares.svg	28	yes	53	1	476	6	3	antiphase_hc_soi.wav	1	6	4	noise_calib_stim_RIGHT.wav	2	3	blb_dichoticlistening_ba-ga.mp3	ba	ga	1	left
6.6.1	win	2023-06-13	00:18:00	00:31:56	830935	63d40b7d3c7f92ff15ef6b67	1	1	main_slash	24	advance_on_keypress_SLASH	94	stimuli_distractor_trianglediamonds.svg	stimuli_target_diamondsquares.svg	28	yes	57	0	415	6	3	antiphase_hc_soi.wav	1	6	4	noise_calib_stim_RIGHT.wav	2	3	blb_dichoticlistening_ba-ga.mp3	ba	ga	1	left
6.6.1	win	2023-06-13	00:18:00	00:31:58	832537	63d40b7d3c7f92ff15ef6b67	1	1	main_slash	24	main_slash	95	stimuli_target_squarediamonds.svg	stimuli_distractor_trianglediamonds.svg	4	yes	53	1	545	6	3	antiphase_hc_soi.wav	1	6	4	noise_calib_stim_RIGHT.wav	2	3	blb_dichoticlistening_ba-ga.mp3	ba	ga	1	left
6.6.1	win	2023-06-13	00:18:00	00:31:58	832537	63d40b7d3c7f92ff15ef6b67	1	1	main_slash	24	advance_on_keypress_SLASH	96	stimuli_target_squarediamonds.svg	stimuli_distractor_trianglediamonds.svg	4	yes	57	0	479	6	3	antiphase_hc_soi.wav	1	6	4	noise_calib_stim_RIGHT.wav	2	3	blb_dichoticlistening_ba-ga.mp3	ba	ga	1	left
6.6.1	win	2023-06-13	00:18:00	00:31:59	834034	63d40b7d3c7f92ff15ef6b67	1	1	main_slash	24	main_slash	97	stimuli_distractor_diamondtriangles.svg	stimuli_target_squaretriangles.svg	15	yes	53	1	392	6	3	antiphase_hc_soi.wav	1	6	4	noise_calib_stim_RIGHT.wav	2	3	blb_dichoticlistening_ba-ga.mp3	ba	ga	1	left
6.6.1	win	2023-06-13	00:18:00	00:31:59	834034	63d40b7d3c7f92ff15ef6b67	1	1	main_slash	24	advance_on_keypress_SLASH	98	stimuli_distractor_diamondtriangles.svg	stimuli_target_squaretriangles.svg	15	yes	57	0	489	6	3	antiphase_hc_soi.wav	1	6	4	noise_calib_stim_RIGHT.wav	2	3	blb_dichoticlistening_ba-ga.mp3	ba	ga	1	left
6.6.1	win	2023-06-13	00:18:00	00:32:01	835519	63d40b7d3c7f92ff15ef6b67	1	1	main_slash	24	main_slash	99	stimuli_distractor_trianglediamonds.svg	stimuli_target_rectangletriangles.svg	9	yes	53	1	361	6	3	antiphase_hc_soi.wav	1	6	4	noise_calib_stim_RIGHT.wav	2	3	blb_dichoticlistening_ba-ga.mp3	ba	ga	1	left
6.6.1	win	2023-06-13	00:18:00	00:32:01	835519	63d40b7d3c7f92ff15ef6b67	1	1	main_slash	24	advance_on_keypress_SLASH	100	stimuli_distractor_trianglediamonds.svg	stimuli_target_rectangletriangles.svg	9	yes	57	0	1198	6	3	antiphase_hc_soi.wav	1	6	4	noise_calib_stim_RIGHT.wav	2	3	blb_dichoticlistening_ba-ga.mp3	ba	ga	1	left
6.6.1	win	2023-06-13	00:18:00	00:32:03	837620	63d40b7d3c7f92ff15ef6b67	1	1	main_slash	24	main_slash	101	stimuli_target_rectanglediamonds.svg	stimuli_distractor_diamondtriangles.svg	6	yes	53	1	263	6	3	antiphase_hc_soi.wav	1	6	4	noise_calib_stim_RIGHT.wav	2	3	blb_dichoticlistening_ba-ga.mp3	ba	ga	1	left
6.6.1	win	2023-06-13	00:18:00	00:32:03	837620	63d40b7d3c7f92ff15ef6b67	1	1	main_slash	24	advance_on_keypress_SLASH	102	stimuli_target_rectanglediamonds.svg	stimuli_distractor_diamondtriangles.svg	6	yes	57	0	657	6	3	antiphase_hc_soi.wav	1	6	4	noise_calib_stim_RIGHT.wav	2	3	blb_dichoticlistening_ba-ga.mp3	ba	ga	1	left
6.6.1	win	2023-06-13	00:18:00	00:32:05	839285	63d40b7d3c7f92ff15ef6b67	1	1	main_slash	24	main_slash	103	stimuli_distractor_trianglediamonds.svg	stimuli_distractor_diamondtriangles.svg	36	no	53	0	377	6	3	antiphase_hc_soi.wav	1	6	4	noise_calib_stim_RIGHT.wav	2	3	blb_dichoticlistening_ba-ga.mp3	ba	ga	1	left
6.6.1	win	2023-06-13	00:18:00	00:32:05	839285	63d40b7d3c7f92ff15ef6b67	1	1	main_slash	24	advance_on_keypress_SLASH	104	stimuli_distractor_trianglediamonds.svg	stimuli_distractor_diamondtriangles.svg	36	no	57	0	456	6	3	antiphase_hc_soi.wav	1	6	4	noise_calib_stim_RIGHT.wav	2	3	blb_dichoticlistening_ba-ga.mp3	ba	ga	1	left
6.6.1	win	2023-06-13	00:18:00	00:32:08	842375	63d40b7d3c7f92ff15ef6b67	1	1	main_slash	24	main_slash	105	stimuli_distractor_trianglediamonds.svg	stimuli_target_rectanglediamonds.svg	10	yes	0	0	2000	6	3	antiphase_hc_soi.wav	1	6	4	noise_calib_stim_RIGHT.wav	2	3	blb_dichoticlistening_ba-ga.mp3	ba	ga	1	left
6.6.1	win	2023-06-13	00:18:00	00:32:08	842375	63d40b7d3c7f92ff15ef6b67	1	1	main_slash	24	advance_on_keypress_SLASH	106	stimuli_distractor_trianglediamonds.svg	stimuli_target_rectanglediamonds.svg	10	yes	57	0	887	6	3	antiphase_hc_soi.wav	1	6	4	noise_calib_stim_RIGHT.wav	2	3	blb_dichoticlistening_ba-ga.mp3	ba	ga	1	left
6.6.1	win	2023-06-13	00:18:00	00:32:10	844675	63d40b7d3c7f92ff15ef6b67	1	1	main_slash	24	main_slash	107	stimuli_target_rectangletriangles.svg	stimuli_distractor_diamondtriangles.svg	5	yes	53	1	769	6	3	antiphase_hc_soi.wav	1	6	4	noise_calib_stim_RIGHT.wav	2	3	blb_dichoticlistening_ba-ga.mp3	ba	ga	1	left
6.6.1	win	2023-06-13	00:18:00	00:32:10	844675	63d40b7d3c7f92ff15ef6b67	1	1	main_slash	24	advance_on_keypress_SLASH	108	stimuli_target_rectangletriangles.svg	stimuli_distractor_diamondtriangles.svg	5	yes	57	0	734	6	3	antiphase_hc_soi.wav	1	6	4	noise_calib_stim_RIGHT.wav	2	3	blb_dichoticlistening_ba-ga.mp3	ba	ga	1	left
6.6.1	win	2023-06-13	00:18:00	00:32:12	846385	63d40b7d3c7f92ff15ef6b67	1	1	main_slash	24	main_slash	109	stimuli_target_rectanglediamonds.svg	stimuli_distractor_trianglediamonds.svg	2	yes	53	1	328	6	3	antiphase_hc_soi.wav	1	6	4	noise_calib_stim_RIGHT.wav	2	3	blb_dichoticlistening_ba-ga.mp3	ba	ga	1	left
6.6.1	win	2023-06-13	00:18:00	00:32:12	846385	63d40b7d3c7f92ff15ef6b67	1	1	main_slash	24	advance_on_keypress_SLASH	110	stimuli_target_rectanglediamonds.svg	stimuli_distractor_trianglediamonds.svg	2	yes	57	0	2069	6	3	antiphase_hc_soi.wav	1	6	4	noise_calib_stim_RIGHT.wav	2	3	blb_dichoticlistening_ba-ga.mp3	ba	ga	1	left
6.6.1	win	2023-06-13	00:18:00	00:32:16	851090	63d40b7d3c7f92ff15ef6b67	1	1	main_slash	24	main_slash	111	stimuli_distractor_trianglediamonds.svg	stimuli_distractor_diamondtriangles.svg	35	no	0	1	2000	6	3	antiphase_hc_soi.wav	1	6	4	noise_calib_stim_RIGHT.wav	2	3	blb_dichoticlistening_ba-ga.mp3	ba	ga	1	left
6.6.1	win	2023-06-13	00:18:00	00:32:16	851090	63d40b7d3c7f92ff15ef6b67	1	1	main_slash	24	advance_on_keypress_SLASH	112	stimuli_distractor_trianglediamonds.svg	stimuli_distractor_diamondtriangles.svg	35	no	57	0	363	6	3	antiphase_hc_soi.wav	1	6	4	noise_calib_stim_RIGHT.wav	2	3	blb_dichoticlistening_ba-ga.mp3	ba	ga	1	left
6.6.1	win	2023-06-13	00:18:00	00:32:18	852486	63d40b7d3c7f92ff15ef6b67	1	1	main_slash	24	main_slash	113	stimuli_distractor_diamondtriangles.svg	stimuli_target_rectanglediamonds.svg	14	yes	53	1	398	6	3	antiphase_hc_soi.wav	1	6	4	noise_calib_stim_RIGHT.wav	2	3	blb_dichoticlistening_ba-ga.mp3	ba	ga	1	left
6.6.1	win	2023-06-13	00:18:00	00:32:18	852486	63d40b7d3c7f92ff15ef6b67	1	1	main_slash	24	advance_on_keypress_SLASH	114	stimuli_distractor_diamondtriangles.svg	stimuli_target_rectanglediamonds.svg	14	yes	57	0	427	6	3	antiphase_hc_soi.wav	1	6	4	noise_calib_stim_RIGHT.wav	2	3	blb_dichoticlistening_ba-ga.mp3	ba	ga	1	left
6.6.1	win	2023-06-13	00:18:00	00:32:21	855556	63d40b7d3c7f92ff15ef6b67	1	1	main_slash	24	main_slash	115	stimuli_target_trianglesquares.svg	stimuli_distractor_trianglediamonds.svg	18	yes	0	0	2000	6	3	antiphase_hc_soi.wav	1	6	4	noise_calib_stim_RIGHT.wav	2	3	blb_dichoticlistening_ba-ga.mp3	ba	ga	1	left
6.6.1	win	2023-06-13	00:18:00	00:32:21	855556	63d40b7d3c7f92ff15ef6b67	1	1	main_slash	24	advance_on_keypress_SLASH	116	stimuli_target_trianglesquares.svg	stimuli_distractor_trianglediamonds.svg	18	yes	57	0	353	6	3	antiphase_hc_soi.wav	1	6	4	noise_calib_stim_RIGHT.wav	2	3	blb_dichoticlistening_ba-ga.mp3	ba	ga	1	left
6.6.1	win	2023-06-13	00:18:00	00:32:22	856979	63d40b7d3c7f92ff15ef6b67	1	1	main_slash	24	main_slash	117	stimuli_target_squarediamonds.svg	stimuli_distractor_diamondtriangles.svg	8	yes	53	1	424	6	3	antiphase_hc_soi.wav	1	6	4	noise_calib_stim_RIGHT.wav	2	3	blb_dichoticlistening_ba-ga.mp3	ba	ga	1	left
6.6.1	win	2023-06-13	00:18:00	00:32:22	856979	63d40b7d3c7f92ff15ef6b67	1	1	main_slash	24	advance_on_keypress_SLASH	118	stimuli_target_squarediamonds.svg	stimuli_distractor_diamondtriangles.svg	8	yes	57	0	388	6	3	antiphase_hc_soi.wav	1	6	4	noise_calib_stim_RIGHT.wav	2	3	blb_dichoticlistening_ba-ga.mp3	ba	ga	1	left
6.6.1	win	2023-06-13	00:18:00	00:32:24	858425	63d40b7d3c7f92ff15ef6b67	1	1	main_slash	24	main_slash	119	stimuli_distractor_diamondtriangles.svg	stimuli_distractor_trianglediamonds.svg	38	no	53	0	420	6	3	antiphase_hc_soi.wav	1	6	4	noise_calib_stim_RIGHT.wav	2	3	blb_dichoticlistening_ba-ga.mp3	ba	ga	1	left
6.6.1	win	2023-06-13	00:18:00	00:32:24	858425	63d40b7d3c7f92ff15ef6b67	1	1	main_slash	24	advance_on_keypress_SLASH	120	stimuli_distractor_diamondtriangles.svg	stimuli_distractor_trianglediamonds.svg	38	no	57	0	411	6	3	antiphase_hc_soi.wav	1	6	4	noise_calib_stim_RIGHT.wav	2	3	blb_dichoticlistening_ba-ga.mp3	ba	ga	1	left
6.6.1	win	2023-06-13	00:18:00	00:32:25	859874	63d40b7d3c7f92ff15ef6b67	1	1	main_slash	24	main_slash	121	stimuli_distractor_diamondtriangles.svg	stimuli_target_rectangletriangles.svg	13	yes	53	1	402	6	3	antiphase_hc_soi.wav	1	6	4	noise_calib_stim_RIGHT.wav	2	3	blb_dichoticlistening_ba-ga.mp3	ba	ga	1	left
6.6.1	win	2023-06-13	00:18:00	00:32:25	859874	63d40b7d3c7f92ff15ef6b67	1	1	main_slash	24	advance_on_keypress_SLASH	122	stimuli_distractor_diamondtriangles.svg	stimuli_target_rectangletriangles.svg	13	yes	57	0	339	6	3	antiphase_hc_soi.wav	1	6	4	noise_calib_stim_RIGHT.wav	2	3	blb_dichoticlistening_ba-ga.mp3	ba	ga	1	left
6.6.1	win	2023-06-13	00:18:00	00:32:28	862855	63d40b7d3c7f92ff15ef6b67	1	1	main_slash	24	main_slash	123	stimuli_target_diamondrectangles.svg	stimuli_distractor_trianglediamonds.svg	19	yes	0	0	2000	6	3	antiphase_hc_soi.wav	1	6	4	noise_calib_stim_RIGHT.wav	2	3	blb_dichoticlistening_ba-ga.mp3	ba	ga	1	left
6.6.1	win	2023-06-13	00:18:00	00:32:28	862855	63d40b7d3c7f92ff15ef6b67	1	1	main_slash	24	advance_on_keypress_SLASH	124	stimuli_target_diamondrectangles.svg	stimuli_distractor_trianglediamonds.svg	19	yes	57	0	354	6	3	antiphase_hc_soi.wav	1	6	4	noise_calib_stim_RIGHT.wav	2	3	blb_dichoticlistening_ba-ga.mp3	ba	ga	1	left
6.6.1	win	2023-06-13	00:18:00	00:32:31	865855	63d40b7d3c7f92ff15ef6b67	1	1	main_slash	24	main_slash	125	stimuli_distractor_diamondtriangles.svg	stimuli_distractor_trianglediamonds.svg	37	no	0	1	2000	6	3	antiphase_hc_soi.wav	1	6	4	noise_calib_stim_RIGHT.wav	2	3	blb_dichoticlistening_ba-ga.mp3	ba	ga	1	left
6.6.1	win	2023-06-13	00:18:00	00:32:31	865855	63d40b7d3c7f92ff15ef6b67	1	1	main_slash	24	advance_on_keypress_SLASH	126	stimuli_distractor_diamondtriangles.svg	stimuli_distractor_trianglediamonds.svg	37	no	57	0	370	6	3	antiphase_hc_soi.wav	1	6	4	noise_calib_stim_RIGHT.wav	2	3	blb_dichoticlistening_ba-ga.mp3	ba	ga	1	left
6.6.1	win	2023-06-13	00:18:00	00:32:34	868871	63d40b7d3c7f92ff15ef6b67	1	1	main_slash	24	main_slash	127	stimuli_distractor_trianglediamonds.svg	stimuli_distractor_trianglediamonds.svg	34	no	0	1	2000	6	3	antiphase_hc_soi.wav	1	6	4	noise_calib_stim_RIGHT.wav	2	3	blb_dichoticlistening_ba-ga.mp3	ba	ga	1	left
6.6.1	win	2023-06-13	00:18:00	00:32:34	868871	63d40b7d3c7f92ff15ef6b67	1	1	main_slash	24	advance_on_keypress_SLASH	128	stimuli_distractor_trianglediamonds.svg	stimuli_distractor_trianglediamonds.svg	34	no	57	0	330	6	3	antiphase_hc_soi.wav	1	6	4	noise_calib_stim_RIGHT.wav	2	3	blb_dichoticlistening_ba-ga.mp3	ba	ga	1	left
6.6.1	win	2023-06-13	00:18:00	00:32:37	871837	63d40b7d3c7f92ff15ef6b67	1	1	main_slash	24	main_slash	129	stimuli_target_trianglerectangles.svg	stimuli_distractor_trianglediamonds.svg	17	yes	0	0	2000	6	3	antiphase_hc_soi.wav	1	6	4	noise_calib_stim_RIGHT.wav	2	3	blb_dichoticlistening_ba-ga.mp3	ba	ga	1	left
6.6.1	win	2023-06-13	00:18:00	00:32:37	871837	63d40b7d3c7f92ff15ef6b67	1	1	main_slash	24	advance_on_keypress_SLASH	130	stimuli_target_trianglerectangles.svg	stimuli_distractor_trianglediamonds.svg	17	yes	57	0	476	6	3	antiphase_hc_soi.wav	1	6	4	noise_calib_stim_RIGHT.wav	2	3	blb_dichoticlistening_ba-ga.mp3	ba	ga	1	left
6.6.1	win	2023-06-13	00:18:00	00:32:40	874953	63d40b7d3c7f92ff15ef6b67	1	1	main_slash	24	main_slash	131	stimuli_target_diamondrectangles.svg	stimuli_distractor_diamondtriangles.svg	23	yes	0	0	2000	6	3	antiphase_hc_soi.wav	1	6	4	noise_calib_stim_RIGHT.wav	2	3	blb_dichoticlistening_ba-ga.mp3	ba	ga	1	left
6.6.1	win	2023-06-13	00:18:00	00:32:40	874953	63d40b7d3c7f92ff15ef6b67	1	1	main_slash	24	advance_on_keypress_SLASH	132	stimuli_target_diamondrectangles.svg	stimuli_distractor_diamondtriangles.svg	23	yes	57	0	294	6	3	antiphase_hc_soi.wav	1	6	4	noise_calib_stim_RIGHT.wav	2	3	blb_dichoticlistening_ba-ga.mp3	ba	ga	1	left
6.6.1	win	2023-06-13	00:18:00	00:32:43	877887	63d40b7d3c7f92ff15ef6b67	1	1	main_slash	24	main_slash	133	stimuli_target_trianglerectangles.svg	stimuli_distractor_diamondtriangles.svg	21	yes	0	0	2000	6	3	antiphase_hc_soi.wav	1	6	4	noise_calib_stim_RIGHT.wav	2	3	blb_dichoticlistening_ba-ga.mp3	ba	ga	1	left
6.6.1	win	2023-06-13	00:18:00	00:32:43	877887	63d40b7d3c7f92ff15ef6b67	1	1	main_slash	24	advance_on_keypress_SLASH	134	stimuli_target_trianglerectangles.svg	stimuli_distractor_diamondtriangles.svg	21	yes	57	0	253	6	3	antiphase_hc_soi.wav	1	6	4	noise_calib_stim_RIGHT.wav	2	3	blb_dichoticlistening_ba-ga.mp3	ba	ga	1	left
6.6.1	win	2023-06-13	00:18:00	00:32:46	880786	63d40b7d3c7f92ff15ef6b67	1	1	main_slash	24	main_slash	135	stimuli_distractor_diamondtriangles.svg	stimuli_distractor_diamondtriangles.svg	40	no	0	1	2000	6	3	antiphase_hc_soi.wav	1	6	4	noise_calib_stim_RIGHT.wav	2	3	blb_dichoticlistening_ba-ga.mp3	ba	ga	1	left
6.6.1	win	2023-06-13	00:18:00	00:32:46	880786	63d40b7d3c7f92ff15ef6b67	1	1	main_slash	24	advance_on_keypress_SLASH	136	stimuli_distractor_diamondtriangles.svg	stimuli_distractor_diamondtriangles.svg	40	no	57	0	169	6	3	antiphase_hc_soi.wav	1	6	4	noise_calib_stim_RIGHT.wav	2	3	blb_dichoticlistening_ba-ga.mp3	ba	ga	1	left
6.6.1	win	2023-06-13	00:18:00	00:32:47	881937	63d40b7d3c7f92ff15ef6b67	1	1	main_slash	24	main_slash	137	stimuli_target_rectangletriangles.svg	stimuli_distractor_trianglediamonds.svg	1	yes	53	1	336	6	3	antiphase_hc_soi.wav	1	6	4	noise_calib_stim_RIGHT.wav	2	3	blb_dichoticlistening_ba-ga.mp3	ba	ga	1	left
6.6.1	win	2023-06-13	00:18:00	00:32:47	881937	63d40b7d3c7f92ff15ef6b67	1	1	main_slash	24	advance_on_keypress_SLASH	138	stimuli_target_rectangletriangles.svg	stimuli_distractor_trianglediamonds.svg	1	yes	57	0	394	6	3	antiphase_hc_soi.wav	1	6	4	noise_calib_stim_RIGHT.wav	2	3	blb_dichoticlistening_ba-ga.mp3	ba	ga	1	left
6.6.1	win	2023-06-13	00:18:00	00:32:49	883330	63d40b7d3c7f92ff15ef6b67	1	1	main_slash	24	main_slash	139	stimuli_distractor_trianglediamonds.svg	stimuli_target_squarediamonds.svg	12	yes	53	1	361	6	3	antiphase_hc_soi.wav	1	6	4	noise_calib_stim_RIGHT.wav	2	3	blb_dichoticlistening_ba-ga.mp3	ba	ga	1	left
6.6.1	win	2023-06-13	00:18:00	00:32:49	883330	63d40b7d3c7f92ff15ef6b67	1	1	main_slash	24	advance_on_keypress_SLASH	140	stimuli_distractor_trianglediamonds.svg	stimuli_target_squarediamonds.svg	12	yes	57	0	336	6	3	antiphase_hc_soi.wav	1	6	4	noise_calib_stim_RIGHT.wav	2	3	blb_dichoticlistening_ba-ga.mp3	ba	ga	1	left
6.6.1	win	2023-06-13	00:18:00	00:32:50	884547	63d40b7d3c7f92ff15ef6b67	1	1	main_slash	24	main_slash	141	stimuli_target_diamondsquares.svg	stimuli_distractor_diamondtriangles.svg	24	yes	53	1	245	6	3	antiphase_hc_soi.wav	1	6	4	noise_calib_stim_RIGHT.wav	2	3	blb_dichoticlistening_ba-ga.mp3	ba	ga	1	left
6.6.1	win	2023-06-13	00:18:00	00:32:50	884547	63d40b7d3c7f92ff15ef6b67	1	1	main_slash	24	advance_on_keypress_SLASH	142	stimuli_target_diamondsquares.svg	stimuli_distractor_diamondtriangles.svg	24	yes	57	0	383	6	3	antiphase_hc_soi.wav	1	6	4	noise_calib_stim_RIGHT.wav	2	3	blb_dichoticlistening_ba-ga.mp3	ba	ga	1	left
6.6.1	win	2023-06-13	00:18:00	00:32:53	887569	63d40b7d3c7f92ff15ef6b67	1	1	main_slash	24	main_slash	143	stimuli_distractor_trianglediamonds.svg	stimuli_target_diamondrectangles.svg	27	yes	0	0	2000	6	3	antiphase_hc_soi.wav	1	6	4	noise_calib_stim_RIGHT.wav	2	3	blb_dichoticlistening_ba-ga.mp3	ba	ga	1	left
6.6.1	win	2023-06-13	00:18:00	00:32:53	887569	63d40b7d3c7f92ff15ef6b67	1	1	main_slash	24	advance_on_keypress_SLASH	144	stimuli_distractor_trianglediamonds.svg	stimuli_target_diamondrectangles.svg	27	yes	57	0	411	6	3	antiphase_hc_soi.wav	1	6	4	noise_calib_stim_RIGHT.wav	2	3	blb_dichoticlistening_ba-ga.mp3	ba	ga	1	left
6.6.1	win	2023-06-13	00:18:00	00:32:54	889150	63d40b7d3c7f92ff15ef6b67	1	1	main_slash	24	main_slash	145	stimuli_distractor_diamondtriangles.svg	stimuli_target_trianglerectangles.svg	29	yes	53	1	532	6	3	antiphase_hc_soi.wav	1	6	4	noise_calib_stim_RIGHT.wav	2	3	blb_dichoticlistening_ba-ga.mp3	ba	ga	1	left
6.6.1	win	2023-06-13	00:18:00	00:32:54	889150	63d40b7d3c7f92ff15ef6b67	1	1	main_slash	24	advance_on_keypress_SLASH	146	stimuli_distractor_diamondtriangles.svg	stimuli_target_trianglerectangles.svg	29	yes	57	0	331	6	3	antiphase_hc_soi.wav	1	6	4	noise_calib_stim_RIGHT.wav	2	3	blb_dichoticlistening_ba-ga.mp3	ba	ga	1	left
6.6.1	win	2023-06-13	00:18:00	00:32:57	892135	63d40b7d3c7f92ff15ef6b67	1	1	main_slash	24	main_slash	147	stimuli_distractor_diamondtriangles.svg	stimuli_distractor_diamondtriangles.svg	39	no	0	1	2000	6	3	antiphase_hc_soi.wav	1	6	4	noise_calib_stim_RIGHT.wav	2	3	blb_dichoticlistening_ba-ga.mp3	ba	ga	1	left
6.6.1	win	2023-06-13	00:18:00	00:32:57	892135	63d40b7d3c7f92ff15ef6b67	1	1	main_slash	24	advance_on_keypress_SLASH	148	stimuli_distractor_diamondtriangles.svg	stimuli_distractor_diamondtriangles.svg	39	no	57	0	125	6	3	antiphase_hc_soi.wav	1	6	4	noise_calib_stim_RIGHT.wav	2	3	blb_dichoticlistening_ba-ga.mp3	ba	ga	1	left
6.6.1	win	2023-06-13	00:18:00	00:33:00	894901	63d40b7d3c7f92ff15ef6b67	1	1	main_slash	24	main_slash	149	stimuli_distractor_trianglediamonds.svg	stimuli_target_trianglesquares.svg	26	yes	0	0	2000	6	3	antiphase_hc_soi.wav	1	6	4	noise_calib_stim_RIGHT.wav	2	3	blb_dichoticlistening_ba-ga.mp3	ba	ga	1	left
6.6.1	win	2023-06-13	00:18:00	00:33:00	894901	63d40b7d3c7f92ff15ef6b67	1	1	main_slash	24	advance_on_keypress_SLASH	150	stimuli_distractor_trianglediamonds.svg	stimuli_target_trianglesquares.svg	26	yes	57	0	492	6	3	antiphase_hc_soi.wav	1	6	4	noise_calib_stim_RIGHT.wav	2	3	blb_dichoticlistening_ba-ga.mp3	ba	ga	1	left
6.6.1	win	2023-06-13	00:18:00	00:33:02	896525	63d40b7d3c7f92ff15ef6b67	1	1	main_slash	24	main_slash	151	stimuli_target_squaretriangles.svg	stimuli_distractor_diamondtriangles.svg	7	yes	53	1	491	6	3	antiphase_hc_soi.wav	1	6	4	noise_calib_stim_RIGHT.wav	2	3	blb_dichoticlistening_ba-ga.mp3	ba	ga	1	left
6.6.1	win	2023-06-13	00:18:00	00:33:02	896525	63d40b7d3c7f92ff15ef6b67	1	1	main_slash	24	advance_on_keypress_SLASH	152	stimuli_target_squaretriangles.svg	stimuli_distractor_diamondtriangles.svg	7	yes	57	0	351	6	3	antiphase_hc_soi.wav	1	6	4	noise_calib_stim_RIGHT.wav	2	3	blb_dichoticlistening_ba-ga.mp3	ba	ga	1	left
6.6.1	win	2023-06-13	00:18:00	00:33:05	899517	63d40b7d3c7f92ff15ef6b67	1	1	main_slash	24	main_slash	153	stimuli_distractor_trianglediamonds.svg	stimuli_distractor_trianglediamonds.svg	33	no	0	1	2000	6	3	antiphase_hc_soi.wav	1	6	4	noise_calib_stim_RIGHT.wav	2	3	blb_dichoticlistening_ba-ga.mp3	ba	ga	1	left
6.6.1	win	2023-06-13	00:18:00	00:33:05	899517	63d40b7d3c7f92ff15ef6b67	1	1	main_slash	24	advance_on_keypress_SLASH	154	stimuli_distractor_trianglediamonds.svg	stimuli_distractor_trianglediamonds.svg	33	no	57	0	385	6	3	antiphase_hc_soi.wav	1	6	4	noise_calib_stim_RIGHT.wav	2	3	blb_dichoticlistening_ba-ga.mp3	ba	ga	1	left
6.6.1	win	2023-06-13	00:18:00	00:33:06	900968	63d40b7d3c7f92ff15ef6b67	1	1	main_slash	24	main_slash	155	stimuli_target_squaretriangles.svg	stimuli_distractor_trianglediamonds.svg	3	yes	53	1	418	6	3	antiphase_hc_soi.wav	1	6	4	noise_calib_stim_RIGHT.wav	2	3	blb_dichoticlistening_ba-ga.mp3	ba	ga	1	left
6.6.1	win	2023-06-13	00:18:00	00:33:06	900968	63d40b7d3c7f92ff15ef6b67	1	1	main_slash	24	advance_on_keypress_SLASH	156	stimuli_target_squaretriangles.svg	stimuli_distractor_trianglediamonds.svg	3	yes	57	0	283	6	3	antiphase_hc_soi.wav	1	6	4	noise_calib_stim_RIGHT.wav	2	3	blb_dichoticlistening_ba-ga.mp3	ba	ga	1	left
6.6.1	win	2023-06-13	00:18:00	00:33:08	902328	63d40b7d3c7f92ff15ef6b67	1	1	main_slash	24	main_slash	157	stimuli_distractor_diamondtriangles.svg	stimuli_target_squarediamonds.svg	16	yes	53	1	429	6	3	antiphase_hc_soi.wav	1	6	4	noise_calib_stim_RIGHT.wav	2	3	blb_dichoticlistening_ba-ga.mp3	ba	ga	1	left
6.6.1	win	2023-06-13	00:18:00	00:33:08	902328	63d40b7d3c7f92ff15ef6b67	1	1	main_slash	24	advance_on_keypress_SLASH	158	stimuli_distractor_diamondtriangles.svg	stimuli_target_squarediamonds.svg	16	yes	57	0	383	6	3	antiphase_hc_soi.wav	1	6	4	noise_calib_stim_RIGHT.wav	2	3	blb_dichoticlistening_ba-ga.mp3	ba	ga	1	left
6.6.1	win	2023-06-13	00:18:00	00:33:11	905350	63d40b7d3c7f92ff15ef6b67	1	1	main_slash	24	main_slash	159	stimuli_target_trianglesquares.svg	stimuli_distractor_diamondtriangles.svg	22	yes	0	0	2000	6	3	antiphase_hc_soi.wav	1	6	4	noise_calib_stim_RIGHT.wav	2	3	blb_dichoticlistening_ba-ga.mp3	ba	ga	1	left
6.6.1	win	2023-06-13	00:18:00	00:33:11	905350	63d40b7d3c7f92ff15ef6b67	1	1	main_slash	24	advance_on_keypress_SLASH	160	stimuli_target_trianglesquares.svg	stimuli_distractor_diamondtriangles.svg	22	yes	57	0	5058	6	3	antiphase_hc_soi.wav	1	6	4	noise_calib_stim_RIGHT.wav	2	3	blb_dichoticlistening_ba-ga.mp3	ba	ga	1	left
6.6.1	win	2023-06-13	00:18:00	00:33:30	924246	63d40b7d3c7f92ff15ef6b67	1	1	practice_z	26	practice_z	1	stimuli_target_squarediamonds.svg	stimuli_distractor_trianglediamonds.svg	5	yes	44	1	299	6	3	antiphase_hc_soi.wav	1	6	4	noise_calib_stim_RIGHT.wav	2	3	blb_dichoticlistening_ba-ga.mp3	ba	ga	1	left
6.6.1	win	2023-06-13	00:18:00	00:33:30	924246	63d40b7d3c7f92ff15ef6b67	1	1	practice_z	26	advance_on_keypress_ZEE	2	stimuli_target_squarediamonds.svg	stimuli_distractor_trianglediamonds.svg	5	yes	57	0	597	6	3	antiphase_hc_soi.wav	1	6	4	noise_calib_stim_RIGHT.wav	2	3	blb_dichoticlistening_ba-ga.mp3	ba	ga	1	left
6.6.1	win	2023-06-13	00:18:00	00:33:32	926810	63d40b7d3c7f92ff15ef6b67	1	1	practice_z	26	practice_z	3	stimuli_distractor_diamondtriangles.svg	stimuli_distractor_trianglediamonds.svg	14	no	44	0	311	6	3	antiphase_hc_soi.wav	1	6	4	noise_calib_stim_RIGHT.wav	2	3	blb_dichoticlistening_ba-ga.mp3	ba	ga	1	left
6.6.1	win	2023-06-13	00:18:00	00:33:32	926810	63d40b7d3c7f92ff15ef6b67	1	1	practice_z	26	advance_on_keypress_ZEE	4	stimuli_distractor_diamondtriangles.svg	stimuli_distractor_trianglediamonds.svg	14	no	57	0	816	6	3	antiphase_hc_soi.wav	1	6	4	noise_calib_stim_RIGHT.wav	2	3	blb_dichoticlistening_ba-ga.mp3	ba	ga	1	left
6.6.1	win	2023-06-13	00:18:00	00:33:37	931281	63d40b7d3c7f92ff15ef6b67	1	1	practice_z	26	practice_z	5	stimuli_distractor_diamondtriangles.svg	stimuli_target_diamondrectangles.svg	8	yes	0	0	2000	6	3	antiphase_hc_soi.wav	1	6	4	noise_calib_stim_RIGHT.wav	2	3	blb_dichoticlistening_ba-ga.mp3	ba	ga	1	left
6.6.1	win	2023-06-13	00:18:00	00:33:37	931281	63d40b7d3c7f92ff15ef6b67	1	1	practice_z	26	advance_on_keypress_ZEE	6	stimuli_distractor_diamondtriangles.svg	stimuli_target_diamondrectangles.svg	8	yes	57	0	813	6	3	antiphase_hc_soi.wav	1	6	4	noise_calib_stim_RIGHT.wav	2	3	blb_dichoticlistening_ba-ga.mp3	ba	ga	1	left
6.6.1	win	2023-06-13	00:18:00	00:33:40	934348	63d40b7d3c7f92ff15ef6b67	1	1	practice_z	26	practice_z	7	stimuli_target_diamondsquares.svg	stimuli_distractor_trianglediamonds.svg	6	yes	44	1	601	6	3	antiphase_hc_soi.wav	1	6	4	noise_calib_stim_RIGHT.wav	2	3	blb_dichoticlistening_ba-ga.mp3	ba	ga	1	left
6.6.1	win	2023-06-13	00:18:00	00:33:40	934348	63d40b7d3c7f92ff15ef6b67	1	1	practice_z	26	advance_on_keypress_ZEE	8	stimuli_target_diamondsquares.svg	stimuli_distractor_trianglediamonds.svg	6	yes	57	0	564	6	3	antiphase_hc_soi.wav	1	6	4	noise_calib_stim_RIGHT.wav	2	3	blb_dichoticlistening_ba-ga.mp3	ba	ga	1	left
6.6.1	win	2023-06-13	00:18:00	00:33:42	937164	63d40b7d3c7f92ff15ef6b67	1	1	practice_z	26	practice_z	9	stimuli_distractor_trianglediamonds.svg	stimuli_distractor_trianglediamonds.svg	15	no	44	0	601	6	3	antiphase_hc_soi.wav	1	6	4	noise_calib_stim_RIGHT.wav	2	3	blb_dichoticlistening_ba-ga.mp3	ba	ga	1	left
6.6.1	win	2023-06-13	00:18:00	00:33:42	937164	63d40b7d3c7f92ff15ef6b67	1	1	practice_z	26	advance_on_keypress_ZEE	10	stimuli_distractor_trianglediamonds.svg	stimuli_distractor_trianglediamonds.svg	15	no	57	0	488	6	3	antiphase_hc_soi.wav	1	6	4	noise_calib_stim_RIGHT.wav	2	3	blb_dichoticlistening_ba-ga.mp3	ba	ga	1	left
6.6.1	win	2023-06-13	00:18:00	00:33:46	940694	63d40b7d3c7f92ff15ef6b67	1	1	practice_z	26	practice_z	11	stimuli_target_diamondsquares.svg	stimuli_distractor_diamondtriangles.svg	3	yes	44	1	1398	6	3	antiphase_hc_soi.wav	1	6	4	noise_calib_stim_RIGHT.wav	2	3	blb_dichoticlistening_ba-ga.mp3	ba	ga	1	left
6.6.1	win	2023-06-13	00:18:00	00:33:46	940694	63d40b7d3c7f92ff15ef6b67	1	1	practice_z	26	advance_on_keypress_ZEE	12	stimuli_target_diamondsquares.svg	stimuli_distractor_diamondtriangles.svg	3	yes	57	0	555	6	3	antiphase_hc_soi.wav	1	6	4	noise_calib_stim_RIGHT.wav	2	3	blb_dichoticlistening_ba-ga.mp3	ba	ga	1	left
6.6.1	win	2023-06-13	00:18:00	00:33:50	944896	63d40b7d3c7f92ff15ef6b67	1	1	practice_z	26	practice_z	13	stimuli_distractor_diamondtriangles.svg	stimuli_distractor_diamondtriangles.svg	13	no	0	1	2000	6	3	antiphase_hc_soi.wav	1	6	4	noise_calib_stim_RIGHT.wav	2	3	blb_dichoticlistening_ba-ga.mp3	ba	ga	1	left
6.6.1	win	2023-06-13	00:18:00	00:33:50	944896	63d40b7d3c7f92ff15ef6b67	1	1	practice_z	26	advance_on_keypress_ZEE	14	stimuli_distractor_diamondtriangles.svg	stimuli_distractor_diamondtriangles.svg	13	no	57	0	407	6	3	antiphase_hc_soi.wav	1	6	4	noise_calib_stim_RIGHT.wav	2	3	blb_dichoticlistening_ba-ga.mp3	ba	ga	1	left
6.6.1	win	2023-06-13	00:18:00	00:33:53	947465	63d40b7d3c7f92ff15ef6b67	1	1	practice_z	26	practice_z	15	stimuli_target_rectanglediamonds.svg	stimuli_distractor_trianglediamonds.svg	4	yes	44	1	520	6	3	antiphase_hc_soi.wav	1	6	4	noise_calib_stim_RIGHT.wav	2	3	blb_dichoticlistening_ba-ga.mp3	ba	ga	1	left
