build	computer.platform	date	time	timestamp	time_elapsed_ms	subject	group	session	blockcode	blocknum	trialcode	trialnum	stimulus_left	stimulus_right	stim_index	target_present	response	correct	latency	headphonecheck_countTestTrials	headphonecheck_index	headphonecheck_testSound	headphonecheck_correctResponse	stereocheck_countTestTrials	stereocheck_index	stereocheck_testSound	stereocheck_correctResponse	DL_index	DL_soundfile	DL_leftSound	DL_rightSound	DL_dualSound	DL_choice
6.6.1	mac	2023-06-14	07:15:04	07:17:29	142828	607f0b70818fde7990b3992d	4	1	practice_z	5	practice_z	1	stimuli_distractor_trianglediamonds.svg	stimuli_target_squarediamonds.svg	11	yes	0	0	2000	0	0			0	0			1				0	
6.6.1	mac	2023-06-14	07:15:04	07:17:29	142828	607f0b70818fde7990b3992d	4	1	practice_z	5	advance_on_keypress_ZEE	2	stimuli_distractor_trianglediamonds.svg	stimuli_target_squarediamonds.svg	11	yes	57	0	2098	0	0			0	0			1				0	
6.6.1	mac	2023-06-14	07:15:04	07:17:33	147335	607f0b70818fde7990b3992d	4	1	practice_z	5	practice_z	3	stimuli_target_squarediamonds.svg	stimuli_distractor_diamondtriangles.svg	2	yes	44	1	775	0	0			0	0			1				0	
6.6.1	mac	2023-06-14	07:15:04	07:17:33	147335	607f0b70818fde7990b3992d	4	1	practice_z	5	advance_on_keypress_ZEE	4	stimuli_target_squarediamonds.svg	stimuli_distractor_diamondtriangles.svg	2	yes	57	0	636	0	0			0	0			1				0	
6.6.1	mac	2023-06-14	07:15:04	07:17:37	150591	607f0b70818fde7990b3992d	4	1	practice_z	5	practice_z	5	stimuli_target_diamondsquares.svg	stimuli_distractor_diamondtriangles.svg	3	yes	44	1	977	0	0			0	0			1				0	
6.6.1	mac	2023-06-14	07:15:04	07:17:37	150591	607f0b70818fde7990b3992d	4	1	practice_z	5	advance_on_keypress_ZEE	6	stimuli_target_diamondsquares.svg	stimuli_distractor_diamondtriangles.svg	3	yes	57	0	763	0	0			0	0			1				0	
6.6.1	mac	2023-06-14	07:15:04	07:17:41	154994	607f0b70818fde7990b3992d	4	1	practice_z	5	practice_z	7	stimuli_distractor_trianglediamonds.svg	stimuli_distractor_diamondtriangles.svg	16	no	0	1	2000	0	0			0	0			1				0	
6.6.1	mac	2023-06-14	07:15:04	07:17:41	154994	607f0b70818fde7990b3992d	4	1	practice_z	5	advance_on_keypress_ZEE	8	stimuli_distractor_trianglediamonds.svg	stimuli_distractor_diamondtriangles.svg	16	no	57	0	710	0	0			0	0			1				0	
6.6.1	mac	2023-06-14	07:15:04	07:17:44	158276	607f0b70818fde7990b3992d	4	1	practice_z	5	practice_z	9	stimuli_target_squarediamonds.svg	stimuli_distractor_trianglediamonds.svg	5	yes	44	1	929	0	0			0	0			1				0	
6.6.1	mac	2023-06-14	07:15:04	07:17:44	158276	607f0b70818fde7990b3992d	4	1	practice_z	5	advance_on_keypress_ZEE	10	stimuli_target_squarediamonds.svg	stimuli_distractor_trianglediamonds.svg	5	yes	57	0	888	0	0			0	0			1				0	
6.6.1	mac	2023-06-14	07:15:04	07:17:49	162812	607f0b70818fde7990b3992d	4	1	practice_z	5	practice_z	11	stimuli_distractor_diamondtriangles.svg	stimuli_target_trianglerectangles.svg	9	yes	0	0	2000	0	0			0	0			1				0	
6.6.1	mac	2023-06-14	07:15:04	07:17:49	162812	607f0b70818fde7990b3992d	4	1	practice_z	5	advance_on_keypress_ZEE	12	stimuli_distractor_diamondtriangles.svg	stimuli_target_trianglerectangles.svg	9	yes	57	0	715	0	0			0	0			1				0	
6.6.1	mac	2023-06-14	07:15:04	07:17:53	167161	607f0b70818fde7990b3992d	4	1	practice_z	5	practice_z	13	stimuli_distractor_diamondtriangles.svg	stimuli_distractor_trianglediamonds.svg	14	no	0	1	2000	0	0			0	0			1				0	
6.6.1	mac	2023-06-14	07:15:04	07:17:53	167161	607f0b70818fde7990b3992d	4	1	practice_z	5	advance_on_keypress_ZEE	14	stimuli_distractor_diamondtriangles.svg	stimuli_distractor_trianglediamonds.svg	14	no	57	0	433	0	0			0	0			1				0	
6.6.1	mac	2023-06-14	07:15:04	07:17:57	171228	607f0b70818fde7990b3992d	4	1	practice_z	5	practice_z	15	stimuli_distractor_diamondtriangles.svg	stimuli_target_diamondrectangles.svg	8	yes	0	0	2000	0	0			0	0			1				0	
6.6.1	mac	2023-06-14	07:15:04	07:17:57	171228	607f0b70818fde7990b3992d	4	1	practice_z	5	advance_on_keypress_ZEE	16	stimuli_distractor_diamondtriangles.svg	stimuli_target_diamondrectangles.svg	8	yes	57	0	413	0	0			0	0			1				0	
6.6.1	mac	2023-06-14	07:15:04	07:18:01	175276	607f0b70818fde7990b3992d	4	1	practice_z	5	practice_z	17	stimuli_distractor_diamondtriangles.svg	stimuli_distractor_diamondtriangles.svg	13	no	0	1	2000	0	0			0	0			1				0	
6.6.1	mac	2023-06-14	07:15:04	07:18:01	175276	607f0b70818fde7990b3992d	4	1	practice_z	5	advance_on_keypress_ZEE	18	stimuli_distractor_diamondtriangles.svg	stimuli_distractor_diamondtriangles.svg	13	no	57	0	644	0	0			0	0			1				0	
6.6.1	mac	2023-06-14	07:15:04	07:18:05	178556	607f0b70818fde7990b3992d	4	1	practice_z	5	practice_z	19	stimuli_distractor_trianglediamonds.svg	stimuli_target_rectanglediamonds.svg	10	yes	44	1	991	0	0			0	0			1				0	
6.6.1	mac	2023-06-14	07:15:04	07:18:05	178556	607f0b70818fde7990b3992d	4	1	practice_z	5	advance_on_keypress_ZEE	20	stimuli_distractor_trianglediamonds.svg	stimuli_target_rectanglediamonds.svg	10	yes	57	0	555	0	0			0	0			1				0	
6.6.1	mac	2023-06-14	07:15:04	07:18:09	182742	607f0b70818fde7990b3992d	4	1	practice_z	5	practice_z	21	stimuli_distractor_trianglediamonds.svg	stimuli_distractor_trianglediamonds.svg	15	no	0	1	2000	0	0			0	0			1				0	
6.6.1	mac	2023-06-14	07:15:04	07:18:09	182742	607f0b70818fde7990b3992d	4	1	practice_z	5	advance_on_keypress_ZEE	22	stimuli_distractor_trianglediamonds.svg	stimuli_distractor_trianglediamonds.svg	15	no	57	0	1350	0	0			0	0			1				0	
6.6.1	mac	2023-06-14	07:15:04	07:18:13	186740	607f0b70818fde7990b3992d	4	1	practice_z	5	practice_z	23	stimuli_target_rectanglediamonds.svg	stimuli_distractor_trianglediamonds.svg	4	yes	44	1	1010	0	0			0	0			1				0	
6.6.1	mac	2023-06-14	07:15:04	07:18:13	186740	607f0b70818fde7990b3992d	4	1	practice_z	5	advance_on_keypress_ZEE	24	stimuli_target_rectanglediamonds.svg	stimuli_distractor_trianglediamonds.svg	4	yes	57	0	998	0	0			0	0			1				0	
6.6.1	mac	2023-06-14	07:15:04	07:18:17	190528	607f0b70818fde7990b3992d	4	1	practice_z	5	practice_z	25	stimuli_distractor_diamondtriangles.svg	stimuli_target_rectangletriangles.svg	7	yes	44	1	1147	0	0			0	0			1				0	
6.6.1	mac	2023-06-14	07:15:04	07:18:17	190528	607f0b70818fde7990b3992d	4	1	practice_z	5	advance_on_keypress_ZEE	26	stimuli_distractor_diamondtriangles.svg	stimuli_target_rectangletriangles.svg	7	yes	57	0	729	0	0			0	0			1				0	
6.6.1	mac	2023-06-14	07:15:04	07:18:20	194185	607f0b70818fde7990b3992d	4	1	practice_z	5	practice_z	27	stimuli_distractor_trianglediamonds.svg	stimuli_target_diamondrectangles.svg	12	yes	44	1	1288	0	0			0	0			1				0	
6.6.1	mac	2023-06-14	07:15:04	07:18:20	194185	607f0b70818fde7990b3992d	4	1	practice_z	5	advance_on_keypress_ZEE	28	stimuli_distractor_trianglediamonds.svg	stimuli_target_diamondrectangles.svg	12	yes	57	0	800	0	0			0	0			1				0	
6.6.1	mac	2023-06-14	07:15:04	07:18:24	197770	607f0b70818fde7990b3992d	4	1	practice_z	5	practice_z	29	stimuli_target_diamondsquares.svg	stimuli_distractor_trianglediamonds.svg	6	yes	44	1	1157	0	0			0	0			1				0	
6.6.1	mac	2023-06-14	07:15:04	07:18:24	197770	607f0b70818fde7990b3992d	4	1	practice_z	5	advance_on_keypress_ZEE	30	stimuli_target_diamondsquares.svg	stimuli_distractor_trianglediamonds.svg	6	yes	57	0	564	0	0			0	0			1				0	
6.6.1	mac	2023-06-14	07:15:04	07:18:27	201070	607f0b70818fde7990b3992d	4	1	practice_z	5	practice_z	31	stimuli_target_rectanglediamonds.svg	stimuli_distractor_diamondtriangles.svg	1	yes	44	1	1090	0	0			0	0			1				0	
6.6.1	mac	2023-06-14	07:15:04	07:18:27	201070	607f0b70818fde7990b3992d	4	1	practice_z	5	advance_on_keypress_ZEE	32	stimuli_target_rectanglediamonds.svg	stimuli_distractor_diamondtriangles.svg	1	yes	57	0	505	0	0			0	0			1				0	
6.6.1	mac	2023-06-14	07:15:04	07:18:39	213043	607f0b70818fde7990b3992d	4	1	main_z	7	main_z	1	stimuli_target_trianglesquares.svg	stimuli_distractor_diamondtriangles.svg	22	yes	44	1	815	0	0			0	0			1				0	
6.6.1	mac	2023-06-14	07:15:04	07:18:39	213043	607f0b70818fde7990b3992d	4	1	main_z	7	advance_on_keypress_ZEE	2	stimuli_target_trianglesquares.svg	stimuli_distractor_diamondtriangles.svg	22	yes	57	0	2029	0	0			0	0			1				0	
6.6.1	mac	2023-06-14	07:15:04	07:18:43	216605	607f0b70818fde7990b3992d	4	1	main_z	7	main_z	3	stimuli_target_diamondsquares.svg	stimuli_distractor_diamondtriangles.svg	24	yes	44	1	897	0	0			0	0			1				0	
6.6.1	mac	2023-06-14	07:15:04	07:18:43	216605	607f0b70818fde7990b3992d	4	1	main_z	7	advance_on_keypress_ZEE	4	stimuli_target_diamondsquares.svg	stimuli_distractor_diamondtriangles.svg	24	yes	57	0	1229	0	0			0	0			1				0	
6.6.1	mac	2023-06-14	07:15:04	07:18:46	219516	607f0b70818fde7990b3992d	4	1	main_z	7	main_z	5	stimuli_distractor_diamondtriangles.svg	stimuli_target_trianglerectangles.svg	29	yes	44	1	1038	0	0			0	0			1				0	
6.6.1	mac	2023-06-14	07:15:04	07:18:46	219516	607f0b70818fde7990b3992d	4	1	main_z	7	advance_on_keypress_ZEE	6	stimuli_distractor_diamondtriangles.svg	stimuli_target_trianglerectangles.svg	29	yes	57	0	1155	0	0			0	0			1				0	
6.6.1	mac	2023-06-14	07:15:04	07:18:49	223291	607f0b70818fde7990b3992d	4	1	main_z	7	main_z	7	stimuli_distractor_diamondtriangles.svg	stimuli_distractor_diamondtriangles.svg	40	no	0	1	2000	0	0			0	0			1				0	
6.6.1	mac	2023-06-14	07:15:04	07:18:49	223291	607f0b70818fde7990b3992d	4	1	main_z	7	advance_on_keypress_ZEE	8	stimuli_distractor_diamondtriangles.svg	stimuli_distractor_diamondtriangles.svg	40	no	57	0	859	0	0			0	0			1				0	
6.6.1	mac	2023-06-14	07:15:04	07:18:52	225738	607f0b70818fde7990b3992d	4	1	main_z	7	main_z	9	stimuli_target_squaretriangles.svg	stimuli_distractor_trianglediamonds.svg	3	yes	44	1	943	0	0			0	0			1				0	
6.6.1	mac	2023-06-14	07:15:04	07:18:52	225738	607f0b70818fde7990b3992d	4	1	main_z	7	advance_on_keypress_ZEE	10	stimuli_target_squaretriangles.svg	stimuli_distractor_trianglediamonds.svg	3	yes	57	0	2510	0	0			0	0			1				0	
6.6.1	mac	2023-06-14	07:15:04	07:18:57	230613	607f0b70818fde7990b3992d	4	1	main_z	7	main_z	11	stimuli_distractor_trianglediamonds.svg	stimuli_distractor_trianglediamonds.svg	34	no	44	0	1715	0	0			0	0			1				0	
6.6.1	mac	2023-06-14	07:15:04	07:18:57	230613	607f0b70818fde7990b3992d	4	1	main_z	7	advance_on_keypress_ZEE	12	stimuli_distractor_trianglediamonds.svg	stimuli_distractor_trianglediamonds.svg	34	no	57	0	1069	0	0			0	0			1				0	
6.6.1	mac	2023-06-14	07:15:04	07:19:00	233949	607f0b70818fde7990b3992d	4	1	main_z	7	main_z	13	stimuli_target_squarediamonds.svg	stimuli_distractor_diamondtriangles.svg	8	yes	44	1	1638	0	0			0	0			1				0	
6.6.1	mac	2023-06-14	07:15:04	07:19:00	233949	607f0b70818fde7990b3992d	4	1	main_z	7	advance_on_keypress_ZEE	14	stimuli_target_squarediamonds.svg	stimuli_distractor_diamondtriangles.svg	8	yes	57	0	1319	0	0			0	0			1				0	
6.6.1	mac	2023-06-14	07:15:04	07:19:03	237093	607f0b70818fde7990b3992d	4	1	main_z	7	main_z	15	stimuli_distractor_trianglediamonds.svg	stimuli_target_trianglerectangles.svg	25	yes	44	1	1197	0	0			0	0			1				0	
6.6.1	mac	2023-06-14	07:15:04	07:19:03	237093	607f0b70818fde7990b3992d	4	1	main_z	7	advance_on_keypress_ZEE	16	stimuli_distractor_trianglediamonds.svg	stimuli_target_trianglerectangles.svg	25	yes	57	0	942	0	0			0	0			1				0	
6.6.1	mac	2023-06-14	07:15:04	07:19:06	239894	607f0b70818fde7990b3992d	4	1	main_z	7	main_z	17	stimuli_target_diamondrectangles.svg	stimuli_distractor_trianglediamonds.svg	19	yes	44	1	1232	0	0			0	0			1				0	
6.6.1	mac	2023-06-14	07:15:04	07:19:06	239894	607f0b70818fde7990b3992d	4	1	main_z	7	advance_on_keypress_ZEE	18	stimuli_target_diamondrectangles.svg	stimuli_distractor_trianglediamonds.svg	19	yes	57	0	1085	0	0			0	0			1				0	
6.6.1	mac	2023-06-14	07:15:04	07:19:10	243607	607f0b70818fde7990b3992d	4	1	main_z	7	main_z	19	stimuli_distractor_trianglediamonds.svg	stimuli_distractor_trianglediamonds.svg	33	no	0	1	2000	0	0			0	0			1				0	
6.6.1	mac	2023-06-14	07:15:04	07:19:10	243607	607f0b70818fde7990b3992d	4	1	main_z	7	advance_on_keypress_ZEE	20	stimuli_distractor_trianglediamonds.svg	stimuli_distractor_trianglediamonds.svg	33	no	57	0	1000	0	0			0	0			1				0	
6.6.1	mac	2023-06-14	07:15:04	07:19:13	247241	607f0b70818fde7990b3992d	4	1	main_z	7	main_z	21	stimuli_distractor_trianglediamonds.svg	stimuli_distractor_diamondtriangles.svg	35	no	0	1	2000	0	0			0	0			1				0	
6.6.1	mac	2023-06-14	07:15:04	07:19:13	247241	607f0b70818fde7990b3992d	4	1	main_z	7	advance_on_keypress_ZEE	22	stimuli_distractor_trianglediamonds.svg	stimuli_distractor_diamondtriangles.svg	35	no	57	0	922	0	0			0	0			1				0	
6.6.1	mac	2023-06-14	07:15:04	07:19:16	249856	607f0b70818fde7990b3992d	4	1	main_z	7	main_z	23	stimuli_target_diamondsquares.svg	stimuli_distractor_trianglediamonds.svg	20	yes	44	1	1062	0	0			0	0			1				0	
6.6.1	mac	2023-06-14	07:15:04	07:19:16	249856	607f0b70818fde7990b3992d	4	1	main_z	7	advance_on_keypress_ZEE	24	stimuli_target_diamondsquares.svg	stimuli_distractor_trianglediamonds.svg	20	yes	57	0	1206	0	0			0	0			1				0	
6.6.1	mac	2023-06-14	07:15:04	07:19:19	252731	607f0b70818fde7990b3992d	4	1	main_z	7	main_z	25	stimuli_target_rectangletriangles.svg	stimuli_distractor_trianglediamonds.svg	1	yes	44	1	1037	0	0			0	0			1				0	
6.6.1	mac	2023-06-14	07:15:04	07:19:19	252731	607f0b70818fde7990b3992d	4	1	main_z	7	advance_on_keypress_ZEE	26	stimuli_target_rectangletriangles.svg	stimuli_distractor_trianglediamonds.svg	1	yes	57	0	1176	0	0			0	0			1				0	
6.6.1	mac	2023-06-14	07:15:04	07:19:22	255567	607f0b70818fde7990b3992d	4	1	main_z	7	main_z	27	stimuli_target_rectanglediamonds.svg	stimuli_distractor_diamondtriangles.svg	6	yes	44	1	1021	0	0			0	0			1				0	
6.6.1	mac	2023-06-14	07:15:04	07:19:22	255567	607f0b70818fde7990b3992d	4	1	main_z	7	advance_on_keypress_ZEE	28	stimuli_target_rectanglediamonds.svg	stimuli_distractor_diamondtriangles.svg	6	yes	57	0	1292	0	0			0	0			1				0	
6.6.1	mac	2023-06-14	07:15:04	07:19:26	259491	607f0b70818fde7990b3992d	4	1	main_z	7	main_z	29	stimuli_distractor_diamondtriangles.svg	stimuli_distractor_diamondtriangles.svg	39	no	0	1	2000	0	0			0	0			1				0	
6.6.1	mac	2023-06-14	07:15:04	07:19:26	259491	607f0b70818fde7990b3992d	4	1	main_z	7	advance_on_keypress_ZEE	30	stimuli_distractor_diamondtriangles.svg	stimuli_distractor_diamondtriangles.svg	39	no	57	0	736	0	0			0	0			1				0	
6.6.1	mac	2023-06-14	07:15:04	07:19:29	262858	607f0b70818fde7990b3992d	4	1	main_z	7	main_z	31	stimuli_distractor_trianglediamonds.svg	stimuli_distractor_diamondtriangles.svg	36	no	0	1	2000	0	0			0	0			1				0	
6.6.1	mac	2023-06-14	07:15:04	07:19:29	262858	607f0b70818fde7990b3992d	4	1	main_z	7	advance_on_keypress_ZEE	32	stimuli_distractor_trianglediamonds.svg	stimuli_distractor_diamondtriangles.svg	36	no	57	0	887	0	0			0	0			1				0	
6.6.1	mac	2023-06-14	07:15:04	07:19:32	265433	607f0b70818fde7990b3992d	4	1	main_z	7	main_z	33	stimuli_distractor_trianglediamonds.svg	stimuli_target_diamondrectangles.svg	27	yes	44	1	1055	0	0			0	0			1				0	
6.6.1	mac	2023-06-14	07:15:04	07:19:32	265433	607f0b70818fde7990b3992d	4	1	main_z	7	advance_on_keypress_ZEE	34	stimuli_distractor_trianglediamonds.svg	stimuli_target_diamondrectangles.svg	27	yes	57	0	1191	0	0			0	0			1				0	
6.6.1	mac	2023-06-14	07:15:04	07:19:35	268546	607f0b70818fde7990b3992d	4	1	main_z	7	main_z	35	stimuli_distractor_diamondtriangles.svg	stimuli_target_rectanglediamonds.svg	14	yes	44	1	1285	0	0			0	0			1				0	
6.6.1	mac	2023-06-14	07:15:04	07:19:35	268546	607f0b70818fde7990b3992d	4	1	main_z	7	advance_on_keypress_ZEE	36	stimuli_distractor_diamondtriangles.svg	stimuli_target_rectanglediamonds.svg	14	yes	57	0	1243	0	0			0	0			1				0	
6.6.1	mac	2023-06-14	07:15:04	07:19:38	271755	607f0b70818fde7990b3992d	4	1	main_z	7	main_z	37	stimuli_distractor_diamondtriangles.svg	stimuli_target_trianglesquares.svg	30	yes	44	1	1330	0	0			0	0			1				0	
6.6.1	mac	2023-06-14	07:15:04	07:19:38	271755	607f0b70818fde7990b3992d	4	1	main_z	7	advance_on_keypress_ZEE	38	stimuli_distractor_diamondtriangles.svg	stimuli_target_trianglesquares.svg	30	yes	57	0	1101	0	0			0	0			1				0	
6.6.1	mac	2023-06-14	07:15:04	07:19:41	274912	607f0b70818fde7990b3992d	4	1	main_z	7	main_z	39	stimuli_distractor_diamondtriangles.svg	stimuli_target_diamondsquares.svg	32	yes	44	1	1417	0	0			0	0			1				0	
6.6.1	mac	2023-06-14	07:15:04	07:19:41	274912	607f0b70818fde7990b3992d	4	1	main_z	7	advance_on_keypress_ZEE	40	stimuli_distractor_diamondtriangles.svg	stimuli_target_diamondsquares.svg	32	yes	57	0	1080	0	0			0	0			1				0	
6.6.1	mac	2023-06-14	07:15:04	07:19:44	277877	607f0b70818fde7990b3992d	4	1	main_z	7	main_z	41	stimuli_distractor_diamondtriangles.svg	stimuli_target_diamondrectangles.svg	31	yes	44	1	1250	0	0			0	0			1				0	
6.6.1	mac	2023-06-14	07:15:04	07:19:44	277877	607f0b70818fde7990b3992d	4	1	main_z	7	advance_on_keypress_ZEE	42	stimuli_distractor_diamondtriangles.svg	stimuli_target_diamondrectangles.svg	31	yes	57	0	976	0	0			0	0			1				0	
6.6.1	mac	2023-06-14	07:15:04	07:19:47	281341	607f0b70818fde7990b3992d	4	1	main_z	7	main_z	43	stimuli_target_squaretriangles.svg	stimuli_distractor_diamondtriangles.svg	7	yes	44	1	1862	0	0			0	0			1				0	
6.6.1	mac	2023-06-14	07:15:04	07:19:47	281341	607f0b70818fde7990b3992d	4	1	main_z	7	advance_on_keypress_ZEE	44	stimuli_target_squaretriangles.svg	stimuli_distractor_diamondtriangles.svg	7	yes	57	0	838	0	0			0	0			1				0	
6.6.1	mac	2023-06-14	07:15:04	07:19:51	284826	607f0b70818fde7990b3992d	4	1	main_z	7	main_z	45	stimuli_distractor_diamondtriangles.svg	stimuli_target_squaretriangles.svg	15	yes	0	0	2000	0	0			0	0			1				0	
6.6.1	mac	2023-06-14	07:15:04	07:19:51	284826	607f0b70818fde7990b3992d	4	1	main_z	7	advance_on_keypress_ZEE	46	stimuli_distractor_diamondtriangles.svg	stimuli_target_squaretriangles.svg	15	yes	57	0	679	0	0			0	0			1				0	
6.6.1	mac	2023-06-14	07:15:04	07:19:54	287556	607f0b70818fde7990b3992d	4	1	main_z	7	main_z	47	stimuli_distractor_trianglediamonds.svg	stimuli_target_diamondsquares.svg	28	yes	44	1	1411	0	0			0	0			1				0	
6.6.1	mac	2023-06-14	07:15:04	07:19:54	287556	607f0b70818fde7990b3992d	4	1	main_z	7	advance_on_keypress_ZEE	48	stimuli_distractor_trianglediamonds.svg	stimuli_target_diamondsquares.svg	28	yes	57	0	871	0	0			0	0			1				0	
6.6.1	mac	2023-06-14	07:15:04	07:19:56	290199	607f0b70818fde7990b3992d	4	1	main_z	7	main_z	49	stimuli_target_squarediamonds.svg	stimuli_distractor_trianglediamonds.svg	4	yes	44	1	1137	0	0			0	0			1				0	
6.6.1	mac	2023-06-14	07:15:04	07:19:56	290199	607f0b70818fde7990b3992d	4	1	main_z	7	advance_on_keypress_ZEE	50	stimuli_target_squarediamonds.svg	stimuli_distractor_trianglediamonds.svg	4	yes	57	0	1223	0	0			0	0			1				0	
6.6.1	mac	2023-06-14	07:15:04	07:20:00	293381	607f0b70818fde7990b3992d	4	1	main_z	7	main_z	51	stimuli_distractor_trianglediamonds.svg	stimuli_target_squarediamonds.svg	12	yes	44	1	1336	0	0			0	0			1				0	
6.6.1	mac	2023-06-14	07:15:04	07:20:00	293381	607f0b70818fde7990b3992d	4	1	main_z	7	advance_on_keypress_ZEE	52	stimuli_distractor_trianglediamonds.svg	stimuli_target_squarediamonds.svg	12	yes	57	0	975	0	0			0	0			1				0	
6.6.1	mac	2023-06-14	07:15:04	07:20:02	296142	607f0b70818fde7990b3992d	4	1	main_z	7	main_z	53	stimuli_target_trianglerectangles.svg	stimuli_distractor_trianglediamonds.svg	17	yes	44	1	1148	0	0			0	0			1				0	
6.6.1	mac	2023-06-14	07:15:04	07:20:02	296142	607f0b70818fde7990b3992d	4	1	main_z	7	advance_on_keypress_ZEE	54	stimuli_target_trianglerectangles.svg	stimuli_distractor_trianglediamonds.svg	17	yes	57	0	867	0	0			0	0			1				0	
6.6.1	mac	2023-06-14	07:15:04	07:20:05	298891	607f0b70818fde7990b3992d	4	1	main_z	7	main_z	55	stimuli_target_diamondrectangles.svg	stimuli_distractor_diamondtriangles.svg	23	yes	44	1	1247	0	0			0	0			1				0	
6.6.1	mac	2023-06-14	07:15:04	07:20:05	298891	607f0b70818fde7990b3992d	4	1	main_z	7	advance_on_keypress_ZEE	56	stimuli_target_diamondrectangles.svg	stimuli_distractor_diamondtriangles.svg	23	yes	57	0	888	0	0			0	0			1				0	
6.6.1	mac	2023-06-14	07:15:04	07:20:07	301360	607f0b70818fde7990b3992d	4	1	main_z	7	main_z	57	stimuli_distractor_trianglediamonds.svg	stimuli_target_rectanglediamonds.svg	10	yes	44	1	948	0	0			0	0			1				0	
6.6.1	mac	2023-06-14	07:15:04	07:20:07	301360	607f0b70818fde7990b3992d	4	1	main_z	7	advance_on_keypress_ZEE	58	stimuli_distractor_trianglediamonds.svg	stimuli_target_rectanglediamonds.svg	10	yes	57	0	815	0	0			0	0			1				0	
6.6.1	mac	2023-06-14	07:15:04	07:20:10	303898	607f0b70818fde7990b3992d	4	1	main_z	7	main_z	59	stimuli_distractor_trianglediamonds.svg	stimuli_target_trianglesquares.svg	26	yes	44	1	1087	0	0			0	0			1				0	
6.6.1	mac	2023-06-14	07:15:04	07:20:10	303898	607f0b70818fde7990b3992d	4	1	main_z	7	advance_on_keypress_ZEE	60	stimuli_distractor_trianglediamonds.svg	stimuli_target_trianglesquares.svg	26	yes	57	0	767	0	0			0	0			1				0	
6.6.1	mac	2023-06-14	07:15:04	07:20:13	306458	607f0b70818fde7990b3992d	4	1	main_z	7	main_z	61	stimuli_target_trianglerectangles.svg	stimuli_distractor_diamondtriangles.svg	21	yes	44	1	1164	0	0			0	0			1				0	
6.6.1	mac	2023-06-14	07:15:04	07:20:13	306458	607f0b70818fde7990b3992d	4	1	main_z	7	advance_on_keypress_ZEE	62	stimuli_target_trianglerectangles.svg	stimuli_distractor_diamondtriangles.svg	21	yes	57	0	752	0	0			0	0			1				0	
6.6.1	mac	2023-06-14	07:15:04	07:20:15	309001	607f0b70818fde7990b3992d	4	1	main_z	7	main_z	63	stimuli_target_trianglesquares.svg	stimuli_distractor_trianglediamonds.svg	18	yes	44	1	1157	0	0			0	0			1				0	
6.6.1	mac	2023-06-14	07:15:04	07:20:15	309001	607f0b70818fde7990b3992d	4	1	main_z	7	advance_on_keypress_ZEE	64	stimuli_target_trianglesquares.svg	stimuli_distractor_trianglediamonds.svg	18	yes	57	0	787	0	0			0	0			1				0	
6.6.1	mac	2023-06-14	07:15:04	07:20:18	311598	607f0b70818fde7990b3992d	4	1	main_z	7	main_z	65	stimuli_target_rectanglediamonds.svg	stimuli_distractor_trianglediamonds.svg	2	yes	44	1	1187	0	0			0	0			1				0	
6.6.1	mac	2023-06-14	07:15:04	07:20:18	311598	607f0b70818fde7990b3992d	4	1	main_z	7	advance_on_keypress_ZEE	66	stimuli_target_rectanglediamonds.svg	stimuli_distractor_trianglediamonds.svg	2	yes	57	0	852	0	0			0	0			1				0	
6.6.1	mac	2023-06-14	07:15:04	07:20:20	314284	607f0b70818fde7990b3992d	4	1	main_z	7	main_z	67	stimuli_distractor_diamondtriangles.svg	stimuli_target_squarediamonds.svg	16	yes	44	1	1205	0	0			0	0			1				0	
6.6.1	mac	2023-06-14	07:15:04	07:20:20	314284	607f0b70818fde7990b3992d	4	1	main_z	7	advance_on_keypress_ZEE	68	stimuli_distractor_diamondtriangles.svg	stimuli_target_squarediamonds.svg	16	yes	57	0	874	0	0			0	0			1				0	
6.6.1	mac	2023-06-14	07:15:04	07:20:24	317791	607f0b70818fde7990b3992d	4	1	main_z	7	main_z	69	stimuli_distractor_diamondtriangles.svg	stimuli_target_rectangletriangles.svg	13	yes	0	0	2000	0	0			0	0			1				0	
6.6.1	mac	2023-06-14	07:15:04	07:20:24	317791	607f0b70818fde7990b3992d	4	1	main_z	7	advance_on_keypress_ZEE	70	stimuli_distractor_diamondtriangles.svg	stimuli_target_rectangletriangles.svg	13	yes	57	0	758	0	0			0	0			1				0	
6.6.1	mac	2023-06-14	07:15:04	07:20:27	321120	607f0b70818fde7990b3992d	4	1	main_z	7	main_z	71	stimuli_distractor_diamondtriangles.svg	stimuli_distractor_trianglediamonds.svg	38	no	44	0	1941	0	0			0	0			1				0	
6.6.1	mac	2023-06-14	07:15:04	07:20:27	321120	607f0b70818fde7990b3992d	4	1	main_z	7	advance_on_keypress_ZEE	72	stimuli_distractor_diamondtriangles.svg	stimuli_distractor_trianglediamonds.svg	38	no	57	0	677	0	0			0	0			1				0	
6.6.1	mac	2023-06-14	07:15:04	07:20:30	323464	607f0b70818fde7990b3992d	4	1	main_z	7	main_z	73	stimuli_target_rectangletriangles.svg	stimuli_distractor_diamondtriangles.svg	5	yes	44	1	1020	0	0			0	0			1				0	
6.6.1	mac	2023-06-14	07:15:04	07:20:30	323464	607f0b70818fde7990b3992d	4	1	main_z	7	advance_on_keypress_ZEE	74	stimuli_target_rectangletriangles.svg	stimuli_distractor_diamondtriangles.svg	5	yes	57	0	573	0	0			0	0			1				0	
6.6.1	mac	2023-06-14	07:15:04	07:20:33	326658	607f0b70818fde7990b3992d	4	1	main_z	7	main_z	75	stimuli_distractor_trianglediamonds.svg	stimuli_target_squaretriangles.svg	11	yes	0	0	2000	0	0			0	0			1				0	
6.6.1	mac	2023-06-14	07:15:04	07:20:33	326658	607f0b70818fde7990b3992d	4	1	main_z	7	advance_on_keypress_ZEE	76	stimuli_distractor_trianglediamonds.svg	stimuli_target_squaretriangles.svg	11	yes	57	0	694	0	0			0	0			1				0	
6.6.1	mac	2023-06-14	07:15:04	07:20:35	329045	607f0b70818fde7990b3992d	4	1	main_z	7	main_z	77	stimuli_distractor_trianglediamonds.svg	stimuli_target_rectangletriangles.svg	9	yes	44	1	1051	0	0			0	0			1				0	
6.6.1	mac	2023-06-14	07:15:04	07:20:35	329045	607f0b70818fde7990b3992d	4	1	main_z	7	advance_on_keypress_ZEE	78	stimuli_distractor_trianglediamonds.svg	stimuli_target_rectangletriangles.svg	9	yes	57	0	570	0	0			0	0			1				0	
6.6.1	mac	2023-06-14	07:15:04	07:20:38	332239	607f0b70818fde7990b3992d	4	1	main_z	7	main_z	79	stimuli_distractor_diamondtriangles.svg	stimuli_distractor_trianglediamonds.svg	37	no	0	1	2000	0	0			0	0			1				0	
6.6.1	mac	2023-06-14	07:15:04	07:20:38	332239	607f0b70818fde7990b3992d	4	1	main_z	7	advance_on_keypress_ZEE	80	stimuli_distractor_diamondtriangles.svg	stimuli_distractor_trianglediamonds.svg	37	no	57	0	556	0	0			0	0			1				0	
6.6.1	mac	2023-06-14	07:15:04	07:20:42	335428	607f0b70818fde7990b3992d	4	1	main_z	7	main_z	81	stimuli_distractor_trianglediamonds.svg	stimuli_distractor_diamondtriangles.svg	35	no	0	1	2000	0	0			0	0			1				0	
6.6.1	mac	2023-06-14	07:15:04	07:20:42	335428	607f0b70818fde7990b3992d	4	1	main_z	7	advance_on_keypress_ZEE	82	stimuli_distractor_trianglediamonds.svg	stimuli_distractor_diamondtriangles.svg	35	no	57	0	674	0	0			0	0			1				0	
6.6.1	mac	2023-06-14	07:15:04	07:20:44	338022	607f0b70818fde7990b3992d	4	1	main_z	7	main_z	83	stimuli_distractor_trianglediamonds.svg	stimuli_target_trianglerectangles.svg	25	yes	44	1	1276	0	0			0	0			1				0	
6.6.1	mac	2023-06-14	07:15:04	07:20:44	338022	607f0b70818fde7990b3992d	4	1	main_z	7	advance_on_keypress_ZEE	84	stimuli_distractor_trianglediamonds.svg	stimuli_target_trianglerectangles.svg	25	yes	57	0	643	0	0			0	0			1				0	
6.6.1	mac	2023-06-14	07:15:04	07:20:47	340389	607f0b70818fde7990b3992d	4	1	main_z	7	main_z	85	stimuli_target_diamondrectangles.svg	stimuli_distractor_diamondtriangles.svg	23	yes	44	1	1078	0	0			0	0			1				0	
6.6.1	mac	2023-06-14	07:15:04	07:20:47	340389	607f0b70818fde7990b3992d	4	1	main_z	7	advance_on_keypress_ZEE	86	stimuli_target_diamondrectangles.svg	stimuli_distractor_diamondtriangles.svg	23	yes	57	0	658	0	0			0	0			1				0	
6.6.1	mac	2023-06-14	07:15:04	07:20:50	343691	607f0b70818fde7990b3992d	4	1	main_z	7	main_z	87	stimuli_distractor_diamondtriangles.svg	stimuli_distractor_trianglediamonds.svg	37	no	0	1	2000	0	0			0	0			1				0	
6.6.1	mac	2023-06-14	07:15:04	07:20:50	343691	607f0b70818fde7990b3992d	4	1	main_z	7	advance_on_keypress_ZEE	88	stimuli_distractor_diamondtriangles.svg	stimuli_distractor_trianglediamonds.svg	37	no	57	0	772	0	0			0	0			1				0	
6.6.1	mac	2023-06-14	07:15:04	07:20:53	346644	607f0b70818fde7990b3992d	4	1	main_z	7	main_z	89	stimuli_target_diamondsquares.svg	stimuli_distractor_diamondtriangles.svg	24	yes	44	1	1548	0	0			0	0			1				0	
6.6.1	mac	2023-06-14	07:15:04	07:20:53	346644	607f0b70818fde7990b3992d	4	1	main_z	7	advance_on_keypress_ZEE	90	stimuli_target_diamondsquares.svg	stimuli_distractor_diamondtriangles.svg	24	yes	57	0	698	0	0			0	0			1				0	
6.6.1	mac	2023-06-14	07:15:04	07:20:55	349079	607f0b70818fde7990b3992d	4	1	main_z	7	main_z	91	stimuli_distractor_trianglediamonds.svg	stimuli_target_trianglesquares.svg	26	yes	44	1	1101	0	0			0	0			1				0	
6.6.1	mac	2023-06-14	07:15:04	07:20:55	349079	607f0b70818fde7990b3992d	4	1	main_z	7	advance_on_keypress_ZEE	92	stimuli_distractor_trianglediamonds.svg	stimuli_target_trianglesquares.svg	26	yes	57	0	663	0	0			0	0			1				0	
6.6.1	mac	2023-06-14	07:15:04	07:20:58	351433	607f0b70818fde7990b3992d	4	1	main_z	7	main_z	93	stimuli_target_trianglesquares.svg	stimuli_distractor_trianglediamonds.svg	18	yes	44	1	1055	0	0			0	0			1				0	
6.6.1	mac	2023-06-14	07:15:04	07:20:58	351433	607f0b70818fde7990b3992d	4	1	main_z	7	advance_on_keypress_ZEE	94	stimuli_target_trianglesquares.svg	stimuli_distractor_trianglediamonds.svg	18	yes	57	0	747	0	0			0	0			1				0	
6.6.1	mac	2023-06-14	07:15:04	07:21:00	354268	607f0b70818fde7990b3992d	4	1	main_z	7	main_z	95	stimuli_distractor_diamondtriangles.svg	stimuli_target_rectangletriangles.svg	13	yes	44	1	1457	0	0			0	0			1				0	
6.6.1	mac	2023-06-14	07:15:04	07:21:00	354268	607f0b70818fde7990b3992d	4	1	main_z	7	advance_on_keypress_ZEE	96	stimuli_distractor_diamondtriangles.svg	stimuli_target_rectangletriangles.svg	13	yes	57	0	691	0	0			0	0			1				0	
6.6.1	mac	2023-06-14	07:15:04	07:21:04	357592	607f0b70818fde7990b3992d	4	1	main_z	7	main_z	97	stimuli_distractor_diamondtriangles.svg	stimuli_distractor_diamondtriangles.svg	40	no	0	1	2000	0	0			0	0			1				0	
6.6.1	mac	2023-06-14	07:15:04	07:21:04	357592	607f0b70818fde7990b3992d	4	1	main_z	7	advance_on_keypress_ZEE	98	stimuli_distractor_diamondtriangles.svg	stimuli_distractor_diamondtriangles.svg	40	no	57	0	591	0	0			0	0			1				0	
6.6.1	mac	2023-06-14	07:15:04	07:21:06	359876	607f0b70818fde7990b3992d	4	1	main_z	7	main_z	99	stimuli_target_diamondsquares.svg	stimuli_distractor_trianglediamonds.svg	20	yes	44	1	1065	0	0			0	0			1				0	
6.6.1	mac	2023-06-14	07:15:04	07:21:06	359876	607f0b70818fde7990b3992d	4	1	main_z	7	advance_on_keypress_ZEE	100	stimuli_target_diamondsquares.svg	stimuli_distractor_trianglediamonds.svg	20	yes	57	0	609	0	0			0	0			1				0	
6.6.1	mac	2023-06-14	07:15:04	07:21:08	362140	607f0b70818fde7990b3992d	4	1	main_z	7	main_z	101	stimuli_target_rectangletriangles.svg	stimuli_distractor_trianglediamonds.svg	1	yes	44	1	1027	0	0			0	0			1				0	
6.6.1	mac	2023-06-14	07:15:04	07:21:08	362140	607f0b70818fde7990b3992d	4	1	main_z	7	advance_on_keypress_ZEE	102	stimuli_target_rectangletriangles.svg	stimuli_distractor_trianglediamonds.svg	1	yes	57	0	516	0	0			0	0			1				0	
6.6.1	mac	2023-06-14	07:15:04	07:21:11	364547	607f0b70818fde7990b3992d	4	1	main_z	7	main_z	103	stimuli_distractor_trianglediamonds.svg	stimuli_target_diamondsquares.svg	28	yes	44	1	1256	0	0			0	0			1				0	
6.6.1	mac	2023-06-14	07:15:04	07:21:11	364547	607f0b70818fde7990b3992d	4	1	main_z	7	advance_on_keypress_ZEE	104	stimuli_distractor_trianglediamonds.svg	stimuli_target_diamondsquares.svg	28	yes	57	0	545	0	0			0	0			1				0	
6.6.1	mac	2023-06-14	07:15:04	07:21:13	366783	607f0b70818fde7990b3992d	4	1	main_z	7	main_z	105	stimuli_target_squarediamonds.svg	stimuli_distractor_trianglediamonds.svg	4	yes	44	1	1054	0	0			0	0			1				0	
6.6.1	mac	2023-06-14	07:15:04	07:21:13	366783	607f0b70818fde7990b3992d	4	1	main_z	7	advance_on_keypress_ZEE	106	stimuli_target_squarediamonds.svg	stimuli_distractor_trianglediamonds.svg	4	yes	57	0	583	0	0			0	0			1				0	
6.6.1	mac	2023-06-14	07:15:04	07:21:16	369990	607f0b70818fde7990b3992d	4	1	main_z	7	main_z	107	stimuli_distractor_trianglediamonds.svg	stimuli_distractor_trianglediamonds.svg	33	no	0	1	2000	0	0			0	0			1				0	
6.6.1	mac	2023-06-14	07:15:04	07:21:16	369990	607f0b70818fde7990b3992d	4	1	main_z	7	advance_on_keypress_ZEE	108	stimuli_distractor_trianglediamonds.svg	stimuli_distractor_trianglediamonds.svg	33	no	57	0	547	0	0			0	0			1				0	
6.6.1	mac	2023-06-14	07:15:04	07:21:18	372189	607f0b70818fde7990b3992d	4	1	main_z	7	main_z	109	stimuli_target_squarediamonds.svg	stimuli_distractor_diamondtriangles.svg	8	yes	44	1	1014	0	0			0	0			1				0	
6.6.1	mac	2023-06-14	07:15:04	07:21:18	372189	607f0b70818fde7990b3992d	4	1	main_z	7	advance_on_keypress_ZEE	110	stimuli_target_squarediamonds.svg	stimuli_distractor_diamondtriangles.svg	8	yes	57	0	505	0	0			0	0			1				0	
6.6.1	mac	2023-06-14	07:15:04	07:21:21	374450	607f0b70818fde7990b3992d	4	1	main_z	7	main_z	111	stimuli_target_rectanglediamonds.svg	stimuli_distractor_trianglediamonds.svg	2	yes	44	1	1125	0	0			0	0			1				0	
6.6.1	mac	2023-06-14	07:15:04	07:21:21	374450	607f0b70818fde7990b3992d	4	1	main_z	7	advance_on_keypress_ZEE	112	stimuli_target_rectanglediamonds.svg	stimuli_distractor_trianglediamonds.svg	2	yes	57	0	584	0	0			0	0			1				0	
6.6.1	mac	2023-06-14	07:15:04	07:21:23	376699	607f0b70818fde7990b3992d	4	1	main_z	7	main_z	113	stimuli_target_rectanglediamonds.svg	stimuli_distractor_diamondtriangles.svg	6	yes	44	1	1038	0	0			0	0			1				0	
6.6.1	mac	2023-06-14	07:15:04	07:21:23	376699	607f0b70818fde7990b3992d	4	1	main_z	7	advance_on_keypress_ZEE	114	stimuli_target_rectanglediamonds.svg	stimuli_distractor_diamondtriangles.svg	6	yes	57	0	624	0	0			0	0			1				0	
6.6.1	mac	2023-06-14	07:15:04	07:21:25	378964	607f0b70818fde7990b3992d	4	1	main_z	7	main_z	115	stimuli_target_trianglesquares.svg	stimuli_distractor_diamondtriangles.svg	22	yes	44	1	1022	0	0			0	0			1				0	
6.6.1	mac	2023-06-14	07:15:04	07:21:25	378964	607f0b70818fde7990b3992d	4	1	main_z	7	advance_on_keypress_ZEE	116	stimuli_target_trianglesquares.svg	stimuli_distractor_diamondtriangles.svg	22	yes	57	0	639	0	0			0	0			1				0	
6.6.1	mac	2023-06-14	07:15:04	07:21:27	381356	607f0b70818fde7990b3992d	4	1	main_z	7	main_z	117	stimuli_distractor_trianglediamonds.svg	stimuli_target_rectangletriangles.svg	9	yes	44	1	1130	0	0			0	0			1				0	
6.6.1	mac	2023-06-14	07:15:04	07:21:27	381356	607f0b70818fde7990b3992d	4	1	main_z	7	advance_on_keypress_ZEE	118	stimuli_distractor_trianglediamonds.svg	stimuli_target_rectangletriangles.svg	9	yes	57	0	577	0	0			0	0			1				0	
6.6.1	mac	2023-06-14	07:15:04	07:21:30	383509	607f0b70818fde7990b3992d	4	1	main_z	7	main_z	119	stimuli_target_rectangletriangles.svg	stimuli_distractor_diamondtriangles.svg	5	yes	44	1	948	0	0			0	0			1				0	
6.6.1	mac	2023-06-14	07:15:04	07:21:30	383509	607f0b70818fde7990b3992d	4	1	main_z	7	advance_on_keypress_ZEE	120	stimuli_target_rectangletriangles.svg	stimuli_distractor_diamondtriangles.svg	5	yes	57	0	509	0	0			0	0			1				0	
6.6.1	mac	2023-06-14	07:15:04	07:21:32	385707	607f0b70818fde7990b3992d	4	1	main_z	7	main_z	121	stimuli_target_diamondrectangles.svg	stimuli_distractor_trianglediamonds.svg	19	yes	44	1	1063	0	0			0	0			1				0	
6.6.1	mac	2023-06-14	07:15:04	07:21:32	385707	607f0b70818fde7990b3992d	4	1	main_z	7	advance_on_keypress_ZEE	122	stimuli_target_diamondrectangles.svg	stimuli_distractor_trianglediamonds.svg	19	yes	57	0	638	0	0			0	0			1				0	
6.6.1	mac	2023-06-14	07:15:04	07:21:34	388080	607f0b70818fde7990b3992d	4	1	main_z	7	main_z	123	stimuli_distractor_trianglediamonds.svg	stimuli_target_rectanglediamonds.svg	10	yes	44	1	1101	0	0			0	0			1				0	
6.6.1	mac	2023-06-14	07:15:04	07:21:34	388080	607f0b70818fde7990b3992d	4	1	main_z	7	advance_on_keypress_ZEE	124	stimuli_distractor_trianglediamonds.svg	stimuli_target_rectanglediamonds.svg	10	yes	57	0	580	0	0			0	0			1				0	
6.6.1	mac	2023-06-14	07:15:04	07:21:36	390308	607f0b70818fde7990b3992d	4	1	main_z	7	main_z	125	stimuli_distractor_diamondtriangles.svg	stimuli_target_diamondsquares.svg	32	yes	44	1	1013	0	0			0	0			1				0	
6.6.1	mac	2023-06-14	07:15:04	07:21:36	390308	607f0b70818fde7990b3992d	4	1	main_z	7	advance_on_keypress_ZEE	126	stimuli_distractor_diamondtriangles.svg	stimuli_target_diamondsquares.svg	32	yes	57	0	579	0	0			0	0			1				0	
6.6.1	mac	2023-06-14	07:15:04	07:21:40	393525	607f0b70818fde7990b3992d	4	1	main_z	7	main_z	127	stimuli_distractor_trianglediamonds.svg	stimuli_distractor_trianglediamonds.svg	34	no	0	1	2000	0	0			0	0			1				0	
6.6.1	mac	2023-06-14	07:15:04	07:21:40	393525	607f0b70818fde7990b3992d	4	1	main_z	7	advance_on_keypress_ZEE	128	stimuli_distractor_trianglediamonds.svg	stimuli_distractor_trianglediamonds.svg	34	no	57	0	870	0	0			0	0			1				0	
6.6.1	mac	2023-06-14	07:15:04	07:21:42	395998	607f0b70818fde7990b3992d	4	1	main_z	7	main_z	129	stimuli_distractor_trianglediamonds.svg	stimuli_target_diamondrectangles.svg	27	yes	44	1	969	0	0			0	0			1				0	
6.6.1	mac	2023-06-14	07:15:04	07:21:42	395998	607f0b70818fde7990b3992d	4	1	main_z	7	advance_on_keypress_ZEE	130	stimuli_distractor_trianglediamonds.svg	stimuli_target_diamondrectangles.svg	27	yes	57	0	491	0	0			0	0			1				0	
6.6.1	mac	2023-06-14	07:15:04	07:21:44	398134	607f0b70818fde7990b3992d	4	1	main_z	7	main_z	131	stimuli_distractor_diamondtriangles.svg	stimuli_target_diamondrectangles.svg	31	yes	44	1	1008	0	0			0	0			1				0	
6.6.1	mac	2023-06-14	07:15:04	07:21:44	398134	607f0b70818fde7990b3992d	4	1	main_z	7	advance_on_keypress_ZEE	132	stimuli_distractor_diamondtriangles.svg	stimuli_target_diamondrectangles.svg	31	yes	57	0	444	0	0			0	0			1				0	
6.6.1	mac	2023-06-14	07:15:04	07:21:47	401209	607f0b70818fde7990b3992d	4	1	main_z	7	main_z	133	stimuli_distractor_trianglediamonds.svg	stimuli_distractor_diamondtriangles.svg	36	no	0	1	2000	0	0			0	0			1				0	
6.6.1	mac	2023-06-14	07:15:04	07:21:47	401209	607f0b70818fde7990b3992d	4	1	main_z	7	advance_on_keypress_ZEE	134	stimuli_distractor_trianglediamonds.svg	stimuli_distractor_diamondtriangles.svg	36	no	57	0	820	0	0			0	0			1				0	
6.6.1	mac	2023-06-14	07:15:04	07:21:50	403413	607f0b70818fde7990b3992d	4	1	main_z	7	main_z	135	stimuli_target_squaretriangles.svg	stimuli_distractor_trianglediamonds.svg	3	yes	44	1	752	0	0			0	0			1				0	
6.6.1	mac	2023-06-14	07:15:04	07:21:50	403413	607f0b70818fde7990b3992d	4	1	main_z	7	advance_on_keypress_ZEE	136	stimuli_target_squaretriangles.svg	stimuli_distractor_trianglediamonds.svg	3	yes	57	0	516	0	0			0	0			1				0	
6.6.1	mac	2023-06-14	07:15:04	07:21:52	405526	607f0b70818fde7990b3992d	4	1	main_z	7	main_z	137	stimuli_distractor_diamondtriangles.svg	stimuli_target_rectanglediamonds.svg	14	yes	44	1	966	0	0			0	0			1				0	
6.6.1	mac	2023-06-14	07:15:04	07:21:52	405526	607f0b70818fde7990b3992d	4	1	main_z	7	advance_on_keypress_ZEE	138	stimuli_distractor_diamondtriangles.svg	stimuli_target_rectanglediamonds.svg	14	yes	57	0	440	0	0			0	0			1				0	
6.6.1	mac	2023-06-14	07:15:04	07:21:54	407433	607f0b70818fde7990b3992d	4	1	main_z	7	main_z	139	stimuli_distractor_trianglediamonds.svg	stimuli_target_squarediamonds.svg	12	yes	44	1	838	0	0			0	0			1				0	
6.6.1	mac	2023-06-14	07:15:04	07:21:54	407433	607f0b70818fde7990b3992d	4	1	main_z	7	advance_on_keypress_ZEE	140	stimuli_distractor_trianglediamonds.svg	stimuli_target_squarediamonds.svg	12	yes	57	0	476	0	0			0	0			1				0	
6.6.1	mac	2023-06-14	07:15:04	07:21:56	409399	607f0b70818fde7990b3992d	4	1	main_z	7	main_z	141	stimuli_distractor_diamondtriangles.svg	stimuli_target_squarediamonds.svg	16	yes	44	1	854	0	0			0	0			1				0	
6.6.1	mac	2023-06-14	07:15:04	07:21:56	409399	607f0b70818fde7990b3992d	4	1	main_z	7	advance_on_keypress_ZEE	142	stimuli_distractor_diamondtriangles.svg	stimuli_target_squarediamonds.svg	16	yes	57	0	438	0	0			0	0			1				0	
6.6.1	mac	2023-06-14	07:15:04	07:21:58	411513	607f0b70818fde7990b3992d	4	1	main_z	7	main_z	143	stimuli_distractor_diamondtriangles.svg	stimuli_target_squaretriangles.svg	15	yes	44	1	1052	0	0			0	0			1				0	
6.6.1	mac	2023-06-14	07:15:04	07:21:58	411513	607f0b70818fde7990b3992d	4	1	main_z	7	advance_on_keypress_ZEE	144	stimuli_distractor_diamondtriangles.svg	stimuli_target_squaretriangles.svg	15	yes	57	0	439	0	0			0	0			1				0	
6.6.1	mac	2023-06-14	07:15:04	07:22:01	414575	607f0b70818fde7990b3992d	4	1	main_z	7	main_z	145	stimuli_distractor_diamondtriangles.svg	stimuli_distractor_diamondtriangles.svg	39	no	0	1	2000	0	0			0	0			1				0	
6.6.1	mac	2023-06-14	07:15:04	07:22:01	414575	607f0b70818fde7990b3992d	4	1	main_z	7	advance_on_keypress_ZEE	146	stimuli_distractor_diamondtriangles.svg	stimuli_distractor_diamondtriangles.svg	39	no	57	0	842	0	0			0	0			1				0	
6.6.1	mac	2023-06-14	07:15:04	07:22:03	416917	607f0b70818fde7990b3992d	4	1	main_z	7	main_z	147	stimuli_distractor_diamondtriangles.svg	stimuli_target_trianglerectangles.svg	29	yes	44	1	856	0	0			0	0			1				0	
6.6.1	mac	2023-06-14	07:15:04	07:22:03	416917	607f0b70818fde7990b3992d	4	1	main_z	7	advance_on_keypress_ZEE	148	stimuli_distractor_diamondtriangles.svg	stimuli_target_trianglerectangles.svg	29	yes	57	0	441	0	0			0	0			1				0	
6.6.1	mac	2023-06-14	07:15:04	07:22:05	418849	607f0b70818fde7990b3992d	4	1	main_z	7	main_z	149	stimuli_distractor_trianglediamonds.svg	stimuli_target_squaretriangles.svg	11	yes	44	1	854	0	0			0	0			1				0	
6.6.1	mac	2023-06-14	07:15:04	07:22:05	418849	607f0b70818fde7990b3992d	4	1	main_z	7	advance_on_keypress_ZEE	150	stimuli_distractor_trianglediamonds.svg	stimuli_target_squaretriangles.svg	11	yes	57	0	406	0	0			0	0			1				0	
6.6.1	mac	2023-06-14	07:15:04	07:22:08	421875	607f0b70818fde7990b3992d	4	1	main_z	7	main_z	151	stimuli_target_trianglerectangles.svg	stimuli_distractor_trianglediamonds.svg	17	yes	0	0	2000	0	0			0	0			1				0	
6.6.1	mac	2023-06-14	07:15:04	07:22:08	421875	607f0b70818fde7990b3992d	4	1	main_z	7	advance_on_keypress_ZEE	152	stimuli_target_trianglerectangles.svg	stimuli_distractor_trianglediamonds.svg	17	yes	57	0	654	0	0			0	0			1				0	
6.6.1	mac	2023-06-14	07:15:04	07:22:10	424307	607f0b70818fde7990b3992d	4	1	main_z	7	main_z	153	stimuli_target_trianglerectangles.svg	stimuli_distractor_diamondtriangles.svg	21	yes	44	1	1146	0	0			0	0			1				0	
6.6.1	mac	2023-06-14	07:15:04	07:22:10	424307	607f0b70818fde7990b3992d	4	1	main_z	7	advance_on_keypress_ZEE	154	stimuli_target_trianglerectangles.svg	stimuli_distractor_diamondtriangles.svg	21	yes	57	0	490	0	0			0	0			1				0	
6.6.1	mac	2023-06-14	07:15:04	07:22:12	426374	607f0b70818fde7990b3992d	4	1	main_z	7	main_z	155	stimuli_target_squaretriangles.svg	stimuli_distractor_diamondtriangles.svg	7	yes	44	1	948	0	0			0	0			1				0	
6.6.1	mac	2023-06-14	07:15:04	07:22:12	426374	607f0b70818fde7990b3992d	4	1	main_z	7	advance_on_keypress_ZEE	156	stimuli_target_squaretriangles.svg	stimuli_distractor_diamondtriangles.svg	7	yes	57	0	425	0	0			0	0			1				0	
6.6.1	mac	2023-06-14	07:15:04	07:22:15	428510	607f0b70818fde7990b3992d	4	1	main_z	7	main_z	157	stimuli_distractor_diamondtriangles.svg	stimuli_target_trianglesquares.svg	30	yes	44	1	1082	0	0			0	0			1				0	
6.6.1	mac	2023-06-14	07:15:04	07:22:15	428510	607f0b70818fde7990b3992d	4	1	main_z	7	advance_on_keypress_ZEE	158	stimuli_distractor_diamondtriangles.svg	stimuli_target_trianglesquares.svg	30	yes	57	0	438	0	0			0	0			1				0	
6.6.1	mac	2023-06-14	07:15:04	07:22:18	431594	607f0b70818fde7990b3992d	4	1	main_z	7	main_z	159	stimuli_distractor_diamondtriangles.svg	stimuli_distractor_trianglediamonds.svg	38	no	0	1	2000	0	0			0	0			1				0	
6.6.1	mac	2023-06-14	07:15:04	07:22:18	431594	607f0b70818fde7990b3992d	4	1	main_z	7	advance_on_keypress_ZEE	160	stimuli_distractor_diamondtriangles.svg	stimuli_distractor_trianglediamonds.svg	38	no	57	0	823	0	0			0	0			1				0	
6.6.1	mac	2023-06-14	07:15:04	07:22:42	455707	607f0b70818fde7990b3992d	4	1	practice_slash	9	practice_slash	1	stimuli_distractor_trianglediamonds.svg	stimuli_target_rectanglediamonds.svg	10	yes	53	1	994	0	0			0	0			1				0	
6.6.1	mac	2023-06-14	07:15:04	07:22:42	455707	607f0b70818fde7990b3992d	4	1	practice_slash	9	advance_on_keypress_SLASH	2	stimuli_distractor_trianglediamonds.svg	stimuli_target_rectanglediamonds.svg	10	yes	57	0	569	0	0			0	0			1				0	
6.6.1	mac	2023-06-14	07:15:04	07:22:45	458638	607f0b70818fde7990b3992d	4	1	practice_slash	9	practice_slash	3	stimuli_distractor_trianglediamonds.svg	stimuli_target_diamondrectangles.svg	12	yes	53	1	727	0	0			0	0			1				0	
6.6.1	mac	2023-06-14	07:15:04	07:22:45	458638	607f0b70818fde7990b3992d	4	1	practice_slash	9	advance_on_keypress_SLASH	4	stimuli_distractor_trianglediamonds.svg	stimuli_target_diamondrectangles.svg	12	yes	57	0	520	0	0			0	0			1				0	
6.6.1	mac	2023-06-14	07:15:04	07:22:48	461862	607f0b70818fde7990b3992d	4	1	practice_slash	9	practice_slash	5	stimuli_target_diamondsquares.svg	stimuli_distractor_diamondtriangles.svg	3	yes	53	1	1067	0	0			0	0			1				0	
6.6.1	mac	2023-06-14	07:15:04	07:22:48	461862	607f0b70818fde7990b3992d	4	1	practice_slash	9	advance_on_keypress_SLASH	6	stimuli_target_diamondsquares.svg	stimuli_distractor_diamondtriangles.svg	3	yes	57	0	486	0	0			0	0			1				0	
6.6.1	mac	2023-06-14	07:15:04	07:22:52	465980	607f0b70818fde7990b3992d	4	1	practice_slash	9	practice_slash	7	stimuli_distractor_diamondtriangles.svg	stimuli_distractor_trianglediamonds.svg	14	no	0	1	2000	0	0			0	0			1				0	
6.6.1	mac	2023-06-14	07:15:04	07:22:52	465980	607f0b70818fde7990b3992d	4	1	practice_slash	9	advance_on_keypress_SLASH	8	stimuli_distractor_diamondtriangles.svg	stimuli_distractor_trianglediamonds.svg	14	no	57	0	471	0	0			0	0			1				0	
6.6.1	mac	2023-06-14	07:15:04	07:22:55	468958	607f0b70818fde7990b3992d	4	1	practice_slash	9	practice_slash	9	stimuli_target_diamondsquares.svg	stimuli_distractor_trianglediamonds.svg	6	yes	53	1	876	0	0			0	0			1				0	
6.6.1	mac	2023-06-14	07:15:04	07:22:55	468958	607f0b70818fde7990b3992d	4	1	practice_slash	9	advance_on_keypress_SLASH	10	stimuli_target_diamondsquares.svg	stimuli_distractor_trianglediamonds.svg	6	yes	57	0	600	0	0			0	0			1				0	
6.6.1	mac	2023-06-14	07:15:04	07:22:58	472224	607f0b70818fde7990b3992d	4	1	practice_slash	9	practice_slash	11	stimuli_distractor_diamondtriangles.svg	stimuli_target_trianglerectangles.svg	9	yes	53	1	1029	0	0			0	0			1				0	
6.6.1	mac	2023-06-14	07:15:04	07:22:58	472224	607f0b70818fde7990b3992d	4	1	practice_slash	9	advance_on_keypress_SLASH	12	stimuli_distractor_diamondtriangles.svg	stimuli_target_trianglerectangles.svg	9	yes	57	0	922	0	0			0	0			1				0	
6.6.1	mac	2023-06-14	07:15:04	07:23:02	476006	607f0b70818fde7990b3992d	4	1	practice_slash	9	practice_slash	13	stimuli_target_squarediamonds.svg	stimuli_distractor_diamondtriangles.svg	2	yes	53	1	1226	0	0			0	0			1				0	
6.6.1	mac	2023-06-14	07:15:04	07:23:02	476006	607f0b70818fde7990b3992d	4	1	practice_slash	9	advance_on_keypress_SLASH	14	stimuli_target_squarediamonds.svg	stimuli_distractor_diamondtriangles.svg	2	yes	57	0	616	0	0			0	0			1				0	
6.6.1	mac	2023-06-14	07:15:04	07:23:06	479408	607f0b70818fde7990b3992d	4	1	practice_slash	9	practice_slash	15	stimuli_target_squarediamonds.svg	stimuli_distractor_trianglediamonds.svg	5	yes	53	1	1146	0	0			0	0			1				0	
6.6.1	mac	2023-06-14	07:15:04	07:23:06	479408	607f0b70818fde7990b3992d	4	1	practice_slash	9	advance_on_keypress_SLASH	16	stimuli_target_squarediamonds.svg	stimuli_distractor_trianglediamonds.svg	5	yes	57	0	654	0	0			0	0			1				0	
6.6.1	mac	2023-06-14	07:15:04	07:23:09	482788	607f0b70818fde7990b3992d	4	1	practice_slash	9	practice_slash	17	stimuli_distractor_diamondtriangles.svg	stimuli_target_rectangletriangles.svg	7	yes	53	1	1091	0	0			0	0			1				0	
6.6.1	mac	2023-06-14	07:15:04	07:23:09	482788	607f0b70818fde7990b3992d	4	1	practice_slash	9	advance_on_keypress_SLASH	18	stimuli_distractor_diamondtriangles.svg	stimuli_target_rectangletriangles.svg	7	yes	57	0	649	0	0			0	0			1				0	
6.6.1	mac	2023-06-14	07:15:04	07:23:12	486145	607f0b70818fde7990b3992d	4	1	practice_slash	9	practice_slash	19	stimuli_distractor_trianglediamonds.svg	stimuli_target_squarediamonds.svg	11	yes	53	1	1063	0	0			0	0			1				0	
6.6.1	mac	2023-06-14	07:15:04	07:23:12	486145	607f0b70818fde7990b3992d	4	1	practice_slash	9	advance_on_keypress_SLASH	20	stimuli_distractor_trianglediamonds.svg	stimuli_target_squarediamonds.svg	11	yes	57	0	640	0	0			0	0			1				0	
6.6.1	mac	2023-06-14	07:15:04	07:23:17	490411	607f0b70818fde7990b3992d	4	1	practice_slash	9	practice_slash	21	stimuli_distractor_trianglediamonds.svg	stimuli_distractor_trianglediamonds.svg	15	no	0	1	2000	0	0			0	0			1				0	
6.6.1	mac	2023-06-14	07:15:04	07:23:17	490411	607f0b70818fde7990b3992d	4	1	practice_slash	9	advance_on_keypress_SLASH	22	stimuli_distractor_trianglediamonds.svg	stimuli_distractor_trianglediamonds.svg	15	no	57	0	680	0	0			0	0			1				0	
6.6.1	mac	2023-06-14	07:15:04	07:23:21	494726	607f0b70818fde7990b3992d	4	1	practice_slash	9	practice_slash	23	stimuli_distractor_trianglediamonds.svg	stimuli_distractor_diamondtriangles.svg	16	no	0	1	2000	0	0			0	0			1				0	
6.6.1	mac	2023-06-14	07:15:04	07:23:21	494726	607f0b70818fde7990b3992d	4	1	practice_slash	9	advance_on_keypress_SLASH	24	stimuli_distractor_trianglediamonds.svg	stimuli_distractor_diamondtriangles.svg	16	no	57	0	520	0	0			0	0			1				0	
6.6.1	mac	2023-06-14	07:15:04	07:23:25	498877	607f0b70818fde7990b3992d	4	1	practice_slash	9	practice_slash	25	stimuli_distractor_diamondtriangles.svg	stimuli_distractor_diamondtriangles.svg	13	no	0	1	2000	0	0			0	0			1				0	
6.6.1	mac	2023-06-14	07:15:04	07:23:25	498877	607f0b70818fde7990b3992d	4	1	practice_slash	9	advance_on_keypress_SLASH	26	stimuli_distractor_diamondtriangles.svg	stimuli_distractor_diamondtriangles.svg	13	no	57	0	832	0	0			0	0			1				0	
6.6.1	mac	2023-06-14	07:15:04	07:23:29	502394	607f0b70818fde7990b3992d	4	1	practice_slash	9	practice_slash	27	stimuli_distractor_diamondtriangles.svg	stimuli_target_diamondrectangles.svg	8	yes	53	1	1049	0	0			0	0			1				0	
6.6.1	mac	2023-06-14	07:15:04	07:23:29	502394	607f0b70818fde7990b3992d	4	1	practice_slash	9	advance_on_keypress_SLASH	28	stimuli_distractor_diamondtriangles.svg	stimuli_target_diamondrectangles.svg	8	yes	57	0	727	0	0			0	0			1				0	
6.6.1	mac	2023-06-14	07:15:04	07:23:32	505840	607f0b70818fde7990b3992d	4	1	practice_slash	9	practice_slash	29	stimuli_target_rectanglediamonds.svg	stimuli_distractor_diamondtriangles.svg	1	yes	53	1	1079	0	0			0	0			1				0	
6.6.1	mac	2023-06-14	07:15:04	07:23:32	505840	607f0b70818fde7990b3992d	4	1	practice_slash	9	advance_on_keypress_SLASH	30	stimuli_target_rectanglediamonds.svg	stimuli_distractor_diamondtriangles.svg	1	yes	57	0	650	0	0			0	0			1				0	
6.6.1	mac	2023-06-14	07:15:04	07:23:35	509079	607f0b70818fde7990b3992d	4	1	practice_slash	9	practice_slash	31	stimuli_target_rectanglediamonds.svg	stimuli_distractor_trianglediamonds.svg	4	yes	53	1	950	0	0			0	0			1				0	
6.6.1	mac	2023-06-14	07:15:04	07:23:35	509079	607f0b70818fde7990b3992d	4	1	practice_slash	9	advance_on_keypress_SLASH	32	stimuli_target_rectanglediamonds.svg	stimuli_distractor_trianglediamonds.svg	4	yes	57	0	607	0	0			0	0			1				0	
6.6.1	mac	2023-06-14	07:15:04	07:23:40	514295	607f0b70818fde7990b3992d	4	1	main_slash	11	main_slash	1	stimuli_distractor_trianglediamonds.svg	stimuli_target_rectangletriangles.svg	9	yes	53	1	850	0	0			0	0			1				0	
6.6.1	mac	2023-06-14	07:15:04	07:23:40	514295	607f0b70818fde7990b3992d	4	1	main_slash	11	advance_on_keypress_SLASH	2	stimuli_distractor_trianglediamonds.svg	stimuli_target_rectangletriangles.svg	9	yes	57	0	1143	0	0			0	0			1				0	
6.6.1	mac	2023-06-14	07:15:04	07:23:43	517175	607f0b70818fde7990b3992d	4	1	main_slash	11	main_slash	3	stimuli_distractor_diamondtriangles.svg	stimuli_target_diamondrectangles.svg	31	yes	53	1	1096	0	0			0	0			1				0	
6.6.1	mac	2023-06-14	07:15:04	07:23:43	517175	607f0b70818fde7990b3992d	4	1	main_slash	11	advance_on_keypress_SLASH	4	stimuli_distractor_diamondtriangles.svg	stimuli_target_diamondrectangles.svg	31	yes	57	0	877	0	0			0	0			1				0	
6.6.1	mac	2023-06-14	07:15:04	07:23:46	519710	607f0b70818fde7990b3992d	4	1	main_slash	11	main_slash	5	stimuli_target_squarediamonds.svg	stimuli_distractor_diamondtriangles.svg	8	yes	53	1	1015	0	0			0	0			1				0	
6.6.1	mac	2023-06-14	07:15:04	07:23:46	519710	607f0b70818fde7990b3992d	4	1	main_slash	11	advance_on_keypress_SLASH	6	stimuli_target_squarediamonds.svg	stimuli_distractor_diamondtriangles.svg	8	yes	57	0	897	0	0			0	0			1				0	
6.6.1	mac	2023-06-14	07:15:04	07:23:49	522409	607f0b70818fde7990b3992d	4	1	main_slash	11	main_slash	7	stimuli_distractor_diamondtriangles.svg	stimuli_target_rectangletriangles.svg	13	yes	53	1	1164	0	0			0	0			1				0	
6.6.1	mac	2023-06-14	07:15:04	07:23:49	522409	607f0b70818fde7990b3992d	4	1	main_slash	11	advance_on_keypress_SLASH	8	stimuli_distractor_diamondtriangles.svg	stimuli_target_rectangletriangles.svg	13	yes	57	0	782	0	0			0	0			1				0	
6.6.1	mac	2023-06-14	07:15:04	07:23:51	525077	607f0b70818fde7990b3992d	4	1	main_slash	11	main_slash	9	stimuli_distractor_diamondtriangles.svg	stimuli_target_trianglerectangles.svg	29	yes	53	1	1249	0	0			0	0			1				0	
6.6.1	mac	2023-06-14	07:15:04	07:23:51	525077	607f0b70818fde7990b3992d	4	1	main_slash	11	advance_on_keypress_SLASH	10	stimuli_distractor_diamondtriangles.svg	stimuli_target_trianglerectangles.svg	29	yes	57	0	624	0	0			0	0			1				0	
6.6.1	mac	2023-06-14	07:15:04	07:23:54	527536	607f0b70818fde7990b3992d	4	1	main_slash	11	main_slash	11	stimuli_target_rectanglediamonds.svg	stimuli_distractor_trianglediamonds.svg	2	yes	53	1	1208	0	0			0	0			1				0	
6.6.1	mac	2023-06-14	07:15:04	07:23:54	527536	607f0b70818fde7990b3992d	4	1	main_slash	11	advance_on_keypress_SLASH	12	stimuli_target_rectanglediamonds.svg	stimuli_distractor_trianglediamonds.svg	2	yes	57	0	896	0	0			0	0			1				0	
6.6.1	mac	2023-06-14	07:15:04	07:23:56	530199	607f0b70818fde7990b3992d	4	1	main_slash	11	main_slash	13	stimuli_target_rectangletriangles.svg	stimuli_distractor_trianglediamonds.svg	1	yes	53	1	1120	0	0			0	0			1				0	
6.6.1	mac	2023-06-14	07:15:04	07:23:56	530199	607f0b70818fde7990b3992d	4	1	main_slash	11	advance_on_keypress_SLASH	14	stimuli_target_rectangletriangles.svg	stimuli_distractor_trianglediamonds.svg	1	yes	57	0	628	0	0			0	0			1				0	
6.6.1	mac	2023-06-14	07:15:04	07:23:59	532951	607f0b70818fde7990b3992d	4	1	main_slash	11	main_slash	15	stimuli_distractor_trianglediamonds.svg	stimuli_distractor_diamondtriangles.svg	36	no	53	0	1491	0	0			0	0			1				0	
6.6.1	mac	2023-06-14	07:15:04	07:23:59	532951	607f0b70818fde7990b3992d	4	1	main_slash	11	advance_on_keypress_SLASH	16	stimuli_distractor_trianglediamonds.svg	stimuli_distractor_diamondtriangles.svg	36	no	57	0	726	0	0			0	0			1				0	
6.6.1	mac	2023-06-14	07:15:04	07:24:02	536308	607f0b70818fde7990b3992d	4	1	main_slash	11	main_slash	17	stimuli_distractor_diamondtriangles.svg	stimuli_distractor_diamondtriangles.svg	39	no	0	1	2000	0	0			0	0			1				0	
6.6.1	mac	2023-06-14	07:15:04	07:24:02	536308	607f0b70818fde7990b3992d	4	1	main_slash	11	advance_on_keypress_SLASH	18	stimuli_distractor_diamondtriangles.svg	stimuli_distractor_diamondtriangles.svg	39	no	57	0	496	0	0			0	0			1				0	
6.6.1	mac	2023-06-14	07:15:04	07:24:05	538403	607f0b70818fde7990b3992d	4	1	main_slash	11	main_slash	19	stimuli_distractor_diamondtriangles.svg	stimuli_target_squaretriangles.svg	15	yes	53	1	959	0	0			0	0			1				0	
6.6.1	mac	2023-06-14	07:15:04	07:24:05	538403	607f0b70818fde7990b3992d	4	1	main_slash	11	advance_on_keypress_SLASH	20	stimuli_distractor_diamondtriangles.svg	stimuli_target_squaretriangles.svg	15	yes	57	0	699	0	0			0	0			1				0	
6.6.1	mac	2023-06-14	07:15:04	07:24:07	540836	607f0b70818fde7990b3992d	4	1	main_slash	11	main_slash	21	stimuli_target_diamondrectangles.svg	stimuli_distractor_diamondtriangles.svg	23	yes	53	1	1091	0	0			0	0			1				0	
6.6.1	mac	2023-06-14	07:15:04	07:24:07	540836	607f0b70818fde7990b3992d	4	1	main_slash	11	advance_on_keypress_SLASH	22	stimuli_target_diamondrectangles.svg	stimuli_distractor_diamondtriangles.svg	23	yes	57	0	735	0	0			0	0			1				0	
6.6.1	mac	2023-06-14	07:15:04	07:24:09	543277	607f0b70818fde7990b3992d	4	1	main_slash	11	main_slash	23	stimuli_target_diamondsquares.svg	stimuli_distractor_trianglediamonds.svg	20	yes	53	1	1065	0	0			0	0			1				0	
6.6.1	mac	2023-06-14	07:15:04	07:24:09	543277	607f0b70818fde7990b3992d	4	1	main_slash	11	advance_on_keypress_SLASH	24	stimuli_target_diamondsquares.svg	stimuli_distractor_trianglediamonds.svg	20	yes	57	0	964	0	0			0	0			1				0	
6.6.1	mac	2023-06-14	07:15:04	07:24:12	545921	607f0b70818fde7990b3992d	4	1	main_slash	11	main_slash	25	stimuli_distractor_diamondtriangles.svg	stimuli_target_trianglesquares.svg	30	yes	53	1	1044	0	0			0	0			1				0	
6.6.1	mac	2023-06-14	07:15:04	07:24:12	545921	607f0b70818fde7990b3992d	4	1	main_slash	11	advance_on_keypress_SLASH	26	stimuli_distractor_diamondtriangles.svg	stimuli_target_trianglesquares.svg	30	yes	57	0	688	0	0			0	0			1				0	
6.6.1	mac	2023-06-14	07:15:04	07:24:15	548811	607f0b70818fde7990b3992d	4	1	main_slash	11	main_slash	27	stimuli_distractor_trianglediamonds.svg	stimuli_distractor_diamondtriangles.svg	35	no	53	0	1567	0	0			0	0			1				0	
6.6.1	mac	2023-06-14	07:15:04	07:24:15	548811	607f0b70818fde7990b3992d	4	1	main_slash	11	advance_on_keypress_SLASH	28	stimuli_distractor_trianglediamonds.svg	stimuli_distractor_diamondtriangles.svg	35	no	57	0	928	0	0			0	0			1				0	
6.6.1	mac	2023-06-14	07:15:04	07:24:18	551603	607f0b70818fde7990b3992d	4	1	main_slash	11	main_slash	29	stimuli_target_squaretriangles.svg	stimuli_distractor_diamondtriangles.svg	7	yes	53	1	1225	0	0			0	0			1				0	
6.6.1	mac	2023-06-14	07:15:04	07:24:18	551603	607f0b70818fde7990b3992d	4	1	main_slash	11	advance_on_keypress_SLASH	30	stimuli_target_squaretriangles.svg	stimuli_distractor_diamondtriangles.svg	7	yes	57	0	767	0	0			0	0			1				0	
6.6.1	mac	2023-06-14	07:15:04	07:24:20	553979	607f0b70818fde7990b3992d	4	1	main_slash	11	main_slash	31	stimuli_distractor_trianglediamonds.svg	stimuli_target_rectanglediamonds.svg	10	yes	53	1	969	0	0			0	0			1				0	
6.6.1	mac	2023-06-14	07:15:04	07:24:20	553979	607f0b70818fde7990b3992d	4	1	main_slash	11	advance_on_keypress_SLASH	32	stimuli_distractor_trianglediamonds.svg	stimuli_target_rectanglediamonds.svg	10	yes	57	0	798	0	0			0	0			1				0	
6.6.1	mac	2023-06-14	07:15:04	07:24:23	556393	607f0b70818fde7990b3992d	4	1	main_slash	11	main_slash	33	stimuli_distractor_diamondtriangles.svg	stimuli_target_rectanglediamonds.svg	14	yes	53	1	983	0	0			0	0			1				0	
6.6.1	mac	2023-06-14	07:15:04	07:24:23	556393	607f0b70818fde7990b3992d	4	1	main_slash	11	advance_on_keypress_SLASH	34	stimuli_distractor_diamondtriangles.svg	stimuli_target_rectanglediamonds.svg	14	yes	57	0	693	0	0			0	0			1				0	
6.6.1	mac	2023-06-14	07:15:04	07:24:25	558778	607f0b70818fde7990b3992d	4	1	main_slash	11	main_slash	35	stimuli_target_diamondrectangles.svg	stimuli_distractor_trianglediamonds.svg	19	yes	53	1	1068	0	0			0	0			1				0	
6.6.1	mac	2023-06-14	07:15:04	07:24:25	558778	607f0b70818fde7990b3992d	4	1	main_slash	11	advance_on_keypress_SLASH	36	stimuli_target_diamondrectangles.svg	stimuli_distractor_trianglediamonds.svg	19	yes	57	0	656	0	0			0	0			1				0	
6.6.1	mac	2023-06-14	07:15:04	07:24:27	561136	607f0b70818fde7990b3992d	4	1	main_slash	11	main_slash	37	stimuli_distractor_diamondtriangles.svg	stimuli_target_squarediamonds.svg	16	yes	53	1	1076	0	0			0	0			1				0	
6.6.1	mac	2023-06-14	07:15:04	07:24:27	561136	607f0b70818fde7990b3992d	4	1	main_slash	11	advance_on_keypress_SLASH	38	stimuli_distractor_diamondtriangles.svg	stimuli_target_squarediamonds.svg	16	yes	57	0	602	0	0			0	0			1				0	
6.6.1	mac	2023-06-14	07:15:04	07:24:30	564219	607f0b70818fde7990b3992d	4	1	main_slash	11	main_slash	39	stimuli_target_trianglerectangles.svg	stimuli_distractor_diamondtriangles.svg	21	yes	53	1	1839	0	0			0	0			1				0	
6.6.1	mac	2023-06-14	07:15:04	07:24:30	564219	607f0b70818fde7990b3992d	4	1	main_slash	11	advance_on_keypress_SLASH	40	stimuli_target_trianglerectangles.svg	stimuli_distractor_diamondtriangles.svg	21	yes	57	0	633	0	0			0	0			1				0	
6.6.1	mac	2023-06-14	07:15:04	07:24:33	566558	607f0b70818fde7990b3992d	4	1	main_slash	11	main_slash	41	stimuli_target_rectangletriangles.svg	stimuli_distractor_diamondtriangles.svg	5	yes	53	1	1064	0	0			0	0			1				0	
6.6.1	mac	2023-06-14	07:15:04	07:24:33	566558	607f0b70818fde7990b3992d	4	1	main_slash	11	advance_on_keypress_SLASH	42	stimuli_target_rectangletriangles.svg	stimuli_distractor_diamondtriangles.svg	5	yes	57	0	505	0	0			0	0			1				0	
6.6.1	mac	2023-06-14	07:15:04	07:24:35	568691	607f0b70818fde7990b3992d	4	1	main_slash	11	main_slash	43	stimuli_distractor_trianglediamonds.svg	stimuli_target_diamondsquares.svg	28	yes	53	1	998	0	0			0	0			1				0	
6.6.1	mac	2023-06-14	07:15:04	07:24:35	568691	607f0b70818fde7990b3992d	4	1	main_slash	11	advance_on_keypress_SLASH	44	stimuli_distractor_trianglediamonds.svg	stimuli_target_diamondsquares.svg	28	yes	57	0	506	0	0			0	0			1				0	
6.6.1	mac	2023-06-14	07:15:04	07:24:38	571823	607f0b70818fde7990b3992d	4	1	main_slash	11	main_slash	45	stimuli_distractor_diamondtriangles.svg	stimuli_distractor_trianglediamonds.svg	37	no	0	1	2000	0	0			0	0			1				0	
6.6.1	mac	2023-06-14	07:15:04	07:24:38	571823	607f0b70818fde7990b3992d	4	1	main_slash	11	advance_on_keypress_SLASH	46	stimuli_distractor_diamondtriangles.svg	stimuli_distractor_trianglediamonds.svg	37	no	57	0	1856	0	0			0	0			1				0	
6.6.1	mac	2023-06-14	07:15:04	07:24:41	575085	607f0b70818fde7990b3992d	4	1	main_slash	11	main_slash	47	stimuli_target_squaretriangles.svg	stimuli_distractor_trianglediamonds.svg	3	yes	53	1	777	0	0			0	0			1				0	
6.6.1	mac	2023-06-14	07:15:04	07:24:41	575085	607f0b70818fde7990b3992d	4	1	main_slash	11	advance_on_keypress_SLASH	48	stimuli_target_squaretriangles.svg	stimuli_distractor_trianglediamonds.svg	3	yes	57	0	479	0	0			0	0			1				0	
6.6.1	mac	2023-06-14	07:15:04	07:24:43	577108	607f0b70818fde7990b3992d	4	1	main_slash	11	main_slash	49	stimuli_distractor_trianglediamonds.svg	stimuli_target_squarediamonds.svg	12	yes	53	1	897	0	0			0	0			1				0	
6.6.1	mac	2023-06-14	07:15:04	07:24:43	577108	607f0b70818fde7990b3992d	4	1	main_slash	11	advance_on_keypress_SLASH	50	stimuli_distractor_trianglediamonds.svg	stimuli_target_squarediamonds.svg	12	yes	57	0	656	0	0			0	0			1				0	
6.6.1	mac	2023-06-14	07:15:04	07:24:47	580391	607f0b70818fde7990b3992d	4	1	main_slash	11	main_slash	51	stimuli_distractor_diamondtriangles.svg	stimuli_distractor_diamondtriangles.svg	40	no	0	1	2000	0	0			0	0			1				0	
6.6.1	mac	2023-06-14	07:15:04	07:24:47	580391	607f0b70818fde7990b3992d	4	1	main_slash	11	advance_on_keypress_SLASH	52	stimuli_distractor_diamondtriangles.svg	stimuli_distractor_diamondtriangles.svg	40	no	57	0	726	0	0			0	0			1				0	
6.6.1	mac	2023-06-14	07:15:04	07:24:49	582642	607f0b70818fde7990b3992d	4	1	main_slash	11	main_slash	53	stimuli_target_diamondsquares.svg	stimuli_distractor_diamondtriangles.svg	24	yes	53	1	881	0	0			0	0			1				0	
6.6.1	mac	2023-06-14	07:15:04	07:24:49	582642	607f0b70818fde7990b3992d	4	1	main_slash	11	advance_on_keypress_SLASH	54	stimuli_target_diamondsquares.svg	stimuli_distractor_diamondtriangles.svg	24	yes	57	0	668	0	0			0	0			1				0	
6.6.1	mac	2023-06-14	07:15:04	07:24:51	584962	607f0b70818fde7990b3992d	4	1	main_slash	11	main_slash	55	stimuli_distractor_trianglediamonds.svg	stimuli_target_diamondrectangles.svg	27	yes	53	1	1018	0	0			0	0			1				0	
6.6.1	mac	2023-06-14	07:15:04	07:24:51	584962	607f0b70818fde7990b3992d	4	1	main_slash	11	advance_on_keypress_SLASH	56	stimuli_distractor_trianglediamonds.svg	stimuli_target_diamondrectangles.svg	27	yes	57	0	731	0	0			0	0			1				0	
6.6.1	mac	2023-06-14	07:15:04	07:24:54	588325	607f0b70818fde7990b3992d	4	1	main_slash	11	main_slash	57	stimuli_distractor_diamondtriangles.svg	stimuli_distractor_trianglediamonds.svg	38	no	0	1	2000	0	0			0	0			1				0	
6.6.1	mac	2023-06-14	07:15:04	07:24:54	588325	607f0b70818fde7990b3992d	4	1	main_slash	11	advance_on_keypress_SLASH	58	stimuli_distractor_diamondtriangles.svg	stimuli_distractor_trianglediamonds.svg	38	no	57	0	1907	0	0			0	0			1				0	
6.6.1	mac	2023-06-14	07:15:04	07:24:58	591717	607f0b70818fde7990b3992d	4	1	main_slash	11	main_slash	59	stimuli_target_squarediamonds.svg	stimuli_distractor_trianglediamonds.svg	4	yes	53	1	857	0	0			0	0			1				0	
6.6.1	mac	2023-06-14	07:15:04	07:24:58	591717	607f0b70818fde7990b3992d	4	1	main_slash	11	advance_on_keypress_SLASH	60	stimuli_target_squarediamonds.svg	stimuli_distractor_trianglediamonds.svg	4	yes	57	0	657	0	0			0	0			1				0	
6.6.1	mac	2023-06-14	07:15:04	07:25:00	593932	607f0b70818fde7990b3992d	4	1	main_slash	11	main_slash	61	stimuli_distractor_trianglediamonds.svg	stimuli_target_trianglesquares.svg	26	yes	53	1	939	0	0			0	0			1				0	
6.6.1	mac	2023-06-14	07:15:04	07:25:00	593932	607f0b70818fde7990b3992d	4	1	main_slash	11	advance_on_keypress_SLASH	62	stimuli_distractor_trianglediamonds.svg	stimuli_target_trianglesquares.svg	26	yes	57	0	593	0	0			0	0			1				0	
6.6.1	mac	2023-06-14	07:15:04	07:25:02	596001	607f0b70818fde7990b3992d	4	1	main_slash	11	main_slash	63	stimuli_distractor_trianglediamonds.svg	stimuli_target_squaretriangles.svg	11	yes	53	1	841	0	0			0	0			1				0	
6.6.1	mac	2023-06-14	07:15:04	07:25:02	596001	607f0b70818fde7990b3992d	4	1	main_slash	11	advance_on_keypress_SLASH	64	stimuli_distractor_trianglediamonds.svg	stimuli_target_squaretriangles.svg	11	yes	57	0	535	0	0			0	0			1				0	
6.6.1	mac	2023-06-14	07:15:04	07:25:04	598128	607f0b70818fde7990b3992d	4	1	main_slash	11	main_slash	65	stimuli_distractor_diamondtriangles.svg	stimuli_target_diamondsquares.svg	32	yes	53	1	968	0	0			0	0			1				0	
6.6.1	mac	2023-06-14	07:15:04	07:25:04	598128	607f0b70818fde7990b3992d	4	1	main_slash	11	advance_on_keypress_SLASH	66	stimuli_distractor_diamondtriangles.svg	stimuli_target_diamondsquares.svg	32	yes	57	0	549	0	0			0	0			1				0	
6.6.1	mac	2023-06-14	07:15:04	07:25:07	601308	607f0b70818fde7990b3992d	4	1	main_slash	11	main_slash	67	stimuli_distractor_trianglediamonds.svg	stimuli_distractor_trianglediamonds.svg	33	no	0	1	2000	0	0			0	0			1				0	
6.6.1	mac	2023-06-14	07:15:04	07:25:07	601308	607f0b70818fde7990b3992d	4	1	main_slash	11	advance_on_keypress_SLASH	68	stimuli_distractor_trianglediamonds.svg	stimuli_distractor_trianglediamonds.svg	33	no	57	0	1306	0	0			0	0			1				0	
6.6.1	mac	2023-06-14	07:15:04	07:25:10	604268	607f0b70818fde7990b3992d	4	1	main_slash	11	main_slash	69	stimuli_distractor_trianglediamonds.svg	stimuli_target_trianglerectangles.svg	25	yes	53	1	1025	0	0			0	0			1				0	
6.6.1	mac	2023-06-14	07:15:04	07:25:10	604268	607f0b70818fde7990b3992d	4	1	main_slash	11	advance_on_keypress_SLASH	70	stimuli_distractor_trianglediamonds.svg	stimuli_target_trianglerectangles.svg	25	yes	57	0	659	0	0			0	0			1				0	
6.6.1	mac	2023-06-14	07:15:04	07:25:13	606578	607f0b70818fde7990b3992d	4	1	main_slash	11	main_slash	71	stimuli_target_trianglesquares.svg	stimuli_distractor_trianglediamonds.svg	18	yes	53	1	1000	0	0			0	0			1				0	
6.6.1	mac	2023-06-14	07:15:04	07:25:13	606578	607f0b70818fde7990b3992d	4	1	main_slash	11	advance_on_keypress_SLASH	72	stimuli_target_trianglesquares.svg	stimuli_distractor_trianglediamonds.svg	18	yes	57	0	652	0	0			0	0			1				0	
6.6.1	mac	2023-06-14	07:15:04	07:25:16	609859	607f0b70818fde7990b3992d	4	1	main_slash	11	main_slash	73	stimuli_distractor_trianglediamonds.svg	stimuli_distractor_trianglediamonds.svg	34	no	0	1	2000	0	0			0	0			1				0	
6.6.1	mac	2023-06-14	07:15:04	07:25:16	609859	607f0b70818fde7990b3992d	4	1	main_slash	11	advance_on_keypress_SLASH	74	stimuli_distractor_trianglediamonds.svg	stimuli_distractor_trianglediamonds.svg	34	no	57	0	380	0	0			0	0			1				0	
6.6.1	mac	2023-06-14	07:15:04	07:25:18	611601	607f0b70818fde7990b3992d	4	1	main_slash	11	main_slash	75	stimuli_target_trianglesquares.svg	stimuli_distractor_diamondtriangles.svg	22	yes	53	1	723	0	0			0	0			1				0	
6.6.1	mac	2023-06-14	07:15:04	07:25:18	611601	607f0b70818fde7990b3992d	4	1	main_slash	11	advance_on_keypress_SLASH	76	stimuli_target_trianglesquares.svg	stimuli_distractor_diamondtriangles.svg	22	yes	57	0	544	0	0			0	0			1				0	
6.6.1	mac	2023-06-14	07:15:04	07:25:21	614775	607f0b70818fde7990b3992d	4	1	main_slash	11	main_slash	77	stimuli_target_trianglerectangles.svg	stimuli_distractor_trianglediamonds.svg	17	yes	0	0	2000	0	0			0	0			1				0	
6.6.1	mac	2023-06-14	07:15:04	07:25:21	614775	607f0b70818fde7990b3992d	4	1	main_slash	11	advance_on_keypress_SLASH	78	stimuli_target_trianglerectangles.svg	stimuli_distractor_trianglediamonds.svg	17	yes	57	0	568	0	0			0	0			1				0	
6.6.1	mac	2023-06-14	07:15:04	07:25:23	616712	607f0b70818fde7990b3992d	4	1	main_slash	11	main_slash	79	stimuli_target_rectanglediamonds.svg	stimuli_distractor_diamondtriangles.svg	6	yes	53	1	735	0	0			0	0			1				0	
6.6.1	mac	2023-06-14	07:15:04	07:25:23	616712	607f0b70818fde7990b3992d	4	1	main_slash	11	advance_on_keypress_SLASH	80	stimuli_target_rectanglediamonds.svg	stimuli_distractor_diamondtriangles.svg	6	yes	57	0	559	0	0			0	0			1				0	
6.6.1	mac	2023-06-14	07:15:04	07:25:25	618772	607f0b70818fde7990b3992d	4	1	main_slash	11	main_slash	81	stimuli_distractor_diamondtriangles.svg	stimuli_target_trianglesquares.svg	30	yes	53	1	862	0	0			0	0			1				0	
6.6.1	mac	2023-06-14	07:15:04	07:25:25	618772	607f0b70818fde7990b3992d	4	1	main_slash	11	advance_on_keypress_SLASH	82	stimuli_distractor_diamondtriangles.svg	stimuli_target_trianglesquares.svg	30	yes	57	0	510	0	0			0	0			1				0	
6.6.1	mac	2023-06-14	07:15:04	07:25:27	620823	607f0b70818fde7990b3992d	4	1	main_slash	11	main_slash	83	stimuli_distractor_diamondtriangles.svg	stimuli_target_rectanglediamonds.svg	14	yes	53	1	895	0	0			0	0			1				0	
6.6.1	mac	2023-06-14	07:15:04	07:25:27	620823	607f0b70818fde7990b3992d	4	1	main_slash	11	advance_on_keypress_SLASH	84	stimuli_distractor_diamondtriangles.svg	stimuli_target_rectanglediamonds.svg	14	yes	57	0	445	0	0			0	0			1				0	
6.6.1	mac	2023-06-14	07:15:04	07:25:30	623907	607f0b70818fde7990b3992d	4	1	main_slash	11	main_slash	85	stimuli_distractor_diamondtriangles.svg	stimuli_distractor_diamondtriangles.svg	39	no	0	1	2000	0	0			0	0			1				0	
6.6.1	mac	2023-06-14	07:15:04	07:25:30	623907	607f0b70818fde7990b3992d	4	1	main_slash	11	advance_on_keypress_SLASH	86	stimuli_distractor_diamondtriangles.svg	stimuli_distractor_diamondtriangles.svg	39	no	57	0	568	0	0			0	0			1				0	
6.6.1	mac	2023-06-14	07:15:04	07:25:32	625847	607f0b70818fde7990b3992d	4	1	main_slash	11	main_slash	87	stimuli_target_rectanglediamonds.svg	stimuli_distractor_trianglediamonds.svg	2	yes	53	1	736	0	0			0	0			1				0	
6.6.1	mac	2023-06-14	07:15:04	07:25:32	625847	607f0b70818fde7990b3992d	4	1	main_slash	11	advance_on_keypress_SLASH	88	stimuli_target_rectanglediamonds.svg	stimuli_distractor_trianglediamonds.svg	2	yes	57	0	555	0	0			0	0			1				0	
6.6.1	mac	2023-06-14	07:15:04	07:25:34	627798	607f0b70818fde7990b3992d	4	1	main_slash	11	main_slash	89	stimuli_target_trianglesquares.svg	stimuli_distractor_diamondtriangles.svg	22	yes	53	1	771	0	0			0	0			1				0	
6.6.1	mac	2023-06-14	07:15:04	07:25:34	627798	607f0b70818fde7990b3992d	4	1	main_slash	11	advance_on_keypress_SLASH	90	stimuli_target_trianglesquares.svg	stimuli_distractor_diamondtriangles.svg	22	yes	57	0	490	0	0			0	0			1				0	
6.6.1	mac	2023-06-14	07:15:04	07:25:36	629832	607f0b70818fde7990b3992d	4	1	main_slash	11	main_slash	91	stimuli_target_diamondsquares.svg	stimuli_distractor_trianglediamonds.svg	20	yes	53	1	921	0	0			0	0			1				0	
6.6.1	mac	2023-06-14	07:15:04	07:25:36	629832	607f0b70818fde7990b3992d	4	1	main_slash	11	advance_on_keypress_SLASH	92	stimuli_target_diamondsquares.svg	stimuli_distractor_trianglediamonds.svg	20	yes	57	0	451	0	0			0	0			1				0	
6.6.1	mac	2023-06-14	07:15:04	07:25:39	632907	607f0b70818fde7990b3992d	4	1	main_slash	11	main_slash	93	stimuli_distractor_trianglediamonds.svg	stimuli_distractor_trianglediamonds.svg	33	no	0	1	2000	0	0			0	0			1				0	
6.6.1	mac	2023-06-14	07:15:04	07:25:39	632907	607f0b70818fde7990b3992d	4	1	main_slash	11	advance_on_keypress_SLASH	94	stimuli_distractor_trianglediamonds.svg	stimuli_distractor_trianglediamonds.svg	33	no	57	0	665	0	0			0	0			1				0	
6.6.1	mac	2023-06-14	07:15:04	07:25:41	635222	607f0b70818fde7990b3992d	4	1	main_slash	11	main_slash	95	stimuli_target_diamondrectangles.svg	stimuli_distractor_trianglediamonds.svg	19	yes	53	1	1012	0	0			0	0			1				0	
6.6.1	mac	2023-06-14	07:15:04	07:25:41	635222	607f0b70818fde7990b3992d	4	1	main_slash	11	advance_on_keypress_SLASH	96	stimuli_target_diamondrectangles.svg	stimuli_distractor_trianglediamonds.svg	19	yes	57	0	635	0	0			0	0			1				0	
6.6.1	mac	2023-06-14	07:15:04	07:25:43	637267	607f0b70818fde7990b3992d	4	1	main_slash	11	main_slash	97	stimuli_target_squaretriangles.svg	stimuli_distractor_diamondtriangles.svg	7	yes	53	1	771	0	0			0	0			1				0	
6.6.1	mac	2023-06-14	07:15:04	07:25:43	637267	607f0b70818fde7990b3992d	4	1	main_slash	11	advance_on_keypress_SLASH	98	stimuli_target_squaretriangles.svg	stimuli_distractor_diamondtriangles.svg	7	yes	57	0	441	0	0			0	0			1				0	
6.6.1	mac	2023-06-14	07:15:04	07:25:45	639215	607f0b70818fde7990b3992d	4	1	main_slash	11	main_slash	99	stimuli_distractor_diamondtriangles.svg	stimuli_target_squarediamonds.svg	16	yes	53	1	886	0	0			0	0			1				0	
6.6.1	mac	2023-06-14	07:15:04	07:25:45	639215	607f0b70818fde7990b3992d	4	1	main_slash	11	advance_on_keypress_SLASH	100	stimuli_distractor_diamondtriangles.svg	stimuli_target_squarediamonds.svg	16	yes	57	0	435	0	0			0	0			1				0	
6.6.1	mac	2023-06-14	07:15:04	07:25:48	642275	607f0b70818fde7990b3992d	4	1	main_slash	11	main_slash	101	stimuli_distractor_diamondtriangles.svg	stimuli_target_diamondrectangles.svg	31	yes	0	0	2000	0	0			0	0			1				0	
6.6.1	mac	2023-06-14	07:15:04	07:25:48	642275	607f0b70818fde7990b3992d	4	1	main_slash	11	advance_on_keypress_SLASH	102	stimuli_distractor_diamondtriangles.svg	stimuli_target_diamondrectangles.svg	31	yes	57	0	676	0	0			0	0			1				0	
6.6.1	mac	2023-06-14	07:15:04	07:25:51	644487	607f0b70818fde7990b3992d	4	1	main_slash	11	main_slash	103	stimuli_target_rectangletriangles.svg	stimuli_distractor_trianglediamonds.svg	1	yes	53	1	893	0	0			0	0			1				0	
6.6.1	mac	2023-06-14	07:15:04	07:25:51	644487	607f0b70818fde7990b3992d	4	1	main_slash	11	advance_on_keypress_SLASH	104	stimuli_target_rectangletriangles.svg	stimuli_distractor_trianglediamonds.svg	1	yes	57	0	411	0	0			0	0			1				0	
6.6.1	mac	2023-06-14	07:15:04	07:25:53	646459	607f0b70818fde7990b3992d	4	1	main_slash	11	main_slash	105	stimuli_distractor_trianglediamonds.svg	stimuli_target_squarediamonds.svg	12	yes	53	1	914	0	0			0	0			1				0	
6.6.1	mac	2023-06-14	07:15:04	07:25:53	646459	607f0b70818fde7990b3992d	4	1	main_slash	11	advance_on_keypress_SLASH	106	stimuli_distractor_trianglediamonds.svg	stimuli_target_squarediamonds.svg	12	yes	57	0	360	0	0			0	0			1				0	
6.6.1	mac	2023-06-14	07:15:04	07:25:54	648374	607f0b70818fde7990b3992d	4	1	main_slash	11	main_slash	107	stimuli_distractor_diamondtriangles.svg	stimuli_target_diamondsquares.svg	32	yes	53	1	914	0	0			0	0			1				0	
6.6.1	mac	2023-06-14	07:15:04	07:25:54	648374	607f0b70818fde7990b3992d	4	1	main_slash	11	advance_on_keypress_SLASH	108	stimuli_distractor_diamondtriangles.svg	stimuli_target_diamondsquares.svg	32	yes	57	0	336	0	0			0	0			1				0	
6.6.1	mac	2023-06-14	07:15:04	07:25:56	650342	607f0b70818fde7990b3992d	4	1	main_slash	11	main_slash	109	stimuli_target_squaretriangles.svg	stimuli_distractor_trianglediamonds.svg	3	yes	53	1	997	0	0			0	0			1				0	
6.6.1	mac	2023-06-14	07:15:04	07:25:56	650342	607f0b70818fde7990b3992d	4	1	main_slash	11	advance_on_keypress_SLASH	110	stimuli_target_squaretriangles.svg	stimuli_distractor_trianglediamonds.svg	3	yes	57	0	385	0	0			0	0			1				0	
6.6.1	mac	2023-06-14	07:15:04	07:25:59	653357	607f0b70818fde7990b3992d	4	1	main_slash	11	main_slash	111	stimuli_distractor_trianglediamonds.svg	stimuli_distractor_diamondtriangles.svg	35	no	0	1	2000	0	0			0	0			1				0	
6.6.1	mac	2023-06-14	07:15:04	07:25:59	653357	607f0b70818fde7990b3992d	4	1	main_slash	11	advance_on_keypress_SLASH	112	stimuli_distractor_trianglediamonds.svg	stimuli_distractor_diamondtriangles.svg	35	no	57	0	660	0	0			0	0			1				0	
6.6.1	mac	2023-06-14	07:15:04	07:26:03	656659	607f0b70818fde7990b3992d	4	1	main_slash	11	main_slash	113	stimuli_distractor_trianglediamonds.svg	stimuli_distractor_diamondtriangles.svg	36	no	0	1	2000	0	0			0	0			1				0	
6.6.1	mac	2023-06-14	07:15:04	07:26:03	656659	607f0b70818fde7990b3992d	4	1	main_slash	11	advance_on_keypress_SLASH	114	stimuli_distractor_trianglediamonds.svg	stimuli_distractor_diamondtriangles.svg	36	no	57	0	434	0	0			0	0			1				0	
6.6.1	mac	2023-06-14	07:15:04	07:26:05	658714	607f0b70818fde7990b3992d	4	1	main_slash	11	main_slash	115	stimuli_target_trianglesquares.svg	stimuli_distractor_trianglediamonds.svg	18	yes	53	1	985	0	0			0	0			1				0	
6.6.1	mac	2023-06-14	07:15:04	07:26:05	658714	607f0b70818fde7990b3992d	4	1	main_slash	11	advance_on_keypress_SLASH	116	stimuli_target_trianglesquares.svg	stimuli_distractor_trianglediamonds.svg	18	yes	57	0	590	0	0			0	0			1				0	
6.6.1	mac	2023-06-14	07:15:04	07:26:07	660675	607f0b70818fde7990b3992d	4	1	main_slash	11	main_slash	117	stimuli_target_diamondrectangles.svg	stimuli_distractor_diamondtriangles.svg	23	yes	53	1	749	0	0			0	0			1				0	
6.6.1	mac	2023-06-14	07:15:04	07:26:07	660675	607f0b70818fde7990b3992d	4	1	main_slash	11	advance_on_keypress_SLASH	118	stimuli_target_diamondrectangles.svg	stimuli_distractor_diamondtriangles.svg	23	yes	57	0	512	0	0			0	0			1				0	
6.6.1	mac	2023-06-14	07:15:04	07:26:09	662784	607f0b70818fde7990b3992d	4	1	main_slash	11	main_slash	119	stimuli_distractor_diamondtriangles.svg	stimuli_target_squaretriangles.svg	15	yes	53	1	957	0	0			0	0			1				0	
6.6.1	mac	2023-06-14	07:15:04	07:26:09	662784	607f0b70818fde7990b3992d	4	1	main_slash	11	advance_on_keypress_SLASH	120	stimuli_distractor_diamondtriangles.svg	stimuli_target_squaretriangles.svg	15	yes	57	0	477	0	0			0	0			1				0	
6.6.1	mac	2023-06-14	07:15:04	07:26:11	664923	607f0b70818fde7990b3992d	4	1	main_slash	11	main_slash	121	stimuli_target_trianglerectangles.svg	stimuli_distractor_diamondtriangles.svg	21	yes	53	1	1030	0	0			0	0			1				0	
6.6.1	mac	2023-06-14	07:15:04	07:26:11	664923	607f0b70818fde7990b3992d	4	1	main_slash	11	advance_on_keypress_SLASH	122	stimuli_target_trianglerectangles.svg	stimuli_distractor_diamondtriangles.svg	21	yes	57	0	413	0	0			0	0			1				0	
6.6.1	mac	2023-06-14	07:15:04	07:26:13	666882	607f0b70818fde7990b3992d	4	1	main_slash	11	main_slash	123	stimuli_target_squarediamonds.svg	stimuli_distractor_trianglediamonds.svg	4	yes	53	1	903	0	0			0	0			1				0	
6.6.1	mac	2023-06-14	07:15:04	07:26:13	666882	607f0b70818fde7990b3992d	4	1	main_slash	11	advance_on_keypress_SLASH	124	stimuli_target_squarediamonds.svg	stimuli_distractor_trianglediamonds.svg	4	yes	57	0	388	0	0			0	0			1				0	
6.6.1	mac	2023-06-14	07:15:04	07:26:15	668910	607f0b70818fde7990b3992d	4	1	main_slash	11	main_slash	125	stimuli_target_rectanglediamonds.svg	stimuli_distractor_diamondtriangles.svg	6	yes	53	1	1017	0	0			0	0			1				0	
6.6.1	mac	2023-06-14	07:15:04	07:26:15	668910	607f0b70818fde7990b3992d	4	1	main_slash	11	advance_on_keypress_SLASH	126	stimuli_target_rectanglediamonds.svg	stimuli_distractor_diamondtriangles.svg	6	yes	57	0	346	0	0			0	0			1				0	
6.6.1	mac	2023-06-14	07:15:04	07:26:17	670793	607f0b70818fde7990b3992d	4	1	main_slash	11	main_slash	127	stimuli_target_squarediamonds.svg	stimuli_distractor_diamondtriangles.svg	8	yes	53	1	897	0	0			0	0			1				0	
6.6.1	mac	2023-06-14	07:15:04	07:26:17	670793	607f0b70818fde7990b3992d	4	1	main_slash	11	advance_on_keypress_SLASH	128	stimuli_target_squarediamonds.svg	stimuli_distractor_diamondtriangles.svg	8	yes	57	0	331	0	0			0	0			1				0	
6.6.1	mac	2023-06-14	07:15:04	07:26:19	672826	607f0b70818fde7990b3992d	4	1	main_slash	11	main_slash	129	stimuli_distractor_diamondtriangles.svg	stimuli_target_rectangletriangles.svg	13	yes	53	1	1065	0	0			0	0			1				0	
6.6.1	mac	2023-06-14	07:15:04	07:26:19	672826	607f0b70818fde7990b3992d	4	1	main_slash	11	advance_on_keypress_SLASH	130	stimuli_distractor_diamondtriangles.svg	stimuli_target_rectangletriangles.svg	13	yes	57	0	474	0	0			0	0			1				0	
6.6.1	mac	2023-06-14	07:15:04	07:26:21	674977	607f0b70818fde7990b3992d	4	1	main_slash	11	main_slash	131	stimuli_distractor_trianglediamonds.svg	stimuli_target_rectanglediamonds.svg	10	yes	53	1	1050	0	0			0	0			1				0	
6.6.1	mac	2023-06-14	07:15:04	07:26:21	674977	607f0b70818fde7990b3992d	4	1	main_slash	11	advance_on_keypress_SLASH	132	stimuli_distractor_trianglediamonds.svg	stimuli_target_rectanglediamonds.svg	10	yes	57	0	401	0	0			0	0			1				0	
6.6.1	mac	2023-06-14	07:15:04	07:26:23	677117	607f0b70818fde7990b3992d	4	1	main_slash	11	main_slash	133	stimuli_distractor_trianglediamonds.svg	stimuli_target_diamondsquares.svg	28	yes	53	1	1107	0	0			0	0			1				0	
6.6.1	mac	2023-06-14	07:15:04	07:26:23	677117	607f0b70818fde7990b3992d	4	1	main_slash	11	advance_on_keypress_SLASH	134	stimuli_distractor_trianglediamonds.svg	stimuli_target_diamondsquares.svg	28	yes	57	0	412	0	0			0	0			1				0	
6.6.1	mac	2023-06-14	07:15:04	07:26:25	679262	607f0b70818fde7990b3992d	4	1	main_slash	11	main_slash	135	stimuli_target_trianglerectangles.svg	stimuli_distractor_trianglediamonds.svg	17	yes	53	1	1100	0	0			0	0			1				0	
6.6.1	mac	2023-06-14	07:15:04	07:26:25	679262	607f0b70818fde7990b3992d	4	1	main_slash	11	advance_on_keypress_SLASH	136	stimuli_target_trianglerectangles.svg	stimuli_distractor_trianglediamonds.svg	17	yes	57	0	375	0	0			0	0			1				0	
6.6.1	mac	2023-06-14	07:15:04	07:26:28	682258	607f0b70818fde7990b3992d	4	1	main_slash	11	main_slash	137	stimuli_distractor_trianglediamonds.svg	stimuli_distractor_trianglediamonds.svg	34	no	0	1	2000	0	0			0	0			1				0	
6.6.1	mac	2023-06-14	07:15:04	07:26:28	682258	607f0b70818fde7990b3992d	4	1	main_slash	11	advance_on_keypress_SLASH	138	stimuli_distractor_trianglediamonds.svg	stimuli_distractor_trianglediamonds.svg	34	no	57	0	505	0	0			0	0			1				0	
6.6.1	mac	2023-06-14	07:15:04	07:26:32	685392	607f0b70818fde7990b3992d	4	1	main_slash	11	main_slash	139	stimuli_distractor_diamondtriangles.svg	stimuli_distractor_diamondtriangles.svg	40	no	0	1	2000	0	0			0	0			1				0	
6.6.1	mac	2023-06-14	07:15:04	07:26:32	685392	607f0b70818fde7990b3992d	4	1	main_slash	11	advance_on_keypress_SLASH	140	stimuli_distractor_diamondtriangles.svg	stimuli_distractor_diamondtriangles.svg	40	no	57	0	629	0	0			0	0			1				0	
6.6.1	mac	2023-06-14	07:15:04	07:26:34	687717	607f0b70818fde7990b3992d	4	1	main_slash	11	main_slash	141	stimuli_distractor_trianglediamonds.svg	stimuli_target_trianglerectangles.svg	25	yes	53	1	1055	0	0			0	0			1				0	
6.6.1	mac	2023-06-14	07:15:04	07:26:34	687717	607f0b70818fde7990b3992d	4	1	main_slash	11	advance_on_keypress_SLASH	142	stimuli_distractor_trianglediamonds.svg	stimuli_target_trianglerectangles.svg	25	yes	57	0	1038	0	0			0	0			1				0	
6.6.1	mac	2023-06-14	07:15:04	07:26:36	690354	607f0b70818fde7990b3992d	4	1	main_slash	11	main_slash	143	stimuli_target_diamondsquares.svg	stimuli_distractor_diamondtriangles.svg	24	yes	53	1	976	0	0			0	0			1				0	
6.6.1	mac	2023-06-14	07:15:04	07:26:36	690354	607f0b70818fde7990b3992d	4	1	main_slash	11	advance_on_keypress_SLASH	144	stimuli_target_diamondsquares.svg	stimuli_distractor_diamondtriangles.svg	24	yes	57	0	437	0	0			0	0			1				0	
6.6.1	mac	2023-06-14	07:15:04	07:26:38	692333	607f0b70818fde7990b3992d	4	1	main_slash	11	main_slash	145	stimuli_distractor_diamondtriangles.svg	stimuli_target_trianglerectangles.svg	29	yes	53	1	906	0	0			0	0			1				0	
6.6.1	mac	2023-06-14	07:15:04	07:26:38	692333	607f0b70818fde7990b3992d	4	1	main_slash	11	advance_on_keypress_SLASH	146	stimuli_distractor_diamondtriangles.svg	stimuli_target_trianglerectangles.svg	29	yes	57	0	432	0	0			0	0			1				0	
6.6.1	mac	2023-06-14	07:15:04	07:26:41	694389	607f0b70818fde7990b3992d	4	1	main_slash	11	main_slash	147	stimuli_distractor_trianglediamonds.svg	stimuli_target_trianglesquares.svg	26	yes	53	1	993	0	0			0	0			1				0	
6.6.1	mac	2023-06-14	07:15:04	07:26:41	694389	607f0b70818fde7990b3992d	4	1	main_slash	11	advance_on_keypress_SLASH	148	stimuli_distractor_trianglediamonds.svg	stimuli_target_trianglesquares.svg	26	yes	57	0	326	0	0			0	0			1				0	
6.6.1	mac	2023-06-14	07:15:04	07:26:42	696342	607f0b70818fde7990b3992d	4	1	main_slash	11	main_slash	149	stimuli_distractor_trianglediamonds.svg	stimuli_target_diamondrectangles.svg	27	yes	53	1	998	0	0			0	0			1				0	
6.6.1	mac	2023-06-14	07:15:04	07:26:42	696342	607f0b70818fde7990b3992d	4	1	main_slash	11	advance_on_keypress_SLASH	150	stimuli_distractor_trianglediamonds.svg	stimuli_target_diamondrectangles.svg	27	yes	57	0	392	0	0			0	0			1				0	
6.6.1	mac	2023-06-14	07:15:04	07:26:45	698443	607f0b70818fde7990b3992d	4	1	main_slash	11	main_slash	151	stimuli_distractor_trianglediamonds.svg	stimuli_target_squaretriangles.svg	11	yes	53	1	1083	0	0			0	0			1				0	
6.6.1	mac	2023-06-14	07:15:04	07:26:45	698443	607f0b70818fde7990b3992d	4	1	main_slash	11	advance_on_keypress_SLASH	152	stimuli_distractor_trianglediamonds.svg	stimuli_target_squaretriangles.svg	11	yes	57	0	446	0	0			0	0			1				0	
6.6.1	mac	2023-06-14	07:15:04	07:26:48	701525	607f0b70818fde7990b3992d	4	1	main_slash	11	main_slash	153	stimuli_distractor_diamondtriangles.svg	stimuli_distractor_trianglediamonds.svg	38	no	0	1	2000	0	0			0	0			1				0	
6.6.1	mac	2023-06-14	07:15:04	07:26:48	701525	607f0b70818fde7990b3992d	4	1	main_slash	11	advance_on_keypress_SLASH	154	stimuli_distractor_diamondtriangles.svg	stimuli_distractor_trianglediamonds.svg	38	no	57	0	1016	0	0			0	0			1				0	
6.6.1	mac	2023-06-14	07:15:04	07:26:50	704013	607f0b70818fde7990b3992d	4	1	main_slash	11	main_slash	155	stimuli_distractor_trianglediamonds.svg	stimuli_target_rectangletriangles.svg	9	yes	53	1	836	0	0			0	0			1				0	
6.6.1	mac	2023-06-14	07:15:04	07:26:50	704013	607f0b70818fde7990b3992d	4	1	main_slash	11	advance_on_keypress_SLASH	156	stimuli_distractor_trianglediamonds.svg	stimuli_target_rectangletriangles.svg	9	yes	57	0	356	0	0			0	0			1				0	
6.6.1	mac	2023-06-14	07:15:04	07:26:53	706991	607f0b70818fde7990b3992d	4	1	main_slash	11	main_slash	157	stimuli_distractor_diamondtriangles.svg	stimuli_distractor_trianglediamonds.svg	37	no	0	1	2000	0	0			0	0			1				0	
6.6.1	mac	2023-06-14	07:15:04	07:26:53	706991	607f0b70818fde7990b3992d	4	1	main_slash	11	advance_on_keypress_SLASH	158	stimuli_distractor_diamondtriangles.svg	stimuli_distractor_trianglediamonds.svg	37	no	57	0	524	0	0			0	0			1				0	
6.6.1	mac	2023-06-14	07:15:04	07:26:55	709169	607f0b70818fde7990b3992d	4	1	main_slash	11	main_slash	159	stimuli_target_rectangletriangles.svg	stimuli_distractor_diamondtriangles.svg	5	yes	53	1	1025	0	0			0	0			1				0	
6.6.1	mac	2023-06-14	07:15:04	07:26:55	709169	607f0b70818fde7990b3992d	4	1	main_slash	11	advance_on_keypress_SLASH	160	stimuli_target_rectangletriangles.svg	stimuli_distractor_diamondtriangles.svg	5	yes	57	0	374	0	0			0	0			1				0	
6.6.1	mac	2023-06-14	07:15:04	07:26:55	709169	607f0b70818fde7990b3992d	4	1	headphonecheck_calibration	14	headphonecheck_calibrationIntro	1	stimuli_target_rectangletriangles.svg	stimuli_distractor_diamondtriangles.svg	5	yes	calibrationButton	0	1790	0	0			0	0			1				0	
6.6.1	mac	2023-06-14	07:15:04	07:26:55	709169	607f0b70818fde7990b3992d	4	1	headphonecheck_testphase	15	test_collectResponse	3	stimuli_target_rectangletriangles.svg	stimuli_distractor_diamondtriangles.svg	5	yes	first	1	1382	1	4	antiphase_hc_sio.wav	1	0	0			1				0	
6.6.1	mac	2023-06-14	07:15:04	07:26:55	709169	607f0b70818fde7990b3992d	4	1	headphonecheck_testphase	15	test_collectResponse	6	stimuli_target_rectangletriangles.svg	stimuli_distractor_diamondtriangles.svg	5	yes	second	1	2420	2	1	antiphase_hc_iso.wav	2	0	0			1				0	
6.6.1	mac	2023-06-14	07:15:04	07:26:55	709169	607f0b70818fde7990b3992d	4	1	headphonecheck_testphase	15	test_collectResponse	9	stimuli_target_rectangletriangles.svg	stimuli_distractor_diamondtriangles.svg	5	yes	second	1	1289	3	5	antiphase_hc_osi.wav	2	0	0			1				0	
6.6.1	mac	2023-06-14	07:15:04	07:26:55	709169	607f0b70818fde7990b3992d	4	1	headphonecheck_testphase	15	test_collectResponse	12	stimuli_target_rectangletriangles.svg	stimuli_distractor_diamondtriangles.svg	5	yes	third	1	715	4	2	antiphase_hc_ios.wav	3	0	0			1				0	
6.6.1	mac	2023-06-14	07:15:04	07:26:55	709169	607f0b70818fde7990b3992d	4	1	headphonecheck_testphase	15	test_collectResponse	15	stimuli_target_rectangletriangles.svg	stimuli_distractor_diamondtriangles.svg	5	yes	first	1	1142	5	3	antiphase_hc_soi.wav	1	0	0			1				0	
6.6.1	mac	2023-06-14	07:15:04	07:26:55	709169	607f0b70818fde7990b3992d	4	1	headphonecheck_testphase	15	test_collectResponse	18	stimuli_target_rectangletriangles.svg	stimuli_distractor_diamondtriangles.svg	5	yes	third	1	739	6	6	antiphase_hc_ois.wav	3	0	0			1				0	
6.6.1	mac	2023-06-14	07:15:04	07:26:55	709169	607f0b70818fde7990b3992d	4	1	stereocheck_calibration	17	stereocheck_calibrationIntro	1	stimuli_target_rectangletriangles.svg	stimuli_distractor_diamondtriangles.svg	5	yes	stereocheck_calibrationButton	0	3964	6	6	antiphase_hc_ois.wav	3	0	0			1				0	
6.6.1	mac	2023-06-14	07:15:04	07:26:55	709169	607f0b70818fde7990b3992d	4	1	stereocheck_testphase	18	stereocheck_test_collectResponse	3	stimuli_target_rectangletriangles.svg	stimuli_distractor_diamondtriangles.svg	5	yes	stereocheck_right	1	7081	6	6	antiphase_hc_ois.wav	3	1	5	noise_calib_stim_RIGHT.wav	2	1				0	
6.6.1	mac	2023-06-14	07:15:04	07:26:55	709169	607f0b70818fde7990b3992d	4	1	stereocheck_testphase	18	stereocheck_test_collectResponse	6	stimuli_target_rectangletriangles.svg	stimuli_distractor_diamondtriangles.svg	5	yes	stereocheck_right	1	970	6	6	antiphase_hc_ois.wav	3	2	6	noise_calib_stim_RIGHT.wav	2	1				0	
6.6.1	mac	2023-06-14	07:15:04	07:26:55	709169	607f0b70818fde7990b3992d	4	1	stereocheck_testphase	18	stereocheck_test_collectResponse	9	stimuli_target_rectangletriangles.svg	stimuli_distractor_diamondtriangles.svg	5	yes	stereocheck_left	1	772	6	6	antiphase_hc_ois.wav	3	3	1	noise_calib_stim_LEFT.wav	1	1				0	
6.6.1	mac	2023-06-14	07:15:04	07:26:55	709169	607f0b70818fde7990b3992d	4	1	stereocheck_testphase	18	stereocheck_test_collectResponse	12	stimuli_target_rectangletriangles.svg	stimuli_distractor_diamondtriangles.svg	5	yes	stereocheck_left	1	614	6	6	antiphase_hc_ois.wav	3	4	2	noise_calib_stim_LEFT.wav	1	1				0	
6.6.1	mac	2023-06-14	07:15:04	07:26:55	709169	607f0b70818fde7990b3992d	4	1	stereocheck_testphase	18	stereocheck_test_collectResponse	15	stimuli_target_rectangletriangles.svg	stimuli_distractor_diamondtriangles.svg	5	yes	stereocheck_left	1	597	6	6	antiphase_hc_ois.wav	3	5	3	noise_calib_stim_LEFT.wav	1	1				0	
6.6.1	mac	2023-06-14	07:15:04	07:26:55	709169	607f0b70818fde7990b3992d	4	1	stereocheck_testphase	18	stereocheck_test_collectResponse	18	stimuli_target_rectangletriangles.svg	stimuli_distractor_diamondtriangles.svg	5	yes	stereocheck_right	1	388	6	6	antiphase_hc_ois.wav	3	6	4	noise_calib_stim_RIGHT.wav	2	1				0	
6.6.1	mac	2023-06-14	07:15:04	07:26:55	709169	607f0b70818fde7990b3992d	4	1	DL_practice	21	DL_practice	2	stimuli_target_rectangletriangles.svg	stimuli_distractor_diamondtriangles.svg	5	yes	ta	1	1724	6	6	antiphase_hc_ois.wav	3	6	4	noise_calib_stim_RIGHT.wav	2	36	blb_dichoticlistening_ta-ta.mp3	ta	ta	0	left
6.6.1	mac	2023-06-14	07:15:04	07:26:55	709169	607f0b70818fde7990b3992d	4	1	DL_practice	21	DL_practice	3	stimuli_target_rectangletriangles.svg	stimuli_distractor_diamondtriangles.svg	5	yes	ba	1	1357	6	6	antiphase_hc_ois.wav	3	6	4	noise_calib_stim_RIGHT.wav	2	7	blb_dichoticlistening_da-ba.mp3	da	ba	1	right
6.6.1	mac	2023-06-14	07:15:04	07:26:55	709169	607f0b70818fde7990b3992d	4	1	DL_practice	21	DL_practice	4	stimuli_target_rectangletriangles.svg	stimuli_distractor_diamondtriangles.svg	5	yes	ga	1	1464	6	6	antiphase_hc_ois.wav	3	6	4	noise_calib_stim_RIGHT.wav	2	15	blb_dichoticlistening_ga-ga.mp3	ga	ga	0	left
6.6.1	mac	2023-06-14	07:15:04	07:26:55	709169	607f0b70818fde7990b3992d	4	1	DL_practice	21	DL_practice	5	stimuli_target_rectangletriangles.svg	stimuli_distractor_diamondtriangles.svg	5	yes	da	1	2113	6	6	antiphase_hc_ois.wav	3	6	4	noise_calib_stim_RIGHT.wav	2	8	blb_dichoticlistening_da-da.mp3	da	da	0	left
6.6.1	mac	2023-06-14	07:15:04	07:26:55	709169	607f0b70818fde7990b3992d	4	1	DL_practice	21	DL_practice	6	stimuli_target_rectangletriangles.svg	stimuli_distractor_diamondtriangles.svg	5	yes	ka	1	1289	6	6	antiphase_hc_ois.wav	3	6	4	noise_calib_stim_RIGHT.wav	2	23	blb_dichoticlistening_ka-pa.mp3	ka	pa	1	left
6.6.1	mac	2023-06-14	07:15:04	07:26:55	709169	607f0b70818fde7990b3992d	4	1	DL_practice	21	DL_practice	7	stimuli_target_rectangletriangles.svg	stimuli_distractor_diamondtriangles.svg	5	yes	ka	0	948	6	6	antiphase_hc_ois.wav	3	6	4	noise_calib_stim_RIGHT.wav	2	18	blb_dichoticlistening_ga-ta.mp3	ga	ta	1	other
6.6.1	mac	2023-06-14	07:15:04	07:26:55	709169	607f0b70818fde7990b3992d	4	1	DL_practice	21	DL_practice	8	stimuli_target_rectangletriangles.svg	stimuli_distractor_diamondtriangles.svg	5	yes	ka	1	1006	6	6	antiphase_hc_ois.wav	3	6	4	noise_calib_stim_RIGHT.wav	2	22	blb_dichoticlistening_ka-ka.mp3	ka	ka	0	left
6.6.1	mac	2023-06-14	07:15:04	07:26:55	709169	607f0b70818fde7990b3992d	4	1	DL_practice	21	DL_practice	9	stimuli_target_rectangletriangles.svg	stimuli_distractor_diamondtriangles.svg	5	yes	ba	1	1772	6	6	antiphase_hc_ois.wav	3	6	4	noise_calib_stim_RIGHT.wav	2	1	blb_dichoticlistening_ba-ba.mp3	ba	ba	0	left
6.6.1	mac	2023-06-14	07:15:04	07:26:55	709169	607f0b70818fde7990b3992d	4	1	DL_practice	21	DL_practice	10	stimuli_target_rectangletriangles.svg	stimuli_distractor_diamondtriangles.svg	5	yes	pa	1	1516	6	6	antiphase_hc_ois.wav	3	6	4	noise_calib_stim_RIGHT.wav	2	29	blb_dichoticlistening_pa-pa.mp3	pa	pa	0	left
6.6.1	mac	2023-06-14	07:15:04	07:26:55	709169	607f0b70818fde7990b3992d	4	1	DL_test	23	DL_test	1	stimuli_target_rectangletriangles.svg	stimuli_distractor_diamondtriangles.svg	5	yes	ga	1	1013	6	6	antiphase_hc_ois.wav	3	6	4	noise_calib_stim_RIGHT.wav	2	3	blb_dichoticlistening_ba-ga.mp3	ba	ga	1	right
6.6.1	mac	2023-06-14	07:15:04	07:26:55	709169	607f0b70818fde7990b3992d	4	1	DL_test	23	DL_test	2	stimuli_target_rectangletriangles.svg	stimuli_distractor_diamondtriangles.svg	5	yes	ta	1	1363	6	6	antiphase_hc_ois.wav	3	6	4	noise_calib_stim_RIGHT.wav	2	32	blb_dichoticlistening_ta-da.mp3	ta	da	1	left
6.6.1	mac	2023-06-14	07:15:04	07:26:55	709169	607f0b70818fde7990b3992d	4	1	DL_test	23	DL_test	3	stimuli_target_rectangletriangles.svg	stimuli_distractor_diamondtriangles.svg	5	yes	ka	1	823	6	6	antiphase_hc_ois.wav	3	6	4	noise_calib_stim_RIGHT.wav	2	21	blb_dichoticlistening_ka-ga.mp3	ka	ga	1	left
6.6.1	mac	2023-06-14	07:15:04	07:26:55	709169	607f0b70818fde7990b3992d	4	1	DL_test	23	DL_test	4	stimuli_target_rectangletriangles.svg	stimuli_distractor_diamondtriangles.svg	5	yes	pa	0	914	6	6	antiphase_hc_ois.wav	3	6	4	noise_calib_stim_RIGHT.wav	2	10	blb_dichoticlistening_da-ka.mp3	da	ka	1	other
6.6.1	mac	2023-06-14	07:15:04	07:26:55	709169	607f0b70818fde7990b3992d	4	1	DL_test	23	DL_test	5	stimuli_target_rectangletriangles.svg	stimuli_distractor_diamondtriangles.svg	5	yes	ka	0	998	6	6	antiphase_hc_ois.wav	3	6	4	noise_calib_stim_RIGHT.wav	2	18	blb_dichoticlistening_ga-ta.mp3	ga	ta	1	other
6.6.1	mac	2023-06-14	07:15:04	07:26:55	709169	607f0b70818fde7990b3992d	4	1	DL_test	23	DL_test	6	stimuli_target_rectangletriangles.svg	stimuli_distractor_diamondtriangles.svg	5	yes	pa	1	2314	6	6	antiphase_hc_ois.wav	3	6	4	noise_calib_stim_RIGHT.wav	2	25	blb_dichoticlistening_pa-ba.mp3	pa	ba	1	left
6.6.1	mac	2023-06-14	07:15:04	07:26:55	709169	607f0b70818fde7990b3992d	4	1	DL_test	23	DL_test	7	stimuli_target_rectangletriangles.svg	stimuli_distractor_diamondtriangles.svg	5	yes	da	1	1265	6	6	antiphase_hc_ois.wav	3	6	4	noise_calib_stim_RIGHT.wav	2	8	blb_dichoticlistening_da-da.mp3	da	da	0	left
6.6.1	mac	2023-06-14	07:15:04	07:26:55	709169	607f0b70818fde7990b3992d	4	1	DL_test	23	DL_test	8	stimuli_target_rectangletriangles.svg	stimuli_distractor_diamondtriangles.svg	5	yes	ka	1	1056	6	6	antiphase_hc_ois.wav	3	6	4	noise_calib_stim_RIGHT.wav	2	28	blb_dichoticlistening_pa-ka.mp3	pa	ka	1	right
6.6.1	mac	2023-06-14	07:15:04	07:26:55	709169	607f0b70818fde7990b3992d	4	1	DL_test	23	DL_test	9	stimuli_target_rectangletriangles.svg	stimuli_distractor_diamondtriangles.svg	5	yes	ka	1	1013	6	6	antiphase_hc_ois.wav	3	6	4	noise_calib_stim_RIGHT.wav	2	23	blb_dichoticlistening_ka-pa.mp3	ka	pa	1	left
6.6.1	mac	2023-06-14	07:15:04	07:26:55	709169	607f0b70818fde7990b3992d	4	1	DL_test	23	DL_test	10	stimuli_target_rectangletriangles.svg	stimuli_distractor_diamondtriangles.svg	5	yes	pa	1	1322	6	6	antiphase_hc_ois.wav	3	6	4	noise_calib_stim_RIGHT.wav	2	27	blb_dichoticlistening_pa-ga.mp3	pa	ga	1	left
6.6.1	mac	2023-06-14	07:15:04	07:26:55	709169	607f0b70818fde7990b3992d	4	1	DL_test	23	DL_test	11	stimuli_target_rectangletriangles.svg	stimuli_distractor_diamondtriangles.svg	5	yes	ka	1	1124	6	6	antiphase_hc_ois.wav	3	6	4	noise_calib_stim_RIGHT.wav	2	24	blb_dichoticlistening_ka-ta.mp3	ka	ta	1	left
6.6.1	mac	2023-06-14	07:15:04	07:26:55	709169	607f0b70818fde7990b3992d	4	1	DL_test	23	DL_test	12	stimuli_target_rectangletriangles.svg	stimuli_distractor_diamondtriangles.svg	5	yes	ba	1	1173	6	6	antiphase_hc_ois.wav	3	6	4	noise_calib_stim_RIGHT.wav	2	13	blb_dichoticlistening_ga-ba.mp3	ga	ba	1	right
6.6.1	mac	2023-06-14	07:15:04	07:26:55	709169	607f0b70818fde7990b3992d	4	1	DL_test	23	DL_test	13	stimuli_target_rectangletriangles.svg	stimuli_distractor_diamondtriangles.svg	5	yes	ka	0	1605	6	6	antiphase_hc_ois.wav	3	6	4	noise_calib_stim_RIGHT.wav	2	33	blb_dichoticlistening_ta-ga.mp3	ta	ga	1	other
6.6.1	mac	2023-06-14	07:15:04	07:26:55	709169	607f0b70818fde7990b3992d	4	1	DL_test	23	DL_test	14	stimuli_target_rectangletriangles.svg	stimuli_distractor_diamondtriangles.svg	5	yes	pa	1	1389	6	6	antiphase_hc_ois.wav	3	6	4	noise_calib_stim_RIGHT.wav	2	26	blb_dichoticlistening_pa-da.mp3	pa	da	1	left
6.6.1	mac	2023-06-14	07:15:04	07:26:55	709169	607f0b70818fde7990b3992d	4	1	DL_test	23	DL_test	15	stimuli_target_rectangletriangles.svg	stimuli_distractor_diamondtriangles.svg	5	yes	ka	1	980	6	6	antiphase_hc_ois.wav	3	6	4	noise_calib_stim_RIGHT.wav	2	34	blb_dichoticlistening_ta-ka.mp3	ta	ka	1	right
6.6.1	mac	2023-06-14	07:15:04	07:26:55	709169	607f0b70818fde7990b3992d	4	1	DL_test	23	DL_test	16	stimuli_target_rectangletriangles.svg	stimuli_distractor_diamondtriangles.svg	5	yes	pa	1	1039	6	6	antiphase_hc_ois.wav	3	6	4	noise_calib_stim_RIGHT.wav	2	17	blb_dichoticlistening_ga-pa.mp3	ga	pa	1	right
6.6.1	mac	2023-06-14	07:15:04	07:26:55	709169	607f0b70818fde7990b3992d	4	1	DL_test	23	DL_test	17	stimuli_target_rectangletriangles.svg	stimuli_distractor_diamondtriangles.svg	5	yes	ka	0	905	6	6	antiphase_hc_ois.wav	3	6	4	noise_calib_stim_RIGHT.wav	2	2	blb_dichoticlistening_ba-da.mp3	ba	da	1	other
6.6.1	mac	2023-06-14	07:15:04	07:26:55	709169	607f0b70818fde7990b3992d	4	1	DL_test	23	DL_test	18	stimuli_target_rectangletriangles.svg	stimuli_distractor_diamondtriangles.svg	5	yes	ka	1	1105	6	6	antiphase_hc_ois.wav	3	6	4	noise_calib_stim_RIGHT.wav	2	22	blb_dichoticlistening_ka-ka.mp3	ka	ka	0	left
6.6.1	mac	2023-06-14	07:15:04	07:26:55	709169	607f0b70818fde7990b3992d	4	1	DL_test	23	DL_test	19	stimuli_target_rectangletriangles.svg	stimuli_distractor_diamondtriangles.svg	5	yes	ta	1	1473	6	6	antiphase_hc_ois.wav	3	6	4	noise_calib_stim_RIGHT.wav	2	12	blb_dichoticlistening_da-ta.mp3	da	ta	1	right
6.6.1	mac	2023-06-14	07:15:04	07:26:55	709169	607f0b70818fde7990b3992d	4	1	DL_test	23	DL_test	20	stimuli_target_rectangletriangles.svg	stimuli_distractor_diamondtriangles.svg	5	yes	pa	0	983	6	6	antiphase_hc_ois.wav	3	6	4	noise_calib_stim_RIGHT.wav	2	19	blb_dichoticlistening_ka-ba.mp3	ka	ba	1	other
6.6.1	mac	2023-06-14	07:15:04	07:26:55	709169	607f0b70818fde7990b3992d	4	1	DL_test	23	DL_test	21	stimuli_target_rectangletriangles.svg	stimuli_distractor_diamondtriangles.svg	5	yes	ga	1	960	6	6	antiphase_hc_ois.wav	3	6	4	noise_calib_stim_RIGHT.wav	2	14	blb_dichoticlistening_ga-da.mp3	ga	da	1	left
6.6.1	mac	2023-06-14	07:15:04	07:26:55	709169	607f0b70818fde7990b3992d	4	1	DL_test	23	DL_test	22	stimuli_target_rectangletriangles.svg	stimuli_distractor_diamondtriangles.svg	5	yes	ba	1	1614	6	6	antiphase_hc_ois.wav	3	6	4	noise_calib_stim_RIGHT.wav	2	7	blb_dichoticlistening_da-ba.mp3	da	ba	1	right
6.6.1	mac	2023-06-14	07:15:04	07:26:55	709169	607f0b70818fde7990b3992d	4	1	DL_test	23	DL_test	23	stimuli_target_rectangletriangles.svg	stimuli_distractor_diamondtriangles.svg	5	yes	ka	1	1166	6	6	antiphase_hc_ois.wav	3	6	4	noise_calib_stim_RIGHT.wav	2	16	blb_dichoticlistening_ga-ka.mp3	ga	ka	1	right
6.6.1	mac	2023-06-14	07:15:04	07:26:55	709169	607f0b70818fde7990b3992d	4	1	DL_test	23	DL_test	24	stimuli_target_rectangletriangles.svg	stimuli_distractor_diamondtriangles.svg	5	yes	pa	1	1231	6	6	antiphase_hc_ois.wav	3	6	4	noise_calib_stim_RIGHT.wav	2	35	blb_dichoticlistening_ta-pa.mp3	ta	pa	1	right
6.6.1	mac	2023-06-14	07:15:04	07:26:55	709169	607f0b70818fde7990b3992d	4	1	DL_test	23	DL_test	25	stimuli_target_rectangletriangles.svg	stimuli_distractor_diamondtriangles.svg	5	yes	pa	1	1197	6	6	antiphase_hc_ois.wav	3	6	4	noise_calib_stim_RIGHT.wav	2	5	blb_dichoticlistening_ba-pa.mp3	ba	pa	1	right
