build	computer.platform	date	time	timestamp	time_elapsed_ms	subject	group	session	blockcode	blocknum	trialcode	trialnum	stimulus_left	stimulus_right	stim_index	target_present	response	correct	latency	headphonecheck_countTestTrials	headphonecheck_index	headphonecheck_testSound	headphonecheck_correctResponse	stereocheck_countTestTrials	stereocheck_index	stereocheck_testSound	stereocheck_correctResponse	DL_index	DL_soundfile	DL_leftSound	DL_rightSound	DL_dualSound	DL_choice
6.6.1	win	2023-06-02	06:18:26	06:21:07	159320	5d62886927a84f00010fbbb4	4	1	practice_z	5	practice_z	1	stimuli_target_squarediamonds.svg	stimuli_distractor_diamondtriangles.svg	2	yes	44	1	929	0	0			0	0			1				0	
6.6.1	win	2023-06-02	06:18:26	06:21:07	159320	5d62886927a84f00010fbbb4	4	1	practice_z	5	advance_on_keypress_ZEE	2	stimuli_target_squarediamonds.svg	stimuli_distractor_diamondtriangles.svg	2	yes	57	0	1702	0	0			0	0			1				0	
6.6.1	win	2023-06-02	06:18:26	06:21:12	164640	5d62886927a84f00010fbbb4	4	1	practice_z	5	practice_z	3	stimuli_distractor_diamondtriangles.svg	stimuli_distractor_diamondtriangles.svg	13	no	0	1	2000	0	0			0	0			1				0	
6.6.1	win	2023-06-02	06:18:26	06:21:12	164640	5d62886927a84f00010fbbb4	4	1	practice_z	5	advance_on_keypress_ZEE	4	stimuli_distractor_diamondtriangles.svg	stimuli_distractor_diamondtriangles.svg	13	no	57	0	726	0	0			0	0			1				0	
6.6.1	win	2023-06-02	06:18:26	06:21:15	167559	5d62886927a84f00010fbbb4	4	1	practice_z	5	practice_z	5	stimuli_distractor_trianglediamonds.svg	stimuli_target_squarediamonds.svg	11	yes	44	1	574	0	0			0	0			1				0	
6.6.1	win	2023-06-02	06:18:26	06:21:15	167559	5d62886927a84f00010fbbb4	4	1	practice_z	5	advance_on_keypress_ZEE	6	stimuli_distractor_trianglediamonds.svg	stimuli_target_squarediamonds.svg	11	yes	57	0	523	0	0			0	0			1				0	
6.6.1	win	2023-06-02	06:18:26	06:21:18	170347	5d62886927a84f00010fbbb4	4	1	practice_z	5	practice_z	7	stimuli_target_squarediamonds.svg	stimuli_distractor_trianglediamonds.svg	5	yes	44	1	652	0	0			0	0			1				0	
6.6.1	win	2023-06-02	06:18:26	06:21:18	170347	5d62886927a84f00010fbbb4	4	1	practice_z	5	advance_on_keypress_ZEE	8	stimuli_target_squarediamonds.svg	stimuli_distractor_trianglediamonds.svg	5	yes	57	0	487	0	0			0	0			1				0	
6.6.1	win	2023-06-02	06:18:26	06:21:22	174446	5d62886927a84f00010fbbb4	4	1	practice_z	5	practice_z	9	stimuli_target_diamondsquares.svg	stimuli_distractor_trianglediamonds.svg	6	yes	0	0	2000	0	0			0	0			1				0	
6.6.1	win	2023-06-02	06:18:26	06:21:22	174446	5d62886927a84f00010fbbb4	4	1	practice_z	5	advance_on_keypress_ZEE	10	stimuli_target_diamondsquares.svg	stimuli_distractor_trianglediamonds.svg	6	yes	57	0	713	0	0			0	0			1				0	
6.6.1	win	2023-06-02	06:18:26	06:21:26	178773	5d62886927a84f00010fbbb4	4	1	practice_z	5	practice_z	11	stimuli_distractor_trianglediamonds.svg	stimuli_distractor_trianglediamonds.svg	15	no	0	1	2000	0	0			0	0			1				0	
6.6.1	win	2023-06-02	06:18:26	06:21:26	178773	5d62886927a84f00010fbbb4	4	1	practice_z	5	advance_on_keypress_ZEE	12	stimuli_distractor_trianglediamonds.svg	stimuli_distractor_trianglediamonds.svg	15	no	57	0	680	0	0			0	0			1				0	
6.6.1	win	2023-06-02	06:18:26	06:21:29	181511	5d62886927a84f00010fbbb4	4	1	practice_z	5	practice_z	13	stimuli_target_rectanglediamonds.svg	stimuli_distractor_trianglediamonds.svg	4	yes	44	1	441	0	0			0	0			1				0	
6.6.1	win	2023-06-02	06:18:26	06:21:29	181511	5d62886927a84f00010fbbb4	4	1	practice_z	5	advance_on_keypress_ZEE	14	stimuli_target_rectanglediamonds.svg	stimuli_distractor_trianglediamonds.svg	4	yes	57	0	652	0	0			0	0			1				0	
6.6.1	win	2023-06-02	06:18:26	06:21:32	184187	5d62886927a84f00010fbbb4	4	1	practice_z	5	practice_z	15	stimuli_target_rectanglediamonds.svg	stimuli_distractor_diamondtriangles.svg	1	yes	44	1	414	0	0			0	0			1				0	
6.6.1	win	2023-06-02	06:18:26	06:21:32	184187	5d62886927a84f00010fbbb4	4	1	practice_z	5	advance_on_keypress_ZEE	16	stimuli_target_rectanglediamonds.svg	stimuli_distractor_diamondtriangles.svg	1	yes	57	0	440	0	0			0	0			1				0	
6.6.1	win	2023-06-02	06:18:26	06:21:34	186759	5d62886927a84f00010fbbb4	4	1	practice_z	5	practice_z	17	stimuli_distractor_diamondtriangles.svg	stimuli_target_diamondrectangles.svg	8	yes	44	1	513	0	0			0	0			1				0	
6.6.1	win	2023-06-02	06:18:26	06:21:34	186759	5d62886927a84f00010fbbb4	4	1	practice_z	5	advance_on_keypress_ZEE	18	stimuli_distractor_diamondtriangles.svg	stimuli_target_diamondrectangles.svg	8	yes	57	0	480	0	0			0	0			1				0	
6.6.1	win	2023-06-02	06:18:26	06:21:37	189255	5d62886927a84f00010fbbb4	4	1	practice_z	5	practice_z	19	stimuli_distractor_trianglediamonds.svg	stimuli_target_rectanglediamonds.svg	10	yes	44	1	404	0	0			0	0			1				0	
6.6.1	win	2023-06-02	06:18:26	06:21:37	189255	5d62886927a84f00010fbbb4	4	1	practice_z	5	advance_on_keypress_ZEE	20	stimuli_distractor_trianglediamonds.svg	stimuli_target_rectanglediamonds.svg	10	yes	57	0	381	0	0			0	0			1				0	
6.6.1	win	2023-06-02	06:18:26	06:21:41	193252	5d62886927a84f00010fbbb4	4	1	practice_z	5	practice_z	21	stimuli_distractor_trianglediamonds.svg	stimuli_distractor_diamondtriangles.svg	16	no	0	1	2000	0	0			0	0			1				0	
6.6.1	win	2023-06-02	06:18:26	06:21:41	193252	5d62886927a84f00010fbbb4	4	1	practice_z	5	advance_on_keypress_ZEE	22	stimuli_distractor_trianglediamonds.svg	stimuli_distractor_diamondtriangles.svg	16	no	57	0	389	0	0			0	0			1				0	
6.6.1	win	2023-06-02	06:18:26	06:21:43	195729	5d62886927a84f00010fbbb4	4	1	practice_z	5	practice_z	23	stimuli_distractor_diamondtriangles.svg	stimuli_target_rectangletriangles.svg	7	yes	44	1	472	0	0			0	0			1				0	
6.6.1	win	2023-06-02	06:18:26	06:21:43	195729	5d62886927a84f00010fbbb4	4	1	practice_z	5	advance_on_keypress_ZEE	24	stimuli_distractor_diamondtriangles.svg	stimuli_target_rectangletriangles.svg	7	yes	57	0	361	0	0			0	0			1				0	
6.6.1	win	2023-06-02	06:18:26	06:21:46	198272	5d62886927a84f00010fbbb4	4	1	practice_z	5	practice_z	25	stimuli_target_diamondsquares.svg	stimuli_distractor_diamondtriangles.svg	3	yes	44	1	571	0	0			0	0			1				0	
6.6.1	win	2023-06-02	06:18:26	06:21:46	198272	5d62886927a84f00010fbbb4	4	1	practice_z	5	advance_on_keypress_ZEE	26	stimuli_target_diamondsquares.svg	stimuli_distractor_diamondtriangles.svg	3	yes	57	0	424	0	0			0	0			1				0	
6.6.1	win	2023-06-02	06:18:26	06:21:48	200663	5d62886927a84f00010fbbb4	4	1	practice_z	5	practice_z	27	stimuli_distractor_trianglediamonds.svg	stimuli_target_diamondrectangles.svg	12	yes	44	1	350	0	0			0	0			1				0	
6.6.1	win	2023-06-02	06:18:26	06:21:48	200663	5d62886927a84f00010fbbb4	4	1	practice_z	5	advance_on_keypress_ZEE	28	stimuli_distractor_trianglediamonds.svg	stimuli_target_diamondrectangles.svg	12	yes	57	0	382	0	0			0	0			1				0	
6.6.1	win	2023-06-02	06:18:26	06:21:51	203220	5d62886927a84f00010fbbb4	4	1	practice_z	5	practice_z	29	stimuli_distractor_diamondtriangles.svg	stimuli_distractor_trianglediamonds.svg	14	no	44	0	562	0	0			0	0			1				0	
6.6.1	win	2023-06-02	06:18:26	06:21:51	203220	5d62886927a84f00010fbbb4	4	1	practice_z	5	advance_on_keypress_ZEE	30	stimuli_distractor_diamondtriangles.svg	stimuli_distractor_trianglediamonds.svg	14	no	57	0	421	0	0			0	0			1				0	
6.6.1	win	2023-06-02	06:18:26	06:21:54	205889	5d62886927a84f00010fbbb4	4	1	practice_z	5	practice_z	31	stimuli_distractor_diamondtriangles.svg	stimuli_target_trianglerectangles.svg	9	yes	44	1	637	0	0			0	0			1				0	
6.6.1	win	2023-06-02	06:18:26	06:21:54	205889	5d62886927a84f00010fbbb4	4	1	practice_z	5	advance_on_keypress_ZEE	32	stimuli_distractor_diamondtriangles.svg	stimuli_target_trianglerectangles.svg	9	yes	57	0	544	0	0			0	0			1				0	
6.6.1	win	2023-06-02	06:18:26	06:22:03	214895	5d62886927a84f00010fbbb4	4	1	main_z	7	main_z	1	stimuli_distractor_trianglediamonds.svg	stimuli_distractor_trianglediamonds.svg	34	no	0	1	2000	0	0			0	0			1				0	
6.6.1	win	2023-06-02	06:18:26	06:22:03	214895	5d62886927a84f00010fbbb4	4	1	main_z	7	advance_on_keypress_ZEE	2	stimuli_distractor_trianglediamonds.svg	stimuli_distractor_trianglediamonds.svg	34	no	57	0	837	0	0			0	0			1				0	
6.6.1	win	2023-06-02	06:18:26	06:22:04	216745	5d62886927a84f00010fbbb4	4	1	main_z	7	main_z	3	stimuli_target_trianglerectangles.svg	stimuli_distractor_diamondtriangles.svg	21	yes	44	1	395	0	0			0	0			1				0	
6.6.1	win	2023-06-02	06:18:26	06:22:04	216745	5d62886927a84f00010fbbb4	4	1	main_z	7	advance_on_keypress_ZEE	4	stimuli_target_trianglerectangles.svg	stimuli_distractor_diamondtriangles.svg	21	yes	57	0	1183	0	0			0	0			1				0	
6.6.1	win	2023-06-02	06:18:26	06:22:07	219015	5d62886927a84f00010fbbb4	4	1	main_z	7	main_z	5	stimuli_distractor_trianglediamonds.svg	stimuli_target_squarediamonds.svg	12	yes	44	1	471	0	0			0	0			1				0	
6.6.1	win	2023-06-02	06:18:26	06:22:07	219015	5d62886927a84f00010fbbb4	4	1	main_z	7	advance_on_keypress_ZEE	6	stimuli_distractor_trianglediamonds.svg	stimuli_target_squarediamonds.svg	12	yes	57	0	901	0	0			0	0			1				0	
6.6.1	win	2023-06-02	06:18:26	06:22:09	220925	5d62886927a84f00010fbbb4	4	1	main_z	7	main_z	7	stimuli_distractor_trianglediamonds.svg	stimuli_target_rectangletriangles.svg	9	yes	44	1	400	0	0			0	0			1				0	
6.6.1	win	2023-06-02	06:18:26	06:22:09	220925	5d62886927a84f00010fbbb4	4	1	main_z	7	advance_on_keypress_ZEE	8	stimuli_distractor_trianglediamonds.svg	stimuli_target_rectangletriangles.svg	9	yes	57	0	563	0	0			0	0			1				0	
6.6.1	win	2023-06-02	06:18:26	06:22:10	222788	5d62886927a84f00010fbbb4	4	1	main_z	7	main_z	9	stimuli_distractor_diamondtriangles.svg	stimuli_target_diamondrectangles.svg	31	yes	44	1	680	0	0			0	0			1				0	
6.6.1	win	2023-06-02	06:18:26	06:22:10	222788	5d62886927a84f00010fbbb4	4	1	main_z	7	advance_on_keypress_ZEE	10	stimuli_distractor_diamondtriangles.svg	stimuli_target_diamondrectangles.svg	31	yes	57	0	658	0	0			0	0			1				0	
6.6.1	win	2023-06-02	06:18:26	06:22:12	224446	5d62886927a84f00010fbbb4	4	1	main_z	7	main_z	11	stimuli_distractor_trianglediamonds.svg	stimuli_target_trianglesquares.svg	26	yes	44	1	383	0	0			0	0			1				0	
6.6.1	win	2023-06-02	06:18:26	06:22:12	224446	5d62886927a84f00010fbbb4	4	1	main_z	7	advance_on_keypress_ZEE	12	stimuli_distractor_trianglediamonds.svg	stimuli_target_trianglesquares.svg	26	yes	57	0	584	0	0			0	0			1				0	
6.6.1	win	2023-06-02	06:18:26	06:22:14	225991	5d62886927a84f00010fbbb4	4	1	main_z	7	main_z	13	stimuli_target_rectangletriangles.svg	stimuli_distractor_diamondtriangles.svg	5	yes	44	1	344	0	0			0	0			1				0	
6.6.1	win	2023-06-02	06:18:26	06:22:14	225991	5d62886927a84f00010fbbb4	4	1	main_z	7	advance_on_keypress_ZEE	14	stimuli_target_rectangletriangles.svg	stimuli_distractor_diamondtriangles.svg	5	yes	57	0	992	0	0			0	0			1				0	
6.6.1	win	2023-06-02	06:18:26	06:22:16	228201	5d62886927a84f00010fbbb4	4	1	main_z	7	main_z	15	stimuli_target_squaretriangles.svg	stimuli_distractor_trianglediamonds.svg	3	yes	44	1	603	0	0			0	0			1				0	
6.6.1	win	2023-06-02	06:18:26	06:22:16	228201	5d62886927a84f00010fbbb4	4	1	main_z	7	advance_on_keypress_ZEE	16	stimuli_target_squaretriangles.svg	stimuli_distractor_trianglediamonds.svg	3	yes	57	0	531	0	0			0	0			1				0	
6.6.1	win	2023-06-02	06:18:26	06:22:19	231344	5d62886927a84f00010fbbb4	4	1	main_z	7	main_z	17	stimuli_distractor_trianglediamonds.svg	stimuli_distractor_diamondtriangles.svg	36	no	0	1	2000	0	0			0	0			1				0	
6.6.1	win	2023-06-02	06:18:26	06:22:19	231344	5d62886927a84f00010fbbb4	4	1	main_z	7	advance_on_keypress_ZEE	18	stimuli_distractor_trianglediamonds.svg	stimuli_distractor_diamondtriangles.svg	36	no	57	0	640	0	0			0	0			1				0	
6.6.1	win	2023-06-02	06:18:26	06:22:21	232976	5d62886927a84f00010fbbb4	4	1	main_z	7	main_z	19	stimuli_distractor_trianglediamonds.svg	stimuli_target_trianglerectangles.svg	25	yes	44	1	378	0	0			0	0			1				0	
6.6.1	win	2023-06-02	06:18:26	06:22:21	232976	5d62886927a84f00010fbbb4	4	1	main_z	7	advance_on_keypress_ZEE	20	stimuli_distractor_trianglediamonds.svg	stimuli_target_trianglerectangles.svg	25	yes	57	0	1228	0	0			0	0			1				0	
6.6.1	win	2023-06-02	06:18:26	06:22:23	235433	5d62886927a84f00010fbbb4	4	1	main_z	7	main_z	21	stimuli_distractor_trianglediamonds.svg	stimuli_distractor_trianglediamonds.svg	33	no	44	0	616	0	0			0	0			1				0	
6.6.1	win	2023-06-02	06:18:26	06:22:23	235433	5d62886927a84f00010fbbb4	4	1	main_z	7	advance_on_keypress_ZEE	22	stimuli_distractor_trianglediamonds.svg	stimuli_distractor_trianglediamonds.svg	33	no	57	0	1509	0	0			0	0			1				0	
6.6.1	win	2023-06-02	06:18:26	06:22:26	238132	5d62886927a84f00010fbbb4	4	1	main_z	7	main_z	23	stimuli_target_diamondrectangles.svg	stimuli_distractor_trianglediamonds.svg	19	yes	44	1	576	0	0			0	0			1				0	
6.6.1	win	2023-06-02	06:18:26	06:22:26	238132	5d62886927a84f00010fbbb4	4	1	main_z	7	advance_on_keypress_ZEE	24	stimuli_target_diamondrectangles.svg	stimuli_distractor_trianglediamonds.svg	19	yes	57	0	451	0	0			0	0			1				0	
6.6.1	win	2023-06-02	06:18:26	06:22:28	240025	5d62886927a84f00010fbbb4	4	1	main_z	7	main_z	25	stimuli_distractor_diamondtriangles.svg	stimuli_distractor_trianglediamonds.svg	37	no	44	0	827	0	0			0	0			1				0	
6.6.1	win	2023-06-02	06:18:26	06:22:28	240025	5d62886927a84f00010fbbb4	4	1	main_z	7	advance_on_keypress_ZEE	26	stimuli_distractor_diamondtriangles.svg	stimuli_distractor_trianglediamonds.svg	37	no	57	0	664	0	0			0	0			1				0	
6.6.1	win	2023-06-02	06:18:26	06:22:31	243302	5d62886927a84f00010fbbb4	4	1	main_z	7	main_z	27	stimuli_target_rectanglediamonds.svg	stimuli_distractor_trianglediamonds.svg	2	yes	0	0	2000	0	0			0	0			1				0	
6.6.1	win	2023-06-02	06:18:26	06:22:31	243302	5d62886927a84f00010fbbb4	4	1	main_z	7	advance_on_keypress_ZEE	28	stimuli_target_rectanglediamonds.svg	stimuli_distractor_trianglediamonds.svg	2	yes	57	0	565	0	0			0	0			1				0	
6.6.1	win	2023-06-02	06:18:26	06:22:34	245993	5d62886927a84f00010fbbb4	4	1	main_z	7	main_z	29	stimuli_distractor_diamondtriangles.svg	stimuli_target_squarediamonds.svg	16	yes	44	1	1510	0	0			0	0			1				0	
6.6.1	win	2023-06-02	06:18:26	06:22:34	245993	5d62886927a84f00010fbbb4	4	1	main_z	7	advance_on_keypress_ZEE	30	stimuli_distractor_diamondtriangles.svg	stimuli_target_squarediamonds.svg	16	yes	57	0	708	0	0			0	0			1				0	
6.6.1	win	2023-06-02	06:18:26	06:22:36	247955	5d62886927a84f00010fbbb4	4	1	main_z	7	main_z	31	stimuli_target_diamondrectangles.svg	stimuli_distractor_diamondtriangles.svg	23	yes	44	1	635	0	0			0	0			1				0	
6.6.1	win	2023-06-02	06:18:26	06:22:36	247955	5d62886927a84f00010fbbb4	4	1	main_z	7	advance_on_keypress_ZEE	32	stimuli_target_diamondrectangles.svg	stimuli_distractor_diamondtriangles.svg	23	yes	57	0	617	0	0			0	0			1				0	
6.6.1	win	2023-06-02	06:18:26	06:22:37	249662	5d62886927a84f00010fbbb4	4	1	main_z	7	main_z	33	stimuli_distractor_trianglediamonds.svg	stimuli_target_squaretriangles.svg	11	yes	44	1	469	0	0			0	0			1				0	
6.6.1	win	2023-06-02	06:18:26	06:22:37	249662	5d62886927a84f00010fbbb4	4	1	main_z	7	advance_on_keypress_ZEE	34	stimuli_distractor_trianglediamonds.svg	stimuli_target_squaretriangles.svg	11	yes	57	0	1138	0	0			0	0			1				0	
6.6.1	win	2023-06-02	06:18:26	06:22:41	253411	5d62886927a84f00010fbbb4	4	1	main_z	7	main_z	35	stimuli_distractor_diamondtriangles.svg	stimuli_distractor_diamondtriangles.svg	40	no	0	1	2000	0	0			0	0			1				0	
6.6.1	win	2023-06-02	06:18:26	06:22:41	253411	5d62886927a84f00010fbbb4	4	1	main_z	7	advance_on_keypress_ZEE	36	stimuli_distractor_diamondtriangles.svg	stimuli_distractor_diamondtriangles.svg	40	no	57	0	438	0	0			0	0			1				0	
6.6.1	win	2023-06-02	06:18:26	06:22:44	256465	5d62886927a84f00010fbbb4	4	1	main_z	7	main_z	37	stimuli_distractor_trianglediamonds.svg	stimuli_distractor_diamondtriangles.svg	35	no	0	1	2000	0	0			0	0			1				0	
6.6.1	win	2023-06-02	06:18:26	06:22:44	256465	5d62886927a84f00010fbbb4	4	1	main_z	7	advance_on_keypress_ZEE	38	stimuli_distractor_trianglediamonds.svg	stimuli_distractor_diamondtriangles.svg	35	no	57	0	669	0	0			0	0			1				0	
6.6.1	win	2023-06-02	06:18:26	06:22:46	258276	5d62886927a84f00010fbbb4	4	1	main_z	7	main_z	39	stimuli_target_trianglesquares.svg	stimuli_distractor_diamondtriangles.svg	22	yes	44	1	526	0	0			0	0			1				0	
6.6.1	win	2023-06-02	06:18:26	06:22:46	258276	5d62886927a84f00010fbbb4	4	1	main_z	7	advance_on_keypress_ZEE	40	stimuli_target_trianglesquares.svg	stimuli_distractor_diamondtriangles.svg	22	yes	57	0	591	0	0			0	0			1				0	
6.6.1	win	2023-06-02	06:18:26	06:22:49	260816	5d62886927a84f00010fbbb4	4	1	main_z	7	main_z	41	stimuli_target_rectangletriangles.svg	stimuli_distractor_trianglediamonds.svg	1	yes	44	1	1338	0	0			0	0			1				0	
6.6.1	win	2023-06-02	06:18:26	06:22:49	260816	5d62886927a84f00010fbbb4	4	1	main_z	7	advance_on_keypress_ZEE	42	stimuli_target_rectangletriangles.svg	stimuli_distractor_trianglediamonds.svg	1	yes	57	0	526	0	0			0	0			1				0	
6.6.1	win	2023-06-02	06:18:26	06:22:51	263604	5d62886927a84f00010fbbb4	4	1	main_z	7	main_z	43	stimuli_distractor_trianglediamonds.svg	stimuli_target_diamondrectangles.svg	27	yes	44	1	1642	0	0			0	0			1				0	
6.6.1	win	2023-06-02	06:18:26	06:22:51	263604	5d62886927a84f00010fbbb4	4	1	main_z	7	advance_on_keypress_ZEE	44	stimuli_distractor_trianglediamonds.svg	stimuli_target_diamondrectangles.svg	27	yes	57	0	488	0	0			0	0			1				0	
6.6.1	win	2023-06-02	06:18:26	06:22:53	265357	5d62886927a84f00010fbbb4	4	1	main_z	7	main_z	45	stimuli_target_diamondsquares.svg	stimuli_distractor_trianglediamonds.svg	20	yes	44	1	654	0	0			0	0			1				0	
6.6.1	win	2023-06-02	06:18:26	06:22:53	265357	5d62886927a84f00010fbbb4	4	1	main_z	7	advance_on_keypress_ZEE	46	stimuli_target_diamondsquares.svg	stimuli_distractor_trianglediamonds.svg	20	yes	57	0	511	0	0			0	0			1				0	
6.6.1	win	2023-06-02	06:18:26	06:22:55	267076	5d62886927a84f00010fbbb4	4	1	main_z	7	main_z	47	stimuli_distractor_trianglediamonds.svg	stimuli_target_diamondsquares.svg	28	yes	44	1	592	0	0			0	0			1				0	
6.6.1	win	2023-06-02	06:18:26	06:22:55	267076	5d62886927a84f00010fbbb4	4	1	main_z	7	advance_on_keypress_ZEE	48	stimuli_distractor_trianglediamonds.svg	stimuli_target_diamondsquares.svg	28	yes	57	0	389	0	0			0	0			1				0	
6.6.1	win	2023-06-02	06:18:26	06:22:56	268527	5d62886927a84f00010fbbb4	4	1	main_z	7	main_z	49	stimuli_distractor_diamondtriangles.svg	stimuli_target_trianglerectangles.svg	29	yes	44	1	449	0	0			0	0			1				0	
6.6.1	win	2023-06-02	06:18:26	06:22:56	268527	5d62886927a84f00010fbbb4	4	1	main_z	7	advance_on_keypress_ZEE	50	stimuli_distractor_diamondtriangles.svg	stimuli_target_trianglerectangles.svg	29	yes	57	0	348	0	0			0	0			1				0	
6.6.1	win	2023-06-02	06:18:26	06:22:59	271030	5d62886927a84f00010fbbb4	4	1	main_z	7	main_z	51	stimuli_distractor_diamondtriangles.svg	stimuli_target_rectangletriangles.svg	13	yes	44	1	1539	0	0			0	0			1				0	
6.6.1	win	2023-06-02	06:18:26	06:22:59	271030	5d62886927a84f00010fbbb4	4	1	main_z	7	advance_on_keypress_ZEE	52	stimuli_distractor_diamondtriangles.svg	stimuli_target_rectangletriangles.svg	13	yes	57	0	453	0	0			0	0			1				0	
6.6.1	win	2023-06-02	06:18:26	06:23:01	273548	5d62886927a84f00010fbbb4	4	1	main_z	7	main_z	53	stimuli_distractor_diamondtriangles.svg	stimuli_target_squaretriangles.svg	15	yes	44	1	1452	0	0			0	0			1				0	
6.6.1	win	2023-06-02	06:18:26	06:23:01	273548	5d62886927a84f00010fbbb4	4	1	main_z	7	advance_on_keypress_ZEE	54	stimuli_distractor_diamondtriangles.svg	stimuli_target_squaretriangles.svg	15	yes	57	0	440	0	0			0	0			1				0	
6.6.1	win	2023-06-02	06:18:26	06:23:03	275261	5d62886927a84f00010fbbb4	4	1	main_z	7	main_z	55	stimuli_target_rectanglediamonds.svg	stimuli_distractor_diamondtriangles.svg	6	yes	44	1	662	0	0			0	0			1				0	
6.6.1	win	2023-06-02	06:18:26	06:23:03	275261	5d62886927a84f00010fbbb4	4	1	main_z	7	advance_on_keypress_ZEE	56	stimuli_target_rectanglediamonds.svg	stimuli_distractor_diamondtriangles.svg	6	yes	57	0	800	0	0			0	0			1				0	
6.6.1	win	2023-06-02	06:18:26	06:23:05	277200	5d62886927a84f00010fbbb4	4	1	main_z	7	main_z	57	stimuli_target_squarediamonds.svg	stimuli_distractor_diamondtriangles.svg	8	yes	44	1	522	0	0			0	0			1				0	
6.6.1	win	2023-06-02	06:18:26	06:23:05	277200	5d62886927a84f00010fbbb4	4	1	main_z	7	advance_on_keypress_ZEE	58	stimuli_target_squarediamonds.svg	stimuli_distractor_diamondtriangles.svg	8	yes	57	0	296	0	0			0	0			1				0	
6.6.1	win	2023-06-02	06:18:26	06:23:06	278690	5d62886927a84f00010fbbb4	4	1	main_z	7	main_z	59	stimuli_distractor_diamondtriangles.svg	stimuli_target_rectanglediamonds.svg	14	yes	44	1	575	0	0			0	0			1				0	
6.6.1	win	2023-06-02	06:18:26	06:23:06	278690	5d62886927a84f00010fbbb4	4	1	main_z	7	advance_on_keypress_ZEE	60	stimuli_distractor_diamondtriangles.svg	stimuli_target_rectanglediamonds.svg	14	yes	57	0	308	0	0			0	0			1				0	
6.6.1	win	2023-06-02	06:18:26	06:23:08	280784	5d62886927a84f00010fbbb4	4	1	main_z	7	main_z	61	stimuli_target_squaretriangles.svg	stimuli_distractor_diamondtriangles.svg	7	yes	44	1	1167	0	0			0	0			1				0	
6.6.1	win	2023-06-02	06:18:26	06:23:08	280784	5d62886927a84f00010fbbb4	4	1	main_z	7	advance_on_keypress_ZEE	62	stimuli_target_squaretriangles.svg	stimuli_distractor_diamondtriangles.svg	7	yes	57	0	313	0	0			0	0			1				0	
6.6.1	win	2023-06-02	06:18:26	06:23:10	282129	5d62886927a84f00010fbbb4	4	1	main_z	7	main_z	63	stimuli_target_squarediamonds.svg	stimuli_distractor_trianglediamonds.svg	4	yes	44	1	422	0	0			0	0			1				0	
6.6.1	win	2023-06-02	06:18:26	06:23:10	282129	5d62886927a84f00010fbbb4	4	1	main_z	7	advance_on_keypress_ZEE	64	stimuli_target_squarediamonds.svg	stimuli_distractor_trianglediamonds.svg	4	yes	57	0	268	0	0			0	0			1				0	
6.6.1	win	2023-06-02	06:18:26	06:23:11	283707	5d62886927a84f00010fbbb4	4	1	main_z	7	main_z	65	stimuli_distractor_trianglediamonds.svg	stimuli_target_rectanglediamonds.svg	10	yes	44	1	696	0	0			0	0			1				0	
6.6.1	win	2023-06-02	06:18:26	06:23:11	283707	5d62886927a84f00010fbbb4	4	1	main_z	7	advance_on_keypress_ZEE	66	stimuli_distractor_trianglediamonds.svg	stimuli_target_rectanglediamonds.svg	10	yes	57	0	226	0	0			0	0			1				0	
6.6.1	win	2023-06-02	06:18:26	06:23:14	285938	5d62886927a84f00010fbbb4	4	1	main_z	7	main_z	67	stimuli_distractor_diamondtriangles.svg	stimuli_target_trianglesquares.svg	30	yes	44	1	1393	0	0			0	0			1				0	
6.6.1	win	2023-06-02	06:18:26	06:23:14	285938	5d62886927a84f00010fbbb4	4	1	main_z	7	advance_on_keypress_ZEE	68	stimuli_distractor_diamondtriangles.svg	stimuli_target_trianglesquares.svg	30	yes	57	0	317	0	0			0	0			1				0	
6.6.1	win	2023-06-02	06:18:26	06:23:17	288872	5d62886927a84f00010fbbb4	4	1	main_z	7	main_z	69	stimuli_distractor_diamondtriangles.svg	stimuli_distractor_diamondtriangles.svg	39	no	0	1	2000	0	0			0	0			1				0	
6.6.1	win	2023-06-02	06:18:26	06:23:17	288872	5d62886927a84f00010fbbb4	4	1	main_z	7	advance_on_keypress_ZEE	70	stimuli_distractor_diamondtriangles.svg	stimuli_distractor_diamondtriangles.svg	39	no	57	0	283	0	0			0	0			1				0	
6.6.1	win	2023-06-02	06:18:26	06:23:18	290393	5d62886927a84f00010fbbb4	4	1	main_z	7	main_z	71	stimuli_target_trianglesquares.svg	stimuli_distractor_trianglediamonds.svg	18	yes	44	1	624	0	0			0	0			1				0	
6.6.1	win	2023-06-02	06:18:26	06:23:18	290393	5d62886927a84f00010fbbb4	4	1	main_z	7	advance_on_keypress_ZEE	72	stimuli_target_trianglesquares.svg	stimuli_distractor_trianglediamonds.svg	18	yes	57	0	302	0	0			0	0			1				0	
6.6.1	win	2023-06-02	06:18:26	06:23:21	292833	5d62886927a84f00010fbbb4	4	1	main_z	7	main_z	73	stimuli_distractor_diamondtriangles.svg	stimuli_target_diamondsquares.svg	32	yes	44	1	1525	0	0			0	0			1				0	
6.6.1	win	2023-06-02	06:18:26	06:23:21	292833	5d62886927a84f00010fbbb4	4	1	main_z	7	advance_on_keypress_ZEE	74	stimuli_distractor_diamondtriangles.svg	stimuli_target_diamondsquares.svg	32	yes	57	0	486	0	0			0	0			1				0	
6.6.1	win	2023-06-02	06:18:26	06:23:22	294510	5d62886927a84f00010fbbb4	4	1	main_z	7	main_z	75	stimuli_target_trianglerectangles.svg	stimuli_distractor_trianglediamonds.svg	17	yes	44	1	577	0	0			0	0			1				0	
6.6.1	win	2023-06-02	06:18:26	06:23:22	294510	5d62886927a84f00010fbbb4	4	1	main_z	7	advance_on_keypress_ZEE	76	stimuli_target_trianglerectangles.svg	stimuli_distractor_trianglediamonds.svg	17	yes	57	0	213	0	0			0	0			1				0	
6.6.1	win	2023-06-02	06:18:26	06:23:25	297339	5d62886927a84f00010fbbb4	4	1	main_z	7	main_z	77	stimuli_distractor_diamondtriangles.svg	stimuli_distractor_trianglediamonds.svg	38	no	0	1	2000	0	0			0	0			1				0	
6.6.1	win	2023-06-02	06:18:26	06:23:25	297339	5d62886927a84f00010fbbb4	4	1	main_z	7	advance_on_keypress_ZEE	78	stimuli_distractor_diamondtriangles.svg	stimuli_distractor_trianglediamonds.svg	38	no	57	0	582	0	0			0	0			1				0	
6.6.1	win	2023-06-02	06:18:26	06:23:27	299078	5d62886927a84f00010fbbb4	4	1	main_z	7	main_z	79	stimuli_target_diamondsquares.svg	stimuli_distractor_diamondtriangles.svg	24	yes	44	1	539	0	0			0	0			1				0	
6.6.1	win	2023-06-02	06:18:26	06:23:27	299078	5d62886927a84f00010fbbb4	4	1	main_z	7	advance_on_keypress_ZEE	80	stimuli_target_diamondsquares.svg	stimuli_distractor_diamondtriangles.svg	24	yes	57	0	279	0	0			0	0			1				0	
6.6.1	win	2023-06-02	06:18:26	06:23:28	300767	5d62886927a84f00010fbbb4	4	1	main_z	7	main_z	81	stimuli_target_rectanglediamonds.svg	stimuli_distractor_trianglediamonds.svg	2	yes	44	1	792	0	0			0	0			1				0	
6.6.1	win	2023-06-02	06:18:26	06:23:28	300767	5d62886927a84f00010fbbb4	4	1	main_z	7	advance_on_keypress_ZEE	82	stimuli_target_rectanglediamonds.svg	stimuli_distractor_trianglediamonds.svg	2	yes	57	0	817	0	0			0	0			1				0	
6.6.1	win	2023-06-02	06:18:26	06:23:30	302766	5d62886927a84f00010fbbb4	4	1	main_z	7	main_z	83	stimuli_target_rectangletriangles.svg	stimuli_distractor_trianglediamonds.svg	1	yes	44	1	573	0	0			0	0			1				0	
6.6.1	win	2023-06-02	06:18:26	06:23:30	302766	5d62886927a84f00010fbbb4	4	1	main_z	7	advance_on_keypress_ZEE	84	stimuli_target_rectangletriangles.svg	stimuli_distractor_trianglediamonds.svg	1	yes	57	0	245	0	0			0	0			1				0	
6.6.1	win	2023-06-02	06:18:26	06:23:33	305624	5d62886927a84f00010fbbb4	4	1	main_z	7	main_z	85	stimuli_distractor_trianglediamonds.svg	stimuli_distractor_trianglediamonds.svg	33	no	0	1	2000	0	0			0	0			1				0	
6.6.1	win	2023-06-02	06:18:26	06:23:33	305624	5d62886927a84f00010fbbb4	4	1	main_z	7	advance_on_keypress_ZEE	86	stimuli_distractor_trianglediamonds.svg	stimuli_distractor_trianglediamonds.svg	33	no	57	0	823	0	0			0	0			1				0	
6.6.1	win	2023-06-02	06:18:26	06:23:36	308257	5d62886927a84f00010fbbb4	4	1	main_z	7	main_z	87	stimuli_distractor_trianglediamonds.svg	stimuli_target_squaretriangles.svg	11	yes	44	1	1191	0	0			0	0			1				0	
6.6.1	win	2023-06-02	06:18:26	06:23:36	308257	5d62886927a84f00010fbbb4	4	1	main_z	7	advance_on_keypress_ZEE	88	stimuli_distractor_trianglediamonds.svg	stimuli_target_squaretriangles.svg	11	yes	57	0	274	0	0			0	0			1				0	
6.6.1	win	2023-06-02	06:18:26	06:23:38	310126	5d62886927a84f00010fbbb4	4	1	main_z	7	main_z	89	stimuli_distractor_diamondtriangles.svg	stimuli_target_diamondsquares.svg	32	yes	44	1	981	0	0			0	0			1				0	
6.6.1	win	2023-06-02	06:18:26	06:23:38	310126	5d62886927a84f00010fbbb4	4	1	main_z	7	advance_on_keypress_ZEE	90	stimuli_distractor_diamondtriangles.svg	stimuli_target_diamondsquares.svg	32	yes	57	0	264	0	0			0	0			1				0	
6.6.1	win	2023-06-02	06:18:26	06:23:41	313006	5d62886927a84f00010fbbb4	4	1	main_z	7	main_z	91	stimuli_distractor_diamondtriangles.svg	stimuli_distractor_trianglediamonds.svg	38	no	0	1	2000	0	0			0	0			1				0	
6.6.1	win	2023-06-02	06:18:26	06:23:41	313006	5d62886927a84f00010fbbb4	4	1	main_z	7	advance_on_keypress_ZEE	92	stimuli_distractor_diamondtriangles.svg	stimuli_distractor_trianglediamonds.svg	38	no	57	0	637	0	0			0	0			1				0	
6.6.1	win	2023-06-02	06:18:26	06:23:42	314769	5d62886927a84f00010fbbb4	4	1	main_z	7	main_z	93	stimuli_distractor_trianglediamonds.svg	stimuli_target_trianglesquares.svg	26	yes	44	1	509	0	0			0	0			1				0	
6.6.1	win	2023-06-02	06:18:26	06:23:42	314769	5d62886927a84f00010fbbb4	4	1	main_z	7	advance_on_keypress_ZEE	94	stimuli_distractor_trianglediamonds.svg	stimuli_target_trianglesquares.svg	26	yes	57	0	204	0	0			0	0			1				0	
6.6.1	win	2023-06-02	06:18:26	06:23:44	316744	5d62886927a84f00010fbbb4	4	1	main_z	7	main_z	95	stimuli_distractor_trianglediamonds.svg	stimuli_target_squarediamonds.svg	12	yes	44	1	1157	0	0			0	0			1				0	
6.6.1	win	2023-06-02	06:18:26	06:23:44	316744	5d62886927a84f00010fbbb4	4	1	main_z	7	advance_on_keypress_ZEE	96	stimuli_distractor_trianglediamonds.svg	stimuli_target_squarediamonds.svg	12	yes	57	0	188	0	0			0	0			1				0	
6.6.1	win	2023-06-02	06:18:26	06:23:47	319551	5d62886927a84f00010fbbb4	4	1	main_z	7	main_z	97	stimuli_target_trianglerectangles.svg	stimuli_distractor_diamondtriangles.svg	21	yes	0	0	2000	0	0			0	0			1				0	
6.6.1	win	2023-06-02	06:18:26	06:23:47	319551	5d62886927a84f00010fbbb4	4	1	main_z	7	advance_on_keypress_ZEE	98	stimuli_target_trianglerectangles.svg	stimuli_distractor_diamondtriangles.svg	21	yes	57	0	719	0	0			0	0			1				0	
6.6.1	win	2023-06-02	06:18:26	06:23:51	322885	5d62886927a84f00010fbbb4	4	1	main_z	7	main_z	99	stimuli_distractor_diamondtriangles.svg	stimuli_target_rectanglediamonds.svg	14	yes	0	0	2000	0	0			0	0			1				0	
6.6.1	win	2023-06-02	06:18:26	06:23:51	322885	5d62886927a84f00010fbbb4	4	1	main_z	7	advance_on_keypress_ZEE	100	stimuli_distractor_diamondtriangles.svg	stimuli_target_rectanglediamonds.svg	14	yes	57	0	788	0	0			0	0			1				0	
6.6.1	win	2023-06-02	06:18:26	06:23:54	326291	5d62886927a84f00010fbbb4	4	1	main_z	7	main_z	101	stimuli_target_diamondsquares.svg	stimuli_distractor_trianglediamonds.svg	20	yes	0	0	2000	0	0			0	0			1				0	
6.6.1	win	2023-06-02	06:18:26	06:23:54	326291	5d62886927a84f00010fbbb4	4	1	main_z	7	advance_on_keypress_ZEE	102	stimuli_target_diamondsquares.svg	stimuli_distractor_trianglediamonds.svg	20	yes	57	0	629	0	0			0	0			1				0	
6.6.1	win	2023-06-02	06:18:26	06:23:57	328970	5d62886927a84f00010fbbb4	4	1	main_z	7	main_z	103	stimuli_target_squarediamonds.svg	stimuli_distractor_trianglediamonds.svg	4	yes	44	1	1431	0	0			0	0			1				0	
6.6.1	win	2023-06-02	06:18:26	06:23:57	328970	5d62886927a84f00010fbbb4	4	1	main_z	7	advance_on_keypress_ZEE	104	stimuli_target_squarediamonds.svg	stimuli_distractor_trianglediamonds.svg	4	yes	57	0	349	0	0			0	0			1				0	
6.6.1	win	2023-06-02	06:18:26	06:23:59	331294	5d62886927a84f00010fbbb4	4	1	main_z	7	main_z	105	stimuli_distractor_diamondtriangles.svg	stimuli_target_diamondrectangles.svg	31	yes	44	1	1361	0	0			0	0			1				0	
6.6.1	win	2023-06-02	06:18:26	06:23:59	331294	5d62886927a84f00010fbbb4	4	1	main_z	7	advance_on_keypress_ZEE	106	stimuli_distractor_diamondtriangles.svg	stimuli_target_diamondrectangles.svg	31	yes	57	0	199	0	0			0	0			1				0	
6.6.1	win	2023-06-02	06:18:26	06:24:01	332918	5d62886927a84f00010fbbb4	4	1	main_z	7	main_z	107	stimuli_distractor_trianglediamonds.svg	stimuli_target_diamondsquares.svg	28	yes	44	1	809	0	0			0	0			1				0	
6.6.1	win	2023-06-02	06:18:26	06:24:01	332918	5d62886927a84f00010fbbb4	4	1	main_z	7	advance_on_keypress_ZEE	108	stimuli_distractor_trianglediamonds.svg	stimuli_target_diamondsquares.svg	28	yes	57	0	199	0	0			0	0			1				0	
6.6.1	win	2023-06-02	06:18:26	06:24:03	335733	5d62886927a84f00010fbbb4	4	1	main_z	7	main_z	109	stimuli_distractor_trianglediamonds.svg	stimuli_target_rectanglediamonds.svg	10	yes	0	0	2000	0	0			0	0			1				0	
6.6.1	win	2023-06-02	06:18:26	06:24:03	335733	5d62886927a84f00010fbbb4	4	1	main_z	7	advance_on_keypress_ZEE	110	stimuli_distractor_trianglediamonds.svg	stimuli_target_rectanglediamonds.svg	10	yes	57	0	462	0	0			0	0			1				0	
6.6.1	win	2023-06-02	06:18:26	06:24:06	338005	5d62886927a84f00010fbbb4	4	1	main_z	7	main_z	111	stimuli_target_rectangletriangles.svg	stimuli_distractor_diamondtriangles.svg	5	yes	44	1	1193	0	0			0	0			1				0	
6.6.1	win	2023-06-02	06:18:26	06:24:06	338005	5d62886927a84f00010fbbb4	4	1	main_z	7	advance_on_keypress_ZEE	112	stimuli_target_rectangletriangles.svg	stimuli_distractor_diamondtriangles.svg	5	yes	57	0	219	0	0			0	0			1				0	
6.6.1	win	2023-06-02	06:18:26	06:24:08	340193	5d62886927a84f00010fbbb4	4	1	main_z	7	main_z	113	stimuli_target_trianglesquares.svg	stimuli_distractor_trianglediamonds.svg	18	yes	44	1	1351	0	0			0	0			1				0	
6.6.1	win	2023-06-02	06:18:26	06:24:08	340193	5d62886927a84f00010fbbb4	4	1	main_z	7	advance_on_keypress_ZEE	114	stimuli_target_trianglesquares.svg	stimuli_distractor_trianglediamonds.svg	18	yes	57	0	234	0	0			0	0			1				0	
6.6.1	win	2023-06-02	06:18:26	06:24:10	342485	5d62886927a84f00010fbbb4	4	1	main_z	7	main_z	115	stimuli_distractor_trianglediamonds.svg	stimuli_target_rectangletriangles.svg	9	yes	44	1	1443	0	0			0	0			1				0	
6.6.1	win	2023-06-02	06:18:26	06:24:10	342485	5d62886927a84f00010fbbb4	4	1	main_z	7	advance_on_keypress_ZEE	116	stimuli_distractor_trianglediamonds.svg	stimuli_target_rectangletriangles.svg	9	yes	57	0	319	0	0			0	0			1				0	
6.6.1	win	2023-06-02	06:18:26	06:24:13	345418	5d62886927a84f00010fbbb4	4	1	main_z	7	main_z	117	stimuli_distractor_diamondtriangles.svg	stimuli_distractor_diamondtriangles.svg	40	no	0	1	2000	0	0			0	0			1				0	
6.6.1	win	2023-06-02	06:18:26	06:24:13	345418	5d62886927a84f00010fbbb4	4	1	main_z	7	advance_on_keypress_ZEE	118	stimuli_distractor_diamondtriangles.svg	stimuli_distractor_diamondtriangles.svg	40	no	57	0	835	0	0			0	0			1				0	
6.6.1	win	2023-06-02	06:18:26	06:24:16	347838	5d62886927a84f00010fbbb4	4	1	main_z	7	main_z	119	stimuli_distractor_diamondtriangles.svg	stimuli_target_squaretriangles.svg	15	yes	44	1	971	0	0			0	0			1				0	
6.6.1	win	2023-06-02	06:18:26	06:24:16	347838	5d62886927a84f00010fbbb4	4	1	main_z	7	advance_on_keypress_ZEE	120	stimuli_distractor_diamondtriangles.svg	stimuli_target_squaretriangles.svg	15	yes	57	0	371	0	0			0	0			1				0	
6.6.1	win	2023-06-02	06:18:26	06:24:18	349814	5d62886927a84f00010fbbb4	4	1	main_z	7	main_z	121	stimuli_target_trianglesquares.svg	stimuli_distractor_diamondtriangles.svg	22	yes	44	1	990	0	0			0	0			1				0	
6.6.1	win	2023-06-02	06:18:26	06:24:18	349814	5d62886927a84f00010fbbb4	4	1	main_z	7	advance_on_keypress_ZEE	122	stimuli_target_trianglesquares.svg	stimuli_distractor_diamondtriangles.svg	22	yes	57	0	259	0	0			0	0			1				0	
6.6.1	win	2023-06-02	06:18:26	06:24:19	351339	5d62886927a84f00010fbbb4	4	1	main_z	7	main_z	123	stimuli_target_diamondsquares.svg	stimuli_distractor_diamondtriangles.svg	24	yes	44	1	654	0	0			0	0			1				0	
6.6.1	win	2023-06-02	06:18:26	06:24:19	351339	5d62886927a84f00010fbbb4	4	1	main_z	7	advance_on_keypress_ZEE	124	stimuli_target_diamondsquares.svg	stimuli_distractor_diamondtriangles.svg	24	yes	57	0	339	0	0			0	0			1				0	
6.6.1	win	2023-06-02	06:18:26	06:24:21	353045	5d62886927a84f00010fbbb4	4	1	main_z	7	main_z	125	stimuli_distractor_diamondtriangles.svg	stimuli_target_rectangletriangles.svg	13	yes	44	1	748	0	0			0	0			1				0	
6.6.1	win	2023-06-02	06:18:26	06:24:21	353045	5d62886927a84f00010fbbb4	4	1	main_z	7	advance_on_keypress_ZEE	126	stimuli_distractor_diamondtriangles.svg	stimuli_target_rectangletriangles.svg	13	yes	57	0	275	0	0			0	0			1				0	
6.6.1	win	2023-06-02	06:18:26	06:24:23	355089	5d62886927a84f00010fbbb4	4	1	main_z	7	main_z	127	stimuli_distractor_diamondtriangles.svg	stimuli_target_trianglerectangles.svg	29	yes	44	1	1156	0	0			0	0			1				0	
6.6.1	win	2023-06-02	06:18:26	06:24:23	355089	5d62886927a84f00010fbbb4	4	1	main_z	7	advance_on_keypress_ZEE	128	stimuli_distractor_diamondtriangles.svg	stimuli_target_trianglerectangles.svg	29	yes	57	0	156	0	0			0	0			1				0	
6.6.1	win	2023-06-02	06:18:26	06:24:24	356494	5d62886927a84f00010fbbb4	4	1	main_z	7	main_z	129	stimuli_target_trianglerectangles.svg	stimuli_distractor_trianglediamonds.svg	17	yes	44	1	639	0	0			0	0			1				0	
6.6.1	win	2023-06-02	06:18:26	06:24:24	356494	5d62886927a84f00010fbbb4	4	1	main_z	7	advance_on_keypress_ZEE	130	stimuli_target_trianglerectangles.svg	stimuli_distractor_trianglediamonds.svg	17	yes	57	0	155	0	0			0	0			1				0	
6.6.1	win	2023-06-02	06:18:26	06:24:26	357930	5d62886927a84f00010fbbb4	4	1	main_z	7	main_z	131	stimuli_distractor_diamondtriangles.svg	stimuli_target_trianglesquares.svg	30	yes	44	1	669	0	0			0	0			1				0	
6.6.1	win	2023-06-02	06:18:26	06:24:26	357930	5d62886927a84f00010fbbb4	4	1	main_z	7	advance_on_keypress_ZEE	132	stimuli_distractor_diamondtriangles.svg	stimuli_target_trianglesquares.svg	30	yes	57	0	4746	0	0			0	0			1				0	
6.6.1	win	2023-06-02	06:18:26	06:24:32	363912	5d62886927a84f00010fbbb4	4	1	main_z	7	main_z	133	stimuli_target_diamondrectangles.svg	stimuli_distractor_diamondtriangles.svg	23	yes	44	1	621	0	0			0	0			1				0	
6.6.1	win	2023-06-02	06:18:26	06:24:32	363912	5d62886927a84f00010fbbb4	4	1	main_z	7	advance_on_keypress_ZEE	134	stimuli_target_diamondrectangles.svg	stimuli_distractor_diamondtriangles.svg	23	yes	57	0	409	0	0			0	0			1				0	
6.6.1	win	2023-06-02	06:18:26	06:24:33	365602	5d62886927a84f00010fbbb4	4	1	main_z	7	main_z	135	stimuli_target_diamondrectangles.svg	stimuli_distractor_trianglediamonds.svg	19	yes	44	1	668	0	0			0	0			1				0	
6.6.1	win	2023-06-02	06:18:26	06:24:33	365602	5d62886927a84f00010fbbb4	4	1	main_z	7	advance_on_keypress_ZEE	136	stimuli_target_diamondrectangles.svg	stimuli_distractor_trianglediamonds.svg	19	yes	57	0	395	0	0			0	0			1				0	
6.6.1	win	2023-06-02	06:18:26	06:24:36	368613	5d62886927a84f00010fbbb4	4	1	main_z	7	main_z	137	stimuli_distractor_diamondtriangles.svg	stimuli_distractor_diamondtriangles.svg	39	no	0	1	2000	0	0			0	0			1				0	
6.6.1	win	2023-06-02	06:18:26	06:24:36	368613	5d62886927a84f00010fbbb4	4	1	main_z	7	advance_on_keypress_ZEE	138	stimuli_distractor_diamondtriangles.svg	stimuli_distractor_diamondtriangles.svg	39	no	57	0	650	0	0			0	0			1				0	
6.6.1	win	2023-06-02	06:18:26	06:24:40	371879	5d62886927a84f00010fbbb4	4	1	main_z	7	main_z	139	stimuli_distractor_trianglediamonds.svg	stimuli_distractor_diamondtriangles.svg	35	no	0	1	2000	0	0			0	0			1				0	
6.6.1	win	2023-06-02	06:18:26	06:24:40	371879	5d62886927a84f00010fbbb4	4	1	main_z	7	advance_on_keypress_ZEE	140	stimuli_distractor_trianglediamonds.svg	stimuli_distractor_diamondtriangles.svg	35	no	57	0	599	0	0			0	0			1				0	
6.6.1	win	2023-06-02	06:18:26	06:24:43	375097	5d62886927a84f00010fbbb4	4	1	main_z	7	main_z	141	stimuli_distractor_trianglediamonds.svg	stimuli_distractor_diamondtriangles.svg	36	no	0	1	2000	0	0			0	0			1				0	
6.6.1	win	2023-06-02	06:18:26	06:24:43	375097	5d62886927a84f00010fbbb4	4	1	main_z	7	advance_on_keypress_ZEE	142	stimuli_distractor_trianglediamonds.svg	stimuli_distractor_diamondtriangles.svg	36	no	57	0	709	0	0			0	0			1				0	
6.6.1	win	2023-06-02	06:18:26	06:24:45	377744	5d62886927a84f00010fbbb4	4	1	main_z	7	main_z	143	stimuli_distractor_diamondtriangles.svg	stimuli_distractor_trianglediamonds.svg	37	no	44	0	1319	0	0			0	0			1				0	
6.6.1	win	2023-06-02	06:18:26	06:24:45	377744	5d62886927a84f00010fbbb4	4	1	main_z	7	advance_on_keypress_ZEE	144	stimuli_distractor_diamondtriangles.svg	stimuli_distractor_trianglediamonds.svg	37	no	57	0	353	0	0			0	0			1				0	
6.6.1	win	2023-06-02	06:18:26	06:24:47	379466	5d62886927a84f00010fbbb4	4	1	main_z	7	main_z	145	stimuli_distractor_trianglediamonds.svg	stimuli_target_trianglerectangles.svg	25	yes	44	1	757	0	0			0	0			1				0	
6.6.1	win	2023-06-02	06:18:26	06:24:47	379466	5d62886927a84f00010fbbb4	4	1	main_z	7	advance_on_keypress_ZEE	146	stimuli_distractor_trianglediamonds.svg	stimuli_target_trianglerectangles.svg	25	yes	57	0	286	0	0			0	0			1				0	
6.6.1	win	2023-06-02	06:18:26	06:24:49	381676	5d62886927a84f00010fbbb4	4	1	main_z	7	main_z	147	stimuli_target_squaretriangles.svg	stimuli_distractor_trianglediamonds.svg	3	yes	44	1	1306	0	0			0	0			1				0	
6.6.1	win	2023-06-02	06:18:26	06:24:49	381676	5d62886927a84f00010fbbb4	4	1	main_z	7	advance_on_keypress_ZEE	148	stimuli_target_squaretriangles.svg	stimuli_distractor_trianglediamonds.svg	3	yes	57	0	334	0	0			0	0			1				0	
6.6.1	win	2023-06-02	06:18:26	06:24:52	384625	5d62886927a84f00010fbbb4	4	1	main_z	7	main_z	149	stimuli_distractor_trianglediamonds.svg	stimuli_target_diamondrectangles.svg	27	yes	0	0	2000	0	0			0	0			1				0	
6.6.1	win	2023-06-02	06:18:26	06:24:52	384625	5d62886927a84f00010fbbb4	4	1	main_z	7	advance_on_keypress_ZEE	150	stimuli_distractor_trianglediamonds.svg	stimuli_target_diamondrectangles.svg	27	yes	57	0	681	0	0			0	0			1				0	
6.6.1	win	2023-06-02	06:18:26	06:24:54	386453	5d62886927a84f00010fbbb4	4	1	main_z	7	main_z	151	stimuli_target_squaretriangles.svg	stimuli_distractor_diamondtriangles.svg	7	yes	44	1	532	0	0			0	0			1				0	
6.6.1	win	2023-06-02	06:18:26	06:24:54	386453	5d62886927a84f00010fbbb4	4	1	main_z	7	advance_on_keypress_ZEE	152	stimuli_target_squaretriangles.svg	stimuli_distractor_diamondtriangles.svg	7	yes	57	0	458	0	0			0	0			1				0	
6.6.1	win	2023-06-02	06:18:26	06:24:56	388043	5d62886927a84f00010fbbb4	4	1	main_z	7	main_z	153	stimuli_distractor_diamondtriangles.svg	stimuli_target_squarediamonds.svg	16	yes	44	1	517	0	0			0	0			1				0	
6.6.1	win	2023-06-02	06:18:26	06:24:56	388043	5d62886927a84f00010fbbb4	4	1	main_z	7	advance_on_keypress_ZEE	154	stimuli_distractor_diamondtriangles.svg	stimuli_target_squarediamonds.svg	16	yes	57	0	305	0	0			0	0			1				0	
6.6.1	win	2023-06-02	06:18:26	06:24:57	389557	5d62886927a84f00010fbbb4	4	1	main_z	7	main_z	155	stimuli_target_rectanglediamonds.svg	stimuli_distractor_diamondtriangles.svg	6	yes	44	1	593	0	0			0	0			1				0	
6.6.1	win	2023-06-02	06:18:26	06:24:57	389557	5d62886927a84f00010fbbb4	4	1	main_z	7	advance_on_keypress_ZEE	156	stimuli_target_rectanglediamonds.svg	stimuli_distractor_diamondtriangles.svg	6	yes	57	0	262	0	0			0	0			1				0	
6.6.1	win	2023-06-02	06:18:26	06:25:00	392431	5d62886927a84f00010fbbb4	4	1	main_z	7	main_z	157	stimuli_distractor_trianglediamonds.svg	stimuli_distractor_trianglediamonds.svg	34	no	0	1	2000	0	0			0	0			1				0	
6.6.1	win	2023-06-02	06:18:26	06:25:00	392431	5d62886927a84f00010fbbb4	4	1	main_z	7	advance_on_keypress_ZEE	158	stimuli_distractor_trianglediamonds.svg	stimuli_distractor_trianglediamonds.svg	34	no	57	0	615	0	0			0	0			1				0	
6.6.1	win	2023-06-02	06:18:26	06:25:02	394103	5d62886927a84f00010fbbb4	4	1	main_z	7	main_z	159	stimuli_target_squarediamonds.svg	stimuli_distractor_diamondtriangles.svg	8	yes	44	1	442	0	0			0	0			1				0	
6.6.1	win	2023-06-02	06:18:26	06:25:02	394103	5d62886927a84f00010fbbb4	4	1	main_z	7	advance_on_keypress_ZEE	160	stimuli_target_squarediamonds.svg	stimuli_distractor_diamondtriangles.svg	8	yes	57	0	226	0	0			0	0			1				0	
6.6.1	win	2023-06-02	06:18:26	06:25:26	418310	5d62886927a84f00010fbbb4	4	1	practice_slash	9	practice_slash	1	stimuli_distractor_diamondtriangles.svg	stimuli_distractor_trianglediamonds.svg	14	no	0	1	2000	0	0			0	0			1				0	
6.6.1	win	2023-06-02	06:18:26	06:25:26	418310	5d62886927a84f00010fbbb4	4	1	practice_slash	9	advance_on_keypress_SLASH	2	stimuli_distractor_diamondtriangles.svg	stimuli_distractor_trianglediamonds.svg	14	no	57	0	603	0	0			0	0			1				0	
6.6.1	win	2023-06-02	06:18:26	06:25:29	421017	5d62886927a84f00010fbbb4	4	1	practice_slash	9	practice_slash	3	stimuli_distractor_trianglediamonds.svg	stimuli_target_diamondrectangles.svg	12	yes	53	1	489	0	0			0	0			1				0	
6.6.1	win	2023-06-02	06:18:26	06:25:29	421017	5d62886927a84f00010fbbb4	4	1	practice_slash	9	advance_on_keypress_SLASH	4	stimuli_distractor_trianglediamonds.svg	stimuli_target_diamondrectangles.svg	12	yes	57	0	590	0	0			0	0			1				0	
6.6.1	win	2023-06-02	06:18:26	06:25:31	423669	5d62886927a84f00010fbbb4	4	1	practice_slash	9	practice_slash	5	stimuli_distractor_trianglediamonds.svg	stimuli_target_squarediamonds.svg	11	yes	53	1	450	0	0			0	0			1				0	
6.6.1	win	2023-06-02	06:18:26	06:25:31	423669	5d62886927a84f00010fbbb4	4	1	practice_slash	9	advance_on_keypress_SLASH	6	stimuli_distractor_trianglediamonds.svg	stimuli_target_squarediamonds.svg	11	yes	57	0	581	0	0			0	0			1				0	
6.6.1	win	2023-06-02	06:18:26	06:25:34	426389	5d62886927a84f00010fbbb4	4	1	practice_slash	9	practice_slash	7	stimuli_distractor_diamondtriangles.svg	stimuli_target_trianglerectangles.svg	9	yes	53	1	515	0	0			0	0			1				0	
6.6.1	win	2023-06-02	06:18:26	06:25:34	426389	5d62886927a84f00010fbbb4	4	1	practice_slash	9	advance_on_keypress_SLASH	8	stimuli_distractor_diamondtriangles.svg	stimuli_target_trianglerectangles.svg	9	yes	57	0	355	0	0			0	0			1				0	
6.6.1	win	2023-06-02	06:18:26	06:25:37	428825	5d62886927a84f00010fbbb4	4	1	practice_slash	9	practice_slash	9	stimuli_distractor_diamondtriangles.svg	stimuli_target_rectangletriangles.svg	7	yes	53	1	466	0	0			0	0			1				0	
6.6.1	win	2023-06-02	06:18:26	06:25:37	428825	5d62886927a84f00010fbbb4	4	1	practice_slash	9	advance_on_keypress_SLASH	10	stimuli_distractor_diamondtriangles.svg	stimuli_target_rectangletriangles.svg	7	yes	57	0	362	0	0			0	0			1				0	
6.6.1	win	2023-06-02	06:18:26	06:25:39	431282	5d62886927a84f00010fbbb4	4	1	practice_slash	9	practice_slash	11	stimuli_target_rectanglediamonds.svg	stimuli_distractor_diamondtriangles.svg	1	yes	53	1	481	0	0			0	0			1				0	
6.6.1	win	2023-06-02	06:18:26	06:25:39	431282	5d62886927a84f00010fbbb4	4	1	practice_slash	9	advance_on_keypress_SLASH	12	stimuli_target_rectanglediamonds.svg	stimuli_distractor_diamondtriangles.svg	1	yes	57	0	484	0	0			0	0			1				0	
6.6.1	win	2023-06-02	06:18:26	06:25:42	434176	5d62886927a84f00010fbbb4	4	1	practice_slash	9	practice_slash	13	stimuli_distractor_diamondtriangles.svg	stimuli_target_diamondrectangles.svg	8	yes	53	1	793	0	0			0	0			1				0	
6.6.1	win	2023-06-02	06:18:26	06:25:42	434176	5d62886927a84f00010fbbb4	4	1	practice_slash	9	advance_on_keypress_SLASH	14	stimuli_distractor_diamondtriangles.svg	stimuli_target_diamondrectangles.svg	8	yes	57	0	249	0	0			0	0			1				0	
6.6.1	win	2023-06-02	06:18:26	06:25:46	438044	5d62886927a84f00010fbbb4	4	1	practice_slash	9	practice_slash	15	stimuli_distractor_trianglediamonds.svg	stimuli_distractor_trianglediamonds.svg	15	no	0	1	2000	0	0			0	0			1				0	
6.6.1	win	2023-06-02	06:18:26	06:25:46	438044	5d62886927a84f00010fbbb4	4	1	practice_slash	9	advance_on_keypress_SLASH	16	stimuli_distractor_trianglediamonds.svg	stimuli_distractor_trianglediamonds.svg	15	no	57	0	515	0	0			0	0			1				0	
6.6.1	win	2023-06-02	06:18:26	06:25:48	440618	5d62886927a84f00010fbbb4	4	1	practice_slash	9	practice_slash	17	stimuli_target_squarediamonds.svg	stimuli_distractor_diamondtriangles.svg	2	yes	53	1	441	0	0			0	0			1				0	
6.6.1	win	2023-06-02	06:18:26	06:25:48	440618	5d62886927a84f00010fbbb4	4	1	practice_slash	9	advance_on_keypress_SLASH	18	stimuli_target_squarediamonds.svg	stimuli_distractor_diamondtriangles.svg	2	yes	57	0	517	0	0			0	0			1				0	
6.6.1	win	2023-06-02	06:18:26	06:25:51	443227	5d62886927a84f00010fbbb4	4	1	practice_slash	9	practice_slash	19	stimuli_target_squarediamonds.svg	stimuli_distractor_trianglediamonds.svg	5	yes	53	1	480	0	0			0	0			1				0	
6.6.1	win	2023-06-02	06:18:26	06:25:51	443227	5d62886927a84f00010fbbb4	4	1	practice_slash	9	advance_on_keypress_SLASH	20	stimuli_target_squarediamonds.svg	stimuli_distractor_trianglediamonds.svg	5	yes	57	0	823	0	0			0	0			1				0	
6.6.1	win	2023-06-02	06:18:26	06:25:55	447668	5d62886927a84f00010fbbb4	4	1	practice_slash	9	practice_slash	21	stimuli_distractor_diamondtriangles.svg	stimuli_distractor_diamondtriangles.svg	13	no	0	1	2000	0	0			0	0			1				0	
6.6.1	win	2023-06-02	06:18:26	06:25:55	447668	5d62886927a84f00010fbbb4	4	1	practice_slash	9	advance_on_keypress_SLASH	22	stimuli_distractor_diamondtriangles.svg	stimuli_distractor_diamondtriangles.svg	13	no	57	0	501	0	0			0	0			1				0	
6.6.1	win	2023-06-02	06:18:26	06:25:58	450408	5d62886927a84f00010fbbb4	4	1	practice_slash	9	practice_slash	23	stimuli_target_diamondsquares.svg	stimuli_distractor_diamondtriangles.svg	3	yes	53	1	625	0	0			0	0			1				0	
6.6.1	win	2023-06-02	06:18:26	06:25:58	450408	5d62886927a84f00010fbbb4	4	1	practice_slash	9	advance_on_keypress_SLASH	24	stimuli_target_diamondsquares.svg	stimuli_distractor_diamondtriangles.svg	3	yes	57	0	491	0	0			0	0			1				0	
6.6.1	win	2023-06-02	06:18:26	06:26:01	452994	5d62886927a84f00010fbbb4	4	1	practice_slash	9	practice_slash	25	stimuli_target_rectanglediamonds.svg	stimuli_distractor_trianglediamonds.svg	4	yes	53	1	477	0	0			0	0			1				0	
6.6.1	win	2023-06-02	06:18:26	06:26:01	452994	5d62886927a84f00010fbbb4	4	1	practice_slash	9	advance_on_keypress_SLASH	26	stimuli_target_rectanglediamonds.svg	stimuli_distractor_trianglediamonds.svg	4	yes	57	0	495	0	0			0	0			1				0	
6.6.1	win	2023-06-02	06:18:26	06:26:03	455574	5d62886927a84f00010fbbb4	4	1	practice_slash	9	practice_slash	27	stimuli_distractor_trianglediamonds.svg	stimuli_target_rectanglediamonds.svg	10	yes	53	1	462	0	0			0	0			1				0	
6.6.1	win	2023-06-02	06:18:26	06:26:03	455574	5d62886927a84f00010fbbb4	4	1	practice_slash	9	advance_on_keypress_SLASH	28	stimuli_distractor_trianglediamonds.svg	stimuli_target_rectanglediamonds.svg	10	yes	57	0	461	0	0			0	0			1				0	
6.6.1	win	2023-06-02	06:18:26	06:26:07	459650	5d62886927a84f00010fbbb4	4	1	practice_slash	9	practice_slash	29	stimuli_distractor_trianglediamonds.svg	stimuli_distractor_diamondtriangles.svg	16	no	0	1	2000	0	0			0	0			1				0	
6.6.1	win	2023-06-02	06:18:26	06:26:07	459650	5d62886927a84f00010fbbb4	4	1	practice_slash	9	advance_on_keypress_SLASH	30	stimuli_distractor_trianglediamonds.svg	stimuli_distractor_diamondtriangles.svg	16	no	57	0	388	0	0			0	0			1				0	
6.6.1	win	2023-06-02	06:18:26	06:26:10	462217	5d62886927a84f00010fbbb4	4	1	practice_slash	9	practice_slash	31	stimuli_target_diamondsquares.svg	stimuli_distractor_trianglediamonds.svg	6	yes	53	1	561	0	0			0	0			1				0	
6.6.1	win	2023-06-02	06:18:26	06:26:10	462217	5d62886927a84f00010fbbb4	4	1	practice_slash	9	advance_on_keypress_SLASH	32	stimuli_target_diamondsquares.svg	stimuli_distractor_trianglediamonds.svg	6	yes	57	0	470	0	0			0	0			1				0	
6.6.1	win	2023-06-02	06:18:26	06:26:15	467576	5d62886927a84f00010fbbb4	4	1	main_slash	11	main_slash	1	stimuli_distractor_diamondtriangles.svg	stimuli_target_rectangletriangles.svg	13	yes	53	1	562	0	0			0	0			1				0	
6.6.1	win	2023-06-02	06:18:26	06:26:15	467576	5d62886927a84f00010fbbb4	4	1	main_slash	11	advance_on_keypress_SLASH	2	stimuli_distractor_diamondtriangles.svg	stimuli_target_rectangletriangles.svg	13	yes	57	0	585	0	0			0	0			1				0	
6.6.1	win	2023-06-02	06:18:26	06:26:17	469303	5d62886927a84f00010fbbb4	4	1	main_slash	11	main_slash	3	stimuli_distractor_diamondtriangles.svg	stimuli_target_squaretriangles.svg	15	yes	53	1	526	0	0			0	0			1				0	
6.6.1	win	2023-06-02	06:18:26	06:26:17	469303	5d62886927a84f00010fbbb4	4	1	main_slash	11	advance_on_keypress_SLASH	4	stimuli_distractor_diamondtriangles.svg	stimuli_target_squaretriangles.svg	15	yes	57	0	366	0	0			0	0			1				0	
6.6.1	win	2023-06-02	06:18:26	06:26:19	471227	5d62886927a84f00010fbbb4	4	1	main_slash	11	main_slash	5	stimuli_distractor_trianglediamonds.svg	stimuli_target_diamondrectangles.svg	27	yes	53	1	946	0	0			0	0			1				0	
6.6.1	win	2023-06-02	06:18:26	06:26:19	471227	5d62886927a84f00010fbbb4	4	1	main_slash	11	advance_on_keypress_SLASH	6	stimuli_distractor_trianglediamonds.svg	stimuli_target_diamondrectangles.svg	27	yes	57	0	302	0	0			0	0			1				0	
6.6.1	win	2023-06-02	06:18:26	06:26:20	472557	5d62886927a84f00010fbbb4	4	1	main_slash	11	main_slash	7	stimuli_distractor_trianglediamonds.svg	stimuli_target_squarediamonds.svg	12	yes	53	1	410	0	0			0	0			1				0	
6.6.1	win	2023-06-02	06:18:26	06:26:20	472557	5d62886927a84f00010fbbb4	4	1	main_slash	11	advance_on_keypress_SLASH	8	stimuli_distractor_trianglediamonds.svg	stimuli_target_squarediamonds.svg	12	yes	57	0	283	0	0			0	0			1				0	
6.6.1	win	2023-06-02	06:18:26	06:26:22	473857	5d62886927a84f00010fbbb4	4	1	main_slash	11	main_slash	9	stimuli_distractor_trianglediamonds.svg	stimuli_target_squaretriangles.svg	11	yes	53	1	407	0	0			0	0			1				0	
6.6.1	win	2023-06-02	06:18:26	06:26:22	473857	5d62886927a84f00010fbbb4	4	1	main_slash	11	advance_on_keypress_SLASH	10	stimuli_distractor_trianglediamonds.svg	stimuli_target_squaretriangles.svg	11	yes	57	0	259	0	0			0	0			1				0	
6.6.1	win	2023-06-02	06:18:26	06:26:23	475121	5d62886927a84f00010fbbb4	4	1	main_slash	11	main_slash	11	stimuli_distractor_trianglediamonds.svg	stimuli_target_trianglesquares.svg	26	yes	53	1	392	0	0			0	0			1				0	
6.6.1	win	2023-06-02	06:18:26	06:26:23	475121	5d62886927a84f00010fbbb4	4	1	main_slash	11	advance_on_keypress_SLASH	12	stimuli_distractor_trianglediamonds.svg	stimuli_target_trianglesquares.svg	26	yes	57	0	313	0	0			0	0			1				0	
6.6.1	win	2023-06-02	06:18:26	06:26:24	476639	5d62886927a84f00010fbbb4	4	1	main_slash	11	main_slash	13	stimuli_distractor_diamondtriangles.svg	stimuli_target_trianglerectangles.svg	29	yes	53	1	596	0	0			0	0			1				0	
6.6.1	win	2023-06-02	06:18:26	06:26:24	476639	5d62886927a84f00010fbbb4	4	1	main_slash	11	advance_on_keypress_SLASH	14	stimuli_distractor_diamondtriangles.svg	stimuli_target_trianglerectangles.svg	29	yes	57	0	448	0	0			0	0			1				0	
6.6.1	win	2023-06-02	06:18:26	06:26:26	478069	5d62886927a84f00010fbbb4	4	1	main_slash	11	main_slash	15	stimuli_distractor_trianglediamonds.svg	stimuli_target_trianglerectangles.svg	25	yes	53	1	364	0	0			0	0			1				0	
6.6.1	win	2023-06-02	06:18:26	06:26:26	478069	5d62886927a84f00010fbbb4	4	1	main_slash	11	advance_on_keypress_SLASH	16	stimuli_distractor_trianglediamonds.svg	stimuli_target_trianglerectangles.svg	25	yes	57	0	316	0	0			0	0			1				0	
6.6.1	win	2023-06-02	06:18:26	06:26:27	479503	5d62886927a84f00010fbbb4	4	1	main_slash	11	main_slash	17	stimuli_target_diamondrectangles.svg	stimuli_distractor_diamondtriangles.svg	23	yes	53	1	502	0	0			0	0			1				0	
6.6.1	win	2023-06-02	06:18:26	06:26:27	479503	5d62886927a84f00010fbbb4	4	1	main_slash	11	advance_on_keypress_SLASH	18	stimuli_target_diamondrectangles.svg	stimuli_distractor_diamondtriangles.svg	23	yes	57	0	322	0	0			0	0			1				0	
6.6.1	win	2023-06-02	06:18:26	06:26:29	480834	5d62886927a84f00010fbbb4	4	1	main_slash	11	main_slash	19	stimuli_distractor_diamondtriangles.svg	stimuli_target_rectanglediamonds.svg	14	yes	53	1	397	0	0			0	0			1				0	
6.6.1	win	2023-06-02	06:18:26	06:26:29	480834	5d62886927a84f00010fbbb4	4	1	main_slash	11	advance_on_keypress_SLASH	20	stimuli_distractor_diamondtriangles.svg	stimuli_target_rectanglediamonds.svg	14	yes	57	0	282	0	0			0	0			1				0	
6.6.1	win	2023-06-02	06:18:26	06:26:30	482059	5d62886927a84f00010fbbb4	4	1	main_slash	11	main_slash	21	stimuli_distractor_trianglediamonds.svg	stimuli_target_rectangletriangles.svg	9	yes	53	1	330	0	0			0	0			1				0	
6.6.1	win	2023-06-02	06:18:26	06:26:30	482059	5d62886927a84f00010fbbb4	4	1	main_slash	11	advance_on_keypress_SLASH	22	stimuli_distractor_trianglediamonds.svg	stimuli_target_rectangletriangles.svg	9	yes	57	0	221	0	0			0	0			1				0	
6.6.1	win	2023-06-02	06:18:26	06:26:31	483338	5d62886927a84f00010fbbb4	4	1	main_slash	11	main_slash	23	stimuli_target_diamondsquares.svg	stimuli_distractor_diamondtriangles.svg	24	yes	53	1	445	0	0			0	0			1				0	
6.6.1	win	2023-06-02	06:18:26	06:26:31	483338	5d62886927a84f00010fbbb4	4	1	main_slash	11	advance_on_keypress_SLASH	24	stimuli_target_diamondsquares.svg	stimuli_distractor_diamondtriangles.svg	24	yes	57	0	673	0	0			0	0			1				0	
6.6.1	win	2023-06-02	06:18:26	06:26:33	485172	5d62886927a84f00010fbbb4	4	1	main_slash	11	main_slash	25	stimuli_distractor_diamondtriangles.svg	stimuli_target_trianglesquares.svg	30	yes	53	1	546	0	0			0	0			1				0	
6.6.1	win	2023-06-02	06:18:26	06:26:33	485172	5d62886927a84f00010fbbb4	4	1	main_slash	11	advance_on_keypress_SLASH	26	stimuli_distractor_diamondtriangles.svg	stimuli_target_trianglesquares.svg	30	yes	57	0	273	0	0			0	0			1				0	
6.6.1	win	2023-06-02	06:18:26	06:26:34	486570	5d62886927a84f00010fbbb4	4	1	main_slash	11	main_slash	27	stimuli_distractor_diamondtriangles.svg	stimuli_target_diamondsquares.svg	32	yes	53	1	507	0	0			0	0			1				0	
6.6.1	win	2023-06-02	06:18:26	06:26:34	486570	5d62886927a84f00010fbbb4	4	1	main_slash	11	advance_on_keypress_SLASH	28	stimuli_distractor_diamondtriangles.svg	stimuli_target_diamondsquares.svg	32	yes	57	0	223	0	0			0	0			1				0	
6.6.1	win	2023-06-02	06:18:26	06:26:36	488375	5d62886927a84f00010fbbb4	4	1	main_slash	11	main_slash	29	stimuli_target_squarediamonds.svg	stimuli_distractor_trianglediamonds.svg	4	yes	53	1	973	0	0			0	0			1				0	
6.6.1	win	2023-06-02	06:18:26	06:26:36	488375	5d62886927a84f00010fbbb4	4	1	main_slash	11	advance_on_keypress_SLASH	30	stimuli_target_squarediamonds.svg	stimuli_distractor_trianglediamonds.svg	4	yes	57	0	447	0	0			0	0			1				0	
6.6.1	win	2023-06-02	06:18:26	06:26:39	491432	5d62886927a84f00010fbbb4	4	1	main_slash	11	main_slash	31	stimuli_distractor_trianglediamonds.svg	stimuli_distractor_diamondtriangles.svg	36	no	0	1	2000	0	0			0	0			1				0	
6.6.1	win	2023-06-02	06:18:26	06:26:39	491432	5d62886927a84f00010fbbb4	4	1	main_slash	11	advance_on_keypress_SLASH	32	stimuli_distractor_trianglediamonds.svg	stimuli_distractor_diamondtriangles.svg	36	no	57	0	273	0	0			0	0			1				0	
6.6.1	win	2023-06-02	06:18:26	06:26:41	492832	5d62886927a84f00010fbbb4	4	1	main_slash	11	main_slash	33	stimuli_target_diamondrectangles.svg	stimuli_distractor_trianglediamonds.svg	19	yes	53	1	509	0	0			0	0			1				0	
6.6.1	win	2023-06-02	06:18:26	06:26:41	492832	5d62886927a84f00010fbbb4	4	1	main_slash	11	advance_on_keypress_SLASH	34	stimuli_target_diamondrectangles.svg	stimuli_distractor_trianglediamonds.svg	19	yes	57	0	301	0	0			0	0			1				0	
6.6.1	win	2023-06-02	06:18:26	06:26:42	494222	5d62886927a84f00010fbbb4	4	1	main_slash	11	main_slash	35	stimuli_target_trianglesquares.svg	stimuli_distractor_diamondtriangles.svg	22	yes	53	1	474	0	0			0	0			1				0	
6.6.1	win	2023-06-02	06:18:26	06:26:42	494222	5d62886927a84f00010fbbb4	4	1	main_slash	11	advance_on_keypress_SLASH	36	stimuli_target_trianglesquares.svg	stimuli_distractor_diamondtriangles.svg	22	yes	57	0	282	0	0			0	0			1				0	
6.6.1	win	2023-06-02	06:18:26	06:26:43	495605	5d62886927a84f00010fbbb4	4	1	main_slash	11	main_slash	37	stimuli_distractor_trianglediamonds.svg	stimuli_distractor_diamondtriangles.svg	35	no	53	0	488	0	0			0	0			1				0	
6.6.1	win	2023-06-02	06:18:26	06:26:43	495605	5d62886927a84f00010fbbb4	4	1	main_slash	11	advance_on_keypress_SLASH	38	stimuli_distractor_trianglediamonds.svg	stimuli_distractor_diamondtriangles.svg	35	no	57	0	651	0	0			0	0			1				0	
6.6.1	win	2023-06-02	06:18:26	06:26:47	498869	5d62886927a84f00010fbbb4	4	1	main_slash	11	main_slash	39	stimuli_distractor_trianglediamonds.svg	stimuli_distractor_trianglediamonds.svg	34	no	0	1	2000	0	0			0	0			1				0	
6.6.1	win	2023-06-02	06:18:26	06:26:47	498869	5d62886927a84f00010fbbb4	4	1	main_slash	11	advance_on_keypress_SLASH	40	stimuli_distractor_trianglediamonds.svg	stimuli_distractor_trianglediamonds.svg	34	no	57	0	375	0	0			0	0			1				0	
6.6.1	win	2023-06-02	06:18:26	06:26:48	500363	5d62886927a84f00010fbbb4	4	1	main_slash	11	main_slash	41	stimuli_target_trianglesquares.svg	stimuli_distractor_trianglediamonds.svg	18	yes	53	1	500	0	0			0	0			1				0	
6.6.1	win	2023-06-02	06:18:26	06:26:48	500363	5d62886927a84f00010fbbb4	4	1	main_slash	11	advance_on_keypress_SLASH	42	stimuli_target_trianglesquares.svg	stimuli_distractor_trianglediamonds.svg	18	yes	57	0	357	0	0			0	0			1				0	
6.6.1	win	2023-06-02	06:18:26	06:26:51	503336	5d62886927a84f00010fbbb4	4	1	main_slash	11	main_slash	43	stimuli_distractor_diamondtriangles.svg	stimuli_distractor_diamondtriangles.svg	40	no	0	1	2000	0	0			0	0			1				0	
6.6.1	win	2023-06-02	06:18:26	06:26:51	503336	5d62886927a84f00010fbbb4	4	1	main_slash	11	advance_on_keypress_SLASH	44	stimuli_distractor_diamondtriangles.svg	stimuli_distractor_diamondtriangles.svg	40	no	57	0	252	0	0			0	0			1				0	
6.6.1	win	2023-06-02	06:18:26	06:26:52	504690	5d62886927a84f00010fbbb4	4	1	main_slash	11	main_slash	45	stimuli_target_diamondsquares.svg	stimuli_distractor_trianglediamonds.svg	20	yes	53	1	488	0	0			0	0			1				0	
6.6.1	win	2023-06-02	06:18:26	06:26:52	504690	5d62886927a84f00010fbbb4	4	1	main_slash	11	advance_on_keypress_SLASH	46	stimuli_target_diamondsquares.svg	stimuli_distractor_trianglediamonds.svg	20	yes	57	0	373	0	0			0	0			1				0	
6.6.1	win	2023-06-02	06:18:26	06:26:55	507675	5d62886927a84f00010fbbb4	4	1	main_slash	11	main_slash	47	stimuli_distractor_diamondtriangles.svg	stimuli_distractor_diamondtriangles.svg	39	no	0	1	2000	0	0			0	0			1				0	
6.6.1	win	2023-06-02	06:18:26	06:26:55	507675	5d62886927a84f00010fbbb4	4	1	main_slash	11	advance_on_keypress_SLASH	48	stimuli_distractor_diamondtriangles.svg	stimuli_distractor_diamondtriangles.svg	39	no	57	0	285	0	0			0	0			1				0	
6.6.1	win	2023-06-02	06:18:26	06:26:57	509280	5d62886927a84f00010fbbb4	4	1	main_slash	11	main_slash	49	stimuli_distractor_trianglediamonds.svg	stimuli_target_rectanglediamonds.svg	10	yes	53	1	702	0	0			0	0			1				0	
6.6.1	win	2023-06-02	06:18:26	06:26:57	509280	5d62886927a84f00010fbbb4	4	1	main_slash	11	advance_on_keypress_SLASH	50	stimuli_distractor_trianglediamonds.svg	stimuli_target_rectanglediamonds.svg	10	yes	57	0	473	0	0			0	0			1				0	
6.6.1	win	2023-06-02	06:18:26	06:26:59	511437	5d62886927a84f00010fbbb4	4	1	main_slash	11	main_slash	51	stimuli_target_trianglerectangles.svg	stimuli_distractor_trianglediamonds.svg	17	yes	53	1	1071	0	0			0	0			1				0	
6.6.1	win	2023-06-02	06:18:26	06:26:59	511437	5d62886927a84f00010fbbb4	4	1	main_slash	11	advance_on_keypress_SLASH	52	stimuli_target_trianglerectangles.svg	stimuli_distractor_trianglediamonds.svg	17	yes	57	0	389	0	0			0	0			1				0	
6.6.1	win	2023-06-02	06:18:26	06:27:01	513022	5d62886927a84f00010fbbb4	4	1	main_slash	11	main_slash	53	stimuli_distractor_diamondtriangles.svg	stimuli_target_diamondrectangles.svg	31	yes	53	1	583	0	0			0	0			1				0	
6.6.1	win	2023-06-02	06:18:26	06:27:01	513022	5d62886927a84f00010fbbb4	4	1	main_slash	11	advance_on_keypress_SLASH	54	stimuli_distractor_diamondtriangles.svg	stimuli_target_diamondrectangles.svg	31	yes	57	0	356	0	0			0	0			1				0	
6.6.1	win	2023-06-02	06:18:26	06:27:04	515997	5d62886927a84f00010fbbb4	4	1	main_slash	11	main_slash	55	stimuli_target_squaretriangles.svg	stimuli_distractor_diamondtriangles.svg	7	yes	0	0	2000	0	0			0	0			1				0	
6.6.1	win	2023-06-02	06:18:26	06:27:04	515997	5d62886927a84f00010fbbb4	4	1	main_slash	11	advance_on_keypress_SLASH	56	stimuli_target_squaretriangles.svg	stimuli_distractor_diamondtriangles.svg	7	yes	57	0	400	0	0			0	0			1				0	
6.6.1	win	2023-06-02	06:18:26	06:27:06	518385	5d62886927a84f00010fbbb4	4	1	main_slash	11	main_slash	57	stimuli_distractor_diamondtriangles.svg	stimuli_distractor_trianglediamonds.svg	37	no	53	0	1370	0	0			0	0			1				0	
6.6.1	win	2023-06-02	06:18:26	06:27:06	518385	5d62886927a84f00010fbbb4	4	1	main_slash	11	advance_on_keypress_SLASH	58	stimuli_distractor_diamondtriangles.svg	stimuli_distractor_trianglediamonds.svg	37	no	57	0	379	0	0			0	0			1				0	
6.6.1	win	2023-06-02	06:18:26	06:27:08	520084	5d62886927a84f00010fbbb4	4	1	main_slash	11	main_slash	59	stimuli_distractor_diamondtriangles.svg	stimuli_distractor_trianglediamonds.svg	38	no	53	0	706	0	0			0	0			1				0	
6.6.1	win	2023-06-02	06:18:26	06:27:08	520084	5d62886927a84f00010fbbb4	4	1	main_slash	11	advance_on_keypress_SLASH	60	stimuli_distractor_diamondtriangles.svg	stimuli_distractor_trianglediamonds.svg	38	no	57	0	448	0	0			0	0			1				0	
6.6.1	win	2023-06-02	06:18:26	06:27:09	521707	5d62886927a84f00010fbbb4	4	1	main_slash	11	main_slash	61	stimuli_distractor_trianglediamonds.svg	stimuli_target_diamondsquares.svg	28	yes	53	1	559	0	0			0	0			1				0	
6.6.1	win	2023-06-02	06:18:26	06:27:09	521707	5d62886927a84f00010fbbb4	4	1	main_slash	11	advance_on_keypress_SLASH	62	stimuli_distractor_trianglediamonds.svg	stimuli_target_diamondsquares.svg	28	yes	57	0	236	0	0			0	0			1				0	
6.6.1	win	2023-06-02	06:18:26	06:27:11	523046	5d62886927a84f00010fbbb4	4	1	main_slash	11	main_slash	63	stimuli_target_rectangletriangles.svg	stimuli_distractor_diamondtriangles.svg	5	yes	53	1	486	0	0			0	0			1				0	
6.6.1	win	2023-06-02	06:18:26	06:27:11	523046	5d62886927a84f00010fbbb4	4	1	main_slash	11	advance_on_keypress_SLASH	64	stimuli_target_rectangletriangles.svg	stimuli_distractor_diamondtriangles.svg	5	yes	57	0	273	0	0			0	0			1				0	
6.6.1	win	2023-06-02	06:18:26	06:27:12	524587	5d62886927a84f00010fbbb4	4	1	main_slash	11	main_slash	65	stimuli_target_trianglerectangles.svg	stimuli_distractor_diamondtriangles.svg	21	yes	53	1	651	0	0			0	0			1				0	
6.6.1	win	2023-06-02	06:18:26	06:27:12	524587	5d62886927a84f00010fbbb4	4	1	main_slash	11	advance_on_keypress_SLASH	66	stimuli_target_trianglerectangles.svg	stimuli_distractor_diamondtriangles.svg	21	yes	57	0	418	0	0			0	0			1				0	
6.6.1	win	2023-06-02	06:18:26	06:27:14	526135	5d62886927a84f00010fbbb4	4	1	main_slash	11	main_slash	67	stimuli_target_rectanglediamonds.svg	stimuli_distractor_trianglediamonds.svg	2	yes	53	1	514	0	0			0	0			1				0	
6.6.1	win	2023-06-02	06:18:26	06:27:14	526135	5d62886927a84f00010fbbb4	4	1	main_slash	11	advance_on_keypress_SLASH	68	stimuli_target_rectanglediamonds.svg	stimuli_distractor_trianglediamonds.svg	2	yes	57	0	339	0	0			0	0			1				0	
6.6.1	win	2023-06-02	06:18:26	06:27:15	527503	5d62886927a84f00010fbbb4	4	1	main_slash	11	main_slash	69	stimuli_target_rectangletriangles.svg	stimuli_distractor_trianglediamonds.svg	1	yes	53	1	410	0	0			0	0			1				0	
6.6.1	win	2023-06-02	06:18:26	06:27:15	527503	5d62886927a84f00010fbbb4	4	1	main_slash	11	advance_on_keypress_SLASH	70	stimuli_target_rectangletriangles.svg	stimuli_distractor_trianglediamonds.svg	1	yes	57	0	208	0	0			0	0			1				0	
6.6.1	win	2023-06-02	06:18:26	06:27:16	528711	5d62886927a84f00010fbbb4	4	1	main_slash	11	main_slash	71	stimuli_target_rectanglediamonds.svg	stimuli_distractor_diamondtriangles.svg	6	yes	53	1	383	0	0			0	0			1				0	
6.6.1	win	2023-06-02	06:18:26	06:27:16	528711	5d62886927a84f00010fbbb4	4	1	main_slash	11	advance_on_keypress_SLASH	72	stimuli_target_rectanglediamonds.svg	stimuli_distractor_diamondtriangles.svg	6	yes	57	0	183	0	0			0	0			1				0	
6.6.1	win	2023-06-02	06:18:26	06:27:18	530059	5d62886927a84f00010fbbb4	4	1	main_slash	11	main_slash	73	stimuli_distractor_diamondtriangles.svg	stimuli_target_squarediamonds.svg	16	yes	53	1	547	0	0			0	0			1				0	
6.6.1	win	2023-06-02	06:18:26	06:27:18	530059	5d62886927a84f00010fbbb4	4	1	main_slash	11	advance_on_keypress_SLASH	74	stimuli_distractor_diamondtriangles.svg	stimuli_target_squarediamonds.svg	16	yes	57	0	228	0	0			0	0			1				0	
6.6.1	win	2023-06-02	06:18:26	06:27:21	532900	5d62886927a84f00010fbbb4	4	1	main_slash	11	main_slash	75	stimuli_distractor_trianglediamonds.svg	stimuli_distractor_trianglediamonds.svg	33	no	0	1	2000	0	0			0	0			1				0	
6.6.1	win	2023-06-02	06:18:26	06:27:21	532900	5d62886927a84f00010fbbb4	4	1	main_slash	11	advance_on_keypress_SLASH	76	stimuli_distractor_trianglediamonds.svg	stimuli_distractor_trianglediamonds.svg	33	no	57	0	241	0	0			0	0			1				0	
6.6.1	win	2023-06-02	06:18:26	06:27:22	534139	5d62886927a84f00010fbbb4	4	1	main_slash	11	main_slash	77	stimuli_target_squarediamonds.svg	stimuli_distractor_diamondtriangles.svg	8	yes	53	1	379	0	0			0	0			1				0	
6.6.1	win	2023-06-02	06:18:26	06:27:22	534139	5d62886927a84f00010fbbb4	4	1	main_slash	11	advance_on_keypress_SLASH	78	stimuli_target_squarediamonds.svg	stimuli_distractor_diamondtriangles.svg	8	yes	57	0	254	0	0			0	0			1				0	
6.6.1	win	2023-06-02	06:18:26	06:27:23	535425	5d62886927a84f00010fbbb4	4	1	main_slash	11	main_slash	79	stimuli_target_squaretriangles.svg	stimuli_distractor_trianglediamonds.svg	3	yes	53	1	416	0	0			0	0			1				0	
6.6.1	win	2023-06-02	06:18:26	06:27:23	535425	5d62886927a84f00010fbbb4	4	1	main_slash	11	advance_on_keypress_SLASH	80	stimuli_target_squaretriangles.svg	stimuli_distractor_trianglediamonds.svg	3	yes	57	0	186	0	0			0	0			1				0	
6.6.1	win	2023-06-02	06:18:26	06:27:24	536786	5d62886927a84f00010fbbb4	4	1	main_slash	11	main_slash	81	stimuli_target_diamondrectangles.svg	stimuli_distractor_trianglediamonds.svg	19	yes	53	1	565	0	0			0	0			1				0	
6.6.1	win	2023-06-02	06:18:26	06:27:24	536786	5d62886927a84f00010fbbb4	4	1	main_slash	11	advance_on_keypress_SLASH	82	stimuli_target_diamondrectangles.svg	stimuli_distractor_trianglediamonds.svg	19	yes	57	0	250	0	0			0	0			1				0	
6.6.1	win	2023-06-02	06:18:26	06:27:26	538229	5d62886927a84f00010fbbb4	4	1	main_slash	11	main_slash	83	stimuli_distractor_trianglediamonds.svg	stimuli_distractor_trianglediamonds.svg	34	no	53	0	578	0	0			0	0			1				0	
6.6.1	win	2023-06-02	06:18:26	06:27:26	538229	5d62886927a84f00010fbbb4	4	1	main_slash	11	advance_on_keypress_SLASH	84	stimuli_distractor_trianglediamonds.svg	stimuli_distractor_trianglediamonds.svg	34	no	57	0	560	0	0			0	0			1				0	
6.6.1	win	2023-06-02	06:18:26	06:27:28	539927	5d62886927a84f00010fbbb4	4	1	main_slash	11	main_slash	85	stimuli_distractor_diamondtriangles.svg	stimuli_target_trianglesquares.svg	30	yes	53	1	524	0	0			0	0			1				0	
6.6.1	win	2023-06-02	06:18:26	06:27:28	539927	5d62886927a84f00010fbbb4	4	1	main_slash	11	advance_on_keypress_SLASH	86	stimuli_distractor_diamondtriangles.svg	stimuli_target_trianglesquares.svg	30	yes	57	0	238	0	0			0	0			1				0	
6.6.1	win	2023-06-02	06:18:26	06:27:29	541326	5d62886927a84f00010fbbb4	4	1	main_slash	11	main_slash	87	stimuli_distractor_trianglediamonds.svg	stimuli_target_trianglesquares.svg	26	yes	53	1	547	0	0			0	0			1				0	
6.6.1	win	2023-06-02	06:18:26	06:27:29	541326	5d62886927a84f00010fbbb4	4	1	main_slash	11	advance_on_keypress_SLASH	88	stimuli_distractor_trianglediamonds.svg	stimuli_target_trianglesquares.svg	26	yes	57	0	206	0	0			0	0			1				0	
6.6.1	win	2023-06-02	06:18:26	06:27:30	542754	5d62886927a84f00010fbbb4	4	1	main_slash	11	main_slash	89	stimuli_distractor_diamondtriangles.svg	stimuli_target_rectanglediamonds.svg	14	yes	53	1	606	0	0			0	0			1				0	
6.6.1	win	2023-06-02	06:18:26	06:27:30	542754	5d62886927a84f00010fbbb4	4	1	main_slash	11	advance_on_keypress_SLASH	90	stimuli_distractor_diamondtriangles.svg	stimuli_target_rectanglediamonds.svg	14	yes	57	0	168	0	0			0	0			1				0	
6.6.1	win	2023-06-02	06:18:26	06:27:32	544071	5d62886927a84f00010fbbb4	4	1	main_slash	11	main_slash	91	stimuli_distractor_diamondtriangles.svg	stimuli_target_squarediamonds.svg	16	yes	53	1	535	0	0			0	0			1				0	
6.6.1	win	2023-06-02	06:18:26	06:27:32	544071	5d62886927a84f00010fbbb4	4	1	main_slash	11	advance_on_keypress_SLASH	92	stimuli_distractor_diamondtriangles.svg	stimuli_target_squarediamonds.svg	16	yes	57	0	107	0	0			0	0			1				0	
6.6.1	win	2023-06-02	06:18:26	06:27:34	546791	5d62886927a84f00010fbbb4	4	1	main_slash	11	main_slash	93	stimuli_distractor_trianglediamonds.svg	stimuli_distractor_trianglediamonds.svg	33	no	0	1	2000	0	0			0	0			1				0	
6.6.1	win	2023-06-02	06:18:26	06:27:34	546791	5d62886927a84f00010fbbb4	4	1	main_slash	11	advance_on_keypress_SLASH	94	stimuli_distractor_trianglediamonds.svg	stimuli_distractor_trianglediamonds.svg	33	no	57	0	265	0	0			0	0			1				0	
6.6.1	win	2023-06-02	06:18:26	06:27:36	548121	5d62886927a84f00010fbbb4	4	1	main_slash	11	main_slash	95	stimuli_distractor_diamondtriangles.svg	stimuli_target_rectangletriangles.svg	13	yes	53	1	445	0	0			0	0			1				0	
6.6.1	win	2023-06-02	06:18:26	06:27:36	548121	5d62886927a84f00010fbbb4	4	1	main_slash	11	advance_on_keypress_SLASH	96	stimuli_distractor_diamondtriangles.svg	stimuli_target_rectangletriangles.svg	13	yes	57	0	252	0	0			0	0			1				0	
6.6.1	win	2023-06-02	06:18:26	06:27:39	550985	5d62886927a84f00010fbbb4	4	1	main_slash	11	main_slash	97	stimuli_distractor_trianglediamonds.svg	stimuli_distractor_diamondtriangles.svg	36	no	0	1	2000	0	0			0	0			1				0	
6.6.1	win	2023-06-02	06:18:26	06:27:39	550985	5d62886927a84f00010fbbb4	4	1	main_slash	11	advance_on_keypress_SLASH	98	stimuli_distractor_trianglediamonds.svg	stimuli_distractor_diamondtriangles.svg	36	no	57	0	422	0	0			0	0			1				0	
6.6.1	win	2023-06-02	06:18:26	06:27:40	552436	5d62886927a84f00010fbbb4	4	1	main_slash	11	main_slash	99	stimuli_target_rectangletriangles.svg	stimuli_distractor_trianglediamonds.svg	1	yes	53	1	415	0	0			0	0			1				0	
6.6.1	win	2023-06-02	06:18:26	06:27:40	552436	5d62886927a84f00010fbbb4	4	1	main_slash	11	advance_on_keypress_SLASH	100	stimuli_target_rectangletriangles.svg	stimuli_distractor_trianglediamonds.svg	1	yes	57	0	231	0	0			0	0			1				0	
6.6.1	win	2023-06-02	06:18:26	06:27:43	555282	5d62886927a84f00010fbbb4	4	1	main_slash	11	main_slash	101	stimuli_distractor_diamondtriangles.svg	stimuli_distractor_diamondtriangles.svg	40	no	0	1	2000	0	0			0	0			1				0	
6.6.1	win	2023-06-02	06:18:26	06:27:43	555282	5d62886927a84f00010fbbb4	4	1	main_slash	11	advance_on_keypress_SLASH	102	stimuli_distractor_diamondtriangles.svg	stimuli_distractor_diamondtriangles.svg	40	no	57	0	245	0	0			0	0			1				0	
6.6.1	win	2023-06-02	06:18:26	06:27:45	557066	5d62886927a84f00010fbbb4	4	1	main_slash	11	main_slash	103	stimuli_distractor_trianglediamonds.svg	stimuli_target_trianglerectangles.svg	25	yes	53	1	924	0	0			0	0			1				0	
6.6.1	win	2023-06-02	06:18:26	06:27:45	557066	5d62886927a84f00010fbbb4	4	1	main_slash	11	advance_on_keypress_SLASH	104	stimuli_distractor_trianglediamonds.svg	stimuli_target_trianglerectangles.svg	25	yes	57	0	245	0	0			0	0			1				0	
6.6.1	win	2023-06-02	06:18:26	06:27:46	558446	5d62886927a84f00010fbbb4	4	1	main_slash	11	main_slash	105	stimuli_distractor_trianglediamonds.svg	stimuli_target_diamondsquares.svg	28	yes	53	1	519	0	0			0	0			1				0	
6.6.1	win	2023-06-02	06:18:26	06:27:46	558446	5d62886927a84f00010fbbb4	4	1	main_slash	11	advance_on_keypress_SLASH	106	stimuli_distractor_trianglediamonds.svg	stimuli_target_diamondsquares.svg	28	yes	57	0	142	0	0			0	0			1				0	
6.6.1	win	2023-06-02	06:18:26	06:27:47	559773	5d62886927a84f00010fbbb4	4	1	main_slash	11	main_slash	107	stimuli_target_diamondrectangles.svg	stimuli_distractor_diamondtriangles.svg	23	yes	53	1	570	0	0			0	0			1				0	
6.6.1	win	2023-06-02	06:18:26	06:27:47	559773	5d62886927a84f00010fbbb4	4	1	main_slash	11	advance_on_keypress_SLASH	108	stimuli_target_diamondrectangles.svg	stimuli_distractor_diamondtriangles.svg	23	yes	57	0	182	0	0			0	0			1				0	
6.6.1	win	2023-06-02	06:18:26	06:27:49	561133	5d62886927a84f00010fbbb4	4	1	main_slash	11	main_slash	109	stimuli_distractor_diamondtriangles.svg	stimuli_target_squaretriangles.svg	15	yes	53	1	560	0	0			0	0			1				0	
6.6.1	win	2023-06-02	06:18:26	06:27:49	561133	5d62886927a84f00010fbbb4	4	1	main_slash	11	advance_on_keypress_SLASH	110	stimuli_distractor_diamondtriangles.svg	stimuli_target_squaretriangles.svg	15	yes	57	0	140	0	0			0	0			1				0	
6.6.1	win	2023-06-02	06:18:26	06:27:50	562313	5d62886927a84f00010fbbb4	4	1	main_slash	11	main_slash	111	stimuli_distractor_trianglediamonds.svg	stimuli_target_rectangletriangles.svg	9	yes	53	1	425	0	0			0	0			1				0	
6.6.1	win	2023-06-02	06:18:26	06:27:50	562313	5d62886927a84f00010fbbb4	4	1	main_slash	11	advance_on_keypress_SLASH	112	stimuli_distractor_trianglediamonds.svg	stimuli_target_rectangletriangles.svg	9	yes	57	0	244	0	0			0	0			1				0	
6.6.1	win	2023-06-02	06:18:26	06:27:51	563734	5d62886927a84f00010fbbb4	4	1	main_slash	11	main_slash	113	stimuli_target_squaretriangles.svg	stimuli_distractor_trianglediamonds.svg	3	yes	53	1	561	0	0			0	0			1				0	
6.6.1	win	2023-06-02	06:18:26	06:27:51	563734	5d62886927a84f00010fbbb4	4	1	main_slash	11	advance_on_keypress_SLASH	114	stimuli_target_squaretriangles.svg	stimuli_distractor_trianglediamonds.svg	3	yes	57	0	268	0	0			0	0			1				0	
6.6.1	win	2023-06-02	06:18:26	06:27:53	565252	5d62886927a84f00010fbbb4	4	1	main_slash	11	main_slash	115	stimuli_target_trianglesquares.svg	stimuli_distractor_trianglediamonds.svg	18	yes	53	1	637	0	0			0	0			1				0	
6.6.1	win	2023-06-02	06:18:26	06:27:53	565252	5d62886927a84f00010fbbb4	4	1	main_slash	11	advance_on_keypress_SLASH	116	stimuli_target_trianglesquares.svg	stimuli_distractor_trianglediamonds.svg	18	yes	57	0	287	0	0			0	0			1				0	
6.6.1	win	2023-06-02	06:18:26	06:27:54	566568	5d62886927a84f00010fbbb4	4	1	main_slash	11	main_slash	117	stimuli_target_rectanglediamonds.svg	stimuli_distractor_trianglediamonds.svg	2	yes	53	1	413	0	0			0	0			1				0	
6.6.1	win	2023-06-02	06:18:26	06:27:54	566568	5d62886927a84f00010fbbb4	4	1	main_slash	11	advance_on_keypress_SLASH	118	stimuli_target_rectanglediamonds.svg	stimuli_distractor_trianglediamonds.svg	2	yes	57	0	168	0	0			0	0			1				0	
6.6.1	win	2023-06-02	06:18:26	06:27:56	567846	5d62886927a84f00010fbbb4	4	1	main_slash	11	main_slash	119	stimuli_target_trianglerectangles.svg	stimuli_distractor_diamondtriangles.svg	21	yes	53	1	491	0	0			0	0			1				0	
6.6.1	win	2023-06-02	06:18:26	06:27:56	567846	5d62886927a84f00010fbbb4	4	1	main_slash	11	advance_on_keypress_SLASH	120	stimuli_target_trianglerectangles.svg	stimuli_distractor_diamondtriangles.svg	21	yes	57	0	183	0	0			0	0			1				0	
6.6.1	win	2023-06-02	06:18:26	06:27:57	569057	5d62886927a84f00010fbbb4	4	1	main_slash	11	main_slash	121	stimuli_distractor_trianglediamonds.svg	stimuli_target_squarediamonds.svg	12	yes	53	1	411	0	0			0	0			1				0	
6.6.1	win	2023-06-02	06:18:26	06:27:57	569057	5d62886927a84f00010fbbb4	4	1	main_slash	11	advance_on_keypress_SLASH	122	stimuli_distractor_trianglediamonds.svg	stimuli_target_squarediamonds.svg	12	yes	57	0	145	0	0			0	0			1				0	
6.6.1	win	2023-06-02	06:18:26	06:27:58	570276	5d62886927a84f00010fbbb4	4	1	main_slash	11	main_slash	123	stimuli_target_squarediamonds.svg	stimuli_distractor_diamondtriangles.svg	8	yes	53	1	455	0	0			0	0			1				0	
6.6.1	win	2023-06-02	06:18:26	06:27:58	570276	5d62886927a84f00010fbbb4	4	1	main_slash	11	advance_on_keypress_SLASH	124	stimuli_target_squarediamonds.svg	stimuli_distractor_diamondtriangles.svg	8	yes	57	0	151	0	0			0	0			1				0	
6.6.1	win	2023-06-02	06:18:26	06:27:59	571419	5d62886927a84f00010fbbb4	4	1	main_slash	11	main_slash	125	stimuli_distractor_diamondtriangles.svg	stimuli_target_diamondrectangles.svg	31	yes	53	1	373	0	0			0	0			1				0	
6.6.1	win	2023-06-02	06:18:26	06:27:59	571419	5d62886927a84f00010fbbb4	4	1	main_slash	11	advance_on_keypress_SLASH	126	stimuli_distractor_diamondtriangles.svg	stimuli_target_diamondrectangles.svg	31	yes	57	0	178	0	0			0	0			1				0	
6.6.1	win	2023-06-02	06:18:26	06:28:00	572637	5d62886927a84f00010fbbb4	4	1	main_slash	11	main_slash	127	stimuli_target_squarediamonds.svg	stimuli_distractor_trianglediamonds.svg	4	yes	53	1	428	0	0			0	0			1				0	
6.6.1	win	2023-06-02	06:18:26	06:28:00	572637	5d62886927a84f00010fbbb4	4	1	main_slash	11	advance_on_keypress_SLASH	128	stimuli_target_squarediamonds.svg	stimuli_distractor_trianglediamonds.svg	4	yes	57	0	147	0	0			0	0			1				0	
6.6.1	win	2023-06-02	06:18:26	06:28:01	573757	5d62886927a84f00010fbbb4	4	1	main_slash	11	main_slash	129	stimuli_distractor_diamondtriangles.svg	stimuli_target_diamondsquares.svg	32	yes	53	1	360	0	0			0	0			1				0	
6.6.1	win	2023-06-02	06:18:26	06:28:01	573757	5d62886927a84f00010fbbb4	4	1	main_slash	11	advance_on_keypress_SLASH	130	stimuli_distractor_diamondtriangles.svg	stimuli_target_diamondsquares.svg	32	yes	57	0	183	0	0			0	0			1				0	
6.6.1	win	2023-06-02	06:18:26	06:28:03	575133	5d62886927a84f00010fbbb4	4	1	main_slash	11	main_slash	131	stimuli_target_trianglerectangles.svg	stimuli_distractor_trianglediamonds.svg	17	yes	53	1	578	0	0			0	0			1				0	
6.6.1	win	2023-06-02	06:18:26	06:28:03	575133	5d62886927a84f00010fbbb4	4	1	main_slash	11	advance_on_keypress_SLASH	132	stimuli_target_trianglerectangles.svg	stimuli_distractor_trianglediamonds.svg	17	yes	57	0	160	0	0			0	0			1				0	
6.6.1	win	2023-06-02	06:18:26	06:28:04	576343	5d62886927a84f00010fbbb4	4	1	main_slash	11	main_slash	133	stimuli_target_trianglesquares.svg	stimuli_distractor_diamondtriangles.svg	22	yes	53	1	438	0	0			0	0			1				0	
6.6.1	win	2023-06-02	06:18:26	06:28:04	576343	5d62886927a84f00010fbbb4	4	1	main_slash	11	advance_on_keypress_SLASH	134	stimuli_target_trianglesquares.svg	stimuli_distractor_diamondtriangles.svg	22	yes	57	0	114	0	0			0	0			1				0	
6.6.1	win	2023-06-02	06:18:26	06:28:07	579076	5d62886927a84f00010fbbb4	4	1	main_slash	11	main_slash	135	stimuli_distractor_trianglediamonds.svg	stimuli_distractor_diamondtriangles.svg	35	no	0	1	2000	0	0			0	0			1				0	
6.6.1	win	2023-06-02	06:18:26	06:28:07	579076	5d62886927a84f00010fbbb4	4	1	main_slash	11	advance_on_keypress_SLASH	136	stimuli_distractor_trianglediamonds.svg	stimuli_distractor_diamondtriangles.svg	35	no	57	0	451	0	0			0	0			1				0	
6.6.1	win	2023-06-02	06:18:26	06:28:08	580555	5d62886927a84f00010fbbb4	4	1	main_slash	11	main_slash	137	stimuli_target_rectangletriangles.svg	stimuli_distractor_diamondtriangles.svg	5	yes	53	1	412	0	0			0	0			1				0	
6.6.1	win	2023-06-02	06:18:26	06:28:08	580555	5d62886927a84f00010fbbb4	4	1	main_slash	11	advance_on_keypress_SLASH	138	stimuli_target_rectangletriangles.svg	stimuli_distractor_diamondtriangles.svg	5	yes	57	0	198	0	0			0	0			1				0	
6.6.1	win	2023-06-02	06:18:26	06:28:11	583367	5d62886927a84f00010fbbb4	4	1	main_slash	11	main_slash	139	stimuli_distractor_trianglediamonds.svg	stimuli_target_diamondrectangles.svg	27	yes	0	0	2000	0	0			0	0			1				0	
6.6.1	win	2023-06-02	06:18:26	06:28:11	583367	5d62886927a84f00010fbbb4	4	1	main_slash	11	advance_on_keypress_SLASH	140	stimuli_distractor_trianglediamonds.svg	stimuli_target_diamondrectangles.svg	27	yes	57	0	470	0	0			0	0			1				0	
6.6.1	win	2023-06-02	06:18:26	06:28:13	584963	5d62886927a84f00010fbbb4	4	1	main_slash	11	main_slash	141	stimuli_target_diamondsquares.svg	stimuli_distractor_trianglediamonds.svg	20	yes	53	1	511	0	0			0	0			1				0	
6.6.1	win	2023-06-02	06:18:26	06:28:13	584963	5d62886927a84f00010fbbb4	4	1	main_slash	11	advance_on_keypress_SLASH	142	stimuli_target_diamondsquares.svg	stimuli_distractor_trianglediamonds.svg	20	yes	57	0	176	0	0			0	0			1				0	
6.6.1	win	2023-06-02	06:18:26	06:28:14	586250	5d62886927a84f00010fbbb4	4	1	main_slash	11	main_slash	143	stimuli_target_rectanglediamonds.svg	stimuli_distractor_diamondtriangles.svg	6	yes	53	1	495	0	0			0	0			1				0	
6.6.1	win	2023-06-02	06:18:26	06:28:14	586250	5d62886927a84f00010fbbb4	4	1	main_slash	11	advance_on_keypress_SLASH	144	stimuli_target_rectanglediamonds.svg	stimuli_distractor_diamondtriangles.svg	6	yes	57	0	170	0	0			0	0			1				0	
6.6.1	win	2023-06-02	06:18:26	06:28:17	589034	5d62886927a84f00010fbbb4	4	1	main_slash	11	main_slash	145	stimuli_distractor_diamondtriangles.svg	stimuli_distractor_trianglediamonds.svg	38	no	0	1	2000	0	0			0	0			1				0	
6.6.1	win	2023-06-02	06:18:26	06:28:17	589034	5d62886927a84f00010fbbb4	4	1	main_slash	11	advance_on_keypress_SLASH	146	stimuli_distractor_diamondtriangles.svg	stimuli_distractor_trianglediamonds.svg	38	no	57	0	359	0	0			0	0			1				0	
6.6.1	win	2023-06-02	06:18:26	06:28:18	590497	5d62886927a84f00010fbbb4	4	1	main_slash	11	main_slash	147	stimuli_distractor_trianglediamonds.svg	stimuli_target_squaretriangles.svg	11	yes	53	1	487	0	0			0	0			1				0	
6.6.1	win	2023-06-02	06:18:26	06:28:18	590497	5d62886927a84f00010fbbb4	4	1	main_slash	11	advance_on_keypress_SLASH	148	stimuli_distractor_trianglediamonds.svg	stimuli_target_squaretriangles.svg	11	yes	57	0	343	0	0			0	0			1				0	
6.6.1	win	2023-06-02	06:18:26	06:28:20	592046	5d62886927a84f00010fbbb4	4	1	main_slash	11	main_slash	149	stimuli_distractor_diamondtriangles.svg	stimuli_target_trianglerectangles.svg	29	yes	53	1	594	0	0			0	0			1				0	
6.6.1	win	2023-06-02	06:18:26	06:28:20	592046	5d62886927a84f00010fbbb4	4	1	main_slash	11	advance_on_keypress_SLASH	150	stimuli_distractor_diamondtriangles.svg	stimuli_target_trianglerectangles.svg	29	yes	57	0	220	0	0			0	0			1				0	
6.6.1	win	2023-06-02	06:18:26	06:28:23	594882	5d62886927a84f00010fbbb4	4	1	main_slash	11	main_slash	151	stimuli_distractor_diamondtriangles.svg	stimuli_distractor_diamondtriangles.svg	39	no	0	1	2000	0	0			0	0			1				0	
6.6.1	win	2023-06-02	06:18:26	06:28:23	594882	5d62886927a84f00010fbbb4	4	1	main_slash	11	advance_on_keypress_SLASH	152	stimuli_distractor_diamondtriangles.svg	stimuli_distractor_diamondtriangles.svg	39	no	57	0	317	0	0			0	0			1				0	
6.6.1	win	2023-06-02	06:18:26	06:28:24	596265	5d62886927a84f00010fbbb4	4	1	main_slash	11	main_slash	153	stimuli_distractor_trianglediamonds.svg	stimuli_target_rectanglediamonds.svg	10	yes	53	1	449	0	0			0	0			1				0	
6.6.1	win	2023-06-02	06:18:26	06:28:24	596265	5d62886927a84f00010fbbb4	4	1	main_slash	11	advance_on_keypress_SLASH	154	stimuli_distractor_trianglediamonds.svg	stimuli_target_rectanglediamonds.svg	10	yes	57	0	198	0	0			0	0			1				0	
6.6.1	win	2023-06-02	06:18:26	06:28:25	597746	5d62886927a84f00010fbbb4	4	1	main_slash	11	main_slash	155	stimuli_target_squaretriangles.svg	stimuli_distractor_diamondtriangles.svg	7	yes	53	1	670	0	0			0	0			1				0	
6.6.1	win	2023-06-02	06:18:26	06:28:25	597746	5d62886927a84f00010fbbb4	4	1	main_slash	11	advance_on_keypress_SLASH	156	stimuli_target_squaretriangles.svg	stimuli_distractor_diamondtriangles.svg	7	yes	57	0	268	0	0			0	0			1				0	
6.6.1	win	2023-06-02	06:18:26	06:28:28	600628	5d62886927a84f00010fbbb4	4	1	main_slash	11	main_slash	157	stimuli_distractor_diamondtriangles.svg	stimuli_distractor_trianglediamonds.svg	37	no	0	1	2000	0	0			0	0			1				0	
6.6.1	win	2023-06-02	06:18:26	06:28:28	600628	5d62886927a84f00010fbbb4	4	1	main_slash	11	advance_on_keypress_SLASH	158	stimuli_distractor_diamondtriangles.svg	stimuli_distractor_trianglediamonds.svg	37	no	57	0	360	0	0			0	0			1				0	
6.6.1	win	2023-06-02	06:18:26	06:28:30	602175	5d62886927a84f00010fbbb4	4	1	main_slash	11	main_slash	159	stimuli_target_diamondsquares.svg	stimuli_distractor_diamondtriangles.svg	24	yes	53	1	571	0	0			0	0			1				0	
6.6.1	win	2023-06-02	06:18:26	06:28:30	602175	5d62886927a84f00010fbbb4	4	1	main_slash	11	advance_on_keypress_SLASH	160	stimuli_target_diamondsquares.svg	stimuli_distractor_diamondtriangles.svg	24	yes	57	0	348	0	0			0	0			1				0	
6.6.1	win	2023-06-02	06:18:26	06:28:30	602175	5d62886927a84f00010fbbb4	4	1	headphonecheck_calibration	14	headphonecheck_calibrationIntro	1	stimuli_target_diamondsquares.svg	stimuli_distractor_diamondtriangles.svg	24	yes	calibrationButton	0	1836	0	0			0	0			1				0	
6.6.1	win	2023-06-02	06:18:26	06:28:30	602175	5d62886927a84f00010fbbb4	4	1	headphonecheck_testphase	15	test_collectResponse	3	stimuli_target_diamondsquares.svg	stimuli_distractor_diamondtriangles.svg	24	yes	first	0	2421	1	5	antiphase_hc_osi.wav	2	0	0			1				0	
6.6.1	win	2023-06-02	06:18:26	06:28:30	602175	5d62886927a84f00010fbbb4	4	1	headphonecheck_testphase	15	test_collectResponse	6	stimuli_target_diamondsquares.svg	stimuli_distractor_diamondtriangles.svg	24	yes	first	0	610	2	6	antiphase_hc_ois.wav	3	0	0			1				0	
6.6.1	win	2023-06-02	06:18:26	06:28:30	602175	5d62886927a84f00010fbbb4	4	1	headphonecheck_testphase	15	test_collectResponse	9	stimuli_target_diamondsquares.svg	stimuli_distractor_diamondtriangles.svg	24	yes	second	0	286	3	2	antiphase_hc_ios.wav	3	0	0			1				0	
6.6.1	win	2023-06-02	06:18:26	06:28:30	602175	5d62886927a84f00010fbbb4	4	1	headphonecheck_testphase	15	test_collectResponse	12	stimuli_target_diamondsquares.svg	stimuli_distractor_diamondtriangles.svg	24	yes	third	0	254	4	1	antiphase_hc_iso.wav	2	0	0			1				0	
6.6.1	win	2023-06-02	06:18:26	06:28:30	602175	5d62886927a84f00010fbbb4	4	1	headphonecheck_testphase	15	test_collectResponse	15	stimuli_target_diamondsquares.svg	stimuli_distractor_diamondtriangles.svg	24	yes	second	0	243	5	3	antiphase_hc_soi.wav	1	0	0			1				0	
6.6.1	win	2023-06-02	06:18:26	06:28:30	602175	5d62886927a84f00010fbbb4	4	1	headphonecheck_testphase	15	test_collectResponse	18	stimuli_target_diamondsquares.svg	stimuli_distractor_diamondtriangles.svg	24	yes	third	0	238	6	4	antiphase_hc_sio.wav	1	0	0			1				0	
6.6.1	win	2023-06-02	06:18:26	06:28:30	602175	5d62886927a84f00010fbbb4	4	1	stereocheck_calibration	17	stereocheck_calibrationIntro	1	stimuli_target_diamondsquares.svg	stimuli_distractor_diamondtriangles.svg	24	yes	stereocheck_calibrationButton	0	3560	6	4	antiphase_hc_sio.wav	1	0	0			1				0	
6.6.1	win	2023-06-02	06:18:26	06:28:30	602175	5d62886927a84f00010fbbb4	4	1	stereocheck_testphase	18	stereocheck_test_collectResponse	3	stimuli_target_diamondsquares.svg	stimuli_distractor_diamondtriangles.svg	24	yes	stereocheck_left	1	2100	6	4	antiphase_hc_sio.wav	1	1	1	noise_calib_stim_LEFT.wav	1	1				0	
6.6.1	win	2023-06-02	06:18:26	06:28:30	602175	5d62886927a84f00010fbbb4	4	1	stereocheck_testphase	18	stereocheck_test_collectResponse	6	stimuli_target_diamondsquares.svg	stimuli_distractor_diamondtriangles.svg	24	yes	stereocheck_right	1	284	6	4	antiphase_hc_sio.wav	1	2	4	noise_calib_stim_RIGHT.wav	2	1				0	
6.6.1	win	2023-06-02	06:18:26	06:28:30	602175	5d62886927a84f00010fbbb4	4	1	stereocheck_testphase	18	stereocheck_test_collectResponse	9	stimuli_target_diamondsquares.svg	stimuli_distractor_diamondtriangles.svg	24	yes	stereocheck_left	1	264	6	4	antiphase_hc_sio.wav	1	3	2	noise_calib_stim_LEFT.wav	1	1				0	
6.6.1	win	2023-06-02	06:18:26	06:28:30	602175	5d62886927a84f00010fbbb4	4	1	stereocheck_testphase	18	stereocheck_test_collectResponse	12	stimuli_target_diamondsquares.svg	stimuli_distractor_diamondtriangles.svg	24	yes	stereocheck_right	1	247	6	4	antiphase_hc_sio.wav	1	4	5	noise_calib_stim_RIGHT.wav	2	1				0	
6.6.1	win	2023-06-02	06:18:26	06:28:30	602175	5d62886927a84f00010fbbb4	4	1	stereocheck_testphase	18	stereocheck_test_collectResponse	15	stimuli_target_diamondsquares.svg	stimuli_distractor_diamondtriangles.svg	24	yes	stereocheck_left	1	261	6	4	antiphase_hc_sio.wav	1	5	3	noise_calib_stim_LEFT.wav	1	1				0	
6.6.1	win	2023-06-02	06:18:26	06:28:30	602175	5d62886927a84f00010fbbb4	4	1	stereocheck_testphase	18	stereocheck_test_collectResponse	18	stimuli_target_diamondsquares.svg	stimuli_distractor_diamondtriangles.svg	24	yes	stereocheck_right	1	283	6	4	antiphase_hc_sio.wav	1	6	6	noise_calib_stim_RIGHT.wav	2	1				0	
6.6.1	win	2023-06-02	06:18:26	06:28:30	602175	5d62886927a84f00010fbbb4	4	1	DL_practice	21	DL_practice	2	stimuli_target_diamondsquares.svg	stimuli_distractor_diamondtriangles.svg	24	yes	ka	1	2927	6	4	antiphase_hc_sio.wav	1	6	6	noise_calib_stim_RIGHT.wav	2	23	blb_dichoticlistening_ka-pa.mp3	ka	pa	1	left
6.6.1	win	2023-06-02	06:18:26	06:28:30	602175	5d62886927a84f00010fbbb4	4	1	DL_practice	21	DL_practice	3	stimuli_target_diamondsquares.svg	stimuli_distractor_diamondtriangles.svg	24	yes	ba	1	1210	6	4	antiphase_hc_sio.wav	1	6	6	noise_calib_stim_RIGHT.wav	2	1	blb_dichoticlistening_ba-ba.mp3	ba	ba	0	left
6.6.1	win	2023-06-02	06:18:26	06:28:30	602175	5d62886927a84f00010fbbb4	4	1	DL_practice	21	DL_practice	4	stimuli_target_diamondsquares.svg	stimuli_distractor_diamondtriangles.svg	24	yes	ka	1	1430	6	4	antiphase_hc_sio.wav	1	6	6	noise_calib_stim_RIGHT.wav	2	22	blb_dichoticlistening_ka-ka.mp3	ka	ka	0	left
6.6.1	win	2023-06-02	06:18:26	06:28:30	602175	5d62886927a84f00010fbbb4	4	1	DL_practice	21	DL_practice	5	stimuli_target_diamondsquares.svg	stimuli_distractor_diamondtriangles.svg	24	yes	ga	1	909	6	4	antiphase_hc_sio.wav	1	6	6	noise_calib_stim_RIGHT.wav	2	18	blb_dichoticlistening_ga-ta.mp3	ga	ta	1	left
6.6.1	win	2023-06-02	06:18:26	06:28:30	602175	5d62886927a84f00010fbbb4	4	1	DL_practice	21	DL_practice	6	stimuli_target_diamondsquares.svg	stimuli_distractor_diamondtriangles.svg	24	yes	ta	1	1316	6	4	antiphase_hc_sio.wav	1	6	6	noise_calib_stim_RIGHT.wav	2	36	blb_dichoticlistening_ta-ta.mp3	ta	ta	0	left
6.6.1	win	2023-06-02	06:18:26	06:28:30	602175	5d62886927a84f00010fbbb4	4	1	DL_practice	21	DL_practice	7	stimuli_target_diamondsquares.svg	stimuli_distractor_diamondtriangles.svg	24	yes	pa	1	870	6	4	antiphase_hc_sio.wav	1	6	6	noise_calib_stim_RIGHT.wav	2	29	blb_dichoticlistening_pa-pa.mp3	pa	pa	0	left
6.6.1	win	2023-06-02	06:18:26	06:28:30	602175	5d62886927a84f00010fbbb4	4	1	DL_practice	21	DL_practice	8	stimuli_target_diamondsquares.svg	stimuli_distractor_diamondtriangles.svg	24	yes	ga	1	969	6	4	antiphase_hc_sio.wav	1	6	6	noise_calib_stim_RIGHT.wav	2	15	blb_dichoticlistening_ga-ga.mp3	ga	ga	0	left
6.6.1	win	2023-06-02	06:18:26	06:28:30	602175	5d62886927a84f00010fbbb4	4	1	DL_practice	21	DL_practice	9	stimuli_target_diamondsquares.svg	stimuli_distractor_diamondtriangles.svg	24	yes	da	1	954	6	4	antiphase_hc_sio.wav	1	6	6	noise_calib_stim_RIGHT.wav	2	8	blb_dichoticlistening_da-da.mp3	da	da	0	left
6.6.1	win	2023-06-02	06:18:26	06:28:30	602175	5d62886927a84f00010fbbb4	4	1	DL_practice	21	DL_practice	10	stimuli_target_diamondsquares.svg	stimuli_distractor_diamondtriangles.svg	24	yes	ba	1	1300	6	4	antiphase_hc_sio.wav	1	6	6	noise_calib_stim_RIGHT.wav	2	7	blb_dichoticlistening_da-ba.mp3	da	ba	1	right
6.6.1	win	2023-06-02	06:18:26	06:28:30	602175	5d62886927a84f00010fbbb4	4	1	DL_test	23	DL_test	1	stimuli_target_diamondsquares.svg	stimuli_distractor_diamondtriangles.svg	24	yes	ga	1	1062	6	4	antiphase_hc_sio.wav	1	6	6	noise_calib_stim_RIGHT.wav	2	21	blb_dichoticlistening_ka-ga.mp3	ka	ga	1	right
6.6.1	win	2023-06-02	06:18:26	06:28:30	602175	5d62886927a84f00010fbbb4	4	1	DL_test	23	DL_test	2	stimuli_target_diamondsquares.svg	stimuli_distractor_diamondtriangles.svg	24	yes	ka	1	1062	6	4	antiphase_hc_sio.wav	1	6	6	noise_calib_stim_RIGHT.wav	2	28	blb_dichoticlistening_pa-ka.mp3	pa	ka	1	right
6.6.1	win	2023-06-02	06:18:26	06:28:30	602175	5d62886927a84f00010fbbb4	4	1	DL_test	23	DL_test	3	stimuli_target_diamondsquares.svg	stimuli_distractor_diamondtriangles.svg	24	yes	da	1	1093	6	4	antiphase_hc_sio.wav	1	6	6	noise_calib_stim_RIGHT.wav	2	32	blb_dichoticlistening_ta-da.mp3	ta	da	1	right
6.6.1	win	2023-06-02	06:18:26	06:28:30	602175	5d62886927a84f00010fbbb4	4	1	DL_test	23	DL_test	4	stimuli_target_diamondsquares.svg	stimuli_distractor_diamondtriangles.svg	24	yes	ba	1	1114	6	4	antiphase_hc_sio.wav	1	6	6	noise_calib_stim_RIGHT.wav	2	31	blb_dichoticlistening_ta-ba.mp3	ta	ba	1	right
6.6.1	win	2023-06-02	06:18:26	06:28:30	602175	5d62886927a84f00010fbbb4	4	1	DL_test	23	DL_test	5	stimuli_target_diamondsquares.svg	stimuli_distractor_diamondtriangles.svg	24	yes	ka	1	991	6	4	antiphase_hc_sio.wav	1	6	6	noise_calib_stim_RIGHT.wav	2	34	blb_dichoticlistening_ta-ka.mp3	ta	ka	1	right
6.6.1	win	2023-06-02	06:18:26	06:28:30	602175	5d62886927a84f00010fbbb4	4	1	DL_test	23	DL_test	6	stimuli_target_diamondsquares.svg	stimuli_distractor_diamondtriangles.svg	24	yes	pa	1	1561	6	4	antiphase_hc_sio.wav	1	6	6	noise_calib_stim_RIGHT.wav	2	5	blb_dichoticlistening_ba-pa.mp3	ba	pa	1	right
6.6.1	win	2023-06-02	06:18:26	06:28:30	602175	5d62886927a84f00010fbbb4	4	1	DL_test	23	DL_test	7	stimuli_target_diamondsquares.svg	stimuli_distractor_diamondtriangles.svg	24	yes	ga	0	1113	6	4	antiphase_hc_sio.wav	1	6	6	noise_calib_stim_RIGHT.wav	2	20	blb_dichoticlistening_ka-da.mp3	ka	da	1	other
6.6.1	win	2023-06-02	06:18:26	06:28:30	602175	5d62886927a84f00010fbbb4	4	1	DL_test	23	DL_test	8	stimuli_target_diamondsquares.svg	stimuli_distractor_diamondtriangles.svg	24	yes	da	1	3087	6	4	antiphase_hc_sio.wav	1	6	6	noise_calib_stim_RIGHT.wav	2	7	blb_dichoticlistening_da-ba.mp3	da	ba	1	left
6.6.1	win	2023-06-02	06:18:26	06:28:30	602175	5d62886927a84f00010fbbb4	4	1	DL_test	23	DL_test	9	stimuli_target_diamondsquares.svg	stimuli_distractor_diamondtriangles.svg	24	yes	da	1	883	6	4	antiphase_hc_sio.wav	1	6	6	noise_calib_stim_RIGHT.wav	2	12	blb_dichoticlistening_da-ta.mp3	da	ta	1	left
6.6.1	win	2023-06-02	06:18:26	06:28:30	602175	5d62886927a84f00010fbbb4	4	1	DL_test	23	DL_test	10	stimuli_target_diamondsquares.svg	stimuli_distractor_diamondtriangles.svg	24	yes	ga	1	811	6	4	antiphase_hc_sio.wav	1	6	6	noise_calib_stim_RIGHT.wav	2	33	blb_dichoticlistening_ta-ga.mp3	ta	ga	1	right
6.6.1	win	2023-06-02	06:18:26	06:28:30	602175	5d62886927a84f00010fbbb4	4	1	DL_test	23	DL_test	11	stimuli_target_diamondsquares.svg	stimuli_distractor_diamondtriangles.svg	24	yes	ba	1	1165	6	4	antiphase_hc_sio.wav	1	6	6	noise_calib_stim_RIGHT.wav	2	13	blb_dichoticlistening_ga-ba.mp3	ga	ba	1	right
6.6.1	win	2023-06-02	06:18:26	06:28:30	602175	5d62886927a84f00010fbbb4	4	1	DL_test	23	DL_test	12	stimuli_target_diamondsquares.svg	stimuli_distractor_diamondtriangles.svg	24	yes	ka	1	1306	6	4	antiphase_hc_sio.wav	1	6	6	noise_calib_stim_RIGHT.wav	2	19	blb_dichoticlistening_ka-ba.mp3	ka	ba	1	left
6.6.1	win	2023-06-02	06:18:26	06:28:30	602175	5d62886927a84f00010fbbb4	4	1	DL_test	23	DL_test	13	stimuli_target_diamondsquares.svg	stimuli_distractor_diamondtriangles.svg	24	yes	ka	1	1021	6	4	antiphase_hc_sio.wav	1	6	6	noise_calib_stim_RIGHT.wav	2	4	blb_dichoticlistening_ba-ka.mp3	ba	ka	1	right
6.6.1	win	2023-06-02	06:18:26	06:28:30	602175	5d62886927a84f00010fbbb4	4	1	DL_test	23	DL_test	14	stimuli_target_diamondsquares.svg	stimuli_distractor_diamondtriangles.svg	24	yes	ga	1	1318	6	4	antiphase_hc_sio.wav	1	6	6	noise_calib_stim_RIGHT.wav	2	14	blb_dichoticlistening_ga-da.mp3	ga	da	1	left
6.6.1	win	2023-06-02	06:18:26	06:28:30	602175	5d62886927a84f00010fbbb4	4	1	DL_test	23	DL_test	15	stimuli_target_diamondsquares.svg	stimuli_distractor_diamondtriangles.svg	24	yes	ta	1	1146	6	4	antiphase_hc_sio.wav	1	6	6	noise_calib_stim_RIGHT.wav	2	36	blb_dichoticlistening_ta-ta.mp3	ta	ta	0	left
6.6.1	win	2023-06-02	06:18:26	06:28:30	602175	5d62886927a84f00010fbbb4	4	1	DL_test	23	DL_test	16	stimuli_target_diamondsquares.svg	stimuli_distractor_diamondtriangles.svg	24	yes	ka	0	2370	6	4	antiphase_hc_sio.wav	1	6	6	noise_calib_stim_RIGHT.wav	2	11	blb_dichoticlistening_da-pa.mp3	da	pa	1	other
6.6.1	win	2023-06-02	06:18:26	06:28:30	602175	5d62886927a84f00010fbbb4	4	1	DL_test	23	DL_test	17	stimuli_target_diamondsquares.svg	stimuli_distractor_diamondtriangles.svg	24	yes	ka	1	900	6	4	antiphase_hc_sio.wav	1	6	6	noise_calib_stim_RIGHT.wav	2	22	blb_dichoticlistening_ka-ka.mp3	ka	ka	0	left
6.6.1	win	2023-06-02	06:18:26	06:28:30	602175	5d62886927a84f00010fbbb4	4	1	DL_test	23	DL_test	18	stimuli_target_diamondsquares.svg	stimuli_distractor_diamondtriangles.svg	24	yes	ta	1	1544	6	4	antiphase_hc_sio.wav	1	6	6	noise_calib_stim_RIGHT.wav	2	35	blb_dichoticlistening_ta-pa.mp3	ta	pa	1	left
6.6.1	win	2023-06-02	06:18:26	06:28:30	602175	5d62886927a84f00010fbbb4	4	1	DL_test	23	DL_test	19	stimuli_target_diamondsquares.svg	stimuli_distractor_diamondtriangles.svg	24	yes	da	1	1060	6	4	antiphase_hc_sio.wav	1	6	6	noise_calib_stim_RIGHT.wav	2	8	blb_dichoticlistening_da-da.mp3	da	da	0	left
6.6.1	win	2023-06-02	06:18:26	06:28:30	602175	5d62886927a84f00010fbbb4	4	1	DL_test	23	DL_test	20	stimuli_target_diamondsquares.svg	stimuli_distractor_diamondtriangles.svg	24	yes	ka	0	2484	6	4	antiphase_hc_sio.wav	1	6	6	noise_calib_stim_RIGHT.wav	2	27	blb_dichoticlistening_pa-ga.mp3	pa	ga	1	other
6.6.1	win	2023-06-02	06:18:26	06:28:30	602175	5d62886927a84f00010fbbb4	4	1	DL_test	23	DL_test	21	stimuli_target_diamondsquares.svg	stimuli_distractor_diamondtriangles.svg	24	yes	ka	1	1511	6	4	antiphase_hc_sio.wav	1	6	6	noise_calib_stim_RIGHT.wav	2	10	blb_dichoticlistening_da-ka.mp3	da	ka	1	right
6.6.1	win	2023-06-02	06:18:26	06:28:30	602175	5d62886927a84f00010fbbb4	4	1	DL_test	23	DL_test	22	stimuli_target_diamondsquares.svg	stimuli_distractor_diamondtriangles.svg	24	yes	ga	1	1269	6	4	antiphase_hc_sio.wav	1	6	6	noise_calib_stim_RIGHT.wav	2	9	blb_dichoticlistening_da-ga.mp3	da	ga	1	right
6.6.1	win	2023-06-02	06:18:26	06:28:30	602175	5d62886927a84f00010fbbb4	4	1	DL_test	23	DL_test	23	stimuli_target_diamondsquares.svg	stimuli_distractor_diamondtriangles.svg	24	yes	ba	1	1123	6	4	antiphase_hc_sio.wav	1	6	6	noise_calib_stim_RIGHT.wav	2	2	blb_dichoticlistening_ba-da.mp3	ba	da	1	left
6.6.1	win	2023-06-02	06:18:26	06:28:30	602175	5d62886927a84f00010fbbb4	4	1	DL_test	23	DL_test	24	stimuli_target_diamondsquares.svg	stimuli_distractor_diamondtriangles.svg	24	yes	ta	1	1472	6	4	antiphase_hc_sio.wav	1	6	6	noise_calib_stim_RIGHT.wav	2	30	blb_dichoticlistening_pa-ta.mp3	pa	ta	1	right
6.6.1	win	2023-06-02	06:18:26	06:28:30	602175	5d62886927a84f00010fbbb4	4	1	DL_test	23	DL_test	25	stimuli_target_diamondsquares.svg	stimuli_distractor_diamondtriangles.svg	24	yes	ba	1	1945	6	4	antiphase_hc_sio.wav	1	6	6	noise_calib_stim_RIGHT.wav	2	1	blb_dichoticlistening_ba-ba.mp3	ba	ba	0	left
6.6.1	win	2023-06-02	06:18:26	06:28:30	602175	5d62886927a84f00010fbbb4	4	1	DL_test	23	DL_test	26	stimuli_target_diamondsquares.svg	stimuli_distractor_diamondtriangles.svg	24	yes	ba	1	3061	6	4	antiphase_hc_sio.wav	1	6	6	noise_calib_stim_RIGHT.wav	2	3	blb_dichoticlistening_ba-ga.mp3	ba	ga	1	left
