build	computer.platform	date	time	timestamp	time_elapsed_ms	subject	group	session	blockcode	blocknum	trialcode	trialnum	stimulus_left	stimulus_right	stim_index	target_present	response	correct	latency	headphonecheck_countTestTrials	headphonecheck_index	headphonecheck_testSound	headphonecheck_correctResponse	stereocheck_countTestTrials	stereocheck_index	stereocheck_testSound	stereocheck_correctResponse	DL_index	DL_soundfile	DL_leftSound	DL_rightSound	DL_dualSound	DL_choice
6.6.1	mac	2023-06-27	08:56:46	09:00:50	241229	5efb49177e130c0785b93842	3	1	practice_slash	5	practice_slash	1	stimuli_distractor_diamondtriangles.svg	stimuli_distractor_diamondtriangles.svg	13	no	0	1	2000	0	0			0	0			1				0	
6.6.1	mac	2023-06-27	08:56:46	09:00:50	241229	5efb49177e130c0785b93842	3	1	practice_slash	5	advance_on_keypress_SLASH	2	stimuli_distractor_diamondtriangles.svg	stimuli_distractor_diamondtriangles.svg	13	no	57	0	1458	0	0			0	0			1				0	
6.6.1	mac	2023-06-27	08:56:46	09:00:55	245935	5efb49177e130c0785b93842	3	1	practice_slash	5	practice_slash	3	stimuli_distractor_diamondtriangles.svg	stimuli_distractor_trianglediamonds.svg	14	no	53	0	1612	0	0			0	0			1				0	
6.6.1	mac	2023-06-27	08:56:46	09:00:55	245935	5efb49177e130c0785b93842	3	1	practice_slash	5	advance_on_keypress_SLASH	4	stimuli_distractor_diamondtriangles.svg	stimuli_distractor_trianglediamonds.svg	14	no	57	0	1047	0	0			0	0			1				0	
6.6.1	mac	2023-06-27	08:56:46	09:00:59	250619	5efb49177e130c0785b93842	3	1	practice_slash	5	practice_slash	5	stimuli_distractor_trianglediamonds.svg	stimuli_distractor_trianglediamonds.svg	15	no	0	1	2000	0	0			0	0			1				0	
6.6.1	mac	2023-06-27	08:56:46	09:00:59	250619	5efb49177e130c0785b93842	3	1	practice_slash	5	advance_on_keypress_SLASH	6	stimuli_distractor_trianglediamonds.svg	stimuli_distractor_trianglediamonds.svg	15	no	57	0	1134	0	0			0	0			1				0	
6.6.1	mac	2023-06-27	08:56:46	09:01:03	253994	5efb49177e130c0785b93842	3	1	practice_slash	5	practice_slash	7	stimuli_distractor_trianglediamonds.svg	stimuli_target_rectanglediamonds.svg	10	yes	53	1	587	0	0			0	0			1				0	
6.6.1	mac	2023-06-27	08:56:46	09:01:03	253994	5efb49177e130c0785b93842	3	1	practice_slash	5	advance_on_keypress_SLASH	8	stimuli_distractor_trianglediamonds.svg	stimuli_target_rectanglediamonds.svg	10	yes	57	0	605	0	0			0	0			1				0	
6.6.1	mac	2023-06-27	08:56:46	09:01:07	258259	5efb49177e130c0785b93842	3	1	practice_slash	5	practice_slash	9	stimuli_target_diamondsquares.svg	stimuli_distractor_trianglediamonds.svg	6	yes	0	0	2000	0	0			0	0			1				0	
6.6.1	mac	2023-06-27	08:56:46	09:01:07	258259	5efb49177e130c0785b93842	3	1	practice_slash	5	advance_on_keypress_SLASH	10	stimuli_target_diamondsquares.svg	stimuli_distractor_trianglediamonds.svg	6	yes	57	0	322	0	0			0	0			1				0	
6.6.1	mac	2023-06-27	08:56:46	09:01:10	261225	5efb49177e130c0785b93842	3	1	practice_slash	5	practice_slash	11	stimuli_distractor_diamondtriangles.svg	stimuli_target_diamondrectangles.svg	8	yes	53	1	1007	0	0			0	0			1				0	
6.6.1	mac	2023-06-27	08:56:46	09:01:10	261225	5efb49177e130c0785b93842	3	1	practice_slash	5	advance_on_keypress_SLASH	12	stimuli_distractor_diamondtriangles.svg	stimuli_target_diamondrectangles.svg	8	yes	57	0	440	0	0			0	0			1				0	
6.6.1	mac	2023-06-27	08:56:46	09:01:13	264499	5efb49177e130c0785b93842	3	1	practice_slash	5	practice_slash	13	stimuli_target_rectanglediamonds.svg	stimuli_distractor_diamondtriangles.svg	1	yes	53	1	1194	0	0			0	0			1				0	
6.6.1	mac	2023-06-27	08:56:46	09:01:13	264499	5efb49177e130c0785b93842	3	1	practice_slash	5	advance_on_keypress_SLASH	14	stimuli_target_rectanglediamonds.svg	stimuli_distractor_diamondtriangles.svg	1	yes	57	0	372	0	0			0	0			1				0	
6.6.1	mac	2023-06-27	08:56:46	09:01:16	267553	5efb49177e130c0785b93842	3	1	practice_slash	5	practice_slash	15	stimuli_target_squarediamonds.svg	stimuli_distractor_diamondtriangles.svg	2	yes	53	1	1037	0	0			0	0			1				0	
6.6.1	mac	2023-06-27	08:56:46	09:01:16	267553	5efb49177e130c0785b93842	3	1	practice_slash	5	advance_on_keypress_SLASH	16	stimuli_target_squarediamonds.svg	stimuli_distractor_diamondtriangles.svg	2	yes	57	0	391	0	0			0	0			1				0	
6.6.1	mac	2023-06-27	08:56:46	09:01:19	270556	5efb49177e130c0785b93842	3	1	practice_slash	5	practice_slash	17	stimuli_distractor_diamondtriangles.svg	stimuli_target_rectangletriangles.svg	7	yes	53	1	971	0	0			0	0			1				0	
6.6.1	mac	2023-06-27	08:56:46	09:01:19	270556	5efb49177e130c0785b93842	3	1	practice_slash	5	advance_on_keypress_SLASH	18	stimuli_distractor_diamondtriangles.svg	stimuli_target_rectangletriangles.svg	7	yes	57	0	493	0	0			0	0			1				0	
6.6.1	mac	2023-06-27	08:56:46	09:01:23	274677	5efb49177e130c0785b93842	3	1	practice_slash	5	practice_slash	19	stimuli_distractor_trianglediamonds.svg	stimuli_distractor_diamondtriangles.svg	16	no	0	1	2000	0	0			0	0			1				0	
6.6.1	mac	2023-06-27	08:56:46	09:01:23	274677	5efb49177e130c0785b93842	3	1	practice_slash	5	advance_on_keypress_SLASH	20	stimuli_distractor_trianglediamonds.svg	stimuli_distractor_diamondtriangles.svg	16	no	57	0	507	0	0			0	0			1				0	
6.6.1	mac	2023-06-27	08:56:46	09:01:27	278493	5efb49177e130c0785b93842	3	1	practice_slash	5	practice_slash	21	stimuli_distractor_trianglediamonds.svg	stimuli_target_diamondrectangles.svg	12	yes	53	1	1657	0	0			0	0			1				0	
6.6.1	mac	2023-06-27	08:56:46	09:01:27	278493	5efb49177e130c0785b93842	3	1	practice_slash	5	advance_on_keypress_SLASH	22	stimuli_distractor_trianglediamonds.svg	stimuli_target_diamondrectangles.svg	12	yes	57	0	593	0	0			0	0			1				0	
6.6.1	mac	2023-06-27	08:56:46	09:01:30	281690	5efb49177e130c0785b93842	3	1	practice_slash	5	practice_slash	23	stimuli_distractor_trianglediamonds.svg	stimuli_target_squarediamonds.svg	11	yes	53	1	961	0	0			0	0			1				0	
6.6.1	mac	2023-06-27	08:56:46	09:01:30	281690	5efb49177e130c0785b93842	3	1	practice_slash	5	advance_on_keypress_SLASH	24	stimuli_distractor_trianglediamonds.svg	stimuli_target_squarediamonds.svg	11	yes	57	0	528	0	0			0	0			1				0	
6.6.1	mac	2023-06-27	08:56:46	09:01:33	284757	5efb49177e130c0785b93842	3	1	practice_slash	5	practice_slash	25	stimuli_target_rectanglediamonds.svg	stimuli_distractor_trianglediamonds.svg	4	yes	53	1	890	0	0			0	0			1				0	
6.6.1	mac	2023-06-27	08:56:46	09:01:33	284757	5efb49177e130c0785b93842	3	1	practice_slash	5	advance_on_keypress_SLASH	26	stimuli_target_rectanglediamonds.svg	stimuli_distractor_trianglediamonds.svg	4	yes	57	0	437	0	0			0	0			1				0	
6.6.1	mac	2023-06-27	08:56:46	09:01:37	287989	5efb49177e130c0785b93842	3	1	practice_slash	5	practice_slash	27	stimuli_target_diamondsquares.svg	stimuli_distractor_diamondtriangles.svg	3	yes	53	1	1165	0	0			0	0			1				0	
6.6.1	mac	2023-06-27	08:56:46	09:01:37	287989	5efb49177e130c0785b93842	3	1	practice_slash	5	advance_on_keypress_SLASH	28	stimuli_target_diamondsquares.svg	stimuli_distractor_diamondtriangles.svg	3	yes	57	0	429	0	0			0	0			1				0	
6.6.1	mac	2023-06-27	08:56:46	09:01:40	291206	5efb49177e130c0785b93842	3	1	practice_slash	5	practice_slash	29	stimuli_distractor_diamondtriangles.svg	stimuli_target_trianglerectangles.svg	9	yes	53	1	1140	0	0			0	0			1				0	
6.6.1	mac	2023-06-27	08:56:46	09:01:40	291206	5efb49177e130c0785b93842	3	1	practice_slash	5	advance_on_keypress_SLASH	30	stimuli_distractor_diamondtriangles.svg	stimuli_target_trianglerectangles.svg	9	yes	57	0	1474	0	0			0	0			1				0	
6.6.1	mac	2023-06-27	08:56:46	09:01:44	295306	5efb49177e130c0785b93842	3	1	practice_slash	5	practice_slash	31	stimuli_target_squarediamonds.svg	stimuli_distractor_trianglediamonds.svg	5	yes	53	1	992	0	0			0	0			1				0	
6.6.1	mac	2023-06-27	08:56:46	09:01:44	295306	5efb49177e130c0785b93842	3	1	practice_slash	5	advance_on_keypress_SLASH	32	stimuli_target_squarediamonds.svg	stimuli_distractor_trianglediamonds.svg	5	yes	57	0	354	0	0			0	0			1				0	
6.6.1	mac	2023-06-27	08:56:46	09:01:55	306832	5efb49177e130c0785b93842	3	1	main_slash	7	main_slash	1	stimuli_distractor_diamondtriangles.svg	stimuli_distractor_trianglediamonds.svg	37	no	53	0	1243	0	0			0	0			1				0	
6.6.1	mac	2023-06-27	08:56:46	09:01:55	306832	5efb49177e130c0785b93842	3	1	main_slash	7	advance_on_keypress_SLASH	2	stimuli_distractor_diamondtriangles.svg	stimuli_distractor_trianglediamonds.svg	37	no	57	0	687	0	0			0	0			1				0	
6.6.1	mac	2023-06-27	08:56:46	09:01:59	310159	5efb49177e130c0785b93842	3	1	main_slash	7	main_slash	3	stimuli_target_trianglerectangles.svg	stimuli_distractor_trianglediamonds.svg	17	yes	0	0	2000	0	0			0	0			1				0	
6.6.1	mac	2023-06-27	08:56:46	09:01:59	310159	5efb49177e130c0785b93842	3	1	main_slash	7	advance_on_keypress_SLASH	4	stimuli_target_trianglerectangles.svg	stimuli_distractor_trianglediamonds.svg	17	yes	57	0	1753	0	0			0	0			1				0	
6.6.1	mac	2023-06-27	08:56:46	09:02:02	313505	5efb49177e130c0785b93842	3	1	main_slash	7	main_slash	5	stimuli_distractor_trianglediamonds.svg	stimuli_target_squaretriangles.svg	11	yes	53	1	945	0	0			0	0			1				0	
6.6.1	mac	2023-06-27	08:56:46	09:02:02	313505	5efb49177e130c0785b93842	3	1	main_slash	7	advance_on_keypress_SLASH	6	stimuli_distractor_trianglediamonds.svg	stimuli_target_squaretriangles.svg	11	yes	57	0	1091	0	0			0	0			1				0	
6.6.1	mac	2023-06-27	08:56:46	09:02:05	316278	5efb49177e130c0785b93842	3	1	main_slash	7	main_slash	7	stimuli_target_rectangletriangles.svg	stimuli_distractor_diamondtriangles.svg	5	yes	53	1	1038	0	0			0	0			1				0	
6.6.1	mac	2023-06-27	08:56:46	09:02:05	316278	5efb49177e130c0785b93842	3	1	main_slash	7	advance_on_keypress_SLASH	8	stimuli_target_rectangletriangles.svg	stimuli_distractor_diamondtriangles.svg	5	yes	57	0	356	0	0			0	0			1				0	
6.6.1	mac	2023-06-27	08:56:46	09:02:08	319267	5efb49177e130c0785b93842	3	1	main_slash	7	main_slash	9	stimuli_distractor_diamondtriangles.svg	stimuli_distractor_diamondtriangles.svg	39	no	0	1	2000	0	0			0	0			1				0	
6.6.1	mac	2023-06-27	08:56:46	09:02:08	319267	5efb49177e130c0785b93842	3	1	main_slash	7	advance_on_keypress_SLASH	10	stimuli_distractor_diamondtriangles.svg	stimuli_distractor_diamondtriangles.svg	39	no	57	0	450	0	0			0	0			1				0	
6.6.1	mac	2023-06-27	08:56:46	09:02:10	321530	5efb49177e130c0785b93842	3	1	main_slash	7	main_slash	11	stimuli_target_squarediamonds.svg	stimuli_distractor_diamondtriangles.svg	8	yes	53	1	1171	0	0			0	0			1				0	
6.6.1	mac	2023-06-27	08:56:46	09:02:10	321530	5efb49177e130c0785b93842	3	1	main_slash	7	advance_on_keypress_SLASH	12	stimuli_target_squarediamonds.svg	stimuli_distractor_diamondtriangles.svg	8	yes	57	0	864	0	0			0	0			1				0	
6.6.1	mac	2023-06-27	08:56:46	09:02:13	324090	5efb49177e130c0785b93842	3	1	main_slash	7	main_slash	13	stimuli_target_diamondrectangles.svg	stimuli_distractor_trianglediamonds.svg	19	yes	53	1	1068	0	0			0	0			1				0	
6.6.1	mac	2023-06-27	08:56:46	09:02:13	324090	5efb49177e130c0785b93842	3	1	main_slash	7	advance_on_keypress_SLASH	14	stimuli_target_diamondrectangles.svg	stimuli_distractor_trianglediamonds.svg	19	yes	57	0	1013	0	0			0	0			1				0	
6.6.1	mac	2023-06-27	08:56:46	09:02:16	327199	5efb49177e130c0785b93842	3	1	main_slash	7	main_slash	15	stimuli_distractor_trianglediamonds.svg	stimuli_target_trianglerectangles.svg	25	yes	53	1	1462	0	0			0	0			1				0	
6.6.1	mac	2023-06-27	08:56:46	09:02:16	327199	5efb49177e130c0785b93842	3	1	main_slash	7	advance_on_keypress_SLASH	16	stimuli_distractor_trianglediamonds.svg	stimuli_target_trianglerectangles.svg	25	yes	57	0	520	0	0			0	0			1				0	
6.6.1	mac	2023-06-27	08:56:46	09:02:18	329777	5efb49177e130c0785b93842	3	1	main_slash	7	main_slash	17	stimuli_target_squarediamonds.svg	stimuli_distractor_trianglediamonds.svg	4	yes	53	1	1429	0	0			0	0			1				0	
6.6.1	mac	2023-06-27	08:56:46	09:02:18	329777	5efb49177e130c0785b93842	3	1	main_slash	7	advance_on_keypress_SLASH	18	stimuli_target_squarediamonds.svg	stimuli_distractor_trianglediamonds.svg	4	yes	57	0	756	0	0			0	0			1				0	
6.6.1	mac	2023-06-27	08:56:46	09:02:22	333168	5efb49177e130c0785b93842	3	1	main_slash	7	main_slash	19	stimuli_target_trianglesquares.svg	stimuli_distractor_diamondtriangles.svg	22	yes	0	0	2000	0	0			0	0			1				0	
6.6.1	mac	2023-06-27	08:56:46	09:02:22	333168	5efb49177e130c0785b93842	3	1	main_slash	7	advance_on_keypress_SLASH	20	stimuli_target_trianglesquares.svg	stimuli_distractor_diamondtriangles.svg	22	yes	57	0	405	0	0			0	0			1				0	
6.6.1	mac	2023-06-27	08:56:46	09:02:24	335271	5efb49177e130c0785b93842	3	1	main_slash	7	main_slash	21	stimuli_target_rectangletriangles.svg	stimuli_distractor_trianglediamonds.svg	1	yes	53	1	1051	0	0			0	0			1				0	
6.6.1	mac	2023-06-27	08:56:46	09:02:24	335271	5efb49177e130c0785b93842	3	1	main_slash	7	advance_on_keypress_SLASH	22	stimuli_target_rectangletriangles.svg	stimuli_distractor_trianglediamonds.svg	1	yes	57	0	619	0	0			0	0			1				0	
6.6.1	mac	2023-06-27	08:56:46	09:02:27	338529	5efb49177e130c0785b93842	3	1	main_slash	7	main_slash	23	stimuli_distractor_trianglediamonds.svg	stimuli_distractor_diamondtriangles.svg	36	no	0	1	2000	0	0			0	0			1				0	
6.6.1	mac	2023-06-27	08:56:46	09:02:27	338529	5efb49177e130c0785b93842	3	1	main_slash	7	advance_on_keypress_SLASH	24	stimuli_distractor_trianglediamonds.svg	stimuli_distractor_diamondtriangles.svg	36	no	57	0	559	0	0			0	0			1				0	
6.6.1	mac	2023-06-27	08:56:46	09:02:29	340689	5efb49177e130c0785b93842	3	1	main_slash	7	main_slash	25	stimuli_distractor_diamondtriangles.svg	stimuli_target_squarediamonds.svg	16	yes	53	1	974	0	0			0	0			1				0	
6.6.1	mac	2023-06-27	08:56:46	09:02:29	340689	5efb49177e130c0785b93842	3	1	main_slash	7	advance_on_keypress_SLASH	26	stimuli_distractor_diamondtriangles.svg	stimuli_target_squarediamonds.svg	16	yes	57	0	605	0	0			0	0			1				0	
6.6.1	mac	2023-06-27	08:56:46	09:02:32	343072	5efb49177e130c0785b93842	3	1	main_slash	7	main_slash	27	stimuli_distractor_trianglediamonds.svg	stimuli_target_diamondsquares.svg	28	yes	53	1	1133	0	0			0	0			1				0	
6.6.1	mac	2023-06-27	08:56:46	09:02:32	343072	5efb49177e130c0785b93842	3	1	main_slash	7	advance_on_keypress_SLASH	28	stimuli_distractor_trianglediamonds.svg	stimuli_target_diamondsquares.svg	28	yes	57	0	639	0	0			0	0			1				0	
6.6.1	mac	2023-06-27	08:56:46	09:02:34	345266	5efb49177e130c0785b93842	3	1	main_slash	7	main_slash	29	stimuli_distractor_diamondtriangles.svg	stimuli_target_diamondrectangles.svg	31	yes	53	1	929	0	0			0	0			1				0	
6.6.1	mac	2023-06-27	08:56:46	09:02:34	345266	5efb49177e130c0785b93842	3	1	main_slash	7	advance_on_keypress_SLASH	30	stimuli_distractor_diamondtriangles.svg	stimuli_target_diamondrectangles.svg	31	yes	57	0	572	0	0			0	0			1				0	
6.6.1	mac	2023-06-27	08:56:46	09:02:37	348481	5efb49177e130c0785b93842	3	1	main_slash	7	main_slash	31	stimuli_distractor_trianglediamonds.svg	stimuli_distractor_trianglediamonds.svg	34	no	0	1	2000	0	0			0	0			1				0	
6.6.1	mac	2023-06-27	08:56:46	09:02:37	348481	5efb49177e130c0785b93842	3	1	main_slash	7	advance_on_keypress_SLASH	32	stimuli_distractor_trianglediamonds.svg	stimuli_distractor_trianglediamonds.svg	34	no	57	0	660	0	0			0	0			1				0	
6.6.1	mac	2023-06-27	08:56:46	09:02:40	351782	5efb49177e130c0785b93842	3	1	main_slash	7	main_slash	33	stimuli_distractor_diamondtriangles.svg	stimuli_distractor_trianglediamonds.svg	38	no	0	1	2000	0	0			0	0			1				0	
6.6.1	mac	2023-06-27	08:56:46	09:02:40	351782	5efb49177e130c0785b93842	3	1	main_slash	7	advance_on_keypress_SLASH	34	stimuli_distractor_diamondtriangles.svg	stimuli_distractor_trianglediamonds.svg	38	no	57	0	626	0	0			0	0			1				0	
6.6.1	mac	2023-06-27	08:56:46	09:02:43	353913	5efb49177e130c0785b93842	3	1	main_slash	7	main_slash	35	stimuli_target_squaretriangles.svg	stimuli_distractor_diamondtriangles.svg	7	yes	53	1	877	0	0			0	0			1				0	
6.6.1	mac	2023-06-27	08:56:46	09:02:43	353913	5efb49177e130c0785b93842	3	1	main_slash	7	advance_on_keypress_SLASH	36	stimuli_target_squaretriangles.svg	stimuli_distractor_diamondtriangles.svg	7	yes	57	0	515	0	0			0	0			1				0	
6.6.1	mac	2023-06-27	08:56:46	09:02:46	357065	5efb49177e130c0785b93842	3	1	main_slash	7	main_slash	37	stimuli_distractor_diamondtriangles.svg	stimuli_distractor_diamondtriangles.svg	40	no	0	1	2000	0	0			0	0			1				0	
6.6.1	mac	2023-06-27	08:56:46	09:02:46	357065	5efb49177e130c0785b93842	3	1	main_slash	7	advance_on_keypress_SLASH	38	stimuli_distractor_diamondtriangles.svg	stimuli_distractor_diamondtriangles.svg	40	no	57	0	579	0	0			0	0			1				0	
6.6.1	mac	2023-06-27	08:56:46	09:02:48	359137	5efb49177e130c0785b93842	3	1	main_slash	7	main_slash	39	stimuli_target_squaretriangles.svg	stimuli_distractor_trianglediamonds.svg	3	yes	53	1	864	0	0			0	0			1				0	
6.6.1	mac	2023-06-27	08:56:46	09:02:48	359137	5efb49177e130c0785b93842	3	1	main_slash	7	advance_on_keypress_SLASH	40	stimuli_target_squaretriangles.svg	stimuli_distractor_trianglediamonds.svg	3	yes	57	0	370	0	0			0	0			1				0	
6.6.1	mac	2023-06-27	08:56:46	09:02:50	361045	5efb49177e130c0785b93842	3	1	main_slash	7	main_slash	41	stimuli_target_diamondsquares.svg	stimuli_distractor_diamondtriangles.svg	24	yes	53	1	897	0	0			0	0			1				0	
6.6.1	mac	2023-06-27	08:56:46	09:02:50	361045	5efb49177e130c0785b93842	3	1	main_slash	7	advance_on_keypress_SLASH	42	stimuli_target_diamondsquares.svg	stimuli_distractor_diamondtriangles.svg	24	yes	57	0	481	0	0			0	0			1				0	
6.6.1	mac	2023-06-27	08:56:46	09:02:52	363067	5efb49177e130c0785b93842	3	1	main_slash	7	main_slash	43	stimuli_target_diamondrectangles.svg	stimuli_distractor_diamondtriangles.svg	23	yes	53	1	907	0	0			0	0			1				0	
6.6.1	mac	2023-06-27	08:56:46	09:02:52	363067	5efb49177e130c0785b93842	3	1	main_slash	7	advance_on_keypress_SLASH	44	stimuli_target_diamondrectangles.svg	stimuli_distractor_diamondtriangles.svg	23	yes	57	0	253	0	0			0	0			1				0	
6.6.1	mac	2023-06-27	08:56:46	09:02:54	365044	5efb49177e130c0785b93842	3	1	main_slash	7	main_slash	45	stimuli_target_diamondsquares.svg	stimuli_distractor_trianglediamonds.svg	20	yes	53	1	1091	0	0			0	0			1				0	
6.6.1	mac	2023-06-27	08:56:46	09:02:54	365044	5efb49177e130c0785b93842	3	1	main_slash	7	advance_on_keypress_SLASH	46	stimuli_target_diamondsquares.svg	stimuli_distractor_trianglediamonds.svg	20	yes	57	0	267	0	0			0	0			1				0	
6.6.1	mac	2023-06-27	08:56:46	09:02:56	367131	5efb49177e130c0785b93842	3	1	main_slash	7	main_slash	47	stimuli_target_trianglerectangles.svg	stimuli_distractor_diamondtriangles.svg	21	yes	53	1	1187	0	0			0	0			1				0	
6.6.1	mac	2023-06-27	08:56:46	09:02:56	367131	5efb49177e130c0785b93842	3	1	main_slash	7	advance_on_keypress_SLASH	48	stimuli_target_trianglerectangles.svg	stimuli_distractor_diamondtriangles.svg	21	yes	57	0	248	0	0			0	0			1				0	
6.6.1	mac	2023-06-27	08:56:46	09:02:59	370008	5efb49177e130c0785b93842	3	1	main_slash	7	main_slash	49	stimuli_target_rectanglediamonds.svg	stimuli_distractor_diamondtriangles.svg	6	yes	0	0	2000	0	0			0	0			1				0	
6.6.1	mac	2023-06-27	08:56:46	09:02:59	370008	5efb49177e130c0785b93842	3	1	main_slash	7	advance_on_keypress_SLASH	50	stimuli_target_rectanglediamonds.svg	stimuli_distractor_diamondtriangles.svg	6	yes	57	0	504	0	0			0	0			1				0	
6.6.1	mac	2023-06-27	08:56:46	09:03:01	372092	5efb49177e130c0785b93842	3	1	main_slash	7	main_slash	51	stimuli_distractor_trianglediamonds.svg	stimuli_target_rectanglediamonds.svg	10	yes	53	1	938	0	0			0	0			1				0	
6.6.1	mac	2023-06-27	08:56:46	09:03:01	372092	5efb49177e130c0785b93842	3	1	main_slash	7	advance_on_keypress_SLASH	52	stimuli_distractor_trianglediamonds.svg	stimuli_target_rectanglediamonds.svg	10	yes	57	0	267	0	0			0	0			1				0	
6.6.1	mac	2023-06-27	08:56:46	09:03:03	373928	5efb49177e130c0785b93842	3	1	main_slash	7	main_slash	53	stimuli_distractor_trianglediamonds.svg	stimuli_target_squarediamonds.svg	12	yes	53	1	928	0	0			0	0			1				0	
6.6.1	mac	2023-06-27	08:56:46	09:03:03	373928	5efb49177e130c0785b93842	3	1	main_slash	7	advance_on_keypress_SLASH	54	stimuli_distractor_trianglediamonds.svg	stimuli_target_squarediamonds.svg	12	yes	57	0	243	0	0			0	0			1				0	
6.6.1	mac	2023-06-27	08:56:46	09:03:04	375864	5efb49177e130c0785b93842	3	1	main_slash	7	main_slash	55	stimuli_distractor_trianglediamonds.svg	stimuli_target_trianglesquares.svg	26	yes	53	1	1051	0	0			0	0			1				0	
6.6.1	mac	2023-06-27	08:56:46	09:03:04	375864	5efb49177e130c0785b93842	3	1	main_slash	7	advance_on_keypress_SLASH	56	stimuli_distractor_trianglediamonds.svg	stimuli_target_trianglesquares.svg	26	yes	57	0	302	0	0			0	0			1				0	
6.6.1	mac	2023-06-27	08:56:46	09:03:07	378803	5efb49177e130c0785b93842	3	1	main_slash	7	main_slash	57	stimuli_distractor_trianglediamonds.svg	stimuli_distractor_diamondtriangles.svg	35	no	0	1	2000	0	0			0	0			1				0	
6.6.1	mac	2023-06-27	08:56:46	09:03:07	378803	5efb49177e130c0785b93842	3	1	main_slash	7	advance_on_keypress_SLASH	58	stimuli_distractor_trianglediamonds.svg	stimuli_distractor_diamondtriangles.svg	35	no	57	0	624	0	0			0	0			1				0	
6.6.1	mac	2023-06-27	08:56:46	09:03:10	380921	5efb49177e130c0785b93842	3	1	main_slash	7	main_slash	59	stimuli_distractor_diamondtriangles.svg	stimuli_target_trianglerectangles.svg	29	yes	53	1	861	0	0			0	0			1				0	
6.6.1	mac	2023-06-27	08:56:46	09:03:10	380921	5efb49177e130c0785b93842	3	1	main_slash	7	advance_on_keypress_SLASH	60	stimuli_distractor_diamondtriangles.svg	stimuli_target_trianglerectangles.svg	29	yes	57	0	234	0	0			0	0			1				0	
6.6.1	mac	2023-06-27	08:56:46	09:03:12	383781	5efb49177e130c0785b93842	3	1	main_slash	7	main_slash	61	stimuli_distractor_diamondtriangles.svg	stimuli_target_rectangletriangles.svg	13	yes	0	0	2000	0	0			0	0			1				0	
6.6.1	mac	2023-06-27	08:56:46	09:03:12	383781	5efb49177e130c0785b93842	3	1	main_slash	7	advance_on_keypress_SLASH	62	stimuli_distractor_diamondtriangles.svg	stimuli_target_rectangletriangles.svg	13	yes	57	0	516	0	0			0	0			1				0	
6.6.1	mac	2023-06-27	08:56:46	09:03:16	386941	5efb49177e130c0785b93842	3	1	main_slash	7	main_slash	63	stimuli_distractor_diamondtriangles.svg	stimuli_target_diamondsquares.svg	32	yes	0	0	2000	0	0			0	0			1				0	
6.6.1	mac	2023-06-27	08:56:46	09:03:16	386941	5efb49177e130c0785b93842	3	1	main_slash	7	advance_on_keypress_SLASH	64	stimuli_distractor_diamondtriangles.svg	stimuli_target_diamondsquares.svg	32	yes	57	0	495	0	0			0	0			1				0	
6.6.1	mac	2023-06-27	08:56:46	09:03:17	388728	5efb49177e130c0785b93842	3	1	main_slash	7	main_slash	65	stimuli_distractor_diamondtriangles.svg	stimuli_target_squaretriangles.svg	15	yes	53	1	647	0	0			0	0			1				0	
6.6.1	mac	2023-06-27	08:56:46	09:03:17	388728	5efb49177e130c0785b93842	3	1	main_slash	7	advance_on_keypress_SLASH	66	stimuli_distractor_diamondtriangles.svg	stimuli_target_squaretriangles.svg	15	yes	57	0	251	0	0			0	0			1				0	
6.6.1	mac	2023-06-27	08:56:46	09:03:19	390663	5efb49177e130c0785b93842	3	1	main_slash	7	main_slash	67	stimuli_target_trianglesquares.svg	stimuli_distractor_trianglediamonds.svg	18	yes	53	1	1036	0	0			0	0			1				0	
6.6.1	mac	2023-06-27	08:56:46	09:03:19	390663	5efb49177e130c0785b93842	3	1	main_slash	7	advance_on_keypress_SLASH	68	stimuli_target_trianglesquares.svg	stimuli_distractor_trianglediamonds.svg	18	yes	57	0	268	0	0			0	0			1				0	
6.6.1	mac	2023-06-27	08:56:46	09:03:21	392500	5efb49177e130c0785b93842	3	1	main_slash	7	main_slash	69	stimuli_distractor_diamondtriangles.svg	stimuli_target_trianglesquares.svg	30	yes	53	1	915	0	0			0	0			1				0	
6.6.1	mac	2023-06-27	08:56:46	09:03:21	392500	5efb49177e130c0785b93842	3	1	main_slash	7	advance_on_keypress_SLASH	70	stimuli_distractor_diamondtriangles.svg	stimuli_target_trianglesquares.svg	30	yes	57	0	226	0	0			0	0			1				0	
6.6.1	mac	2023-06-27	08:56:46	09:03:24	395353	5efb49177e130c0785b93842	3	1	main_slash	7	main_slash	71	stimuli_distractor_trianglediamonds.svg	stimuli_target_rectangletriangles.svg	9	yes	0	0	2000	0	0			0	0			1				0	
6.6.1	mac	2023-06-27	08:56:46	09:03:24	395353	5efb49177e130c0785b93842	3	1	main_slash	7	advance_on_keypress_SLASH	72	stimuli_distractor_trianglediamonds.svg	stimuli_target_rectangletriangles.svg	9	yes	57	0	569	0	0			0	0			1				0	
6.6.1	mac	2023-06-27	08:56:46	09:03:26	397386	5efb49177e130c0785b93842	3	1	main_slash	7	main_slash	73	stimuli_distractor_trianglediamonds.svg	stimuli_target_diamondrectangles.svg	27	yes	53	1	814	0	0			0	0			1				0	
6.6.1	mac	2023-06-27	08:56:46	09:03:26	397386	5efb49177e130c0785b93842	3	1	main_slash	7	advance_on_keypress_SLASH	74	stimuli_distractor_trianglediamonds.svg	stimuli_target_diamondrectangles.svg	27	yes	57	0	255	0	0			0	0			1				0	
6.6.1	mac	2023-06-27	08:56:46	09:03:29	400279	5efb49177e130c0785b93842	3	1	main_slash	7	main_slash	75	stimuli_target_rectanglediamonds.svg	stimuli_distractor_trianglediamonds.svg	2	yes	0	0	2000	0	0			0	0			1				0	
6.6.1	mac	2023-06-27	08:56:46	09:03:29	400279	5efb49177e130c0785b93842	3	1	main_slash	7	advance_on_keypress_SLASH	76	stimuli_target_rectanglediamonds.svg	stimuli_distractor_trianglediamonds.svg	2	yes	57	0	432	0	0			0	0			1				0	
6.6.1	mac	2023-06-27	08:56:46	09:03:32	403346	5efb49177e130c0785b93842	3	1	main_slash	7	main_slash	77	stimuli_distractor_diamondtriangles.svg	stimuli_target_rectanglediamonds.svg	14	yes	0	0	2000	0	0			0	0			1				0	
6.6.1	mac	2023-06-27	08:56:46	09:03:32	403346	5efb49177e130c0785b93842	3	1	main_slash	7	advance_on_keypress_SLASH	78	stimuli_distractor_diamondtriangles.svg	stimuli_target_rectanglediamonds.svg	14	yes	57	0	398	0	0			0	0			1				0	
6.6.1	mac	2023-06-27	08:56:46	09:03:35	406379	5efb49177e130c0785b93842	3	1	main_slash	7	main_slash	79	stimuli_distractor_trianglediamonds.svg	stimuli_distractor_trianglediamonds.svg	33	no	0	1	2000	0	0			0	0			1				0	
6.6.1	mac	2023-06-27	08:56:46	09:03:35	406379	5efb49177e130c0785b93842	3	1	main_slash	7	advance_on_keypress_SLASH	80	stimuli_distractor_trianglediamonds.svg	stimuli_distractor_trianglediamonds.svg	33	no	57	0	246	0	0			0	0			1				0	
6.6.1	mac	2023-06-27	08:56:46	09:03:37	408160	5efb49177e130c0785b93842	3	1	main_slash	7	main_slash	81	stimuli_target_squaretriangles.svg	stimuli_distractor_trianglediamonds.svg	3	yes	53	1	894	0	0			0	0			1				0	
6.6.1	mac	2023-06-27	08:56:46	09:03:37	408160	5efb49177e130c0785b93842	3	1	main_slash	7	advance_on_keypress_SLASH	82	stimuli_target_squaretriangles.svg	stimuli_distractor_trianglediamonds.svg	3	yes	57	0	257	0	0			0	0			1				0	
6.6.1	mac	2023-06-27	08:56:46	09:03:39	410066	5efb49177e130c0785b93842	3	1	main_slash	7	main_slash	83	stimuli_distractor_trianglediamonds.svg	stimuli_target_rectanglediamonds.svg	10	yes	53	1	1009	0	0			0	0			1				0	
6.6.1	mac	2023-06-27	08:56:46	09:03:39	410066	5efb49177e130c0785b93842	3	1	main_slash	7	advance_on_keypress_SLASH	84	stimuli_distractor_trianglediamonds.svg	stimuli_target_rectanglediamonds.svg	10	yes	57	0	255	0	0			0	0			1				0	
6.6.1	mac	2023-06-27	08:56:46	09:03:40	411901	5efb49177e130c0785b93842	3	1	main_slash	7	main_slash	85	stimuli_distractor_diamondtriangles.svg	stimuli_target_squarediamonds.svg	16	yes	53	1	952	0	0			0	0			1				0	
6.6.1	mac	2023-06-27	08:56:46	09:03:40	411901	5efb49177e130c0785b93842	3	1	main_slash	7	advance_on_keypress_SLASH	86	stimuli_distractor_diamondtriangles.svg	stimuli_target_squarediamonds.svg	16	yes	57	0	373	0	0			0	0			1				0	
6.6.1	mac	2023-06-27	08:56:46	09:03:43	413934	5efb49177e130c0785b93842	3	1	main_slash	7	main_slash	87	stimuli_target_squarediamonds.svg	stimuli_distractor_diamondtriangles.svg	8	yes	53	1	1019	0	0			0	0			1				0	
6.6.1	mac	2023-06-27	08:56:46	09:03:43	413934	5efb49177e130c0785b93842	3	1	main_slash	7	advance_on_keypress_SLASH	88	stimuli_target_squarediamonds.svg	stimuli_distractor_diamondtriangles.svg	8	yes	57	0	267	0	0			0	0			1				0	
6.6.1	mac	2023-06-27	08:56:46	09:03:44	415814	5efb49177e130c0785b93842	3	1	main_slash	7	main_slash	89	stimuli_target_diamondrectangles.svg	stimuli_distractor_diamondtriangles.svg	23	yes	53	1	976	0	0			0	0			1				0	
6.6.1	mac	2023-06-27	08:56:46	09:03:44	415814	5efb49177e130c0785b93842	3	1	main_slash	7	advance_on_keypress_SLASH	90	stimuli_target_diamondrectangles.svg	stimuli_distractor_diamondtriangles.svg	23	yes	57	0	267	0	0			0	0			1				0	
6.6.1	mac	2023-06-27	08:56:46	09:03:47	417984	5efb49177e130c0785b93842	3	1	main_slash	7	main_slash	91	stimuli_target_rectanglediamonds.svg	stimuli_distractor_trianglediamonds.svg	2	yes	53	1	1262	0	0			0	0			1				0	
6.6.1	mac	2023-06-27	08:56:46	09:03:47	417984	5efb49177e130c0785b93842	3	1	main_slash	7	advance_on_keypress_SLASH	92	stimuli_target_rectanglediamonds.svg	stimuli_distractor_trianglediamonds.svg	2	yes	57	0	248	0	0			0	0			1				0	
6.6.1	mac	2023-06-27	08:56:46	09:03:48	419876	5efb49177e130c0785b93842	3	1	main_slash	7	main_slash	93	stimuli_target_rectangletriangles.svg	stimuli_distractor_trianglediamonds.svg	1	yes	53	1	1007	0	0			0	0			1				0	
6.6.1	mac	2023-06-27	08:56:46	09:03:48	419876	5efb49177e130c0785b93842	3	1	main_slash	7	advance_on_keypress_SLASH	94	stimuli_target_rectangletriangles.svg	stimuli_distractor_trianglediamonds.svg	1	yes	57	0	258	0	0			0	0			1				0	
6.6.1	mac	2023-06-27	08:56:46	09:03:51	422763	5efb49177e130c0785b93842	3	1	main_slash	7	main_slash	95	stimuli_distractor_trianglediamonds.svg	stimuli_target_trianglerectangles.svg	25	yes	0	0	2000	0	0			0	0			1				0	
6.6.1	mac	2023-06-27	08:56:46	09:03:51	422763	5efb49177e130c0785b93842	3	1	main_slash	7	advance_on_keypress_SLASH	96	stimuli_distractor_trianglediamonds.svg	stimuli_target_trianglerectangles.svg	25	yes	57	0	501	0	0			0	0			1				0	
6.6.1	mac	2023-06-27	08:56:46	09:03:54	425901	5efb49177e130c0785b93842	3	1	main_slash	7	main_slash	97	stimuli_distractor_diamondtriangles.svg	stimuli_distractor_trianglediamonds.svg	38	no	0	1	2000	0	0			0	0			1				0	
6.6.1	mac	2023-06-27	08:56:46	09:03:54	425901	5efb49177e130c0785b93842	3	1	main_slash	7	advance_on_keypress_SLASH	98	stimuli_distractor_diamondtriangles.svg	stimuli_distractor_trianglediamonds.svg	38	no	57	0	674	0	0			0	0			1				0	
6.6.1	mac	2023-06-27	08:56:46	09:03:57	428088	5efb49177e130c0785b93842	3	1	main_slash	7	main_slash	99	stimuli_distractor_diamondtriangles.svg	stimuli_target_diamondsquares.svg	32	yes	53	1	880	0	0			0	0			1				0	
6.6.1	mac	2023-06-27	08:56:46	09:03:57	428088	5efb49177e130c0785b93842	3	1	main_slash	7	advance_on_keypress_SLASH	100	stimuli_distractor_diamondtriangles.svg	stimuli_target_diamondsquares.svg	32	yes	57	0	264	0	0			0	0			1				0	
6.6.1	mac	2023-06-27	08:56:46	09:03:59	429965	5efb49177e130c0785b93842	3	1	main_slash	7	main_slash	101	stimuli_target_squarediamonds.svg	stimuli_distractor_trianglediamonds.svg	4	yes	53	1	985	0	0			0	0			1				0	
6.6.1	mac	2023-06-27	08:56:46	09:03:59	429965	5efb49177e130c0785b93842	3	1	main_slash	7	advance_on_keypress_SLASH	102	stimuli_target_squarediamonds.svg	stimuli_distractor_trianglediamonds.svg	4	yes	57	0	235	0	0			0	0			1				0	
6.6.1	mac	2023-06-27	08:56:46	09:04:01	432837	5efb49177e130c0785b93842	3	1	main_slash	7	main_slash	103	stimuli_target_trianglesquares.svg	stimuli_distractor_diamondtriangles.svg	22	yes	0	0	2000	0	0			0	0			1				0	
6.6.1	mac	2023-06-27	08:56:46	09:04:01	432837	5efb49177e130c0785b93842	3	1	main_slash	7	advance_on_keypress_SLASH	104	stimuli_target_trianglesquares.svg	stimuli_distractor_diamondtriangles.svg	22	yes	57	0	529	0	0			0	0			1				0	
6.6.1	mac	2023-06-27	08:56:46	09:04:03	434790	5efb49177e130c0785b93842	3	1	main_slash	7	main_slash	105	stimuli_target_rectangletriangles.svg	stimuli_distractor_diamondtriangles.svg	5	yes	53	1	777	0	0			0	0			1				0	
6.6.1	mac	2023-06-27	08:56:46	09:04:03	434790	5efb49177e130c0785b93842	3	1	main_slash	7	advance_on_keypress_SLASH	106	stimuli_target_rectangletriangles.svg	stimuli_distractor_diamondtriangles.svg	5	yes	57	0	241	0	0			0	0			1				0	
6.6.1	mac	2023-06-27	08:56:46	09:04:06	437659	5efb49177e130c0785b93842	3	1	main_slash	7	main_slash	107	stimuli_target_trianglerectangles.svg	stimuli_distractor_trianglediamonds.svg	17	yes	0	0	2000	0	0			0	0			1				0	
6.6.1	mac	2023-06-27	08:56:46	09:04:06	437659	5efb49177e130c0785b93842	3	1	main_slash	7	advance_on_keypress_SLASH	108	stimuli_target_trianglerectangles.svg	stimuli_distractor_trianglediamonds.svg	17	yes	57	0	554	0	0			0	0			1				0	
6.6.1	mac	2023-06-27	08:56:46	09:04:08	439739	5efb49177e130c0785b93842	3	1	main_slash	7	main_slash	109	stimuli_distractor_trianglediamonds.svg	stimuli_target_rectangletriangles.svg	9	yes	53	1	887	0	0			0	0			1				0	
6.6.1	mac	2023-06-27	08:56:46	09:04:08	439739	5efb49177e130c0785b93842	3	1	main_slash	7	advance_on_keypress_SLASH	110	stimuli_distractor_trianglediamonds.svg	stimuli_target_rectangletriangles.svg	9	yes	57	0	231	0	0			0	0			1				0	
6.6.1	mac	2023-06-27	08:56:46	09:04:11	442607	5efb49177e130c0785b93842	3	1	main_slash	7	main_slash	111	stimuli_distractor_diamondtriangles.svg	stimuli_distractor_trianglediamonds.svg	37	no	0	1	2000	0	0			0	0			1				0	
6.6.1	mac	2023-06-27	08:56:46	09:04:11	442607	5efb49177e130c0785b93842	3	1	main_slash	7	advance_on_keypress_SLASH	112	stimuli_distractor_diamondtriangles.svg	stimuli_distractor_trianglediamonds.svg	37	no	57	0	393	0	0			0	0			1				0	
6.6.1	mac	2023-06-27	08:56:46	09:04:13	444765	5efb49177e130c0785b93842	3	1	main_slash	7	main_slash	113	stimuli_distractor_diamondtriangles.svg	stimuli_target_rectangletriangles.svg	13	yes	53	1	1116	0	0			0	0			1				0	
6.6.1	mac	2023-06-27	08:56:46	09:04:13	444765	5efb49177e130c0785b93842	3	1	main_slash	7	advance_on_keypress_SLASH	114	stimuli_distractor_diamondtriangles.svg	stimuli_target_rectangletriangles.svg	13	yes	57	0	217	0	0			0	0			1				0	
6.6.1	mac	2023-06-27	08:56:46	09:04:16	447630	5efb49177e130c0785b93842	3	1	main_slash	7	main_slash	115	stimuli_distractor_diamondtriangles.svg	stimuli_distractor_diamondtriangles.svg	40	no	0	1	2000	0	0			0	0			1				0	
6.6.1	mac	2023-06-27	08:56:46	09:04:16	447630	5efb49177e130c0785b93842	3	1	main_slash	7	advance_on_keypress_SLASH	116	stimuli_distractor_diamondtriangles.svg	stimuli_distractor_diamondtriangles.svg	40	no	57	0	654	0	0			0	0			1				0	
6.6.1	mac	2023-06-27	08:56:46	09:04:20	450924	5efb49177e130c0785b93842	3	1	main_slash	7	main_slash	117	stimuli_distractor_trianglediamonds.svg	stimuli_target_trianglesquares.svg	26	yes	0	0	2000	0	0			0	0			1				0	
6.6.1	mac	2023-06-27	08:56:46	09:04:20	450924	5efb49177e130c0785b93842	3	1	main_slash	7	advance_on_keypress_SLASH	118	stimuli_distractor_trianglediamonds.svg	stimuli_target_trianglesquares.svg	26	yes	57	0	765	0	0			0	0			1				0	
6.6.1	mac	2023-06-27	08:56:46	09:04:22	453210	5efb49177e130c0785b93842	3	1	main_slash	7	main_slash	119	stimuli_distractor_diamondtriangles.svg	stimuli_target_rectanglediamonds.svg	14	yes	53	1	885	0	0			0	0			1				0	
6.6.1	mac	2023-06-27	08:56:46	09:04:22	453210	5efb49177e130c0785b93842	3	1	main_slash	7	advance_on_keypress_SLASH	120	stimuli_distractor_diamondtriangles.svg	stimuli_target_rectanglediamonds.svg	14	yes	57	0	226	0	0			0	0			1				0	
6.6.1	mac	2023-06-27	08:56:46	09:04:25	456067	5efb49177e130c0785b93842	3	1	main_slash	7	main_slash	121	stimuli_distractor_diamondtriangles.svg	stimuli_target_diamondrectangles.svg	31	yes	53	1	1988	0	0			0	0			1				0	
6.6.1	mac	2023-06-27	08:56:46	09:04:25	456067	5efb49177e130c0785b93842	3	1	main_slash	7	advance_on_keypress_SLASH	122	stimuli_distractor_diamondtriangles.svg	stimuli_target_diamondrectangles.svg	31	yes	57	0	772	0	0			0	0			1				0	
6.6.1	mac	2023-06-27	08:56:46	09:04:27	458366	5efb49177e130c0785b93842	3	1	main_slash	7	main_slash	123	stimuli_target_diamondsquares.svg	stimuli_distractor_trianglediamonds.svg	20	yes	53	1	892	0	0			0	0			1				0	
6.6.1	mac	2023-06-27	08:56:46	09:04:27	458366	5efb49177e130c0785b93842	3	1	main_slash	7	advance_on_keypress_SLASH	124	stimuli_target_diamondsquares.svg	stimuli_distractor_trianglediamonds.svg	20	yes	57	0	170	0	0			0	0			1				0	
6.6.1	mac	2023-06-27	08:56:46	09:04:29	460185	5efb49177e130c0785b93842	3	1	main_slash	7	main_slash	125	stimuli_target_diamondsquares.svg	stimuli_distractor_diamondtriangles.svg	24	yes	53	1	1008	0	0			0	0			1				0	
6.6.1	mac	2023-06-27	08:56:46	09:04:29	460185	5efb49177e130c0785b93842	3	1	main_slash	7	advance_on_keypress_SLASH	126	stimuli_target_diamondsquares.svg	stimuli_distractor_diamondtriangles.svg	24	yes	57	0	162	0	0			0	0			1				0	
6.6.1	mac	2023-06-27	08:56:46	09:04:32	462984	5efb49177e130c0785b93842	3	1	main_slash	7	main_slash	127	stimuli_distractor_diamondtriangles.svg	stimuli_distractor_diamondtriangles.svg	39	no	0	1	2000	0	0			0	0			1				0	
6.6.1	mac	2023-06-27	08:56:46	09:04:32	462984	5efb49177e130c0785b93842	3	1	main_slash	7	advance_on_keypress_SLASH	128	stimuli_distractor_diamondtriangles.svg	stimuli_distractor_diamondtriangles.svg	39	no	57	0	553	0	0			0	0			1				0	
6.6.1	mac	2023-06-27	08:56:46	09:04:34	465086	5efb49177e130c0785b93842	3	1	main_slash	7	main_slash	129	stimuli_distractor_diamondtriangles.svg	stimuli_target_trianglesquares.svg	30	yes	53	1	908	0	0			0	0			1				0	
6.6.1	mac	2023-06-27	08:56:46	09:04:34	465086	5efb49177e130c0785b93842	3	1	main_slash	7	advance_on_keypress_SLASH	130	stimuli_distractor_diamondtriangles.svg	stimuli_target_trianglesquares.svg	30	yes	57	0	235	0	0			0	0			1				0	
6.6.1	mac	2023-06-27	08:56:46	09:04:36	466993	5efb49177e130c0785b93842	3	1	main_slash	7	main_slash	131	stimuli_target_trianglerectangles.svg	stimuli_distractor_diamondtriangles.svg	21	yes	53	1	1038	0	0			0	0			1				0	
6.6.1	mac	2023-06-27	08:56:46	09:04:36	466993	5efb49177e130c0785b93842	3	1	main_slash	7	advance_on_keypress_SLASH	132	stimuli_target_trianglerectangles.svg	stimuli_distractor_diamondtriangles.svg	21	yes	57	0	243	0	0			0	0			1				0	
6.6.1	mac	2023-06-27	08:56:46	09:04:37	468830	5efb49177e130c0785b93842	3	1	main_slash	7	main_slash	133	stimuli_distractor_trianglediamonds.svg	stimuli_target_squarediamonds.svg	12	yes	53	1	943	0	0			0	0			1				0	
6.6.1	mac	2023-06-27	08:56:46	09:04:37	468830	5efb49177e130c0785b93842	3	1	main_slash	7	advance_on_keypress_SLASH	134	stimuli_distractor_trianglediamonds.svg	stimuli_target_squarediamonds.svg	12	yes	57	0	242	0	0			0	0			1				0	
6.6.1	mac	2023-06-27	08:56:46	09:04:39	470732	5efb49177e130c0785b93842	3	1	main_slash	7	main_slash	135	stimuli_distractor_trianglediamonds.svg	stimuli_target_diamondrectangles.svg	27	yes	53	1	1019	0	0			0	0			1				0	
6.6.1	mac	2023-06-27	08:56:46	09:04:39	470732	5efb49177e130c0785b93842	3	1	main_slash	7	advance_on_keypress_SLASH	136	stimuli_distractor_trianglediamonds.svg	stimuli_target_diamondrectangles.svg	27	yes	57	0	244	0	0			0	0			1				0	
6.6.1	mac	2023-06-27	08:56:46	09:04:41	472573	5efb49177e130c0785b93842	3	1	main_slash	7	main_slash	137	stimuli_distractor_trianglediamonds.svg	stimuli_target_squaretriangles.svg	11	yes	53	1	957	0	0			0	0			1				0	
6.6.1	mac	2023-06-27	08:56:46	09:04:41	472573	5efb49177e130c0785b93842	3	1	main_slash	7	advance_on_keypress_SLASH	138	stimuli_distractor_trianglediamonds.svg	stimuli_target_squaretriangles.svg	11	yes	57	0	236	0	0			0	0			1				0	
6.6.1	mac	2023-06-27	08:56:46	09:04:43	474421	5efb49177e130c0785b93842	3	1	main_slash	7	main_slash	139	stimuli_target_squaretriangles.svg	stimuli_distractor_diamondtriangles.svg	7	yes	53	1	975	0	0			0	0			1				0	
6.6.1	mac	2023-06-27	08:56:46	09:04:43	474421	5efb49177e130c0785b93842	3	1	main_slash	7	advance_on_keypress_SLASH	140	stimuli_target_squaretriangles.svg	stimuli_distractor_diamondtriangles.svg	7	yes	57	0	217	0	0			0	0			1				0	
6.6.1	mac	2023-06-27	08:56:46	09:04:46	477275	5efb49177e130c0785b93842	3	1	main_slash	7	main_slash	141	stimuli_distractor_trianglediamonds.svg	stimuli_distractor_diamondtriangles.svg	36	no	0	1	2000	0	0			0	0			1				0	
6.6.1	mac	2023-06-27	08:56:46	09:04:46	477275	5efb49177e130c0785b93842	3	1	main_slash	7	advance_on_keypress_SLASH	142	stimuli_distractor_trianglediamonds.svg	stimuli_distractor_diamondtriangles.svg	36	no	57	0	622	0	0			0	0			1				0	
6.6.1	mac	2023-06-27	08:56:46	09:04:49	480530	5efb49177e130c0785b93842	3	1	main_slash	7	main_slash	143	stimuli_distractor_trianglediamonds.svg	stimuli_distractor_diamondtriangles.svg	35	no	0	1	2000	0	0			0	0			1				0	
6.6.1	mac	2023-06-27	08:56:46	09:04:49	480530	5efb49177e130c0785b93842	3	1	main_slash	7	advance_on_keypress_SLASH	144	stimuli_distractor_trianglediamonds.svg	stimuli_distractor_diamondtriangles.svg	35	no	57	0	679	0	0			0	0			1				0	
6.6.1	mac	2023-06-27	08:56:46	09:04:52	483847	5efb49177e130c0785b93842	3	1	main_slash	7	main_slash	145	stimuli_distractor_trianglediamonds.svg	stimuli_distractor_trianglediamonds.svg	34	no	0	1	2000	0	0			0	0			1				0	
6.6.1	mac	2023-06-27	08:56:46	09:04:52	483847	5efb49177e130c0785b93842	3	1	main_slash	7	advance_on_keypress_SLASH	146	stimuli_distractor_trianglediamonds.svg	stimuli_distractor_trianglediamonds.svg	34	no	57	0	588	0	0			0	0			1				0	
6.6.1	mac	2023-06-27	08:56:46	09:04:54	485742	5efb49177e130c0785b93842	3	1	main_slash	7	main_slash	147	stimuli_distractor_diamondtriangles.svg	stimuli_target_squaretriangles.svg	15	yes	53	1	664	0	0			0	0			1				0	
6.6.1	mac	2023-06-27	08:56:46	09:04:54	485742	5efb49177e130c0785b93842	3	1	main_slash	7	advance_on_keypress_SLASH	148	stimuli_distractor_diamondtriangles.svg	stimuli_target_squaretriangles.svg	15	yes	57	0	236	0	0			0	0			1				0	
6.6.1	mac	2023-06-27	08:56:46	09:04:57	488609	5efb49177e130c0785b93842	3	1	main_slash	7	main_slash	149	stimuli_distractor_trianglediamonds.svg	stimuli_distractor_trianglediamonds.svg	33	no	0	1	2000	0	0			0	0			1				0	
6.6.1	mac	2023-06-27	08:56:46	09:04:57	488609	5efb49177e130c0785b93842	3	1	main_slash	7	advance_on_keypress_SLASH	150	stimuli_distractor_trianglediamonds.svg	stimuli_distractor_trianglediamonds.svg	33	no	57	0	478	0	0			0	0			1				0	
6.6.1	mac	2023-06-27	08:56:46	09:04:59	490408	5efb49177e130c0785b93842	3	1	main_slash	7	main_slash	151	stimuli_target_trianglesquares.svg	stimuli_distractor_trianglediamonds.svg	18	yes	53	1	688	0	0			0	0			1				0	
6.6.1	mac	2023-06-27	08:56:46	09:04:59	490408	5efb49177e130c0785b93842	3	1	main_slash	7	advance_on_keypress_SLASH	152	stimuli_target_trianglesquares.svg	stimuli_distractor_trianglediamonds.svg	18	yes	57	0	266	0	0			0	0			1				0	
6.6.1	mac	2023-06-27	08:56:46	09:05:01	492211	5efb49177e130c0785b93842	3	1	main_slash	7	main_slash	153	stimuli_target_diamondrectangles.svg	stimuli_distractor_trianglediamonds.svg	19	yes	53	1	887	0	0			0	0			1				0	
6.6.1	mac	2023-06-27	08:56:46	09:05:01	492211	5efb49177e130c0785b93842	3	1	main_slash	7	advance_on_keypress_SLASH	154	stimuli_target_diamondrectangles.svg	stimuli_distractor_trianglediamonds.svg	19	yes	57	0	265	0	0			0	0			1				0	
6.6.1	mac	2023-06-27	08:56:46	09:05:03	493994	5efb49177e130c0785b93842	3	1	main_slash	7	main_slash	155	stimuli_distractor_diamondtriangles.svg	stimuli_target_trianglerectangles.svg	29	yes	53	1	877	0	0			0	0			1				0	
6.6.1	mac	2023-06-27	08:56:46	09:05:03	493994	5efb49177e130c0785b93842	3	1	main_slash	7	advance_on_keypress_SLASH	156	stimuli_distractor_diamondtriangles.svg	stimuli_target_trianglerectangles.svg	29	yes	57	0	244	0	0			0	0			1				0	
6.6.1	mac	2023-06-27	08:56:46	09:05:05	495996	5efb49177e130c0785b93842	3	1	main_slash	7	main_slash	157	stimuli_target_rectanglediamonds.svg	stimuli_distractor_diamondtriangles.svg	6	yes	53	1	1121	0	0			0	0			1				0	
6.6.1	mac	2023-06-27	08:56:46	09:05:05	495996	5efb49177e130c0785b93842	3	1	main_slash	7	advance_on_keypress_SLASH	158	stimuli_target_rectanglediamonds.svg	stimuli_distractor_diamondtriangles.svg	6	yes	57	0	208	0	0			0	0			1				0	
6.6.1	mac	2023-06-27	08:56:46	09:05:06	497552	5efb49177e130c0785b93842	3	1	main_slash	7	main_slash	159	stimuli_distractor_trianglediamonds.svg	stimuli_target_diamondsquares.svg	28	yes	53	1	716	0	0			0	0			1				0	
6.6.1	mac	2023-06-27	08:56:46	09:05:06	497552	5efb49177e130c0785b93842	3	1	main_slash	7	advance_on_keypress_SLASH	160	stimuli_distractor_trianglediamonds.svg	stimuli_target_diamondsquares.svg	28	yes	57	0	283	0	0			0	0			1				0	
6.6.1	mac	2023-06-27	08:56:46	09:05:43	534149	5efb49177e130c0785b93842	3	1	practice_z	9	practice_z	1	stimuli_distractor_diamondtriangles.svg	stimuli_distractor_diamondtriangles.svg	13	no	0	1	2000	0	0			0	0			1				0	
6.6.1	mac	2023-06-27	08:56:46	09:05:43	534149	5efb49177e130c0785b93842	3	1	practice_z	9	advance_on_keypress_ZEE	2	stimuli_distractor_diamondtriangles.svg	stimuli_distractor_diamondtriangles.svg	13	no	57	0	655	0	0			0	0			1				0	
6.6.1	mac	2023-06-27	08:56:46	09:05:46	537276	5efb49177e130c0785b93842	3	1	practice_z	9	practice_z	3	stimuli_target_diamondsquares.svg	stimuli_distractor_trianglediamonds.svg	6	yes	44	1	821	0	0			0	0			1				0	
6.6.1	mac	2023-06-27	08:56:46	09:05:46	537276	5efb49177e130c0785b93842	3	1	practice_z	9	advance_on_keypress_ZEE	4	stimuli_target_diamondsquares.svg	stimuli_distractor_trianglediamonds.svg	6	yes	57	0	505	0	0			0	0			1				0	
6.6.1	mac	2023-06-27	08:56:46	09:05:49	540163	5efb49177e130c0785b93842	3	1	practice_z	9	practice_z	5	stimuli_distractor_trianglediamonds.svg	stimuli_target_squarediamonds.svg	11	yes	44	1	741	0	0			0	0			1				0	
6.6.1	mac	2023-06-27	08:56:46	09:05:49	540163	5efb49177e130c0785b93842	3	1	practice_z	9	advance_on_keypress_ZEE	6	stimuli_distractor_trianglediamonds.svg	stimuli_target_squarediamonds.svg	11	yes	57	0	1447	0	0			0	0			1				0	
6.6.1	mac	2023-06-27	08:56:46	09:05:52	543730	5efb49177e130c0785b93842	3	1	practice_z	9	practice_z	7	stimuli_distractor_trianglediamonds.svg	stimuli_target_rectanglediamonds.svg	10	yes	44	1	484	0	0			0	0			1				0	
6.6.1	mac	2023-06-27	08:56:46	09:05:52	543730	5efb49177e130c0785b93842	3	1	practice_z	9	advance_on_keypress_ZEE	8	stimuli_distractor_trianglediamonds.svg	stimuli_target_rectanglediamonds.svg	10	yes	57	0	944	0	0			0	0			1				0	
6.6.1	mac	2023-06-27	08:56:46	09:05:55	546799	5efb49177e130c0785b93842	3	1	practice_z	9	practice_z	9	stimuli_target_rectanglediamonds.svg	stimuli_distractor_diamondtriangles.svg	1	yes	44	1	493	0	0			0	0			1				0	
6.6.1	mac	2023-06-27	08:56:46	09:05:55	546799	5efb49177e130c0785b93842	3	1	practice_z	9	advance_on_keypress_ZEE	10	stimuli_target_rectanglediamonds.svg	stimuli_distractor_diamondtriangles.svg	1	yes	57	0	499	0	0			0	0			1				0	
6.6.1	mac	2023-06-27	08:56:46	09:05:58	549442	5efb49177e130c0785b93842	3	1	practice_z	9	practice_z	11	stimuli_distractor_trianglediamonds.svg	stimuli_target_diamondrectangles.svg	12	yes	44	1	504	0	0			0	0			1				0	
6.6.1	mac	2023-06-27	08:56:46	09:05:58	549442	5efb49177e130c0785b93842	3	1	practice_z	9	advance_on_keypress_ZEE	12	stimuli_distractor_trianglediamonds.svg	stimuli_target_diamondrectangles.svg	12	yes	57	0	499	0	0			0	0			1				0	
6.6.1	mac	2023-06-27	08:56:46	09:06:01	552336	5efb49177e130c0785b93842	3	1	practice_z	9	practice_z	13	stimuli_target_rectanglediamonds.svg	stimuli_distractor_trianglediamonds.svg	4	yes	44	1	753	0	0			0	0			1				0	
6.6.1	mac	2023-06-27	08:56:46	09:06:01	552336	5efb49177e130c0785b93842	3	1	practice_z	9	advance_on_keypress_ZEE	14	stimuli_target_rectanglediamonds.svg	stimuli_distractor_trianglediamonds.svg	4	yes	57	0	359	0	0			0	0			1				0	
6.6.1	mac	2023-06-27	08:56:46	09:06:03	554892	5efb49177e130c0785b93842	3	1	practice_z	9	practice_z	15	stimuli_distractor_diamondtriangles.svg	stimuli_target_diamondrectangles.svg	8	yes	44	1	555	0	0			0	0			1				0	
6.6.1	mac	2023-06-27	08:56:46	09:06:03	554892	5efb49177e130c0785b93842	3	1	practice_z	9	advance_on_keypress_ZEE	16	stimuli_distractor_diamondtriangles.svg	stimuli_target_diamondrectangles.svg	8	yes	57	0	448	0	0			0	0			1				0	
6.6.1	mac	2023-06-27	08:56:46	09:06:08	558976	5efb49177e130c0785b93842	3	1	practice_z	9	practice_z	17	stimuli_target_diamondsquares.svg	stimuli_distractor_diamondtriangles.svg	3	yes	0	0	2000	0	0			0	0			1				0	
6.6.1	mac	2023-06-27	08:56:46	09:06:08	558976	5efb49177e130c0785b93842	3	1	practice_z	9	advance_on_keypress_ZEE	18	stimuli_target_diamondsquares.svg	stimuli_distractor_diamondtriangles.svg	3	yes	57	0	612	0	0			0	0			1				0	
6.6.1	mac	2023-06-27	08:56:46	09:06:11	561950	5efb49177e130c0785b93842	3	1	practice_z	9	practice_z	19	stimuli_distractor_diamondtriangles.svg	stimuli_target_trianglerectangles.svg	9	yes	44	1	711	0	0			0	0			1				0	
6.6.1	mac	2023-06-27	08:56:46	09:06:11	561950	5efb49177e130c0785b93842	3	1	practice_z	9	advance_on_keypress_ZEE	20	stimuli_distractor_diamondtriangles.svg	stimuli_target_trianglerectangles.svg	9	yes	57	0	497	0	0			0	0			1				0	
6.6.1	mac	2023-06-27	08:56:46	09:06:15	566080	5efb49177e130c0785b93842	3	1	practice_z	9	practice_z	21	stimuli_distractor_trianglediamonds.svg	stimuli_distractor_diamondtriangles.svg	16	no	0	1	2000	0	0			0	0			1				0	
6.6.1	mac	2023-06-27	08:56:46	09:06:15	566080	5efb49177e130c0785b93842	3	1	practice_z	9	advance_on_keypress_ZEE	22	stimuli_distractor_trianglediamonds.svg	stimuli_distractor_diamondtriangles.svg	16	no	57	0	460	0	0			0	0			1				0	
6.6.1	mac	2023-06-27	08:56:46	09:06:17	568658	5efb49177e130c0785b93842	3	1	practice_z	9	practice_z	23	stimuli_target_squarediamonds.svg	stimuli_distractor_trianglediamonds.svg	5	yes	44	1	479	0	0			0	0			1				0	
6.6.1	mac	2023-06-27	08:56:46	09:06:17	568658	5efb49177e130c0785b93842	3	1	practice_z	9	advance_on_keypress_ZEE	24	stimuli_target_squarediamonds.svg	stimuli_distractor_trianglediamonds.svg	5	yes	57	0	418	0	0			0	0			1				0	
6.6.1	mac	2023-06-27	08:56:46	09:06:20	571156	5efb49177e130c0785b93842	3	1	practice_z	9	practice_z	25	stimuli_distractor_diamondtriangles.svg	stimuli_target_rectangletriangles.svg	7	yes	44	1	444	0	0			0	0			1				0	
6.6.1	mac	2023-06-27	08:56:46	09:06:20	571156	5efb49177e130c0785b93842	3	1	practice_z	9	advance_on_keypress_ZEE	26	stimuli_distractor_diamondtriangles.svg	stimuli_target_rectangletriangles.svg	7	yes	57	0	440	0	0			0	0			1				0	
6.6.1	mac	2023-06-27	08:56:46	09:06:22	573689	5efb49177e130c0785b93842	3	1	practice_z	9	practice_z	27	stimuli_target_squarediamonds.svg	stimuli_distractor_diamondtriangles.svg	2	yes	44	1	470	0	0			0	0			1				0	
6.6.1	mac	2023-06-27	08:56:46	09:06:22	573689	5efb49177e130c0785b93842	3	1	practice_z	9	advance_on_keypress_ZEE	28	stimuli_target_squarediamonds.svg	stimuli_distractor_diamondtriangles.svg	2	yes	57	0	432	0	0			0	0			1				0	
6.6.1	mac	2023-06-27	08:56:46	09:06:26	577757	5efb49177e130c0785b93842	3	1	practice_z	9	practice_z	29	stimuli_distractor_trianglediamonds.svg	stimuli_distractor_trianglediamonds.svg	15	no	0	1	2000	0	0			0	0			1				0	
6.6.1	mac	2023-06-27	08:56:46	09:06:26	577757	5efb49177e130c0785b93842	3	1	practice_z	9	advance_on_keypress_ZEE	30	stimuli_distractor_trianglediamonds.svg	stimuli_distractor_trianglediamonds.svg	15	no	57	0	512	0	0			0	0			1				0	
6.6.1	mac	2023-06-27	08:56:46	09:06:30	581067	5efb49177e130c0785b93842	3	1	practice_z	9	practice_z	31	stimuli_distractor_diamondtriangles.svg	stimuli_distractor_trianglediamonds.svg	14	no	44	0	1143	0	0			0	0			1				0	
6.6.1	mac	2023-06-27	08:56:46	09:06:30	581067	5efb49177e130c0785b93842	3	1	practice_z	9	advance_on_keypress_ZEE	32	stimuli_distractor_diamondtriangles.svg	stimuli_distractor_trianglediamonds.svg	14	no	57	0	459	0	0			0	0			1				0	
6.6.1	mac	2023-06-27	08:56:46	09:06:34	585240	5efb49177e130c0785b93842	3	1	main_z	11	main_z	1	stimuli_distractor_diamondtriangles.svg	stimuli_target_diamondsquares.svg	32	yes	44	1	857	0	0			0	0			1				0	
6.6.1	mac	2023-06-27	08:56:46	09:06:34	585240	5efb49177e130c0785b93842	3	1	main_z	11	advance_on_keypress_ZEE	2	stimuli_distractor_diamondtriangles.svg	stimuli_target_diamondsquares.svg	32	yes	57	0	661	0	0			0	0			1				0	
6.6.1	mac	2023-06-27	08:56:46	09:06:37	588538	5efb49177e130c0785b93842	3	1	main_z	11	main_z	3	stimuli_distractor_diamondtriangles.svg	stimuli_distractor_trianglediamonds.svg	38	no	0	1	2000	0	0			0	0			1				0	
6.6.1	mac	2023-06-27	08:56:46	09:06:37	588538	5efb49177e130c0785b93842	3	1	main_z	11	advance_on_keypress_ZEE	4	stimuli_distractor_diamondtriangles.svg	stimuli_distractor_trianglediamonds.svg	38	no	57	0	609	0	0			0	0			1				0	
6.6.1	mac	2023-06-27	08:56:46	09:06:39	590355	5efb49177e130c0785b93842	3	1	main_z	11	main_z	5	stimuli_target_rectanglediamonds.svg	stimuli_distractor_trianglediamonds.svg	2	yes	44	1	571	0	0			0	0			1				0	
6.6.1	mac	2023-06-27	08:56:46	09:06:39	590355	5efb49177e130c0785b93842	3	1	main_z	11	advance_on_keypress_ZEE	6	stimuli_target_rectanglediamonds.svg	stimuli_distractor_trianglediamonds.svg	2	yes	57	0	612	0	0			0	0			1				0	
6.6.1	mac	2023-06-27	08:56:46	09:06:41	592169	5efb49177e130c0785b93842	3	1	main_z	11	main_z	7	stimuli_target_squarediamonds.svg	stimuli_distractor_diamondtriangles.svg	8	yes	44	1	567	0	0			0	0			1				0	
6.6.1	mac	2023-06-27	08:56:46	09:06:41	592169	5efb49177e130c0785b93842	3	1	main_z	11	advance_on_keypress_ZEE	8	stimuli_target_squarediamonds.svg	stimuli_distractor_diamondtriangles.svg	8	yes	57	0	223	0	0			0	0			1				0	
6.6.1	mac	2023-06-27	08:56:46	09:06:44	595021	5efb49177e130c0785b93842	3	1	main_z	11	main_z	9	stimuli_distractor_trianglediamonds.svg	stimuli_distractor_diamondtriangles.svg	35	no	0	1	2000	0	0			0	0			1				0	
6.6.1	mac	2023-06-27	08:56:46	09:06:44	595021	5efb49177e130c0785b93842	3	1	main_z	11	advance_on_keypress_ZEE	10	stimuli_distractor_trianglediamonds.svg	stimuli_distractor_diamondtriangles.svg	35	no	57	0	549	0	0			0	0			1				0	
6.6.1	mac	2023-06-27	08:56:46	09:06:47	598205	5efb49177e130c0785b93842	3	1	main_z	11	main_z	11	stimuli_distractor_diamondtriangles.svg	stimuli_distractor_diamondtriangles.svg	39	no	0	1	2000	0	0			0	0			1				0	
6.6.1	mac	2023-06-27	08:56:46	09:06:47	598205	5efb49177e130c0785b93842	3	1	main_z	11	advance_on_keypress_ZEE	12	stimuli_distractor_diamondtriangles.svg	stimuli_distractor_diamondtriangles.svg	39	no	57	0	674	0	0			0	0			1				0	
6.6.1	mac	2023-06-27	08:56:46	09:06:50	601512	5efb49177e130c0785b93842	3	1	main_z	11	main_z	13	stimuli_distractor_trianglediamonds.svg	stimuli_distractor_trianglediamonds.svg	34	no	0	1	2000	0	0			0	0			1				0	
6.6.1	mac	2023-06-27	08:56:46	09:06:50	601512	5efb49177e130c0785b93842	3	1	main_z	11	advance_on_keypress_ZEE	14	stimuli_distractor_trianglediamonds.svg	stimuli_distractor_trianglediamonds.svg	34	no	57	0	473	0	0			0	0			1				0	
6.6.1	mac	2023-06-27	08:56:46	09:06:52	603215	5efb49177e130c0785b93842	3	1	main_z	11	main_z	15	stimuli_target_diamondsquares.svg	stimuli_distractor_diamondtriangles.svg	24	yes	44	1	597	0	0			0	0			1				0	
6.6.1	mac	2023-06-27	08:56:46	09:06:52	603215	5efb49177e130c0785b93842	3	1	main_z	11	advance_on_keypress_ZEE	16	stimuli_target_diamondsquares.svg	stimuli_distractor_diamondtriangles.svg	24	yes	57	0	345	0	0			0	0			1				0	
6.6.1	mac	2023-06-27	08:56:46	09:06:55	606193	5efb49177e130c0785b93842	3	1	main_z	11	main_z	17	stimuli_distractor_diamondtriangles.svg	stimuli_distractor_diamondtriangles.svg	40	no	0	1	2000	0	0			0	0			1				0	
6.6.1	mac	2023-06-27	08:56:46	09:06:55	606193	5efb49177e130c0785b93842	3	1	main_z	11	advance_on_keypress_ZEE	18	stimuli_distractor_diamondtriangles.svg	stimuli_distractor_diamondtriangles.svg	40	no	57	0	458	0	0			0	0			1				0	
6.6.1	mac	2023-06-27	08:56:46	09:06:56	607823	5efb49177e130c0785b93842	3	1	main_z	11	main_z	19	stimuli_target_squarediamonds.svg	stimuli_distractor_trianglediamonds.svg	4	yes	44	1	526	0	0			0	0			1				0	
6.6.1	mac	2023-06-27	08:56:46	09:06:56	607823	5efb49177e130c0785b93842	3	1	main_z	11	advance_on_keypress_ZEE	20	stimuli_target_squarediamonds.svg	stimuli_distractor_trianglediamonds.svg	4	yes	57	0	241	0	0			0	0			1				0	
6.6.1	mac	2023-06-27	08:56:46	09:06:58	609329	5efb49177e130c0785b93842	3	1	main_z	11	main_z	21	stimuli_distractor_diamondtriangles.svg	stimuli_target_trianglerectangles.svg	29	yes	44	1	636	0	0			0	0			1				0	
6.6.1	mac	2023-06-27	08:56:46	09:06:58	609329	5efb49177e130c0785b93842	3	1	main_z	11	advance_on_keypress_ZEE	22	stimuli_distractor_diamondtriangles.svg	stimuli_target_trianglerectangles.svg	29	yes	57	0	267	0	0			0	0			1				0	
6.6.1	mac	2023-06-27	08:56:46	09:07:00	610968	5efb49177e130c0785b93842	3	1	main_z	11	main_z	23	stimuli_target_rectanglediamonds.svg	stimuli_distractor_diamondtriangles.svg	6	yes	44	1	727	0	0			0	0			1				0	
6.6.1	mac	2023-06-27	08:56:46	09:07:00	610968	5efb49177e130c0785b93842	3	1	main_z	11	advance_on_keypress_ZEE	24	stimuli_target_rectanglediamonds.svg	stimuli_distractor_diamondtriangles.svg	6	yes	57	0	215	0	0			0	0			1				0	
6.6.1	mac	2023-06-27	08:56:46	09:07:02	613816	5efb49177e130c0785b93842	3	1	main_z	11	main_z	25	stimuli_distractor_trianglediamonds.svg	stimuli_distractor_trianglediamonds.svg	33	no	0	1	2000	0	0			0	0			1				0	
6.6.1	mac	2023-06-27	08:56:46	09:07:02	613816	5efb49177e130c0785b93842	3	1	main_z	11	advance_on_keypress_ZEE	26	stimuli_distractor_trianglediamonds.svg	stimuli_distractor_trianglediamonds.svg	33	no	57	0	564	0	0			0	0			1				0	
6.6.1	mac	2023-06-27	08:56:46	09:07:04	615858	5efb49177e130c0785b93842	3	1	main_z	11	main_z	27	stimuli_target_diamondsquares.svg	stimuli_distractor_trianglediamonds.svg	20	yes	44	1	842	0	0			0	0			1				0	
6.6.1	mac	2023-06-27	08:56:46	09:07:04	615858	5efb49177e130c0785b93842	3	1	main_z	11	advance_on_keypress_ZEE	28	stimuli_target_diamondsquares.svg	stimuli_distractor_trianglediamonds.svg	20	yes	57	0	209	0	0			0	0			1				0	
6.6.1	mac	2023-06-27	08:56:46	09:07:06	617293	5efb49177e130c0785b93842	3	1	main_z	11	main_z	29	stimuli_distractor_diamondtriangles.svg	stimuli_target_rectangletriangles.svg	13	yes	44	1	595	0	0			0	0			1				0	
6.6.1	mac	2023-06-27	08:56:46	09:07:06	617293	5efb49177e130c0785b93842	3	1	main_z	11	advance_on_keypress_ZEE	30	stimuli_distractor_diamondtriangles.svg	stimuli_target_rectangletriangles.svg	13	yes	57	0	206	0	0			0	0			1				0	
6.6.1	mac	2023-06-27	08:56:46	09:07:09	620136	5efb49177e130c0785b93842	3	1	main_z	11	main_z	31	stimuli_distractor_trianglediamonds.svg	stimuli_distractor_diamondtriangles.svg	36	no	0	1	2000	0	0			0	0			1				0	
6.6.1	mac	2023-06-27	08:56:46	09:07:09	620136	5efb49177e130c0785b93842	3	1	main_z	11	advance_on_keypress_ZEE	32	stimuli_distractor_trianglediamonds.svg	stimuli_distractor_diamondtriangles.svg	36	no	57	0	508	0	0			0	0			1				0	
6.6.1	mac	2023-06-27	08:56:46	09:07:12	623263	5efb49177e130c0785b93842	3	1	main_z	11	main_z	33	stimuli_target_diamondrectangles.svg	stimuli_distractor_trianglediamonds.svg	19	yes	0	0	2000	0	0			0	0			1				0	
6.6.1	mac	2023-06-27	08:56:46	09:07:12	623263	5efb49177e130c0785b93842	3	1	main_z	11	advance_on_keypress_ZEE	34	stimuli_target_diamondrectangles.svg	stimuli_distractor_trianglediamonds.svg	19	yes	57	0	469	0	0			0	0			1				0	
6.6.1	mac	2023-06-27	08:56:46	09:07:15	626357	5efb49177e130c0785b93842	3	1	main_z	11	main_z	35	stimuli_distractor_trianglediamonds.svg	stimuli_target_trianglerectangles.svg	25	yes	0	0	2000	0	0			0	0			1				0	
6.6.1	mac	2023-06-27	08:56:46	09:07:15	626357	5efb49177e130c0785b93842	3	1	main_z	11	advance_on_keypress_ZEE	36	stimuli_distractor_trianglediamonds.svg	stimuli_target_trianglerectangles.svg	25	yes	57	0	682	0	0			0	0			1				0	
6.6.1	mac	2023-06-27	08:56:46	09:07:17	628414	5efb49177e130c0785b93842	3	1	main_z	11	main_z	37	stimuli_distractor_trianglediamonds.svg	stimuli_target_diamondsquares.svg	28	yes	44	1	740	0	0			0	0			1				0	
6.6.1	mac	2023-06-27	08:56:46	09:07:17	628414	5efb49177e130c0785b93842	3	1	main_z	11	advance_on_keypress_ZEE	38	stimuli_distractor_trianglediamonds.svg	stimuli_target_diamondsquares.svg	28	yes	57	0	187	0	0			0	0			1				0	
6.6.1	mac	2023-06-27	08:56:46	09:07:18	629747	5efb49177e130c0785b93842	3	1	main_z	11	main_z	39	stimuli_target_trianglesquares.svg	stimuli_distractor_trianglediamonds.svg	18	yes	44	1	503	0	0			0	0			1				0	
6.6.1	mac	2023-06-27	08:56:46	09:07:18	629747	5efb49177e130c0785b93842	3	1	main_z	11	advance_on_keypress_ZEE	40	stimuli_target_trianglesquares.svg	stimuli_distractor_trianglediamonds.svg	18	yes	57	0	151	0	0			0	0			1				0	
6.6.1	mac	2023-06-27	08:56:46	09:07:21	632544	5efb49177e130c0785b93842	3	1	main_z	11	main_z	41	stimuli_target_trianglerectangles.svg	stimuli_distractor_trianglediamonds.svg	17	yes	0	0	2000	0	0			0	0			1				0	
6.6.1	mac	2023-06-27	08:56:46	09:07:21	632544	5efb49177e130c0785b93842	3	1	main_z	11	advance_on_keypress_ZEE	42	stimuli_target_trianglerectangles.svg	stimuli_distractor_trianglediamonds.svg	17	yes	57	0	476	0	0			0	0			1				0	
6.6.1	mac	2023-06-27	08:56:46	09:07:23	634123	5efb49177e130c0785b93842	3	1	main_z	11	main_z	43	stimuli_distractor_trianglediamonds.svg	stimuli_target_rectanglediamonds.svg	10	yes	44	1	474	0	0			0	0			1				0	
6.6.1	mac	2023-06-27	08:56:46	09:07:23	634123	5efb49177e130c0785b93842	3	1	main_z	11	advance_on_keypress_ZEE	44	stimuli_distractor_trianglediamonds.svg	stimuli_target_rectanglediamonds.svg	10	yes	57	0	167	0	0			0	0			1				0	
6.6.1	mac	2023-06-27	08:56:46	09:07:24	635543	5efb49177e130c0785b93842	3	1	main_z	11	main_z	45	stimuli_target_trianglesquares.svg	stimuli_distractor_diamondtriangles.svg	22	yes	44	1	616	0	0			0	0			1				0	
6.6.1	mac	2023-06-27	08:56:46	09:07:24	635543	5efb49177e130c0785b93842	3	1	main_z	11	advance_on_keypress_ZEE	46	stimuli_target_trianglesquares.svg	stimuli_distractor_diamondtriangles.svg	22	yes	57	0	194	0	0			0	0			1				0	
6.6.1	mac	2023-06-27	08:56:46	09:07:25	636864	5efb49177e130c0785b93842	3	1	main_z	11	main_z	47	stimuli_distractor_diamondtriangles.svg	stimuli_target_rectanglediamonds.svg	14	yes	44	1	497	0	0			0	0			1				0	
6.6.1	mac	2023-06-27	08:56:46	09:07:25	636864	5efb49177e130c0785b93842	3	1	main_z	11	advance_on_keypress_ZEE	48	stimuli_distractor_diamondtriangles.svg	stimuli_target_rectanglediamonds.svg	14	yes	57	0	180	0	0			0	0			1				0	
6.6.1	mac	2023-06-27	08:56:46	09:07:27	638125	5efb49177e130c0785b93842	3	1	main_z	11	main_z	49	stimuli_target_squaretriangles.svg	stimuli_distractor_diamondtriangles.svg	7	yes	44	1	434	0	0			0	0			1				0	
6.6.1	mac	2023-06-27	08:56:46	09:07:27	638125	5efb49177e130c0785b93842	3	1	main_z	11	advance_on_keypress_ZEE	50	stimuli_target_squaretriangles.svg	stimuli_distractor_diamondtriangles.svg	7	yes	57	0	116	0	0			0	0			1				0	
6.6.1	mac	2023-06-27	08:56:46	09:07:28	639320	5efb49177e130c0785b93842	3	1	main_z	11	main_z	51	stimuli_distractor_diamondtriangles.svg	stimuli_target_squaretriangles.svg	15	yes	44	1	442	0	0			0	0			1				0	
6.6.1	mac	2023-06-27	08:56:46	09:07:28	639320	5efb49177e130c0785b93842	3	1	main_z	11	advance_on_keypress_ZEE	52	stimuli_distractor_diamondtriangles.svg	stimuli_target_squaretriangles.svg	15	yes	57	0	124	0	0			0	0			1				0	
6.6.1	mac	2023-06-27	08:56:46	09:07:31	642076	5efb49177e130c0785b93842	3	1	main_z	11	main_z	53	stimuli_distractor_diamondtriangles.svg	stimuli_distractor_trianglediamonds.svg	37	no	0	1	2000	0	0			0	0			1				0	
6.6.1	mac	2023-06-27	08:56:46	09:07:31	642076	5efb49177e130c0785b93842	3	1	main_z	11	advance_on_keypress_ZEE	54	stimuli_distractor_diamondtriangles.svg	stimuli_distractor_trianglediamonds.svg	37	no	57	0	566	0	0			0	0			1				0	
6.6.1	mac	2023-06-27	08:56:46	09:07:32	643695	5efb49177e130c0785b93842	3	1	main_z	11	main_z	55	stimuli_distractor_trianglediamonds.svg	stimuli_target_rectangletriangles.svg	9	yes	44	1	411	0	0			0	0			1				0	
6.6.1	mac	2023-06-27	08:56:46	09:07:32	643695	5efb49177e130c0785b93842	3	1	main_z	11	advance_on_keypress_ZEE	56	stimuli_distractor_trianglediamonds.svg	stimuli_target_rectangletriangles.svg	9	yes	57	0	145	0	0			0	0			1				0	
6.6.1	mac	2023-06-27	08:56:46	09:07:34	644928	5efb49177e130c0785b93842	3	1	main_z	11	main_z	57	stimuli_distractor_diamondtriangles.svg	stimuli_target_squarediamonds.svg	16	yes	44	1	449	0	0			0	0			1				0	
6.6.1	mac	2023-06-27	08:56:46	09:07:34	644928	5efb49177e130c0785b93842	3	1	main_z	11	advance_on_keypress_ZEE	58	stimuli_distractor_diamondtriangles.svg	stimuli_target_squarediamonds.svg	16	yes	57	0	149	0	0			0	0			1				0	
6.6.1	mac	2023-06-27	08:56:46	09:07:35	646171	5efb49177e130c0785b93842	3	1	main_z	11	main_z	59	stimuli_target_squaretriangles.svg	stimuli_distractor_trianglediamonds.svg	3	yes	44	1	457	0	0			0	0			1				0	
6.6.1	mac	2023-06-27	08:56:46	09:07:35	646171	5efb49177e130c0785b93842	3	1	main_z	11	advance_on_keypress_ZEE	60	stimuli_target_squaretriangles.svg	stimuli_distractor_trianglediamonds.svg	3	yes	57	0	136	0	0			0	0			1				0	
6.6.1	mac	2023-06-27	08:56:46	09:07:38	648942	5efb49177e130c0785b93842	3	1	main_z	11	main_z	61	stimuli_target_diamondrectangles.svg	stimuli_distractor_diamondtriangles.svg	23	yes	0	0	2000	0	0			0	0			1				0	
6.6.1	mac	2023-06-27	08:56:46	09:07:38	648942	5efb49177e130c0785b93842	3	1	main_z	11	advance_on_keypress_ZEE	62	stimuli_target_diamondrectangles.svg	stimuli_distractor_diamondtriangles.svg	23	yes	57	0	625	0	0			0	0			1				0	
6.6.1	mac	2023-06-27	08:56:46	09:07:39	650587	5efb49177e130c0785b93842	3	1	main_z	11	main_z	63	stimuli_target_rectangletriangles.svg	stimuli_distractor_diamondtriangles.svg	5	yes	44	1	369	0	0			0	0			1				0	
6.6.1	mac	2023-06-27	08:56:46	09:07:39	650587	5efb49177e130c0785b93842	3	1	main_z	11	advance_on_keypress_ZEE	64	stimuli_target_rectangletriangles.svg	stimuli_distractor_diamondtriangles.svg	5	yes	57	0	95	0	0			0	0			1				0	
6.6.1	mac	2023-06-27	08:56:46	09:07:40	651763	5efb49177e130c0785b93842	3	1	main_z	11	main_z	65	stimuli_distractor_trianglediamonds.svg	stimuli_target_squarediamonds.svg	12	yes	44	1	434	0	0			0	0			1				0	
6.6.1	mac	2023-06-27	08:56:46	09:07:40	651763	5efb49177e130c0785b93842	3	1	main_z	11	advance_on_keypress_ZEE	66	stimuli_distractor_trianglediamonds.svg	stimuli_target_squarediamonds.svg	12	yes	57	0	139	0	0			0	0			1				0	
6.6.1	mac	2023-06-27	08:56:46	09:07:42	653115	5efb49177e130c0785b93842	3	1	main_z	11	main_z	67	stimuli_distractor_trianglediamonds.svg	stimuli_target_diamondrectangles.svg	27	yes	44	1	579	0	0			0	0			1				0	
6.6.1	mac	2023-06-27	08:56:46	09:07:42	653115	5efb49177e130c0785b93842	3	1	main_z	11	advance_on_keypress_ZEE	68	stimuli_distractor_trianglediamonds.svg	stimuli_target_diamondrectangles.svg	27	yes	57	0	272	0	0			0	0			1				0	
6.6.1	mac	2023-06-27	08:56:46	09:07:43	654405	5efb49177e130c0785b93842	3	1	main_z	11	main_z	69	stimuli_target_trianglerectangles.svg	stimuli_distractor_diamondtriangles.svg	21	yes	44	1	370	0	0			0	0			1				0	
6.6.1	mac	2023-06-27	08:56:46	09:07:43	654405	5efb49177e130c0785b93842	3	1	main_z	11	advance_on_keypress_ZEE	70	stimuli_target_trianglerectangles.svg	stimuli_distractor_diamondtriangles.svg	21	yes	57	0	218	0	0			0	0			1				0	
6.6.1	mac	2023-06-27	08:56:46	09:07:44	655639	5efb49177e130c0785b93842	3	1	main_z	11	main_z	71	stimuli_target_rectangletriangles.svg	stimuli_distractor_trianglediamonds.svg	1	yes	44	1	374	0	0			0	0			1				0	
6.6.1	mac	2023-06-27	08:56:46	09:07:44	655639	5efb49177e130c0785b93842	3	1	main_z	11	advance_on_keypress_ZEE	72	stimuli_target_rectangletriangles.svg	stimuli_distractor_trianglediamonds.svg	1	yes	57	0	292	0	0			0	0			1				0	
6.6.1	mac	2023-06-27	08:56:46	09:07:46	657062	5efb49177e130c0785b93842	3	1	main_z	11	main_z	73	stimuli_distractor_trianglediamonds.svg	stimuli_target_trianglesquares.svg	26	yes	44	1	495	0	0			0	0			1				0	
6.6.1	mac	2023-06-27	08:56:46	09:07:46	657062	5efb49177e130c0785b93842	3	1	main_z	11	advance_on_keypress_ZEE	74	stimuli_distractor_trianglediamonds.svg	stimuli_target_trianglesquares.svg	26	yes	57	0	137	0	0			0	0			1				0	
6.6.1	mac	2023-06-27	08:56:46	09:07:47	658289	5efb49177e130c0785b93842	3	1	main_z	11	main_z	75	stimuli_distractor_trianglediamonds.svg	stimuli_target_squaretriangles.svg	11	yes	44	1	451	0	0			0	0			1				0	
6.6.1	mac	2023-06-27	08:56:46	09:07:47	658289	5efb49177e130c0785b93842	3	1	main_z	11	advance_on_keypress_ZEE	76	stimuli_distractor_trianglediamonds.svg	stimuli_target_squaretriangles.svg	11	yes	57	0	107	0	0			0	0			1				0	
6.6.1	mac	2023-06-27	08:56:46	09:07:48	659729	5efb49177e130c0785b93842	3	1	main_z	11	main_z	77	stimuli_distractor_diamondtriangles.svg	stimuli_target_diamondrectangles.svg	31	yes	44	1	685	0	0			0	0			1				0	
6.6.1	mac	2023-06-27	08:56:46	09:07:48	659729	5efb49177e130c0785b93842	3	1	main_z	11	advance_on_keypress_ZEE	78	stimuli_distractor_diamondtriangles.svg	stimuli_target_diamondrectangles.svg	31	yes	57	0	129	0	0			0	0			1				0	
6.6.1	mac	2023-06-27	08:56:46	09:07:49	660909	5efb49177e130c0785b93842	3	1	main_z	11	main_z	79	stimuli_distractor_diamondtriangles.svg	stimuli_target_trianglesquares.svg	30	yes	44	1	419	0	0			0	0			1				0	
6.6.1	mac	2023-06-27	08:56:46	09:07:49	660909	5efb49177e130c0785b93842	3	1	main_z	11	advance_on_keypress_ZEE	80	stimuli_distractor_diamondtriangles.svg	stimuli_target_trianglesquares.svg	30	yes	57	0	136	0	0			0	0			1				0	
6.6.1	mac	2023-06-27	08:56:46	09:07:51	662032	5efb49177e130c0785b93842	3	1	main_z	11	main_z	81	stimuli_target_squarediamonds.svg	stimuli_distractor_diamondtriangles.svg	8	yes	44	1	355	0	0			0	0			1				0	
6.6.1	mac	2023-06-27	08:56:46	09:07:51	662032	5efb49177e130c0785b93842	3	1	main_z	11	advance_on_keypress_ZEE	82	stimuli_target_squarediamonds.svg	stimuli_distractor_diamondtriangles.svg	8	yes	57	0	195	0	0			0	0			1				0	
6.6.1	mac	2023-06-27	08:56:46	09:07:52	663394	5efb49177e130c0785b93842	3	1	main_z	11	main_z	83	stimuli_distractor_diamondtriangles.svg	stimuli_target_diamondsquares.svg	32	yes	44	1	533	0	0			0	0			1				0	
6.6.1	mac	2023-06-27	08:56:46	09:07:52	663394	5efb49177e130c0785b93842	3	1	main_z	11	advance_on_keypress_ZEE	84	stimuli_distractor_diamondtriangles.svg	stimuli_target_diamondsquares.svg	32	yes	57	0	165	0	0			0	0			1				0	
6.6.1	mac	2023-06-27	08:56:46	09:07:53	664590	5efb49177e130c0785b93842	3	1	main_z	11	main_z	85	stimuli_distractor_trianglediamonds.svg	stimuli_target_squarediamonds.svg	12	yes	44	1	390	0	0			0	0			1				0	
6.6.1	mac	2023-06-27	08:56:46	09:07:53	664590	5efb49177e130c0785b93842	3	1	main_z	11	advance_on_keypress_ZEE	86	stimuli_distractor_trianglediamonds.svg	stimuli_target_squarediamonds.svg	12	yes	57	0	172	0	0			0	0			1				0	
6.6.1	mac	2023-06-27	08:56:46	09:07:54	665807	5efb49177e130c0785b93842	3	1	main_z	11	main_z	87	stimuli_target_squarediamonds.svg	stimuli_distractor_trianglediamonds.svg	4	yes	44	1	409	0	0			0	0			1				0	
6.6.1	mac	2023-06-27	08:56:46	09:07:54	665807	5efb49177e130c0785b93842	3	1	main_z	11	advance_on_keypress_ZEE	88	stimuli_target_squarediamonds.svg	stimuli_distractor_trianglediamonds.svg	4	yes	57	0	171	0	0			0	0			1				0	
6.6.1	mac	2023-06-27	08:56:46	09:07:56	667007	5efb49177e130c0785b93842	3	1	main_z	11	main_z	89	stimuli_distractor_diamondtriangles.svg	stimuli_target_rectangletriangles.svg	13	yes	44	1	405	0	0			0	0			1				0	
6.6.1	mac	2023-06-27	08:56:46	09:07:56	667007	5efb49177e130c0785b93842	3	1	main_z	11	advance_on_keypress_ZEE	90	stimuli_distractor_diamondtriangles.svg	stimuli_target_rectangletriangles.svg	13	yes	57	0	196	0	0			0	0			1				0	
6.6.1	mac	2023-06-27	08:56:46	09:07:57	668221	5efb49177e130c0785b93842	3	1	main_z	11	main_z	91	stimuli_target_rectangletriangles.svg	stimuli_distractor_diamondtriangles.svg	5	yes	44	1	379	0	0			0	0			1				0	
6.6.1	mac	2023-06-27	08:56:46	09:07:57	668221	5efb49177e130c0785b93842	3	1	main_z	11	advance_on_keypress_ZEE	92	stimuli_target_rectangletriangles.svg	stimuli_distractor_diamondtriangles.svg	5	yes	57	0	152	0	0			0	0			1				0	
6.6.1	mac	2023-06-27	08:56:46	09:07:58	669415	5efb49177e130c0785b93842	3	1	main_z	11	main_z	93	stimuli_distractor_trianglediamonds.svg	stimuli_target_squaretriangles.svg	11	yes	44	1	408	0	0			0	0			1				0	
6.6.1	mac	2023-06-27	08:56:46	09:07:58	669415	5efb49177e130c0785b93842	3	1	main_z	11	advance_on_keypress_ZEE	94	stimuli_distractor_trianglediamonds.svg	stimuli_target_squaretriangles.svg	11	yes	57	0	150	0	0			0	0			1				0	
6.6.1	mac	2023-06-27	08:56:46	09:07:59	670593	5efb49177e130c0785b93842	3	1	main_z	11	main_z	95	stimuli_target_diamondrectangles.svg	stimuli_distractor_trianglediamonds.svg	19	yes	44	1	386	0	0			0	0			1				0	
6.6.1	mac	2023-06-27	08:56:46	09:07:59	670593	5efb49177e130c0785b93842	3	1	main_z	11	advance_on_keypress_ZEE	96	stimuli_target_diamondrectangles.svg	stimuli_distractor_trianglediamonds.svg	19	yes	57	0	371	0	0			0	0			1				0	
6.6.1	mac	2023-06-27	08:56:46	09:08:01	672046	5efb49177e130c0785b93842	3	1	main_z	11	main_z	97	stimuli_target_squaretriangles.svg	stimuli_distractor_trianglediamonds.svg	3	yes	44	1	443	0	0			0	0			1				0	
6.6.1	mac	2023-06-27	08:56:46	09:08:01	672046	5efb49177e130c0785b93842	3	1	main_z	11	advance_on_keypress_ZEE	98	stimuli_target_squaretriangles.svg	stimuli_distractor_trianglediamonds.svg	3	yes	57	0	195	0	0			0	0			1				0	
6.6.1	mac	2023-06-27	08:56:46	09:08:02	673254	5efb49177e130c0785b93842	3	1	main_z	11	main_z	99	stimuli_distractor_trianglediamonds.svg	stimuli_target_rectanglediamonds.svg	10	yes	44	1	363	0	0			0	0			1				0	
6.6.1	mac	2023-06-27	08:56:46	09:08:02	673254	5efb49177e130c0785b93842	3	1	main_z	11	advance_on_keypress_ZEE	100	stimuli_distractor_trianglediamonds.svg	stimuli_target_rectanglediamonds.svg	10	yes	57	0	162	0	0			0	0			1				0	
6.6.1	mac	2023-06-27	08:56:46	09:08:05	676058	5efb49177e130c0785b93842	3	1	main_z	11	main_z	101	stimuli_distractor_trianglediamonds.svg	stimuli_distractor_trianglediamonds.svg	34	no	0	1	2000	0	0			0	0			1				0	
6.6.1	mac	2023-06-27	08:56:46	09:08:05	676058	5efb49177e130c0785b93842	3	1	main_z	11	advance_on_keypress_ZEE	102	stimuli_distractor_trianglediamonds.svg	stimuli_distractor_trianglediamonds.svg	34	no	57	0	518	0	0			0	0			1				0	
6.6.1	mac	2023-06-27	08:56:46	09:08:06	677626	5efb49177e130c0785b93842	3	1	main_z	11	main_z	103	stimuli_distractor_trianglediamonds.svg	stimuli_target_diamondrectangles.svg	27	yes	44	1	413	0	0			0	0			1				0	
6.6.1	mac	2023-06-27	08:56:46	09:08:06	677626	5efb49177e130c0785b93842	3	1	main_z	11	advance_on_keypress_ZEE	104	stimuli_distractor_trianglediamonds.svg	stimuli_target_diamondrectangles.svg	27	yes	57	0	199	0	0			0	0			1				0	
6.6.1	mac	2023-06-27	08:56:46	09:08:09	680461	5efb49177e130c0785b93842	3	1	main_z	11	main_z	105	stimuli_distractor_trianglediamonds.svg	stimuli_distractor_diamondtriangles.svg	35	no	0	1	2000	0	0			0	0			1				0	
6.6.1	mac	2023-06-27	08:56:46	09:08:09	680461	5efb49177e130c0785b93842	3	1	main_z	11	advance_on_keypress_ZEE	106	stimuli_distractor_trianglediamonds.svg	stimuli_distractor_diamondtriangles.svg	35	no	57	0	511	0	0			0	0			1				0	
6.6.1	mac	2023-06-27	08:56:46	09:08:12	683614	5efb49177e130c0785b93842	3	1	main_z	11	main_z	107	stimuli_distractor_trianglediamonds.svg	stimuli_distractor_trianglediamonds.svg	33	no	0	1	2000	0	0			0	0			1				0	
6.6.1	mac	2023-06-27	08:56:46	09:08:12	683614	5efb49177e130c0785b93842	3	1	main_z	11	advance_on_keypress_ZEE	108	stimuli_distractor_trianglediamonds.svg	stimuli_distractor_trianglediamonds.svg	33	no	57	0	446	0	0			0	0			1				0	
6.6.1	mac	2023-06-27	08:56:46	09:08:14	685160	5efb49177e130c0785b93842	3	1	main_z	11	main_z	109	stimuli_target_trianglesquares.svg	stimuli_distractor_diamondtriangles.svg	22	yes	44	1	457	0	0			0	0			1				0	
6.6.1	mac	2023-06-27	08:56:46	09:08:14	685160	5efb49177e130c0785b93842	3	1	main_z	11	advance_on_keypress_ZEE	110	stimuli_target_trianglesquares.svg	stimuli_distractor_diamondtriangles.svg	22	yes	57	0	198	0	0			0	0			1				0	
6.6.1	mac	2023-06-27	08:56:46	09:08:17	687987	5efb49177e130c0785b93842	3	1	main_z	11	main_z	111	stimuli_distractor_diamondtriangles.svg	stimuli_target_rectanglediamonds.svg	14	yes	0	0	2000	0	0			0	0			1				0	
6.6.1	mac	2023-06-27	08:56:46	09:08:17	687987	5efb49177e130c0785b93842	3	1	main_z	11	advance_on_keypress_ZEE	112	stimuli_distractor_diamondtriangles.svg	stimuli_target_rectanglediamonds.svg	14	yes	57	0	579	0	0			0	0			1				0	
6.6.1	mac	2023-06-27	08:56:46	09:08:18	689735	5efb49177e130c0785b93842	3	1	main_z	11	main_z	113	stimuli_distractor_trianglediamonds.svg	stimuli_target_diamondsquares.svg	28	yes	44	1	521	0	0			0	0			1				0	
6.6.1	mac	2023-06-27	08:56:46	09:08:18	689735	5efb49177e130c0785b93842	3	1	main_z	11	advance_on_keypress_ZEE	114	stimuli_distractor_trianglediamonds.svg	stimuli_target_diamondsquares.svg	28	yes	57	0	95	0	0			0	0			1				0	
6.6.1	mac	2023-06-27	08:56:46	09:08:20	690933	5efb49177e130c0785b93842	3	1	main_z	11	main_z	115	stimuli_target_diamondsquares.svg	stimuli_distractor_trianglediamonds.svg	20	yes	44	1	461	0	0			0	0			1				0	
6.6.1	mac	2023-06-27	08:56:46	09:08:20	690933	5efb49177e130c0785b93842	3	1	main_z	11	advance_on_keypress_ZEE	116	stimuli_target_diamondsquares.svg	stimuli_distractor_trianglediamonds.svg	20	yes	57	0	95	0	0			0	0			1				0	
6.6.1	mac	2023-06-27	08:56:46	09:08:21	692055	5efb49177e130c0785b93842	3	1	main_z	11	main_z	117	stimuli_target_squaretriangles.svg	stimuli_distractor_diamondtriangles.svg	7	yes	44	1	393	0	0			0	0			1				0	
6.6.1	mac	2023-06-27	08:56:46	09:08:21	692055	5efb49177e130c0785b93842	3	1	main_z	11	advance_on_keypress_ZEE	118	stimuli_target_squaretriangles.svg	stimuli_distractor_diamondtriangles.svg	7	yes	57	0	200	0	0			0	0			1				0	
6.6.1	mac	2023-06-27	08:56:46	09:08:23	694173	5efb49177e130c0785b93842	3	1	main_z	11	main_z	119	stimuli_target_trianglesquares.svg	stimuli_distractor_trianglediamonds.svg	18	yes	44	1	1279	0	0			0	0			1				0	
6.6.1	mac	2023-06-27	08:56:46	09:08:23	694173	5efb49177e130c0785b93842	3	1	main_z	11	advance_on_keypress_ZEE	120	stimuli_target_trianglesquares.svg	stimuli_distractor_trianglediamonds.svg	18	yes	57	0	332	0	0			0	0			1				0	
6.6.1	mac	2023-06-27	08:56:46	09:08:24	695622	5efb49177e130c0785b93842	3	1	main_z	11	main_z	121	stimuli_target_trianglerectangles.svg	stimuli_distractor_diamondtriangles.svg	21	yes	44	1	478	0	0			0	0			1				0	
6.6.1	mac	2023-06-27	08:56:46	09:08:24	695622	5efb49177e130c0785b93842	3	1	main_z	11	advance_on_keypress_ZEE	122	stimuli_target_trianglerectangles.svg	stimuli_distractor_diamondtriangles.svg	21	yes	57	0	85	0	0			0	0			1				0	
6.6.1	mac	2023-06-27	08:56:46	09:08:27	698340	5efb49177e130c0785b93842	3	1	main_z	11	main_z	123	stimuli_distractor_trianglediamonds.svg	stimuli_target_rectangletriangles.svg	9	yes	0	0	2000	0	0			0	0			1				0	
6.6.1	mac	2023-06-27	08:56:46	09:08:27	698340	5efb49177e130c0785b93842	3	1	main_z	11	advance_on_keypress_ZEE	124	stimuli_distractor_trianglediamonds.svg	stimuli_target_rectangletriangles.svg	9	yes	57	0	790	0	0			0	0			1				0	
6.6.1	mac	2023-06-27	08:56:46	09:08:30	701778	5efb49177e130c0785b93842	3	1	main_z	11	main_z	125	stimuli_distractor_diamondtriangles.svg	stimuli_distractor_trianglediamonds.svg	38	no	0	1	2000	0	0			0	0			1				0	
6.6.1	mac	2023-06-27	08:56:46	09:08:30	701778	5efb49177e130c0785b93842	3	1	main_z	11	advance_on_keypress_ZEE	126	stimuli_distractor_diamondtriangles.svg	stimuli_distractor_trianglediamonds.svg	38	no	57	0	330	0	0			0	0			1				0	
6.6.1	mac	2023-06-27	08:56:46	09:08:32	703193	5efb49177e130c0785b93842	3	1	main_z	11	main_z	127	stimuli_target_rectanglediamonds.svg	stimuli_distractor_diamondtriangles.svg	6	yes	44	1	443	0	0			0	0			1				0	
6.6.1	mac	2023-06-27	08:56:46	09:08:32	703193	5efb49177e130c0785b93842	3	1	main_z	11	advance_on_keypress_ZEE	128	stimuli_target_rectanglediamonds.svg	stimuli_distractor_diamondtriangles.svg	6	yes	57	0	97	0	0			0	0			1				0	
6.6.1	mac	2023-06-27	08:56:46	09:08:33	704416	5efb49177e130c0785b93842	3	1	main_z	11	main_z	129	stimuli_distractor_diamondtriangles.svg	stimuli_target_diamondrectangles.svg	31	yes	44	1	483	0	0			0	0			1				0	
6.6.1	mac	2023-06-27	08:56:46	09:08:33	704416	5efb49177e130c0785b93842	3	1	main_z	11	advance_on_keypress_ZEE	130	stimuli_distractor_diamondtriangles.svg	stimuli_target_diamondrectangles.svg	31	yes	57	0	177	0	0			0	0			1				0	
6.6.1	mac	2023-06-27	08:56:46	09:08:34	705612	5efb49177e130c0785b93842	3	1	main_z	11	main_z	131	stimuli_distractor_diamondtriangles.svg	stimuli_target_trianglerectangles.svg	29	yes	44	1	387	0	0			0	0			1				0	
6.6.1	mac	2023-06-27	08:56:46	09:08:34	705612	5efb49177e130c0785b93842	3	1	main_z	11	advance_on_keypress_ZEE	132	stimuli_distractor_diamondtriangles.svg	stimuli_target_trianglerectangles.svg	29	yes	57	0	163	0	0			0	0			1				0	
6.6.1	mac	2023-06-27	08:56:46	09:08:37	708018	5efb49177e130c0785b93842	3	1	main_z	11	main_z	133	stimuli_target_trianglerectangles.svg	stimuli_distractor_trianglediamonds.svg	17	yes	44	1	1591	0	0			0	0			1				0	
6.6.1	mac	2023-06-27	08:56:46	09:08:37	708018	5efb49177e130c0785b93842	3	1	main_z	11	advance_on_keypress_ZEE	134	stimuli_target_trianglerectangles.svg	stimuli_distractor_trianglediamonds.svg	17	yes	57	0	95	0	0			0	0			1				0	
6.6.1	mac	2023-06-27	08:56:46	09:08:38	709777	5efb49177e130c0785b93842	3	1	main_z	11	main_z	135	stimuli_distractor_diamondtriangles.svg	stimuli_distractor_trianglediamonds.svg	37	no	44	0	1026	0	0			0	0			1				0	
6.6.1	mac	2023-06-27	08:56:46	09:08:38	709777	5efb49177e130c0785b93842	3	1	main_z	11	advance_on_keypress_ZEE	136	stimuli_distractor_diamondtriangles.svg	stimuli_distractor_trianglediamonds.svg	37	no	57	0	118	0	0			0	0			1				0	
6.6.1	mac	2023-06-27	08:56:46	09:08:40	710973	5efb49177e130c0785b93842	3	1	main_z	11	main_z	137	stimuli_target_diamondrectangles.svg	stimuli_distractor_diamondtriangles.svg	23	yes	44	1	447	0	0			0	0			1				0	
6.6.1	mac	2023-06-27	08:56:46	09:08:40	710973	5efb49177e130c0785b93842	3	1	main_z	11	advance_on_keypress_ZEE	138	stimuli_target_diamondrectangles.svg	stimuli_distractor_diamondtriangles.svg	23	yes	57	0	102	0	0			0	0			1				0	
6.6.1	mac	2023-06-27	08:56:46	09:08:41	712104	5efb49177e130c0785b93842	3	1	main_z	11	main_z	139	stimuli_distractor_trianglediamonds.svg	stimuli_distractor_diamondtriangles.svg	36	no	44	0	396	0	0			0	0			1				0	
6.6.1	mac	2023-06-27	08:56:46	09:08:41	712104	5efb49177e130c0785b93842	3	1	main_z	11	advance_on_keypress_ZEE	140	stimuli_distractor_trianglediamonds.svg	stimuli_distractor_diamondtriangles.svg	36	no	57	0	160	0	0			0	0			1				0	
6.6.1	mac	2023-06-27	08:56:46	09:08:43	714903	5efb49177e130c0785b93842	3	1	main_z	11	main_z	141	stimuli_distractor_diamondtriangles.svg	stimuli_distractor_diamondtriangles.svg	40	no	0	1	2000	0	0			0	0			1				0	
6.6.1	mac	2023-06-27	08:56:46	09:08:43	714903	5efb49177e130c0785b93842	3	1	main_z	11	advance_on_keypress_ZEE	142	stimuli_distractor_diamondtriangles.svg	stimuli_distractor_diamondtriangles.svg	40	no	57	0	536	0	0			0	0			1				0	
6.6.1	mac	2023-06-27	08:56:46	09:08:45	716579	5efb49177e130c0785b93842	3	1	main_z	11	main_z	143	stimuli_distractor_trianglediamonds.svg	stimuli_target_trianglesquares.svg	26	yes	44	1	508	0	0			0	0			1				0	
6.6.1	mac	2023-06-27	08:56:46	09:08:45	716579	5efb49177e130c0785b93842	3	1	main_z	11	advance_on_keypress_ZEE	144	stimuli_distractor_trianglediamonds.svg	stimuli_target_trianglesquares.svg	26	yes	57	0	87	0	0			0	0			1				0	
6.6.1	mac	2023-06-27	08:56:46	09:08:46	717811	5efb49177e130c0785b93842	3	1	main_z	11	main_z	145	stimuli_target_diamondsquares.svg	stimuli_distractor_diamondtriangles.svg	24	yes	44	1	512	0	0			0	0			1				0	
6.6.1	mac	2023-06-27	08:56:46	09:08:46	717811	5efb49177e130c0785b93842	3	1	main_z	11	advance_on_keypress_ZEE	146	stimuli_target_diamondsquares.svg	stimuli_distractor_diamondtriangles.svg	24	yes	57	0	112	0	0			0	0			1				0	
6.6.1	mac	2023-06-27	08:56:46	09:08:49	720567	5efb49177e130c0785b93842	3	1	main_z	11	main_z	147	stimuli_target_rectanglediamonds.svg	stimuli_distractor_trianglediamonds.svg	2	yes	0	0	2000	0	0			0	0			1				0	
6.6.1	mac	2023-06-27	08:56:46	09:08:49	720567	5efb49177e130c0785b93842	3	1	main_z	11	advance_on_keypress_ZEE	148	stimuli_target_rectanglediamonds.svg	stimuli_distractor_trianglediamonds.svg	2	yes	57	0	464	0	0			0	0			1				0	
6.6.1	mac	2023-06-27	08:56:46	09:08:51	722215	5efb49177e130c0785b93842	3	1	main_z	11	main_z	149	stimuli_distractor_trianglediamonds.svg	stimuli_target_trianglerectangles.svg	25	yes	44	1	553	0	0			0	0			1				0	
6.6.1	mac	2023-06-27	08:56:46	09:08:51	722215	5efb49177e130c0785b93842	3	1	main_z	11	advance_on_keypress_ZEE	150	stimuli_distractor_trianglediamonds.svg	stimuli_target_trianglerectangles.svg	25	yes	57	0	150	0	0			0	0			1				0	
6.6.1	mac	2023-06-27	08:56:46	09:08:52	723539	5efb49177e130c0785b93842	3	1	main_z	11	main_z	151	stimuli_distractor_diamondtriangles.svg	stimuli_target_trianglesquares.svg	30	yes	44	1	532	0	0			0	0			1				0	
6.6.1	mac	2023-06-27	08:56:46	09:08:52	723539	5efb49177e130c0785b93842	3	1	main_z	11	advance_on_keypress_ZEE	152	stimuli_distractor_diamondtriangles.svg	stimuli_target_trianglesquares.svg	30	yes	57	0	151	0	0			0	0			1				0	
6.6.1	mac	2023-06-27	08:56:46	09:08:55	726328	5efb49177e130c0785b93842	3	1	main_z	11	main_z	153	stimuli_distractor_diamondtriangles.svg	stimuli_distractor_diamondtriangles.svg	39	no	0	1	2000	0	0			0	0			1				0	
6.6.1	mac	2023-06-27	08:56:46	09:08:55	726328	5efb49177e130c0785b93842	3	1	main_z	11	advance_on_keypress_ZEE	154	stimuli_distractor_diamondtriangles.svg	stimuli_distractor_diamondtriangles.svg	39	no	57	0	508	0	0			0	0			1				0	
6.6.1	mac	2023-06-27	08:56:46	09:08:58	729466	5efb49177e130c0785b93842	3	1	main_z	11	main_z	155	stimuli_target_rectangletriangles.svg	stimuli_distractor_trianglediamonds.svg	1	yes	0	0	2000	0	0			0	0			1				0	
6.6.1	mac	2023-06-27	08:56:46	09:08:58	729466	5efb49177e130c0785b93842	3	1	main_z	11	advance_on_keypress_ZEE	156	stimuli_target_rectangletriangles.svg	stimuli_distractor_trianglediamonds.svg	1	yes	57	0	412	0	0			0	0			1				0	
6.6.1	mac	2023-06-27	08:56:46	09:09:00	731480	5efb49177e130c0785b93842	3	1	main_z	11	main_z	157	stimuli_distractor_diamondtriangles.svg	stimuli_target_squaretriangles.svg	15	yes	44	1	969	0	0			0	0			1				0	
6.6.1	mac	2023-06-27	08:56:46	09:09:00	731480	5efb49177e130c0785b93842	3	1	main_z	11	advance_on_keypress_ZEE	158	stimuli_distractor_diamondtriangles.svg	stimuli_target_squaretriangles.svg	15	yes	57	0	183	0	0			0	0			1				0	
6.6.1	mac	2023-06-27	08:56:46	09:09:01	732721	5efb49177e130c0785b93842	3	1	main_z	11	main_z	159	stimuli_distractor_diamondtriangles.svg	stimuli_target_squarediamonds.svg	16	yes	44	1	418	0	0			0	0			1				0	
6.6.1	mac	2023-06-27	08:56:46	09:09:01	732721	5efb49177e130c0785b93842	3	1	main_z	11	advance_on_keypress_ZEE	160	stimuli_distractor_diamondtriangles.svg	stimuli_target_squarediamonds.svg	16	yes	57	0	146	0	0			0	0			1				0	
6.6.1	mac	2023-06-27	08:56:46	09:09:01	732721	5efb49177e130c0785b93842	3	1	headphonecheck_calibration	14	headphonecheck_calibrationIntro	1	stimuli_distractor_diamondtriangles.svg	stimuli_target_squarediamonds.svg	16	yes	calibrationButton	0	3325	0	0			0	0			1				0	
6.6.1	mac	2023-06-27	08:56:46	09:09:01	732721	5efb49177e130c0785b93842	3	1	headphonecheck_testphase	15	test_collectResponse	3	stimuli_distractor_diamondtriangles.svg	stimuli_target_squarediamonds.svg	16	yes	second	0	7311	1	2	antiphase_hc_ios.wav	3	0	0			1				0	
6.6.1	mac	2023-06-27	08:56:46	09:09:01	732721	5efb49177e130c0785b93842	3	1	headphonecheck_testphase	15	test_collectResponse	6	stimuli_distractor_diamondtriangles.svg	stimuli_target_squarediamonds.svg	16	yes	second	1	133	2	1	antiphase_hc_iso.wav	2	0	0			1				0	
6.6.1	mac	2023-06-27	08:56:46	09:09:01	732721	5efb49177e130c0785b93842	3	1	headphonecheck_testphase	15	test_collectResponse	9	stimuli_distractor_diamondtriangles.svg	stimuli_target_squarediamonds.svg	16	yes	first	1	185	3	3	antiphase_hc_soi.wav	1	0	0			1				0	
6.6.1	mac	2023-06-27	08:56:46	09:09:01	732721	5efb49177e130c0785b93842	3	1	headphonecheck_testphase	15	test_collectResponse	12	stimuli_distractor_diamondtriangles.svg	stimuli_target_squarediamonds.svg	16	yes	second	1	791	4	5	antiphase_hc_osi.wav	2	0	0			1				0	
6.6.1	mac	2023-06-27	08:56:46	09:09:01	732721	5efb49177e130c0785b93842	3	1	headphonecheck_testphase	15	test_collectResponse	15	stimuli_distractor_diamondtriangles.svg	stimuli_target_squarediamonds.svg	16	yes	third	1	232	5	6	antiphase_hc_ois.wav	3	0	0			1				0	
6.6.1	mac	2023-06-27	08:56:46	09:09:01	732721	5efb49177e130c0785b93842	3	1	headphonecheck_testphase	15	test_collectResponse	18	stimuli_distractor_diamondtriangles.svg	stimuli_target_squarediamonds.svg	16	yes	third	0	89	6	4	antiphase_hc_sio.wav	1	0	0			1				0	
6.6.1	mac	2023-06-27	08:56:46	09:09:01	732721	5efb49177e130c0785b93842	3	1	stereocheck_calibration	17	stereocheck_calibrationIntro	1	stimuli_distractor_diamondtriangles.svg	stimuli_target_squarediamonds.svg	16	yes	stereocheck_calibrationButton	0	1917	6	4	antiphase_hc_sio.wav	1	0	0			1				0	
6.6.1	mac	2023-06-27	08:56:46	09:09:01	732721	5efb49177e130c0785b93842	3	1	stereocheck_testphase	18	stereocheck_test_collectResponse	3	stimuli_distractor_diamondtriangles.svg	stimuli_target_squarediamonds.svg	16	yes	stereocheck_right	1	315	6	4	antiphase_hc_sio.wav	1	1	6	noise_calib_stim_RIGHT.wav	2	1				0	
6.6.1	mac	2023-06-27	08:56:46	09:09:01	732721	5efb49177e130c0785b93842	3	1	stereocheck_testphase	18	stereocheck_test_collectResponse	6	stimuli_distractor_diamondtriangles.svg	stimuli_target_squarediamonds.svg	16	yes	stereocheck_left	1	199	6	4	antiphase_hc_sio.wav	1	2	1	noise_calib_stim_LEFT.wav	1	1				0	
6.6.1	mac	2023-06-27	08:56:46	09:09:01	732721	5efb49177e130c0785b93842	3	1	stereocheck_testphase	18	stereocheck_test_collectResponse	9	stimuli_distractor_diamondtriangles.svg	stimuli_target_squarediamonds.svg	16	yes	stereocheck_right	1	301	6	4	antiphase_hc_sio.wav	1	3	5	noise_calib_stim_RIGHT.wav	2	1				0	
6.6.1	mac	2023-06-27	08:56:46	09:09:01	732721	5efb49177e130c0785b93842	3	1	stereocheck_testphase	18	stereocheck_test_collectResponse	12	stimuli_distractor_diamondtriangles.svg	stimuli_target_squarediamonds.svg	16	yes	stereocheck_left	1	173	6	4	antiphase_hc_sio.wav	1	4	3	noise_calib_stim_LEFT.wav	1	1				0	
6.6.1	mac	2023-06-27	08:56:46	09:09:01	732721	5efb49177e130c0785b93842	3	1	stereocheck_testphase	18	stereocheck_test_collectResponse	15	stimuli_distractor_diamondtriangles.svg	stimuli_target_squarediamonds.svg	16	yes	stereocheck_left	1	1860	6	4	antiphase_hc_sio.wav	1	5	2	noise_calib_stim_LEFT.wav	1	1				0	
6.6.1	mac	2023-06-27	08:56:46	09:09:01	732721	5efb49177e130c0785b93842	3	1	stereocheck_testphase	18	stereocheck_test_collectResponse	18	stimuli_distractor_diamondtriangles.svg	stimuli_target_squarediamonds.svg	16	yes	stereocheck_right	1	159	6	4	antiphase_hc_sio.wav	1	6	4	noise_calib_stim_RIGHT.wav	2	1				0	
6.6.1	mac	2023-06-27	08:56:46	09:09:01	732721	5efb49177e130c0785b93842	3	1	DL_practice	21	DL_practice	2	stimuli_distractor_diamondtriangles.svg	stimuli_target_squarediamonds.svg	16	yes	da	1	816	6	4	antiphase_hc_sio.wav	1	6	4	noise_calib_stim_RIGHT.wav	2	8	blb_dichoticlistening_da-da.mp3	da	da	0	left
6.6.1	mac	2023-06-27	08:56:46	09:09:01	732721	5efb49177e130c0785b93842	3	1	DL_practice	21	DL_practice	3	stimuli_distractor_diamondtriangles.svg	stimuli_target_squarediamonds.svg	16	yes	ba	1	867	6	4	antiphase_hc_sio.wav	1	6	4	noise_calib_stim_RIGHT.wav	2	1	blb_dichoticlistening_ba-ba.mp3	ba	ba	0	left
6.6.1	mac	2023-06-27	08:56:46	09:09:01	732721	5efb49177e130c0785b93842	3	1	DL_practice	21	DL_practice	4	stimuli_distractor_diamondtriangles.svg	stimuli_target_squarediamonds.svg	16	yes	ka	1	867	6	4	antiphase_hc_sio.wav	1	6	4	noise_calib_stim_RIGHT.wav	2	23	blb_dichoticlistening_ka-pa.mp3	ka	pa	1	left
6.6.1	mac	2023-06-27	08:56:46	09:09:01	732721	5efb49177e130c0785b93842	3	1	DL_practice	21	DL_practice	5	stimuli_distractor_diamondtriangles.svg	stimuli_target_squarediamonds.svg	16	yes	ga	1	1042	6	4	antiphase_hc_sio.wav	1	6	4	noise_calib_stim_RIGHT.wav	2	18	blb_dichoticlistening_ga-ta.mp3	ga	ta	1	left
6.6.1	mac	2023-06-27	08:56:46	09:09:01	732721	5efb49177e130c0785b93842	3	1	DL_practice	21	DL_practice	6	stimuli_distractor_diamondtriangles.svg	stimuli_target_squarediamonds.svg	16	yes	ka	1	852	6	4	antiphase_hc_sio.wav	1	6	4	noise_calib_stim_RIGHT.wav	2	22	blb_dichoticlistening_ka-ka.mp3	ka	ka	0	left
6.6.1	mac	2023-06-27	08:56:46	09:09:01	732721	5efb49177e130c0785b93842	3	1	DL_practice	21	DL_practice	7	stimuli_distractor_diamondtriangles.svg	stimuli_target_squarediamonds.svg	16	yes	da	1	899	6	4	antiphase_hc_sio.wav	1	6	4	noise_calib_stim_RIGHT.wav	2	7	blb_dichoticlistening_da-ba.mp3	da	ba	1	left
6.6.1	mac	2023-06-27	08:56:46	09:09:01	732721	5efb49177e130c0785b93842	3	1	DL_practice	21	DL_practice	8	stimuli_distractor_diamondtriangles.svg	stimuli_target_squarediamonds.svg	16	yes	ta	1	1854	6	4	antiphase_hc_sio.wav	1	6	4	noise_calib_stim_RIGHT.wav	2	36	blb_dichoticlistening_ta-ta.mp3	ta	ta	0	left
6.6.1	mac	2023-06-27	08:56:46	09:09:01	732721	5efb49177e130c0785b93842	3	1	DL_practice	21	DL_practice	9	stimuli_distractor_diamondtriangles.svg	stimuli_target_squarediamonds.svg	16	yes	pa	1	1463	6	4	antiphase_hc_sio.wav	1	6	4	noise_calib_stim_RIGHT.wav	2	29	blb_dichoticlistening_pa-pa.mp3	pa	pa	0	left
6.6.1	mac	2023-06-27	08:56:46	09:09:01	732721	5efb49177e130c0785b93842	3	1	DL_practice	21	DL_practice	10	stimuli_distractor_diamondtriangles.svg	stimuli_target_squarediamonds.svg	16	yes	ga	1	595	6	4	antiphase_hc_sio.wav	1	6	4	noise_calib_stim_RIGHT.wav	2	15	blb_dichoticlistening_ga-ga.mp3	ga	ga	0	left
6.6.1	mac	2023-06-27	08:56:46	09:09:01	732721	5efb49177e130c0785b93842	3	1	DL_test	23	DL_test	1	stimuli_distractor_diamondtriangles.svg	stimuli_target_squarediamonds.svg	16	yes	ba	1	1515	6	4	antiphase_hc_sio.wav	1	6	4	noise_calib_stim_RIGHT.wav	2	31	blb_dichoticlistening_ta-ba.mp3	ta	ba	1	right
6.6.1	mac	2023-06-27	08:56:46	09:09:01	732721	5efb49177e130c0785b93842	3	1	DL_test	23	DL_test	2	stimuli_distractor_diamondtriangles.svg	stimuli_target_squarediamonds.svg	16	yes	ba	1	676	6	4	antiphase_hc_sio.wav	1	6	4	noise_calib_stim_RIGHT.wav	2	5	blb_dichoticlistening_ba-pa.mp3	ba	pa	1	left
6.6.1	mac	2023-06-27	08:56:46	09:09:01	732721	5efb49177e130c0785b93842	3	1	DL_test	23	DL_test	3	stimuli_distractor_diamondtriangles.svg	stimuli_target_squarediamonds.svg	16	yes	ka	1	904	6	4	antiphase_hc_sio.wav	1	6	4	noise_calib_stim_RIGHT.wav	2	34	blb_dichoticlistening_ta-ka.mp3	ta	ka	1	right
6.6.1	mac	2023-06-27	08:56:46	09:09:01	732721	5efb49177e130c0785b93842	3	1	DL_test	23	DL_test	4	stimuli_distractor_diamondtriangles.svg	stimuli_target_squarediamonds.svg	16	yes	ka	1	792	6	4	antiphase_hc_sio.wav	1	6	4	noise_calib_stim_RIGHT.wav	2	4	blb_dichoticlistening_ba-ka.mp3	ba	ka	1	right
6.6.1	mac	2023-06-27	08:56:46	09:09:01	732721	5efb49177e130c0785b93842	3	1	DL_test	23	DL_test	5	stimuli_distractor_diamondtriangles.svg	stimuli_target_squarediamonds.svg	16	yes	ga	1	643	6	4	antiphase_hc_sio.wav	1	6	4	noise_calib_stim_RIGHT.wav	2	14	blb_dichoticlistening_ga-da.mp3	ga	da	1	left
6.6.1	mac	2023-06-27	08:56:46	09:09:01	732721	5efb49177e130c0785b93842	3	1	DL_test	23	DL_test	6	stimuli_distractor_diamondtriangles.svg	stimuli_target_squarediamonds.svg	16	yes	ka	1	875	6	4	antiphase_hc_sio.wav	1	6	4	noise_calib_stim_RIGHT.wav	2	23	blb_dichoticlistening_ka-pa.mp3	ka	pa	1	left
6.6.1	mac	2023-06-27	08:56:46	09:09:01	732721	5efb49177e130c0785b93842	3	1	DL_test	23	DL_test	7	stimuli_distractor_diamondtriangles.svg	stimuli_target_squarediamonds.svg	16	yes	pa	1	1019	6	4	antiphase_hc_sio.wav	1	6	4	noise_calib_stim_RIGHT.wav	2	29	blb_dichoticlistening_pa-pa.mp3	pa	pa	0	left
6.6.1	mac	2023-06-27	08:56:46	09:09:01	732721	5efb49177e130c0785b93842	3	1	DL_test	23	DL_test	8	stimuli_distractor_diamondtriangles.svg	stimuli_target_squarediamonds.svg	16	yes	ta	1	936	6	4	antiphase_hc_sio.wav	1	6	4	noise_calib_stim_RIGHT.wav	2	30	blb_dichoticlistening_pa-ta.mp3	pa	ta	1	right
6.6.1	mac	2023-06-27	08:56:46	09:09:01	732721	5efb49177e130c0785b93842	3	1	DL_test	23	DL_test	9	stimuli_distractor_diamondtriangles.svg	stimuli_target_squarediamonds.svg	16	yes	da	0	1034	6	4	antiphase_hc_sio.wav	1	6	4	noise_calib_stim_RIGHT.wav	2	25	blb_dichoticlistening_pa-ba.mp3	pa	ba	1	other
6.6.1	mac	2023-06-27	08:56:46	09:09:01	732721	5efb49177e130c0785b93842	3	1	DL_test	23	DL_test	10	stimuli_distractor_diamondtriangles.svg	stimuli_target_squarediamonds.svg	16	yes	ga	1	778	6	4	antiphase_hc_sio.wav	1	6	4	noise_calib_stim_RIGHT.wav	2	18	blb_dichoticlistening_ga-ta.mp3	ga	ta	1	left
6.6.1	mac	2023-06-27	08:56:46	09:09:01	732721	5efb49177e130c0785b93842	3	1	DL_test	23	DL_test	11	stimuli_distractor_diamondtriangles.svg	stimuli_target_squarediamonds.svg	16	yes	ta	1	1284	6	4	antiphase_hc_sio.wav	1	6	4	noise_calib_stim_RIGHT.wav	2	35	blb_dichoticlistening_ta-pa.mp3	ta	pa	1	left
6.6.1	mac	2023-06-27	08:56:46	09:09:01	732721	5efb49177e130c0785b93842	3	1	DL_test	23	DL_test	12	stimuli_distractor_diamondtriangles.svg	stimuli_target_squarediamonds.svg	16	yes	ta	1	1868	6	4	antiphase_hc_sio.wav	1	6	4	noise_calib_stim_RIGHT.wav	2	6	blb_dichoticlistening_ba-ta.mp3	ba	ta	1	right
6.6.1	mac	2023-06-27	08:56:46	09:09:01	732721	5efb49177e130c0785b93842	3	1	DL_test	23	DL_test	13	stimuli_distractor_diamondtriangles.svg	stimuli_target_squarediamonds.svg	16	yes	ga	0	1350	6	4	antiphase_hc_sio.wav	1	6	4	noise_calib_stim_RIGHT.wav	2	20	blb_dichoticlistening_ka-da.mp3	ka	da	1	other
6.6.1	mac	2023-06-27	08:56:46	09:09:01	732721	5efb49177e130c0785b93842	3	1	DL_test	23	DL_test	14	stimuli_distractor_diamondtriangles.svg	stimuli_target_squarediamonds.svg	16	yes	ka	1	736	6	4	antiphase_hc_sio.wav	1	6	4	noise_calib_stim_RIGHT.wav	2	24	blb_dichoticlistening_ka-ta.mp3	ka	ta	1	left
6.6.1	mac	2023-06-27	08:56:46	09:09:01	732721	5efb49177e130c0785b93842	3	1	DL_test	23	DL_test	15	stimuli_distractor_diamondtriangles.svg	stimuli_target_squarediamonds.svg	16	yes	ga	1	591	6	4	antiphase_hc_sio.wav	1	6	4	noise_calib_stim_RIGHT.wav	2	16	blb_dichoticlistening_ga-ka.mp3	ga	ka	1	left
6.6.1	mac	2023-06-27	08:56:46	09:09:01	732721	5efb49177e130c0785b93842	3	1	DL_test	23	DL_test	16	stimuli_distractor_diamondtriangles.svg	stimuli_target_squarediamonds.svg	16	yes	da	1	1019	6	4	antiphase_hc_sio.wav	1	6	4	noise_calib_stim_RIGHT.wav	2	10	blb_dichoticlistening_da-ka.mp3	da	ka	1	left
6.6.1	mac	2023-06-27	08:56:46	09:09:01	732721	5efb49177e130c0785b93842	3	1	DL_test	23	DL_test	17	stimuli_distractor_diamondtriangles.svg	stimuli_target_squarediamonds.svg	16	yes	da	1	903	6	4	antiphase_hc_sio.wav	1	6	4	noise_calib_stim_RIGHT.wav	2	32	blb_dichoticlistening_ta-da.mp3	ta	da	1	right
6.6.1	mac	2023-06-27	08:56:46	09:09:01	732721	5efb49177e130c0785b93842	3	1	DL_test	23	DL_test	18	stimuli_distractor_diamondtriangles.svg	stimuli_target_squarediamonds.svg	16	yes	ta	1	1478	6	4	antiphase_hc_sio.wav	1	6	4	noise_calib_stim_RIGHT.wav	2	36	blb_dichoticlistening_ta-ta.mp3	ta	ta	0	left
6.6.1	mac	2023-06-27	08:56:46	09:09:01	732721	5efb49177e130c0785b93842	3	1	DL_test	23	DL_test	19	stimuli_distractor_diamondtriangles.svg	stimuli_target_squarediamonds.svg	16	yes	ba	1	1048	6	4	antiphase_hc_sio.wav	1	6	4	noise_calib_stim_RIGHT.wav	2	13	blb_dichoticlistening_ga-ba.mp3	ga	ba	1	right
6.6.1	mac	2023-06-27	08:56:46	09:09:01	732721	5efb49177e130c0785b93842	3	1	DL_test	23	DL_test	20	stimuli_distractor_diamondtriangles.svg	stimuli_target_squarediamonds.svg	16	yes	da	1	699	6	4	antiphase_hc_sio.wav	1	6	4	noise_calib_stim_RIGHT.wav	2	11	blb_dichoticlistening_da-pa.mp3	da	pa	1	left
6.6.1	mac	2023-06-27	08:56:46	09:09:01	732721	5efb49177e130c0785b93842	3	1	DL_test	23	DL_test	21	stimuli_distractor_diamondtriangles.svg	stimuli_target_squarediamonds.svg	16	yes	ka	1	1076	6	4	antiphase_hc_sio.wav	1	6	4	noise_calib_stim_RIGHT.wav	2	19	blb_dichoticlistening_ka-ba.mp3	ka	ba	1	left
6.6.1	mac	2023-06-27	08:56:46	09:09:01	732721	5efb49177e130c0785b93842	3	1	DL_test	23	DL_test	22	stimuli_distractor_diamondtriangles.svg	stimuli_target_squarediamonds.svg	16	yes	ka	1	467	6	4	antiphase_hc_sio.wav	1	6	4	noise_calib_stim_RIGHT.wav	2	22	blb_dichoticlistening_ka-ka.mp3	ka	ka	0	left
6.6.1	mac	2023-06-27	08:56:46	09:09:01	732721	5efb49177e130c0785b93842	3	1	DL_test	23	DL_test	23	stimuli_distractor_diamondtriangles.svg	stimuli_target_squarediamonds.svg	16	yes	ba	1	1644	6	4	antiphase_hc_sio.wav	1	6	4	noise_calib_stim_RIGHT.wav	2	1	blb_dichoticlistening_ba-ba.mp3	ba	ba	0	left
6.6.1	mac	2023-06-27	08:56:46	09:09:01	732721	5efb49177e130c0785b93842	3	1	DL_test	23	DL_test	24	stimuli_distractor_diamondtriangles.svg	stimuli_target_squarediamonds.svg	16	yes	ka	1	832	6	4	antiphase_hc_sio.wav	1	6	4	noise_calib_stim_RIGHT.wav	2	21	blb_dichoticlistening_ka-ga.mp3	ka	ga	1	left
6.6.1	mac	2023-06-27	08:56:46	09:09:01	732721	5efb49177e130c0785b93842	3	1	DL_test	23	DL_test	25	stimuli_distractor_diamondtriangles.svg	stimuli_target_squarediamonds.svg	16	yes	ga	1	608	6	4	antiphase_hc_sio.wav	1	6	4	noise_calib_stim_RIGHT.wav	2	27	blb_dichoticlistening_pa-ga.mp3	pa	ga	1	right
6.6.1	mac	2023-06-27	08:56:46	09:09:01	732721	5efb49177e130c0785b93842	3	1	DL_test	23	DL_test	26	stimuli_distractor_diamondtriangles.svg	stimuli_target_squarediamonds.svg	16	yes	ga	1	1041	6	4	antiphase_hc_sio.wav	1	6	4	noise_calib_stim_RIGHT.wav	2	9	blb_dichoticlistening_da-ga.mp3	da	ga	1	right
