build	computer.platform	date	time	timestamp	time_elapsed_ms	subject	group	session	blockcode	blocknum	trialcode	trialnum	stimulus_left	stimulus_right	stim_index	target_present	response	correct	latency	headphonecheck_countTestTrials	headphonecheck_index	headphonecheck_testSound	headphonecheck_correctResponse	stereocheck_countTestTrials	stereocheck_index	stereocheck_testSound	stereocheck_correctResponse	DL_index	DL_soundfile	DL_leftSound	DL_rightSound	DL_dualSound	DL_choice
6.6.1	win	2023-06-02	09:08:54	09:53:07	2641237	63d6d8e21745f34be8ce7c35	3	1	practice_slash	5	practice_slash	1	stimuli_distractor_trianglediamonds.svg	stimuli_target_rectanglediamonds.svg	10	yes	0	0	2000	0	0			0	0			1				0	
6.6.1	win	2023-06-02	09:08:54	09:53:07	2641237	63d6d8e21745f34be8ce7c35	3	1	practice_slash	5	advance_on_keypress_SLASH	2	stimuli_distractor_trianglediamonds.svg	stimuli_target_rectanglediamonds.svg	10	yes	57	0	902	0	0			0	0			1				0	
6.6.1	win	2023-06-02	09:08:54	09:53:11	2645549	63d6d8e21745f34be8ce7c35	3	1	practice_slash	5	practice_slash	3	stimuli_distractor_diamondtriangles.svg	stimuli_target_diamondrectangles.svg	8	yes	53	1	1763	0	0			0	0			1				0	
6.6.1	win	2023-06-02	09:08:54	09:53:11	2645549	63d6d8e21745f34be8ce7c35	3	1	practice_slash	5	advance_on_keypress_SLASH	4	stimuli_distractor_diamondtriangles.svg	stimuli_target_diamondrectangles.svg	8	yes	57	0	606	0	0			0	0			1				0	
6.6.1	win	2023-06-02	09:08:54	09:53:15	2649802	63d6d8e21745f34be8ce7c35	3	1	practice_slash	5	practice_slash	5	stimuli_target_squarediamonds.svg	stimuli_distractor_trianglediamonds.svg	5	yes	0	0	2000	0	0			0	0			1				0	
6.6.1	win	2023-06-02	09:08:54	09:53:15	2649802	63d6d8e21745f34be8ce7c35	3	1	practice_slash	5	advance_on_keypress_SLASH	6	stimuli_target_squarediamonds.svg	stimuli_distractor_trianglediamonds.svg	5	yes	57	0	669	0	0			0	0			1				0	
6.6.1	win	2023-06-02	09:08:54	09:53:20	2654118	63d6d8e21745f34be8ce7c35	3	1	practice_slash	5	practice_slash	7	stimuli_distractor_diamondtriangles.svg	stimuli_distractor_diamondtriangles.svg	13	no	0	1	2000	0	0			0	0			1				0	
6.6.1	win	2023-06-02	09:08:54	09:53:20	2654118	63d6d8e21745f34be8ce7c35	3	1	practice_slash	5	advance_on_keypress_SLASH	8	stimuli_distractor_diamondtriangles.svg	stimuli_distractor_diamondtriangles.svg	13	no	57	0	1432	0	0			0	0			1				0	
6.6.1	win	2023-06-02	09:08:54	09:53:25	2659201	63d6d8e21745f34be8ce7c35	3	1	practice_slash	5	practice_slash	9	stimuli_target_diamondsquares.svg	stimuli_distractor_trianglediamonds.svg	6	yes	0	0	2000	0	0			0	0			1				0	
6.6.1	win	2023-06-02	09:08:54	09:53:25	2659201	63d6d8e21745f34be8ce7c35	3	1	practice_slash	5	advance_on_keypress_SLASH	10	stimuli_target_diamondsquares.svg	stimuli_distractor_trianglediamonds.svg	6	yes	57	0	59	0	0			0	0			1				0	
6.6.1	win	2023-06-02	09:08:54	09:53:28	2662917	63d6d8e21745f34be8ce7c35	3	1	practice_slash	5	practice_slash	11	stimuli_distractor_diamondtriangles.svg	stimuli_target_trianglerectangles.svg	9	yes	0	0	2000	0	0			0	0			1				0	
6.6.1	win	2023-06-02	09:08:54	09:53:28	2662917	63d6d8e21745f34be8ce7c35	3	1	practice_slash	5	advance_on_keypress_SLASH	12	stimuli_distractor_diamondtriangles.svg	stimuli_target_trianglerectangles.svg	9	yes	57	0	1910	0	0			0	0			1				0	
6.6.1	win	2023-06-02	09:08:54	09:53:33	2667621	63d6d8e21745f34be8ce7c35	3	1	practice_slash	5	practice_slash	13	stimuli_distractor_trianglediamonds.svg	stimuli_target_diamondrectangles.svg	12	yes	53	1	1156	0	0			0	0			1				0	
6.6.1	win	2023-06-02	09:08:54	09:53:33	2667621	63d6d8e21745f34be8ce7c35	3	1	practice_slash	5	advance_on_keypress_SLASH	14	stimuli_distractor_trianglediamonds.svg	stimuli_target_diamondrectangles.svg	12	yes	57	0	897	0	0			0	0			1				0	
6.6.1	win	2023-06-02	09:08:54	09:53:37	2671372	63d6d8e21745f34be8ce7c35	3	1	practice_slash	5	practice_slash	15	stimuli_distractor_trianglediamonds.svg	stimuli_distractor_diamondtriangles.svg	16	no	53	0	1206	0	0			0	0			1				0	
6.6.1	win	2023-06-02	09:08:54	09:53:37	2671372	63d6d8e21745f34be8ce7c35	3	1	practice_slash	5	advance_on_keypress_SLASH	16	stimuli_distractor_trianglediamonds.svg	stimuli_distractor_diamondtriangles.svg	16	no	57	0	79	0	0			0	0			1				0	
6.6.1	win	2023-06-02	09:08:54	09:53:41	2675099	63d6d8e21745f34be8ce7c35	3	1	practice_slash	5	practice_slash	17	stimuli_target_diamondsquares.svg	stimuli_distractor_diamondtriangles.svg	3	yes	0	0	2000	0	0			0	0			1				0	
6.6.1	win	2023-06-02	09:08:54	09:53:41	2675099	63d6d8e21745f34be8ce7c35	3	1	practice_slash	5	advance_on_keypress_SLASH	18	stimuli_target_diamondsquares.svg	stimuli_distractor_diamondtriangles.svg	3	yes	57	0	535	0	0			0	0			1				0	
6.6.1	win	2023-06-02	09:08:54	09:53:45	2679282	63d6d8e21745f34be8ce7c35	3	1	practice_slash	5	practice_slash	19	stimuli_distractor_trianglediamonds.svg	stimuli_distractor_trianglediamonds.svg	15	no	0	1	2000	0	0			0	0			1				0	
6.6.1	win	2023-06-02	09:08:54	09:53:45	2679282	63d6d8e21745f34be8ce7c35	3	1	practice_slash	5	advance_on_keypress_SLASH	20	stimuli_distractor_trianglediamonds.svg	stimuli_distractor_trianglediamonds.svg	15	no	57	0	537	0	0			0	0			1				0	
6.6.1	win	2023-06-02	09:08:54	09:53:48	2682347	63d6d8e21745f34be8ce7c35	3	1	practice_slash	5	practice_slash	21	stimuli_distractor_trianglediamonds.svg	stimuli_target_squarediamonds.svg	11	yes	53	1	866	0	0			0	0			1				0	
6.6.1	win	2023-06-02	09:08:54	09:53:48	2682347	63d6d8e21745f34be8ce7c35	3	1	practice_slash	5	advance_on_keypress_SLASH	22	stimuli_distractor_trianglediamonds.svg	stimuli_target_squarediamonds.svg	11	yes	57	0	575	0	0			0	0			1				0	
6.6.1	win	2023-06-02	09:08:54	09:53:52	2686180	63d6d8e21745f34be8ce7c35	3	1	practice_slash	5	practice_slash	23	stimuli_distractor_diamondtriangles.svg	stimuli_target_rectangletriangles.svg	7	yes	53	1	1598	0	0			0	0			1				0	
6.6.1	win	2023-06-02	09:08:54	09:53:52	2686180	63d6d8e21745f34be8ce7c35	3	1	practice_slash	5	advance_on_keypress_SLASH	24	stimuli_distractor_diamondtriangles.svg	stimuli_target_rectangletriangles.svg	7	yes	57	0	590	0	0			0	0			1				0	
6.6.1	win	2023-06-02	09:08:54	09:53:56	2690219	63d6d8e21745f34be8ce7c35	3	1	practice_slash	5	practice_slash	25	stimuli_target_rectanglediamonds.svg	stimuli_distractor_trianglediamonds.svg	4	yes	53	1	1804	0	0			0	0			1				0	
6.6.1	win	2023-06-02	09:08:54	09:53:56	2690219	63d6d8e21745f34be8ce7c35	3	1	practice_slash	5	advance_on_keypress_SLASH	26	stimuli_target_rectanglediamonds.svg	stimuli_distractor_trianglediamonds.svg	4	yes	57	0	2107	0	0			0	0			1				0	
6.6.1	win	2023-06-02	09:08:54	09:54:01	2694981	63d6d8e21745f34be8ce7c35	3	1	practice_slash	5	practice_slash	27	stimuli_distractor_diamondtriangles.svg	stimuli_distractor_trianglediamonds.svg	14	no	53	0	1016	0	0			0	0			1				0	
6.6.1	win	2023-06-02	09:08:54	09:54:01	2694981	63d6d8e21745f34be8ce7c35	3	1	practice_slash	5	advance_on_keypress_SLASH	28	stimuli_distractor_diamondtriangles.svg	stimuli_distractor_trianglediamonds.svg	14	no	57	0	1707	0	0			0	0			1				0	
6.6.1	win	2023-06-02	09:08:54	09:54:05	2699829	63d6d8e21745f34be8ce7c35	3	1	practice_slash	5	practice_slash	29	stimuli_target_squarediamonds.svg	stimuli_distractor_diamondtriangles.svg	2	yes	53	1	1499	0	0			0	0			1				0	
6.6.1	win	2023-06-02	09:08:54	09:54:05	2699829	63d6d8e21745f34be8ce7c35	3	1	practice_slash	5	advance_on_keypress_SLASH	30	stimuli_target_squarediamonds.svg	stimuli_distractor_diamondtriangles.svg	2	yes	57	0	1522	0	0			0	0			1				0	
6.6.1	win	2023-06-02	09:08:54	09:54:10	2704720	63d6d8e21745f34be8ce7c35	3	1	practice_slash	5	practice_slash	31	stimuli_target_rectanglediamonds.svg	stimuli_distractor_diamondtriangles.svg	1	yes	53	1	1725	0	0			0	0			1				0	
6.6.1	win	2023-06-02	09:08:54	09:54:10	2704720	63d6d8e21745f34be8ce7c35	3	1	practice_slash	5	advance_on_keypress_SLASH	32	stimuli_target_rectanglediamonds.svg	stimuli_distractor_diamondtriangles.svg	1	yes	57	0	489	0	0			0	0			1				0	
6.6.1	win	2023-06-02	09:08:54	09:54:19	2713226	63d6d8e21745f34be8ce7c35	3	1	main_slash	7	main_slash	1	stimuli_target_rectangletriangles.svg	stimuli_distractor_trianglediamonds.svg	1	yes	0	0	2000	0	0			0	0			1				0	
6.6.1	win	2023-06-02	09:08:54	09:54:19	2713226	63d6d8e21745f34be8ce7c35	3	1	main_slash	7	advance_on_keypress_SLASH	2	stimuli_target_rectangletriangles.svg	stimuli_distractor_trianglediamonds.svg	1	yes	57	0	849	0	0			0	0			1				0	
6.6.1	win	2023-06-02	09:08:54	09:54:22	2716726	63d6d8e21745f34be8ce7c35	3	1	main_slash	7	main_slash	3	stimuli_target_diamondsquares.svg	stimuli_distractor_diamondtriangles.svg	24	yes	0	0	2000	0	0			0	0			1				0	
6.6.1	win	2023-06-02	09:08:54	09:54:22	2716726	63d6d8e21745f34be8ce7c35	3	1	main_slash	7	advance_on_keypress_SLASH	4	stimuli_target_diamondsquares.svg	stimuli_distractor_diamondtriangles.svg	24	yes	57	0	512	0	0			0	0			1				0	
6.6.1	win	2023-06-02	09:08:54	09:54:25	2719892	63d6d8e21745f34be8ce7c35	3	1	main_slash	7	main_slash	5	stimuli_distractor_diamondtriangles.svg	stimuli_target_trianglerectangles.svg	29	yes	0	0	2000	0	0			0	0			1				0	
6.6.1	win	2023-06-02	09:08:54	09:54:25	2719892	63d6d8e21745f34be8ce7c35	3	1	main_slash	7	advance_on_keypress_SLASH	6	stimuli_distractor_diamondtriangles.svg	stimuli_target_trianglerectangles.svg	29	yes	57	0	851	0	0			0	0			1				0	
6.6.1	win	2023-06-02	09:08:54	09:54:27	2721578	63d6d8e21745f34be8ce7c35	3	1	main_slash	7	main_slash	7	stimuli_distractor_diamondtriangles.svg	stimuli_target_rectangletriangles.svg	13	yes	53	1	186	0	0			0	0			1				0	
6.6.1	win	2023-06-02	09:08:54	09:54:27	2721578	63d6d8e21745f34be8ce7c35	3	1	main_slash	7	advance_on_keypress_SLASH	8	stimuli_distractor_diamondtriangles.svg	stimuli_target_rectangletriangles.svg	13	yes	57	0	632	0	0			0	0			1				0	
6.6.1	win	2023-06-02	09:08:54	09:54:29	2723567	63d6d8e21745f34be8ce7c35	3	1	main_slash	7	main_slash	9	stimuli_distractor_trianglediamonds.svg	stimuli_target_diamondsquares.svg	28	yes	53	1	709	0	0			0	0			1				0	
6.6.1	win	2023-06-02	09:08:54	09:54:29	2723567	63d6d8e21745f34be8ce7c35	3	1	main_slash	7	advance_on_keypress_SLASH	10	stimuli_distractor_trianglediamonds.svg	stimuli_target_diamondsquares.svg	28	yes	57	0	617	0	0			0	0			1				0	
6.6.1	win	2023-06-02	09:08:54	09:54:32	2726372	63d6d8e21745f34be8ce7c35	3	1	main_slash	7	main_slash	11	stimuli_distractor_trianglediamonds.svg	stimuli_target_diamondrectangles.svg	27	yes	53	1	1548	0	0			0	0			1				0	
6.6.1	win	2023-06-02	09:08:54	09:54:32	2726372	63d6d8e21745f34be8ce7c35	3	1	main_slash	7	advance_on_keypress_SLASH	12	stimuli_distractor_trianglediamonds.svg	stimuli_target_diamondrectangles.svg	27	yes	57	0	698	0	0			0	0			1				0	
6.6.1	win	2023-06-02	09:08:54	09:54:34	2728867	63d6d8e21745f34be8ce7c35	3	1	main_slash	7	main_slash	13	stimuli_target_diamondrectangles.svg	stimuli_distractor_trianglediamonds.svg	19	yes	53	1	1143	0	0			0	0			1				0	
6.6.1	win	2023-06-02	09:08:54	09:54:34	2728867	63d6d8e21745f34be8ce7c35	3	1	main_slash	7	advance_on_keypress_SLASH	14	stimuli_target_diamondrectangles.svg	stimuli_distractor_trianglediamonds.svg	19	yes	57	0	652	0	0			0	0			1				0	
6.6.1	win	2023-06-02	09:08:54	09:54:37	2731619	63d6d8e21745f34be8ce7c35	3	1	main_slash	7	main_slash	15	stimuli_distractor_diamondtriangles.svg	stimuli_distractor_trianglediamonds.svg	37	no	53	0	1462	0	0			0	0			1				0	
6.6.1	win	2023-06-02	09:08:54	09:54:37	2731619	63d6d8e21745f34be8ce7c35	3	1	main_slash	7	advance_on_keypress_SLASH	16	stimuli_distractor_diamondtriangles.svg	stimuli_distractor_trianglediamonds.svg	37	no	57	0	1960	0	0			0	0			1				0	
6.6.1	win	2023-06-02	09:08:54	09:54:40	2734339	63d6d8e21745f34be8ce7c35	3	1	main_slash	7	main_slash	17	stimuli_target_diamondsquares.svg	stimuli_distractor_trianglediamonds.svg	20	yes	53	1	124	0	0			0	0			1				0	
6.6.1	win	2023-06-02	09:08:54	09:54:40	2734339	63d6d8e21745f34be8ce7c35	3	1	main_slash	7	advance_on_keypress_SLASH	18	stimuli_target_diamondsquares.svg	stimuli_distractor_trianglediamonds.svg	20	yes	57	0	2419	0	0			0	0			1				0	
6.6.1	win	2023-06-02	09:08:54	09:54:44	2738018	63d6d8e21745f34be8ce7c35	3	1	main_slash	7	main_slash	19	stimuli_distractor_trianglediamonds.svg	stimuli_target_trianglerectangles.svg	25	yes	53	1	612	0	0			0	0			1				0	
6.6.1	win	2023-06-02	09:08:54	09:54:44	2738018	63d6d8e21745f34be8ce7c35	3	1	main_slash	7	advance_on_keypress_SLASH	20	stimuli_distractor_trianglediamonds.svg	stimuli_target_trianglerectangles.svg	25	yes	57	0	823	0	0			0	0			1				0	
6.6.1	win	2023-06-02	09:08:54	09:54:46	2739988	63d6d8e21745f34be8ce7c35	3	1	main_slash	7	main_slash	21	stimuli_distractor_trianglediamonds.svg	stimuli_distractor_trianglediamonds.svg	34	no	53	0	513	0	0			0	0			1				0	
6.6.1	win	2023-06-02	09:08:54	09:54:46	2739988	63d6d8e21745f34be8ce7c35	3	1	main_slash	7	advance_on_keypress_SLASH	22	stimuli_distractor_trianglediamonds.svg	stimuli_distractor_trianglediamonds.svg	34	no	57	0	2554	0	0			0	0			1				0	
6.6.1	win	2023-06-02	09:08:54	09:54:49	2743869	63d6d8e21745f34be8ce7c35	3	1	main_slash	7	main_slash	23	stimuli_target_rectanglediamonds.svg	stimuli_distractor_diamondtriangles.svg	6	yes	53	1	680	0	0			0	0			1				0	
6.6.1	win	2023-06-02	09:08:54	09:54:49	2743869	63d6d8e21745f34be8ce7c35	3	1	main_slash	7	advance_on_keypress_SLASH	24	stimuli_target_rectanglediamonds.svg	stimuli_distractor_diamondtriangles.svg	6	yes	57	0	967	0	0			0	0			1				0	
6.6.1	win	2023-06-02	09:08:54	09:54:51	2745739	63d6d8e21745f34be8ce7c35	3	1	main_slash	7	main_slash	25	stimuli_distractor_trianglediamonds.svg	stimuli_distractor_trianglediamonds.svg	33	no	53	0	251	0	0			0	0			1				0	
6.6.1	win	2023-06-02	09:08:54	09:54:51	2745739	63d6d8e21745f34be8ce7c35	3	1	main_slash	7	advance_on_keypress_SLASH	26	stimuli_distractor_trianglediamonds.svg	stimuli_distractor_trianglediamonds.svg	33	no	57	0	2252	0	0			0	0			1				0	
6.6.1	win	2023-06-02	09:08:54	09:54:55	2749154	63d6d8e21745f34be8ce7c35	3	1	main_slash	7	main_slash	27	stimuli_target_trianglerectangles.svg	stimuli_distractor_trianglediamonds.svg	17	yes	53	1	516	0	0			0	0			1				0	
6.6.1	win	2023-06-02	09:08:54	09:54:55	2749154	63d6d8e21745f34be8ce7c35	3	1	main_slash	7	advance_on_keypress_SLASH	28	stimuli_target_trianglerectangles.svg	stimuli_distractor_trianglediamonds.svg	17	yes	57	0	607	0	0			0	0			1				0	
6.6.1	win	2023-06-02	09:08:54	09:54:56	2750809	63d6d8e21745f34be8ce7c35	3	1	main_slash	7	main_slash	29	stimuli_distractor_diamondtriangles.svg	stimuli_target_squarediamonds.svg	16	yes	53	1	401	0	0			0	0			1				0	
6.6.1	win	2023-06-02	09:08:54	09:54:56	2750809	63d6d8e21745f34be8ce7c35	3	1	main_slash	7	advance_on_keypress_SLASH	30	stimuli_distractor_diamondtriangles.svg	stimuli_target_squarediamonds.svg	16	yes	57	0	1011	0	0			0	0			1				0	
6.6.1	win	2023-06-02	09:08:54	09:55:00	2754471	63d6d8e21745f34be8ce7c35	3	1	main_slash	7	main_slash	31	stimuli_target_rectangletriangles.svg	stimuli_distractor_diamondtriangles.svg	5	yes	0	0	2000	0	0			0	0			1				0	
6.6.1	win	2023-06-02	09:08:54	09:55:00	2754471	63d6d8e21745f34be8ce7c35	3	1	main_slash	7	advance_on_keypress_SLASH	32	stimuli_target_rectangletriangles.svg	stimuli_distractor_diamondtriangles.svg	5	yes	57	0	1375	0	0			0	0			1				0	
6.6.1	win	2023-06-02	09:08:54	09:55:04	2758487	63d6d8e21745f34be8ce7c35	3	1	main_slash	7	main_slash	33	stimuli_target_trianglerectangles.svg	stimuli_distractor_diamondtriangles.svg	21	yes	0	0	2000	0	0			0	0			1				0	
6.6.1	win	2023-06-02	09:08:54	09:55:04	2758487	63d6d8e21745f34be8ce7c35	3	1	main_slash	7	advance_on_keypress_SLASH	34	stimuli_target_trianglerectangles.svg	stimuli_distractor_diamondtriangles.svg	21	yes	57	0	265	0	0			0	0			1				0	
6.6.1	win	2023-06-02	09:08:54	09:55:06	2760528	63d6d8e21745f34be8ce7c35	3	1	main_slash	7	main_slash	35	stimuli_target_squarediamonds.svg	stimuli_distractor_trianglediamonds.svg	4	yes	53	1	1125	0	0			0	0			1				0	
6.6.1	win	2023-06-02	09:08:54	09:55:06	2760528	63d6d8e21745f34be8ce7c35	3	1	main_slash	7	advance_on_keypress_SLASH	36	stimuli_target_squarediamonds.svg	stimuli_distractor_trianglediamonds.svg	4	yes	57	0	644	0	0			0	0			1				0	
6.6.1	win	2023-06-02	09:08:54	09:55:09	2763803	63d6d8e21745f34be8ce7c35	3	1	main_slash	7	main_slash	37	stimuli_distractor_trianglediamonds.svg	stimuli_target_squarediamonds.svg	12	yes	0	0	2000	0	0			0	0			1				0	
6.6.1	win	2023-06-02	09:08:54	09:55:09	2763803	63d6d8e21745f34be8ce7c35	3	1	main_slash	7	advance_on_keypress_SLASH	38	stimuli_distractor_trianglediamonds.svg	stimuli_target_squarediamonds.svg	12	yes	57	0	1552	0	0			0	0			1				0	
6.6.1	win	2023-06-02	09:08:54	09:55:13	2767402	63d6d8e21745f34be8ce7c35	3	1	main_slash	7	main_slash	39	stimuli_target_squaretriangles.svg	stimuli_distractor_trianglediamonds.svg	3	yes	53	1	1400	0	0			0	0			1				0	
6.6.1	win	2023-06-02	09:08:54	09:55:13	2767402	63d6d8e21745f34be8ce7c35	3	1	main_slash	7	advance_on_keypress_SLASH	40	stimuli_target_squaretriangles.svg	stimuli_distractor_trianglediamonds.svg	3	yes	57	0	20	0	0			0	0			1				0	
6.6.1	win	2023-06-02	09:08:54	09:55:14	2768242	63d6d8e21745f34be8ce7c35	3	1	main_slash	7	main_slash	41	stimuli_distractor_trianglediamonds.svg	stimuli_target_trianglesquares.svg	26	yes	53	1	173	0	0			0	0			1				0	
6.6.1	win	2023-06-02	09:08:54	09:55:14	2768242	63d6d8e21745f34be8ce7c35	3	1	main_slash	7	advance_on_keypress_SLASH	42	stimuli_distractor_trianglediamonds.svg	stimuli_target_trianglesquares.svg	26	yes	57	0	597	0	0			0	0			1				0	
6.6.1	win	2023-06-02	09:08:54	09:55:16	2770280	63d6d8e21745f34be8ce7c35	3	1	main_slash	7	main_slash	43	stimuli_target_squaretriangles.svg	stimuli_distractor_diamondtriangles.svg	7	yes	53	1	795	0	0			0	0			1				0	
6.6.1	win	2023-06-02	09:08:54	09:55:16	2770280	63d6d8e21745f34be8ce7c35	3	1	main_slash	7	advance_on_keypress_SLASH	44	stimuli_target_squaretriangles.svg	stimuli_distractor_diamondtriangles.svg	7	yes	57	0	1066	0	0			0	0			1				0	
6.6.1	win	2023-06-02	09:08:54	09:55:18	2772252	63d6d8e21745f34be8ce7c35	3	1	main_slash	7	main_slash	45	stimuli_distractor_diamondtriangles.svg	stimuli_distractor_trianglediamonds.svg	38	no	53	0	267	0	0			0	0			1				0	
6.6.1	win	2023-06-02	09:08:54	09:55:18	2772252	63d6d8e21745f34be8ce7c35	3	1	main_slash	7	advance_on_keypress_SLASH	46	stimuli_distractor_diamondtriangles.svg	stimuli_distractor_trianglediamonds.svg	38	no	57	0	677	0	0			0	0			1				0	
6.6.1	win	2023-06-02	09:08:54	09:55:20	2774057	63d6d8e21745f34be8ce7c35	3	1	main_slash	7	main_slash	47	stimuli_distractor_diamondtriangles.svg	stimuli_target_diamondrectangles.svg	31	yes	53	1	489	0	0			0	0			1				0	
6.6.1	win	2023-06-02	09:08:54	09:55:20	2774057	63d6d8e21745f34be8ce7c35	3	1	main_slash	7	advance_on_keypress_SLASH	48	stimuli_distractor_diamondtriangles.svg	stimuli_target_diamondrectangles.svg	31	yes	57	0	1175	0	0			0	0			1				0	
6.6.1	win	2023-06-02	09:08:54	09:55:23	2777868	63d6d8e21745f34be8ce7c35	3	1	main_slash	7	main_slash	49	stimuli_target_rectanglediamonds.svg	stimuli_distractor_trianglediamonds.svg	2	yes	0	0	2000	0	0			0	0			1				0	
6.6.1	win	2023-06-02	09:08:54	09:55:23	2777868	63d6d8e21745f34be8ce7c35	3	1	main_slash	7	advance_on_keypress_SLASH	50	stimuli_target_rectanglediamonds.svg	stimuli_distractor_trianglediamonds.svg	2	yes	57	0	564	0	0			0	0			1				0	
6.6.1	win	2023-06-02	09:08:54	09:55:25	2779563	63d6d8e21745f34be8ce7c35	3	1	main_slash	7	main_slash	51	stimuli_distractor_diamondtriangles.svg	stimuli_target_squaretriangles.svg	15	yes	53	1	479	0	0			0	0			1				0	
6.6.1	win	2023-06-02	09:08:54	09:55:25	2779563	63d6d8e21745f34be8ce7c35	3	1	main_slash	7	advance_on_keypress_SLASH	52	stimuli_distractor_diamondtriangles.svg	stimuli_target_squaretriangles.svg	15	yes	57	0	611	0	0			0	0			1				0	
6.6.1	win	2023-06-02	09:08:54	09:55:27	2781218	63d6d8e21745f34be8ce7c35	3	1	main_slash	7	main_slash	53	stimuli_target_trianglesquares.svg	stimuli_distractor_diamondtriangles.svg	22	yes	53	1	417	0	0			0	0			1				0	
6.6.1	win	2023-06-02	09:08:54	09:55:27	2781218	63d6d8e21745f34be8ce7c35	3	1	main_slash	7	advance_on_keypress_SLASH	54	stimuli_target_trianglesquares.svg	stimuli_distractor_diamondtriangles.svg	22	yes	57	0	2887	0	0			0	0			1				0	
6.6.1	win	2023-06-02	09:08:54	09:55:31	2785775	63d6d8e21745f34be8ce7c35	3	1	main_slash	7	main_slash	55	stimuli_target_squarediamonds.svg	stimuli_distractor_diamondtriangles.svg	8	yes	53	1	1025	0	0			0	0			1				0	
6.6.1	win	2023-06-02	09:08:54	09:55:31	2785775	63d6d8e21745f34be8ce7c35	3	1	main_slash	7	advance_on_keypress_SLASH	56	stimuli_target_squarediamonds.svg	stimuli_distractor_diamondtriangles.svg	8	yes	57	0	1272	0	0			0	0			1				0	
6.6.1	win	2023-06-02	09:08:54	09:55:33	2787887	63d6d8e21745f34be8ce7c35	3	1	main_slash	7	main_slash	57	stimuli_distractor_diamondtriangles.svg	stimuli_distractor_diamondtriangles.svg	39	no	53	0	204	0	0			0	0			1				0	
6.6.1	win	2023-06-02	09:08:54	09:55:33	2787887	63d6d8e21745f34be8ce7c35	3	1	main_slash	7	advance_on_keypress_SLASH	58	stimuli_distractor_diamondtriangles.svg	stimuli_distractor_diamondtriangles.svg	39	no	57	0	951	0	0			0	0			1				0	
6.6.1	win	2023-06-02	09:08:54	09:55:35	2789672	63d6d8e21745f34be8ce7c35	3	1	main_slash	7	main_slash	59	stimuli_target_trianglesquares.svg	stimuli_distractor_trianglediamonds.svg	18	yes	53	1	189	0	0			0	0			1				0	
6.6.1	win	2023-06-02	09:08:54	09:55:35	2789672	63d6d8e21745f34be8ce7c35	3	1	main_slash	7	advance_on_keypress_SLASH	60	stimuli_target_trianglesquares.svg	stimuli_distractor_trianglediamonds.svg	18	yes	57	0	906	0	0			0	0			1				0	
6.6.1	win	2023-06-02	09:08:54	09:55:39	2793216	63d6d8e21745f34be8ce7c35	3	1	main_slash	7	main_slash	61	stimuli_distractor_trianglediamonds.svg	stimuli_distractor_diamondtriangles.svg	35	no	0	1	2000	0	0			0	0			1				0	
6.6.1	win	2023-06-02	09:08:54	09:55:39	2793216	63d6d8e21745f34be8ce7c35	3	1	main_slash	7	advance_on_keypress_SLASH	62	stimuli_distractor_trianglediamonds.svg	stimuli_distractor_diamondtriangles.svg	35	no	57	0	859	0	0			0	0			1				0	
6.6.1	win	2023-06-02	09:08:54	09:55:41	2795499	63d6d8e21745f34be8ce7c35	3	1	main_slash	7	main_slash	63	stimuli_distractor_trianglediamonds.svg	stimuli_target_squaretriangles.svg	11	yes	53	1	784	0	0			0	0			1				0	
6.6.1	win	2023-06-02	09:08:54	09:55:41	2795499	63d6d8e21745f34be8ce7c35	3	1	main_slash	7	advance_on_keypress_SLASH	64	stimuli_distractor_trianglediamonds.svg	stimuli_target_squaretriangles.svg	11	yes	57	0	1369	0	0			0	0			1				0	
6.6.1	win	2023-06-02	09:08:54	09:55:43	2797732	63d6d8e21745f34be8ce7c35	3	1	main_slash	7	main_slash	65	stimuli_distractor_trianglediamonds.svg	stimuli_target_rectanglediamonds.svg	10	yes	53	1	217	0	0			0	0			1				0	
6.6.1	win	2023-06-02	09:08:54	09:55:43	2797732	63d6d8e21745f34be8ce7c35	3	1	main_slash	7	advance_on_keypress_SLASH	66	stimuli_distractor_trianglediamonds.svg	stimuli_target_rectanglediamonds.svg	10	yes	57	0	1141	0	0			0	0			1				0	
6.6.1	win	2023-06-02	09:08:54	09:55:46	2800104	63d6d8e21745f34be8ce7c35	3	1	main_slash	7	main_slash	67	stimuli_distractor_diamondtriangles.svg	stimuli_target_rectanglediamonds.svg	14	yes	53	1	589	0	0			0	0			1				0	
6.6.1	win	2023-06-02	09:08:54	09:55:46	2800104	63d6d8e21745f34be8ce7c35	3	1	main_slash	7	advance_on_keypress_SLASH	68	stimuli_distractor_diamondtriangles.svg	stimuli_target_rectanglediamonds.svg	14	yes	57	0	341	0	0			0	0			1				0	
6.6.1	win	2023-06-02	09:08:54	09:55:47	2801348	63d6d8e21745f34be8ce7c35	3	1	main_slash	7	main_slash	69	stimuli_distractor_diamondtriangles.svg	stimuli_target_diamondsquares.svg	32	yes	53	1	267	0	0			0	0			1				0	
6.6.1	win	2023-06-02	09:08:54	09:55:47	2801348	63d6d8e21745f34be8ce7c35	3	1	main_slash	7	advance_on_keypress_SLASH	70	stimuli_distractor_diamondtriangles.svg	stimuli_target_diamondsquares.svg	32	yes	57	0	804	0	0			0	0			1				0	
6.6.1	win	2023-06-02	09:08:54	09:55:49	2803029	63d6d8e21745f34be8ce7c35	3	1	main_slash	7	main_slash	71	stimuli_target_diamondrectangles.svg	stimuli_distractor_diamondtriangles.svg	23	yes	53	1	231	0	0			0	0			1				0	
6.6.1	win	2023-06-02	09:08:54	09:55:49	2803029	63d6d8e21745f34be8ce7c35	3	1	main_slash	7	advance_on_keypress_SLASH	72	stimuli_target_diamondrectangles.svg	stimuli_distractor_diamondtriangles.svg	23	yes	57	0	584	0	0			0	0			1				0	
6.6.1	win	2023-06-02	09:08:54	09:55:50	2804677	63d6d8e21745f34be8ce7c35	3	1	main_slash	7	main_slash	73	stimuli_distractor_trianglediamonds.svg	stimuli_distractor_diamondtriangles.svg	36	no	53	0	413	0	0			0	0			1				0	
6.6.1	win	2023-06-02	09:08:54	09:55:50	2804677	63d6d8e21745f34be8ce7c35	3	1	main_slash	7	advance_on_keypress_SLASH	74	stimuli_distractor_trianglediamonds.svg	stimuli_distractor_diamondtriangles.svg	36	no	57	0	581	0	0			0	0			1				0	
6.6.1	win	2023-06-02	09:08:54	09:55:52	2806255	63d6d8e21745f34be8ce7c35	3	1	main_slash	7	main_slash	75	stimuli_distractor_diamondtriangles.svg	stimuli_target_trianglesquares.svg	30	yes	53	1	341	0	0			0	0			1				0	
6.6.1	win	2023-06-02	09:08:54	09:55:52	2806255	63d6d8e21745f34be8ce7c35	3	1	main_slash	7	advance_on_keypress_SLASH	76	stimuli_distractor_diamondtriangles.svg	stimuli_target_trianglesquares.svg	30	yes	57	0	2598	0	0			0	0			1				0	
6.6.1	win	2023-06-02	09:08:54	09:55:57	2811497	63d6d8e21745f34be8ce7c35	3	1	main_slash	7	main_slash	77	stimuli_distractor_diamondtriangles.svg	stimuli_distractor_diamondtriangles.svg	40	no	0	1	2000	0	0			0	0			1				0	
6.6.1	win	2023-06-02	09:08:54	09:55:57	2811497	63d6d8e21745f34be8ce7c35	3	1	main_slash	7	advance_on_keypress_SLASH	78	stimuli_distractor_diamondtriangles.svg	stimuli_distractor_diamondtriangles.svg	40	no	57	0	2232	0	0			0	0			1				0	
6.6.1	win	2023-06-02	09:08:54	09:56:01	2815906	63d6d8e21745f34be8ce7c35	3	1	main_slash	7	main_slash	79	stimuli_distractor_trianglediamonds.svg	stimuli_target_rectangletriangles.svg	9	yes	53	1	1526	0	0			0	0			1				0	
6.6.1	win	2023-06-02	09:08:54	09:56:01	2815906	63d6d8e21745f34be8ce7c35	3	1	main_slash	7	advance_on_keypress_SLASH	80	stimuli_distractor_trianglediamonds.svg	stimuli_target_rectangletriangles.svg	9	yes	57	0	1238	0	0			0	0			1				0	
6.6.1	win	2023-06-02	09:08:54	09:56:05	2819779	63d6d8e21745f34be8ce7c35	3	1	main_slash	7	main_slash	81	stimuli_target_rectangletriangles.svg	stimuli_distractor_trianglediamonds.svg	1	yes	0	0	2000	0	0			0	0			1				0	
6.6.1	win	2023-06-02	09:08:54	09:56:05	2819779	63d6d8e21745f34be8ce7c35	3	1	main_slash	7	advance_on_keypress_SLASH	82	stimuli_target_rectangletriangles.svg	stimuli_distractor_trianglediamonds.svg	1	yes	57	0	709	0	0			0	0			1				0	
6.6.1	win	2023-06-02	09:08:54	09:56:09	2823129	63d6d8e21745f34be8ce7c35	3	1	main_slash	7	main_slash	83	stimuli_distractor_trianglediamonds.svg	stimuli_target_trianglerectangles.svg	25	yes	0	0	2000	0	0			0	0			1				0	
6.6.1	win	2023-06-02	09:08:54	09:56:09	2823129	63d6d8e21745f34be8ce7c35	3	1	main_slash	7	advance_on_keypress_SLASH	84	stimuli_distractor_trianglediamonds.svg	stimuli_target_trianglerectangles.svg	25	yes	57	0	457	0	0			0	0			1				0	
6.6.1	win	2023-06-02	09:08:54	09:56:10	2824907	63d6d8e21745f34be8ce7c35	3	1	main_slash	7	main_slash	85	stimuli_target_diamondrectangles.svg	stimuli_distractor_diamondtriangles.svg	23	yes	53	1	679	0	0			0	0			1				0	
6.6.1	win	2023-06-02	09:08:54	09:56:10	2824907	63d6d8e21745f34be8ce7c35	3	1	main_slash	7	advance_on_keypress_SLASH	86	stimuli_target_diamondrectangles.svg	stimuli_distractor_diamondtriangles.svg	23	yes	57	0	1444	0	0			0	0			1				0	
6.6.1	win	2023-06-02	09:08:54	09:56:14	2828884	63d6d8e21745f34be8ce7c35	3	1	main_slash	7	main_slash	87	stimuli_distractor_trianglediamonds.svg	stimuli_distractor_diamondtriangles.svg	36	no	53	0	1906	0	0			0	0			1				0	
6.6.1	win	2023-06-02	09:08:54	09:56:14	2828884	63d6d8e21745f34be8ce7c35	3	1	main_slash	7	advance_on_keypress_SLASH	88	stimuli_distractor_trianglediamonds.svg	stimuli_distractor_diamondtriangles.svg	36	no	57	0	272	0	0			0	0			1				0	
6.6.1	win	2023-06-02	09:08:54	09:56:16	2830875	63d6d8e21745f34be8ce7c35	3	1	main_slash	7	main_slash	89	stimuli_distractor_diamondtriangles.svg	stimuli_target_diamondrectangles.svg	31	yes	53	1	1082	0	0			0	0			1				0	
6.6.1	win	2023-06-02	09:08:54	09:56:16	2830875	63d6d8e21745f34be8ce7c35	3	1	main_slash	7	advance_on_keypress_SLASH	90	stimuli_distractor_diamondtriangles.svg	stimuli_target_diamondrectangles.svg	31	yes	57	0	1107	0	0			0	0			1				0	
6.6.1	win	2023-06-02	09:08:54	09:56:19	2833668	63d6d8e21745f34be8ce7c35	3	1	main_slash	7	main_slash	91	stimuli_distractor_trianglediamonds.svg	stimuli_distractor_trianglediamonds.svg	33	no	53	0	1041	0	0			0	0			1				0	
6.6.1	win	2023-06-02	09:08:54	09:56:19	2833668	63d6d8e21745f34be8ce7c35	3	1	main_slash	7	advance_on_keypress_SLASH	92	stimuli_distractor_trianglediamonds.svg	stimuli_distractor_trianglediamonds.svg	33	no	57	0	1448	0	0			0	0			1				0	
6.6.1	win	2023-06-02	09:08:54	09:56:23	2837760	63d6d8e21745f34be8ce7c35	3	1	main_slash	7	main_slash	93	stimuli_target_rectanglediamonds.svg	stimuli_distractor_diamondtriangles.svg	6	yes	0	0	2000	0	0			0	0			1				0	
6.6.1	win	2023-06-02	09:08:54	09:56:23	2837760	63d6d8e21745f34be8ce7c35	3	1	main_slash	7	advance_on_keypress_SLASH	94	stimuli_target_rectanglediamonds.svg	stimuli_distractor_diamondtriangles.svg	6	yes	57	0	3451	0	0			0	0			1				0	
6.6.1	win	2023-06-02	09:08:54	09:56:28	2842047	63d6d8e21745f34be8ce7c35	3	1	main_slash	7	main_slash	95	stimuli_distractor_trianglediamonds.svg	stimuli_target_rectangletriangles.svg	9	yes	53	1	188	0	0			0	0			1				0	
6.6.1	win	2023-06-02	09:08:54	09:56:28	2842047	63d6d8e21745f34be8ce7c35	3	1	main_slash	7	advance_on_keypress_SLASH	96	stimuli_distractor_trianglediamonds.svg	stimuli_target_rectangletriangles.svg	9	yes	57	0	1149	0	0			0	0			1				0	
6.6.1	win	2023-06-02	09:08:54	09:56:30	2844671	63d6d8e21745f34be8ce7c35	3	1	main_slash	7	main_slash	97	stimuli_target_trianglesquares.svg	stimuli_distractor_trianglediamonds.svg	18	yes	53	1	829	0	0			0	0			1				0	
6.6.1	win	2023-06-02	09:08:54	09:56:30	2844671	63d6d8e21745f34be8ce7c35	3	1	main_slash	7	advance_on_keypress_SLASH	98	stimuli_target_trianglesquares.svg	stimuli_distractor_trianglediamonds.svg	18	yes	57	0	1382	0	0			0	0			1				0	
6.6.1	win	2023-06-02	09:08:54	09:56:32	2846779	63d6d8e21745f34be8ce7c35	3	1	main_slash	7	main_slash	99	stimuli_target_diamondrectangles.svg	stimuli_distractor_trianglediamonds.svg	19	yes	53	1	87	0	0			0	0			1				0	
6.6.1	win	2023-06-02	09:08:54	09:56:32	2846779	63d6d8e21745f34be8ce7c35	3	1	main_slash	7	advance_on_keypress_SLASH	100	stimuli_target_diamondrectangles.svg	stimuli_distractor_trianglediamonds.svg	19	yes	57	0	1070	0	0			0	0			1				0	
6.6.1	win	2023-06-02	09:08:54	09:56:35	2849108	63d6d8e21745f34be8ce7c35	3	1	main_slash	7	main_slash	101	stimuli_distractor_diamondtriangles.svg	stimuli_distractor_diamondtriangles.svg	40	no	53	0	616	0	0			0	0			1				0	
6.6.1	win	2023-06-02	09:08:54	09:56:35	2849108	63d6d8e21745f34be8ce7c35	3	1	main_slash	7	advance_on_keypress_SLASH	102	stimuli_distractor_diamondtriangles.svg	stimuli_distractor_diamondtriangles.svg	40	no	57	0	855	0	0			0	0			1				0	
6.6.1	win	2023-06-02	09:08:54	09:56:36	2850937	63d6d8e21745f34be8ce7c35	3	1	main_slash	7	main_slash	103	stimuli_distractor_diamondtriangles.svg	stimuli_target_squarediamonds.svg	16	yes	53	1	329	0	0			0	0			1				0	
6.6.1	win	2023-06-02	09:08:54	09:56:36	2850937	63d6d8e21745f34be8ce7c35	3	1	main_slash	7	advance_on_keypress_SLASH	104	stimuli_distractor_diamondtriangles.svg	stimuli_target_squarediamonds.svg	16	yes	57	0	246	0	0			0	0			1				0	
6.6.1	win	2023-06-02	09:08:54	09:56:37	2851838	63d6d8e21745f34be8ce7c35	3	1	main_slash	7	main_slash	105	stimuli_distractor_trianglediamonds.svg	stimuli_target_trianglesquares.svg	26	yes	53	1	13	0	0			0	0			1				0	
6.6.1	win	2023-06-02	09:08:54	09:56:37	2851838	63d6d8e21745f34be8ce7c35	3	1	main_slash	7	advance_on_keypress_SLASH	106	stimuli_distractor_trianglediamonds.svg	stimuli_target_trianglesquares.svg	26	yes	57	0	615	0	0			0	0			1				0	
6.6.1	win	2023-06-02	09:08:54	09:56:39	2853143	63d6d8e21745f34be8ce7c35	3	1	main_slash	7	main_slash	107	stimuli_distractor_diamondtriangles.svg	stimuli_distractor_trianglediamonds.svg	38	no	53	0	35	0	0			0	0			1				0	
6.6.1	win	2023-06-02	09:08:54	09:56:39	2853143	63d6d8e21745f34be8ce7c35	3	1	main_slash	7	advance_on_keypress_SLASH	108	stimuli_distractor_diamondtriangles.svg	stimuli_distractor_trianglediamonds.svg	38	no	57	0	546	0	0			0	0			1				0	
6.6.1	win	2023-06-02	09:08:54	09:56:42	2856341	63d6d8e21745f34be8ce7c35	3	1	main_slash	7	main_slash	109	stimuli_distractor_diamondtriangles.svg	stimuli_distractor_diamondtriangles.svg	39	no	0	1	2000	0	0			0	0			1				0	
6.6.1	win	2023-06-02	09:08:54	09:56:42	2856341	63d6d8e21745f34be8ce7c35	3	1	main_slash	7	advance_on_keypress_SLASH	110	stimuli_distractor_diamondtriangles.svg	stimuli_distractor_diamondtriangles.svg	39	no	57	0	910	0	0			0	0			1				0	
6.6.1	win	2023-06-02	09:08:54	09:56:44	2858764	63d6d8e21745f34be8ce7c35	3	1	main_slash	7	main_slash	111	stimuli_target_rectangletriangles.svg	stimuli_distractor_diamondtriangles.svg	5	yes	53	1	873	0	0			0	0			1				0	
6.6.1	win	2023-06-02	09:08:54	09:56:44	2858764	63d6d8e21745f34be8ce7c35	3	1	main_slash	7	advance_on_keypress_SLASH	112	stimuli_target_rectangletriangles.svg	stimuli_distractor_diamondtriangles.svg	5	yes	57	0	765	0	0			0	0			1				0	
6.6.1	win	2023-06-02	09:08:54	09:56:46	2860532	63d6d8e21745f34be8ce7c35	3	1	main_slash	7	main_slash	113	stimuli_distractor_diamondtriangles.svg	stimuli_target_rectanglediamonds.svg	14	yes	53	1	359	0	0			0	0			1				0	
6.6.1	win	2023-06-02	09:08:54	09:56:46	2860532	63d6d8e21745f34be8ce7c35	3	1	main_slash	7	advance_on_keypress_SLASH	114	stimuli_distractor_diamondtriangles.svg	stimuli_target_rectanglediamonds.svg	14	yes	57	0	605	0	0			0	0			1				0	
6.6.1	win	2023-06-02	09:08:54	09:56:48	2862099	63d6d8e21745f34be8ce7c35	3	1	main_slash	7	main_slash	115	stimuli_distractor_trianglediamonds.svg	stimuli_target_rectanglediamonds.svg	10	yes	53	1	325	0	0			0	0			1				0	
6.6.1	win	2023-06-02	09:08:54	09:56:48	2862099	63d6d8e21745f34be8ce7c35	3	1	main_slash	7	advance_on_keypress_SLASH	116	stimuli_distractor_trianglediamonds.svg	stimuli_target_rectanglediamonds.svg	10	yes	57	0	767	0	0			0	0			1				0	
6.6.1	win	2023-06-02	09:08:54	09:56:49	2863839	63d6d8e21745f34be8ce7c35	3	1	main_slash	7	main_slash	117	stimuli_distractor_trianglediamonds.svg	stimuli_target_squarediamonds.svg	12	yes	53	1	332	0	0			0	0			1				0	
6.6.1	win	2023-06-02	09:08:54	09:56:49	2863839	63d6d8e21745f34be8ce7c35	3	1	main_slash	7	advance_on_keypress_SLASH	118	stimuli_distractor_trianglediamonds.svg	stimuli_target_squarediamonds.svg	12	yes	57	0	121	0	0			0	0			1				0	
6.6.1	win	2023-06-02	09:08:54	09:56:51	2865128	63d6d8e21745f34be8ce7c35	3	1	main_slash	7	main_slash	119	stimuli_distractor_trianglediamonds.svg	stimuli_distractor_trianglediamonds.svg	34	no	53	0	522	0	0			0	0			1				0	
6.6.1	win	2023-06-02	09:08:54	09:56:51	2865128	63d6d8e21745f34be8ce7c35	3	1	main_slash	7	advance_on_keypress_SLASH	120	stimuli_distractor_trianglediamonds.svg	stimuli_distractor_trianglediamonds.svg	34	no	57	0	3210	0	0			0	0			1				0	
6.6.1	win	2023-06-02	09:08:54	09:56:55	2869430	63d6d8e21745f34be8ce7c35	3	1	main_slash	7	main_slash	121	stimuli_target_trianglerectangles.svg	stimuli_distractor_diamondtriangles.svg	21	yes	53	1	457	0	0			0	0			1				0	
6.6.1	win	2023-06-02	09:08:54	09:56:55	2869430	63d6d8e21745f34be8ce7c35	3	1	main_slash	7	advance_on_keypress_SLASH	122	stimuli_target_trianglerectangles.svg	stimuli_distractor_diamondtriangles.svg	21	yes	57	0	504	0	0			0	0			1				0	
6.6.1	win	2023-06-02	09:08:54	09:56:57	2871452	63d6d8e21745f34be8ce7c35	3	1	main_slash	7	main_slash	123	stimuli_distractor_diamondtriangles.svg	stimuli_target_squaretriangles.svg	15	yes	53	1	880	0	0			0	0			1				0	
6.6.1	win	2023-06-02	09:08:54	09:56:57	2871452	63d6d8e21745f34be8ce7c35	3	1	main_slash	7	advance_on_keypress_SLASH	124	stimuli_distractor_diamondtriangles.svg	stimuli_target_squaretriangles.svg	15	yes	57	0	1347	0	0			0	0			1				0	
6.6.1	win	2023-06-02	09:08:54	09:57:00	2874147	63d6d8e21745f34be8ce7c35	3	1	main_slash	7	main_slash	125	stimuli_distractor_trianglediamonds.svg	stimuli_target_diamondsquares.svg	28	yes	53	1	692	0	0			0	0			1				0	
6.6.1	win	2023-06-02	09:08:54	09:57:00	2874147	63d6d8e21745f34be8ce7c35	3	1	main_slash	7	advance_on_keypress_SLASH	126	stimuli_distractor_trianglediamonds.svg	stimuli_target_diamondsquares.svg	28	yes	57	0	398	0	0			0	0			1				0	
6.6.1	win	2023-06-02	09:08:54	09:57:01	2875267	63d6d8e21745f34be8ce7c35	3	1	main_slash	7	main_slash	127	stimuli_target_trianglesquares.svg	stimuli_distractor_diamondtriangles.svg	22	yes	53	1	79	0	0			0	0			1				0	
6.6.1	win	2023-06-02	09:08:54	09:57:01	2875267	63d6d8e21745f34be8ce7c35	3	1	main_slash	7	advance_on_keypress_SLASH	128	stimuli_target_trianglesquares.svg	stimuli_distractor_diamondtriangles.svg	22	yes	57	0	838	0	0			0	0			1				0	
6.6.1	win	2023-06-02	09:08:54	09:57:03	2877499	63d6d8e21745f34be8ce7c35	3	1	main_slash	7	main_slash	129	stimuli_target_squaretriangles.svg	stimuli_distractor_trianglediamonds.svg	3	yes	53	1	761	0	0			0	0			1				0	
6.6.1	win	2023-06-02	09:08:54	09:57:03	2877499	63d6d8e21745f34be8ce7c35	3	1	main_slash	7	advance_on_keypress_SLASH	130	stimuli_target_squaretriangles.svg	stimuli_distractor_trianglediamonds.svg	3	yes	57	0	597	0	0			0	0			1				0	
6.6.1	win	2023-06-02	09:08:54	09:57:04	2878744	63d6d8e21745f34be8ce7c35	3	1	main_slash	7	main_slash	131	stimuli_distractor_diamondtriangles.svg	stimuli_target_trianglesquares.svg	30	yes	53	1	6	0	0			0	0			1				0	
6.6.1	win	2023-06-02	09:08:54	09:57:04	2878744	63d6d8e21745f34be8ce7c35	3	1	main_slash	7	advance_on_keypress_SLASH	132	stimuli_distractor_diamondtriangles.svg	stimuli_target_trianglesquares.svg	30	yes	57	0	1050	0	0			0	0			1				0	
6.6.1	win	2023-06-02	09:08:54	09:57:06	2880442	63d6d8e21745f34be8ce7c35	3	1	main_slash	7	main_slash	133	stimuli_distractor_diamondtriangles.svg	stimuli_distractor_trianglediamonds.svg	37	no	53	0	4	0	0			0	0			1				0	
6.6.1	win	2023-06-02	09:08:54	09:57:06	2880442	63d6d8e21745f34be8ce7c35	3	1	main_slash	7	advance_on_keypress_SLASH	134	stimuli_distractor_diamondtriangles.svg	stimuli_distractor_trianglediamonds.svg	37	no	57	0	1256	0	0			0	0			1				0	
6.6.1	win	2023-06-02	09:08:54	09:57:10	2884338	63d6d8e21745f34be8ce7c35	3	1	main_slash	7	main_slash	135	stimuli_target_squaretriangles.svg	stimuli_distractor_diamondtriangles.svg	7	yes	0	0	2000	0	0			0	0			1				0	
6.6.1	win	2023-06-02	09:08:54	09:57:10	2884338	63d6d8e21745f34be8ce7c35	3	1	main_slash	7	advance_on_keypress_SLASH	136	stimuli_target_squaretriangles.svg	stimuli_distractor_diamondtriangles.svg	7	yes	57	0	46	0	0			0	0			1				0	
6.6.1	win	2023-06-02	09:08:54	09:57:11	2885078	63d6d8e21745f34be8ce7c35	3	1	main_slash	7	main_slash	137	stimuli_distractor_trianglediamonds.svg	stimuli_target_squaretriangles.svg	11	yes	53	1	41	0	0			0	0			1				0	
6.6.1	win	2023-06-02	09:08:54	09:57:11	2885078	63d6d8e21745f34be8ce7c35	3	1	main_slash	7	advance_on_keypress_SLASH	138	stimuli_distractor_trianglediamonds.svg	stimuli_target_squaretriangles.svg	11	yes	57	0	774	0	0			0	0			1				0	
6.6.1	win	2023-06-02	09:08:54	09:57:12	2886948	63d6d8e21745f34be8ce7c35	3	1	main_slash	7	main_slash	139	stimuli_distractor_trianglediamonds.svg	stimuli_distractor_diamondtriangles.svg	35	no	53	0	461	0	0			0	0			1				0	
6.6.1	win	2023-06-02	09:08:54	09:57:12	2886948	63d6d8e21745f34be8ce7c35	3	1	main_slash	7	advance_on_keypress_SLASH	140	stimuli_distractor_trianglediamonds.svg	stimuli_distractor_diamondtriangles.svg	35	no	57	0	659	0	0			0	0			1				0	
6.6.1	win	2023-06-02	09:08:54	09:57:15	2889090	63d6d8e21745f34be8ce7c35	3	1	main_slash	7	main_slash	141	stimuli_target_diamondsquares.svg	stimuli_distractor_trianglediamonds.svg	20	yes	53	1	853	0	0			0	0			1				0	
6.6.1	win	2023-06-02	09:08:54	09:57:15	2889090	63d6d8e21745f34be8ce7c35	3	1	main_slash	7	advance_on_keypress_SLASH	142	stimuli_target_diamondsquares.svg	stimuli_distractor_trianglediamonds.svg	20	yes	57	0	1820	0	0			0	0			1				0	
6.6.1	win	2023-06-02	09:08:54	09:57:18	2892384	63d6d8e21745f34be8ce7c35	3	1	main_slash	7	main_slash	143	stimuli_target_squarediamonds.svg	stimuli_distractor_diamondtriangles.svg	8	yes	53	1	831	0	0			0	0			1				0	
6.6.1	win	2023-06-02	09:08:54	09:57:18	2892384	63d6d8e21745f34be8ce7c35	3	1	main_slash	7	advance_on_keypress_SLASH	144	stimuli_target_squarediamonds.svg	stimuli_distractor_diamondtriangles.svg	8	yes	57	0	404	0	0			0	0			1				0	
6.6.1	win	2023-06-02	09:08:54	09:57:19	2893603	63d6d8e21745f34be8ce7c35	3	1	main_slash	7	main_slash	145	stimuli_target_rectanglediamonds.svg	stimuli_distractor_trianglediamonds.svg	2	yes	53	1	167	0	0			0	0			1				0	
6.6.1	win	2023-06-02	09:08:54	09:57:19	2893603	63d6d8e21745f34be8ce7c35	3	1	main_slash	7	advance_on_keypress_SLASH	146	stimuli_target_rectanglediamonds.svg	stimuli_distractor_trianglediamonds.svg	2	yes	57	0	592	0	0			0	0			1				0	
6.6.1	win	2023-06-02	09:08:54	09:57:22	2896327	63d6d8e21745f34be8ce7c35	3	1	main_slash	7	main_slash	147	stimuli_distractor_diamondtriangles.svg	stimuli_target_trianglerectangles.svg	29	yes	53	1	1491	0	0			0	0			1				0	
6.6.1	win	2023-06-02	09:08:54	09:57:22	2896327	63d6d8e21745f34be8ce7c35	3	1	main_slash	7	advance_on_keypress_SLASH	148	stimuli_distractor_diamondtriangles.svg	stimuli_target_trianglerectangles.svg	29	yes	57	0	1039	0	0			0	0			1				0	
6.6.1	win	2023-06-02	09:08:54	09:57:24	2898134	63d6d8e21745f34be8ce7c35	3	1	main_slash	7	main_slash	149	stimuli_target_squarediamonds.svg	stimuli_distractor_trianglediamonds.svg	4	yes	53	1	124	0	0			0	0			1				0	
6.6.1	win	2023-06-02	09:08:54	09:57:24	2898134	63d6d8e21745f34be8ce7c35	3	1	main_slash	7	advance_on_keypress_SLASH	150	stimuli_target_squarediamonds.svg	stimuli_distractor_trianglediamonds.svg	4	yes	57	0	2249	0	0			0	0			1				0	
6.6.1	win	2023-06-02	09:08:54	09:57:27	2901067	63d6d8e21745f34be8ce7c35	3	1	main_slash	7	main_slash	151	stimuli_target_diamondsquares.svg	stimuli_distractor_diamondtriangles.svg	24	yes	53	1	32	0	0			0	0			1				0	
6.6.1	win	2023-06-02	09:08:54	09:57:27	2901067	63d6d8e21745f34be8ce7c35	3	1	main_slash	7	advance_on_keypress_SLASH	152	stimuli_target_diamondsquares.svg	stimuli_distractor_diamondtriangles.svg	24	yes	57	0	675	0	0			0	0			1				0	
6.6.1	win	2023-06-02	09:08:54	09:57:28	2902517	63d6d8e21745f34be8ce7c35	3	1	main_slash	7	main_slash	153	stimuli_distractor_diamondtriangles.svg	stimuli_target_rectangletriangles.svg	13	yes	53	1	125	0	0			0	0			1				0	
6.6.1	win	2023-06-02	09:08:54	09:57:28	2902517	63d6d8e21745f34be8ce7c35	3	1	main_slash	7	advance_on_keypress_SLASH	154	stimuli_distractor_diamondtriangles.svg	stimuli_target_rectangletriangles.svg	13	yes	57	0	906	0	0			0	0			1				0	
6.6.1	win	2023-06-02	09:08:54	09:57:30	2904426	63d6d8e21745f34be8ce7c35	3	1	main_slash	7	main_slash	155	stimuli_distractor_diamondtriangles.svg	stimuli_target_diamondsquares.svg	32	yes	53	1	358	0	0			0	0			1				0	
6.6.1	win	2023-06-02	09:08:54	09:57:30	2904426	63d6d8e21745f34be8ce7c35	3	1	main_slash	7	advance_on_keypress_SLASH	156	stimuli_distractor_diamondtriangles.svg	stimuli_target_diamondsquares.svg	32	yes	57	0	616	0	0			0	0			1				0	
6.6.1	win	2023-06-02	09:08:54	09:57:32	2906207	63d6d8e21745f34be8ce7c35	3	1	main_slash	7	main_slash	157	stimuli_target_trianglerectangles.svg	stimuli_distractor_trianglediamonds.svg	17	yes	53	1	522	0	0			0	0			1				0	
6.6.1	win	2023-06-02	09:08:54	09:57:32	2906207	63d6d8e21745f34be8ce7c35	3	1	main_slash	7	advance_on_keypress_SLASH	158	stimuli_target_trianglerectangles.svg	stimuli_distractor_trianglediamonds.svg	17	yes	57	0	435	0	0			0	0			1				0	
6.6.1	win	2023-06-02	09:08:54	09:57:33	2907317	63d6d8e21745f34be8ce7c35	3	1	main_slash	7	main_slash	159	stimuli_distractor_trianglediamonds.svg	stimuli_target_diamondrectangles.svg	27	yes	53	1	33	0	0			0	0			1				0	
6.6.1	win	2023-06-02	09:08:54	09:57:33	2907317	63d6d8e21745f34be8ce7c35	3	1	main_slash	7	advance_on_keypress_SLASH	160	stimuli_distractor_trianglediamonds.svg	stimuli_target_diamondrectangles.svg	27	yes	57	0	666	0	0			0	0			1				0	
6.6.1	win	2023-06-02	09:08:54	09:57:41	2915485	63d6d8e21745f34be8ce7c35	3	1	practice_z	9	practice_z	1	stimuli_distractor_diamondtriangles.svg	stimuli_target_rectangletriangles.svg	7	yes	0	0	2000	0	0			0	0			1				0	
6.6.1	win	2023-06-02	09:08:54	09:57:41	2915485	63d6d8e21745f34be8ce7c35	3	1	practice_z	9	advance_on_keypress_ZEE	2	stimuli_distractor_diamondtriangles.svg	stimuli_target_rectangletriangles.svg	7	yes	57	0	101	0	0			0	0			1				0	
6.6.1	win	2023-06-02	09:08:54	09:57:45	2919234	63d6d8e21745f34be8ce7c35	3	1	practice_z	9	practice_z	3	stimuli_distractor_trianglediamonds.svg	stimuli_distractor_diamondtriangles.svg	16	no	0	1	2000	0	0			0	0			1				0	
6.6.1	win	2023-06-02	09:08:54	09:57:45	2919234	63d6d8e21745f34be8ce7c35	3	1	practice_z	9	advance_on_keypress_ZEE	4	stimuli_distractor_trianglediamonds.svg	stimuli_distractor_diamondtriangles.svg	16	no	57	0	367	0	0			0	0			1				0	
6.6.1	win	2023-06-02	09:08:54	09:57:49	2923250	63d6d8e21745f34be8ce7c35	3	1	practice_z	9	practice_z	5	stimuli_target_rectanglediamonds.svg	stimuli_distractor_trianglediamonds.svg	4	yes	0	0	2000	0	0			0	0			1				0	
6.6.1	win	2023-06-02	09:08:54	09:57:49	2923250	63d6d8e21745f34be8ce7c35	3	1	practice_z	9	advance_on_keypress_ZEE	6	stimuli_target_rectanglediamonds.svg	stimuli_distractor_trianglediamonds.svg	4	yes	57	0	557	0	0			0	0			1				0	
6.6.1	win	2023-06-02	09:08:54	09:57:53	2927450	63d6d8e21745f34be8ce7c35	3	1	practice_z	9	practice_z	7	stimuli_target_diamondsquares.svg	stimuli_distractor_diamondtriangles.svg	3	yes	0	0	2000	0	0			0	0			1				0	
6.6.1	win	2023-06-02	09:08:54	09:57:53	2927450	63d6d8e21745f34be8ce7c35	3	1	practice_z	9	advance_on_keypress_ZEE	8	stimuli_target_diamondsquares.svg	stimuli_distractor_diamondtriangles.svg	3	yes	57	0	188	0	0			0	0			1				0	
6.6.1	win	2023-06-02	09:08:54	09:57:57	2931283	63d6d8e21745f34be8ce7c35	3	1	practice_z	9	practice_z	9	stimuli_target_diamondsquares.svg	stimuli_distractor_trianglediamonds.svg	6	yes	0	0	2000	0	0			0	0			1				0	
6.6.1	win	2023-06-02	09:08:54	09:57:57	2931283	63d6d8e21745f34be8ce7c35	3	1	practice_z	9	advance_on_keypress_ZEE	10	stimuli_target_diamondsquares.svg	stimuli_distractor_trianglediamonds.svg	6	yes	57	0	3	0	0			0	0			1				0	
6.6.1	win	2023-06-02	09:08:54	09:58:00	2934949	63d6d8e21745f34be8ce7c35	3	1	practice_z	9	practice_z	11	stimuli_distractor_trianglediamonds.svg	stimuli_target_squarediamonds.svg	11	yes	0	0	2000	0	0			0	0			1				0	
6.6.1	win	2023-06-02	09:08:54	09:58:00	2934949	63d6d8e21745f34be8ce7c35	3	1	practice_z	9	advance_on_keypress_ZEE	12	stimuli_distractor_trianglediamonds.svg	stimuli_target_squarediamonds.svg	11	yes	57	0	1247	0	0			0	0			1				0	
6.6.1	win	2023-06-02	09:08:54	09:58:05	2939848	63d6d8e21745f34be8ce7c35	3	1	practice_z	9	practice_z	13	stimuli_distractor_diamondtriangles.svg	stimuli_distractor_diamondtriangles.svg	13	no	0	1	2000	0	0			0	0			1				0	
6.6.1	win	2023-06-02	09:08:54	09:58:05	2939848	63d6d8e21745f34be8ce7c35	3	1	practice_z	9	advance_on_keypress_ZEE	14	stimuli_distractor_diamondtriangles.svg	stimuli_distractor_diamondtriangles.svg	13	no	57	0	786	0	0			0	0			1				0	
6.6.1	win	2023-06-02	09:08:54	09:58:10	2944281	63d6d8e21745f34be8ce7c35	3	1	practice_z	9	practice_z	15	stimuli_distractor_trianglediamonds.svg	stimuli_target_rectanglediamonds.svg	10	yes	0	0	2000	0	0			0	0			1				0	
6.6.1	win	2023-06-02	09:08:54	09:58:10	2944281	63d6d8e21745f34be8ce7c35	3	1	practice_z	9	advance_on_keypress_ZEE	16	stimuli_distractor_trianglediamonds.svg	stimuli_target_rectanglediamonds.svg	10	yes	57	0	3	0	0			0	0			1				0	
6.6.1	win	2023-06-02	09:08:54	09:58:13	2947947	63d6d8e21745f34be8ce7c35	3	1	practice_z	9	practice_z	17	stimuli_target_squarediamonds.svg	stimuli_distractor_diamondtriangles.svg	2	yes	0	0	2000	0	0			0	0			1				0	
6.6.1	win	2023-06-02	09:08:54	09:58:13	2947947	63d6d8e21745f34be8ce7c35	3	1	practice_z	9	advance_on_keypress_ZEE	18	stimuli_target_squarediamonds.svg	stimuli_distractor_diamondtriangles.svg	2	yes	57	0	477	0	0			0	0			1				0	
6.6.1	win	2023-06-02	09:08:54	09:58:18	2952063	63d6d8e21745f34be8ce7c35	3	1	practice_z	9	practice_z	19	stimuli_target_rectanglediamonds.svg	stimuli_distractor_diamondtriangles.svg	1	yes	0	0	2000	0	0			0	0			1				0	
6.6.1	win	2023-06-02	09:08:54	09:58:18	2952063	63d6d8e21745f34be8ce7c35	3	1	practice_z	9	advance_on_keypress_ZEE	20	stimuli_target_rectanglediamonds.svg	stimuli_distractor_diamondtriangles.svg	1	yes	57	0	845	0	0			0	0			1				0	
6.6.1	win	2023-06-02	09:08:54	09:58:22	2956563	63d6d8e21745f34be8ce7c35	3	1	practice_z	9	practice_z	21	stimuli_target_squarediamonds.svg	stimuli_distractor_trianglediamonds.svg	5	yes	0	0	2000	0	0			0	0			1				0	
6.6.1	win	2023-06-02	09:08:54	09:58:22	2956563	63d6d8e21745f34be8ce7c35	3	1	practice_z	9	advance_on_keypress_ZEE	22	stimuli_target_squarediamonds.svg	stimuli_distractor_trianglediamonds.svg	5	yes	57	0	1031	0	0			0	0			1				0	
6.6.1	win	2023-06-02	09:08:54	09:58:27	2961245	63d6d8e21745f34be8ce7c35	3	1	practice_z	9	practice_z	23	stimuli_distractor_diamondtriangles.svg	stimuli_distractor_trianglediamonds.svg	14	no	0	1	2000	0	0			0	0			1				0	
6.6.1	win	2023-06-02	09:08:54	09:58:27	2961245	63d6d8e21745f34be8ce7c35	3	1	practice_z	9	advance_on_keypress_ZEE	24	stimuli_distractor_diamondtriangles.svg	stimuli_distractor_trianglediamonds.svg	14	no	57	0	864	0	0			0	0			1				0	
6.6.1	win	2023-06-02	09:08:54	09:58:31	2965762	63d6d8e21745f34be8ce7c35	3	1	practice_z	9	practice_z	25	stimuli_distractor_diamondtriangles.svg	stimuli_target_diamondrectangles.svg	8	yes	0	0	2000	0	0			0	0			1				0	
6.6.1	win	2023-06-02	09:08:54	09:58:31	2965762	63d6d8e21745f34be8ce7c35	3	1	practice_z	9	advance_on_keypress_ZEE	26	stimuli_distractor_diamondtriangles.svg	stimuli_target_diamondrectangles.svg	8	yes	57	0	1412	0	0			0	0			1				0	
6.6.1	win	2023-06-02	09:08:54	09:58:36	2970828	63d6d8e21745f34be8ce7c35	3	1	practice_z	9	practice_z	27	stimuli_distractor_trianglediamonds.svg	stimuli_target_diamondrectangles.svg	12	yes	0	0	2000	0	0			0	0			1				0	
6.6.1	win	2023-06-02	09:08:54	09:58:36	2970828	63d6d8e21745f34be8ce7c35	3	1	practice_z	9	advance_on_keypress_ZEE	28	stimuli_distractor_trianglediamonds.svg	stimuli_target_diamondrectangles.svg	12	yes	57	0	142	0	0			0	0			1				0	
6.6.1	win	2023-06-02	09:08:54	09:58:40	2974610	63d6d8e21745f34be8ce7c35	3	1	practice_z	9	practice_z	29	stimuli_distractor_diamondtriangles.svg	stimuli_target_trianglerectangles.svg	9	yes	0	0	2000	0	0			0	0			1				0	
6.6.1	win	2023-06-02	09:08:54	09:58:40	2974610	63d6d8e21745f34be8ce7c35	3	1	practice_z	9	advance_on_keypress_ZEE	30	stimuli_distractor_diamondtriangles.svg	stimuli_target_trianglerectangles.svg	9	yes	57	0	2012	0	0			0	0			1				0	
6.6.1	win	2023-06-02	09:08:54	09:58:46	2980276	63d6d8e21745f34be8ce7c35	3	1	practice_z	9	practice_z	31	stimuli_distractor_trianglediamonds.svg	stimuli_distractor_trianglediamonds.svg	15	no	0	1	2000	0	0			0	0			1				0	
6.6.1	win	2023-06-02	09:08:54	09:58:46	2980276	63d6d8e21745f34be8ce7c35	3	1	practice_z	9	advance_on_keypress_ZEE	32	stimuli_distractor_trianglediamonds.svg	stimuli_distractor_trianglediamonds.svg	15	no	57	0	473	0	0			0	0			1				0	
6.6.1	win	2023-06-02	09:08:54	09:58:53	2987274	63d6d8e21745f34be8ce7c35	3	1	main_z	11	main_z	1	stimuli_target_rectangletriangles.svg	stimuli_distractor_diamondtriangles.svg	5	yes	0	0	2000	0	0			0	0			1				0	
6.6.1	win	2023-06-02	09:08:54	09:58:53	2987274	63d6d8e21745f34be8ce7c35	3	1	main_z	11	advance_on_keypress_ZEE	2	stimuli_target_rectangletriangles.svg	stimuli_distractor_diamondtriangles.svg	5	yes	57	0	12161	0	0			0	0			1				0	
6.6.1	win	2023-06-02	09:08:54	09:59:08	3002089	63d6d8e21745f34be8ce7c35	3	1	main_z	11	main_z	3	stimuli_distractor_diamondtriangles.svg	stimuli_target_rectanglediamonds.svg	14	yes	0	0	2000	0	0			0	0			1				0	
6.6.1	win	2023-06-02	09:08:54	09:59:08	3002089	63d6d8e21745f34be8ce7c35	3	1	main_z	11	advance_on_keypress_ZEE	4	stimuli_distractor_diamondtriangles.svg	stimuli_target_rectanglediamonds.svg	14	yes	57	0	4254	0	0			0	0			1				0	
6.6.1	win	2023-06-02	09:08:54	09:59:15	3008988	63d6d8e21745f34be8ce7c35	3	1	main_z	11	main_z	5	stimuli_distractor_trianglediamonds.svg	stimuli_distractor_diamondtriangles.svg	36	no	0	1	2000	0	0			0	0			1				0	
6.6.1	win	2023-06-02	09:08:54	09:59:15	3008988	63d6d8e21745f34be8ce7c35	3	1	main_z	11	advance_on_keypress_ZEE	6	stimuli_distractor_trianglediamonds.svg	stimuli_distractor_diamondtriangles.svg	36	no	57	0	1134	0	0			0	0			1				0	
6.6.1	win	2023-06-02	09:08:54	09:59:18	3012771	63d6d8e21745f34be8ce7c35	3	1	main_z	11	main_z	7	stimuli_target_rectanglediamonds.svg	stimuli_distractor_diamondtriangles.svg	6	yes	0	0	2000	0	0			0	0			1				0	
6.6.1	win	2023-06-02	09:08:54	09:59:18	3012771	63d6d8e21745f34be8ce7c35	3	1	main_z	11	advance_on_keypress_ZEE	8	stimuli_target_rectanglediamonds.svg	stimuli_distractor_diamondtriangles.svg	6	yes	57	0	1039	0	0			0	0			1				0	
6.6.1	win	2023-06-02	09:08:54	09:59:22	3016454	63d6d8e21745f34be8ce7c35	3	1	main_z	11	main_z	9	stimuli_target_diamondsquares.svg	stimuli_distractor_diamondtriangles.svg	24	yes	0	0	2000	0	0			0	0			1				0	
6.6.1	win	2023-06-02	09:08:54	09:59:22	3016454	63d6d8e21745f34be8ce7c35	3	1	main_z	11	advance_on_keypress_ZEE	10	stimuli_target_diamondsquares.svg	stimuli_distractor_diamondtriangles.svg	24	yes	57	0	75	0	0			0	0			1				0	
6.6.1	win	2023-06-02	09:08:54	09:59:25	3019170	63d6d8e21745f34be8ce7c35	3	1	main_z	11	main_z	11	stimuli_distractor_diamondtriangles.svg	stimuli_target_squaretriangles.svg	15	yes	0	0	2000	0	0			0	0			1				0	
6.6.1	win	2023-06-02	09:08:54	09:59:25	3019170	63d6d8e21745f34be8ce7c35	3	1	main_z	11	advance_on_keypress_ZEE	12	stimuli_distractor_diamondtriangles.svg	stimuli_target_squaretriangles.svg	15	yes	57	0	1856	0	0			0	0			1				0	
6.6.1	win	2023-06-02	09:08:54	09:59:29	3023669	63d6d8e21745f34be8ce7c35	3	1	main_z	11	main_z	13	stimuli_distractor_diamondtriangles.svg	stimuli_distractor_trianglediamonds.svg	37	no	0	1	2000	0	0			0	0			1				0	
6.6.1	win	2023-06-02	09:08:54	09:59:29	3023669	63d6d8e21745f34be8ce7c35	3	1	main_z	11	advance_on_keypress_ZEE	14	stimuli_distractor_diamondtriangles.svg	stimuli_distractor_trianglediamonds.svg	37	no	57	0	354	0	0			0	0			1				0	
6.6.1	win	2023-06-02	09:08:54	09:59:32	3026669	63d6d8e21745f34be8ce7c35	3	1	main_z	11	main_z	15	stimuli_target_trianglesquares.svg	stimuli_distractor_trianglediamonds.svg	18	yes	0	0	2000	0	0			0	0			1				0	
6.6.1	win	2023-06-02	09:08:54	09:59:32	3026669	63d6d8e21745f34be8ce7c35	3	1	main_z	11	advance_on_keypress_ZEE	16	stimuli_target_trianglesquares.svg	stimuli_distractor_trianglediamonds.svg	18	yes	57	0	1411	0	0			0	0			1				0	
6.6.1	win	2023-06-02	09:08:54	09:59:36	3030735	63d6d8e21745f34be8ce7c35	3	1	main_z	11	main_z	17	stimuli_distractor_diamondtriangles.svg	stimuli_target_diamondsquares.svg	32	yes	0	0	2000	0	0			0	0			1				0	
6.6.1	win	2023-06-02	09:08:54	09:59:36	3030735	63d6d8e21745f34be8ce7c35	3	1	main_z	11	advance_on_keypress_ZEE	18	stimuli_distractor_diamondtriangles.svg	stimuli_target_diamondsquares.svg	32	yes	57	0	930	0	0			0	0			1				0	
6.6.1	win	2023-06-02	09:08:54	09:59:40	3034318	63d6d8e21745f34be8ce7c35	3	1	main_z	11	main_z	19	stimuli_target_squaretriangles.svg	stimuli_distractor_trianglediamonds.svg	3	yes	0	0	2000	0	0			0	0			1				0	
6.6.1	win	2023-06-02	09:08:54	09:59:40	3034318	63d6d8e21745f34be8ce7c35	3	1	main_z	11	advance_on_keypress_ZEE	20	stimuli_target_squaretriangles.svg	stimuli_distractor_trianglediamonds.svg	3	yes	57	0	1820	0	0			0	0			1				0	
6.6.1	win	2023-06-02	09:08:54	09:59:44	3038784	63d6d8e21745f34be8ce7c35	3	1	main_z	11	main_z	21	stimuli_target_rectanglediamonds.svg	stimuli_distractor_trianglediamonds.svg	2	yes	0	0	2000	0	0			0	0			1				0	
6.6.1	win	2023-06-02	09:08:54	09:59:44	3038784	63d6d8e21745f34be8ce7c35	3	1	main_z	11	advance_on_keypress_ZEE	22	stimuli_target_rectanglediamonds.svg	stimuli_distractor_trianglediamonds.svg	2	yes	57	0	13909	0	0			0	0			1				0	
6.6.1	win	2023-06-02	09:08:54	10:00:01	3055349	63d6d8e21745f34be8ce7c35	3	1	main_z	11	main_z	23	stimuli_distractor_trianglediamonds.svg	stimuli_target_diamondsquares.svg	28	yes	0	0	2000	0	0			0	0			1				0	
6.6.1	win	2023-06-02	09:08:54	10:00:01	3055349	63d6d8e21745f34be8ce7c35	3	1	main_z	11	advance_on_keypress_ZEE	24	stimuli_distractor_trianglediamonds.svg	stimuli_target_diamondsquares.svg	28	yes	57	0	654	0	0			0	0			1				0	
6.6.1	win	2023-06-02	09:08:54	10:00:04	3058648	63d6d8e21745f34be8ce7c35	3	1	main_z	11	main_z	25	stimuli_distractor_diamondtriangles.svg	stimuli_target_trianglesquares.svg	30	yes	0	0	2000	0	0			0	0			1				0	
6.6.1	win	2023-06-02	09:08:54	10:00:04	3058648	63d6d8e21745f34be8ce7c35	3	1	main_z	11	advance_on_keypress_ZEE	26	stimuli_distractor_diamondtriangles.svg	stimuli_target_trianglesquares.svg	30	yes	57	0	1217	0	0			0	0			1				0	
6.6.1	win	2023-06-02	09:08:54	10:00:08	3062514	63d6d8e21745f34be8ce7c35	3	1	main_z	11	main_z	27	stimuli_distractor_trianglediamonds.svg	stimuli_target_rectangletriangles.svg	9	yes	0	0	2000	0	0			0	0			1				0	
6.6.1	win	2023-06-02	09:08:54	10:00:08	3062514	63d6d8e21745f34be8ce7c35	3	1	main_z	11	advance_on_keypress_ZEE	28	stimuli_distractor_trianglediamonds.svg	stimuli_target_rectangletriangles.svg	9	yes	57	0	3	0	0			0	0			1				0	
6.6.1	win	2023-06-02	09:08:54	10:00:11	3065181	63d6d8e21745f34be8ce7c35	3	1	main_z	11	main_z	29	stimuli_distractor_trianglediamonds.svg	stimuli_distractor_trianglediamonds.svg	33	no	0	1	2000	0	0			0	0			1				0	
6.6.1	win	2023-06-02	09:08:54	10:00:11	3065181	63d6d8e21745f34be8ce7c35	3	1	main_z	11	advance_on_keypress_ZEE	30	stimuli_distractor_trianglediamonds.svg	stimuli_distractor_trianglediamonds.svg	33	no	57	0	5	0	0			0	0			1				0	
6.6.1	win	2023-06-02	09:08:54	10:00:13	3067847	63d6d8e21745f34be8ce7c35	3	1	main_z	11	main_z	31	stimuli_target_trianglerectangles.svg	stimuli_distractor_trianglediamonds.svg	17	yes	0	0	2000	0	0			0	0			1				0	
6.6.1	win	2023-06-02	09:08:54	10:00:13	3067847	63d6d8e21745f34be8ce7c35	3	1	main_z	11	advance_on_keypress_ZEE	32	stimuli_target_trianglerectangles.svg	stimuli_distractor_trianglediamonds.svg	17	yes	57	0	1747	0	0			0	0			1				0	
6.6.1	win	2023-06-02	09:08:54	10:00:18	3072247	63d6d8e21745f34be8ce7c35	3	1	main_z	11	main_z	33	stimuli_target_diamondrectangles.svg	stimuli_distractor_diamondtriangles.svg	23	yes	0	0	2000	0	0			0	0			1				0	
6.6.1	win	2023-06-02	09:08:54	10:00:18	3072247	63d6d8e21745f34be8ce7c35	3	1	main_z	11	advance_on_keypress_ZEE	34	stimuli_target_diamondrectangles.svg	stimuli_distractor_diamondtriangles.svg	23	yes	57	0	723	0	0			0	0			1				0	
6.6.1	win	2023-06-02	09:08:54	10:00:21	3075613	63d6d8e21745f34be8ce7c35	3	1	main_z	11	main_z	35	stimuli_distractor_diamondtriangles.svg	stimuli_target_squarediamonds.svg	16	yes	0	0	2000	0	0			0	0			1				0	
6.6.1	win	2023-06-02	09:08:54	10:00:21	3075613	63d6d8e21745f34be8ce7c35	3	1	main_z	11	advance_on_keypress_ZEE	36	stimuli_distractor_diamondtriangles.svg	stimuli_target_squarediamonds.svg	16	yes	57	0	5126	0	0			0	0			1				0	
6.6.1	win	2023-06-02	09:08:54	10:00:29	3083378	63d6d8e21745f34be8ce7c35	3	1	main_z	11	main_z	37	stimuli_target_squaretriangles.svg	stimuli_distractor_diamondtriangles.svg	7	yes	0	0	2000	0	0			0	0			1				0	
6.6.1	win	2023-06-02	09:08:54	10:00:29	3083378	63d6d8e21745f34be8ce7c35	3	1	main_z	11	advance_on_keypress_ZEE	38	stimuli_target_squaretriangles.svg	stimuli_distractor_diamondtriangles.svg	7	yes	57	0	617	0	0			0	0			1				0	
6.6.1	win	2023-06-02	09:08:54	10:00:32	3086645	63d6d8e21745f34be8ce7c35	3	1	main_z	11	main_z	39	stimuli_distractor_diamondtriangles.svg	stimuli_target_rectangletriangles.svg	13	yes	0	0	2000	0	0			0	0			1				0	
6.6.1	win	2023-06-02	09:08:54	10:00:32	3086645	63d6d8e21745f34be8ce7c35	3	1	main_z	11	advance_on_keypress_ZEE	40	stimuli_distractor_diamondtriangles.svg	stimuli_target_rectangletriangles.svg	13	yes	57	0	1471	0	0			0	0			1				0	
6.6.1	win	2023-06-02	09:08:54	10:00:36	3090761	63d6d8e21745f34be8ce7c35	3	1	main_z	11	main_z	41	stimuli_target_diamondrectangles.svg	stimuli_distractor_trianglediamonds.svg	19	yes	0	0	2000	0	0			0	0			1				0	
6.6.1	win	2023-06-02	09:08:54	10:00:36	3090761	63d6d8e21745f34be8ce7c35	3	1	main_z	11	advance_on_keypress_ZEE	42	stimuli_target_diamondrectangles.svg	stimuli_distractor_trianglediamonds.svg	19	yes	57	0	4432	0	0			0	0			1				0	
6.6.1	win	2023-06-02	09:08:54	10:00:43	3097843	63d6d8e21745f34be8ce7c35	3	1	main_z	11	main_z	43	stimuli_distractor_diamondtriangles.svg	stimuli_distractor_trianglediamonds.svg	38	no	0	1	2000	0	0			0	0			1				0	
6.6.1	win	2023-06-02	09:08:54	10:00:43	3097843	63d6d8e21745f34be8ce7c35	3	1	main_z	11	advance_on_keypress_ZEE	44	stimuli_distractor_diamondtriangles.svg	stimuli_distractor_trianglediamonds.svg	38	no	57	0	1821	0	0			0	0			1				0	
6.6.1	win	2023-06-02	09:08:54	10:00:48	3102309	63d6d8e21745f34be8ce7c35	3	1	main_z	11	main_z	45	stimuli_distractor_trianglediamonds.svg	stimuli_target_trianglesquares.svg	26	yes	0	0	2000	0	0			0	0			1				0	
6.6.1	win	2023-06-02	09:08:54	10:00:48	3102309	63d6d8e21745f34be8ce7c35	3	1	main_z	11	advance_on_keypress_ZEE	46	stimuli_distractor_trianglediamonds.svg	stimuli_target_trianglesquares.svg	26	yes	57	0	106	0	0			0	0			1				0	
6.6.1	win	2023-06-02	09:08:54	10:00:51	3105059	63d6d8e21745f34be8ce7c35	3	1	main_z	11	main_z	47	stimuli_distractor_trianglediamonds.svg	stimuli_target_trianglerectangles.svg	25	yes	0	0	2000	0	0			0	0			1				0	
6.6.1	win	2023-06-02	09:08:54	10:00:51	3105059	63d6d8e21745f34be8ce7c35	3	1	main_z	11	advance_on_keypress_ZEE	48	stimuli_distractor_trianglediamonds.svg	stimuli_target_trianglerectangles.svg	25	yes	57	0	501	0	0			0	0			1				0	
6.6.1	win	2023-06-02	09:08:54	10:00:54	3108209	63d6d8e21745f34be8ce7c35	3	1	main_z	11	main_z	49	stimuli_distractor_diamondtriangles.svg	stimuli_distractor_diamondtriangles.svg	39	no	0	1	2000	0	0			0	0			1				0	
6.6.1	win	2023-06-02	09:08:54	10:00:54	3108209	63d6d8e21745f34be8ce7c35	3	1	main_z	11	advance_on_keypress_ZEE	50	stimuli_distractor_diamondtriangles.svg	stimuli_distractor_diamondtriangles.svg	39	no	57	0	159	0	0			0	0			1				0	
6.6.1	win	2023-06-02	09:08:54	10:00:57	3111008	63d6d8e21745f34be8ce7c35	3	1	main_z	11	main_z	51	stimuli_target_squarediamonds.svg	stimuli_distractor_trianglediamonds.svg	4	yes	0	0	2000	0	0			0	0			1				0	
6.6.1	win	2023-06-02	09:08:54	10:00:57	3111008	63d6d8e21745f34be8ce7c35	3	1	main_z	11	advance_on_keypress_ZEE	52	stimuli_target_squarediamonds.svg	stimuli_distractor_trianglediamonds.svg	4	yes	57	0	247	0	0			0	0			1				0	
6.6.1	win	2023-06-02	09:08:54	10:00:59	3113908	63d6d8e21745f34be8ce7c35	3	1	main_z	11	main_z	53	stimuli_distractor_trianglediamonds.svg	stimuli_target_squaretriangles.svg	11	yes	0	0	2000	0	0			0	0			1				0	
6.6.1	win	2023-06-02	09:08:54	10:00:59	3113908	63d6d8e21745f34be8ce7c35	3	1	main_z	11	advance_on_keypress_ZEE	54	stimuli_distractor_trianglediamonds.svg	stimuli_target_squaretriangles.svg	11	yes	57	0	207	0	0			0	0			1				0	
6.6.1	win	2023-06-02	09:08:54	10:01:02	3116758	63d6d8e21745f34be8ce7c35	3	1	main_z	11	main_z	55	stimuli_target_trianglesquares.svg	stimuli_distractor_diamondtriangles.svg	22	yes	0	0	2000	0	0			0	0			1				0	
6.6.1	win	2023-06-02	09:08:54	10:01:02	3116758	63d6d8e21745f34be8ce7c35	3	1	main_z	11	advance_on_keypress_ZEE	56	stimuli_target_trianglesquares.svg	stimuli_distractor_diamondtriangles.svg	22	yes	57	0	3764	0	0			0	0			1				0	
6.6.1	win	2023-06-02	09:08:54	10:01:09	3123173	63d6d8e21745f34be8ce7c35	3	1	main_z	11	main_z	57	stimuli_target_squarediamonds.svg	stimuli_distractor_diamondtriangles.svg	8	yes	0	0	2000	0	0			0	0			1				0	
6.6.1	win	2023-06-02	09:08:54	10:01:09	3123173	63d6d8e21745f34be8ce7c35	3	1	main_z	11	advance_on_keypress_ZEE	58	stimuli_target_squarediamonds.svg	stimuli_distractor_diamondtriangles.svg	8	yes	57	0	2969	0	0			0	0			1				0	
6.6.1	win	2023-06-02	09:08:54	10:01:14	3128789	63d6d8e21745f34be8ce7c35	3	1	main_z	11	main_z	59	stimuli_target_rectangletriangles.svg	stimuli_distractor_trianglediamonds.svg	1	yes	0	0	2000	0	0			0	0			1				0	
6.6.1	win	2023-06-02	09:08:54	10:01:14	3128789	63d6d8e21745f34be8ce7c35	3	1	main_z	11	advance_on_keypress_ZEE	60	stimuli_target_rectangletriangles.svg	stimuli_distractor_trianglediamonds.svg	1	yes	57	0	574	0	0			0	0			1				0	
6.6.1	win	2023-06-02	09:08:54	10:01:18	3132006	63d6d8e21745f34be8ce7c35	3	1	main_z	11	main_z	61	stimuli_distractor_trianglediamonds.svg	stimuli_target_rectanglediamonds.svg	10	yes	0	0	2000	0	0			0	0			1				0	
6.6.1	win	2023-06-02	09:08:54	10:01:18	3132006	63d6d8e21745f34be8ce7c35	3	1	main_z	11	advance_on_keypress_ZEE	62	stimuli_distractor_trianglediamonds.svg	stimuli_target_rectanglediamonds.svg	10	yes	57	0	96	0	0			0	0			1				0	
6.6.1	win	2023-06-02	09:08:54	10:01:20	3134755	63d6d8e21745f34be8ce7c35	3	1	main_z	11	main_z	63	stimuli_target_trianglerectangles.svg	stimuli_distractor_diamondtriangles.svg	21	yes	0	0	2000	0	0			0	0			1				0	
6.6.1	win	2023-06-02	09:08:54	10:01:20	3134755	63d6d8e21745f34be8ce7c35	3	1	main_z	11	advance_on_keypress_ZEE	64	stimuli_target_trianglerectangles.svg	stimuli_distractor_diamondtriangles.svg	21	yes	57	0	1997	0	0			0	0			1				0	
6.6.1	win	2023-06-02	09:08:54	10:01:25	3139405	63d6d8e21745f34be8ce7c35	3	1	main_z	11	main_z	65	stimuli_distractor_trianglediamonds.svg	stimuli_target_diamondrectangles.svg	27	yes	0	0	2000	0	0			0	0			1				0	
6.6.1	win	2023-06-02	09:08:54	10:01:25	3139405	63d6d8e21745f34be8ce7c35	3	1	main_z	11	advance_on_keypress_ZEE	66	stimuli_distractor_trianglediamonds.svg	stimuli_target_diamondrectangles.svg	27	yes	57	0	7036	0	0			0	0			1				0	
6.6.1	win	2023-06-02	09:08:54	10:01:35	3149087	63d6d8e21745f34be8ce7c35	3	1	main_z	11	main_z	67	stimuli_distractor_trianglediamonds.svg	stimuli_target_squarediamonds.svg	12	yes	0	0	2000	0	0			0	0			1				0	
6.6.1	win	2023-06-02	09:08:54	10:01:35	3149087	63d6d8e21745f34be8ce7c35	3	1	main_z	11	advance_on_keypress_ZEE	68	stimuli_distractor_trianglediamonds.svg	stimuli_target_squarediamonds.svg	12	yes	57	0	62	0	0			0	0			1				0	
6.6.1	win	2023-06-02	09:08:54	10:01:37	3151803	63d6d8e21745f34be8ce7c35	3	1	main_z	11	main_z	69	stimuli_target_diamondsquares.svg	stimuli_distractor_trianglediamonds.svg	20	yes	0	0	2000	0	0			0	0			1				0	
6.6.1	win	2023-06-02	09:08:54	10:01:37	3151803	63d6d8e21745f34be8ce7c35	3	1	main_z	11	advance_on_keypress_ZEE	70	stimuli_target_diamondsquares.svg	stimuli_distractor_trianglediamonds.svg	20	yes	57	0	127	0	0			0	0			1				0	
6.6.1	win	2023-06-02	09:08:54	10:01:40	3154569	63d6d8e21745f34be8ce7c35	3	1	main_z	11	main_z	71	stimuli_distractor_diamondtriangles.svg	stimuli_target_diamondrectangles.svg	31	yes	0	0	2000	0	0			0	0			1				0	
6.6.1	win	2023-06-02	09:08:54	10:01:40	3154569	63d6d8e21745f34be8ce7c35	3	1	main_z	11	advance_on_keypress_ZEE	72	stimuli_distractor_diamondtriangles.svg	stimuli_target_diamondrectangles.svg	31	yes	57	0	1655	0	0			0	0			1				0	
6.6.1	win	2023-06-02	09:08:54	10:01:44	3158869	63d6d8e21745f34be8ce7c35	3	1	main_z	11	main_z	73	stimuli_distractor_diamondtriangles.svg	stimuli_distractor_diamondtriangles.svg	40	no	0	1	2000	0	0			0	0			1				0	
6.6.1	win	2023-06-02	09:08:54	10:01:44	3158869	63d6d8e21745f34be8ce7c35	3	1	main_z	11	advance_on_keypress_ZEE	74	stimuli_distractor_diamondtriangles.svg	stimuli_distractor_diamondtriangles.svg	40	no	57	0	367	0	0			0	0			1				0	
6.6.1	win	2023-06-02	09:08:54	10:01:47	3161885	63d6d8e21745f34be8ce7c35	3	1	main_z	11	main_z	75	stimuli_distractor_trianglediamonds.svg	stimuli_distractor_trianglediamonds.svg	34	no	0	1	2000	0	0			0	0			1				0	
6.6.1	win	2023-06-02	09:08:54	10:01:47	3161885	63d6d8e21745f34be8ce7c35	3	1	main_z	11	advance_on_keypress_ZEE	76	stimuli_distractor_trianglediamonds.svg	stimuli_distractor_trianglediamonds.svg	34	no	57	0	2012	0	0			0	0			1				0	
6.6.1	win	2023-06-02	09:08:54	10:01:52	3166551	63d6d8e21745f34be8ce7c35	3	1	main_z	11	main_z	77	stimuli_distractor_diamondtriangles.svg	stimuli_target_trianglerectangles.svg	29	yes	0	0	2000	0	0			0	0			1				0	
6.6.1	win	2023-06-02	09:08:54	10:01:52	3166551	63d6d8e21745f34be8ce7c35	3	1	main_z	11	advance_on_keypress_ZEE	78	stimuli_distractor_diamondtriangles.svg	stimuli_target_trianglerectangles.svg	29	yes	57	0	2371	0	0			0	0			1				0	
6.6.1	win	2023-06-02	09:08:54	10:01:57	3171567	63d6d8e21745f34be8ce7c35	3	1	main_z	11	main_z	79	stimuli_distractor_trianglediamonds.svg	stimuli_distractor_diamondtriangles.svg	35	no	0	1	2000	0	0			0	0			1				0	
6.6.1	win	2023-06-02	09:08:54	10:01:57	3171567	63d6d8e21745f34be8ce7c35	3	1	main_z	11	advance_on_keypress_ZEE	80	stimuli_distractor_trianglediamonds.svg	stimuli_distractor_diamondtriangles.svg	35	no	57	0	1585	0	0			0	0			1				0	
6.6.1	win	2023-06-02	09:08:54	10:02:01	3175800	63d6d8e21745f34be8ce7c35	3	1	main_z	11	main_z	81	stimuli_distractor_diamondtriangles.svg	stimuli_target_rectangletriangles.svg	13	yes	0	0	2000	0	0			0	0			1				0	
6.6.1	win	2023-06-02	09:08:54	10:02:01	3175800	63d6d8e21745f34be8ce7c35	3	1	main_z	11	advance_on_keypress_ZEE	82	stimuli_distractor_diamondtriangles.svg	stimuli_target_rectangletriangles.svg	13	yes	57	0	21257	0	0			0	0			1				0	
6.6.1	win	2023-06-02	09:08:54	10:02:25	3199697	63d6d8e21745f34be8ce7c35	3	1	main_z	11	main_z	83	stimuli_distractor_diamondtriangles.svg	stimuli_target_rectanglediamonds.svg	14	yes	0	0	2000	0	0			0	0			1				0	
6.6.1	win	2023-06-02	09:08:54	10:02:25	3199697	63d6d8e21745f34be8ce7c35	3	1	main_z	11	advance_on_keypress_ZEE	84	stimuli_distractor_diamondtriangles.svg	stimuli_target_rectanglediamonds.svg	14	yes	57	0	505	0	0			0	0			1				0	
6.6.1	win	2023-06-02	09:08:54	10:02:28	3202847	63d6d8e21745f34be8ce7c35	3	1	main_z	11	main_z	85	stimuli_distractor_diamondtriangles.svg	stimuli_target_diamondsquares.svg	32	yes	0	0	2000	0	0			0	0			1				0	
6.6.1	win	2023-06-02	09:08:54	10:02:28	3202847	63d6d8e21745f34be8ce7c35	3	1	main_z	11	advance_on_keypress_ZEE	86	stimuli_distractor_diamondtriangles.svg	stimuli_target_diamondsquares.svg	32	yes	57	0	1381	0	0			0	0			1				0	
6.6.1	win	2023-06-02	09:08:54	10:02:32	3206879	63d6d8e21745f34be8ce7c35	3	1	main_z	11	main_z	87	stimuli_target_squaretriangles.svg	stimuli_distractor_trianglediamonds.svg	3	yes	0	0	2000	0	0			0	0			1				0	
6.6.1	win	2023-06-02	09:08:54	10:02:32	3206879	63d6d8e21745f34be8ce7c35	3	1	main_z	11	advance_on_keypress_ZEE	88	stimuli_target_squaretriangles.svg	stimuli_distractor_trianglediamonds.svg	3	yes	57	0	1581	0	0			0	0			1				0	
6.6.1	win	2023-06-02	09:08:54	10:02:37	3211112	63d6d8e21745f34be8ce7c35	3	1	main_z	11	main_z	89	stimuli_distractor_diamondtriangles.svg	stimuli_target_trianglesquares.svg	30	yes	0	0	2000	0	0			0	0			1				0	
6.6.1	win	2023-06-02	09:08:54	10:02:37	3211112	63d6d8e21745f34be8ce7c35	3	1	main_z	11	advance_on_keypress_ZEE	90	stimuli_distractor_diamondtriangles.svg	stimuli_target_trianglesquares.svg	30	yes	57	0	1014	0	0			0	0			1				0	
6.6.1	win	2023-06-02	09:08:54	10:02:40	3214778	63d6d8e21745f34be8ce7c35	3	1	main_z	11	main_z	91	stimuli_distractor_trianglediamonds.svg	stimuli_target_diamondsquares.svg	28	yes	0	0	2000	0	0			0	0			1				0	
6.6.1	win	2023-06-02	09:08:54	10:02:40	3214778	63d6d8e21745f34be8ce7c35	3	1	main_z	11	advance_on_keypress_ZEE	92	stimuli_distractor_trianglediamonds.svg	stimuli_target_diamondsquares.svg	28	yes	57	0	1171	0	0			0	0			1				0	
6.6.1	win	2023-06-02	09:08:54	10:02:44	3218594	63d6d8e21745f34be8ce7c35	3	1	main_z	11	main_z	93	stimuli_distractor_trianglediamonds.svg	stimuli_distractor_trianglediamonds.svg	34	no	0	1	2000	0	0			0	0			1				0	
6.6.1	win	2023-06-02	09:08:54	10:02:44	3218594	63d6d8e21745f34be8ce7c35	3	1	main_z	11	advance_on_keypress_ZEE	94	stimuli_distractor_trianglediamonds.svg	stimuli_distractor_trianglediamonds.svg	34	no	57	0	1503	0	0			0	0			1				0	
6.6.1	win	2023-06-02	09:08:54	10:02:48	3222744	63d6d8e21745f34be8ce7c35	3	1	main_z	11	main_z	95	stimuli_target_trianglesquares.svg	stimuli_distractor_diamondtriangles.svg	22	yes	0	0	2000	0	0			0	0			1				0	
6.6.1	win	2023-06-02	09:08:54	10:02:48	3222744	63d6d8e21745f34be8ce7c35	3	1	main_z	11	advance_on_keypress_ZEE	96	stimuli_target_trianglesquares.svg	stimuli_distractor_diamondtriangles.svg	22	yes	57	0	158	0	0			0	0			1				0	
6.6.1	win	2023-06-02	09:08:54	10:02:51	3225544	63d6d8e21745f34be8ce7c35	3	1	main_z	11	main_z	97	stimuli_distractor_trianglediamonds.svg	stimuli_target_rectanglediamonds.svg	10	yes	0	0	2000	0	0			0	0			1				0	
6.6.1	win	2023-06-02	09:08:54	10:02:51	3225544	63d6d8e21745f34be8ce7c35	3	1	main_z	11	advance_on_keypress_ZEE	98	stimuli_distractor_trianglediamonds.svg	stimuli_target_rectanglediamonds.svg	10	yes	57	0	690	0	0			0	0			1				0	
6.6.1	win	2023-06-02	09:08:54	10:02:54	3228876	63d6d8e21745f34be8ce7c35	3	1	main_z	11	main_z	99	stimuli_target_diamondsquares.svg	stimuli_distractor_trianglediamonds.svg	20	yes	0	0	2000	0	0			0	0			1				0	
6.6.1	win	2023-06-02	09:08:54	10:02:54	3228876	63d6d8e21745f34be8ce7c35	3	1	main_z	11	advance_on_keypress_ZEE	100	stimuli_target_diamondsquares.svg	stimuli_distractor_trianglediamonds.svg	20	yes	57	0	441	0	0			0	0			1				0	
6.6.1	win	2023-06-02	09:08:54	10:02:57	3231959	63d6d8e21745f34be8ce7c35	3	1	main_z	11	main_z	101	stimuli_distractor_trianglediamonds.svg	stimuli_target_squaretriangles.svg	11	yes	0	0	2000	0	0			0	0			1				0	
6.6.1	win	2023-06-02	09:08:54	10:02:57	3231959	63d6d8e21745f34be8ce7c35	3	1	main_z	11	advance_on_keypress_ZEE	102	stimuli_distractor_trianglediamonds.svg	stimuli_target_squaretriangles.svg	11	yes	57	0	868	0	0			0	0			1				0	
6.6.1	win	2023-06-02	09:08:54	10:03:01	3235476	63d6d8e21745f34be8ce7c35	3	1	main_z	11	main_z	103	stimuli_distractor_trianglediamonds.svg	stimuli_target_trianglerectangles.svg	25	yes	0	0	2000	0	0			0	0			1				0	
6.6.1	win	2023-06-02	09:08:54	10:03:01	3235476	63d6d8e21745f34be8ce7c35	3	1	main_z	11	advance_on_keypress_ZEE	104	stimuli_distractor_trianglediamonds.svg	stimuli_target_trianglerectangles.svg	25	yes	57	0	1568	0	0			0	0			1				0	
6.6.1	win	2023-06-02	09:08:54	10:03:05	3239692	63d6d8e21745f34be8ce7c35	3	1	main_z	11	main_z	105	stimuli_distractor_diamondtriangles.svg	stimuli_distractor_trianglediamonds.svg	37	no	0	1	2000	0	0			0	0			1				0	
6.6.1	win	2023-06-02	09:08:54	10:03:05	3239692	63d6d8e21745f34be8ce7c35	3	1	main_z	11	advance_on_keypress_ZEE	106	stimuli_distractor_diamondtriangles.svg	stimuli_distractor_trianglediamonds.svg	37	no	57	0	3632	0	0			0	0			1				0	
6.6.1	win	2023-06-02	09:08:54	10:03:12	3245974	63d6d8e21745f34be8ce7c35	3	1	main_z	11	main_z	107	stimuli_distractor_diamondtriangles.svg	stimuli_target_squaretriangles.svg	15	yes	0	0	2000	0	0			0	0			1				0	
6.6.1	win	2023-06-02	09:08:54	10:03:12	3245974	63d6d8e21745f34be8ce7c35	3	1	main_z	11	advance_on_keypress_ZEE	108	stimuli_distractor_diamondtriangles.svg	stimuli_target_squaretriangles.svg	15	yes	57	0	1776	0	0			0	0			1				0	
6.6.1	win	2023-06-02	09:08:54	10:03:16	3250391	63d6d8e21745f34be8ce7c35	3	1	main_z	11	main_z	109	stimuli_distractor_trianglediamonds.svg	stimuli_target_trianglesquares.svg	26	yes	0	0	2000	0	0			0	0			1				0	
6.6.1	win	2023-06-02	09:08:54	10:03:16	3250391	63d6d8e21745f34be8ce7c35	3	1	main_z	11	advance_on_keypress_ZEE	110	stimuli_distractor_trianglediamonds.svg	stimuli_target_trianglesquares.svg	26	yes	57	0	2209	0	0			0	0			1				0	
6.6.1	win	2023-06-02	09:08:54	10:03:21	3255240	63d6d8e21745f34be8ce7c35	3	1	main_z	11	main_z	111	stimuli_target_rectangletriangles.svg	stimuli_distractor_trianglediamonds.svg	1	yes	0	0	2000	0	0			0	0			1				0	
6.6.1	win	2023-06-02	09:08:54	10:03:21	3255240	63d6d8e21745f34be8ce7c35	3	1	main_z	11	advance_on_keypress_ZEE	112	stimuli_target_rectangletriangles.svg	stimuli_distractor_trianglediamonds.svg	1	yes	57	0	915	0	0			0	0			1				0	
6.6.1	win	2023-06-02	09:08:54	10:03:24	3258806	63d6d8e21745f34be8ce7c35	3	1	main_z	11	main_z	113	stimuli_distractor_trianglediamonds.svg	stimuli_distractor_trianglediamonds.svg	33	no	0	1	2000	0	0			0	0			1				0	
6.6.1	win	2023-06-02	09:08:54	10:03:24	3258806	63d6d8e21745f34be8ce7c35	3	1	main_z	11	advance_on_keypress_ZEE	114	stimuli_distractor_trianglediamonds.svg	stimuli_distractor_trianglediamonds.svg	33	no	57	0	104	0	0			0	0			1				0	
6.6.1	win	2023-06-02	09:08:54	10:03:27	3261556	63d6d8e21745f34be8ce7c35	3	1	main_z	11	main_z	115	stimuli_target_rectanglediamonds.svg	stimuli_distractor_diamondtriangles.svg	6	yes	0	0	2000	0	0			0	0			1				0	
6.6.1	win	2023-06-02	09:08:54	10:03:27	3261556	63d6d8e21745f34be8ce7c35	3	1	main_z	11	advance_on_keypress_ZEE	116	stimuli_target_rectanglediamonds.svg	stimuli_distractor_diamondtriangles.svg	6	yes	57	0	456	0	0			0	0			1				0	
6.6.1	win	2023-06-02	09:08:54	10:03:30	3264655	63d6d8e21745f34be8ce7c35	3	1	main_z	11	main_z	117	stimuli_target_rectangletriangles.svg	stimuli_distractor_diamondtriangles.svg	5	yes	0	0	2000	0	0			0	0			1				0	
6.6.1	win	2023-06-02	09:08:54	10:03:30	3264655	63d6d8e21745f34be8ce7c35	3	1	main_z	11	advance_on_keypress_ZEE	118	stimuli_target_rectangletriangles.svg	stimuli_distractor_diamondtriangles.svg	5	yes	57	0	892	0	0			0	0			1				0	
6.6.1	win	2023-06-02	09:08:54	10:03:34	3268188	63d6d8e21745f34be8ce7c35	3	1	main_z	11	main_z	119	stimuli_distractor_diamondtriangles.svg	stimuli_target_diamondrectangles.svg	31	yes	0	0	2000	0	0			0	0			1				0	
6.6.1	win	2023-06-02	09:08:54	10:03:34	3268188	63d6d8e21745f34be8ce7c35	3	1	main_z	11	advance_on_keypress_ZEE	120	stimuli_distractor_diamondtriangles.svg	stimuli_target_diamondrectangles.svg	31	yes	57	0	273	0	0			0	0			1				0	
6.6.1	win	2023-06-02	09:08:54	10:03:37	3271104	63d6d8e21745f34be8ce7c35	3	1	main_z	11	main_z	121	stimuli_distractor_trianglediamonds.svg	stimuli_target_squarediamonds.svg	12	yes	0	0	2000	0	0			0	0			1				0	
6.6.1	win	2023-06-02	09:08:54	10:03:37	3271104	63d6d8e21745f34be8ce7c35	3	1	main_z	11	advance_on_keypress_ZEE	122	stimuli_distractor_trianglediamonds.svg	stimuli_target_squarediamonds.svg	12	yes	57	0	50	0	0			0	0			1				0	
6.6.1	win	2023-06-02	09:08:54	10:03:39	3273804	63d6d8e21745f34be8ce7c35	3	1	main_z	11	main_z	123	stimuli_target_squarediamonds.svg	stimuli_distractor_trianglediamonds.svg	4	yes	0	0	2000	0	0			0	0			1				0	
6.6.1	win	2023-06-02	09:08:54	10:03:39	3273804	63d6d8e21745f34be8ce7c35	3	1	main_z	11	advance_on_keypress_ZEE	124	stimuli_target_squarediamonds.svg	stimuli_distractor_trianglediamonds.svg	4	yes	57	0	535	0	0			0	0			1				0	
6.6.1	win	2023-06-02	09:08:54	10:03:43	3276987	63d6d8e21745f34be8ce7c35	3	1	main_z	11	main_z	125	stimuli_target_rectanglediamonds.svg	stimuli_distractor_trianglediamonds.svg	2	yes	0	0	2000	0	0			0	0			1				0	
6.6.1	win	2023-06-02	09:08:54	10:03:43	3276987	63d6d8e21745f34be8ce7c35	3	1	main_z	11	advance_on_keypress_ZEE	126	stimuli_target_rectanglediamonds.svg	stimuli_distractor_trianglediamonds.svg	2	yes	57	0	4658	0	0			0	0			1				0	
6.6.1	win	2023-06-02	09:08:54	10:03:50	3284286	63d6d8e21745f34be8ce7c35	3	1	main_z	11	main_z	127	stimuli_target_squaretriangles.svg	stimuli_distractor_diamondtriangles.svg	7	yes	0	0	2000	0	0			0	0			1				0	
6.6.1	win	2023-06-02	09:08:54	10:03:50	3284286	63d6d8e21745f34be8ce7c35	3	1	main_z	11	advance_on_keypress_ZEE	128	stimuli_target_squaretriangles.svg	stimuli_distractor_diamondtriangles.svg	7	yes	57	0	493	0	0			0	0			1				0	
6.6.1	win	2023-06-02	09:08:54	10:03:53	3287419	63d6d8e21745f34be8ce7c35	3	1	main_z	11	main_z	129	stimuli_target_squarediamonds.svg	stimuli_distractor_diamondtriangles.svg	8	yes	0	0	2000	0	0			0	0			1				0	
6.6.1	win	2023-06-02	09:08:54	10:03:53	3287419	63d6d8e21745f34be8ce7c35	3	1	main_z	11	advance_on_keypress_ZEE	130	stimuli_target_squarediamonds.svg	stimuli_distractor_diamondtriangles.svg	8	yes	57	0	1533	0	0			0	0			1				0	
6.6.1	win	2023-06-02	09:08:54	10:03:57	3291602	63d6d8e21745f34be8ce7c35	3	1	main_z	11	main_z	131	stimuli_distractor_diamondtriangles.svg	stimuli_distractor_trianglediamonds.svg	38	no	0	1	2000	0	0			0	0			1				0	
6.6.1	win	2023-06-02	09:08:54	10:03:57	3291602	63d6d8e21745f34be8ce7c35	3	1	main_z	11	advance_on_keypress_ZEE	132	stimuli_distractor_diamondtriangles.svg	stimuli_distractor_trianglediamonds.svg	38	no	57	0	24668	0	0			0	0			1				0	
6.6.1	win	2023-06-02	09:08:54	10:04:24	3318915	63d6d8e21745f34be8ce7c35	3	1	main_z	11	main_z	133	stimuli_target_trianglesquares.svg	stimuli_distractor_trianglediamonds.svg	18	yes	0	0	2000	0	0			0	0			1				0	
6.6.1	win	2023-06-02	09:08:54	10:04:24	3318915	63d6d8e21745f34be8ce7c35	3	1	main_z	11	advance_on_keypress_ZEE	134	stimuli_target_trianglesquares.svg	stimuli_distractor_trianglediamonds.svg	18	yes	57	0	18509	0	0			0	0			1				0	
6.6.1	win	2023-06-02	09:08:54	10:04:46	3340079	63d6d8e21745f34be8ce7c35	3	1	main_z	11	main_z	135	stimuli_target_diamondrectangles.svg	stimuli_distractor_trianglediamonds.svg	19	yes	0	0	2000	0	0			0	0			1				0	
6.6.1	win	2023-06-02	09:08:54	10:04:46	3340079	63d6d8e21745f34be8ce7c35	3	1	main_z	11	advance_on_keypress_ZEE	136	stimuli_target_diamondrectangles.svg	stimuli_distractor_trianglediamonds.svg	19	yes	57	0	3450	0	0			0	0			1				0	
6.6.1	win	2023-06-02	09:08:54	10:04:52	3346178	63d6d8e21745f34be8ce7c35	3	1	main_z	11	main_z	137	stimuli_target_diamondrectangles.svg	stimuli_distractor_diamondtriangles.svg	23	yes	0	0	2000	0	0			0	0			1				0	
6.6.1	win	2023-06-02	09:08:54	10:04:52	3346178	63d6d8e21745f34be8ce7c35	3	1	main_z	11	advance_on_keypress_ZEE	138	stimuli_target_diamondrectangles.svg	stimuli_distractor_diamondtriangles.svg	23	yes	57	0	963	0	0			0	0			1				0	
6.6.1	win	2023-06-02	09:08:54	10:04:55	3349794	63d6d8e21745f34be8ce7c35	3	1	main_z	11	main_z	139	stimuli_target_diamondsquares.svg	stimuli_distractor_diamondtriangles.svg	24	yes	0	0	2000	0	0			0	0			1				0	
6.6.1	win	2023-06-02	09:08:54	10:04:55	3349794	63d6d8e21745f34be8ce7c35	3	1	main_z	11	advance_on_keypress_ZEE	140	stimuli_target_diamondsquares.svg	stimuli_distractor_diamondtriangles.svg	24	yes	57	0	644	0	0			0	0			1				0	
6.6.1	win	2023-06-02	09:08:54	10:04:59	3353077	63d6d8e21745f34be8ce7c35	3	1	main_z	11	main_z	141	stimuli_distractor_diamondtriangles.svg	stimuli_distractor_diamondtriangles.svg	40	no	0	1	2000	0	0			0	0			1				0	
6.6.1	win	2023-06-02	09:08:54	10:04:59	3353077	63d6d8e21745f34be8ce7c35	3	1	main_z	11	advance_on_keypress_ZEE	142	stimuli_distractor_diamondtriangles.svg	stimuli_distractor_diamondtriangles.svg	40	no	57	0	852	0	0			0	0			1				0	
6.6.1	win	2023-06-02	09:08:54	10:05:02	3356577	63d6d8e21745f34be8ce7c35	3	1	main_z	11	main_z	143	stimuli_distractor_diamondtriangles.svg	stimuli_distractor_diamondtriangles.svg	39	no	0	1	2000	0	0			0	0			1				0	
6.6.1	win	2023-06-02	09:08:54	10:05:02	3356577	63d6d8e21745f34be8ce7c35	3	1	main_z	11	advance_on_keypress_ZEE	144	stimuli_distractor_diamondtriangles.svg	stimuli_distractor_diamondtriangles.svg	39	no	57	0	72	0	0			0	0			1				0	
6.6.1	win	2023-06-02	09:08:54	10:05:05	3359293	63d6d8e21745f34be8ce7c35	3	1	main_z	11	main_z	145	stimuli_distractor_trianglediamonds.svg	stimuli_target_rectangletriangles.svg	9	yes	0	0	2000	0	0			0	0			1				0	
6.6.1	win	2023-06-02	09:08:54	10:05:05	3359293	63d6d8e21745f34be8ce7c35	3	1	main_z	11	advance_on_keypress_ZEE	146	stimuli_distractor_trianglediamonds.svg	stimuli_target_rectangletriangles.svg	9	yes	57	0	13	0	0			0	0			1				0	
6.6.1	win	2023-06-02	09:08:54	10:05:07	3361959	63d6d8e21745f34be8ce7c35	3	1	main_z	11	main_z	147	stimuli_distractor_trianglediamonds.svg	stimuli_distractor_diamondtriangles.svg	36	no	0	1	2000	0	0			0	0			1				0	
6.6.1	win	2023-06-02	09:08:54	10:05:07	3361959	63d6d8e21745f34be8ce7c35	3	1	main_z	11	advance_on_keypress_ZEE	148	stimuli_distractor_trianglediamonds.svg	stimuli_distractor_diamondtriangles.svg	36	no	57	0	65	0	0			0	0			1				0	
6.6.1	win	2023-06-02	09:08:54	10:05:10	3364676	63d6d8e21745f34be8ce7c35	3	1	main_z	11	main_z	149	stimuli_distractor_diamondtriangles.svg	stimuli_target_trianglerectangles.svg	29	yes	0	0	2000	0	0			0	0			1				0	
6.6.1	win	2023-06-02	09:08:54	10:05:10	3364676	63d6d8e21745f34be8ce7c35	3	1	main_z	11	advance_on_keypress_ZEE	150	stimuli_distractor_diamondtriangles.svg	stimuli_target_trianglerectangles.svg	29	yes	57	0	690	0	0			0	0			1				0	
6.6.1	win	2023-06-02	09:08:54	10:05:14	3368009	63d6d8e21745f34be8ce7c35	3	1	main_z	11	main_z	151	stimuli_target_trianglerectangles.svg	stimuli_distractor_trianglediamonds.svg	17	yes	0	0	2000	0	0			0	0			1				0	
6.6.1	win	2023-06-02	09:08:54	10:05:14	3368009	63d6d8e21745f34be8ce7c35	3	1	main_z	11	advance_on_keypress_ZEE	152	stimuli_target_trianglerectangles.svg	stimuli_distractor_trianglediamonds.svg	17	yes	57	0	91	0	0			0	0			1				0	
6.6.1	win	2023-06-02	09:08:54	10:05:16	3370741	63d6d8e21745f34be8ce7c35	3	1	main_z	11	main_z	153	stimuli_distractor_diamondtriangles.svg	stimuli_target_squarediamonds.svg	16	yes	0	0	2000	0	0			0	0			1				0	
6.6.1	win	2023-06-02	09:08:54	10:05:16	3370741	63d6d8e21745f34be8ce7c35	3	1	main_z	11	advance_on_keypress_ZEE	154	stimuli_distractor_diamondtriangles.svg	stimuli_target_squarediamonds.svg	16	yes	57	0	19	0	0			0	0			1				0	
6.6.1	win	2023-06-02	09:08:54	10:05:19	3373408	63d6d8e21745f34be8ce7c35	3	1	main_z	11	main_z	155	stimuli_distractor_trianglediamonds.svg	stimuli_distractor_diamondtriangles.svg	35	no	0	1	2000	0	0			0	0			1				0	
6.6.1	win	2023-06-02	09:08:54	10:05:19	3373408	63d6d8e21745f34be8ce7c35	3	1	main_z	11	advance_on_keypress_ZEE	156	stimuli_distractor_trianglediamonds.svg	stimuli_distractor_diamondtriangles.svg	35	no	57	0	959	0	0			0	0			1				0	
6.6.1	win	2023-06-02	09:08:54	10:05:23	3377007	63d6d8e21745f34be8ce7c35	3	1	main_z	11	main_z	157	stimuli_distractor_trianglediamonds.svg	stimuli_target_diamondrectangles.svg	27	yes	0	0	2000	0	0			0	0			1				0	
6.6.1	win	2023-06-02	09:08:54	10:05:23	3377007	63d6d8e21745f34be8ce7c35	3	1	main_z	11	advance_on_keypress_ZEE	158	stimuli_distractor_trianglediamonds.svg	stimuli_target_diamondrectangles.svg	27	yes	57	0	2960	0	0			0	0			1				0	
6.6.1	win	2023-06-02	09:08:54	10:05:28	3382607	63d6d8e21745f34be8ce7c35	3	1	main_z	11	main_z	159	stimuli_target_trianglerectangles.svg	stimuli_distractor_diamondtriangles.svg	21	yes	0	0	2000	0	0			0	0			1				0	
6.6.1	win	2023-06-02	09:08:54	10:05:28	3382607	63d6d8e21745f34be8ce7c35	3	1	main_z	11	advance_on_keypress_ZEE	160	stimuli_target_trianglerectangles.svg	stimuli_distractor_diamondtriangles.svg	21	yes	57	0	5157	0	0			0	0			1				0	
6.6.1	win	2023-06-02	09:08:54	10:05:28	3382607	63d6d8e21745f34be8ce7c35	3	1	headphonecheck_calibration	14	headphonecheck_calibrationIntro	1	stimuli_target_trianglerectangles.svg	stimuli_distractor_diamondtriangles.svg	21	yes	calibrationButton	0	47172	0	0			0	0			1				0	
6.6.1	win	2023-06-02	09:08:54	10:05:28	3382607	63d6d8e21745f34be8ce7c35	3	1	headphonecheck_testphase	15	test_collectResponse	3	stimuli_target_trianglerectangles.svg	stimuli_distractor_diamondtriangles.svg	21	yes	third	1	1414	1	2	antiphase_hc_ios.wav	3	0	0			1				0	
6.6.1	win	2023-06-02	09:08:54	10:05:28	3382607	63d6d8e21745f34be8ce7c35	3	1	headphonecheck_testphase	15	test_collectResponse	6	stimuli_target_trianglerectangles.svg	stimuli_distractor_diamondtriangles.svg	21	yes	first	1	563	2	4	antiphase_hc_sio.wav	1	0	0			1				0	
6.6.1	win	2023-06-02	09:08:54	10:05:28	3382607	63d6d8e21745f34be8ce7c35	3	1	headphonecheck_testphase	15	test_collectResponse	9	stimuli_target_trianglerectangles.svg	stimuli_distractor_diamondtriangles.svg	21	yes	third	1	1079	3	6	antiphase_hc_ois.wav	3	0	0			1				0	
6.6.1	win	2023-06-02	09:08:54	10:05:28	3382607	63d6d8e21745f34be8ce7c35	3	1	headphonecheck_testphase	15	test_collectResponse	12	stimuli_target_trianglerectangles.svg	stimuli_distractor_diamondtriangles.svg	21	yes	first	1	758	4	3	antiphase_hc_soi.wav	1	0	0			1				0	
6.6.1	win	2023-06-02	09:08:54	10:05:28	3382607	63d6d8e21745f34be8ce7c35	3	1	headphonecheck_testphase	15	test_collectResponse	15	stimuli_target_trianglerectangles.svg	stimuli_distractor_diamondtriangles.svg	21	yes	second	1	302	5	1	antiphase_hc_iso.wav	2	0	0			1				0	
6.6.1	win	2023-06-02	09:08:54	10:05:28	3382607	63d6d8e21745f34be8ce7c35	3	1	headphonecheck_testphase	15	test_collectResponse	18	stimuli_target_trianglerectangles.svg	stimuli_distractor_diamondtriangles.svg	21	yes	second	1	1137	6	5	antiphase_hc_osi.wav	2	0	0			1				0	
6.6.1	win	2023-06-02	09:08:54	10:05:28	3382607	63d6d8e21745f34be8ce7c35	3	1	stereocheck_calibration	17	stereocheck_calibrationIntro	1	stimuli_target_trianglerectangles.svg	stimuli_distractor_diamondtriangles.svg	21	yes	stereocheck_calibrationButton	0	2139	6	5	antiphase_hc_osi.wav	2	0	0			1				0	
6.6.1	win	2023-06-02	09:08:54	10:05:28	3382607	63d6d8e21745f34be8ce7c35	3	1	stereocheck_testphase	18	stereocheck_test_collectResponse	3	stimuli_target_trianglerectangles.svg	stimuli_distractor_diamondtriangles.svg	21	yes	stereocheck_left	1	4203	6	5	antiphase_hc_osi.wav	2	1	2	noise_calib_stim_LEFT.wav	1	1				0	
6.6.1	win	2023-06-02	09:08:54	10:05:28	3382607	63d6d8e21745f34be8ce7c35	3	1	stereocheck_testphase	18	stereocheck_test_collectResponse	6	stimuli_target_trianglerectangles.svg	stimuli_distractor_diamondtriangles.svg	21	yes	stereocheck_left	0	5842	6	5	antiphase_hc_osi.wav	2	2	5	noise_calib_stim_RIGHT.wav	2	1				0	
6.6.1	win	2023-06-02	09:08:54	10:05:28	3382607	63d6d8e21745f34be8ce7c35	3	1	stereocheck_testphase	18	stereocheck_test_collectResponse	9	stimuli_target_trianglerectangles.svg	stimuli_distractor_diamondtriangles.svg	21	yes	stereocheck_right	0	997	6	5	antiphase_hc_osi.wav	2	3	1	noise_calib_stim_LEFT.wav	1	1				0	
6.6.1	win	2023-06-02	09:08:54	10:05:28	3382607	63d6d8e21745f34be8ce7c35	3	1	stereocheck_testphase	18	stereocheck_test_collectResponse	12	stimuli_target_trianglerectangles.svg	stimuli_distractor_diamondtriangles.svg	21	yes	stereocheck_left	0	1958	6	5	antiphase_hc_osi.wav	2	4	6	noise_calib_stim_RIGHT.wav	2	1				0	
6.6.1	win	2023-06-02	09:08:54	10:05:28	3382607	63d6d8e21745f34be8ce7c35	3	1	stereocheck_testphase	18	stereocheck_test_collectResponse	15	stimuli_target_trianglerectangles.svg	stimuli_distractor_diamondtriangles.svg	21	yes	stereocheck_left	0	991	6	5	antiphase_hc_osi.wav	2	5	4	noise_calib_stim_RIGHT.wav	2	1				0	
6.6.1	win	2023-06-02	09:08:54	10:05:28	3382607	63d6d8e21745f34be8ce7c35	3	1	stereocheck_testphase	18	stereocheck_test_collectResponse	18	stimuli_target_trianglerectangles.svg	stimuli_distractor_diamondtriangles.svg	21	yes	stereocheck_right	0	549	6	5	antiphase_hc_osi.wav	2	6	3	noise_calib_stim_LEFT.wav	1	1				0	
6.6.1	win	2023-06-02	09:08:54	10:05:28	3382607	63d6d8e21745f34be8ce7c35	3	1	DL_practice	21	DL_practice	2	stimuli_target_trianglerectangles.svg	stimuli_distractor_diamondtriangles.svg	21	yes	ta	0	2713	6	5	antiphase_hc_osi.wav	2	6	3	noise_calib_stim_LEFT.wav	1	23	blb_dichoticlistening_ka-pa.mp3	ka	pa	1	other
6.6.1	win	2023-06-02	09:08:54	10:05:28	3382607	63d6d8e21745f34be8ce7c35	3	1	DL_practice	21	DL_practice	3	stimuli_target_trianglerectangles.svg	stimuli_distractor_diamondtriangles.svg	21	yes	da	0	2188	6	5	antiphase_hc_osi.wav	2	6	3	noise_calib_stim_LEFT.wav	1	15	blb_dichoticlistening_ga-ga.mp3	ga	ga	0	other
6.6.1	win	2023-06-02	09:08:54	10:05:28	3382607	63d6d8e21745f34be8ce7c35	3	1	DL_practice	21	DL_practice	4	stimuli_target_trianglerectangles.svg	stimuli_distractor_diamondtriangles.svg	21	yes	da	1	1241	6	5	antiphase_hc_osi.wav	2	6	3	noise_calib_stim_LEFT.wav	1	8	blb_dichoticlistening_da-da.mp3	da	da	0	left
6.6.1	win	2023-06-02	09:08:54	10:05:28	3382607	63d6d8e21745f34be8ce7c35	3	1	DL_practice	21	DL_practice	5	stimuli_target_trianglerectangles.svg	stimuli_distractor_diamondtriangles.svg	21	yes	ta	1	2102	6	5	antiphase_hc_osi.wav	2	6	3	noise_calib_stim_LEFT.wav	1	36	blb_dichoticlistening_ta-ta.mp3	ta	ta	0	left
6.6.1	win	2023-06-02	09:08:54	10:05:28	3382607	63d6d8e21745f34be8ce7c35	3	1	DL_practice	21	DL_practice	6	stimuli_target_trianglerectangles.svg	stimuli_distractor_diamondtriangles.svg	21	yes	ka	1	1579	6	5	antiphase_hc_osi.wav	2	6	3	noise_calib_stim_LEFT.wav	1	22	blb_dichoticlistening_ka-ka.mp3	ka	ka	0	left
6.6.1	win	2023-06-02	09:08:54	10:05:28	3382607	63d6d8e21745f34be8ce7c35	3	1	DL_practice	21	DL_practice	7	stimuli_target_trianglerectangles.svg	stimuli_distractor_diamondtriangles.svg	21	yes	ga	0	1940	6	5	antiphase_hc_osi.wav	2	6	3	noise_calib_stim_LEFT.wav	1	7	blb_dichoticlistening_da-ba.mp3	da	ba	1	other
6.6.1	win	2023-06-02	09:08:54	10:05:28	3382607	63d6d8e21745f34be8ce7c35	3	1	DL_practice	21	DL_practice	8	stimuli_target_trianglerectangles.svg	stimuli_distractor_diamondtriangles.svg	21	yes	ta	1	2137	6	5	antiphase_hc_osi.wav	2	6	3	noise_calib_stim_LEFT.wav	1	18	blb_dichoticlistening_ga-ta.mp3	ga	ta	1	right
6.6.1	win	2023-06-02	09:08:54	10:05:28	3382607	63d6d8e21745f34be8ce7c35	3	1	DL_practice	21	DL_practice	9	stimuli_target_trianglerectangles.svg	stimuli_distractor_diamondtriangles.svg	21	yes	pa	1	1463	6	5	antiphase_hc_osi.wav	2	6	3	noise_calib_stim_LEFT.wav	1	29	blb_dichoticlistening_pa-pa.mp3	pa	pa	0	left
6.6.1	win	2023-06-02	09:08:54	10:05:28	3382607	63d6d8e21745f34be8ce7c35	3	1	DL_practice	21	DL_practice	10	stimuli_target_trianglerectangles.svg	stimuli_distractor_diamondtriangles.svg	21	yes	ba	1	2751	6	5	antiphase_hc_osi.wav	2	6	3	noise_calib_stim_LEFT.wav	1	1	blb_dichoticlistening_ba-ba.mp3	ba	ba	0	left
6.6.1	win	2023-06-02	09:08:54	10:05:28	3382607	63d6d8e21745f34be8ce7c35	3	1	DL_test	23	DL_test	1	stimuli_target_trianglerectangles.svg	stimuli_distractor_diamondtriangles.svg	21	yes	pa	1	3051	6	5	antiphase_hc_osi.wav	2	6	3	noise_calib_stim_LEFT.wav	1	17	blb_dichoticlistening_ga-pa.mp3	ga	pa	1	right
6.6.1	win	2023-06-02	09:08:54	10:05:28	3382607	63d6d8e21745f34be8ce7c35	3	1	DL_test	23	DL_test	2	stimuli_target_trianglerectangles.svg	stimuli_distractor_diamondtriangles.svg	21	yes	ba	1	2093	6	5	antiphase_hc_osi.wav	2	6	3	noise_calib_stim_LEFT.wav	1	1	blb_dichoticlistening_ba-ba.mp3	ba	ba	0	left
6.6.1	win	2023-06-02	09:08:54	10:05:28	3382607	63d6d8e21745f34be8ce7c35	3	1	DL_test	23	DL_test	3	stimuli_target_trianglerectangles.svg	stimuli_distractor_diamondtriangles.svg	21	yes	ka	1	3435	6	5	antiphase_hc_osi.wav	2	6	3	noise_calib_stim_LEFT.wav	1	28	blb_dichoticlistening_pa-ka.mp3	pa	ka	1	right
6.6.1	win	2023-06-02	09:08:54	10:05:28	3382607	63d6d8e21745f34be8ce7c35	3	1	DL_test	23	DL_test	4	stimuli_target_trianglerectangles.svg	stimuli_distractor_diamondtriangles.svg	21	yes	ka	1	2096	6	5	antiphase_hc_osi.wav	2	6	3	noise_calib_stim_LEFT.wav	1	4	blb_dichoticlistening_ba-ka.mp3	ba	ka	1	right
6.6.1	win	2023-06-02	09:08:54	10:05:28	3382607	63d6d8e21745f34be8ce7c35	3	1	DL_test	23	DL_test	5	stimuli_target_trianglerectangles.svg	stimuli_distractor_diamondtriangles.svg	21	yes	ta	1	1744	6	5	antiphase_hc_osi.wav	2	6	3	noise_calib_stim_LEFT.wav	1	30	blb_dichoticlistening_pa-ta.mp3	pa	ta	1	right
6.6.1	win	2023-06-02	09:08:54	10:05:28	3382607	63d6d8e21745f34be8ce7c35	3	1	DL_test	23	DL_test	6	stimuli_target_trianglerectangles.svg	stimuli_distractor_diamondtriangles.svg	21	yes	ka	1	1663	6	5	antiphase_hc_osi.wav	2	6	3	noise_calib_stim_LEFT.wav	1	22	blb_dichoticlistening_ka-ka.mp3	ka	ka	0	left
6.6.1	win	2023-06-02	09:08:54	10:05:28	3382607	63d6d8e21745f34be8ce7c35	3	1	DL_test	23	DL_test	7	stimuli_target_trianglerectangles.svg	stimuli_distractor_diamondtriangles.svg	21	yes	ga	0	1957	6	5	antiphase_hc_osi.wav	2	6	3	noise_calib_stim_LEFT.wav	1	7	blb_dichoticlistening_da-ba.mp3	da	ba	1	other
6.6.1	win	2023-06-02	09:08:54	10:05:28	3382607	63d6d8e21745f34be8ce7c35	3	1	DL_test	23	DL_test	8	stimuli_target_trianglerectangles.svg	stimuli_distractor_diamondtriangles.svg	21	yes	pa	1	1958	6	5	antiphase_hc_osi.wav	2	6	3	noise_calib_stim_LEFT.wav	1	5	blb_dichoticlistening_ba-pa.mp3	ba	pa	1	right
6.6.1	win	2023-06-02	09:08:54	10:05:28	3382607	63d6d8e21745f34be8ce7c35	3	1	DL_test	23	DL_test	9	stimuli_target_trianglerectangles.svg	stimuli_distractor_diamondtriangles.svg	21	yes	ta	0	2070	6	5	antiphase_hc_osi.wav	2	6	3	noise_calib_stim_LEFT.wav	1	10	blb_dichoticlistening_da-ka.mp3	da	ka	1	other
6.6.1	win	2023-06-02	09:08:54	10:05:28	3382607	63d6d8e21745f34be8ce7c35	3	1	DL_test	23	DL_test	10	stimuli_target_trianglerectangles.svg	stimuli_distractor_diamondtriangles.svg	21	yes	ka	1	2006	6	5	antiphase_hc_osi.wav	2	6	3	noise_calib_stim_LEFT.wav	1	19	blb_dichoticlistening_ka-ba.mp3	ka	ba	1	left
6.6.1	win	2023-06-02	09:08:54	10:05:28	3382607	63d6d8e21745f34be8ce7c35	3	1	DL_test	23	DL_test	11	stimuli_target_trianglerectangles.svg	stimuli_distractor_diamondtriangles.svg	21	yes	ka	1	1204	6	5	antiphase_hc_osi.wav	2	6	3	noise_calib_stim_LEFT.wav	1	16	blb_dichoticlistening_ga-ka.mp3	ga	ka	1	right
6.6.1	win	2023-06-02	09:08:54	10:05:28	3382607	63d6d8e21745f34be8ce7c35	3	1	DL_test	23	DL_test	12	stimuli_target_trianglerectangles.svg	stimuli_distractor_diamondtriangles.svg	21	yes	ga	1	2941	6	5	antiphase_hc_osi.wav	2	6	3	noise_calib_stim_LEFT.wav	1	14	blb_dichoticlistening_ga-da.mp3	ga	da	1	left
6.6.1	win	2023-06-02	09:08:54	10:05:28	3382607	63d6d8e21745f34be8ce7c35	3	1	DL_test	23	DL_test	13	stimuli_target_trianglerectangles.svg	stimuli_distractor_diamondtriangles.svg	21	yes	ta	0	2338	6	5	antiphase_hc_osi.wav	2	6	3	noise_calib_stim_LEFT.wav	1	26	blb_dichoticlistening_pa-da.mp3	pa	da	1	other
6.6.1	win	2023-06-02	09:08:54	10:05:28	3382607	63d6d8e21745f34be8ce7c35	3	1	DL_test	23	DL_test	14	stimuli_target_trianglerectangles.svg	stimuli_distractor_diamondtriangles.svg	21	yes	ta	1	1550	6	5	antiphase_hc_osi.wav	2	6	3	noise_calib_stim_LEFT.wav	1	6	blb_dichoticlistening_ba-ta.mp3	ba	ta	1	right
6.6.1	win	2023-06-02	09:08:54	10:05:28	3382607	63d6d8e21745f34be8ce7c35	3	1	DL_test	23	DL_test	15	stimuli_target_trianglerectangles.svg	stimuli_distractor_diamondtriangles.svg	21	yes	ka	0	1725	6	5	antiphase_hc_osi.wav	2	6	3	noise_calib_stim_LEFT.wav	1	12	blb_dichoticlistening_da-ta.mp3	da	ta	1	other
6.6.1	win	2023-06-02	09:08:54	10:05:28	3382607	63d6d8e21745f34be8ce7c35	3	1	DL_test	23	DL_test	16	stimuli_target_trianglerectangles.svg	stimuli_distractor_diamondtriangles.svg	21	yes	ga	0	1784	6	5	antiphase_hc_osi.wav	2	6	3	noise_calib_stim_LEFT.wav	1	11	blb_dichoticlistening_da-pa.mp3	da	pa	1	other
6.6.1	win	2023-06-02	09:08:54	10:05:28	3382607	63d6d8e21745f34be8ce7c35	3	1	DL_test	23	DL_test	17	stimuli_target_trianglerectangles.svg	stimuli_distractor_diamondtriangles.svg	21	yes	ka	1	1648	6	5	antiphase_hc_osi.wav	2	6	3	noise_calib_stim_LEFT.wav	1	24	blb_dichoticlistening_ka-ta.mp3	ka	ta	1	left
6.6.1	win	2023-06-02	09:08:54	10:05:28	3382607	63d6d8e21745f34be8ce7c35	3	1	DL_test	23	DL_test	18	stimuli_target_trianglerectangles.svg	stimuli_distractor_diamondtriangles.svg	21	yes	ta	1	1676	6	5	antiphase_hc_osi.wav	2	6	3	noise_calib_stim_LEFT.wav	1	36	blb_dichoticlistening_ta-ta.mp3	ta	ta	0	left
6.6.1	win	2023-06-02	09:08:54	10:05:28	3382607	63d6d8e21745f34be8ce7c35	3	1	DL_test	23	DL_test	19	stimuli_target_trianglerectangles.svg	stimuli_distractor_diamondtriangles.svg	21	yes	ga	1	3078	6	5	antiphase_hc_osi.wav	2	6	3	noise_calib_stim_LEFT.wav	1	3	blb_dichoticlistening_ba-ga.mp3	ba	ga	1	right
6.6.1	win	2023-06-02	09:08:54	10:05:28	3382607	63d6d8e21745f34be8ce7c35	3	1	DL_test	23	DL_test	20	stimuli_target_trianglerectangles.svg	stimuli_distractor_diamondtriangles.svg	21	yes	ga	0	3548	6	5	antiphase_hc_osi.wav	2	6	3	noise_calib_stim_LEFT.wav	1	2	blb_dichoticlistening_ba-da.mp3	ba	da	1	other
6.6.1	win	2023-06-02	09:08:54	10:05:28	3382607	63d6d8e21745f34be8ce7c35	3	1	DL_test	23	DL_test	21	stimuli_target_trianglerectangles.svg	stimuli_distractor_diamondtriangles.svg	21	yes	ka	1	1367	6	5	antiphase_hc_osi.wav	2	6	3	noise_calib_stim_LEFT.wav	1	23	blb_dichoticlistening_ka-pa.mp3	ka	pa	1	left
6.6.1	win	2023-06-02	09:08:54	10:05:28	3382607	63d6d8e21745f34be8ce7c35	3	1	DL_test	23	DL_test	22	stimuli_target_trianglerectangles.svg	stimuli_distractor_diamondtriangles.svg	21	yes	ka	1	2014	6	5	antiphase_hc_osi.wav	2	6	3	noise_calib_stim_LEFT.wav	1	20	blb_dichoticlistening_ka-da.mp3	ka	da	1	left
6.6.1	win	2023-06-02	09:08:54	10:05:28	3382607	63d6d8e21745f34be8ce7c35	3	1	DL_test	23	DL_test	23	stimuli_target_trianglerectangles.svg	stimuli_distractor_diamondtriangles.svg	21	yes	ga	1	2260	6	5	antiphase_hc_osi.wav	2	6	3	noise_calib_stim_LEFT.wav	1	15	blb_dichoticlistening_ga-ga.mp3	ga	ga	0	left
6.6.1	win	2023-06-02	09:08:54	10:05:28	3382607	63d6d8e21745f34be8ce7c35	3	1	DL_test	23	DL_test	24	stimuli_target_trianglerectangles.svg	stimuli_distractor_diamondtriangles.svg	21	yes	ta	1	2711	6	5	antiphase_hc_osi.wav	2	6	3	noise_calib_stim_LEFT.wav	1	18	blb_dichoticlistening_ga-ta.mp3	ga	ta	1	right
