build	computer.platform	date	time	timestamp	time_elapsed_ms	subject	group	session	blockcode	blocknum	trialcode	trialnum	stimulus_left	stimulus_right	stim_index	target_present	response	correct	latency	headphonecheck_countTestTrials	headphonecheck_index	headphonecheck_testSound	headphonecheck_correctResponse	stereocheck_countTestTrials	stereocheck_index	stereocheck_testSound	stereocheck_correctResponse	DL_index	DL_soundfile	DL_leftSound	DL_rightSound	DL_dualSound	DL_choice
6.6.0	win	2023-06-02	08:26:12	08:33:51	450084	629534afc0924e49e1464589	3	1	practice_slash	5	practice_slash	1	stimuli_distractor_diamondtriangles.svg	stimuli_target_rectangletriangles.svg	7	yes	0	0	2000	0	0			0	0			1				0	
6.6.0	win	2023-06-02	08:26:12	08:33:51	450084	629534afc0924e49e1464589	3	1	practice_slash	5	advance_on_keypress_SLASH	2	stimuli_distractor_diamondtriangles.svg	stimuli_target_rectangletriangles.svg	7	yes	57	0	3822	0	0			0	0			1				0	
6.6.0	win	2023-06-02	08:26:12	08:33:57	455892	629534afc0924e49e1464589	3	1	practice_slash	5	practice_slash	3	stimuli_target_diamondsquares.svg	stimuli_distractor_trianglediamonds.svg	6	yes	53	1	294	0	0			0	0			1				0	
6.6.0	win	2023-06-02	08:26:12	08:33:57	455892	629534afc0924e49e1464589	3	1	practice_slash	5	advance_on_keypress_SLASH	4	stimuli_target_diamondsquares.svg	stimuli_distractor_trianglediamonds.svg	6	yes	57	0	734	0	0			0	0			1				0	
6.6.0	win	2023-06-02	08:26:12	08:34:00	458650	629534afc0924e49e1464589	3	1	practice_slash	5	practice_slash	5	stimuli_distractor_trianglediamonds.svg	stimuli_target_squarediamonds.svg	11	yes	53	1	353	0	0			0	0			1				0	
6.6.0	win	2023-06-02	08:26:12	08:34:00	458650	629534afc0924e49e1464589	3	1	practice_slash	5	advance_on_keypress_SLASH	6	stimuli_distractor_trianglediamonds.svg	stimuli_target_squarediamonds.svg	11	yes	57	0	704	0	0			0	0			1				0	
6.6.0	win	2023-06-02	08:26:12	08:34:03	461401	629534afc0924e49e1464589	3	1	practice_slash	5	practice_slash	7	stimuli_distractor_trianglediamonds.svg	stimuli_target_diamondrectangles.svg	12	yes	53	1	385	0	0			0	0			1				0	
6.6.0	win	2023-06-02	08:26:12	08:34:03	461401	629534afc0924e49e1464589	3	1	practice_slash	5	advance_on_keypress_SLASH	8	stimuli_distractor_trianglediamonds.svg	stimuli_target_diamondrectangles.svg	12	yes	57	0	584	0	0			0	0			1				0	
6.6.0	win	2023-06-02	08:26:12	08:34:05	463846	629534afc0924e49e1464589	3	1	practice_slash	5	practice_slash	9	stimuli_target_diamondsquares.svg	stimuli_distractor_diamondtriangles.svg	3	yes	53	1	214	0	0			0	0			1				0	
6.6.0	win	2023-06-02	08:26:12	08:34:05	463846	629534afc0924e49e1464589	3	1	practice_slash	5	advance_on_keypress_SLASH	10	stimuli_target_diamondsquares.svg	stimuli_distractor_diamondtriangles.svg	3	yes	57	0	293	0	0			0	0			1				0	
6.6.0	win	2023-06-02	08:26:12	08:34:07	465865	629534afc0924e49e1464589	3	1	practice_slash	5	practice_slash	11	stimuli_distractor_trianglediamonds.svg	stimuli_distractor_trianglediamonds.svg	15	no	53	0	67	0	0			0	0			1				0	
6.6.0	win	2023-06-02	08:26:12	08:34:07	465865	629534afc0924e49e1464589	3	1	practice_slash	5	advance_on_keypress_SLASH	12	stimuli_distractor_trianglediamonds.svg	stimuli_distractor_trianglediamonds.svg	15	no	57	0	328	0	0			0	0			1				0	
6.6.0	win	2023-06-02	08:26:12	08:34:09	468116	629534afc0924e49e1464589	3	1	practice_slash	5	practice_slash	13	stimuli_distractor_diamondtriangles.svg	stimuli_distractor_trianglediamonds.svg	14	no	53	0	267	0	0			0	0			1				0	
6.6.0	win	2023-06-02	08:26:12	08:34:09	468116	629534afc0924e49e1464589	3	1	practice_slash	5	advance_on_keypress_SLASH	14	stimuli_distractor_diamondtriangles.svg	stimuli_distractor_trianglediamonds.svg	14	no	57	0	335	0	0			0	0			1				0	
6.6.0	win	2023-06-02	08:26:12	08:34:12	470606	629534afc0924e49e1464589	3	1	practice_slash	5	practice_slash	15	stimuli_target_rectanglediamonds.svg	stimuli_distractor_trianglediamonds.svg	4	yes	53	1	491	0	0			0	0			1				0	
6.6.0	win	2023-06-02	08:26:12	08:34:12	470606	629534afc0924e49e1464589	3	1	practice_slash	5	advance_on_keypress_SLASH	16	stimuli_target_rectanglediamonds.svg	stimuli_distractor_trianglediamonds.svg	4	yes	57	0	534	0	0			0	0			1				0	
6.6.0	win	2023-06-02	08:26:12	08:34:14	473241	629534afc0924e49e1464589	3	1	practice_slash	5	practice_slash	17	stimuli_distractor_trianglediamonds.svg	stimuli_distractor_diamondtriangles.svg	16	no	53	0	442	0	0			0	0			1				0	
6.6.0	win	2023-06-02	08:26:12	08:34:14	473241	629534afc0924e49e1464589	3	1	practice_slash	5	advance_on_keypress_SLASH	18	stimuli_distractor_trianglediamonds.svg	stimuli_distractor_diamondtriangles.svg	16	no	57	0	311	0	0			0	0			1				0	
6.6.0	win	2023-06-02	08:26:12	08:34:17	475596	629534afc0924e49e1464589	3	1	practice_slash	5	practice_slash	19	stimuli_target_squarediamonds.svg	stimuli_distractor_diamondtriangles.svg	2	yes	53	1	372	0	0			0	0			1				0	
6.6.0	win	2023-06-02	08:26:12	08:34:17	475596	629534afc0924e49e1464589	3	1	practice_slash	5	advance_on_keypress_SLASH	20	stimuli_target_squarediamonds.svg	stimuli_distractor_diamondtriangles.svg	2	yes	57	0	302	0	0			0	0			1				0	
6.6.0	win	2023-06-02	08:26:12	08:34:19	478235	629534afc0924e49e1464589	3	1	practice_slash	5	practice_slash	21	stimuli_distractor_diamondtriangles.svg	stimuli_distractor_diamondtriangles.svg	13	no	53	0	686	0	0			0	0			1				0	
6.6.0	win	2023-06-02	08:26:12	08:34:19	478235	629534afc0924e49e1464589	3	1	practice_slash	5	advance_on_keypress_SLASH	22	stimuli_distractor_diamondtriangles.svg	stimuli_distractor_diamondtriangles.svg	13	no	57	0	315	0	0			0	0			1				0	
6.6.0	win	2023-06-02	08:26:12	08:34:22	480709	629534afc0924e49e1464589	3	1	practice_slash	5	practice_slash	23	stimuli_distractor_trianglediamonds.svg	stimuli_target_rectanglediamonds.svg	10	yes	53	1	506	0	0			0	0			1				0	
6.6.0	win	2023-06-02	08:26:12	08:34:22	480709	629534afc0924e49e1464589	3	1	practice_slash	5	advance_on_keypress_SLASH	24	stimuli_distractor_trianglediamonds.svg	stimuli_target_rectanglediamonds.svg	10	yes	57	0	442	0	0			0	0			1				0	
6.6.0	win	2023-06-02	08:26:12	08:34:25	483356	629534afc0924e49e1464589	3	1	practice_slash	5	practice_slash	25	stimuli_distractor_diamondtriangles.svg	stimuli_target_trianglerectangles.svg	9	yes	53	1	540	0	0			0	0			1				0	
6.6.0	win	2023-06-02	08:26:12	08:34:25	483356	629534afc0924e49e1464589	3	1	practice_slash	5	advance_on_keypress_SLASH	26	stimuli_distractor_diamondtriangles.svg	stimuli_target_trianglerectangles.svg	9	yes	57	0	287	0	0			0	0			1				0	
6.6.0	win	2023-06-02	08:26:12	08:34:27	485722	629534afc0924e49e1464589	3	1	practice_slash	5	practice_slash	27	stimuli_distractor_diamondtriangles.svg	stimuli_target_diamondrectangles.svg	8	yes	53	1	423	0	0			0	0			1				0	
6.6.0	win	2023-06-02	08:26:12	08:34:27	485722	629534afc0924e49e1464589	3	1	practice_slash	5	advance_on_keypress_SLASH	28	stimuli_distractor_diamondtriangles.svg	stimuli_target_diamondrectangles.svg	8	yes	57	0	330	0	0			0	0			1				0	
6.6.0	win	2023-06-02	08:26:12	08:34:30	488417	629534afc0924e49e1464589	3	1	practice_slash	5	practice_slash	29	stimuli_target_rectanglediamonds.svg	stimuli_distractor_diamondtriangles.svg	1	yes	53	1	701	0	0			0	0			1				0	
6.6.0	win	2023-06-02	08:26:12	08:34:30	488417	629534afc0924e49e1464589	3	1	practice_slash	5	advance_on_keypress_SLASH	30	stimuli_target_rectanglediamonds.svg	stimuli_distractor_diamondtriangles.svg	1	yes	57	0	294	0	0			0	0			1				0	
6.6.0	win	2023-06-02	08:26:12	08:34:32	491049	629534afc0924e49e1464589	3	1	practice_slash	5	practice_slash	31	stimuli_target_squarediamonds.svg	stimuli_distractor_trianglediamonds.svg	5	yes	53	1	684	0	0			0	0			1				0	
6.6.0	win	2023-06-02	08:26:12	08:34:32	491049	629534afc0924e49e1464589	3	1	practice_slash	5	advance_on_keypress_SLASH	32	stimuli_target_squarediamonds.svg	stimuli_distractor_trianglediamonds.svg	5	yes	57	0	385	0	0			0	0			1				0	
6.6.0	win	2023-06-02	08:26:12	08:44:12	1070794	629534afc0924e49e1464589	3	1	main_slash	7	main_slash	1	stimuli_distractor_diamondtriangles.svg	stimuli_distractor_trianglediamonds.svg	38	no	53	0	1636	0	0			0	0			1				0	
6.6.0	win	2023-06-02	08:26:12	08:44:12	1070794	629534afc0924e49e1464589	3	1	main_slash	7	advance_on_keypress_SLASH	2	stimuli_distractor_diamondtriangles.svg	stimuli_distractor_trianglediamonds.svg	38	no	57	0	665	0	0			0	0			1				0	
6.6.0	win	2023-06-02	08:26:12	08:44:14	1072454	629534afc0924e49e1464589	3	1	main_slash	7	main_slash	3	stimuli_target_trianglerectangles.svg	stimuli_distractor_diamondtriangles.svg	21	yes	53	1	330	0	0			0	0			1				0	
6.6.0	win	2023-06-02	08:26:12	08:44:14	1072454	629534afc0924e49e1464589	3	1	main_slash	7	advance_on_keypress_SLASH	4	stimuli_target_trianglerectangles.svg	stimuli_distractor_diamondtriangles.svg	21	yes	57	0	445	0	0			0	0			1				0	
6.6.0	win	2023-06-02	08:26:12	08:44:15	1073970	629534afc0924e49e1464589	3	1	main_slash	7	main_slash	5	stimuli_target_rectanglediamonds.svg	stimuli_distractor_trianglediamonds.svg	2	yes	53	1	412	0	0			0	0			1				0	
6.6.0	win	2023-06-02	08:26:12	08:44:15	1073970	629534afc0924e49e1464589	3	1	main_slash	7	advance_on_keypress_SLASH	6	stimuli_target_rectanglediamonds.svg	stimuli_distractor_trianglediamonds.svg	2	yes	57	0	470	0	0			0	0			1				0	
6.6.0	win	2023-06-02	08:26:12	08:44:17	1075569	629534afc0924e49e1464589	3	1	main_slash	7	main_slash	7	stimuli_distractor_trianglediamonds.svg	stimuli_distractor_diamondtriangles.svg	36	no	53	0	478	0	0			0	0			1				0	
6.6.0	win	2023-06-02	08:26:12	08:44:17	1075569	629534afc0924e49e1464589	3	1	main_slash	7	advance_on_keypress_SLASH	8	stimuli_distractor_trianglediamonds.svg	stimuli_distractor_diamondtriangles.svg	36	no	57	0	367	0	0			0	0			1				0	
6.6.0	win	2023-06-02	08:26:12	08:44:18	1077001	629534afc0924e49e1464589	3	1	main_slash	7	main_slash	9	stimuli_target_squarediamonds.svg	stimuli_distractor_diamondtriangles.svg	8	yes	53	1	410	0	0			0	0			1				0	
6.6.0	win	2023-06-02	08:26:12	08:44:18	1077001	629534afc0924e49e1464589	3	1	main_slash	7	advance_on_keypress_SLASH	10	stimuli_target_squarediamonds.svg	stimuli_distractor_diamondtriangles.svg	8	yes	57	0	437	0	0			0	0			1				0	
6.6.0	win	2023-06-02	08:26:12	08:44:20	1078467	629534afc0924e49e1464589	3	1	main_slash	7	main_slash	11	stimuli_distractor_diamondtriangles.svg	stimuli_target_rectangletriangles.svg	13	yes	53	1	393	0	0			0	0			1				0	
6.6.0	win	2023-06-02	08:26:12	08:44:20	1078467	629534afc0924e49e1464589	3	1	main_slash	7	advance_on_keypress_SLASH	12	stimuli_distractor_diamondtriangles.svg	stimuli_target_rectangletriangles.svg	13	yes	57	0	432	0	0			0	0			1				0	
6.6.0	win	2023-06-02	08:26:12	08:44:21	1079793	629534afc0924e49e1464589	3	1	main_slash	7	main_slash	13	stimuli_target_diamondsquares.svg	stimuli_distractor_diamondtriangles.svg	24	yes	53	1	251	0	0			0	0			1				0	
6.6.0	win	2023-06-02	08:26:12	08:44:21	1079793	629534afc0924e49e1464589	3	1	main_slash	7	advance_on_keypress_SLASH	14	stimuli_target_diamondsquares.svg	stimuli_distractor_diamondtriangles.svg	24	yes	57	0	447	0	0			0	0			1				0	
6.6.0	win	2023-06-02	08:26:12	08:44:22	1081273	629534afc0924e49e1464589	3	1	main_slash	7	main_slash	15	stimuli_target_diamondrectangles.svg	stimuli_distractor_trianglediamonds.svg	19	yes	53	1	381	0	0			0	0			1				0	
6.6.0	win	2023-06-02	08:26:12	08:44:22	1081273	629534afc0924e49e1464589	3	1	main_slash	7	advance_on_keypress_SLASH	16	stimuli_target_diamondrectangles.svg	stimuli_distractor_trianglediamonds.svg	19	yes	57	0	530	0	0			0	0			1				0	
6.6.0	win	2023-06-02	08:26:12	08:44:24	1082694	629534afc0924e49e1464589	3	1	main_slash	7	main_slash	17	stimuli_distractor_trianglediamonds.svg	stimuli_distractor_trianglediamonds.svg	34	no	53	0	235	0	0			0	0			1				0	
6.6.0	win	2023-06-02	08:26:12	08:44:24	1082694	629534afc0924e49e1464589	3	1	main_slash	7	advance_on_keypress_SLASH	18	stimuli_distractor_trianglediamonds.svg	stimuli_distractor_trianglediamonds.svg	34	no	57	0	460	0	0			0	0			1				0	
6.6.0	win	2023-06-02	08:26:12	08:44:26	1084323	629534afc0924e49e1464589	3	1	main_slash	7	main_slash	19	stimuli_distractor_trianglediamonds.svg	stimuli_target_squaretriangles.svg	11	yes	53	1	512	0	0			0	0			1				0	
6.6.0	win	2023-06-02	08:26:12	08:44:26	1084323	629534afc0924e49e1464589	3	1	main_slash	7	advance_on_keypress_SLASH	20	stimuli_distractor_trianglediamonds.svg	stimuli_target_squaretriangles.svg	11	yes	57	0	6	0	0			0	0			1				0	
6.6.0	win	2023-06-02	08:26:12	08:44:27	1085448	629534afc0924e49e1464589	3	1	main_slash	7	main_slash	21	stimuli_target_rectangletriangles.svg	stimuli_distractor_diamondtriangles.svg	5	yes	53	1	456	0	0			0	0			1				0	
6.6.0	win	2023-06-02	08:26:12	08:44:27	1085448	629534afc0924e49e1464589	3	1	main_slash	7	advance_on_keypress_SLASH	22	stimuli_target_rectangletriangles.svg	stimuli_distractor_diamondtriangles.svg	5	yes	57	0	533	0	0			0	0			1				0	
6.6.0	win	2023-06-02	08:26:12	08:44:28	1086865	629534afc0924e49e1464589	3	1	main_slash	7	main_slash	23	stimuli_distractor_trianglediamonds.svg	stimuli_distractor_diamondtriangles.svg	35	no	53	0	240	0	0			0	0			1				0	
6.6.0	win	2023-06-02	08:26:12	08:44:28	1086865	629534afc0924e49e1464589	3	1	main_slash	7	advance_on_keypress_SLASH	24	stimuli_distractor_trianglediamonds.svg	stimuli_distractor_diamondtriangles.svg	35	no	57	0	466	0	0			0	0			1				0	
6.6.0	win	2023-06-02	08:26:12	08:44:29	1088293	629534afc0924e49e1464589	3	1	main_slash	7	main_slash	25	stimuli_distractor_diamondtriangles.svg	stimuli_target_squarediamonds.svg	16	yes	53	1	317	0	0			0	0			1				0	
6.6.0	win	2023-06-02	08:26:12	08:44:29	1088293	629534afc0924e49e1464589	3	1	main_slash	7	advance_on_keypress_SLASH	26	stimuli_distractor_diamondtriangles.svg	stimuli_target_squarediamonds.svg	16	yes	57	0	574	0	0			0	0			1				0	
6.6.0	win	2023-06-02	08:26:12	08:44:31	1090004	629534afc0924e49e1464589	3	1	main_slash	7	main_slash	27	stimuli_distractor_diamondtriangles.svg	stimuli_distractor_diamondtriangles.svg	39	no	53	0	495	0	0			0	0			1				0	
6.6.0	win	2023-06-02	08:26:12	08:44:31	1090004	629534afc0924e49e1464589	3	1	main_slash	7	advance_on_keypress_SLASH	28	stimuli_distractor_diamondtriangles.svg	stimuli_distractor_diamondtriangles.svg	39	no	57	0	329	0	0			0	0			1				0	
6.6.0	win	2023-06-02	08:26:12	08:44:33	1091512	629534afc0924e49e1464589	3	1	main_slash	7	main_slash	29	stimuli_distractor_diamondtriangles.svg	stimuli_distractor_trianglediamonds.svg	37	no	53	0	519	0	0			0	0			1				0	
6.6.0	win	2023-06-02	08:26:12	08:44:33	1091512	629534afc0924e49e1464589	3	1	main_slash	7	advance_on_keypress_SLASH	30	stimuli_distractor_diamondtriangles.svg	stimuli_distractor_trianglediamonds.svg	37	no	57	0	426	0	0			0	0			1				0	
6.6.0	win	2023-06-02	08:26:12	08:44:35	1094062	629534afc0924e49e1464589	3	1	main_slash	7	main_slash	31	stimuli_distractor_diamondtriangles.svg	stimuli_target_trianglerectangles.svg	29	yes	53	1	1469	0	0			0	0			1				0	
6.6.0	win	2023-06-02	08:26:12	08:44:35	1094062	629534afc0924e49e1464589	3	1	main_slash	7	advance_on_keypress_SLASH	32	stimuli_distractor_diamondtriangles.svg	stimuli_target_trianglerectangles.svg	29	yes	57	0	700	0	0			0	0			1				0	
6.6.0	win	2023-06-02	08:26:12	08:44:37	1095932	629534afc0924e49e1464589	3	1	main_slash	7	main_slash	33	stimuli_distractor_trianglediamonds.svg	stimuli_target_trianglesquares.svg	26	yes	53	1	523	0	0			0	0			1				0	
6.6.0	win	2023-06-02	08:26:12	08:44:37	1095932	629534afc0924e49e1464589	3	1	main_slash	7	advance_on_keypress_SLASH	34	stimuli_distractor_trianglediamonds.svg	stimuli_target_trianglesquares.svg	26	yes	57	0	603	0	0			0	0			1				0	
6.6.0	win	2023-06-02	08:26:12	08:44:39	1097403	629534afc0924e49e1464589	3	1	main_slash	7	main_slash	35	stimuli_distractor_diamondtriangles.svg	stimuli_target_diamondrectangles.svg	31	yes	53	1	228	0	0			0	0			1				0	
6.6.0	win	2023-06-02	08:26:12	08:44:39	1097403	629534afc0924e49e1464589	3	1	main_slash	7	advance_on_keypress_SLASH	36	stimuli_distractor_diamondtriangles.svg	stimuli_target_diamondrectangles.svg	31	yes	57	0	474	0	0			0	0			1				0	
6.6.0	win	2023-06-02	08:26:12	08:44:40	1098918	629534afc0924e49e1464589	3	1	main_slash	7	main_slash	37	stimuli_target_rectangletriangles.svg	stimuli_distractor_trianglediamonds.svg	1	yes	53	1	393	0	0			0	0			1				0	
6.6.0	win	2023-06-02	08:26:12	08:44:40	1098918	629534afc0924e49e1464589	3	1	main_slash	7	advance_on_keypress_SLASH	38	stimuli_target_rectangletriangles.svg	stimuli_distractor_trianglediamonds.svg	1	yes	57	0	432	0	0			0	0			1				0	
6.6.0	win	2023-06-02	08:26:12	08:44:42	1101301	629534afc0924e49e1464589	3	1	main_slash	7	main_slash	39	stimuli_target_rectanglediamonds.svg	stimuli_distractor_diamondtriangles.svg	6	yes	53	1	1309	0	0			0	0			1				0	
6.6.0	win	2023-06-02	08:26:12	08:44:42	1101301	629534afc0924e49e1464589	3	1	main_slash	7	advance_on_keypress_SLASH	40	stimuli_target_rectanglediamonds.svg	stimuli_distractor_diamondtriangles.svg	6	yes	57	0	754	0	0			0	0			1				0	
6.6.0	win	2023-06-02	08:26:12	08:44:44	1103099	629534afc0924e49e1464589	3	1	main_slash	7	main_slash	41	stimuli_distractor_diamondtriangles.svg	stimuli_target_rectanglediamonds.svg	14	yes	53	1	406	0	0			0	0			1				0	
6.6.0	win	2023-06-02	08:26:12	08:44:44	1103099	629534afc0924e49e1464589	3	1	main_slash	7	advance_on_keypress_SLASH	42	stimuli_distractor_diamondtriangles.svg	stimuli_target_rectanglediamonds.svg	14	yes	57	0	415	0	0			0	0			1				0	
6.6.0	win	2023-06-02	08:26:12	08:44:46	1104941	629534afc0924e49e1464589	3	1	main_slash	7	main_slash	43	stimuli_target_squaretriangles.svg	stimuli_distractor_trianglediamonds.svg	3	yes	53	1	783	0	0			0	0			1				0	
6.6.0	win	2023-06-02	08:26:12	08:44:46	1104941	629534afc0924e49e1464589	3	1	main_slash	7	advance_on_keypress_SLASH	44	stimuli_target_squaretriangles.svg	stimuli_distractor_trianglediamonds.svg	3	yes	57	0	410	0	0			0	0			1				0	
6.6.0	win	2023-06-02	08:26:12	08:44:49	1108010	629534afc0924e49e1464589	3	1	main_slash	7	main_slash	45	stimuli_distractor_trianglediamonds.svg	stimuli_target_rectangletriangles.svg	9	yes	0	0	2000	0	0			0	0			1				0	
6.6.0	win	2023-06-02	08:26:12	08:44:49	1108010	629534afc0924e49e1464589	3	1	main_slash	7	advance_on_keypress_SLASH	46	stimuli_distractor_trianglediamonds.svg	stimuli_target_rectangletriangles.svg	9	yes	57	0	982	0	0			0	0			1				0	
6.6.0	win	2023-06-02	08:26:12	08:44:51	1109913	629534afc0924e49e1464589	3	1	main_slash	7	main_slash	47	stimuli_distractor_trianglediamonds.svg	stimuli_distractor_trianglediamonds.svg	33	no	53	0	271	0	0			0	0			1				0	
6.6.0	win	2023-06-02	08:26:12	08:44:51	1109913	629534afc0924e49e1464589	3	1	main_slash	7	advance_on_keypress_SLASH	48	stimuli_distractor_trianglediamonds.svg	stimuli_distractor_trianglediamonds.svg	33	no	57	0	395	0	0			0	0			1				0	
6.6.0	win	2023-06-02	08:26:12	08:44:53	1111601	629534afc0924e49e1464589	3	1	main_slash	7	main_slash	49	stimuli_distractor_diamondtriangles.svg	stimuli_target_squaretriangles.svg	15	yes	53	1	642	0	0			0	0			1				0	
6.6.0	win	2023-06-02	08:26:12	08:44:53	1111601	629534afc0924e49e1464589	3	1	main_slash	7	advance_on_keypress_SLASH	50	stimuli_distractor_diamondtriangles.svg	stimuli_target_squaretriangles.svg	15	yes	57	0	378	0	0			0	0			1				0	
6.6.0	win	2023-06-02	08:26:12	08:44:54	1112894	629534afc0924e49e1464589	3	1	main_slash	7	main_slash	51	stimuli_distractor_diamondtriangles.svg	stimuli_target_diamondsquares.svg	32	yes	53	1	268	0	0			0	0			1				0	
6.6.0	win	2023-06-02	08:26:12	08:44:54	1112894	629534afc0924e49e1464589	3	1	main_slash	7	advance_on_keypress_SLASH	52	stimuli_distractor_diamondtriangles.svg	stimuli_target_diamondsquares.svg	32	yes	57	0	463	0	0			0	0			1				0	
6.6.0	win	2023-06-02	08:26:12	08:44:56	1114568	629534afc0924e49e1464589	3	1	main_slash	7	main_slash	53	stimuli_target_trianglesquares.svg	stimuli_distractor_trianglediamonds.svg	18	yes	53	1	556	0	0			0	0			1				0	
6.6.0	win	2023-06-02	08:26:12	08:44:56	1114568	629534afc0924e49e1464589	3	1	main_slash	7	advance_on_keypress_SLASH	54	stimuli_target_trianglesquares.svg	stimuli_distractor_trianglediamonds.svg	18	yes	57	0	368	0	0			0	0			1				0	
6.6.0	win	2023-06-02	08:26:12	08:44:59	1117576	629534afc0924e49e1464589	3	1	main_slash	7	main_slash	55	stimuli_distractor_diamondtriangles.svg	stimuli_distractor_diamondtriangles.svg	40	no	0	1	2000	0	0			0	0			1				0	
6.6.0	win	2023-06-02	08:26:12	08:44:59	1117576	629534afc0924e49e1464589	3	1	main_slash	7	advance_on_keypress_SLASH	56	stimuli_distractor_diamondtriangles.svg	stimuli_distractor_diamondtriangles.svg	40	no	57	0	746	0	0			0	0			1				0	
6.6.0	win	2023-06-02	08:26:12	08:45:02	1120976	629534afc0924e49e1464589	3	1	main_slash	7	main_slash	57	stimuli_distractor_trianglediamonds.svg	stimuli_target_trianglerectangles.svg	25	yes	0	0	2000	0	0			0	0			1				0	
6.6.0	win	2023-06-02	08:26:12	08:45:02	1120976	629534afc0924e49e1464589	3	1	main_slash	7	advance_on_keypress_SLASH	58	stimuli_distractor_trianglediamonds.svg	stimuli_target_trianglerectangles.svg	25	yes	57	0	374	0	0			0	0			1				0	
6.6.0	win	2023-06-02	08:26:12	08:45:03	1122254	629534afc0924e49e1464589	3	1	main_slash	7	main_slash	59	stimuli_target_diamondsquares.svg	stimuli_distractor_trianglediamonds.svg	20	yes	53	1	261	0	0			0	0			1				0	
6.6.0	win	2023-06-02	08:26:12	08:45:03	1122254	629534afc0924e49e1464589	3	1	main_slash	7	advance_on_keypress_SLASH	60	stimuli_target_diamondsquares.svg	stimuli_distractor_trianglediamonds.svg	20	yes	57	0	692	0	0			0	0			1				0	
6.6.0	win	2023-06-02	08:26:12	08:45:05	1123875	629534afc0924e49e1464589	3	1	main_slash	7	main_slash	61	stimuli_target_squarediamonds.svg	stimuli_distractor_trianglediamonds.svg	4	yes	53	1	282	0	0			0	0			1				0	
6.6.0	win	2023-06-02	08:26:12	08:45:05	1123875	629534afc0924e49e1464589	3	1	main_slash	7	advance_on_keypress_SLASH	62	stimuli_target_squarediamonds.svg	stimuli_distractor_trianglediamonds.svg	4	yes	57	0	631	0	0			0	0			1				0	
6.6.0	win	2023-06-02	08:26:12	08:45:07	1125409	629534afc0924e49e1464589	3	1	main_slash	7	main_slash	63	stimuli_distractor_trianglediamonds.svg	stimuli_target_diamondsquares.svg	28	yes	53	1	248	0	0			0	0			1				0	
6.6.0	win	2023-06-02	08:26:12	08:45:07	1125409	629534afc0924e49e1464589	3	1	main_slash	7	advance_on_keypress_SLASH	64	stimuli_distractor_trianglediamonds.svg	stimuli_target_diamondsquares.svg	28	yes	57	0	533	0	0			0	0			1				0	
6.6.0	win	2023-06-02	08:26:12	08:45:08	1126819	629534afc0924e49e1464589	3	1	main_slash	7	main_slash	65	stimuli_distractor_diamondtriangles.svg	stimuli_target_trianglesquares.svg	30	yes	53	1	226	0	0			0	0			1				0	
6.6.0	win	2023-06-02	08:26:12	08:45:08	1126819	629534afc0924e49e1464589	3	1	main_slash	7	advance_on_keypress_SLASH	66	stimuli_distractor_diamondtriangles.svg	stimuli_target_trianglesquares.svg	30	yes	57	0	521	0	0			0	0			1				0	
6.6.0	win	2023-06-02	08:26:12	08:45:09	1128220	629534afc0924e49e1464589	3	1	main_slash	7	main_slash	67	stimuli_target_trianglerectangles.svg	stimuli_distractor_trianglediamonds.svg	17	yes	53	1	243	0	0			0	0			1				0	
6.6.0	win	2023-06-02	08:26:12	08:45:09	1128220	629534afc0924e49e1464589	3	1	main_slash	7	advance_on_keypress_SLASH	68	stimuli_target_trianglerectangles.svg	stimuli_distractor_trianglediamonds.svg	17	yes	57	0	501	0	0			0	0			1				0	
6.6.0	win	2023-06-02	08:26:12	08:45:11	1129585	629534afc0924e49e1464589	3	1	main_slash	7	main_slash	69	stimuli_target_squaretriangles.svg	stimuli_distractor_diamondtriangles.svg	7	yes	53	1	226	0	0			0	0			1				0	
6.6.0	win	2023-06-02	08:26:12	08:45:11	1129585	629534afc0924e49e1464589	3	1	main_slash	7	advance_on_keypress_SLASH	70	stimuli_target_squaretriangles.svg	stimuli_distractor_diamondtriangles.svg	7	yes	57	0	502	0	0			0	0			1				0	
6.6.0	win	2023-06-02	08:26:12	08:45:12	1131269	629534afc0924e49e1464589	3	1	main_slash	7	main_slash	71	stimuli_distractor_trianglediamonds.svg	stimuli_target_squarediamonds.svg	12	yes	53	1	543	0	0			0	0			1				0	
6.6.0	win	2023-06-02	08:26:12	08:45:12	1131269	629534afc0924e49e1464589	3	1	main_slash	7	advance_on_keypress_SLASH	72	stimuli_distractor_trianglediamonds.svg	stimuli_target_squarediamonds.svg	12	yes	57	0	353	0	0			0	0			1				0	
6.6.0	win	2023-06-02	08:26:12	08:45:14	1132807	629534afc0924e49e1464589	3	1	main_slash	7	main_slash	73	stimuli_target_trianglesquares.svg	stimuli_distractor_diamondtriangles.svg	22	yes	53	1	548	0	0			0	0			1				0	
6.6.0	win	2023-06-02	08:26:12	08:45:14	1132807	629534afc0924e49e1464589	3	1	main_slash	7	advance_on_keypress_SLASH	74	stimuli_target_trianglesquares.svg	stimuli_distractor_diamondtriangles.svg	22	yes	57	0	336	0	0			0	0			1				0	
6.6.0	win	2023-06-02	08:26:12	08:45:15	1134032	629534afc0924e49e1464589	3	1	main_slash	7	main_slash	75	stimuli_target_diamondrectangles.svg	stimuli_distractor_diamondtriangles.svg	23	yes	53	1	239	0	0			0	0			1				0	
6.6.0	win	2023-06-02	08:26:12	08:45:15	1134032	629534afc0924e49e1464589	3	1	main_slash	7	advance_on_keypress_SLASH	76	stimuli_target_diamondrectangles.svg	stimuli_distractor_diamondtriangles.svg	23	yes	57	0	1327	0	0			0	0			1				0	
6.6.0	win	2023-06-02	08:26:12	08:45:19	1138012	629534afc0924e49e1464589	3	1	main_slash	7	main_slash	77	stimuli_distractor_trianglediamonds.svg	stimuli_target_rectanglediamonds.svg	10	yes	0	0	2000	0	0			0	0			1				0	
6.6.0	win	2023-06-02	08:26:12	08:45:19	1138012	629534afc0924e49e1464589	3	1	main_slash	7	advance_on_keypress_SLASH	78	stimuli_distractor_trianglediamonds.svg	stimuli_target_rectanglediamonds.svg	10	yes	57	0	680	0	0			0	0			1				0	
6.6.0	win	2023-06-02	08:26:12	08:45:21	1139692	629534afc0924e49e1464589	3	1	main_slash	7	main_slash	79	stimuli_distractor_trianglediamonds.svg	stimuli_target_diamondrectangles.svg	27	yes	53	1	347	0	0			0	0			1				0	
6.6.0	win	2023-06-02	08:26:12	08:45:21	1139692	629534afc0924e49e1464589	3	1	main_slash	7	advance_on_keypress_SLASH	80	stimuli_distractor_trianglediamonds.svg	stimuli_target_diamondrectangles.svg	27	yes	57	0	493	0	0			0	0			1				0	
6.6.0	win	2023-06-02	08:26:12	08:45:22	1141226	629534afc0924e49e1464589	3	1	main_slash	7	main_slash	81	stimuli_distractor_trianglediamonds.svg	stimuli_target_squarediamonds.svg	12	yes	53	1	379	0	0			0	0			1				0	
6.6.0	win	2023-06-02	08:26:12	08:45:22	1141226	629534afc0924e49e1464589	3	1	main_slash	7	advance_on_keypress_SLASH	82	stimuli_distractor_trianglediamonds.svg	stimuli_target_squarediamonds.svg	12	yes	57	0	399	0	0			0	0			1				0	
6.6.0	win	2023-06-02	08:26:12	08:45:25	1144277	629534afc0924e49e1464589	3	1	main_slash	7	main_slash	83	stimuli_target_rectanglediamonds.svg	stimuli_distractor_trianglediamonds.svg	2	yes	0	0	2000	0	0			0	0			1				0	
6.6.0	win	2023-06-02	08:26:12	08:45:25	1144277	629534afc0924e49e1464589	3	1	main_slash	7	advance_on_keypress_SLASH	84	stimuli_target_rectanglediamonds.svg	stimuli_distractor_trianglediamonds.svg	2	yes	57	0	262	0	0			0	0			1				0	
6.6.0	win	2023-06-02	08:26:12	08:45:27	1145426	629534afc0924e49e1464589	3	1	main_slash	7	main_slash	85	stimuli_distractor_trianglediamonds.svg	stimuli_distractor_trianglediamonds.svg	33	no	53	0	232	0	0			0	0			1				0	
6.6.0	win	2023-06-02	08:26:12	08:45:27	1145426	629534afc0924e49e1464589	3	1	main_slash	7	advance_on_keypress_SLASH	86	stimuli_distractor_trianglediamonds.svg	stimuli_distractor_trianglediamonds.svg	33	no	57	0	364	0	0			0	0			1				0	
6.6.0	win	2023-06-02	08:26:12	08:45:28	1146986	629534afc0924e49e1464589	3	1	main_slash	7	main_slash	87	stimuli_distractor_trianglediamonds.svg	stimuli_distractor_diamondtriangles.svg	36	no	53	0	543	0	0			0	0			1				0	
6.6.0	win	2023-06-02	08:26:12	08:45:28	1146986	629534afc0924e49e1464589	3	1	main_slash	7	advance_on_keypress_SLASH	88	stimuli_distractor_trianglediamonds.svg	stimuli_distractor_diamondtriangles.svg	36	no	57	0	433	0	0			0	0			1				0	
6.6.0	win	2023-06-02	08:26:12	08:45:30	1148674	629534afc0924e49e1464589	3	1	main_slash	7	main_slash	89	stimuli_distractor_diamondtriangles.svg	stimuli_target_rectangletriangles.svg	13	yes	53	1	615	0	0			0	0			1				0	
6.6.0	win	2023-06-02	08:26:12	08:45:30	1148674	629534afc0924e49e1464589	3	1	main_slash	7	advance_on_keypress_SLASH	90	stimuli_distractor_diamondtriangles.svg	stimuli_target_rectangletriangles.svg	13	yes	57	0	436	0	0			0	0			1				0	
6.6.0	win	2023-06-02	08:26:12	08:45:31	1150209	629534afc0924e49e1464589	3	1	main_slash	7	main_slash	91	stimuli_distractor_diamondtriangles.svg	stimuli_target_diamondrectangles.svg	31	yes	53	1	449	0	0			0	0			1				0	
6.6.0	win	2023-06-02	08:26:12	08:45:31	1150209	629534afc0924e49e1464589	3	1	main_slash	7	advance_on_keypress_SLASH	92	stimuli_distractor_diamondtriangles.svg	stimuli_target_diamondrectangles.svg	31	yes	57	0	590	0	0			0	0			1				0	
6.6.0	win	2023-06-02	08:26:12	08:45:33	1151857	629534afc0924e49e1464589	3	1	main_slash	7	main_slash	93	stimuli_distractor_diamondtriangles.svg	stimuli_target_trianglerectangles.svg	29	yes	53	1	412	0	0			0	0			1				0	
6.6.0	win	2023-06-02	08:26:12	08:45:33	1151857	629534afc0924e49e1464589	3	1	main_slash	7	advance_on_keypress_SLASH	94	stimuli_distractor_diamondtriangles.svg	stimuli_target_trianglerectangles.svg	29	yes	57	0	449	0	0			0	0			1				0	
6.6.0	win	2023-06-02	08:26:12	08:45:34	1153284	629534afc0924e49e1464589	3	1	main_slash	7	main_slash	95	stimuli_distractor_diamondtriangles.svg	stimuli_target_trianglesquares.svg	30	yes	53	1	324	0	0			0	0			1				0	
6.6.0	win	2023-06-02	08:26:12	08:45:34	1153284	629534afc0924e49e1464589	3	1	main_slash	7	advance_on_keypress_SLASH	96	stimuli_distractor_diamondtriangles.svg	stimuli_target_trianglesquares.svg	30	yes	57	0	487	0	0			0	0			1				0	
6.6.0	win	2023-06-02	08:26:12	08:45:36	1154926	629534afc0924e49e1464589	3	1	main_slash	7	main_slash	97	stimuli_target_trianglesquares.svg	stimuli_distractor_trianglediamonds.svg	18	yes	53	1	500	0	0			0	0			1				0	
6.6.0	win	2023-06-02	08:26:12	08:45:36	1154926	629534afc0924e49e1464589	3	1	main_slash	7	advance_on_keypress_SLASH	98	stimuli_target_trianglesquares.svg	stimuli_distractor_trianglediamonds.svg	18	yes	57	0	488	0	0			0	0			1				0	
6.6.0	win	2023-06-02	08:26:12	08:45:39	1158060	629534afc0924e49e1464589	3	1	main_slash	7	main_slash	99	stimuli_target_rectangletriangles.svg	stimuli_distractor_diamondtriangles.svg	5	yes	0	0	2000	0	0			0	0			1				0	
6.6.0	win	2023-06-02	08:26:12	08:45:39	1158060	629534afc0924e49e1464589	3	1	main_slash	7	advance_on_keypress_SLASH	100	stimuli_target_rectangletriangles.svg	stimuli_distractor_diamondtriangles.svg	5	yes	57	0	472	0	0			0	0			1				0	
6.6.0	win	2023-06-02	08:26:12	08:45:41	1159403	629534afc0924e49e1464589	3	1	main_slash	7	main_slash	101	stimuli_distractor_diamondtriangles.svg	stimuli_distractor_trianglediamonds.svg	37	no	53	0	226	0	0			0	0			1				0	
6.6.0	win	2023-06-02	08:26:12	08:45:41	1159403	629534afc0924e49e1464589	3	1	main_slash	7	advance_on_keypress_SLASH	102	stimuli_distractor_diamondtriangles.svg	stimuli_distractor_trianglediamonds.svg	37	no	57	0	461	0	0			0	0			1				0	
6.6.0	win	2023-06-02	08:26:12	08:45:42	1160812	629534afc0924e49e1464589	3	1	main_slash	7	main_slash	103	stimuli_distractor_trianglediamonds.svg	stimuli_target_trianglesquares.svg	26	yes	53	1	302	0	0			0	0			1				0	
6.6.0	win	2023-06-02	08:26:12	08:45:42	1160812	629534afc0924e49e1464589	3	1	main_slash	7	advance_on_keypress_SLASH	104	stimuli_distractor_trianglediamonds.svg	stimuli_target_trianglesquares.svg	26	yes	57	0	554	0	0			0	0			1				0	
6.6.0	win	2023-06-02	08:26:12	08:45:44	1162565	629534afc0924e49e1464589	3	1	main_slash	7	main_slash	105	stimuli_target_diamondrectangles.svg	stimuli_distractor_trianglediamonds.svg	19	yes	53	1	555	0	0			0	0			1				0	
6.6.0	win	2023-06-02	08:26:12	08:45:44	1162565	629534afc0924e49e1464589	3	1	main_slash	7	advance_on_keypress_SLASH	106	stimuli_target_diamondrectangles.svg	stimuli_distractor_trianglediamonds.svg	19	yes	57	0	385	0	0			0	0			1				0	
6.6.0	win	2023-06-02	08:26:12	08:45:47	1165594	629534afc0924e49e1464589	3	1	main_slash	7	main_slash	107	stimuli_target_squarediamonds.svg	stimuli_distractor_trianglediamonds.svg	4	yes	0	0	2000	0	0			0	0			1				0	
6.6.0	win	2023-06-02	08:26:12	08:45:47	1165594	629534afc0924e49e1464589	3	1	main_slash	7	advance_on_keypress_SLASH	108	stimuli_target_squarediamonds.svg	stimuli_distractor_trianglediamonds.svg	4	yes	57	0	338	0	0			0	0			1				0	
6.6.0	win	2023-06-02	08:26:12	08:45:48	1166865	629534afc0924e49e1464589	3	1	main_slash	7	main_slash	109	stimuli_distractor_trianglediamonds.svg	stimuli_target_diamondsquares.svg	28	yes	53	1	287	0	0			0	0			1				0	
6.6.0	win	2023-06-02	08:26:12	08:45:48	1166865	629534afc0924e49e1464589	3	1	main_slash	7	advance_on_keypress_SLASH	110	stimuli_distractor_trianglediamonds.svg	stimuli_target_diamondsquares.svg	28	yes	57	0	547	0	0			0	0			1				0	
6.6.0	win	2023-06-02	08:26:12	08:45:49	1168301	629534afc0924e49e1464589	3	1	main_slash	7	main_slash	111	stimuli_distractor_diamondtriangles.svg	stimuli_distractor_diamondtriangles.svg	39	no	53	0	240	0	0			0	0			1				0	
6.6.0	win	2023-06-02	08:26:12	08:45:49	1168301	629534afc0924e49e1464589	3	1	main_slash	7	advance_on_keypress_SLASH	112	stimuli_distractor_diamondtriangles.svg	stimuli_distractor_diamondtriangles.svg	39	no	57	0	492	0	0			0	0			1				0	
6.6.0	win	2023-06-02	08:26:12	08:45:53	1171427	629534afc0924e49e1464589	3	1	main_slash	7	main_slash	113	stimuli_target_squarediamonds.svg	stimuli_distractor_diamondtriangles.svg	8	yes	0	0	2000	0	0			0	0			1				0	
6.6.0	win	2023-06-02	08:26:12	08:45:53	1171427	629534afc0924e49e1464589	3	1	main_slash	7	advance_on_keypress_SLASH	114	stimuli_target_squarediamonds.svg	stimuli_distractor_diamondtriangles.svg	8	yes	57	0	98	0	0			0	0			1				0	
6.6.0	win	2023-06-02	08:26:12	08:45:54	1172501	629534afc0924e49e1464589	3	1	main_slash	7	main_slash	115	stimuli_distractor_diamondtriangles.svg	stimuli_target_diamondsquares.svg	32	yes	53	1	323	0	0			0	0			1				0	
6.6.0	win	2023-06-02	08:26:12	08:45:54	1172501	629534afc0924e49e1464589	3	1	main_slash	7	advance_on_keypress_SLASH	116	stimuli_distractor_diamondtriangles.svg	stimuli_target_diamondsquares.svg	32	yes	57	0	382	0	0			0	0			1				0	
6.6.0	win	2023-06-02	08:26:12	08:45:55	1174043	629534afc0924e49e1464589	3	1	main_slash	7	main_slash	117	stimuli_target_rectangletriangles.svg	stimuli_distractor_trianglediamonds.svg	1	yes	53	1	508	0	0			0	0			1				0	
6.6.0	win	2023-06-02	08:26:12	08:45:55	1174043	629534afc0924e49e1464589	3	1	main_slash	7	advance_on_keypress_SLASH	118	stimuli_target_rectangletriangles.svg	stimuli_distractor_trianglediamonds.svg	1	yes	57	0	331	0	0			0	0			1				0	
6.6.0	win	2023-06-02	08:26:12	08:45:57	1175598	629534afc0924e49e1464589	3	1	main_slash	7	main_slash	119	stimuli_target_trianglerectangles.svg	stimuli_distractor_trianglediamonds.svg	17	yes	53	1	570	0	0			0	0			1				0	
6.6.0	win	2023-06-02	08:26:12	08:45:57	1175598	629534afc0924e49e1464589	3	1	main_slash	7	advance_on_keypress_SLASH	120	stimuli_target_trianglerectangles.svg	stimuli_distractor_trianglediamonds.svg	17	yes	57	0	420	0	0			0	0			1				0	
6.6.0	win	2023-06-02	08:26:12	08:46:00	1178661	629534afc0924e49e1464589	3	1	main_slash	7	main_slash	121	stimuli_distractor_trianglediamonds.svg	stimuli_target_squaretriangles.svg	11	yes	0	0	2000	0	0			0	0			1				0	
6.6.0	win	2023-06-02	08:26:12	08:46:00	1178661	629534afc0924e49e1464589	3	1	main_slash	7	advance_on_keypress_SLASH	122	stimuli_distractor_trianglediamonds.svg	stimuli_target_squaretriangles.svg	11	yes	57	0	361	0	0			0	0			1				0	
6.6.0	win	2023-06-02	08:26:12	08:46:01	1179998	629534afc0924e49e1464589	3	1	main_slash	7	main_slash	123	stimuli_distractor_diamondtriangles.svg	stimuli_target_squaretriangles.svg	15	yes	53	1	320	0	0			0	0			1				0	
6.6.0	win	2023-06-02	08:26:12	08:46:01	1179998	629534afc0924e49e1464589	3	1	main_slash	7	advance_on_keypress_SLASH	124	stimuli_distractor_diamondtriangles.svg	stimuli_target_squaretriangles.svg	15	yes	57	0	536	0	0			0	0			1				0	
6.6.0	win	2023-06-02	08:26:12	08:46:04	1183178	629534afc0924e49e1464589	3	1	main_slash	7	main_slash	125	stimuli_target_diamondsquares.svg	stimuli_distractor_diamondtriangles.svg	24	yes	0	0	2000	0	0			0	0			1				0	
6.6.0	win	2023-06-02	08:26:12	08:46:04	1183178	629534afc0924e49e1464589	3	1	main_slash	7	advance_on_keypress_SLASH	126	stimuli_target_diamondsquares.svg	stimuli_distractor_diamondtriangles.svg	24	yes	57	0	426	0	0			0	0			1				0	
6.6.0	win	2023-06-02	08:26:12	08:46:07	1186261	629534afc0924e49e1464589	3	1	main_slash	7	main_slash	127	stimuli_distractor_diamondtriangles.svg	stimuli_target_squarediamonds.svg	16	yes	0	0	2000	0	0			0	0			1				0	
6.6.0	win	2023-06-02	08:26:12	08:46:07	1186261	629534afc0924e49e1464589	3	1	main_slash	7	advance_on_keypress_SLASH	128	stimuli_distractor_diamondtriangles.svg	stimuli_target_squarediamonds.svg	16	yes	57	0	330	0	0			0	0			1				0	
6.6.0	win	2023-06-02	08:26:12	08:46:10	1189244	629534afc0924e49e1464589	3	1	main_slash	7	main_slash	129	stimuli_target_rectanglediamonds.svg	stimuli_distractor_diamondtriangles.svg	6	yes	0	0	2000	0	0			0	0			1				0	
6.6.0	win	2023-06-02	08:26:12	08:46:10	1189244	629534afc0924e49e1464589	3	1	main_slash	7	advance_on_keypress_SLASH	130	stimuli_target_rectanglediamonds.svg	stimuli_distractor_diamondtriangles.svg	6	yes	57	0	340	0	0			0	0			1				0	
6.6.0	win	2023-06-02	08:26:12	08:46:12	1190484	629534afc0924e49e1464589	3	1	main_slash	7	main_slash	131	stimuli_distractor_trianglediamonds.svg	stimuli_target_diamondrectangles.svg	27	yes	53	1	257	0	0			0	0			1				0	
6.6.0	win	2023-06-02	08:26:12	08:46:12	1190484	629534afc0924e49e1464589	3	1	main_slash	7	advance_on_keypress_SLASH	132	stimuli_distractor_trianglediamonds.svg	stimuli_target_diamondrectangles.svg	27	yes	57	0	652	0	0			0	0			1				0	
6.6.0	win	2023-06-02	08:26:12	08:46:15	1193778	629534afc0924e49e1464589	3	1	main_slash	7	main_slash	133	stimuli_distractor_trianglediamonds.svg	stimuli_target_rectangletriangles.svg	9	yes	0	0	2000	0	0			0	0			1				0	
6.6.0	win	2023-06-02	08:26:12	08:46:15	1193778	629534afc0924e49e1464589	3	1	main_slash	7	advance_on_keypress_SLASH	134	stimuli_distractor_trianglediamonds.svg	stimuli_target_rectangletriangles.svg	9	yes	57	0	458	0	0			0	0			1				0	
6.6.0	win	2023-06-02	08:26:12	08:46:18	1196880	629534afc0924e49e1464589	3	1	main_slash	7	main_slash	135	stimuli_distractor_diamondtriangles.svg	stimuli_distractor_diamondtriangles.svg	40	no	0	1	2000	0	0			0	0			1				0	
6.6.0	win	2023-06-02	08:26:12	08:46:18	1196880	629534afc0924e49e1464589	3	1	main_slash	7	advance_on_keypress_SLASH	136	stimuli_distractor_diamondtriangles.svg	stimuli_distractor_diamondtriangles.svg	40	no	57	0	449	0	0			0	0			1				0	
6.6.0	win	2023-06-02	08:26:12	08:46:20	1198368	629534afc0924e49e1464589	3	1	main_slash	7	main_slash	137	stimuli_distractor_trianglediamonds.svg	stimuli_target_trianglerectangles.svg	25	yes	53	1	390	0	0			0	0			1				0	
6.6.0	win	2023-06-02	08:26:12	08:46:20	1198368	629534afc0924e49e1464589	3	1	main_slash	7	advance_on_keypress_SLASH	138	stimuli_distractor_trianglediamonds.svg	stimuli_target_trianglerectangles.svg	25	yes	57	0	718	0	0			0	0			1				0	
6.6.0	win	2023-06-02	08:26:12	08:46:23	1201728	629534afc0924e49e1464589	3	1	main_slash	7	main_slash	139	stimuli_distractor_trianglediamonds.svg	stimuli_target_rectanglediamonds.svg	10	yes	0	0	2000	0	0			0	0			1				0	
6.6.0	win	2023-06-02	08:26:12	08:46:23	1201728	629534afc0924e49e1464589	3	1	main_slash	7	advance_on_keypress_SLASH	140	stimuli_distractor_trianglediamonds.svg	stimuli_target_rectanglediamonds.svg	10	yes	57	0	493	0	0			0	0			1				0	
6.6.0	win	2023-06-02	08:26:12	08:46:26	1204862	629534afc0924e49e1464589	3	1	main_slash	7	main_slash	141	stimuli_distractor_trianglediamonds.svg	stimuli_distractor_diamondtriangles.svg	35	no	0	1	2000	0	0			0	0			1				0	
6.6.0	win	2023-06-02	08:26:12	08:46:26	1204862	629534afc0924e49e1464589	3	1	main_slash	7	advance_on_keypress_SLASH	142	stimuli_distractor_trianglediamonds.svg	stimuli_distractor_diamondtriangles.svg	35	no	57	0	114	0	0			0	0			1				0	
6.6.0	win	2023-06-02	08:26:12	08:46:27	1205938	629534afc0924e49e1464589	3	1	main_slash	7	main_slash	143	stimuli_target_diamondsquares.svg	stimuli_distractor_trianglediamonds.svg	20	yes	53	1	311	0	0			0	0			1				0	
6.6.0	win	2023-06-02	08:26:12	08:46:27	1205938	629534afc0924e49e1464589	3	1	main_slash	7	advance_on_keypress_SLASH	144	stimuli_target_diamondsquares.svg	stimuli_distractor_trianglediamonds.svg	20	yes	57	0	754	0	0			0	0			1				0	
6.6.0	win	2023-06-02	08:26:12	08:46:31	1209345	629534afc0924e49e1464589	3	1	main_slash	7	main_slash	145	stimuli_distractor_trianglediamonds.svg	stimuli_distractor_trianglediamonds.svg	34	no	0	1	2000	0	0			0	0			1				0	
6.6.0	win	2023-06-02	08:26:12	08:46:31	1209345	629534afc0924e49e1464589	3	1	main_slash	7	advance_on_keypress_SLASH	146	stimuli_distractor_trianglediamonds.svg	stimuli_distractor_trianglediamonds.svg	34	no	57	0	214	0	0			0	0			1				0	
6.6.0	win	2023-06-02	08:26:12	08:46:32	1210987	629534afc0924e49e1464589	3	1	main_slash	7	main_slash	147	stimuli_target_diamondrectangles.svg	stimuli_distractor_diamondtriangles.svg	23	yes	53	1	775	0	0			0	0			1				0	
6.6.0	win	2023-06-02	08:26:12	08:46:32	1210987	629534afc0924e49e1464589	3	1	main_slash	7	advance_on_keypress_SLASH	148	stimuli_target_diamondrectangles.svg	stimuli_distractor_diamondtriangles.svg	23	yes	57	0	545	0	0			0	0			1				0	
6.6.0	win	2023-06-02	08:26:12	08:46:34	1212573	629534afc0924e49e1464589	3	1	main_slash	7	main_slash	149	stimuli_distractor_diamondtriangles.svg	stimuli_target_rectanglediamonds.svg	14	yes	53	1	393	0	0			0	0			1				0	
6.6.0	win	2023-06-02	08:26:12	08:46:34	1212573	629534afc0924e49e1464589	3	1	main_slash	7	advance_on_keypress_SLASH	150	stimuli_distractor_diamondtriangles.svg	stimuli_target_rectanglediamonds.svg	14	yes	57	0	451	0	0			0	0			1				0	
6.6.0	win	2023-06-02	08:26:12	08:46:35	1214127	629534afc0924e49e1464589	3	1	main_slash	7	main_slash	151	stimuli_target_squaretriangles.svg	stimuli_distractor_trianglediamonds.svg	3	yes	53	1	447	0	0			0	0			1				0	
6.6.0	win	2023-06-02	08:26:12	08:46:35	1214127	629534afc0924e49e1464589	3	1	main_slash	7	advance_on_keypress_SLASH	152	stimuli_target_squaretriangles.svg	stimuli_distractor_trianglediamonds.svg	3	yes	57	0	408	0	0			0	0			1				0	
6.6.0	win	2023-06-02	08:26:12	08:46:37	1215706	629534afc0924e49e1464589	3	1	main_slash	7	main_slash	153	stimuli_target_trianglesquares.svg	stimuli_distractor_diamondtriangles.svg	22	yes	53	1	527	0	0			0	0			1				0	
6.6.0	win	2023-06-02	08:26:12	08:46:37	1215706	629534afc0924e49e1464589	3	1	main_slash	7	advance_on_keypress_SLASH	154	stimuli_target_trianglesquares.svg	stimuli_distractor_diamondtriangles.svg	22	yes	57	0	498	0	0			0	0			1				0	
6.6.0	win	2023-06-02	08:26:12	08:46:38	1217071	629534afc0924e49e1464589	3	1	main_slash	7	main_slash	155	stimuli_target_trianglerectangles.svg	stimuli_distractor_diamondtriangles.svg	21	yes	53	1	209	0	0			0	0			1				0	
6.6.0	win	2023-06-02	08:26:12	08:46:38	1217071	629534afc0924e49e1464589	3	1	main_slash	7	advance_on_keypress_SLASH	156	stimuli_target_trianglerectangles.svg	stimuli_distractor_diamondtriangles.svg	21	yes	57	0	562	0	0			0	0			1				0	
6.6.0	win	2023-06-02	08:26:12	08:46:41	1220278	629534afc0924e49e1464589	3	1	main_slash	7	main_slash	157	stimuli_distractor_diamondtriangles.svg	stimuli_distractor_trianglediamonds.svg	38	no	0	1	2000	0	0			0	0			1				0	
6.6.0	win	2023-06-02	08:26:12	08:46:41	1220278	629534afc0924e49e1464589	3	1	main_slash	7	advance_on_keypress_SLASH	158	stimuli_distractor_diamondtriangles.svg	stimuli_distractor_trianglediamonds.svg	38	no	57	0	412	0	0			0	0			1				0	
6.6.0	win	2023-06-02	08:26:12	08:46:43	1221562	629534afc0924e49e1464589	3	1	main_slash	7	main_slash	159	stimuli_target_squaretriangles.svg	stimuli_distractor_diamondtriangles.svg	7	yes	53	1	216	0	0			0	0			1				0	
6.6.0	win	2023-06-02	08:26:12	08:46:43	1221562	629534afc0924e49e1464589	3	1	main_slash	7	advance_on_keypress_SLASH	160	stimuli_target_squaretriangles.svg	stimuli_distractor_diamondtriangles.svg	7	yes	57	0	351	0	0			0	0			1				0	
6.6.0	win	2023-06-02	08:26:12	08:53:28	1627074	629534afc0924e49e1464589	3	1	practice_z	9	practice_z	1	stimuli_distractor_trianglediamonds.svg	stimuli_distractor_diamondtriangles.svg	16	no	44	0	1100	0	0			0	0			1				0	
6.6.0	win	2023-06-02	08:26:12	08:53:28	1627074	629534afc0924e49e1464589	3	1	practice_z	9	advance_on_keypress_ZEE	2	stimuli_distractor_trianglediamonds.svg	stimuli_distractor_diamondtriangles.svg	16	no	57	0	408	0	0			0	0			1				0	
6.6.0	win	2023-06-02	08:26:12	08:53:32	1631158	629534afc0924e49e1464589	3	1	practice_z	9	practice_z	3	stimuli_target_rectanglediamonds.svg	stimuli_distractor_trianglediamonds.svg	4	yes	0	0	2000	0	0			0	0			1				0	
6.6.0	win	2023-06-02	08:26:12	08:53:32	1631158	629534afc0924e49e1464589	3	1	practice_z	9	advance_on_keypress_ZEE	4	stimuli_target_rectanglediamonds.svg	stimuli_distractor_trianglediamonds.svg	4	yes	57	0	476	0	0			0	0			1				0	
6.6.0	win	2023-06-02	08:26:12	08:53:35	1633540	629534afc0924e49e1464589	3	1	practice_z	9	practice_z	5	stimuli_distractor_diamondtriangles.svg	stimuli_target_trianglerectangles.svg	9	yes	44	1	249	0	0			0	0			1				0	
6.6.0	win	2023-06-02	08:26:12	08:53:35	1633540	629534afc0924e49e1464589	3	1	practice_z	9	advance_on_keypress_ZEE	6	stimuli_distractor_diamondtriangles.svg	stimuli_target_trianglerectangles.svg	9	yes	57	0	332	0	0			0	0			1				0	
6.6.0	win	2023-06-02	08:26:12	08:53:37	1635830	629534afc0924e49e1464589	3	1	practice_z	9	practice_z	7	stimuli_target_diamondsquares.svg	stimuli_distractor_trianglediamonds.svg	6	yes	44	1	305	0	0			0	0			1				0	
6.6.0	win	2023-06-02	08:26:12	08:53:37	1635830	629534afc0924e49e1464589	3	1	practice_z	9	advance_on_keypress_ZEE	8	stimuli_target_diamondsquares.svg	stimuli_distractor_trianglediamonds.svg	6	yes	57	0	504	0	0			0	0			1				0	
6.6.0	win	2023-06-02	08:26:12	08:53:41	1639976	629534afc0924e49e1464589	3	1	practice_z	9	practice_z	9	stimuli_distractor_diamondtriangles.svg	stimuli_distractor_diamondtriangles.svg	13	no	0	1	2000	0	0			0	0			1				0	
6.6.0	win	2023-06-02	08:26:12	08:53:41	1639976	629534afc0924e49e1464589	3	1	practice_z	9	advance_on_keypress_ZEE	10	stimuli_distractor_diamondtriangles.svg	stimuli_distractor_diamondtriangles.svg	13	no	57	0	480	0	0			0	0			1				0	
6.6.0	win	2023-06-02	08:26:12	08:53:45	1644108	629534afc0924e49e1464589	3	1	practice_z	9	practice_z	11	stimuli_target_rectanglediamonds.svg	stimuli_distractor_diamondtriangles.svg	1	yes	0	0	2000	0	0			0	0			1				0	
6.6.0	win	2023-06-02	08:26:12	08:53:45	1644108	629534afc0924e49e1464589	3	1	practice_z	9	advance_on_keypress_ZEE	12	stimuli_target_rectanglediamonds.svg	stimuli_distractor_diamondtriangles.svg	1	yes	57	0	906	0	0			0	0			1				0	
6.6.0	win	2023-06-02	08:26:12	08:53:48	1647010	629534afc0924e49e1464589	3	1	practice_z	9	practice_z	13	stimuli_target_squarediamonds.svg	stimuli_distractor_diamondtriangles.svg	2	yes	44	1	352	0	0			0	0			1				0	
6.6.0	win	2023-06-02	08:26:12	08:53:48	1647010	629534afc0924e49e1464589	3	1	practice_z	9	advance_on_keypress_ZEE	14	stimuli_target_squarediamonds.svg	stimuli_distractor_diamondtriangles.svg	2	yes	57	0	465	0	0			0	0			1				0	
6.6.0	win	2023-06-02	08:26:12	08:53:51	1650106	629534afc0924e49e1464589	3	1	practice_z	9	practice_z	15	stimuli_distractor_diamondtriangles.svg	stimuli_distractor_trianglediamonds.svg	14	no	44	0	981	0	0			0	0			1				0	
6.6.0	win	2023-06-02	08:26:12	08:53:51	1650106	629534afc0924e49e1464589	3	1	practice_z	9	advance_on_keypress_ZEE	16	stimuli_distractor_diamondtriangles.svg	stimuli_distractor_trianglediamonds.svg	14	no	57	0	860	0	0			0	0			1				0	
6.6.0	win	2023-06-02	08:26:12	08:53:54	1652863	629534afc0924e49e1464589	3	1	practice_z	9	practice_z	17	stimuli_distractor_trianglediamonds.svg	stimuli_distractor_trianglediamonds.svg	15	no	44	0	237	0	0			0	0			1				0	
6.6.0	win	2023-06-02	08:26:12	08:53:54	1652863	629534afc0924e49e1464589	3	1	practice_z	9	advance_on_keypress_ZEE	18	stimuli_distractor_trianglediamonds.svg	stimuli_distractor_trianglediamonds.svg	15	no	57	0	377	0	0			0	0			1				0	
6.6.0	win	2023-06-02	08:26:12	08:53:56	1655232	629534afc0924e49e1464589	3	1	practice_z	9	practice_z	19	stimuli_target_diamondsquares.svg	stimuli_distractor_diamondtriangles.svg	3	yes	44	1	340	0	0			0	0			1				0	
6.6.0	win	2023-06-02	08:26:12	08:53:56	1655232	629534afc0924e49e1464589	3	1	practice_z	9	advance_on_keypress_ZEE	20	stimuli_target_diamondsquares.svg	stimuli_distractor_diamondtriangles.svg	3	yes	57	0	353	0	0			0	0			1				0	
6.6.0	win	2023-06-02	08:26:12	08:54:00	1659243	629534afc0924e49e1464589	3	1	practice_z	9	practice_z	21	stimuli_target_squarediamonds.svg	stimuli_distractor_trianglediamonds.svg	5	yes	0	0	2000	0	0			0	0			1				0	
6.6.0	win	2023-06-02	08:26:12	08:54:00	1659243	629534afc0924e49e1464589	3	1	practice_z	9	advance_on_keypress_ZEE	22	stimuli_target_squarediamonds.svg	stimuli_distractor_trianglediamonds.svg	5	yes	57	0	349	0	0			0	0			1				0	
6.6.0	win	2023-06-02	08:26:12	08:54:03	1661863	629534afc0924e49e1464589	3	1	practice_z	9	practice_z	23	stimuli_distractor_trianglediamonds.svg	stimuli_target_rectanglediamonds.svg	10	yes	44	1	621	0	0			0	0			1				0	
6.6.0	win	2023-06-02	08:26:12	08:54:03	1661863	629534afc0924e49e1464589	3	1	practice_z	9	advance_on_keypress_ZEE	24	stimuli_distractor_trianglediamonds.svg	stimuli_target_rectanglediamonds.svg	10	yes	57	0	410	0	0			0	0			1				0	
6.6.0	win	2023-06-02	08:26:12	08:54:06	1664468	629534afc0924e49e1464589	3	1	practice_z	9	practice_z	25	stimuli_distractor_trianglediamonds.svg	stimuli_target_diamondrectangles.svg	12	yes	44	1	543	0	0			0	0			1				0	
6.6.0	win	2023-06-02	08:26:12	08:54:06	1664468	629534afc0924e49e1464589	3	1	practice_z	9	advance_on_keypress_ZEE	26	stimuli_distractor_trianglediamonds.svg	stimuli_target_diamondrectangles.svg	12	yes	57	0	461	0	0			0	0			1				0	
6.6.0	win	2023-06-02	08:26:12	08:54:08	1667014	629534afc0924e49e1464589	3	1	practice_z	9	practice_z	27	stimuli_distractor_trianglediamonds.svg	stimuli_target_squarediamonds.svg	11	yes	44	1	421	0	0			0	0			1				0	
6.6.0	win	2023-06-02	08:26:12	08:54:08	1667014	629534afc0924e49e1464589	3	1	practice_z	9	advance_on_keypress_ZEE	28	stimuli_distractor_trianglediamonds.svg	stimuli_target_squarediamonds.svg	11	yes	57	0	691	0	0			0	0			1				0	
6.6.0	win	2023-06-02	08:26:12	08:54:11	1669741	629534afc0924e49e1464589	3	1	practice_z	9	practice_z	29	stimuli_distractor_diamondtriangles.svg	stimuli_target_diamondrectangles.svg	8	yes	44	1	379	0	0			0	0			1				0	
6.6.0	win	2023-06-02	08:26:12	08:54:11	1669741	629534afc0924e49e1464589	3	1	practice_z	9	advance_on_keypress_ZEE	30	stimuli_distractor_diamondtriangles.svg	stimuli_target_diamondrectangles.svg	8	yes	57	0	837	0	0			0	0			1				0	
6.6.0	win	2023-06-02	08:26:12	08:54:14	1672784	629534afc0924e49e1464589	3	1	practice_z	9	practice_z	31	stimuli_distractor_diamondtriangles.svg	stimuli_target_rectangletriangles.svg	7	yes	44	1	559	0	0			0	0			1				0	
6.6.0	win	2023-06-02	08:26:12	08:54:14	1672784	629534afc0924e49e1464589	3	1	practice_z	9	advance_on_keypress_ZEE	32	stimuli_distractor_diamondtriangles.svg	stimuli_target_rectangletriangles.svg	7	yes	57	0	656	0	0			0	0			1				0	
6.6.0	win	2023-06-02	08:26:12	08:54:19	1677999	629534afc0924e49e1464589	3	1	main_z	11	main_z	1	stimuli_target_squarediamonds.svg	stimuli_distractor_trianglediamonds.svg	4	yes	44	1	374	0	0			0	0			1				0	
6.6.0	win	2023-06-02	08:26:12	08:54:19	1677999	629534afc0924e49e1464589	3	1	main_z	11	advance_on_keypress_ZEE	2	stimuli_target_squarediamonds.svg	stimuli_distractor_trianglediamonds.svg	4	yes	57	0	506	0	0			0	0			1				0	
6.6.0	win	2023-06-02	08:26:12	08:54:21	1679448	629534afc0924e49e1464589	3	1	main_z	11	main_z	3	stimuli_distractor_diamondtriangles.svg	stimuli_target_rectanglediamonds.svg	14	yes	44	1	292	0	0			0	0			1				0	
6.6.0	win	2023-06-02	08:26:12	08:54:21	1679448	629534afc0924e49e1464589	3	1	main_z	11	advance_on_keypress_ZEE	4	stimuli_distractor_diamondtriangles.svg	stimuli_target_rectanglediamonds.svg	14	yes	57	0	315	0	0			0	0			1				0	
6.6.0	win	2023-06-02	08:26:12	08:54:22	1680758	629534afc0924e49e1464589	3	1	main_z	11	main_z	5	stimuli_distractor_trianglediamonds.svg	stimuli_target_trianglesquares.svg	26	yes	44	1	352	0	0			0	0			1				0	
6.6.0	win	2023-06-02	08:26:12	08:54:22	1680758	629534afc0924e49e1464589	3	1	main_z	11	advance_on_keypress_ZEE	6	stimuli_distractor_trianglediamonds.svg	stimuli_target_trianglesquares.svg	26	yes	57	0	332	0	0			0	0			1				0	
6.6.0	win	2023-06-02	08:26:12	08:54:23	1682020	629534afc0924e49e1464589	3	1	main_z	11	main_z	7	stimuli_distractor_trianglediamonds.svg	stimuli_distractor_trianglediamonds.svg	33	no	44	0	280	0	0			0	0			1				0	
6.6.0	win	2023-06-02	08:26:12	08:54:23	1682020	629534afc0924e49e1464589	3	1	main_z	11	advance_on_keypress_ZEE	8	stimuli_distractor_trianglediamonds.svg	stimuli_distractor_trianglediamonds.svg	33	no	57	0	347	0	0			0	0			1				0	
6.6.0	win	2023-06-02	08:26:12	08:54:25	1683692	629534afc0924e49e1464589	3	1	main_z	11	main_z	9	stimuli_target_trianglesquares.svg	stimuli_distractor_trianglediamonds.svg	18	yes	44	1	668	0	0			0	0			1				0	
6.6.0	win	2023-06-02	08:26:12	08:54:25	1683692	629534afc0924e49e1464589	3	1	main_z	11	advance_on_keypress_ZEE	10	stimuli_target_trianglesquares.svg	stimuli_distractor_trianglediamonds.svg	18	yes	57	0	571	0	0			0	0			1				0	
6.6.0	win	2023-06-02	08:26:12	08:54:26	1685171	629534afc0924e49e1464589	3	1	main_z	11	main_z	11	stimuli_target_diamondrectangles.svg	stimuli_distractor_trianglediamonds.svg	19	yes	44	1	266	0	0			0	0			1				0	
6.6.0	win	2023-06-02	08:26:12	08:54:26	1685171	629534afc0924e49e1464589	3	1	main_z	11	advance_on_keypress_ZEE	12	stimuli_target_diamondrectangles.svg	stimuli_distractor_trianglediamonds.svg	19	yes	57	0	364	0	0			0	0			1				0	
6.6.0	win	2023-06-02	08:26:12	08:54:28	1686455	629534afc0924e49e1464589	3	1	main_z	11	main_z	13	stimuli_target_trianglerectangles.svg	stimuli_distractor_trianglediamonds.svg	17	yes	44	1	266	0	0			0	0			1				0	
6.6.0	win	2023-06-02	08:26:12	08:54:28	1686455	629534afc0924e49e1464589	3	1	main_z	11	advance_on_keypress_ZEE	14	stimuli_target_trianglerectangles.svg	stimuli_distractor_trianglediamonds.svg	17	yes	57	0	418	0	0			0	0			1				0	
6.6.0	win	2023-06-02	08:26:12	08:54:29	1687961	629534afc0924e49e1464589	3	1	main_z	11	main_z	15	stimuli_distractor_trianglediamonds.svg	stimuli_target_rectanglediamonds.svg	10	yes	44	1	439	0	0			0	0			1				0	
6.6.0	win	2023-06-02	08:26:12	08:54:29	1687961	629534afc0924e49e1464589	3	1	main_z	11	advance_on_keypress_ZEE	16	stimuli_distractor_trianglediamonds.svg	stimuli_target_rectanglediamonds.svg	10	yes	57	0	419	0	0			0	0			1				0	
6.6.0	win	2023-06-02	08:26:12	08:54:32	1691024	629534afc0924e49e1464589	3	1	main_z	11	main_z	17	stimuli_distractor_diamondtriangles.svg	stimuli_target_squaretriangles.svg	15	yes	0	0	2000	0	0			0	0			1				0	
6.6.0	win	2023-06-02	08:26:12	08:54:32	1691024	629534afc0924e49e1464589	3	1	main_z	11	advance_on_keypress_ZEE	18	stimuli_distractor_diamondtriangles.svg	stimuli_target_squaretriangles.svg	15	yes	57	0	266	0	0			0	0			1				0	
6.6.0	win	2023-06-02	08:26:12	08:54:33	1692013	629534afc0924e49e1464589	3	1	main_z	11	main_z	19	stimuli_distractor_trianglediamonds.svg	stimuli_target_diamondrectangles.svg	27	yes	44	1	73	0	0			0	0			1				0	
6.6.0	win	2023-06-02	08:26:12	08:54:33	1692013	629534afc0924e49e1464589	3	1	main_z	11	advance_on_keypress_ZEE	20	stimuli_distractor_trianglediamonds.svg	stimuli_target_diamondrectangles.svg	27	yes	57	0	448	0	0			0	0			1				0	
6.6.0	win	2023-06-02	08:26:12	08:54:35	1693760	629534afc0924e49e1464589	3	1	main_z	11	main_z	21	stimuli_target_trianglerectangles.svg	stimuli_distractor_diamondtriangles.svg	21	yes	44	1	655	0	0			0	0			1				0	
6.6.0	win	2023-06-02	08:26:12	08:54:35	1693760	629534afc0924e49e1464589	3	1	main_z	11	advance_on_keypress_ZEE	22	stimuli_target_trianglerectangles.svg	stimuli_distractor_diamondtriangles.svg	21	yes	57	0	551	0	0			0	0			1				0	
6.6.0	win	2023-06-02	08:26:12	08:54:36	1695112	629534afc0924e49e1464589	3	1	main_z	11	main_z	23	stimuli_target_rectangletriangles.svg	stimuli_distractor_diamondtriangles.svg	5	yes	44	1	156	0	0			0	0			1				0	
6.6.0	win	2023-06-02	08:26:12	08:54:36	1695112	629534afc0924e49e1464589	3	1	main_z	11	advance_on_keypress_ZEE	24	stimuli_target_rectangletriangles.svg	stimuli_distractor_diamondtriangles.svg	5	yes	57	0	379	0	0			0	0			1				0	
6.6.0	win	2023-06-02	08:26:12	08:54:39	1698140	629534afc0924e49e1464589	3	1	main_z	11	main_z	25	stimuli_distractor_trianglediamonds.svg	stimuli_target_squaretriangles.svg	11	yes	0	0	2000	0	0			0	0			1				0	
6.6.0	win	2023-06-02	08:26:12	08:54:39	1698140	629534afc0924e49e1464589	3	1	main_z	11	advance_on_keypress_ZEE	26	stimuli_distractor_trianglediamonds.svg	stimuli_target_squaretriangles.svg	11	yes	57	0	371	0	0			0	0			1				0	
6.6.0	win	2023-06-02	08:26:12	08:54:40	1699169	629534afc0924e49e1464589	3	1	main_z	11	main_z	27	stimuli_distractor_diamondtriangles.svg	stimuli_target_trianglesquares.svg	30	yes	44	1	13	0	0			0	0			1				0	
6.6.0	win	2023-06-02	08:26:12	08:54:40	1699169	629534afc0924e49e1464589	3	1	main_z	11	advance_on_keypress_ZEE	28	stimuli_distractor_diamondtriangles.svg	stimuli_target_trianglesquares.svg	30	yes	57	0	755	0	0			0	0			1				0	
6.6.0	win	2023-06-02	08:26:12	08:54:42	1700989	629534afc0924e49e1464589	3	1	main_z	11	main_z	29	stimuli_distractor_trianglediamonds.svg	stimuli_target_squarediamonds.svg	12	yes	44	1	416	0	0			0	0			1				0	
6.6.0	win	2023-06-02	08:26:12	08:54:42	1700989	629534afc0924e49e1464589	3	1	main_z	11	advance_on_keypress_ZEE	30	stimuli_distractor_trianglediamonds.svg	stimuli_target_squarediamonds.svg	12	yes	57	0	327	0	0			0	0			1				0	
6.6.0	win	2023-06-02	08:26:12	08:54:44	1702439	629534afc0924e49e1464589	3	1	main_z	11	main_z	31	stimuli_target_diamondsquares.svg	stimuli_distractor_trianglediamonds.svg	20	yes	44	1	466	0	0			0	0			1				0	
6.6.0	win	2023-06-02	08:26:12	08:54:44	1702439	629534afc0924e49e1464589	3	1	main_z	11	advance_on_keypress_ZEE	32	stimuli_target_diamondsquares.svg	stimuli_distractor_trianglediamonds.svg	20	yes	57	0	439	0	0			0	0			1				0	
6.6.0	win	2023-06-02	08:26:12	08:54:45	1704014	629534afc0924e49e1464589	3	1	main_z	11	main_z	33	stimuli_distractor_diamondtriangles.svg	stimuli_target_rectangletriangles.svg	13	yes	44	1	491	0	0			0	0			1				0	
6.6.0	win	2023-06-02	08:26:12	08:54:45	1704014	629534afc0924e49e1464589	3	1	main_z	11	advance_on_keypress_ZEE	34	stimuli_distractor_diamondtriangles.svg	stimuli_target_rectangletriangles.svg	13	yes	57	0	346	0	0			0	0			1				0	
6.6.0	win	2023-06-02	08:26:12	08:54:47	1705496	629534afc0924e49e1464589	3	1	main_z	11	main_z	35	stimuli_distractor_diamondtriangles.svg	stimuli_target_diamondsquares.svg	32	yes	44	1	489	0	0			0	0			1				0	
6.6.0	win	2023-06-02	08:26:12	08:54:47	1705496	629534afc0924e49e1464589	3	1	main_z	11	advance_on_keypress_ZEE	36	stimuli_distractor_diamondtriangles.svg	stimuli_target_diamondsquares.svg	32	yes	57	0	441	0	0			0	0			1				0	
6.6.0	win	2023-06-02	08:26:12	08:54:50	1708573	629534afc0924e49e1464589	3	1	main_z	11	main_z	37	stimuli_target_squarediamonds.svg	stimuli_distractor_diamondtriangles.svg	8	yes	0	0	2000	0	0			0	0			1				0	
6.6.0	win	2023-06-02	08:26:12	08:54:50	1708573	629534afc0924e49e1464589	3	1	main_z	11	advance_on_keypress_ZEE	38	stimuli_target_squarediamonds.svg	stimuli_distractor_diamondtriangles.svg	8	yes	57	0	548	0	0			0	0			1				0	
6.6.0	win	2023-06-02	08:26:12	08:54:53	1711774	629534afc0924e49e1464589	3	1	main_z	11	main_z	39	stimuli_target_squaretriangles.svg	stimuli_distractor_diamondtriangles.svg	7	yes	0	0	2000	0	0			0	0			1				0	
6.6.0	win	2023-06-02	08:26:12	08:54:53	1711774	629534afc0924e49e1464589	3	1	main_z	11	advance_on_keypress_ZEE	40	stimuli_target_squaretriangles.svg	stimuli_distractor_diamondtriangles.svg	7	yes	57	0	376	0	0			0	0			1				0	
6.6.0	win	2023-06-02	08:26:12	08:54:54	1713058	629534afc0924e49e1464589	3	1	main_z	11	main_z	41	stimuli_distractor_diamondtriangles.svg	stimuli_target_squarediamonds.svg	16	yes	44	1	252	0	0			0	0			1				0	
6.6.0	win	2023-06-02	08:26:12	08:54:54	1713058	629534afc0924e49e1464589	3	1	main_z	11	advance_on_keypress_ZEE	42	stimuli_distractor_diamondtriangles.svg	stimuli_target_squarediamonds.svg	16	yes	57	0	515	0	0			0	0			1				0	
6.6.0	win	2023-06-02	08:26:12	08:54:57	1716224	629534afc0924e49e1464589	3	1	main_z	11	main_z	43	stimuli_target_rectanglediamonds.svg	stimuli_distractor_diamondtriangles.svg	6	yes	0	0	2000	0	0			0	0			1				0	
6.6.0	win	2023-06-02	08:26:12	08:54:57	1716224	629534afc0924e49e1464589	3	1	main_z	11	advance_on_keypress_ZEE	44	stimuli_target_rectanglediamonds.svg	stimuli_distractor_diamondtriangles.svg	6	yes	57	0	410	0	0			0	0			1				0	
6.6.0	win	2023-06-02	08:26:12	08:54:59	1717595	629534afc0924e49e1464589	3	1	main_z	11	main_z	45	stimuli_distractor_trianglediamonds.svg	stimuli_target_trianglerectangles.svg	25	yes	44	1	305	0	0			0	0			1				0	
6.6.0	win	2023-06-02	08:26:12	08:54:59	1717595	629534afc0924e49e1464589	3	1	main_z	11	advance_on_keypress_ZEE	46	stimuli_distractor_trianglediamonds.svg	stimuli_target_trianglerectangles.svg	25	yes	57	0	1631	0	0			0	0			1				0	
6.6.0	win	2023-06-02	08:26:12	08:55:01	1720273	629534afc0924e49e1464589	3	1	main_z	11	main_z	47	stimuli_distractor_diamondtriangles.svg	stimuli_distractor_trianglediamonds.svg	38	no	44	0	399	0	0			0	0			1				0	
6.6.0	win	2023-06-02	08:26:12	08:55:01	1720273	629534afc0924e49e1464589	3	1	main_z	11	advance_on_keypress_ZEE	48	stimuli_distractor_diamondtriangles.svg	stimuli_distractor_trianglediamonds.svg	38	no	57	0	330	0	0			0	0			1				0	
6.6.0	win	2023-06-02	08:26:12	08:55:04	1723256	629534afc0924e49e1464589	3	1	main_z	11	main_z	49	stimuli_distractor_diamondtriangles.svg	stimuli_distractor_diamondtriangles.svg	39	no	0	1	2000	0	0			0	0			1				0	
6.6.0	win	2023-06-02	08:26:12	08:55:04	1723256	629534afc0924e49e1464589	3	1	main_z	11	advance_on_keypress_ZEE	50	stimuli_distractor_diamondtriangles.svg	stimuli_distractor_diamondtriangles.svg	39	no	57	0	297	0	0			0	0			1				0	
6.6.0	win	2023-06-02	08:26:12	08:55:06	1724542	629534afc0924e49e1464589	3	1	main_z	11	main_z	51	stimuli_target_squaretriangles.svg	stimuli_distractor_trianglediamonds.svg	3	yes	44	1	334	0	0			0	0			1				0	
6.6.0	win	2023-06-02	08:26:12	08:55:06	1724542	629534afc0924e49e1464589	3	1	main_z	11	advance_on_keypress_ZEE	52	stimuli_target_squaretriangles.svg	stimuli_distractor_trianglediamonds.svg	3	yes	57	0	362	0	0			0	0			1				0	
6.6.0	win	2023-06-02	08:26:12	08:55:09	1727557	629534afc0924e49e1464589	3	1	main_z	11	main_z	53	stimuli_distractor_trianglediamonds.svg	stimuli_distractor_diamondtriangles.svg	35	no	0	1	2000	0	0			0	0			1				0	
6.6.0	win	2023-06-02	08:26:12	08:55:09	1727557	629534afc0924e49e1464589	3	1	main_z	11	advance_on_keypress_ZEE	54	stimuli_distractor_trianglediamonds.svg	stimuli_distractor_diamondtriangles.svg	35	no	57	0	273	0	0			0	0			1				0	
6.6.0	win	2023-06-02	08:26:12	08:55:10	1728967	629534afc0924e49e1464589	3	1	main_z	11	main_z	55	stimuli_target_diamondsquares.svg	stimuli_distractor_diamondtriangles.svg	24	yes	44	1	493	0	0			0	0			1				0	
6.6.0	win	2023-06-02	08:26:12	08:55:10	1728967	629534afc0924e49e1464589	3	1	main_z	11	advance_on_keypress_ZEE	56	stimuli_target_diamondsquares.svg	stimuli_distractor_diamondtriangles.svg	24	yes	57	0	567	0	0			0	0			1				0	
6.6.0	win	2023-06-02	08:26:12	08:55:13	1732175	629534afc0924e49e1464589	3	1	main_z	11	main_z	57	stimuli_target_rectangletriangles.svg	stimuli_distractor_trianglediamonds.svg	1	yes	0	0	2000	0	0			0	0			1				0	
6.6.0	win	2023-06-02	08:26:12	08:55:13	1732175	629534afc0924e49e1464589	3	1	main_z	11	advance_on_keypress_ZEE	58	stimuli_target_rectangletriangles.svg	stimuli_distractor_trianglediamonds.svg	1	yes	57	0	399	0	0			0	0			1				0	
6.6.0	win	2023-06-02	08:26:12	08:55:16	1735224	629534afc0924e49e1464589	3	1	main_z	11	main_z	59	stimuli_distractor_diamondtriangles.svg	stimuli_distractor_diamondtriangles.svg	40	no	0	1	2000	0	0			0	0			1				0	
6.6.0	win	2023-06-02	08:26:12	08:55:16	1735224	629534afc0924e49e1464589	3	1	main_z	11	advance_on_keypress_ZEE	60	stimuli_distractor_diamondtriangles.svg	stimuli_distractor_diamondtriangles.svg	40	no	57	0	376	0	0			0	0			1				0	
6.6.0	win	2023-06-02	08:26:12	08:55:19	1738257	629534afc0924e49e1464589	3	1	main_z	11	main_z	61	stimuli_target_rectanglediamonds.svg	stimuli_distractor_trianglediamonds.svg	2	yes	0	0	2000	0	0			0	0			1				0	
6.6.0	win	2023-06-02	08:26:12	08:55:19	1738257	629534afc0924e49e1464589	3	1	main_z	11	advance_on_keypress_ZEE	62	stimuli_target_rectanglediamonds.svg	stimuli_distractor_trianglediamonds.svg	2	yes	57	0	349	0	0			0	0			1				0	
6.6.0	win	2023-06-02	08:26:12	08:55:21	1739623	629534afc0924e49e1464589	3	1	main_z	11	main_z	63	stimuli_distractor_diamondtriangles.svg	stimuli_target_trianglerectangles.svg	29	yes	44	1	363	0	0			0	0			1				0	
6.6.0	win	2023-06-02	08:26:12	08:55:21	1739623	629534afc0924e49e1464589	3	1	main_z	11	advance_on_keypress_ZEE	64	stimuli_distractor_diamondtriangles.svg	stimuli_target_trianglerectangles.svg	29	yes	57	0	675	0	0			0	0			1				0	
6.6.0	win	2023-06-02	08:26:12	08:55:23	1741718	629534afc0924e49e1464589	3	1	main_z	11	main_z	65	stimuli_target_diamondrectangles.svg	stimuli_distractor_diamondtriangles.svg	23	yes	44	1	761	0	0			0	0			1				0	
6.6.0	win	2023-06-02	08:26:12	08:55:23	1741718	629534afc0924e49e1464589	3	1	main_z	11	advance_on_keypress_ZEE	66	stimuli_target_diamondrectangles.svg	stimuli_distractor_diamondtriangles.svg	23	yes	57	0	487	0	0			0	0			1				0	
6.6.0	win	2023-06-02	08:26:12	08:55:26	1744858	629534afc0924e49e1464589	3	1	main_z	11	main_z	67	stimuli_distractor_trianglediamonds.svg	stimuli_distractor_trianglediamonds.svg	34	no	0	1	2000	0	0			0	0			1				0	
6.6.0	win	2023-06-02	08:26:12	08:55:26	1744858	629534afc0924e49e1464589	3	1	main_z	11	advance_on_keypress_ZEE	68	stimuli_distractor_trianglediamonds.svg	stimuli_distractor_trianglediamonds.svg	34	no	57	0	319	0	0			0	0			1				0	
6.6.0	win	2023-06-02	08:26:12	08:55:27	1746118	629534afc0924e49e1464589	3	1	main_z	11	main_z	69	stimuli_distractor_trianglediamonds.svg	stimuli_target_rectangletriangles.svg	9	yes	44	1	293	0	0			0	0			1				0	
6.6.0	win	2023-06-02	08:26:12	08:55:27	1746118	629534afc0924e49e1464589	3	1	main_z	11	advance_on_keypress_ZEE	70	stimuli_distractor_trianglediamonds.svg	stimuli_target_rectangletriangles.svg	9	yes	57	0	392	0	0			0	0			1				0	
6.6.0	win	2023-06-02	08:26:12	08:55:30	1749158	629534afc0924e49e1464589	3	1	main_z	11	main_z	71	stimuli_distractor_trianglediamonds.svg	stimuli_distractor_diamondtriangles.svg	36	no	0	1	2000	0	0			0	0			1				0	
6.6.0	win	2023-06-02	08:26:12	08:55:30	1749158	629534afc0924e49e1464589	3	1	main_z	11	advance_on_keypress_ZEE	72	stimuli_distractor_trianglediamonds.svg	stimuli_distractor_diamondtriangles.svg	36	no	57	0	91	0	0			0	0			1				0	
6.6.0	win	2023-06-02	08:26:12	08:55:31	1750274	629534afc0924e49e1464589	3	1	main_z	11	main_z	73	stimuli_distractor_trianglediamonds.svg	stimuli_target_diamondsquares.svg	28	yes	44	1	383	0	0			0	0			1				0	
6.6.0	win	2023-06-02	08:26:12	08:55:31	1750274	629534afc0924e49e1464589	3	1	main_z	11	advance_on_keypress_ZEE	74	stimuli_distractor_trianglediamonds.svg	stimuli_target_diamondsquares.svg	28	yes	57	0	10	0	0			0	0			1				0	
6.6.0	win	2023-06-02	08:26:12	08:55:34	1752941	629534afc0924e49e1464589	3	1	main_z	11	main_z	75	stimuli_distractor_diamondtriangles.svg	stimuli_distractor_trianglediamonds.svg	37	no	0	1	2000	0	0			0	0			1				0	
6.6.0	win	2023-06-02	08:26:12	08:55:34	1752941	629534afc0924e49e1464589	3	1	main_z	11	advance_on_keypress_ZEE	76	stimuli_distractor_diamondtriangles.svg	stimuli_distractor_trianglediamonds.svg	37	no	57	0	314	0	0			0	0			1				0	
6.6.0	win	2023-06-02	08:26:12	08:55:35	1754292	629534afc0924e49e1464589	3	1	main_z	11	main_z	77	stimuli_distractor_diamondtriangles.svg	stimuli_target_diamondrectangles.svg	31	yes	44	1	375	0	0			0	0			1				0	
6.6.0	win	2023-06-02	08:26:12	08:55:35	1754292	629534afc0924e49e1464589	3	1	main_z	11	advance_on_keypress_ZEE	78	stimuli_distractor_diamondtriangles.svg	stimuli_target_diamondrectangles.svg	31	yes	57	0	1930	0	0			0	0			1				0	
6.6.0	win	2023-06-02	08:26:12	08:55:39	1757387	629534afc0924e49e1464589	3	1	main_z	11	main_z	79	stimuli_target_trianglesquares.svg	stimuli_distractor_diamondtriangles.svg	22	yes	44	1	510	0	0			0	0			1				0	
6.6.0	win	2023-06-02	08:26:12	08:55:39	1757387	629534afc0924e49e1464589	3	1	main_z	11	advance_on_keypress_ZEE	80	stimuli_target_trianglesquares.svg	stimuli_distractor_diamondtriangles.svg	22	yes	57	0	431	0	0			0	0			1				0	
6.6.0	win	2023-06-02	08:26:12	08:55:42	1760475	629534afc0924e49e1464589	3	1	main_z	11	main_z	81	stimuli_distractor_trianglediamonds.svg	stimuli_distractor_trianglediamonds.svg	33	no	0	1	2000	0	0			0	0			1				0	
6.6.0	win	2023-06-02	08:26:12	08:55:42	1760475	629534afc0924e49e1464589	3	1	main_z	11	advance_on_keypress_ZEE	82	stimuli_distractor_trianglediamonds.svg	stimuli_distractor_trianglediamonds.svg	33	no	57	0	329	0	0			0	0			1				0	
6.6.0	win	2023-06-02	08:26:12	08:55:43	1761846	629534afc0924e49e1464589	3	1	main_z	11	main_z	83	stimuli_distractor_trianglediamonds.svg	stimuli_target_trianglesquares.svg	26	yes	44	1	388	0	0			0	0			1				0	
6.6.0	win	2023-06-02	08:26:12	08:55:43	1761846	629534afc0924e49e1464589	3	1	main_z	11	advance_on_keypress_ZEE	84	stimuli_distractor_trianglediamonds.svg	stimuli_target_trianglesquares.svg	26	yes	57	0	499	0	0			0	0			1				0	
6.6.0	win	2023-06-02	08:26:12	08:55:45	1763351	629534afc0924e49e1464589	3	1	main_z	11	main_z	85	stimuli_distractor_trianglediamonds.svg	stimuli_target_trianglerectangles.svg	25	yes	44	1	359	0	0			0	0			1				0	
6.6.0	win	2023-06-02	08:26:12	08:55:45	1763351	629534afc0924e49e1464589	3	1	main_z	11	advance_on_keypress_ZEE	86	stimuli_distractor_trianglediamonds.svg	stimuli_target_trianglerectangles.svg	25	yes	57	0	350	0	0			0	0			1				0	
6.6.0	win	2023-06-02	08:26:12	08:55:46	1764790	629534afc0924e49e1464589	3	1	main_z	11	main_z	87	stimuli_target_trianglerectangles.svg	stimuli_distractor_trianglediamonds.svg	17	yes	44	1	432	0	0			0	0			1				0	
6.6.0	win	2023-06-02	08:26:12	08:55:46	1764790	629534afc0924e49e1464589	3	1	main_z	11	advance_on_keypress_ZEE	88	stimuli_target_trianglerectangles.svg	stimuli_distractor_trianglediamonds.svg	17	yes	57	0	405	0	0			0	0			1				0	
6.6.0	win	2023-06-02	08:26:12	08:55:49	1767841	629534afc0924e49e1464589	3	1	main_z	11	main_z	89	stimuli_distractor_trianglediamonds.svg	stimuli_distractor_diamondtriangles.svg	36	no	0	1	2000	0	0			0	0			1				0	
6.6.0	win	2023-06-02	08:26:12	08:55:49	1767841	629534afc0924e49e1464589	3	1	main_z	11	advance_on_keypress_ZEE	90	stimuli_distractor_trianglediamonds.svg	stimuli_distractor_diamondtriangles.svg	36	no	57	0	305	0	0			0	0			1				0	
6.6.0	win	2023-06-02	08:26:12	08:55:51	1769337	629534afc0924e49e1464589	3	1	main_z	11	main_z	91	stimuli_distractor_diamondtriangles.svg	stimuli_distractor_trianglediamonds.svg	38	no	44	0	546	0	0			0	0			1				0	
6.6.0	win	2023-06-02	08:26:12	08:55:51	1769337	629534afc0924e49e1464589	3	1	main_z	11	advance_on_keypress_ZEE	92	stimuli_distractor_diamondtriangles.svg	stimuli_distractor_trianglediamonds.svg	38	no	57	0	360	0	0			0	0			1				0	
6.6.0	win	2023-06-02	08:26:12	08:55:54	1772358	629534afc0924e49e1464589	3	1	main_z	11	main_z	93	stimuli_distractor_trianglediamonds.svg	stimuli_target_squarediamonds.svg	12	yes	0	0	2000	0	0			0	0			1				0	
6.6.0	win	2023-06-02	08:26:12	08:55:54	1772358	629534afc0924e49e1464589	3	1	main_z	11	advance_on_keypress_ZEE	94	stimuli_distractor_trianglediamonds.svg	stimuli_target_squarediamonds.svg	12	yes	57	0	322	0	0			0	0			1				0	
6.6.0	win	2023-06-02	08:26:12	08:55:55	1774018	629534afc0924e49e1464589	3	1	main_z	11	main_z	95	stimuli_distractor_diamondtriangles.svg	stimuli_target_trianglerectangles.svg	29	yes	44	1	691	0	0			0	0			1				0	
6.6.0	win	2023-06-02	08:26:12	08:55:55	1774018	629534afc0924e49e1464589	3	1	main_z	11	advance_on_keypress_ZEE	96	stimuli_distractor_diamondtriangles.svg	stimuli_target_trianglerectangles.svg	29	yes	57	0	657	0	0			0	0			1				0	
6.6.0	win	2023-06-02	08:26:12	08:55:57	1775676	629534afc0924e49e1464589	3	1	main_z	11	main_z	97	stimuli_target_rectangletriangles.svg	stimuli_distractor_trianglediamonds.svg	1	yes	44	1	351	0	0			0	0			1				0	
6.6.0	win	2023-06-02	08:26:12	08:55:57	1775676	629534afc0924e49e1464589	3	1	main_z	11	advance_on_keypress_ZEE	98	stimuli_target_rectangletriangles.svg	stimuli_distractor_trianglediamonds.svg	1	yes	57	0	399	0	0			0	0			1				0	
6.6.0	win	2023-06-02	08:26:12	08:56:00	1778724	629534afc0924e49e1464589	3	1	main_z	11	main_z	99	stimuli_target_squarediamonds.svg	stimuli_distractor_diamondtriangles.svg	8	yes	0	0	2000	0	0			0	0			1				0	
6.6.0	win	2023-06-02	08:26:12	08:56:00	1778724	629534afc0924e49e1464589	3	1	main_z	11	advance_on_keypress_ZEE	100	stimuli_target_squarediamonds.svg	stimuli_distractor_diamondtriangles.svg	8	yes	57	0	293	0	0			0	0			1				0	
6.6.0	win	2023-06-02	08:26:12	08:56:01	1779912	629534afc0924e49e1464589	3	1	main_z	11	main_z	101	stimuli_distractor_diamondtriangles.svg	stimuli_distractor_diamondtriangles.svg	40	no	44	0	237	0	0			0	0			1				0	
6.6.0	win	2023-06-02	08:26:12	08:56:01	1779912	629534afc0924e49e1464589	3	1	main_z	11	advance_on_keypress_ZEE	102	stimuli_distractor_diamondtriangles.svg	stimuli_distractor_diamondtriangles.svg	40	no	57	0	337	0	0			0	0			1				0	
6.6.0	win	2023-06-02	08:26:12	08:56:02	1781240	629534afc0924e49e1464589	3	1	main_z	11	main_z	103	stimuli_distractor_trianglediamonds.svg	stimuli_target_diamondsquares.svg	28	yes	44	1	348	0	0			0	0			1				0	
6.6.0	win	2023-06-02	08:26:12	08:56:02	1781240	629534afc0924e49e1464589	3	1	main_z	11	advance_on_keypress_ZEE	104	stimuli_distractor_trianglediamonds.svg	stimuli_target_diamondsquares.svg	28	yes	57	0	771	0	0			0	0			1				0	
6.6.0	win	2023-06-02	08:26:12	08:56:04	1783040	629534afc0924e49e1464589	3	1	main_z	11	main_z	105	stimuli_target_rectanglediamonds.svg	stimuli_distractor_diamondtriangles.svg	6	yes	44	1	372	0	0			0	0			1				0	
6.6.0	win	2023-06-02	08:26:12	08:56:04	1783040	629534afc0924e49e1464589	3	1	main_z	11	advance_on_keypress_ZEE	106	stimuli_target_rectanglediamonds.svg	stimuli_distractor_diamondtriangles.svg	6	yes	57	0	351	0	0			0	0			1				0	
6.6.0	win	2023-06-02	08:26:12	08:56:07	1786042	629534afc0924e49e1464589	3	1	main_z	11	main_z	107	stimuli_distractor_diamondtriangles.svg	stimuli_target_squaretriangles.svg	15	yes	0	0	2000	0	0			0	0			1				0	
6.6.0	win	2023-06-02	08:26:12	08:56:07	1786042	629534afc0924e49e1464589	3	1	main_z	11	advance_on_keypress_ZEE	108	stimuli_distractor_diamondtriangles.svg	stimuli_target_squaretriangles.svg	15	yes	57	0	256	0	0			0	0			1				0	
6.6.0	win	2023-06-02	08:26:12	08:56:08	1787305	629534afc0924e49e1464589	3	1	main_z	11	main_z	109	stimuli_target_trianglesquares.svg	stimuli_distractor_diamondtriangles.svg	22	yes	44	1	363	0	0			0	0			1				0	
6.6.0	win	2023-06-02	08:26:12	08:56:08	1787305	629534afc0924e49e1464589	3	1	main_z	11	advance_on_keypress_ZEE	110	stimuli_target_trianglesquares.svg	stimuli_distractor_diamondtriangles.svg	22	yes	57	0	524	0	0			0	0			1				0	
6.6.0	win	2023-06-02	08:26:12	08:56:10	1788916	629534afc0924e49e1464589	3	1	main_z	11	main_z	111	stimuli_target_trianglesquares.svg	stimuli_distractor_trianglediamonds.svg	18	yes	44	1	439	0	0			0	0			1				0	
6.6.0	win	2023-06-02	08:26:12	08:56:10	1788916	629534afc0924e49e1464589	3	1	main_z	11	advance_on_keypress_ZEE	112	stimuli_target_trianglesquares.svg	stimuli_distractor_trianglediamonds.svg	18	yes	57	0	402	0	0			0	0			1				0	
6.6.0	win	2023-06-02	08:26:12	08:56:12	1790497	629534afc0924e49e1464589	3	1	main_z	11	main_z	113	stimuli_distractor_trianglediamonds.svg	stimuli_target_squaretriangles.svg	11	yes	44	1	537	0	0			0	0			1				0	
6.6.0	win	2023-06-02	08:26:12	08:56:12	1790497	629534afc0924e49e1464589	3	1	main_z	11	advance_on_keypress_ZEE	114	stimuli_distractor_trianglediamonds.svg	stimuli_target_squaretriangles.svg	11	yes	57	0	313	0	0			0	0			1				0	
6.6.0	win	2023-06-02	08:26:12	08:56:15	1793459	629534afc0924e49e1464589	3	1	main_z	11	main_z	115	stimuli_target_squarediamonds.svg	stimuli_distractor_trianglediamonds.svg	4	yes	0	0	2000	0	0			0	0			1				0	
6.6.0	win	2023-06-02	08:26:12	08:56:15	1793459	629534afc0924e49e1464589	3	1	main_z	11	advance_on_keypress_ZEE	116	stimuli_target_squarediamonds.svg	stimuli_distractor_trianglediamonds.svg	4	yes	57	0	465	0	0			0	0			1				0	
6.6.0	win	2023-06-02	08:26:12	08:56:16	1794858	629534afc0924e49e1464589	3	1	main_z	11	main_z	117	stimuli_target_diamondrectangles.svg	stimuli_distractor_diamondtriangles.svg	23	yes	44	1	282	0	0			0	0			1				0	
6.6.0	win	2023-06-02	08:26:12	08:56:16	1794858	629534afc0924e49e1464589	3	1	main_z	11	advance_on_keypress_ZEE	118	stimuli_target_diamondrectangles.svg	stimuli_distractor_diamondtriangles.svg	23	yes	57	0	303	0	0			0	0			1				0	
6.6.0	win	2023-06-02	08:26:12	08:56:18	1796358	629534afc0924e49e1464589	3	1	main_z	11	main_z	119	stimuli_target_trianglerectangles.svg	stimuli_distractor_diamondtriangles.svg	21	yes	44	1	549	0	0			0	0			1				0	
6.6.0	win	2023-06-02	08:26:12	08:56:18	1796358	629534afc0924e49e1464589	3	1	main_z	11	advance_on_keypress_ZEE	120	stimuli_target_trianglerectangles.svg	stimuli_distractor_diamondtriangles.svg	21	yes	57	0	511	0	0			0	0			1				0	
6.6.0	win	2023-06-02	08:26:12	08:56:19	1797908	629534afc0924e49e1464589	3	1	main_z	11	main_z	121	stimuli_target_diamondrectangles.svg	stimuli_distractor_trianglediamonds.svg	19	yes	44	1	379	0	0			0	0			1				0	
6.6.0	win	2023-06-02	08:26:12	08:56:19	1797908	629534afc0924e49e1464589	3	1	main_z	11	advance_on_keypress_ZEE	122	stimuli_target_diamondrectangles.svg	stimuli_distractor_trianglediamonds.svg	19	yes	57	0	436	0	0			0	0			1				0	
6.6.0	win	2023-06-02	08:26:12	08:56:22	1800992	629534afc0924e49e1464589	3	1	main_z	11	main_z	123	stimuli_distractor_trianglediamonds.svg	stimuli_target_rectanglediamonds.svg	10	yes	0	0	2000	0	0			0	0			1				0	
6.6.0	win	2023-06-02	08:26:12	08:56:22	1800992	629534afc0924e49e1464589	3	1	main_z	11	advance_on_keypress_ZEE	124	stimuli_distractor_trianglediamonds.svg	stimuli_target_rectanglediamonds.svg	10	yes	57	0	280	0	0			0	0			1				0	
6.6.0	win	2023-06-02	08:26:12	08:56:23	1802249	629534afc0924e49e1464589	3	1	main_z	11	main_z	125	stimuli_distractor_diamondtriangles.svg	stimuli_distractor_diamondtriangles.svg	39	no	44	0	324	0	0			0	0			1				0	
6.6.0	win	2023-06-02	08:26:12	08:56:23	1802249	629534afc0924e49e1464589	3	1	main_z	11	advance_on_keypress_ZEE	126	stimuli_distractor_diamondtriangles.svg	stimuli_distractor_diamondtriangles.svg	39	no	57	0	326	0	0			0	0			1				0	
6.6.0	win	2023-06-02	08:26:12	08:56:25	1803772	629534afc0924e49e1464589	3	1	main_z	11	main_z	127	stimuli_distractor_trianglediamonds.svg	stimuli_target_diamondrectangles.svg	27	yes	44	1	546	0	0			0	0			1				0	
6.6.0	win	2023-06-02	08:26:12	08:56:25	1803772	629534afc0924e49e1464589	3	1	main_z	11	advance_on_keypress_ZEE	128	stimuli_distractor_trianglediamonds.svg	stimuli_target_diamondrectangles.svg	27	yes	57	0	981	0	0			0	0			1				0	
6.6.0	win	2023-06-02	08:26:12	08:56:27	1805721	629534afc0924e49e1464589	3	1	main_z	11	main_z	129	stimuli_distractor_diamondtriangles.svg	stimuli_target_trianglesquares.svg	30	yes	44	1	311	0	0			0	0			1				0	
6.6.0	win	2023-06-02	08:26:12	08:56:27	1805721	629534afc0924e49e1464589	3	1	main_z	11	advance_on_keypress_ZEE	130	stimuli_distractor_diamondtriangles.svg	stimuli_target_trianglesquares.svg	30	yes	57	0	365	0	0			0	0			1				0	
6.6.0	win	2023-06-02	08:26:12	08:56:30	1808743	629534afc0924e49e1464589	3	1	main_z	11	main_z	131	stimuli_target_squaretriangles.svg	stimuli_distractor_diamondtriangles.svg	7	yes	0	0	2000	0	0			0	0			1				0	
6.6.0	win	2023-06-02	08:26:12	08:56:30	1808743	629534afc0924e49e1464589	3	1	main_z	11	advance_on_keypress_ZEE	132	stimuli_target_squaretriangles.svg	stimuli_distractor_diamondtriangles.svg	7	yes	57	0	290	0	0			0	0			1				0	
6.6.0	win	2023-06-02	08:26:12	08:56:33	1811676	629534afc0924e49e1464589	3	1	main_z	11	main_z	133	stimuli_target_rectangletriangles.svg	stimuli_distractor_diamondtriangles.svg	5	yes	0	0	2000	0	0			0	0			1				0	
6.6.0	win	2023-06-02	08:26:12	08:56:33	1811676	629534afc0924e49e1464589	3	1	main_z	11	advance_on_keypress_ZEE	134	stimuli_target_rectangletriangles.svg	stimuli_distractor_diamondtriangles.svg	5	yes	57	0	283	0	0			0	0			1				0	
6.6.0	win	2023-06-02	08:26:12	08:56:34	1812866	629534afc0924e49e1464589	3	1	main_z	11	main_z	135	stimuli_distractor_trianglediamonds.svg	stimuli_distractor_diamondtriangles.svg	35	no	44	0	257	0	0			0	0			1				0	
6.6.0	win	2023-06-02	08:26:12	08:56:34	1812866	629534afc0924e49e1464589	3	1	main_z	11	advance_on_keypress_ZEE	136	stimuli_distractor_trianglediamonds.svg	stimuli_distractor_diamondtriangles.svg	35	no	57	0	370	0	0			0	0			1				0	
6.6.0	win	2023-06-02	08:26:12	08:56:35	1814198	629534afc0924e49e1464589	3	1	main_z	11	main_z	137	stimuli_distractor_diamondtriangles.svg	stimuli_target_diamondsquares.svg	32	yes	44	1	322	0	0			0	0			1				0	
6.6.0	win	2023-06-02	08:26:12	08:56:35	1814198	629534afc0924e49e1464589	3	1	main_z	11	advance_on_keypress_ZEE	138	stimuli_distractor_diamondtriangles.svg	stimuli_target_diamondsquares.svg	32	yes	57	0	375	0	0			0	0			1				0	
6.6.0	win	2023-06-02	08:26:12	08:56:37	1815741	629534afc0924e49e1464589	3	1	main_z	11	main_z	139	stimuli_target_diamondsquares.svg	stimuli_distractor_diamondtriangles.svg	24	yes	44	1	533	0	0			0	0			1				0	
6.6.0	win	2023-06-02	08:26:12	08:56:37	1815741	629534afc0924e49e1464589	3	1	main_z	11	advance_on_keypress_ZEE	140	stimuli_target_diamondsquares.svg	stimuli_distractor_diamondtriangles.svg	24	yes	57	0	332	0	0			0	0			1				0	
6.6.0	win	2023-06-02	08:26:12	08:56:40	1818726	629534afc0924e49e1464589	3	1	main_z	11	main_z	141	stimuli_distractor_diamondtriangles.svg	stimuli_target_rectanglediamonds.svg	14	yes	0	0	2000	0	0			0	0			1				0	
6.6.0	win	2023-06-02	08:26:12	08:56:40	1818726	629534afc0924e49e1464589	3	1	main_z	11	advance_on_keypress_ZEE	142	stimuli_distractor_diamondtriangles.svg	stimuli_target_rectanglediamonds.svg	14	yes	57	0	155	0	0			0	0			1				0	
6.6.0	win	2023-06-02	08:26:12	08:56:43	1821526	629534afc0924e49e1464589	3	1	main_z	11	main_z	143	stimuli_distractor_trianglediamonds.svg	stimuli_target_rectangletriangles.svg	9	yes	0	0	2000	0	0			0	0			1				0	
6.6.0	win	2023-06-02	08:26:12	08:56:43	1821526	629534afc0924e49e1464589	3	1	main_z	11	advance_on_keypress_ZEE	144	stimuli_distractor_trianglediamonds.svg	stimuli_target_rectangletriangles.svg	9	yes	57	0	326	0	0			0	0			1				0	
6.6.0	win	2023-06-02	08:26:12	08:56:44	1822762	629534afc0924e49e1464589	3	1	main_z	11	main_z	145	stimuli_distractor_diamondtriangles.svg	stimuli_distractor_trianglediamonds.svg	37	no	44	0	253	0	0			0	0			1				0	
6.6.0	win	2023-06-02	08:26:12	08:56:44	1822762	629534afc0924e49e1464589	3	1	main_z	11	advance_on_keypress_ZEE	146	stimuli_distractor_diamondtriangles.svg	stimuli_distractor_trianglediamonds.svg	37	no	57	0	360	0	0			0	0			1				0	
6.6.0	win	2023-06-02	08:26:12	08:56:47	1825776	629534afc0924e49e1464589	3	1	main_z	11	main_z	147	stimuli_distractor_diamondtriangles.svg	stimuli_target_squarediamonds.svg	16	yes	0	0	2000	0	0			0	0			1				0	
6.6.0	win	2023-06-02	08:26:12	08:56:47	1825776	629534afc0924e49e1464589	3	1	main_z	11	advance_on_keypress_ZEE	148	stimuli_distractor_diamondtriangles.svg	stimuli_target_squarediamonds.svg	16	yes	57	0	342	0	0			0	0			1				0	
6.6.0	win	2023-06-02	08:26:12	08:56:48	1827237	629534afc0924e49e1464589	3	1	main_z	11	main_z	149	stimuli_distractor_trianglediamonds.svg	stimuli_distractor_trianglediamonds.svg	34	no	44	0	460	0	0			0	0			1				0	
6.6.0	win	2023-06-02	08:26:12	08:56:48	1827237	629534afc0924e49e1464589	3	1	main_z	11	advance_on_keypress_ZEE	150	stimuli_distractor_trianglediamonds.svg	stimuli_distractor_trianglediamonds.svg	34	no	57	0	378	0	0			0	0			1				0	
6.6.0	win	2023-06-02	08:26:12	08:56:51	1830277	629534afc0924e49e1464589	3	1	main_z	11	main_z	151	stimuli_target_rectanglediamonds.svg	stimuli_distractor_trianglediamonds.svg	2	yes	0	0	2000	0	0			0	0			1				0	
6.6.0	win	2023-06-02	08:26:12	08:56:51	1830277	629534afc0924e49e1464589	3	1	main_z	11	advance_on_keypress_ZEE	152	stimuli_target_rectanglediamonds.svg	stimuli_distractor_trianglediamonds.svg	2	yes	57	0	559	0	0			0	0			1				0	
6.6.0	win	2023-06-02	08:26:12	08:56:53	1832021	629534afc0924e49e1464589	3	1	main_z	11	main_z	153	stimuli_distractor_diamondtriangles.svg	stimuli_target_rectangletriangles.svg	13	yes	44	1	528	0	0			0	0			1				0	
6.6.0	win	2023-06-02	08:26:12	08:56:53	1832021	629534afc0924e49e1464589	3	1	main_z	11	advance_on_keypress_ZEE	154	stimuli_distractor_diamondtriangles.svg	stimuli_target_rectangletriangles.svg	13	yes	57	0	332	0	0			0	0			1				0	
6.6.0	win	2023-06-02	08:26:12	08:56:55	1833358	629534afc0924e49e1464589	3	1	main_z	11	main_z	155	stimuli_distractor_diamondtriangles.svg	stimuli_target_diamondrectangles.svg	31	yes	44	1	348	0	0			0	0			1				0	
6.6.0	win	2023-06-02	08:26:12	08:56:55	1833358	629534afc0924e49e1464589	3	1	main_z	11	advance_on_keypress_ZEE	156	stimuli_distractor_diamondtriangles.svg	stimuli_target_diamondrectangles.svg	31	yes	57	0	441	0	0			0	0			1				0	
6.6.0	win	2023-06-02	08:26:12	08:56:56	1835050	629534afc0924e49e1464589	3	1	main_z	11	main_z	157	stimuli_target_squaretriangles.svg	stimuli_distractor_trianglediamonds.svg	3	yes	44	1	606	0	0			0	0			1				0	
6.6.0	win	2023-06-02	08:26:12	08:56:56	1835050	629534afc0924e49e1464589	3	1	main_z	11	advance_on_keypress_ZEE	158	stimuli_target_squaretriangles.svg	stimuli_distractor_trianglediamonds.svg	3	yes	57	0	255	0	0			0	0			1				0	
6.6.0	win	2023-06-02	08:26:12	08:56:58	1836352	629534afc0924e49e1464589	3	1	main_z	11	main_z	159	stimuli_target_diamondsquares.svg	stimuli_distractor_trianglediamonds.svg	20	yes	44	1	409	0	0			0	0			1				0	
6.6.0	win	2023-06-02	08:26:12	08:56:58	1836352	629534afc0924e49e1464589	3	1	main_z	11	advance_on_keypress_ZEE	160	stimuli_target_diamondsquares.svg	stimuli_distractor_trianglediamonds.svg	20	yes	57	0	304	0	0			0	0			1				0	
6.6.0	win	2023-06-02	08:26:12	08:56:58	1836352	629534afc0924e49e1464589	3	1	headphonecheck_calibration	14	headphonecheck_calibrationIntro	1	stimuli_target_diamondsquares.svg	stimuli_distractor_trianglediamonds.svg	20	yes	calibrationButton	0	2547	0	0			0	0			1				0	
6.6.0	win	2023-06-02	08:26:12	08:56:58	1836352	629534afc0924e49e1464589	3	1	headphonecheck_testphase	15	test_collectResponse	3	stimuli_target_diamondsquares.svg	stimuli_distractor_trianglediamonds.svg	20	yes	first	0	3757	1	2	antiphase_hc_ios.wav	3	0	0			1				0	
6.6.0	win	2023-06-02	08:26:12	08:56:58	1836352	629534afc0924e49e1464589	3	1	headphonecheck_testphase	15	test_collectResponse	6	stimuli_target_diamondsquares.svg	stimuli_distractor_trianglediamonds.svg	20	yes	first	0	483	2	5	antiphase_hc_osi.wav	2	0	0			1				0	
6.6.0	win	2023-06-02	08:26:12	08:56:58	1836352	629534afc0924e49e1464589	3	1	headphonecheck_testphase	15	test_collectResponse	9	stimuli_target_diamondsquares.svg	stimuli_distractor_trianglediamonds.svg	20	yes	first	0	1288	3	6	antiphase_hc_ois.wav	3	0	0			1				0	
6.6.0	win	2023-06-02	08:26:12	08:56:58	1836352	629534afc0924e49e1464589	3	1	headphonecheck_testphase	15	test_collectResponse	12	stimuli_target_diamondsquares.svg	stimuli_distractor_trianglediamonds.svg	20	yes	third	0	909	4	1	antiphase_hc_iso.wav	2	0	0			1				0	
6.6.0	win	2023-06-02	08:26:12	08:56:58	1836352	629534afc0924e49e1464589	3	1	headphonecheck_testphase	15	test_collectResponse	15	stimuli_target_diamondsquares.svg	stimuli_distractor_trianglediamonds.svg	20	yes	third	0	525	5	4	antiphase_hc_sio.wav	1	0	0			1				0	
6.6.0	win	2023-06-02	08:26:12	08:56:58	1836352	629534afc0924e49e1464589	3	1	headphonecheck_testphase	15	test_collectResponse	18	stimuli_target_diamondsquares.svg	stimuli_distractor_trianglediamonds.svg	20	yes	second	0	449	6	3	antiphase_hc_soi.wav	1	0	0			1				0	
6.6.0	win	2023-06-02	08:26:12	08:56:58	1836352	629534afc0924e49e1464589	3	1	stereocheck_calibration	17	stereocheck_calibrationIntro	1	stimuli_target_diamondsquares.svg	stimuli_distractor_trianglediamonds.svg	20	yes	stereocheck_calibrationButton	0	6302	6	3	antiphase_hc_soi.wav	1	0	0			1				0	
6.6.0	win	2023-06-02	08:26:12	08:56:58	1836352	629534afc0924e49e1464589	3	1	stereocheck_testphase	18	stereocheck_test_collectResponse	3	stimuli_target_diamondsquares.svg	stimuli_distractor_trianglediamonds.svg	20	yes	stereocheck_right	1	86	6	3	antiphase_hc_soi.wav	1	1	5	noise_calib_stim_RIGHT.wav	2	1				0	
6.6.0	win	2023-06-02	08:26:12	08:56:58	1836352	629534afc0924e49e1464589	3	1	stereocheck_testphase	18	stereocheck_test_collectResponse	6	stimuli_target_diamondsquares.svg	stimuli_distractor_trianglediamonds.svg	20	yes	stereocheck_right	1	326	6	3	antiphase_hc_soi.wav	1	2	6	noise_calib_stim_RIGHT.wav	2	1				0	
6.6.0	win	2023-06-02	08:26:12	08:56:58	1836352	629534afc0924e49e1464589	3	1	stereocheck_testphase	18	stereocheck_test_collectResponse	9	stimuli_target_diamondsquares.svg	stimuli_distractor_trianglediamonds.svg	20	yes	stereocheck_left	1	337	6	3	antiphase_hc_soi.wav	1	3	3	noise_calib_stim_LEFT.wav	1	1				0	
6.6.0	win	2023-06-02	08:26:12	08:56:58	1836352	629534afc0924e49e1464589	3	1	stereocheck_testphase	18	stereocheck_test_collectResponse	12	stimuli_target_diamondsquares.svg	stimuli_distractor_trianglediamonds.svg	20	yes	stereocheck_right	0	7143	6	3	antiphase_hc_soi.wav	1	4	2	noise_calib_stim_LEFT.wav	1	1				0	
6.6.0	win	2023-06-02	08:26:12	08:56:58	1836352	629534afc0924e49e1464589	3	1	stereocheck_testphase	18	stereocheck_test_collectResponse	15	stimuli_target_diamondsquares.svg	stimuli_distractor_trianglediamonds.svg	20	yes	stereocheck_left	1	413	6	3	antiphase_hc_soi.wav	1	5	1	noise_calib_stim_LEFT.wav	1	1				0	
6.6.0	win	2023-06-02	08:26:12	08:56:58	1836352	629534afc0924e49e1464589	3	1	stereocheck_testphase	18	stereocheck_test_collectResponse	18	stimuli_target_diamondsquares.svg	stimuli_distractor_trianglediamonds.svg	20	yes	stereocheck_right	1	574	6	3	antiphase_hc_soi.wav	1	6	4	noise_calib_stim_RIGHT.wav	2	1				0	
6.6.0	win	2023-06-02	08:26:12	08:56:58	1836352	629534afc0924e49e1464589	3	1	DL_practice	21	DL_practice	2	stimuli_target_diamondsquares.svg	stimuli_distractor_trianglediamonds.svg	20	yes	ba	1	1334	6	3	antiphase_hc_soi.wav	1	6	4	noise_calib_stim_RIGHT.wav	2	1	blb_dichoticlistening_ba-ba.mp3	ba	ba	0	left
6.6.0	win	2023-06-02	08:26:12	08:56:58	1836352	629534afc0924e49e1464589	3	1	DL_practice	21	DL_practice	3	stimuli_target_diamondsquares.svg	stimuli_distractor_trianglediamonds.svg	20	yes	ta	1	1716	6	3	antiphase_hc_soi.wav	1	6	4	noise_calib_stim_RIGHT.wav	2	36	blb_dichoticlistening_ta-ta.mp3	ta	ta	0	left
6.6.0	win	2023-06-02	08:26:12	08:56:58	1836352	629534afc0924e49e1464589	3	1	DL_practice	21	DL_practice	4	stimuli_target_diamondsquares.svg	stimuli_distractor_trianglediamonds.svg	20	yes	pa	1	1422	6	3	antiphase_hc_soi.wav	1	6	4	noise_calib_stim_RIGHT.wav	2	29	blb_dichoticlistening_pa-pa.mp3	pa	pa	0	left
6.6.0	win	2023-06-02	08:26:12	08:56:58	1836352	629534afc0924e49e1464589	3	1	DL_practice	21	DL_practice	5	stimuli_target_diamondsquares.svg	stimuli_distractor_trianglediamonds.svg	20	yes	ka	1	1174	6	3	antiphase_hc_soi.wav	1	6	4	noise_calib_stim_RIGHT.wav	2	22	blb_dichoticlistening_ka-ka.mp3	ka	ka	0	left
6.6.0	win	2023-06-02	08:26:12	08:56:58	1836352	629534afc0924e49e1464589	3	1	DL_practice	21	DL_practice	6	stimuli_target_diamondsquares.svg	stimuli_distractor_trianglediamonds.svg	20	yes	ga	1	1335	6	3	antiphase_hc_soi.wav	1	6	4	noise_calib_stim_RIGHT.wav	2	18	blb_dichoticlistening_ga-ta.mp3	ga	ta	1	left
6.6.0	win	2023-06-02	08:26:12	08:56:58	1836352	629534afc0924e49e1464589	3	1	DL_practice	21	DL_practice	7	stimuli_target_diamondsquares.svg	stimuli_distractor_trianglediamonds.svg	20	yes	da	1	747	6	3	antiphase_hc_soi.wav	1	6	4	noise_calib_stim_RIGHT.wav	2	8	blb_dichoticlistening_da-da.mp3	da	da	0	left
6.6.0	win	2023-06-02	08:26:12	08:56:58	1836352	629534afc0924e49e1464589	3	1	DL_practice	21	DL_practice	8	stimuli_target_diamondsquares.svg	stimuli_distractor_trianglediamonds.svg	20	yes	ga	1	1329	6	3	antiphase_hc_soi.wav	1	6	4	noise_calib_stim_RIGHT.wav	2	15	blb_dichoticlistening_ga-ga.mp3	ga	ga	0	left
6.6.0	win	2023-06-02	08:26:12	08:56:58	1836352	629534afc0924e49e1464589	3	1	DL_practice	21	DL_practice	9	stimuli_target_diamondsquares.svg	stimuli_distractor_trianglediamonds.svg	20	yes	ka	1	782	6	3	antiphase_hc_soi.wav	1	6	4	noise_calib_stim_RIGHT.wav	2	23	blb_dichoticlistening_ka-pa.mp3	ka	pa	1	left
6.6.0	win	2023-06-02	08:26:12	08:56:58	1836352	629534afc0924e49e1464589	3	1	DL_practice	21	DL_practice	10	stimuli_target_diamondsquares.svg	stimuli_distractor_trianglediamonds.svg	20	yes	pa	0	838	6	3	antiphase_hc_soi.wav	1	6	4	noise_calib_stim_RIGHT.wav	2	7	blb_dichoticlistening_da-ba.mp3	da	ba	1	other
6.6.0	win	2023-06-02	08:26:12	08:56:58	1836352	629534afc0924e49e1464589	3	1	DL_test	23	DL_test	1	stimuli_target_diamondsquares.svg	stimuli_distractor_trianglediamonds.svg	20	yes	ga	0	1500	6	3	antiphase_hc_soi.wav	1	6	4	noise_calib_stim_RIGHT.wav	2	10	blb_dichoticlistening_da-ka.mp3	da	ka	1	other
6.6.0	win	2023-06-02	08:26:12	08:56:58	1836352	629534afc0924e49e1464589	3	1	DL_test	23	DL_test	2	stimuli_target_diamondsquares.svg	stimuli_distractor_trianglediamonds.svg	20	yes	ta	1	1298	6	3	antiphase_hc_soi.wav	1	6	4	noise_calib_stim_RIGHT.wav	2	30	blb_dichoticlistening_pa-ta.mp3	pa	ta	1	right
6.6.0	win	2023-06-02	08:26:12	08:56:58	1836352	629534afc0924e49e1464589	3	1	DL_test	23	DL_test	3	stimuli_target_diamondsquares.svg	stimuli_distractor_trianglediamonds.svg	20	yes	ta	1	895	6	3	antiphase_hc_soi.wav	1	6	4	noise_calib_stim_RIGHT.wav	2	24	blb_dichoticlistening_ka-ta.mp3	ka	ta	1	right
6.6.0	win	2023-06-02	08:26:12	08:56:58	1836352	629534afc0924e49e1464589	3	1	DL_test	23	DL_test	4	stimuli_target_diamondsquares.svg	stimuli_distractor_trianglediamonds.svg	20	yes	ga	1	1381	6	3	antiphase_hc_soi.wav	1	6	4	noise_calib_stim_RIGHT.wav	2	9	blb_dichoticlistening_da-ga.mp3	da	ga	1	right
6.6.0	win	2023-06-02	08:26:12	08:56:58	1836352	629534afc0924e49e1464589	3	1	DL_test	23	DL_test	5	stimuli_target_diamondsquares.svg	stimuli_distractor_trianglediamonds.svg	20	yes	pa	0	1698	6	3	antiphase_hc_soi.wav	1	6	4	noise_calib_stim_RIGHT.wav	2	4	blb_dichoticlistening_ba-ka.mp3	ba	ka	1	other
6.6.0	win	2023-06-02	08:26:12	08:56:58	1836352	629534afc0924e49e1464589	3	1	DL_test	23	DL_test	6	stimuli_target_diamondsquares.svg	stimuli_distractor_trianglediamonds.svg	20	yes	ga	1	1043	6	3	antiphase_hc_soi.wav	1	6	4	noise_calib_stim_RIGHT.wav	2	16	blb_dichoticlistening_ga-ka.mp3	ga	ka	1	left
6.6.0	win	2023-06-02	08:26:12	08:56:58	1836352	629534afc0924e49e1464589	3	1	DL_test	23	DL_test	7	stimuli_target_diamondsquares.svg	stimuli_distractor_trianglediamonds.svg	20	yes	ga	1	694	6	3	antiphase_hc_soi.wav	1	6	4	noise_calib_stim_RIGHT.wav	2	14	blb_dichoticlistening_ga-da.mp3	ga	da	1	left
6.6.0	win	2023-06-02	08:26:12	08:56:58	1836352	629534afc0924e49e1464589	3	1	DL_test	23	DL_test	8	stimuli_target_diamondsquares.svg	stimuli_distractor_trianglediamonds.svg	20	yes	ta	1	1173	6	3	antiphase_hc_soi.wav	1	6	4	noise_calib_stim_RIGHT.wav	2	36	blb_dichoticlistening_ta-ta.mp3	ta	ta	0	left
6.6.0	win	2023-06-02	08:26:12	08:56:58	1836352	629534afc0924e49e1464589	3	1	DL_test	23	DL_test	9	stimuli_target_diamondsquares.svg	stimuli_distractor_trianglediamonds.svg	20	yes	da	1	1618	6	3	antiphase_hc_soi.wav	1	6	4	noise_calib_stim_RIGHT.wav	2	12	blb_dichoticlistening_da-ta.mp3	da	ta	1	left
6.6.0	win	2023-06-02	08:26:12	08:56:58	1836352	629534afc0924e49e1464589	3	1	DL_test	23	DL_test	10	stimuli_target_diamondsquares.svg	stimuli_distractor_trianglediamonds.svg	20	yes	ga	1	958	6	3	antiphase_hc_soi.wav	1	6	4	noise_calib_stim_RIGHT.wav	2	17	blb_dichoticlistening_ga-pa.mp3	ga	pa	1	left
6.6.0	win	2023-06-02	08:26:12	08:56:58	1836352	629534afc0924e49e1464589	3	1	DL_test	23	DL_test	11	stimuli_target_diamondsquares.svg	stimuli_distractor_trianglediamonds.svg	20	yes	ba	1	1120	6	3	antiphase_hc_soi.wav	1	6	4	noise_calib_stim_RIGHT.wav	2	3	blb_dichoticlistening_ba-ga.mp3	ba	ga	1	left
6.6.0	win	2023-06-02	08:26:12	08:56:58	1836352	629534afc0924e49e1464589	3	1	DL_test	23	DL_test	12	stimuli_target_diamondsquares.svg	stimuli_distractor_trianglediamonds.svg	20	yes	ta	1	1379	6	3	antiphase_hc_soi.wav	1	6	4	noise_calib_stim_RIGHT.wav	2	34	blb_dichoticlistening_ta-ka.mp3	ta	ka	1	left
6.6.0	win	2023-06-02	08:26:12	08:56:58	1836352	629534afc0924e49e1464589	3	1	DL_test	23	DL_test	13	stimuli_target_diamondsquares.svg	stimuli_distractor_trianglediamonds.svg	20	yes	pa	0	1041	6	3	antiphase_hc_soi.wav	1	6	4	noise_calib_stim_RIGHT.wav	2	31	blb_dichoticlistening_ta-ba.mp3	ta	ba	1	other
6.6.0	win	2023-06-02	08:26:12	08:56:58	1836352	629534afc0924e49e1464589	3	1	DL_test	23	DL_test	14	stimuli_target_diamondsquares.svg	stimuli_distractor_trianglediamonds.svg	20	yes	ga	1	981	6	3	antiphase_hc_soi.wav	1	6	4	noise_calib_stim_RIGHT.wav	2	18	blb_dichoticlistening_ga-ta.mp3	ga	ta	1	left
6.6.0	win	2023-06-02	08:26:12	08:56:58	1836352	629534afc0924e49e1464589	3	1	DL_test	23	DL_test	15	stimuli_target_diamondsquares.svg	stimuli_distractor_trianglediamonds.svg	20	yes	ta	0	1363	6	3	antiphase_hc_soi.wav	1	6	4	noise_calib_stim_RIGHT.wav	2	20	blb_dichoticlistening_ka-da.mp3	ka	da	1	other
6.6.0	win	2023-06-02	08:26:12	08:56:58	1836352	629534afc0924e49e1464589	3	1	DL_test	23	DL_test	16	stimuli_target_diamondsquares.svg	stimuli_distractor_trianglediamonds.svg	20	yes	ga	1	1098	6	3	antiphase_hc_soi.wav	1	6	4	noise_calib_stim_RIGHT.wav	2	15	blb_dichoticlistening_ga-ga.mp3	ga	ga	0	left
6.6.0	win	2023-06-02	08:26:12	08:56:58	1836352	629534afc0924e49e1464589	3	1	DL_test	23	DL_test	17	stimuli_target_diamondsquares.svg	stimuli_distractor_trianglediamonds.svg	20	yes	ba	1	1264	6	3	antiphase_hc_soi.wav	1	6	4	noise_calib_stim_RIGHT.wav	2	2	blb_dichoticlistening_ba-da.mp3	ba	da	1	left
6.6.0	win	2023-06-02	08:26:12	08:56:58	1836352	629534afc0924e49e1464589	3	1	DL_test	23	DL_test	18	stimuli_target_diamondsquares.svg	stimuli_distractor_trianglediamonds.svg	20	yes	ga	1	1448	6	3	antiphase_hc_soi.wav	1	6	4	noise_calib_stim_RIGHT.wav	2	21	blb_dichoticlistening_ka-ga.mp3	ka	ga	1	right
6.6.0	win	2023-06-02	08:26:12	08:56:58	1836352	629534afc0924e49e1464589	3	1	DL_test	23	DL_test	19	stimuli_target_diamondsquares.svg	stimuli_distractor_trianglediamonds.svg	20	yes	da	1	1124	6	3	antiphase_hc_soi.wav	1	6	4	noise_calib_stim_RIGHT.wav	2	8	blb_dichoticlistening_da-da.mp3	da	da	0	left
6.6.0	win	2023-06-02	08:26:12	08:56:58	1836352	629534afc0924e49e1464589	3	1	DL_test	23	DL_test	20	stimuli_target_diamondsquares.svg	stimuli_distractor_trianglediamonds.svg	20	yes	ka	1	1454	6	3	antiphase_hc_soi.wav	1	6	4	noise_calib_stim_RIGHT.wav	2	23	blb_dichoticlistening_ka-pa.mp3	ka	pa	1	left
6.6.0	win	2023-06-02	08:26:12	08:56:58	1836352	629534afc0924e49e1464589	3	1	DL_test	23	DL_test	21	stimuli_target_diamondsquares.svg	stimuli_distractor_trianglediamonds.svg	20	yes	ka	1	1068	6	3	antiphase_hc_soi.wav	1	6	4	noise_calib_stim_RIGHT.wav	2	28	blb_dichoticlistening_pa-ka.mp3	pa	ka	1	right
6.6.0	win	2023-06-02	08:26:12	08:56:58	1836352	629534afc0924e49e1464589	3	1	DL_test	23	DL_test	22	stimuli_target_diamondsquares.svg	stimuli_distractor_trianglediamonds.svg	20	yes	ba	1	1270	6	3	antiphase_hc_soi.wav	1	6	4	noise_calib_stim_RIGHT.wav	2	13	blb_dichoticlistening_ga-ba.mp3	ga	ba	1	right
6.6.0	win	2023-06-02	08:26:12	08:56:58	1836352	629534afc0924e49e1464589	3	1	DL_test	23	DL_test	23	stimuli_target_diamondsquares.svg	stimuli_distractor_trianglediamonds.svg	20	yes	da	1	1302	6	3	antiphase_hc_soi.wav	1	6	4	noise_calib_stim_RIGHT.wav	2	32	blb_dichoticlistening_ta-da.mp3	ta	da	1	right
6.6.0	win	2023-06-02	08:26:12	08:56:58	1836352	629534afc0924e49e1464589	3	1	DL_test	23	DL_test	24	stimuli_target_diamondsquares.svg	stimuli_distractor_trianglediamonds.svg	20	yes	ba	1	1589	6	3	antiphase_hc_soi.wav	1	6	4	noise_calib_stim_RIGHT.wav	2	1	blb_dichoticlistening_ba-ba.mp3	ba	ba	0	left
6.6.0	win	2023-06-02	08:26:12	08:56:58	1836352	629534afc0924e49e1464589	3	1	DL_test	23	DL_test	25	stimuli_target_diamondsquares.svg	stimuli_distractor_trianglediamonds.svg	20	yes	pa	0	1884	6	3	antiphase_hc_soi.wav	1	6	4	noise_calib_stim_RIGHT.wav	2	6	blb_dichoticlistening_ba-ta.mp3	ba	ta	1	other
