build	computer.platform	date	time	timestamp	time_elapsed_ms	subject	group	session	blockcode	blocknum	trialcode	trialnum	stimulus_left	stimulus_right	stim_index	target_present	response	correct	latency	headphonecheck_countTestTrials	headphonecheck_index	headphonecheck_testSound	headphonecheck_correctResponse	stereocheck_countTestTrials	stereocheck_index	stereocheck_testSound	stereocheck_correctResponse	DL_index	DL_soundfile	DL_leftSound	DL_rightSound	DL_dualSound	DL_choice
6.6.1	win	2023-06-26	23:40:20	23:44:01	216400	64139e0346c4b91651b69d44	3	1	practice_slash	5	practice_slash	1	stimuli_distractor_diamondtriangles.svg	stimuli_target_rectangletriangles.svg	7	yes	53	1	1315	0	0			0	0			1				0	
6.6.1	win	2023-06-26	23:40:20	23:44:01	216400	64139e0346c4b91651b69d44	3	1	practice_slash	5	advance_on_keypress_SLASH	2	stimuli_distractor_diamondtriangles.svg	stimuli_target_rectangletriangles.svg	7	yes	57	0	6918	0	0			0	0			1				0	
6.6.1	win	2023-06-26	23:40:20	23:44:10	225691	64139e0346c4b91651b69d44	3	1	practice_slash	5	practice_slash	3	stimuli_distractor_diamondtriangles.svg	stimuli_target_diamondrectangles.svg	8	yes	53	1	724	0	0			0	0			1				0	
6.6.1	win	2023-06-26	23:40:20	23:44:10	225691	64139e0346c4b91651b69d44	3	1	practice_slash	5	advance_on_keypress_SLASH	4	stimuli_distractor_diamondtriangles.svg	stimuli_target_diamondrectangles.svg	8	yes	57	0	1110	0	0			0	0			1				0	
6.6.1	win	2023-06-26	23:40:20	23:44:13	229103	64139e0346c4b91651b69d44	3	1	practice_slash	5	practice_slash	5	stimuli_target_diamondsquares.svg	stimuli_distractor_trianglediamonds.svg	6	yes	53	1	651	0	0			0	0			1				0	
6.6.1	win	2023-06-26	23:40:20	23:44:13	229103	64139e0346c4b91651b69d44	3	1	practice_slash	5	advance_on_keypress_SLASH	6	stimuli_target_diamondsquares.svg	stimuli_distractor_trianglediamonds.svg	6	yes	57	0	627	0	0			0	0			1				0	
6.6.1	win	2023-06-26	23:40:20	23:44:17	232705	64139e0346c4b91651b69d44	3	1	practice_slash	5	practice_slash	7	stimuli_distractor_diamondtriangles.svg	stimuli_distractor_trianglediamonds.svg	14	no	53	0	1338	0	0			0	0			1				0	
6.6.1	win	2023-06-26	23:40:20	23:44:17	232705	64139e0346c4b91651b69d44	3	1	practice_slash	5	advance_on_keypress_SLASH	8	stimuli_distractor_diamondtriangles.svg	stimuli_distractor_trianglediamonds.svg	14	no	57	0	746	0	0			0	0			1				0	
6.6.1	win	2023-06-26	23:40:20	23:44:21	237101	64139e0346c4b91651b69d44	3	1	practice_slash	5	practice_slash	9	stimuli_distractor_trianglediamonds.svg	stimuli_distractor_trianglediamonds.svg	15	no	0	1	2000	0	0			0	0			1				0	
6.6.1	win	2023-06-26	23:40:20	23:44:21	237101	64139e0346c4b91651b69d44	3	1	practice_slash	5	advance_on_keypress_SLASH	10	stimuli_distractor_trianglediamonds.svg	stimuli_distractor_trianglediamonds.svg	15	no	57	0	548	0	0			0	0			1				0	
6.6.1	win	2023-06-26	23:40:20	23:44:24	240176	64139e0346c4b91651b69d44	3	1	practice_slash	5	practice_slash	11	stimuli_distractor_trianglediamonds.svg	stimuli_target_squarediamonds.svg	11	yes	53	1	876	0	0			0	0			1				0	
6.6.1	win	2023-06-26	23:40:20	23:44:24	240176	64139e0346c4b91651b69d44	3	1	practice_slash	5	advance_on_keypress_SLASH	12	stimuli_distractor_trianglediamonds.svg	stimuli_target_squarediamonds.svg	11	yes	57	0	656	0	0			0	0			1				0	
6.6.1	win	2023-06-26	23:40:20	23:44:29	244467	64139e0346c4b91651b69d44	3	1	practice_slash	5	practice_slash	13	stimuli_target_diamondsquares.svg	stimuli_distractor_diamondtriangles.svg	3	yes	0	0	2000	0	0			0	0			1				0	
6.6.1	win	2023-06-26	23:40:20	23:44:29	244467	64139e0346c4b91651b69d44	3	1	practice_slash	5	advance_on_keypress_SLASH	14	stimuli_target_diamondsquares.svg	stimuli_distractor_diamondtriangles.svg	3	yes	57	0	529	0	0			0	0			1				0	
6.6.1	win	2023-06-26	23:40:20	23:44:31	247263	64139e0346c4b91651b69d44	3	1	practice_slash	5	practice_slash	15	stimuli_distractor_trianglediamonds.svg	stimuli_target_rectanglediamonds.svg	10	yes	53	1	612	0	0			0	0			1				0	
6.6.1	win	2023-06-26	23:40:20	23:44:31	247263	64139e0346c4b91651b69d44	3	1	practice_slash	5	advance_on_keypress_SLASH	16	stimuli_distractor_trianglediamonds.svg	stimuli_target_rectanglediamonds.svg	10	yes	57	0	364	0	0			0	0			1				0	
6.6.1	win	2023-06-26	23:40:20	23:44:35	251284	64139e0346c4b91651b69d44	3	1	practice_slash	5	practice_slash	17	stimuli_distractor_diamondtriangles.svg	stimuli_target_trianglerectangles.svg	9	yes	0	0	2000	0	0			0	0			1				0	
6.6.1	win	2023-06-26	23:40:20	23:44:35	251284	64139e0346c4b91651b69d44	3	1	practice_slash	5	advance_on_keypress_SLASH	18	stimuli_distractor_diamondtriangles.svg	stimuli_target_trianglerectangles.svg	9	yes	57	0	362	0	0			0	0			1				0	
6.6.1	win	2023-06-26	23:40:20	23:44:38	253966	64139e0346c4b91651b69d44	3	1	practice_slash	5	practice_slash	19	stimuli_distractor_trianglediamonds.svg	stimuli_distractor_diamondtriangles.svg	16	no	53	0	666	0	0			0	0			1				0	
6.6.1	win	2023-06-26	23:40:20	23:44:38	253966	64139e0346c4b91651b69d44	3	1	practice_slash	5	advance_on_keypress_SLASH	20	stimuli_distractor_trianglediamonds.svg	stimuli_distractor_diamondtriangles.svg	16	no	57	0	433	0	0			0	0			1				0	
6.6.1	win	2023-06-26	23:40:20	23:44:41	257108	64139e0346c4b91651b69d44	3	1	practice_slash	5	practice_slash	21	stimuli_target_squarediamonds.svg	stimuli_distractor_diamondtriangles.svg	2	yes	53	1	1059	0	0			0	0			1				0	
6.6.1	win	2023-06-26	23:40:20	23:44:41	257108	64139e0346c4b91651b69d44	3	1	practice_slash	5	advance_on_keypress_SLASH	22	stimuli_target_squarediamonds.svg	stimuli_distractor_diamondtriangles.svg	2	yes	57	0	559	0	0			0	0			1				0	
6.6.1	win	2023-06-26	23:40:20	23:44:45	261300	64139e0346c4b91651b69d44	3	1	practice_slash	5	practice_slash	23	stimuli_distractor_diamondtriangles.svg	stimuli_distractor_diamondtriangles.svg	13	no	0	1	2000	0	0			0	0			1				0	
6.6.1	win	2023-06-26	23:40:20	23:44:45	261300	64139e0346c4b91651b69d44	3	1	practice_slash	5	advance_on_keypress_SLASH	24	stimuli_distractor_diamondtriangles.svg	stimuli_distractor_diamondtriangles.svg	13	no	57	0	378	0	0			0	0			1				0	
6.6.1	win	2023-06-26	23:40:20	23:44:48	264092	64139e0346c4b91651b69d44	3	1	practice_slash	5	practice_slash	25	stimuli_target_rectanglediamonds.svg	stimuli_distractor_trianglediamonds.svg	4	yes	53	1	760	0	0			0	0			1				0	
6.6.1	win	2023-06-26	23:40:20	23:44:48	264092	64139e0346c4b91651b69d44	3	1	practice_slash	5	advance_on_keypress_SLASH	26	stimuli_target_rectanglediamonds.svg	stimuli_distractor_trianglediamonds.svg	4	yes	57	0	468	0	0			0	0			1				0	
6.6.1	win	2023-06-26	23:40:20	23:44:51	266995	64139e0346c4b91651b69d44	3	1	practice_slash	5	practice_slash	27	stimuli_target_rectanglediamonds.svg	stimuli_distractor_diamondtriangles.svg	1	yes	53	1	796	0	0			0	0			1				0	
6.6.1	win	2023-06-26	23:40:20	23:44:51	266995	64139e0346c4b91651b69d44	3	1	practice_slash	5	advance_on_keypress_SLASH	28	stimuli_target_rectanglediamonds.svg	stimuli_distractor_diamondtriangles.svg	1	yes	57	0	402	0	0			0	0			1				0	
6.6.1	win	2023-06-26	23:40:20	23:44:55	271049	64139e0346c4b91651b69d44	3	1	practice_slash	5	practice_slash	29	stimuli_distractor_trianglediamonds.svg	stimuli_target_diamondrectangles.svg	12	yes	0	0	2000	0	0			0	0			1				0	
6.6.1	win	2023-06-26	23:40:20	23:44:55	271049	64139e0346c4b91651b69d44	3	1	practice_slash	5	advance_on_keypress_SLASH	30	stimuli_distractor_trianglediamonds.svg	stimuli_target_diamondrectangles.svg	12	yes	57	0	373	0	0			0	0			1				0	
6.6.1	win	2023-06-26	23:40:20	23:44:58	273981	64139e0346c4b91651b69d44	3	1	practice_slash	5	practice_slash	31	stimuli_target_squarediamonds.svg	stimuli_distractor_trianglediamonds.svg	5	yes	53	1	916	0	0			0	0			1				0	
6.6.1	win	2023-06-26	23:40:20	23:44:58	273981	64139e0346c4b91651b69d44	3	1	practice_slash	5	advance_on_keypress_SLASH	32	stimuli_target_squarediamonds.svg	stimuli_distractor_trianglediamonds.svg	5	yes	57	0	418	0	0			0	0			1				0	
6.6.1	win	2023-06-26	23:40:20	23:45:05	281004	64139e0346c4b91651b69d44	3	1	main_slash	7	main_slash	1	stimuli_target_rectangletriangles.svg	stimuli_distractor_trianglediamonds.svg	1	yes	53	1	490	0	0			0	0			1				0	
6.6.1	win	2023-06-26	23:40:20	23:45:05	281004	64139e0346c4b91651b69d44	3	1	main_slash	7	advance_on_keypress_SLASH	2	stimuli_target_rectangletriangles.svg	stimuli_distractor_trianglediamonds.svg	1	yes	57	0	1308	0	0			0	0			1				0	
6.6.1	win	2023-06-26	23:40:20	23:45:08	284356	64139e0346c4b91651b69d44	3	1	main_slash	7	main_slash	3	stimuli_distractor_trianglediamonds.svg	stimuli_distractor_diamondtriangles.svg	35	no	53	0	1409	0	0			0	0			1				0	
6.6.1	win	2023-06-26	23:40:20	23:45:08	284356	64139e0346c4b91651b69d44	3	1	main_slash	7	advance_on_keypress_SLASH	4	stimuli_distractor_trianglediamonds.svg	stimuli_distractor_diamondtriangles.svg	35	no	57	0	1218	0	0			0	0			1				0	
6.6.1	win	2023-06-26	23:40:20	23:45:11	286881	64139e0346c4b91651b69d44	3	1	main_slash	7	main_slash	5	stimuli_target_squarediamonds.svg	stimuli_distractor_trianglediamonds.svg	4	yes	53	1	667	0	0			0	0			1				0	
6.6.1	win	2023-06-26	23:40:20	23:45:11	286881	64139e0346c4b91651b69d44	3	1	main_slash	7	advance_on_keypress_SLASH	6	stimuli_target_squarediamonds.svg	stimuli_distractor_trianglediamonds.svg	4	yes	57	0	635	0	0			0	0			1				0	
6.6.1	win	2023-06-26	23:40:20	23:45:14	290163	64139e0346c4b91651b69d44	3	1	main_slash	7	main_slash	7	stimuli_distractor_trianglediamonds.svg	stimuli_target_trianglesquares.svg	26	yes	0	0	2000	0	0			0	0			1				0	
6.6.1	win	2023-06-26	23:40:20	23:45:14	290163	64139e0346c4b91651b69d44	3	1	main_slash	7	advance_on_keypress_SLASH	8	stimuli_distractor_trianglediamonds.svg	stimuli_target_trianglesquares.svg	26	yes	57	0	554	0	0			0	0			1				0	
6.6.1	win	2023-06-26	23:40:20	23:45:16	292207	64139e0346c4b91651b69d44	3	1	main_slash	7	main_slash	9	stimuli_distractor_diamondtriangles.svg	stimuli_target_rectangletriangles.svg	13	yes	53	1	844	0	0			0	0			1				0	
6.6.1	win	2023-06-26	23:40:20	23:45:16	292207	64139e0346c4b91651b69d44	3	1	main_slash	7	advance_on_keypress_SLASH	10	stimuli_distractor_diamondtriangles.svg	stimuli_target_rectangletriangles.svg	13	yes	57	0	614	0	0			0	0			1				0	
6.6.1	win	2023-06-26	23:40:20	23:45:18	294276	64139e0346c4b91651b69d44	3	1	main_slash	7	main_slash	11	stimuli_target_diamondsquares.svg	stimuli_distractor_trianglediamonds.svg	20	yes	53	1	813	0	0			0	0			1				0	
6.6.1	win	2023-06-26	23:40:20	23:45:18	294276	64139e0346c4b91651b69d44	3	1	main_slash	7	advance_on_keypress_SLASH	12	stimuli_target_diamondsquares.svg	stimuli_distractor_trianglediamonds.svg	20	yes	57	0	448	0	0			0	0			1				0	
6.6.1	win	2023-06-26	23:40:20	23:45:20	296363	64139e0346c4b91651b69d44	3	1	main_slash	7	main_slash	13	stimuli_distractor_diamondtriangles.svg	stimuli_target_trianglerectangles.svg	29	yes	53	1	983	0	0			0	0			1				0	
6.6.1	win	2023-06-26	23:40:20	23:45:20	296363	64139e0346c4b91651b69d44	3	1	main_slash	7	advance_on_keypress_SLASH	14	stimuli_distractor_diamondtriangles.svg	stimuli_target_trianglerectangles.svg	29	yes	57	0	488	0	0			0	0			1				0	
6.6.1	win	2023-06-26	23:40:20	23:45:22	298278	64139e0346c4b91651b69d44	3	1	main_slash	7	main_slash	15	stimuli_target_rectanglediamonds.svg	stimuli_distractor_trianglediamonds.svg	2	yes	53	1	781	0	0			0	0			1				0	
6.6.1	win	2023-06-26	23:40:20	23:45:22	298278	64139e0346c4b91651b69d44	3	1	main_slash	7	advance_on_keypress_SLASH	16	stimuli_target_rectanglediamonds.svg	stimuli_distractor_trianglediamonds.svg	2	yes	57	0	356	0	0			0	0			1				0	
6.6.1	win	2023-06-26	23:40:20	23:45:25	301279	64139e0346c4b91651b69d44	3	1	main_slash	7	main_slash	17	stimuli_distractor_trianglediamonds.svg	stimuli_distractor_diamondtriangles.svg	36	no	0	1	2000	0	0			0	0			1				0	
6.6.1	win	2023-06-26	23:40:20	23:45:25	301279	64139e0346c4b91651b69d44	3	1	main_slash	7	advance_on_keypress_SLASH	18	stimuli_distractor_trianglediamonds.svg	stimuli_distractor_diamondtriangles.svg	36	no	57	0	376	0	0			0	0			1				0	
6.6.1	win	2023-06-26	23:40:20	23:45:28	304296	64139e0346c4b91651b69d44	3	1	main_slash	7	main_slash	19	stimuli_distractor_diamondtriangles.svg	stimuli_distractor_diamondtriangles.svg	40	no	0	1	2000	0	0			0	0			1				0	
6.6.1	win	2023-06-26	23:40:20	23:45:28	304296	64139e0346c4b91651b69d44	3	1	main_slash	7	advance_on_keypress_SLASH	20	stimuli_distractor_diamondtriangles.svg	stimuli_distractor_diamondtriangles.svg	40	no	57	0	415	0	0			0	0			1				0	
6.6.1	win	2023-06-26	23:40:20	23:45:31	306511	64139e0346c4b91651b69d44	3	1	main_slash	7	main_slash	21	stimuli_target_rectanglediamonds.svg	stimuli_distractor_diamondtriangles.svg	6	yes	53	1	1149	0	0			0	0			1				0	
6.6.1	win	2023-06-26	23:40:20	23:45:31	306511	64139e0346c4b91651b69d44	3	1	main_slash	7	advance_on_keypress_SLASH	22	stimuli_target_rectanglediamonds.svg	stimuli_distractor_diamondtriangles.svg	6	yes	57	0	493	0	0			0	0			1				0	
6.6.1	win	2023-06-26	23:40:20	23:45:34	309662	64139e0346c4b91651b69d44	3	1	main_slash	7	main_slash	23	stimuli_distractor_diamondtriangles.svg	stimuli_target_squaretriangles.svg	15	yes	0	0	2000	0	0			0	0			1				0	
6.6.1	win	2023-06-26	23:40:20	23:45:34	309662	64139e0346c4b91651b69d44	3	1	main_slash	7	advance_on_keypress_SLASH	24	stimuli_distractor_diamondtriangles.svg	stimuli_target_squaretriangles.svg	15	yes	57	0	342	0	0			0	0			1				0	
6.6.1	win	2023-06-26	23:40:20	23:45:36	311434	64139e0346c4b91651b69d44	3	1	main_slash	7	main_slash	25	stimuli_target_squarediamonds.svg	stimuli_distractor_diamondtriangles.svg	8	yes	53	1	788	0	0			0	0			1				0	
6.6.1	win	2023-06-26	23:40:20	23:45:36	311434	64139e0346c4b91651b69d44	3	1	main_slash	7	advance_on_keypress_SLASH	26	stimuli_target_squarediamonds.svg	stimuli_distractor_diamondtriangles.svg	8	yes	57	0	390	0	0			0	0			1				0	
6.6.1	win	2023-06-26	23:40:20	23:45:39	314462	64139e0346c4b91651b69d44	3	1	main_slash	7	main_slash	27	stimuli_target_trianglesquares.svg	stimuli_distractor_trianglediamonds.svg	18	yes	0	0	2000	0	0			0	0			1				0	
6.6.1	win	2023-06-26	23:40:20	23:45:39	314462	64139e0346c4b91651b69d44	3	1	main_slash	7	advance_on_keypress_SLASH	28	stimuli_target_trianglesquares.svg	stimuli_distractor_trianglediamonds.svg	18	yes	57	0	311	0	0			0	0			1				0	
6.6.1	win	2023-06-26	23:40:20	23:45:40	316280	64139e0346c4b91651b69d44	3	1	main_slash	7	main_slash	29	stimuli_target_rectangletriangles.svg	stimuli_distractor_diamondtriangles.svg	5	yes	53	1	869	0	0			0	0			1				0	
6.6.1	win	2023-06-26	23:40:20	23:45:40	316280	64139e0346c4b91651b69d44	3	1	main_slash	7	advance_on_keypress_SLASH	30	stimuli_target_rectangletriangles.svg	stimuli_distractor_diamondtriangles.svg	5	yes	57	0	5573	0	0			0	0			1				0	
6.6.1	win	2023-06-26	23:40:20	23:45:47	323160	64139e0346c4b91651b69d44	3	1	main_slash	7	main_slash	31	stimuli_target_squaretriangles.svg	stimuli_distractor_diamondtriangles.svg	7	yes	53	1	665	0	0			0	0			1				0	
6.6.1	win	2023-06-26	23:40:20	23:45:47	323160	64139e0346c4b91651b69d44	3	1	main_slash	7	advance_on_keypress_SLASH	32	stimuli_target_squaretriangles.svg	stimuli_distractor_diamondtriangles.svg	7	yes	57	0	315	0	0			0	0			1				0	
6.6.1	win	2023-06-26	23:40:20	23:45:49	324532	64139e0346c4b91651b69d44	3	1	main_slash	7	main_slash	33	stimuli_distractor_trianglediamonds.svg	stimuli_target_rectanglediamonds.svg	10	yes	53	1	404	0	0			0	0			1				0	
6.6.1	win	2023-06-26	23:40:20	23:45:49	324532	64139e0346c4b91651b69d44	3	1	main_slash	7	advance_on_keypress_SLASH	34	stimuli_distractor_trianglediamonds.svg	stimuli_target_rectanglediamonds.svg	10	yes	57	0	362	0	0			0	0			1				0	
6.6.1	win	2023-06-26	23:40:20	23:45:51	326668	64139e0346c4b91651b69d44	3	1	main_slash	7	main_slash	35	stimuli_target_diamondrectangles.svg	stimuli_distractor_diamondtriangles.svg	23	yes	53	1	1141	0	0			0	0			1				0	
6.6.1	win	2023-06-26	23:40:20	23:45:51	326668	64139e0346c4b91651b69d44	3	1	main_slash	7	advance_on_keypress_SLASH	36	stimuli_target_diamondrectangles.svg	stimuli_distractor_diamondtriangles.svg	23	yes	57	0	441	0	0			0	0			1				0	
6.6.1	win	2023-06-26	23:40:20	23:45:54	329745	64139e0346c4b91651b69d44	3	1	main_slash	7	main_slash	37	stimuli_distractor_trianglediamonds.svg	stimuli_distractor_trianglediamonds.svg	34	no	0	1	2000	0	0			0	0			1				0	
6.6.1	win	2023-06-26	23:40:20	23:45:54	329745	64139e0346c4b91651b69d44	3	1	main_slash	7	advance_on_keypress_SLASH	38	stimuli_distractor_trianglediamonds.svg	stimuli_distractor_trianglediamonds.svg	34	no	57	0	479	0	0			0	0			1				0	
6.6.1	win	2023-06-26	23:40:20	23:45:56	331995	64139e0346c4b91651b69d44	3	1	main_slash	7	main_slash	39	stimuli_target_squaretriangles.svg	stimuli_distractor_trianglediamonds.svg	3	yes	53	1	1118	0	0			0	0			1				0	
6.6.1	win	2023-06-26	23:40:20	23:45:56	331995	64139e0346c4b91651b69d44	3	1	main_slash	7	advance_on_keypress_SLASH	40	stimuli_target_squaretriangles.svg	stimuli_distractor_trianglediamonds.svg	3	yes	57	0	3317	0	0			0	0			1				0	
6.6.1	win	2023-06-26	23:40:20	23:46:01	336884	64139e0346c4b91651b69d44	3	1	main_slash	7	main_slash	41	stimuli_target_trianglerectangles.svg	stimuli_distractor_diamondtriangles.svg	21	yes	53	1	922	0	0			0	0			1				0	
6.6.1	win	2023-06-26	23:40:20	23:46:01	336884	64139e0346c4b91651b69d44	3	1	main_slash	7	advance_on_keypress_SLASH	42	stimuli_target_trianglerectangles.svg	stimuli_distractor_diamondtriangles.svg	21	yes	57	0	402	0	0			0	0			1				0	
6.6.1	win	2023-06-26	23:40:20	23:46:04	339928	64139e0346c4b91651b69d44	3	1	main_slash	7	main_slash	43	stimuli_distractor_diamondtriangles.svg	stimuli_distractor_trianglediamonds.svg	38	no	0	1	2000	0	0			0	0			1				0	
6.6.1	win	2023-06-26	23:40:20	23:46:04	339928	64139e0346c4b91651b69d44	3	1	main_slash	7	advance_on_keypress_SLASH	44	stimuli_distractor_diamondtriangles.svg	stimuli_distractor_trianglediamonds.svg	38	no	57	0	346	0	0			0	0			1				0	
6.6.1	win	2023-06-26	23:40:20	23:46:07	342927	64139e0346c4b91651b69d44	3	1	main_slash	7	main_slash	45	stimuli_distractor_trianglediamonds.svg	stimuli_target_trianglerectangles.svg	25	yes	0	0	2000	0	0			0	0			1				0	
6.6.1	win	2023-06-26	23:40:20	23:46:07	342927	64139e0346c4b91651b69d44	3	1	main_slash	7	advance_on_keypress_SLASH	46	stimuli_distractor_trianglediamonds.svg	stimuli_target_trianglerectangles.svg	25	yes	57	0	291	0	0			0	0			1				0	
6.6.1	win	2023-06-26	23:40:20	23:46:09	344587	64139e0346c4b91651b69d44	3	1	main_slash	7	main_slash	47	stimuli_target_trianglerectangles.svg	stimuli_distractor_trianglediamonds.svg	17	yes	53	1	727	0	0			0	0			1				0	
6.6.1	win	2023-06-26	23:40:20	23:46:09	344587	64139e0346c4b91651b69d44	3	1	main_slash	7	advance_on_keypress_SLASH	48	stimuli_target_trianglerectangles.svg	stimuli_distractor_trianglediamonds.svg	17	yes	57	0	278	0	0			0	0			1				0	
6.6.1	win	2023-06-26	23:40:20	23:46:12	347494	64139e0346c4b91651b69d44	3	1	main_slash	7	main_slash	49	stimuli_distractor_trianglediamonds.svg	stimuli_distractor_trianglediamonds.svg	33	no	0	1	2000	0	0			0	0			1				0	
6.6.1	win	2023-06-26	23:40:20	23:46:12	347494	64139e0346c4b91651b69d44	3	1	main_slash	7	advance_on_keypress_SLASH	50	stimuli_distractor_trianglediamonds.svg	stimuli_distractor_trianglediamonds.svg	33	no	57	0	299	0	0			0	0			1				0	
6.6.1	win	2023-06-26	23:40:20	23:46:13	349135	64139e0346c4b91651b69d44	3	1	main_slash	7	main_slash	51	stimuli_distractor_diamondtriangles.svg	stimuli_target_squarediamonds.svg	16	yes	53	1	692	0	0			0	0			1				0	
6.6.1	win	2023-06-26	23:40:20	23:46:13	349135	64139e0346c4b91651b69d44	3	1	main_slash	7	advance_on_keypress_SLASH	52	stimuli_distractor_diamondtriangles.svg	stimuli_target_squarediamonds.svg	16	yes	57	0	318	0	0			0	0			1				0	
6.6.1	win	2023-06-26	23:40:20	23:46:16	352077	64139e0346c4b91651b69d44	3	1	main_slash	7	main_slash	53	stimuli_distractor_diamondtriangles.svg	stimuli_target_trianglesquares.svg	30	yes	53	1	1984	0	0			0	0			1				0	
6.6.1	win	2023-06-26	23:40:20	23:46:16	352077	64139e0346c4b91651b69d44	3	1	main_slash	7	advance_on_keypress_SLASH	54	stimuli_distractor_diamondtriangles.svg	stimuli_target_trianglesquares.svg	30	yes	57	0	445	0	0			0	0			1				0	
6.6.1	win	2023-06-26	23:40:20	23:46:19	355160	64139e0346c4b91651b69d44	3	1	main_slash	7	main_slash	55	stimuli_distractor_diamondtriangles.svg	stimuli_target_diamondrectangles.svg	31	yes	0	0	2000	0	0			0	0			1				0	
6.6.1	win	2023-06-26	23:40:20	23:46:19	355160	64139e0346c4b91651b69d44	3	1	main_slash	7	advance_on_keypress_SLASH	56	stimuli_distractor_diamondtriangles.svg	stimuli_target_diamondrectangles.svg	31	yes	57	0	549	0	0			0	0			1				0	
6.6.1	win	2023-06-26	23:40:20	23:46:21	356967	64139e0346c4b91651b69d44	3	1	main_slash	7	main_slash	57	stimuli_distractor_trianglediamonds.svg	stimuli_target_squaretriangles.svg	11	yes	53	1	606	0	0			0	0			1				0	
6.6.1	win	2023-06-26	23:40:20	23:46:21	356967	64139e0346c4b91651b69d44	3	1	main_slash	7	advance_on_keypress_SLASH	58	stimuli_distractor_trianglediamonds.svg	stimuli_target_squaretriangles.svg	11	yes	57	0	338	0	0			0	0			1				0	
6.6.1	win	2023-06-26	23:40:20	23:46:23	358920	64139e0346c4b91651b69d44	3	1	main_slash	7	main_slash	59	stimuli_target_diamondrectangles.svg	stimuli_distractor_trianglediamonds.svg	19	yes	53	1	976	0	0			0	0			1				0	
6.6.1	win	2023-06-26	23:40:20	23:46:23	358920	64139e0346c4b91651b69d44	3	1	main_slash	7	advance_on_keypress_SLASH	60	stimuli_target_diamondrectangles.svg	stimuli_distractor_trianglediamonds.svg	19	yes	57	0	378	0	0			0	0			1				0	
6.6.1	win	2023-06-26	23:40:20	23:46:26	361927	64139e0346c4b91651b69d44	3	1	main_slash	7	main_slash	61	stimuli_distractor_diamondtriangles.svg	stimuli_target_rectanglediamonds.svg	14	yes	0	0	2000	0	0			0	0			1				0	
6.6.1	win	2023-06-26	23:40:20	23:46:26	361927	64139e0346c4b91651b69d44	3	1	main_slash	7	advance_on_keypress_SLASH	62	stimuli_distractor_diamondtriangles.svg	stimuli_target_rectanglediamonds.svg	14	yes	57	0	438	0	0			0	0			1				0	
6.6.1	win	2023-06-26	23:40:20	23:46:29	364435	64139e0346c4b91651b69d44	3	1	main_slash	7	main_slash	63	stimuli_target_diamondsquares.svg	stimuli_distractor_diamondtriangles.svg	24	yes	53	1	1426	0	0			0	0			1				0	
6.6.1	win	2023-06-26	23:40:20	23:46:29	364435	64139e0346c4b91651b69d44	3	1	main_slash	7	advance_on_keypress_SLASH	64	stimuli_target_diamondsquares.svg	stimuli_distractor_diamondtriangles.svg	24	yes	57	0	339	0	0			0	0			1				0	
6.6.1	win	2023-06-26	23:40:20	23:46:31	367006	64139e0346c4b91651b69d44	3	1	main_slash	7	main_slash	65	stimuli_distractor_diamondtriangles.svg	stimuli_target_diamondsquares.svg	32	yes	53	1	1597	0	0			0	0			1				0	
6.6.1	win	2023-06-26	23:40:20	23:46:31	367006	64139e0346c4b91651b69d44	3	1	main_slash	7	advance_on_keypress_SLASH	66	stimuli_distractor_diamondtriangles.svg	stimuli_target_diamondsquares.svg	32	yes	57	0	481	0	0			0	0			1				0	
6.6.1	win	2023-06-26	23:40:20	23:46:34	370143	64139e0346c4b91651b69d44	3	1	main_slash	7	main_slash	67	stimuli_distractor_diamondtriangles.svg	stimuli_distractor_diamondtriangles.svg	39	no	0	1	2000	0	0			0	0			1				0	
6.6.1	win	2023-06-26	23:40:20	23:46:34	370143	64139e0346c4b91651b69d44	3	1	main_slash	7	advance_on_keypress_SLASH	68	stimuli_distractor_diamondtriangles.svg	stimuli_distractor_diamondtriangles.svg	39	no	57	0	298	0	0			0	0			1				0	
6.6.1	win	2023-06-26	23:40:20	23:46:36	371641	64139e0346c4b91651b69d44	3	1	main_slash	7	main_slash	69	stimuli_distractor_trianglediamonds.svg	stimuli_target_squarediamonds.svg	12	yes	53	1	549	0	0			0	0			1				0	
6.6.1	win	2023-06-26	23:40:20	23:46:36	371641	64139e0346c4b91651b69d44	3	1	main_slash	7	advance_on_keypress_SLASH	70	stimuli_distractor_trianglediamonds.svg	stimuli_target_squarediamonds.svg	12	yes	57	0	334	0	0			0	0			1				0	
6.6.1	win	2023-06-26	23:40:20	23:46:38	374080	64139e0346c4b91651b69d44	3	1	main_slash	7	main_slash	71	stimuli_target_trianglesquares.svg	stimuli_distractor_diamondtriangles.svg	22	yes	53	1	1453	0	0			0	0			1				0	
6.6.1	win	2023-06-26	23:40:20	23:46:38	374080	64139e0346c4b91651b69d44	3	1	main_slash	7	advance_on_keypress_SLASH	72	stimuli_target_trianglesquares.svg	stimuli_distractor_diamondtriangles.svg	22	yes	57	0	375	0	0			0	0			1				0	
6.6.1	win	2023-06-26	23:40:20	23:46:41	377092	64139e0346c4b91651b69d44	3	1	main_slash	7	main_slash	73	stimuli_distractor_diamondtriangles.svg	stimuli_distractor_trianglediamonds.svg	37	no	0	1	2000	0	0			0	0			1				0	
6.6.1	win	2023-06-26	23:40:20	23:46:41	377092	64139e0346c4b91651b69d44	3	1	main_slash	7	advance_on_keypress_SLASH	74	stimuli_distractor_diamondtriangles.svg	stimuli_distractor_trianglediamonds.svg	37	no	57	0	372	0	0			0	0			1				0	
6.6.1	win	2023-06-26	23:40:20	23:46:43	379019	64139e0346c4b91651b69d44	3	1	main_slash	7	main_slash	75	stimuli_distractor_trianglediamonds.svg	stimuli_target_diamondsquares.svg	28	yes	53	1	909	0	0			0	0			1				0	
6.6.1	win	2023-06-26	23:40:20	23:46:43	379019	64139e0346c4b91651b69d44	3	1	main_slash	7	advance_on_keypress_SLASH	76	stimuli_distractor_trianglediamonds.svg	stimuli_target_diamondsquares.svg	28	yes	57	0	323	0	0			0	0			1				0	
6.6.1	win	2023-06-26	23:40:20	23:46:46	381976	64139e0346c4b91651b69d44	3	1	main_slash	7	main_slash	77	stimuli_distractor_trianglediamonds.svg	stimuli_target_diamondrectangles.svg	27	yes	0	0	2000	0	0			0	0			1				0	
6.6.1	win	2023-06-26	23:40:20	23:46:46	381976	64139e0346c4b91651b69d44	3	1	main_slash	7	advance_on_keypress_SLASH	78	stimuli_distractor_trianglediamonds.svg	stimuli_target_diamondrectangles.svg	27	yes	57	0	326	0	0			0	0			1				0	
6.6.1	win	2023-06-26	23:40:20	23:46:48	383530	64139e0346c4b91651b69d44	3	1	main_slash	7	main_slash	79	stimuli_distractor_trianglediamonds.svg	stimuli_target_rectangletriangles.svg	9	yes	53	1	589	0	0			0	0			1				0	
6.6.1	win	2023-06-26	23:40:20	23:46:48	383530	64139e0346c4b91651b69d44	3	1	main_slash	7	advance_on_keypress_SLASH	80	stimuli_distractor_trianglediamonds.svg	stimuli_target_rectangletriangles.svg	9	yes	57	0	341	0	0			0	0			1				0	
6.6.1	win	2023-06-26	23:40:20	23:46:51	386509	64139e0346c4b91651b69d44	3	1	main_slash	7	main_slash	81	stimuli_distractor_trianglediamonds.svg	stimuli_distractor_trianglediamonds.svg	33	no	0	1	2000	0	0			0	0			1				0	
6.6.1	win	2023-06-26	23:40:20	23:46:51	386509	64139e0346c4b91651b69d44	3	1	main_slash	7	advance_on_keypress_SLASH	82	stimuli_distractor_trianglediamonds.svg	stimuli_distractor_trianglediamonds.svg	33	no	57	0	354	0	0			0	0			1				0	
6.6.1	win	2023-06-26	23:40:20	23:46:52	388323	64139e0346c4b91651b69d44	3	1	main_slash	7	main_slash	83	stimuli_distractor_diamondtriangles.svg	stimuli_target_diamondsquares.svg	32	yes	53	1	814	0	0			0	0			1				0	
6.6.1	win	2023-06-26	23:40:20	23:46:52	388323	64139e0346c4b91651b69d44	3	1	main_slash	7	advance_on_keypress_SLASH	84	stimuli_distractor_diamondtriangles.svg	stimuli_target_diamondsquares.svg	32	yes	57	0	450	0	0			0	0			1				0	
6.6.1	win	2023-06-26	23:40:20	23:46:56	391425	64139e0346c4b91651b69d44	3	1	main_slash	7	main_slash	85	stimuli_distractor_diamondtriangles.svg	stimuli_target_diamondrectangles.svg	31	yes	0	0	2000	0	0			0	0			1				0	
6.6.1	win	2023-06-26	23:40:20	23:46:56	391425	64139e0346c4b91651b69d44	3	1	main_slash	7	advance_on_keypress_SLASH	86	stimuli_distractor_diamondtriangles.svg	stimuli_target_diamondrectangles.svg	31	yes	57	0	297	0	0			0	0			1				0	
6.6.1	win	2023-06-26	23:40:20	23:46:59	394375	64139e0346c4b91651b69d44	3	1	main_slash	7	main_slash	87	stimuli_distractor_trianglediamonds.svg	stimuli_distractor_diamondtriangles.svg	35	no	0	1	2000	0	0			0	0			1				0	
6.6.1	win	2023-06-26	23:40:20	23:46:59	394375	64139e0346c4b91651b69d44	3	1	main_slash	7	advance_on_keypress_SLASH	88	stimuli_distractor_trianglediamonds.svg	stimuli_distractor_diamondtriangles.svg	35	no	57	0	915	0	0			0	0			1				0	
6.6.1	win	2023-06-26	23:40:20	23:47:02	397941	64139e0346c4b91651b69d44	3	1	main_slash	7	main_slash	89	stimuli_target_diamondrectangles.svg	stimuli_distractor_trianglediamonds.svg	19	yes	0	0	2000	0	0			0	0			1				0	
6.6.1	win	2023-06-26	23:40:20	23:47:02	397941	64139e0346c4b91651b69d44	3	1	main_slash	7	advance_on_keypress_SLASH	90	stimuli_target_diamondrectangles.svg	stimuli_distractor_trianglediamonds.svg	19	yes	57	0	290	0	0			0	0			1				0	
6.6.1	win	2023-06-26	23:40:20	23:47:04	399820	64139e0346c4b91651b69d44	3	1	main_slash	7	main_slash	91	stimuli_target_trianglerectangles.svg	stimuli_distractor_diamondtriangles.svg	21	yes	53	1	945	0	0			0	0			1				0	
6.6.1	win	2023-06-26	23:40:20	23:47:04	399820	64139e0346c4b91651b69d44	3	1	main_slash	7	advance_on_keypress_SLASH	92	stimuli_target_trianglerectangles.svg	stimuli_distractor_diamondtriangles.svg	21	yes	57	0	494	0	0			0	0			1				0	
6.6.1	win	2023-06-26	23:40:20	23:47:07	402941	64139e0346c4b91651b69d44	3	1	main_slash	7	main_slash	93	stimuli_target_rectanglediamonds.svg	stimuli_distractor_diamondtriangles.svg	6	yes	0	0	2000	0	0			0	0			1				0	
6.6.1	win	2023-06-26	23:40:20	23:47:07	402941	64139e0346c4b91651b69d44	3	1	main_slash	7	advance_on_keypress_SLASH	94	stimuli_target_rectanglediamonds.svg	stimuli_distractor_diamondtriangles.svg	6	yes	57	0	442	0	0			0	0			1				0	
6.6.1	win	2023-06-26	23:40:20	23:47:09	404854	64139e0346c4b91651b69d44	3	1	main_slash	7	main_slash	95	stimuli_target_trianglesquares.svg	stimuli_distractor_trianglediamonds.svg	18	yes	53	1	830	0	0			0	0			1				0	
6.6.1	win	2023-06-26	23:40:20	23:47:09	404854	64139e0346c4b91651b69d44	3	1	main_slash	7	advance_on_keypress_SLASH	96	stimuli_target_trianglesquares.svg	stimuli_distractor_trianglediamonds.svg	18	yes	57	0	431	0	0			0	0			1				0	
6.6.1	win	2023-06-26	23:40:20	23:47:11	406600	64139e0346c4b91651b69d44	3	1	main_slash	7	main_slash	97	stimuli_target_trianglerectangles.svg	stimuli_distractor_trianglediamonds.svg	17	yes	53	1	658	0	0			0	0			1				0	
6.6.1	win	2023-06-26	23:40:20	23:47:11	406600	64139e0346c4b91651b69d44	3	1	main_slash	7	advance_on_keypress_SLASH	98	stimuli_target_trianglerectangles.svg	stimuli_distractor_trianglediamonds.svg	17	yes	57	0	345	0	0			0	0			1				0	
6.6.1	win	2023-06-26	23:40:20	23:47:12	408010	64139e0346c4b91651b69d44	3	1	main_slash	7	main_slash	99	stimuli_target_squarediamonds.svg	stimuli_distractor_trianglediamonds.svg	4	yes	53	1	435	0	0			0	0			1				0	
6.6.1	win	2023-06-26	23:40:20	23:47:12	408010	64139e0346c4b91651b69d44	3	1	main_slash	7	advance_on_keypress_SLASH	100	stimuli_target_squarediamonds.svg	stimuli_distractor_trianglediamonds.svg	4	yes	57	0	837	0	0			0	0			1				0	
6.6.1	win	2023-06-26	23:40:20	23:47:14	410298	64139e0346c4b91651b69d44	3	1	main_slash	7	main_slash	101	stimuli_distractor_diamondtriangles.svg	stimuli_target_rectangletriangles.svg	13	yes	53	1	808	0	0			0	0			1				0	
6.6.1	win	2023-06-26	23:40:20	23:47:14	410298	64139e0346c4b91651b69d44	3	1	main_slash	7	advance_on_keypress_SLASH	102	stimuli_distractor_diamondtriangles.svg	stimuli_target_rectangletriangles.svg	13	yes	57	0	638	0	0			0	0			1				0	
6.6.1	win	2023-06-26	23:40:20	23:47:18	413574	64139e0346c4b91651b69d44	3	1	main_slash	7	main_slash	103	stimuli_target_diamondrectangles.svg	stimuli_distractor_diamondtriangles.svg	23	yes	0	0	2000	0	0			0	0			1				0	
6.6.1	win	2023-06-26	23:40:20	23:47:18	413574	64139e0346c4b91651b69d44	3	1	main_slash	7	advance_on_keypress_SLASH	104	stimuli_target_diamondrectangles.svg	stimuli_distractor_diamondtriangles.svg	23	yes	57	0	6465	0	0			0	0			1				0	
6.6.1	win	2023-06-26	23:40:20	23:47:26	422089	64139e0346c4b91651b69d44	3	1	main_slash	7	main_slash	105	stimuli_target_squaretriangles.svg	stimuli_distractor_trianglediamonds.svg	3	yes	53	1	1398	0	0			0	0			1				0	
6.6.1	win	2023-06-26	23:40:20	23:47:26	422089	64139e0346c4b91651b69d44	3	1	main_slash	7	advance_on_keypress_SLASH	106	stimuli_target_squaretriangles.svg	stimuli_distractor_trianglediamonds.svg	3	yes	57	0	452	0	0			0	0			1				0	
6.6.1	win	2023-06-26	23:40:20	23:47:29	424541	64139e0346c4b91651b69d44	3	1	main_slash	7	main_slash	107	stimuli_distractor_trianglediamonds.svg	stimuli_target_trianglerectangles.svg	25	yes	53	1	1350	0	0			0	0			1				0	
6.6.1	win	2023-06-26	23:40:20	23:47:29	424541	64139e0346c4b91651b69d44	3	1	main_slash	7	advance_on_keypress_SLASH	108	stimuli_distractor_trianglediamonds.svg	stimuli_target_trianglerectangles.svg	25	yes	57	0	369	0	0			0	0			1				0	
6.6.1	win	2023-06-26	23:40:20	23:47:32	427557	64139e0346c4b91651b69d44	3	1	main_slash	7	main_slash	109	stimuli_distractor_diamondtriangles.svg	stimuli_target_trianglesquares.svg	30	yes	0	0	2000	0	0			0	0			1				0	
6.6.1	win	2023-06-26	23:40:20	23:47:32	427557	64139e0346c4b91651b69d44	3	1	main_slash	7	advance_on_keypress_SLASH	110	stimuli_distractor_diamondtriangles.svg	stimuli_target_trianglesquares.svg	30	yes	57	0	434	0	0			0	0			1				0	
6.6.1	win	2023-06-26	23:40:20	23:47:35	430640	64139e0346c4b91651b69d44	3	1	main_slash	7	main_slash	111	stimuli_distractor_trianglediamonds.svg	stimuli_distractor_diamondtriangles.svg	36	no	0	1	2000	0	0			0	0			1				0	
6.6.1	win	2023-06-26	23:40:20	23:47:35	430640	64139e0346c4b91651b69d44	3	1	main_slash	7	advance_on_keypress_SLASH	112	stimuli_distractor_trianglediamonds.svg	stimuli_distractor_diamondtriangles.svg	36	no	57	0	313	0	0			0	0			1				0	
6.6.1	win	2023-06-26	23:40:20	23:47:36	432073	64139e0346c4b91651b69d44	3	1	main_slash	7	main_slash	113	stimuli_distractor_trianglediamonds.svg	stimuli_target_rectangletriangles.svg	9	yes	53	1	466	0	0			0	0			1				0	
6.6.1	win	2023-06-26	23:40:20	23:47:36	432073	64139e0346c4b91651b69d44	3	1	main_slash	7	advance_on_keypress_SLASH	114	stimuli_distractor_trianglediamonds.svg	stimuli_target_rectangletriangles.svg	9	yes	57	0	354	0	0			0	0			1				0	
6.6.1	win	2023-06-26	23:40:20	23:47:38	433605	64139e0346c4b91651b69d44	3	1	main_slash	7	main_slash	115	stimuli_distractor_trianglediamonds.svg	stimuli_target_squarediamonds.svg	12	yes	53	1	531	0	0			0	0			1				0	
6.6.1	win	2023-06-26	23:40:20	23:47:38	433605	64139e0346c4b91651b69d44	3	1	main_slash	7	advance_on_keypress_SLASH	116	stimuli_distractor_trianglediamonds.svg	stimuli_target_squarediamonds.svg	12	yes	57	0	328	0	0			0	0			1				0	
6.6.1	win	2023-06-26	23:40:20	23:47:39	435043	64139e0346c4b91651b69d44	3	1	main_slash	7	main_slash	117	stimuli_target_rectangletriangles.svg	stimuli_distractor_diamondtriangles.svg	5	yes	53	1	470	0	0			0	0			1				0	
6.6.1	win	2023-06-26	23:40:20	23:47:39	435043	64139e0346c4b91651b69d44	3	1	main_slash	7	advance_on_keypress_SLASH	118	stimuli_target_rectangletriangles.svg	stimuli_distractor_diamondtriangles.svg	5	yes	57	0	343	0	0			0	0			1				0	
6.6.1	win	2023-06-26	23:40:20	23:47:41	436383	64139e0346c4b91651b69d44	3	1	main_slash	7	main_slash	119	stimuli_target_rectanglediamonds.svg	stimuli_distractor_trianglediamonds.svg	2	yes	53	1	359	0	0			0	0			1				0	
6.6.1	win	2023-06-26	23:40:20	23:47:41	436383	64139e0346c4b91651b69d44	3	1	main_slash	7	advance_on_keypress_SLASH	120	stimuli_target_rectanglediamonds.svg	stimuli_distractor_trianglediamonds.svg	2	yes	57	0	296	0	0			0	0			1				0	
6.6.1	win	2023-06-26	23:40:20	23:47:43	439323	64139e0346c4b91651b69d44	3	1	main_slash	7	main_slash	121	stimuli_target_diamondsquares.svg	stimuli_distractor_diamondtriangles.svg	24	yes	0	0	2000	0	0			0	0			1				0	
6.6.1	win	2023-06-26	23:40:20	23:47:43	439323	64139e0346c4b91651b69d44	3	1	main_slash	7	advance_on_keypress_SLASH	122	stimuli_target_diamondsquares.svg	stimuli_distractor_diamondtriangles.svg	24	yes	57	0	396	0	0			0	0			1				0	
6.6.1	win	2023-06-26	23:40:20	23:47:47	442373	64139e0346c4b91651b69d44	3	1	main_slash	7	main_slash	123	stimuli_distractor_diamondtriangles.svg	stimuli_distractor_diamondtriangles.svg	39	no	0	1	2000	0	0			0	0			1				0	
6.6.1	win	2023-06-26	23:40:20	23:47:47	442373	64139e0346c4b91651b69d44	3	1	main_slash	7	advance_on_keypress_SLASH	124	stimuli_distractor_diamondtriangles.svg	stimuli_distractor_diamondtriangles.svg	39	no	57	0	318	0	0			0	0			1				0	
6.6.1	win	2023-06-26	23:40:20	23:47:48	443824	64139e0346c4b91651b69d44	3	1	main_slash	7	main_slash	125	stimuli_distractor_diamondtriangles.svg	stimuli_target_squarediamonds.svg	16	yes	53	1	485	0	0			0	0			1				0	
6.6.1	win	2023-06-26	23:40:20	23:47:48	443824	64139e0346c4b91651b69d44	3	1	main_slash	7	advance_on_keypress_SLASH	126	stimuli_distractor_diamondtriangles.svg	stimuli_target_squarediamonds.svg	16	yes	57	0	299	0	0			0	0			1				0	
6.6.1	win	2023-06-26	23:40:20	23:47:51	446773	64139e0346c4b91651b69d44	3	1	main_slash	7	main_slash	127	stimuli_distractor_diamondtriangles.svg	stimuli_distractor_trianglediamonds.svg	37	no	0	1	2000	0	0			0	0			1				0	
6.6.1	win	2023-06-26	23:40:20	23:47:51	446773	64139e0346c4b91651b69d44	3	1	main_slash	7	advance_on_keypress_SLASH	128	stimuli_distractor_diamondtriangles.svg	stimuli_distractor_trianglediamonds.svg	37	no	57	0	306	0	0			0	0			1				0	
6.6.1	win	2023-06-26	23:40:20	23:47:52	448107	64139e0346c4b91651b69d44	3	1	main_slash	7	main_slash	129	stimuli_target_rectangletriangles.svg	stimuli_distractor_trianglediamonds.svg	1	yes	53	1	385	0	0			0	0			1				0	
6.6.1	win	2023-06-26	23:40:20	23:47:52	448107	64139e0346c4b91651b69d44	3	1	main_slash	7	advance_on_keypress_SLASH	130	stimuli_target_rectangletriangles.svg	stimuli_distractor_trianglediamonds.svg	1	yes	57	0	337	0	0			0	0			1				0	
6.6.1	win	2023-06-26	23:40:20	23:47:54	449575	64139e0346c4b91651b69d44	3	1	main_slash	7	main_slash	131	stimuli_distractor_trianglediamonds.svg	stimuli_target_rectanglediamonds.svg	10	yes	53	1	486	0	0			0	0			1				0	
6.6.1	win	2023-06-26	23:40:20	23:47:54	449575	64139e0346c4b91651b69d44	3	1	main_slash	7	advance_on_keypress_SLASH	132	stimuli_distractor_trianglediamonds.svg	stimuli_target_rectanglediamonds.svg	10	yes	57	0	344	0	0			0	0			1				0	
6.6.1	win	2023-06-26	23:40:20	23:47:57	452556	64139e0346c4b91651b69d44	3	1	main_slash	7	main_slash	133	stimuli_distractor_diamondtriangles.svg	stimuli_distractor_trianglediamonds.svg	38	no	0	1	2000	0	0			0	0			1				0	
6.6.1	win	2023-06-26	23:40:20	23:47:57	452556	64139e0346c4b91651b69d44	3	1	main_slash	7	advance_on_keypress_SLASH	134	stimuli_distractor_diamondtriangles.svg	stimuli_distractor_trianglediamonds.svg	38	no	57	0	1911	0	0			0	0			1				0	
6.6.1	win	2023-06-26	23:40:20	23:48:00	455557	64139e0346c4b91651b69d44	3	1	main_slash	7	main_slash	135	stimuli_distractor_trianglediamonds.svg	stimuli_target_squaretriangles.svg	11	yes	53	1	452	0	0			0	0			1				0	
6.6.1	win	2023-06-26	23:40:20	23:48:00	455557	64139e0346c4b91651b69d44	3	1	main_slash	7	advance_on_keypress_SLASH	136	stimuli_distractor_trianglediamonds.svg	stimuli_target_squaretriangles.svg	11	yes	57	0	349	0	0			0	0			1				0	
6.6.1	win	2023-06-26	23:40:20	23:48:03	458555	64139e0346c4b91651b69d44	3	1	main_slash	7	main_slash	137	stimuli_distractor_diamondtriangles.svg	stimuli_target_trianglerectangles.svg	29	yes	0	0	2000	0	0			0	0			1				0	
6.6.1	win	2023-06-26	23:40:20	23:48:03	458555	64139e0346c4b91651b69d44	3	1	main_slash	7	advance_on_keypress_SLASH	138	stimuli_distractor_diamondtriangles.svg	stimuli_target_trianglerectangles.svg	29	yes	57	0	275	0	0			0	0			1				0	
6.6.1	win	2023-06-26	23:40:20	23:48:04	460221	64139e0346c4b91651b69d44	3	1	main_slash	7	main_slash	139	stimuli_target_diamondsquares.svg	stimuli_distractor_trianglediamonds.svg	20	yes	53	1	750	0	0			0	0			1				0	
6.6.1	win	2023-06-26	23:40:20	23:48:04	460221	64139e0346c4b91651b69d44	3	1	main_slash	7	advance_on_keypress_SLASH	140	stimuli_target_diamondsquares.svg	stimuli_distractor_trianglediamonds.svg	20	yes	57	0	297	0	0			0	0			1				0	
6.6.1	win	2023-06-26	23:40:20	23:48:06	462029	64139e0346c4b91651b69d44	3	1	main_slash	7	main_slash	141	stimuli_distractor_trianglediamonds.svg	stimuli_target_diamondrectangles.svg	27	yes	53	1	858	0	0			0	0			1				0	
6.6.1	win	2023-06-26	23:40:20	23:48:06	462029	64139e0346c4b91651b69d44	3	1	main_slash	7	advance_on_keypress_SLASH	142	stimuli_distractor_trianglediamonds.svg	stimuli_target_diamondrectangles.svg	27	yes	57	0	290	0	0			0	0			1				0	
6.6.1	win	2023-06-26	23:40:20	23:48:09	464955	64139e0346c4b91651b69d44	3	1	main_slash	7	main_slash	143	stimuli_distractor_trianglediamonds.svg	stimuli_distractor_trianglediamonds.svg	34	no	0	1	2000	0	0			0	0			1				0	
6.6.1	win	2023-06-26	23:40:20	23:48:09	464955	64139e0346c4b91651b69d44	3	1	main_slash	7	advance_on_keypress_SLASH	144	stimuli_distractor_trianglediamonds.svg	stimuli_distractor_trianglediamonds.svg	34	no	57	0	266	0	0			0	0			1				0	
6.6.1	win	2023-06-26	23:40:20	23:48:12	467872	64139e0346c4b91651b69d44	3	1	main_slash	7	main_slash	145	stimuli_distractor_trianglediamonds.svg	stimuli_target_trianglesquares.svg	26	yes	0	0	2000	0	0			0	0			1				0	
6.6.1	win	2023-06-26	23:40:20	23:48:12	467872	64139e0346c4b91651b69d44	3	1	main_slash	7	advance_on_keypress_SLASH	146	stimuli_distractor_trianglediamonds.svg	stimuli_target_trianglesquares.svg	26	yes	57	0	353	0	0			0	0			1				0	
6.6.1	win	2023-06-26	23:40:20	23:48:14	469518	64139e0346c4b91651b69d44	3	1	main_slash	7	main_slash	147	stimuli_target_squaretriangles.svg	stimuli_distractor_diamondtriangles.svg	7	yes	53	1	646	0	0			0	0			1				0	
6.6.1	win	2023-06-26	23:40:20	23:48:14	469518	64139e0346c4b91651b69d44	3	1	main_slash	7	advance_on_keypress_SLASH	148	stimuli_target_squaretriangles.svg	stimuli_distractor_diamondtriangles.svg	7	yes	57	0	339	0	0			0	0			1				0	
6.6.1	win	2023-06-26	23:40:20	23:48:16	471550	64139e0346c4b91651b69d44	3	1	main_slash	7	main_slash	149	stimuli_distractor_trianglediamonds.svg	stimuli_target_diamondsquares.svg	28	yes	53	1	1046	0	0			0	0			1				0	
6.6.1	win	2023-06-26	23:40:20	23:48:16	471550	64139e0346c4b91651b69d44	3	1	main_slash	7	advance_on_keypress_SLASH	150	stimuli_distractor_trianglediamonds.svg	stimuli_target_diamondsquares.svg	28	yes	57	0	597	0	0			0	0			1				0	
6.6.1	win	2023-06-26	23:40:20	23:48:19	474805	64139e0346c4b91651b69d44	3	1	main_slash	7	main_slash	151	stimuli_distractor_diamondtriangles.svg	stimuli_distractor_diamondtriangles.svg	40	no	0	1	2000	0	0			0	0			1				0	
6.6.1	win	2023-06-26	23:40:20	23:48:19	474805	64139e0346c4b91651b69d44	3	1	main_slash	7	advance_on_keypress_SLASH	152	stimuli_distractor_diamondtriangles.svg	stimuli_distractor_diamondtriangles.svg	40	no	57	0	346	0	0			0	0			1				0	
6.6.1	win	2023-06-26	23:40:20	23:48:21	476388	64139e0346c4b91651b69d44	3	1	main_slash	7	main_slash	153	stimuli_distractor_diamondtriangles.svg	stimuli_target_rectanglediamonds.svg	14	yes	53	1	601	0	0			0	0			1				0	
6.6.1	win	2023-06-26	23:40:20	23:48:21	476388	64139e0346c4b91651b69d44	3	1	main_slash	7	advance_on_keypress_SLASH	154	stimuli_distractor_diamondtriangles.svg	stimuli_target_rectanglediamonds.svg	14	yes	57	0	290	0	0			0	0			1				0	
6.6.1	win	2023-06-26	23:40:20	23:48:22	478103	64139e0346c4b91651b69d44	3	1	main_slash	7	main_slash	155	stimuli_distractor_diamondtriangles.svg	stimuli_target_squaretriangles.svg	15	yes	53	1	781	0	0			0	0			1				0	
6.6.1	win	2023-06-26	23:40:20	23:48:22	478103	64139e0346c4b91651b69d44	3	1	main_slash	7	advance_on_keypress_SLASH	156	stimuli_distractor_diamondtriangles.svg	stimuli_target_squaretriangles.svg	15	yes	57	0	455	0	0			0	0			1				0	
6.6.1	win	2023-06-26	23:40:20	23:48:24	479972	64139e0346c4b91651b69d44	3	1	main_slash	7	main_slash	157	stimuli_target_squarediamonds.svg	stimuli_distractor_diamondtriangles.svg	8	yes	53	1	767	0	0			0	0			1				0	
6.6.1	win	2023-06-26	23:40:20	23:48:24	479972	64139e0346c4b91651b69d44	3	1	main_slash	7	advance_on_keypress_SLASH	158	stimuli_target_squarediamonds.svg	stimuli_distractor_diamondtriangles.svg	8	yes	57	0	671	0	0			0	0			1				0	
6.6.1	win	2023-06-26	23:40:20	23:48:27	483288	64139e0346c4b91651b69d44	3	1	main_slash	7	main_slash	159	stimuli_target_trianglesquares.svg	stimuli_distractor_diamondtriangles.svg	22	yes	0	0	2000	0	0			0	0			1				0	
6.6.1	win	2023-06-26	23:40:20	23:48:27	483288	64139e0346c4b91651b69d44	3	1	main_slash	7	advance_on_keypress_SLASH	160	stimuli_target_trianglesquares.svg	stimuli_distractor_diamondtriangles.svg	22	yes	57	0	568	0	0			0	0			1				0	
6.6.1	win	2023-06-26	23:40:20	23:48:58	513472	64139e0346c4b91651b69d44	3	1	practice_z	9	practice_z	1	stimuli_distractor_diamondtriangles.svg	stimuli_distractor_diamondtriangles.svg	13	no	0	1	2000	0	0			0	0			1				0	
6.6.1	win	2023-06-26	23:40:20	23:48:58	513472	64139e0346c4b91651b69d44	3	1	practice_z	9	advance_on_keypress_ZEE	2	stimuli_distractor_diamondtriangles.svg	stimuli_distractor_diamondtriangles.svg	13	no	57	0	322	0	0			0	0			1				0	
6.6.1	win	2023-06-26	23:40:20	23:49:02	517437	64139e0346c4b91651b69d44	3	1	practice_z	9	practice_z	3	stimuli_distractor_diamondtriangles.svg	stimuli_target_trianglerectangles.svg	9	yes	0	0	2000	0	0			0	0			1				0	
6.6.1	win	2023-06-26	23:40:20	23:49:02	517437	64139e0346c4b91651b69d44	3	1	practice_z	9	advance_on_keypress_ZEE	4	stimuli_distractor_diamondtriangles.svg	stimuli_target_trianglerectangles.svg	9	yes	57	0	380	0	0			0	0			1				0	
6.6.1	win	2023-06-26	23:40:20	23:49:05	520479	64139e0346c4b91651b69d44	3	1	practice_z	9	practice_z	5	stimuli_distractor_diamondtriangles.svg	stimuli_distractor_trianglediamonds.svg	14	no	44	0	1007	0	0			0	0			1				0	
6.6.1	win	2023-06-26	23:40:20	23:49:05	520479	64139e0346c4b91651b69d44	3	1	practice_z	9	advance_on_keypress_ZEE	6	stimuli_distractor_diamondtriangles.svg	stimuli_distractor_trianglediamonds.svg	14	no	57	0	367	0	0			0	0			1				0	
6.6.1	win	2023-06-26	23:40:20	23:49:07	523342	64139e0346c4b91651b69d44	3	1	practice_z	9	practice_z	7	stimuli_distractor_trianglediamonds.svg	stimuli_target_squarediamonds.svg	11	yes	44	1	855	0	0			0	0			1				0	
6.6.1	win	2023-06-26	23:40:20	23:49:07	523342	64139e0346c4b91651b69d44	3	1	practice_z	9	advance_on_keypress_ZEE	8	stimuli_distractor_trianglediamonds.svg	stimuli_target_squarediamonds.svg	11	yes	57	0	414	0	0			0	0			1				0	
6.6.1	win	2023-06-26	23:40:20	23:49:10	526047	64139e0346c4b91651b69d44	3	1	practice_z	9	practice_z	9	stimuli_distractor_diamondtriangles.svg	stimuli_target_rectangletriangles.svg	7	yes	44	1	643	0	0			0	0			1				0	
6.6.1	win	2023-06-26	23:40:20	23:49:10	526047	64139e0346c4b91651b69d44	3	1	practice_z	9	advance_on_keypress_ZEE	10	stimuli_distractor_diamondtriangles.svg	stimuli_target_rectangletriangles.svg	7	yes	57	0	303	0	0			0	0			1				0	
6.6.1	win	2023-06-26	23:40:20	23:49:13	529333	64139e0346c4b91651b69d44	3	1	practice_z	9	practice_z	11	stimuli_distractor_trianglediamonds.svg	stimuli_target_diamondrectangles.svg	12	yes	44	1	1346	0	0			0	0			1				0	
6.6.1	win	2023-06-26	23:40:20	23:49:13	529333	64139e0346c4b91651b69d44	3	1	practice_z	9	advance_on_keypress_ZEE	12	stimuli_distractor_trianglediamonds.svg	stimuli_target_diamondrectangles.svg	12	yes	57	0	388	0	0			0	0			1				0	
6.6.1	win	2023-06-26	23:40:20	23:49:17	532419	64139e0346c4b91651b69d44	3	1	practice_z	9	practice_z	13	stimuli_distractor_trianglediamonds.svg	stimuli_distractor_trianglediamonds.svg	15	no	44	0	1049	0	0			0	0			1				0	
6.6.1	win	2023-06-26	23:40:20	23:49:17	532419	64139e0346c4b91651b69d44	3	1	practice_z	9	advance_on_keypress_ZEE	14	stimuli_distractor_trianglediamonds.svg	stimuli_distractor_trianglediamonds.svg	15	no	57	0	365	0	0			0	0			1				0	
6.6.1	win	2023-06-26	23:40:20	23:49:19	534980	64139e0346c4b91651b69d44	3	1	practice_z	9	practice_z	15	stimuli_target_rectanglediamonds.svg	stimuli_distractor_trianglediamonds.svg	4	yes	44	1	543	0	0			0	0			1				0	
6.6.1	win	2023-06-26	23:40:20	23:49:19	534980	64139e0346c4b91651b69d44	3	1	practice_z	9	advance_on_keypress_ZEE	16	stimuli_target_rectanglediamonds.svg	stimuli_distractor_trianglediamonds.svg	4	yes	57	0	382	0	0			0	0			1				0	
6.6.1	win	2023-06-26	23:40:20	23:49:22	537571	64139e0346c4b91651b69d44	3	1	practice_z	9	practice_z	17	stimuli_target_rectanglediamonds.svg	stimuli_distractor_diamondtriangles.svg	1	yes	44	1	567	0	0			0	0			1				0	
6.6.1	win	2023-06-26	23:40:20	23:49:22	537571	64139e0346c4b91651b69d44	3	1	practice_z	9	advance_on_keypress_ZEE	18	stimuli_target_rectanglediamonds.svg	stimuli_distractor_diamondtriangles.svg	1	yes	57	0	429	0	0			0	0			1				0	
6.6.1	win	2023-06-26	23:40:20	23:49:25	540378	64139e0346c4b91651b69d44	3	1	practice_z	9	practice_z	19	stimuli_target_diamondsquares.svg	stimuli_distractor_diamondtriangles.svg	3	yes	44	1	725	0	0			0	0			1				0	
6.6.1	win	2023-06-26	23:40:20	23:49:25	540378	64139e0346c4b91651b69d44	3	1	practice_z	9	advance_on_keypress_ZEE	20	stimuli_target_diamondsquares.svg	stimuli_distractor_diamondtriangles.svg	3	yes	57	0	346	0	0			0	0			1				0	
6.6.1	win	2023-06-26	23:40:20	23:49:27	542804	64139e0346c4b91651b69d44	3	1	practice_z	9	practice_z	21	stimuli_distractor_trianglediamonds.svg	stimuli_target_rectanglediamonds.svg	10	yes	44	1	434	0	0			0	0			1				0	
6.6.1	win	2023-06-26	23:40:20	23:49:27	542804	64139e0346c4b91651b69d44	3	1	practice_z	9	advance_on_keypress_ZEE	22	stimuli_distractor_trianglediamonds.svg	stimuli_target_rectanglediamonds.svg	10	yes	57	0	307	0	0			0	0			1				0	
6.6.1	win	2023-06-26	23:40:20	23:49:31	546754	64139e0346c4b91651b69d44	3	1	practice_z	9	practice_z	23	stimuli_distractor_trianglediamonds.svg	stimuli_distractor_diamondtriangles.svg	16	no	0	1	2000	0	0			0	0			1				0	
6.6.1	win	2023-06-26	23:40:20	23:49:31	546754	64139e0346c4b91651b69d44	3	1	practice_z	9	advance_on_keypress_ZEE	24	stimuli_distractor_trianglediamonds.svg	stimuli_distractor_diamondtriangles.svg	16	no	57	0	355	0	0			0	0			1				0	
6.6.1	win	2023-06-26	23:40:20	23:49:33	549332	64139e0346c4b91651b69d44	3	1	practice_z	9	practice_z	25	stimuli_target_squarediamonds.svg	stimuli_distractor_diamondtriangles.svg	2	yes	44	1	580	0	0			0	0			1				0	
6.6.1	win	2023-06-26	23:40:20	23:49:33	549332	64139e0346c4b91651b69d44	3	1	practice_z	9	advance_on_keypress_ZEE	26	stimuli_target_squarediamonds.svg	stimuli_distractor_diamondtriangles.svg	2	yes	57	0	348	0	0			0	0			1				0	
6.6.1	win	2023-06-26	23:40:20	23:49:36	552206	64139e0346c4b91651b69d44	3	1	practice_z	9	practice_z	27	stimuli_target_squarediamonds.svg	stimuli_distractor_trianglediamonds.svg	5	yes	44	1	870	0	0			0	0			1				0	
6.6.1	win	2023-06-26	23:40:20	23:49:36	552206	64139e0346c4b91651b69d44	3	1	practice_z	9	advance_on_keypress_ZEE	28	stimuli_target_squarediamonds.svg	stimuli_distractor_trianglediamonds.svg	5	yes	57	0	296	0	0			0	0			1				0	
6.6.1	win	2023-06-26	23:40:20	23:49:39	554721	64139e0346c4b91651b69d44	3	1	practice_z	9	practice_z	29	stimuli_target_diamondsquares.svg	stimuli_distractor_trianglediamonds.svg	6	yes	44	1	569	0	0			0	0			1				0	
6.6.1	win	2023-06-26	23:40:20	23:49:39	554721	64139e0346c4b91651b69d44	3	1	practice_z	9	advance_on_keypress_ZEE	30	stimuli_target_diamondsquares.svg	stimuli_distractor_trianglediamonds.svg	6	yes	57	0	292	0	0			0	0			1				0	
6.6.1	win	2023-06-26	23:40:20	23:49:42	557663	64139e0346c4b91651b69d44	3	1	practice_z	9	practice_z	31	stimuli_distractor_diamondtriangles.svg	stimuli_target_diamondrectangles.svg	8	yes	44	1	1011	0	0			0	0			1				0	
6.6.1	win	2023-06-26	23:40:20	23:49:42	557663	64139e0346c4b91651b69d44	3	1	practice_z	9	advance_on_keypress_ZEE	32	stimuli_distractor_diamondtriangles.svg	stimuli_target_diamondrectangles.svg	8	yes	57	0	325	0	0			0	0			1				0	
6.6.1	win	2023-06-26	23:40:20	23:49:45	561142	64139e0346c4b91651b69d44	3	1	main_z	11	main_z	1	stimuli_distractor_trianglediamonds.svg	stimuli_target_diamondrectangles.svg	27	yes	44	1	424	0	0			0	0			1				0	
6.6.1	win	2023-06-26	23:40:20	23:49:45	561142	64139e0346c4b91651b69d44	3	1	main_z	11	advance_on_keypress_ZEE	2	stimuli_distractor_trianglediamonds.svg	stimuli_target_diamondrectangles.svg	27	yes	57	0	616	0	0			0	0			1				0	
6.6.1	win	2023-06-26	23:40:20	23:49:49	564401	64139e0346c4b91651b69d44	3	1	main_z	11	main_z	3	stimuli_distractor_diamondtriangles.svg	stimuli_distractor_diamondtriangles.svg	39	no	0	1	2000	0	0			0	0			1				0	
6.6.1	win	2023-06-26	23:40:20	23:49:49	564401	64139e0346c4b91651b69d44	3	1	main_z	11	advance_on_keypress_ZEE	4	stimuli_distractor_diamondtriangles.svg	stimuli_distractor_diamondtriangles.svg	39	no	57	0	226	0	0			0	0			1				0	
6.6.1	win	2023-06-26	23:40:20	23:49:50	566121	64139e0346c4b91651b69d44	3	1	main_z	11	main_z	5	stimuli_target_diamondsquares.svg	stimuli_distractor_trianglediamonds.svg	20	yes	44	1	854	0	0			0	0			1				0	
6.6.1	win	2023-06-26	23:40:20	23:49:50	566121	64139e0346c4b91651b69d44	3	1	main_z	11	advance_on_keypress_ZEE	6	stimuli_target_diamondsquares.svg	stimuli_distractor_trianglediamonds.svg	20	yes	57	0	561	0	0			0	0			1				0	
6.6.1	win	2023-06-26	23:40:20	23:49:53	569317	64139e0346c4b91651b69d44	3	1	main_z	11	main_z	7	stimuli_distractor_diamondtriangles.svg	stimuli_target_squaretriangles.svg	15	yes	0	0	2000	0	0			0	0			1				0	
6.6.1	win	2023-06-26	23:40:20	23:49:53	569317	64139e0346c4b91651b69d44	3	1	main_z	11	advance_on_keypress_ZEE	8	stimuli_distractor_diamondtriangles.svg	stimuli_target_squaretriangles.svg	15	yes	57	0	266	0	0			0	0			1				0	
6.6.1	win	2023-06-26	23:40:20	23:49:55	571151	64139e0346c4b91651b69d44	3	1	main_z	11	main_z	9	stimuli_distractor_trianglediamonds.svg	stimuli_distractor_trianglediamonds.svg	34	no	44	0	918	0	0			0	0			1				0	
6.6.1	win	2023-06-26	23:40:20	23:49:55	571151	64139e0346c4b91651b69d44	3	1	main_z	11	advance_on_keypress_ZEE	10	stimuli_distractor_trianglediamonds.svg	stimuli_distractor_trianglediamonds.svg	34	no	57	0	550	0	0			0	0			1				0	
6.6.1	win	2023-06-26	23:40:20	23:49:58	574350	64139e0346c4b91651b69d44	3	1	main_z	11	main_z	11	stimuli_distractor_diamondtriangles.svg	stimuli_distractor_trianglediamonds.svg	38	no	0	1	2000	0	0			0	0			1				0	
6.6.1	win	2023-06-26	23:40:20	23:49:58	574350	64139e0346c4b91651b69d44	3	1	main_z	11	advance_on_keypress_ZEE	12	stimuli_distractor_diamondtriangles.svg	stimuli_distractor_trianglediamonds.svg	38	no	57	0	347	0	0			0	0			1				0	
6.6.1	win	2023-06-26	23:40:20	23:50:00	576054	64139e0346c4b91651b69d44	3	1	main_z	11	main_z	13	stimuli_distractor_diamondtriangles.svg	stimuli_target_rectanglediamonds.svg	14	yes	44	1	703	0	0			0	0			1				0	
6.6.1	win	2023-06-26	23:40:20	23:50:00	576054	64139e0346c4b91651b69d44	3	1	main_z	11	advance_on_keypress_ZEE	14	stimuli_distractor_diamondtriangles.svg	stimuli_target_rectanglediamonds.svg	14	yes	57	0	401	0	0			0	0			1				0	
6.6.1	win	2023-06-26	23:40:20	23:50:03	579100	64139e0346c4b91651b69d44	3	1	main_z	11	main_z	15	stimuli_distractor_diamondtriangles.svg	stimuli_target_trianglesquares.svg	30	yes	0	0	2000	0	0			0	0			1				0	
6.6.1	win	2023-06-26	23:40:20	23:50:03	579100	64139e0346c4b91651b69d44	3	1	main_z	11	advance_on_keypress_ZEE	16	stimuli_distractor_diamondtriangles.svg	stimuli_target_trianglesquares.svg	30	yes	57	0	348	0	0			0	0			1				0	
6.6.1	win	2023-06-26	23:40:20	23:50:05	580486	64139e0346c4b91651b69d44	3	1	main_z	11	main_z	17	stimuli_target_rectanglediamonds.svg	stimuli_distractor_trianglediamonds.svg	2	yes	44	1	386	0	0			0	0			1				0	
6.6.1	win	2023-06-26	23:40:20	23:50:05	580486	64139e0346c4b91651b69d44	3	1	main_z	11	advance_on_keypress_ZEE	18	stimuli_target_rectanglediamonds.svg	stimuli_distractor_trianglediamonds.svg	2	yes	57	0	471	0	0			0	0			1				0	
6.6.1	win	2023-06-26	23:40:20	23:50:06	582169	64139e0346c4b91651b69d44	3	1	main_z	11	main_z	19	stimuli_target_diamondsquares.svg	stimuli_distractor_diamondtriangles.svg	24	yes	44	1	569	0	0			0	0			1				0	
6.6.1	win	2023-06-26	23:40:20	23:50:06	582169	64139e0346c4b91651b69d44	3	1	main_z	11	advance_on_keypress_ZEE	20	stimuli_target_diamondsquares.svg	stimuli_distractor_diamondtriangles.svg	24	yes	57	0	330	0	0			0	0			1				0	
6.6.1	win	2023-06-26	23:40:20	23:50:08	583665	64139e0346c4b91651b69d44	3	1	main_z	11	main_z	21	stimuli_distractor_diamondtriangles.svg	stimuli_target_rectangletriangles.svg	13	yes	44	1	500	0	0			0	0			1				0	
6.6.1	win	2023-06-26	23:40:20	23:50:08	583665	64139e0346c4b91651b69d44	3	1	main_z	11	advance_on_keypress_ZEE	22	stimuli_distractor_diamondtriangles.svg	stimuli_target_rectangletriangles.svg	13	yes	57	0	307	0	0			0	0			1				0	
6.6.1	win	2023-06-26	23:40:20	23:50:09	584970	64139e0346c4b91651b69d44	3	1	main_z	11	main_z	23	stimuli_target_squarediamonds.svg	stimuli_distractor_diamondtriangles.svg	8	yes	44	1	353	0	0			0	0			1				0	
6.6.1	win	2023-06-26	23:40:20	23:50:09	584970	64139e0346c4b91651b69d44	3	1	main_z	11	advance_on_keypress_ZEE	24	stimuli_target_squarediamonds.svg	stimuli_distractor_diamondtriangles.svg	8	yes	57	0	288	0	0			0	0			1				0	
6.6.1	win	2023-06-26	23:40:20	23:50:11	586467	64139e0346c4b91651b69d44	3	1	main_z	11	main_z	25	stimuli_target_diamondrectangles.svg	stimuli_distractor_trianglediamonds.svg	19	yes	44	1	567	0	0			0	0			1				0	
6.6.1	win	2023-06-26	23:40:20	23:50:11	586467	64139e0346c4b91651b69d44	3	1	main_z	11	advance_on_keypress_ZEE	26	stimuli_target_diamondrectangles.svg	stimuli_distractor_trianglediamonds.svg	19	yes	57	0	247	0	0			0	0			1				0	
6.6.1	win	2023-06-26	23:40:20	23:50:12	587748	64139e0346c4b91651b69d44	3	1	main_z	11	main_z	27	stimuli_target_squarediamonds.svg	stimuli_distractor_trianglediamonds.svg	4	yes	44	1	372	0	0			0	0			1				0	
6.6.1	win	2023-06-26	23:40:20	23:50:12	587748	64139e0346c4b91651b69d44	3	1	main_z	11	advance_on_keypress_ZEE	28	stimuli_target_squarediamonds.svg	stimuli_distractor_trianglediamonds.svg	4	yes	57	0	253	0	0			0	0			1				0	
6.6.1	win	2023-06-26	23:40:20	23:50:13	588968	64139e0346c4b91651b69d44	3	1	main_z	11	main_z	29	stimuli_distractor_trianglediamonds.svg	stimuli_target_rectanglediamonds.svg	10	yes	44	1	319	0	0			0	0			1				0	
6.6.1	win	2023-06-26	23:40:20	23:50:13	588968	64139e0346c4b91651b69d44	3	1	main_z	11	advance_on_keypress_ZEE	30	stimuli_distractor_trianglediamonds.svg	stimuli_target_rectanglediamonds.svg	10	yes	57	0	273	0	0			0	0			1				0	
6.6.1	win	2023-06-26	23:40:20	23:50:14	590233	64139e0346c4b91651b69d44	3	1	main_z	11	main_z	31	stimuli_target_rectangletriangles.svg	stimuli_distractor_diamondtriangles.svg	5	yes	44	1	351	0	0			0	0			1				0	
6.6.1	win	2023-06-26	23:40:20	23:50:14	590233	64139e0346c4b91651b69d44	3	1	main_z	11	advance_on_keypress_ZEE	32	stimuli_target_rectangletriangles.svg	stimuli_distractor_diamondtriangles.svg	5	yes	57	0	234	0	0			0	0			1				0	
6.6.1	win	2023-06-26	23:40:20	23:50:17	593116	64139e0346c4b91651b69d44	3	1	main_z	11	main_z	33	stimuli_distractor_trianglediamonds.svg	stimuli_distractor_diamondtriangles.svg	35	no	0	1	2000	0	0			0	0			1				0	
6.6.1	win	2023-06-26	23:40:20	23:50:17	593116	64139e0346c4b91651b69d44	3	1	main_z	11	advance_on_keypress_ZEE	34	stimuli_distractor_trianglediamonds.svg	stimuli_distractor_diamondtriangles.svg	35	no	57	0	412	0	0			0	0			1				0	
6.6.1	win	2023-06-26	23:40:20	23:50:20	596166	64139e0346c4b91651b69d44	3	1	main_z	11	main_z	35	stimuli_distractor_trianglediamonds.svg	stimuli_distractor_trianglediamonds.svg	33	no	0	1	2000	0	0			0	0			1				0	
6.6.1	win	2023-06-26	23:40:20	23:50:20	596166	64139e0346c4b91651b69d44	3	1	main_z	11	advance_on_keypress_ZEE	36	stimuli_distractor_trianglediamonds.svg	stimuli_distractor_trianglediamonds.svg	33	no	57	0	278	0	0			0	0			1				0	
6.6.1	win	2023-06-26	23:40:20	23:50:23	599082	64139e0346c4b91651b69d44	3	1	main_z	11	main_z	37	stimuli_distractor_diamondtriangles.svg	stimuli_distractor_trianglediamonds.svg	37	no	0	1	2000	0	0			0	0			1				0	
6.6.1	win	2023-06-26	23:40:20	23:50:23	599082	64139e0346c4b91651b69d44	3	1	main_z	11	advance_on_keypress_ZEE	38	stimuli_distractor_diamondtriangles.svg	stimuli_distractor_trianglediamonds.svg	37	no	57	0	297	0	0			0	0			1				0	
6.6.1	win	2023-06-26	23:40:20	23:50:25	600658	64139e0346c4b91651b69d44	3	1	main_z	11	main_z	39	stimuli_target_trianglerectangles.svg	stimuli_distractor_trianglediamonds.svg	17	yes	44	1	626	0	0			0	0			1				0	
6.6.1	win	2023-06-26	23:40:20	23:50:25	600658	64139e0346c4b91651b69d44	3	1	main_z	11	advance_on_keypress_ZEE	40	stimuli_target_trianglerectangles.svg	stimuli_distractor_trianglediamonds.svg	17	yes	57	0	311	0	0			0	0			1				0	
6.6.1	win	2023-06-26	23:40:20	23:50:26	601981	64139e0346c4b91651b69d44	3	1	main_z	11	main_z	41	stimuli_distractor_trianglediamonds.svg	stimuli_target_trianglerectangles.svg	25	yes	44	1	369	0	0			0	0			1				0	
6.6.1	win	2023-06-26	23:40:20	23:50:26	601981	64139e0346c4b91651b69d44	3	1	main_z	11	advance_on_keypress_ZEE	42	stimuli_distractor_trianglediamonds.svg	stimuli_target_trianglerectangles.svg	25	yes	57	0	263	0	0			0	0			1				0	
6.6.1	win	2023-06-26	23:40:20	23:50:27	603217	64139e0346c4b91651b69d44	3	1	main_z	11	main_z	43	stimuli_target_trianglerectangles.svg	stimuli_distractor_diamondtriangles.svg	21	yes	44	1	319	0	0			0	0			1				0	
6.6.1	win	2023-06-26	23:40:20	23:50:27	603217	64139e0346c4b91651b69d44	3	1	main_z	11	advance_on_keypress_ZEE	44	stimuli_target_trianglerectangles.svg	stimuli_distractor_diamondtriangles.svg	21	yes	57	0	264	0	0			0	0			1				0	
6.6.1	win	2023-06-26	23:40:20	23:50:29	604579	64139e0346c4b91651b69d44	3	1	main_z	11	main_z	45	stimuli_target_squaretriangles.svg	stimuli_distractor_trianglediamonds.svg	3	yes	44	1	448	0	0			0	0			1				0	
6.6.1	win	2023-06-26	23:40:20	23:50:29	604579	64139e0346c4b91651b69d44	3	1	main_z	11	advance_on_keypress_ZEE	46	stimuli_target_squaretriangles.svg	stimuli_distractor_trianglediamonds.svg	3	yes	57	0	255	0	0			0	0			1				0	
6.6.1	win	2023-06-26	23:40:20	23:50:31	606705	64139e0346c4b91651b69d44	3	1	main_z	11	main_z	47	stimuli_target_diamondrectangles.svg	stimuli_distractor_diamondtriangles.svg	23	yes	44	1	1224	0	0			0	0			1				0	
6.6.1	win	2023-06-26	23:40:20	23:50:31	606705	64139e0346c4b91651b69d44	3	1	main_z	11	advance_on_keypress_ZEE	48	stimuli_target_diamondrectangles.svg	stimuli_distractor_diamondtriangles.svg	23	yes	57	0	392	0	0			0	0			1				0	
6.6.1	win	2023-06-26	23:40:20	23:50:32	608265	64139e0346c4b91651b69d44	3	1	main_z	11	main_z	49	stimuli_distractor_diamondtriangles.svg	stimuli_target_squarediamonds.svg	16	yes	44	1	534	0	0			0	0			1				0	
6.6.1	win	2023-06-26	23:40:20	23:50:32	608265	64139e0346c4b91651b69d44	3	1	main_z	11	advance_on_keypress_ZEE	50	stimuli_distractor_diamondtriangles.svg	stimuli_target_squarediamonds.svg	16	yes	57	0	255	0	0			0	0			1				0	
6.6.1	win	2023-06-26	23:40:20	23:50:34	609586	64139e0346c4b91651b69d44	3	1	main_z	11	main_z	51	stimuli_target_rectangletriangles.svg	stimuli_distractor_trianglediamonds.svg	1	yes	44	1	420	0	0			0	0			1				0	
6.6.1	win	2023-06-26	23:40:20	23:50:34	609586	64139e0346c4b91651b69d44	3	1	main_z	11	advance_on_keypress_ZEE	52	stimuli_target_rectangletriangles.svg	stimuli_distractor_trianglediamonds.svg	1	yes	57	0	194	0	0			0	0			1				0	
6.6.1	win	2023-06-26	23:40:20	23:50:35	611127	64139e0346c4b91651b69d44	3	1	main_z	11	main_z	53	stimuli_distractor_diamondtriangles.svg	stimuli_target_diamondrectangles.svg	31	yes	44	1	711	0	0			0	0			1				0	
6.6.1	win	2023-06-26	23:40:20	23:50:35	611127	64139e0346c4b91651b69d44	3	1	main_z	11	advance_on_keypress_ZEE	54	stimuli_distractor_diamondtriangles.svg	stimuli_target_diamondrectangles.svg	31	yes	57	0	281	0	0			0	0			1				0	
6.6.1	win	2023-06-26	23:40:20	23:50:37	612494	64139e0346c4b91651b69d44	3	1	main_z	11	main_z	55	stimuli_distractor_trianglediamonds.svg	stimuli_target_rectangletriangles.svg	9	yes	44	1	446	0	0			0	0			1				0	
6.6.1	win	2023-06-26	23:40:20	23:50:37	612494	64139e0346c4b91651b69d44	3	1	main_z	11	advance_on_keypress_ZEE	56	stimuli_distractor_trianglediamonds.svg	stimuli_target_rectangletriangles.svg	9	yes	57	0	214	0	0			0	0			1				0	
6.6.1	win	2023-06-26	23:40:20	23:50:39	615149	64139e0346c4b91651b69d44	3	1	main_z	11	main_z	57	stimuli_target_trianglesquares.svg	stimuli_distractor_diamondtriangles.svg	22	yes	44	1	1784	0	0			0	0			1				0	
6.6.1	win	2023-06-26	23:40:20	23:50:39	615149	64139e0346c4b91651b69d44	3	1	main_z	11	advance_on_keypress_ZEE	58	stimuli_target_trianglesquares.svg	stimuli_distractor_diamondtriangles.svg	22	yes	57	0	334	0	0			0	0			1				0	
6.6.1	win	2023-06-26	23:40:20	23:50:42	618132	64139e0346c4b91651b69d44	3	1	main_z	11	main_z	59	stimuli_distractor_trianglediamonds.svg	stimuli_distractor_diamondtriangles.svg	36	no	0	1	2000	0	0			0	0			1				0	
6.6.1	win	2023-06-26	23:40:20	23:50:42	618132	64139e0346c4b91651b69d44	3	1	main_z	11	advance_on_keypress_ZEE	60	stimuli_distractor_trianglediamonds.svg	stimuli_distractor_diamondtriangles.svg	36	no	57	0	645	0	0			0	0			1				0	
6.6.1	win	2023-06-26	23:40:20	23:50:44	620363	64139e0346c4b91651b69d44	3	1	main_z	11	main_z	61	stimuli_distractor_trianglediamonds.svg	stimuli_target_trianglesquares.svg	26	yes	44	1	948	0	0			0	0			1				0	
6.6.1	win	2023-06-26	23:40:20	23:50:44	620363	64139e0346c4b91651b69d44	3	1	main_z	11	advance_on_keypress_ZEE	62	stimuli_distractor_trianglediamonds.svg	stimuli_target_trianglesquares.svg	26	yes	57	0	281	0	0			0	0			1				0	
6.6.1	win	2023-06-26	23:40:20	23:50:46	621903	64139e0346c4b91651b69d44	3	1	main_z	11	main_z	63	stimuli_distractor_trianglediamonds.svg	stimuli_target_squarediamonds.svg	12	yes	44	1	605	0	0			0	0			1				0	
6.6.1	win	2023-06-26	23:40:20	23:50:46	621903	64139e0346c4b91651b69d44	3	1	main_z	11	advance_on_keypress_ZEE	64	stimuli_distractor_trianglediamonds.svg	stimuli_target_squarediamonds.svg	12	yes	57	0	270	0	0			0	0			1				0	
6.6.1	win	2023-06-26	23:40:20	23:50:47	623154	64139e0346c4b91651b69d44	3	1	main_z	11	main_z	65	stimuli_target_rectanglediamonds.svg	stimuli_distractor_diamondtriangles.svg	6	yes	44	1	339	0	0			0	0			1				0	
6.6.1	win	2023-06-26	23:40:20	23:50:47	623154	64139e0346c4b91651b69d44	3	1	main_z	11	advance_on_keypress_ZEE	66	stimuli_target_rectanglediamonds.svg	stimuli_distractor_diamondtriangles.svg	6	yes	57	0	221	0	0			0	0			1				0	
6.6.1	win	2023-06-26	23:40:20	23:50:50	625756	64139e0346c4b91651b69d44	3	1	main_z	11	main_z	67	stimuli_distractor_trianglediamonds.svg	stimuli_target_diamondsquares.svg	28	yes	44	1	1742	0	0			0	0			1				0	
6.6.1	win	2023-06-26	23:40:20	23:50:50	625756	64139e0346c4b91651b69d44	3	1	main_z	11	advance_on_keypress_ZEE	68	stimuli_distractor_trianglediamonds.svg	stimuli_target_diamondsquares.svg	28	yes	57	0	574	0	0			0	0			1				0	
6.6.1	win	2023-06-26	23:40:20	23:50:52	627560	64139e0346c4b91651b69d44	3	1	main_z	11	main_z	69	stimuli_target_trianglesquares.svg	stimuli_distractor_trianglediamonds.svg	18	yes	44	1	595	0	0			0	0			1				0	
6.6.1	win	2023-06-26	23:40:20	23:50:52	627560	64139e0346c4b91651b69d44	3	1	main_z	11	advance_on_keypress_ZEE	70	stimuli_target_trianglesquares.svg	stimuli_distractor_trianglediamonds.svg	18	yes	57	0	356	0	0			0	0			1				0	
6.6.1	win	2023-06-26	23:40:20	23:50:55	630564	64139e0346c4b91651b69d44	3	1	main_z	11	main_z	71	stimuli_distractor_diamondtriangles.svg	stimuli_distractor_diamondtriangles.svg	40	no	0	1	2000	0	0			0	0			1				0	
6.6.1	win	2023-06-26	23:40:20	23:50:55	630564	64139e0346c4b91651b69d44	3	1	main_z	11	advance_on_keypress_ZEE	72	stimuli_distractor_diamondtriangles.svg	stimuli_distractor_diamondtriangles.svg	40	no	57	0	343	0	0			0	0			1				0	
6.6.1	win	2023-06-26	23:40:20	23:50:56	632154	64139e0346c4b91651b69d44	3	1	main_z	11	main_z	73	stimuli_distractor_diamondtriangles.svg	stimuli_target_trianglerectangles.svg	29	yes	44	1	606	0	0			0	0			1				0	
6.6.1	win	2023-06-26	23:40:20	23:50:56	632154	64139e0346c4b91651b69d44	3	1	main_z	11	advance_on_keypress_ZEE	74	stimuli_distractor_diamondtriangles.svg	stimuli_target_trianglerectangles.svg	29	yes	57	0	332	0	0			0	0			1				0	
6.6.1	win	2023-06-26	23:40:20	23:50:58	634170	64139e0346c4b91651b69d44	3	1	main_z	11	main_z	75	stimuli_distractor_trianglediamonds.svg	stimuli_target_squaretriangles.svg	11	yes	44	1	1040	0	0			0	0			1				0	
6.6.1	win	2023-06-26	23:40:20	23:50:58	634170	64139e0346c4b91651b69d44	3	1	main_z	11	advance_on_keypress_ZEE	76	stimuli_distractor_trianglediamonds.svg	stimuli_target_squaretriangles.svg	11	yes	57	0	523	0	0			0	0			1				0	
6.6.1	win	2023-06-26	23:40:20	23:51:00	635763	64139e0346c4b91651b69d44	3	1	main_z	11	main_z	77	stimuli_target_squaretriangles.svg	stimuli_distractor_diamondtriangles.svg	7	yes	44	1	433	0	0			0	0			1				0	
6.6.1	win	2023-06-26	23:40:20	23:51:00	635763	64139e0346c4b91651b69d44	3	1	main_z	11	advance_on_keypress_ZEE	78	stimuli_target_squaretriangles.svg	stimuli_distractor_diamondtriangles.svg	7	yes	57	0	260	0	0			0	0			1				0	
6.6.1	win	2023-06-26	23:40:20	23:51:02	637453	64139e0346c4b91651b69d44	3	1	main_z	11	main_z	79	stimuli_distractor_diamondtriangles.svg	stimuli_target_diamondsquares.svg	32	yes	44	1	789	0	0			0	0			1				0	
6.6.1	win	2023-06-26	23:40:20	23:51:02	637453	64139e0346c4b91651b69d44	3	1	main_z	11	advance_on_keypress_ZEE	80	stimuli_distractor_diamondtriangles.svg	stimuli_target_diamondsquares.svg	32	yes	57	0	292	0	0			0	0			1				0	
6.6.1	win	2023-06-26	23:40:20	23:51:04	639607	64139e0346c4b91651b69d44	3	1	main_z	11	main_z	81	stimuli_distractor_trianglediamonds.svg	stimuli_target_squarediamonds.svg	12	yes	44	1	1226	0	0			0	0			1				0	
6.6.1	win	2023-06-26	23:40:20	23:51:04	639607	64139e0346c4b91651b69d44	3	1	main_z	11	advance_on_keypress_ZEE	82	stimuli_distractor_trianglediamonds.svg	stimuli_target_squarediamonds.svg	12	yes	57	0	263	0	0			0	0			1				0	
6.6.1	win	2023-06-26	23:40:20	23:51:05	640929	64139e0346c4b91651b69d44	3	1	main_z	11	main_z	83	stimuli_distractor_diamondtriangles.svg	stimuli_target_squarediamonds.svg	16	yes	44	1	415	0	0			0	0			1				0	
6.6.1	win	2023-06-26	23:40:20	23:51:05	640929	64139e0346c4b91651b69d44	3	1	main_z	11	advance_on_keypress_ZEE	84	stimuli_distractor_diamondtriangles.svg	stimuli_target_squarediamonds.svg	16	yes	57	0	221	0	0			0	0			1				0	
6.6.1	win	2023-06-26	23:40:20	23:51:06	642212	64139e0346c4b91651b69d44	3	1	main_z	11	main_z	85	stimuli_target_rectanglediamonds.svg	stimuli_distractor_diamondtriangles.svg	6	yes	44	1	416	0	0			0	0			1				0	
6.6.1	win	2023-06-26	23:40:20	23:51:06	642212	64139e0346c4b91651b69d44	3	1	main_z	11	advance_on_keypress_ZEE	86	stimuli_target_rectanglediamonds.svg	stimuli_distractor_diamondtriangles.svg	6	yes	57	0	207	0	0			0	0			1				0	
6.6.1	win	2023-06-26	23:40:20	23:51:09	645064	64139e0346c4b91651b69d44	3	1	main_z	11	main_z	87	stimuli_distractor_trianglediamonds.svg	stimuli_target_diamondsquares.svg	28	yes	0	0	2000	0	0			0	0			1				0	
6.6.1	win	2023-06-26	23:40:20	23:51:09	645064	64139e0346c4b91651b69d44	3	1	main_z	11	advance_on_keypress_ZEE	88	stimuli_distractor_trianglediamonds.svg	stimuli_target_diamondsquares.svg	28	yes	57	0	377	0	0			0	0			1				0	
6.6.1	win	2023-06-26	23:40:20	23:51:11	646559	64139e0346c4b91651b69d44	3	1	main_z	11	main_z	89	stimuli_target_diamondrectangles.svg	stimuli_distractor_diamondtriangles.svg	23	yes	44	1	478	0	0			0	0			1				0	
6.6.1	win	2023-06-26	23:40:20	23:51:11	646559	64139e0346c4b91651b69d44	3	1	main_z	11	advance_on_keypress_ZEE	90	stimuli_target_diamondrectangles.svg	stimuli_distractor_diamondtriangles.svg	23	yes	57	0	205	0	0			0	0			1				0	
6.6.1	win	2023-06-26	23:40:20	23:51:12	647872	64139e0346c4b91651b69d44	3	1	main_z	11	main_z	91	stimuli_target_trianglesquares.svg	stimuli_distractor_trianglediamonds.svg	18	yes	44	1	458	0	0			0	0			1				0	
6.6.1	win	2023-06-26	23:40:20	23:51:12	647872	64139e0346c4b91651b69d44	3	1	main_z	11	advance_on_keypress_ZEE	92	stimuli_target_trianglesquares.svg	stimuli_distractor_trianglediamonds.svg	18	yes	57	0	247	0	0			0	0			1				0	
6.6.1	win	2023-06-26	23:40:20	23:51:15	650763	64139e0346c4b91651b69d44	3	1	main_z	11	main_z	93	stimuli_distractor_diamondtriangles.svg	stimuli_distractor_diamondtriangles.svg	40	no	0	1	2000	0	0			0	0			1				0	
6.6.1	win	2023-06-26	23:40:20	23:51:15	650763	64139e0346c4b91651b69d44	3	1	main_z	11	advance_on_keypress_ZEE	94	stimuli_distractor_diamondtriangles.svg	stimuli_distractor_diamondtriangles.svg	40	no	57	0	301	0	0			0	0			1				0	
6.6.1	win	2023-06-26	23:40:20	23:51:18	653713	64139e0346c4b91651b69d44	3	1	main_z	11	main_z	95	stimuli_distractor_diamondtriangles.svg	stimuli_distractor_diamondtriangles.svg	39	no	0	1	2000	0	0			0	0			1				0	
6.6.1	win	2023-06-26	23:40:20	23:51:18	653713	64139e0346c4b91651b69d44	3	1	main_z	11	advance_on_keypress_ZEE	96	stimuli_distractor_diamondtriangles.svg	stimuli_distractor_diamondtriangles.svg	39	no	57	0	248	0	0			0	0			1				0	
6.6.1	win	2023-06-26	23:40:20	23:51:19	655080	64139e0346c4b91651b69d44	3	1	main_z	11	main_z	97	stimuli_target_rectangletriangles.svg	stimuli_distractor_diamondtriangles.svg	5	yes	44	1	468	0	0			0	0			1				0	
6.6.1	win	2023-06-26	23:40:20	23:51:19	655080	64139e0346c4b91651b69d44	3	1	main_z	11	advance_on_keypress_ZEE	98	stimuli_target_rectangletriangles.svg	stimuli_distractor_diamondtriangles.svg	5	yes	57	0	244	0	0			0	0			1				0	
6.6.1	win	2023-06-26	23:40:20	23:51:21	656418	64139e0346c4b91651b69d44	3	1	main_z	11	main_z	99	stimuli_target_squaretriangles.svg	stimuli_distractor_diamondtriangles.svg	7	yes	44	1	456	0	0			0	0			1				0	
6.6.1	win	2023-06-26	23:40:20	23:51:21	656418	64139e0346c4b91651b69d44	3	1	main_z	11	advance_on_keypress_ZEE	100	stimuli_target_squaretriangles.svg	stimuli_distractor_diamondtriangles.svg	7	yes	57	0	184	0	0			0	0			1				0	
6.6.1	win	2023-06-26	23:40:20	23:51:22	657838	64139e0346c4b91651b69d44	3	1	main_z	11	main_z	101	stimuli_target_diamondsquares.svg	stimuli_distractor_trianglediamonds.svg	20	yes	44	1	592	0	0			0	0			1				0	
6.6.1	win	2023-06-26	23:40:20	23:51:22	657838	64139e0346c4b91651b69d44	3	1	main_z	11	advance_on_keypress_ZEE	102	stimuli_target_diamondsquares.svg	stimuli_distractor_trianglediamonds.svg	20	yes	57	0	172	0	0			0	0			1				0	
6.6.1	win	2023-06-26	23:40:20	23:51:25	660646	64139e0346c4b91651b69d44	3	1	main_z	11	main_z	103	stimuli_target_squarediamonds.svg	stimuli_distractor_trianglediamonds.svg	4	yes	0	0	2000	0	0			0	0			1				0	
6.6.1	win	2023-06-26	23:40:20	23:51:25	660646	64139e0346c4b91651b69d44	3	1	main_z	11	advance_on_keypress_ZEE	104	stimuli_target_squarediamonds.svg	stimuli_distractor_trianglediamonds.svg	4	yes	57	0	358	0	0			0	0			1				0	
6.6.1	win	2023-06-26	23:40:20	23:51:26	662237	64139e0346c4b91651b69d44	3	1	main_z	11	main_z	105	stimuli_distractor_trianglediamonds.svg	stimuli_target_trianglesquares.svg	26	yes	44	1	592	0	0			0	0			1				0	
6.6.1	win	2023-06-26	23:40:20	23:51:26	662237	64139e0346c4b91651b69d44	3	1	main_z	11	advance_on_keypress_ZEE	106	stimuli_distractor_trianglediamonds.svg	stimuli_target_trianglesquares.svg	26	yes	57	0	317	0	0			0	0			1				0	
6.6.1	win	2023-06-26	23:40:20	23:51:28	663538	64139e0346c4b91651b69d44	3	1	main_z	11	main_z	107	stimuli_distractor_diamondtriangles.svg	stimuli_distractor_trianglediamonds.svg	37	no	44	0	342	0	0			0	0			1				0	
6.6.1	win	2023-06-26	23:40:20	23:51:28	663538	64139e0346c4b91651b69d44	3	1	main_z	11	advance_on_keypress_ZEE	108	stimuli_distractor_diamondtriangles.svg	stimuli_distractor_trianglediamonds.svg	37	no	57	0	289	0	0			0	0			1				0	
6.6.1	win	2023-06-26	23:40:20	23:51:29	664918	64139e0346c4b91651b69d44	3	1	main_z	11	main_z	109	stimuli_target_trianglesquares.svg	stimuli_distractor_diamondtriangles.svg	22	yes	44	1	455	0	0			0	0			1				0	
6.6.1	win	2023-06-26	23:40:20	23:51:29	664918	64139e0346c4b91651b69d44	3	1	main_z	11	advance_on_keypress_ZEE	110	stimuli_target_trianglesquares.svg	stimuli_distractor_diamondtriangles.svg	22	yes	57	0	229	0	0			0	0			1				0	
6.6.1	win	2023-06-26	23:40:20	23:51:30	666330	64139e0346c4b91651b69d44	3	1	main_z	11	main_z	111	stimuli_distractor_diamondtriangles.svg	stimuli_target_squaretriangles.svg	15	yes	44	1	535	0	0			0	0			1				0	
6.6.1	win	2023-06-26	23:40:20	23:51:30	666330	64139e0346c4b91651b69d44	3	1	main_z	11	advance_on_keypress_ZEE	112	stimuli_distractor_diamondtriangles.svg	stimuli_target_squaretriangles.svg	15	yes	57	0	162	0	0			0	0			1				0	
6.6.1	win	2023-06-26	23:40:20	23:51:32	667402	64139e0346c4b91651b69d44	3	1	main_z	11	main_z	113	stimuli_distractor_diamondtriangles.svg	stimuli_target_rectangletriangles.svg	13	yes	44	1	273	0	0			0	0			1				0	
6.6.1	win	2023-06-26	23:40:20	23:51:32	667402	64139e0346c4b91651b69d44	3	1	main_z	11	advance_on_keypress_ZEE	114	stimuli_distractor_diamondtriangles.svg	stimuli_target_rectangletriangles.svg	13	yes	57	0	123	0	0			0	0			1				0	
6.6.1	win	2023-06-26	23:40:20	23:51:33	668785	64139e0346c4b91651b69d44	3	1	main_z	11	main_z	115	stimuli_distractor_diamondtriangles.svg	stimuli_target_diamondrectangles.svg	31	yes	44	1	622	0	0			0	0			1				0	
6.6.1	win	2023-06-26	23:40:20	23:51:33	668785	64139e0346c4b91651b69d44	3	1	main_z	11	advance_on_keypress_ZEE	116	stimuli_distractor_diamondtriangles.svg	stimuli_target_diamondrectangles.svg	31	yes	57	0	161	0	0			0	0			1				0	
6.6.1	win	2023-06-26	23:40:20	23:51:34	670052	64139e0346c4b91651b69d44	3	1	main_z	11	main_z	117	stimuli_target_trianglerectangles.svg	stimuli_distractor_trianglediamonds.svg	17	yes	44	1	474	0	0			0	0			1				0	
6.6.1	win	2023-06-26	23:40:20	23:51:34	670052	64139e0346c4b91651b69d44	3	1	main_z	11	advance_on_keypress_ZEE	118	stimuli_target_trianglerectangles.svg	stimuli_distractor_trianglediamonds.svg	17	yes	57	0	151	0	0			0	0			1				0	
6.6.1	win	2023-06-26	23:40:20	23:51:36	671814	64139e0346c4b91651b69d44	3	1	main_z	11	main_z	119	stimuli_distractor_trianglediamonds.svg	stimuli_target_rectangletriangles.svg	9	yes	44	1	969	0	0			0	0			1				0	
6.6.1	win	2023-06-26	23:40:20	23:51:36	671814	64139e0346c4b91651b69d44	3	1	main_z	11	advance_on_keypress_ZEE	120	stimuli_distractor_trianglediamonds.svg	stimuli_target_rectangletriangles.svg	9	yes	57	0	89	0	0			0	0			1				0	
6.6.1	win	2023-06-26	23:40:20	23:51:37	673019	64139e0346c4b91651b69d44	3	1	main_z	11	main_z	121	stimuli_distractor_trianglediamonds.svg	stimuli_target_rectanglediamonds.svg	10	yes	44	1	473	0	0			0	0			1				0	
6.6.1	win	2023-06-26	23:40:20	23:51:37	673019	64139e0346c4b91651b69d44	3	1	main_z	11	advance_on_keypress_ZEE	122	stimuli_distractor_trianglediamonds.svg	stimuli_target_rectanglediamonds.svg	10	yes	57	0	117	0	0			0	0			1				0	
6.6.1	win	2023-06-26	23:40:20	23:51:38	674241	64139e0346c4b91651b69d44	3	1	main_z	11	main_z	123	stimuli_target_squaretriangles.svg	stimuli_distractor_trianglediamonds.svg	3	yes	44	1	463	0	0			0	0			1				0	
6.6.1	win	2023-06-26	23:40:20	23:51:38	674241	64139e0346c4b91651b69d44	3	1	main_z	11	advance_on_keypress_ZEE	124	stimuli_target_squaretriangles.svg	stimuli_distractor_trianglediamonds.svg	3	yes	57	0	95	0	0			0	0			1				0	
6.6.1	win	2023-06-26	23:40:20	23:51:40	675451	64139e0346c4b91651b69d44	3	1	main_z	11	main_z	125	stimuli_target_rectanglediamonds.svg	stimuli_distractor_trianglediamonds.svg	2	yes	44	1	455	0	0			0	0			1				0	
6.6.1	win	2023-06-26	23:40:20	23:51:40	675451	64139e0346c4b91651b69d44	3	1	main_z	11	advance_on_keypress_ZEE	126	stimuli_target_rectanglediamonds.svg	stimuli_distractor_trianglediamonds.svg	2	yes	57	0	105	0	0			0	0			1				0	
6.6.1	win	2023-06-26	23:40:20	23:51:41	676559	64139e0346c4b91651b69d44	3	1	main_z	11	main_z	127	stimuli_target_rectangletriangles.svg	stimuli_distractor_trianglediamonds.svg	1	yes	44	1	364	0	0			0	0			1				0	
6.6.1	win	2023-06-26	23:40:20	23:51:41	676559	64139e0346c4b91651b69d44	3	1	main_z	11	advance_on_keypress_ZEE	128	stimuli_target_rectangletriangles.svg	stimuli_distractor_trianglediamonds.svg	1	yes	57	0	87	0	0			0	0			1				0	
6.6.1	win	2023-06-26	23:40:20	23:51:42	677938	64139e0346c4b91651b69d44	3	1	main_z	11	main_z	129	stimuli_distractor_trianglediamonds.svg	stimuli_target_diamondrectangles.svg	27	yes	44	1	643	0	0			0	0			1				0	
6.6.1	win	2023-06-26	23:40:20	23:51:42	677938	64139e0346c4b91651b69d44	3	1	main_z	11	advance_on_keypress_ZEE	130	stimuli_distractor_trianglediamonds.svg	stimuli_target_diamondrectangles.svg	27	yes	57	0	133	0	0			0	0			1				0	
6.6.1	win	2023-06-26	23:40:20	23:51:45	680712	64139e0346c4b91651b69d44	3	1	main_z	11	main_z	131	stimuli_distractor_trianglediamonds.svg	stimuli_distractor_diamondtriangles.svg	36	no	0	1	2000	0	0			0	0			1				0	
6.6.1	win	2023-06-26	23:40:20	23:51:45	680712	64139e0346c4b91651b69d44	3	1	main_z	11	advance_on_keypress_ZEE	132	stimuli_distractor_trianglediamonds.svg	stimuli_distractor_diamondtriangles.svg	36	no	57	0	763	0	0			0	0			1				0	
6.6.1	win	2023-06-26	23:40:20	23:51:47	682573	64139e0346c4b91651b69d44	3	1	main_z	11	main_z	133	stimuli_target_squarediamonds.svg	stimuli_distractor_diamondtriangles.svg	8	yes	44	1	444	0	0			0	0			1				0	
6.6.1	win	2023-06-26	23:40:20	23:51:47	682573	64139e0346c4b91651b69d44	3	1	main_z	11	advance_on_keypress_ZEE	134	stimuli_target_squarediamonds.svg	stimuli_distractor_diamondtriangles.svg	8	yes	57	0	138	0	0			0	0			1				0	
6.6.1	win	2023-06-26	23:40:20	23:51:49	685345	64139e0346c4b91651b69d44	3	1	main_z	11	main_z	135	stimuli_distractor_trianglediamonds.svg	stimuli_distractor_diamondtriangles.svg	35	no	0	1	2000	0	0			0	0			1				0	
6.6.1	win	2023-06-26	23:40:20	23:51:49	685345	64139e0346c4b91651b69d44	3	1	main_z	11	advance_on_keypress_ZEE	136	stimuli_distractor_trianglediamonds.svg	stimuli_distractor_diamondtriangles.svg	35	no	57	0	316	0	0			0	0			1				0	
6.6.1	win	2023-06-26	23:40:20	23:51:51	686838	64139e0346c4b91651b69d44	3	1	main_z	11	main_z	137	stimuli_distractor_diamondtriangles.svg	stimuli_target_diamondsquares.svg	32	yes	44	1	527	0	0			0	0			1				0	
6.6.1	win	2023-06-26	23:40:20	23:51:51	686838	64139e0346c4b91651b69d44	3	1	main_z	11	advance_on_keypress_ZEE	138	stimuli_distractor_diamondtriangles.svg	stimuli_target_diamondsquares.svg	32	yes	57	0	111	0	0			0	0			1				0	
6.6.1	win	2023-06-26	23:40:20	23:51:52	688094	64139e0346c4b91651b69d44	3	1	main_z	11	main_z	139	stimuli_distractor_diamondtriangles.svg	stimuli_target_trianglerectangles.svg	29	yes	44	1	515	0	0			0	0			1				0	
6.6.1	win	2023-06-26	23:40:20	23:51:52	688094	64139e0346c4b91651b69d44	3	1	main_z	11	advance_on_keypress_ZEE	140	stimuli_distractor_diamondtriangles.svg	stimuli_target_trianglerectangles.svg	29	yes	57	0	94	0	0			0	0			1				0	
6.6.1	win	2023-06-26	23:40:20	23:51:55	690845	64139e0346c4b91651b69d44	3	1	main_z	11	main_z	141	stimuli_distractor_trianglediamonds.svg	stimuli_distractor_trianglediamonds.svg	34	no	0	1	2000	0	0			0	0			1				0	
6.6.1	win	2023-06-26	23:40:20	23:51:55	690845	64139e0346c4b91651b69d44	3	1	main_z	11	advance_on_keypress_ZEE	142	stimuli_distractor_trianglediamonds.svg	stimuli_distractor_trianglediamonds.svg	34	no	57	0	459	0	0			0	0			1				0	
6.6.1	win	2023-06-26	23:40:20	23:51:57	692401	64139e0346c4b91651b69d44	3	1	main_z	11	main_z	143	stimuli_target_diamondsquares.svg	stimuli_distractor_diamondtriangles.svg	24	yes	44	1	456	0	0			0	0			1				0	
6.6.1	win	2023-06-26	23:40:20	23:51:57	692401	64139e0346c4b91651b69d44	3	1	main_z	11	advance_on_keypress_ZEE	144	stimuli_target_diamondsquares.svg	stimuli_distractor_diamondtriangles.svg	24	yes	57	0	89	0	0			0	0			1				0	
6.6.1	win	2023-06-26	23:40:20	23:51:59	695128	64139e0346c4b91651b69d44	3	1	main_z	11	main_z	145	stimuli_distractor_diamondtriangles.svg	stimuli_distractor_trianglediamonds.svg	38	no	0	1	2000	0	0			0	0			1				0	
6.6.1	win	2023-06-26	23:40:20	23:51:59	695128	64139e0346c4b91651b69d44	3	1	main_z	11	advance_on_keypress_ZEE	146	stimuli_distractor_diamondtriangles.svg	stimuli_distractor_trianglediamonds.svg	38	no	57	0	174	0	0			0	0			1				0	
6.6.1	win	2023-06-26	23:40:20	23:52:00	696341	64139e0346c4b91651b69d44	3	1	main_z	11	main_z	147	stimuli_target_trianglerectangles.svg	stimuli_distractor_diamondtriangles.svg	21	yes	44	1	396	0	0			0	0			1				0	
6.6.1	win	2023-06-26	23:40:20	23:52:00	696341	64139e0346c4b91651b69d44	3	1	main_z	11	advance_on_keypress_ZEE	148	stimuli_target_trianglerectangles.svg	stimuli_distractor_diamondtriangles.svg	21	yes	57	0	81	0	0			0	0			1				0	
6.6.1	win	2023-06-26	23:40:20	23:52:02	697553	64139e0346c4b91651b69d44	3	1	main_z	11	main_z	149	stimuli_target_diamondrectangles.svg	stimuli_distractor_trianglediamonds.svg	19	yes	44	1	475	0	0			0	0			1				0	
6.6.1	win	2023-06-26	23:40:20	23:52:02	697553	64139e0346c4b91651b69d44	3	1	main_z	11	advance_on_keypress_ZEE	150	stimuli_target_diamondrectangles.svg	stimuli_distractor_trianglediamonds.svg	19	yes	57	0	104	0	0			0	0			1				0	
6.6.1	win	2023-06-26	23:40:20	23:52:04	700294	64139e0346c4b91651b69d44	3	1	main_z	11	main_z	151	stimuli_distractor_trianglediamonds.svg	stimuli_distractor_trianglediamonds.svg	33	no	0	1	2000	0	0			0	0			1				0	
6.6.1	win	2023-06-26	23:40:20	23:52:04	700294	64139e0346c4b91651b69d44	3	1	main_z	11	advance_on_keypress_ZEE	152	stimuli_distractor_trianglediamonds.svg	stimuli_distractor_trianglediamonds.svg	33	no	57	0	441	0	0			0	0			1				0	
6.6.1	win	2023-06-26	23:40:20	23:52:06	701896	64139e0346c4b91651b69d44	3	1	main_z	11	main_z	153	stimuli_distractor_trianglediamonds.svg	stimuli_target_trianglerectangles.svg	25	yes	44	1	518	0	0			0	0			1				0	
6.6.1	win	2023-06-26	23:40:20	23:52:06	701896	64139e0346c4b91651b69d44	3	1	main_z	11	advance_on_keypress_ZEE	154	stimuli_distractor_trianglediamonds.svg	stimuli_target_trianglerectangles.svg	25	yes	57	0	97	0	0			0	0			1				0	
6.6.1	win	2023-06-26	23:40:20	23:52:07	703176	64139e0346c4b91651b69d44	3	1	main_z	11	main_z	155	stimuli_distractor_diamondtriangles.svg	stimuli_target_trianglesquares.svg	30	yes	44	1	532	0	0			0	0			1				0	
6.6.1	win	2023-06-26	23:40:20	23:52:07	703176	64139e0346c4b91651b69d44	3	1	main_z	11	advance_on_keypress_ZEE	156	stimuli_distractor_diamondtriangles.svg	stimuli_target_trianglesquares.svg	30	yes	57	0	75	0	0			0	0			1				0	
6.6.1	win	2023-06-26	23:40:20	23:52:09	704442	64139e0346c4b91651b69d44	3	1	main_z	11	main_z	157	stimuli_distractor_trianglediamonds.svg	stimuli_target_squaretriangles.svg	11	yes	44	1	549	0	0			0	0			1				0	
6.6.1	win	2023-06-26	23:40:20	23:52:09	704442	64139e0346c4b91651b69d44	3	1	main_z	11	advance_on_keypress_ZEE	158	stimuli_distractor_trianglediamonds.svg	stimuli_target_squaretriangles.svg	11	yes	57	0	85	0	0			0	0			1				0	
6.6.1	win	2023-06-26	23:40:20	23:52:10	706185	64139e0346c4b91651b69d44	3	1	main_z	11	main_z	159	stimuli_distractor_diamondtriangles.svg	stimuli_target_rectanglediamonds.svg	14	yes	44	1	1008	0	0			0	0			1				0	
6.6.1	win	2023-06-26	23:40:20	23:52:10	706185	64139e0346c4b91651b69d44	3	1	main_z	11	advance_on_keypress_ZEE	160	stimuli_distractor_diamondtriangles.svg	stimuli_target_rectanglediamonds.svg	14	yes	57	0	108	0	0			0	0			1				0	
6.6.1	win	2023-06-26	23:40:20	23:52:10	706185	64139e0346c4b91651b69d44	3	1	headphonecheck_calibration	14	headphonecheck_calibrationIntro	1	stimuli_distractor_diamondtriangles.svg	stimuli_target_rectanglediamonds.svg	14	yes	calibrationButton	0	2427	0	0			0	0			1				0	
6.6.1	win	2023-06-26	23:40:20	23:52:10	706185	64139e0346c4b91651b69d44	3	1	headphonecheck_testphase	15	test_collectResponse	3	stimuli_distractor_diamondtriangles.svg	stimuli_target_rectanglediamonds.svg	14	yes	third	0	17567	1	4	antiphase_hc_sio.wav	1	0	0			1				0	
6.6.1	win	2023-06-26	23:40:20	23:52:10	706185	64139e0346c4b91651b69d44	3	1	headphonecheck_testphase	15	test_collectResponse	6	stimuli_distractor_diamondtriangles.svg	stimuli_target_rectanglediamonds.svg	14	yes	third	0	13465	2	1	antiphase_hc_iso.wav	2	0	0			1				0	
6.6.1	win	2023-06-26	23:40:20	23:52:10	706185	64139e0346c4b91651b69d44	3	1	headphonecheck_testphase	15	test_collectResponse	9	stimuli_distractor_diamondtriangles.svg	stimuli_target_rectanglediamonds.svg	14	yes	first	0	300	3	6	antiphase_hc_ois.wav	3	0	0			1				0	
6.6.1	win	2023-06-26	23:40:20	23:52:10	706185	64139e0346c4b91651b69d44	3	1	headphonecheck_testphase	15	test_collectResponse	12	stimuli_distractor_diamondtriangles.svg	stimuli_target_rectanglediamonds.svg	14	yes	second	0	1331	4	3	antiphase_hc_soi.wav	1	0	0			1				0	
6.6.1	win	2023-06-26	23:40:20	23:52:10	706185	64139e0346c4b91651b69d44	3	1	headphonecheck_testphase	15	test_collectResponse	15	stimuli_distractor_diamondtriangles.svg	stimuli_target_rectanglediamonds.svg	14	yes	first	0	1341	5	5	antiphase_hc_osi.wav	2	0	0			1				0	
6.6.1	win	2023-06-26	23:40:20	23:52:10	706185	64139e0346c4b91651b69d44	3	1	headphonecheck_testphase	15	test_collectResponse	18	stimuli_distractor_diamondtriangles.svg	stimuli_target_rectanglediamonds.svg	14	yes	second	0	449	6	2	antiphase_hc_ios.wav	3	0	0			1				0	
6.6.1	win	2023-06-26	23:40:20	23:52:10	706185	64139e0346c4b91651b69d44	3	1	stereocheck_calibration	17	stereocheck_calibrationIntro	1	stimuli_distractor_diamondtriangles.svg	stimuli_target_rectanglediamonds.svg	14	yes	stereocheck_calibrationButton	0	7067	6	2	antiphase_hc_ios.wav	3	0	0			1				0	
6.6.1	win	2023-06-26	23:40:20	23:52:10	706185	64139e0346c4b91651b69d44	3	1	stereocheck_testphase	18	stereocheck_test_collectResponse	3	stimuli_distractor_diamondtriangles.svg	stimuli_target_rectanglediamonds.svg	14	yes	stereocheck_left	0	6550	6	2	antiphase_hc_ios.wav	3	1	5	noise_calib_stim_RIGHT.wav	2	1				0	
6.6.1	win	2023-06-26	23:40:20	23:52:10	706185	64139e0346c4b91651b69d44	3	1	stereocheck_testphase	18	stereocheck_test_collectResponse	6	stimuli_distractor_diamondtriangles.svg	stimuli_target_rectanglediamonds.svg	14	yes	stereocheck_left	1	891	6	2	antiphase_hc_ios.wav	3	2	1	noise_calib_stim_LEFT.wav	1	1				0	
6.6.1	win	2023-06-26	23:40:20	23:52:10	706185	64139e0346c4b91651b69d44	3	1	stereocheck_testphase	18	stereocheck_test_collectResponse	9	stimuli_distractor_diamondtriangles.svg	stimuli_target_rectanglediamonds.svg	14	yes	stereocheck_left	1	467	6	2	antiphase_hc_ios.wav	3	3	2	noise_calib_stim_LEFT.wav	1	1				0	
6.6.1	win	2023-06-26	23:40:20	23:52:10	706185	64139e0346c4b91651b69d44	3	1	stereocheck_testphase	18	stereocheck_test_collectResponse	12	stimuli_distractor_diamondtriangles.svg	stimuli_target_rectanglediamonds.svg	14	yes	stereocheck_right	1	405	6	2	antiphase_hc_ios.wav	3	4	4	noise_calib_stim_RIGHT.wav	2	1				0	
6.6.1	win	2023-06-26	23:40:20	23:52:10	706185	64139e0346c4b91651b69d44	3	1	stereocheck_testphase	18	stereocheck_test_collectResponse	15	stimuli_distractor_diamondtriangles.svg	stimuli_target_rectanglediamonds.svg	14	yes	stereocheck_right	1	334	6	2	antiphase_hc_ios.wav	3	5	6	noise_calib_stim_RIGHT.wav	2	1				0	
6.6.1	win	2023-06-26	23:40:20	23:52:10	706185	64139e0346c4b91651b69d44	3	1	stereocheck_testphase	18	stereocheck_test_collectResponse	18	stimuli_distractor_diamondtriangles.svg	stimuli_target_rectanglediamonds.svg	14	yes	stereocheck_left	1	1360	6	2	antiphase_hc_ios.wav	3	6	3	noise_calib_stim_LEFT.wav	1	1				0	
6.6.1	win	2023-06-26	23:40:20	23:52:10	706185	64139e0346c4b91651b69d44	3	1	DL_practice	21	DL_practice	2	stimuli_distractor_diamondtriangles.svg	stimuli_target_rectanglediamonds.svg	14	yes	ta	1	1614	6	2	antiphase_hc_ios.wav	3	6	3	noise_calib_stim_LEFT.wav	1	36	blb_dichoticlistening_ta-ta.mp3	ta	ta	0	left
6.6.1	win	2023-06-26	23:40:20	23:52:10	706185	64139e0346c4b91651b69d44	3	1	DL_practice	21	DL_practice	3	stimuli_distractor_diamondtriangles.svg	stimuli_target_rectanglediamonds.svg	14	yes	pa	1	2097	6	2	antiphase_hc_ios.wav	3	6	3	noise_calib_stim_LEFT.wav	1	23	blb_dichoticlistening_ka-pa.mp3	ka	pa	1	right
6.6.1	win	2023-06-26	23:40:20	23:52:10	706185	64139e0346c4b91651b69d44	3	1	DL_practice	21	DL_practice	4	stimuli_distractor_diamondtriangles.svg	stimuli_target_rectanglediamonds.svg	14	yes	da	1	2166	6	2	antiphase_hc_ios.wav	3	6	3	noise_calib_stim_LEFT.wav	1	8	blb_dichoticlistening_da-da.mp3	da	da	0	left
6.6.1	win	2023-06-26	23:40:20	23:52:10	706185	64139e0346c4b91651b69d44	3	1	DL_practice	21	DL_practice	5	stimuli_distractor_diamondtriangles.svg	stimuli_target_rectanglediamonds.svg	14	yes	ga	1	1022	6	2	antiphase_hc_ios.wav	3	6	3	noise_calib_stim_LEFT.wav	1	18	blb_dichoticlistening_ga-ta.mp3	ga	ta	1	left
6.6.1	win	2023-06-26	23:40:20	23:52:10	706185	64139e0346c4b91651b69d44	3	1	DL_practice	21	DL_practice	6	stimuli_distractor_diamondtriangles.svg	stimuli_target_rectanglediamonds.svg	14	yes	ga	1	892	6	2	antiphase_hc_ios.wav	3	6	3	noise_calib_stim_LEFT.wav	1	15	blb_dichoticlistening_ga-ga.mp3	ga	ga	0	left
6.6.1	win	2023-06-26	23:40:20	23:52:10	706185	64139e0346c4b91651b69d44	3	1	DL_practice	21	DL_practice	7	stimuli_distractor_diamondtriangles.svg	stimuli_target_rectanglediamonds.svg	14	yes	pa	1	1256	6	2	antiphase_hc_ios.wav	3	6	3	noise_calib_stim_LEFT.wav	1	29	blb_dichoticlistening_pa-pa.mp3	pa	pa	0	left
6.6.1	win	2023-06-26	23:40:20	23:52:10	706185	64139e0346c4b91651b69d44	3	1	DL_practice	21	DL_practice	8	stimuli_distractor_diamondtriangles.svg	stimuli_target_rectanglediamonds.svg	14	yes	ba	1	1359	6	2	antiphase_hc_ios.wav	3	6	3	noise_calib_stim_LEFT.wav	1	1	blb_dichoticlistening_ba-ba.mp3	ba	ba	0	left
6.6.1	win	2023-06-26	23:40:20	23:52:10	706185	64139e0346c4b91651b69d44	3	1	DL_practice	21	DL_practice	9	stimuli_distractor_diamondtriangles.svg	stimuli_target_rectanglediamonds.svg	14	yes	ka	1	1133	6	2	antiphase_hc_ios.wav	3	6	3	noise_calib_stim_LEFT.wav	1	22	blb_dichoticlistening_ka-ka.mp3	ka	ka	0	left
6.6.1	win	2023-06-26	23:40:20	23:52:10	706185	64139e0346c4b91651b69d44	3	1	DL_practice	21	DL_practice	10	stimuli_distractor_diamondtriangles.svg	stimuli_target_rectanglediamonds.svg	14	yes	da	1	854	6	2	antiphase_hc_ios.wav	3	6	3	noise_calib_stim_LEFT.wav	1	7	blb_dichoticlistening_da-ba.mp3	da	ba	1	left
6.6.1	win	2023-06-26	23:40:20	23:52:10	706185	64139e0346c4b91651b69d44	3	1	DL_test	23	DL_test	1	stimuli_distractor_diamondtriangles.svg	stimuli_target_rectanglediamonds.svg	14	yes	pa	1	2184	6	2	antiphase_hc_ios.wav	3	6	3	noise_calib_stim_LEFT.wav	1	11	blb_dichoticlistening_da-pa.mp3	da	pa	1	right
6.6.1	win	2023-06-26	23:40:20	23:52:10	706185	64139e0346c4b91651b69d44	3	1	DL_test	23	DL_test	2	stimuli_distractor_diamondtriangles.svg	stimuli_target_rectanglediamonds.svg	14	yes	pa	0	1136	6	2	antiphase_hc_ios.wav	3	6	3	noise_calib_stim_LEFT.wav	1	20	blb_dichoticlistening_ka-da.mp3	ka	da	1	other
6.6.1	win	2023-06-26	23:40:20	23:52:10	706185	64139e0346c4b91651b69d44	3	1	DL_test	23	DL_test	3	stimuli_distractor_diamondtriangles.svg	stimuli_target_rectanglediamonds.svg	14	yes	ga	1	1018	6	2	antiphase_hc_ios.wav	3	6	3	noise_calib_stim_LEFT.wav	1	9	blb_dichoticlistening_da-ga.mp3	da	ga	1	right
6.6.1	win	2023-06-26	23:40:20	23:52:10	706185	64139e0346c4b91651b69d44	3	1	DL_test	23	DL_test	4	stimuli_distractor_diamondtriangles.svg	stimuli_target_rectanglediamonds.svg	14	yes	ka	1	1499	6	2	antiphase_hc_ios.wav	3	6	3	noise_calib_stim_LEFT.wav	1	4	blb_dichoticlistening_ba-ka.mp3	ba	ka	1	right
6.6.1	win	2023-06-26	23:40:20	23:52:10	706185	64139e0346c4b91651b69d44	3	1	DL_test	23	DL_test	5	stimuli_distractor_diamondtriangles.svg	stimuli_target_rectanglediamonds.svg	14	yes	da	1	856	6	2	antiphase_hc_ios.wav	3	6	3	noise_calib_stim_LEFT.wav	1	7	blb_dichoticlistening_da-ba.mp3	da	ba	1	left
6.6.1	win	2023-06-26	23:40:20	23:52:10	706185	64139e0346c4b91651b69d44	3	1	DL_test	23	DL_test	6	stimuli_distractor_diamondtriangles.svg	stimuli_target_rectanglediamonds.svg	14	yes	da	1	1084	6	2	antiphase_hc_ios.wav	3	6	3	noise_calib_stim_LEFT.wav	1	32	blb_dichoticlistening_ta-da.mp3	ta	da	1	right
6.6.1	win	2023-06-26	23:40:20	23:52:10	706185	64139e0346c4b91651b69d44	3	1	DL_test	23	DL_test	7	stimuli_distractor_diamondtriangles.svg	stimuli_target_rectanglediamonds.svg	14	yes	da	0	697	6	2	antiphase_hc_ios.wav	3	6	3	noise_calib_stim_LEFT.wav	1	31	blb_dichoticlistening_ta-ba.mp3	ta	ba	1	other
6.6.1	win	2023-06-26	23:40:20	23:52:10	706185	64139e0346c4b91651b69d44	3	1	DL_test	23	DL_test	8	stimuli_distractor_diamondtriangles.svg	stimuli_target_rectanglediamonds.svg	14	yes	ga	1	1394	6	2	antiphase_hc_ios.wav	3	6	3	noise_calib_stim_LEFT.wav	1	15	blb_dichoticlistening_ga-ga.mp3	ga	ga	0	left
6.6.1	win	2023-06-26	23:40:20	23:52:10	706185	64139e0346c4b91651b69d44	3	1	DL_test	23	DL_test	9	stimuli_distractor_diamondtriangles.svg	stimuli_target_rectanglediamonds.svg	14	yes	ta	1	2195	6	2	antiphase_hc_ios.wav	3	6	3	noise_calib_stim_LEFT.wav	1	6	blb_dichoticlistening_ba-ta.mp3	ba	ta	1	right
6.6.1	win	2023-06-26	23:40:20	23:52:10	706185	64139e0346c4b91651b69d44	3	1	DL_test	23	DL_test	10	stimuli_distractor_diamondtriangles.svg	stimuli_target_rectanglediamonds.svg	14	yes	da	1	940	6	2	antiphase_hc_ios.wav	3	6	3	noise_calib_stim_LEFT.wav	1	14	blb_dichoticlistening_ga-da.mp3	ga	da	1	right
6.6.1	win	2023-06-26	23:40:20	23:52:10	706185	64139e0346c4b91651b69d44	3	1	DL_test	23	DL_test	11	stimuli_distractor_diamondtriangles.svg	stimuli_target_rectanglediamonds.svg	14	yes	pa	1	1470	6	2	antiphase_hc_ios.wav	3	6	3	noise_calib_stim_LEFT.wav	1	26	blb_dichoticlistening_pa-da.mp3	pa	da	1	left
6.6.1	win	2023-06-26	23:40:20	23:52:10	706185	64139e0346c4b91651b69d44	3	1	DL_test	23	DL_test	12	stimuli_distractor_diamondtriangles.svg	stimuli_target_rectanglediamonds.svg	14	yes	ka	1	1675	6	2	antiphase_hc_ios.wav	3	6	3	noise_calib_stim_LEFT.wav	1	21	blb_dichoticlistening_ka-ga.mp3	ka	ga	1	left
6.6.1	win	2023-06-26	23:40:20	23:52:10	706185	64139e0346c4b91651b69d44	3	1	DL_test	23	DL_test	13	stimuli_distractor_diamondtriangles.svg	stimuli_target_rectanglediamonds.svg	14	yes	pa	1	1297	6	2	antiphase_hc_ios.wav	3	6	3	noise_calib_stim_LEFT.wav	1	30	blb_dichoticlistening_pa-ta.mp3	pa	ta	1	left
6.6.1	win	2023-06-26	23:40:20	23:52:10	706185	64139e0346c4b91651b69d44	3	1	DL_test	23	DL_test	14	stimuli_distractor_diamondtriangles.svg	stimuli_target_rectanglediamonds.svg	14	yes	ka	0	1077	6	2	antiphase_hc_ios.wav	3	6	3	noise_calib_stim_LEFT.wav	1	36	blb_dichoticlistening_ta-ta.mp3	ta	ta	0	other
6.6.1	win	2023-06-26	23:40:20	23:52:10	706185	64139e0346c4b91651b69d44	3	1	DL_test	23	DL_test	15	stimuli_distractor_diamondtriangles.svg	stimuli_target_rectanglediamonds.svg	14	yes	ga	1	1281	6	2	antiphase_hc_ios.wav	3	6	3	noise_calib_stim_LEFT.wav	1	33	blb_dichoticlistening_ta-ga.mp3	ta	ga	1	right
6.6.1	win	2023-06-26	23:40:20	23:52:10	706185	64139e0346c4b91651b69d44	3	1	DL_test	23	DL_test	16	stimuli_distractor_diamondtriangles.svg	stimuli_target_rectanglediamonds.svg	14	yes	ta	1	1407	6	2	antiphase_hc_ios.wav	3	6	3	noise_calib_stim_LEFT.wav	1	24	blb_dichoticlistening_ka-ta.mp3	ka	ta	1	right
6.6.1	win	2023-06-26	23:40:20	23:52:10	706185	64139e0346c4b91651b69d44	3	1	DL_test	23	DL_test	17	stimuli_distractor_diamondtriangles.svg	stimuli_target_rectanglediamonds.svg	14	yes	pa	1	943	6	2	antiphase_hc_ios.wav	3	6	3	noise_calib_stim_LEFT.wav	1	25	blb_dichoticlistening_pa-ba.mp3	pa	ba	1	left
6.6.1	win	2023-06-26	23:40:20	23:52:10	706185	64139e0346c4b91651b69d44	3	1	DL_test	23	DL_test	18	stimuli_distractor_diamondtriangles.svg	stimuli_target_rectanglediamonds.svg	14	yes	ka	1	790	6	2	antiphase_hc_ios.wav	3	6	3	noise_calib_stim_LEFT.wav	1	16	blb_dichoticlistening_ga-ka.mp3	ga	ka	1	right
6.6.1	win	2023-06-26	23:40:20	23:52:10	706185	64139e0346c4b91651b69d44	3	1	DL_test	23	DL_test	19	stimuli_distractor_diamondtriangles.svg	stimuli_target_rectanglediamonds.svg	14	yes	pa	1	1126	6	2	antiphase_hc_ios.wav	3	6	3	noise_calib_stim_LEFT.wav	1	17	blb_dichoticlistening_ga-pa.mp3	ga	pa	1	right
6.6.1	win	2023-06-26	23:40:20	23:52:10	706185	64139e0346c4b91651b69d44	3	1	DL_test	23	DL_test	20	stimuli_distractor_diamondtriangles.svg	stimuli_target_rectanglediamonds.svg	14	yes	ka	1	977	6	2	antiphase_hc_ios.wav	3	6	3	noise_calib_stim_LEFT.wav	1	34	blb_dichoticlistening_ta-ka.mp3	ta	ka	1	right
6.6.1	win	2023-06-26	23:40:20	23:52:10	706185	64139e0346c4b91651b69d44	3	1	DL_test	23	DL_test	21	stimuli_distractor_diamondtriangles.svg	stimuli_target_rectanglediamonds.svg	14	yes	pa	1	2861	6	2	antiphase_hc_ios.wav	3	6	3	noise_calib_stim_LEFT.wav	1	27	blb_dichoticlistening_pa-ga.mp3	pa	ga	1	left
6.6.1	win	2023-06-26	23:40:20	23:52:10	706185	64139e0346c4b91651b69d44	3	1	DL_test	23	DL_test	22	stimuli_distractor_diamondtriangles.svg	stimuli_target_rectanglediamonds.svg	14	yes	ga	1	2964	6	2	antiphase_hc_ios.wav	3	6	3	noise_calib_stim_LEFT.wav	1	3	blb_dichoticlistening_ba-ga.mp3	ba	ga	1	right
6.6.1	win	2023-06-26	23:40:20	23:52:10	706185	64139e0346c4b91651b69d44	3	1	DL_test	23	DL_test	23	stimuli_distractor_diamondtriangles.svg	stimuli_target_rectanglediamonds.svg	14	yes	pa	1	2239	6	2	antiphase_hc_ios.wav	3	6	3	noise_calib_stim_LEFT.wav	1	35	blb_dichoticlistening_ta-pa.mp3	ta	pa	1	right
6.6.1	win	2023-06-26	23:40:20	23:52:10	706185	64139e0346c4b91651b69d44	3	1	DL_test	23	DL_test	24	stimuli_distractor_diamondtriangles.svg	stimuli_target_rectanglediamonds.svg	14	yes	ta	1	2399	6	2	antiphase_hc_ios.wav	3	6	3	noise_calib_stim_LEFT.wav	1	12	blb_dichoticlistening_da-ta.mp3	da	ta	1	right
6.6.1	win	2023-06-26	23:40:20	23:52:10	706185	64139e0346c4b91651b69d44	3	1	DL_test	23	DL_test	25	stimuli_distractor_diamondtriangles.svg	stimuli_target_rectanglediamonds.svg	14	yes	ba	1	1057	6	2	antiphase_hc_ios.wav	3	6	3	noise_calib_stim_LEFT.wav	1	1	blb_dichoticlistening_ba-ba.mp3	ba	ba	0	left
6.6.1	win	2023-06-26	23:40:20	23:52:10	706185	64139e0346c4b91651b69d44	3	1	DL_test	23	DL_test	26	stimuli_distractor_diamondtriangles.svg	stimuli_target_rectanglediamonds.svg	14	yes	da	1	1535	6	2	antiphase_hc_ios.wav	3	6	3	noise_calib_stim_LEFT.wav	1	8	blb_dichoticlistening_da-da.mp3	da	da	0	left
