build	computer.platform	date	time	timestamp	time_elapsed_ms	subject	group	session	blockcode	blocknum	trialcode	trialnum	stimulus_left	stimulus_right	stim_index	target_present	response	correct	latency	headphonecheck_countTestTrials	headphonecheck_index	headphonecheck_testSound	headphonecheck_correctResponse	stereocheck_countTestTrials	stereocheck_index	stereocheck_testSound	stereocheck_correctResponse	DL_index	DL_soundfile	DL_leftSound	DL_rightSound	DL_dualSound	DL_choice
6.6.1	win	2023-06-27	13:10:48	0	0	5e41723aade7c2000b4c14f8	1	1	headphonecheck_calibration	4	headphonecheck_calibrationIntro	1			0		calibrationButton	0	3660	0	0			0	0			1				0	
6.6.1	win	2023-06-27	13:10:48	0	0	5e41723aade7c2000b4c14f8	1	1	headphonecheck_testphase	5	test_collectResponse	3			0		first	1	4713	1	3	antiphase_hc_soi.wav	1	0	0			1				0	
6.6.1	win	2023-06-27	13:10:48	0	0	5e41723aade7c2000b4c14f8	1	1	headphonecheck_testphase	5	test_collectResponse	6			0		first	1	614	2	4	antiphase_hc_sio.wav	1	0	0			1				0	
6.6.1	win	2023-06-27	13:10:48	0	0	5e41723aade7c2000b4c14f8	1	1	headphonecheck_testphase	5	test_collectResponse	9			0		second	1	564	3	1	antiphase_hc_iso.wav	2	0	0			1				0	
6.6.1	win	2023-06-27	13:10:48	0	0	5e41723aade7c2000b4c14f8	1	1	headphonecheck_testphase	5	test_collectResponse	12			0		second	0	865	4	2	antiphase_hc_ios.wav	3	0	0			1				0	
6.6.1	win	2023-06-27	13:10:48	0	0	5e41723aade7c2000b4c14f8	1	1	headphonecheck_testphase	5	test_collectResponse	15			0		third	1	399	5	6	antiphase_hc_ois.wav	3	0	0			1				0	
6.6.1	win	2023-06-27	13:10:48	0	0	5e41723aade7c2000b4c14f8	1	1	headphonecheck_testphase	5	test_collectResponse	18			0		second	1	335	6	5	antiphase_hc_osi.wav	2	0	0			1				0	
6.6.1	win	2023-06-27	13:10:48	0	0	5e41723aade7c2000b4c14f8	1	1	stereocheck_calibration	7	stereocheck_calibrationIntro	1			0		stereocheck_calibrationButton	0	11041	6	5	antiphase_hc_osi.wav	2	0	0			1				0	
6.6.1	win	2023-06-27	13:10:48	0	0	5e41723aade7c2000b4c14f8	1	1	stereocheck_testphase	8	stereocheck_test_collectResponse	3			0		stereocheck_right	1	490	6	5	antiphase_hc_osi.wav	2	1	4	noise_calib_stim_RIGHT.wav	2	1				0	
6.6.1	win	2023-06-27	13:10:48	0	0	5e41723aade7c2000b4c14f8	1	1	stereocheck_testphase	8	stereocheck_test_collectResponse	6			0		stereocheck_right	1	699	6	5	antiphase_hc_osi.wav	2	2	5	noise_calib_stim_RIGHT.wav	2	1				0	
6.6.1	win	2023-06-27	13:10:48	0	0	5e41723aade7c2000b4c14f8	1	1	stereocheck_testphase	8	stereocheck_test_collectResponse	9			0		stereocheck_right	1	583	6	5	antiphase_hc_osi.wav	2	3	6	noise_calib_stim_RIGHT.wav	2	1				0	
6.6.1	win	2023-06-27	13:10:48	0	0	5e41723aade7c2000b4c14f8	1	1	stereocheck_testphase	8	stereocheck_test_collectResponse	12			0		stereocheck_left	1	307	6	5	antiphase_hc_osi.wav	2	4	2	noise_calib_stim_LEFT.wav	1	1				0	
6.6.1	win	2023-06-27	13:10:48	0	0	5e41723aade7c2000b4c14f8	1	1	stereocheck_testphase	8	stereocheck_test_collectResponse	15			0		stereocheck_left	1	380	6	5	antiphase_hc_osi.wav	2	5	3	noise_calib_stim_LEFT.wav	1	1				0	
6.6.1	win	2023-06-27	13:10:48	0	0	5e41723aade7c2000b4c14f8	1	1	stereocheck_testphase	8	stereocheck_test_collectResponse	18			0		stereocheck_left	1	357	6	5	antiphase_hc_osi.wav	2	6	1	noise_calib_stim_LEFT.wav	1	1				0	
6.6.1	win	2023-06-27	13:10:48	0	0	5e41723aade7c2000b4c14f8	1	1	DL_practice	11	DL_practice	2			0		ka	1	1331	6	5	antiphase_hc_osi.wav	2	6	1	noise_calib_stim_LEFT.wav	1	22	blb_dichoticlistening_ka-ka.mp3	ka	ka	0	left
6.6.1	win	2023-06-27	13:10:48	0	0	5e41723aade7c2000b4c14f8	1	1	DL_practice	11	DL_practice	3			0		ta	1	1136	6	5	antiphase_hc_osi.wav	2	6	1	noise_calib_stim_LEFT.wav	1	36	blb_dichoticlistening_ta-ta.mp3	ta	ta	0	left
6.6.1	win	2023-06-27	13:10:48	0	0	5e41723aade7c2000b4c14f8	1	1	DL_practice	11	DL_practice	4			0		pa	1	1141	6	5	antiphase_hc_osi.wav	2	6	1	noise_calib_stim_LEFT.wav	1	29	blb_dichoticlistening_pa-pa.mp3	pa	pa	0	left
6.6.1	win	2023-06-27	13:10:48	0	0	5e41723aade7c2000b4c14f8	1	1	DL_practice	11	DL_practice	5			0		pa	1	1623	6	5	antiphase_hc_osi.wav	2	6	1	noise_calib_stim_LEFT.wav	1	23	blb_dichoticlistening_ka-pa.mp3	ka	pa	1	right
6.6.1	win	2023-06-27	13:10:48	0	0	5e41723aade7c2000b4c14f8	1	1	DL_practice	11	DL_practice	6			0		ba	1	2445	6	5	antiphase_hc_osi.wav	2	6	1	noise_calib_stim_LEFT.wav	1	7	blb_dichoticlistening_da-ba.mp3	da	ba	1	right
6.6.1	win	2023-06-27	13:10:48	0	0	5e41723aade7c2000b4c14f8	1	1	DL_practice	11	DL_practice	7			0		da	0	925	6	5	antiphase_hc_osi.wav	2	6	1	noise_calib_stim_LEFT.wav	1	15	blb_dichoticlistening_ga-ga.mp3	ga	ga	0	other
6.6.1	win	2023-06-27	13:10:48	0	0	5e41723aade7c2000b4c14f8	1	1	DL_practice	11	DL_practice	8			0		da	1	2316	6	5	antiphase_hc_osi.wav	2	6	1	noise_calib_stim_LEFT.wav	1	8	blb_dichoticlistening_da-da.mp3	da	da	0	left
6.6.1	win	2023-06-27	13:10:48	0	0	5e41723aade7c2000b4c14f8	1	1	DL_practice	11	DL_practice	9			0		ba	1	952	6	5	antiphase_hc_osi.wav	2	6	1	noise_calib_stim_LEFT.wav	1	1	blb_dichoticlistening_ba-ba.mp3	ba	ba	0	left
6.6.1	win	2023-06-27	13:10:48	0	0	5e41723aade7c2000b4c14f8	1	1	DL_practice	11	DL_practice	10			0		ba	0	2177	6	5	antiphase_hc_osi.wav	2	6	1	noise_calib_stim_LEFT.wav	1	18	blb_dichoticlistening_ga-ta.mp3	ga	ta	1	other
6.6.1	win	2023-06-27	13:10:48	0	0	5e41723aade7c2000b4c14f8	1	1	DL_test	13	DL_test	1			0		ka	1	1174	6	5	antiphase_hc_osi.wav	2	6	1	noise_calib_stim_LEFT.wav	1	22	blb_dichoticlistening_ka-ka.mp3	ka	ka	0	left
6.6.1	win	2023-06-27	13:10:48	0	0	5e41723aade7c2000b4c14f8	1	1	DL_test	13	DL_test	2			0		ga	1	1322	6	5	antiphase_hc_osi.wav	2	6	1	noise_calib_stim_LEFT.wav	1	16	blb_dichoticlistening_ga-ka.mp3	ga	ka	1	left
6.6.1	win	2023-06-27	13:10:48	0	0	5e41723aade7c2000b4c14f8	1	1	DL_test	13	DL_test	3			0		ta	1	1103	6	5	antiphase_hc_osi.wav	2	6	1	noise_calib_stim_LEFT.wav	1	30	blb_dichoticlistening_pa-ta.mp3	pa	ta	1	right
6.6.1	win	2023-06-27	13:10:48	0	0	5e41723aade7c2000b4c14f8	1	1	DL_test	13	DL_test	4			0		ta	1	1014	6	5	antiphase_hc_osi.wav	2	6	1	noise_calib_stim_LEFT.wav	1	36	blb_dichoticlistening_ta-ta.mp3	ta	ta	0	left
6.6.1	win	2023-06-27	13:10:48	0	0	5e41723aade7c2000b4c14f8	1	1	DL_test	13	DL_test	5			0		da	1	1307	6	5	antiphase_hc_osi.wav	2	6	1	noise_calib_stim_LEFT.wav	1	32	blb_dichoticlistening_ta-da.mp3	ta	da	1	right
6.6.1	win	2023-06-27	13:10:48	0	0	5e41723aade7c2000b4c14f8	1	1	DL_test	13	DL_test	6			0		da	1	1327	6	5	antiphase_hc_osi.wav	2	6	1	noise_calib_stim_LEFT.wav	1	26	blb_dichoticlistening_pa-da.mp3	pa	da	1	right
6.6.1	win	2023-06-27	13:10:48	0	0	5e41723aade7c2000b4c14f8	1	1	DL_test	13	DL_test	7			0		pa	0	1062	6	5	antiphase_hc_osi.wav	2	6	1	noise_calib_stim_LEFT.wav	1	31	blb_dichoticlistening_ta-ba.mp3	ta	ba	1	other
6.6.1	win	2023-06-27	13:10:48	0	0	5e41723aade7c2000b4c14f8	1	1	DL_test	13	DL_test	8			0		pa	1	1365	6	5	antiphase_hc_osi.wav	2	6	1	noise_calib_stim_LEFT.wav	1	17	blb_dichoticlistening_ga-pa.mp3	ga	pa	1	right
6.6.1	win	2023-06-27	13:10:48	0	0	5e41723aade7c2000b4c14f8	1	1	DL_test	13	DL_test	9			0		pa	1	1042	6	5	antiphase_hc_osi.wav	2	6	1	noise_calib_stim_LEFT.wav	1	29	blb_dichoticlistening_pa-pa.mp3	pa	pa	0	left
6.6.1	win	2023-06-27	13:10:48	0	0	5e41723aade7c2000b4c14f8	1	1	DL_test	13	DL_test	10			0		ta	0	1193	6	5	antiphase_hc_osi.wav	2	6	1	noise_calib_stim_LEFT.wav	1	28	blb_dichoticlistening_pa-ka.mp3	pa	ka	1	other
6.6.1	win	2023-06-27	13:10:48	0	0	5e41723aade7c2000b4c14f8	1	1	DL_test	13	DL_test	11			0		ba	1	1236	6	5	antiphase_hc_osi.wav	2	6	1	noise_calib_stim_LEFT.wav	1	13	blb_dichoticlistening_ga-ba.mp3	ga	ba	1	right
6.6.1	win	2023-06-27	13:10:48	0	0	5e41723aade7c2000b4c14f8	1	1	DL_test	13	DL_test	12			0		da	0	781	6	5	antiphase_hc_osi.wav	2	6	1	noise_calib_stim_LEFT.wav	1	15	blb_dichoticlistening_ga-ga.mp3	ga	ga	0	other
6.6.1	win	2023-06-27	13:10:48	0	0	5e41723aade7c2000b4c14f8	1	1	DL_test	13	DL_test	13			0		da	0	882	6	5	antiphase_hc_osi.wav	2	6	1	noise_calib_stim_LEFT.wav	1	21	blb_dichoticlistening_ka-ga.mp3	ka	ga	1	other
6.6.1	win	2023-06-27	13:10:48	0	0	5e41723aade7c2000b4c14f8	1	1	DL_test	13	DL_test	14			0		ta	1	1546	6	5	antiphase_hc_osi.wav	2	6	1	noise_calib_stim_LEFT.wav	1	6	blb_dichoticlistening_ba-ta.mp3	ba	ta	1	right
6.6.1	win	2023-06-27	13:10:48	0	0	5e41723aade7c2000b4c14f8	1	1	DL_test	13	DL_test	15			0		da	1	1279	6	5	antiphase_hc_osi.wav	2	6	1	noise_calib_stim_LEFT.wav	1	11	blb_dichoticlistening_da-pa.mp3	da	pa	1	left
6.6.1	win	2023-06-27	13:10:48	0	0	5e41723aade7c2000b4c14f8	1	1	DL_test	13	DL_test	16			0		da	1	798	6	5	antiphase_hc_osi.wav	2	6	1	noise_calib_stim_LEFT.wav	1	8	blb_dichoticlistening_da-da.mp3	da	da	0	left
6.6.1	win	2023-06-27	13:10:48	0	0	5e41723aade7c2000b4c14f8	1	1	DL_test	13	DL_test	17			0		pa	0	1513	6	5	antiphase_hc_osi.wav	2	6	1	noise_calib_stim_LEFT.wav	1	19	blb_dichoticlistening_ka-ba.mp3	ka	ba	1	other
6.6.1	win	2023-06-27	13:10:48	0	0	5e41723aade7c2000b4c14f8	1	1	DL_test	13	DL_test	18			0		pa	1	936	6	5	antiphase_hc_osi.wav	2	6	1	noise_calib_stim_LEFT.wav	1	5	blb_dichoticlistening_ba-pa.mp3	ba	pa	1	right
6.6.1	win	2023-06-27	13:10:48	0	0	5e41723aade7c2000b4c14f8	1	1	DL_test	13	DL_test	19			0		ka	0	3374	6	5	antiphase_hc_osi.wav	2	6	1	noise_calib_stim_LEFT.wav	1	18	blb_dichoticlistening_ga-ta.mp3	ga	ta	1	other
6.6.1	win	2023-06-27	13:10:48	0	0	5e41723aade7c2000b4c14f8	1	1	DL_test	13	DL_test	20			0		ta	1	1063	6	5	antiphase_hc_osi.wav	2	6	1	noise_calib_stim_LEFT.wav	1	24	blb_dichoticlistening_ka-ta.mp3	ka	ta	1	right
6.6.1	win	2023-06-27	13:10:48	0	0	5e41723aade7c2000b4c14f8	1	1	DL_test	13	DL_test	21			0		da	1	1560	6	5	antiphase_hc_osi.wav	2	6	1	noise_calib_stim_LEFT.wav	1	12	blb_dichoticlistening_da-ta.mp3	da	ta	1	left
6.6.1	win	2023-06-27	13:10:48	0	0	5e41723aade7c2000b4c14f8	1	1	DL_test	13	DL_test	22			0		pa	1	1590	6	5	antiphase_hc_osi.wav	2	6	1	noise_calib_stim_LEFT.wav	1	25	blb_dichoticlistening_pa-ba.mp3	pa	ba	1	left
6.6.1	win	2023-06-27	13:10:48	0	0	5e41723aade7c2000b4c14f8	1	1	DL_test	13	DL_test	23			0		da	0	1313	6	5	antiphase_hc_osi.wav	2	6	1	noise_calib_stim_LEFT.wav	1	27	blb_dichoticlistening_pa-ga.mp3	pa	ga	1	other
6.6.1	win	2023-06-27	13:10:48	0	0	5e41723aade7c2000b4c14f8	1	1	DL_test	13	DL_test	24			0		pa	1	1599	6	5	antiphase_hc_osi.wav	2	6	1	noise_calib_stim_LEFT.wav	1	35	blb_dichoticlistening_ta-pa.mp3	ta	pa	1	right
6.6.1	win	2023-06-27	13:10:48	0	0	5e41723aade7c2000b4c14f8	1	1	DL_test	13	DL_test	25			0		da	0	1521	6	5	antiphase_hc_osi.wav	2	6	1	noise_calib_stim_LEFT.wav	1	33	blb_dichoticlistening_ta-ga.mp3	ta	ga	1	other
6.6.1	win	2023-06-27	13:10:48	0	0	5e41723aade7c2000b4c14f8	1	1	DL_test	13	DL_test	26			0		da	1	760	6	5	antiphase_hc_osi.wav	2	6	1	noise_calib_stim_LEFT.wav	1	9	blb_dichoticlistening_da-ga.mp3	da	ga	1	left
6.6.1	win	2023-06-27	13:10:48	0	0	5e41723aade7c2000b4c14f8	1	1	DL_test	13	DL_test	27			0		da	1	899	6	5	antiphase_hc_osi.wav	2	6	1	noise_calib_stim_LEFT.wav	1	2	blb_dichoticlistening_ba-da.mp3	ba	da	1	right
6.6.1	win	2023-06-27	13:10:48	0	0	5e41723aade7c2000b4c14f8	1	1	DL_test	13	DL_test	28			0		ta	1	2523	6	5	antiphase_hc_osi.wav	2	6	1	noise_calib_stim_LEFT.wav	1	34	blb_dichoticlistening_ta-ka.mp3	ta	ka	1	left
6.6.1	win	2023-06-27	13:10:48	0	0	5e41723aade7c2000b4c14f8	1	1	DL_test	13	DL_test	29			0		da	1	1606	6	5	antiphase_hc_osi.wav	2	6	1	noise_calib_stim_LEFT.wav	1	14	blb_dichoticlistening_ga-da.mp3	ga	da	1	right
6.6.1	win	2023-06-27	13:10:48	0	0	5e41723aade7c2000b4c14f8	1	1	DL_test	13	DL_test	30			0		ba	1	1633	6	5	antiphase_hc_osi.wav	2	6	1	noise_calib_stim_LEFT.wav	1	1	blb_dichoticlistening_ba-ba.mp3	ba	ba	0	left
6.6.1	win	2023-06-27	13:10:48	0	0	5e41723aade7c2000b4c14f8	1	1	DL_test	13	DL_test	31			0		da	1	2051	6	5	antiphase_hc_osi.wav	2	6	1	noise_calib_stim_LEFT.wav	1	20	blb_dichoticlistening_ka-da.mp3	ka	da	1	right
6.6.1	win	2023-06-27	13:10:48	0	0	5e41723aade7c2000b4c14f8	1	1	DL_test	13	DL_test	32			0		ta	0	1777	6	5	antiphase_hc_osi.wav	2	6	1	noise_calib_stim_LEFT.wav	1	3	blb_dichoticlistening_ba-ga.mp3	ba	ga	1	other
6.6.1	win	2023-06-27	13:10:48	0	0	5e41723aade7c2000b4c14f8	1	1	DL_test	13	DL_test	33			0		pa	0	1567	6	5	antiphase_hc_osi.wav	2	6	1	noise_calib_stim_LEFT.wav	1	4	blb_dichoticlistening_ba-ka.mp3	ba	ka	1	other
6.6.1	win	2023-06-27	13:10:48	0	0	5e41723aade7c2000b4c14f8	1	1	DL_test	13	DL_test	34			0		pa	1	1399	6	5	antiphase_hc_osi.wav	2	6	1	noise_calib_stim_LEFT.wav	1	23	blb_dichoticlistening_ka-pa.mp3	ka	pa	1	right
6.6.1	win	2023-06-27	13:10:48	0	0	5e41723aade7c2000b4c14f8	1	1	DL_test	13	DL_test	35			0		ba	1	1322	6	5	antiphase_hc_osi.wav	2	6	1	noise_calib_stim_LEFT.wav	1	7	blb_dichoticlistening_da-ba.mp3	da	ba	1	right
6.6.1	win	2023-06-27	13:10:48	0	0	5e41723aade7c2000b4c14f8	1	1	DL_test	13	DL_test	36			0		ka	1	1568	6	5	antiphase_hc_osi.wav	2	6	1	noise_calib_stim_LEFT.wav	1	10	blb_dichoticlistening_da-ka.mp3	da	ka	1	right
6.6.1	win	2023-06-27	13:10:48	0	0	5e41723aade7c2000b4c14f8	1	1	DL_test	14	DL_test	1			0		ta	0	1167	6	5	antiphase_hc_osi.wav	2	6	1	noise_calib_stim_LEFT.wav	1	10	blb_dichoticlistening_da-ka.mp3	da	ka	1	other
6.6.1	win	2023-06-27	13:10:48	0	0	5e41723aade7c2000b4c14f8	1	1	DL_test	14	DL_test	2			0		da	1	2109	6	5	antiphase_hc_osi.wav	2	6	1	noise_calib_stim_LEFT.wav	1	2	blb_dichoticlistening_ba-da.mp3	ba	da	1	right
6.6.1	win	2023-06-27	13:10:48	0	0	5e41723aade7c2000b4c14f8	1	1	DL_test	14	DL_test	3			0		ta	1	1130	6	5	antiphase_hc_osi.wav	2	6	1	noise_calib_stim_LEFT.wav	1	34	blb_dichoticlistening_ta-ka.mp3	ta	ka	1	left
6.6.1	win	2023-06-27	13:10:48	0	0	5e41723aade7c2000b4c14f8	1	1	DL_test	14	DL_test	4			0		ba	1	1144	6	5	antiphase_hc_osi.wav	2	6	1	noise_calib_stim_LEFT.wav	1	1	blb_dichoticlistening_ba-ba.mp3	ba	ba	0	left
6.6.1	win	2023-06-27	13:10:48	0	0	5e41723aade7c2000b4c14f8	1	1	DL_test	14	DL_test	5			0		pa	1	2773	6	5	antiphase_hc_osi.wav	2	6	1	noise_calib_stim_LEFT.wav	1	17	blb_dichoticlistening_ga-pa.mp3	ga	pa	1	right
6.6.1	win	2023-06-27	13:10:48	0	0	5e41723aade7c2000b4c14f8	1	1	DL_test	14	DL_test	6			0		ka	1	928	6	5	antiphase_hc_osi.wav	2	6	1	noise_calib_stim_LEFT.wav	1	23	blb_dichoticlistening_ka-pa.mp3	ka	pa	1	left
6.6.1	win	2023-06-27	13:10:48	0	0	5e41723aade7c2000b4c14f8	1	1	DL_test	14	DL_test	7			0		ka	0	1411	6	5	antiphase_hc_osi.wav	2	6	1	noise_calib_stim_LEFT.wav	1	3	blb_dichoticlistening_ba-ga.mp3	ba	ga	1	other
6.6.1	win	2023-06-27	13:10:48	0	0	5e41723aade7c2000b4c14f8	1	1	DL_test	14	DL_test	8			0		ta	1	863	6	5	antiphase_hc_osi.wav	2	6	1	noise_calib_stim_LEFT.wav	1	24	blb_dichoticlistening_ka-ta.mp3	ka	ta	1	right
6.6.1	win	2023-06-27	13:10:48	0	0	5e41723aade7c2000b4c14f8	1	1	DL_test	14	DL_test	9			0		ta	0	966	6	5	antiphase_hc_osi.wav	2	6	1	noise_calib_stim_LEFT.wav	1	28	blb_dichoticlistening_pa-ka.mp3	pa	ka	1	other
6.6.1	win	2023-06-27	13:10:48	0	0	5e41723aade7c2000b4c14f8	1	1	DL_test	14	DL_test	10			0		da	0	916	6	5	antiphase_hc_osi.wav	2	6	1	noise_calib_stim_LEFT.wav	1	21	blb_dichoticlistening_ka-ga.mp3	ka	ga	1	other
6.6.1	win	2023-06-27	13:10:48	0	0	5e41723aade7c2000b4c14f8	1	1	DL_test	14	DL_test	11			0		ta	1	1212	6	5	antiphase_hc_osi.wav	2	6	1	noise_calib_stim_LEFT.wav	1	36	blb_dichoticlistening_ta-ta.mp3	ta	ta	0	left
6.6.1	win	2023-06-27	13:10:48	0	0	5e41723aade7c2000b4c14f8	1	1	DL_test	14	DL_test	12			0		da	0	1509	6	5	antiphase_hc_osi.wav	2	6	1	noise_calib_stim_LEFT.wav	1	33	blb_dichoticlistening_ta-ga.mp3	ta	ga	1	other
6.6.1	win	2023-06-27	13:10:48	0	0	5e41723aade7c2000b4c14f8	1	1	DL_test	14	DL_test	13			0		da	1	1579	6	5	antiphase_hc_osi.wav	2	6	1	noise_calib_stim_LEFT.wav	1	12	blb_dichoticlistening_da-ta.mp3	da	ta	1	left
6.6.1	win	2023-06-27	13:10:48	0	0	5e41723aade7c2000b4c14f8	1	1	DL_test	14	DL_test	14			0		ga	0	1359	6	5	antiphase_hc_osi.wav	2	6	1	noise_calib_stim_LEFT.wav	1	6	blb_dichoticlistening_ba-ta.mp3	ba	ta	1	other
6.6.1	win	2023-06-27	13:10:48	0	0	5e41723aade7c2000b4c14f8	1	1	DL_test	14	DL_test	15			0		da	1	1116	6	5	antiphase_hc_osi.wav	2	6	1	noise_calib_stim_LEFT.wav	1	9	blb_dichoticlistening_da-ga.mp3	da	ga	1	left
6.6.1	win	2023-06-27	13:10:48	0	0	5e41723aade7c2000b4c14f8	1	1	DL_test	14	DL_test	16			0		pa	0	1787	6	5	antiphase_hc_osi.wav	2	6	1	noise_calib_stim_LEFT.wav	1	19	blb_dichoticlistening_ka-ba.mp3	ka	ba	1	other
6.6.1	win	2023-06-27	13:10:48	0	0	5e41723aade7c2000b4c14f8	1	1	DL_test	14	DL_test	17			0		ba	1	1366	6	5	antiphase_hc_osi.wav	2	6	1	noise_calib_stim_LEFT.wav	1	13	blb_dichoticlistening_ga-ba.mp3	ga	ba	1	right
6.6.1	win	2023-06-27	13:10:48	0	0	5e41723aade7c2000b4c14f8	1	1	DL_test	14	DL_test	18			0		ta	0	1834	6	5	antiphase_hc_osi.wav	2	6	1	noise_calib_stim_LEFT.wav	1	22	blb_dichoticlistening_ka-ka.mp3	ka	ka	0	other
6.6.1	win	2023-06-27	13:10:48	0	0	5e41723aade7c2000b4c14f8	1	1	DL_test	14	DL_test	19			0		da	1	1027	6	5	antiphase_hc_osi.wav	2	6	1	noise_calib_stim_LEFT.wav	1	32	blb_dichoticlistening_ta-da.mp3	ta	da	1	right
6.6.1	win	2023-06-27	13:10:48	0	0	5e41723aade7c2000b4c14f8	1	1	DL_test	14	DL_test	20			0		da	0	1171	6	5	antiphase_hc_osi.wav	2	6	1	noise_calib_stim_LEFT.wav	1	18	blb_dichoticlistening_ga-ta.mp3	ga	ta	1	other
6.6.1	win	2023-06-27	13:10:48	0	0	5e41723aade7c2000b4c14f8	1	1	DL_test	14	DL_test	21			0		pa	1	1360	6	5	antiphase_hc_osi.wav	2	6	1	noise_calib_stim_LEFT.wav	1	5	blb_dichoticlistening_ba-pa.mp3	ba	pa	1	right
6.6.1	win	2023-06-27	13:10:48	0	0	5e41723aade7c2000b4c14f8	1	1	DL_test	14	DL_test	22			0		ta	1	2349	6	5	antiphase_hc_osi.wav	2	6	1	noise_calib_stim_LEFT.wav	1	31	blb_dichoticlistening_ta-ba.mp3	ta	ba	1	left
6.6.1	win	2023-06-27	13:10:48	0	0	5e41723aade7c2000b4c14f8	1	1	DL_test	14	DL_test	23			0		ta	1	1353	6	5	antiphase_hc_osi.wav	2	6	1	noise_calib_stim_LEFT.wav	1	35	blb_dichoticlistening_ta-pa.mp3	ta	pa	1	left
6.6.1	win	2023-06-27	13:10:48	0	0	5e41723aade7c2000b4c14f8	1	1	DL_test	14	DL_test	24			0		da	0	1006	6	5	antiphase_hc_osi.wav	2	6	1	noise_calib_stim_LEFT.wav	1	15	blb_dichoticlistening_ga-ga.mp3	ga	ga	0	other
6.6.1	win	2023-06-27	13:10:48	0	0	5e41723aade7c2000b4c14f8	1	1	DL_test	14	DL_test	25			0		da	1	841	6	5	antiphase_hc_osi.wav	2	6	1	noise_calib_stim_LEFT.wav	1	26	blb_dichoticlistening_pa-da.mp3	pa	da	1	right
6.6.1	win	2023-06-27	13:10:48	0	0	5e41723aade7c2000b4c14f8	1	1	DL_test	14	DL_test	26			0		ta	1	1323	6	5	antiphase_hc_osi.wav	2	6	1	noise_calib_stim_LEFT.wav	1	30	blb_dichoticlistening_pa-ta.mp3	pa	ta	1	right
6.6.1	win	2023-06-27	13:10:48	0	0	5e41723aade7c2000b4c14f8	1	1	DL_test	14	DL_test	27			0		da	0	1449	6	5	antiphase_hc_osi.wav	2	6	1	noise_calib_stim_LEFT.wav	1	27	blb_dichoticlistening_pa-ga.mp3	pa	ga	1	other
6.6.1	win	2023-06-27	13:10:48	0	0	5e41723aade7c2000b4c14f8	1	1	DL_test	14	DL_test	28			0		pa	0	1298	6	5	antiphase_hc_osi.wav	2	6	1	noise_calib_stim_LEFT.wav	1	4	blb_dichoticlistening_ba-ka.mp3	ba	ka	1	other
6.6.1	win	2023-06-27	13:10:48	0	0	5e41723aade7c2000b4c14f8	1	1	DL_test	14	DL_test	29			0		pa	1	793	6	5	antiphase_hc_osi.wav	2	6	1	noise_calib_stim_LEFT.wav	1	29	blb_dichoticlistening_pa-pa.mp3	pa	pa	0	left
6.6.1	win	2023-06-27	13:10:48	0	0	5e41723aade7c2000b4c14f8	1	1	DL_test	14	DL_test	30			0		da	0	1365	6	5	antiphase_hc_osi.wav	2	6	1	noise_calib_stim_LEFT.wav	1	16	blb_dichoticlistening_ga-ka.mp3	ga	ka	1	other
6.6.1	win	2023-06-27	13:10:48	0	0	5e41723aade7c2000b4c14f8	1	1	DL_test	14	DL_test	31			0		ba	1	2497	6	5	antiphase_hc_osi.wav	2	6	1	noise_calib_stim_LEFT.wav	1	7	blb_dichoticlistening_da-ba.mp3	da	ba	1	right
6.6.1	win	2023-06-27	13:10:48	0	0	5e41723aade7c2000b4c14f8	1	1	DL_test	14	DL_test	32			0		da	1	1339	6	5	antiphase_hc_osi.wav	2	6	1	noise_calib_stim_LEFT.wav	1	20	blb_dichoticlistening_ka-da.mp3	ka	da	1	right
6.6.1	win	2023-06-27	13:10:48	0	0	5e41723aade7c2000b4c14f8	1	1	DL_test	14	DL_test	33			0		pa	1	1989	6	5	antiphase_hc_osi.wav	2	6	1	noise_calib_stim_LEFT.wav	1	25	blb_dichoticlistening_pa-ba.mp3	pa	ba	1	left
6.6.1	win	2023-06-27	13:10:48	0	0	5e41723aade7c2000b4c14f8	1	1	DL_test	14	DL_test	34			0		da	1	904	6	5	antiphase_hc_osi.wav	2	6	1	noise_calib_stim_LEFT.wav	1	14	blb_dichoticlistening_ga-da.mp3	ga	da	1	right
6.6.1	win	2023-06-27	13:10:48	0	0	5e41723aade7c2000b4c14f8	1	1	DL_test	14	DL_test	35			0		ta	0	1271	6	5	antiphase_hc_osi.wav	2	6	1	noise_calib_stim_LEFT.wav	1	11	blb_dichoticlistening_da-pa.mp3	da	pa	1	other
6.6.1	win	2023-06-27	13:10:48	0	0	5e41723aade7c2000b4c14f8	1	1	DL_test	14	DL_test	36			0		da	1	1439	6	5	antiphase_hc_osi.wav	2	6	1	noise_calib_stim_LEFT.wav	1	8	blb_dichoticlistening_da-da.mp3	da	da	0	left
6.6.1	win	2023-06-27	13:10:48	0	0	5e41723aade7c2000b4c14f8	1	1	DL_test	15	DL_test	1			0		pa	1	1097	6	5	antiphase_hc_osi.wav	2	6	1	noise_calib_stim_LEFT.wav	1	23	blb_dichoticlistening_ka-pa.mp3	ka	pa	1	right
6.6.1	win	2023-06-27	13:10:48	0	0	5e41723aade7c2000b4c14f8	1	1	DL_test	15	DL_test	2			0		ba	1	1320	6	5	antiphase_hc_osi.wav	2	6	1	noise_calib_stim_LEFT.wav	1	1	blb_dichoticlistening_ba-ba.mp3	ba	ba	0	left
6.6.1	win	2023-06-27	13:10:48	0	0	5e41723aade7c2000b4c14f8	1	1	DL_test	15	DL_test	3			0		da	0	885	6	5	antiphase_hc_osi.wav	2	6	1	noise_calib_stim_LEFT.wav	1	33	blb_dichoticlistening_ta-ga.mp3	ta	ga	1	other
6.6.1	win	2023-06-27	13:10:48	0	0	5e41723aade7c2000b4c14f8	1	1	DL_test	15	DL_test	4			0		ta	1	1062	6	5	antiphase_hc_osi.wav	2	6	1	noise_calib_stim_LEFT.wav	1	30	blb_dichoticlistening_pa-ta.mp3	pa	ta	1	right
6.6.1	win	2023-06-27	13:10:48	0	0	5e41723aade7c2000b4c14f8	1	1	DL_test	15	DL_test	5			0		ka	0	1872	6	5	antiphase_hc_osi.wav	2	6	1	noise_calib_stim_LEFT.wav	1	3	blb_dichoticlistening_ba-ga.mp3	ba	ga	1	other
6.6.1	win	2023-06-27	13:10:48	0	0	5e41723aade7c2000b4c14f8	1	1	DL_test	15	DL_test	6			0		da	1	1063	6	5	antiphase_hc_osi.wav	2	6	1	noise_calib_stim_LEFT.wav	1	20	blb_dichoticlistening_ka-da.mp3	ka	da	1	right
6.6.1	win	2023-06-27	13:10:48	0	0	5e41723aade7c2000b4c14f8	1	1	DL_test	15	DL_test	7			0		da	1	591	6	5	antiphase_hc_osi.wav	2	6	1	noise_calib_stim_LEFT.wav	1	32	blb_dichoticlistening_ta-da.mp3	ta	da	1	right
6.6.1	win	2023-06-27	13:10:48	0	0	5e41723aade7c2000b4c14f8	1	1	DL_test	15	DL_test	8			0		ga	1	1116	6	5	antiphase_hc_osi.wav	2	6	1	noise_calib_stim_LEFT.wav	1	21	blb_dichoticlistening_ka-ga.mp3	ka	ga	1	right
6.6.1	win	2023-06-27	13:10:48	0	0	5e41723aade7c2000b4c14f8	1	1	DL_test	15	DL_test	9			0		ka	1	1035	6	5	antiphase_hc_osi.wav	2	6	1	noise_calib_stim_LEFT.wav	1	22	blb_dichoticlistening_ka-ka.mp3	ka	ka	0	left
6.6.1	win	2023-06-27	13:10:48	0	0	5e41723aade7c2000b4c14f8	1	1	DL_test	15	DL_test	10			0		da	0	1004	6	5	antiphase_hc_osi.wav	2	6	1	noise_calib_stim_LEFT.wav	1	27	blb_dichoticlistening_pa-ga.mp3	pa	ga	1	other
6.6.1	win	2023-06-27	13:10:48	0	0	5e41723aade7c2000b4c14f8	1	1	DL_test	15	DL_test	11			0		pa	1	1159	6	5	antiphase_hc_osi.wav	2	6	1	noise_calib_stim_LEFT.wav	1	35	blb_dichoticlistening_ta-pa.mp3	ta	pa	1	right
6.6.1	win	2023-06-27	13:10:48	0	0	5e41723aade7c2000b4c14f8	1	1	DL_test	15	DL_test	12			0		da	1	916	6	5	antiphase_hc_osi.wav	2	6	1	noise_calib_stim_LEFT.wav	1	14	blb_dichoticlistening_ga-da.mp3	ga	da	1	right
6.6.1	win	2023-06-27	13:10:48	0	0	5e41723aade7c2000b4c14f8	1	1	DL_test	15	DL_test	13			0		ba	1	1946	6	5	antiphase_hc_osi.wav	2	6	1	noise_calib_stim_LEFT.wav	1	31	blb_dichoticlistening_ta-ba.mp3	ta	ba	1	right
6.6.1	win	2023-06-27	13:10:48	0	0	5e41723aade7c2000b4c14f8	1	1	DL_test	15	DL_test	14			0		da	0	696	6	5	antiphase_hc_osi.wav	2	6	1	noise_calib_stim_LEFT.wav	1	16	blb_dichoticlistening_ga-ka.mp3	ga	ka	1	other
6.6.1	win	2023-06-27	13:10:48	0	0	5e41723aade7c2000b4c14f8	1	1	DL_test	15	DL_test	15			0		da	0	1055	6	5	antiphase_hc_osi.wav	2	6	1	noise_calib_stim_LEFT.wav	1	18	blb_dichoticlistening_ga-ta.mp3	ga	ta	1	other
6.6.1	win	2023-06-27	13:10:48	0	0	5e41723aade7c2000b4c14f8	1	1	DL_test	15	DL_test	16			0		pa	0	1055	6	5	antiphase_hc_osi.wav	2	6	1	noise_calib_stim_LEFT.wav	1	4	blb_dichoticlistening_ba-ka.mp3	ba	ka	1	other
6.6.1	win	2023-06-27	13:10:48	0	0	5e41723aade7c2000b4c14f8	1	1	DL_test	15	DL_test	17			0		pa	1	816	6	5	antiphase_hc_osi.wav	2	6	1	noise_calib_stim_LEFT.wav	1	29	blb_dichoticlistening_pa-pa.mp3	pa	pa	0	left
6.6.1	win	2023-06-27	13:10:48	0	0	5e41723aade7c2000b4c14f8	1	1	DL_test	15	DL_test	18			0		da	1	1211	6	5	antiphase_hc_osi.wav	2	6	1	noise_calib_stim_LEFT.wav	1	9	blb_dichoticlistening_da-ga.mp3	da	ga	1	left
6.6.1	win	2023-06-27	13:10:48	0	0	5e41723aade7c2000b4c14f8	1	1	DL_test	15	DL_test	19			0		pa	1	1126	6	5	antiphase_hc_osi.wav	2	6	1	noise_calib_stim_LEFT.wav	1	17	blb_dichoticlistening_ga-pa.mp3	ga	pa	1	right
6.6.1	win	2023-06-27	13:10:48	0	0	5e41723aade7c2000b4c14f8	1	1	DL_test	15	DL_test	20			0		da	0	932	6	5	antiphase_hc_osi.wav	2	6	1	noise_calib_stim_LEFT.wav	1	15	blb_dichoticlistening_ga-ga.mp3	ga	ga	0	other
6.6.1	win	2023-06-27	13:10:48	0	0	5e41723aade7c2000b4c14f8	1	1	DL_test	15	DL_test	21			0		pa	1	1410	6	5	antiphase_hc_osi.wav	2	6	1	noise_calib_stim_LEFT.wav	1	11	blb_dichoticlistening_da-pa.mp3	da	pa	1	right
6.6.1	win	2023-06-27	13:10:48	0	0	5e41723aade7c2000b4c14f8	1	1	DL_test	15	DL_test	22			0		pa	1	962	6	5	antiphase_hc_osi.wav	2	6	1	noise_calib_stim_LEFT.wav	1	5	blb_dichoticlistening_ba-pa.mp3	ba	pa	1	right
6.6.1	win	2023-06-27	13:10:48	0	0	5e41723aade7c2000b4c14f8	1	1	DL_test	15	DL_test	23			0		pa	0	1295	6	5	antiphase_hc_osi.wav	2	6	1	noise_calib_stim_LEFT.wav	1	2	blb_dichoticlistening_ba-da.mp3	ba	da	1	other
6.6.1	win	2023-06-27	13:10:48	0	0	5e41723aade7c2000b4c14f8	1	1	DL_test	15	DL_test	24			0		ta	1	966	6	5	antiphase_hc_osi.wav	2	6	1	noise_calib_stim_LEFT.wav	1	24	blb_dichoticlistening_ka-ta.mp3	ka	ta	1	right
6.6.1	win	2023-06-27	13:10:48	0	0	5e41723aade7c2000b4c14f8	1	1	DL_test	15	DL_test	25			0		da	1	1219	6	5	antiphase_hc_osi.wav	2	6	1	noise_calib_stim_LEFT.wav	1	26	blb_dichoticlistening_pa-da.mp3	pa	da	1	right
6.6.1	win	2023-06-27	13:10:48	0	0	5e41723aade7c2000b4c14f8	1	1	DL_test	15	DL_test	26			0		ta	1	1253	6	5	antiphase_hc_osi.wav	2	6	1	noise_calib_stim_LEFT.wav	1	36	blb_dichoticlistening_ta-ta.mp3	ta	ta	0	left
6.6.1	win	2023-06-27	13:10:48	0	0	5e41723aade7c2000b4c14f8	1	1	DL_test	15	DL_test	27			0		da	1	1742	6	5	antiphase_hc_osi.wav	2	6	1	noise_calib_stim_LEFT.wav	1	12	blb_dichoticlistening_da-ta.mp3	da	ta	1	left
6.6.1	win	2023-06-27	13:10:48	0	0	5e41723aade7c2000b4c14f8	1	1	DL_test	15	DL_test	28			0		ka	1	826	6	5	antiphase_hc_osi.wav	2	6	1	noise_calib_stim_LEFT.wav	1	34	blb_dichoticlistening_ta-ka.mp3	ta	ka	1	right
6.6.1	win	2023-06-27	13:10:48	0	0	5e41723aade7c2000b4c14f8	1	1	DL_test	15	DL_test	29			0		ba	1	1613	6	5	antiphase_hc_osi.wav	2	6	1	noise_calib_stim_LEFT.wav	1	25	blb_dichoticlistening_pa-ba.mp3	pa	ba	1	right
6.6.1	win	2023-06-27	13:10:48	0	0	5e41723aade7c2000b4c14f8	1	1	DL_test	15	DL_test	30			0		ta	0	1063	6	5	antiphase_hc_osi.wav	2	6	1	noise_calib_stim_LEFT.wav	1	28	blb_dichoticlistening_pa-ka.mp3	pa	ka	1	other
6.6.1	win	2023-06-27	13:10:48	0	0	5e41723aade7c2000b4c14f8	1	1	DL_test	15	DL_test	31			0		pa	0	976	6	5	antiphase_hc_osi.wav	2	6	1	noise_calib_stim_LEFT.wav	1	6	blb_dichoticlistening_ba-ta.mp3	ba	ta	1	other
6.6.1	win	2023-06-27	13:10:48	0	0	5e41723aade7c2000b4c14f8	1	1	DL_test	15	DL_test	32			0		pa	0	940	6	5	antiphase_hc_osi.wav	2	6	1	noise_calib_stim_LEFT.wav	1	10	blb_dichoticlistening_da-ka.mp3	da	ka	1	other
6.6.1	win	2023-06-27	13:10:48	0	0	5e41723aade7c2000b4c14f8	1	1	DL_test	15	DL_test	33			0		da	1	1027	6	5	antiphase_hc_osi.wav	2	6	1	noise_calib_stim_LEFT.wav	1	8	blb_dichoticlistening_da-da.mp3	da	da	0	left
6.6.1	win	2023-06-27	13:10:48	0	0	5e41723aade7c2000b4c14f8	1	1	DL_test	15	DL_test	34			0		pa	0	1700	6	5	antiphase_hc_osi.wav	2	6	1	noise_calib_stim_LEFT.wav	1	13	blb_dichoticlistening_ga-ba.mp3	ga	ba	1	other
6.6.1	win	2023-06-27	13:10:48	0	0	5e41723aade7c2000b4c14f8	1	1	DL_test	15	DL_test	35			0		pa	0	1259	6	5	antiphase_hc_osi.wav	2	6	1	noise_calib_stim_LEFT.wav	1	19	blb_dichoticlistening_ka-ba.mp3	ka	ba	1	other
6.6.1	win	2023-06-27	13:10:48	0	0	5e41723aade7c2000b4c14f8	1	1	DL_test	15	DL_test	36			0		pa	0	707	6	5	antiphase_hc_osi.wav	2	6	1	noise_calib_stim_LEFT.wav	1	7	blb_dichoticlistening_da-ba.mp3	da	ba	1	other
6.6.1	win	2023-06-27	13:10:48	0	0	5e41723aade7c2000b4c14f8	1	1	DL_test	16	DL_test	1			0		ga	1	952	6	5	antiphase_hc_osi.wav	2	6	1	noise_calib_stim_LEFT.wav	1	9	blb_dichoticlistening_da-ga.mp3	da	ga	1	right
6.6.1	win	2023-06-27	13:10:48	0	0	5e41723aade7c2000b4c14f8	1	1	DL_test	16	DL_test	2			0		ga	1	503	6	5	antiphase_hc_osi.wav	2	6	1	noise_calib_stim_LEFT.wav	1	33	blb_dichoticlistening_ta-ga.mp3	ta	ga	1	right
6.6.1	win	2023-06-27	13:10:48	0	0	5e41723aade7c2000b4c14f8	1	1	DL_test	16	DL_test	3			0		ka	1	1141	6	5	antiphase_hc_osi.wav	2	6	1	noise_calib_stim_LEFT.wav	1	24	blb_dichoticlistening_ka-ta.mp3	ka	ta	1	left
6.6.1	win	2023-06-27	13:10:48	0	0	5e41723aade7c2000b4c14f8	1	1	DL_test	16	DL_test	4			0		ka	1	619	6	5	antiphase_hc_osi.wav	2	6	1	noise_calib_stim_LEFT.wav	1	22	blb_dichoticlistening_ka-ka.mp3	ka	ka	0	left
6.6.1	win	2023-06-27	13:10:48	0	0	5e41723aade7c2000b4c14f8	1	1	DL_test	16	DL_test	5			0		pa	0	1223	6	5	antiphase_hc_osi.wav	2	6	1	noise_calib_stim_LEFT.wav	1	19	blb_dichoticlistening_ka-ba.mp3	ka	ba	1	other
6.6.1	win	2023-06-27	13:10:48	0	0	5e41723aade7c2000b4c14f8	1	1	DL_test	16	DL_test	6			0		da	1	881	6	5	antiphase_hc_osi.wav	2	6	1	noise_calib_stim_LEFT.wav	1	10	blb_dichoticlistening_da-ka.mp3	da	ka	1	left
6.6.1	win	2023-06-27	13:10:48	0	0	5e41723aade7c2000b4c14f8	1	1	DL_test	16	DL_test	7			0		da	1	777	6	5	antiphase_hc_osi.wav	2	6	1	noise_calib_stim_LEFT.wav	1	26	blb_dichoticlistening_pa-da.mp3	pa	da	1	right
6.6.1	win	2023-06-27	13:10:48	0	0	5e41723aade7c2000b4c14f8	1	1	DL_test	16	DL_test	8			0		da	0	957	6	5	antiphase_hc_osi.wav	2	6	1	noise_calib_stim_LEFT.wav	1	6	blb_dichoticlistening_ba-ta.mp3	ba	ta	1	other
6.6.1	win	2023-06-27	13:10:48	0	0	5e41723aade7c2000b4c14f8	1	1	DL_test	16	DL_test	9			0		ka	1	1002	6	5	antiphase_hc_osi.wav	2	6	1	noise_calib_stim_LEFT.wav	1	28	blb_dichoticlistening_pa-ka.mp3	pa	ka	1	right
6.6.1	win	2023-06-27	13:10:48	0	0	5e41723aade7c2000b4c14f8	1	1	DL_test	16	DL_test	10			0		ka	1	732	6	5	antiphase_hc_osi.wav	2	6	1	noise_calib_stim_LEFT.wav	1	23	blb_dichoticlistening_ka-pa.mp3	ka	pa	1	left
6.6.1	win	2023-06-27	13:10:48	0	0	5e41723aade7c2000b4c14f8	1	1	DL_test	16	DL_test	11			0		ta	1	1196	6	5	antiphase_hc_osi.wav	2	6	1	noise_calib_stim_LEFT.wav	1	30	blb_dichoticlistening_pa-ta.mp3	pa	ta	1	right
6.6.1	win	2023-06-27	13:10:48	0	0	5e41723aade7c2000b4c14f8	1	1	DL_test	16	DL_test	12			0		ga	1	1413	6	5	antiphase_hc_osi.wav	2	6	1	noise_calib_stim_LEFT.wav	1	15	blb_dichoticlistening_ga-ga.mp3	ga	ga	0	left
6.6.1	win	2023-06-27	13:10:48	0	0	5e41723aade7c2000b4c14f8	1	1	DL_test	16	DL_test	13			0		ga	0	1007	6	5	antiphase_hc_osi.wav	2	6	1	noise_calib_stim_LEFT.wav	1	20	blb_dichoticlistening_ka-da.mp3	ka	da	1	other
6.6.1	win	2023-06-27	13:10:48	0	0	5e41723aade7c2000b4c14f8	1	1	DL_test	16	DL_test	14			0		ba	1	1554	6	5	antiphase_hc_osi.wav	2	6	1	noise_calib_stim_LEFT.wav	1	2	blb_dichoticlistening_ba-da.mp3	ba	da	1	left
6.6.1	win	2023-06-27	13:10:48	0	0	5e41723aade7c2000b4c14f8	1	1	DL_test	16	DL_test	15			0		ba	1	1247	6	5	antiphase_hc_osi.wav	2	6	1	noise_calib_stim_LEFT.wav	1	7	blb_dichoticlistening_da-ba.mp3	da	ba	1	right
6.6.1	win	2023-06-27	13:10:48	0	0	5e41723aade7c2000b4c14f8	1	1	DL_test	16	DL_test	16			0		da	1	1497	6	5	antiphase_hc_osi.wav	2	6	1	noise_calib_stim_LEFT.wav	1	12	blb_dichoticlistening_da-ta.mp3	da	ta	1	left
6.6.1	win	2023-06-27	13:10:48	0	0	5e41723aade7c2000b4c14f8	1	1	DL_test	16	DL_test	17			0		ga	1	872	6	5	antiphase_hc_osi.wav	2	6	1	noise_calib_stim_LEFT.wav	1	27	blb_dichoticlistening_pa-ga.mp3	pa	ga	1	right
6.6.1	win	2023-06-27	13:10:48	0	0	5e41723aade7c2000b4c14f8	1	1	DL_test	16	DL_test	18			0		ta	1	1049	6	5	antiphase_hc_osi.wav	2	6	1	noise_calib_stim_LEFT.wav	1	36	blb_dichoticlistening_ta-ta.mp3	ta	ta	0	left
6.6.1	win	2023-06-27	13:10:48	0	0	5e41723aade7c2000b4c14f8	1	1	DL_test	16	DL_test	19			0		da	0	1762	6	5	antiphase_hc_osi.wav	2	6	1	noise_calib_stim_LEFT.wav	1	31	blb_dichoticlistening_ta-ba.mp3	ta	ba	1	other
6.6.1	win	2023-06-27	13:10:48	0	0	5e41723aade7c2000b4c14f8	1	1	DL_test	16	DL_test	20			0		ga	1	1032	6	5	antiphase_hc_osi.wav	2	6	1	noise_calib_stim_LEFT.wav	1	17	blb_dichoticlistening_ga-pa.mp3	ga	pa	1	left
6.6.1	win	2023-06-27	13:10:48	0	0	5e41723aade7c2000b4c14f8	1	1	DL_test	16	DL_test	21			0		ka	1	710	6	5	antiphase_hc_osi.wav	2	6	1	noise_calib_stim_LEFT.wav	1	34	blb_dichoticlistening_ta-ka.mp3	ta	ka	1	right
6.6.1	win	2023-06-27	13:10:48	0	0	5e41723aade7c2000b4c14f8	1	1	DL_test	16	DL_test	22			0		ka	1	797	6	5	antiphase_hc_osi.wav	2	6	1	noise_calib_stim_LEFT.wav	1	16	blb_dichoticlistening_ga-ka.mp3	ga	ka	1	right
6.6.1	win	2023-06-27	13:10:48	0	0	5e41723aade7c2000b4c14f8	1	1	DL_test	16	DL_test	23			0		ba	1	1394	6	5	antiphase_hc_osi.wav	2	6	1	noise_calib_stim_LEFT.wav	1	25	blb_dichoticlistening_pa-ba.mp3	pa	ba	1	right
6.6.1	win	2023-06-27	13:10:48	0	0	5e41723aade7c2000b4c14f8	1	1	DL_test	16	DL_test	24			0		ba	1	1644	6	5	antiphase_hc_osi.wav	2	6	1	noise_calib_stim_LEFT.wav	1	4	blb_dichoticlistening_ba-ka.mp3	ba	ka	1	left
6.6.1	win	2023-06-27	13:10:48	0	0	5e41723aade7c2000b4c14f8	1	1	DL_test	16	DL_test	25			0		pa	1	1565	6	5	antiphase_hc_osi.wav	2	6	1	noise_calib_stim_LEFT.wav	1	5	blb_dichoticlistening_ba-pa.mp3	ba	pa	1	right
6.6.1	win	2023-06-27	13:10:48	0	0	5e41723aade7c2000b4c14f8	1	1	DL_test	16	DL_test	26			0		ga	1	1018	6	5	antiphase_hc_osi.wav	2	6	1	noise_calib_stim_LEFT.wav	1	18	blb_dichoticlistening_ga-ta.mp3	ga	ta	1	left
6.6.1	win	2023-06-27	13:10:48	0	0	5e41723aade7c2000b4c14f8	1	1	DL_test	16	DL_test	27			0		da	1	1452	6	5	antiphase_hc_osi.wav	2	6	1	noise_calib_stim_LEFT.wav	1	8	blb_dichoticlistening_da-da.mp3	da	da	0	left
6.6.1	win	2023-06-27	13:10:48	0	0	5e41723aade7c2000b4c14f8	1	1	DL_test	16	DL_test	28			0		ba	1	948	6	5	antiphase_hc_osi.wav	2	6	1	noise_calib_stim_LEFT.wav	1	3	blb_dichoticlistening_ba-ga.mp3	ba	ga	1	left
6.6.1	win	2023-06-27	13:10:48	0	0	5e41723aade7c2000b4c14f8	1	1	DL_test	16	DL_test	29			0		da	1	777	6	5	antiphase_hc_osi.wav	2	6	1	noise_calib_stim_LEFT.wav	1	32	blb_dichoticlistening_ta-da.mp3	ta	da	1	right
6.6.1	win	2023-06-27	13:10:48	0	0	5e41723aade7c2000b4c14f8	1	1	DL_test	16	DL_test	30			0		ga	1	870	6	5	antiphase_hc_osi.wav	2	6	1	noise_calib_stim_LEFT.wav	1	14	blb_dichoticlistening_ga-da.mp3	ga	da	1	left
6.6.1	win	2023-06-27	13:10:48	0	0	5e41723aade7c2000b4c14f8	1	1	DL_test	16	DL_test	31			0		ta	1	1118	6	5	antiphase_hc_osi.wav	2	6	1	noise_calib_stim_LEFT.wav	1	35	blb_dichoticlistening_ta-pa.mp3	ta	pa	1	left
6.6.1	win	2023-06-27	13:10:48	0	0	5e41723aade7c2000b4c14f8	1	1	DL_test	16	DL_test	32			0		pa	1	1173	6	5	antiphase_hc_osi.wav	2	6	1	noise_calib_stim_LEFT.wav	1	29	blb_dichoticlistening_pa-pa.mp3	pa	pa	0	left
6.6.1	win	2023-06-27	13:10:48	0	0	5e41723aade7c2000b4c14f8	1	1	DL_test	16	DL_test	33			0		ba	1	1345	6	5	antiphase_hc_osi.wav	2	6	1	noise_calib_stim_LEFT.wav	1	13	blb_dichoticlistening_ga-ba.mp3	ga	ba	1	right
6.6.1	win	2023-06-27	13:10:48	0	0	5e41723aade7c2000b4c14f8	1	1	DL_test	16	DL_test	34			0		da	1	1246	6	5	antiphase_hc_osi.wav	2	6	1	noise_calib_stim_LEFT.wav	1	11	blb_dichoticlistening_da-pa.mp3	da	pa	1	left
6.6.1	win	2023-06-27	13:10:48	0	0	5e41723aade7c2000b4c14f8	1	1	DL_test	16	DL_test	35			0		ga	1	767	6	5	antiphase_hc_osi.wav	2	6	1	noise_calib_stim_LEFT.wav	1	21	blb_dichoticlistening_ka-ga.mp3	ka	ga	1	right
6.6.1	win	2023-06-27	13:10:48	0	0	5e41723aade7c2000b4c14f8	1	1	DL_test	16	DL_test	36			0		ba	1	1091	6	5	antiphase_hc_osi.wav	2	6	1	noise_calib_stim_LEFT.wav	1	1	blb_dichoticlistening_ba-ba.mp3	ba	ba	0	left
6.6.1	win	2023-06-27	13:10:48	13:23:46	772917	5e41723aade7c2000b4c14f8	1	1	practice_slash	22	practice_slash	1	stimuli_distractor_trianglediamonds.svg	stimuli_target_squarediamonds.svg	11	yes	0	0	2000	6	5	antiphase_hc_osi.wav	2	6	1	noise_calib_stim_LEFT.wav	1	1	blb_dichoticlistening_ba-ba.mp3	ba	ba	0	left
6.6.1	win	2023-06-27	13:10:48	13:23:46	772917	5e41723aade7c2000b4c14f8	1	1	practice_slash	22	advance_on_keypress_SLASH	2	stimuli_distractor_trianglediamonds.svg	stimuli_target_squarediamonds.svg	11	yes	57	0	1266	6	5	antiphase_hc_osi.wav	2	6	1	noise_calib_stim_LEFT.wav	1	1	blb_dichoticlistening_ba-ba.mp3	ba	ba	0	left
6.6.1	win	2023-06-27	13:10:48	13:23:50	776385	5e41723aade7c2000b4c14f8	1	1	practice_slash	22	practice_slash	3	stimuli_target_squarediamonds.svg	stimuli_distractor_trianglediamonds.svg	5	yes	53	1	548	6	5	antiphase_hc_osi.wav	2	6	1	noise_calib_stim_LEFT.wav	1	1	blb_dichoticlistening_ba-ba.mp3	ba	ba	0	left
6.6.1	win	2023-06-27	13:10:48	13:23:50	776385	5e41723aade7c2000b4c14f8	1	1	practice_slash	22	advance_on_keypress_SLASH	4	stimuli_target_squarediamonds.svg	stimuli_distractor_trianglediamonds.svg	5	yes	57	0	1683	6	5	antiphase_hc_osi.wav	2	6	1	noise_calib_stim_LEFT.wav	1	1	blb_dichoticlistening_ba-ba.mp3	ba	ba	0	left
6.6.1	win	2023-06-27	13:10:48	13:23:54	780359	5e41723aade7c2000b4c14f8	1	1	practice_slash	22	practice_slash	5	stimuli_distractor_diamondtriangles.svg	stimuli_target_rectangletriangles.svg	7	yes	53	1	636	6	5	antiphase_hc_osi.wav	2	6	1	noise_calib_stim_LEFT.wav	1	1	blb_dichoticlistening_ba-ba.mp3	ba	ba	0	left
6.6.1	win	2023-06-27	13:10:48	13:23:54	780359	5e41723aade7c2000b4c14f8	1	1	practice_slash	22	advance_on_keypress_SLASH	6	stimuli_distractor_diamondtriangles.svg	stimuli_target_rectangletriangles.svg	7	yes	57	0	872	6	5	antiphase_hc_osi.wav	2	6	1	noise_calib_stim_LEFT.wav	1	1	blb_dichoticlistening_ba-ba.mp3	ba	ba	0	left
6.6.1	win	2023-06-27	13:10:48	13:23:57	783599	5e41723aade7c2000b4c14f8	1	1	practice_slash	22	practice_slash	7	stimuli_distractor_trianglediamonds.svg	stimuli_target_rectanglediamonds.svg	10	yes	53	1	723	6	5	antiphase_hc_osi.wav	2	6	1	noise_calib_stim_LEFT.wav	1	1	blb_dichoticlistening_ba-ba.mp3	ba	ba	0	left
6.6.1	win	2023-06-27	13:10:48	13:23:57	783599	5e41723aade7c2000b4c14f8	1	1	practice_slash	22	advance_on_keypress_SLASH	8	stimuli_distractor_trianglediamonds.svg	stimuli_target_rectanglediamonds.svg	10	yes	57	0	668	6	5	antiphase_hc_osi.wav	2	6	1	noise_calib_stim_LEFT.wav	1	1	blb_dichoticlistening_ba-ba.mp3	ba	ba	0	left
6.6.1	win	2023-06-27	13:10:48	13:24:01	787913	5e41723aade7c2000b4c14f8	1	1	practice_slash	22	practice_slash	9	stimuli_distractor_trianglediamonds.svg	stimuli_distractor_trianglediamonds.svg	15	no	0	1	2000	6	5	antiphase_hc_osi.wav	2	6	1	noise_calib_stim_LEFT.wav	1	1	blb_dichoticlistening_ba-ba.mp3	ba	ba	0	left
6.6.1	win	2023-06-27	13:10:48	13:24:01	787913	5e41723aade7c2000b4c14f8	1	1	practice_slash	22	advance_on_keypress_SLASH	10	stimuli_distractor_trianglediamonds.svg	stimuli_distractor_trianglediamonds.svg	15	no	57	0	547	6	5	antiphase_hc_osi.wav	2	6	1	noise_calib_stim_LEFT.wav	1	1	blb_dichoticlistening_ba-ba.mp3	ba	ba	0	left
6.6.1	win	2023-06-27	13:10:48	13:24:04	791007	5e41723aade7c2000b4c14f8	1	1	practice_slash	22	practice_slash	11	stimuli_target_squarediamonds.svg	stimuli_distractor_diamondtriangles.svg	2	yes	53	1	891	6	5	antiphase_hc_osi.wav	2	6	1	noise_calib_stim_LEFT.wav	1	1	blb_dichoticlistening_ba-ba.mp3	ba	ba	0	left
6.6.1	win	2023-06-27	13:10:48	13:24:04	791007	5e41723aade7c2000b4c14f8	1	1	practice_slash	22	advance_on_keypress_SLASH	12	stimuli_target_squarediamonds.svg	stimuli_distractor_diamondtriangles.svg	2	yes	57	0	516	6	5	antiphase_hc_osi.wav	2	6	1	noise_calib_stim_LEFT.wav	1	1	blb_dichoticlistening_ba-ba.mp3	ba	ba	0	left
6.6.1	win	2023-06-27	13:10:48	13:24:09	795171	5e41723aade7c2000b4c14f8	1	1	practice_slash	22	practice_slash	13	stimuli_distractor_trianglediamonds.svg	stimuli_target_diamondrectangles.svg	12	yes	0	0	2000	6	5	antiphase_hc_osi.wav	2	6	1	noise_calib_stim_LEFT.wav	1	1	blb_dichoticlistening_ba-ba.mp3	ba	ba	0	left
6.6.1	win	2023-06-27	13:10:48	13:24:09	795171	5e41723aade7c2000b4c14f8	1	1	practice_slash	22	advance_on_keypress_SLASH	14	stimuli_distractor_trianglediamonds.svg	stimuli_target_diamondrectangles.svg	12	yes	57	0	425	6	5	antiphase_hc_osi.wav	2	6	1	noise_calib_stim_LEFT.wav	1	1	blb_dichoticlistening_ba-ba.mp3	ba	ba	0	left
6.6.1	win	2023-06-27	13:10:48	13:24:13	799243	5e41723aade7c2000b4c14f8	1	1	practice_slash	22	practice_slash	15	stimuli_distractor_trianglediamonds.svg	stimuli_distractor_diamondtriangles.svg	16	no	0	1	2000	6	5	antiphase_hc_osi.wav	2	6	1	noise_calib_stim_LEFT.wav	1	1	blb_dichoticlistening_ba-ba.mp3	ba	ba	0	left
6.6.1	win	2023-06-27	13:10:48	13:24:13	799243	5e41723aade7c2000b4c14f8	1	1	practice_slash	22	advance_on_keypress_SLASH	16	stimuli_distractor_trianglediamonds.svg	stimuli_distractor_diamondtriangles.svg	16	no	57	0	539	6	5	antiphase_hc_osi.wav	2	6	1	noise_calib_stim_LEFT.wav	1	1	blb_dichoticlistening_ba-ba.mp3	ba	ba	0	left
6.6.1	win	2023-06-27	13:10:48	13:24:16	802569	5e41723aade7c2000b4c14f8	1	1	practice_slash	22	practice_slash	17	stimuli_distractor_diamondtriangles.svg	stimuli_target_trianglerectangles.svg	9	yes	53	1	1140	6	5	antiphase_hc_osi.wav	2	6	1	noise_calib_stim_LEFT.wav	1	1	blb_dichoticlistening_ba-ba.mp3	ba	ba	0	left
6.6.1	win	2023-06-27	13:10:48	13:24:16	802569	5e41723aade7c2000b4c14f8	1	1	practice_slash	22	advance_on_keypress_SLASH	18	stimuli_distractor_diamondtriangles.svg	stimuli_target_trianglerectangles.svg	9	yes	57	0	875	6	5	antiphase_hc_osi.wav	2	6	1	noise_calib_stim_LEFT.wav	1	1	blb_dichoticlistening_ba-ba.mp3	ba	ba	0	left
6.6.1	win	2023-06-27	13:10:48	13:24:20	807082	5e41723aade7c2000b4c14f8	1	1	practice_slash	22	practice_slash	19	stimuli_distractor_diamondtriangles.svg	stimuli_distractor_diamondtriangles.svg	13	no	0	1	2000	6	5	antiphase_hc_osi.wav	2	6	1	noise_calib_stim_LEFT.wav	1	1	blb_dichoticlistening_ba-ba.mp3	ba	ba	0	left
6.6.1	win	2023-06-27	13:10:48	13:24:20	807082	5e41723aade7c2000b4c14f8	1	1	practice_slash	22	advance_on_keypress_SLASH	20	stimuli_distractor_diamondtriangles.svg	stimuli_distractor_diamondtriangles.svg	13	no	57	0	353	6	5	antiphase_hc_osi.wav	2	6	1	noise_calib_stim_LEFT.wav	1	1	blb_dichoticlistening_ba-ba.mp3	ba	ba	0	left
6.6.1	win	2023-06-27	13:10:48	13:24:24	811088	5e41723aade7c2000b4c14f8	1	1	practice_slash	22	practice_slash	21	stimuli_target_diamondsquares.svg	stimuli_distractor_trianglediamonds.svg	6	yes	0	0	2000	6	5	antiphase_hc_osi.wav	2	6	1	noise_calib_stim_LEFT.wav	1	1	blb_dichoticlistening_ba-ba.mp3	ba	ba	0	left
6.6.1	win	2023-06-27	13:10:48	13:24:24	811088	5e41723aade7c2000b4c14f8	1	1	practice_slash	22	advance_on_keypress_SLASH	22	stimuli_target_diamondsquares.svg	stimuli_distractor_trianglediamonds.svg	6	yes	57	0	456	6	5	antiphase_hc_osi.wav	2	6	1	noise_calib_stim_LEFT.wav	1	1	blb_dichoticlistening_ba-ba.mp3	ba	ba	0	left
6.6.1	win	2023-06-27	13:10:48	13:24:28	814151	5e41723aade7c2000b4c14f8	1	1	practice_slash	22	practice_slash	23	stimuli_target_diamondsquares.svg	stimuli_distractor_diamondtriangles.svg	3	yes	53	1	962	6	5	antiphase_hc_osi.wav	2	6	1	noise_calib_stim_LEFT.wav	1	1	blb_dichoticlistening_ba-ba.mp3	ba	ba	0	left
6.6.1	win	2023-06-27	13:10:48	13:24:28	814151	5e41723aade7c2000b4c14f8	1	1	practice_slash	22	advance_on_keypress_SLASH	24	stimuli_target_diamondsquares.svg	stimuli_distractor_diamondtriangles.svg	3	yes	57	0	537	6	5	antiphase_hc_osi.wav	2	6	1	noise_calib_stim_LEFT.wav	1	1	blb_dichoticlistening_ba-ba.mp3	ba	ba	0	left
6.6.1	win	2023-06-27	13:10:48	13:24:31	817399	5e41723aade7c2000b4c14f8	1	1	practice_slash	22	practice_slash	25	stimuli_distractor_diamondtriangles.svg	stimuli_distractor_trianglediamonds.svg	14	no	53	0	1057	6	5	antiphase_hc_osi.wav	2	6	1	noise_calib_stim_LEFT.wav	1	1	blb_dichoticlistening_ba-ba.mp3	ba	ba	0	left
6.6.1	win	2023-06-27	13:10:48	13:24:31	817399	5e41723aade7c2000b4c14f8	1	1	practice_slash	22	advance_on_keypress_SLASH	26	stimuli_distractor_diamondtriangles.svg	stimuli_distractor_trianglediamonds.svg	14	no	57	0	579	6	5	antiphase_hc_osi.wav	2	6	1	noise_calib_stim_LEFT.wav	1	1	blb_dichoticlistening_ba-ba.mp3	ba	ba	0	left
6.6.1	win	2023-06-27	13:10:48	13:24:35	821630	5e41723aade7c2000b4c14f8	1	1	practice_slash	22	practice_slash	27	stimuli_distractor_diamondtriangles.svg	stimuli_target_diamondrectangles.svg	8	yes	0	0	2000	6	5	antiphase_hc_osi.wav	2	6	1	noise_calib_stim_LEFT.wav	1	1	blb_dichoticlistening_ba-ba.mp3	ba	ba	0	left
6.6.1	win	2023-06-27	13:10:48	13:24:35	821630	5e41723aade7c2000b4c14f8	1	1	practice_slash	22	advance_on_keypress_SLASH	28	stimuli_distractor_diamondtriangles.svg	stimuli_target_diamondrectangles.svg	8	yes	57	0	454	6	5	antiphase_hc_osi.wav	2	6	1	noise_calib_stim_LEFT.wav	1	1	blb_dichoticlistening_ba-ba.mp3	ba	ba	0	left
6.6.1	win	2023-06-27	13:10:48	13:24:38	824639	5e41723aade7c2000b4c14f8	1	1	practice_slash	22	practice_slash	29	stimuli_target_rectanglediamonds.svg	stimuli_distractor_trianglediamonds.svg	4	yes	53	1	906	6	5	antiphase_hc_osi.wav	2	6	1	noise_calib_stim_LEFT.wav	1	1	blb_dichoticlistening_ba-ba.mp3	ba	ba	0	left
6.6.1	win	2023-06-27	13:10:48	13:24:38	824639	5e41723aade7c2000b4c14f8	1	1	practice_slash	22	advance_on_keypress_SLASH	30	stimuli_target_rectanglediamonds.svg	stimuli_distractor_trianglediamonds.svg	4	yes	57	0	523	6	5	antiphase_hc_osi.wav	2	6	1	noise_calib_stim_LEFT.wav	1	1	blb_dichoticlistening_ba-ba.mp3	ba	ba	0	left
6.6.1	win	2023-06-27	13:10:48	13:24:41	827641	5e41723aade7c2000b4c14f8	1	1	practice_slash	22	practice_slash	31	stimuli_target_rectanglediamonds.svg	stimuli_distractor_diamondtriangles.svg	1	yes	53	1	836	6	5	antiphase_hc_osi.wav	2	6	1	noise_calib_stim_LEFT.wav	1	1	blb_dichoticlistening_ba-ba.mp3	ba	ba	0	left
6.6.1	win	2023-06-27	13:10:48	13:24:41	827641	5e41723aade7c2000b4c14f8	1	1	practice_slash	22	advance_on_keypress_SLASH	32	stimuli_target_rectanglediamonds.svg	stimuli_distractor_diamondtriangles.svg	1	yes	57	0	408	6	5	antiphase_hc_osi.wav	2	6	1	noise_calib_stim_LEFT.wav	1	1	blb_dichoticlistening_ba-ba.mp3	ba	ba	0	left
6.6.1	win	2023-06-27	13:10:48	13:25:18	864807	5e41723aade7c2000b4c14f8	1	1	main_slash	24	main_slash	1	stimuli_target_diamondsquares.svg	stimuli_distractor_diamondtriangles.svg	24	yes	53	1	799	6	5	antiphase_hc_osi.wav	2	6	1	noise_calib_stim_LEFT.wav	1	1	blb_dichoticlistening_ba-ba.mp3	ba	ba	0	left
6.6.1	win	2023-06-27	13:10:48	13:25:18	864807	5e41723aade7c2000b4c14f8	1	1	main_slash	24	advance_on_keypress_SLASH	2	stimuli_target_diamondsquares.svg	stimuli_distractor_diamondtriangles.svg	24	yes	57	0	7981	6	5	antiphase_hc_osi.wav	2	6	1	noise_calib_stim_LEFT.wav	1	1	blb_dichoticlistening_ba-ba.mp3	ba	ba	0	left
6.6.1	win	2023-06-27	13:10:48	13:25:28	874357	5e41723aade7c2000b4c14f8	1	1	main_slash	24	main_slash	3	stimuli_target_trianglerectangles.svg	stimuli_distractor_trianglediamonds.svg	17	yes	53	1	925	6	5	antiphase_hc_osi.wav	2	6	1	noise_calib_stim_LEFT.wav	1	1	blb_dichoticlistening_ba-ba.mp3	ba	ba	0	left
6.6.1	win	2023-06-27	13:10:48	13:25:28	874357	5e41723aade7c2000b4c14f8	1	1	main_slash	24	advance_on_keypress_SLASH	4	stimuli_target_trianglerectangles.svg	stimuli_distractor_trianglediamonds.svg	17	yes	57	0	1615	6	5	antiphase_hc_osi.wav	2	6	1	noise_calib_stim_LEFT.wav	1	1	blb_dichoticlistening_ba-ba.mp3	ba	ba	0	left
6.6.1	win	2023-06-27	13:10:48	13:25:31	877470	5e41723aade7c2000b4c14f8	1	1	main_slash	24	main_slash	5	stimuli_distractor_diamondtriangles.svg	stimuli_target_diamondrectangles.svg	31	yes	53	1	851	6	5	antiphase_hc_osi.wav	2	6	1	noise_calib_stim_LEFT.wav	1	1	blb_dichoticlistening_ba-ba.mp3	ba	ba	0	left
6.6.1	win	2023-06-27	13:10:48	13:25:31	877470	5e41723aade7c2000b4c14f8	1	1	main_slash	24	advance_on_keypress_SLASH	6	stimuli_distractor_diamondtriangles.svg	stimuli_target_diamondrectangles.svg	31	yes	57	0	551	6	5	antiphase_hc_osi.wav	2	6	1	noise_calib_stim_LEFT.wav	1	1	blb_dichoticlistening_ba-ba.mp3	ba	ba	0	left
6.6.1	win	2023-06-27	13:10:48	13:25:33	879541	5e41723aade7c2000b4c14f8	1	1	main_slash	24	main_slash	7	stimuli_distractor_trianglediamonds.svg	stimuli_target_diamondrectangles.svg	27	yes	53	1	871	6	5	antiphase_hc_osi.wav	2	6	1	noise_calib_stim_LEFT.wav	1	1	blb_dichoticlistening_ba-ba.mp3	ba	ba	0	left
6.6.1	win	2023-06-27	13:10:48	13:25:33	879541	5e41723aade7c2000b4c14f8	1	1	main_slash	24	advance_on_keypress_SLASH	8	stimuli_distractor_trianglediamonds.svg	stimuli_target_diamondrectangles.svg	27	yes	57	0	450	6	5	antiphase_hc_osi.wav	2	6	1	noise_calib_stim_LEFT.wav	1	1	blb_dichoticlistening_ba-ba.mp3	ba	ba	0	left
6.6.1	win	2023-06-27	13:10:48	13:25:35	881549	5e41723aade7c2000b4c14f8	1	1	main_slash	24	main_slash	9	stimuli_target_rectangletriangles.svg	stimuli_distractor_diamondtriangles.svg	5	yes	53	1	910	6	5	antiphase_hc_osi.wav	2	6	1	noise_calib_stim_LEFT.wav	1	1	blb_dichoticlistening_ba-ba.mp3	ba	ba	0	left
6.6.1	win	2023-06-27	13:10:48	13:25:35	881549	5e41723aade7c2000b4c14f8	1	1	main_slash	24	advance_on_keypress_SLASH	10	stimuli_target_rectangletriangles.svg	stimuli_distractor_diamondtriangles.svg	5	yes	57	0	344	6	5	antiphase_hc_osi.wav	2	6	1	noise_calib_stim_LEFT.wav	1	1	blb_dichoticlistening_ba-ba.mp3	ba	ba	0	left
6.6.1	win	2023-06-27	13:10:48	13:25:38	884524	5e41723aade7c2000b4c14f8	1	1	main_slash	24	main_slash	11	stimuli_distractor_trianglediamonds.svg	stimuli_distractor_trianglediamonds.svg	33	no	0	1	2000	6	5	antiphase_hc_osi.wav	2	6	1	noise_calib_stim_LEFT.wav	1	1	blb_dichoticlistening_ba-ba.mp3	ba	ba	0	left
6.6.1	win	2023-06-27	13:10:48	13:25:38	884524	5e41723aade7c2000b4c14f8	1	1	main_slash	24	advance_on_keypress_SLASH	12	stimuli_distractor_trianglediamonds.svg	stimuli_distractor_trianglediamonds.svg	33	no	57	0	438	6	5	antiphase_hc_osi.wav	2	6	1	noise_calib_stim_LEFT.wav	1	1	blb_dichoticlistening_ba-ba.mp3	ba	ba	0	left
6.6.1	win	2023-06-27	13:10:48	13:25:40	886597	5e41723aade7c2000b4c14f8	1	1	main_slash	24	main_slash	13	stimuli_distractor_diamondtriangles.svg	stimuli_target_trianglerectangles.svg	29	yes	53	1	987	6	5	antiphase_hc_osi.wav	2	6	1	noise_calib_stim_LEFT.wav	1	1	blb_dichoticlistening_ba-ba.mp3	ba	ba	0	left
6.6.1	win	2023-06-27	13:10:48	13:25:40	886597	5e41723aade7c2000b4c14f8	1	1	main_slash	24	advance_on_keypress_SLASH	14	stimuli_distractor_diamondtriangles.svg	stimuli_target_trianglerectangles.svg	29	yes	57	0	649	6	5	antiphase_hc_osi.wav	2	6	1	noise_calib_stim_LEFT.wav	1	1	blb_dichoticlistening_ba-ba.mp3	ba	ba	0	left
6.6.1	win	2023-06-27	13:10:48	13:25:42	888934	5e41723aade7c2000b4c14f8	1	1	main_slash	24	main_slash	15	stimuli_target_trianglesquares.svg	stimuli_distractor_diamondtriangles.svg	22	yes	53	1	1035	6	5	antiphase_hc_osi.wav	2	6	1	noise_calib_stim_LEFT.wav	1	1	blb_dichoticlistening_ba-ba.mp3	ba	ba	0	left
6.6.1	win	2023-06-27	13:10:48	13:25:42	888934	5e41723aade7c2000b4c14f8	1	1	main_slash	24	advance_on_keypress_SLASH	16	stimuli_target_trianglesquares.svg	stimuli_distractor_diamondtriangles.svg	22	yes	57	0	633	6	5	antiphase_hc_osi.wav	2	6	1	noise_calib_stim_LEFT.wav	1	1	blb_dichoticlistening_ba-ba.mp3	ba	ba	0	left
6.6.1	win	2023-06-27	13:10:48	13:25:45	891245	5e41723aade7c2000b4c14f8	1	1	main_slash	24	main_slash	17	stimuli_distractor_trianglediamonds.svg	stimuli_target_trianglerectangles.svg	25	yes	53	1	1030	6	5	antiphase_hc_osi.wav	2	6	1	noise_calib_stim_LEFT.wav	1	1	blb_dichoticlistening_ba-ba.mp3	ba	ba	0	left
6.6.1	win	2023-06-27	13:10:48	13:25:45	891245	5e41723aade7c2000b4c14f8	1	1	main_slash	24	advance_on_keypress_SLASH	18	stimuli_distractor_trianglediamonds.svg	stimuli_target_trianglerectangles.svg	25	yes	57	0	1074	6	5	antiphase_hc_osi.wav	2	6	1	noise_calib_stim_LEFT.wav	1	1	blb_dichoticlistening_ba-ba.mp3	ba	ba	0	left
6.6.1	win	2023-06-27	13:10:48	13:25:48	894968	5e41723aade7c2000b4c14f8	1	1	main_slash	24	main_slash	19	stimuli_distractor_diamondtriangles.svg	stimuli_target_squarediamonds.svg	16	yes	0	0	2000	6	5	antiphase_hc_osi.wav	2	6	1	noise_calib_stim_LEFT.wav	1	1	blb_dichoticlistening_ba-ba.mp3	ba	ba	0	left
6.6.1	win	2023-06-27	13:10:48	13:25:48	894968	5e41723aade7c2000b4c14f8	1	1	main_slash	24	advance_on_keypress_SLASH	20	stimuli_distractor_diamondtriangles.svg	stimuli_target_squarediamonds.svg	16	yes	57	0	530	6	5	antiphase_hc_osi.wav	2	6	1	noise_calib_stim_LEFT.wav	1	1	blb_dichoticlistening_ba-ba.mp3	ba	ba	0	left
6.6.1	win	2023-06-27	13:10:48	13:25:52	898154	5e41723aade7c2000b4c14f8	1	1	main_slash	24	main_slash	21	stimuli_distractor_diamondtriangles.svg	stimuli_distractor_trianglediamonds.svg	38	no	0	1	2000	6	5	antiphase_hc_osi.wav	2	6	1	noise_calib_stim_LEFT.wav	1	1	blb_dichoticlistening_ba-ba.mp3	ba	ba	0	left
6.6.1	win	2023-06-27	13:10:48	13:25:52	898154	5e41723aade7c2000b4c14f8	1	1	main_slash	24	advance_on_keypress_SLASH	22	stimuli_distractor_diamondtriangles.svg	stimuli_distractor_trianglediamonds.svg	38	no	57	0	423	6	5	antiphase_hc_osi.wav	2	6	1	noise_calib_stim_LEFT.wav	1	1	blb_dichoticlistening_ba-ba.mp3	ba	ba	0	left
6.6.1	win	2023-06-27	13:10:48	13:25:55	901226	5e41723aade7c2000b4c14f8	1	1	main_slash	24	main_slash	23	stimuli_distractor_diamondtriangles.svg	stimuli_distractor_trianglediamonds.svg	37	no	0	1	2000	6	5	antiphase_hc_osi.wav	2	6	1	noise_calib_stim_LEFT.wav	1	1	blb_dichoticlistening_ba-ba.mp3	ba	ba	0	left
6.6.1	win	2023-06-27	13:10:48	13:25:55	901226	5e41723aade7c2000b4c14f8	1	1	main_slash	24	advance_on_keypress_SLASH	24	stimuli_distractor_diamondtriangles.svg	stimuli_distractor_trianglediamonds.svg	37	no	57	0	370	6	5	antiphase_hc_osi.wav	2	6	1	noise_calib_stim_LEFT.wav	1	1	blb_dichoticlistening_ba-ba.mp3	ba	ba	0	left
6.6.1	win	2023-06-27	13:10:48	13:25:57	903116	5e41723aade7c2000b4c14f8	1	1	main_slash	24	main_slash	25	stimuli_distractor_trianglediamonds.svg	stimuli_target_squaretriangles.svg	11	yes	53	1	873	6	5	antiphase_hc_osi.wav	2	6	1	noise_calib_stim_LEFT.wav	1	1	blb_dichoticlistening_ba-ba.mp3	ba	ba	0	left
6.6.1	win	2023-06-27	13:10:48	13:25:57	903116	5e41723aade7c2000b4c14f8	1	1	main_slash	24	advance_on_keypress_SLASH	26	stimuli_distractor_trianglediamonds.svg	stimuli_target_squaretriangles.svg	11	yes	57	0	637	6	5	antiphase_hc_osi.wav	2	6	1	noise_calib_stim_LEFT.wav	1	1	blb_dichoticlistening_ba-ba.mp3	ba	ba	0	left
6.6.1	win	2023-06-27	13:10:48	13:25:59	905293	5e41723aade7c2000b4c14f8	1	1	main_slash	24	main_slash	27	stimuli_distractor_trianglediamonds.svg	stimuli_target_trianglesquares.svg	26	yes	53	1	897	6	5	antiphase_hc_osi.wav	2	6	1	noise_calib_stim_LEFT.wav	1	1	blb_dichoticlistening_ba-ba.mp3	ba	ba	0	left
6.6.1	win	2023-06-27	13:10:48	13:25:59	905293	5e41723aade7c2000b4c14f8	1	1	main_slash	24	advance_on_keypress_SLASH	28	stimuli_distractor_trianglediamonds.svg	stimuli_target_trianglesquares.svg	26	yes	57	0	587	6	5	antiphase_hc_osi.wav	2	6	1	noise_calib_stim_LEFT.wav	1	1	blb_dichoticlistening_ba-ba.mp3	ba	ba	0	left
6.6.1	win	2023-06-27	13:10:48	13:26:01	907397	5e41723aade7c2000b4c14f8	1	1	main_slash	24	main_slash	29	stimuli_target_squarediamonds.svg	stimuli_distractor_trianglediamonds.svg	4	yes	53	1	866	6	5	antiphase_hc_osi.wav	2	6	1	noise_calib_stim_LEFT.wav	1	1	blb_dichoticlistening_ba-ba.mp3	ba	ba	0	left
6.6.1	win	2023-06-27	13:10:48	13:26:01	907397	5e41723aade7c2000b4c14f8	1	1	main_slash	24	advance_on_keypress_SLASH	30	stimuli_target_squarediamonds.svg	stimuli_distractor_trianglediamonds.svg	4	yes	57	0	462	6	5	antiphase_hc_osi.wav	2	6	1	noise_calib_stim_LEFT.wav	1	1	blb_dichoticlistening_ba-ba.mp3	ba	ba	0	left
6.6.1	win	2023-06-27	13:10:48	13:26:03	909438	5e41723aade7c2000b4c14f8	1	1	main_slash	24	main_slash	31	stimuli_target_diamondsquares.svg	stimuli_distractor_trianglediamonds.svg	20	yes	53	1	921	6	5	antiphase_hc_osi.wav	2	6	1	noise_calib_stim_LEFT.wav	1	1	blb_dichoticlistening_ba-ba.mp3	ba	ba	0	left
6.6.1	win	2023-06-27	13:10:48	13:26:03	909438	5e41723aade7c2000b4c14f8	1	1	main_slash	24	advance_on_keypress_SLASH	32	stimuli_target_diamondsquares.svg	stimuli_distractor_trianglediamonds.svg	20	yes	57	0	418	6	5	antiphase_hc_osi.wav	2	6	1	noise_calib_stim_LEFT.wav	1	1	blb_dichoticlistening_ba-ba.mp3	ba	ba	0	left
6.6.1	win	2023-06-27	13:10:48	13:26:05	911493	5e41723aade7c2000b4c14f8	1	1	main_slash	24	main_slash	33	stimuli_distractor_trianglediamonds.svg	stimuli_target_rectanglediamonds.svg	10	yes	53	1	975	6	5	antiphase_hc_osi.wav	2	6	1	noise_calib_stim_LEFT.wav	1	1	blb_dichoticlistening_ba-ba.mp3	ba	ba	0	left
6.6.1	win	2023-06-27	13:10:48	13:26:05	911493	5e41723aade7c2000b4c14f8	1	1	main_slash	24	advance_on_keypress_SLASH	34	stimuli_distractor_trianglediamonds.svg	stimuli_target_rectanglediamonds.svg	10	yes	57	0	374	6	5	antiphase_hc_osi.wav	2	6	1	noise_calib_stim_LEFT.wav	1	1	blb_dichoticlistening_ba-ba.mp3	ba	ba	0	left
6.6.1	win	2023-06-27	13:10:48	13:26:07	913317	5e41723aade7c2000b4c14f8	1	1	main_slash	24	main_slash	35	stimuli_target_rectanglediamonds.svg	stimuli_distractor_trianglediamonds.svg	2	yes	53	1	813	6	5	antiphase_hc_osi.wav	2	6	1	noise_calib_stim_LEFT.wav	1	1	blb_dichoticlistening_ba-ba.mp3	ba	ba	0	left
6.6.1	win	2023-06-27	13:10:48	13:26:07	913317	5e41723aade7c2000b4c14f8	1	1	main_slash	24	advance_on_keypress_SLASH	36	stimuli_target_rectanglediamonds.svg	stimuli_distractor_trianglediamonds.svg	2	yes	57	0	298	6	5	antiphase_hc_osi.wav	2	6	1	noise_calib_stim_LEFT.wav	1	1	blb_dichoticlistening_ba-ba.mp3	ba	ba	0	left
6.6.1	win	2023-06-27	13:10:48	13:26:09	915269	5e41723aade7c2000b4c14f8	1	1	main_slash	24	main_slash	37	stimuli_distractor_diamondtriangles.svg	stimuli_target_rectanglediamonds.svg	14	yes	53	1	997	6	5	antiphase_hc_osi.wav	2	6	1	noise_calib_stim_LEFT.wav	1	1	blb_dichoticlistening_ba-ba.mp3	ba	ba	0	left
6.6.1	win	2023-06-27	13:10:48	13:26:09	915269	5e41723aade7c2000b4c14f8	1	1	main_slash	24	advance_on_keypress_SLASH	38	stimuli_distractor_diamondtriangles.svg	stimuli_target_rectanglediamonds.svg	14	yes	57	0	298	6	5	antiphase_hc_osi.wav	2	6	1	noise_calib_stim_LEFT.wav	1	1	blb_dichoticlistening_ba-ba.mp3	ba	ba	0	left
6.6.1	win	2023-06-27	13:10:48	13:26:10	917005	5e41723aade7c2000b4c14f8	1	1	main_slash	24	main_slash	39	stimuli_target_diamondrectangles.svg	stimuli_distractor_diamondtriangles.svg	23	yes	53	1	781	6	5	antiphase_hc_osi.wav	2	6	1	noise_calib_stim_LEFT.wav	1	1	blb_dichoticlistening_ba-ba.mp3	ba	ba	0	left
6.6.1	win	2023-06-27	13:10:48	13:26:10	917005	5e41723aade7c2000b4c14f8	1	1	main_slash	24	advance_on_keypress_SLASH	40	stimuli_target_diamondrectangles.svg	stimuli_distractor_diamondtriangles.svg	23	yes	57	0	299	6	5	antiphase_hc_osi.wav	2	6	1	noise_calib_stim_LEFT.wav	1	1	blb_dichoticlistening_ba-ba.mp3	ba	ba	0	left
6.6.1	win	2023-06-27	13:10:48	13:26:13	919962	5e41723aade7c2000b4c14f8	1	1	main_slash	24	main_slash	41	stimuli_distractor_trianglediamonds.svg	stimuli_distractor_diamondtriangles.svg	36	no	0	1	2000	6	5	antiphase_hc_osi.wav	2	6	1	noise_calib_stim_LEFT.wav	1	1	blb_dichoticlistening_ba-ba.mp3	ba	ba	0	left
6.6.1	win	2023-06-27	13:10:48	13:26:13	919962	5e41723aade7c2000b4c14f8	1	1	main_slash	24	advance_on_keypress_SLASH	42	stimuli_distractor_trianglediamonds.svg	stimuli_distractor_diamondtriangles.svg	36	no	57	0	482	6	5	antiphase_hc_osi.wav	2	6	1	noise_calib_stim_LEFT.wav	1	1	blb_dichoticlistening_ba-ba.mp3	ba	ba	0	left
6.6.1	win	2023-06-27	13:10:48	13:26:15	921950	5e41723aade7c2000b4c14f8	1	1	main_slash	24	main_slash	43	stimuli_distractor_diamondtriangles.svg	stimuli_target_trianglesquares.svg	30	yes	53	1	853	6	5	antiphase_hc_osi.wav	2	6	1	noise_calib_stim_LEFT.wav	1	1	blb_dichoticlistening_ba-ba.mp3	ba	ba	0	left
6.6.1	win	2023-06-27	13:10:48	13:26:15	921950	5e41723aade7c2000b4c14f8	1	1	main_slash	24	advance_on_keypress_SLASH	44	stimuli_distractor_diamondtriangles.svg	stimuli_target_trianglesquares.svg	30	yes	57	0	393	6	5	antiphase_hc_osi.wav	2	6	1	noise_calib_stim_LEFT.wav	1	1	blb_dichoticlistening_ba-ba.mp3	ba	ba	0	left
6.6.1	win	2023-06-27	13:10:48	13:26:18	924981	5e41723aade7c2000b4c14f8	1	1	main_slash	24	main_slash	45	stimuli_distractor_trianglediamonds.svg	stimuli_distractor_diamondtriangles.svg	35	no	0	1	2000	6	5	antiphase_hc_osi.wav	2	6	1	noise_calib_stim_LEFT.wav	1	1	blb_dichoticlistening_ba-ba.mp3	ba	ba	0	left
6.6.1	win	2023-06-27	13:10:48	13:26:18	924981	5e41723aade7c2000b4c14f8	1	1	main_slash	24	advance_on_keypress_SLASH	46	stimuli_distractor_trianglediamonds.svg	stimuli_distractor_diamondtriangles.svg	35	no	57	0	349	6	5	antiphase_hc_osi.wav	2	6	1	noise_calib_stim_LEFT.wav	1	1	blb_dichoticlistening_ba-ba.mp3	ba	ba	0	left
6.6.1	win	2023-06-27	13:10:48	13:26:20	926845	5e41723aade7c2000b4c14f8	1	1	main_slash	24	main_slash	47	stimuli_target_squaretriangles.svg	stimuli_distractor_diamondtriangles.svg	7	yes	53	1	861	6	5	antiphase_hc_osi.wav	2	6	1	noise_calib_stim_LEFT.wav	1	1	blb_dichoticlistening_ba-ba.mp3	ba	ba	0	left
6.6.1	win	2023-06-27	13:10:48	13:26:20	926845	5e41723aade7c2000b4c14f8	1	1	main_slash	24	advance_on_keypress_SLASH	48	stimuli_target_squaretriangles.svg	stimuli_distractor_diamondtriangles.svg	7	yes	57	0	329	6	5	antiphase_hc_osi.wav	2	6	1	noise_calib_stim_LEFT.wav	1	1	blb_dichoticlistening_ba-ba.mp3	ba	ba	0	left
6.6.1	win	2023-06-27	13:10:48	13:26:22	928717	5e41723aade7c2000b4c14f8	1	1	main_slash	24	main_slash	49	stimuli_distractor_diamondtriangles.svg	stimuli_target_rectangletriangles.svg	13	yes	53	1	898	6	5	antiphase_hc_osi.wav	2	6	1	noise_calib_stim_LEFT.wav	1	1	blb_dichoticlistening_ba-ba.mp3	ba	ba	0	left
6.6.1	win	2023-06-27	13:10:48	13:26:22	928717	5e41723aade7c2000b4c14f8	1	1	main_slash	24	advance_on_keypress_SLASH	50	stimuli_distractor_diamondtriangles.svg	stimuli_target_rectangletriangles.svg	13	yes	57	0	428	6	5	antiphase_hc_osi.wav	2	6	1	noise_calib_stim_LEFT.wav	1	1	blb_dichoticlistening_ba-ba.mp3	ba	ba	0	left
6.6.1	win	2023-06-27	13:10:48	13:26:25	931804	5e41723aade7c2000b4c14f8	1	1	main_slash	24	main_slash	51	stimuli_target_diamondrectangles.svg	stimuli_distractor_trianglediamonds.svg	19	yes	0	0	2000	6	5	antiphase_hc_osi.wav	2	6	1	noise_calib_stim_LEFT.wav	1	1	blb_dichoticlistening_ba-ba.mp3	ba	ba	0	left
6.6.1	win	2023-06-27	13:10:48	13:26:25	931804	5e41723aade7c2000b4c14f8	1	1	main_slash	24	advance_on_keypress_SLASH	52	stimuli_target_diamondrectangles.svg	stimuli_distractor_trianglediamonds.svg	19	yes	57	0	509	6	5	antiphase_hc_osi.wav	2	6	1	noise_calib_stim_LEFT.wav	1	1	blb_dichoticlistening_ba-ba.mp3	ba	ba	0	left
6.6.1	win	2023-06-27	13:10:48	13:26:27	933965	5e41723aade7c2000b4c14f8	1	1	main_slash	24	main_slash	53	stimuli_target_trianglesquares.svg	stimuli_distractor_trianglediamonds.svg	18	yes	53	1	1007	6	5	antiphase_hc_osi.wav	2	6	1	noise_calib_stim_LEFT.wav	1	1	blb_dichoticlistening_ba-ba.mp3	ba	ba	0	left
6.6.1	win	2023-06-27	13:10:48	13:26:27	933965	5e41723aade7c2000b4c14f8	1	1	main_slash	24	advance_on_keypress_SLASH	54	stimuli_target_trianglesquares.svg	stimuli_distractor_trianglediamonds.svg	18	yes	57	0	557	6	5	antiphase_hc_osi.wav	2	6	1	noise_calib_stim_LEFT.wav	1	1	blb_dichoticlistening_ba-ba.mp3	ba	ba	0	left
6.6.1	win	2023-06-27	13:10:48	13:26:31	937160	5e41723aade7c2000b4c14f8	1	1	main_slash	24	main_slash	55	stimuli_distractor_diamondtriangles.svg	stimuli_distractor_diamondtriangles.svg	40	no	0	1	2000	6	5	antiphase_hc_osi.wav	2	6	1	noise_calib_stim_LEFT.wav	1	1	blb_dichoticlistening_ba-ba.mp3	ba	ba	0	left
6.6.1	win	2023-06-27	13:10:48	13:26:31	937160	5e41723aade7c2000b4c14f8	1	1	main_slash	24	advance_on_keypress_SLASH	56	stimuli_distractor_diamondtriangles.svg	stimuli_distractor_diamondtriangles.svg	40	no	57	0	482	6	5	antiphase_hc_osi.wav	2	6	1	noise_calib_stim_LEFT.wav	1	1	blb_dichoticlistening_ba-ba.mp3	ba	ba	0	left
6.6.1	win	2023-06-27	13:10:48	13:26:34	940297	5e41723aade7c2000b4c14f8	1	1	main_slash	24	main_slash	57	stimuli_distractor_trianglediamonds.svg	stimuli_distractor_trianglediamonds.svg	34	no	0	1	2000	6	5	antiphase_hc_osi.wav	2	6	1	noise_calib_stim_LEFT.wav	1	1	blb_dichoticlistening_ba-ba.mp3	ba	ba	0	left
6.6.1	win	2023-06-27	13:10:48	13:26:34	940297	5e41723aade7c2000b4c14f8	1	1	main_slash	24	advance_on_keypress_SLASH	58	stimuli_distractor_trianglediamonds.svg	stimuli_distractor_trianglediamonds.svg	34	no	57	0	321	6	5	antiphase_hc_osi.wav	2	6	1	noise_calib_stim_LEFT.wav	1	1	blb_dichoticlistening_ba-ba.mp3	ba	ba	0	left
6.6.1	win	2023-06-27	13:10:48	13:26:37	943270	5e41723aade7c2000b4c14f8	1	1	main_slash	24	main_slash	59	stimuli_target_trianglerectangles.svg	stimuli_distractor_diamondtriangles.svg	21	yes	0	0	2000	6	5	antiphase_hc_osi.wav	2	6	1	noise_calib_stim_LEFT.wav	1	1	blb_dichoticlistening_ba-ba.mp3	ba	ba	0	left
6.6.1	win	2023-06-27	13:10:48	13:26:37	943270	5e41723aade7c2000b4c14f8	1	1	main_slash	24	advance_on_keypress_SLASH	60	stimuli_target_trianglerectangles.svg	stimuli_distractor_diamondtriangles.svg	21	yes	57	0	352	6	5	antiphase_hc_osi.wav	2	6	1	noise_calib_stim_LEFT.wav	1	1	blb_dichoticlistening_ba-ba.mp3	ba	ba	0	left
6.6.1	win	2023-06-27	13:10:48	13:26:39	945117	5e41723aade7c2000b4c14f8	1	1	main_slash	24	main_slash	61	stimuli_distractor_trianglediamonds.svg	stimuli_target_rectangletriangles.svg	9	yes	53	1	848	6	5	antiphase_hc_osi.wav	2	6	1	noise_calib_stim_LEFT.wav	1	1	blb_dichoticlistening_ba-ba.mp3	ba	ba	0	left
6.6.1	win	2023-06-27	13:10:48	13:26:39	945117	5e41723aade7c2000b4c14f8	1	1	main_slash	24	advance_on_keypress_SLASH	62	stimuli_distractor_trianglediamonds.svg	stimuli_target_rectangletriangles.svg	9	yes	57	0	540	6	5	antiphase_hc_osi.wav	2	6	1	noise_calib_stim_LEFT.wav	1	1	blb_dichoticlistening_ba-ba.mp3	ba	ba	0	left
6.6.1	win	2023-06-27	13:10:48	13:26:40	947061	5e41723aade7c2000b4c14f8	1	1	main_slash	24	main_slash	63	stimuli_target_rectanglediamonds.svg	stimuli_distractor_diamondtriangles.svg	6	yes	53	1	757	6	5	antiphase_hc_osi.wav	2	6	1	noise_calib_stim_LEFT.wav	1	1	blb_dichoticlistening_ba-ba.mp3	ba	ba	0	left
6.6.1	win	2023-06-27	13:10:48	13:26:40	947061	5e41723aade7c2000b4c14f8	1	1	main_slash	24	advance_on_keypress_SLASH	64	stimuli_target_rectanglediamonds.svg	stimuli_distractor_diamondtriangles.svg	6	yes	57	0	365	6	5	antiphase_hc_osi.wav	2	6	1	noise_calib_stim_LEFT.wav	1	1	blb_dichoticlistening_ba-ba.mp3	ba	ba	0	left
6.6.1	win	2023-06-27	13:10:48	13:26:42	948949	5e41723aade7c2000b4c14f8	1	1	main_slash	24	main_slash	65	stimuli_target_rectangletriangles.svg	stimuli_distractor_trianglediamonds.svg	1	yes	53	1	876	6	5	antiphase_hc_osi.wav	2	6	1	noise_calib_stim_LEFT.wav	1	1	blb_dichoticlistening_ba-ba.mp3	ba	ba	0	left
6.6.1	win	2023-06-27	13:10:48	13:26:42	948949	5e41723aade7c2000b4c14f8	1	1	main_slash	24	advance_on_keypress_SLASH	66	stimuli_target_rectangletriangles.svg	stimuli_distractor_trianglediamonds.svg	1	yes	57	0	480	6	5	antiphase_hc_osi.wav	2	6	1	noise_calib_stim_LEFT.wav	1	1	blb_dichoticlistening_ba-ba.mp3	ba	ba	0	left
6.6.1	win	2023-06-27	13:10:48	13:26:44	950964	5e41723aade7c2000b4c14f8	1	1	main_slash	24	main_slash	67	stimuli_distractor_trianglediamonds.svg	stimuli_target_diamondsquares.svg	28	yes	53	1	890	6	5	antiphase_hc_osi.wav	2	6	1	noise_calib_stim_LEFT.wav	1	1	blb_dichoticlistening_ba-ba.mp3	ba	ba	0	left
6.6.1	win	2023-06-27	13:10:48	13:26:44	950964	5e41723aade7c2000b4c14f8	1	1	main_slash	24	advance_on_keypress_SLASH	68	stimuli_distractor_trianglediamonds.svg	stimuli_target_diamondsquares.svg	28	yes	57	0	493	6	5	antiphase_hc_osi.wav	2	6	1	noise_calib_stim_LEFT.wav	1	1	blb_dichoticlistening_ba-ba.mp3	ba	ba	0	left
6.6.1	win	2023-06-27	13:10:48	13:26:47	954093	5e41723aade7c2000b4c14f8	1	1	main_slash	24	main_slash	69	stimuli_distractor_diamondtriangles.svg	stimuli_distractor_diamondtriangles.svg	39	no	0	1	2000	6	5	antiphase_hc_osi.wav	2	6	1	noise_calib_stim_LEFT.wav	1	1	blb_dichoticlistening_ba-ba.mp3	ba	ba	0	left
6.6.1	win	2023-06-27	13:10:48	13:26:47	954093	5e41723aade7c2000b4c14f8	1	1	main_slash	24	advance_on_keypress_SLASH	70	stimuli_distractor_diamondtriangles.svg	stimuli_distractor_diamondtriangles.svg	39	no	57	0	381	6	5	antiphase_hc_osi.wav	2	6	1	noise_calib_stim_LEFT.wav	1	1	blb_dichoticlistening_ba-ba.mp3	ba	ba	0	left
6.6.1	win	2023-06-27	13:10:48	13:26:49	955949	5e41723aade7c2000b4c14f8	1	1	main_slash	24	main_slash	71	stimuli_target_squarediamonds.svg	stimuli_distractor_diamondtriangles.svg	8	yes	53	1	819	6	5	antiphase_hc_osi.wav	2	6	1	noise_calib_stim_LEFT.wav	1	1	blb_dichoticlistening_ba-ba.mp3	ba	ba	0	left
6.6.1	win	2023-06-27	13:10:48	13:26:49	955949	5e41723aade7c2000b4c14f8	1	1	main_slash	24	advance_on_keypress_SLASH	72	stimuli_target_squarediamonds.svg	stimuli_distractor_diamondtriangles.svg	8	yes	57	0	441	6	5	antiphase_hc_osi.wav	2	6	1	noise_calib_stim_LEFT.wav	1	1	blb_dichoticlistening_ba-ba.mp3	ba	ba	0	left
6.6.1	win	2023-06-27	13:10:48	13:26:51	957886	5e41723aade7c2000b4c14f8	1	1	main_slash	24	main_slash	73	stimuli_distractor_trianglediamonds.svg	stimuli_target_squarediamonds.svg	12	yes	53	1	854	6	5	antiphase_hc_osi.wav	2	6	1	noise_calib_stim_LEFT.wav	1	1	blb_dichoticlistening_ba-ba.mp3	ba	ba	0	left
6.6.1	win	2023-06-27	13:10:48	13:26:51	957886	5e41723aade7c2000b4c14f8	1	1	main_slash	24	advance_on_keypress_SLASH	74	stimuli_distractor_trianglediamonds.svg	stimuli_target_squarediamonds.svg	12	yes	57	0	305	6	5	antiphase_hc_osi.wav	2	6	1	noise_calib_stim_LEFT.wav	1	1	blb_dichoticlistening_ba-ba.mp3	ba	ba	0	left
6.6.1	win	2023-06-27	13:10:48	13:26:54	960835	5e41723aade7c2000b4c14f8	1	1	main_slash	24	main_slash	75	stimuli_distractor_diamondtriangles.svg	stimuli_target_diamondsquares.svg	32	yes	0	0	2000	6	5	antiphase_hc_osi.wav	2	6	1	noise_calib_stim_LEFT.wav	1	1	blb_dichoticlistening_ba-ba.mp3	ba	ba	0	left
6.6.1	win	2023-06-27	13:10:48	13:26:54	960835	5e41723aade7c2000b4c14f8	1	1	main_slash	24	advance_on_keypress_SLASH	76	stimuli_distractor_diamondtriangles.svg	stimuli_target_diamondsquares.svg	32	yes	57	0	416	6	5	antiphase_hc_osi.wav	2	6	1	noise_calib_stim_LEFT.wav	1	1	blb_dichoticlistening_ba-ba.mp3	ba	ba	0	left
6.6.1	win	2023-06-27	13:10:48	13:26:56	962765	5e41723aade7c2000b4c14f8	1	1	main_slash	24	main_slash	77	stimuli_distractor_diamondtriangles.svg	stimuli_target_squaretriangles.svg	15	yes	53	1	861	6	5	antiphase_hc_osi.wav	2	6	1	noise_calib_stim_LEFT.wav	1	1	blb_dichoticlistening_ba-ba.mp3	ba	ba	0	left
6.6.1	win	2023-06-27	13:10:48	13:26:56	962765	5e41723aade7c2000b4c14f8	1	1	main_slash	24	advance_on_keypress_SLASH	78	stimuli_distractor_diamondtriangles.svg	stimuli_target_squaretriangles.svg	15	yes	57	0	394	6	5	antiphase_hc_osi.wav	2	6	1	noise_calib_stim_LEFT.wav	1	1	blb_dichoticlistening_ba-ba.mp3	ba	ba	0	left
6.6.1	win	2023-06-27	13:10:48	13:26:58	964669	5e41723aade7c2000b4c14f8	1	1	main_slash	24	main_slash	79	stimuli_target_squaretriangles.svg	stimuli_distractor_trianglediamonds.svg	3	yes	53	1	881	6	5	antiphase_hc_osi.wav	2	6	1	noise_calib_stim_LEFT.wav	1	1	blb_dichoticlistening_ba-ba.mp3	ba	ba	0	left
6.6.1	win	2023-06-27	13:10:48	13:26:58	964669	5e41723aade7c2000b4c14f8	1	1	main_slash	24	advance_on_keypress_SLASH	80	stimuli_target_squaretriangles.svg	stimuli_distractor_trianglediamonds.svg	3	yes	57	0	340	6	5	antiphase_hc_osi.wav	2	6	1	noise_calib_stim_LEFT.wav	1	1	blb_dichoticlistening_ba-ba.mp3	ba	ba	0	left
6.6.1	win	2023-06-27	13:10:48	13:27:00	966534	5e41723aade7c2000b4c14f8	1	1	main_slash	24	main_slash	81	stimuli_target_squaretriangles.svg	stimuli_distractor_trianglediamonds.svg	3	yes	53	1	876	6	5	antiphase_hc_osi.wav	2	6	1	noise_calib_stim_LEFT.wav	1	1	blb_dichoticlistening_ba-ba.mp3	ba	ba	0	left
6.6.1	win	2023-06-27	13:10:48	13:27:00	966534	5e41723aade7c2000b4c14f8	1	1	main_slash	24	advance_on_keypress_SLASH	82	stimuli_target_squaretriangles.svg	stimuli_distractor_trianglediamonds.svg	3	yes	57	0	407	6	5	antiphase_hc_osi.wav	2	6	1	noise_calib_stim_LEFT.wav	1	1	blb_dichoticlistening_ba-ba.mp3	ba	ba	0	left
6.6.1	win	2023-06-27	13:10:48	13:27:02	968478	5e41723aade7c2000b4c14f8	1	1	main_slash	24	main_slash	83	stimuli_distractor_trianglediamonds.svg	stimuli_target_rectangletriangles.svg	9	yes	53	1	885	6	5	antiphase_hc_osi.wav	2	6	1	noise_calib_stim_LEFT.wav	1	1	blb_dichoticlistening_ba-ba.mp3	ba	ba	0	left
6.6.1	win	2023-06-27	13:10:48	13:27:02	968478	5e41723aade7c2000b4c14f8	1	1	main_slash	24	advance_on_keypress_SLASH	84	stimuli_distractor_trianglediamonds.svg	stimuli_target_rectangletriangles.svg	9	yes	57	0	359	6	5	antiphase_hc_osi.wav	2	6	1	noise_calib_stim_LEFT.wav	1	1	blb_dichoticlistening_ba-ba.mp3	ba	ba	0	left
6.6.1	win	2023-06-27	13:10:48	13:27:04	970293	5e41723aade7c2000b4c14f8	1	1	main_slash	24	main_slash	85	stimuli_target_rectanglediamonds.svg	stimuli_distractor_trianglediamonds.svg	2	yes	53	1	816	6	5	antiphase_hc_osi.wav	2	6	1	noise_calib_stim_LEFT.wav	1	1	blb_dichoticlistening_ba-ba.mp3	ba	ba	0	left
6.6.1	win	2023-06-27	13:10:48	13:27:04	970293	5e41723aade7c2000b4c14f8	1	1	main_slash	24	advance_on_keypress_SLASH	86	stimuli_target_rectanglediamonds.svg	stimuli_distractor_trianglediamonds.svg	2	yes	57	0	357	6	5	antiphase_hc_osi.wav	2	6	1	noise_calib_stim_LEFT.wav	1	1	blb_dichoticlistening_ba-ba.mp3	ba	ba	0	left
6.6.1	win	2023-06-27	13:10:48	13:27:06	972285	5e41723aade7c2000b4c14f8	1	1	main_slash	24	main_slash	87	stimuli_distractor_diamondtriangles.svg	stimuli_target_trianglesquares.svg	30	yes	53	1	989	6	5	antiphase_hc_osi.wav	2	6	1	noise_calib_stim_LEFT.wav	1	1	blb_dichoticlistening_ba-ba.mp3	ba	ba	0	left
6.6.1	win	2023-06-27	13:10:48	13:27:06	972285	5e41723aade7c2000b4c14f8	1	1	main_slash	24	advance_on_keypress_SLASH	88	stimuli_distractor_diamondtriangles.svg	stimuli_target_trianglesquares.svg	30	yes	57	0	347	6	5	antiphase_hc_osi.wav	2	6	1	noise_calib_stim_LEFT.wav	1	1	blb_dichoticlistening_ba-ba.mp3	ba	ba	0	left
6.6.1	win	2023-06-27	13:10:48	13:27:08	974187	5e41723aade7c2000b4c14f8	1	1	main_slash	24	main_slash	89	stimuli_distractor_diamondtriangles.svg	stimuli_target_squaretriangles.svg	15	yes	53	1	902	6	5	antiphase_hc_osi.wav	2	6	1	noise_calib_stim_LEFT.wav	1	1	blb_dichoticlistening_ba-ba.mp3	ba	ba	0	left
6.6.1	win	2023-06-27	13:10:48	13:27:08	974187	5e41723aade7c2000b4c14f8	1	1	main_slash	24	advance_on_keypress_SLASH	90	stimuli_distractor_diamondtriangles.svg	stimuli_target_squaretriangles.svg	15	yes	57	0	510	6	5	antiphase_hc_osi.wav	2	6	1	noise_calib_stim_LEFT.wav	1	1	blb_dichoticlistening_ba-ba.mp3	ba	ba	0	left
6.6.1	win	2023-06-27	13:10:48	13:27:11	977336	5e41723aade7c2000b4c14f8	1	1	main_slash	24	main_slash	91	stimuli_distractor_diamondtriangles.svg	stimuli_distractor_diamondtriangles.svg	40	no	0	1	2000	6	5	antiphase_hc_osi.wav	2	6	1	noise_calib_stim_LEFT.wav	1	1	blb_dichoticlistening_ba-ba.mp3	ba	ba	0	left
6.6.1	win	2023-06-27	13:10:48	13:27:11	977336	5e41723aade7c2000b4c14f8	1	1	main_slash	24	advance_on_keypress_SLASH	92	stimuli_distractor_diamondtriangles.svg	stimuli_distractor_diamondtriangles.svg	40	no	57	0	388	6	5	antiphase_hc_osi.wav	2	6	1	noise_calib_stim_LEFT.wav	1	1	blb_dichoticlistening_ba-ba.mp3	ba	ba	0	left
6.6.1	win	2023-06-27	13:10:48	13:27:13	979207	5e41723aade7c2000b4c14f8	1	1	main_slash	24	main_slash	93	stimuli_target_rectangletriangles.svg	stimuli_distractor_trianglediamonds.svg	1	yes	53	1	836	6	5	antiphase_hc_osi.wav	2	6	1	noise_calib_stim_LEFT.wav	1	1	blb_dichoticlistening_ba-ba.mp3	ba	ba	0	left
6.6.1	win	2023-06-27	13:10:48	13:27:13	979207	5e41723aade7c2000b4c14f8	1	1	main_slash	24	advance_on_keypress_SLASH	94	stimuli_target_rectangletriangles.svg	stimuli_distractor_trianglediamonds.svg	1	yes	57	0	416	6	5	antiphase_hc_osi.wav	2	6	1	noise_calib_stim_LEFT.wav	1	1	blb_dichoticlistening_ba-ba.mp3	ba	ba	0	left
6.6.1	win	2023-06-27	13:10:48	13:27:16	982271	5e41723aade7c2000b4c14f8	1	1	main_slash	24	main_slash	95	stimuli_distractor_trianglediamonds.svg	stimuli_distractor_trianglediamonds.svg	33	no	0	1	2000	6	5	antiphase_hc_osi.wav	2	6	1	noise_calib_stim_LEFT.wav	1	1	blb_dichoticlistening_ba-ba.mp3	ba	ba	0	left
6.6.1	win	2023-06-27	13:10:48	13:27:16	982271	5e41723aade7c2000b4c14f8	1	1	main_slash	24	advance_on_keypress_SLASH	96	stimuli_distractor_trianglediamonds.svg	stimuli_distractor_trianglediamonds.svg	33	no	57	0	490	6	5	antiphase_hc_osi.wav	2	6	1	noise_calib_stim_LEFT.wav	1	1	blb_dichoticlistening_ba-ba.mp3	ba	ba	0	left
6.6.1	win	2023-06-27	13:10:48	13:27:18	984437	5e41723aade7c2000b4c14f8	1	1	main_slash	24	main_slash	97	stimuli_distractor_diamondtriangles.svg	stimuli_target_diamondrectangles.svg	31	yes	53	1	1029	6	5	antiphase_hc_osi.wav	2	6	1	noise_calib_stim_LEFT.wav	1	1	blb_dichoticlistening_ba-ba.mp3	ba	ba	0	left
6.6.1	win	2023-06-27	13:10:48	13:27:18	984437	5e41723aade7c2000b4c14f8	1	1	main_slash	24	advance_on_keypress_SLASH	98	stimuli_distractor_diamondtriangles.svg	stimuli_target_diamondrectangles.svg	31	yes	57	0	594	6	5	antiphase_hc_osi.wav	2	6	1	noise_calib_stim_LEFT.wav	1	1	blb_dichoticlistening_ba-ba.mp3	ba	ba	0	left
6.6.1	win	2023-06-27	13:10:48	13:27:20	986731	5e41723aade7c2000b4c14f8	1	1	main_slash	24	main_slash	99	stimuli_distractor_trianglediamonds.svg	stimuli_target_squaretriangles.svg	11	yes	53	1	1065	6	5	antiphase_hc_osi.wav	2	6	1	noise_calib_stim_LEFT.wav	1	1	blb_dichoticlistening_ba-ba.mp3	ba	ba	0	left
6.6.1	win	2023-06-27	13:10:48	13:27:20	986731	5e41723aade7c2000b4c14f8	1	1	main_slash	24	advance_on_keypress_SLASH	100	stimuli_distractor_trianglediamonds.svg	stimuli_target_squaretriangles.svg	11	yes	57	0	652	6	5	antiphase_hc_osi.wav	2	6	1	noise_calib_stim_LEFT.wav	1	1	blb_dichoticlistening_ba-ba.mp3	ba	ba	0	left
6.6.1	win	2023-06-27	13:10:48	13:27:22	988982	5e41723aade7c2000b4c14f8	1	1	main_slash	24	main_slash	101	stimuli_target_diamondsquares.svg	stimuli_distractor_diamondtriangles.svg	24	yes	53	1	952	6	5	antiphase_hc_osi.wav	2	6	1	noise_calib_stim_LEFT.wav	1	1	blb_dichoticlistening_ba-ba.mp3	ba	ba	0	left
6.6.1	win	2023-06-27	13:10:48	13:27:22	988982	5e41723aade7c2000b4c14f8	1	1	main_slash	24	advance_on_keypress_SLASH	102	stimuli_target_diamondsquares.svg	stimuli_distractor_diamondtriangles.svg	24	yes	57	0	336	6	5	antiphase_hc_osi.wav	2	6	1	noise_calib_stim_LEFT.wav	1	1	blb_dichoticlistening_ba-ba.mp3	ba	ba	0	left
6.6.1	win	2023-06-27	13:10:48	13:27:24	990772	5e41723aade7c2000b4c14f8	1	1	main_slash	24	main_slash	103	stimuli_target_rectanglediamonds.svg	stimuli_distractor_diamondtriangles.svg	6	yes	53	1	809	6	5	antiphase_hc_osi.wav	2	6	1	noise_calib_stim_LEFT.wav	1	1	blb_dichoticlistening_ba-ba.mp3	ba	ba	0	left
6.6.1	win	2023-06-27	13:10:48	13:27:24	990772	5e41723aade7c2000b4c14f8	1	1	main_slash	24	advance_on_keypress_SLASH	104	stimuli_target_rectanglediamonds.svg	stimuli_distractor_diamondtriangles.svg	6	yes	57	0	407	6	5	antiphase_hc_osi.wav	2	6	1	noise_calib_stim_LEFT.wav	1	1	blb_dichoticlistening_ba-ba.mp3	ba	ba	0	left
6.6.1	win	2023-06-27	13:10:48	13:27:26	992798	5e41723aade7c2000b4c14f8	1	1	main_slash	24	main_slash	105	stimuli_target_trianglesquares.svg	stimuli_distractor_trianglediamonds.svg	18	yes	53	1	981	6	5	antiphase_hc_osi.wav	2	6	1	noise_calib_stim_LEFT.wav	1	1	blb_dichoticlistening_ba-ba.mp3	ba	ba	0	left
6.6.1	win	2023-06-27	13:10:48	13:27:26	992798	5e41723aade7c2000b4c14f8	1	1	main_slash	24	advance_on_keypress_SLASH	106	stimuli_target_trianglesquares.svg	stimuli_distractor_trianglediamonds.svg	18	yes	57	0	380	6	5	antiphase_hc_osi.wav	2	6	1	noise_calib_stim_LEFT.wav	1	1	blb_dichoticlistening_ba-ba.mp3	ba	ba	0	left
6.6.1	win	2023-06-27	13:10:48	13:27:28	994823	5e41723aade7c2000b4c14f8	1	1	main_slash	24	main_slash	107	stimuli_distractor_trianglediamonds.svg	stimuli_target_rectanglediamonds.svg	10	yes	53	1	986	6	5	antiphase_hc_osi.wav	2	6	1	noise_calib_stim_LEFT.wav	1	1	blb_dichoticlistening_ba-ba.mp3	ba	ba	0	left
6.6.1	win	2023-06-27	13:10:48	13:27:28	994823	5e41723aade7c2000b4c14f8	1	1	main_slash	24	advance_on_keypress_SLASH	108	stimuli_distractor_trianglediamonds.svg	stimuli_target_rectanglediamonds.svg	10	yes	57	0	416	6	5	antiphase_hc_osi.wav	2	6	1	noise_calib_stim_LEFT.wav	1	1	blb_dichoticlistening_ba-ba.mp3	ba	ba	0	left
6.6.1	win	2023-06-27	13:10:48	13:27:30	996759	5e41723aade7c2000b4c14f8	1	1	main_slash	24	main_slash	109	stimuli_target_diamondrectangles.svg	stimuli_distractor_diamondtriangles.svg	23	yes	53	1	870	6	5	antiphase_hc_osi.wav	2	6	1	noise_calib_stim_LEFT.wav	1	1	blb_dichoticlistening_ba-ba.mp3	ba	ba	0	left
6.6.1	win	2023-06-27	13:10:48	13:27:30	996759	5e41723aade7c2000b4c14f8	1	1	main_slash	24	advance_on_keypress_SLASH	110	stimuli_target_diamondrectangles.svg	stimuli_distractor_diamondtriangles.svg	23	yes	57	0	329	6	5	antiphase_hc_osi.wav	2	6	1	noise_calib_stim_LEFT.wav	1	1	blb_dichoticlistening_ba-ba.mp3	ba	ba	0	left
6.6.1	win	2023-06-27	13:10:48	13:27:32	998669	5e41723aade7c2000b4c14f8	1	1	main_slash	24	main_slash	111	stimuli_target_trianglerectangles.svg	stimuli_distractor_diamondtriangles.svg	21	yes	53	1	930	6	5	antiphase_hc_osi.wav	2	6	1	noise_calib_stim_LEFT.wav	1	1	blb_dichoticlistening_ba-ba.mp3	ba	ba	0	left
6.6.1	win	2023-06-27	13:10:48	13:27:32	998669	5e41723aade7c2000b4c14f8	1	1	main_slash	24	advance_on_keypress_SLASH	112	stimuli_target_trianglerectangles.svg	stimuli_distractor_diamondtriangles.svg	21	yes	57	0	315	6	5	antiphase_hc_osi.wav	2	6	1	noise_calib_stim_LEFT.wav	1	1	blb_dichoticlistening_ba-ba.mp3	ba	ba	0	left
6.6.1	win	2023-06-27	13:10:48	13:27:34	1000613	5e41723aade7c2000b4c14f8	1	1	main_slash	24	main_slash	113	stimuli_target_diamondsquares.svg	stimuli_distractor_trianglediamonds.svg	20	yes	53	1	972	6	5	antiphase_hc_osi.wav	2	6	1	noise_calib_stim_LEFT.wav	1	1	blb_dichoticlistening_ba-ba.mp3	ba	ba	0	left
6.6.1	win	2023-06-27	13:10:48	13:27:34	1000613	5e41723aade7c2000b4c14f8	1	1	main_slash	24	advance_on_keypress_SLASH	114	stimuli_target_diamondsquares.svg	stimuli_distractor_trianglediamonds.svg	20	yes	57	0	379	6	5	antiphase_hc_osi.wav	2	6	1	noise_calib_stim_LEFT.wav	1	1	blb_dichoticlistening_ba-ba.mp3	ba	ba	0	left
6.6.1	win	2023-06-27	13:10:48	13:27:36	1002669	5e41723aade7c2000b4c14f8	1	1	main_slash	24	main_slash	115	stimuli_target_squarediamonds.svg	stimuli_distractor_diamondtriangles.svg	8	yes	53	1	1026	6	5	antiphase_hc_osi.wav	2	6	1	noise_calib_stim_LEFT.wav	1	1	blb_dichoticlistening_ba-ba.mp3	ba	ba	0	left
6.6.1	win	2023-06-27	13:10:48	13:27:36	1002669	5e41723aade7c2000b4c14f8	1	1	main_slash	24	advance_on_keypress_SLASH	116	stimuli_target_squarediamonds.svg	stimuli_distractor_diamondtriangles.svg	8	yes	57	0	263	6	5	antiphase_hc_osi.wav	2	6	1	noise_calib_stim_LEFT.wav	1	1	blb_dichoticlistening_ba-ba.mp3	ba	ba	0	left
6.6.1	win	2023-06-27	13:10:48	13:27:38	1004524	5e41723aade7c2000b4c14f8	1	1	main_slash	24	main_slash	117	stimuli_distractor_trianglediamonds.svg	stimuli_target_squarediamonds.svg	12	yes	53	1	947	6	5	antiphase_hc_osi.wav	2	6	1	noise_calib_stim_LEFT.wav	1	1	blb_dichoticlistening_ba-ba.mp3	ba	ba	0	left
6.6.1	win	2023-06-27	13:10:48	13:27:38	1004524	5e41723aade7c2000b4c14f8	1	1	main_slash	24	advance_on_keypress_SLASH	118	stimuli_distractor_trianglediamonds.svg	stimuli_target_squarediamonds.svg	12	yes	57	0	315	6	5	antiphase_hc_osi.wav	2	6	1	noise_calib_stim_LEFT.wav	1	1	blb_dichoticlistening_ba-ba.mp3	ba	ba	0	left
6.6.1	win	2023-06-27	13:10:48	13:27:40	1006445	5e41723aade7c2000b4c14f8	1	1	main_slash	24	main_slash	119	stimuli_target_rectangletriangles.svg	stimuli_distractor_diamondtriangles.svg	5	yes	53	1	949	6	5	antiphase_hc_osi.wav	2	6	1	noise_calib_stim_LEFT.wav	1	1	blb_dichoticlistening_ba-ba.mp3	ba	ba	0	left
6.6.1	win	2023-06-27	13:10:48	13:27:40	1006445	5e41723aade7c2000b4c14f8	1	1	main_slash	24	advance_on_keypress_SLASH	120	stimuli_target_rectangletriangles.svg	stimuli_distractor_diamondtriangles.svg	5	yes	57	0	332	6	5	antiphase_hc_osi.wav	2	6	1	noise_calib_stim_LEFT.wav	1	1	blb_dichoticlistening_ba-ba.mp3	ba	ba	0	left
6.6.1	win	2023-06-27	13:10:48	13:27:43	1009431	5e41723aade7c2000b4c14f8	1	1	main_slash	24	main_slash	121	stimuli_distractor_trianglediamonds.svg	stimuli_distractor_diamondtriangles.svg	36	no	0	1	2000	6	5	antiphase_hc_osi.wav	2	6	1	noise_calib_stim_LEFT.wav	1	1	blb_dichoticlistening_ba-ba.mp3	ba	ba	0	left
6.6.1	win	2023-06-27	13:10:48	13:27:43	1009431	5e41723aade7c2000b4c14f8	1	1	main_slash	24	advance_on_keypress_SLASH	122	stimuli_distractor_trianglediamonds.svg	stimuli_distractor_diamondtriangles.svg	36	no	57	0	498	6	5	antiphase_hc_osi.wav	2	6	1	noise_calib_stim_LEFT.wav	1	1	blb_dichoticlistening_ba-ba.mp3	ba	ba	0	left
6.6.1	win	2023-06-27	13:10:48	13:27:46	1012584	5e41723aade7c2000b4c14f8	1	1	main_slash	24	main_slash	123	stimuli_distractor_diamondtriangles.svg	stimuli_distractor_trianglediamonds.svg	37	no	0	1	2000	6	5	antiphase_hc_osi.wav	2	6	1	noise_calib_stim_LEFT.wav	1	1	blb_dichoticlistening_ba-ba.mp3	ba	ba	0	left
6.6.1	win	2023-06-27	13:10:48	13:27:46	1012584	5e41723aade7c2000b4c14f8	1	1	main_slash	24	advance_on_keypress_SLASH	124	stimuli_distractor_diamondtriangles.svg	stimuli_distractor_trianglediamonds.svg	37	no	57	0	481	6	5	antiphase_hc_osi.wav	2	6	1	noise_calib_stim_LEFT.wav	1	1	blb_dichoticlistening_ba-ba.mp3	ba	ba	0	left
6.6.1	win	2023-06-27	13:10:48	13:27:49	1015721	5e41723aade7c2000b4c14f8	1	1	main_slash	24	main_slash	125	stimuli_distractor_trianglediamonds.svg	stimuli_distractor_diamondtriangles.svg	35	no	0	1	2000	6	5	antiphase_hc_osi.wav	2	6	1	noise_calib_stim_LEFT.wav	1	1	blb_dichoticlistening_ba-ba.mp3	ba	ba	0	left
6.6.1	win	2023-06-27	13:10:48	13:27:49	1015721	5e41723aade7c2000b4c14f8	1	1	main_slash	24	advance_on_keypress_SLASH	126	stimuli_distractor_trianglediamonds.svg	stimuli_distractor_diamondtriangles.svg	35	no	57	0	616	6	5	antiphase_hc_osi.wav	2	6	1	noise_calib_stim_LEFT.wav	1	1	blb_dichoticlistening_ba-ba.mp3	ba	ba	0	left
6.6.1	win	2023-06-27	13:10:48	13:27:51	1017797	5e41723aade7c2000b4c14f8	1	1	main_slash	24	main_slash	127	stimuli_target_diamondrectangles.svg	stimuli_distractor_trianglediamonds.svg	19	yes	53	1	806	6	5	antiphase_hc_osi.wav	2	6	1	noise_calib_stim_LEFT.wav	1	1	blb_dichoticlistening_ba-ba.mp3	ba	ba	0	left
6.6.1	win	2023-06-27	13:10:48	13:27:51	1017797	5e41723aade7c2000b4c14f8	1	1	main_slash	24	advance_on_keypress_SLASH	128	stimuli_target_diamondrectangles.svg	stimuli_distractor_trianglediamonds.svg	19	yes	57	0	276	6	5	antiphase_hc_osi.wav	2	6	1	noise_calib_stim_LEFT.wav	1	1	blb_dichoticlistening_ba-ba.mp3	ba	ba	0	left
6.6.1	win	2023-06-27	13:10:48	13:27:53	1019510	5e41723aade7c2000b4c14f8	1	1	main_slash	24	main_slash	129	stimuli_target_squarediamonds.svg	stimuli_distractor_trianglediamonds.svg	4	yes	53	1	799	6	5	antiphase_hc_osi.wav	2	6	1	noise_calib_stim_LEFT.wav	1	1	blb_dichoticlistening_ba-ba.mp3	ba	ba	0	left
6.6.1	win	2023-06-27	13:10:48	13:27:53	1019510	5e41723aade7c2000b4c14f8	1	1	main_slash	24	advance_on_keypress_SLASH	130	stimuli_target_squarediamonds.svg	stimuli_distractor_trianglediamonds.svg	4	yes	57	0	261	6	5	antiphase_hc_osi.wav	2	6	1	noise_calib_stim_LEFT.wav	1	1	blb_dichoticlistening_ba-ba.mp3	ba	ba	0	left
6.6.1	win	2023-06-27	13:10:48	13:27:55	1021437	5e41723aade7c2000b4c14f8	1	1	main_slash	24	main_slash	131	stimuli_distractor_diamondtriangles.svg	stimuli_target_rectanglediamonds.svg	14	yes	53	1	1009	6	5	antiphase_hc_osi.wav	2	6	1	noise_calib_stim_LEFT.wav	1	1	blb_dichoticlistening_ba-ba.mp3	ba	ba	0	left
6.6.1	win	2023-06-27	13:10:48	13:27:55	1021437	5e41723aade7c2000b4c14f8	1	1	main_slash	24	advance_on_keypress_SLASH	132	stimuli_distractor_diamondtriangles.svg	stimuli_target_rectanglediamonds.svg	14	yes	57	0	319	6	5	antiphase_hc_osi.wav	2	6	1	noise_calib_stim_LEFT.wav	1	1	blb_dichoticlistening_ba-ba.mp3	ba	ba	0	left
6.6.1	win	2023-06-27	13:10:48	13:27:57	1023366	5e41723aade7c2000b4c14f8	1	1	main_slash	24	main_slash	133	stimuli_distractor_diamondtriangles.svg	stimuli_target_diamondsquares.svg	32	yes	53	1	968	6	5	antiphase_hc_osi.wav	2	6	1	noise_calib_stim_LEFT.wav	1	1	blb_dichoticlistening_ba-ba.mp3	ba	ba	0	left
6.6.1	win	2023-06-27	13:10:48	13:27:57	1023366	5e41723aade7c2000b4c14f8	1	1	main_slash	24	advance_on_keypress_SLASH	134	stimuli_distractor_diamondtriangles.svg	stimuli_target_diamondsquares.svg	32	yes	57	0	335	6	5	antiphase_hc_osi.wav	2	6	1	noise_calib_stim_LEFT.wav	1	1	blb_dichoticlistening_ba-ba.mp3	ba	ba	0	left
6.6.1	win	2023-06-27	13:10:48	13:27:59	1025303	5e41723aade7c2000b4c14f8	1	1	main_slash	24	main_slash	135	stimuli_target_trianglerectangles.svg	stimuli_distractor_trianglediamonds.svg	17	yes	53	1	953	6	5	antiphase_hc_osi.wav	2	6	1	noise_calib_stim_LEFT.wav	1	1	blb_dichoticlistening_ba-ba.mp3	ba	ba	0	left
6.6.1	win	2023-06-27	13:10:48	13:27:59	1025303	5e41723aade7c2000b4c14f8	1	1	main_slash	24	advance_on_keypress_SLASH	136	stimuli_target_trianglerectangles.svg	stimuli_distractor_trianglediamonds.svg	17	yes	57	0	352	6	5	antiphase_hc_osi.wav	2	6	1	noise_calib_stim_LEFT.wav	1	1	blb_dichoticlistening_ba-ba.mp3	ba	ba	0	left
6.6.1	win	2023-06-27	13:10:48	13:28:02	1028300	5e41723aade7c2000b4c14f8	1	1	main_slash	24	main_slash	137	stimuli_distractor_diamondtriangles.svg	stimuli_distractor_trianglediamonds.svg	38	no	0	1	2000	6	5	antiphase_hc_osi.wav	2	6	1	noise_calib_stim_LEFT.wav	1	1	blb_dichoticlistening_ba-ba.mp3	ba	ba	0	left
6.6.1	win	2023-06-27	13:10:48	13:28:02	1028300	5e41723aade7c2000b4c14f8	1	1	main_slash	24	advance_on_keypress_SLASH	138	stimuli_distractor_diamondtriangles.svg	stimuli_distractor_trianglediamonds.svg	38	no	57	0	629	6	5	antiphase_hc_osi.wav	2	6	1	noise_calib_stim_LEFT.wav	1	1	blb_dichoticlistening_ba-ba.mp3	ba	ba	0	left
6.6.1	win	2023-06-27	13:10:48	13:28:05	1031587	5e41723aade7c2000b4c14f8	1	1	main_slash	24	main_slash	139	stimuli_distractor_diamondtriangles.svg	stimuli_distractor_diamondtriangles.svg	39	no	0	1	2000	6	5	antiphase_hc_osi.wav	2	6	1	noise_calib_stim_LEFT.wav	1	1	blb_dichoticlistening_ba-ba.mp3	ba	ba	0	left
6.6.1	win	2023-06-27	13:10:48	13:28:05	1031587	5e41723aade7c2000b4c14f8	1	1	main_slash	24	advance_on_keypress_SLASH	140	stimuli_distractor_diamondtriangles.svg	stimuli_distractor_diamondtriangles.svg	39	no	57	0	366	6	5	antiphase_hc_osi.wav	2	6	1	noise_calib_stim_LEFT.wav	1	1	blb_dichoticlistening_ba-ba.mp3	ba	ba	0	left
6.6.1	win	2023-06-27	13:10:48	13:28:07	1033533	5e41723aade7c2000b4c14f8	1	1	main_slash	24	main_slash	141	stimuli_distractor_trianglediamonds.svg	stimuli_target_trianglerectangles.svg	25	yes	53	1	926	6	5	antiphase_hc_osi.wav	2	6	1	noise_calib_stim_LEFT.wav	1	1	blb_dichoticlistening_ba-ba.mp3	ba	ba	0	left
6.6.1	win	2023-06-27	13:10:48	13:28:07	1033533	5e41723aade7c2000b4c14f8	1	1	main_slash	24	advance_on_keypress_SLASH	142	stimuli_distractor_trianglediamonds.svg	stimuli_target_trianglerectangles.svg	25	yes	57	0	415	6	5	antiphase_hc_osi.wav	2	6	1	noise_calib_stim_LEFT.wav	1	1	blb_dichoticlistening_ba-ba.mp3	ba	ba	0	left
6.6.1	win	2023-06-27	13:10:48	13:28:09	1035557	5e41723aade7c2000b4c14f8	1	1	main_slash	24	main_slash	143	stimuli_distractor_diamondtriangles.svg	stimuli_target_squarediamonds.svg	16	yes	53	1	965	6	5	antiphase_hc_osi.wav	2	6	1	noise_calib_stim_LEFT.wav	1	1	blb_dichoticlistening_ba-ba.mp3	ba	ba	0	left
6.6.1	win	2023-06-27	13:10:48	13:28:09	1035557	5e41723aade7c2000b4c14f8	1	1	main_slash	24	advance_on_keypress_SLASH	144	stimuli_distractor_diamondtriangles.svg	stimuli_target_squarediamonds.svg	16	yes	57	0	444	6	5	antiphase_hc_osi.wav	2	6	1	noise_calib_stim_LEFT.wav	1	1	blb_dichoticlistening_ba-ba.mp3	ba	ba	0	left
6.6.1	win	2023-06-27	13:10:48	13:28:11	1037647	5e41723aade7c2000b4c14f8	1	1	main_slash	24	main_slash	145	stimuli_distractor_trianglediamonds.svg	stimuli_target_diamondsquares.svg	28	yes	53	1	1001	6	5	antiphase_hc_osi.wav	2	6	1	noise_calib_stim_LEFT.wav	1	1	blb_dichoticlistening_ba-ba.mp3	ba	ba	0	left
6.6.1	win	2023-06-27	13:10:48	13:28:11	1037647	5e41723aade7c2000b4c14f8	1	1	main_slash	24	advance_on_keypress_SLASH	146	stimuli_distractor_trianglediamonds.svg	stimuli_target_diamondsquares.svg	28	yes	57	0	567	6	5	antiphase_hc_osi.wav	2	6	1	noise_calib_stim_LEFT.wav	1	1	blb_dichoticlistening_ba-ba.mp3	ba	ba	0	left
6.6.1	win	2023-06-27	13:10:48	13:28:13	1039816	5e41723aade7c2000b4c14f8	1	1	main_slash	24	main_slash	147	stimuli_target_trianglesquares.svg	stimuli_distractor_diamondtriangles.svg	22	yes	53	1	950	6	5	antiphase_hc_osi.wav	2	6	1	noise_calib_stim_LEFT.wav	1	1	blb_dichoticlistening_ba-ba.mp3	ba	ba	0	left
6.6.1	win	2023-06-27	13:10:48	13:28:13	1039816	5e41723aade7c2000b4c14f8	1	1	main_slash	24	advance_on_keypress_SLASH	148	stimuli_target_trianglesquares.svg	stimuli_distractor_diamondtriangles.svg	22	yes	57	0	382	6	5	antiphase_hc_osi.wav	2	6	1	noise_calib_stim_LEFT.wav	1	1	blb_dichoticlistening_ba-ba.mp3	ba	ba	0	left
6.6.1	win	2023-06-27	13:10:48	13:28:15	1041768	5e41723aade7c2000b4c14f8	1	1	main_slash	24	main_slash	149	stimuli_target_squaretriangles.svg	stimuli_distractor_diamondtriangles.svg	7	yes	53	1	917	6	5	antiphase_hc_osi.wav	2	6	1	noise_calib_stim_LEFT.wav	1	1	blb_dichoticlistening_ba-ba.mp3	ba	ba	0	left
6.6.1	win	2023-06-27	13:10:48	13:28:15	1041768	5e41723aade7c2000b4c14f8	1	1	main_slash	24	advance_on_keypress_SLASH	150	stimuli_target_squaretriangles.svg	stimuli_distractor_diamondtriangles.svg	7	yes	57	0	374	6	5	antiphase_hc_osi.wav	2	6	1	noise_calib_stim_LEFT.wav	1	1	blb_dichoticlistening_ba-ba.mp3	ba	ba	0	left
6.6.1	win	2023-06-27	13:10:48	13:28:18	1044784	5e41723aade7c2000b4c14f8	1	1	main_slash	24	main_slash	151	stimuli_distractor_trianglediamonds.svg	stimuli_distractor_trianglediamonds.svg	34	no	0	1	2000	6	5	antiphase_hc_osi.wav	2	6	1	noise_calib_stim_LEFT.wav	1	1	blb_dichoticlistening_ba-ba.mp3	ba	ba	0	left
6.6.1	win	2023-06-27	13:10:48	13:28:18	1044784	5e41723aade7c2000b4c14f8	1	1	main_slash	24	advance_on_keypress_SLASH	152	stimuli_distractor_trianglediamonds.svg	stimuli_distractor_trianglediamonds.svg	34	no	57	0	538	6	5	antiphase_hc_osi.wav	2	6	1	noise_calib_stim_LEFT.wav	1	1	blb_dichoticlistening_ba-ba.mp3	ba	ba	0	left
6.6.1	win	2023-06-27	13:10:48	13:28:20	1046829	5e41723aade7c2000b4c14f8	1	1	main_slash	24	main_slash	153	stimuli_distractor_diamondtriangles.svg	stimuli_target_rectangletriangles.svg	13	yes	53	1	859	6	5	antiphase_hc_osi.wav	2	6	1	noise_calib_stim_LEFT.wav	1	1	blb_dichoticlistening_ba-ba.mp3	ba	ba	0	left
6.6.1	win	2023-06-27	13:10:48	13:28:20	1046829	5e41723aade7c2000b4c14f8	1	1	main_slash	24	advance_on_keypress_SLASH	154	stimuli_distractor_diamondtriangles.svg	stimuli_target_rectangletriangles.svg	13	yes	57	0	327	6	5	antiphase_hc_osi.wav	2	6	1	noise_calib_stim_LEFT.wav	1	1	blb_dichoticlistening_ba-ba.mp3	ba	ba	0	left
6.6.1	win	2023-06-27	13:10:48	13:28:22	1048748	5e41723aade7c2000b4c14f8	1	1	main_slash	24	main_slash	155	stimuli_distractor_trianglediamonds.svg	stimuli_target_diamondrectangles.svg	27	yes	53	1	960	6	5	antiphase_hc_osi.wav	2	6	1	noise_calib_stim_LEFT.wav	1	1	blb_dichoticlistening_ba-ba.mp3	ba	ba	0	left
6.6.1	win	2023-06-27	13:10:48	13:28:22	1048748	5e41723aade7c2000b4c14f8	1	1	main_slash	24	advance_on_keypress_SLASH	156	stimuli_distractor_trianglediamonds.svg	stimuli_target_diamondrectangles.svg	27	yes	57	0	336	6	5	antiphase_hc_osi.wav	2	6	1	noise_calib_stim_LEFT.wav	1	1	blb_dichoticlistening_ba-ba.mp3	ba	ba	0	left
6.6.1	win	2023-06-27	13:10:48	13:28:24	1050748	5e41723aade7c2000b4c14f8	1	1	main_slash	24	main_slash	157	stimuli_distractor_diamondtriangles.svg	stimuli_target_trianglerectangles.svg	29	yes	53	1	1018	6	5	antiphase_hc_osi.wav	2	6	1	noise_calib_stim_LEFT.wav	1	1	blb_dichoticlistening_ba-ba.mp3	ba	ba	0	left
6.6.1	win	2023-06-27	13:10:48	13:28:24	1050748	5e41723aade7c2000b4c14f8	1	1	main_slash	24	advance_on_keypress_SLASH	158	stimuli_distractor_diamondtriangles.svg	stimuli_target_trianglerectangles.svg	29	yes	57	0	278	6	5	antiphase_hc_osi.wav	2	6	1	noise_calib_stim_LEFT.wav	1	1	blb_dichoticlistening_ba-ba.mp3	ba	ba	0	left
6.6.1	win	2023-06-27	13:10:48	13:28:26	1052588	5e41723aade7c2000b4c14f8	1	1	main_slash	24	main_slash	159	stimuli_distractor_trianglediamonds.svg	stimuli_target_trianglesquares.svg	26	yes	53	1	913	6	5	antiphase_hc_osi.wav	2	6	1	noise_calib_stim_LEFT.wav	1	1	blb_dichoticlistening_ba-ba.mp3	ba	ba	0	left
6.6.1	win	2023-06-27	13:10:48	13:28:26	1052588	5e41723aade7c2000b4c14f8	1	1	main_slash	24	advance_on_keypress_SLASH	160	stimuli_distractor_trianglediamonds.svg	stimuli_target_trianglesquares.svg	26	yes	57	0	355	6	5	antiphase_hc_osi.wav	2	6	1	noise_calib_stim_LEFT.wav	1	1	blb_dichoticlistening_ba-ba.mp3	ba	ba	0	left
6.6.1	win	2023-06-27	13:10:48	13:29:09	1095244	5e41723aade7c2000b4c14f8	1	1	practice_z	26	practice_z	1	stimuli_target_squarediamonds.svg	stimuli_distractor_diamondtriangles.svg	2	yes	44	1	737	6	5	antiphase_hc_osi.wav	2	6	1	noise_calib_stim_LEFT.wav	1	1	blb_dichoticlistening_ba-ba.mp3	ba	ba	0	left
6.6.1	win	2023-06-27	13:10:48	13:29:09	1095244	5e41723aade7c2000b4c14f8	1	1	practice_z	26	advance_on_keypress_ZEE	2	stimuli_target_squarediamonds.svg	stimuli_distractor_diamondtriangles.svg	2	yes	57	0	575	6	5	antiphase_hc_osi.wav	2	6	1	noise_calib_stim_LEFT.wav	1	1	blb_dichoticlistening_ba-ba.mp3	ba	ba	0	left
6.6.1	win	2023-06-27	13:10:48	13:29:12	1098292	5e41723aade7c2000b4c14f8	1	1	practice_z	26	practice_z	3	stimuli_distractor_diamondtriangles.svg	stimuli_target_diamondrectangles.svg	8	yes	44	1	798	6	5	antiphase_hc_osi.wav	2	6	1	noise_calib_stim_LEFT.wav	1	1	blb_dichoticlistening_ba-ba.mp3	ba	ba	0	left
6.6.1	win	2023-06-27	13:10:48	13:29:12	1098292	5e41723aade7c2000b4c14f8	1	1	practice_z	26	advance_on_keypress_ZEE	4	stimuli_distractor_diamondtriangles.svg	stimuli_target_diamondrectangles.svg	8	yes	57	0	355	6	5	antiphase_hc_osi.wav	2	6	1	noise_calib_stim_LEFT.wav	1	1	blb_dichoticlistening_ba-ba.mp3	ba	ba	0	left
6.6.1	win	2023-06-27	13:10:48	13:29:14	1101081	5e41723aade7c2000b4c14f8	1	1	practice_z	26	practice_z	5	stimuli_target_squarediamonds.svg	stimuli_distractor_trianglediamonds.svg	5	yes	44	1	787	6	5	antiphase_hc_osi.wav	2	6	1	noise_calib_stim_LEFT.wav	1	1	blb_dichoticlistening_ba-ba.mp3	ba	ba	0	left
6.6.1	win	2023-06-27	13:10:48	13:29:14	1101081	5e41723aade7c2000b4c14f8	1	1	practice_z	26	advance_on_keypress_ZEE	6	stimuli_target_squarediamonds.svg	stimuli_distractor_trianglediamonds.svg	5	yes	57	0	440	6	5	antiphase_hc_osi.wav	2	6	1	noise_calib_stim_LEFT.wav	1	1	blb_dichoticlistening_ba-ba.mp3	ba	ba	0	left
6.6.1	win	2023-06-27	13:10:48	13:29:19	1105163	5e41723aade7c2000b4c14f8	1	1	practice_z	26	practice_z	7	stimuli_distractor_trianglediamonds.svg	stimuli_distractor_diamondtriangles.svg	16	no	0	1	2000	6	5	antiphase_hc_osi.wav	2	6	1	noise_calib_stim_LEFT.wav	1	1	blb_dichoticlistening_ba-ba.mp3	ba	ba	0	left
6.6.1	win	2023-06-27	13:10:48	13:29:19	1105163	5e41723aade7c2000b4c14f8	1	1	practice_z	26	advance_on_keypress_ZEE	8	stimuli_distractor_trianglediamonds.svg	stimuli_distractor_diamondtriangles.svg	16	no	57	0	657	6	5	antiphase_hc_osi.wav	2	6	1	noise_calib_stim_LEFT.wav	1	1	blb_dichoticlistening_ba-ba.mp3	ba	ba	0	left
6.6.1	win	2023-06-27	13:10:48	13:29:22	1108385	5e41723aade7c2000b4c14f8	1	1	practice_z	26	practice_z	9	stimuli_target_diamondsquares.svg	stimuli_distractor_trianglediamonds.svg	6	yes	44	1	918	6	5	antiphase_hc_osi.wav	2	6	1	noise_calib_stim_LEFT.wav	1	1	blb_dichoticlistening_ba-ba.mp3	ba	ba	0	left
6.6.1	win	2023-06-27	13:10:48	13:29:22	1108385	5e41723aade7c2000b4c14f8	1	1	practice_z	26	advance_on_keypress_ZEE	10	stimuli_target_diamondsquares.svg	stimuli_distractor_trianglediamonds.svg	6	yes	57	0	493	6	5	antiphase_hc_osi.wav	2	6	1	noise_calib_stim_LEFT.wav	1	1	blb_dichoticlistening_ba-ba.mp3	ba	ba	0	left
6.6.1	win	2023-06-27	13:10:48	13:29:25	1111399	5e41723aade7c2000b4c14f8	1	1	practice_z	26	practice_z	11	stimuli_distractor_diamondtriangles.svg	stimuli_target_rectangletriangles.svg	7	yes	44	1	864	6	5	antiphase_hc_osi.wav	2	6	1	noise_calib_stim_LEFT.wav	1	1	blb_dichoticlistening_ba-ba.mp3	ba	ba	0	left
6.6.1	win	2023-06-27	13:10:48	13:29:25	1111399	5e41723aade7c2000b4c14f8	1	1	practice_z	26	advance_on_keypress_ZEE	12	stimuli_distractor_diamondtriangles.svg	stimuli_target_rectangletriangles.svg	7	yes	57	0	473	6	5	antiphase_hc_osi.wav	2	6	1	noise_calib_stim_LEFT.wav	1	1	blb_dichoticlistening_ba-ba.mp3	ba	ba	0	left
6.6.1	win	2023-06-27	13:10:48	13:29:29	1115524	5e41723aade7c2000b4c14f8	1	1	practice_z	26	practice_z	13	stimuli_distractor_trianglediamonds.svg	stimuli_distractor_trianglediamonds.svg	15	no	0	1	2000	6	5	antiphase_hc_osi.wav	2	6	1	noise_calib_stim_LEFT.wav	1	1	blb_dichoticlistening_ba-ba.mp3	ba	ba	0	left
6.6.1	win	2023-06-27	13:10:48	13:29:29	1115524	5e41723aade7c2000b4c14f8	1	1	practice_z	26	advance_on_keypress_ZEE	14	stimuli_distractor_trianglediamonds.svg	stimuli_distractor_trianglediamonds.svg	15	no	57	0	377	6	5	antiphase_hc_osi.wav	2	6	1	noise_calib_stim_LEFT.wav	1	1	blb_dichoticlistening_ba-ba.mp3	ba	ba	0	left
6.6.1	win	2023-06-27	13:10:48	13:29:32	1118408	5e41723aade7c2000b4c14f8	1	1	practice_z	26	practice_z	15	stimuli_target_rectanglediamonds.svg	stimuli_distractor_diamondtriangles.svg	1	yes	44	1	865	6	5	antiphase_hc_osi.wav	2	6	1	noise_calib_stim_LEFT.wav	1	1	blb_dichoticlistening_ba-ba.mp3	ba	ba	0	left
6.6.1	win	2023-06-27	13:10:48	13:29:32	1118408	5e41723aade7c2000b4c14f8	1	1	practice_z	26	advance_on_keypress_ZEE	16	stimuli_target_rectanglediamonds.svg	stimuli_distractor_diamondtriangles.svg	1	yes	57	0	425	6	5	antiphase_hc_osi.wav	2	6	1	noise_calib_stim_LEFT.wav	1	1	blb_dichoticlistening_ba-ba.mp3	ba	ba	0	left
